
time,ax,ay,az,wx,wy,wz,Bx,By,Bz,
0.044092,0.0000,0.0000,0.0000,0.0000,0.0000,0.0000,0.0000,0.0000,0.0000,
0.052065,0.0000,0.0000,0.0000,0.0000,0.0000,0.0000,0.0000,0.0000,0.0000,
0.081120,0.0000,0.0000,0.0000,-0.0089,0.0336,-0.0148,0.0000,0.0000,0.0000,
0.083200,0.0000,0.0000,0.0000,-0.0089,0.0336,-0.0148,35.0994,0.2318,12.1268,
0.104324,0.0000,0.0000,0.0000,-0.0089,0.0336,-0.0148,35.0994,0.2318,12.1268,
0.105478,0.0000,0.0000,0.0000,-0.0089,0.0336,-0.0148,35.0994,0.2318,12.1268,
0.150650,0.0000,0.0000,0.0000,0.0077,0.0390,-0.0204,35.0994,0.2318,12.1268,
0.152913,0.0000,0.0000,0.0000,0.0077,0.0390,-0.0204,34.9774,0.3782,12.0414,
0.160270,0.0000,0.0000,0.0000,0.0077,0.0390,-0.0204,34.9774,0.3782,12.0414,
0.171187,0.0000,0.0000,0.0000,0.0077,0.0390,-0.0204,34.9774,0.3782,12.0414,
0.172228,0.0000,0.0000,0.0000,0.0077,0.0390,-0.0204,34.9774,0.3782,12.0414,
0.172978,0.0000,0.0000,0.0000,0.0077,0.0390,-0.0204,34.9774,0.3782,12.0414,
0.173711,0.0000,0.0000,0.0000,0.0077,0.0390,-0.0204,34.9774,0.3782,12.0414,
0.204689,0.0000,0.0000,0.0000,0.0077,0.0390,-0.0204,34.8920,0.5002,11.8096,
0.221850,0.0000,0.0000,0.0000,0.0141,0.0100,0.0021,34.8920,0.5002,11.8096,
0.230133,-0.0236,0.0146,-0.0020,0.0141,0.0100,0.0021,34.8920,0.5002,11.8096,
0.236454,-0.0236,0.0146,-0.0020,0.0141,0.0100,0.0021,34.8920,0.5002,11.8096,
0.237087,-0.0236,0.0146,-0.0020,0.0141,0.0100,0.0021,34.8920,0.5002,11.8096,
0.237586,-0.0236,0.0146,-0.0020,0.0141,0.0100,0.0021,34.8920,0.5002,11.8096,
0.254744,-0.0236,0.0146,-0.0020,0.0141,0.0100,0.0021,34.7822,0.5490,11.8462,
0.291323,-0.0236,0.0146,-0.0020,0.0249,0.0349,-0.0043,34.7822,0.5490,11.8462,
0.300071,-0.0146,0.0248,0.0268,0.0249,0.0349,-0.0043,34.7822,0.5490,11.8462,
0.302448,-0.0146,0.0248,0.0268,0.0249,0.0349,-0.0043,34.7456,0.6222,11.6998,
0.303718,-0.0146,0.0248,0.0268,0.0249,0.0349,-0.0043,34.7456,0.6222,11.6998,
0.304470,-0.0146,0.0248,0.0268,0.0249,0.0349,-0.0043,34.7456,0.6222,11.6998,
0.305151,-0.0146,0.0248,0.0268,0.0249,0.0349,-0.0043,34.7456,0.6222,11.6998,
0.356221,-0.0146,0.0248,0.0268,0.0249,0.0349,-0.0043,34.6968,0.6954,11.5778,
0.359989,-0.0146,0.0248,0.0268,0.0482,0.0280,0.0060,34.6968,0.6954,11.5778,
0.372232,0.0094,-0.0125,-0.0509,0.0482,0.0280,0.0060,34.6968,0.6954,11.5778,
0.372995,0.0094,-0.0125,-0.0509,0.0482,0.0280,0.0060,34.6968,0.6954,11.5778,
0.373528,0.0094,-0.0125,-0.0509,0.0482,0.0280,0.0060,34.6968,0.6954,11.5778,
0.374011,0.0094,-0.0125,-0.0509,0.0482,0.0280,0.0060,34.6968,0.6954,11.5778,
0.374508,0.0094,-0.0125,-0.0509,0.0482,0.0280,0.0060,34.6968,0.6954,11.5778,
0.404697,0.0094,-0.0125,-0.0509,0.0482,0.0280,0.0060,34.6358,0.6832,11.6266,
0.428242,0.0094,-0.0125,-0.0509,0.0349,0.0222,0.0040,34.6358,0.6832,11.6266,
0.437414,-0.0460,0.0181,-0.0100,0.0349,0.0222,0.0040,34.6358,0.6832,11.6266,
0.438163,-0.0460,0.0181,-0.0100,0.0349,0.0222,0.0040,34.6358,0.6832,11.6266,
0.438668,-0.0460,0.0181,-0.0100,0.0349,0.0222,0.0040,34.6358,0.6832,11.6266,
0.439397,-0.0460,0.0181,-0.0100,0.0349,0.0222,0.0040,34.6358,0.6832,11.6266,
0.455747,-0.0460,0.0181,-0.0100,0.0349,0.0222,0.0040,34.6480,0.7198,11.5778,
0.501054,-0.0460,0.0181,-0.0100,0.0182,-0.0226,0.0128,34.6480,0.7198,11.5778,
0.502525,-0.0460,0.0181,-0.0100,0.0182,-0.0226,0.0128,34.5870,0.7564,11.4924,
0.503829,-0.0460,0.0181,-0.0100,0.0182,-0.0226,0.0128,34.5870,0.7564,11.4924,
0.504605,-0.0460,0.0181,-0.0100,0.0182,-0.0226,0.0128,34.5870,0.7564,11.4924,
0.505326,-0.0460,0.0181,-0.0100,0.0182,-0.0226,0.0128,34.5870,0.7564,11.4924,
0.509047,-0.0353,0.0330,-0.0245,0.0182,-0.0226,0.0128,34.5870,0.7564,11.4924,
0.556219,-0.0353,0.0330,-0.0245,0.0182,-0.0226,0.0128,34.5870,0.7686,11.4070,
0.569971,-0.0353,0.0330,-0.0245,0.0324,-0.0402,0.0104,34.5870,0.7686,11.4070,
0.571218,-0.0353,0.0330,-0.0245,0.0324,-0.0402,0.0104,34.5870,0.7686,11.4070,
0.571960,-0.0353,0.0330,-0.0245,0.0324,-0.0402,0.0104,34.5870,0.7686,11.4070,
0.572886,-0.0353,0.0330,-0.0245,0.0324,-0.0402,0.0104,34.5870,0.7686,11.4070,
0.573576,-0.0353,0.0330,-0.0245,0.0324,-0.0402,0.0104,34.5870,0.7686,11.4070,
0.578861,-0.0782,0.0200,-0.1160,0.0324,-0.0402,0.0104,34.5870,0.7686,11.4070,
0.604524,-0.0782,0.0200,-0.1160,0.0324,-0.0402,0.0104,34.5992,0.8052,11.3582,
0.638303,-0.0782,0.0200,-0.1160,0.0353,-0.0646,0.0028,34.5992,0.8052,11.3582,
0.639885,-0.0782,0.0200,-0.1160,0.0353,-0.0646,0.0028,34.5992,0.8052,11.3582,
0.640654,-0.0782,0.0200,-0.1160,0.0353,-0.0646,0.0028,34.5992,0.8052,11.3582,
0.641356,-0.0782,0.0200,-0.1160,0.0353,-0.0646,0.0028,34.5992,0.8052,11.3582,
0.648727,-0.0098,-0.0094,-0.0472,0.0353,-0.0646,0.0028,34.5992,0.8052,11.3582,
0.654595,-0.0098,-0.0094,-0.0472,0.0353,-0.0646,0.0028,34.5626,0.8418,11.2606,
0.705316,-0.0098,-0.0094,-0.0472,0.0353,-0.0646,0.0028,34.6114,0.8906,11.2118,
0.707197,-0.0098,-0.0094,-0.0472,0.0353,-0.0646,0.0028,34.6114,0.8906,11.2118,
0.708031,-0.0098,-0.0094,-0.0472,0.0353,-0.0646,0.0028,34.6114,0.8906,11.2118,
0.708811,-0.0098,-0.0094,-0.0472,0.0353,-0.0646,0.0028,34.6114,0.8906,11.2118,
0.709542,-0.0098,-0.0094,-0.0472,0.0759,-0.0570,-0.0040,34.6114,0.8906,11.2118,
0.718187,-0.0183,0.0035,-0.0933,0.0759,-0.0570,-0.0040,34.6114,0.8906,11.2118,
0.756197,-0.0183,0.0035,-0.0933,0.0759,-0.0570,-0.0040,34.6846,0.8784,11.2118,
0.771969,-0.0183,0.0035,-0.0933,0.0759,-0.0570,-0.0040,34.6846,0.8784,11.2118,
0.775094,-0.0183,0.0035,-0.0933,0.0759,-0.0570,-0.0040,34.6846,0.8784,11.2118,
0.777653,-0.0183,0.0035,-0.0933,0.0759,-0.0570,-0.0040,34.6846,0.8784,11.2118,
0.780399,-0.0183,0.0035,-0.0933,0.0759,-0.0570,-0.0040,34.6846,0.8784,11.2118,
0.782907,-0.0183,0.0035,-0.0933,0.0822,-0.0550,-0.0023,34.6846,0.8784,11.2118,
0.789919,0.0318,-0.0169,-0.1065,0.0822,-0.0550,-0.0023,34.6846,0.8784,11.2118,
0.803747,0.0318,-0.0169,-0.1065,0.0822,-0.0550,-0.0023,34.7944,0.9516,11.0654,
0.838959,0.0318,-0.0169,-0.1065,0.0822,-0.0550,-0.0023,34.7944,0.9516,11.0654,
0.843301,0.0318,-0.0169,-0.1065,0.0822,-0.0550,-0.0023,34.7944,0.9516,11.0654,
0.846684,0.0318,-0.0169,-0.1065,0.0822,-0.0550,-0.0023,34.7944,0.9516,11.0654,
0.849978,0.0318,-0.0169,-0.1065,0.0960,-0.0530,0.0009,34.7944,0.9516,11.0654,
0.860344,0.0318,-0.0169,-0.1065,0.0960,-0.0530,0.0009,34.8066,1.0004,11.0044,
0.862642,0.0214,0.0567,-0.1515,0.0960,-0.0530,0.0009,34.8066,1.0004,11.0044,
0.905749,0.0214,0.0567,-0.1515,0.0960,-0.0530,0.0009,34.8432,1.0004,10.8946,
0.910070,0.0214,0.0567,-0.1515,0.0960,-0.0530,0.0009,34.8432,1.0004,10.8946,
0.913032,0.0214,0.0567,-0.1515,0.0960,-0.0530,0.0009,34.8432,1.0004,10.8946,
0.915416,0.0214,0.0567,-0.1515,0.0960,-0.0530,0.0009,34.8432,1.0004,10.8946,
0.918093,0.0214,0.0567,-0.1515,0.1246,-0.0578,-0.0001,34.8432,1.0004,10.8946,
0.929072,0.0064,-0.0016,-0.2044,0.1246,-0.0578,-0.0001,34.8432,1.0004,10.8946,
0.956004,0.0064,-0.0016,-0.2044,0.1246,-0.0578,-0.0001,34.8798,1.0980,10.6872,
0.971944,0.0064,-0.0016,-0.2044,0.1246,-0.0578,-0.0001,34.8798,1.0980,10.6872,
0.975788,0.0064,-0.0016,-0.2044,0.1246,-0.0578,-0.0001,34.8798,1.0980,10.6872,
0.979466,0.0064,-0.0016,-0.2044,0.1246,-0.0578,-0.0001,34.8798,1.0980,10.6872,
0.982030,0.0064,-0.0016,-0.2044,0.1246,-0.0578,-0.0001,34.8798,1.0980,10.6872,
0.989015,0.0064,-0.0016,-0.2044,0.1394,-0.0514,-0.0033,34.8798,1.0980,10.6872,
0.998181,0.0399,0.0132,-0.1736,0.1394,-0.0514,-0.0033,34.8798,1.0980,10.6872,
1.003671,0.0399,0.0132,-0.1736,0.1394,-0.0514,-0.0033,34.8676,1.0614,10.5164,
1.011810,0.0399,0.0132,-0.1736,0.1394,-0.0514,-0.0033,34.9408,1.0248,10.3456,
1.038783,0.0399,0.0132,-0.1736,0.1394,-0.0514,-0.0033,34.9408,1.0248,10.3456,
1.041956,0.0399,0.0132,-0.1736,0.1394,-0.0514,-0.0033,34.9408,1.0248,10.3456,
1.044463,0.0399,0.0132,-0.1736,0.1394,-0.0514,-0.0033,34.9408,1.0248,10.3456,
1.056757,0.0399,0.0132,-0.1736,0.1957,-0.0698,0.0015,34.9408,1.0248,10.3456,
1.059361,0.0399,0.0132,-0.1736,0.1957,-0.0698,0.0015,34.9042,0.9638,10.1992,
1.067975,-0.0153,-0.0126,-0.0923,0.1957,-0.0698,0.0015,34.9042,0.9638,10.1992,
1.104822,-0.0153,-0.0126,-0.0923,0.1957,-0.0698,0.0015,34.9042,0.9638,10.1992,
1.107336,-0.0153,-0.0126,-0.0923,0.1957,-0.0698,0.0015,34.9042,0.9638,10.1992,
1.109436,-0.0153,-0.0126,-0.0923,0.1957,-0.0698,0.0015,34.9042,0.9638,10.1992,
1.117238,-0.0153,-0.0126,-0.0923,0.1957,-0.0698,0.0015,34.9164,1.0004,9.9552,
1.128744,-0.0153,-0.0126,-0.0923,0.2638,-0.1177,-0.0061,34.9164,1.0004,9.9552,
1.141454,-0.0382,-0.0211,0.0566,0.2638,-0.1177,-0.0061,34.9164,1.0004,9.9552,
1.172232,-0.0382,-0.0211,0.0566,0.2638,-0.1177,-0.0061,34.9164,1.0004,9.9552,
1.176973,-0.0382,-0.0211,0.0566,0.2638,-0.1177,-0.0061,34.9164,1.0004,9.9552,
1.181004,-0.0382,-0.0211,0.0566,0.2638,-0.1177,-0.0061,34.9164,1.0004,9.9552,
1.183956,-0.0382,-0.0211,0.0566,0.2638,-0.1177,-0.0061,34.9164,1.0004,9.9552,
1.185904,-0.0382,-0.0211,0.0566,0.2638,-0.1177,-0.0061,34.9042,0.9760,9.7356,
1.196332,-0.0382,-0.0211,0.0566,0.3690,0.0036,0.0052,34.9042,0.9760,9.7356,
1.213107,0.1278,-0.1242,0.1023,0.3690,0.0036,0.0052,34.9042,0.9760,9.7356,
1.236140,0.1278,-0.1242,0.1023,0.3690,0.0036,0.0052,34.9530,0.9394,9.5526,
1.238289,0.1278,-0.1242,0.1023,0.3690,0.0036,0.0052,34.9530,0.9394,9.5526,
1.240002,0.1278,-0.1242,0.1023,0.3690,0.0036,0.0052,34.9530,0.9394,9.5526,
1.241246,0.1278,-0.1242,0.1023,0.3690,0.0036,0.0052,34.9530,0.9394,9.5526,
1.267621,0.1278,-0.1242,0.1023,0.2778,-0.0017,0.0579,34.9530,0.9394,9.5526,
1.279203,0.1792,0.0931,-0.1229,0.2778,-0.0017,0.0579,34.9530,0.9394,9.5526,
1.295152,0.1792,0.0931,-0.1229,0.2778,-0.0017,0.0579,34.9774,0.9882,9.2842,
1.303873,0.1792,0.0931,-0.1229,0.2778,-0.0017,0.0579,34.9774,0.9882,9.2842,
1.306339,0.1792,0.0931,-0.1229,0.2778,-0.0017,0.0579,34.9774,0.9882,9.2842,
1.309189,0.1792,0.0931,-0.1229,0.2778,-0.0017,0.0579,34.9774,0.9882,9.2842,
1.335335,0.1792,0.0931,-0.1229,0.2879,-0.0843,0.0712,34.9774,0.9882,9.2842,
1.345102,0.0016,0.0733,-0.0596,0.2879,-0.0843,0.0712,34.9774,0.9882,9.2842,
1.354887,0.0016,0.0733,-0.0596,0.2879,-0.0843,0.0712,35.0262,0.9028,9.1256,
1.373026,0.0016,0.0733,-0.0596,0.2879,-0.0843,0.0712,35.0262,0.9028,9.1256,
1.376769,0.0016,0.0733,-0.0596,0.2879,-0.0843,0.0712,35.0262,0.9028,9.1256,
1.380232,0.0016,0.0733,-0.0596,0.2879,-0.0843,0.0712,35.0262,0.9028,9.1256,
1.383212,0.0016,0.0733,-0.0596,0.2879,-0.0843,0.0712,35.0262,0.9028,9.1256,
1.405470,0.0016,0.0733,-0.0596,0.3075,-0.1252,0.0455,35.0262,0.9028,9.1256,
1.416071,0.0016,0.0733,-0.0596,0.3075,-0.1252,0.0455,35.1482,0.8662,8.9304,
1.418957,-0.1426,0.1329,-0.1221,0.3075,-0.1252,0.0455,35.1482,0.8662,8.9304,
1.437510,-0.1426,0.1329,-0.1221,0.3075,-0.1252,0.0455,35.1482,0.8662,8.9304,
1.439421,-0.1426,0.1329,-0.1221,0.3075,-0.1252,0.0455,35.1482,0.8662,8.9304,
1.440724,-0.1426,0.1329,-0.1221,0.3075,-0.1252,0.0455,35.1482,0.8662,8.9304,
1.476485,-0.1426,0.1329,-0.1221,0.3075,-0.1252,0.0455,35.2946,0.8052,8.7474,
1.481401,-0.1426,0.1329,-0.1221,0.3983,-0.1178,0.0534,35.2946,0.8052,8.7474,
1.487797,0.1449,0.0600,-0.0960,0.3983,-0.1178,0.0534,35.2946,0.8052,8.7474,
1.505406,0.1449,0.0600,-0.0960,0.3983,-0.1178,0.0534,35.2946,0.8052,8.7474,
1.508118,0.1449,0.0600,-0.0960,0.3983,-0.1178,0.0534,35.2946,0.8052,8.7474,
1.510681,0.1449,0.0600,-0.0960,0.3983,-0.1178,0.0534,35.2946,0.8052,8.7474,
1.514100,0.1449,0.0600,-0.0960,0.3983,-0.1178,0.0534,35.2946,0.8052,8.7474,
1.535618,0.1449,0.0600,-0.0960,0.3983,-0.1178,0.0534,35.3678,0.7808,8.3570,
1.546242,0.1449,0.0600,-0.0960,0.4627,-0.0935,0.0487,35.3678,0.7808,8.3570,
1.555545,0.0603,-0.0789,-0.1432,0.4627,-0.0935,0.0487,35.3678,0.7808,8.3570,
1.572269,0.0603,-0.0789,-0.1432,0.4627,-0.0935,0.0487,35.3678,0.7808,8.3570,
1.574608,0.0603,-0.0789,-0.1432,0.4627,-0.0935,0.0487,35.3678,0.7808,8.3570,
1.577134,0.0603,-0.0789,-0.1432,0.4627,-0.0935,0.0487,35.3678,0.7808,8.3570,
1.605100,0.0603,-0.0789,-0.1432,0.4627,-0.0935,0.0487,35.4166,0.7198,7.9422,
1.616089,0.0603,-0.0789,-0.1432,0.4080,-0.1049,0.0353,35.4166,0.7198,7.9422,
1.625844,0.1021,-0.0927,-0.3733,0.4080,-0.1049,0.0353,35.4166,0.7198,7.9422,
1.639444,0.1021,-0.0927,-0.3733,0.4080,-0.1049,0.0353,35.4166,0.7198,7.9422,
1.641844,0.1021,-0.0927,-0.3733,0.4080,-0.1049,0.0353,35.4166,0.7198,7.9422,
1.644176,0.1021,-0.0927,-0.3733,0.4080,-0.1049,0.0353,35.4166,0.7198,7.9422,
1.666029,0.1021,-0.0927,-0.3733,0.4080,-0.1049,0.0353,35.4776,0.6710,7.4542,
1.685864,0.1021,-0.0927,-0.3733,0.4304,-0.0196,0.0312,35.4776,0.6710,7.4542,
1.694275,0.0289,0.1114,-0.6338,0.4304,-0.0196,0.0312,35.4776,0.6710,7.4542,
1.703852,0.0289,0.1114,-0.6338,0.4304,-0.0196,0.0312,35.4776,0.6710,7.4542,
1.705129,0.0289,0.1114,-0.6338,0.4304,-0.0196,0.0312,35.4776,0.6710,7.4542,
1.706045,0.0289,0.1114,-0.6338,0.4304,-0.0196,0.0312,35.4776,0.6710,7.4542,
1.706886,0.0289,0.1114,-0.6338,0.4304,-0.0196,0.0312,35.4776,0.6710,7.4542,
1.724289,0.0289,0.1114,-0.6338,0.4304,-0.0196,0.0312,35.5386,0.6222,6.9296,
1.755586,0.0289,0.1114,-0.6338,0.1173,-0.0618,0.0884,35.5386,0.6222,6.9296,
1.765210,0.0025,0.5609,-1.1431,0.1173,-0.0618,0.0884,35.5386,0.6222,6.9296,
1.771000,0.0025,0.5609,-1.1431,0.1173,-0.0618,0.0884,35.5386,0.6222,6.9296,
1.772584,0.0025,0.5609,-1.1431,0.1173,-0.0618,0.0884,35.5386,0.6222,6.9296,
1.774196,0.0025,0.5609,-1.1431,0.1173,-0.0618,0.0884,35.5386,0.6222,6.9296,
1.783711,0.0025,0.5609,-1.1431,0.1173,-0.0618,0.0884,35.5996,0.5246,6.4782,
1.825276,0.0025,0.5609,-1.1431,-0.0827,-0.0427,0.1435,35.5996,0.5246,6.4782,
1.837350,0.1849,0.7126,-1.1123,-0.0827,-0.0427,0.1435,35.5996,0.5246,6.4782,
1.841136,0.1849,0.7126,-1.1123,-0.0827,-0.0427,0.1435,35.5996,0.5246,6.4782,
1.843553,0.1849,0.7126,-1.1123,-0.0827,-0.0427,0.1435,35.5996,0.5246,6.4782,
1.845107,0.1849,0.7126,-1.1123,-0.0827,-0.0427,0.1435,35.5996,0.5246,6.4782,
1.846906,0.1849,0.7126,-1.1123,-0.0827,-0.0427,0.1435,35.6118,0.3538,6.0634,
1.896056,0.1849,0.7126,-1.1123,-0.3643,-0.1306,0.2099,35.6118,0.3538,6.0634,
1.904270,0.1752,2.1935,-1.1202,-0.3643,-0.1306,0.2099,35.6118,0.3538,6.0634,
1.906613,0.1752,2.1935,-1.1202,-0.3643,-0.1306,0.2099,35.5874,0.1220,5.7096,
1.908487,0.1752,2.1935,-1.1202,-0.3643,-0.1306,0.2099,35.5874,0.1220,5.7096,
1.909908,0.1752,2.1935,-1.1202,-0.3643,-0.1306,0.2099,35.5874,0.1220,5.7096,
1.911726,0.1752,2.1935,-1.1202,-0.3643,-0.1306,0.2099,35.5874,0.1220,5.7096,
1.913228,0.1752,2.1935,-1.1202,-0.3643,-0.1306,0.2099,35.5874,0.1220,5.7096,
1.965098,0.1752,2.1935,-1.1202,-0.3643,-0.1306,0.2099,35.5386,-0.1830,5.3558,
1.971506,0.1752,2.1935,-1.1202,-0.6703,-0.2165,0.1377,35.5386,-0.1830,5.3558,
1.975059,0.1752,2.1935,-1.1202,-0.6703,-0.2165,0.1377,35.5386,-0.1830,5.3558,
1.976593,0.1752,2.1935,-1.1202,-0.6703,-0.2165,0.1377,35.5386,-0.1830,5.3558,
1.978190,0.1752,2.1935,-1.1202,-0.6703,-0.2165,0.1377,35.5386,-0.1830,5.3558,
1.980007,0.4310,2.5365,-1.1334,-0.6703,-0.2165,0.1377,35.5386,-0.1830,5.3558,
2.024712,0.4310,2.5365,-1.1334,-0.6703,-0.2165,0.1377,35.5874,-0.6100,5.2582,
2.033866,0.4310,2.5365,-1.1334,-0.8063,-0.2292,0.0033,35.5874,-0.6100,5.2582,
2.038175,0.4310,2.5365,-1.1334,-0.8063,-0.2292,0.0033,35.5874,-0.6100,5.2582,
2.040621,0.4310,2.5365,-1.1334,-0.8063,-0.2292,0.0033,35.5874,-0.6100,5.2582,
2.043584,0.4310,2.5365,-1.1334,-0.8063,-0.2292,0.0033,35.5874,-0.6100,5.2582,
2.045900,-0.0692,2.8090,-1.0703,-0.8063,-0.2292,0.0033,35.5874,-0.6100,5.2582,
2.084485,-0.0692,2.8090,-1.0703,-0.8063,-0.2292,0.0033,35.6118,-1.1712,5.3436,
2.105062,-0.0692,2.8090,-1.0703,-1.1796,-0.2550,0.0309,35.6118,-1.1712,5.3436,
2.108430,-0.0692,2.8090,-1.0703,-1.1796,-0.2550,0.0309,35.6118,-1.1712,5.3436,
2.110001,-0.0692,2.8090,-1.0703,-1.1796,-0.2550,0.0309,35.6118,-1.1712,5.3436,
2.111818,-0.0692,2.8090,-1.0703,-1.1796,-0.2550,0.0309,35.6118,-1.1712,5.3436,
2.113980,-0.0692,2.8090,-1.0703,-1.1796,-0.2550,0.0309,35.6118,-1.1712,5.3436,
2.115561,0.4999,6.4677,0.1255,-1.1796,-0.2550,0.0309,35.6118,-1.1712,5.3436,
2.142496,0.4999,6.4677,0.1255,-1.1796,-0.2550,0.0309,35.6972,-1.7934,5.5998,
2.172224,0.4999,6.4677,0.1255,-0.7432,-0.2253,0.2639,35.6972,-1.7934,5.5998,
2.174600,0.4999,6.4677,0.1255,-0.7432,-0.2253,0.2639,35.6972,-1.7934,5.5998,
2.176371,0.4999,6.4677,0.1255,-0.7432,-0.2253,0.2639,35.6972,-1.7934,5.5998,
2.177937,0.4999,6.4677,0.1255,-0.7432,-0.2253,0.2639,35.6972,-1.7934,5.5998,
2.183603,1.0140,3.8553,1.7304,-0.7432,-0.2253,0.2639,35.6972,-1.7934,5.5998,
2.202354,1.0140,3.8553,1.7304,-0.7432,-0.2253,0.2639,35.8924,-2.5132,5.9292,
2.238619,1.0140,3.8553,1.7304,-0.7432,-0.2253,0.2639,35.8924,-2.5132,5.9292,
2.242142,1.0140,3.8553,1.7304,-0.7432,-0.2253,0.2639,35.8924,-2.5132,5.9292,
2.246042,1.0140,3.8553,1.7304,-0.7432,-0.2253,0.2639,35.8924,-2.5132,5.9292,
2.249382,1.0140,3.8553,1.7304,0.5703,-0.2687,-0.1542,35.8924,-2.5132,5.9292,
2.252853,0.5000,-2.3689,2.3820,0.5703,-0.2687,-0.1542,35.8924,-2.5132,5.9292,
2.263264,0.5000,-2.3689,2.3820,0.5703,-0.2687,-0.1542,36.1730,-3.1964,6.2464,
2.305238,0.5000,-2.3689,2.3820,0.5703,-0.2687,-0.1542,36.1730,-3.1964,6.2464,
2.306936,0.5000,-2.3689,2.3820,0.5703,-0.2687,-0.1542,36.1730,-3.1964,6.2464,
2.307981,0.5000,-2.3689,2.3820,0.5703,-0.2687,-0.1542,36.1730,-3.1964,6.2464,
2.308970,0.5000,-2.3689,2.3820,0.5703,-0.2687,-0.1542,36.1730,-3.1964,6.2464,
2.311707,0.5000,-2.3689,2.3820,3.3067,-0.3935,-0.8396,36.1730,-3.1964,6.2464,
2.321712,0.5000,-2.3689,2.3820,3.3067,-0.3935,-0.8396,36.4170,-3.6112,6.3806,
2.323404,-1.5190,-3.5473,-0.9251,3.3067,-0.3935,-0.8396,36.4170,-3.6112,6.3806,
2.371122,-1.5190,-3.5473,-0.9251,3.3067,-0.3935,-0.8396,36.4170,-3.6112,6.3806,
2.373905,-1.5190,-3.5473,-0.9251,3.3067,-0.3935,-0.8396,36.4170,-3.6112,6.3806,
2.376045,-1.5190,-3.5473,-0.9251,3.3067,-0.3935,-0.8396,36.4170,-3.6112,6.3806,
2.381728,-1.5190,-3.5473,-0.9251,3.3067,-0.3935,-0.8396,36.8074,-3.8796,6.5758,
2.384920,-1.5190,-3.5473,-0.9251,5.7044,0.0967,-0.1129,36.8074,-3.8796,6.5758,
2.391497,-1.3503,0.7187,-4.5350,5.7044,0.0967,-0.1129,36.8074,-3.8796,6.5758,
2.439106,-1.3503,0.7187,-4.5350,5.7044,0.0967,-0.1129,36.8074,-3.8796,6.5758,
2.442232,-1.3503,0.7187,-4.5350,5.7044,0.0967,-0.1129,36.8074,-3.8796,6.5758,
2.444693,-1.3503,0.7187,-4.5350,5.7044,0.0967,-0.1129,36.8074,-3.8796,6.5758,
2.447512,-1.3503,0.7187,-4.5350,5.7044,0.0967,-0.1129,37.2710,-4.2944,6.8808,
2.454408,-1.3503,0.7187,-4.5350,4.4439,0.6671,0.4855,37.2710,-4.2944,6.8808,
2.461212,1.4878,-38.1133,11.8955,4.4439,0.6671,0.4855,37.2710,-4.2944,6.8808,
2.504892,1.4878,-38.1133,11.8955,4.4439,0.6671,0.4855,37.7346,-4.9410,6.8320,
2.510751,1.4878,-38.1133,11.8955,4.4439,0.6671,0.4855,37.7346,-4.9410,6.8320,
2.513728,1.4878,-38.1133,11.8955,4.4439,0.6671,0.4855,37.7346,-4.9410,6.8320,
2.516335,1.4878,-38.1133,11.8955,4.4439,0.6671,0.4855,37.7346,-4.9410,6.8320,
2.517963,1.4878,-38.1133,11.8955,4.4439,0.6671,0.4855,37.7346,-4.9410,6.8320,
2.522035,1.4878,-38.1133,11.8955,4.1571,0.4945,0.0999,37.7346,-4.9410,6.8320,
2.533413,1.0878,11.6762,-7.4671,4.1571,0.4945,0.0999,37.7346,-4.9410,6.8320,
2.562974,1.0878,11.6762,-7.4671,4.1571,0.4945,0.0999,38.1616,-5.5876,6.7588,
2.569947,1.0878,11.6762,-7.4671,4.1571,0.4945,0.0999,38.1616,-5.5876,6.7588,
2.571939,1.0878,11.6762,-7.4671,4.1571,0.4945,0.0999,38.1616,-5.5876,6.7588,
2.573184,1.0878,11.6762,-7.4671,4.1571,0.4945,0.0999,38.1616,-5.5876,6.7588,
2.591484,1.0878,11.6762,-7.4671,3.3621,-0.7148,0.5382,38.1616,-5.5876,6.7588,
2.605255,1.7961,3.1224,-7.9773,3.3621,-0.7148,0.5382,38.1616,-5.5876,6.7588,
2.621791,1.7961,3.1224,-7.9773,3.3621,-0.7148,0.5382,38.3812,-6.4782,6.4294,
2.639235,1.7961,3.1224,-7.9773,3.3621,-0.7148,0.5382,38.3812,-6.4782,6.4294,
2.641807,1.7961,3.1224,-7.9773,3.3621,-0.7148,0.5382,38.3812,-6.4782,6.4294,
2.644501,1.7961,3.1224,-7.9773,3.3621,-0.7148,0.5382,38.3812,-6.4782,6.4294,
2.662071,1.7961,3.1224,-7.9773,1.9429,-0.5475,0.2218,38.3812,-6.4782,6.4294,
2.671680,-4.2122,4.2970,8.2217,1.9429,-0.5475,0.2218,38.3812,-6.4782,6.4294,
2.681785,-4.2122,4.2970,8.2217,1.9429,-0.5475,0.2218,38.3446,-7.5640,5.8072,
2.707555,-4.2122,4.2970,8.2217,1.9429,-0.5475,0.2218,38.3446,-7.5640,5.8072,
2.709642,-4.2122,4.2970,8.2217,1.9429,-0.5475,0.2218,38.3446,-7.5640,5.8072,
2.711140,-4.2122,4.2970,8.2217,1.9429,-0.5475,0.2218,38.3446,-7.5640,5.8072,
2.712368,-4.2122,4.2970,8.2217,1.9429,-0.5475,0.2218,38.3446,-7.5640,5.8072,
2.732423,-4.2122,4.2970,8.2217,-0.6635,-0.3634,0.0382,38.3446,-7.5640,5.8072,
2.743815,-4.2122,4.2970,8.2217,-0.6635,-0.3634,0.0382,38.3324,-8.6742,5.0264,
2.746156,-0.7621,8.0851,-0.1266,-0.6635,-0.3634,0.0382,38.3324,-8.6742,5.0264,
2.771416,-0.7621,8.0851,-0.1266,-0.6635,-0.3634,0.0382,38.3324,-8.6742,5.0264,
2.775365,-0.7621,8.0851,-0.1266,-0.6635,-0.3634,0.0382,38.3324,-8.6742,5.0264,
2.778219,-0.7621,8.0851,-0.1266,-0.6635,-0.3634,0.0382,38.3324,-8.6742,5.0264,
2.801459,-0.7621,8.0851,-0.1266,-0.6635,-0.3634,0.0382,38.2958,-9.9064,4.2822,
2.805220,-0.7621,8.0851,-0.1266,-0.4338,-0.7124,-0.0119,38.2958,-9.9064,4.2822,
2.810400,0.2563,2.6814,-3.7343,-0.4338,-0.7124,-0.0119,38.2958,-9.9064,4.2822,
2.837077,0.2563,2.6814,-3.7343,-0.4338,-0.7124,-0.0119,38.2958,-9.9064,4.2822,
2.839743,0.2563,2.6814,-3.7343,-0.4338,-0.7124,-0.0119,38.2958,-9.9064,4.2822,
2.842379,0.2563,2.6814,-3.7343,-0.4338,-0.7124,-0.0119,38.2958,-9.9064,4.2822,
2.861550,0.2563,2.6814,-3.7343,-0.4338,-0.7124,-0.0119,38.1738,-11.0410,3.1842,
2.871685,0.2563,2.6814,-3.7343,0.0660,-0.1495,-0.0269,38.1738,-11.0410,3.1842,
2.885238,1.0669,3.7704,0.4566,0.0660,-0.1495,-0.0269,38.1738,-11.0410,3.1842,
2.904776,1.0669,3.7704,0.4566,0.0660,-0.1495,-0.0269,38.1738,-11.0410,3.1842,
2.908098,1.0669,3.7704,0.4566,0.0660,-0.1495,-0.0269,38.1738,-11.0410,3.1842,
2.911073,1.0669,3.7704,0.4566,0.0660,-0.1495,-0.0269,38.1738,-11.0410,3.1842,
2.913405,1.0669,3.7704,0.4566,0.0660,-0.1495,-0.0269,38.1738,-11.0410,3.1842,
2.921135,1.0669,3.7704,0.4566,0.0660,-0.1495,-0.0269,37.8932,-11.9682,1.8910,
2.940607,1.0669,3.7704,0.4566,0.1431,-0.0953,-0.0610,37.8932,-11.9682,1.8910,
2.952474,2.1930,-0.3906,1.5613,0.1431,-0.0953,-0.0610,37.8932,-11.9682,1.8910,
2.972213,2.1930,-0.3906,1.5613,0.1431,-0.0953,-0.0610,37.8932,-11.9682,1.8910,
2.975109,2.1930,-0.3906,1.5613,0.1431,-0.0953,-0.0610,37.8932,-11.9682,1.8910,
2.977594,2.1930,-0.3906,1.5613,0.1431,-0.0953,-0.0610,37.8932,-11.9682,1.8910,
2.980796,2.1930,-0.3906,1.5613,0.1431,-0.0953,-0.0610,37.6004,-12.5294,0.9272,
3.011553,2.1930,-0.3906,1.5613,-0.2068,0.0547,-0.0619,37.6004,-12.5294,0.9272,
3.024309,-0.3797,1.4360,-2.6399,-0.2068,0.0547,-0.0619,37.6004,-12.5294,0.9272,
3.043303,-0.3797,1.4360,-2.6399,-0.2068,0.0547,-0.0619,37.6004,-12.5294,0.9272,
3.045774,-0.3797,1.4360,-2.6399,-0.2068,0.0547,-0.0619,37.6004,-12.5294,0.9272,
3.047761,-0.3797,1.4360,-2.6399,-0.2068,0.0547,-0.0619,37.6004,-12.5294,0.9272,
3.050594,-0.3797,1.4360,-2.6399,-0.2068,0.0547,-0.0619,37.3564,-13.0052,-0.0854,
3.078680,-0.3797,1.4360,-2.6399,-0.0972,0.1670,0.0326,37.3564,-13.0052,-0.0854,
3.092232,0.7197,-1.2102,0.7229,-0.0972,0.1670,0.0326,37.3564,-13.0052,-0.0854,
3.098723,0.7197,-1.2102,0.7229,-0.0972,0.1670,0.0326,37.1612,-12.8832,-1.0004,
3.102765,0.7197,-1.2102,0.7229,-0.0972,0.1670,0.0326,37.1612,-12.8832,-1.0004,
3.103800,0.7197,-1.2102,0.7229,-0.0972,0.1670,0.0326,37.1612,-12.8832,-1.0004,
3.104360,0.7197,-1.2102,0.7229,-0.0972,0.1670,0.0326,37.1612,-12.8832,-1.0004,
3.104881,0.7197,-1.2102,0.7229,-0.0972,0.1670,0.0326,37.1612,-12.8832,-1.0004,
3.151073,0.7197,-1.2102,0.7229,0.0771,0.1124,-0.0055,37.1612,-12.8832,-1.0004,
3.156209,0.7197,-1.2102,0.7229,0.0771,0.1124,-0.0055,36.9660,-12.3464,-1.8666,
3.160009,-0.0699,-1.3511,-0.4692,0.0771,0.1124,-0.0055,36.9660,-12.3464,-1.8666,
3.171447,-0.0699,-1.3511,-0.4692,0.0771,0.1124,-0.0055,36.9660,-12.3464,-1.8666,
3.172918,-0.0699,-1.3511,-0.4692,0.0771,0.1124,-0.0055,36.9660,-12.3464,-1.8666,
3.174982,-0.0699,-1.3511,-0.4692,0.0771,0.1124,-0.0055,36.9660,-12.3464,-1.8666,
3.219985,-0.0699,-1.3511,-0.4692,0.0771,0.1124,-0.0055,36.6732,-11.7608,-2.5132,
3.221678,-0.0699,-1.3511,-0.4692,0.0870,0.1025,-0.0013,36.6732,-11.7608,-2.5132,
3.228371,-0.2041,-0.1767,-0.5057,0.0870,0.1025,-0.0013,36.6732,-11.7608,-2.5132,
3.236312,-0.2041,-0.1767,-0.5057,0.0870,0.1025,-0.0013,36.6732,-11.7608,-2.5132,
3.237279,-0.2041,-0.1767,-0.5057,0.0870,0.1025,-0.0013,36.6732,-11.7608,-2.5132,
3.238104,-0.2041,-0.1767,-0.5057,0.0870,0.1025,-0.0013,36.6732,-11.7608,-2.5132,
3.280398,-0.2041,-0.1767,-0.5057,0.0870,0.1025,-0.0013,36.4170,-11.2850,-3.0256,
3.290229,-0.2041,-0.1767,-0.5057,0.0473,-0.0614,0.0590,36.4170,-11.2850,-3.0256,
3.301816,-0.3621,0.2058,0.0163,0.0473,-0.0614,0.0590,36.4170,-11.2850,-3.0256,
3.306260,-0.3621,0.2058,0.0163,0.0473,-0.0614,0.0590,36.4170,-11.2850,-3.0256,
3.308361,-0.3621,0.2058,0.0163,0.0473,-0.0614,0.0590,36.4170,-11.2850,-3.0256,
3.310017,-0.3621,0.2058,0.0163,0.0473,-0.0614,0.0590,36.4170,-11.2850,-3.0256,
3.311668,-0.3621,0.2058,0.0163,0.0473,-0.0614,0.0590,36.4170,-11.2850,-3.0256,
3.338596,-0.3621,0.2058,0.0163,0.0473,-0.0614,0.0590,36.1120,-10.9678,-3.3184,
3.361102,-0.3621,0.2058,0.0163,0.0136,-0.0804,0.0184,36.1120,-10.9678,-3.3184,
3.370516,-0.4325,0.4335,-0.2339,0.0136,-0.0804,0.0184,36.1120,-10.9678,-3.3184,
3.373907,-0.4325,0.4335,-0.2339,0.0136,-0.0804,0.0184,36.1120,-10.9678,-3.3184,
3.377399,-0.4325,0.4335,-0.2339,0.0136,-0.0804,0.0184,36.1120,-10.9678,-3.3184,
3.379714,-0.4325,0.4335,-0.2339,0.0136,-0.0804,0.0184,36.1120,-10.9678,-3.3184,
3.399950,-0.4325,0.4335,-0.2339,0.0136,-0.0804,0.0184,35.8802,-10.5896,-3.5624,
3.429773,-0.4325,0.4335,-0.2339,-0.0128,-0.0298,0.0108,35.8802,-10.5896,-3.5624,
3.441884,0.2052,0.2053,-0.1420,-0.0128,-0.0298,0.0108,35.8802,-10.5896,-3.5624,
3.445119,0.2052,0.2053,-0.1420,-0.0128,-0.0298,0.0108,35.8802,-10.5896,-3.5624,
3.447510,0.2052,0.2053,-0.1420,-0.0128,-0.0298,0.0108,35.8802,-10.5896,-3.5624,
3.449781,0.2052,0.2053,-0.1420,-0.0128,-0.0298,0.0108,35.8802,-10.5896,-3.5624,
3.451736,0.2052,0.2053,-0.1420,-0.0128,-0.0298,0.0108,35.8802,-10.5896,-3.5624,
3.460262,0.2052,0.2053,-0.1420,-0.0128,-0.0298,0.0108,35.6484,-10.2724,-3.8674,
3.499936,0.2052,0.2053,-0.1420,0.0138,-0.0044,0.0020,35.6484,-10.2724,-3.8674,
3.503942,0.2052,0.2053,-0.1420,0.0138,-0.0044,0.0020,35.6484,-10.2724,-3.8674,
3.506417,0.2052,0.2053,-0.1420,0.0138,-0.0044,0.0020,35.6484,-10.2724,-3.8674,
3.508998,0.2052,0.2053,-0.1420,0.0138,-0.0044,0.0020,35.6484,-10.2724,-3.8674,
3.511390,0.0729,-0.1621,-0.1417,0.0138,-0.0044,0.0020,35.6484,-10.2724,-3.8674,
3.518518,0.0729,-0.1621,-0.1417,0.0138,-0.0044,0.0020,35.3922,-9.9552,-4.1724,
3.569650,0.0729,-0.1621,-0.1417,0.0234,0.0238,0.0025,35.3922,-9.9552,-4.1724,
3.572625,0.0729,-0.1621,-0.1417,0.0234,0.0238,0.0025,35.3922,-9.9552,-4.1724,
3.574590,0.0729,-0.1621,-0.1417,0.0234,0.0238,0.0025,35.3922,-9.9552,-4.1724,
3.576692,0.0729,-0.1621,-0.1417,0.0234,0.0238,0.0025,35.3922,-9.9552,-4.1724,
3.579171,0.0729,-0.1621,-0.1417,0.0234,0.0238,0.0025,35.2092,-9.8698,-4.4042,
3.581908,0.1960,0.0418,-0.1515,0.0234,0.0238,0.0025,35.2092,-9.8698,-4.4042,
3.639412,0.1960,0.0418,-0.1515,0.0234,0.0238,0.0025,35.1970,-9.9430,-4.4164,
3.642614,0.1960,0.0418,-0.1515,0.0212,0.0125,-0.0003,35.1970,-9.9430,-4.4164,
3.645742,0.1960,0.0418,-0.1515,0.0212,0.0125,-0.0003,35.1970,-9.9430,-4.4164,
3.648187,0.1960,0.0418,-0.1515,0.0212,0.0125,-0.0003,35.1970,-9.9430,-4.4164,
3.650566,0.1960,0.0418,-0.1515,0.0212,0.0125,-0.0003,35.1970,-9.9430,-4.4164,
3.653239,0.1960,0.0418,-0.1515,0.0212,0.0125,-0.0003,35.1970,-9.9430,-4.4164,
3.655318,0.0557,0.1173,-0.1757,0.0212,0.0125,-0.0003,35.1970,-9.9430,-4.4164,
3.699561,0.0557,0.1173,-0.1757,0.0212,0.0125,-0.0003,35.2214,-10.0406,-4.4530,
3.705554,0.0557,0.1173,-0.1757,0.0212,0.0125,-0.0003,35.2214,-10.0406,-4.4530,
3.708510,0.0557,0.1173,-0.1757,0.0212,0.0125,-0.0003,35.2214,-10.0406,-4.4530,
3.711201,0.0557,0.1173,-0.1757,0.0212,0.0125,-0.0003,35.2214,-10.0406,-4.4530,
3.713552,0.0557,0.1173,-0.1757,0.0001,0.0013,0.0096,35.2214,-10.0406,-4.4530,
3.719303,-0.1265,0.0020,-0.0462,0.0001,0.0013,0.0096,35.2214,-10.0406,-4.4530,
3.759056,-0.1265,0.0020,-0.0462,0.0001,0.0013,0.0096,35.1848,-10.0528,-4.5506,
3.772350,-0.1265,0.0020,-0.0462,0.0001,0.0013,0.0096,35.1848,-10.0528,-4.5506,
3.774956,-0.1265,0.0020,-0.0462,0.0001,0.0013,0.0096,35.1848,-10.0528,-4.5506,
3.777003,-0.1265,0.0020,-0.0462,0.0001,0.0013,0.0096,35.1848,-10.0528,-4.5506,
3.779620,-0.1265,0.0020,-0.0462,0.0032,-0.0088,0.0020,35.1848,-10.0528,-4.5506,
3.790258,-0.0286,0.0426,-0.0808,0.0032,-0.0088,0.0020,35.1848,-10.0528,-4.5506,
3.818304,-0.0286,0.0426,-0.0808,0.0032,-0.0088,0.0020,35.1970,-10.0528,-4.5628,
3.839081,-0.0286,0.0426,-0.0808,0.0032,-0.0088,0.0020,35.1970,-10.0528,-4.5628,
3.842171,-0.0286,0.0426,-0.0808,0.0032,-0.0088,0.0020,35.1970,-10.0528,-4.5628,
3.845209,-0.0286,0.0426,-0.0808,0.0032,-0.0088,0.0020,35.1970,-10.0528,-4.5628,
3.848375,-0.0286,0.0426,-0.0808,0.0032,-0.0088,0.0020,35.1970,-10.0528,-4.5628,
3.851104,-0.0286,0.0426,-0.0808,-0.0056,-0.0164,0.0073,35.1970,-10.0528,-4.5628,
3.860602,-0.0227,0.0746,-0.0882,-0.0056,-0.0164,0.0073,35.1970,-10.0528,-4.5628,
3.877627,-0.0227,0.0746,-0.0882,-0.0056,-0.0164,0.0073,35.1848,-10.0772,-4.5384,
3.905900,-0.0227,0.0746,-0.0882,-0.0056,-0.0164,0.0073,35.1848,-10.0772,-4.5384,
3.910099,-0.0227,0.0746,-0.0882,-0.0056,-0.0164,0.0073,35.1848,-10.0772,-4.5384,
3.913111,-0.0227,0.0746,-0.0882,-0.0056,-0.0164,0.0073,35.1848,-10.0772,-4.5384,
3.919597,-0.0227,0.0746,-0.0882,0.0145,-0.0004,0.0001,35.1848,-10.0772,-4.5384,
3.929526,0.0453,0.0287,-0.1089,0.0145,-0.0004,0.0001,35.1848,-10.0772,-4.5384,
3.935790,0.0453,0.0287,-0.1089,0.0145,-0.0004,0.0001,35.1970,-10.0772,-4.5384,
3.972359,0.0453,0.0287,-0.1089,0.0145,-0.0004,0.0001,35.1970,-10.0772,-4.5384,
3.975108,0.0453,0.0287,-0.1089,0.0145,-0.0004,0.0001,35.1970,-10.0772,-4.5384,
3.977029,0.0453,0.0287,-0.1089,0.0145,-0.0004,0.0001,35.1970,-10.0772,-4.5384,
3.987433,0.0453,0.0287,-0.1089,0.0216,0.0101,-0.0045,35.1970,-10.0772,-4.5384,
4.000473,0.0521,0.0239,-0.0895,0.0216,0.0101,-0.0045,35.1970,-10.0772,-4.5384,
4.004318,0.0521,0.0239,-0.0895,0.0216,0.0101,-0.0045,35.1848,-10.0772,-4.5262,
4.039541,0.0521,0.0239,-0.0895,0.0216,0.0101,-0.0045,35.1848,-10.0772,-4.5262,
4.042910,0.0521,0.0239,-0.0895,0.0216,0.0101,-0.0045,35.1848,-10.0772,-4.5262,
4.045385,0.0521,0.0239,-0.0895,0.0216,0.0101,-0.0045,35.1848,-10.0772,-4.5262,
4.048204,0.0521,0.0239,-0.0895,0.0216,0.0101,-0.0045,35.1848,-10.0772,-4.5262,
4.056975,0.0521,0.0239,-0.0895,0.0216,0.0101,-0.0045,35.2092,-10.0894,-4.5384,
4.059184,0.0521,0.0239,-0.0895,-0.0013,0.0008,0.0019,35.2092,-10.0894,-4.5384,
4.067096,-0.0084,-0.0157,-0.0381,-0.0013,0.0008,0.0019,35.2092,-10.0894,-4.5384,
4.106370,-0.0084,-0.0157,-0.0381,-0.0013,0.0008,0.0019,35.2092,-10.0894,-4.5384,
4.110036,-0.0084,-0.0157,-0.0381,-0.0013,0.0008,0.0019,35.2092,-10.0894,-4.5384,
4.112635,-0.0084,-0.0157,-0.0381,-0.0013,0.0008,0.0019,35.2092,-10.0894,-4.5384,
4.118240,-0.0084,-0.0157,-0.0381,-0.0013,0.0008,0.0019,35.1604,-10.0772,-4.5506,
4.129217,-0.0084,-0.0157,-0.0381,-0.0013,0.0008,0.0019,35.1604,-10.0772,-4.5506,
4.131315,-0.0084,-0.0157,-0.0381,0.0210,-0.0016,0.0017,35.1604,-10.0772,-4.5506,
4.137100,0.0006,0.0366,-0.0800,0.0210,-0.0016,0.0017,35.1604,-10.0772,-4.5506,
4.172545,0.0006,0.0366,-0.0800,0.0210,-0.0016,0.0017,35.1604,-10.0772,-4.5506,
4.176181,0.0006,0.0366,-0.0800,0.0210,-0.0016,0.0017,35.1604,-10.0772,-4.5506,
4.178629,0.0006,0.0366,-0.0800,0.0210,-0.0016,0.0017,35.1360,-10.0406,-4.5994,
4.196748,0.0006,0.0366,-0.0800,0.0103,-0.0001,0.0040,35.1360,-10.0406,-4.5994,
4.206944,-0.0354,0.0304,-0.0811,0.0103,-0.0001,0.0040,35.1360,-10.0406,-4.5994,
4.236059,-0.0354,0.0304,-0.0811,0.0103,-0.0001,0.0040,35.1726,-10.0772,-4.4896,
4.238672,-0.0354,0.0304,-0.0811,0.0103,-0.0001,0.0040,35.1726,-10.0772,-4.4896,
4.239856,-0.0354,0.0304,-0.0811,0.0103,-0.0001,0.0040,35.1726,-10.0772,-4.4896,
4.240788,-0.0354,0.0304,-0.0811,0.0103,-0.0001,0.0040,35.1726,-10.0772,-4.4896,
4.241718,-0.0354,0.0304,-0.0811,0.0103,-0.0001,0.0040,35.1726,-10.0772,-4.4896,
4.265370,-0.0354,0.0304,-0.0811,0.0000,0.0052,-0.0040,35.1726,-10.0772,-4.4896,
4.278747,0.0211,0.0003,0.0026,0.0000,0.0052,-0.0040,35.1726,-10.0772,-4.4896,
4.296209,0.0211,0.0003,0.0026,0.0000,0.0052,-0.0040,35.1848,-10.1504,-4.3920,
4.304879,0.0211,0.0003,0.0026,0.0000,0.0052,-0.0040,35.1848,-10.1504,-4.3920,
4.306881,0.0211,0.0003,0.0026,0.0000,0.0052,-0.0040,35.1848,-10.1504,-4.3920,
4.308578,0.0211,0.0003,0.0026,0.0000,0.0052,-0.0040,35.1848,-10.1504,-4.3920,
4.337107,0.0211,0.0003,0.0026,-0.0007,0.0008,0.0003,35.1848,-10.1504,-4.3920,
4.346643,-0.0094,0.0442,-0.0285,-0.0007,0.0008,0.0003,35.1848,-10.1504,-4.3920,
4.357227,-0.0094,0.0442,-0.0285,-0.0007,0.0008,0.0003,35.2092,-10.1382,-4.3798,
4.372568,-0.0094,0.0442,-0.0285,-0.0007,0.0008,0.0003,35.2092,-10.1382,-4.3798,
4.374246,-0.0094,0.0442,-0.0285,-0.0007,0.0008,0.0003,35.2092,-10.1382,-4.3798,
4.375599,-0.0094,0.0442,-0.0285,-0.0007,0.0008,0.0003,35.2092,-10.1382,-4.3798,
4.406177,-0.0094,0.0442,-0.0285,0.0019,-0.0045,0.0071,35.2092,-10.1382,-4.3798,
4.416867,-0.0094,0.0442,-0.0285,0.0019,-0.0045,0.0071,35.1848,-10.1504,-4.3432,
4.419629,0.0040,0.0145,-0.0264,0.0019,-0.0045,0.0071,35.1848,-10.1504,-4.3432,
4.440212,0.0040,0.0145,-0.0264,0.0019,-0.0045,0.0071,35.1848,-10.1504,-4.3432,
4.443962,0.0040,0.0145,-0.0264,0.0019,-0.0045,0.0071,35.1848,-10.1504,-4.3432,
4.446437,0.0040,0.0145,-0.0264,0.0019,-0.0045,0.0071,35.1848,-10.1504,-4.3432,
4.450119,0.0040,0.0145,-0.0264,0.0019,-0.0045,0.0071,35.1848,-10.1504,-4.3432,
4.476853,0.0040,0.0145,-0.0264,0.0019,-0.0045,0.0071,35.1848,-10.1504,-4.3432,
4.480111,0.0040,0.0145,-0.0264,-0.0092,0.0045,0.0103,35.1848,-10.1504,-4.3432,
4.490262,-0.0110,0.0029,-0.1070,-0.0092,0.0045,0.0103,35.1848,-10.1504,-4.3432,
4.506160,-0.0110,0.0029,-0.1070,-0.0092,0.0045,0.0103,35.1848,-10.1504,-4.3432,
4.507740,-0.0110,0.0029,-0.1070,-0.0092,0.0045,0.0103,35.1848,-10.1504,-4.3432,
4.508607,-0.0110,0.0029,-0.1070,-0.0092,0.0045,0.0103,35.1848,-10.1504,-4.3432,
4.546169,-0.0110,0.0029,-0.1070,-0.0092,0.0045,0.0103,35.1726,-10.1504,-4.3310,
4.550192,-0.0110,0.0029,-0.1070,0.0855,0.0013,0.0185,35.1726,-10.1504,-4.3310,
4.559011,0.0037,-0.0980,-0.0287,0.0855,0.0013,0.0185,35.1726,-10.1504,-4.3310,
4.571865,0.0037,-0.0980,-0.0287,0.0855,0.0013,0.0185,35.1726,-10.1504,-4.3310,
4.573884,0.0037,-0.0980,-0.0287,0.0855,0.0013,0.0185,35.1726,-10.1504,-4.3310,
4.575715,0.0037,-0.0980,-0.0287,0.0855,0.0013,0.0185,35.1726,-10.1504,-4.3310,
4.605692,0.0037,-0.0980,-0.0287,0.0855,0.0013,0.0185,35.1848,-10.1870,-4.3554,
4.616697,0.0037,-0.0980,-0.0287,0.0166,0.0035,0.0008,35.1848,-10.1870,-4.3554,
4.629231,-0.0096,0.0702,0.0435,0.0166,0.0035,0.0008,35.1848,-10.1870,-4.3554,
4.638627,-0.0096,0.0702,0.0435,0.0166,0.0035,0.0008,35.1848,-10.1870,-4.3554,
4.641046,-0.0096,0.0702,0.0435,0.0166,0.0035,0.0008,35.1848,-10.1870,-4.3554,
4.643252,-0.0096,0.0702,0.0435,0.0166,0.0035,0.0008,35.1848,-10.1870,-4.3554,
4.645336,-0.0096,0.0702,0.0435,0.0166,0.0035,0.0008,35.1848,-10.1870,-4.3554,
4.657267,-0.0096,0.0702,0.0435,0.0166,0.0035,0.0008,35.1726,-10.1870,-4.3188,
4.685209,-0.0096,0.0702,0.0435,0.0108,0.0000,-0.0020,35.1726,-10.1870,-4.3188,
4.695578,-0.0089,0.0059,-0.1147,0.0108,0.0000,-0.0020,35.1726,-10.1870,-4.3188,
4.707093,-0.0089,0.0059,-0.1147,0.0108,0.0000,-0.0020,35.0994,-10.1626,-4.4164,
4.710349,-0.0089,0.0059,-0.1147,0.0108,0.0000,-0.0020,35.0994,-10.1626,-4.4164,
4.712101,-0.0089,0.0059,-0.1147,0.0108,0.0000,-0.0020,35.0994,-10.1626,-4.4164,
4.713530,-0.0089,0.0059,-0.1147,0.0108,0.0000,-0.0020,35.0994,-10.1626,-4.4164,
4.720026,-0.0089,0.0059,-0.1147,0.0108,0.0000,-0.0020,35.0628,-10.1016,-4.5506,
4.755247,-0.0089,0.0059,-0.1147,-0.0049,0.0075,-0.0117,35.0628,-10.1016,-4.5506,
4.769303,0.0333,0.0511,0.0025,-0.0049,0.0075,-0.0117,35.0628,-10.1016,-4.5506,
4.772969,0.0333,0.0511,0.0025,-0.0049,0.0075,-0.0117,35.0628,-10.1016,-4.5506,
4.776053,0.0333,0.0511,0.0025,-0.0049,0.0075,-0.0117,35.0628,-10.1016,-4.5506,
4.779189,0.0333,0.0511,0.0025,-0.0049,0.0075,-0.0117,35.0628,-10.1016,-4.5506,
4.784275,0.0333,0.0511,0.0025,-0.0049,0.0075,-0.0117,35.0384,-10.0772,-4.6238,
4.825071,0.0333,0.0511,0.0025,-0.0060,0.0109,-0.0164,35.0384,-10.0772,-4.6238,
4.834509,0.0932,0.0316,0.0667,-0.0060,0.0109,-0.0164,35.0384,-10.0772,-4.6238,
4.839542,0.0932,0.0316,0.0667,-0.0060,0.0109,-0.0164,35.0384,-10.0772,-4.6238,
4.842461,0.0932,0.0316,0.0667,-0.0060,0.0109,-0.0164,35.0384,-10.0772,-4.6238,
4.845605,0.0932,0.0316,0.0667,-0.0060,0.0109,-0.0164,35.0384,-10.0772,-4.6238,
4.848807,0.0932,0.0316,0.0667,-0.0060,0.0109,-0.0164,35.0384,-10.0772,-4.6238,
4.852403,0.0932,0.0316,0.0667,-0.0060,0.0109,-0.0164,34.9896,-10.0650,-4.6726,
4.895437,0.0932,0.0316,0.0667,0.0571,-0.0011,-0.0334,34.9896,-10.0650,-4.6726,
4.905909,0.0932,0.0316,0.0667,0.0571,-0.0011,-0.0334,34.9896,-10.0650,-4.6848,
4.909801,-0.0192,-0.0428,0.1336,0.0571,-0.0011,-0.0334,34.9896,-10.0650,-4.6848,
4.912975,-0.0192,-0.0428,0.1336,0.0571,-0.0011,-0.0334,34.9896,-10.0650,-4.6848,
4.915695,-0.0192,-0.0428,0.1336,0.0571,-0.0011,-0.0334,34.9896,-10.0650,-4.6848,
4.918179,-0.0192,-0.0428,0.1336,0.0571,-0.0011,-0.0334,34.9896,-10.0650,-4.6848,
4.963540,-0.0192,-0.0428,0.1336,0.0571,-0.0011,-0.0334,35.0140,-10.0528,-4.6238,
4.966888,-0.0192,-0.0428,0.1336,-0.2495,0.0433,-0.0437,35.0140,-10.0528,-4.6238,
4.972205,-0.0583,-0.1800,-0.4113,-0.2495,0.0433,-0.0437,35.0140,-10.0528,-4.6238,
4.974314,-0.0583,-0.1800,-0.4113,-0.2495,0.0433,-0.0437,35.0140,-10.0528,-4.6238,
4.976491,-0.0583,-0.1800,-0.4113,-0.2495,0.0433,-0.0437,35.0140,-10.0528,-4.6238,
4.978390,-0.0583,-0.1800,-0.4113,-0.2495,0.0433,-0.0437,35.0140,-10.0528,-4.6238,
4.980320,-0.0583,-0.1800,-0.4113,-0.2495,0.0433,-0.0437,35.0140,-10.0528,-4.6238,
5.022766,-0.0583,-0.1800,-0.4113,-0.2495,0.0433,-0.0437,35.0384,-10.0040,-4.5018,
5.032634,-0.0583,-0.1800,-0.4113,-0.8563,0.0839,-0.0194,35.0384,-10.0040,-4.5018,
5.038330,-0.0583,-0.1800,-0.4113,-0.8563,0.0839,-0.0194,35.0384,-10.0040,-4.5018,
5.041324,-0.0583,-0.1800,-0.4113,-0.8563,0.0839,-0.0194,35.0384,-10.0040,-4.5018,
5.042844,-0.0583,-0.1800,-0.4113,-0.8563,0.0839,-0.0194,35.0384,-10.0040,-4.5018,
5.049290,0.0602,1.3248,0.1409,-0.8563,0.0839,-0.0194,35.0384,-10.0040,-4.5018,
5.081393,0.0602,1.3248,0.1409,-0.8563,0.0839,-0.0194,35.2214,-10.0284,-4.2334,
5.101431,0.0602,1.3248,0.1409,-1.0713,0.1703,0.0370,35.2214,-10.0284,-4.2334,
5.104659,0.0602,1.3248,0.1409,-1.0713,0.1703,0.0370,35.2214,-10.0284,-4.2334,
5.106149,0.0602,1.3248,0.1409,-1.0713,0.1703,0.0370,35.2214,-10.0284,-4.2334,
5.107437,0.0602,1.3248,0.1409,-1.0713,0.1703,0.0370,35.2214,-10.0284,-4.2334,
5.111485,0.4432,0.9327,0.1449,-1.0713,0.1703,0.0370,35.2214,-10.0284,-4.2334,
5.140950,0.4432,0.9327,0.1449,-1.0713,0.1703,0.0370,35.5996,-10.0406,-3.6722,
5.171856,0.4432,0.9327,0.1449,-1.2574,0.2602,-0.0872,35.5996,-10.0406,-3.6722,
5.173977,0.4432,0.9327,0.1449,-1.2574,0.2602,-0.0872,35.5996,-10.0406,-3.6722,
5.175138,0.4432,0.9327,0.1449,-1.2574,0.2602,-0.0872,35.5996,-10.0406,-3.6722,
5.176106,0.4432,0.9327,0.1449,-1.2574,0.2602,-0.0872,35.5996,-10.0406,-3.6722,
5.177049,0.4432,0.9327,0.1449,-1.2574,0.2602,-0.0872,35.5996,-10.0406,-3.6722,
5.181015,0.2634,1.4314,0.0647,-1.2574,0.2602,-0.0872,35.5996,-10.0406,-3.6722,
5.201179,0.2634,1.4314,0.0647,-1.2574,0.2602,-0.0872,35.8436,-9.8088,-3.1842,
5.237629,0.2634,1.4314,0.0647,-1.2574,0.2602,-0.0872,35.8436,-9.8088,-3.1842,
5.238522,0.2634,1.4314,0.0647,-1.2574,0.2602,-0.0872,35.8436,-9.8088,-3.1842,
5.239079,0.2634,1.4314,0.0647,-1.2574,0.2602,-0.0872,35.8436,-9.8088,-3.1842,
5.240384,0.2634,1.4314,0.0647,-1.3482,0.1827,-0.0128,35.8436,-9.8088,-3.1842,
5.250754,-0.1780,0.4314,0.4835,-1.3482,0.1827,-0.0128,35.8436,-9.8088,-3.1842,
5.260433,-0.1780,0.4314,0.4835,-1.3482,0.1827,-0.0128,36.0510,-9.5892,-2.5620,
5.304023,-0.1780,0.4314,0.4835,-1.3482,0.1827,-0.0128,36.0510,-9.5892,-2.5620,
5.304587,-0.1780,0.4314,0.4835,-1.3482,0.1827,-0.0128,36.0510,-9.5892,-2.5620,
5.305789,-0.1780,0.4314,0.4835,-1.3482,0.1827,-0.0128,36.0510,-9.5892,-2.5620,
5.310020,-0.1780,0.4314,0.4835,-1.4012,0.0867,0.0153,36.0510,-9.5892,-2.5620,
5.320238,-0.1780,0.4314,0.4835,-1.4012,0.0867,0.0153,36.4292,-9.3452,-1.7446,
5.320692,-0.4328,0.2225,-0.1238,-1.4012,0.0867,0.0153,36.4292,-9.3452,-1.7446,
5.370935,-0.4328,0.2225,-0.1238,-1.4012,0.0867,0.0153,36.4292,-9.3452,-1.7446,
5.371452,-0.4328,0.2225,-0.1238,-1.4012,0.0867,0.0153,36.4292,-9.3452,-1.7446,
5.371676,-0.4328,0.2225,-0.1238,-1.4012,0.0867,0.0153,36.4292,-9.3452,-1.7446,
5.371893,-0.4328,0.2225,-0.1238,-1.4012,0.0867,0.0153,36.4292,-9.3452,-1.7446,
5.380209,-0.4328,0.2225,-0.1238,-1.4012,0.0867,0.0153,36.7586,-8.9304,-0.8906,
5.380815,-0.4328,0.2225,-0.1238,-1.3401,0.0977,-0.0587,36.7586,-8.9304,-0.8906,
5.390946,-0.0441,0.1985,-0.2264,-1.3401,0.0977,-0.0587,36.7586,-8.9304,-0.8906,
5.439402,-0.0441,0.1985,-0.2264,-1.3401,0.0977,-0.0587,36.7586,-8.9304,-0.8906,
5.440824,-0.0441,0.1985,-0.2264,-1.3401,0.0977,-0.0587,36.7586,-8.9304,-0.8906,
5.441444,-0.0441,0.1985,-0.2264,-1.3401,0.0977,-0.0587,36.7586,-8.9304,-0.8906,
5.441944,-0.0441,0.1985,-0.2264,-1.3401,0.0977,-0.0587,37.0758,-8.4790,-0.0122,
5.449845,-0.0441,0.1985,-0.2264,-1.2104,0.0063,-0.0502,37.0758,-8.4790,-0.0122,
5.459954,0.1294,-0.7724,0.2157,-1.2104,0.0063,-0.0502,37.0758,-8.4790,-0.0122,
5.499897,0.1294,-0.7724,0.2157,-1.2104,0.0063,-0.0502,37.4052,-8.0276,0.8052,
5.503877,0.1294,-0.7724,0.2157,-1.2104,0.0063,-0.0502,37.4052,-8.0276,0.8052,
5.504573,0.1294,-0.7724,0.2157,-1.2104,0.0063,-0.0502,37.4052,-8.0276,0.8052,
5.505264,0.1294,-0.7724,0.2157,-1.2104,0.0063,-0.0502,37.4052,-8.0276,0.8052,
5.519815,0.1294,-0.7724,0.2157,-1.0175,-0.0166,-0.0759,37.4052,-8.0276,0.8052,
5.529664,-0.2079,-0.2480,0.0690,-1.0175,-0.0166,-0.0759,37.4052,-8.0276,0.8052,
5.559563,-0.2079,-0.2480,0.0690,-1.0175,-0.0166,-0.0759,37.5394,-7.4298,1.4640,
5.570865,-0.2079,-0.2480,0.0690,-1.0175,-0.0166,-0.0759,37.5394,-7.4298,1.4640,
5.571467,-0.2079,-0.2480,0.0690,-1.0175,-0.0166,-0.0759,37.5394,-7.4298,1.4640,
5.571815,-0.2079,-0.2480,0.0690,-1.0175,-0.0166,-0.0759,37.5394,-7.4298,1.4640,
5.572142,-0.2079,-0.2480,0.0690,-1.0175,-0.0166,-0.0759,37.5394,-7.4298,1.4640,
5.589644,-0.2079,-0.2480,0.0690,-0.9570,-0.0780,-0.1083,37.5394,-7.4298,1.4640,
5.599474,-0.0961,-0.0489,0.0580,-0.9570,-0.0780,-0.1083,37.5394,-7.4298,1.4640,
5.619408,-0.0961,-0.0489,0.0580,-0.9570,-0.0780,-0.1083,37.6004,-6.8076,1.9032,
5.637584,-0.0961,-0.0489,0.0580,-0.9570,-0.0780,-0.1083,37.6004,-6.8076,1.9032,
5.638391,-0.0961,-0.0489,0.0580,-0.9570,-0.0780,-0.1083,37.6004,-6.8076,1.9032,
5.638720,-0.0961,-0.0489,0.0580,-0.9570,-0.0780,-0.1083,37.6004,-6.8076,1.9032,
5.659268,-0.0961,-0.0489,0.0580,-0.9591,-0.1146,-0.1059,37.6004,-6.8076,1.9032,
5.669174,-0.4274,0.1478,-0.2457,-0.9591,-0.1146,-0.1059,37.6004,-6.8076,1.9032,
5.679077,-0.4274,0.1478,-0.2457,-0.9591,-0.1146,-0.1059,37.7712,-6.3928,2.5010,
5.704243,-0.4274,0.1478,-0.2457,-0.9591,-0.1146,-0.1059,37.7712,-6.3928,2.5010,
5.704953,-0.4274,0.1478,-0.2457,-0.9591,-0.1146,-0.1059,37.7712,-6.3928,2.5010,
5.705293,-0.4274,0.1478,-0.2457,-0.9591,-0.1146,-0.1059,37.7712,-6.3928,2.5010,
5.728950,-0.4274,0.1478,-0.2457,-0.9264,-0.1965,-0.1059,37.7712,-6.3928,2.5010,
5.738919,-0.4274,0.1478,-0.2457,-0.9264,-0.1965,-0.1059,37.9054,-5.9048,3.0012,
5.739595,0.0472,-0.2905,0.1933,-0.9264,-0.1965,-0.1059,37.9054,-5.9048,3.0012,
5.770730,0.0472,-0.2905,0.1933,-0.9264,-0.1965,-0.1059,37.9054,-5.9048,3.0012,
5.771367,0.0472,-0.2905,0.1933,-0.9264,-0.1965,-0.1059,37.9054,-5.9048,3.0012,
5.771813,0.0472,-0.2905,0.1933,-0.9264,-0.1965,-0.1059,37.9054,-5.9048,3.0012,
5.772121,0.0472,-0.2905,0.1933,-0.9264,-0.1965,-0.1059,37.9054,-5.9048,3.0012,
5.798873,0.0472,-0.2905,0.1933,-0.8694,-0.2080,-0.0959,37.9054,-5.9048,3.0012,
5.800080,0.0472,-0.2905,0.1933,-0.8694,-0.2080,-0.0959,37.8688,-5.3314,3.2330,
5.808794,-0.1523,0.1406,0.1330,-0.8694,-0.2080,-0.0959,37.8688,-5.3314,3.2330,
5.838001,-0.1523,0.1406,0.1330,-0.8694,-0.2080,-0.0959,37.8688,-5.3314,3.2330,
5.838877,-0.1523,0.1406,0.1330,-0.8694,-0.2080,-0.0959,37.8688,-5.3314,3.2330,
5.839699,-0.1523,0.1406,0.1330,-0.8694,-0.2080,-0.0959,37.8688,-5.3314,3.2330,
5.858871,-0.1523,0.1406,0.1330,-0.8694,-0.2080,-0.0959,37.7834,-4.8068,3.3184,
5.868537,-0.1523,0.1406,0.1330,-0.8938,-0.1880,-0.1056,37.7834,-4.8068,3.3184,
5.881290,-0.0219,-0.1455,-0.1687,-0.8938,-0.1880,-0.1056,37.7834,-4.8068,3.3184,
5.906370,-0.0219,-0.1455,-0.1687,-0.8938,-0.1880,-0.1056,37.7834,-4.8068,3.3184,
5.908091,-0.0219,-0.1455,-0.1687,-0.8938,-0.1880,-0.1056,37.7834,-4.8068,3.3184,
5.909003,-0.0219,-0.1455,-0.1687,-0.8938,-0.1880,-0.1056,37.7834,-4.8068,3.3184,
5.919711,-0.0219,-0.1455,-0.1687,-0.8938,-0.1880,-0.1056,37.6248,-4.1968,3.2208,
5.940534,-0.0219,-0.1455,-0.1687,-0.9645,-0.1157,-0.1202,37.6248,-4.1968,3.2208,
5.950202,0.0047,0.1711,-0.0968,-0.9645,-0.1157,-0.1202,37.6248,-4.1968,3.2208,
5.974452,0.0047,0.1711,-0.0968,-0.9645,-0.1157,-0.1202,37.6248,-4.1968,3.2208,
5.976284,0.0047,0.1711,-0.0968,-0.9645,-0.1157,-0.1202,37.6248,-4.1968,3.2208,
5.977281,0.0047,0.1711,-0.0968,-0.9645,-0.1157,-0.1202,37.6248,-4.1968,3.2208,
5.978279,0.0047,0.1711,-0.0968,-0.9645,-0.1157,-0.1202,37.6248,-4.1968,3.2208,
5.980377,0.0047,0.1711,-0.0968,-0.9645,-0.1157,-0.1202,37.4174,-3.5014,3.1354,
6.010087,0.0047,0.1711,-0.0968,-0.8867,-0.1290,-0.1149,37.4174,-3.5014,3.1354,
6.022206,0.0074,-0.0400,0.0128,-0.8867,-0.1290,-0.1149,37.4174,-3.5014,3.1354,
6.041114,0.0074,-0.0400,0.0128,-0.8867,-0.1290,-0.1149,37.2100,-2.8548,3.0378,
6.043123,0.0074,-0.0400,0.0128,-0.8867,-0.1290,-0.1149,37.2100,-2.8548,3.0378,
6.044195,0.0074,-0.0400,0.0128,-0.8867,-0.1290,-0.1149,37.2100,-2.8548,3.0378,
6.045211,0.0074,-0.0400,0.0128,-0.8867,-0.1290,-0.1149,37.2100,-2.8548,3.0378,
6.082674,0.0074,-0.0400,0.0128,-0.8935,-0.0413,-0.0643,37.2100,-2.8548,3.0378,
6.091701,0.0786,-0.0420,0.0560,-0.8935,-0.0413,-0.0643,37.2100,-2.8548,3.0378,
6.101917,0.0786,-0.0420,0.0560,-0.8935,-0.0413,-0.0643,36.9660,-2.1716,2.9402,
6.105326,0.0786,-0.0420,0.0560,-0.8935,-0.0413,-0.0643,36.9660,-2.1716,2.9402,
6.106683,0.0786,-0.0420,0.0560,-0.8935,-0.0413,-0.0643,36.9660,-2.1716,2.9402,
6.107922,0.0786,-0.0420,0.0560,-0.8935,-0.0413,-0.0643,36.9660,-2.1716,2.9402,
6.150993,0.0786,-0.0420,0.0560,-0.9643,-0.0992,-0.1336,36.9660,-2.1716,2.9402,
6.156556,0.0786,-0.0420,0.0560,-0.9643,-0.0992,-0.1336,36.7098,-1.5006,2.7938,
6.160448,0.1044,-0.2651,-0.5361,-0.9643,-0.0992,-0.1336,36.7098,-1.5006,2.7938,
6.173022,0.1044,-0.2651,-0.5361,-0.9643,-0.0992,-0.1336,36.7098,-1.5006,2.7938,
6.176138,0.1044,-0.2651,-0.5361,-0.9643,-0.0992,-0.1336,36.7098,-1.5006,2.7938,
6.178750,0.1044,-0.2651,-0.5361,-0.9643,-0.0992,-0.1336,36.7098,-1.5006,2.7938,
6.181566,0.1044,-0.2651,-0.5361,-0.9643,-0.0992,-0.1336,36.7098,-1.5006,2.7938,
6.219093,0.1044,-0.2651,-0.5361,-1.0609,-0.1505,-0.1057,36.7098,-1.5006,2.7938,
6.223738,0.1044,-0.2651,-0.5361,-1.0609,-0.1505,-0.1057,36.4902,-0.8662,2.6230,
6.230620,0.3412,-0.0568,-0.1305,-1.0609,-0.1505,-0.1057,36.4902,-0.8662,2.6230,
6.238553,0.3412,-0.0568,-0.1305,-1.0609,-0.1505,-0.1057,36.4902,-0.8662,2.6230,
6.240935,0.3412,-0.0568,-0.1305,-1.0609,-0.1505,-0.1057,36.4902,-0.8662,2.6230,
6.243025,0.3412,-0.0568,-0.1305,-1.0609,-0.1505,-0.1057,36.4902,-0.8662,2.6230,
6.280187,0.3412,-0.0568,-0.1305,-1.0609,-0.1505,-0.1057,36.3560,-0.3416,2.6474,
6.289852,0.3412,-0.0568,-0.1305,-1.2263,-0.1242,-0.0493,36.3560,-0.3416,2.6474,
6.300016,-0.2056,0.0523,0.4208,-1.2263,-0.1242,-0.0493,36.3560,-0.3416,2.6474,
6.305195,-0.2056,0.0523,0.4208,-1.2263,-0.1242,-0.0493,36.3560,-0.3416,2.6474,
6.308911,-0.2056,0.0523,0.4208,-1.2263,-0.1242,-0.0493,36.3560,-0.3416,2.6474,
6.312350,-0.2056,0.0523,0.4208,-1.2263,-0.1242,-0.0493,36.3560,-0.3416,2.6474,
6.339634,-0.2056,0.0523,0.4208,-1.2263,-0.1242,-0.0493,36.2462,0.1464,2.7816,
6.359479,-0.2056,0.0523,0.4208,-1.3115,-0.2951,-0.1321,36.2462,0.1464,2.7816,
6.370880,0.0787,-0.0269,0.6586,-1.3115,-0.2951,-0.1321,36.2462,0.1464,2.7816,
6.375921,0.0787,-0.0269,0.6586,-1.3115,-0.2951,-0.1321,36.2462,0.1464,2.7816,
6.379451,0.0787,-0.0269,0.6586,-1.3115,-0.2951,-0.1321,36.2462,0.1464,2.7816,
6.381253,0.0787,-0.0269,0.6586,-1.3115,-0.2951,-0.1321,36.2462,0.1464,2.7816,
6.383078,0.0787,-0.0269,0.6586,-1.3115,-0.2951,-0.1321,36.2462,0.1464,2.7816,
6.399238,0.0787,-0.0269,0.6586,-1.3115,-0.2951,-0.1321,36.1730,0.5002,3.0622,
6.429641,0.0787,-0.0269,0.6586,-0.9115,-0.1485,0.1698,36.1730,0.5002,3.0622,
6.441861,-0.2820,-0.7782,1.0194,-0.9115,-0.1485,0.1698,36.1730,0.5002,3.0622,
6.444297,-0.2820,-0.7782,1.0194,-0.9115,-0.1485,0.1698,36.1730,0.5002,3.0622,
6.446238,-0.2820,-0.7782,1.0194,-0.9115,-0.1485,0.1698,36.1730,0.5002,3.0622,
6.447882,-0.2820,-0.7782,1.0194,-0.9115,-0.1485,0.1698,36.1730,0.5002,3.0622,
6.457386,-0.2820,-0.7782,1.0194,-0.9115,-0.1485,0.1698,36.1608,0.6832,3.4404,
6.499678,-0.2820,-0.7782,1.0194,-0.3072,0.0521,0.4270,36.1608,0.6832,3.4404,
6.510586,-0.2820,-0.7782,1.0194,-0.3072,0.0521,0.4270,36.1608,0.6832,3.4404,
6.512597,-0.2820,-0.7782,1.0194,-0.3072,0.0521,0.4270,36.1608,0.6832,3.4404,
6.514202,-0.2820,-0.7782,1.0194,-0.3072,0.0521,0.4270,36.1608,0.6832,3.4404,
6.516174,0.0386,-0.7325,0.5167,-0.3072,0.0521,0.4270,36.1608,0.6832,3.4404,
6.519701,0.0386,-0.7325,0.5167,-0.3072,0.0521,0.4270,36.2096,0.7320,3.7088,
6.569206,0.0386,-0.7325,0.5167,0.5337,0.1850,0.4052,36.2096,0.7320,3.7088,
6.572698,0.0386,-0.7325,0.5167,0.5337,0.1850,0.4052,36.2096,0.7320,3.7088,
6.574726,0.0386,-0.7325,0.5167,0.5337,0.1850,0.4052,36.2096,0.7320,3.7088,
6.576766,0.0386,-0.7325,0.5167,0.5337,0.1850,0.4052,36.2096,0.7320,3.7088,
6.579141,0.0386,-0.7325,0.5167,0.5337,0.1850,0.4052,36.2096,0.7320,3.7088,
6.581227,0.0386,-0.7325,0.5167,0.5337,0.1850,0.4052,36.2828,0.6344,4.0260,
6.583525,0.5241,-0.5345,-0.3305,0.5337,0.1850,0.4052,36.2828,0.6344,4.0260,
6.639438,0.5241,-0.5345,-0.3305,0.5337,0.1850,0.4052,36.3804,0.4758,4.2822,
6.643090,0.5241,-0.5345,-0.3305,0.8638,0.2176,0.4040,36.3804,0.4758,4.2822,
6.645864,0.5241,-0.5345,-0.3305,0.8638,0.2176,0.4040,36.3804,0.4758,4.2822,
6.647996,0.5241,-0.5345,-0.3305,0.8638,0.2176,0.4040,36.3804,0.4758,4.2822,
6.649967,0.5241,-0.5345,-0.3305,0.8638,0.2176,0.4040,36.3804,0.4758,4.2822,
6.652269,0.7097,0.1076,-0.1928,0.8638,0.2176,0.4040,36.3804,0.4758,4.2822,
6.698773,0.7097,0.1076,-0.1928,0.8638,0.2176,0.4040,36.5024,0.1708,4.5750,
6.705968,0.7097,0.1076,-0.1928,0.9336,0.1895,0.2981,36.5024,0.1708,4.5750,
6.709388,0.7097,0.1076,-0.1928,0.9336,0.1895,0.2981,36.5024,0.1708,4.5750,
6.711892,0.7097,0.1076,-0.1928,0.9336,0.1895,0.2981,36.5024,0.1708,4.5750,
6.714239,0.7097,0.1076,-0.1928,0.9336,0.1895,0.2981,36.5024,0.1708,4.5750,
6.717684,0.0054,0.0445,-0.8866,0.9336,0.1895,0.2981,36.5024,0.1708,4.5750,
6.758500,0.0054,0.0445,-0.8866,0.9336,0.1895,0.2981,36.6244,-0.2074,4.7092,
6.773481,0.0054,0.0445,-0.8866,0.9336,0.1895,0.2981,36.6244,-0.2074,4.7092,
6.776622,0.0054,0.0445,-0.8866,0.9336,0.1895,0.2981,36.6244,-0.2074,4.7092,
6.778715,0.0054,0.0445,-0.8866,0.9336,0.1895,0.2981,36.6244,-0.2074,4.7092,
6.780926,0.0054,0.0445,-0.8866,0.9336,0.1895,0.2981,36.6244,-0.2074,4.7092,
6.783201,0.0054,0.0445,-0.8866,0.9093,0.1264,0.2506,36.6244,-0.2074,4.7092,
6.789553,-0.1347,-0.0777,-1.1751,0.9093,0.1264,0.2506,36.6244,-0.2074,4.7092,
6.816779,-0.1347,-0.0777,-1.1751,0.9093,0.1264,0.2506,36.7830,-0.6466,4.8068,
6.839585,-0.1347,-0.0777,-1.1751,0.9093,0.1264,0.2506,36.7830,-0.6466,4.8068,
6.842116,-0.1347,-0.0777,-1.1751,0.9093,0.1264,0.2506,36.7830,-0.6466,4.8068,
6.844380,-0.1347,-0.0777,-1.1751,0.9093,0.1264,0.2506,36.7830,-0.6466,4.8068,
6.846058,-0.1347,-0.0777,-1.1751,0.5272,0.2447,0.1650,36.7830,-0.6466,4.8068,
6.855819,0.4028,0.5164,-1.0217,0.5272,0.2447,0.1650,36.7830,-0.6466,4.8068,
6.875849,0.4028,0.5164,-1.0217,0.5272,0.2447,0.1650,37.0758,-1.2200,5.0508,
6.905771,0.4028,0.5164,-1.0217,0.5272,0.2447,0.1650,37.0758,-1.2200,5.0508,
6.908470,0.4028,0.5164,-1.0217,0.5272,0.2447,0.1650,37.0758,-1.2200,5.0508,
6.910492,0.4028,0.5164,-1.0217,0.5272,0.2447,0.1650,37.0758,-1.2200,5.0508,
6.912689,0.4028,0.5164,-1.0217,0.5272,0.2447,0.1650,37.0758,-1.2200,5.0508,
6.918119,0.4028,0.5164,-1.0217,0.4241,0.2316,0.1012,37.0758,-1.2200,5.0508,
6.925771,-0.2009,0.4566,-1.0335,0.4241,0.2316,0.1012,37.0758,-1.2200,5.0508,
6.936947,-0.2009,0.4566,-1.0335,0.4241,0.2316,0.1012,37.2954,-1.7446,5.2704,
6.973067,-0.2009,0.4566,-1.0335,0.4241,0.2316,0.1012,37.2954,-1.7446,5.2704,
6.975696,-0.2009,0.4566,-1.0335,0.4241,0.2316,0.1012,37.2954,-1.7446,5.2704,
6.977716,-0.2009,0.4566,-1.0335,0.4241,0.2316,0.1012,37.2954,-1.7446,5.2704,
6.987434,-0.2009,0.4566,-1.0335,0.3269,0.0963,-0.0316,37.2954,-1.7446,5.2704,
7.000147,-0.2009,0.4566,-1.0335,0.3269,0.0963,-0.0316,37.4662,-2.0862,5.4656,
7.004331,-0.5697,0.9093,-0.8011,0.3269,0.0963,-0.0316,37.4662,-2.0862,5.4656,
7.040610,-0.5697,0.9093,-0.8011,0.3269,0.0963,-0.0316,37.4662,-2.0862,5.4656,
7.043585,-0.5697,0.9093,-0.8011,0.3269,0.0963,-0.0316,37.4662,-2.0862,5.4656,
7.045394,-0.5697,0.9093,-0.8011,0.3269,0.0963,-0.0316,37.4662,-2.0862,5.4656,
7.057077,-0.5697,0.9093,-0.8011,0.2132,0.1764,-0.0846,37.4662,-2.0862,5.4656,
7.059898,-0.5697,0.9093,-0.8011,0.2132,0.1764,-0.0846,37.5760,-2.2448,5.5876,
7.067087,0.0806,0.0244,0.0054,0.2132,0.1764,-0.0846,37.5760,-2.2448,5.5876,
7.106716,0.0806,0.0244,0.0054,0.2132,0.1764,-0.0846,37.5760,-2.2448,5.5876,
7.109127,0.0806,0.0244,0.0054,0.2132,0.1764,-0.0846,37.5760,-2.2448,5.5876,
7.110579,0.0806,0.0244,0.0054,0.2132,0.1764,-0.0846,37.5760,-2.2448,5.5876,
7.112507,0.0806,0.0244,0.0054,0.2132,0.1764,-0.0846,37.5760,-2.2448,5.5876,
7.118573,0.0806,0.0244,0.0054,0.2132,0.1764,-0.0846,37.6370,-2.3668,5.7462,
7.125277,0.0806,0.0244,0.0054,0.1144,0.0011,0.0523,37.6370,-2.3668,5.7462,
7.135706,-0.3443,-0.6154,-0.5122,0.1144,0.0011,0.0523,37.6370,-2.3668,5.7462,
7.173840,-0.3443,-0.6154,-0.5122,0.1144,0.0011,0.0523,37.6370,-2.3668,5.7462,
7.176308,-0.3443,-0.6154,-0.5122,0.1144,0.0011,0.0523,37.6370,-2.3668,5.7462,
7.178028,-0.3443,-0.6154,-0.5122,0.1144,0.0011,0.0523,37.6370,-2.3668,5.7462,
7.179992,-0.3443,-0.6154,-0.5122,0.1144,0.0011,0.0523,37.6980,-2.3668,5.8926,
7.196818,-0.3443,-0.6154,-0.5122,0.2936,0.2799,0.0972,37.6980,-2.3668,5.8926,
7.208026,-0.0061,-0.2758,0.0499,0.2936,0.2799,0.0972,37.6980,-2.3668,5.8926,
7.236709,-0.0061,-0.2758,0.0499,0.2936,0.2799,0.0972,37.7346,-2.3302,6.0756,
7.240524,-0.0061,-0.2758,0.0499,0.2936,0.2799,0.0972,37.7346,-2.3302,6.0756,
7.242987,-0.0061,-0.2758,0.0499,0.2936,0.2799,0.0972,37.7346,-2.3302,6.0756,
7.244072,-0.0061,-0.2758,0.0499,0.2936,0.2799,0.0972,37.7346,-2.3302,6.0756,
7.266484,-0.0061,-0.2758,0.0499,0.2961,0.0951,0.0807,37.7346,-2.3302,6.0756,
7.276480,0.1156,0.7307,0.0006,0.2961,0.0951,0.0807,37.7346,-2.3302,6.0756,
7.296372,0.1156,0.7307,0.0006,0.2961,0.0951,0.0807,37.7712,-2.2692,6.2708,
7.305534,0.1156,0.7307,0.0006,0.2961,0.0951,0.0807,37.7712,-2.2692,6.2708,
7.307880,0.1156,0.7307,0.0006,0.2961,0.0951,0.0807,37.7712,-2.2692,6.2708,
7.310131,0.1156,0.7307,0.0006,0.2961,0.0951,0.0807,37.7712,-2.2692,6.2708,
7.312497,0.1156,0.7307,0.0006,0.2961,0.0951,0.0807,37.7712,-2.2692,6.2708,
7.336653,0.1156,0.7307,0.0006,0.3561,0.1085,-0.1125,37.7712,-2.2692,6.2708,
7.348066,0.5413,0.1022,0.1078,0.3561,0.1085,-0.1125,37.7712,-2.2692,6.2708,
7.364760,0.5413,0.1022,0.1078,0.3561,0.1085,-0.1125,37.7102,-2.0374,6.2830,
7.371721,0.5413,0.1022,0.1078,0.3561,0.1085,-0.1125,37.7102,-2.0374,6.2830,
7.374193,0.5413,0.1022,0.1078,0.3561,0.1085,-0.1125,37.7102,-2.0374,6.2830,
7.377118,0.5413,0.1022,0.1078,0.3561,0.1085,-0.1125,37.7102,-2.0374,6.2830,
7.405729,0.5413,0.1022,0.1078,0.3850,0.1479,-0.1069,37.7102,-2.0374,6.2830,
7.415788,0.3245,-0.2954,0.0367,0.3850,0.1479,-0.1069,37.7102,-2.0374,6.2830,
7.425673,0.3245,-0.2954,0.0367,0.3850,0.1479,-0.1069,37.6492,-1.7324,6.3074,
7.439327,0.3245,-0.2954,0.0367,0.3850,0.1479,-0.1069,37.6492,-1.7324,6.3074,
7.441104,0.3245,-0.2954,0.0367,0.3850,0.1479,-0.1069,37.6492,-1.7324,6.3074,
7.442415,0.3245,-0.2954,0.0367,0.3850,0.1479,-0.1069,37.6492,-1.7324,6.3074,
7.475653,0.3245,-0.2954,0.0367,0.3868,0.0270,-0.0390,37.6492,-1.7324,6.3074,
7.484367,0.3245,-0.2954,0.0367,0.3868,0.0270,-0.0390,37.6126,-1.4762,6.3318,
7.487655,0.0359,0.1003,0.2018,0.3868,0.0270,-0.0390,37.6126,-1.4762,6.3318,
7.505480,0.0359,0.1003,0.2018,0.3868,0.0270,-0.0390,37.6126,-1.4762,6.3318,
7.508661,0.0359,0.1003,0.2018,0.3868,0.0270,-0.0390,37.6126,-1.4762,6.3318,
7.511187,0.0359,0.1003,0.2018,0.3868,0.0270,-0.0390,37.6126,-1.4762,6.3318,
7.513588,0.0359,0.1003,0.2018,0.3868,0.0270,-0.0390,37.6126,-1.4762,6.3318,
7.544417,0.0359,0.1003,0.2018,0.3868,0.0270,-0.0390,37.6248,-1.2932,6.3074,
7.547979,0.0359,0.1003,0.2018,0.4579,0.0148,0.1819,37.6248,-1.2932,6.3074,
7.556508,0.1017,0.1315,0.1244,0.4579,0.0148,0.1819,37.6248,-1.2932,6.3074,
7.571978,0.1017,0.1315,0.1244,0.4579,0.0148,0.1819,37.6248,-1.2932,6.3074,
7.572973,0.1017,0.1315,0.1244,0.4579,0.0148,0.1819,37.6248,-1.2932,6.3074,
7.573534,0.1017,0.1315,0.1244,0.4579,0.0148,0.1819,37.6248,-1.2932,6.3074,
7.604109,0.1017,0.1315,0.1244,0.4579,0.0148,0.1819,37.6736,-1.0980,6.2952,
7.613523,0.1017,0.1315,0.1244,0.4451,0.0217,0.0578,37.6736,-1.0980,6.2952,
7.624159,-0.0876,-0.1576,0.0313,0.4451,0.0217,0.0578,37.6736,-1.0980,6.2952,
7.638388,-0.0876,-0.1576,0.0313,0.4451,0.0217,0.0578,37.6736,-1.0980,6.2952,
7.640610,-0.0876,-0.1576,0.0313,0.4451,0.0217,0.0578,37.6736,-1.0980,6.2952,
7.642079,-0.0876,-0.1576,0.0313,0.4451,0.0217,0.0578,37.6736,-1.0980,6.2952,
7.663922,-0.0876,-0.1576,0.0313,0.4451,0.0217,0.0578,37.6980,-0.9272,6.2220,
7.683843,-0.0876,-0.1576,0.0313,0.3080,-0.0330,-0.0622,37.6980,-0.9272,6.2220,
7.693375,0.1834,0.0690,0.2441,0.3080,-0.0330,-0.0622,37.6980,-0.9272,6.2220,
7.705668,0.1834,0.0690,0.2441,0.3080,-0.0330,-0.0622,37.6980,-0.9272,6.2220,
7.709005,0.1834,0.0690,0.2441,0.3080,-0.0330,-0.0622,37.6980,-0.9272,6.2220,
7.712045,0.1834,0.0690,0.2441,0.3080,-0.0330,-0.0622,37.6980,-0.9272,6.2220,
7.713628,0.1834,0.0690,0.2441,0.3080,-0.0330,-0.0622,37.6980,-0.9272,6.2220,
7.724353,0.1834,0.0690,0.2441,0.3080,-0.0330,-0.0622,37.7224,-0.6954,6.0634,
7.754487,0.1834,0.0690,0.2441,-0.1495,0.0313,0.0072,37.7224,-0.6954,6.0634,
7.770245,-0.3160,0.3383,0.0829,-0.1495,0.0313,0.0072,37.7224,-0.6954,6.0634,
7.774205,-0.3160,0.3383,0.0829,-0.1495,0.0313,0.0072,37.7224,-0.6954,6.0634,
7.777018,-0.3160,0.3383,0.0829,-0.1495,0.0313,0.0072,37.7224,-0.6954,6.0634,
7.779677,-0.3160,0.3383,0.0829,-0.1495,0.0313,0.0072,37.7224,-0.6954,6.0634,
7.784467,-0.3160,0.3383,0.0829,-0.1495,0.0313,0.0072,37.7346,-0.4392,5.9414,
7.823401,-0.3160,0.3383,0.0829,-0.6004,0.3665,0.1863,37.7346,-0.4392,5.9414,
7.832581,0.0943,0.2398,0.3380,-0.6004,0.3665,0.1863,37.7346,-0.4392,5.9414,
7.837668,0.0943,0.2398,0.3380,-0.6004,0.3665,0.1863,37.7346,-0.4392,5.9414,
7.839557,0.0943,0.2398,0.3380,-0.6004,0.3665,0.1863,37.7346,-0.4392,5.9414,
7.841059,0.0943,0.2398,0.3380,-0.6004,0.3665,0.1863,37.7346,-0.4392,5.9414,
7.843212,0.0943,0.2398,0.3380,-0.6004,0.3665,0.1863,37.7712,-0.2684,5.9536,
7.894643,0.0943,0.2398,0.3380,-0.9297,0.3242,0.0947,37.7712,-0.2684,5.9536,
7.904777,0.0943,0.2398,0.3380,-0.9297,0.3242,0.0947,37.8078,-0.2196,6.0024,
7.908733,-0.2023,0.5878,-0.2620,-0.9297,0.3242,0.0947,37.8078,-0.2196,6.0024,
7.911968,-0.2023,0.5878,-0.2620,-0.9297,0.3242,0.0947,37.8078,-0.2196,6.0024,
7.914624,-0.2023,0.5878,-0.2620,-0.9297,0.3242,0.0947,37.8078,-0.2196,6.0024,
7.916557,-0.2023,0.5878,-0.2620,-0.9297,0.3242,0.0947,37.8078,-0.2196,6.0024,
7.918215,-0.2023,0.5878,-0.2620,-0.9297,0.3242,0.0947,37.8078,-0.2196,6.0024,
7.964878,-0.2023,0.5878,-0.2620,-0.9297,0.3242,0.0947,37.7956,-0.2318,6.3196,
7.968937,-0.2023,0.5878,-0.2620,-0.9670,0.4495,0.1254,37.7956,-0.2318,6.3196,
7.973343,-0.2023,0.5878,-0.2620,-0.9670,0.4495,0.1254,37.7956,-0.2318,6.3196,
7.975665,-0.2023,0.5878,-0.2620,-0.9670,0.4495,0.1254,37.7956,-0.2318,6.3196,
7.977004,-0.2023,0.5878,-0.2620,-0.9670,0.4495,0.1254,37.7956,-0.2318,6.3196,
7.978347,-0.1960,0.1277,-0.2085,-0.9670,0.4495,0.1254,37.7956,-0.2318,6.3196,
8.024027,-0.1960,0.1277,-0.2085,-0.9670,0.4495,0.1254,37.7834,-0.2806,6.8808,
8.033092,-0.1960,0.1277,-0.2085,-0.8268,0.3417,-0.1945,37.7834,-0.2806,6.8808,
8.038385,-0.1960,0.1277,-0.2085,-0.8268,0.3417,-0.1945,37.7834,-0.2806,6.8808,
8.040987,-0.1960,0.1277,-0.2085,-0.8268,0.3417,-0.1945,37.7834,-0.2806,6.8808,
8.043705,-0.1960,0.1277,-0.2085,-0.8268,0.3417,-0.1945,37.7834,-0.2806,6.8808,
8.045983,-1.0129,-0.5496,0.1257,-0.8268,0.3417,-0.1945,37.7834,-0.2806,6.8808,
8.084111,-1.0129,-0.5496,0.1257,-0.8268,0.3417,-0.1945,37.7346,-0.4026,7.6128,
8.102387,-1.0129,-0.5496,0.1257,-1.7225,-0.0037,0.0402,37.7346,-0.4026,7.6128,
8.107757,-1.0129,-0.5496,0.1257,-1.7225,-0.0037,0.0402,37.7346,-0.4026,7.6128,
8.111249,-1.0129,-0.5496,0.1257,-1.7225,-0.0037,0.0402,37.7346,-0.4026,7.6128,
8.114096,-1.0129,-0.5496,0.1257,-1.7225,-0.0037,0.0402,37.7346,-0.4026,7.6128,
8.117222,-1.0129,-0.5496,0.1257,-1.7225,-0.0037,0.0402,37.7346,-0.4026,7.6128,
8.119666,-1.0945,-0.6390,-1.0525,-1.7225,-0.0037,0.0402,37.7346,-0.4026,7.6128,
8.143066,-1.0945,-0.6390,-1.0525,-1.7225,-0.0037,0.0402,37.7712,-0.6954,8.5156,
8.172145,-1.0945,-0.6390,-1.0525,-1.0408,-0.2755,-0.3523,37.7712,-0.6954,8.5156,
8.177851,-1.0945,-0.6390,-1.0525,-1.0408,-0.2755,-0.3523,37.7712,-0.6954,8.5156,
8.181104,-1.0945,-0.6390,-1.0525,-1.0408,-0.2755,-0.3523,37.7712,-0.6954,8.5156,
8.184352,-1.0945,-0.6390,-1.0525,-1.0408,-0.2755,-0.3523,37.7712,-0.6954,8.5156,
8.188031,1.0320,-0.6582,0.2165,-1.0408,-0.2755,-0.3523,37.7712,-0.6954,8.5156,
8.201338,1.0320,-0.6582,0.2165,-1.0408,-0.2755,-0.3523,37.8078,-1.0248,9.4672,
8.241014,1.0320,-0.6582,0.2165,-0.4206,-0.2908,-0.2052,37.8078,-1.0248,9.4672,
8.245743,1.0320,-0.6582,0.2165,-0.4206,-0.2908,-0.2052,37.8078,-1.0248,9.4672,
8.249037,1.0320,-0.6582,0.2165,-0.4206,-0.2908,-0.2052,37.8078,-1.0248,9.4672,
8.251721,1.0320,-0.6582,0.2165,-0.4206,-0.2908,-0.2052,37.8078,-1.0248,9.4672,
8.253542,0.3752,-1.1869,0.5707,-0.4206,-0.2908,-0.2052,37.8078,-1.0248,9.4672,
8.262214,0.3752,-1.1869,0.5707,-0.4206,-0.2908,-0.2052,37.8200,-1.3054,10.2968,
8.307304,0.3752,-1.1869,0.5707,-0.4206,-0.2908,-0.2052,37.8200,-1.3054,10.2968,
8.311313,0.3752,-1.1869,0.5707,-0.4206,-0.2908,-0.2052,37.8200,-1.3054,10.2968,
8.314461,0.3752,-1.1869,0.5707,-0.4206,-0.2908,-0.2052,37.8200,-1.3054,10.2968,
8.317668,0.3752,-1.1869,0.5707,-0.4206,-0.2908,-0.2052,37.8200,-1.3054,10.2968,
8.321171,0.3752,-1.1869,0.5707,-0.3133,-0.5902,-0.2613,37.8200,-1.3054,10.2968,
8.324499,0.3752,-1.1869,0.5707,-0.3133,-0.5902,-0.2613,37.8078,-1.3786,10.7726,
8.326515,0.6547,0.1040,0.4369,-0.3133,-0.5902,-0.2613,37.8078,-1.3786,10.7726,
8.373143,0.6547,0.1040,0.4369,-0.3133,-0.5902,-0.2613,37.8078,-1.3786,10.7726,
8.376008,0.6547,0.1040,0.4369,-0.3133,-0.5902,-0.2613,37.8078,-1.3786,10.7726,
8.378170,0.6547,0.1040,0.4369,-0.3133,-0.5902,-0.2613,37.8078,-1.3786,10.7726,
8.382569,0.6547,0.1040,0.4369,-0.3133,-0.5902,-0.2613,37.8566,-1.3786,10.9068,
8.385947,0.6547,0.1040,0.4369,-0.5187,-0.5784,-0.1541,37.8566,-1.3786,10.9068,
8.391691,-0.5027,0.1916,0.2853,-0.5187,-0.5784,-0.1541,37.8566,-1.3786,10.9068,
8.440965,-0.5027,0.1916,0.2853,-0.5187,-0.5784,-0.1541,38.0274,-1.3542,10.8336,
8.445847,-0.5027,0.1916,0.2853,-0.5187,-0.5784,-0.1541,38.0274,-1.3542,10.8336,
8.449060,-0.5027,0.1916,0.2853,-0.5187,-0.5784,-0.1541,38.0274,-1.3542,10.8336,
8.452259,-0.5027,0.1916,0.2853,-0.5187,-0.5784,-0.1541,38.0274,-1.3542,10.8336,
8.455523,-0.5027,0.1916,0.2853,-0.9533,-0.3949,-0.1659,38.0274,-1.3542,10.8336,
8.461736,0.4874,0.0358,0.0933,-0.9533,-0.3949,-0.1659,38.0274,-1.3542,10.8336,
8.502407,0.4874,0.0358,0.0933,-0.9533,-0.3949,-0.1659,38.1494,-1.2810,10.5286,
8.507164,0.4874,0.0358,0.0933,-0.9533,-0.3949,-0.1659,38.1494,-1.2810,10.5286,
8.510362,0.4874,0.0358,0.0933,-0.9533,-0.3949,-0.1659,38.1494,-1.2810,10.5286,
8.513571,0.4874,0.0358,0.0933,-0.9533,-0.3949,-0.1659,38.1494,-1.2810,10.5286,
8.516237,0.4874,0.0358,0.0933,-0.9533,-0.3949,-0.1659,38.1494,-1.2810,10.5286,
8.523319,0.4874,0.0358,0.0933,-1.7948,-0.4035,-0.3698,38.1494,-1.2810,10.5286,
8.531668,0.2387,-0.9387,-0.2378,-1.7948,-0.4035,-0.3698,38.1494,-1.2810,10.5286,
8.563446,0.2387,-0.9387,-0.2378,-1.7948,-0.4035,-0.3698,38.1494,-1.2810,10.5286,
8.567982,0.2387,-0.9387,-0.2378,-1.7948,-0.4035,-0.3698,38.1494,-1.2810,10.5286,
8.571769,0.2387,-0.9387,-0.2378,-1.7948,-0.4035,-0.3698,38.2470,-1.0492,9.9552,
8.575449,0.2387,-0.9387,-0.2378,-1.7948,-0.4035,-0.3698,38.2470,-1.0492,9.9552,
8.592250,0.2387,-0.9387,-0.2378,-2.0247,-0.3310,-0.3155,38.2470,-1.0492,9.9552,
8.602741,0.2094,-1.1450,-0.9192,-2.0247,-0.3310,-0.3155,38.2470,-1.0492,9.9552,
8.621721,0.2094,-1.1450,-0.9192,-2.0247,-0.3310,-0.3155,38.2348,-0.6222,9.2964,
8.641584,0.2094,-1.1450,-0.9192,-2.0247,-0.3310,-0.3155,38.2348,-0.6222,9.2964,
8.645533,0.2094,-1.1450,-0.9192,-2.0247,-0.3310,-0.3155,38.2348,-0.6222,9.2964,
8.649014,0.2094,-1.1450,-0.9192,-2.0247,-0.3310,-0.3155,38.2348,-0.6222,9.2964,
8.652367,0.2094,-1.1450,-0.9192,-2.0247,-0.3310,-0.3155,38.2348,-0.6222,9.2964,
8.661214,0.2094,-1.1450,-0.9192,-1.1597,-0.2443,0.0020,38.2348,-0.6222,9.2964,
8.671157,-0.8917,-1.1605,0.5704,-1.1597,-0.2443,0.0020,38.2348,-0.6222,9.2964,
8.679620,-0.8917,-1.1605,0.5704,-1.1597,-0.2443,0.0020,38.1982,-0.2440,8.6376,
8.707988,-0.8917,-1.1605,0.5704,-1.1597,-0.2443,0.0020,38.1982,-0.2440,8.6376,
8.712053,-0.8917,-1.1605,0.5704,-1.1597,-0.2443,0.0020,38.1982,-0.2440,8.6376,
8.715133,-0.8917,-1.1605,0.5704,-1.1597,-0.2443,0.0020,38.1982,-0.2440,8.6376,
8.731063,-0.8917,-1.1605,0.5704,-0.9185,-0.1217,0.2216,38.1982,-0.2440,8.6376,
8.739715,-0.8917,-1.1605,0.5704,-0.9185,-0.1217,0.2216,38.1616,-0.0488,8.0520,
8.742355,-0.2411,0.4286,-0.0693,-0.9185,-0.1217,0.2216,38.1616,-0.0488,8.0520,
8.775126,-0.2411,0.4286,-0.0693,-0.9185,-0.1217,0.2216,38.1616,-0.0488,8.0520,
8.778599,-0.2411,0.4286,-0.0693,-0.9185,-0.1217,0.2216,38.1616,-0.0488,8.0520,
8.781939,-0.2411,0.4286,-0.0693,-0.9185,-0.1217,0.2216,38.1616,-0.0488,8.0520,
8.799630,-0.2411,0.4286,-0.0693,-0.8116,0.1792,0.1898,38.1616,-0.0488,8.0520,
8.801899,-0.2411,0.4286,-0.0693,-0.8116,0.1792,0.1898,38.1494,-0.1464,7.7958,
8.809480,-0.0420,0.1874,0.2722,-0.8116,0.1792,0.1898,38.1494,-0.1464,7.7958,
8.840212,-0.0420,0.1874,0.2722,-0.8116,0.1792,0.1898,38.1494,-0.1464,7.7958,
8.843700,-0.0420,0.1874,0.2722,-0.8116,0.1792,0.1898,38.1494,-0.1464,7.7958,
8.846157,-0.0420,0.1874,0.2722,-0.8116,0.1792,0.1898,38.1494,-0.1464,7.7958,
8.848794,-0.0420,0.1874,0.2722,-0.8116,0.1792,0.1898,38.1494,-0.1464,7.7958,
8.859096,-0.0420,0.1874,0.2722,-0.8116,0.1792,0.1898,38.0518,-0.3782,7.8446,
8.869085,-0.0420,0.1874,0.2722,-0.5447,0.1518,0.2332,38.0518,-0.3782,7.8446,
8.880362,0.1184,-0.0874,0.2692,-0.5447,0.1518,0.2332,38.0518,-0.3782,7.8446,
8.907050,0.1184,-0.0874,0.2692,-0.5447,0.1518,0.2332,38.0518,-0.3782,7.8446,
8.910763,0.1184,-0.0874,0.2692,-0.5447,0.1518,0.2332,38.0518,-0.3782,7.8446,
8.914548,0.1184,-0.0874,0.2692,-0.5447,0.1518,0.2332,38.0518,-0.3782,7.8446,
8.919674,0.1184,-0.0874,0.2692,-0.5447,0.1518,0.2332,37.8688,-0.6954,8.0032,
8.939730,0.1184,-0.0874,0.2692,-0.2840,0.3916,0.2731,37.8688,-0.6954,8.0032,
8.949153,-0.1851,-0.1627,0.1550,-0.2840,0.3916,0.2731,37.8688,-0.6954,8.0032,
8.973557,-0.1851,-0.1627,0.1550,-0.2840,0.3916,0.2731,37.8688,-0.6954,8.0032,
8.977253,-0.1851,-0.1627,0.1550,-0.2840,0.3916,0.2731,37.8688,-0.6954,8.0032,
8.980206,-0.1851,-0.1627,0.1550,-0.2840,0.3916,0.2731,37.8688,-0.6954,8.0032,
8.982618,-0.1851,-0.1627,0.1550,-0.2840,0.3916,0.2731,37.6858,-1.1224,8.2594,
9.009173,-0.1851,-0.1627,0.1550,0.0913,0.1635,0.1960,37.6858,-1.1224,8.2594,
9.019444,-0.1280,-0.6456,0.0642,0.0913,0.1635,0.1960,37.6858,-1.1224,8.2594,
9.038729,-0.1280,-0.6456,0.0642,0.0913,0.1635,0.1960,37.5272,-1.6958,8.6376,
9.041520,-0.1280,-0.6456,0.0642,0.0913,0.1635,0.1960,37.5272,-1.6958,8.6376,
9.043624,-0.1280,-0.6456,0.0642,0.0913,0.1635,0.1960,37.5272,-1.6958,8.6376,
9.045701,-0.1280,-0.6456,0.0642,0.0913,0.1635,0.1960,37.5272,-1.6958,8.6376,
9.047820,-0.1280,-0.6456,0.0642,0.0913,0.1635,0.1960,37.5272,-1.6958,8.6376,
9.079419,-0.1280,-0.6456,0.0642,0.1868,-0.0613,0.1048,37.5272,-1.6958,8.6376,
9.088728,-0.0447,-0.0122,-0.0779,0.1868,-0.0613,0.1048,37.5272,-1.6958,8.6376,
9.099319,-0.0447,-0.0122,-0.0779,0.1868,-0.0613,0.1048,37.3808,-2.3302,8.9304,
9.106774,-0.0447,-0.0122,-0.0779,0.1868,-0.0613,0.1048,37.3808,-2.3302,8.9304,
9.108303,-0.0447,-0.0122,-0.0779,0.1868,-0.0613,0.1048,37.3808,-2.3302,8.9304,
9.109123,-0.0447,-0.0122,-0.0779,0.1868,-0.0613,0.1048,37.3808,-2.3302,8.9304,
9.148898,-0.0447,-0.0122,-0.0779,0.3410,-0.1100,-0.0739,37.3808,-2.3302,8.9304,
9.154214,-0.0447,-0.0122,-0.0779,0.3410,-0.1100,-0.0739,37.2588,-2.8426,9.1500,
9.163889,0.1214,0.0821,-0.2366,0.3410,-0.1100,-0.0739,37.2588,-2.8426,9.1500,
9.174516,0.1214,0.0821,-0.2366,0.3410,-0.1100,-0.0739,37.2588,-2.8426,9.1500,
9.176334,0.1214,0.0821,-0.2366,0.3410,-0.1100,-0.0739,37.2588,-2.8426,9.1500,
9.177311,0.1214,0.0821,-0.2366,0.3410,-0.1100,-0.0739,37.2588,-2.8426,9.1500,
9.218680,0.1214,0.0821,-0.2366,0.4374,-0.2149,-0.1511,37.2588,-2.8426,9.1500,
9.222730,0.1214,0.0821,-0.2366,0.4374,-0.2149,-0.1511,37.1490,-3.2452,9.3330,
9.229055,-0.1670,-0.1328,0.4611,0.4374,-0.2149,-0.1511,37.1490,-3.2452,9.3330,
9.239995,-0.1670,-0.1328,0.4611,0.4374,-0.2149,-0.1511,37.1490,-3.2452,9.3330,
9.243581,-0.1670,-0.1328,0.4611,0.4374,-0.2149,-0.1511,37.1490,-3.2452,9.3330,
9.247084,-0.1670,-0.1328,0.4611,0.4374,-0.2149,-0.1511,37.1490,-3.2452,9.3330,
9.249832,-0.1670,-0.1328,0.4611,0.4374,-0.2149,-0.1511,37.1490,-3.2452,9.3330,
9.278420,-0.1670,-0.1328,0.4611,0.4374,-0.2149,-0.1511,37.0270,-3.3672,9.3086,
9.287945,-0.1670,-0.1328,0.4611,0.4441,-0.0250,-0.1798,37.0270,-3.3672,9.3086,
9.297898,0.0081,0.2259,-0.1759,0.4441,-0.0250,-0.1798,37.0270,-3.3672,9.3086,
9.306137,0.0081,0.2259,-0.1759,0.4441,-0.0250,-0.1798,37.0270,-3.3672,9.3086,
9.309930,0.0081,0.2259,-0.1759,0.4441,-0.0250,-0.1798,37.0270,-3.3672,9.3086,
9.313331,0.0081,0.2259,-0.1759,0.4441,-0.0250,-0.1798,37.0270,-3.3672,9.3086,
9.337692,0.0081,0.2259,-0.1759,0.4441,-0.0250,-0.1798,36.9172,-3.3306,9.0890,
9.357975,0.0081,0.2259,-0.1759,0.5105,-0.0557,-0.0084,36.9172,-3.3306,9.0890,
9.367883,-0.1133,0.2119,-0.1638,0.5105,-0.0557,-0.0084,36.9172,-3.3306,9.0890,
9.374988,-0.1133,0.2119,-0.1638,0.5105,-0.0557,-0.0084,36.9172,-3.3306,9.0890,
9.378468,-0.1133,0.2119,-0.1638,0.5105,-0.0557,-0.0084,36.9172,-3.3306,9.0890,
9.380442,-0.1133,0.2119,-0.1638,0.5105,-0.0557,-0.0084,36.9172,-3.3306,9.0890,
9.397382,-0.1133,0.2119,-0.1638,0.5105,-0.0557,-0.0084,36.8196,-3.1598,8.7474,
9.427767,-0.1133,0.2119,-0.1638,0.5834,-0.0016,0.0362,36.8196,-3.1598,8.7474,
9.441304,-0.3182,0.4787,0.3622,0.5834,-0.0016,0.0362,36.8196,-3.1598,8.7474,
9.443508,-0.3182,0.4787,0.3622,0.5834,-0.0016,0.0362,36.8196,-3.1598,8.7474,
9.445413,-0.3182,0.4787,0.3622,0.5834,-0.0016,0.0362,36.8196,-3.1598,8.7474,
9.447697,-0.3182,0.4787,0.3622,0.5834,-0.0016,0.0362,36.8196,-3.1598,8.7474,
9.449049,-0.3182,0.4787,0.3622,0.5834,-0.0016,0.0362,36.8196,-3.1598,8.7474,
9.456906,-0.3182,0.4787,0.3622,0.5834,-0.0016,0.0362,36.7586,-2.9402,8.3082,
9.497412,-0.3182,0.4787,0.3622,0.6956,0.0333,0.0732,36.7586,-2.9402,8.3082,
9.505928,0.1317,1.0011,0.5279,0.6956,0.0333,0.0732,36.7586,-2.9402,8.3082,
9.506531,0.1317,1.0011,0.5279,0.6956,0.0333,0.0732,36.7586,-2.9402,8.3082,
9.506850,0.1317,1.0011,0.5279,0.6956,0.0333,0.0732,36.7586,-2.9402,8.3082,
9.507158,0.1317,1.0011,0.5279,0.6956,0.0333,0.0732,36.7586,-2.9402,8.3082,
9.516632,0.1317,1.0011,0.5279,0.6956,0.0333,0.0732,36.6976,-2.6718,7.8080,
9.569369,0.1317,1.0011,0.5279,0.7906,0.0764,-0.0457,36.6976,-2.6718,7.8080,
9.573577,0.1317,1.0011,0.5279,0.7906,0.0764,-0.0457,36.6976,-2.6718,7.8080,
9.576166,0.1317,1.0011,0.5279,0.7906,0.0764,-0.0457,36.6976,-2.6718,7.8080,
9.578667,0.1317,1.0011,0.5279,0.7906,0.0764,-0.0457,36.6976,-2.6718,7.8080,
9.581379,0.1317,1.0011,0.5279,0.7906,0.0764,-0.0457,36.6122,-2.2692,7.2224,
9.584196,0.0555,1.2645,-0.0556,0.7906,0.0764,-0.0457,36.6122,-2.2692,7.2224,
9.637041,0.0555,1.2645,-0.0556,0.7906,0.0764,-0.0457,36.5268,-1.9398,6.5880,
9.641906,0.0555,1.2645,-0.0556,0.6886,-0.0876,-0.0627,36.5268,-1.9398,6.5880,
9.645436,0.0555,1.2645,-0.0556,0.6886,-0.0876,-0.0627,36.5268,-1.9398,6.5880,
9.649064,0.0555,1.2645,-0.0556,0.6886,-0.0876,-0.0627,36.5268,-1.9398,6.5880,
9.652372,0.0555,1.2645,-0.0556,0.6886,-0.0876,-0.0627,36.5268,-1.9398,6.5880,
9.655341,0.0555,1.2645,-0.0556,0.6886,-0.0876,-0.0627,36.5268,-1.9398,6.5880,
9.656921,-0.0895,1.2355,-0.0688,0.6886,-0.0876,-0.0627,36.5268,-1.9398,6.5880,
9.696972,-0.0895,1.2355,-0.0688,0.6886,-0.0876,-0.0627,36.4292,-1.6104,5.9414,
9.706672,-0.0895,1.2355,-0.0688,0.5425,-0.2675,-0.0430,36.4292,-1.6104,5.9414,
9.711188,-0.0895,1.2355,-0.0688,0.5425,-0.2675,-0.0430,36.4292,-1.6104,5.9414,
9.714425,-0.0895,1.2355,-0.0688,0.5425,-0.2675,-0.0430,36.4292,-1.6104,5.9414,
9.716316,-0.0895,1.2355,-0.0688,0.5425,-0.2675,-0.0430,36.4292,-1.6104,5.9414,
9.717860,0.2206,1.7330,-0.1948,0.5425,-0.2675,-0.0430,36.4292,-1.6104,5.9414,
9.756863,0.2206,1.7330,-0.1948,0.5425,-0.2675,-0.0430,36.3316,-1.3786,5.2582,
9.773430,0.2206,1.7330,-0.1948,0.5425,-0.2675,-0.0430,36.3316,-1.3786,5.2582,
9.776995,0.2206,1.7330,-0.1948,0.5425,-0.2675,-0.0430,36.3316,-1.3786,5.2582,
9.780257,0.2206,1.7330,-0.1948,0.5425,-0.2675,-0.0430,36.3316,-1.3786,5.2582,
9.783391,0.2206,1.7330,-0.1948,0.5356,-0.2870,-0.0905,36.3316,-1.3786,5.2582,
9.787078,0.0417,1.3378,0.0109,0.5356,-0.2870,-0.0905,36.3316,-1.3786,5.2582,
9.816255,0.0417,1.3378,0.0109,0.5356,-0.2870,-0.0905,36.2584,-1.1468,4.5018,
9.841408,0.0417,1.3378,0.0109,0.5356,-0.2870,-0.0905,36.2584,-1.1468,4.5018,
9.845152,0.0417,1.3378,0.0109,0.5356,-0.2870,-0.0905,36.2584,-1.1468,4.5018,
9.847886,0.0417,1.3378,0.0109,0.5356,-0.2870,-0.0905,36.2584,-1.1468,4.5018,
9.849507,0.0417,1.3378,0.0109,0.5356,-0.2870,-0.0905,36.2584,-1.1468,4.5018,
9.851196,0.0417,1.3378,0.0109,0.5048,-0.0048,-0.0502,36.2584,-1.1468,4.5018,
9.856172,0.4805,0.7390,-0.2046,0.5048,-0.0048,-0.0502,36.2584,-1.1468,4.5018,
9.877296,0.4805,0.7390,-0.2046,0.5048,-0.0048,-0.0502,36.1852,-0.9516,3.8064,
9.907845,0.4805,0.7390,-0.2046,0.5048,-0.0048,-0.0502,36.1852,-0.9516,3.8064,
9.911395,0.4805,0.7390,-0.2046,0.5048,-0.0048,-0.0502,36.1852,-0.9516,3.8064,
9.914332,0.4805,0.7390,-0.2046,0.5048,-0.0048,-0.0502,36.1852,-0.9516,3.8064,
9.918245,0.4805,0.7390,-0.2046,0.3637,0.1233,0.0296,36.1852,-0.9516,3.8064,
9.927029,0.3439,0.3161,-0.0968,0.3637,0.1233,0.0296,36.1852,-0.9516,3.8064,
9.935491,0.3439,0.3161,-0.0968,0.3637,0.1233,0.0296,36.1486,-0.7686,3.1842,
9.975457,0.3439,0.3161,-0.0968,0.3637,0.1233,0.0296,36.1486,-0.7686,3.1842,
9.979276,0.3439,0.3161,-0.0968,0.3637,0.1233,0.0296,36.1486,-0.7686,3.1842,
9.981417,0.3439,0.3161,-0.0968,0.3637,0.1233,0.0296,36.1486,-0.7686,3.1842,
9.987208,0.3439,0.3161,-0.0968,0.1957,0.1282,0.0738,36.1486,-0.7686,3.1842,
9.996797,0.3439,0.3161,-0.0968,0.1957,0.1282,0.0738,36.0632,-0.5856,2.5986,
9.999483,0.3645,-0.0121,-0.0667,0.1957,0.1282,0.0738,36.0632,-0.5856,2.5986,
10.040134,0.3645,-0.0121,-0.0667,0.1957,0.1282,0.0738,36.0632,-0.5856,2.5986,
10.042777,0.3645,-0.0121,-0.0667,0.1957,0.1282,0.0738,36.0632,-0.5856,2.5986,
10.044861,0.3645,-0.0121,-0.0667,0.1957,0.1282,0.0738,36.0632,-0.5856,2.5986,
10.047157,0.3645,-0.0121,-0.0667,0.1957,0.1282,0.0738,36.0632,-0.5856,2.5986,
10.055532,0.3645,-0.0121,-0.0667,0.2571,0.2364,0.0511,36.0632,-0.5856,2.5986,
10.056890,0.3645,-0.0121,-0.0667,0.2571,0.2364,0.0511,36.0266,-0.4880,2.1594,
10.065577,-0.2098,-0.2889,-0.0665,0.2571,0.2364,0.0511,36.0266,-0.4880,2.1594,
10.107309,-0.2098,-0.2889,-0.0665,0.2571,0.2364,0.0511,36.0266,-0.4880,2.1594,
10.110242,-0.2098,-0.2889,-0.0665,0.2571,0.2364,0.0511,36.0266,-0.4880,2.1594,
10.112497,-0.2098,-0.2889,-0.0665,0.2571,0.2364,0.0511,36.0266,-0.4880,2.1594,
10.115325,-0.2098,-0.2889,-0.0665,0.2571,0.2364,0.0511,36.0144,-0.4880,1.8788,
10.125122,-0.2098,-0.2889,-0.0665,0.1840,0.1321,0.0426,36.0144,-0.4880,1.8788,
10.136037,0.1616,-0.2177,-0.2964,0.1840,0.1321,0.0426,36.0144,-0.4880,1.8788,
10.176986,0.1616,-0.2177,-0.2964,0.1840,0.1321,0.0426,36.0144,-0.4880,1.8788,
10.178161,0.1616,-0.2177,-0.2964,0.1840,0.1321,0.0426,36.0144,-0.4880,1.8788,
10.178771,0.1616,-0.2177,-0.2964,0.1840,0.1321,0.0426,36.0144,-0.4880,1.8788,
10.179548,0.1616,-0.2177,-0.2964,0.1840,0.1321,0.0426,36.0144,-0.4880,1.8788,
10.180149,0.1616,-0.2177,-0.2964,0.1840,0.1321,0.0426,36.0266,-0.4514,1.6592,
10.198061,0.1616,-0.2177,-0.2964,0.0788,-0.1091,0.0811,36.0266,-0.4514,1.6592,
10.212794,-0.3158,-0.2878,-0.4006,0.0788,-0.1091,0.0811,36.0266,-0.4514,1.6592,
10.235426,-0.3158,-0.2878,-0.4006,0.0788,-0.1091,0.0811,36.0266,-0.4636,1.5250,
10.238918,-0.3158,-0.2878,-0.4006,0.0788,-0.1091,0.0811,36.0266,-0.4636,1.5250,
10.240641,-0.3158,-0.2878,-0.4006,0.0788,-0.1091,0.0811,36.0266,-0.4636,1.5250,
10.242227,-0.3158,-0.2878,-0.4006,0.0788,-0.1091,0.0811,36.0266,-0.4636,1.5250,
10.266104,-0.3158,-0.2878,-0.4006,0.0478,-0.0900,-0.0370,36.0266,-0.4636,1.5250,
10.279226,0.1898,-0.0388,-0.1665,0.0478,-0.0900,-0.0370,36.0266,-0.4636,1.5250,
10.306445,0.1898,-0.0388,-0.1665,0.0478,-0.0900,-0.0370,36.0266,-0.5246,1.5372,
10.310577,0.1898,-0.0388,-0.1665,0.0478,-0.0900,-0.0370,36.0266,-0.5246,1.5372,
10.313620,0.1898,-0.0388,-0.1665,0.0478,-0.0900,-0.0370,36.0266,-0.5246,1.5372,
10.316658,0.1898,-0.0388,-0.1665,0.0478,-0.0900,-0.0370,36.0266,-0.5246,1.5372,
10.335895,0.1898,-0.0388,-0.1665,-0.0718,-0.0386,-0.0100,36.0266,-0.5246,1.5372,
10.349058,0.0002,-0.1142,0.1562,-0.0718,-0.0386,-0.0100,36.0266,-0.5246,1.5372,
10.363863,0.0002,-0.1142,0.1562,-0.0718,-0.0386,-0.0100,36.0632,-0.5734,1.5006,
10.376571,0.0002,-0.1142,0.1562,-0.0718,-0.0386,-0.0100,36.0632,-0.5734,1.5006,
10.381244,0.0002,-0.1142,0.1562,-0.0718,-0.0386,-0.0100,36.0632,-0.5734,1.5006,
10.384936,0.0002,-0.1142,0.1562,-0.0718,-0.0386,-0.0100,36.0632,-0.5734,1.5006,
10.387808,0.0002,-0.1142,0.1562,-0.0718,-0.0386,-0.0100,36.0632,-0.5734,1.5006,
10.405490,0.0002,-0.1142,0.1562,0.0977,0.1029,0.0001,36.0632,-0.5734,1.5006,
10.413748,0.1246,-0.7037,-0.0494,0.0977,0.1029,0.0001,36.0632,-0.5734,1.5006,
10.425174,0.1246,-0.7037,-0.0494,0.0977,0.1029,0.0001,36.0388,-0.6466,1.4884,
10.441181,0.1246,-0.7037,-0.0494,0.0977,0.1029,0.0001,36.0388,-0.6466,1.4884,
10.442370,0.1246,-0.7037,-0.0494,0.0977,0.1029,0.0001,36.0388,-0.6466,1.4884,
10.443079,0.1246,-0.7037,-0.0494,0.0977,0.1029,0.0001,36.0388,-0.6466,1.4884,
10.475345,0.1246,-0.7037,-0.0494,0.0129,0.1901,0.0317,36.0388,-0.6466,1.4884,
10.487366,0.1246,-0.7037,-0.0494,0.0129,0.1901,0.0317,36.0876,-0.6832,1.4762,
10.490711,0.0174,-0.1711,0.2001,0.0129,0.1901,0.0317,36.0876,-0.6832,1.4762,
10.507842,0.0174,-0.1711,0.2001,0.0129,0.1901,0.0317,36.0876,-0.6832,1.4762,
10.510388,0.0174,-0.1711,0.2001,0.0129,0.1901,0.0317,36.0876,-0.6832,1.4762,
10.512857,0.0174,-0.1711,0.2001,0.0129,0.1901,0.0317,36.0876,-0.6832,1.4762,
10.545172,0.0174,-0.1711,0.2001,0.0129,0.1901,0.0317,36.1120,-0.7320,1.5128,
10.548538,0.0174,-0.1711,0.2001,0.0360,0.1534,-0.0226,36.1120,-0.7320,1.5128,
10.557909,0.0485,-0.2850,-0.0204,0.0360,0.1534,-0.0226,36.1120,-0.7320,1.5128,
10.573001,0.0485,-0.2850,-0.0204,0.0360,0.1534,-0.0226,36.1120,-0.7320,1.5128,
10.575678,0.0485,-0.2850,-0.0204,0.0360,0.1534,-0.0226,36.1120,-0.7320,1.5128,
10.577593,0.0485,-0.2850,-0.0204,0.0360,0.1534,-0.0226,36.1120,-0.7320,1.5128,
10.579936,0.0485,-0.2850,-0.0204,0.0360,0.1534,-0.0226,36.1120,-0.7320,1.5128,
10.604838,0.0485,-0.2850,-0.0204,0.0360,0.1534,-0.0226,36.1120,-0.7320,1.5494,
10.614583,0.0485,-0.2850,-0.0204,0.0181,0.1710,-0.0435,36.1120,-0.7320,1.5494,
10.624837,-0.3465,-0.0584,-0.0458,0.0181,0.1710,-0.0435,36.1120,-0.7320,1.5494,
10.641004,-0.3465,-0.0584,-0.0458,0.0181,0.1710,-0.0435,36.1120,-0.7320,1.5494,
10.644415,-0.3465,-0.0584,-0.0458,0.0181,0.1710,-0.0435,36.1120,-0.7320,1.5494,
10.647397,-0.3465,-0.0584,-0.0458,0.0181,0.1710,-0.0435,36.1120,-0.7320,1.5494,
10.663449,-0.3465,-0.0584,-0.0458,0.0181,0.1710,-0.0435,36.0632,-0.7686,1.7568,
10.684900,-0.3465,-0.0584,-0.0458,-0.0025,0.0969,-0.0301,36.0632,-0.7686,1.7568,
10.694150,-0.1179,-0.3642,0.1113,-0.0025,0.0969,-0.0301,36.0632,-0.7686,1.7568,
10.707875,-0.1179,-0.3642,0.1113,-0.0025,0.0969,-0.0301,36.0632,-0.7686,1.7568,
10.711117,-0.1179,-0.3642,0.1113,-0.0025,0.0969,-0.0301,36.0632,-0.7686,1.7568,
10.714047,-0.1179,-0.3642,0.1113,-0.0025,0.0969,-0.0301,36.0632,-0.7686,1.7568,
10.724485,-0.1179,-0.3642,0.1113,-0.0025,0.0969,-0.0301,36.0266,-0.7442,2.0008,
10.754051,-0.1179,-0.3642,0.1113,-0.0455,0.1121,-0.0028,36.0266,-0.7442,2.0008,
10.765796,0.0162,-0.0787,0.1445,-0.0455,0.1121,-0.0028,36.0266,-0.7442,2.0008,
10.773442,0.0162,-0.0787,0.1445,-0.0455,0.1121,-0.0028,36.0266,-0.7442,2.0008,
10.776538,0.0162,-0.0787,0.1445,-0.0455,0.1121,-0.0028,36.0266,-0.7442,2.0008,
10.779532,0.0162,-0.0787,0.1445,-0.0455,0.1121,-0.0028,36.0266,-0.7442,2.0008,
10.782487,0.0162,-0.0787,0.1445,-0.0455,0.1121,-0.0028,36.0266,-0.7442,2.0008,
10.784608,0.0162,-0.0787,0.1445,-0.0455,0.1121,-0.0028,36.0022,-0.7442,2.2814,
10.824519,0.0162,-0.0787,0.1445,-0.0590,0.0660,-0.0278,36.0022,-0.7442,2.2814,
10.834019,0.1469,-0.2891,0.2508,-0.0590,0.0660,-0.0278,36.0022,-0.7442,2.2814,
10.839940,0.1469,-0.2891,0.2508,-0.0590,0.0660,-0.0278,36.0022,-0.7442,2.2814,
10.843609,0.1469,-0.2891,0.2508,-0.0590,0.0660,-0.0278,36.0022,-0.7442,2.2814,
10.846041,0.1469,-0.2891,0.2508,-0.0590,0.0660,-0.0278,36.0022,-0.7442,2.2814,
10.848824,0.1469,-0.2891,0.2508,-0.0590,0.0660,-0.0278,35.9290,-0.7442,2.6108,
10.893867,0.1469,-0.2891,0.2508,-0.0224,0.0274,-0.0324,35.9290,-0.7442,2.6108,
10.904028,-0.1855,-0.1542,-0.0243,-0.0224,0.0274,-0.0324,35.9290,-0.7442,2.6108,
10.908174,-0.1855,-0.1542,-0.0243,-0.0224,0.0274,-0.0324,35.8436,-0.6588,2.9158,
10.911384,-0.1855,-0.1542,-0.0243,-0.0224,0.0274,-0.0324,35.8436,-0.6588,2.9158,
10.914179,-0.1855,-0.1542,-0.0243,-0.0224,0.0274,-0.0324,35.8436,-0.6588,2.9158,
10.916432,-0.1855,-0.1542,-0.0243,-0.0224,0.0274,-0.0324,35.8436,-0.6588,2.9158,
10.964199,-0.1855,-0.1542,-0.0243,-0.0224,0.0274,-0.0324,35.7460,-0.6100,3.1598,
10.968391,-0.1855,-0.1542,-0.0243,-0.0586,0.0138,-0.0012,35.7460,-0.6100,3.1598,
10.971607,0.1905,-0.0167,0.1216,-0.0586,0.0138,-0.0012,35.7460,-0.6100,3.1598,
10.975157,0.1905,-0.0167,0.1216,-0.0586,0.0138,-0.0012,35.7460,-0.6100,3.1598,
10.976746,0.1905,-0.0167,0.1216,-0.0586,0.0138,-0.0012,35.7460,-0.6100,3.1598,
10.978297,0.1905,-0.0167,0.1216,-0.0586,0.0138,-0.0012,35.7460,-0.6100,3.1598,
10.979920,0.1905,-0.0167,0.1216,-0.0586,0.0138,-0.0012,35.7460,-0.6100,3.1598,
11.024622,0.1905,-0.0167,0.1216,-0.0586,0.0138,-0.0012,35.6850,-0.5612,3.4160,
11.034624,0.1905,-0.0167,0.1216,0.0376,0.0490,-0.0200,35.6850,-0.5612,3.4160,
11.040138,0.1905,-0.0167,0.1216,0.0376,0.0490,-0.0200,35.6850,-0.5612,3.4160,
11.043318,0.1905,-0.0167,0.1216,0.0376,0.0490,-0.0200,35.6850,-0.5612,3.4160,
11.045727,0.1905,-0.0167,0.1216,0.0376,0.0490,-0.0200,35.6850,-0.5612,3.4160,
11.048429,-0.1172,-0.3282,0.0870,0.0376,0.0490,-0.0200,35.6850,-0.5612,3.4160,
11.083378,-0.1172,-0.3282,0.0870,0.0376,0.0490,-0.0200,35.5752,-0.4758,3.6722,
11.103657,-0.1172,-0.3282,0.0870,0.0766,0.0915,-0.0838,35.5752,-0.4758,3.6722,
11.110333,-0.1172,-0.3282,0.0870,0.0766,0.0915,-0.0838,35.5752,-0.4758,3.6722,
11.113317,-0.1172,-0.3282,0.0870,0.0766,0.0915,-0.0838,35.5752,-0.4758,3.6722,
11.116272,-0.1172,-0.3282,0.0870,0.0766,0.0915,-0.0838,35.5752,-0.4758,3.6722,
11.118734,0.0840,-0.1307,0.0446,0.0766,0.0915,-0.0838,35.5752,-0.4758,3.6722,
11.142778,0.0840,-0.1307,0.0446,0.0766,0.0915,-0.0838,35.5508,-0.4148,3.8552,
11.172603,0.0840,-0.1307,0.0446,0.1666,-0.0079,-0.0999,35.5508,-0.4148,3.8552,
11.174665,0.0840,-0.1307,0.0446,0.1666,-0.0079,-0.0999,35.5508,-0.4148,3.8552,
11.175876,0.0840,-0.1307,0.0446,0.1666,-0.0079,-0.0999,35.5508,-0.4148,3.8552,
11.176866,0.0840,-0.1307,0.0446,0.1666,-0.0079,-0.0999,35.5508,-0.4148,3.8552,
11.177857,0.0840,-0.1307,0.0446,0.1666,-0.0079,-0.0999,35.5508,-0.4148,3.8552,
11.182341,-0.2271,-0.0684,0.0152,0.1666,-0.0079,-0.0999,35.5508,-0.4148,3.8552,
11.202417,-0.2271,-0.0684,0.0152,0.1666,-0.0079,-0.0999,35.5020,-0.3538,4.0382,
11.243074,-0.2271,-0.0684,0.0152,-0.0667,-0.1240,-0.0818,35.5020,-0.3538,4.0382,
11.246636,-0.2271,-0.0684,0.0152,-0.0667,-0.1240,-0.0818,35.5020,-0.3538,4.0382,
11.249286,-0.2271,-0.0684,0.0152,-0.0667,-0.1240,-0.0818,35.5020,-0.3538,4.0382,
11.252115,-0.2271,-0.0684,0.0152,-0.0667,-0.1240,-0.0818,35.5020,-0.3538,4.0382,
11.253735,-0.3461,-0.0448,-0.1121,-0.0667,-0.1240,-0.0818,35.5020,-0.3538,4.0382,
11.261073,-0.3461,-0.0448,-0.1121,-0.0667,-0.1240,-0.0818,35.4410,-0.2440,4.1114,
