
time,ax,ay,az,wx,wy,wz,Bx,By,Bz,
0.040978,0.0000,0.0000,0.0000,0.0000,0.0000,0.0000,0.0000,0.0000,0.0000,
0.053376,0.0000,0.0000,0.0000,0.0000,0.0000,0.0000,0.0000,0.0000,0.0000,
0.083833,0.0000,0.0000,0.0000,0.0000,0.0000,0.0000,42.2364,8.3936,19.2028,
0.084966,0.0000,0.0000,0.0000,-0.0893,-0.1063,-0.0955,42.2364,8.3936,19.2028,
0.101717,0.0000,0.0000,0.0000,-0.0893,-0.1063,-0.0955,42.2364,8.3936,19.2028,
0.102981,0.0000,0.0000,0.0000,-0.0893,-0.1063,-0.0955,42.2364,8.3936,19.2028,
0.143231,0.0000,0.0000,0.0000,-0.0893,-0.1063,-0.0955,42.1754,8.3570,19.1906,
0.154212,0.0000,0.0000,0.0000,0.0562,-0.2144,-0.0487,42.1754,8.3570,19.1906,
0.164015,0.0000,0.0000,0.0000,0.0562,-0.2144,-0.0487,42.1754,8.3570,19.1906,
0.168193,0.0000,0.0000,0.0000,0.0562,-0.2144,-0.0487,42.1754,8.3570,19.1906,
0.169115,0.0000,0.0000,0.0000,0.0562,-0.2144,-0.0487,42.1754,8.3570,19.1906,
0.169890,0.0000,0.0000,0.0000,0.0562,-0.2144,-0.0487,42.1754,8.3570,19.1906,
0.203211,0.0000,0.0000,0.0000,0.0562,-0.2144,-0.0487,42.2486,8.3570,18.8978,
0.222983,0.0000,0.0000,0.0000,0.0241,-0.2625,-0.0617,42.2486,8.3570,18.8978,
0.231880,-0.1832,0.1293,-0.0451,0.0241,-0.2625,-0.0617,42.2486,8.3570,18.8978,
0.234631,-0.1832,0.1293,-0.0451,0.0241,-0.2625,-0.0617,42.2486,8.3570,18.8978,
0.235436,-0.1832,0.1293,-0.0451,0.0241,-0.2625,-0.0617,42.2486,8.3570,18.8978,
0.236174,-0.1832,0.1293,-0.0451,0.0241,-0.2625,-0.0617,42.2486,8.3570,18.8978,
0.236911,-0.1832,0.1293,-0.0451,0.0241,-0.2625,-0.0617,42.2486,8.3570,18.8978,
0.264309,-0.1832,0.1293,-0.0451,0.0241,-0.2625,-0.0617,42.3462,8.4668,18.5196,
0.294695,-0.1832,0.1293,-0.0451,0.0306,-0.2100,0.0125,42.3462,8.4668,18.5196,
0.302770,-0.3256,-0.1681,-0.1126,0.0306,-0.2100,0.0125,42.3462,8.4668,18.5196,
0.303828,-0.3256,-0.1681,-0.1126,0.0306,-0.2100,0.0125,42.3462,8.4668,18.5196,
0.304537,-0.3256,-0.1681,-0.1126,0.0306,-0.2100,0.0125,42.3462,8.4668,18.5196,
0.305151,-0.3256,-0.1681,-0.1126,0.0306,-0.2100,0.0125,42.3462,8.4668,18.5196,
0.322533,-0.3256,-0.1681,-0.1126,0.0306,-0.2100,0.0125,42.4438,8.5034,18.2512,
0.364721,-0.3256,-0.1681,-0.1126,0.0321,-0.1526,0.0819,42.4438,8.5034,18.2512,
0.368194,-0.3256,-0.1681,-0.1126,0.0321,-0.1526,0.0819,42.4438,8.5034,18.2512,
0.368949,-0.3256,-0.1681,-0.1126,0.0321,-0.1526,0.0819,42.4438,8.5034,18.2512,
0.369584,-0.3256,-0.1681,-0.1126,0.0321,-0.1526,0.0819,42.4438,8.5034,18.2512,
0.370874,0.0685,-0.1209,-0.0460,0.0321,-0.1526,0.0819,42.4438,8.5034,18.2512,
0.382220,0.0685,-0.1209,-0.0460,0.0321,-0.1526,0.0819,42.5780,8.5400,18.0438,
0.433237,0.0685,-0.1209,-0.0460,-0.0067,0.0487,-0.0892,42.5780,8.5400,18.0438,
0.434880,0.0685,-0.1209,-0.0460,-0.0067,0.0487,-0.0892,42.6878,8.5644,17.8364,
0.436004,0.0685,-0.1209,-0.0460,-0.0067,0.0487,-0.0892,42.6878,8.5644,17.8364,
0.436792,0.0685,-0.1209,-0.0460,-0.0067,0.0487,-0.0892,42.6878,8.5644,17.8364,
0.437583,0.0685,-0.1209,-0.0460,-0.0067,0.0487,-0.0892,42.6878,8.5644,17.8364,
0.438464,0.0685,-0.1209,-0.0460,-0.0067,0.0487,-0.0892,42.6878,8.5644,17.8364,
0.443981,0.0713,0.2272,0.0912,-0.0067,0.0487,-0.0892,42.6878,8.5644,17.8364,
0.503065,0.0713,0.2272,0.0912,-0.0067,0.0487,-0.0892,42.6878,8.6254,17.7876,
0.504717,0.0713,0.2272,0.0912,-0.0067,0.0487,-0.0892,42.6878,8.6254,17.7876,
0.505541,0.0713,0.2272,0.0912,-0.0067,0.0487,-0.0892,42.6878,8.6254,17.7876,
0.506523,0.0713,0.2272,0.0912,-0.0067,0.0487,-0.0892,42.6878,8.6254,17.7876,
0.507404,0.0713,0.2272,0.0912,-0.0158,0.3103,-0.2772,42.6878,8.6254,17.7876,
0.511598,-0.0134,0.4031,0.0490,-0.0158,0.3103,-0.2772,42.6878,8.6254,17.7876,
0.562694,-0.0134,0.4031,0.0490,-0.0158,0.3103,-0.2772,42.7122,8.8328,17.6534,
0.568596,-0.0134,0.4031,0.0490,-0.0158,0.3103,-0.2772,42.7122,8.8328,17.6534,
0.569519,-0.0134,0.4031,0.0490,-0.0158,0.3103,-0.2772,42.7122,8.8328,17.6534,
0.570347,-0.0134,0.4031,0.0490,-0.0158,0.3103,-0.2772,42.7122,8.8328,17.6534,
0.571139,-0.0134,0.4031,0.0490,-0.0232,0.3678,-0.3218,42.7122,8.8328,17.6534,
0.580885,0.3170,0.0586,-0.2038,-0.0232,0.3678,-0.3218,42.7122,8.8328,17.6534,
0.623126,0.3170,0.0586,-0.2038,-0.0232,0.3678,-0.3218,42.6756,9.0768,17.5924,
0.636606,0.3170,0.0586,-0.2038,-0.0232,0.3678,-0.3218,42.6756,9.0768,17.5924,
0.637683,0.3170,0.0586,-0.2038,-0.0232,0.3678,-0.3218,42.6756,9.0768,17.5924,
0.638712,0.3170,0.0586,-0.2038,-0.0232,0.3678,-0.3218,42.6756,9.0768,17.5924,
0.639485,0.3170,0.0586,-0.2038,-0.0232,0.3678,-0.3218,42.6756,9.0768,17.5924,
0.641957,0.3170,0.0586,-0.2038,-0.5678,0.0874,-0.0273,42.6756,9.0768,17.5924,
0.652878,0.1871,0.0961,-1.5519,-0.5678,0.0874,-0.0273,42.6756,9.0768,17.5924,
0.681280,0.1871,0.0961,-1.5519,-0.5678,0.0874,-0.0273,42.5780,9.2110,17.7876,
0.703090,0.1871,0.0961,-1.5519,-0.5678,0.0874,-0.0273,42.5780,9.2110,17.7876,
0.704292,0.1871,0.0961,-1.5519,-0.5678,0.0874,-0.0273,42.5780,9.2110,17.7876,
0.705021,0.1871,0.0961,-1.5519,-0.5678,0.0874,-0.0273,42.5780,9.2110,17.7876,
0.711158,0.1871,0.0961,-1.5519,-0.6392,0.2293,0.1615,42.5780,9.2110,17.7876,
0.719772,-0.6388,0.7351,-0.2806,-0.6392,0.2293,0.1615,42.5780,9.2110,17.7876,
0.740685,-0.6388,0.7351,-0.2806,-0.6392,0.2293,0.1615,42.4438,9.1256,18.1658,
0.770628,-0.6388,0.7351,-0.2806,-0.6392,0.2293,0.1615,42.4438,9.1256,18.1658,
0.771702,-0.6388,0.7351,-0.2806,-0.6392,0.2293,0.1615,42.4438,9.1256,18.1658,
0.772325,-0.6388,0.7351,-0.2806,-0.6392,0.2293,0.1615,42.4438,9.1256,18.1658,
0.772942,-0.6388,0.7351,-0.2806,-0.6392,0.2293,0.1615,42.4438,9.1256,18.1658,
0.780809,-0.6388,0.7351,-0.2806,-0.2874,-0.0332,-0.0992,42.4438,9.1256,18.1658,
0.790640,0.5642,0.6989,1.3332,-0.2874,-0.0332,-0.0992,42.4438,9.1256,18.1658,
0.800816,0.5642,0.6989,1.3332,-0.2874,-0.0332,-0.0992,42.2608,9.0524,18.5928,
0.836685,0.5642,0.6989,1.3332,-0.2874,-0.0332,-0.0992,42.2608,9.0524,18.5928,
0.838255,0.5642,0.6989,1.3332,-0.2874,-0.0332,-0.0992,42.2608,9.0524,18.5928,
0.839165,0.5642,0.6989,1.3332,-0.2874,-0.0332,-0.0992,42.2608,9.0524,18.5928,
0.850724,0.5642,0.6989,1.3332,0.1158,-0.0742,-0.1021,42.2608,9.0524,18.5928,
0.860686,0.5642,0.6989,1.3332,0.1158,-0.0742,-0.1021,42.0656,9.0280,19.0198,
0.862031,0.3318,-1.8229,0.7591,0.1158,-0.0742,-0.1021,42.0656,9.0280,19.0198,
0.903501,0.3318,-1.8229,0.7591,0.1158,-0.0742,-0.1021,42.0656,9.0280,19.0198,
0.904656,0.3318,-1.8229,0.7591,0.1158,-0.0742,-0.1021,42.0656,9.0280,19.0198,
0.905414,0.3318,-1.8229,0.7591,0.1158,-0.0742,-0.1021,42.0656,9.0280,19.0198,
0.922558,0.3318,-1.8229,0.7591,0.1158,-0.0742,-0.1021,41.8704,9.0402,19.4346,
0.923906,0.3318,-1.8229,0.7591,0.4590,-0.1802,0.1599,41.8704,9.0402,19.4346,
0.930336,0.5140,-1.2153,0.9063,0.4590,-0.1802,0.1599,41.8704,9.0402,19.4346,
0.970019,0.5140,-1.2153,0.9063,0.4590,-0.1802,0.1599,41.8704,9.0402,19.4346,
0.971188,0.5140,-1.2153,0.9063,0.4590,-0.1802,0.1599,41.8704,9.0402,19.4346,
0.971822,0.5140,-1.2153,0.9063,0.4590,-0.1802,0.1599,41.8704,9.0402,19.4346,
0.972423,0.5140,-1.2153,0.9063,0.4590,-0.1802,0.1599,41.8704,9.0402,19.4346,
0.980101,0.5140,-1.2153,0.9063,0.4590,-0.1802,0.1599,41.7850,9.0036,19.6054,
0.991312,0.5140,-1.2153,0.9063,0.1812,-0.3593,0.1581,41.7850,9.0036,19.6054,
1.001253,0.1697,0.4839,0.4239,0.1812,-0.3593,0.1581,41.7850,9.0036,19.6054,
1.036461,0.1697,0.4839,0.4239,0.1812,-0.3593,0.1581,41.7850,9.0036,19.6054,
1.037545,0.1697,0.4839,0.4239,0.1812,-0.3593,0.1581,41.7850,9.0036,19.6054,
1.038384,0.1697,0.4839,0.4239,0.1812,-0.3593,0.1581,41.7850,9.0036,19.6054,
1.039036,0.1697,0.4839,0.4239,0.1812,-0.3593,0.1581,41.8338,8.7718,19.7152,
1.059937,0.1697,0.4839,0.4239,0.1792,-0.0398,-0.1288,41.8338,8.7718,19.7152,
1.069740,0.4595,0.0565,-0.0417,0.1792,-0.0398,-0.1288,41.8338,8.7718,19.7152,
1.101020,0.4595,0.0565,-0.0417,0.1792,-0.0398,-0.1288,41.9680,8.6010,19.7518,
1.102597,0.4595,0.0565,-0.0417,0.1792,-0.0398,-0.1288,41.9680,8.6010,19.7518,
1.103422,0.4595,0.0565,-0.0417,0.1792,-0.0398,-0.1288,41.9680,8.6010,19.7518,
1.104430,0.4595,0.0565,-0.0417,0.1792,-0.0398,-0.1288,41.9680,8.6010,19.7518,
1.131223,0.4595,0.0565,-0.0417,0.4124,-0.0578,0.0553,41.9680,8.6010,19.7518,
1.139701,0.5114,-0.2373,-0.2755,0.4124,-0.0578,0.0553,41.9680,8.6010,19.7518,
1.159465,0.5114,-0.2373,-0.2755,0.4124,-0.0578,0.0553,42.1266,8.5766,19.4834,
1.169680,0.5114,-0.2373,-0.2755,0.4124,-0.0578,0.0553,42.1266,8.5766,19.4834,
1.170582,0.5114,-0.2373,-0.2755,0.4124,-0.0578,0.0553,42.1266,8.5766,19.4834,
1.171240,0.5114,-0.2373,-0.2755,0.4124,-0.0578,0.0553,42.1266,8.5766,19.4834,
1.171859,0.5114,-0.2373,-0.2755,0.4124,-0.0578,0.0553,42.1266,8.5766,19.4834,
1.199632,0.5114,-0.2373,-0.2755,0.0803,0.0133,-0.0099,42.1266,8.5766,19.4834,
1.210917,0.0803,0.7105,-0.6689,0.0803,0.0133,-0.0099,42.1266,8.5766,19.4834,
1.218166,0.0803,0.7105,-0.6689,0.0803,0.0133,-0.0099,42.2364,8.7596,19.1662,
1.237004,0.0803,0.7105,-0.6689,0.0803,0.0133,-0.0099,42.2364,8.7596,19.1662,
1.237959,0.0803,0.7105,-0.6689,0.0803,0.0133,-0.0099,42.2364,8.7596,19.1662,
1.238745,0.0803,0.7105,-0.6689,0.0803,0.0133,-0.0099,42.2364,8.7596,19.1662,
1.270476,0.0803,0.7105,-0.6689,-0.1282,0.0526,0.0320,42.2364,8.7596,19.1662,
1.280091,0.0803,0.7105,-0.6689,-0.1282,0.0526,0.0320,42.3340,8.9060,18.8612,
1.281274,-0.3013,0.9705,-0.9779,-0.1282,0.0526,0.0320,42.3340,8.9060,18.8612,
1.303175,-0.3013,0.9705,-0.9779,-0.1282,0.0526,0.0320,42.3340,8.9060,18.8612,
1.304143,-0.3013,0.9705,-0.9779,-0.1282,0.0526,0.0320,42.3340,8.9060,18.8612,
1.304806,-0.3013,0.9705,-0.9779,-0.1282,0.0526,0.0320,42.3340,8.9060,18.8612,
1.339319,-0.3013,0.9705,-0.9779,-0.1282,0.0526,0.0320,42.4560,8.9548,18.6050,
1.340922,-0.3013,0.9705,-0.9779,-0.3077,0.0511,0.1055,42.4560,8.9548,18.6050,
1.348702,-0.1788,1.1143,-0.8610,-0.3077,0.0511,0.1055,42.4560,8.9548,18.6050,
1.369673,-0.1788,1.1143,-0.8610,-0.3077,0.0511,0.1055,42.4560,8.9548,18.6050,
1.370786,-0.1788,1.1143,-0.8610,-0.3077,0.0511,0.1055,42.4560,8.9548,18.6050,
1.371430,-0.1788,1.1143,-0.8610,-0.3077,0.0511,0.1055,42.4560,8.9548,18.6050,
1.372080,-0.1788,1.1143,-0.8610,-0.3077,0.0511,0.1055,42.4560,8.9548,18.6050,
1.398868,-0.1788,1.1143,-0.8610,-0.3077,0.0511,0.1055,42.4926,8.8572,18.4708,
1.410262,-0.1788,1.1143,-0.8610,-0.3601,0.0728,0.0631,42.4926,8.8572,18.4708,
1.420180,-0.1316,1.0654,-0.4190,-0.3601,0.0728,0.0631,42.4926,8.8572,18.4708,
1.437906,-0.1316,1.0654,-0.4190,-0.3601,0.0728,0.0631,42.4926,8.8572,18.4708,
1.438903,-0.1316,1.0654,-0.4190,-0.3601,0.0728,0.0631,42.4926,8.8572,18.4708,
1.439537,-0.1316,1.0654,-0.4190,-0.3601,0.0728,0.0631,42.4926,8.8572,18.4708,
1.459799,-0.1316,1.0654,-0.4190,-0.3601,0.0728,0.0631,42.5048,8.7108,18.5074,
1.480700,-0.1316,1.0654,-0.4190,-0.1864,0.0019,-0.0382,42.5048,8.7108,18.5074,
1.490352,0.0787,0.4081,0.0570,-0.1864,0.0019,-0.0382,42.5048,8.7108,18.5074,
1.502989,0.0787,0.4081,0.0570,-0.1864,0.0019,-0.0382,42.5048,8.7108,18.5074,
1.504162,0.0787,0.4081,0.0570,-0.1864,0.0019,-0.0382,42.5048,8.7108,18.5074,
1.505372,0.0787,0.4081,0.0570,-0.1864,0.0019,-0.0382,42.5048,8.7108,18.5074,
1.517679,0.0787,0.4081,0.0570,-0.1864,0.0019,-0.0382,42.4682,8.6498,18.5562,
1.546284,0.0787,0.4081,0.0570,-0.0028,-0.0603,-0.0778,42.4682,8.6498,18.5562,
1.556301,-0.2972,0.6578,0.5903,-0.0028,-0.0603,-0.0778,42.4682,8.6498,18.5562,
1.568112,-0.2972,0.6578,0.5903,-0.0028,-0.0603,-0.0778,42.4682,8.6498,18.5562,
1.568627,-0.2972,0.6578,0.5903,-0.0028,-0.0603,-0.0778,42.4682,8.6498,18.5562,
1.568927,-0.2972,0.6578,0.5903,-0.0028,-0.0603,-0.0778,42.4682,8.6498,18.5562,
1.569211,-0.2972,0.6578,0.5903,-0.0028,-0.0603,-0.0778,42.4682,8.6498,18.5562,
1.576015,-0.2972,0.6578,0.5903,-0.0028,-0.0603,-0.0778,42.4926,8.4058,18.7514,
1.617120,-0.2972,0.6578,0.5903,0.5296,-0.1023,-0.1146,42.4926,8.4058,18.7514,
1.627810,-0.2288,1.2923,1.2286,0.5296,-0.1023,-0.1146,42.4926,8.4058,18.7514,
1.637474,-0.2288,1.2923,1.2286,0.5296,-0.1023,-0.1146,42.4560,8.2472,18.9832,
1.639008,-0.2288,1.2923,1.2286,0.5296,-0.1023,-0.1146,42.4560,8.2472,18.9832,
1.639818,-0.2288,1.2923,1.2286,0.5296,-0.1023,-0.1146,42.4560,8.2472,18.9832,
1.640563,-0.2288,1.2923,1.2286,0.5296,-0.1023,-0.1146,42.4560,8.2472,18.9832,
1.688015,-0.2288,1.2923,1.2286,0.7040,-0.0334,-0.1495,42.4560,8.2472,18.9832,
1.696562,-0.2288,1.2923,1.2286,0.7040,-0.0334,-0.1495,42.4438,8.2228,19.0442,
1.697658,0.0768,1.4135,0.7824,0.7040,-0.0334,-0.1495,42.4438,8.2228,19.0442,
1.701195,0.0768,1.4135,0.7824,0.7040,-0.0334,-0.1495,42.4438,8.2228,19.0442,
1.701958,0.0768,1.4135,0.7824,0.7040,-0.0334,-0.1495,42.4438,8.2228,19.0442,
1.702725,0.0768,1.4135,0.7824,0.7040,-0.0334,-0.1495,42.4438,8.2228,19.0442,
1.759682,0.0768,1.4135,0.7824,1.0192,-0.0878,-0.1407,42.4438,8.2228,19.0442,
1.761352,0.0768,1.4135,0.7824,1.0192,-0.0878,-0.1407,42.4804,8.3570,19.0686,
1.767259,0.1690,1.0967,0.1297,1.0192,-0.0878,-0.1407,42.4804,8.3570,19.0686,
1.768490,0.1690,1.0967,0.1297,1.0192,-0.0878,-0.1407,42.4804,8.3570,19.0686,
1.769310,0.1690,1.0967,0.1297,1.0192,-0.0878,-0.1407,42.4804,8.3570,19.0686,
1.770148,0.1690,1.0967,0.1297,1.0192,-0.0878,-0.1407,42.4804,8.3570,19.0686,
1.770980,0.1690,1.0967,0.1297,1.0192,-0.0878,-0.1407,42.4804,8.3570,19.0686,
1.817563,0.1690,1.0967,0.1297,1.0192,-0.0878,-0.1407,42.4438,8.6742,19.0442,
1.828308,0.1690,1.0967,0.1297,0.9493,-0.0583,-0.1388,42.4438,8.6742,19.0442,
1.837173,-0.0811,0.9701,-0.7116,0.9493,-0.0583,-0.1388,42.4438,8.6742,19.0442,
1.838761,-0.0811,0.9701,-0.7116,0.9493,-0.0583,-0.1388,42.4438,8.6742,19.0442,
1.839603,-0.0811,0.9701,-0.7116,0.9493,-0.0583,-0.1388,42.4438,8.6742,19.0442,
1.840374,-0.0811,0.9701,-0.7116,0.9493,-0.0583,-0.1388,42.4438,8.6742,19.0442,
1.878782,-0.0811,0.9701,-0.7116,0.9493,-0.0583,-0.1388,42.4682,9.3086,18.8856,
1.897527,-0.0811,0.9701,-0.7116,1.2055,0.0005,-0.1088,42.4682,9.3086,18.8856,
1.901548,-0.0811,0.9701,-0.7116,1.2055,0.0005,-0.1088,42.4682,9.3086,18.8856,
1.902340,-0.0811,0.9701,-0.7116,1.2055,0.0005,-0.1088,42.4682,9.3086,18.8856,
1.902987,-0.0811,0.9701,-0.7116,1.2055,0.0005,-0.1088,42.4682,9.3086,18.8856,
1.906974,0.4082,0.4759,-0.3859,1.2055,0.0005,-0.1088,42.4682,9.3086,18.8856,
1.938686,0.4082,0.4759,-0.3859,1.2055,0.0005,-0.1088,42.4804,10.1992,18.6050,
1.967057,0.4082,0.4759,-0.3859,1.7449,-0.2657,0.1446,42.4804,10.1992,18.6050,
1.968496,0.4082,0.4759,-0.3859,1.7449,-0.2657,0.1446,42.4804,10.1992,18.6050,
1.969196,0.4082,0.4759,-0.3859,1.7449,-0.2657,0.1446,42.4804,10.1992,18.6050,
1.969804,0.4082,0.4759,-0.3859,1.7449,-0.2657,0.1446,42.4804,10.1992,18.6050,
1.970739,0.4082,0.4759,-0.3859,1.7449,-0.2657,0.1446,42.4804,10.1992,18.6050,
1.976179,0.4158,-0.5818,-0.8008,1.7449,-0.2657,0.1446,42.4804,10.1992,18.6050,
2.005447,0.4158,-0.5818,-0.8008,1.7449,-0.2657,0.1446,42.5292,11.2606,18.0926,
2.035910,0.4158,-0.5818,-0.8008,2.5428,-0.3414,0.3384,42.5292,11.2606,18.0926,
2.037266,0.4158,-0.5818,-0.8008,2.5428,-0.3414,0.3384,42.5292,11.2606,18.0926,
2.037952,0.4158,-0.5818,-0.8008,2.5428,-0.3414,0.3384,42.5292,11.2606,18.0926,
2.038700,0.4158,-0.5818,-0.8008,2.5428,-0.3414,0.3384,42.5292,11.2606,18.0926,
2.045237,-0.4579,-1.3559,-0.3485,2.5428,-0.3414,0.3384,42.5292,11.2606,18.0926,
2.065285,-0.4579,-1.3559,-0.3485,2.5428,-0.3414,0.3384,42.6390,12.5660,17.1776,
2.103171,-0.4579,-1.3559,-0.3485,2.5428,-0.3414,0.3384,42.6390,12.5660,17.1776,
2.105898,-0.4579,-1.3559,-0.3485,2.5428,-0.3414,0.3384,42.6390,12.5660,17.1776,
2.108134,-0.4579,-1.3559,-0.3485,2.5428,-0.3414,0.3384,42.6390,12.5660,17.1776,
2.111538,-0.4579,-1.3559,-0.3485,3.6135,-0.6483,0.1627,42.6390,12.5660,17.1776,
2.116260,0.0919,-2.6258,-0.7034,3.6135,-0.6483,0.1627,42.6390,12.5660,17.1776,
2.125193,0.0919,-2.6258,-0.7034,3.6135,-0.6483,0.1627,42.8708,13.9568,15.7868,
2.169194,0.0919,-2.6258,-0.7034,3.6135,-0.6483,0.1627,42.8708,13.9568,15.7868,
2.171503,0.0919,-2.6258,-0.7034,3.6135,-0.6483,0.1627,42.8708,13.9568,15.7868,
2.173593,0.0919,-2.6258,-0.7034,3.6135,-0.6483,0.1627,42.8708,13.9568,15.7868,
2.175828,0.0919,-2.6258,-0.7034,3.6135,-0.6483,0.1627,42.8708,13.9568,15.7868,
2.178219,0.0919,-2.6258,-0.7034,4.9660,-0.5724,0.0997,42.8708,13.9568,15.7868,
2.191149,-0.2770,-1.7528,-2.7305,4.9660,-0.5724,0.0997,42.8708,13.9568,15.7868,
2.194959,-0.2770,-1.7528,-2.7305,4.9660,-0.5724,0.0997,43.2490,15.3110,13.7860,
2.237401,-0.2770,-1.7528,-2.7305,4.9660,-0.5724,0.0997,43.2490,15.3110,13.7860,
2.240499,-0.2770,-1.7528,-2.7305,4.9660,-0.5724,0.0997,43.2490,15.3110,13.7860,
2.242984,-0.2770,-1.7528,-2.7305,4.9660,-0.5724,0.0997,43.2490,15.3110,13.7860,
2.249073,-0.2770,-1.7528,-2.7305,4.9660,-0.5724,0.0997,43.5906,16.3480,11.3216,
2.251914,-0.2770,-1.7528,-2.7305,2.5275,-0.4035,0.2313,43.5906,16.3480,11.3216,
2.257845,-0.3386,-18.1189,9.6648,2.5275,-0.4035,0.2313,43.5906,16.3480,11.3216,
2.304452,-0.3386,-18.1189,9.6648,2.5275,-0.4035,0.2313,43.8590,16.8604,8.4058,
2.308194,-0.3386,-18.1189,9.6648,2.5275,-0.4035,0.2313,43.8590,16.8604,8.4058,
2.310527,-0.3386,-18.1189,9.6648,2.5275,-0.4035,0.2313,43.8590,16.8604,8.4058,
2.312765,-0.3386,-18.1189,9.6648,2.5275,-0.4035,0.2313,43.8590,16.8604,8.4058,
2.317510,-0.3386,-18.1189,9.6648,3.9925,-0.0466,-0.0430,43.8590,16.8604,8.4058,
2.324388,-0.1878,1.5680,-7.3110,3.9925,-0.0466,-0.0430,43.8590,16.8604,8.4058,
2.364858,-0.1878,1.5680,-7.3110,3.9925,-0.0466,-0.0430,44.1030,16.9946,5.1850,
2.370374,-0.1878,1.5680,-7.3110,3.9925,-0.0466,-0.0430,44.1030,16.9946,5.1850,
2.373110,-0.1878,1.5680,-7.3110,3.9925,-0.0466,-0.0430,44.1030,16.9946,5.1850,
2.375634,-0.1878,1.5680,-7.3110,3.9925,-0.0466,-0.0430,44.1030,16.9946,5.1850,
2.378496,-0.1878,1.5680,-7.3110,3.9925,-0.0466,-0.0430,44.1030,16.9946,5.1850,
2.385924,-0.1878,1.5680,-7.3110,3.2420,-0.5424,-0.0405,44.1030,16.9946,5.1850,
2.395178,0.7419,2.1738,-1.4302,3.2420,-0.5424,-0.0405,44.1030,16.9946,5.1850,
2.426250,0.7419,2.1738,-1.4302,3.2420,-0.5424,-0.0405,44.3104,16.4334,1.7812,
2.437232,0.7419,2.1738,-1.4302,3.2420,-0.5424,-0.0405,44.3104,16.4334,1.7812,
2.440389,0.7419,2.1738,-1.4302,3.2420,-0.5424,-0.0405,44.3104,16.4334,1.7812,
2.443122,0.7419,2.1738,-1.4302,3.2420,-0.5424,-0.0405,44.3104,16.4334,1.7812,
2.455515,0.7419,2.1738,-1.4302,-1.1088,-0.0611,-0.3523,44.3104,16.4334,1.7812,
2.467791,0.1431,6.2712,0.4658,-1.1088,-0.0611,-0.3523,44.3104,16.4334,1.7812,
2.486407,0.1431,6.2712,0.4658,-1.1088,-0.0611,-0.3523,44.4202,15.9576,-1.2688,
2.503360,0.1431,6.2712,0.4658,-1.1088,-0.0611,-0.3523,44.4202,15.9576,-1.2688,
2.507246,0.1431,6.2712,0.4658,-1.1088,-0.0611,-0.3523,44.4202,15.9576,-1.2688,
2.510400,0.1431,6.2712,0.4658,-1.1088,-0.0611,-0.3523,44.4202,15.9576,-1.2688,
2.524701,0.1431,6.2712,0.4658,0.2164,-0.1158,0.5795,44.4202,15.9576,-1.2688,
2.533734,0.4355,8.3858,-1.8224,0.2164,-0.1158,0.5795,44.4202,15.9576,-1.2688,
2.545014,0.4355,8.3858,-1.8224,0.2164,-0.1158,0.5795,44.4446,15.3232,-4.1358,
2.569533,0.4355,8.3858,-1.8224,0.2164,-0.1158,0.5795,44.4446,15.3232,-4.1358,
2.572552,0.4355,8.3858,-1.8224,0.2164,-0.1158,0.5795,44.4446,15.3232,-4.1358,
2.574898,0.4355,8.3858,-1.8224,0.2164,-0.1158,0.5795,44.4446,15.3232,-4.1358,
2.576990,0.4355,8.3858,-1.8224,0.2164,-0.1158,0.5795,44.4446,15.3232,-4.1358,
2.595189,0.4355,8.3858,-1.8224,0.2888,0.0760,-0.0274,44.4446,15.3232,-4.1358,
2.603626,0.4355,8.3858,-1.8224,0.2888,0.0760,-0.0274,44.3592,14.2740,-6.4172,
2.606167,-0.5414,-2.4110,-2.1843,0.2888,0.0760,-0.0274,44.3592,14.2740,-6.4172,
2.638152,-0.5414,-2.4110,-2.1843,0.2888,0.0760,-0.0274,44.3592,14.2740,-6.4172,
2.640891,-0.5414,-2.4110,-2.1843,0.2888,0.0760,-0.0274,44.3592,14.2740,-6.4172,
2.643228,-0.5414,-2.4110,-2.1843,0.2888,0.0760,-0.0274,44.3592,14.2740,-6.4172,
2.665025,-0.5414,-2.4110,-2.1843,0.2888,0.0760,-0.0274,44.1518,13.1760,-7.9910,
2.667336,-0.5414,-2.4110,-2.1843,-0.0642,-0.0033,-0.3125,44.1518,13.1760,-7.9910,
2.674296,0.8402,3.5414,0.8707,-0.0642,-0.0033,-0.3125,44.1518,13.1760,-7.9910,
2.703812,0.8402,3.5414,0.8707,-0.0642,-0.0033,-0.3125,44.1518,13.1760,-7.9910,
2.706424,0.8402,3.5414,0.8707,-0.0642,-0.0033,-0.3125,44.1518,13.1760,-7.9910,
2.708522,0.8402,3.5414,0.8707,-0.0642,-0.0033,-0.3125,44.1518,13.1760,-7.9910,
2.710588,0.8402,3.5414,0.8707,-0.0642,-0.0033,-0.3125,44.1518,13.1760,-7.9910,
2.723114,0.8402,3.5414,0.8707,-0.0642,-0.0033,-0.3125,43.9322,12.3098,-9.0768,
2.734095,0.8402,3.5414,0.8707,0.3266,-0.2475,0.1288,43.9322,12.3098,-9.0768,
2.748343,0.2881,1.0057,1.6277,0.3266,-0.2475,0.1288,43.9322,12.3098,-9.0768,
2.770330,0.2881,1.0057,1.6277,0.3266,-0.2475,0.1288,43.9322,12.3098,-9.0768,
2.771349,0.2881,1.0057,1.6277,0.3266,-0.2475,0.1288,43.9322,12.3098,-9.0768,
2.772075,0.2881,1.0057,1.6277,0.3266,-0.2475,0.1288,43.9322,12.3098,-9.0768,
2.784618,0.2881,1.0057,1.6277,0.3266,-0.2475,0.1288,43.7980,11.7730,-9.8210,
2.804590,0.2881,1.0057,1.6277,0.0597,0.0582,-0.0047,43.7980,11.7730,-9.8210,
2.816145,-0.3249,1.5648,-2.0863,0.0597,0.0582,-0.0047,43.7980,11.7730,-9.8210,
2.836541,-0.3249,1.5648,-2.0863,0.0597,0.0582,-0.0047,43.7980,11.7730,-9.8210,
2.837632,-0.3249,1.5648,-2.0863,0.0597,0.0582,-0.0047,43.7980,11.7730,-9.8210,
2.838491,-0.3249,1.5648,-2.0863,0.0597,0.0582,-0.0047,43.7980,11.7730,-9.8210,
2.843698,-0.3249,1.5648,-2.0863,0.0597,0.0582,-0.0047,43.7004,11.3826,-10.1260,
2.874463,-0.3249,1.5648,-2.0863,-0.2201,0.2758,-0.0497,43.7004,11.3826,-10.1260,
2.885307,0.7352,1.3287,0.0996,-0.2201,0.2758,-0.0497,43.7004,11.3826,-10.1260,
2.905241,0.7352,1.3287,0.0996,-0.2201,0.2758,-0.0497,43.6516,11.5412,-10.0772,
2.906980,0.7352,1.3287,0.0996,-0.2201,0.2758,-0.0497,43.6516,11.5412,-10.0772,
2.907883,0.7352,1.3287,0.0996,-0.2201,0.2758,-0.0497,43.6516,11.5412,-10.0772,
2.908716,0.7352,1.3287,0.0996,-0.2201,0.2758,-0.0497,43.6516,11.5412,-10.0772,
2.909575,0.7352,1.3287,0.0996,-0.2201,0.2758,-0.0497,43.6516,11.5412,-10.0772,
2.944288,0.7352,1.3287,0.0996,-0.0854,0.1443,0.0671,43.6516,11.5412,-10.0772,
2.960558,-0.3499,0.1086,0.5906,-0.0854,0.1443,0.0671,43.6516,11.5412,-10.0772,
2.964255,-0.3499,0.1086,0.5906,-0.0854,0.1443,0.0671,43.6516,11.4314,-10.1260,
2.968467,-0.3499,0.1086,0.5906,-0.0854,0.1443,0.0671,43.6516,11.4314,-10.1260,
2.969855,-0.3499,0.1086,0.5906,-0.0854,0.1443,0.0671,43.6516,11.4314,-10.1260,
2.971497,-0.3499,0.1086,0.5906,-0.0854,0.1443,0.0671,43.6516,11.4314,-10.1260,
3.013951,-0.3499,0.1086,0.5906,-0.1228,0.2641,-0.0358,43.6516,11.4314,-10.1260,
3.029242,-0.3499,0.1086,0.5906,-0.1228,0.2641,-0.0358,43.6394,11.3582,-10.0162,
3.030864,-0.1050,-0.5697,-0.6803,-0.1228,0.2641,-0.0358,43.6394,11.3582,-10.0162,
3.036619,-0.1050,-0.5697,-0.6803,-0.1228,0.2641,-0.0358,43.6394,11.3582,-10.0162,
3.037640,-0.1050,-0.5697,-0.6803,-0.1228,0.2641,-0.0358,43.6394,11.3582,-10.0162,
3.038819,-0.1050,-0.5697,-0.6803,-0.1228,0.2641,-0.0358,43.6394,11.3582,-10.0162,
3.084252,-0.1050,-0.5697,-0.6803,-0.1228,0.2641,-0.0358,43.6638,11.5534,-9.7722,
3.088459,-0.1050,-0.5697,-0.6803,-0.0925,0.2372,-0.0959,43.6638,11.5534,-9.7722,
3.095094,-0.2464,-0.8219,-0.3498,-0.0925,0.2372,-0.0959,43.6638,11.5534,-9.7722,
3.104783,-0.2464,-0.8219,-0.3498,-0.0925,0.2372,-0.0959,43.6638,11.5534,-9.7722,
3.105926,-0.2464,-0.8219,-0.3498,-0.0925,0.2372,-0.0959,43.6638,11.5534,-9.7722,
3.106990,-0.2464,-0.8219,-0.3498,-0.0925,0.2372,-0.0959,43.6638,11.5534,-9.7722,
3.107896,-0.2464,-0.8219,-0.3498,-0.0925,0.2372,-0.0959,43.6638,11.5534,-9.7722,
3.144146,-0.2464,-0.8219,-0.3498,-0.0925,0.2372,-0.0959,43.7004,11.6876,-9.4550,
3.153287,-0.2464,-0.8219,-0.3498,-0.4159,0.1933,-0.0366,43.7004,11.6876,-9.4550,
3.163143,-0.2611,-0.6785,-0.0500,-0.4159,0.1933,-0.0366,43.7004,11.6876,-9.4550,
3.169047,-0.2611,-0.6785,-0.0500,-0.4159,0.1933,-0.0366,43.7004,11.6876,-9.4550,
3.173183,-0.2611,-0.6785,-0.0500,-0.4159,0.1933,-0.0366,43.7004,11.6876,-9.4550,
3.176184,-0.2611,-0.6785,-0.0500,-0.4159,0.1933,-0.0366,43.7004,11.6876,-9.4550,
3.201676,-0.2611,-0.6785,-0.0500,-0.4159,0.1933,-0.0366,43.7858,11.7974,-9.0524,
3.223071,-0.2611,-0.6785,-0.0500,-0.5603,0.1754,0.0684,43.7858,11.7974,-9.0524,
3.239389,0.7147,0.8883,-0.4645,-0.5603,0.1754,0.0684,43.7858,11.7974,-9.0524,
3.243082,0.7147,0.8883,-0.4645,-0.5603,0.1754,0.0684,43.7858,11.7974,-9.0524,
3.244282,0.7147,0.8883,-0.4645,-0.5603,0.1754,0.0684,43.7858,11.7974,-9.0524,
3.245567,0.7147,0.8883,-0.4645,-0.5603,0.1754,0.0684,43.7858,11.7974,-9.0524,
3.261638,0.7147,0.8883,-0.4645,-0.5603,0.1754,0.0684,43.9200,12.0170,-8.3570,
3.291708,0.7147,0.8883,-0.4645,-0.9408,0.2647,-0.0835,43.9200,12.0170,-8.3570,
3.304856,0.5008,0.9643,-0.1511,-0.9408,0.2647,-0.0835,43.9200,12.0170,-8.3570,
3.306775,0.5008,0.9643,-0.1511,-0.9408,0.2647,-0.0835,43.9200,12.0170,-8.3570,
3.308697,0.5008,0.9643,-0.1511,-0.9408,0.2647,-0.0835,43.9200,12.0170,-8.3570,
3.310434,0.5008,0.9643,-0.1511,-0.9408,0.2647,-0.0835,43.9200,12.0170,-8.3570,
3.311806,0.5008,0.9643,-0.1511,-0.9408,0.2647,-0.0835,43.9200,12.0170,-8.3570,
3.321461,0.5008,0.9643,-0.1511,-0.9408,0.2647,-0.0835,44.0420,12.3586,-7.6006,
3.363109,0.5008,0.9643,-0.1511,-1.0301,0.2276,-0.0142,44.0420,12.3586,-7.6006,
3.369579,0.5008,0.9643,-0.1511,-1.0301,0.2276,-0.0142,44.0420,12.3586,-7.6006,
3.372921,0.5008,0.9643,-0.1511,-1.0301,0.2276,-0.0142,44.0420,12.3586,-7.6006,
3.375225,0.5008,0.9643,-0.1511,-1.0301,0.2276,-0.0142,44.0420,12.3586,-7.6006,
3.376803,-0.1606,1.1973,0.3868,-1.0301,0.2276,-0.0142,44.0420,12.3586,-7.6006,
3.383556,-0.1606,1.1973,0.3868,-1.0301,0.2276,-0.0142,44.1396,12.7246,-6.7710,
3.432903,-0.1606,1.1973,0.3868,-1.0031,0.1957,0.0372,44.1396,12.7246,-6.7710,
3.437721,-0.1606,1.1973,0.3868,-1.0031,0.1957,0.0372,44.2494,13.1394,-5.8438,
3.440580,-0.1606,1.1973,0.3868,-1.0031,0.1957,0.0372,44.2494,13.1394,-5.8438,
3.442884,-0.1606,1.1973,0.3868,-1.0031,0.1957,0.0372,44.2494,13.1394,-5.8438,
3.445034,-0.1606,1.1973,0.3868,-1.0031,0.1957,0.0372,44.2494,13.1394,-5.8438,
3.447022,-0.8847,0.1232,0.1041,-1.0031,0.1957,0.0372,44.2494,13.1394,-5.8438,
3.500764,-0.8847,0.1232,0.1041,-1.0031,0.1957,0.0372,44.3348,13.5786,-4.8434,
3.503124,-0.8847,0.1232,0.1041,-0.8818,0.2156,-0.0024,44.3348,13.5786,-4.8434,
3.505122,-0.8847,0.1232,0.1041,-0.8818,0.2156,-0.0024,44.3348,13.5786,-4.8434,
3.507427,-0.8847,0.1232,0.1041,-0.8818,0.2156,-0.0024,44.3348,13.5786,-4.8434,
3.510119,-0.8847,0.1232,0.1041,-0.8818,0.2156,-0.0024,44.3348,13.5786,-4.8434,
3.512997,-0.8847,0.1232,0.1041,-0.8818,0.2156,-0.0024,44.3348,13.5786,-4.8434,
3.515799,-0.4008,-0.3435,0.0616,-0.8818,0.2156,-0.0024,44.3348,13.5786,-4.8434,
3.561699,-0.4008,-0.3435,0.0616,-0.8818,0.2156,-0.0024,44.4690,13.9446,-3.8308,
3.568362,-0.4008,-0.3435,0.0616,-0.9438,0.1924,0.0866,44.4690,13.9446,-3.8308,
3.570166,-0.4008,-0.3435,0.0616,-0.9438,0.1924,0.0866,44.4690,13.9446,-3.8308,
3.571449,-0.4008,-0.3435,0.0616,-0.9438,0.1924,0.0866,44.4690,13.9446,-3.8308,
3.572699,-0.4008,-0.3435,0.0616,-0.9438,0.1924,0.0866,44.4690,13.9446,-3.8308,
3.582797,0.3477,-0.5736,-0.6570,-0.9438,0.1924,0.0866,44.4690,13.9446,-3.8308,
3.622469,0.3477,-0.5736,-0.6570,-0.9438,0.1924,0.0866,44.5788,14.2740,-2.6840,
3.637370,0.3477,-0.5736,-0.6570,-0.9438,0.1924,0.0866,44.5788,14.2740,-2.6840,
3.640138,0.3477,-0.5736,-0.6570,-0.9438,0.1924,0.0866,44.5788,14.2740,-2.6840,
3.642316,0.3477,-0.5736,-0.6570,-0.9438,0.1924,0.0866,44.5788,14.2740,-2.6840,
3.644755,0.3477,-0.5736,-0.6570,-0.8316,0.1626,0.0499,44.5788,14.2740,-2.6840,
3.652653,0.4154,-0.1347,0.0899,-0.8316,0.1626,0.0499,44.5788,14.2740,-2.6840,
3.681342,0.4154,-0.1347,0.0899,-0.8316,0.1626,0.0499,44.6764,14.5546,-1.4030,
3.704060,0.4154,-0.1347,0.0899,-0.8316,0.1626,0.0499,44.6764,14.5546,-1.4030,
3.707180,0.4154,-0.1347,0.0899,-0.8316,0.1626,0.0499,44.6764,14.5546,-1.4030,
3.710763,0.4154,-0.1347,0.0899,-0.8316,0.1626,0.0499,44.6764,14.5546,-1.4030,
3.713172,0.4154,-0.1347,0.0899,-0.8316,0.1626,0.0499,44.6764,14.5546,-1.4030,
3.715400,0.4154,-0.1347,0.0899,-0.8381,0.1368,0.0449,44.6764,14.5546,-1.4030,
3.721926,-0.2283,-0.3997,-0.1309,-0.8381,0.1368,0.0449,44.6764,14.5546,-1.4030,
3.741030,-0.2283,-0.3997,-0.1309,-0.8381,0.1368,0.0449,44.7862,14.7986,-0.1830,
3.770457,-0.2283,-0.3997,-0.1309,-0.8381,0.1368,0.0449,44.7862,14.7986,-0.1830,
3.773236,-0.2283,-0.3997,-0.1309,-0.8381,0.1368,0.0449,44.7862,14.7986,-0.1830,
3.775537,-0.2283,-0.3997,-0.1309,-0.8381,0.1368,0.0449,44.7862,14.7986,-0.1830,
3.780920,-0.2283,-0.3997,-0.1309,-0.8425,0.2338,0.0188,44.7862,14.7986,-0.1830,
3.791978,0.0689,0.1225,-0.0025,-0.8425,0.2338,0.0188,44.7862,14.7986,-0.1830,
3.800817,0.0689,0.1225,-0.0025,-0.8425,0.2338,0.0188,44.8594,14.9328,1.0492,
3.837485,0.0689,0.1225,-0.0025,-0.8425,0.2338,0.0188,44.8594,14.9328,1.0492,
3.840412,0.0689,0.1225,-0.0025,-0.8425,0.2338,0.0188,44.8594,14.9328,1.0492,
3.842663,0.0689,0.1225,-0.0025,-0.8425,0.2338,0.0188,44.8594,14.9328,1.0492,
3.850967,0.0689,0.1225,-0.0025,-0.8313,0.1605,0.1161,44.8594,14.9328,1.0492,
3.860945,0.0689,0.1225,-0.0025,-0.8313,0.1605,0.1161,44.9326,14.9572,2.2448,
3.864144,0.3669,-0.2091,-0.1836,-0.8313,0.1605,0.1161,44.9326,14.9572,2.2448,
3.903946,0.3669,-0.2091,-0.1836,-0.8313,0.1605,0.1161,44.9326,14.9572,2.2448,
3.906522,0.3669,-0.2091,-0.1836,-0.8313,0.1605,0.1161,44.9326,14.9572,2.2448,
3.908267,0.3669,-0.2091,-0.1836,-0.8313,0.1605,0.1161,44.9326,14.9572,2.2448,
3.910447,0.3669,-0.2091,-0.1836,-0.8313,0.1605,0.1161,44.9326,14.9572,2.2448,
3.920974,0.3669,-0.2091,-0.1836,-0.8313,0.1605,0.1161,45.0302,14.8840,3.3550,
3.922520,0.3669,-0.2091,-0.1836,-0.7619,-0.0302,0.1185,45.0302,14.8840,3.3550,
3.928693,-0.5909,-0.1524,0.0204,-0.7619,-0.0302,0.1185,45.0302,14.8840,3.3550,
3.971378,-0.5909,-0.1524,0.0204,-0.7619,-0.0302,0.1185,45.0302,14.8840,3.3550,
3.975009,-0.5909,-0.1524,0.0204,-0.7619,-0.0302,0.1185,45.0302,14.8840,3.3550,
3.977496,-0.5909,-0.1524,0.0204,-0.7619,-0.0302,0.1185,45.0302,14.8840,3.3550,
3.980566,-0.5909,-0.1524,0.0204,-0.7619,-0.0302,0.1185,45.1278,14.7254,4.3798,
3.991375,-0.5909,-0.1524,0.0204,-0.6830,0.0011,-0.0056,45.1278,14.7254,4.3798,
4.000472,-0.3562,-0.5045,-0.1107,-0.6830,0.0011,-0.0056,45.1278,14.7254,4.3798,
4.038178,-0.3562,-0.5045,-0.1107,-0.6830,0.0011,-0.0056,45.1400,14.5912,5.3314,
4.041890,-0.3562,-0.5045,-0.1107,-0.6830,0.0011,-0.0056,45.1400,14.5912,5.3314,
4.044579,-0.3562,-0.5045,-0.1107,-0.6830,0.0011,-0.0056,45.1400,14.5912,5.3314,
4.047209,-0.3562,-0.5045,-0.1107,-0.6830,0.0011,-0.0056,45.1400,14.5912,5.3314,
4.060183,-0.3562,-0.5045,-0.1107,-0.5495,-0.0224,-0.0415,45.1400,14.5912,5.3314,
4.075785,-0.0238,-0.1902,-0.4142,-0.5495,-0.0224,-0.0415,45.1400,14.5912,5.3314,
4.099090,-0.0238,-0.1902,-0.4142,-0.5495,-0.0224,-0.0415,45.1766,14.4570,6.1488,
4.103086,-0.0238,-0.1902,-0.4142,-0.5495,-0.0224,-0.0415,45.1766,14.4570,6.1488,
4.105905,-0.0238,-0.1902,-0.4142,-0.5495,-0.0224,-0.0415,45.1766,14.4570,6.1488,
4.108919,-0.0238,-0.1902,-0.4142,-0.5495,-0.0224,-0.0415,45.1766,14.4570,6.1488,
4.111846,-0.0238,-0.1902,-0.4142,-0.5495,-0.0224,-0.0415,45.1766,14.4570,6.1488,
4.128332,-0.0238,-0.1902,-0.4142,-0.4019,-0.0164,-0.1462,45.1766,14.4570,6.1488,
4.138402,-0.4529,-0.0300,0.1409,-0.4019,-0.0164,-0.1462,45.1766,14.4570,6.1488,
4.159610,-0.4529,-0.0300,0.1409,-0.4019,-0.0164,-0.1462,45.2010,14.4082,6.8320,
4.171095,-0.4529,-0.0300,0.1409,-0.4019,-0.0164,-0.1462,45.2010,14.4082,6.8320,
4.173180,-0.4529,-0.0300,0.1409,-0.4019,-0.0164,-0.1462,45.2010,14.4082,6.8320,
4.175015,-0.4529,-0.0300,0.1409,-0.4019,-0.0164,-0.1462,45.2010,14.4082,6.8320,
4.200312,-0.4529,-0.0300,0.1409,-0.2526,-0.0554,-0.1065,45.2010,14.4082,6.8320,
4.209377,-0.0707,-0.0171,0.0805,-0.2526,-0.0554,-0.1065,45.2010,14.4082,6.8320,
4.219712,-0.0707,-0.0171,0.0805,-0.2526,-0.0554,-0.1065,45.1888,14.3960,7.3810,
4.237312,-0.0707,-0.0171,0.0805,-0.2526,-0.0554,-0.1065,45.1888,14.3960,7.3810,
4.240791,-0.0707,-0.0171,0.0805,-0.2526,-0.0554,-0.1065,45.1888,14.3960,7.3810,
4.244151,-0.0707,-0.0171,0.0805,-0.2526,-0.0554,-0.1065,45.1888,14.3960,7.3810,
4.269339,-0.0707,-0.0171,0.0805,-0.1502,-0.1148,-0.0690,45.1888,14.3960,7.3810,
4.279729,-0.2518,-0.1803,-0.1242,-0.1502,-0.1148,-0.0690,45.1888,14.3960,7.3810,
4.283627,-0.2518,-0.1803,-0.1242,-0.1502,-0.1148,-0.0690,45.2132,14.3960,7.7592,
4.303819,-0.2518,-0.1803,-0.1242,-0.1502,-0.1148,-0.0690,45.2132,14.3960,7.7592,
4.307654,-0.2518,-0.1803,-0.1242,-0.1502,-0.1148,-0.0690,45.2132,14.3960,7.7592,
4.310618,-0.2518,-0.1803,-0.1242,-0.1502,-0.1148,-0.0690,45.2132,14.3960,7.7592,
4.313544,-0.2518,-0.1803,-0.1242,-0.1502,-0.1148,-0.0690,45.2132,14.3960,7.7592,
4.339315,-0.2518,-0.1803,-0.1242,-0.1502,-0.1148,-0.0690,45.2498,14.4448,7.9910,
4.343485,-0.2518,-0.1803,-0.1242,-0.1490,-0.1762,-0.0585,45.2498,14.4448,7.9910,
4.350958,-0.0304,-0.2774,-0.5700,-0.1490,-0.1762,-0.0585,45.2498,14.4448,7.9910,
4.370423,-0.0304,-0.2774,-0.5700,-0.1490,-0.1762,-0.0585,45.2498,14.4448,7.9910,
4.373894,-0.0304,-0.2774,-0.5700,-0.1490,-0.1762,-0.0585,45.2498,14.4448,7.9910,
4.377061,-0.0304,-0.2774,-0.5700,-0.1490,-0.1762,-0.0585,45.2498,14.4448,7.9910,
4.399300,-0.0304,-0.2774,-0.5700,-0.1490,-0.1762,-0.0585,45.2498,14.5424,8.1008,
4.408754,-0.0304,-0.2774,-0.5700,-0.0850,-0.1894,-0.0374,45.2498,14.5424,8.1008,
4.419050,0.2425,-0.3387,-0.3592,-0.0850,-0.1894,-0.0374,45.2498,14.5424,8.1008,
4.437336,0.2425,-0.3387,-0.3592,-0.0850,-0.1894,-0.0374,45.2498,14.5424,8.1008,
4.440793,0.2425,-0.3387,-0.3592,-0.0850,-0.1894,-0.0374,45.2498,14.5424,8.1008,
4.444196,0.2425,-0.3387,-0.3592,-0.0850,-0.1894,-0.0374,45.2498,14.5424,8.1008,
4.447323,0.2425,-0.3387,-0.3592,-0.0850,-0.1894,-0.0374,45.2498,14.5424,8.1008,
4.458206,0.2425,-0.3387,-0.3592,-0.0850,-0.1894,-0.0374,45.2254,14.7132,8.0886,
4.478960,0.2425,-0.3387,-0.3592,-0.0759,-0.1892,-0.0376,45.2254,14.7132,8.0886,
4.488499,-0.1478,-0.2094,-0.2606,-0.0759,-0.1892,-0.0376,45.2254,14.7132,8.0886,
4.503937,-0.1478,-0.2094,-0.2606,-0.0759,-0.1892,-0.0376,45.2254,14.7132,8.0886,
4.507507,-0.1478,-0.2094,-0.2606,-0.0759,-0.1892,-0.0376,45.2254,14.7132,8.0886,
4.510858,-0.1478,-0.2094,-0.2606,-0.0759,-0.1892,-0.0376,45.2254,14.7132,8.0886,
4.517857,-0.1478,-0.2094,-0.2606,-0.0759,-0.1892,-0.0376,45.2986,14.8840,7.9666,
4.547808,-0.1478,-0.2094,-0.2606,-0.0470,-0.1638,0.0060,45.2986,14.8840,7.9666,
4.556937,-0.0398,0.1040,0.0474,-0.0470,-0.1638,0.0060,45.2986,14.8840,7.9666,
4.570328,-0.0398,0.1040,0.0474,-0.0470,-0.1638,0.0060,45.2986,14.8840,7.9666,
4.571853,-0.0398,0.1040,0.0474,-0.0470,-0.1638,0.0060,45.2986,14.8840,7.9666,
4.572752,-0.0398,0.1040,0.0474,-0.0470,-0.1638,0.0060,45.2986,14.8840,7.9666,
4.576862,-0.0398,0.1040,0.0474,-0.0470,-0.1638,0.0060,45.3596,14.9938,7.7592,
4.618712,-0.0398,0.1040,0.0474,-0.0691,-0.1176,-0.0096,45.3596,14.9938,7.7592,
4.634608,0.0646,0.0290,0.0783,-0.0691,-0.1176,-0.0096,45.3596,14.9938,7.7592,
4.639325,0.0646,0.0290,0.0783,-0.0691,-0.1176,-0.0096,45.4328,15.0792,7.4664,
4.643471,0.0646,0.0290,0.0783,-0.0691,-0.1176,-0.0096,45.4328,15.0792,7.4664,
4.646400,0.0646,0.0290,0.0783,-0.0691,-0.1176,-0.0096,45.4328,15.0792,7.4664,
4.648098,0.0646,0.0290,0.0783,-0.0691,-0.1176,-0.0096,45.4328,15.0792,7.4664,
4.649726,0.0646,0.0290,0.0783,-0.0691,-0.1176,-0.0096,45.4328,15.0792,7.4664,
4.688215,0.0646,0.0290,0.0783,-0.0403,-0.0786,-0.0322,45.4328,15.0792,7.4664,
4.697758,0.0646,0.0290,0.0783,-0.0403,-0.0786,-0.0322,45.4816,15.1158,7.1492,
4.702955,0.3234,0.0088,0.1419,-0.0403,-0.0786,-0.0322,45.4816,15.1158,7.1492,
4.706312,0.3234,0.0088,0.1419,-0.0403,-0.0786,-0.0322,45.4816,15.1158,7.1492,
4.707906,0.3234,0.0088,0.1419,-0.0403,-0.0786,-0.0322,45.4816,15.1158,7.1492,
4.709516,0.3234,0.0088,0.1419,-0.0403,-0.0786,-0.0322,45.4816,15.1158,7.1492,
4.758622,0.3234,0.0088,0.1419,-0.0403,-0.0786,-0.0322,45.5182,15.2256,6.8198,
4.763095,0.3234,0.0088,0.1419,-0.0690,-0.0538,-0.0276,45.5182,15.2256,6.8198,
4.767045,0.0720,0.0883,-0.0671,-0.0690,-0.0538,-0.0276,45.5182,15.2256,6.8198,
4.769375,0.0720,0.0883,-0.0671,-0.0690,-0.0538,-0.0276,45.5182,15.2256,6.8198,
4.771729,0.0720,0.0883,-0.0671,-0.0690,-0.0538,-0.0276,45.5182,15.2256,6.8198,
4.773327,0.0720,0.0883,-0.0671,-0.0690,-0.0538,-0.0276,45.5182,15.2256,6.8198,
4.817939,0.0720,0.0883,-0.0671,-0.0690,-0.0538,-0.0276,45.5426,15.2500,6.5514,
4.827459,0.0720,0.0883,-0.0671,-0.0784,-0.0053,0.0021,45.5426,15.2500,6.5514,
4.837299,0.0832,0.0490,0.1322,-0.0784,-0.0053,0.0021,45.5426,15.2500,6.5514,
4.840166,0.0832,0.0490,0.1322,-0.0784,-0.0053,0.0021,45.5426,15.2500,6.5514,
4.842267,0.0832,0.0490,0.1322,-0.0784,-0.0053,0.0021,45.5426,15.2500,6.5514,
4.844341,0.0832,0.0490,0.1322,-0.0784,-0.0053,0.0021,45.5426,15.2500,6.5514,
4.846492,0.0832,0.0490,0.1322,-0.0784,-0.0053,0.0021,45.5426,15.2500,6.5514,
4.887551,0.0832,0.0490,0.1322,-0.0784,-0.0053,0.0021,45.6158,15.2622,6.3318,
4.897560,0.0832,0.0490,0.1322,-0.0770,0.0317,-0.0132,45.6158,15.2622,6.3318,
4.902606,0.0832,0.0490,0.1322,-0.0770,0.0317,-0.0132,45.6158,15.2622,6.3318,
4.905599,0.0832,0.0490,0.1322,-0.0770,0.0317,-0.0132,45.6158,15.2622,6.3318,
4.908339,0.0832,0.0490,0.1322,-0.0770,0.0317,-0.0132,45.6158,15.2622,6.3318,
4.910672,0.0999,0.0008,-0.0082,-0.0770,0.0317,-0.0132,45.6158,15.2622,6.3318,
4.947580,0.0999,0.0008,-0.0082,-0.0770,0.0317,-0.0132,45.6524,15.2378,6.2098,
4.967225,0.0999,0.0008,-0.0082,-0.0567,0.0979,-0.0370,45.6524,15.2378,6.2098,
4.971637,0.0999,0.0008,-0.0082,-0.0567,0.0979,-0.0370,45.6524,15.2378,6.2098,
4.974484,0.0999,0.0008,-0.0082,-0.0567,0.0979,-0.0370,45.6524,15.2378,6.2098,
4.977031,0.0999,0.0008,-0.0082,-0.0567,0.0979,-0.0370,45.6524,15.2378,6.2098,
4.979815,0.1355,0.0929,-0.0736,-0.0567,0.0979,-0.0370,45.6524,15.2378,6.2098,
5.007252,0.1355,0.0929,-0.0736,-0.0567,0.0979,-0.0370,45.6036,15.2622,6.1122,
5.037680,0.1355,0.0929,-0.0736,-0.0639,0.0422,0.0099,45.6036,15.2622,6.1122,
5.041153,0.1355,0.0929,-0.0736,-0.0639,0.0422,0.0099,45.6036,15.2622,6.1122,
5.043466,0.1355,0.0929,-0.0736,-0.0639,0.0422,0.0099,45.6036,15.2622,6.1122,
5.046182,0.1355,0.0929,-0.0736,-0.0639,0.0422,0.0099,45.6036,15.2622,6.1122,
5.048312,0.1355,0.0929,-0.0736,-0.0639,0.0422,0.0099,45.6036,15.2622,6.1122,
5.050563,0.0145,-0.0684,0.0389,-0.0639,0.0422,0.0099,45.6036,15.2622,6.1122,
5.064807,0.0145,-0.0684,0.0389,-0.0639,0.0422,0.0099,45.5792,15.3232,6.1366,
5.104662,0.0145,-0.0684,0.0389,-0.1481,-0.1059,0.0063,45.5792,15.3232,6.1366,
5.108758,0.0145,-0.0684,0.0389,-0.1481,-0.1059,0.0063,45.5792,15.3232,6.1366,
5.111326,0.0145,-0.0684,0.0389,-0.1481,-0.1059,0.0063,45.5792,15.3232,6.1366,
5.113792,0.0145,-0.0684,0.0389,-0.1481,-0.1059,0.0063,45.5792,15.3232,6.1366,
5.115639,-0.3823,0.0238,-0.0503,-0.1481,-0.1059,0.0063,45.5792,15.3232,6.1366,
5.125699,-0.3823,0.0238,-0.0503,-0.1481,-0.1059,0.0063,45.6036,15.2866,6.2708,
5.171101,-0.3823,0.0238,-0.0503,-0.1481,-0.1059,0.0063,45.6036,15.2866,6.2708,
5.174438,-0.3823,0.0238,-0.0503,-0.1481,-0.1059,0.0063,45.6036,15.2866,6.2708,
5.176990,-0.3823,0.0238,-0.0503,-0.1481,-0.1059,0.0063,45.6036,15.2866,6.2708,
5.179571,-0.3823,0.0238,-0.0503,-0.1133,-0.1016,0.0386,45.6036,15.2866,6.2708,
5.186252,-0.3823,0.0238,-0.0503,-0.1133,-0.1016,0.0386,45.6402,15.2866,6.3806,
5.189310,0.0167,-0.0993,-0.1224,-0.1133,-0.1016,0.0386,45.6402,15.2866,6.3806,
5.237753,0.0167,-0.0993,-0.1224,-0.1133,-0.1016,0.0386,45.6402,15.2866,6.3806,
5.241427,0.0167,-0.0993,-0.1224,-0.1133,-0.1016,0.0386,45.6402,15.2866,6.3806,
5.244164,0.0167,-0.0993,-0.1224,-0.1133,-0.1016,0.0386,45.6402,15.2866,6.3806,
5.247483,0.0167,-0.0993,-0.1224,-0.1133,-0.1016,0.0386,45.6402,15.2866,6.3806,
5.249589,0.0167,-0.0993,-0.1224,-0.1133,-0.1016,0.0386,45.6402,15.2134,6.4904,
5.252262,0.0167,-0.0993,-0.1224,-0.1676,-0.1035,0.0899,45.6402,15.2134,6.4904,
5.257170,0.2205,0.1075,-0.0671,-0.1676,-0.1035,0.0899,45.6402,15.2134,6.4904,
5.304538,0.2205,0.1075,-0.0671,-0.1676,-0.1035,0.0899,45.6768,15.1402,6.5392,
5.307925,0.2205,0.1075,-0.0671,-0.1676,-0.1035,0.0899,45.6768,15.1402,6.5392,
5.310014,0.2205,0.1075,-0.0671,-0.1676,-0.1035,0.0899,45.6768,15.1402,6.5392,
5.311864,0.2205,0.1075,-0.0671,-0.1676,-0.1035,0.0899,45.6768,15.1402,6.5392,
5.315310,0.2205,0.1075,-0.0671,-0.2278,-0.1590,0.0629,45.6768,15.1402,6.5392,
5.325280,-0.1105,0.0395,0.1754,-0.2278,-0.1590,0.0629,45.6768,15.1402,6.5392,
5.366281,-0.1105,0.0395,0.1754,-0.2278,-0.1590,0.0629,45.7134,15.0670,6.5636,
5.368846,-0.1105,0.0395,0.1754,-0.2278,-0.1590,0.0629,45.7134,15.0670,6.5636,
5.370283,-0.1105,0.0395,0.1754,-0.2278,-0.1590,0.0629,45.7134,15.0670,6.5636,
5.371638,-0.1105,0.0395,0.1754,-0.2278,-0.1590,0.0629,45.7134,15.0670,6.5636,
5.385108,-0.1105,0.0395,0.1754,-0.2120,-0.0605,0.0212,45.7134,15.0670,6.5636,
5.395113,0.1952,-0.0207,0.1359,-0.2120,-0.0605,0.0212,45.7134,15.0670,6.5636,
5.425192,0.1952,-0.0207,0.1359,-0.2120,-0.0605,0.0212,45.7744,14.9816,6.6002,
5.437472,0.1952,-0.0207,0.1359,-0.2120,-0.0605,0.0212,45.7744,14.9816,6.6002,
5.440804,0.1952,-0.0207,0.1359,-0.2120,-0.0605,0.0212,45.7744,14.9816,6.6002,
5.443502,0.1952,-0.0207,0.1359,-0.2120,-0.0605,0.0212,45.7744,14.9816,6.6002,
5.446224,0.1952,-0.0207,0.1359,-0.2120,-0.0605,0.0212,45.7744,14.9816,6.6002,
5.454980,0.1952,-0.0207,0.1359,-0.2666,0.1020,0.0802,45.7744,14.9816,6.6002,
5.470897,0.3300,0.1491,-0.0432,-0.2666,0.1020,0.0802,45.7744,14.9816,6.6002,
5.485149,0.3300,0.1491,-0.0432,-0.2666,0.1020,0.0802,45.8842,14.8108,6.6734,
5.503104,0.3300,0.1491,-0.0432,-0.2666,0.1020,0.0802,45.8842,14.8108,6.6734,
5.505903,0.3300,0.1491,-0.0432,-0.2666,0.1020,0.0802,45.8842,14.8108,6.6734,
5.508245,0.3300,0.1491,-0.0432,-0.2666,0.1020,0.0802,45.8842,14.8108,6.6734,
5.525168,0.3300,0.1491,-0.0432,-0.2795,0.2987,0.0246,45.8842,14.8108,6.6734,
5.534618,0.3630,-0.1672,-0.0596,-0.2795,0.2987,0.0246,45.8842,14.8108,6.6734,
5.544603,0.3630,-0.1672,-0.0596,-0.2795,0.2987,0.0246,45.9452,14.6156,6.7832,
5.570506,0.3630,-0.1672,-0.0596,-0.2795,0.2987,0.0246,45.9452,14.6156,6.7832,
5.573483,0.3630,-0.1672,-0.0596,-0.2795,0.2987,0.0246,45.9452,14.6156,6.7832,
5.575775,0.3630,-0.1672,-0.0596,-0.2795,0.2987,0.0246,45.9452,14.6156,6.7832,
5.595212,0.3630,-0.1672,-0.0596,-0.5940,0.1794,-0.3486,45.9452,14.6156,6.7832,
5.606545,0.3630,-0.1672,-0.0596,-0.5940,0.1794,-0.3486,45.8964,14.5790,6.9174,
5.608523,0.5240,-0.3046,0.7881,-0.5940,0.1794,-0.3486,45.8964,14.5790,6.9174,
5.636262,0.5240,-0.3046,0.7881,-0.5940,0.1794,-0.3486,45.8964,14.5790,6.9174,
5.639031,0.5240,-0.3046,0.7881,-0.5940,0.1794,-0.3486,45.8964,14.5790,6.9174,
5.640858,0.5240,-0.3046,0.7881,-0.5940,0.1794,-0.3486,45.8964,14.5790,6.9174,
5.643045,0.5240,-0.3046,0.7881,-0.5940,0.1794,-0.3486,45.8964,14.5790,6.9174,
5.664621,0.5240,-0.3046,0.7881,-0.5940,0.1794,-0.3486,45.8354,14.6278,7.2224,
5.667706,0.5240,-0.3046,0.7881,-0.9171,0.0611,-0.3923,45.8354,14.6278,7.2224,
5.673864,-1.5596,0.2233,2.0008,-0.9171,0.0611,-0.3923,45.8354,14.6278,7.2224,
5.703921,-1.5596,0.2233,2.0008,-0.9171,0.0611,-0.3923,45.8354,14.6278,7.2224,
5.707157,-1.5596,0.2233,2.0008,-0.9171,0.0611,-0.3923,45.8354,14.6278,7.2224,
5.709722,-1.5596,0.2233,2.0008,-0.9171,0.0611,-0.3923,45.8354,14.6278,7.2224,
5.724313,-1.5596,0.2233,2.0008,-0.9171,0.0611,-0.3923,45.6890,14.7132,7.6738,
5.734595,-1.5596,0.2233,2.0008,-0.1133,0.8149,0.0189,45.6890,14.7132,7.6738,
5.750719,-0.6490,-0.4477,0.2675,-0.1133,0.8149,0.0189,45.6890,14.7132,7.6738,
5.769677,-0.6490,-0.4477,0.2675,-0.1133,0.8149,0.0189,45.6890,14.7132,7.6738,
5.772674,-0.6490,-0.4477,0.2675,-0.1133,0.8149,0.0189,45.6890,14.7132,7.6738,
5.775238,-0.6490,-0.4477,0.2675,-0.1133,0.8149,0.0189,45.6890,14.7132,7.6738,
5.783803,-0.6490,-0.4477,0.2675,-0.1133,0.8149,0.0189,45.4694,14.8108,8.5278,
5.803840,-0.6490,-0.4477,0.2675,-0.1611,1.2555,0.2450,45.4694,14.8108,8.5278,
5.813565,0.7072,-0.5933,0.5381,-0.1611,1.2555,0.2450,45.4694,14.8108,8.5278,
5.836074,0.7072,-0.5933,0.5381,-0.1611,1.2555,0.2450,45.4694,14.8108,8.5278,
5.840407,0.7072,-0.5933,0.5381,-0.1611,1.2555,0.2450,45.4694,14.8108,8.5278,
5.843014,0.7072,-0.5933,0.5381,-0.1611,1.2555,0.2450,45.4694,14.8108,8.5278,
5.845254,0.7072,-0.5933,0.5381,-0.1611,1.2555,0.2450,45.4694,14.8108,8.5278,
5.846858,0.7072,-0.5933,0.5381,-0.1611,1.2555,0.2450,45.1278,14.8596,9.7478,
5.872346,0.7072,-0.5933,0.5381,-0.0523,1.2420,0.5700,45.1278,14.8596,9.7478,
5.882467,-0.0436,0.1655,0.0963,-0.0523,1.2420,0.5700,45.1278,14.8596,9.7478,
5.902955,-0.0436,0.1655,0.0963,-0.0523,1.2420,0.5700,44.6764,14.6522,11.3826,
5.906202,-0.0436,0.1655,0.0963,-0.0523,1.2420,0.5700,44.6764,14.6522,11.3826,
5.908736,-0.0436,0.1655,0.0963,-0.0523,1.2420,0.5700,44.6764,14.6522,11.3826,
5.911083,-0.0436,0.1655,0.0963,-0.0523,1.2420,0.5700,44.6764,14.6522,11.3826,
5.941706,-0.0436,0.1655,0.0963,-0.1173,1.1029,0.4406,44.6764,14.6522,11.3826,
5.953095,0.3944,-0.3877,0.9641,-0.1173,1.1029,0.4406,44.6764,14.6522,11.3826,
5.962581,0.3944,-0.3877,0.9641,-0.1173,1.1029,0.4406,44.1396,14.4082,13.2614,
5.968182,0.3944,-0.3877,0.9641,-0.1173,1.1029,0.4406,44.1396,14.4082,13.2614,
5.969803,0.3944,-0.3877,0.9641,-0.1173,1.1029,0.4406,44.1396,14.4082,13.2614,
5.971256,0.3944,-0.3877,0.9641,-0.1173,1.1029,0.4406,44.1396,14.4082,13.2614,
6.013916,0.3944,-0.3877,0.9641,0.0771,0.8136,0.1164,44.1396,14.4082,13.2614,
6.023939,0.3944,-0.3877,0.9641,0.0771,0.8136,0.1164,43.4686,14.0666,15.3110,
6.026973,0.7311,1.0218,0.9008,0.0771,0.8136,0.1164,43.4686,14.0666,15.3110,
6.037192,0.7311,1.0218,0.9008,0.0771,0.8136,0.1164,43.4686,14.0666,15.3110,
6.038410,0.7311,1.0218,0.9008,0.0771,0.8136,0.1164,43.4686,14.0666,15.3110,
6.039361,0.7311,1.0218,0.9008,0.0771,0.8136,0.1164,43.4686,14.0666,15.3110,
6.040372,0.7311,1.0218,0.9008,0.0771,0.8136,0.1164,43.4686,14.0666,15.3110,
6.081677,0.7311,1.0218,0.9008,0.0771,0.8136,0.1164,42.7610,13.7006,17.4338,
6.083858,0.7311,1.0218,0.9008,0.0045,0.8582,-0.0795,42.7610,13.7006,17.4338,
6.093832,0.3820,1.5662,0.7599,0.0045,0.8582,-0.0795,42.7610,13.7006,17.4338,
6.102919,0.3820,1.5662,0.7599,0.0045,0.8582,-0.0795,42.7610,13.7006,17.4338,
6.104136,0.3820,1.5662,0.7599,0.0045,0.8582,-0.0795,42.7610,13.7006,17.4338,
6.104834,0.3820,1.5662,0.7599,0.0045,0.8582,-0.0795,42.7610,13.7006,17.4338,
6.140686,0.3820,1.5662,0.7599,0.0045,0.8582,-0.0795,42.0046,13.1882,19.7396,
6.150721,0.3820,1.5662,0.7599,-0.5071,1.1460,0.4057,42.0046,13.1882,19.7396,
6.161564,-0.4001,1.1906,-0.7864,-0.5071,1.1460,0.4057,42.0046,13.1882,19.7396,
6.170251,-0.4001,1.1906,-0.7864,-0.5071,1.1460,0.4057,42.0046,13.1882,19.7396,
6.171721,-0.4001,1.1906,-0.7864,-0.5071,1.1460,0.4057,42.0046,13.1882,19.7396,
6.173025,-0.4001,1.1906,-0.7864,-0.5071,1.1460,0.4057,42.0046,13.1882,19.7396,
6.200464,-0.4001,1.1906,-0.7864,-0.5071,1.1460,0.4057,41.0774,12.2854,22.3992,
6.221421,-0.4001,1.1906,-0.7864,-1.3522,1.9803,0.5221,41.0774,12.2854,22.3992,
6.230620,-0.1085,1.4304,-0.6833,-1.3522,1.9803,0.5221,41.0774,12.2854,22.3992,
6.235697,-0.1085,1.4304,-0.6833,-1.3522,1.9803,0.5221,41.0774,12.2854,22.3992,
6.237103,-0.1085,1.4304,-0.6833,-1.3522,1.9803,0.5221,41.0774,12.2854,22.3992,
6.238346,-0.1085,1.4304,-0.6833,-1.3522,1.9803,0.5221,41.0774,12.2854,22.3992,
6.239453,-0.1085,1.4304,-0.6833,-1.3522,1.9803,0.5221,41.0774,12.2854,22.3992,
6.263724,-0.1085,1.4304,-0.6833,-1.3522,1.9803,0.5221,39.7476,10.9068,25.3150,
6.290571,-0.1085,1.4304,-0.6833,-2.1869,2.6850,0.3338,39.7476,10.9068,25.3150,
6.299888,-0.7359,-0.9099,-0.5511,-2.1869,2.6850,0.3338,39.7476,10.9068,25.3150,
6.301313,-0.7359,-0.9099,-0.5511,-2.1869,2.6850,0.3338,39.7476,10.9068,25.3150,
6.302353,-0.7359,-0.9099,-0.5511,-2.1869,2.6850,0.3338,39.7476,10.9068,25.3150,
6.303185,-0.7359,-0.9099,-0.5511,-2.1869,2.6850,0.3338,39.7476,10.9068,25.3150,
6.320726,-0.7359,-0.9099,-0.5511,-2.1869,2.6850,0.3338,37.9054,8.9914,28.4138,
6.361063,-0.7359,-0.9099,-0.5511,-2.4682,2.6726,-0.1421,37.9054,8.9914,28.4138,
6.375412,0.1221,-2.1221,-0.5163,-2.4682,2.6726,-0.1421,37.9054,8.9914,28.4138,
6.378358,0.1221,-2.1221,-0.5163,-2.4682,2.6726,-0.1421,37.9054,8.9914,28.4138,
6.380487,0.1221,-2.1221,-0.5163,-2.4682,2.6726,-0.1421,37.9054,8.9914,28.4138,
6.382943,0.1221,-2.1221,-0.5163,-2.4682,2.6726,-0.1421,37.9054,8.9914,28.4138,
6.385247,0.1221,-2.1221,-0.5163,-2.4682,2.6726,-0.1421,35.2336,6.5880,31.4760,
6.431272,0.1221,-2.1221,-0.5163,-1.7821,1.9275,-0.1438,35.2336,6.5880,31.4760,
6.436866,0.1221,-2.1221,-0.5163,-1.7821,1.9275,-0.1438,32.1470,3.7088,34.3674,
6.439502,0.1221,-2.1221,-0.5163,-1.7821,1.9275,-0.1438,32.1470,3.7088,34.3674,
6.442096,0.1221,-2.1221,-0.5163,-1.7821,1.9275,-0.1438,32.1470,3.7088,34.3674,
6.444566,0.1221,-2.1221,-0.5163,-1.7821,1.9275,-0.1438,32.1470,3.7088,34.3674,
6.446722,0.1221,-2.1221,-0.5163,-1.7821,1.9275,-0.1438,32.1470,3.7088,34.3674,
6.448073,0.0085,-2.5271,-0.4130,-1.7821,1.9275,-0.1438,32.1470,3.7088,34.3674,
6.499718,0.0085,-2.5271,-0.4130,-1.7821,1.9275,-0.1438,28.7920,0.5490,36.8928,
6.502613,0.0085,-2.5271,-0.4130,-1.0886,0.9201,-0.2691,28.7920,0.5490,36.8928,
6.504798,0.0085,-2.5271,-0.4130,-1.0886,0.9201,-0.2691,28.7920,0.5490,36.8928,
6.507100,0.0085,-2.5271,-0.4130,-1.0886,0.9201,-0.2691,28.7920,0.5490,36.8928,
6.509487,0.0085,-2.5271,-0.4130,-1.0886,0.9201,-0.2691,28.7920,0.5490,36.8928,
6.511996,1.8177,-2.2252,0.0154,-1.0886,0.9201,-0.2691,28.7920,0.5490,36.8928,
6.560482,1.8177,-2.2252,0.0154,-1.0886,0.9201,-0.2691,25.4248,-2.9280,39.2352,
6.568868,1.8177,-2.2252,0.0154,-0.5649,0.2495,-0.6325,25.4248,-2.9280,39.2352,
6.570802,1.8177,-2.2252,0.0154,-0.5649,0.2495,-0.6325,25.4248,-2.9280,39.2352,
6.572252,1.8177,-2.2252,0.0154,-0.5649,0.2495,-0.6325,25.4248,-2.9280,39.2352,
6.573468,1.8177,-2.2252,0.0154,-0.5649,0.2495,-0.6325,25.4248,-2.9280,39.2352,
6.574734,1.8177,-2.2252,0.0154,-0.5649,0.2495,-0.6325,25.4248,-2.9280,39.2352,
6.579496,1.6586,0.0580,0.4738,-0.5649,0.2495,-0.6325,25.4248,-2.9280,39.2352,
6.620947,1.6586,0.0580,0.4738,-0.5649,0.2495,-0.6325,22.2162,-6.4416,41.2848,
6.636014,1.6586,0.0580,0.4738,-0.5649,0.2495,-0.6325,22.2162,-6.4416,41.2848,
6.637809,1.6586,0.0580,0.4738,-0.5649,0.2495,-0.6325,22.2162,-6.4416,41.2848,
6.639755,1.6586,0.0580,0.4738,-0.5649,0.2495,-0.6325,22.2162,-6.4416,41.2848,
6.641703,1.6586,0.0580,0.4738,-0.1148,-0.3197,-0.8586,22.2162,-6.4416,41.2848,
6.651904,0.7947,1.2047,0.1513,-0.1148,-0.3197,-0.8586,22.2162,-6.4416,41.2848,
6.681162,0.7947,1.2047,0.1513,-0.1148,-0.3197,-0.8586,19.4834,-9.5770,42.8586,
6.702937,0.7947,1.2047,0.1513,-0.1148,-0.3197,-0.8586,19.4834,-9.5770,42.8586,
6.706371,0.7947,1.2047,0.1513,-0.1148,-0.3197,-0.8586,19.4834,-9.5770,42.8586,
6.709462,0.7947,1.2047,0.1513,-0.1148,-0.3197,-0.8586,19.4834,-9.5770,42.8586,
6.713346,0.7947,1.2047,0.1513,-0.3065,-0.4457,-0.8458,19.4834,-9.5770,42.8586,
6.720541,0.2895,0.7444,-0.2461,-0.3065,-0.4457,-0.8458,19.4834,-9.5770,42.8586,
6.738916,0.2895,0.7444,-0.2461,-0.3065,-0.4457,-0.8458,17.4948,-12.1146,43.6394,
6.770796,0.2895,0.7444,-0.2461,-0.3065,-0.4457,-0.8458,17.4948,-12.1146,43.6394,
6.774356,0.2895,0.7444,-0.2461,-0.3065,-0.4457,-0.8458,17.4948,-12.1146,43.6394,
6.777183,0.2895,0.7444,-0.2461,-0.3065,-0.4457,-0.8458,17.4948,-12.1146,43.6394,
6.780105,0.2895,0.7444,-0.2461,-0.3065,-0.4457,-0.8458,17.4948,-12.1146,43.6394,
6.782789,0.2895,0.7444,-0.2461,-0.1704,-0.5511,-0.7918,17.4948,-12.1146,43.6394,
6.791203,-0.4757,0.4348,-0.0224,-0.1704,-0.5511,-0.7918,17.4948,-12.1146,43.6394,
6.800080,-0.4757,0.4348,-0.0224,-0.1704,-0.5511,-0.7918,16.3114,-13.9690,43.7126,
6.836310,-0.4757,0.4348,-0.0224,-0.1704,-0.5511,-0.7918,16.3114,-13.9690,43.7126,
6.840027,-0.4757,0.4348,-0.0224,-0.1704,-0.5511,-0.7918,16.3114,-13.9690,43.7126,
6.843019,-0.4757,0.4348,-0.0224,-0.1704,-0.5511,-0.7918,16.3114,-13.9690,43.7126,
6.851123,-0.4757,0.4348,-0.0224,0.1694,-0.7848,-0.7460,16.3114,-13.9690,43.7126,
6.867203,-0.4757,0.4348,-0.0224,0.1694,-0.7848,-0.7460,16.4334,-14.9694,43.2734,
6.871598,-0.2045,-0.3263,-0.3967,0.1694,-0.7848,-0.7460,16.4334,-14.9694,43.2734,
6.903323,-0.2045,-0.3263,-0.3967,0.1694,-0.7848,-0.7460,16.4334,-14.9694,43.2734,
6.906522,-0.2045,-0.3263,-0.3967,0.1694,-0.7848,-0.7460,16.4334,-14.9694,43.2734,
6.908624,-0.2045,-0.3263,-0.3967,0.1694,-0.7848,-0.7460,16.4334,-14.9694,43.2734,
6.918909,-0.2045,-0.3263,-0.3967,0.1694,-0.7848,-0.7460,17.3240,-15.1768,42.5902,
6.922369,-0.2045,-0.3263,-0.3967,0.2269,-0.6537,-0.6602,17.3240,-15.1768,42.5902,
6.929303,-0.0683,0.1196,-0.0879,0.2269,-0.6537,-0.6602,17.3240,-15.1768,42.5902,
6.971373,-0.0683,0.1196,-0.0879,0.2269,-0.6537,-0.6602,17.3240,-15.1768,42.5902,
6.974921,-0.0683,0.1196,-0.0879,0.2269,-0.6537,-0.6602,17.3240,-15.1768,42.5902,
6.977382,-0.0683,0.1196,-0.0879,0.2269,-0.6537,-0.6602,17.3240,-15.1768,42.5902,
6.980812,-0.0683,0.1196,-0.0879,0.2269,-0.6537,-0.6602,17.3240,-15.1768,42.5902,
6.983448,-0.0683,0.1196,-0.0879,0.2269,-0.6537,-0.6602,18.8734,-14.7986,41.8826,
6.988550,-0.0683,0.1196,-0.0879,0.4406,-0.8023,-0.4961,18.8734,-14.7986,41.8826,
6.998208,-0.1121,0.2552,0.1689,0.4406,-0.8023,-0.4961,18.8734,-14.7986,41.8826,
7.037754,-0.1121,0.2552,0.1689,0.4406,-0.8023,-0.4961,20.8254,-13.9324,41.0286,
7.041717,-0.1121,0.2552,0.1689,0.4406,-0.8023,-0.4961,20.8254,-13.9324,41.0286,
7.044307,-0.1121,0.2552,0.1689,0.4406,-0.8023,-0.4961,20.8254,-13.9324,41.0286,
7.046902,-0.1121,0.2552,0.1689,0.4406,-0.8023,-0.4961,20.8254,-13.9324,41.0286,
7.059585,-0.1121,0.2552,0.1689,0.5868,-0.7720,-0.5080,20.8254,-13.9324,41.0286,
7.068536,0.0307,0.1393,0.3263,0.5868,-0.7720,-0.5080,20.8254,-13.9324,41.0286,
7.099413,0.0307,0.1393,0.3263,0.5868,-0.7720,-0.5080,22.9116,-12.6880,40.0282,
7.103995,0.0307,0.1393,0.3263,0.5868,-0.7720,-0.5080,22.9116,-12.6880,40.0282,
7.106855,0.0307,0.1393,0.3263,0.5868,-0.7720,-0.5080,22.9116,-12.6880,40.0282,
7.108982,0.0307,0.1393,0.3263,0.5868,-0.7720,-0.5080,22.9116,-12.6880,40.0282,
7.128043,0.0307,0.1393,0.3263,0.4396,-0.7454,-0.3225,22.9116,-12.6880,40.0282,
7.141138,-0.2053,0.1915,-0.0238,0.4396,-0.7454,-0.3225,22.9116,-12.6880,40.0282,
7.158150,-0.2053,0.1915,-0.0238,0.4396,-0.7454,-0.3225,24.9734,-11.2972,38.8570,
7.172282,-0.2053,0.1915,-0.0238,0.4396,-0.7454,-0.3225,24.9734,-11.2972,38.8570,
7.173674,-0.2053,0.1915,-0.0238,0.4396,-0.7454,-0.3225,24.9734,-11.2972,38.8570,
7.174749,-0.2053,0.1915,-0.0238,0.4396,-0.7454,-0.3225,24.9734,-11.2972,38.8570,
7.175675,-0.2053,0.1915,-0.0238,0.4396,-0.7454,-0.3225,24.9734,-11.2972,38.8570,
7.199498,-0.2053,0.1915,-0.0238,0.3700,-0.5776,-0.1577,24.9734,-11.2972,38.8570,
7.208884,-0.2844,0.6040,-0.0886,0.3700,-0.5776,-0.1577,24.9734,-11.2972,38.8570,
7.219069,-0.2844,0.6040,-0.0886,0.3700,-0.5776,-0.1577,26.9376,-9.8576,37.6980,
7.236720,-0.2844,0.6040,-0.0886,0.3700,-0.5776,-0.1577,26.9376,-9.8576,37.6980,
7.239853,-0.2844,0.6040,-0.0886,0.3700,-0.5776,-0.1577,26.9376,-9.8576,37.6980,
7.241921,-0.2844,0.6040,-0.0886,0.3700,-0.5776,-0.1577,26.9376,-9.8576,37.6980,
7.269048,-0.2844,0.6040,-0.0886,0.2706,-0.9832,-0.1961,26.9376,-9.8576,37.6980,
7.279147,-0.2844,0.6040,-0.0886,0.2706,-0.9832,-0.1961,28.9140,-8.3692,36.4658,
7.282886,0.5778,1.5116,-0.1919,0.2706,-0.9832,-0.1961,28.9140,-8.3692,36.4658,
7.303294,0.5778,1.5116,-0.1919,0.2706,-0.9832,-0.1961,28.9140,-8.3692,36.4658,
7.306466,0.5778,1.5116,-0.1919,0.2706,-0.9832,-0.1961,28.9140,-8.3692,36.4658,
7.308907,0.5778,1.5116,-0.1919,0.2706,-0.9832,-0.1961,28.9140,-8.3692,36.4658,
7.339425,0.5778,1.5116,-0.1919,0.2706,-0.9832,-0.1961,30.6830,-6.9296,35.1238,
7.343880,0.5778,1.5116,-0.1919,0.2067,-0.6171,-0.1791,30.6830,-6.9296,35.1238,
7.348366,-1.2066,2.3408,0.2273,0.2067,-0.6171,-0.1791,30.6830,-6.9296,35.1238,
7.370887,-1.2066,2.3408,0.2273,0.2067,-0.6171,-0.1791,30.6830,-6.9296,35.1238,
7.374484,-1.2066,2.3408,0.2273,0.2067,-0.6171,-0.1791,30.6830,-6.9296,35.1238,
7.376944,-1.2066,2.3408,0.2273,0.2067,-0.6171,-0.1791,30.6830,-6.9296,35.1238,
7.379532,-1.2066,2.3408,0.2273,0.2067,-0.6171,-0.1791,30.6830,-6.9296,35.1238,
7.397032,-1.2066,2.3408,0.2273,0.2067,-0.6171,-0.1791,32.2324,-5.4778,33.8672,
7.408981,-1.2066,2.3408,0.2273,0.3477,0.2405,-0.5710,32.2324,-5.4778,33.8672,
7.417137,-1.4795,1.4347,1.3137,0.3477,0.2405,-0.5710,32.2324,-5.4778,33.8672,
7.435472,-1.4795,1.4347,1.3137,0.3477,0.2405,-0.5710,32.2324,-5.4778,33.8672,
7.437254,-1.4795,1.4347,1.3137,0.3477,0.2405,-0.5710,32.2324,-5.4778,33.8672,
7.438521,-1.4795,1.4347,1.3137,0.3477,0.2405,-0.5710,32.2324,-5.4778,33.8672,
7.457157,-1.4795,1.4347,1.3137,0.3477,0.2405,-0.5710,33.5378,-4.0504,32.8912,
7.477704,-1.4795,1.4347,1.3137,0.1811,0.1798,-0.4194,33.5378,-4.0504,32.8912,
7.486504,0.3460,1.0436,-0.8821,0.1811,0.1798,-0.4194,33.5378,-4.0504,32.8912,
7.502824,0.3460,1.0436,-0.8821,0.1811,0.1798,-0.4194,33.5378,-4.0504,32.8912,
7.505902,0.3460,1.0436,-0.8821,0.1811,0.1798,-0.4194,33.5378,-4.0504,32.8912,
7.507848,0.3460,1.0436,-0.8821,0.1811,0.1798,-0.4194,33.5378,-4.0504,32.8912,
7.516637,0.3460,1.0436,-0.8821,0.1811,0.1798,-0.4194,34.5016,-2.6840,32.0006,
7.546906,0.3460,1.0436,-0.8821,0.5446,-0.3447,0.1261,34.5016,-2.6840,32.0006,
7.558097,0.7640,-1.4859,-0.5101,0.5446,-0.3447,0.1261,34.5016,-2.6840,32.0006,
7.569575,0.7640,-1.4859,-0.5101,0.5446,-0.3447,0.1261,34.5016,-2.6840,32.0006,
7.572874,0.7640,-1.4859,-0.5101,0.5446,-0.3447,0.1261,34.5016,-2.6840,32.0006,
7.574632,0.7640,-1.4859,-0.5101,0.5446,-0.3447,0.1261,34.5016,-2.6840,32.0006,
7.575739,0.7640,-1.4859,-0.5101,0.5446,-0.3447,0.1261,34.5016,-2.6840,32.0006,
7.576834,0.7640,-1.4859,-0.5101,0.5446,-0.3447,0.1261,35.3678,-1.5006,31.1344,
7.616840,0.7640,-1.4859,-0.5101,0.3188,0.2831,-0.1437,35.3678,-1.5006,31.1344,
7.626230,0.0261,-1.0736,-0.7726,0.3188,0.2831,-0.1437,35.3678,-1.5006,31.1344,
7.638399,0.0261,-1.0736,-0.7726,0.3188,0.2831,-0.1437,36.0022,-0.3904,30.5610,
7.640161,0.0261,-1.0736,-0.7726,0.3188,0.2831,-0.1437,36.0022,-0.3904,30.5610,
7.640919,0.0261,-1.0736,-0.7726,0.3188,0.2831,-0.1437,36.0022,-0.3904,30.5610,
7.641645,0.0261,-1.0736,-0.7726,0.3188,0.2831,-0.1437,36.0022,-0.3904,30.5610,
7.687880,0.0261,-1.0736,-0.7726,0.0124,-0.0469,-0.2212,36.0022,-0.3904,30.5610,
7.703364,0.3838,0.0223,-0.1310,0.0124,-0.0469,-0.2212,36.0022,-0.3904,30.5610,
7.706842,0.3838,0.0223,-0.1310,0.0124,-0.0469,-0.2212,36.0022,-0.3904,30.5610,
7.709378,0.3838,0.0223,-0.1310,0.0124,-0.0469,-0.2212,36.0022,-0.3904,30.5610,
7.712288,0.3838,0.0223,-0.1310,0.0124,-0.0469,-0.2212,36.0022,-0.3904,30.5610,
7.715061,0.3838,0.0223,-0.1310,0.0124,-0.0469,-0.2212,36.3804,0.6344,30.1096,
7.758095,0.3838,0.0223,-0.1310,0.0286,-0.4157,-0.0615,36.3804,0.6344,30.1096,
7.766760,0.3838,0.0223,-0.1310,0.0286,-0.4157,-0.0615,36.6610,1.5860,29.8046,
7.768872,0.4401,0.1445,0.2794,0.0286,-0.4157,-0.0615,36.6610,1.5860,29.8046,
7.770672,0.4401,0.1445,0.2794,0.0286,-0.4157,-0.0615,36.6610,1.5860,29.8046,
7.771885,0.4401,0.1445,0.2794,0.0286,-0.4157,-0.0615,36.6610,1.5860,29.8046,
7.773056,0.4401,0.1445,0.2794,0.0286,-0.4157,-0.0615,36.6610,1.5860,29.8046,
7.774302,0.4401,0.1445,0.2794,0.0286,-0.4157,-0.0615,36.6610,1.5860,29.8046,
7.827399,0.4401,0.1445,0.2794,0.0286,-0.4157,-0.0615,36.8562,2.5254,29.6216,
7.830865,0.4401,0.1445,0.2794,0.1682,-0.2085,-0.0213,36.8562,2.5254,29.6216,
7.836506,-0.0712,0.3310,0.0347,0.1682,-0.2085,-0.0213,36.8562,2.5254,29.6216,
7.839607,-0.0712,0.3310,0.0347,0.1682,-0.2085,-0.0213,36.8562,2.5254,29.6216,
7.841265,-0.0712,0.3310,0.0347,0.1682,-0.2085,-0.0213,36.8562,2.5254,29.6216,
7.843032,-0.0712,0.3310,0.0347,0.1682,-0.2085,-0.0213,36.8562,2.5254,29.6216,
7.889115,-0.0712,0.3310,0.0347,0.1682,-0.2085,-0.0213,36.9904,3.2208,29.4752,
7.895984,-0.0712,0.3310,0.0347,-0.1308,-0.1679,0.0276,36.9904,3.2208,29.4752,
7.902238,-0.0712,0.3310,0.0347,-0.1308,-0.1679,0.0276,36.9904,3.2208,29.4752,
7.904286,-0.0712,0.3310,0.0347,-0.1308,-0.1679,0.0276,36.9904,3.2208,29.4752,
7.906213,-0.0712,0.3310,0.0347,-0.1308,-0.1679,0.0276,36.9904,3.2208,29.4752,
7.909099,0.3169,0.7187,0.0761,-0.1308,-0.1679,0.0276,36.9904,3.2208,29.4752,
7.945574,0.3169,0.7187,0.0761,-0.1308,-0.1679,0.0276,37.2100,3.6722,29.1702,
7.965194,0.3169,0.7187,0.0761,-0.0855,-0.0633,0.0754,37.2100,3.6722,29.1702,
7.969237,0.3169,0.7187,0.0761,-0.0855,-0.0633,0.0754,37.2100,3.6722,29.1702,
7.972383,0.3169,0.7187,0.0761,-0.0855,-0.0633,0.0754,37.2100,3.6722,29.1702,
7.975827,0.3169,0.7187,0.0761,-0.0855,-0.0633,0.0754,37.2100,3.6722,29.1702,
7.977925,0.3169,0.7187,0.0761,-0.0855,-0.0633,0.0754,37.2100,3.6722,29.1702,
7.979374,0.6944,0.3824,0.1312,-0.0855,-0.0633,0.0754,37.2100,3.6722,29.1702,
8.004883,0.6944,0.3824,0.1312,-0.0855,-0.0633,0.0754,37.4906,3.8674,28.9750,
8.034813,0.6944,0.3824,0.1312,0.0567,-0.0346,0.1057,37.4906,3.8674,28.9750,
8.036014,0.6944,0.3824,0.1312,0.0567,-0.0346,0.1057,37.4906,3.8674,28.9750,
8.036494,0.6944,0.3824,0.1312,0.0567,-0.0346,0.1057,37.4906,3.8674,28.9750,
8.036939,0.6944,0.3824,0.1312,0.0567,-0.0346,0.1057,37.4906,3.8674,28.9750,
8.044881,-0.0656,-0.5868,0.2848,0.0567,-0.0346,0.1057,37.4906,3.8674,28.9750,
8.063964,-0.0656,-0.5868,0.2848,0.0567,-0.0346,0.1057,37.7468,3.8918,28.9872,
8.102910,-0.0656,-0.5868,0.2848,0.0567,-0.0346,0.1057,37.7468,3.8918,28.9872,
8.103716,-0.0656,-0.5868,0.2848,0.0567,-0.0346,0.1057,37.7468,3.8918,28.9872,
8.103927,-0.0656,-0.5868,0.2848,0.0567,-0.0346,0.1057,37.7468,3.8918,28.9872,
8.104143,-0.0656,-0.5868,0.2848,0.0925,-0.0646,0.0225,37.7468,3.8918,28.9872,
8.114443,-0.5972,-0.8377,0.1922,0.0925,-0.0646,0.0225,37.7468,3.8918,28.9872,
8.123929,-0.5972,-0.8377,0.1922,0.0925,-0.0646,0.0225,38.0152,3.8796,28.7920,
8.169324,-0.5972,-0.8377,0.1922,0.0925,-0.0646,0.0225,38.0152,3.8796,28.7920,
8.170580,-0.5972,-0.8377,0.1922,0.0925,-0.0646,0.0225,38.0152,3.8796,28.7920,
8.171001,-0.5972,-0.8377,0.1922,0.0925,-0.0646,0.0225,38.0152,3.8796,28.7920,
8.171395,-0.5972,-0.8377,0.1922,0.0925,-0.0646,0.0225,38.0152,3.8796,28.7920,
8.174080,-0.5972,-0.8377,0.1922,-0.0786,-0.1145,-0.0105,38.0152,3.8796,28.7920,
8.183975,-0.5972,-0.8377,0.1922,-0.0786,-0.1145,-0.0105,38.3446,3.7820,28.6700,
8.185838,-0.0839,0.0644,-0.0371,-0.0786,-0.1145,-0.0105,38.3446,3.7820,28.6700,
8.235311,-0.0839,0.0644,-0.0371,-0.0786,-0.1145,-0.0105,38.3446,3.7820,28.6700,
8.236337,-0.0839,0.0644,-0.0371,-0.0786,-0.1145,-0.0105,38.3446,3.7820,28.6700,
8.236759,-0.0839,0.0644,-0.0371,-0.0786,-0.1145,-0.0105,38.3446,3.7820,28.6700,
8.243740,-0.0839,0.0644,-0.0371,-0.0786,-0.1145,-0.0105,38.6496,3.6234,28.5602,
8.245462,-0.0839,0.0644,-0.0371,-0.0997,-0.1545,-0.0796,38.6496,3.6234,28.5602,
8.253796,-0.0683,0.1592,0.0667,-0.0997,-0.1545,-0.0796,38.6496,3.6234,28.5602,
8.302003,-0.0683,0.1592,0.0667,-0.0997,-0.1545,-0.0796,38.8936,3.4404,28.5480,
8.303265,-0.0683,0.1592,0.0667,-0.0997,-0.1545,-0.0796,38.8936,3.4404,28.5480,
8.303853,-0.0683,0.1592,0.0667,-0.0997,-0.1545,-0.0796,38.8936,3.4404,28.5480,
8.304397,-0.0683,0.1592,0.0667,-0.0997,-0.1545,-0.0796,38.8936,3.4404,28.5480,
8.313172,-0.0683,0.1592,0.0667,-0.1025,-0.0635,-0.0864,38.8936,3.4404,28.5480,
8.322938,-0.2813,-0.3635,0.0345,-0.1025,-0.0635,-0.0864,38.8936,3.4404,28.5480,
8.363353,-0.2813,-0.3635,0.0345,-0.1025,-0.0635,-0.0864,39.1620,3.2330,28.5480,
8.367964,-0.2813,-0.3635,0.0345,-0.1025,-0.0635,-0.0864,39.1620,3.2330,28.5480,
8.368535,-0.2813,-0.3635,0.0345,-0.1025,-0.0635,-0.0864,39.1620,3.2330,28.5480,
8.368837,-0.2813,-0.3635,0.0345,-0.1025,-0.0635,-0.0864,39.1620,3.2330,28.5480,
8.369143,-0.2813,-0.3635,0.0345,-0.1025,-0.0635,-0.0864,39.1620,3.2330,28.5480,
8.382523,-0.2813,-0.3635,0.0345,-0.0824,-0.0698,-0.0238,39.1620,3.2330,28.5480,
8.392440,-0.0951,-0.2157,0.1323,-0.0824,-0.0698,-0.0238,39.1620,3.2330,28.5480,
8.422514,-0.0951,-0.2157,0.1323,-0.0824,-0.0698,-0.0238,39.3572,3.0622,28.5236,
8.434318,-0.0951,-0.2157,0.1323,-0.0824,-0.0698,-0.0238,39.3572,3.0622,28.5236,
8.435295,-0.0951,-0.2157,0.1323,-0.0824,-0.0698,-0.0238,39.3572,3.0622,28.5236,
8.435945,-0.0951,-0.2157,0.1323,-0.0824,-0.0698,-0.0238,39.3572,3.0622,28.5236,
8.452269,-0.0951,-0.2157,0.1323,-0.0539,0.0075,0.0224,39.3572,3.0622,28.5236,
8.462636,-0.0677,-0.2064,-0.0064,-0.0539,0.0075,0.0224,39.3572,3.0622,28.5236,
8.482161,-0.0677,-0.2064,-0.0064,-0.0539,0.0075,0.0224,39.5768,3.0134,28.4992,
8.501854,-0.0677,-0.2064,-0.0064,-0.0539,0.0075,0.0224,39.5768,3.0134,28.4992,
8.502381,-0.0677,-0.2064,-0.0064,-0.0539,0.0075,0.0224,39.5768,3.0134,28.4992,
8.502574,-0.0677,-0.2064,-0.0064,-0.0539,0.0075,0.0224,39.5768,3.0134,28.4992,
8.502777,-0.0677,-0.2064,-0.0064,-0.0539,0.0075,0.0224,39.5768,3.0134,28.4992,
8.521915,-0.0677,-0.2064,-0.0064,-0.0828,-0.0160,-0.0085,39.5768,3.0134,28.4992,
8.532074,-0.0768,-0.2886,0.1366,-0.0828,-0.0160,-0.0085,39.5768,3.0134,28.4992,
8.542065,-0.0768,-0.2886,0.1366,-0.0828,-0.0160,-0.0085,39.6500,3.0866,28.2918,
8.569799,-0.0768,-0.2886,0.1366,-0.0828,-0.0160,-0.0085,39.6500,3.0866,28.2918,
8.572876,-0.0768,-0.2886,0.1366,-0.0828,-0.0160,-0.0085,39.6500,3.0866,28.2918,
8.574768,-0.0768,-0.2886,0.1366,-0.0828,-0.0160,-0.0085,39.6500,3.0866,28.2918,
8.592572,-0.0768,-0.2886,0.1366,-0.0651,0.0312,-0.0322,39.6500,3.0866,28.2918,
8.602720,-0.0768,-0.2886,0.1366,-0.0651,0.0312,-0.0322,39.6744,3.1110,28.0722,
8.603825,-0.2299,-0.0883,0.1093,-0.0651,0.0312,-0.0322,39.6744,3.1110,28.0722,
8.635646,-0.2299,-0.0883,0.1093,-0.0651,0.0312,-0.0322,39.6744,3.1110,28.0722,
8.637027,-0.2299,-0.0883,0.1093,-0.0651,0.0312,-0.0322,39.6744,3.1110,28.0722,
8.637814,-0.2299,-0.0883,0.1093,-0.0651,0.0312,-0.0322,39.6744,3.1110,28.0722,
8.662461,-0.2299,-0.0883,0.1093,-0.0675,-0.0324,-0.0020,39.6744,3.1110,28.0722,
8.663947,-0.2299,-0.0883,0.1093,-0.0675,-0.0324,-0.0020,39.6988,3.1842,27.7550,
8.672146,-0.0685,-0.2799,0.1652,-0.0675,-0.0324,-0.0020,39.6988,3.1842,27.7550,
8.703464,-0.0685,-0.2799,0.1652,-0.0675,-0.0324,-0.0020,39.6988,3.1842,27.7550,
8.704957,-0.0685,-0.2799,0.1652,-0.0675,-0.0324,-0.0020,39.6988,3.1842,27.7550,
8.705857,-0.0685,-0.2799,0.1652,-0.0675,-0.0324,-0.0020,39.6988,3.1842,27.7550,
8.706921,-0.0685,-0.2799,0.1652,-0.0675,-0.0324,-0.0020,39.6988,3.1842,27.7550,
8.722410,-0.0685,-0.2799,0.1652,-0.0675,-0.0324,-0.0020,39.6622,3.2330,27.5232,
8.732043,-0.0685,-0.2799,0.1652,-0.0015,-0.0763,0.0104,39.6622,3.2330,27.5232,
8.742039,0.1137,0.0031,0.0762,-0.0015,-0.0763,0.0104,39.6622,3.2330,27.5232,
8.770282,0.1137,0.0031,0.0762,-0.0015,-0.0763,0.0104,39.6622,3.2330,27.5232,
8.771731,0.1137,0.0031,0.0762,-0.0015,-0.0763,0.0104,39.6622,3.2330,27.5232,
8.772558,0.1137,0.0031,0.0762,-0.0015,-0.0763,0.0104,39.6622,3.2330,27.5232,
8.781755,0.1137,0.0031,0.0762,-0.0015,-0.0763,0.0104,39.6134,3.2940,27.2426,
8.803286,0.1137,0.0031,0.0762,0.0095,-0.0345,-0.0385,39.6134,3.2940,27.2426,
8.813106,-0.0806,-0.0367,-0.1101,0.0095,-0.0345,-0.0385,39.6134,3.2940,27.2426,
8.836767,-0.0806,-0.0367,-0.1101,0.0095,-0.0345,-0.0385,39.6134,3.2940,27.2426,
8.838413,-0.0806,-0.0367,-0.1101,0.0095,-0.0345,-0.0385,39.6134,3.2940,27.2426,
8.839184,-0.0806,-0.0367,-0.1101,0.0095,-0.0345,-0.0385,39.6134,3.2940,27.2426,
8.841628,-0.0806,-0.0367,-0.1101,0.0095,-0.0345,-0.0385,39.5402,3.4038,26.9376,
8.871875,-0.0806,-0.0367,-0.1101,-0.0329,-0.0128,-0.0525,39.5402,3.4038,26.9376,
8.883789,0.0597,0.0433,-0.0455,-0.0329,-0.0128,-0.0525,39.5402,3.4038,26.9376,
8.901025,0.0597,0.0433,-0.0455,-0.0329,-0.0128,-0.0525,39.4548,3.5136,26.6692,
8.902765,0.0597,0.0433,-0.0455,-0.0329,-0.0128,-0.0525,39.4548,3.5136,26.6692,
8.903727,0.0597,0.0433,-0.0455,-0.0329,-0.0128,-0.0525,39.4548,3.5136,26.6692,
8.904638,0.0597,0.0433,-0.0455,-0.0329,-0.0128,-0.0525,39.4548,3.5136,26.6692,
8.905542,0.0597,0.0433,-0.0455,-0.0329,-0.0128,-0.0525,39.4548,3.5136,26.6692,
8.943200,0.0597,0.0433,-0.0455,-0.0041,-0.0370,-0.0320,39.4548,3.5136,26.6692,
8.952917,0.1561,-0.0244,-0.0869,-0.0041,-0.0370,-0.0320,39.4548,3.5136,26.6692,
8.961659,0.1561,-0.0244,-0.0869,-0.0041,-0.0370,-0.0320,39.3450,3.6234,26.3398,
8.968073,0.1561,-0.0244,-0.0869,-0.0041,-0.0370,-0.0320,39.3450,3.6234,26.3398,
8.969454,0.1561,-0.0244,-0.0869,-0.0041,-0.0370,-0.0320,39.3450,3.6234,26.3398,
8.970890,0.1561,-0.0244,-0.0869,-0.0041,-0.0370,-0.0320,39.3450,3.6234,26.3398,
9.012595,0.1561,-0.0244,-0.0869,-0.0141,-0.0178,-0.0278,39.3450,3.6234,26.3398,
9.022873,0.1561,-0.0244,-0.0869,-0.0141,-0.0178,-0.0278,39.3206,3.6722,26.1080,
9.026753,-0.0586,-0.2342,-0.0739,-0.0141,-0.0178,-0.0278,39.3206,3.6722,26.1080,
9.037126,-0.0586,-0.2342,-0.0739,-0.0141,-0.0178,-0.0278,39.3206,3.6722,26.1080,
9.040292,-0.0586,-0.2342,-0.0739,-0.0141,-0.0178,-0.0278,39.3206,3.6722,26.1080,
9.042880,-0.0586,-0.2342,-0.0739,-0.0141,-0.0178,-0.0278,39.3206,3.6722,26.1080,
9.082890,-0.0586,-0.2342,-0.0739,-0.0141,-0.0178,-0.0278,39.3572,3.7088,25.9738,
9.086966,-0.0586,-0.2342,-0.0739,-0.0301,-0.0317,-0.0257,39.3572,3.7088,25.9738,
9.094940,-0.0947,0.0051,0.0122,-0.0301,-0.0317,-0.0257,39.3572,3.7088,25.9738,
9.103441,-0.0947,0.0051,0.0122,-0.0301,-0.0317,-0.0257,39.3572,3.7088,25.9738,
9.106505,-0.0947,0.0051,0.0122,-0.0301,-0.0317,-0.0257,39.3572,3.7088,25.9738,
9.109453,-0.0947,0.0051,0.0122,-0.0301,-0.0317,-0.0257,39.3572,3.7088,25.9738,
9.113127,-0.0947,0.0051,0.0122,-0.0301,-0.0317,-0.0257,39.3572,3.7088,25.9738,
9.142185,-0.0947,0.0051,0.0122,-0.0301,-0.0317,-0.0257,39.3938,3.7576,25.9128,
9.151001,-0.0947,0.0051,0.0122,0.0478,0.0501,-0.0372,39.3938,3.7576,25.9128,
9.166405,-0.1372,-0.0522,-0.1242,0.0478,0.0501,-0.0372,39.3938,3.7576,25.9128,
9.169672,-0.1372,-0.0522,-0.1242,0.0478,0.0501,-0.0372,39.3938,3.7576,25.9128,
9.171514,-0.1372,-0.0522,-0.1242,0.0478,0.0501,-0.0372,39.3938,3.7576,25.9128,
9.172676,-0.1372,-0.0522,-0.1242,0.0478,0.0501,-0.0372,39.3938,3.7576,25.9128,
9.202289,-0.1372,-0.0522,-0.1242,0.0478,0.0501,-0.0372,39.4060,3.8186,25.7664,
9.221879,-0.1372,-0.0522,-0.1242,-0.0237,0.0348,-0.0471,39.4060,3.8186,25.7664,
9.233680,-0.0091,-0.1757,0.0125,-0.0237,0.0348,-0.0471,39.4060,3.8186,25.7664,
9.237686,-0.0091,-0.1757,0.0125,-0.0237,0.0348,-0.0471,39.4060,3.8186,25.7664,
9.240398,-0.0091,-0.1757,0.0125,-0.0237,0.0348,-0.0471,39.4060,3.8186,25.7664,
9.242850,-0.0091,-0.1757,0.0125,-0.0237,0.0348,-0.0471,39.4060,3.8186,25.7664,
9.261887,-0.0091,-0.1757,0.0125,-0.0237,0.0348,-0.0471,39.3938,3.8918,25.7298,
9.291945,-0.0091,-0.1757,0.0125,-0.0148,-0.0089,0.0202,39.3938,3.8918,25.7298,
9.301399,-0.0718,-0.0046,-0.0675,-0.0148,-0.0089,0.0202,39.3938,3.8918,25.7298,
9.303350,-0.0718,-0.0046,-0.0675,-0.0148,-0.0089,0.0202,39.3938,3.8918,25.7298,
9.304585,-0.0718,-0.0046,-0.0675,-0.0148,-0.0089,0.0202,39.3938,3.8918,25.7298,
9.305842,-0.0718,-0.0046,-0.0675,-0.0148,-0.0089,0.0202,39.3938,3.8918,25.7298,
9.307246,-0.0718,-0.0046,-0.0675,-0.0148,-0.0089,0.0202,39.3938,3.8918,25.7298,
9.320126,-0.0718,-0.0046,-0.0675,-0.0148,-0.0089,0.0202,39.3816,3.9040,25.7542,
9.361103,-0.0718,-0.0046,-0.0675,-0.0100,-0.0205,0.0450,39.3816,3.9040,25.7542,
9.369099,-0.0391,0.2617,0.0620,-0.0100,-0.0205,0.0450,39.3816,3.9040,25.7542,
9.370454,-0.0391,0.2617,0.0620,-0.0100,-0.0205,0.0450,39.3816,3.9040,25.7542,
9.371392,-0.0391,0.2617,0.0620,-0.0100,-0.0205,0.0450,39.3816,3.9040,25.7542,
9.372227,-0.0391,0.2617,0.0620,-0.0100,-0.0205,0.0450,39.3816,3.9040,25.7542,
9.379687,-0.0391,0.2617,0.0620,-0.0100,-0.0205,0.0450,39.3816,3.9040,25.7542,
9.430234,-0.0391,0.2617,0.0620,0.1276,-0.0513,0.0130,39.3816,3.9040,25.7542,
9.433877,-0.0391,0.2617,0.0620,0.1276,-0.0513,0.0130,39.3572,3.9284,25.7786,
9.435640,-0.0391,0.2617,0.0620,0.1276,-0.0513,0.0130,39.3572,3.9284,25.7786,
9.437077,-0.0391,0.2617,0.0620,0.1276,-0.0513,0.0130,39.3572,3.9284,25.7786,
9.438522,-0.0391,0.2617,0.0620,0.1276,-0.0513,0.0130,39.3572,3.9284,25.7786,
9.439760,0.0569,-0.1627,-0.0420,0.1276,-0.0513,0.0130,39.3572,3.9284,25.7786,
