
time,ax,ay,az,wx,wy,wz,Bx,By,Bz,
0.056082,-0.2195,-0.8088,0.5906,0.0000,0.0000,0.0000,0.0000,0.0000,0.0000,
0.071614,-0.2195,-0.8088,0.5906,0.0000,0.0000,0.0000,0.0000,0.0000,0.0000,
0.091671,-0.2195,-0.8088,0.5906,0.0000,0.0000,0.0000,0.0000,0.0000,0.0000,
0.094300,-0.2195,-0.8088,0.5906,0.0000,0.0000,0.0000,0.0000,0.0000,0.0000,
0.096542,-0.2195,-0.8088,0.5906,0.0000,0.0000,0.0000,38.9438,7.6688,19.0875,
0.099411,-0.2195,-0.8088,0.5906,-0.0104,-0.1222,-0.0212,38.9438,7.6688,19.0875,
0.110099,-0.2195,-0.8088,0.5906,-0.0104,-0.1222,-0.0212,38.9438,7.6688,19.0875,
0.135765,0.0890,-0.3464,-0.0225,-0.0104,-0.1222,-0.0212,38.9438,7.6688,19.0875,
0.147615,0.0890,-0.3464,-0.0225,-0.0104,-0.1222,-0.0212,38.9438,7.6688,19.0875,
0.150053,0.0660,-0.2610,-0.1181,-0.0104,-0.1222,-0.0212,38.9438,7.6688,19.0875,
0.152936,0.0660,-0.2610,-0.1181,-0.0104,-0.1222,-0.0212,38.9625,7.3688,18.9750,
0.157818,0.0660,-0.2610,-0.1181,0.0043,-0.1710,-0.0334,38.9625,7.3688,18.9750,
0.167258,0.0863,-0.2408,-0.0701,0.0043,-0.1710,-0.0334,38.9625,7.3688,18.9750,
0.189178,0.0613,-0.2300,0.0063,0.0043,-0.1710,-0.0334,38.9625,7.3688,18.9750,
0.206361,0.0766,-0.2573,-0.0334,0.0043,-0.1710,-0.0334,38.9625,7.3688,18.9750,
0.215070,0.0766,-0.2573,-0.0334,0.0043,-0.1710,-0.0334,38.9625,7.3688,18.9750,
0.217428,0.0766,-0.2573,-0.0334,0.0043,-0.1710,-0.0334,39.9375,7.4625,18.6375,
0.220048,0.0766,-0.2573,-0.0334,0.0103,-0.2248,-0.0481,39.9375,7.4625,18.6375,
0.225335,0.0697,-0.3421,-0.0189,0.0103,-0.2248,-0.0481,39.9375,7.4625,18.6375,
0.245890,0.0882,-0.3570,-0.0022,0.0103,-0.2248,-0.0481,39.9375,7.4625,18.6375,
0.269977,0.1772,-0.2833,-0.0916,0.0103,-0.2248,-0.0481,39.9375,7.4625,18.6375,
0.273202,0.1772,-0.2833,-0.0916,0.0103,-0.2248,-0.0481,39.6188,7.8938,18.3375,
0.275957,0.1772,-0.2833,-0.0916,0.0103,-0.2248,-0.0481,39.6188,7.8938,18.3375,
0.280896,0.1772,-0.2833,-0.0916,0.0213,-0.2553,-0.0615,39.6188,7.8938,18.3375,
0.281728,0.2590,-0.2365,-0.1543,0.0213,-0.2553,-0.0615,39.6188,7.8938,18.3375,
0.302568,0.2840,-0.2331,-0.0703,0.0213,-0.2553,-0.0615,39.6188,7.8938,18.3375,
0.325602,0.2146,-0.2149,-0.1246,0.0213,-0.2553,-0.0615,39.6188,7.8938,18.3375,
0.335515,0.2146,-0.2149,-0.1246,0.0213,-0.2553,-0.0615,39.8250,8.0438,17.1938,
0.338310,0.2146,-0.2149,-0.1246,0.0213,-0.2553,-0.0615,39.8250,8.0438,17.1938,
0.341081,0.0648,-0.2636,-0.1739,0.0213,-0.2553,-0.0615,39.8250,8.0438,17.1938,
0.347636,0.0648,-0.2636,-0.1739,0.0410,-0.3396,-0.0615,39.8250,8.0438,17.1938,
0.359337,0.0095,-0.2928,-0.1574,0.0410,-0.3396,-0.0615,39.8250,8.0438,17.1938,
0.379962,0.0533,-0.2379,-0.2336,0.0410,-0.3396,-0.0615,39.8250,8.0438,17.1938,
0.391478,0.0533,-0.2379,-0.2336,0.0410,-0.3396,-0.0615,40.4250,7.9688,16.4438,
0.401803,0.0533,-0.2379,-0.2336,0.0410,-0.3396,-0.0615,40.4250,7.9688,16.4438,
0.404337,0.1248,-0.1880,-0.2828,0.0410,-0.3396,-0.0615,40.4250,7.9688,16.4438,
0.407073,0.1248,-0.1880,-0.2828,0.0641,-0.4093,-0.0566,40.4250,7.9688,16.4438,
0.416593,0.1979,-0.1525,-0.2268,0.0641,-0.4093,-0.0566,40.4250,7.9688,16.4438,
0.438367,0.2952,-0.0952,-0.3011,0.0641,-0.4093,-0.0566,40.4250,7.9688,16.4438,
0.449877,0.2952,-0.0952,-0.3011,0.0641,-0.4093,-0.0566,41.1938,8.4563,14.4563,
0.454558,0.2676,-0.0884,-0.2767,0.0641,-0.4093,-0.0566,41.1938,8.4563,14.4563,
0.458750,0.2676,-0.0884,-0.2767,0.0641,-0.4093,-0.0566,41.1938,8.4563,14.4563,
0.468444,0.2676,-0.0884,-0.2767,0.0703,-0.4239,-0.0322,41.1938,8.4563,14.4563,
0.479429,0.1172,-0.0816,-0.3683,0.0703,-0.4239,-0.0322,41.1938,8.4563,14.4563,
0.492839,0.0001,-0.1084,-0.4663,0.0703,-0.4239,-0.0322,41.1938,8.4563,14.4563,
0.512861,0.0001,-0.1084,-0.4663,0.0703,-0.4239,-0.0322,40.8188,8.5125,13.8375,
0.514039,0.0573,-0.1257,-0.4309,0.0703,-0.4239,-0.0322,40.8188,8.5125,13.8375,
0.524266,0.0573,-0.1257,-0.4309,0.0703,-0.4239,-0.0322,40.8188,8.5125,13.8375,
0.537499,0.0573,-0.1257,-0.4309,0.0385,-0.3836,0.0546,40.8188,8.5125,13.8375,
0.541685,0.0538,-0.2005,-0.4586,0.0385,-0.3836,0.0546,40.8188,8.5125,13.8375,
0.550185,-0.0142,-0.1726,-0.5695,0.0385,-0.3836,0.0546,40.8188,8.5125,13.8375,
0.569880,0.0080,-0.1427,-0.6137,0.0385,-0.3836,0.0546,40.8188,8.5125,13.8375,
0.571325,0.0080,-0.1427,-0.6137,0.0385,-0.3836,0.0546,41.6063,8.6438,12.8813,
0.582630,0.0080,-0.1427,-0.6137,0.0385,-0.3836,0.0546,41.6063,8.6438,12.8813,
0.591575,-0.0138,-0.1661,-0.5325,0.0385,-0.3836,0.0546,41.6063,8.6438,12.8813,
0.595629,-0.0138,-0.1661,-0.5325,-0.0227,-0.2749,0.0459,41.6063,8.6438,12.8813,
0.606459,-0.2364,0.0489,-0.4568,-0.0227,-0.2749,0.0459,41.6063,8.6438,12.8813,
0.627477,-0.4609,-0.0271,-0.5578,-0.0227,-0.2749,0.0459,41.6063,8.6438,12.8813,
0.635573,-0.4609,-0.0271,-0.5578,-0.0227,-0.2749,0.0459,41.3250,8.3625,12.4688,
0.646290,-0.4609,-0.0271,-0.5578,-0.0227,-0.2749,0.0459,41.3250,8.3625,12.4688,
0.647434,-0.7466,-0.1548,-0.6944,-0.0227,-0.2749,0.0459,41.3250,8.3625,12.4688,
0.657705,-0.7466,-0.1548,-0.6944,-0.1570,-0.3678,0.0692,41.3250,8.3625,12.4688,
0.668890,-0.6495,-0.2661,-0.4406,-0.1570,-0.3678,0.0692,41.3250,8.3625,12.4688,
0.691803,-0.4573,-0.4692,-0.2038,-0.1570,-0.3678,0.0692,41.3250,8.3625,12.4688,
0.695217,-0.4573,-0.4692,-0.2038,-0.1570,-0.3678,0.0692,41.4188,8.5125,11.5312,
0.702724,-0.2325,-0.4770,-0.2368,-0.1570,-0.3678,0.0692,41.4188,8.5125,11.5312,
0.713152,-0.2325,-0.4770,-0.2368,-0.1570,-0.3678,0.0692,41.4188,8.5125,11.5312,
0.716552,-0.2325,-0.4770,-0.2368,-0.0605,-0.2883,0.0337,41.4188,8.5125,11.5312,
0.725390,-0.1725,-0.2882,-0.1241,-0.0605,-0.2883,0.0337,41.4188,8.5125,11.5312,
0.746217,-0.1671,-0.0966,-0.0517,-0.0605,-0.2883,0.0337,41.4188,8.5125,11.5312,
0.757537,-0.1671,-0.0966,-0.0517,-0.0605,-0.2883,0.0337,41.9438,8.0438,10.9875,
0.760137,-0.3591,-0.2594,-0.0539,-0.0605,-0.2883,0.0337,41.9438,8.0438,10.9875,
0.769471,-0.3591,-0.2594,-0.0539,-0.0605,-0.2883,0.0337,41.9438,8.0438,10.9875,
0.781278,-0.3591,-0.2594,-0.0539,-0.0764,-0.2028,0.0606,41.9438,8.0438,10.9875,
0.784218,-0.5077,-0.0848,-0.0929,-0.0764,-0.2028,0.0606,41.9438,8.0438,10.9875,
0.799673,-0.6152,-0.4524,-0.2572,-0.0764,-0.2028,0.0606,41.9438,8.0438,10.9875,
0.812874,-0.6152,-0.4524,-0.2572,-0.0764,-0.2028,0.0606,41.4750,7.6875,10.4813,
0.825141,-0.4828,-0.5896,-0.0690,-0.0764,-0.2028,0.0606,41.4750,7.6875,10.4813,
0.834785,-0.4828,-0.5896,-0.0690,-0.0764,-0.2028,0.0606,41.4750,7.6875,10.4813,
0.836582,-0.3713,-0.5789,-0.0917,-0.0764,-0.2028,0.0606,41.4750,7.6875,10.4813,
0.846271,-0.3713,-0.5789,-0.0917,0.0030,-0.0318,0.0362,41.4750,7.6875,10.4813,
0.856872,-0.3215,-0.3905,-0.1540,0.0030,-0.0318,0.0362,41.4750,7.6875,10.4813,
0.871309,-0.3215,-0.3905,-0.1540,0.0030,-0.0318,0.0362,42.4313,7.8563,10.4625,
0.878633,-0.3085,-0.2002,-0.2110,0.0030,-0.0318,0.0362,42.4313,7.8563,10.4625,
0.894565,-0.3085,-0.2002,-0.2110,0.0030,-0.0318,0.0362,42.4313,7.8563,10.4625,
0.896990,-0.2752,-0.1013,-0.2390,0.0030,-0.0318,0.0362,42.4313,7.8563,10.4625,
0.903055,-0.2752,-0.1013,-0.2390,-0.0007,0.0355,-0.0041,42.4313,7.8563,10.4625,
0.913293,-0.2580,-0.1768,-0.1884,-0.0007,0.0355,-0.0041,42.4313,7.8563,10.4625,
0.935125,-0.2580,-0.1768,-0.1884,-0.0007,0.0355,-0.0041,41.9438,7.7625,10.5750,
0.938215,-0.3041,-0.1606,-0.0020,-0.0007,0.0355,-0.0041,41.9438,7.7625,10.5750,
0.957680,-0.3643,-0.2007,0.1628,-0.0007,0.0355,-0.0041,41.9438,7.7625,10.5750,
0.959035,-0.3643,-0.2007,0.1628,-0.0007,0.0355,-0.0041,41.9438,7.7625,10.5750,
0.968800,-0.3643,-0.2007,0.1628,0.0715,0.1368,-0.1605,41.9438,7.7625,10.5750,
0.970416,-0.3013,-0.0891,0.2030,0.0715,0.1368,-0.1605,41.9438,7.7625,10.5750,
0.990547,-0.1895,-0.1377,0.1040,0.0715,0.1368,-0.1605,41.9438,7.7625,10.5750,
0.993632,-0.1895,-0.1377,0.1040,0.0715,0.1368,-0.1605,42.3188,8.4375,10.8750,
1.012099,-0.0461,-0.2516,-0.1895,0.0715,0.1368,-0.1605,42.3188,8.4375,10.8750,
1.024561,-0.0461,-0.2516,-0.1895,0.0715,0.1368,-0.1605,42.3188,8.4375,10.8750,
1.028621,-0.0461,-0.2516,-0.1895,0.0813,0.3616,-0.2387,42.3188,8.4375,10.8750,
1.029813,0.1992,-0.5753,-0.5740,0.0813,0.3616,-0.2387,42.3188,8.4375,10.8750,
1.048366,0.2052,-0.8910,-0.6339,0.0813,0.3616,-0.2387,42.3188,8.4375,10.8750,
1.051683,0.2052,-0.8910,-0.6339,0.0813,0.3616,-0.2387,41.9062,8.6063,11.5125,
1.065788,0.0626,-0.8100,-0.4724,0.0813,0.3616,-0.2387,41.9062,8.6063,11.5125,
1.080591,0.0626,-0.8100,-0.4724,0.0813,0.3616,-0.2387,41.9062,8.6063,11.5125,
1.090390,-0.0463,-0.3424,-0.5082,0.0813,0.3616,-0.2387,41.9062,8.6063,11.5125,
1.093280,-0.0463,-0.3424,-0.5082,0.0678,0.1246,0.0227,41.9062,8.6063,11.5125,
1.104950,-0.2948,0.0504,-0.7660,0.0678,0.1246,0.0227,41.9062,8.6063,11.5125,
1.115208,-0.2948,0.0504,-0.7660,0.0678,0.1246,0.0227,41.6813,9.2063,11.5312,
1.124529,-0.3268,0.1277,-0.7342,0.0678,0.1246,0.0227,41.6813,9.2063,11.5312,
1.148725,-0.3268,0.1277,-0.7342,0.0678,0.1246,0.0227,41.6813,9.2063,11.5312,
1.151523,-0.1382,0.1043,-0.5108,0.0678,0.1246,0.0227,41.6813,9.2063,11.5312,
1.154202,-0.1382,0.1043,-0.5108,0.0763,0.2871,0.0362,41.6813,9.2063,11.5312,
1.162306,0.0662,0.0467,-0.3767,0.0763,0.2871,0.0362,41.6813,9.2063,11.5312,
1.171410,0.0662,0.0467,-0.3767,0.0763,0.2871,0.0362,41.4750,9.2812,12.1500,
1.180989,0.1668,0.0932,-0.4072,0.0763,0.2871,0.0362,41.4750,9.2812,12.1500,
1.202691,0.0995,-0.0601,-0.3702,0.0763,0.2871,0.0362,41.4750,9.2812,12.1500,
1.205683,0.0995,-0.0601,-0.3702,0.0763,0.2871,0.0362,41.4750,9.2812,12.1500,
1.214594,0.0995,-0.0601,-0.3702,-0.0165,0.3139,-0.1312,41.4750,9.2812,12.1500,
1.221272,0.1736,-0.3768,-0.3496,-0.0165,0.3139,-0.1312,41.4750,9.2812,12.1500,
1.236351,0.1736,-0.3768,-0.3496,-0.0165,0.3139,-0.1312,41.1750,9.2063,13.4063,
1.239018,0.3846,-0.5937,-0.4632,-0.0165,0.3139,-0.1312,41.1750,9.2063,13.4063,
1.259658,0.6373,-0.6150,-0.6197,-0.0165,0.3139,-0.1312,41.1750,9.2063,13.4063,
1.268766,0.6373,-0.6150,-0.6197,-0.0165,0.3139,-0.1312,41.1750,9.2063,13.4063,
1.279749,0.6373,-0.6150,-0.6197,0.0030,0.2663,-0.2582,41.1750,9.2063,13.4063,
1.281031,0.7844,-0.5268,-0.6314,0.0030,0.2663,-0.2582,41.1750,9.2063,13.4063,
1.291852,0.7844,-0.5268,-0.6314,0.0030,0.2663,-0.2582,40.1063,9.3000,14.0625,
1.302497,0.5701,-0.3317,-0.5027,0.0030,0.2663,-0.2582,40.1063,9.3000,14.0625,
1.315658,0.2247,-0.1636,-0.4918,0.0030,0.2663,-0.2582,40.1063,9.3000,14.0625,
1.335553,0.2247,-0.1636,-0.4918,0.0030,0.2663,-0.2582,40.1063,9.3000,14.0625,
1.336371,0.2691,-0.1940,-0.3629,0.0030,0.2663,-0.2582,40.1063,9.3000,14.0625,
1.338343,0.2691,-0.1940,-0.3629,-0.0275,0.1906,-0.2314,40.1063,9.3000,14.0625,
1.350987,0.2691,-0.1940,-0.3629,-0.0275,0.1906,-0.2314,40.5375,10.2750,14.1750,
1.359388,0.4319,-0.3147,-0.1666,-0.0275,0.1906,-0.2314,40.5375,10.2750,14.1750,
1.372630,0.5758,-0.4853,-0.0019,-0.0275,0.1906,-0.2314,40.5375,10.2750,14.1750,
1.391978,0.5758,-0.4853,-0.0019,-0.0275,0.1906,-0.2314,40.5375,10.2750,14.1750,
1.394256,0.5227,-0.5964,0.1068,-0.0275,0.1906,-0.2314,40.5375,10.2750,14.1750,
1.400747,0.5227,-0.5964,0.1068,-0.0067,0.1221,-0.2949,40.5375,10.2750,14.1750,
1.412682,0.3218,-0.3664,0.0238,-0.0067,0.1221,-0.2949,40.5375,10.2750,14.1750,
1.413986,0.3218,-0.3664,0.0238,-0.0067,0.1221,-0.2949,40.2188,10.7625,14.4938,
1.436849,0.0441,0.2420,0.0739,-0.0067,0.1221,-0.2949,40.2188,10.7625,14.4938,
1.449309,0.0302,0.7846,-0.0241,-0.0067,0.1221,-0.2949,40.2188,10.7625,14.4938,
1.458138,0.0302,0.7846,-0.0241,-0.0067,0.1221,-0.2949,40.2188,10.7625,14.4938,
1.466976,0.0302,0.7846,-0.0241,-0.0140,-0.0293,-0.1312,40.2188,10.7625,14.4938,
1.467831,0.2681,0.9680,-0.2561,-0.0140,-0.0293,-0.1312,40.2188,10.7625,14.4938,
1.470438,0.2681,0.9680,-0.2561,-0.0140,-0.0293,-0.1312,39.3188,11.4750,14.8313,
1.491814,0.6031,0.6685,-0.4338,-0.0140,-0.0293,-0.1312,39.3188,11.4750,14.8313,
1.506235,0.9042,0.2749,-0.6603,-0.0140,-0.0293,-0.1312,39.3188,11.4750,14.8313,
1.516715,0.9042,0.2749,-0.6603,-0.0140,-0.0293,-0.1312,39.3188,11.4750,14.8313,
1.523877,0.9042,0.2749,-0.6603,-0.2670,-0.0122,-0.0909,39.3188,11.4750,14.8313,
1.524765,0.8840,-0.0589,-0.7024,-0.2670,-0.0122,-0.0909,39.3188,11.4750,14.8313,
1.529836,0.8840,-0.0589,-0.7024,-0.2670,-0.0122,-0.0909,39.9188,11.3813,14.3063,
1.545683,0.6815,-0.3998,-0.5984,-0.2670,-0.0122,-0.0909,39.9188,11.3813,14.3063,
1.569450,0.4997,-0.5054,-0.4262,-0.2670,-0.0122,-0.0909,39.9188,11.3813,14.3063,
1.580277,0.4997,-0.5054,-0.4262,-0.2670,-0.0122,-0.0909,39.9188,11.3813,14.3063,
1.583045,0.3394,-0.4183,-0.3328,-0.2670,-0.0122,-0.0909,39.9188,11.3813,14.3063,
1.591622,0.3394,-0.4183,-0.3328,-0.0666,-0.0049,-0.0188,39.9188,11.3813,14.3063,
1.592833,0.3394,-0.4183,-0.3328,-0.0666,-0.0049,-0.0188,39.2063,11.6250,15.4688,
1.602326,0.1953,-0.3785,-0.0201,-0.0666,-0.0049,-0.0188,39.2063,11.6250,15.4688,
1.626717,0.2145,-0.1834,0.1167,-0.0666,-0.0049,-0.0188,39.2063,11.6250,15.4688,
1.640212,0.2145,-0.1834,0.1167,-0.0666,-0.0049,-0.0188,39.2063,11.6250,15.4688,
1.642659,0.2545,-0.0288,0.0547,-0.0666,-0.0049,-0.0188,39.2063,11.6250,15.4688,
1.649480,0.2545,-0.0288,0.0547,-0.0385,-0.2223,0.0582,39.2063,11.6250,15.4688,
1.652003,0.2545,-0.0288,0.0547,-0.0385,-0.2223,0.0582,39.9188,11.1562,14.7188,
1.659616,0.3090,0.0659,0.1373,-0.0385,-0.2223,0.0582,39.9188,11.1562,14.7188,
1.678761,0.3534,0.0013,0.1917,-0.0385,-0.2223,0.0582,39.9188,11.1562,14.7188,
1.702011,0.4580,0.1251,0.2055,-0.0385,-0.2223,0.0582,39.9188,11.1562,14.7188,
1.705565,0.4580,0.1251,0.2055,-0.0385,-0.2223,0.0582,39.9188,11.1562,14.7188,
1.713410,0.4580,0.1251,0.2055,-0.0385,-0.2223,0.0582,39.9188,11.1938,14.0813,
1.714476,0.4580,0.1251,0.2055,0.0958,-0.3458,0.1412,39.9188,11.1938,14.0813,
1.717413,0.6576,0.3414,0.0609,0.0958,-0.3458,0.1412,39.9188,11.1938,14.0813,
1.736161,0.9701,0.2185,0.0256,0.0958,-0.3458,0.1412,39.9188,11.1938,14.0813,
1.757419,1.1004,-0.3462,0.0403,0.0958,-0.3458,0.1412,39.9188,11.1938,14.0813,
1.769848,1.1004,-0.3462,0.0403,0.0958,-0.3458,0.1412,39.9188,11.1938,14.0813,
1.770996,1.1004,-0.3462,0.0403,0.0958,-0.3458,0.1412,40.6313,10.8375,12.9188,
1.773494,1.1004,-0.3462,0.0403,0.1240,-0.3946,0.2377,40.6313,10.8375,12.9188,
1.774770,0.8924,-0.9611,-0.2119,0.1240,-0.3946,0.2377,40.6313,10.8375,12.9188,
1.793449,0.2569,-0.9921,-0.2394,0.1240,-0.3946,0.2377,40.6313,10.8375,12.9188,
1.815047,-0.3528,-0.3526,-0.6170,0.1240,-0.3946,0.2377,40.6313,10.8375,12.9188,
1.825773,-0.3528,-0.3526,-0.6170,0.1240,-0.3946,0.2377,40.6313,10.8375,12.9188,
1.836376,-1.2715,0.1490,-1.3403,0.1240,-0.3946,0.2377,40.6313,10.8375,12.9188,
1.837311,-1.2715,0.1490,-1.3403,0.1240,-0.3946,0.2377,40.5563,10.6313,11.5688,
1.837971,-1.2715,0.1490,-1.3403,0.0263,-0.8235,0.2390,40.5563,10.6313,11.5688,
1.850786,-1.8198,0.3078,-1.6996,0.0263,-0.8235,0.2390,40.5563,10.6313,11.5688,
1.870034,-1.9129,0.2840,-1.4253,0.0263,-0.8235,0.2390,40.5563,10.6313,11.5688,
1.892950,-1.9129,0.2840,-1.4253,0.0263,-0.8235,0.2390,40.5563,10.6313,11.5688,
1.895187,-1.1276,0.1273,-1.4176,0.0263,-0.8235,0.2390,40.5563,10.6313,11.5688,
1.897750,-1.1276,0.1273,-1.4176,0.0263,-0.8235,0.2390,41.8500,10.4062,9.4500,
1.900475,-1.1276,0.1273,-1.4176,0.0397,-0.4459,-0.1386,41.8500,10.4062,9.4500,
1.911771,-0.2313,-0.4447,-1.0158,0.0397,-0.4459,-0.1386,41.8500,10.4062,9.4500,
1.927592,0.2780,-1.2233,-0.1775,0.0397,-0.4459,-0.1386,41.8500,10.4062,9.4500,
1.947531,0.0785,-1.3390,0.2861,0.0397,-0.4459,-0.1386,41.8500,10.4062,9.4500,
1.951311,0.0785,-1.3390,0.2861,0.0397,-0.4459,-0.1386,41.8500,10.4062,9.4500,
1.953493,0.0785,-1.3390,0.2861,0.0397,-0.4459,-0.1386,41.8500,10.5375,9.0375,
1.959423,0.0785,-1.3390,0.2861,-0.0238,-0.5742,0.0972,41.8500,10.5375,9.0375,
1.965817,-0.4033,-1.2407,0.2439,-0.0238,-0.5742,0.0972,41.8500,10.5375,9.0375,
1.984855,-1.0285,-0.8580,0.2775,-0.0238,-0.5742,0.0972,41.8500,10.5375,9.0375,
2.005008,-1.2295,-0.7157,-0.0165,-0.0238,-0.5742,0.0972,41.8500,10.5375,9.0375,
2.013323,-1.2295,-0.7157,-0.0165,-0.0238,-0.5742,0.0972,41.9625,10.6313,7.1625,
2.016420,-1.2295,-0.7157,-0.0165,-0.0238,-0.5742,0.0972,41.9625,10.6313,7.1625,
2.024543,-1.2295,-0.7157,-0.0165,0.4111,-0.4887,0.0935,41.9625,10.6313,7.1625,
2.026094,-1.1845,0.1856,-0.2200,0.4111,-0.4887,0.0935,41.9625,10.6313,7.1625,
2.048194,-1.3100,0.9113,-0.8193,0.4111,-0.4887,0.0935,41.9625,10.6313,7.1625,
2.060879,-1.3300,1.1581,-1.4232,0.4111,-0.4887,0.0935,41.9625,10.6313,7.1625,
2.072150,-1.3300,1.1581,-1.4232,0.4111,-0.4887,0.0935,42.4500,10.9125,5.5875,
2.076261,-1.3300,1.1581,-1.4232,0.4111,-0.4887,0.0935,42.4500,10.9125,5.5875,
2.081457,-0.7359,0.5045,-1.4591,0.4111,-0.4887,0.0935,42.4500,10.9125,5.5875,
2.083524,-0.7359,0.5045,-1.4591,0.0813,-0.2969,-0.3109,42.4500,10.9125,5.5875,
2.104910,0.0564,-0.4274,-1.1180,0.0813,-0.2969,-0.3109,42.4500,10.9125,5.5875,
2.125095,0.6306,-1.1958,-1.0919,0.0813,-0.2969,-0.3109,42.4500,10.9125,5.5875,
2.137355,0.6306,-1.1958,-1.0919,0.0813,-0.2969,-0.3109,41.9438,11.5688,4.8938,
2.140633,0.6306,-1.1958,-1.0919,0.0813,-0.2969,-0.3109,41.9438,11.5688,4.8938,
2.142173,0.4901,-1.1849,-0.7041,0.0813,-0.2969,-0.3109,41.9438,11.5688,4.8938,
2.146692,0.4901,-1.1849,-0.7041,0.0788,-0.3971,-0.1496,41.9438,11.5688,4.8938,
2.156457,0.0154,-0.6242,-0.7367,0.0788,-0.3971,-0.1496,41.9438,11.5688,4.8938,
2.180569,-0.7845,0.2218,-1.2421,0.0788,-0.3971,-0.1496,41.9438,11.5688,4.8938,
2.191320,-0.7845,0.2218,-1.2421,0.0788,-0.3971,-0.1496,41.6438,12.0188,3.9563,
2.194988,-1.3454,0.6972,-1.2971,0.0788,-0.3971,-0.1496,41.6438,12.0188,3.9563,
2.206681,-1.3454,0.6972,-1.2971,0.0788,-0.3971,-0.1496,41.6438,12.0188,3.9563,
2.211592,-1.3454,0.6972,-1.2971,0.2278,-0.4374,-0.1446,41.6438,12.0188,3.9563,
2.213564,-1.1949,0.5494,-1.2591,0.2278,-0.4374,-0.1446,41.6438,12.0188,3.9563,
2.236768,-0.7590,0.1734,-1.5054,0.2278,-0.4374,-0.1446,41.6438,12.0188,3.9563,
2.251114,-0.7590,0.1734,-1.5054,0.2278,-0.4374,-0.1446,42.1313,12.5625,2.7000,
2.254071,-0.1693,-0.3715,-1.5399,0.2278,-0.4374,-0.1446,42.1313,12.5625,2.7000,
2.260674,-0.1693,-0.3715,-1.5399,0.2278,-0.4374,-0.1446,42.1313,12.5625,2.7000,
2.270453,-0.1693,-0.3715,-1.5399,0.0030,-0.1930,-0.3462,42.1313,12.5625,2.7000,
2.271756,0.3347,-0.5378,-1.3550,0.0030,-0.1930,-0.3462,42.1313,12.5625,2.7000,
2.292594,0.5962,-0.3402,-1.4663,0.0030,-0.1930,-0.3462,42.1313,12.5625,2.7000,
2.315901,0.6693,0.3303,-1.5144,0.0030,-0.1930,-0.3462,42.1313,12.5625,2.7000,
2.317229,0.6693,0.3303,-1.5144,0.0030,-0.1930,-0.3462,41.9062,13.6313,1.7813,
2.324710,0.6693,0.3303,-1.5144,0.0030,-0.1930,-0.3462,41.9062,13.6313,1.7813,
2.329245,0.5492,0.6624,-1.6003,0.0030,-0.1930,-0.3462,41.9062,13.6313,1.7813,
2.337138,0.5492,0.6624,-1.6003,0.1118,-0.1393,-0.0983,41.9062,13.6313,1.7813,
2.349155,0.2455,0.6715,-1.5458,0.1118,-0.1393,-0.0983,41.9062,13.6313,1.7813,
2.371540,0.0559,0.4977,-1.5506,0.1118,-0.1393,-0.0983,41.9062,13.6313,1.7813,
2.375211,0.0559,0.4977,-1.5506,0.1118,-0.1393,-0.0983,41.6063,13.7250,1.8938,
2.387941,0.0559,0.4977,-1.5506,0.1118,-0.1393,-0.0983,41.6063,13.7250,1.8938,
2.388942,-0.0417,0.2676,-1.3017,0.1118,-0.1393,-0.0983,41.6063,13.7250,1.8938,
2.395088,-0.0417,0.2676,-1.3017,-0.1106,0.2896,-0.0873,41.6063,13.7250,1.8938,
2.406017,0.0977,0.1422,-1.0950,-0.1106,0.2896,-0.0873,41.6063,13.7250,1.8938,
2.424578,0.2785,0.0304,-1.0386,-0.1106,0.2896,-0.0873,41.6063,13.7250,1.8938,
2.436731,0.2785,0.0304,-1.0386,-0.1106,0.2896,-0.0873,41.6063,13.6125,2.0063,
2.447637,0.2648,-0.0817,-0.9996,-0.1106,0.2896,-0.0873,41.6063,13.6125,2.0063,
2.448962,0.2648,-0.0817,-0.9996,-0.1106,0.2896,-0.0873,41.6063,13.6125,2.0063,
2.459004,0.2648,-0.0817,-0.9996,-0.1766,0.4179,0.0032,41.6063,13.6125,2.0063,
2.462391,0.0397,-0.0059,-0.9034,-0.1766,0.4179,0.0032,41.6063,13.6125,2.0063,
2.482471,-0.1821,0.2484,-0.9681,-0.1766,0.4179,0.0032,41.6063,13.6125,2.0063,
2.492682,-0.1821,0.2484,-0.9681,-0.1766,0.4179,0.0032,41.7938,13.2938,3.9750,
2.503302,-0.2345,0.4669,-0.9108,-0.1766,0.4179,0.0032,41.7938,13.2938,3.9750,
2.516097,-0.2345,0.4669,-0.9108,-0.1766,0.4179,0.0032,41.7938,13.2938,3.9750,
2.526430,-0.2345,0.4669,-0.9108,-0.1778,0.5082,-0.0041,41.7938,13.2938,3.9750,
2.528364,-0.1273,0.4309,-0.7115,-0.1778,0.5082,-0.0041,41.7938,13.2938,3.9750,
2.539258,0.0227,0.2568,-0.5779,-0.1778,0.5082,-0.0041,41.7938,13.2938,3.9750,
2.552191,0.0227,0.2568,-0.5779,-0.1778,0.5082,-0.0041,41.5125,12.8438,5.3250,
2.559945,0.0006,-0.0648,-0.6054,-0.1778,0.5082,-0.0041,41.5125,12.8438,5.3250,
2.572440,0.0006,-0.0648,-0.6054,-0.1778,0.5082,-0.0041,41.5125,12.8438,5.3250,
2.581399,-0.0841,-0.3256,-0.7677,-0.1778,0.5082,-0.0041,41.5125,12.8438,5.3250,
2.584368,-0.0841,-0.3256,-0.7677,-0.3146,0.5644,-0.0298,41.5125,12.8438,5.3250,
2.596725,-0.1442,-0.2609,-0.4748,-0.3146,0.5644,-0.0298,41.5125,12.8438,5.3250,
2.614653,-0.1442,-0.2609,-0.4748,-0.3146,0.5644,-0.0298,40.6875,13.2563,7.1250,
2.616133,-0.4560,0.0893,-0.5195,-0.3146,0.5644,-0.0298,40.6875,13.2563,7.1250,
2.636457,-0.4560,0.0893,-0.5195,-0.3146,0.5644,-0.0298,40.6875,13.2563,7.1250,
2.638696,-0.8969,0.3479,-0.6815,-0.3146,0.5644,-0.0298,40.6875,13.2563,7.1250,
2.646952,-0.8969,0.3479,-0.6815,-0.3831,0.3347,0.0067,40.6875,13.2563,7.1250,
2.658534,-1.1123,0.5376,-0.8145,-0.3831,0.3347,0.0067,40.6875,13.2563,7.1250,
2.670637,-1.1123,0.5376,-0.8145,-0.3831,0.3347,0.0067,40.9875,12.7688,8.3625,
2.673145,-0.8060,0.4551,-0.6921,-0.3831,0.3347,0.0067,40.9875,12.7688,8.3625,
2.692756,-0.3258,0.1903,-0.5157,-0.3831,0.3347,0.0067,40.9875,12.7688,8.3625,
2.702378,-0.3258,0.1903,-0.5157,-0.3831,0.3347,0.0067,40.9875,12.7688,8.3625,
2.705248,-0.3258,0.1903,-0.5157,-0.3928,0.3812,-0.0213,40.9875,12.7688,8.3625,
2.713458,0.2082,0.1871,-0.6735,-0.3928,0.3812,-0.0213,40.9875,12.7688,8.3625,
2.734129,0.3957,0.4392,-0.5229,-0.3928,0.3812,-0.0213,40.9875,12.7688,8.3625,
2.735583,0.3957,0.4392,-0.5229,-0.3928,0.3812,-0.0213,40.7063,12.3188,9.7125,
2.749585,0.1656,0.6876,-0.4567,-0.3928,0.3812,-0.0213,40.7063,12.3188,9.7125,
2.758642,0.1656,0.6876,-0.4567,-0.3928,0.3812,-0.0213,40.7063,12.3188,9.7125,
2.769719,0.1656,0.6876,-0.4567,-0.4819,0.4605,0.0642,40.7063,12.3188,9.7125,
2.772935,0.0200,0.8729,-0.7264,-0.4819,0.4605,0.0642,40.7063,12.3188,9.7125,
2.787807,-0.0689,0.8418,-0.7265,-0.4819,0.4605,0.0642,40.7063,12.3188,9.7125,
2.790620,-0.0689,0.8418,-0.7265,-0.4819,0.4605,0.0642,40.3125,11.8125,11.5875,
2.807282,-0.2183,0.9612,-0.5992,-0.4819,0.4605,0.0642,40.3125,11.8125,11.5875,
2.825207,-0.2183,0.9612,-0.5992,-0.4819,0.4605,0.0642,40.3125,11.8125,11.5875,
2.826207,-0.3855,1.1613,-0.3153,-0.4819,0.4605,0.0642,40.3125,11.8125,11.5875,
2.837659,-0.3855,1.1613,-0.3153,-0.6384,0.5472,0.0580,40.3125,11.8125,11.5875,
2.847145,-0.4838,1.3442,-0.2811,-0.6384,0.5472,0.0580,40.3125,11.8125,11.5875,
2.851780,-0.4838,1.3442,-0.2811,-0.6384,0.5472,0.0580,40.1250,11.3438,13.0500,
2.870457,-0.1111,1.1168,-0.2650,-0.6384,0.5472,0.0580,40.1250,11.3438,13.0500,
2.883554,-0.1111,1.1168,-0.2650,-0.6384,0.5472,0.0580,40.1250,11.3438,13.0500,
2.886023,0.1271,0.9833,-0.3752,-0.6384,0.5472,0.0580,40.1250,11.3438,13.0500,
2.892758,0.1271,0.9833,-0.3752,-0.6079,0.4569,0.1448,40.1250,11.3438,13.0500,
2.903310,0.3343,0.8520,-0.7442,-0.6079,0.4569,0.1448,40.1250,11.3438,13.0500,
2.916482,0.3343,0.8520,-0.7442,-0.6079,0.4569,0.1448,40.0500,10.1625,14.8125,
2.924768,0.4822,0.7175,-0.5426,-0.6079,0.4569,0.1448,40.0500,10.1625,14.8125,
2.940942,0.4156,1.2468,0.0637,-0.6079,0.4569,0.1448,40.0500,10.1625,14.8125,
2.948230,0.4156,1.2468,0.0637,-0.6079,0.4569,0.1448,40.0500,10.1625,14.8125,
2.955661,0.4156,1.2468,0.0637,-0.7520,0.4642,0.0715,40.0500,10.1625,14.8125,
2.959473,0.1576,1.4778,0.2281,-0.7520,0.4642,0.0715,40.0500,10.1625,14.8125,
2.971491,0.1576,1.4778,0.2281,-0.7520,0.4642,0.0715,39.5063,8.8875,16.3688,
2.982564,-0.2845,1.5486,0.1720,-0.7520,0.4642,0.0715,39.5063,8.8875,16.3688,
3.004175,-0.4846,1.4543,0.0507,-0.7520,0.4642,0.0715,39.5063,8.8875,16.3688,
3.007484,-0.4846,1.4543,0.0507,-0.7520,0.4642,0.0715,39.5063,8.8875,16.3688,
3.015887,-0.4846,1.4543,0.0507,-0.7325,0.3860,0.0165,39.5063,8.8875,16.3688,
3.017104,-0.5020,1.3209,0.0880,-0.7325,0.3860,0.0165,39.5063,8.8875,16.3688,
3.038718,-0.5020,1.3209,0.0880,-0.7325,0.3860,0.0165,39.4500,7.6125,18.1313,
3.040009,-0.1839,1.1677,-0.0292,-0.7325,0.3860,0.0165,39.4500,7.6125,18.1313,
3.058224,0.2535,1.2002,0.2045,-0.7325,0.3860,0.0165,39.4500,7.6125,18.1313,
3.070893,0.2535,1.2002,0.2045,-0.7325,0.3860,0.0165,39.4500,7.6125,18.1313,
3.080702,0.4122,1.0549,0.1516,-0.7325,0.3860,0.0165,39.4500,7.6125,18.1313,
3.081988,0.4122,1.0549,0.1516,-0.6640,0.2491,0.1204,39.4500,7.6125,18.1313,
3.090965,0.4122,1.0549,0.1516,-0.6640,0.2491,0.1204,39.0938,6.4313,19.6875,
3.093821,0.5619,0.7558,0.0672,-0.6640,0.2491,0.1204,39.0938,6.4313,19.6875,
3.115565,0.1492,0.7865,0.5438,-0.6640,0.2491,0.1204,39.0938,6.4313,19.6875,
3.132481,0.1492,0.7865,0.5438,-0.6640,0.2491,0.1204,39.0938,6.4313,19.6875,
3.135083,-0.7771,1.1538,0.5407,-0.6640,0.2491,0.1204,39.0938,6.4313,19.6875,
3.140689,-0.7771,1.1538,0.5407,-0.6102,0.0390,0.0923,39.0938,6.4313,19.6875,
3.150715,-1.0319,1.6448,0.3363,-0.6102,0.0390,0.0923,39.0938,6.4313,19.6875,
3.152002,-1.0319,1.6448,0.3363,-0.6102,0.0390,0.0923,38.5500,5.2125,20.5312,
3.170750,-0.7800,1.5839,0.1157,-0.6102,0.0390,0.0923,38.5500,5.2125,20.5312,
3.189721,0.3137,1.2300,0.3536,-0.6102,0.0390,0.0923,38.5500,5.2125,20.5312,
3.194615,0.3137,1.2300,0.3536,-0.6102,0.0390,0.0923,38.5500,5.2125,20.5312,
3.203399,0.3137,1.2300,0.3536,-0.3134,0.1833,0.0532,38.5500,5.2125,20.5312,
3.209755,0.7820,1.2404,0.7295,-0.3134,0.1833,0.0532,38.5500,5.2125,20.5312,
3.211066,0.7820,1.2404,0.7295,-0.3134,0.1833,0.0532,38.8500,4.4438,21.6562,
3.228166,0.5341,1.0149,0.7314,-0.3134,0.1833,0.0532,38.8500,4.4438,21.6562,
3.247051,-0.1450,0.5686,0.3877,-0.3134,0.1833,0.0532,38.8500,4.4438,21.6562,
3.255906,-0.1450,0.5686,0.3877,-0.3134,0.1833,0.0532,38.8500,4.4438,21.6562,
3.265723,-0.1450,0.5686,0.3877,0.2608,-0.1442,0.2071,38.8500,4.4438,21.6562,
3.266725,-0.5033,0.9388,-0.4157,0.2608,-0.1442,0.2071,38.8500,4.4438,21.6562,
3.270935,-0.5033,0.9388,-0.4157,0.2608,-0.1442,0.2071,38.7188,3.4125,20.9250,
3.285443,-0.1063,1.5866,-0.4887,0.2608,-0.1442,0.2071,38.7188,3.4125,20.9250,
3.304879,0.6561,1.9968,0.4336,0.2608,-0.1442,0.2071,38.7188,3.4125,20.9250,
3.318502,0.6561,1.9968,0.4336,0.2608,-0.1442,0.2071,38.7188,3.4125,20.9250,
3.323110,0.4288,2.5982,0.5951,0.2608,-0.1442,0.2071,38.7188,3.4125,20.9250,
3.327208,0.4288,2.5982,0.5951,0.4367,-0.2921,0.2035,38.7188,3.4125,20.9250,
3.332400,0.4288,2.5982,0.5951,0.4367,-0.2921,0.2035,38.3250,3.3938,21.2438,
3.342187,-0.9104,3.4815,0.8302,0.4367,-0.2921,0.2035,38.3250,3.3938,21.2438,
3.361660,-2.2672,4.5681,1.1442,0.4367,-0.2921,0.2035,38.3250,3.3938,21.2438,
3.380128,-2.2672,4.5681,1.1442,0.4367,-0.2921,0.2035,38.3250,3.3938,21.2438,
3.383391,-1.9388,5.1693,1.7445,0.4367,-0.2921,0.2035,38.3250,3.3938,21.2438,
3.389390,-1.9388,5.1693,1.7445,0.3989,-0.9578,0.2926,38.3250,3.3938,21.2438,
3.390389,-1.9388,5.1693,1.7445,0.3989,-0.9578,0.2926,39.5250,3.0750,19.5563,
3.399697,0.4691,5.6642,1.1576,0.3989,-0.9578,0.2926,39.5250,3.0750,19.5563,
3.419322,2.2240,5.7019,0.1001,0.3989,-0.9578,0.2926,39.5250,3.0750,19.5563,
3.438381,1.4058,4.8109,-0.4196,0.3989,-0.9578,0.2926,39.5250,3.0750,19.5563,
3.442425,1.4058,4.8109,-0.4196,0.3989,-0.9578,0.2926,39.5250,3.0750,19.5563,
3.450761,1.4058,4.8109,-0.4196,0.3989,-0.9578,0.2926,40.2375,2.8500,17.8688,
3.453459,1.4058,4.8109,-0.4196,0.5357,-0.5816,-0.4135,40.2375,2.8500,17.8688,
3.458405,0.4797,1.9549,-0.1662,0.5357,-0.5816,-0.4135,40.2375,2.8500,17.8688,
3.476734,0.2503,1.8946,-1.7057,0.5357,-0.5816,-0.4135,40.2375,2.8500,17.8688,
3.497005,1.5339,1.8255,-2.3684,0.5357,-0.5816,-0.4135,40.2375,2.8500,17.8688,
3.504861,1.5339,1.8255,-2.3684,0.5357,-0.5816,-0.4135,40.2375,2.8500,17.8688,
3.511112,1.5339,1.8255,-2.3684,0.5357,-0.5816,-0.4135,40.9500,4.7063,16.0875,
3.515634,1.5339,1.8255,-2.3684,1.3945,-0.3556,-0.5162,40.9500,4.7063,16.0875,
3.517937,-0.1929,1.2222,-1.6039,1.3945,-0.3556,-0.5162,40.9500,4.7063,16.0875,
3.534015,-0.9745,-0.6027,0.3998,1.3945,-0.3556,-0.5162,40.9500,4.7063,16.0875,
3.552779,-1.6761,-2.3690,3.1654,1.3945,-0.3556,-0.5162,40.9500,4.7063,16.0875,
3.566918,-1.6761,-2.3690,3.1654,1.3945,-0.3556,-0.5162,40.9500,4.7063,16.0875,
3.571331,-1.6761,-2.3690,3.1654,1.3945,-0.3556,-0.5162,40.2938,6.7313,15.6000,
3.572546,-1.2924,-1.5964,3.8513,1.3945,-0.3556,-0.5162,40.2938,6.7313,15.6000,
3.575493,-1.2924,-1.5964,3.8513,3.9381,0.2358,0.3171,40.2938,6.7313,15.6000,
3.591845,-0.6357,1.5011,2.7491,3.9381,0.2358,0.3171,40.2938,6.7313,15.6000,
3.610389,-0.5575,-11.2657,0.5482,3.9381,0.2358,0.3171,40.2938,6.7313,15.6000,
3.629550,-0.5575,-11.2657,0.5482,3.9381,0.2358,0.3171,40.2938,6.7313,15.6000,
3.631148,9.0426,-64.9724,-5.3268,3.9381,0.2358,0.3171,40.2938,6.7313,15.6000,
3.632550,9.0426,-64.9724,-5.3268,3.9381,0.2358,0.3171,40.5563,7.7813,12.9000,
3.637422,9.0426,-64.9724,-5.3268,4.8825,1.0079,0.2999,40.5563,7.7813,12.9000,
3.648768,4.8244,-41.3853,16.3609,4.8825,1.0079,0.2999,40.5563,7.7813,12.9000,
3.667819,-2.4175,-23.6092,0.0833,4.8825,1.0079,0.2999,40.5563,7.7813,12.9000,
3.687496,0.7352,15.8112,-26.9390,4.8825,1.0079,0.2999,40.5563,7.7813,12.9000,
3.692041,0.7352,15.8112,-26.9390,4.8825,1.0079,0.2999,40.5563,7.7813,12.9000,
3.693996,0.7352,15.8112,-26.9390,4.8825,1.0079,0.2999,41.1562,11.7000,6.4688,
3.699567,0.7352,15.8112,-26.9390,0.4001,0.7978,0.3098,41.1562,11.7000,6.4688,
3.705458,0.4042,19.2581,-2.4550,0.4001,0.7978,0.3098,41.1562,11.7000,6.4688,
3.725828,-2.5179,-3.5028,5.0117,0.4001,0.7978,0.3098,41.1562,11.7000,6.4688,
3.745020,-2.2748,-2.2718,-6.5863,0.4001,0.7978,0.3098,41.1562,11.7000,6.4688,
3.751484,-2.2748,-2.2718,-6.5863,0.4001,0.7978,0.3098,40.7250,10.5563,5.6438,
3.754394,-2.2748,-2.2718,-6.5863,0.4001,0.7978,0.3098,40.7250,10.5563,5.6438,
3.762762,-2.2748,-2.2718,-6.5863,2.9535,0.0806,0.3623,40.7250,10.5563,5.6438,
3.764590,1.8275,0.9701,-5.4386,2.9535,0.0806,0.3623,40.7250,10.5563,5.6438,
3.782552,3.6434,2.4415,-2.3951,2.9535,0.0806,0.3623,40.7250,10.5563,5.6438,
3.802070,-0.2603,6.8100,3.2243,2.9535,0.0806,0.3623,40.7250,10.5563,5.6438,
3.811826,-0.2603,6.8100,3.2243,2.9535,0.0806,0.3623,41.3438,10.3688,3.4500,
3.815596,-0.2603,6.8100,3.2243,2.9535,0.0806,0.3623,41.3438,10.3688,3.4500,
3.822320,-0.5418,5.1439,4.9106,2.9535,0.0806,0.3623,41.3438,10.3688,3.4500,
3.825739,-0.5418,5.1439,4.9106,3.2466,0.3787,0.1948,41.3438,10.3688,3.4500,
3.839575,-0.6233,-1.8218,5.3723,3.2466,0.3787,0.1948,41.3438,10.3688,3.4500,
3.859524,-1.1417,-2.7198,3.3521,3.2466,0.3787,0.1948,41.3438,10.3688,3.4500,
3.871466,-1.1417,-2.7198,3.3521,3.2466,0.3787,0.1948,41.5125,9.3188,0.9375,
3.878086,-1.1417,-2.7198,3.3521,3.2466,0.3787,0.1948,41.5125,9.3188,0.9375,
3.879610,0.1882,0.7008,2.1451,3.2466,0.3787,0.1948,41.5125,9.3188,0.9375,
3.887526,0.1882,0.7008,2.1451,3.3859,0.2491,0.3513,41.5125,9.3188,0.9375,
3.898397,-0.3368,4.1876,0.7597,3.3859,0.2491,0.3513,41.5125,9.3188,0.9375,
3.916909,0.1020,4.1022,0.6147,3.3859,0.2491,0.3513,41.5125,9.3188,0.9375,
3.932902,0.1020,4.1022,0.6147,3.3859,0.2491,0.3513,41.9625,8.1375,-1.0500,
3.936662,0.4762,3.4680,-0.0249,3.3859,0.2491,0.3513,41.9625,8.1375,-1.0500,
3.939971,0.4762,3.4680,-0.0249,3.3859,0.2491,0.3513,41.9625,8.1375,-1.0500,
3.950086,0.4762,3.4680,-0.0249,2.2093,0.2491,0.2571,41.9625,8.1375,-1.0500,
3.954798,0.6291,3.3014,1.3707,2.2093,0.2491,0.2571,41.9625,8.1375,-1.0500,
3.973999,1.1422,2.6538,1.0588,2.2093,0.2491,0.2571,41.9625,8.1375,-1.0500,
3.991180,1.1422,2.6538,1.0588,2.2093,0.2491,0.2571,42.0938,7.3500,-1.0688,
3.995173,1.2253,1.4767,-0.1272,2.2093,0.2491,0.2571,42.0938,7.3500,-1.0688,
4.001952,1.2253,1.4767,-0.1272,2.2093,0.2491,0.2571,42.0938,7.3500,-1.0688,
4.011172,1.2253,1.4767,-0.1272,1.0451,0.4129,0.2791,42.0938,7.3500,-1.0688,
4.012802,1.1839,0.5390,-0.0794,1.0451,0.4129,0.2791,42.0938,7.3500,-1.0688,
4.031381,0.4414,0.1981,-1.5447,1.0451,0.4129,0.2791,42.0938,7.3500,-1.0688,
4.050564,-1.1722,0.0397,-0.5783,1.0451,0.4129,0.2791,42.0938,7.3500,-1.0688,
4.053691,-1.1722,0.0397,-0.5783,1.0451,0.4129,0.2791,42.0375,6.4313,-0.5438,
4.067129,-1.1722,0.0397,-0.5783,1.0451,0.4129,0.2791,42.0375,6.4313,-0.5438,
4.070175,-2.2404,-0.2514,-1.9862,1.0451,0.4129,0.2791,42.0375,6.4313,-0.5438,
4.073586,-2.2404,-0.2514,-1.9862,0.3439,0.6218,0.2241,42.0375,6.4313,-0.5438,
4.089232,-1.6663,0.3063,0.2128,0.3439,0.6218,0.2241,42.0375,6.4313,-0.5438,
4.108724,-1.5474,1.4340,0.2068,0.3439,0.6218,0.2241,42.0375,6.4313,-0.5438,
4.112610,-1.5474,1.4340,0.2068,0.3439,0.6218,0.2241,42.1688,5.5875,-0.0375,
4.126400,-1.5474,1.4340,0.2068,0.3439,0.6218,0.2241,42.1688,5.5875,-0.0375,
4.129323,-1.7275,1.9869,0.0259,0.3439,0.6218,0.2241,42.1688,5.5875,-0.0375,
4.135259,-1.7275,1.9869,0.0259,0.0934,-0.0745,0.1020,42.1688,5.5875,-0.0375,
4.145647,-1.9342,1.4164,-0.4017,0.0934,-0.0745,0.1020,42.1688,5.5875,-0.0375,
4.165082,-2.1103,-0.9158,-2.3958,0.0934,-0.0745,0.1020,42.1688,5.5875,-0.0375,
4.170277,-2.1103,-0.9158,-2.3958,0.0934,-0.0745,0.1020,41.9625,5.7938,0.1688,
4.184426,-0.9818,-0.2032,-1.4692,0.0934,-0.0745,0.1020,41.9625,5.7938,0.1688,
4.188748,-0.9818,-0.2032,-1.4692,0.0934,-0.0745,0.1020,41.9625,5.7938,0.1688,
4.200019,-0.9818,-0.2032,-1.4692,-0.2120,0.0793,-0.1803,41.9625,5.7938,0.1688,
4.203549,0.1452,0.5401,-0.3287,-0.2120,0.0793,-0.1803,41.9625,5.7938,0.1688,
4.222213,-0.2485,0.0722,1.2493,-0.2120,0.0793,-0.1803,41.9625,5.7938,0.1688,
4.231733,-0.2485,0.0722,1.2493,-0.2120,0.0793,-0.1803,42.4313,6.0563,0.3750,
4.241569,-0.7859,0.0402,0.4950,-0.2120,0.0793,-0.1803,42.4313,6.0563,0.3750,
4.250277,-0.7859,0.0402,0.4950,-0.2120,0.0793,-0.1803,42.4313,6.0563,0.3750,
4.260589,-0.7859,0.0402,0.4950,-0.5101,-0.3385,0.0115,42.4313,6.0563,0.3750,
4.263812,0.2585,0.6720,-1.1700,-0.5101,-0.3385,0.0115,42.4313,6.0563,0.3750,
4.279639,0.9203,0.3972,-0.1433,-0.5101,-0.3385,0.0115,42.4313,6.0563,0.3750,
4.295617,0.9203,0.3972,-0.1433,-0.5101,-0.3385,0.0115,42.2625,5.8688,-1.3875,
4.299903,0.8261,-1.0562,0.2994,-0.5101,-0.3385,0.0115,42.2625,5.8688,-1.3875,
4.312465,0.8261,-1.0562,0.2994,-0.5101,-0.3385,0.0115,42.2625,5.8688,-1.3875,
4.317003,0.5478,-2.2839,-0.0369,-0.5101,-0.3385,0.0115,42.2625,5.8688,-1.3875,
4.320897,0.5478,-2.2839,-0.0369,-0.2243,-0.0000,-0.2108,42.2625,5.8688,-1.3875,
4.337521,-0.0396,-2.5274,-0.1603,-0.2243,-0.0000,-0.2108,42.2625,5.8688,-1.3875,
4.351921,-0.0396,-2.5274,-0.1603,-0.2243,-0.0000,-0.2108,42.3375,6.3000,-0.4500,
4.355957,-0.0335,-1.5661,0.4750,-0.2243,-0.0000,-0.2108,42.3375,6.3000,-0.4500,
4.375125,-0.0335,-1.5661,0.4750,-0.2243,-0.0000,-0.2108,42.3375,6.3000,-0.4500,
4.376533,-0.2080,-1.1846,0.5554,-0.2243,-0.0000,-0.2108,42.3375,6.3000,-0.4500,
4.384202,-0.2080,-1.1846,0.5554,-0.3158,0.1588,-0.1448,42.3375,6.3000,-0.4500,
4.394460,-0.5399,-0.9971,0.5912,-0.3158,0.1588,-0.1448,42.3375,6.3000,-0.4500,
4.410255,-0.5399,-0.9971,0.5912,-0.3158,0.1588,-0.1448,42.7875,7.2188,-0.8813,
4.413165,-0.6442,-1.4634,-0.2500,-0.3158,0.1588,-0.1448,42.7875,7.2188,-0.8813,
4.432933,-0.5786,-1.7785,-0.2981,-0.3158,0.1588,-0.1448,42.7875,7.2188,-0.8813,
4.437153,-0.5786,-1.7785,-0.2981,-0.3158,0.1588,-0.1448,42.7875,7.2188,-0.8813,
4.446585,-0.5786,-1.7785,-0.2981,-0.1387,0.1661,-0.1778,42.7875,7.2188,-0.8813,
4.452262,-0.1700,-1.1930,-0.2928,-0.1387,0.1661,-0.1778,42.7875,7.2188,-0.8813,
4.471668,0.2005,-0.6889,0.2110,-0.1387,0.1661,-0.1778,42.7875,7.2188,-0.8813,
4.475587,0.2005,-0.6889,0.2110,-0.1387,0.1661,-0.1778,41.7750,7.6313,0.8063,
4.491626,-0.1214,-1.0310,0.1967,-0.1387,0.1661,-0.1778,41.7750,7.6313,0.8063,
4.500583,-0.1214,-1.0310,0.1967,-0.1387,0.1661,-0.1778,41.7750,7.6313,0.8063,
4.507967,-0.1214,-1.0310,0.1967,-0.0800,0.0598,-0.0605,41.7750,7.6313,0.8063,
4.508996,-0.6303,-1.6632,-0.0965,-0.0800,0.0598,-0.0605,41.7750,7.6313,0.8063,
4.529037,-0.4489,-1.8503,-0.1469,-0.0800,0.0598,-0.0605,41.7750,7.6313,0.8063,
4.530965,-0.4489,-1.8503,-0.1469,-0.0800,0.0598,-0.0605,41.3813,7.5375,1.0312,
4.547633,-0.5097,-1.2258,-0.0796,-0.0800,0.0598,-0.0605,41.3813,7.5375,1.0312,
4.561803,-0.5097,-1.2258,-0.0796,-0.0800,0.0598,-0.0605,41.3813,7.5375,1.0312,
4.566231,-0.8424,-0.9404,0.0637,-0.0800,0.0598,-0.0605,41.3813,7.5375,1.0312,
4.572056,-0.8424,-0.9404,0.0637,-0.0837,0.0855,0.0348,41.3813,7.5375,1.0312,
4.585518,-0.4454,-1.2399,0.2402,-0.0837,0.0855,0.0348,41.3813,7.5375,1.0312,
4.591206,-0.4454,-1.2399,0.2402,-0.0837,0.0855,0.0348,41.9625,7.6688,1.9500,
4.605219,-0.1936,-1.6856,0.3494,-0.0837,0.0855,0.0348,41.9625,7.6688,1.9500,
4.624317,-0.1936,-1.6856,0.3494,-0.0837,0.0855,0.0348,41.9625,7.6688,1.9500,
4.625716,-0.2720,-1.2147,-0.1883,-0.0837,0.0855,0.0348,41.9625,7.6688,1.9500,
4.634487,-0.2720,-1.2147,-0.1883,0.0934,-0.0025,0.0495,41.9625,7.6688,1.9500,
4.644649,-0.1035,-0.2839,-0.4004,0.0934,-0.0025,0.0495,41.9625,7.6688,1.9500,
4.651311,-0.1035,-0.2839,-0.4004,0.0934,-0.0025,0.0495,41.9813,7.2750,1.7438,
4.663140,0.2143,-0.1666,-0.5167,0.0934,-0.0025,0.0495,41.9813,7.2750,1.7438,
4.682254,0.3565,-0.7007,-0.1119,0.0934,-0.0025,0.0495,41.9813,7.2750,1.7438,
4.685118,0.3565,-0.7007,-0.1119,0.0934,-0.0025,0.0495,41.9813,7.2750,1.7438,
4.695084,0.3565,-0.7007,-0.1119,-0.0667,0.0220,0.0410,41.9813,7.2750,1.7438,
4.700825,-0.3301,-1.3936,-0.3614,-0.0667,0.0220,0.0410,41.9813,7.2750,1.7438,
4.711536,-0.3301,-1.3936,-0.3614,-0.0667,0.0220,0.0410,41.7938,6.9938,1.6313,
4.720217,-0.4901,-0.9176,-0.3008,-0.0667,0.0220,0.0410,41.7938,6.9938,1.6313,
4.738809,-0.4056,0.1916,0.0287,-0.0667,0.0220,0.0410,41.7938,6.9938,1.6313,
4.748068,-0.4056,0.1916,0.0287,-0.0667,0.0220,0.0410,41.7938,6.9938,1.6313,
4.757719,-0.4056,0.1916,0.0287,-0.2573,0.0549,-0.0507,41.7938,6.9938,1.6313,
4.761821,-0.6541,0.2219,-0.1632,-0.2573,0.0549,-0.0507,41.7938,6.9938,1.6313,
4.772670,-0.6541,0.2219,-0.1632,-0.2573,0.0549,-0.0507,42.1688,6.9750,1.9313,
4.776692,-0.6915,-0.5638,0.1748,-0.2573,0.0549,-0.0507,42.1688,6.9750,1.9313,
4.796394,-0.8583,-0.6447,0.1756,-0.2573,0.0549,-0.0507,42.1688,6.9750,1.9313,
4.810169,-0.8583,-0.6447,0.1756,-0.2573,0.0549,-0.0507,42.1688,6.9750,1.9313,
4.816571,-0.6980,-0.3545,0.1560,-0.2573,0.0549,-0.0507,42.1688,6.9750,1.9313,
4.819338,-0.6980,-0.3545,0.1560,-0.2230,-0.0832,-0.1057,42.1688,6.9750,1.9313,
4.831362,-0.6980,-0.3545,0.1560,-0.2230,-0.0832,-0.1057,41.6625,7.3500,2.3813,
4.834441,-0.1484,0.3251,-0.3055,-0.2230,-0.0832,-0.1057,41.6625,7.3500,2.3813,
4.853759,-0.0039,0.4724,-0.5014,-0.2230,-0.0832,-0.1057,41.6625,7.3500,2.3813,
4.872502,-0.0039,0.4724,-0.5014,-0.2230,-0.0832,-0.1057,41.6625,7.3500,2.3813,
4.875360,-0.2323,0.1165,-0.1863,-0.2230,-0.0832,-0.1057,41.6625,7.3500,2.3813,
4.881824,-0.2323,0.1165,-0.1863,-0.5895,-0.0550,-0.0923,41.6625,7.3500,2.3813,
4.891909,-1.0111,-0.5712,-0.2073,-0.5895,-0.0550,-0.0923,41.6625,7.3500,2.3813,
4.893359,-1.0111,-0.5712,-0.2073,-0.5895,-0.0550,-0.0923,43.2188,7.8938,0.6750,
4.911877,-0.9107,-0.6556,-0.0350,-0.5895,-0.0550,-0.0923,43.2188,7.8938,0.6750,
4.929855,-0.7781,-0.4286,-0.2370,-0.5895,-0.0550,-0.0923,43.2188,7.8938,0.6750,
4.933662,-0.7781,-0.4286,-0.2370,-0.5895,-0.0550,-0.0923,43.2188,7.8938,0.6750,
4.945977,-0.7781,-0.4286,-0.2370,-0.8449,-0.1723,-0.1961,43.2188,7.8938,0.6750,
4.949341,-0.3799,-0.0470,-0.0725,-0.8449,-0.1723,-0.1961,43.2188,7.8938,0.6750,
4.951986,-0.3799,-0.0470,-0.0725,-0.8449,-0.1723,-0.1961,42.0000,8.6063,2.8875,
4.968661,-0.1292,-0.2679,0.0246,-0.8449,-0.1723,-0.1961,42.0000,8.6063,2.8875,
4.987733,-0.2287,-0.7020,0.3605,-0.8449,-0.1723,-0.1961,42.0000,8.6063,2.8875,
4.996884,-0.2287,-0.7020,0.3605,-0.8449,-0.1723,-0.1961,42.0000,8.6063,2.8875,
5.006632,-0.2287,-0.7020,0.3605,-1.0721,-0.2163,-0.1130,42.0000,8.6063,2.8875,
5.010439,-0.4970,-0.8084,0.0355,-1.0721,-0.2163,-0.1130,42.0000,8.6063,2.8875,
5.012817,-0.4970,-0.8084,0.0355,-1.0721,-0.2163,-0.1130,41.5312,8.3063,3.2063,
5.026649,-0.3957,-0.4446,0.0199,-1.0721,-0.2163,-0.1130,41.5312,8.3063,3.2063,
5.044253,0.0256,-0.1297,0.5489,-1.0721,-0.2163,-0.1130,41.5312,8.3063,3.2063,
5.059588,0.0256,-0.1297,0.5489,-1.0721,-0.2163,-0.1130,41.5312,8.3063,3.2063,
5.064325,-0.1264,-0.4460,0.5768,-1.0721,-0.2163,-0.1130,41.5312,8.3063,3.2063,
5.070105,-0.1264,-0.4460,0.5768,-1.2701,-0.1955,-0.1778,41.5312,8.3063,3.2063,
5.073277,-0.1264,-0.4460,0.5768,-1.2701,-0.1955,-0.1778,41.3250,8.3813,3.5250,
5.083128,-0.6025,-0.7188,-0.7494,-1.2701,-0.1955,-0.1778,41.3250,8.3813,3.5250,
5.101965,-0.2195,-0.5554,-0.3379,-1.2701,-0.1955,-0.1778,41.3250,8.3813,3.5250,
5.120559,-0.2195,-0.5554,-0.3379,-1.2701,-0.1955,-0.1778,41.3250,8.3813,3.5250,
5.121940,-0.0373,-0.8977,-0.3860,-1.2701,-0.1955,-0.1778,41.3250,8.3813,3.5250,
5.131000,-0.0373,-0.8977,-0.3860,-1.4007,-0.1198,-0.1900,41.3250,8.3813,3.5250,
5.133888,-0.0373,-0.8977,-0.3860,-1.4007,-0.1198,-0.1900,41.5875,9.0750,3.6375,
5.140221,0.0672,-0.9906,-0.5670,-1.4007,-0.1198,-0.1900,41.5875,9.0750,3.6375,
5.159306,-0.3813,-0.7180,-0.6107,-1.4007,-0.1198,-0.1900,41.5875,9.0750,3.6375,
5.178492,-0.5751,-0.6974,-0.2490,-1.4007,-0.1198,-0.1900,41.5875,9.0750,3.6375,
5.183177,-0.5751,-0.6974,-0.2490,-1.4007,-0.1198,-0.1900,41.5875,9.0750,3.6375,
5.190729,-0.5751,-0.6974,-0.2490,-1.4007,-0.1198,-0.1900,41.4563,9.4688,5.4000,
5.192722,-0.5751,-0.6974,-0.2490,-1.5462,-0.0550,-0.1875,41.4563,9.4688,5.4000,
5.197760,-0.4202,-0.4722,-0.0938,-1.5462,-0.0550,-0.1875,41.4563,9.4688,5.4000,
5.217602,-0.4366,-1.1154,-0.2787,-1.5462,-0.0550,-0.1875,41.4563,9.4688,5.4000,
5.236181,-0.3619,-1.7973,-0.5169,-1.5462,-0.0550,-0.1875,41.4563,9.4688,5.4000,
5.245257,-0.3619,-1.7973,-0.5169,-1.5462,-0.0550,-0.1875,41.4563,9.4688,5.4000,
5.251074,-0.3619,-1.7973,-0.5169,-1.5462,-0.0550,-0.1875,41.3625,9.1313,6.0375,
5.254995,-0.3619,-1.7973,-0.5169,-1.5669,-0.1112,-0.1118,41.3625,9.1313,6.0375,
5.256462,-0.2463,-1.1055,-0.9422,-1.5669,-0.1112,-0.1118,41.3625,9.1313,6.0375,
5.274038,-0.1175,-0.5564,-0.8297,-1.5669,-0.1112,-0.1118,41.3625,9.1313,6.0375,
5.294570,-0.1425,-0.5748,-0.7954,-1.5669,-0.1112,-0.1118,41.3625,9.1313,6.0375,
5.307920,-0.1425,-0.5748,-0.7954,-1.5669,-0.1112,-0.1118,41.3625,9.1313,6.0375,
5.311074,-0.1425,-0.5748,-0.7954,-1.5669,-0.1112,-0.1118,42.0563,9.0375,5.4938,
5.312621,0.0753,-1.0557,0.3559,-1.5669,-0.1112,-0.1118,42.0563,9.0375,5.4938,
5.316148,0.0753,-1.0557,0.3559,-1.4081,-0.2163,-0.1290,42.0563,9.0375,5.4938,
5.332201,0.1013,-1.6450,-0.1778,-1.4081,-0.2163,-0.1290,42.0563,9.0375,5.4938,
5.351030,0.2260,-0.9260,-0.8779,-1.4081,-0.2163,-0.1290,42.0563,9.0375,5.4938,
5.369758,0.2260,-0.9260,-0.8779,-1.4081,-0.2163,-0.1290,42.0563,9.0375,5.4938,
5.372941,-0.2311,-0.3979,-0.8148,-1.4081,-0.2163,-0.1290,42.0563,9.0375,5.4938,
5.375461,-0.2311,-0.3979,-0.8148,-1.4081,-0.2163,-0.1290,42.4313,9.0000,6.2063,
5.380669,-0.2311,-0.3979,-0.8148,-1.4142,-0.0990,-0.1961,42.4313,9.0000,6.2063,
5.388718,-0.5987,-0.7692,-0.3866,-1.4142,-0.0990,-0.1961,42.4313,9.0000,6.2063,
5.408816,-0.6934,-1.2606,0.3151,-1.4142,-0.0990,-0.1961,42.4313,9.0000,6.2063,
5.427778,-0.6053,-0.9327,-0.4276,-1.4142,-0.0990,-0.1961,42.4313,9.0000,6.2063,
5.433399,-0.6053,-0.9327,-0.4276,-1.4142,-0.0990,-0.1961,40.7438,9.2063,8.6438,
5.435031,-0.6053,-0.9327,-0.4276,-1.4142,-0.0990,-0.1961,40.7438,9.2063,8.6438,
5.440543,-0.6053,-0.9327,-0.4276,-1.4630,-0.1198,-0.0960,40.7438,9.2063,8.6438,
5.446056,-0.3633,-0.1703,-0.9845,-1.4630,-0.1198,-0.0960,40.7438,9.2063,8.6438,
5.465274,-0.2196,-0.4722,-0.7607,-1.4630,-0.1198,-0.0960,40.7438,9.2063,8.6438,
5.485099,-0.1270,-0.6434,-0.6858,-1.4630,-0.1198,-0.0960,40.7438,9.2063,8.6438,
5.490582,-0.1270,-0.6434,-0.6858,-1.4630,-0.1198,-0.0960,40.8375,9.1500,9.3750,
5.494393,-0.1270,-0.6434,-0.6858,-1.4630,-0.1198,-0.0960,40.8375,9.1500,9.3750,
5.503851,-0.1270,-0.6434,-0.6858,-1.2688,-0.1283,-0.1643,40.8375,9.1500,9.3750,
5.508102,0.0249,-0.2987,-0.2747,-1.2688,-0.1283,-0.1643,40.8375,9.1500,9.3750,
5.523361,0.2269,-0.4786,-0.3598,-1.2688,-0.1283,-0.1643,40.8375,9.1500,9.3750,
5.543026,0.0403,-0.9256,-0.4244,-1.2688,-0.1283,-0.1643,40.8375,9.1500,9.3750,
5.552950,0.0403,-0.9256,-0.4244,-1.2688,-0.1283,-0.1643,41.2500,8.6438,9.5625,
5.555713,0.0403,-0.9256,-0.4244,-1.2688,-0.1283,-0.1643,41.2500,8.6438,9.5625,
5.561539,-0.5060,-0.9057,-0.4372,-1.2688,-0.1283,-0.1643,41.2500,8.6438,9.5625,
5.565054,-0.5060,-0.9057,-0.4372,-1.0343,-0.1895,-0.1753,41.2500,8.6438,9.5625,
5.579867,-0.8924,-0.6068,-0.7281,-1.0343,-0.1895,-0.1753,41.2500,8.6438,9.5625,
5.598940,-0.8970,-0.3839,-1.0248,-1.0343,-0.1895,-0.1753,41.2500,8.6438,9.5625,
5.612781,-0.8970,-0.3839,-1.0248,-1.0343,-0.1895,-0.1753,40.7625,8.5125,10.2000,
5.618039,-0.8970,-0.3839,-1.0248,-1.0343,-0.1895,-0.1753,40.7625,8.5125,10.2000,
5.619006,-0.4822,-0.3727,-1.2589,-1.0343,-0.1895,-0.1753,40.7625,8.5125,10.2000,
5.627357,-0.4822,-0.3727,-1.2589,-0.9756,-0.2823,-0.1448,40.7625,8.5125,10.2000,
5.637590,0.1962,-0.7977,-1.4692,-0.9756,-0.2823,-0.1448,40.7625,8.5125,10.2000,
5.656736,0.2262,-1.2279,-1.4967,-0.9756,-0.2823,-0.1448,40.7625,8.5125,10.2000,
5.672352,0.2262,-1.2279,-1.4967,-0.9756,-0.2823,-0.1448,41.3063,9.0750,10.6125,
5.675698,-0.1044,-1.2422,-1.5158,-0.9756,-0.2823,-0.1448,41.3063,9.0750,10.6125,
5.680526,-0.1044,-1.2422,-1.5158,-0.9756,-0.2823,-0.1448,41.3063,9.0750,10.6125,
5.689155,-0.1044,-1.2422,-1.5158,-1.1246,-0.2273,-0.1228,41.3063,9.0750,10.6125,
5.694618,-0.1542,-0.8882,-1.3800,-1.1246,-0.2273,-0.1228,41.3063,9.0750,10.6125,
5.714169,0.0822,-0.9061,-1.4034,-1.1246,-0.2273,-0.1228,41.3063,9.0750,10.6125,
5.730737,0.0822,-0.9061,-1.4034,-1.1246,-0.2273,-0.1228,40.7250,9.2063,10.4062,
5.733998,0.3192,-0.8135,-1.4167,-1.1246,-0.2273,-0.1228,40.7250,9.2063,10.4062,
5.744115,0.3192,-0.8135,-1.4167,-1.1246,-0.2273,-0.1228,40.7250,9.2063,10.4062,
5.752015,0.3192,-0.8135,-1.4167,-0.8412,-0.1027,-0.0996,40.7250,9.2063,10.4062,
5.754525,0.3521,-0.5758,-1.7438,-0.8412,-0.1027,-0.0996,40.7250,9.2063,10.4062,
5.771108,0.3141,-0.3863,-1.7205,-0.8412,-0.1027,-0.0996,40.7250,9.2063,10.4062,
5.791283,0.2356,-0.2188,-1.3013,-0.8412,-0.1027,-0.0996,40.7250,9.2063,10.4062,
5.794692,0.2356,-0.2188,-1.3013,-0.8412,-0.1027,-0.0996,42.1125,8.8125,9.4313,
5.804758,0.2356,-0.2188,-1.3013,-0.8412,-0.1027,-0.0996,42.1125,8.8125,9.4313,
5.811774,0.0626,-0.2944,-1.1214,-0.8412,-0.1027,-0.0996,42.1125,8.8125,9.4313,
5.813309,0.0626,-0.2944,-1.1214,-1.2199,0.1686,-0.1192,42.1125,8.8125,9.4313,
5.828939,-0.0676,-0.7533,-0.9396,-1.2199,0.1686,-0.1192,42.1125,8.8125,9.4313,
5.848510,-0.0956,-1.1402,-0.5710,-1.2199,0.1686,-0.1192,42.1125,8.8125,9.4313,
5.850335,-0.0956,-1.1402,-0.5710,-1.2199,0.1686,-0.1192,42.1313,8.3438,10.7812,
5.867291,-0.0956,-1.1402,-0.5710,-1.2199,0.1686,-0.1192,42.1313,8.3438,10.7812,
5.870273,-0.3110,-0.8667,-0.5873,-1.2199,0.1686,-0.1192,42.1313,8.3438,10.7812,
5.876181,-0.3110,-0.8667,-0.5873,-1.0293,0.2467,-0.0654,42.1313,8.3438,10.7812,
5.887032,-0.4373,-0.4050,-0.2802,-1.0293,0.2467,-0.0654,42.1313,8.3438,10.7812,
5.905158,-0.6608,-0.3993,-0.2318,-1.0293,0.2467,-0.0654,42.1313,8.3438,10.7812,
5.911949,-0.6608,-0.3993,-0.2318,-1.0293,0.2467,-0.0654,40.7625,7.6125,13.8375,
5.924292,-1.0839,-0.3371,-0.7022,-1.0293,0.2467,-0.0654,40.7625,7.6125,13.8375,
5.929037,-1.0839,-0.3371,-0.7022,-1.0293,0.2467,-0.0654,40.7625,7.6125,13.8375,
5.938321,-1.0839,-0.3371,-0.7022,-1.0660,0.0758,-0.0580,40.7625,7.6125,13.8375,
5.944935,-0.8429,-0.3881,-1.0449,-1.0660,0.0758,-0.0580,40.7625,7.6125,13.8375,
5.963540,0.1196,-0.6794,-0.7463,-1.0660,0.0758,-0.0580,40.7625,7.6125,13.8375,
5.971027,0.1196,-0.6794,-0.7463,-1.0660,0.0758,-0.0580,40.6688,7.0875,14.4563,
5.982523,0.5897,-0.4890,-0.5472,-1.0660,0.0758,-0.0580,40.6688,7.0875,14.4563,
5.991481,0.5897,-0.4890,-0.5472,-1.0660,0.0758,-0.0580,40.6688,7.0875,14.4563,
6.000209,0.5897,-0.4890,-0.5472,-0.7215,0.0953,-0.0092,40.6688,7.0875,14.4563,
6.001581,0.1697,-0.6270,-0.4116,-0.7215,0.0953,-0.0092,40.6688,7.0875,14.4563,
6.019854,-0.2995,-0.8354,-0.3535,-0.7215,0.0953,-0.0092,40.6688,7.0875,14.4563,
6.030553,-0.2995,-0.8354,-0.3535,-0.7215,0.0953,-0.0092,40.4062,6.4875,14.7750,
6.039730,-0.5417,-0.5505,-0.9869,-0.7215,0.0953,-0.0092,40.4062,6.4875,14.7750,
6.054197,-0.5417,-0.5505,-0.9869,-0.7215,0.0953,-0.0092,40.4062,6.4875,14.7750,
6.058172,-0.3554,-0.4006,-1.0603,-0.7215,0.0953,-0.0092,40.4062,6.4875,14.7750,
6.062566,-0.3554,-0.4006,-1.0603,-0.4723,0.2736,-0.0727,40.4062,6.4875,14.7750,
6.078203,-0.7621,-0.0764,-0.5794,-0.4723,0.2736,-0.0727,40.4062,6.4875,14.7750,
6.090964,-0.7621,-0.0764,-0.5794,-0.4723,0.2736,-0.0727,39.8438,5.7188,16.2375,
6.096571,-1.3865,-0.6658,-0.0526,-0.4723,0.2736,-0.0727,39.8438,5.7188,16.2375,
6.115627,-1.3865,-0.6658,-0.0526,-0.4723,0.2736,-0.0727,39.8438,5.7188,16.2375,
6.118477,-1.2170,-0.6919,-0.2026,-0.4723,0.2736,-0.0727,39.8438,5.7188,16.2375,
6.125167,-1.2170,-0.6919,-0.2026,-0.3806,0.0280,-0.2475,39.8438,5.7188,16.2375,
6.135745,-0.8005,-0.5546,-0.5383,-0.3806,0.0280,-0.2475,39.8438,5.7188,16.2375,
6.151261,-0.8005,-0.5546,-0.5383,-0.3806,0.0280,-0.2475,40.2188,5.7938,16.6313,
6.154586,-0.2234,-0.2459,-0.5916,-0.3806,0.0280,-0.2475,40.2188,5.7938,16.6313,
6.173292,0.4605,0.3211,-0.5822,-0.3806,0.0280,-0.2475,40.2188,5.7938,16.6313,
6.177845,0.4605,0.3211,-0.5822,-0.3806,0.0280,-0.2475,40.2188,5.7938,16.6313,
6.187057,0.4605,0.3211,-0.5822,-0.1375,0.1722,-0.0520,40.2188,5.7938,16.6313,
6.192225,0.7023,0.3787,-0.4664,-0.1375,0.1722,-0.0520,40.2188,5.7938,16.6313,
6.211752,0.5564,-0.0625,-0.4701,-0.1375,0.1722,-0.0520,40.2188,5.7938,16.6313,
6.215433,0.5564,-0.0625,-0.4701,-0.1375,0.1722,-0.0520,39.8063,6.2625,17.0625,
6.231634,0.4198,-0.2821,-0.5724,-0.1375,0.1722,-0.0520,39.8063,6.2625,17.0625,
6.240145,0.4198,-0.2821,-0.5724,-0.1375,0.1722,-0.0520,39.8063,6.2625,17.0625,
6.249549,0.4198,-0.2821,-0.5724,-0.0349,0.2639,0.0813,39.8063,6.2625,17.0625,
6.253073,0.2588,-0.0560,-0.7950,-0.0349,0.2639,0.0813,39.8063,6.2625,17.0625,
6.268510,0.1423,-0.0057,-0.7655,-0.0349,0.2639,0.0813,39.8063,6.2625,17.0625,
6.270253,0.1423,-0.0057,-0.7655,-0.0349,0.2639,0.0813,40.8938,6.0000,16.1063,
6.287324,0.0906,-0.2385,-0.5236,-0.0349,0.2639,0.0813,40.8938,6.0000,16.1063,
6.302240,0.0906,-0.2385,-0.5236,-0.0349,0.2639,0.0813,40.8938,6.0000,16.1063,
6.307698,0.2029,-0.2674,-0.5225,-0.0349,0.2639,0.0813,40.8938,6.0000,16.1063,
6.310642,0.2029,-0.2674,-0.5225,0.1838,0.0793,0.0373,40.8938,6.0000,16.1063,
6.326985,0.4794,-0.1399,-0.6603,0.1838,0.0793,0.0373,40.8938,6.0000,16.1063,
6.331566,0.4794,-0.1399,-0.6603,0.1838,0.0793,0.0373,40.4062,5.9062,16.3313,
6.345863,0.6261,-0.1644,-0.6616,0.1838,0.0793,0.0373,40.4062,5.9062,16.3313,
6.364655,0.6261,-0.1644,-0.6616,0.1838,0.0793,0.0373,40.4062,5.9062,16.3313,
6.366695,0.9842,-0.1565,-0.4762,0.1838,0.0793,0.0373,40.4062,5.9062,16.3313,
6.374209,0.9842,-0.1565,-0.4762,0.0470,0.3176,0.3561,40.4062,5.9062,16.3313,
6.384351,0.6137,-0.2366,-0.2860,0.0470,0.3176,0.3561,40.4062,5.9062,16.3313,
6.391224,0.6137,-0.2366,-0.2860,0.0470,0.3176,0.3561,39.2438,5.2125,18.4313,
6.403036,0.4090,-0.2665,-0.2564,0.0470,0.3176,0.3561,39.2438,5.2125,18.4313,
6.421686,-0.1047,-0.2084,0.0769,0.0470,0.3176,0.3561,39.2438,5.2125,18.4313,
6.426162,-0.1047,-0.2084,0.0769,0.0470,0.3176,0.3561,39.2438,5.2125,18.4313,
6.434953,-0.1047,-0.2084,0.0769,0.1106,0.3457,0.2729,39.2438,5.2125,18.4313,
6.441139,-0.4638,-0.0814,0.5009,0.1106,0.3457,0.2729,39.2438,5.2125,18.4313,
6.451116,-0.4638,-0.0814,0.5009,0.1106,0.3457,0.2729,38.9625,4.6875,19.3688,
6.460002,-0.6873,-0.2945,0.3417,0.1106,0.3457,0.2729,38.9625,4.6875,19.3688,
6.479853,-0.3577,-0.4629,0.1796,0.1106,0.3457,0.2729,38.9625,4.6875,19.3688,
6.491415,-0.3577,-0.4629,0.1796,0.1106,0.3457,0.2729,38.9625,4.6875,19.3688,
6.497923,-0.3577,-0.4629,0.1796,0.0458,0.1551,0.1863,38.9625,4.6875,19.3688,
6.501025,-0.0079,-0.5361,-0.3207,0.0458,0.1551,0.1863,38.9625,4.6875,19.3688,
6.510341,-0.0079,-0.5361,-0.3207,0.0458,0.1551,0.1863,39.3000,3.8813,19.1438,
6.516994,-0.1314,-0.4084,-0.1949,0.0458,0.1551,0.1863,39.3000,3.8813,19.1438,
6.536716,-0.3053,-0.3644,-0.4376,0.0458,0.1551,0.1863,39.3000,3.8813,19.1438,
6.551185,-0.3053,-0.3644,-0.4376,0.0458,0.1551,0.1863,39.3000,3.8813,19.1438,
6.556866,-0.5835,0.0938,-0.6760,0.0458,0.1551,0.1863,39.3000,3.8813,19.1438,
6.559888,-0.5835,0.0938,-0.6760,-0.0825,0.1551,0.1056,39.3000,3.8813,19.1438,
6.570652,-0.5835,0.0938,-0.6760,-0.0825,0.1551,0.1056,39.1125,3.5250,20.2875,
6.574434,-0.5831,0.1618,-0.3964,-0.0825,0.1551,0.1056,39.1125,3.5250,20.2875,
6.594525,-0.4942,-0.0865,-0.4080,-0.0825,0.1551,0.1056,39.1125,3.5250,20.2875,
6.611797,-0.4942,-0.0865,-0.4080,-0.0825,0.1551,0.1056,39.1125,3.5250,20.2875,
6.613103,-0.5732,-0.1576,-0.3548,-0.0825,0.1551,0.1056,39.1125,3.5250,20.2875,
6.622331,-0.5732,-0.1576,-0.3548,-0.2683,0.0353,-0.0202,39.1125,3.5250,20.2875,
6.630628,-0.5732,-0.1576,-0.3548,-0.2683,0.0353,-0.0202,39.2250,3.2438,20.0813,
6.632084,-0.4703,-0.7316,-0.4011,-0.2683,0.0353,-0.0202,39.2250,3.2438,20.0813,
6.652037,-0.6615,-1.0020,-0.3965,-0.2683,0.0353,-0.0202,39.2250,3.2438,20.0813,
6.670640,-1.0027,-0.7843,0.0489,-0.2683,0.0353,-0.0202,39.2250,3.2438,20.0813,
6.674664,-1.0027,-0.7843,0.0489,-0.2683,0.0353,-0.0202,39.2250,3.2438,20.0813,
6.685545,-1.0027,-0.7843,0.0489,-0.3464,-0.0892,-0.2120,39.2250,3.2438,20.0813,
6.689597,-1.2215,-0.4857,0.1241,-0.3464,-0.0892,-0.2120,39.2250,3.2438,20.0813,
6.692341,-1.2215,-0.4857,0.1241,-0.3464,-0.0892,-0.2120,38.4188,3.3375,20.5125,
6.708712,-0.9110,-0.1996,0.0253,-0.3464,-0.0892,-0.2120,38.4188,3.3375,20.5125,
6.728860,-1.0591,-0.0180,-0.1396,-0.3464,-0.0892,-0.2120,38.4188,3.3375,20.5125,
6.737030,-1.0591,-0.0180,-0.1396,-0.3464,-0.0892,-0.2120,38.4188,3.3375,20.5125,
6.746576,-1.0591,-0.0180,-0.1396,-0.6396,-0.0624,-0.4771,38.4188,3.3375,20.5125,
6.750110,-1.2776,-0.0901,-0.2229,-0.6396,-0.0624,-0.4771,38.4188,3.3375,20.5125,
6.752343,-1.2776,-0.0901,-0.2229,-0.6396,-0.0624,-0.4771,38.4375,3.2625,20.2125,
6.766017,-1.6824,-0.3354,-0.0844,-0.6396,-0.0624,-0.4771,38.4375,3.2625,20.2125,
6.784847,-1.9540,-0.2542,-0.1755,-0.6396,-0.0624,-0.4771,38.4375,3.2625,20.2125,
6.798310,-1.9540,-0.2542,-0.1755,-0.6396,-0.0624,-0.4771,38.4375,3.2625,20.2125,
6.804671,-2.0033,-0.2472,0.1024,-0.6396,-0.0624,-0.4771,38.4375,3.2625,20.2125,
6.809437,-2.0033,-0.2472,0.1024,-0.9060,-0.5461,-0.7410,38.4375,3.2625,20.2125,
6.812201,-2.0033,-0.2472,0.1024,-0.9060,-0.5461,-0.7410,39.0938,3.7500,20.0813,
6.824497,-1.6527,-0.7737,-0.5812,-0.9060,-0.5461,-0.7410,39.0938,3.7500,20.0813,
6.842604,-1.4589,-0.9321,-1.0178,-0.9060,-0.5461,-0.7410,39.0938,3.7500,20.0813,
6.862017,-1.4589,-0.9321,-1.0178,-0.9060,-0.5461,-0.7410,39.0938,3.7500,20.0813,
6.865135,-0.9990,-0.8332,-0.6265,-0.9060,-0.5461,-0.7410,39.0938,3.7500,20.0813,
6.870931,-0.9990,-0.8332,-0.6265,-1.2614,-0.8528,-1.1674,39.0938,3.7500,20.0813,
6.872455,-0.9990,-0.8332,-0.6265,-1.2614,-0.8528,-1.1674,39.0375,5.3625,19.3688,
6.879956,-1.0278,-1.1089,-0.1371,-1.2614,-0.8528,-1.1674,39.0375,5.3625,19.3688,
6.900456,-0.8401,-1.3436,0.2607,-1.2614,-0.8528,-1.1674,39.0375,5.3625,19.3688,
6.919741,-0.3965,-1.3705,0.6901,-1.2614,-0.8528,-1.1674,39.0375,5.3625,19.3688,
6.923396,-0.3965,-1.3705,0.6901,-1.2614,-0.8528,-1.1674,39.0375,5.3625,19.3688,
6.930337,-0.3965,-1.3705,0.6901,-1.2614,-0.8528,-1.1674,39.3563,7.2000,18.3375,
6.932891,-0.3965,-1.3705,0.6901,-1.1991,-0.7942,-1.1234,39.3563,7.2000,18.3375,
6.937677,-0.5107,-0.6947,0.0934,-1.1991,-0.7942,-1.1234,39.3563,7.2000,18.3375,
6.957833,-0.3710,-0.9501,0.1052,-1.1991,-0.7942,-1.1234,39.3563,7.2000,18.3375,
6.977234,0.6953,-1.1318,0.3458,-1.1991,-0.7942,-1.1234,39.3563,7.2000,18.3375,
6.985943,0.6953,-1.1318,0.3458,-1.1991,-0.7942,-1.1234,39.3563,7.2000,18.3375,
6.991610,0.6953,-1.1318,0.3458,-1.1991,-0.7942,-1.1234,39.1125,8.8500,17.4188,
6.995234,0.6953,-1.1318,0.3458,-1.0904,-0.7367,-1.1429,39.1125,8.8500,17.4188,
6.997718,0.7761,-0.9653,0.5805,-1.0904,-0.7367,-1.1429,39.1125,8.8500,17.4188,
7.015430,1.0191,-0.7650,0.4390,-1.0904,-0.7367,-1.1429,39.1125,8.8500,17.4188,
7.034319,0.9567,-0.5968,-0.4011,-1.0904,-0.7367,-1.1429,39.1125,8.8500,17.4188,
7.048077,0.9567,-0.5968,-0.4011,-1.0904,-0.7367,-1.1429,39.1125,8.8500,17.4188,
7.051650,0.9567,-0.5968,-0.4011,-1.0904,-0.7367,-1.1429,39.1313,10.8188,15.9750,
7.054274,1.5259,-0.7197,0.1420,-1.0904,-0.7367,-1.1429,39.1313,10.8188,15.9750,
7.058500,1.5259,-0.7197,0.1420,-0.4796,-0.6036,-0.7960,39.1313,10.8188,15.9750,
7.072349,1.6921,-0.8366,0.5659,-0.4796,-0.6036,-0.7960,39.1313,10.8188,15.9750,
7.091878,1.9427,-0.3804,1.5626,-0.4796,-0.6036,-0.7960,39.1313,10.8188,15.9750,
7.110034,1.9427,-0.3804,1.5626,-0.4796,-0.6036,-0.7960,39.1313,10.8188,15.9750,
7.111546,2.0498,-0.7053,1.8808,-0.4796,-0.6036,-0.7960,39.1313,10.8188,15.9750,
7.112558,2.0498,-0.7053,1.8808,-0.4796,-0.6036,-0.7960,39.0938,12.0375,15.3750,
7.119715,2.0498,-0.7053,1.8808,0.2632,-0.3788,-0.4698,39.0938,12.0375,15.3750,
7.130570,1.4185,-0.9212,1.3671,0.2632,-0.3788,-0.4698,39.0938,12.0375,15.3750,
7.149322,1.3671,-1.0064,0.4579,0.2632,-0.3788,-0.4698,39.0938,12.0375,15.3750,
7.169086,0.8277,-0.8254,-0.0683,0.2632,-0.3788,-0.4698,39.0938,12.0375,15.3750,
7.172469,0.8277,-0.8254,-0.0683,0.2632,-0.3788,-0.4698,39.4313,13.4063,13.8000,
7.174690,0.8277,-0.8254,-0.0683,0.2632,-0.3788,-0.4698,39.4313,13.4063,13.8000,
7.180759,0.8277,-0.8254,-0.0683,0.8521,-0.3568,-0.0312,39.4313,13.4063,13.8000,
7.186745,0.3222,-0.5583,0.0803,0.8521,-0.3568,-0.0312,39.4313,13.4063,13.8000,
7.205613,0.0966,-0.6656,-0.5955,0.8521,-0.3568,-0.0312,39.4313,13.4063,13.8000,
7.225688,0.1569,-0.5016,-0.1923,0.8521,-0.3568,-0.0312,39.4313,13.4063,13.8000,
7.230526,0.1569,-0.5016,-0.1923,0.8521,-0.3568,-0.0312,39.0188,14.2688,12.6750,
7.233625,0.1569,-0.5016,-0.1923,0.8521,-0.3568,-0.0312,39.0188,14.2688,12.6750,
7.244780,0.1569,-0.5016,-0.1923,1.0952,-0.1185,0.3439,39.0188,14.2688,12.6750,
7.246304,0.5815,-0.2319,0.6148,1.0952,-0.1185,0.3439,39.0188,14.2688,12.6750,
7.263924,0.5498,-0.1040,0.1332,1.0952,-0.1185,0.3439,39.0188,14.2688,12.6750,
7.282688,0.3503,0.4210,-0.9236,1.0952,-0.1185,0.3439,39.0188,14.2688,12.6750,
7.291650,0.3503,0.4210,-0.9236,1.0952,-0.1185,0.3439,39.7125,14.6438,11.0063,
7.296590,0.3503,0.4210,-0.9236,1.0952,-0.1185,0.3439,39.7125,14.6438,11.0063,
7.301119,0.6874,1.1817,-1.2251,1.0952,-0.1185,0.3439,39.7125,14.6438,11.0063,
7.305704,0.6874,1.1817,-1.2251,0.9437,0.1233,0.5650,39.7125,14.6438,11.0063,
7.321670,1.2679,1.5835,-1.3522,0.9437,0.1233,0.5650,39.7125,14.6438,11.0063,
7.339995,1.1511,1.0752,-2.3143,0.9437,0.1233,0.5650,39.7125,14.6438,11.0063,
7.351376,1.1511,1.0752,-2.3143,0.9437,0.1233,0.5650,40.6313,13.8563,10.4438,
7.358492,1.1511,1.0752,-2.3143,0.9437,0.1233,0.5650,40.6313,13.8563,10.4438,
7.359872,0.9664,0.8515,-2.4272,0.9437,0.1233,0.5650,40.6313,13.8563,10.4438,
7.367964,0.9664,0.8515,-2.4272,-0.0349,0.2199,0.4709,40.6313,13.8563,10.4438,
7.378464,1.4908,0.5241,-2.3387,-0.0349,0.2199,0.4709,40.6313,13.8563,10.4438,
7.397520,2.4115,0.0735,-2.0243,-0.0349,0.2199,0.4709,40.6313,13.8563,10.4438,
7.412895,2.4115,0.0735,-2.0243,-0.0349,0.2199,0.4709,41.0250,13.0500,12.0938,
7.416591,1.2663,0.3132,-2.3404,-0.0349,0.2199,0.4709,41.0250,13.0500,12.0938,
7.420980,1.2663,0.3132,-2.3404,-0.0349,0.2199,0.4709,41.0250,13.0500,12.0938,
7.431318,1.2663,0.3132,-2.3404,-0.9206,0.3469,0.0861,41.0250,13.0500,12.0938,
7.435430,0.3100,0.4961,-2.1684,-0.9206,0.3469,0.0861,41.0250,13.0500,12.0938,
7.455064,0.3717,-0.0043,-2.6258,-0.9206,0.3469,0.0861,41.0250,13.0500,12.0938,
7.471514,0.3717,-0.0043,-2.6258,-0.9206,0.3469,0.0861,40.3500,12.8063,13.3688,
7.476284,-0.5507,-0.6253,-2.7985,-0.9206,0.3469,0.0861,40.3500,12.8063,13.3688,
7.482047,-0.5507,-0.6253,-2.7985,-0.9206,0.3469,0.0861,40.3500,12.8063,13.3688,
7.492121,-0.5507,-0.6253,-2.7985,-1.9726,-0.5131,0.0055,40.3500,12.8063,13.3688,
7.493665,-0.7048,-1.1713,-2.4684,-1.9726,-0.5131,0.0055,40.3500,12.8063,13.3688,
7.512170,-0.6519,-1.0904,-2.7356,-1.9726,-0.5131,0.0055,40.3500,12.8063,13.3688,
7.532713,-0.9687,-0.6088,-2.7123,-1.9726,-0.5131,0.0055,40.3500,12.8063,13.3688,
7.536301,-0.9687,-0.6088,-2.7123,-1.9726,-0.5131,0.0055,40.7063,11.2688,13.9688,
7.544870,-0.9687,-0.6088,-2.7123,-1.9726,-0.5131,0.0055,40.7063,11.2688,13.9688,
7.550230,-1.1836,-0.0354,-2.4549,-1.9726,-0.5131,0.0055,40.7063,11.2688,13.9688,
7.554537,-1.1836,-0.0354,-2.4549,-2.3280,-0.5499,-0.2145,40.7063,11.2688,13.9688,
7.569158,-1.5422,-0.5096,-1.9513,-2.3280,-0.5499,-0.2145,40.7063,11.2688,13.9688,
7.589105,-2.1789,-0.9148,-1.3669,-2.3280,-0.5499,-0.2145,40.7063,11.2688,13.9688,
7.593078,-2.1789,-0.9148,-1.3669,-2.3280,-0.5499,-0.2145,41.6063,10.1813,15.1688,
7.607257,-2.1789,-0.9148,-1.3669,-2.3280,-0.5499,-0.2145,41.6063,10.1813,15.1688,
7.609874,-1.2100,-0.1965,-1.2524,-2.3280,-0.5499,-0.2145,41.6063,10.1813,15.1688,
7.616268,-1.2100,-0.1965,-1.2524,-2.4783,-0.7685,-0.1877,41.6063,10.1813,15.1688,
7.627253,-0.3225,0.1147,-2.2306,-2.4783,-0.7685,-0.1877,41.6063,10.1813,15.1688,
7.646074,-1.1994,-0.4136,-2.2538,-2.4783,-0.7685,-0.1877,41.6063,10.1813,15.1688,
7.652121,-1.1994,-0.4136,-2.2538,-2.4783,-0.7685,-0.1877,41.1750,9.0563,14.3438,
7.665893,-1.3969,-1.2859,-0.8989,-2.4783,-0.7685,-0.1877,41.1750,9.0563,14.3438,
7.669724,-1.3969,-1.2859,-0.8989,-2.4783,-0.7685,-0.1877,41.1750,9.0563,14.3438,
7.679891,-1.3969,-1.2859,-0.8989,-1.8283,-0.2370,0.0616,41.1750,9.0563,14.3438,
7.684317,-1.5295,-1.6450,-0.4907,-1.8283,-0.2370,0.0616,41.1750,9.0563,14.3438,
7.703692,-1.1057,-1.4298,-1.2087,-1.8283,-0.2370,0.0616,41.1750,9.0563,14.3438,
7.713727,-1.1057,-1.4298,-1.2087,-1.8283,-0.2370,0.0616,41.4375,7.5375,14.8500,
7.724686,-0.6690,-0.6302,-1.1939,-1.8283,-0.2370,0.0616,41.4375,7.5375,14.8500,
7.732712,-0.6690,-0.6302,-1.1939,-1.8283,-0.2370,0.0616,41.4375,7.5375,14.8500,
7.741209,-0.6690,-0.6302,-1.1939,-1.0098,-0.2028,0.2082,41.4375,7.5375,14.8500,
7.744972,-0.4535,0.2444,-1.0109,-1.0098,-0.2028,0.2082,41.4375,7.5375,14.8500,
7.761649,-0.3961,0.7532,-0.8942,-1.0098,-0.2028,0.2082,41.4375,7.5375,14.8500,
7.771180,-0.3961,0.7532,-0.8942,-1.0098,-0.2028,0.2082,41.4750,6.5625,14.5313,
7.779819,-0.2234,0.5098,-1.3523,-1.0098,-0.2028,0.2082,41.4750,6.5625,14.5313,
7.794101,-0.2234,0.5098,-1.3523,-1.0098,-0.2028,0.2082,41.4750,6.5625,14.5313,
7.799270,-0.0727,0.3875,-1.2748,-1.0098,-0.2028,0.2082,41.4750,6.5625,14.5313,
7.803804,-0.0727,0.3875,-1.2748,-0.9340,-0.2065,0.2449,41.4750,6.5625,14.5313,
7.817626,0.3905,0.1289,-1.0670,-0.9340,-0.2065,0.2449,41.4750,6.5625,14.5313,
7.831352,0.3905,0.1289,-1.0670,-0.9340,-0.2065,0.2449,41.5312,5.3625,14.6250,
7.837278,0.4013,-0.3967,-0.7778,-0.9340,-0.2065,0.2449,41.5312,5.3625,14.6250,
7.856834,0.4013,-0.3967,-0.7778,-0.9340,-0.2065,0.2449,41.5312,5.3625,14.6250,
7.865853,0.1523,-0.8957,-0.5172,-0.9340,-0.2065,0.2449,41.5312,5.3625,14.6250,
7.866946,0.1523,-0.8957,-0.5172,-0.3013,0.0121,0.2925,41.5312,5.3625,14.6250,
7.876058,0.0457,-0.8886,-0.2525,-0.3013,0.0121,0.2925,41.5312,5.3625,14.6250,
7.890998,0.0457,-0.8886,-0.2525,-0.3013,0.0121,0.2925,41.7375,4.7438,15.1313,
7.894636,-0.0093,-0.4497,-0.2719,-0.3013,0.0121,0.2925,41.7375,4.7438,15.1313,
7.914477,-0.0524,-0.0732,-0.3503,-0.3013,0.0121,0.2925,41.7375,4.7438,15.1313,
7.918457,-0.0524,-0.0732,-0.3503,-0.3013,0.0121,0.2925,41.7375,4.7438,15.1313,
7.927669,-0.0524,-0.0732,-0.3503,0.3145,0.0891,0.2802,41.7375,4.7438,15.1313,
7.934094,0.0453,-0.1776,-0.7920,0.3145,0.0891,0.2802,41.7375,4.7438,15.1313,
7.952196,0.0453,-0.1776,-0.7920,0.3145,0.0891,0.2802,41.9625,4.3500,14.8125,
7.955757,0.0182,-0.1298,-0.6933,0.3145,0.0891,0.2802,41.9625,4.3500,14.8125,
7.971138,-0.0633,-0.2270,-0.2479,0.3145,0.0891,0.2802,41.9625,4.3500,14.8125,
7.980343,-0.0633,-0.2270,-0.2479,0.3145,0.0891,0.2802,41.9625,4.3500,14.8125,
7.989294,-0.0633,-0.2270,-0.2479,0.4612,0.0635,0.2839,41.9625,4.3500,14.8125,
7.991026,0.0277,-0.2778,-0.0333,0.4612,0.0635,0.2839,41.9625,4.3500,14.8125,
8.010008,0.0626,-0.3379,0.1809,0.4612,0.0635,0.2839,41.9625,4.3500,14.8125,
8.013330,0.0626,-0.3379,0.1809,0.4612,0.0635,0.2839,42.1500,4.4625,14.4000,
8.028475,0.4362,-0.6328,0.2464,0.4612,0.0635,0.2839,42.1500,4.4625,14.4000,
8.043294,0.4362,-0.6328,0.2464,0.4612,0.0635,0.2839,42.1500,4.4625,14.4000,
8.047993,0.4835,-0.8347,0.2299,0.4612,0.0635,0.2839,42.1500,4.4625,14.4000,
8.051817,0.4835,-0.8347,0.2299,0.9840,0.0781,0.1044,42.1500,4.4625,14.4000,
8.066969,0.1876,-0.5302,0.2707,0.9840,0.0781,0.1044,42.1500,4.4625,14.4000,
8.072216,0.1876,-0.5302,0.2707,0.9840,0.0781,0.1044,42.1313,4.7625,14.4000,
8.085972,-0.0449,0.0596,0.3370,0.9840,0.0781,0.1044,42.1313,4.7625,14.4000,
8.104807,-0.0449,0.0596,0.3370,0.9840,0.0781,0.1044,42.1313,4.7625,14.4000,
8.107913,-0.3607,0.6229,0.5477,0.9840,0.0781,0.1044,42.1313,4.7625,14.4000,
8.116082,-0.3607,0.6229,0.5477,1.1172,0.2699,-0.1852,42.1313,4.7625,14.4000,
8.124570,-0.3318,0.4753,0.7185,1.1172,0.2699,-0.1852,42.1313,4.7625,14.4000,
8.131111,-0.3318,0.4753,0.7185,1.1172,0.2699,-0.1852,41.7188,5.8125,13.5750,
8.143608,-0.2032,0.4401,0.6765,1.1172,0.2699,-0.1852,41.7188,5.8125,13.5750,
8.163122,0.2071,0.3748,0.3100,1.1172,0.2699,-0.1852,41.7188,5.8125,13.5750,
8.166601,0.2071,0.3748,0.3100,1.1172,0.2699,-0.1852,41.7188,5.8125,13.5750,
8.176929,0.2071,0.3748,0.3100,1.1122,-0.0440,0.0836,41.7188,5.8125,13.5750,
8.181283,0.4960,0.7781,-0.1455,1.1122,-0.0440,0.0836,41.7188,5.8125,13.5750,
8.191312,0.4960,0.7781,-0.1455,1.1122,-0.0440,0.0836,41.3438,7.5188,13.6125,
8.202533,0.5991,1.0333,-0.3605,1.1122,-0.0440,0.0836,41.3438,7.5188,13.6125,
8.220017,0.7612,1.0687,-0.2518,1.1122,-0.0440,0.0836,41.3438,7.5188,13.6125,
8.228693,0.7612,1.0687,-0.2518,1.1122,-0.0440,0.0836,41.3438,7.5188,13.6125,
8.238149,0.7612,1.0687,-0.2518,1.2235,0.0818,0.2509,41.3438,7.5188,13.6125,
8.240669,0.6901,1.1360,-0.1433,1.2235,0.0818,0.2509,41.3438,7.5188,13.6125,
8.250180,0.6901,1.1360,-0.1433,1.2235,0.0818,0.2509,41.9250,7.8750,12.0375,
8.257464,0.5033,1.2654,-0.0402,1.2235,0.0818,0.2509,41.9250,7.8750,12.0375,
8.277598,0.3104,1.2896,-0.0508,1.2235,0.0818,0.2509,41.9250,7.8750,12.0375,
8.291662,0.3104,1.2896,-0.0508,1.2235,0.0818,0.2509,41.9250,7.8750,12.0375,
8.296278,0.0627,1.3314,-0.2555,1.2235,0.0818,0.2509,41.9250,7.8750,12.0375,
8.302981,0.0627,1.3314,-0.2555,1.1012,0.0928,0.2729,41.9250,7.8750,12.0375,
8.311830,0.0627,1.3314,-0.2555,1.1012,0.0928,0.2729,42.0188,8.5125,11.3063,
8.315282,-0.1322,1.5263,-0.3636,1.1012,0.0928,0.2729,42.0188,8.5125,11.3063,
8.335612,-0.2196,1.4822,-0.5876,1.1012,0.0928,0.2729,42.0188,8.5125,11.3063,
8.353346,-0.2196,1.4822,-0.5876,1.1012,0.0928,0.2729,42.0188,8.5125,11.3063,
8.356382,-0.1020,1.5891,-0.6381,1.1012,0.0928,0.2729,42.0188,8.5125,11.3063,
8.362525,-0.1020,1.5891,-0.6381,0.9094,0.0903,0.2485,42.0188,8.5125,11.3063,
8.371297,-0.1020,1.5891,-0.6381,0.9094,0.0903,0.2485,41.9250,8.4375,11.1000,
8.374363,0.2408,1.5603,-0.4644,0.9094,0.0903,0.2485,41.9250,8.4375,11.1000,
8.391932,0.2531,1.6758,-0.2176,0.9094,0.0903,0.2485,41.9250,8.4375,11.1000,
8.411445,0.1057,2.0888,-0.2930,0.9094,0.0903,0.2485,41.9250,8.4375,11.1000,
8.415773,0.1057,2.0888,-0.2930,0.9094,0.0903,0.2485,41.9250,8.4375,11.1000,
8.424349,0.1057,2.0888,-0.2930,0.9229,0.0329,0.1814,41.9250,8.4375,11.1000,
8.429834,0.1519,2.2326,-0.2662,0.9229,0.0329,0.1814,41.9250,8.4375,11.1000,
8.431155,0.1519,2.2326,-0.2662,0.9229,0.0329,0.1814,42.0000,9.0188,11.1000,
8.449470,0.2766,2.3535,-0.3692,0.9229,0.0329,0.1814,42.0000,9.0188,11.1000,
8.468522,0.2466,2.3052,-0.1959,0.9229,0.0329,0.1814,42.0000,9.0188,11.1000,
8.479402,0.2466,2.3052,-0.1959,0.9229,0.0329,0.1814,42.0000,9.0188,11.1000,
8.487505,0.2466,2.3052,-0.1959,0.5686,0.1013,0.2314,42.0000,9.0188,11.1000,
8.488632,0.2541,2.0246,-0.0943,0.5686,0.1013,0.2314,42.0000,9.0188,11.1000,
8.492552,0.2541,2.0246,-0.0943,0.5686,0.1013,0.2314,42.1313,8.4750,10.0500,
8.506355,0.1276,1.4380,-0.0234,0.5686,0.1013,0.2314,42.1313,8.4750,10.0500,
8.525941,0.0230,0.9649,-0.1983,0.5686,0.1013,0.2314,42.1313,8.4750,10.0500,
8.539693,0.0230,0.9649,-0.1983,0.5686,0.1013,0.2314,42.1313,8.4750,10.0500,
8.546059,-0.1239,0.5740,-0.4392,0.5686,0.1013,0.2314,42.1313,8.4750,10.0500,
8.549650,-0.1239,0.5740,-0.4392,0.6871,0.2199,0.1594,42.1313,8.4750,10.0500,
8.551000,-0.1239,0.5740,-0.4392,0.6871,0.2199,0.1594,41.8313,8.4938,10.1625,
8.563823,-0.0274,0.2093,-0.5134,0.6871,0.2199,0.1594,41.8313,8.4938,10.1625,
8.583883,0.0562,0.3170,-0.5203,0.6871,0.2199,0.1594,41.8313,8.4938,10.1625,
8.600936,0.0562,0.3170,-0.5203,0.6871,0.2199,0.1594,41.8313,8.4938,10.1625,
8.602256,0.0565,0.4806,-0.4398,0.6871,0.2199,0.1594,41.8313,8.4938,10.1625,
8.612504,0.0565,0.4806,-0.4398,0.6871,0.2199,0.1594,42.6000,8.3063,11.1750,
8.614014,0.0565,0.4806,-0.4398,0.5723,0.2394,0.1849,42.6000,8.3063,11.1750,
8.621749,-0.0637,0.8282,-0.5410,0.5723,0.2394,0.1849,42.6000,8.3063,11.1750,
8.641030,0.0330,1.0131,-0.3791,0.5723,0.2394,0.1849,42.6000,8.3063,11.1750,
8.659594,0.1206,1.0609,-0.3318,0.5723,0.2394,0.1849,42.6000,8.3063,11.1750,
8.664037,0.1206,1.0609,-0.3318,0.5723,0.2394,0.1849,42.6000,8.3063,11.1750,
8.671341,0.1206,1.0609,-0.3318,0.5723,0.2394,0.1849,41.9250,8.4750,10.4813,
8.674068,0.1206,1.0609,-0.3318,0.4305,0.2907,0.1727,41.9250,8.4750,10.4813,
8.679588,0.0772,0.9670,-0.2290,0.4305,0.2907,0.1727,41.9250,8.4750,10.4813,
8.697423,-0.0850,0.7083,-0.2969,0.4305,0.2907,0.1727,41.9250,8.4750,10.4813,
8.718039,-0.2778,0.5175,-0.5339,0.4305,0.2907,0.1727,41.9250,8.4750,10.4813,
8.725261,-0.2778,0.5175,-0.5339,0.4305,0.2907,0.1727,41.9250,8.4750,10.4813,
8.731101,-0.2778,0.5175,-0.5339,0.4305,0.2907,0.1727,41.7563,7.7438,11.1000,
8.735097,-0.2778,0.5175,-0.5339,0.3659,0.2186,0.1434,41.7563,7.7438,11.1000,
8.736456,-0.1887,0.2815,-0.6448,0.3659,0.2186,0.1434,41.7563,7.7438,11.1000,
8.756079,-0.0748,0.3275,-0.7031,0.3659,0.2186,0.1434,41.7563,7.7438,11.1000,
8.775083,0.1437,0.4145,-0.6868,0.3659,0.2186,0.1434,41.7563,7.7438,11.1000,
8.791899,0.1437,0.4145,-0.6868,0.3659,0.2186,0.1434,41.7563,7.7438,11.1000,
8.795255,0.1437,0.4145,-0.6868,0.3659,0.2186,0.1434,42.0188,8.2500,10.7812,
8.797641,0.2247,0.5054,-0.4931,0.3659,0.2186,0.1434,42.0188,8.2500,10.7812,
8.799519,0.2247,0.5054,-0.4931,0.1899,0.1404,0.1288,42.0188,8.2500,10.7812,
8.812694,0.1060,0.5132,-0.4597,0.1899,0.1404,0.1288,42.0188,8.2500,10.7812,
8.832196,-0.0071,0.3760,-0.5629,0.1899,0.1404,0.1288,42.0188,8.2500,10.7812,
8.851058,-0.0071,0.3760,-0.5629,0.1899,0.1404,0.1288,42.0188,8.2500,10.7812,
8.853848,-0.0054,0.1706,-0.6079,0.1899,0.1404,0.1288,42.0188,8.2500,10.7812,
8.856337,-0.0054,0.1706,-0.6079,0.1899,0.1404,0.1288,41.8500,7.7250,11.3063,
8.861721,-0.0054,0.1706,-0.6079,0.1337,0.0903,0.1019,41.8500,7.7250,11.3063,
8.870122,0.0589,-0.0348,-0.5555,0.1337,0.0903,0.1019,41.8500,7.7250,11.3063,
8.889210,0.2419,-0.1275,-0.5667,0.1337,0.0903,0.1019,41.8500,7.7250,11.3063,
8.908545,0.3380,-0.0439,-0.5854,0.1337,0.0903,0.1019,41.8500,7.7250,11.3063,
8.911587,0.3380,-0.0439,-0.5854,0.1337,0.0903,0.1019,42.1500,7.6313,10.9875,
8.912891,0.3380,-0.0439,-0.5854,0.1337,0.0903,0.1019,42.1500,7.6313,10.9875,
8.924584,0.3380,-0.0439,-0.5854,0.1031,0.0989,0.0664,42.1500,7.6313,10.9875,
8.927036,0.2781,0.0528,-0.5449,0.1031,0.0989,0.0664,42.1500,7.6313,10.9875,
8.947174,0.1912,0.1097,-0.4846,0.1031,0.0989,0.0664,42.1500,7.6313,10.9875,
8.966430,0.1448,0.0451,-0.4753,0.1031,0.0989,0.0664,42.1500,7.6313,10.9875,
8.971366,0.1448,0.0451,-0.4753,0.1031,0.0989,0.0664,41.4750,7.4063,11.8313,
8.974485,0.1448,0.0451,-0.4753,0.1031,0.0989,0.0664,41.4750,7.4063,11.8313,
8.984114,0.1448,0.0451,-0.4753,-0.0129,0.0964,0.0591,41.4750,7.4063,11.8313,
8.985410,0.0868,0.0073,-0.4528,-0.0129,0.0964,0.0591,41.4750,7.4063,11.8313,
9.003880,0.0245,-0.0052,-0.4361,-0.0129,0.0964,0.0591,41.4750,7.4063,11.8313,
9.027678,0.0490,-0.0183,-0.4155,-0.0129,0.0964,0.0591,41.4750,7.4063,11.8313,
9.030124,0.0490,-0.0183,-0.4155,-0.0129,0.0964,0.0591,41.5688,7.3125,11.7188,
9.036393,0.0490,-0.0183,-0.4155,-0.0129,0.0964,0.0591,41.5688,7.3125,11.7188,
9.042137,0.0762,-0.0199,-0.4913,-0.0129,0.0964,0.0591,41.5688,7.3125,11.7188,
9.047144,0.0762,-0.0199,-0.4913,-0.0495,0.0891,0.0225,41.5688,7.3125,11.7188,
9.061534,0.1103,-0.0773,-0.4378,-0.0495,0.0891,0.0225,41.5688,7.3125,11.7188,
9.080653,0.1045,-0.1254,-0.4413,-0.0495,0.0891,0.0225,41.5688,7.3125,11.7188,
9.091791,0.1045,-0.1254,-0.4413,-0.0495,0.0891,0.0225,41.3813,7.2938,12.1500,
9.099240,0.1045,-0.1254,-0.4413,-0.0495,0.0891,0.0225,41.3813,7.2938,12.1500,
9.101336,-0.0091,-0.1855,-0.4423,-0.0495,0.0891,0.0225,41.3813,7.2938,12.1500,
9.108595,-0.0091,-0.1855,-0.4423,-0.0520,0.1063,-0.0044,41.3813,7.2938,12.1500,
9.118396,-0.1078,-0.1368,-0.3845,-0.0520,0.1063,-0.0044,41.3813,7.2938,12.1500,
9.139359,-0.0598,-0.0562,-0.3625,-0.0520,0.1063,-0.0044,41.3813,7.2938,12.1500,
9.152253,-0.0598,-0.0562,-0.3625,-0.0520,0.1063,-0.0044,41.4750,7.1813,12.4500,
9.159305,0.0467,-0.0430,-0.3829,-0.0520,0.1063,-0.0044,41.4750,7.1813,12.4500,
9.162647,0.0467,-0.0430,-0.3829,-0.0520,0.1063,-0.0044,41.4750,7.1813,12.4500,
9.170101,0.0467,-0.0430,-0.3829,-0.0507,0.0793,0.0359,41.4750,7.1813,12.4500,
9.175578,0.1817,-0.0233,-0.4219,-0.0507,0.0793,0.0359,41.4750,7.1813,12.4500,
9.195603,0.1810,-0.1134,-0.3594,-0.0507,0.0793,0.0359,41.4750,7.1813,12.4500,
9.211383,0.1810,-0.1134,-0.3594,-0.0507,0.0793,0.0359,42.0563,7.0313,13.0688,
9.214675,0.0997,-0.2448,-0.3600,-0.0507,0.0793,0.0359,42.0563,7.0313,13.0688,
9.223648,0.0997,-0.2448,-0.3600,-0.0507,0.0793,0.0359,42.0563,7.0313,13.0688,
9.232655,0.0997,-0.2448,-0.3600,-0.0056,0.0818,0.0346,42.0563,7.0313,13.0688,
9.233785,-0.0354,-0.3585,-0.3925,-0.0056,0.0818,0.0346,42.0563,7.0313,13.0688,
9.252649,-0.1553,-0.2881,-0.3883,-0.0056,0.0818,0.0346,42.0563,7.0313,13.0688,
9.271821,-0.1279,-0.0551,-0.3403,-0.0056,0.0818,0.0346,42.0563,7.0313,13.0688,
9.274378,-0.1279,-0.0551,-0.3403,-0.0056,0.0818,0.0346,41.3813,6.9563,13.0875,
9.285384,-0.1279,-0.0551,-0.3403,-0.0056,0.0818,0.0346,41.3813,6.9563,13.0875,
9.290244,0.0485,-0.0500,-0.2266,-0.0056,0.0818,0.0346,41.3813,6.9563,13.0875,
9.294483,0.0485,-0.0500,-0.2266,-0.0007,0.0708,0.0054,41.3813,6.9563,13.0875,
9.310920,0.0618,0.0546,-0.2582,-0.0007,0.0708,0.0054,41.3813,6.9563,13.0875,
9.328961,0.1840,-0.1653,-0.6106,-0.0007,0.0708,0.0054,41.3813,6.9563,13.0875,
9.330608,0.1840,-0.1653,-0.6106,-0.0007,0.0708,0.0054,41.8875,6.6563,12.5438,
9.347817,0.1840,-0.1653,-0.6106,-0.0007,0.0708,0.0054,41.8875,6.6563,12.5438,
9.351411,0.1263,-0.2701,-0.3667,-0.0007,0.0708,0.0054,41.8875,6.6563,12.5438,
9.356836,0.1263,-0.2701,-0.3667,0.0323,-0.0257,0.0311,41.8875,6.6563,12.5438,
9.367994,0.0820,-0.2834,-0.3156,0.0323,-0.0257,0.0311,41.8875,6.6563,12.5438,
9.386966,0.1002,-0.1183,-0.4922,0.0323,-0.0257,0.0311,41.8875,6.6563,12.5438,
9.394051,0.1002,-0.1183,-0.4922,0.0323,-0.0257,0.0311,41.8688,6.7500,12.7500,
9.404915,0.2143,-0.0096,-0.4656,0.0323,-0.0257,0.0311,41.8688,6.7500,12.7500,
9.408884,0.2143,-0.0096,-0.4656,0.0323,-0.0257,0.0311,41.8688,6.7500,12.7500,
9.418590,0.2143,-0.0096,-0.4656,-0.0362,0.0011,-0.0239,41.8688,6.7500,12.7500,
9.423764,0.2200,-0.0227,-0.5389,-0.0362,0.0011,-0.0239,41.8688,6.7500,12.7500,
9.443254,0.5848,-0.1377,-0.1622,-0.0362,0.0011,-0.0239,41.8688,6.7500,12.7500,
9.451009,0.5848,-0.1377,-0.1622,-0.0362,0.0011,-0.0239,42.0750,6.5438,12.7500,
