
time,ax,ay,az,wx,wy,wz,Bx,By,Bz,
0.140719,0.0000,0.0000,0.0000,0.0000,0.0000,0.0000,0.0000,0.0000,0.0000,
0.142270,0.0000,0.0000,0.0000,0.0000,0.0000,0.0000,0.0000,0.0000,0.0000,
0.149737,0.0000,0.0000,0.0000,0.0000,0.0000,0.0000,0.0000,0.0000,0.0000,
0.151128,0.0000,0.0000,0.0000,0.0000,0.0000,0.0000,0.0000,0.0000,0.0000,
0.152561,0.0000,0.0000,0.0000,0.0000,0.0000,0.0000,0.0000,0.0000,0.0000,
0.153826,0.0000,0.0000,0.0000,0.0000,0.0000,0.0000,0.0000,0.0000,0.0000,
0.201682,0.0000,0.0000,0.0000,0.0000,0.0000,0.0000,0.0000,0.0000,0.0000,
0.202569,0.0000,0.0000,0.0000,0.0000,0.0000,0.0000,0.0000,0.0000,0.0000,
0.203267,0.0000,0.0000,0.0000,0.0000,0.0000,0.0000,0.0000,0.0000,0.0000,
0.223016,0.0000,0.0000,0.0000,0.0000,0.0000,0.0000,0.0000,0.0000,0.0000,
0.223968,0.0000,0.0000,0.0000,0.0000,0.0000,0.0000,0.0000,0.0000,0.0000,
0.224626,0.0000,0.0000,0.0000,0.0000,0.0000,0.0000,-42.9375,18.6750,10.3688,
0.259052,0.0000,0.0000,0.0000,0.0000,0.0000,0.0000,-42.9375,18.6750,10.3688,
0.284596,0.0000,0.0000,0.0000,0.0000,0.0000,0.0000,-43.2188,18.6375,10.6500,
0.288186,0.0000,0.0000,0.0000,0.0000,0.0000,0.0000,-43.2188,18.6375,10.6500,
0.290434,0.0000,0.0000,0.0000,0.0000,0.0000,0.0000,-43.2188,18.6375,10.6500,
0.304346,0.0000,0.0000,0.0000,-0.2168,0.1500,0.0293,-43.2188,18.6375,10.6500,
0.308118,0.0000,0.0000,0.0000,-0.2168,0.1500,0.0293,-43.2188,18.6375,10.6500,
0.310143,-0.2669,0.0328,-0.3625,-0.2168,0.1500,0.0293,-43.2188,18.6375,10.6500,
0.327028,-0.2669,0.0328,-0.3625,-0.2168,0.1500,0.0293,-43.2188,18.6375,10.6500,
0.343659,-0.2669,0.0328,-0.3625,-0.2168,0.1500,0.0293,-43.2188,18.6375,10.6500,
0.345019,-0.2669,0.0328,-0.3625,-0.2168,0.1500,0.0293,-43.2000,18.1688,10.4062,
0.363540,-0.2669,0.0328,-0.3625,-0.1278,0.0971,-0.0128,-43.2000,18.1688,10.4062,
0.366916,-0.2669,0.0328,-0.3625,-0.1278,0.0971,-0.0128,-43.2000,18.1688,10.4062,
0.369102,0.0525,0.0012,0.1660,-0.1278,0.0971,-0.0128,-43.2000,18.1688,10.4062,
0.393083,0.0525,0.0012,0.1660,-0.1278,0.0971,-0.0128,-43.2000,18.1688,10.4062,
0.425165,0.0525,0.0012,0.1660,-0.1278,0.0971,-0.0128,-43.2000,18.1688,10.4062,
0.428529,0.0525,0.0012,0.1660,-0.1278,0.0971,-0.0128,-43.2000,18.1688,10.4062,
0.430898,0.0525,0.0012,0.1660,-0.2635,0.1345,-0.0077,-43.2000,18.1688,10.4062,
0.434016,0.1204,0.2697,-0.0439,-0.2635,0.1345,-0.0077,-43.2000,18.1688,10.4062,
0.437456,0.1204,0.2697,-0.0439,-0.2635,0.1345,-0.0077,-43.2750,17.9625,10.0125,
0.459363,0.1204,0.2697,-0.0439,-0.2635,0.1345,-0.0077,-43.2750,17.9625,10.0125,
0.483357,0.1204,0.2697,-0.0439,-0.2635,0.1345,-0.0077,-43.2750,17.9625,10.0125,
0.485829,0.1204,0.2697,-0.0439,-0.2635,0.1345,-0.0077,-43.2750,17.9625,10.0125,
0.487597,0.1204,0.2697,-0.0439,-0.2635,0.1345,-0.0077,-43.4625,17.9250,10.0125,
0.489791,0.3696,0.1136,-0.2028,-0.2635,0.1345,-0.0077,-43.4625,17.9250,10.0125,
0.502427,0.3696,0.1136,-0.2028,-0.2197,0.1547,0.1744,-43.4625,17.9250,10.0125,
0.525151,0.3696,0.1136,-0.2028,-0.2197,0.1547,0.1744,-43.4625,17.9250,10.0125,
0.527866,0.3696,0.1136,-0.2028,-0.2197,0.1547,0.1744,-43.4625,17.9250,10.0125,
0.543875,0.3696,0.1136,-0.2028,-0.2197,0.1547,0.1744,-43.4625,17.9250,10.0125,
0.547206,0.3113,0.4058,0.0500,-0.2197,0.1547,0.1744,-43.4625,17.9250,10.0125,
0.550501,0.3113,0.4058,0.0500,-0.2197,0.1547,0.1744,-43.6125,17.7375,10.0312,
0.563175,0.3113,0.4058,0.0500,-0.3821,0.1176,0.1012,-43.6125,17.7375,10.0312,
0.592466,0.3113,0.4058,0.0500,-0.3821,0.1176,0.1012,-43.6125,17.7375,10.0312,
0.594503,0.3113,0.4058,0.0500,-0.3821,0.1176,0.1012,-43.6125,17.7375,10.0312,
0.603258,0.3113,0.4058,0.0500,-0.3821,0.1176,0.1012,-43.6125,17.7375,10.0312,
0.605383,0.2785,0.6208,-0.0122,-0.3821,0.1176,0.1012,-43.6125,17.7375,10.0312,
0.625180,0.2785,0.6208,-0.0122,-0.3821,0.1176,0.1012,-43.6125,17.7375,10.0312,
0.627702,0.2785,0.6208,-0.0122,-0.3821,0.1176,0.1012,-43.7625,17.6250,9.8813,
0.630007,0.2785,0.6208,-0.0122,-0.5647,-0.1738,0.1582,-43.7625,17.6250,9.8813,
0.659088,0.2785,0.6208,-0.0122,-0.5647,-0.1738,0.1582,-43.7625,17.6250,9.8813,
0.662080,0.2785,0.6208,-0.0122,-0.5647,-0.1738,0.1582,-43.7625,17.6250,9.8813,
0.663838,0.5213,0.6298,1.0106,-0.5647,-0.1738,0.1582,-43.7625,17.6250,9.8813,
0.683521,0.5213,0.6298,1.0106,-0.5647,-0.1738,0.1582,-43.7063,17.4375,9.8625,
0.686904,0.5213,0.6298,1.0106,-0.5647,-0.1738,0.1582,-43.7063,17.4375,9.8625,
0.703142,0.5213,0.6298,1.0106,-0.6079,0.0932,-0.0657,-43.7063,17.4375,9.8625,
0.724987,0.9853,1.0271,0.6047,-0.6079,0.0932,-0.0657,-43.7063,17.4375,9.8625,
0.727930,0.9853,1.0271,0.6047,-0.6079,0.0932,-0.0657,-43.7063,17.4375,9.8625,
0.729348,0.9853,1.0271,0.6047,-0.6079,0.0932,-0.0657,-43.7063,17.4375,9.8625,
0.742593,0.9853,1.0271,0.6047,-0.6079,0.0932,-0.0657,-43.8563,17.0250,9.7500,
0.746249,0.9853,1.0271,0.6047,-0.6079,0.0932,-0.0657,-43.8563,17.0250,9.7500,
0.762502,0.9853,1.0271,0.6047,0.0301,0.6399,-0.1171,-43.8563,17.0250,9.7500,
0.784160,0.9853,1.0271,0.6047,0.0301,0.6399,-0.1171,-43.8563,17.0250,9.7500,
0.787726,0.9853,1.0271,0.6047,0.0301,0.6399,-0.1171,-43.8563,17.0250,9.7500,
0.789786,1.7253,1.3572,1.7902,0.0301,0.6399,-0.1171,-43.8563,17.0250,9.7500,
0.822465,1.7253,1.3572,1.7902,0.0301,0.6399,-0.1171,-43.8563,17.0250,9.7500,
0.824411,1.7253,1.3572,1.7902,0.0301,0.6399,-0.1171,-43.8563,17.0250,9.7500,
0.825998,1.7253,1.3572,1.7902,0.0301,0.6399,-0.1171,-44.0250,16.2938,9.4125,
0.827772,1.7253,1.3572,1.7902,-0.0607,0.0553,-0.5147,-44.0250,16.2938,9.4125,
0.844932,0.9665,2.8405,1.2636,-0.0607,0.0553,-0.5147,-44.0250,16.2938,9.4125,
0.848130,0.9665,2.8405,1.2636,-0.0607,0.0553,-0.5147,-44.0250,16.2938,9.4125,
0.884086,0.9665,2.8405,1.2636,-0.0607,0.0553,-0.5147,-44.2688,15.6188,9.0750,
0.888490,0.9665,2.8405,1.2636,-0.0607,0.0553,-0.5147,-44.2688,15.6188,9.0750,
0.891048,0.9665,2.8405,1.2636,-0.0607,0.0553,-0.5147,-44.2688,15.6188,9.0750,
0.902872,0.9665,2.8405,1.2636,1.7981,0.1357,0.4152,-44.2688,15.6188,9.0750,
0.908129,0.9665,2.8405,1.2636,1.7981,0.1357,0.4152,-44.2688,15.6188,9.0750,
0.910337,-0.1056,2.0871,2.5485,1.7981,0.1357,0.4152,-44.2688,15.6188,9.0750,
0.927084,-0.1056,2.0871,2.5485,1.7981,0.1357,0.4152,-44.2688,15.6188,9.0750,
0.943741,-0.1056,2.0871,2.5485,1.7981,0.1357,0.4152,-44.2688,15.6188,9.0750,
0.946372,-0.1056,2.0871,2.5485,1.7981,0.1357,0.4152,-44.3438,15.1125,8.8313,
0.963385,-0.1056,2.0871,2.5485,1.9176,-0.3231,-0.3543,-44.3438,15.1125,8.8313,
0.966779,-0.1056,2.0871,2.5485,1.9176,-0.3231,-0.3543,-44.3438,15.1125,8.8313,
0.968753,0.4924,4.0075,2.3531,1.9176,-0.3231,-0.3543,-44.3438,15.1125,8.8313,
0.991649,0.4924,4.0075,2.3531,1.9176,-0.3231,-0.3543,-44.3438,15.1125,8.8313,
1.022667,0.4924,4.0075,2.3531,1.9176,-0.3231,-0.3543,-44.3438,15.1125,8.8313,
1.025499,0.4924,4.0075,2.3531,1.9176,-0.3231,-0.3543,-44.4188,14.3625,7.8563,
1.028346,0.4924,4.0075,2.3531,1.9176,-0.3231,-0.3543,-44.4188,14.3625,7.8563,
1.030140,3.2735,7.3347,-1.6897,1.9176,-0.3231,-0.3543,-44.4188,14.3625,7.8563,
1.032359,3.2735,7.3347,-1.6897,2.2527,2.7486,-0.6003,-44.4188,14.3625,7.8563,
1.056776,3.2735,7.3347,-1.6897,2.2527,2.7486,-0.6003,-44.4188,14.3625,7.8563,
1.084802,3.2735,7.3347,-1.6897,2.2527,2.7486,-0.6003,-44.4188,14.3625,7.8563,
1.087994,3.2735,7.3347,-1.6897,2.2527,2.7486,-0.6003,-44.4188,14.3625,7.8563,
1.089820,3.2735,7.3347,-1.6897,2.2527,2.7486,-0.6003,-44.4000,13.5188,6.2063,
1.092206,1.7718,5.2014,2.6513,2.2527,2.7486,-0.6003,-44.4000,13.5188,6.2063,
1.103308,1.7718,5.2014,2.6513,4.1048,0.6250,-1.2517,-44.4000,13.5188,6.2063,
1.125276,1.7718,5.2014,2.6513,4.1048,0.6250,-1.2517,-44.4000,13.5188,6.2063,
1.127869,1.7718,5.2014,2.6513,4.1048,0.6250,-1.2517,-44.4000,13.5188,6.2063,
1.144110,1.7718,5.2014,2.6513,4.1048,0.6250,-1.2517,-44.4000,13.5188,6.2063,
1.146909,4.1264,-4.0221,-9.2172,4.1048,0.6250,-1.2517,-44.4000,13.5188,6.2063,
1.149355,4.1264,-4.0221,-9.2172,4.1048,0.6250,-1.2517,-44.2875,12.0000,4.2563,
1.163807,4.1264,-4.0221,-9.2172,4.3813,2.9564,-1.1017,-44.2875,12.0000,4.2563,
1.192398,4.1264,-4.0221,-9.2172,4.3813,2.9564,-1.1017,-44.2875,12.0000,4.2563,
1.195384,4.1264,-4.0221,-9.2172,4.3813,2.9564,-1.1017,-44.2875,12.0000,4.2563,
1.209387,4.1264,-4.0221,-9.2172,4.3813,2.9564,-1.1017,-44.2875,12.0000,4.2563,
1.212351,-1.5904,-16.4619,-3.4760,4.3813,2.9564,-1.1017,-44.2875,12.0000,4.2563,
1.234957,-1.5904,-16.4619,-3.4760,6.6976,-2.6537,1.4535,-44.2875,12.0000,4.2563,
1.237527,-1.5904,-16.4619,-3.4760,6.6976,-2.6537,1.4535,-44.1375,10.1625,1.3313,
1.239423,-1.5904,-16.4619,-3.4760,6.6976,-2.6537,1.4535,-44.1375,10.1625,1.3313,
1.258781,-1.5904,-16.4619,-3.4760,6.6976,-2.6537,1.4535,-44.1375,10.1625,1.3313,
1.264066,-1.5904,-16.4619,-3.4760,6.6976,-2.6537,1.4535,-44.1375,10.1625,1.3313,
1.265935,-17.3256,-18.2492,40.3650,6.6976,-2.6537,1.4535,-44.1375,10.1625,1.3313,
1.284111,-17.3256,-18.2492,40.3650,6.6976,-2.6537,1.4535,-44.0813,8.4188,-0.1500,
1.303471,-17.3256,-18.2492,40.3650,6.6976,-2.6537,1.4535,-44.0813,8.4188,-0.1500,
1.305336,-17.3256,-18.2492,40.3650,2.0853,-2.6539,-1.6845,-44.0813,8.4188,-0.1500,
1.323849,-17.3256,-18.2492,40.3650,2.0853,-2.6539,-1.6845,-44.0813,8.4188,-0.1500,
1.325702,-17.3256,-18.2492,40.3650,2.0853,-2.6539,-1.6845,-44.0813,8.4188,-0.1500,
1.327249,-1.1199,-36.7527,-16.0223,2.0853,-2.6539,-1.6845,-44.0813,8.4188,-0.1500,
1.347733,-1.1199,-36.7527,-16.0223,2.0853,-2.6539,-1.6845,-43.8375,6.4688,-1.5938,
1.357997,-1.1199,-36.7527,-16.0223,2.0853,-2.6539,-1.6845,-43.8375,6.4688,-1.5938,
1.364187,-1.1199,-36.7527,-16.0223,-1.6686,-0.8465,0.9140,-43.8375,6.4688,-1.5938,
1.384072,-1.1199,-36.7527,-16.0223,-1.6686,-0.8465,0.9140,-43.8375,6.4688,-1.5938,
1.387678,-1.1199,-36.7527,-16.0223,-1.6686,-0.8465,0.9140,-43.8375,6.4688,-1.5938,
1.389873,-10.5384,6.6572,37.7213,-1.6686,-0.8465,0.9140,-43.8375,6.4688,-1.5938,
1.423433,-10.5384,6.6572,37.7213,-1.6686,-0.8465,0.9140,-43.7250,5.0438,-3.0938,
1.426696,-10.5384,6.6572,37.7213,-0.1313,2.5569,0.4589,-43.7250,5.0438,-3.0938,
1.428984,-10.5384,6.6572,37.7213,-0.1313,2.5569,0.4589,-43.7250,5.0438,-3.0938,
1.444871,-10.5384,6.6572,37.7213,-0.1313,2.5569,0.4589,-43.7250,5.0438,-3.0938,
1.448726,-10.5384,6.6572,37.7213,-0.1313,2.5569,0.4589,-43.7250,5.0438,-3.0938,
1.451546,6.5057,2.7888,-13.4983,-0.1313,2.5569,0.4589,-43.7250,5.0438,-3.0938,
1.484042,6.5057,2.7888,-13.4983,-0.1313,2.5569,0.4589,-43.7250,5.0438,-3.0938,
1.487073,6.5057,2.7888,-13.4983,-0.1313,2.5569,0.4589,-43.6125,3.6375,-5.5125,
1.506032,6.5057,2.7888,-13.4983,-0.1313,2.5569,0.4589,-43.6125,3.6375,-5.5125,
1.508991,6.5057,2.7888,-13.4983,-0.1313,2.5569,0.4589,-43.6125,3.6375,-5.5125,
1.511032,0.7183,2.5049,-10.5193,-0.1313,2.5569,0.4589,-43.6125,3.6375,-5.5125,
1.513422,0.7183,2.5049,-10.5193,-2.5998,2.1219,-0.2611,-43.6125,3.6375,-5.5125,
1.524614,0.7183,2.5049,-10.5193,-2.5998,2.1219,-0.2611,-43.6125,3.6375,-5.5125,
1.543928,0.7183,2.5049,-10.5193,-2.5998,2.1219,-0.2611,-43.2563,2.3250,-7.1438,
1.559196,0.7183,2.5049,-10.5193,-2.5998,2.1219,-0.2611,-43.2563,2.3250,-7.1438,
1.564917,0.7183,2.5049,-10.5193,-0.5212,-3.3487,-0.2029,-43.2563,2.3250,-7.1438,
1.569235,-6.3696,0.6114,9.8698,-0.5212,-3.3487,-0.2029,-43.2563,2.3250,-7.1438,
1.571477,-6.3696,0.6114,9.8698,-0.5212,-3.3487,-0.2029,-43.2563,2.3250,-7.1438,
1.592991,-6.3696,0.6114,9.8698,-0.5212,-3.3487,-0.2029,-43.2563,2.3250,-7.1438,
1.623641,-6.3696,0.6114,9.8698,-0.5212,-3.3487,-0.2029,-43.2563,2.3250,-7.1438,
1.626442,-6.3696,0.6114,9.8698,-0.5212,-3.3487,-0.2029,-43.2563,2.3250,-7.1438,
1.627948,-6.3696,0.6114,9.8698,-0.5212,-3.3487,-0.2029,-42.9563,1.4250,-7.7625,
1.629632,-6.3696,0.6114,9.8698,0.6517,0.0334,0.2995,-42.9563,1.4250,-7.7625,
1.631008,2.0155,-1.3678,-6.2873,0.6517,0.0334,0.2995,-42.9563,1.4250,-7.7625,
1.659387,2.0155,-1.3678,-6.2873,0.6517,0.0334,0.2995,-42.9563,1.4250,-7.7625,
1.685994,2.0155,-1.3678,-6.2873,0.6517,0.0334,0.2995,-42.9563,1.4250,-7.7625,
1.688851,2.0155,-1.3678,-6.2873,0.6517,0.0334,0.2995,-42.9563,1.4250,-7.7625,
1.691446,2.0155,-1.3678,-6.2873,0.6517,0.0334,0.2995,-42.7313,1.1063,-7.3125,
1.693609,-0.3382,-3.2214,6.9111,0.6517,0.0334,0.2995,-42.7313,1.1063,-7.3125,
1.706504,-0.3382,-3.2214,6.9111,0.5443,-2.2094,-0.0174,-42.7313,1.1063,-7.3125,
1.725059,-0.3382,-3.2214,6.9111,0.5443,-2.2094,-0.0174,-42.7313,1.1063,-7.3125,
1.727739,-0.3382,-3.2214,6.9111,0.5443,-2.2094,-0.0174,-42.7313,1.1063,-7.3125,
1.743681,-0.3382,-3.2214,6.9111,0.5443,-2.2094,-0.0174,-42.7313,1.2188,-5.4563,
1.746909,-0.3382,-3.2214,6.9111,0.5443,-2.2094,-0.0174,-42.7313,1.2188,-5.4563,
1.748541,0.8298,0.9280,-0.5249,0.5443,-2.2094,-0.0174,-42.7313,1.2188,-5.4563,
1.763816,0.8298,0.9280,-0.5249,-0.0106,-1.0907,-0.2157,-42.7313,1.2188,-5.4563,
1.791471,0.8298,0.9280,-0.5249,-0.0106,-1.0907,-0.2157,-42.7313,1.2188,-5.4563,
1.793618,0.8298,0.9280,-0.5249,-0.0106,-1.0907,-0.2157,-42.7313,1.2188,-5.4563,
1.806594,0.3564,2.7302,1.3939,-0.0106,-1.0907,-0.2157,-42.7313,1.2188,-5.4563,
1.809160,0.3564,2.7302,1.3939,-0.0106,-1.0907,-0.2157,-42.7313,1.2188,-5.4563,
1.824436,0.3564,2.7302,1.3939,-0.0106,-1.0907,-0.2157,-42.5625,1.2188,-4.7625,
1.827477,0.3564,2.7302,1.3939,0.0101,-0.2618,-0.0650,-42.5625,1.2188,-4.7625,
1.858832,0.3564,2.7302,1.3939,0.0101,-0.2618,-0.0650,-42.5625,1.2188,-4.7625,
1.861623,0.3564,2.7302,1.3939,0.0101,-0.2618,-0.0650,-42.5625,1.2188,-4.7625,
1.864115,0.3564,2.7302,1.3939,0.0101,-0.2618,-0.0650,-42.5625,1.2188,-4.7625,
1.866619,-0.1258,1.7844,-1.4627,0.0101,-0.2618,-0.0650,-42.5625,1.2188,-4.7625,
1.883384,-0.1258,1.7844,-1.4627,0.0101,-0.2618,-0.0650,-42.5250,1.8000,-4.0125,
1.903141,-0.1258,1.7844,-1.4627,0.0101,-0.2618,-0.0650,-42.5250,1.8000,-4.0125,
1.905124,-0.1258,1.7844,-1.4627,-0.1387,-0.0554,-0.0150,-42.5250,1.8000,-4.0125,
1.923422,-0.1258,1.7844,-1.4627,-0.1387,-0.0554,-0.0150,-42.5250,1.8000,-4.0125,
1.925718,-0.1258,1.7844,-1.4627,-0.1387,-0.0554,-0.0150,-42.5250,1.8000,-4.0125,
1.927213,0.4122,1.7499,0.7779,-0.1387,-0.0554,-0.0150,-42.5250,1.8000,-4.0125,
1.944347,0.4122,1.7499,0.7779,-0.1387,-0.0554,-0.0150,-42.2063,1.8938,-3.0750,
1.964134,0.4122,1.7499,0.7779,-0.1387,-0.0554,-0.0150,-42.2063,1.8938,-3.0750,
1.966245,0.4122,1.7499,0.7779,-0.1171,0.0956,0.0241,-42.2063,1.8938,-3.0750,
1.983890,0.4122,1.7499,0.7779,-0.1171,0.0956,0.0241,-42.2063,1.8938,-3.0750,
1.986810,0.4122,1.7499,0.7779,-0.1171,0.0956,0.0241,-42.2063,1.8938,-3.0750,
1.988598,0.2368,1.4004,-1.0974,-0.1171,0.0956,0.0241,-42.2063,1.8938,-3.0750,
2.023311,0.2368,1.4004,-1.0974,-0.1171,0.0956,0.0241,-42.2063,1.8938,-3.0750,
2.025876,0.2368,1.4004,-1.0974,-0.1171,0.0956,0.0241,-42.0188,1.9125,-1.1813,
2.028396,0.2368,1.4004,-1.0974,0.0262,-0.1379,0.0117,-42.0188,1.9125,-1.1813,
2.044341,0.2368,1.4004,-1.0974,0.0262,-0.1379,0.0117,-42.0188,1.9125,-1.1813,
2.047363,0.2368,1.4004,-1.0974,0.0262,-0.1379,0.0117,-42.0188,1.9125,-1.1813,
2.049513,0.4357,1.2146,0.5834,0.0262,-0.1379,0.0117,-42.0188,1.9125,-1.1813,
2.084837,0.4357,1.2146,0.5834,0.0262,-0.1379,0.0117,-42.0188,1.9125,-1.1813,
2.088258,0.4357,1.2146,0.5834,0.0262,-0.1379,0.0117,-42.0375,1.9313,0.6562,
2.105176,0.4357,1.2146,0.5834,-0.0376,-0.0115,0.0315,-42.0375,1.9313,0.6562,
2.108045,0.5214,1.2307,0.1590,-0.0376,-0.0115,0.0315,-42.0375,1.9313,0.6562,
2.109842,0.5214,1.2307,0.1590,-0.0376,-0.0115,0.0315,-42.0375,1.9313,0.6562,
2.111097,0.5214,1.2307,0.1590,-0.0376,-0.0115,0.0315,-42.0375,1.9313,0.6562,
2.125261,0.5214,1.2307,0.1590,-0.0376,-0.0115,0.0315,-42.0375,1.9313,0.6562,
2.144707,0.5214,1.2307,0.1590,-0.0376,-0.0115,0.0315,-42.0188,1.8000,2.1562,
2.165854,0.5214,1.2307,0.1590,-0.0376,-0.0115,0.0315,-42.0188,1.8000,2.1562,
2.168807,0.5214,1.2307,0.1590,-0.0376,-0.0115,0.0315,-42.0188,1.8000,2.1562,
2.170189,0.5214,1.2307,0.1590,0.0065,-0.0469,-0.0043,-42.0188,1.8000,2.1562,
2.172165,0.4670,1.1393,0.1694,0.0065,-0.0469,-0.0043,-42.0188,1.8000,2.1562,
2.192076,0.4670,1.1393,0.1694,0.0065,-0.0469,-0.0043,-42.0188,1.8000,2.1562,
2.224577,0.4670,1.1393,0.1694,0.0065,-0.0469,-0.0043,-41.9625,1.6688,2.9062,
2.227792,0.4670,1.1393,0.1694,0.0014,-0.0305,0.0045,-41.9625,1.6688,2.9062,
2.229936,0.3763,1.1831,0.0342,0.0014,-0.0305,0.0045,-41.9625,1.6688,2.9062,
2.232091,0.3763,1.1831,0.0342,0.0014,-0.0305,0.0045,-41.9625,1.6688,2.9062,
2.233861,0.3763,1.1831,0.0342,0.0014,-0.0305,0.0045,-41.9625,1.6688,2.9062,
2.259083,0.3763,1.1831,0.0342,0.0014,-0.0305,0.0045,-41.9625,1.6688,2.9062,
2.284912,0.3763,1.1831,0.0342,0.0014,-0.0305,0.0045,-41.9625,1.6688,2.9062,
2.287800,0.3763,1.1831,0.0342,0.0014,-0.0305,0.0045,-41.9625,1.6688,2.9062,
2.289442,0.3763,1.1831,0.0342,0.0014,-0.0305,0.0045,-41.9625,1.5750,3.2813,
2.291253,0.3525,1.2348,0.0406,0.0014,-0.0305,0.0045,-41.9625,1.5750,3.2813,
2.305781,0.3525,1.2348,0.0406,-0.0067,-0.0190,0.0118,-41.9625,1.5750,3.2813,
2.325167,0.3525,1.2348,0.0406,-0.0067,-0.0190,0.0118,-41.9625,1.5750,3.2813,
2.327263,0.3525,1.2348,0.0406,-0.0067,-0.0190,0.0118,-41.9625,1.5750,3.2813,
2.343529,0.3525,1.2348,0.0406,-0.0067,-0.0190,0.0118,-41.8500,1.6125,3.3375,
2.346184,0.3550,1.1363,0.1096,-0.0067,-0.0190,0.0118,-41.8500,1.6125,3.3375,
2.347955,0.3550,1.1363,0.1096,-0.0067,-0.0190,0.0118,-41.8500,1.6125,3.3375,
2.364505,0.3550,1.1363,0.1096,-0.0100,-0.0313,0.0118,-41.8500,1.6125,3.3375,
2.375126,0.3550,1.1363,0.1096,-0.0100,-0.0313,0.0118,-41.8500,1.6125,3.3375,
2.391713,0.3550,1.1363,0.1096,-0.0100,-0.0313,0.0118,-41.8500,1.6125,3.3375,
2.407610,0.3718,1.0930,0.1244,-0.0100,-0.0313,0.0118,-41.8500,1.6125,3.3375,
2.410762,0.3718,1.0930,0.1244,-0.0100,-0.0313,0.0118,-41.8500,1.6125,3.3375,
2.424378,0.3718,1.0930,0.1244,-0.0100,-0.0313,0.0118,-41.7375,1.5563,3.4688,
2.428094,0.3718,1.0930,0.1244,-0.0027,-0.0512,0.0164,-41.7375,1.5563,3.4688,
2.459124,0.3718,1.0930,0.1244,-0.0027,-0.0512,0.0164,-41.7375,1.5563,3.4688,
2.462236,0.3718,1.0930,0.1244,-0.0027,-0.0512,0.0164,-41.7375,1.5563,3.4688,
2.464685,0.3718,1.0930,0.1244,-0.0027,-0.0512,0.0164,-41.7375,1.5563,3.4688,
2.467469,0.2905,0.9902,0.0534,-0.0027,-0.0512,0.0164,-41.7375,1.5563,3.4688,
2.485157,0.2905,0.9902,0.0534,-0.0027,-0.0512,0.0164,-41.8313,1.6500,3.6938,
2.505885,0.2905,0.9902,0.0534,-0.0027,-0.0512,0.0164,-41.8313,1.6500,3.6938,
2.508673,0.2905,0.9902,0.0534,0.0122,-0.0705,0.0021,-41.8313,1.6500,3.6938,
2.525227,0.2905,0.9902,0.0534,0.0122,-0.0705,0.0021,-41.8313,1.6500,3.6938,
2.527930,0.2905,0.9902,0.0534,0.0122,-0.0705,0.0021,-41.8313,1.6500,3.6938,
2.529571,0.2733,0.8757,0.0888,0.0122,-0.0705,0.0021,-41.8313,1.6500,3.6938,
2.545359,0.2733,0.8757,0.0888,0.0122,-0.0705,0.0021,-41.7938,1.4813,3.8625,
2.564445,0.2733,0.8757,0.0888,0.0122,-0.0705,0.0021,-41.7938,1.4813,3.8625,
2.567053,0.2733,0.8757,0.0888,-0.0016,-0.0589,0.0161,-41.7938,1.4813,3.8625,
2.586402,0.2733,0.8757,0.0888,-0.0016,-0.0589,0.0161,-41.7938,1.4813,3.8625,
2.588713,0.2733,0.8757,0.0888,-0.0016,-0.0589,0.0161,-41.7938,1.4813,3.8625,
2.590662,0.2291,0.8372,0.0154,-0.0016,-0.0589,0.0161,-41.7938,1.4813,3.8625,
2.623949,0.2291,0.8372,0.0154,-0.0016,-0.0589,0.0161,-41.7938,1.4813,3.8625,
2.627245,0.2291,0.8372,0.0154,-0.0016,-0.0589,0.0161,-41.8125,1.5000,3.9938,
2.629419,0.2291,0.8372,0.0154,0.0013,-0.0595,0.0102,-41.8125,1.5000,3.9938,
2.645796,0.2291,0.8372,0.0154,0.0013,-0.0595,0.0102,-41.8125,1.5000,3.9938,
2.648579,0.2291,0.8372,0.0154,0.0013,-0.0595,0.0102,-41.8125,1.5000,3.9938,
2.650605,0.2348,0.6928,0.0442,0.0013,-0.0595,0.0102,-41.8125,1.5000,3.9938,
2.684072,0.2348,0.6928,0.0442,0.0013,-0.0595,0.0102,-41.8688,1.4625,4.2000,
2.687851,0.2348,0.6928,0.0442,0.0013,-0.0595,0.0102,-41.8688,1.4625,4.2000,
2.706188,0.2348,0.6928,0.0442,0.0013,-0.0595,0.0102,-41.8688,1.4625,4.2000,
2.708588,0.2181,0.6486,0.0229,0.0013,-0.0595,0.0102,-41.8688,1.4625,4.2000,
2.710834,0.2181,0.6486,0.0229,0.0013,-0.0595,0.0102,-41.8688,1.4625,4.2000,
2.713567,0.2181,0.6486,0.0229,-0.0095,-0.0202,0.0116,-41.8688,1.4625,4.2000,
2.726153,0.2181,0.6486,0.0229,-0.0095,-0.0202,0.0116,-41.8688,1.4625,4.2000,
2.744140,0.2181,0.6486,0.0229,-0.0095,-0.0202,0.0116,-41.9062,1.5000,4.3313,
2.764825,0.2181,0.6486,0.0229,-0.0095,-0.0202,0.0116,-41.9062,1.5000,4.3313,
2.766829,0.2181,0.6486,0.0229,-0.0095,-0.0202,0.0116,-41.9062,1.5000,4.3313,
2.767999,0.2181,0.6486,0.0229,-0.0061,-0.0167,0.0103,-41.9062,1.5000,4.3313,
2.769686,0.2067,0.5755,0.0643,-0.0061,-0.0167,0.0103,-41.9062,1.5000,4.3313,
2.796786,0.2067,0.5755,0.0643,-0.0061,-0.0167,0.0103,-41.9062,1.5000,4.3313,
2.828830,0.2067,0.5755,0.0643,-0.0061,-0.0167,0.0103,-41.9062,1.5000,4.3313,
2.830984,0.2067,0.5755,0.0643,-0.0061,-0.0167,0.0103,-41.8500,1.5375,4.4062,
2.833465,0.1492,0.5339,-0.0014,-0.0061,-0.0167,0.0103,-41.8500,1.5375,4.4062,
2.836274,0.1492,0.5339,-0.0014,-0.0061,-0.0167,0.0103,-41.8500,1.5375,4.4062,
2.836898,0.1492,0.5339,-0.0014,-0.0144,-0.0082,0.0134,-41.8500,1.5375,4.4062,
2.858887,0.1492,0.5339,-0.0014,-0.0144,-0.0082,0.0134,-41.8500,1.5375,4.4062,
2.884108,0.1492,0.5339,-0.0014,-0.0144,-0.0082,0.0134,-41.8500,1.5375,4.4062,
2.887000,0.1492,0.5339,-0.0014,-0.0144,-0.0082,0.0134,-41.9250,1.5938,4.5938,
2.902973,0.1428,0.4706,0.0079,-0.0144,-0.0082,0.0134,-41.9250,1.5938,4.5938,
2.908451,0.1428,0.4706,0.0079,-0.0144,-0.0082,0.0134,-41.9250,1.5938,4.5938,
2.910152,0.1428,0.4706,0.0079,-0.0131,-0.0030,0.0135,-41.9250,1.5938,4.5938,
2.924391,0.1428,0.4706,0.0079,-0.0131,-0.0030,0.0135,-41.9250,1.5938,4.5938,
2.926610,0.1428,0.4706,0.0079,-0.0131,-0.0030,0.0135,-41.9250,1.5938,4.5938,
2.942516,0.1428,0.4706,0.0079,-0.0131,-0.0030,0.0135,-41.9438,1.5750,4.7250,
2.944839,0.1428,0.4706,0.0079,-0.0131,-0.0030,0.0135,-41.9438,1.5750,4.7250,
2.946407,0.1417,0.4024,0.0447,-0.0131,-0.0030,0.0135,-41.9438,1.5750,4.7250,
2.968477,0.1417,0.4024,0.0447,-0.0128,0.0021,0.0083,-41.9438,1.5750,4.7250,
2.991423,0.1417,0.4024,0.0447,-0.0128,0.0021,0.0083,-41.9438,1.5750,4.7250,
2.993015,0.1417,0.4024,0.0447,-0.0128,0.0021,0.0083,-41.9438,1.5750,4.7250,
3.007689,0.1166,0.3853,0.0111,-0.0128,0.0021,0.0083,-41.9438,1.5750,4.7250,
3.010719,0.1166,0.3853,0.0111,-0.0128,0.0021,0.0083,-41.9438,1.5750,4.7250,
3.024014,0.1166,0.3853,0.0111,-0.0134,-0.0002,0.0109,-41.9438,1.5750,4.7250,
3.027153,0.1166,0.3853,0.0111,-0.0134,-0.0002,0.0109,-41.8688,1.5188,4.8188,
3.057445,0.1166,0.3853,0.0111,-0.0134,-0.0002,0.0109,-41.8688,1.5188,4.8188,
3.060944,0.1166,0.3853,0.0111,-0.0134,-0.0002,0.0109,-41.8688,1.5188,4.8188,
3.065147,0.0901,0.3589,-0.0117,-0.0134,-0.0002,0.0109,-41.8688,1.5188,4.8188,
3.069321,0.0901,0.3589,-0.0117,-0.0134,-0.0002,0.0109,-41.8688,1.5188,4.8188,
3.083693,0.0901,0.3589,-0.0117,-0.0134,-0.0002,0.0109,-41.9625,1.6125,4.9688,
3.107200,0.0901,0.3589,-0.0117,-0.0165,0.0076,0.0089,-41.9625,1.6125,4.9688,
3.109928,0.0901,0.3589,-0.0117,-0.0165,0.0076,0.0089,-41.9625,1.6125,4.9688,
3.125581,0.0901,0.3589,-0.0117,-0.0165,0.0076,0.0089,-41.9625,1.6125,4.9688,
3.127521,0.0901,0.3589,-0.0117,-0.0165,0.0076,0.0089,-41.9625,1.6125,4.9688,
3.128706,0.1075,0.3116,0.0081,-0.0165,0.0076,0.0089,-41.9625,1.6125,4.9688,
3.142356,0.1075,0.3116,0.0081,-0.0165,0.0076,0.0089,-41.9250,1.6125,4.8188,
3.166113,0.1075,0.3116,0.0081,-0.0165,0.0076,0.0089,-41.9250,1.6125,4.8188,
3.168454,0.1075,0.3116,0.0081,-0.0115,0.0063,0.0103,-41.9250,1.6125,4.8188,
3.184908,0.1075,0.3116,0.0081,-0.0115,0.0063,0.0103,-41.9250,1.6125,4.8188,
3.187443,0.1075,0.3116,0.0081,-0.0115,0.0063,0.0103,-41.9250,1.6125,4.8188,
3.189413,0.0660,0.2789,0.0320,-0.0115,0.0063,0.0103,-41.9250,1.6125,4.8188,
3.222460,0.0660,0.2789,0.0320,-0.0115,0.0063,0.0103,-41.9250,1.6125,4.8188,
3.224620,0.0660,0.2789,0.0320,-0.0115,0.0063,0.0103,-41.8875,1.6500,4.7063,
3.226746,0.0660,0.2789,0.0320,-0.0369,0.0912,0.0023,-41.8875,1.6500,4.7063,
3.245022,0.0660,0.2789,0.0320,-0.0369,0.0912,0.0023,-41.8875,1.6500,4.7063,
3.247372,0.0660,0.2789,0.0320,-0.0369,0.0912,0.0023,-41.8875,1.6500,4.7063,
3.248707,0.1070,0.2721,-0.0321,-0.0369,0.0912,0.0023,-41.8875,1.6500,4.7063,
3.282209,0.1070,0.2721,-0.0321,-0.0369,0.0912,0.0023,-41.8875,1.6500,4.7063,
3.284559,0.1070,0.2721,-0.0321,-0.0369,0.0912,0.0023,-41.9625,1.7250,4.7438,
3.306555,0.1070,0.2721,-0.0321,-0.0369,0.0912,0.0023,-41.9625,1.7250,4.7438,
3.308434,0.1070,0.2721,-0.0321,-0.0369,0.0912,0.0023,-41.9625,1.7250,4.7438,
3.309608,0.1070,0.2721,-0.0321,-0.1087,0.6748,0.0091,-41.9625,1.7250,4.7438,
3.311144,0.3161,0.2379,-0.6706,-0.1087,0.6748,0.0091,-41.9625,1.7250,4.7438,
3.324989,0.3161,0.2379,-0.6706,-0.1087,0.6748,0.0091,-41.9625,1.7250,4.7438,
3.342602,0.3161,0.2379,-0.6706,-0.1087,0.6748,0.0091,-42.0188,1.6875,4.1250,
3.367049,0.3161,0.2379,-0.6706,-0.1087,0.6748,0.0091,-42.0188,1.6875,4.1250,
3.368003,0.3161,0.2379,-0.6706,-0.1087,0.6748,0.0091,-42.0188,1.6875,4.1250,
3.368800,0.3161,0.2379,-0.6706,-0.3380,1.9759,0.5049,-42.0188,1.6875,4.1250,
3.369966,0.4005,1.2241,-2.5506,-0.3380,1.9759,0.5049,-42.0188,1.6875,4.1250,
3.391482,0.4005,1.2241,-2.5506,-0.3380,1.9759,0.5049,-42.0188,1.6875,4.1250,
3.421841,0.4005,1.2241,-2.5506,-0.3380,1.9759,0.5049,-42.0188,1.6875,4.1250,
3.423128,0.4005,1.2241,-2.5506,-0.3380,1.9759,0.5049,-41.9250,1.9313,2.8688,
3.425515,0.4005,1.2241,-2.5506,0.0079,0.6611,0.2703,-41.9250,1.9313,2.8688,
3.427116,0.4005,1.2241,-2.5506,0.0079,0.6611,0.2703,-41.9250,1.9313,2.8688,
3.428058,0.0634,0.1773,3.3118,0.0079,0.6611,0.2703,-41.9250,1.9313,2.8688,
3.458472,0.0634,0.1773,3.3118,0.0079,0.6611,0.2703,-41.9250,1.9313,2.8688,
3.484492,0.0634,0.1773,3.3118,0.0079,0.6611,0.2703,-41.9250,1.9313,2.8688,
3.488245,0.0634,0.1773,3.3118,0.0079,0.6611,0.2703,-42.0000,2.3063,1.4813,
3.491828,0.4025,1.8411,0.7306,0.0079,0.6611,0.2703,-42.0000,2.3063,1.4813,
3.495173,0.4025,1.8411,0.7306,0.0079,0.6611,0.2703,-42.0000,2.3063,1.4813,
3.512655,0.4025,1.8411,0.7306,0.1805,0.0554,0.9337,-42.0000,2.3063,1.4813,
3.530944,0.4025,1.8411,0.7306,0.1805,0.0554,0.9337,-42.0000,2.3063,1.4813,
3.533721,0.4025,1.8411,0.7306,0.1805,0.0554,0.9337,-42.0000,2.3063,1.4813,
3.542563,0.4025,1.8411,0.7306,0.1805,0.0554,0.9337,-42.0750,2.9438,0.0563,
3.546670,-2.4362,0.4945,-1.5377,0.1805,0.0554,0.9337,-42.0750,2.9438,0.0563,
3.549256,-2.4362,0.4945,-1.5377,0.1805,0.0554,0.9337,-42.0750,2.9438,0.0563,
3.567040,-2.4362,0.4945,-1.5377,-0.1765,0.1364,0.2140,-42.0750,2.9438,0.0563,
3.590063,-2.4362,0.4945,-1.5377,-0.1765,0.1364,0.2140,-42.0750,2.9438,0.0563,
3.593024,-2.4362,0.4945,-1.5377,-0.1765,0.1364,0.2140,-42.0750,2.9438,0.0563,
3.606902,-2.4362,0.4945,-1.5377,-0.1765,0.1364,0.2140,-42.0750,2.9438,0.0563,
3.610171,3.2533,-3.7107,1.5040,-0.1765,0.1364,0.2140,-42.0750,2.9438,0.0563,
3.626277,3.2533,-3.7107,1.5040,-0.1765,0.1364,0.2140,-42.1500,3.6375,-1.2750,
3.630649,3.2533,-3.7107,1.5040,-0.1200,-0.4603,-0.0935,-42.1500,3.6375,-1.2750,
3.659169,3.2533,-3.7107,1.5040,-0.1200,-0.4603,-0.0935,-42.1500,3.6375,-1.2750,
3.662589,3.2533,-3.7107,1.5040,-0.1200,-0.4603,-0.0935,-42.1500,3.6375,-1.2750,
3.666333,-1.6988,1.2499,0.2364,-0.1200,-0.4603,-0.0935,-42.1500,3.6375,-1.2750,
3.669316,-1.6988,1.2499,0.2364,-0.1200,-0.4603,-0.0935,-42.1500,3.6375,-1.2750,
3.683004,-1.6988,1.2499,0.2364,-0.1200,-0.4603,-0.0935,-42.4313,4.2563,-2.2125,
3.705302,-1.6988,1.2499,0.2364,-0.1200,-0.4603,-0.0935,-42.4313,4.2563,-2.2125,
3.708868,-1.6988,1.2499,0.2364,-0.0615,-0.5219,-0.0066,-42.4313,4.2563,-2.2125,
3.726912,-1.6988,1.2499,0.2364,-0.0615,-0.5219,-0.0066,-42.4313,4.2563,-2.2125,
3.731719,-1.6988,1.2499,0.2364,-0.0615,-0.5219,-0.0066,-42.4313,4.2563,-2.2125,
3.734476,-0.7763,0.3807,-0.9675,-0.0615,-0.5219,-0.0066,-42.4313,4.2563,-2.2125,
3.742518,-0.7763,0.3807,-0.9675,-0.0615,-0.5219,-0.0066,-42.4875,4.8750,-3.1875,
3.767900,-0.7763,0.3807,-0.9675,-0.0615,-0.5219,-0.0066,-42.4875,4.8750,-3.1875,
3.771263,-0.7763,0.3807,-0.9675,-0.1275,-0.3502,0.1839,-42.4875,4.8750,-3.1875,
3.785520,-0.5051,1.2910,0.8605,-0.1275,-0.3502,0.1839,-42.4875,4.8750,-3.1875,
3.789333,-0.5051,1.2910,0.8605,-0.1275,-0.3502,0.1839,-42.4875,4.8750,-3.1875,
3.791316,-0.5051,1.2910,0.8605,-0.1275,-0.3502,0.1839,-42.4875,4.8750,-3.1875,
3.824005,-0.5051,1.2910,0.8605,-0.1275,-0.3502,0.1839,-42.4875,4.8750,-3.1875,
3.828227,-0.5051,1.2910,0.8605,-0.1275,-0.3502,0.1839,-42.4313,5.4938,-3.9938,
3.831025,-0.5051,1.2910,0.8605,-0.1755,-0.0818,0.2538,-42.4313,5.4938,-3.9938,
3.847338,-0.5051,1.2910,0.8605,-0.1755,-0.0818,0.2538,-42.4313,5.4938,-3.9938,
3.851505,-0.5051,1.2910,0.8605,-0.1755,-0.0818,0.2538,-42.4313,5.4938,-3.9938,
3.854161,1.0034,-0.3131,-0.5714,-0.1755,-0.0818,0.2538,-42.4313,5.4938,-3.9938,
3.884072,1.0034,-0.3131,-0.5714,-0.1755,-0.0818,0.2538,-42.5813,6.2625,-4.3125,
3.890395,1.0034,-0.3131,-0.5714,-0.1755,-0.0818,0.2538,-42.5813,6.2625,-4.3125,
3.909796,1.0034,-0.3131,-0.5714,-0.1755,-0.0818,0.2538,-42.5813,6.2625,-4.3125,
3.913836,1.0034,-0.3131,-0.5714,-0.1755,-0.0818,0.2538,-42.5813,6.2625,-4.3125,
3.916863,1.0034,-0.3131,-0.5714,-0.1157,-0.2453,0.0772,-42.5813,6.2625,-4.3125,
3.920535,0.1191,-0.3005,0.0701,-0.1157,-0.2453,0.0772,-42.5813,6.2625,-4.3125,
3.930372,0.1191,-0.3005,0.0701,-0.1157,-0.2453,0.0772,-42.5813,6.2625,-4.3125,
3.943536,0.1191,-0.3005,0.0701,-0.1157,-0.2453,0.0772,-42.7313,6.7688,-3.8438,
3.968372,0.1191,-0.3005,0.0701,-0.1157,-0.2453,0.0772,-42.7313,6.7688,-3.8438,
3.971393,0.1191,-0.3005,0.0701,-0.1157,-0.2453,0.0772,-42.7313,6.7688,-3.8438,
3.973113,0.1191,-0.3005,0.0701,-0.2995,-0.5836,0.0812,-42.7313,6.7688,-3.8438,
3.975603,-0.4873,-0.2393,0.5735,-0.2995,-0.5836,0.0812,-42.7313,6.7688,-3.8438,
3.992314,-0.4873,-0.2393,0.5735,-0.2995,-0.5836,0.0812,-42.7313,6.7688,-3.8438,
4.024365,-0.4873,-0.2393,0.5735,-0.2995,-0.5836,0.0812,-42.8625,7.2375,-3.0375,
4.030229,-0.4873,-0.2393,0.5735,-0.2995,-0.5836,0.0812,-42.8625,7.2375,-3.0375,
4.033166,-0.4873,-0.2393,0.5735,-0.2955,-0.4772,0.2511,-42.8625,7.2375,-3.0375,
4.037008,-0.4873,-0.2393,0.5735,-0.2955,-0.4772,0.2511,-42.8625,7.2375,-3.0375,
4.039450,0.1373,-0.3831,0.5469,-0.2955,-0.4772,0.2511,-42.8625,7.2375,-3.0375,
4.057894,0.1373,-0.3831,0.5469,-0.2955,-0.4772,0.2511,-42.8625,7.2375,-3.0375,
4.083824,0.1373,-0.3831,0.5469,-0.2955,-0.4772,0.2511,-42.9938,7.5000,-2.3250,
4.089251,0.1373,-0.3831,0.5469,-0.2955,-0.4772,0.2511,-42.9938,7.5000,-2.3250,
4.092253,0.5249,0.6412,-1.9408,-0.2955,-0.4772,0.2511,-42.9938,7.5000,-2.3250,
4.096150,0.5249,0.6412,-1.9408,-0.2955,-0.4772,0.2511,-42.9938,7.5000,-2.3250,
4.105006,0.5249,0.6412,-1.9408,0.3372,1.5554,0.6254,-42.9938,7.5000,-2.3250,
4.130014,0.5249,0.6412,-1.9408,0.3372,1.5554,0.6254,-42.9938,7.5000,-2.3250,
4.134652,0.5249,0.6412,-1.9408,0.3372,1.5554,0.6254,-42.9938,7.5000,-2.3250,
4.142896,0.5249,0.6412,-1.9408,0.3372,1.5554,0.6254,-42.9000,7.9125,-2.1000,
4.146514,0.5249,0.6412,-1.9408,0.3372,1.5554,0.6254,-42.9000,7.9125,-2.1000,
4.148188,-0.9733,-0.4804,0.1624,0.3372,1.5554,0.6254,-42.9000,7.9125,-2.1000,
4.166317,-0.9733,-0.4804,0.1624,0.2486,0.2782,0.1977,-42.9000,7.9125,-2.1000,
4.190447,-0.9733,-0.4804,0.1624,0.2486,0.2782,0.1977,-42.9000,7.9125,-2.1000,
4.192013,-0.9733,-0.4804,0.1624,0.2486,0.2782,0.1977,-42.9000,7.9125,-2.1000,
4.204740,0.7549,1.5035,-0.1495,0.2486,0.2782,0.1977,-42.9000,7.9125,-2.1000,
4.207660,0.7549,1.5035,-0.1495,0.2486,0.2782,0.1977,-42.9000,7.9125,-2.1000,
4.224372,0.7549,1.5035,-0.1495,0.2486,0.2782,0.1977,-42.7125,8.2875,-2.1375,
4.228045,0.7549,1.5035,-0.1495,-0.6983,-0.2725,-0.4888,-42.7125,8.2875,-2.1375,
4.259018,0.7549,1.5035,-0.1495,-0.6983,-0.2725,-0.4888,-42.7125,8.2875,-2.1375,
4.263024,0.7549,1.5035,-0.1495,-0.6983,-0.2725,-0.4888,-42.7125,8.2875,-2.1375,
4.266067,-1.3723,-1.7669,1.8643,-0.6983,-0.2725,-0.4888,-42.7125,8.2875,-2.1375,
4.270454,-1.3723,-1.7669,1.8643,-0.6983,-0.2725,-0.4888,-42.7125,8.2875,-2.1375,
4.282427,-1.3723,-1.7669,1.8643,-0.6983,-0.2725,-0.4888,-42.6938,8.4375,-2.0250,
4.303321,-1.3723,-1.7669,1.8643,-0.6983,-0.2725,-0.4888,-42.6938,8.4375,-2.0250,
4.306191,-1.3723,-1.7669,1.8643,-0.8682,-1.2855,-1.1627,-42.6938,8.4375,-2.0250,
4.325693,-1.3723,-1.7669,1.8643,-0.8682,-1.2855,-1.1627,-42.6938,8.4375,-2.0250,
4.329514,-1.5404,-5.1766,2.0770,-0.8682,-1.2855,-1.1627,-42.6938,8.4375,-2.0250,
4.332973,-1.5404,-5.1766,2.0770,-0.8682,-1.2855,-1.1627,-42.6938,8.4375,-2.0250,
4.341734,-1.5404,-5.1766,2.0770,-0.8682,-1.2855,-1.1627,-42.8063,8.1188,-1.5375,
4.366340,-1.5404,-5.1766,2.0770,-0.9498,-0.5140,-1.3337,-42.8063,8.1188,-1.5375,
4.370340,-1.5404,-5.1766,2.0770,-0.9498,-0.5140,-1.3337,-42.8063,8.1188,-1.5375,
4.386405,0.2870,-2.5661,0.9144,-0.9498,-0.5140,-1.3337,-42.8063,8.1188,-1.5375,
4.391024,0.2870,-2.5661,0.9144,-0.9498,-0.5140,-1.3337,-42.8063,8.1188,-1.5375,
4.393182,0.2870,-2.5661,0.9144,-0.9498,-0.5140,-1.3337,-42.8063,8.1188,-1.5375,
4.422796,0.2870,-2.5661,0.9144,-0.9498,-0.5140,-1.3337,-42.8063,8.1188,-1.5375,
4.426732,0.2870,-2.5661,0.9144,-0.9498,-0.5140,-1.3337,-42.8625,7.0313,-1.1250,
4.429967,0.2870,-2.5661,0.9144,-1.6468,0.5953,-2.6584,-42.8625,7.0313,-1.1250,
4.448121,0.2870,-2.5661,0.9144,-1.6468,0.5953,-2.6584,-42.8625,7.0313,-1.1250,
4.451864,0.2870,-2.5661,0.9144,-1.6468,0.5953,-2.6584,-42.8625,7.0313,-1.1250,
4.454509,1.2665,0.2156,-4.2999,-1.6468,0.5953,-2.6584,-42.8625,7.0313,-1.1250,
4.484069,1.2665,0.2156,-4.2999,-1.6468,0.5953,-2.6584,-42.8625,7.0313,-1.1250,
4.488068,1.2665,0.2156,-4.2999,-1.6468,0.5953,-2.6584,-42.8063,4.8938,-0.9375,
4.507125,1.2665,0.2156,-4.2999,0.4694,2.0270,-2.8972,-42.8063,4.8938,-0.9375,
4.511752,0.7028,-0.6999,5.1972,0.4694,2.0270,-2.8972,-42.8063,4.8938,-0.9375,
4.514817,0.7028,-0.6999,5.1972,0.4694,2.0270,-2.8972,-42.8063,4.8938,-0.9375,
4.517892,0.7028,-0.6999,5.1972,0.4694,2.0270,-2.8972,-42.8063,4.8938,-0.9375,
4.527297,0.7028,-0.6999,5.1972,0.4694,2.0270,-2.8972,-42.8063,4.8938,-0.9375,
4.542907,0.7028,-0.6999,5.1972,0.4694,2.0270,-2.8972,-42.4875,2.1375,-1.4813,
4.568734,0.7028,-0.6999,5.1972,0.4694,2.0270,-2.8972,-42.4875,2.1375,-1.4813,
4.572703,0.7028,-0.6999,5.1972,0.4694,2.0270,-2.8972,-42.4875,2.1375,-1.4813,
4.575349,0.7028,-0.6999,5.1972,0.6419,0.1514,-1.8994,-42.4875,2.1375,-1.4813,
4.579267,-2.7584,1.9092,-5.7433,0.6419,0.1514,-1.8994,-42.4875,2.1375,-1.4813,
4.592411,-2.7584,1.9092,-5.7433,0.6419,0.1514,-1.8994,-42.4875,2.1375,-1.4813,
4.623045,-2.7584,1.9092,-5.7433,0.6419,0.1514,-1.8994,-42.4875,2.1375,-1.4813,
4.627107,-2.7584,1.9092,-5.7433,0.6419,0.1514,-1.8994,-41.9062,-1.1438,-1.6125,
4.630442,-2.7584,1.9092,-5.7433,0.9586,-1.3984,-0.7398,-41.9062,-1.1438,-1.6125,
4.633704,-2.7584,1.9092,-5.7433,0.9586,-1.3984,-0.7398,-41.9062,-1.1438,-1.6125,
4.636645,-4.8493,5.8672,6.0275,0.9586,-1.3984,-0.7398,-41.9062,-1.1438,-1.6125,
4.658942,-4.8493,5.8672,6.0275,0.9586,-1.3984,-0.7398,-41.9062,-1.1438,-1.6125,
4.683163,-4.8493,5.8672,6.0275,0.9586,-1.3984,-0.7398,-41.4188,-4.7250,-0.7125,
4.688427,-4.8493,5.8672,6.0275,0.9586,-1.3984,-0.7398,-41.4188,-4.7250,-0.7125,
4.691336,-4.8493,5.8672,6.0275,0.9586,-1.3984,-0.7398,-41.4188,-4.7250,-0.7125,
4.693980,-1.5609,3.1560,-2.8245,0.9586,-1.3984,-0.7398,-41.4188,-4.7250,-0.7125,
4.706617,-1.5609,3.1560,-2.8245,0.0233,-0.2366,-0.1219,-41.4188,-4.7250,-0.7125,
4.726733,-1.5609,3.1560,-2.8245,0.0233,-0.2366,-0.1219,-41.4188,-4.7250,-0.7125,
4.730427,-1.5609,3.1560,-2.8245,0.0233,-0.2366,-0.1219,-41.4188,-4.7250,-0.7125,
4.742116,-1.5609,3.1560,-2.8245,0.0233,-0.2366,-0.1219,-40.7812,-8.2313,0.2063,
4.746306,-1.5609,3.1560,-2.8245,0.0233,-0.2366,-0.1219,-40.7812,-8.2313,0.2063,
4.748965,0.5587,0.6010,0.0013,0.0233,-0.2366,-0.1219,-40.7812,-8.2313,0.2063,
4.767702,0.5587,0.6010,0.0013,0.0098,0.0079,0.0153,-40.7812,-8.2313,0.2063,
4.792121,0.5587,0.6010,0.0013,0.0098,0.0079,0.0153,-40.7812,-8.2313,0.2063,
4.796761,0.5587,0.6010,0.0013,0.0098,0.0079,0.0153,-40.7812,-8.2313,0.2063,
4.808165,0.5587,0.6010,0.0013,0.0098,0.0079,0.0153,-40.7812,-8.2313,0.2063,
4.811801,0.0712,0.1765,-0.0581,0.0098,0.0079,0.0153,-40.7812,-8.2313,0.2063,
4.824148,0.0712,0.1765,-0.0581,0.0098,0.0079,0.0153,-40.2375,-11.5500,0.8813,
4.828150,0.0712,0.1765,-0.0581,0.0017,-0.0149,0.0111,-40.2375,-11.5500,0.8813,
4.858747,0.0712,0.1765,-0.0581,0.0017,-0.0149,0.0111,-40.2375,-11.5500,0.8813,
4.862471,0.0712,0.1765,-0.0581,0.0017,-0.0149,0.0111,-40.2375,-11.5500,0.8813,
4.866971,0.0712,0.1765,-0.0581,0.0017,-0.0149,0.0111,-40.2375,-11.5500,0.8813,
4.869712,-0.0638,0.1483,0.0651,0.0017,-0.0149,0.0111,-40.2375,-11.5500,0.8813,
4.882618,-0.0638,0.1483,0.0651,0.0017,-0.0149,0.0111,-39.6188,-14.4000,1.2000,
4.907563,-0.0638,0.1483,0.0651,-0.0050,-0.0024,0.0117,-39.6188,-14.4000,1.2000,
4.910557,-0.0638,0.1483,0.0651,-0.0050,-0.0024,0.0117,-39.6188,-14.4000,1.2000,
4.926081,-0.0638,0.1483,0.0651,-0.0050,-0.0024,0.0117,-39.6188,-14.4000,1.2000,
4.929268,-0.0532,0.1693,0.0822,-0.0050,-0.0024,0.0117,-39.6188,-14.4000,1.2000,
4.943133,-0.0532,0.1693,0.0822,-0.0050,-0.0024,0.0117,-39.6188,-14.4000,1.2000,
4.947708,-0.0532,0.1693,0.0822,-0.0050,-0.0024,0.0117,-38.9625,-16.6688,1.4813,
4.967232,-0.0532,0.1693,0.0822,-0.0050,-0.0024,0.0117,-38.9625,-16.6688,1.4813,
4.970396,-0.0532,0.1693,0.0822,-0.0057,-0.0009,0.0116,-38.9625,-16.6688,1.4813,
4.985775,-0.0532,0.1693,0.0822,-0.0057,-0.0009,0.0116,-38.9625,-16.6688,1.4813,
4.988612,-0.0532,0.1693,0.0822,-0.0057,-0.0009,0.0116,-38.9625,-16.6688,1.4813,
4.990723,-0.0316,0.1938,0.0789,-0.0057,-0.0009,0.0116,-38.9625,-16.6688,1.4813,
5.022577,-0.0316,0.1938,0.0789,-0.0057,-0.0009,0.0116,-38.9625,-16.6688,1.4813,
5.024471,-0.0316,0.1938,0.0789,-0.0057,-0.0009,0.0116,-38.3438,-17.8500,1.8000,
5.026536,-0.0316,0.1938,0.0789,-0.0049,-0.0028,0.0108,-38.3438,-17.8500,1.8000,
5.048495,-0.0316,0.1938,0.0789,-0.0049,-0.0028,0.0108,-38.3438,-17.8500,1.8000,
5.050676,-0.0316,0.1938,0.0789,-0.0049,-0.0028,0.0108,-38.3438,-17.8500,1.8000,
5.052298,-0.0468,0.1691,0.0786,-0.0049,-0.0028,0.0108,-38.3438,-17.8500,1.8000,
5.082566,-0.0468,0.1691,0.0786,-0.0049,-0.0028,0.0108,-37.9313,-18.4688,2.7563,
5.085583,-0.0468,0.1691,0.0786,-0.0049,-0.0028,0.0108,-37.9313,-18.4688,2.7563,
5.107641,-0.0456,0.1834,0.0719,-0.0049,-0.0028,0.0108,-37.9313,-18.4688,2.7563,
5.111605,-0.0456,0.1834,0.0719,-0.0047,-0.0018,0.0106,-37.9313,-18.4688,2.7563,
5.114146,-0.0456,0.1834,0.0719,-0.0047,-0.0018,0.0106,-37.9313,-18.4688,2.7563,
5.117218,-0.0456,0.1834,0.0719,-0.0047,-0.0018,0.0106,-37.9313,-18.4688,2.7563,
5.142557,-0.0456,0.1834,0.0719,-0.0047,-0.0018,0.0106,-37.8188,-18.7688,3.3000,
5.146134,-0.0456,0.1834,0.0719,-0.0047,-0.0018,0.0106,-37.8188,-18.7688,3.3000,
5.169095,-0.0456,0.1834,0.0719,-0.0047,-0.0018,0.0106,-37.8188,-18.7688,3.3000,
5.172601,-0.0456,0.1834,0.0719,-0.0047,-0.0018,0.0106,-37.8188,-18.7688,3.3000,
5.174832,-0.0456,0.1834,0.0719,-0.0044,-0.0020,0.0100,-37.8188,-18.7688,3.3000,
5.178955,-0.0386,0.1661,0.0611,-0.0044,-0.0020,0.0100,-37.8188,-18.7688,3.3000,
5.193107,-0.0386,0.1661,0.0611,-0.0044,-0.0020,0.0100,-37.8188,-18.7688,3.3000,
5.222904,-0.0386,0.1661,0.0611,-0.0044,-0.0020,0.0100,-37.8188,-18.7688,3.3000,
5.227113,-0.0386,0.1661,0.0611,-0.0044,-0.0020,0.0100,-37.7625,-18.8250,3.3750,
5.230437,-0.0386,0.1661,0.0611,-0.0060,-0.0017,0.0105,-37.7625,-18.8250,3.3750,
5.233439,-0.0294,0.1648,0.0578,-0.0060,-0.0017,0.0105,-37.7625,-18.8250,3.3750,
5.237206,-0.0294,0.1648,0.0578,-0.0060,-0.0017,0.0105,-37.7625,-18.8250,3.3750,
5.259688,-0.0294,0.1648,0.0578,-0.0060,-0.0017,0.0105,-37.7625,-18.8250,3.3750,
5.283315,-0.0294,0.1648,0.0578,-0.0060,-0.0017,0.0105,-37.8000,-18.8063,3.3750,
5.288141,-0.0294,0.1648,0.0578,-0.0060,-0.0017,0.0105,-37.8000,-18.8063,3.3750,
5.291706,-0.0294,0.1648,0.0578,-0.0060,-0.0017,0.0105,-37.8000,-18.8063,3.3750,
5.294473,-0.0376,0.1462,0.0555,-0.0060,-0.0017,0.0105,-37.8000,-18.8063,3.3750,
5.308387,-0.0376,0.1462,0.0555,-0.0063,-0.0018,0.0108,-37.8000,-18.8063,3.3750,
5.325757,-0.0376,0.1462,0.0555,-0.0063,-0.0018,0.0108,-37.8000,-18.8063,3.3750,
5.343619,-0.0376,0.1462,0.0555,-0.0063,-0.0018,0.0108,-37.7812,-18.8625,3.4500,
5.348995,-0.0376,0.1462,0.0555,-0.0063,-0.0018,0.0108,-37.7812,-18.8625,3.4500,
5.351914,-0.0376,0.1462,0.0555,-0.0063,-0.0018,0.0108,-37.7812,-18.8625,3.4500,
5.354741,-0.0250,0.1399,0.0435,-0.0063,-0.0018,0.0108,-37.7812,-18.8625,3.4500,
5.367966,-0.0250,0.1399,0.0435,-0.0060,-0.0021,0.0103,-37.7812,-18.8625,3.4500,
5.391759,-0.0250,0.1399,0.0435,-0.0060,-0.0021,0.0103,-37.7812,-18.8625,3.4500,
5.394856,-0.0250,0.1399,0.0435,-0.0060,-0.0021,0.0103,-37.7812,-18.8625,3.4500,
5.408741,-0.0250,0.1399,0.0435,-0.0060,-0.0021,0.0103,-37.7812,-18.8625,3.4500,
5.412852,-0.0285,0.1217,0.0408,-0.0060,-0.0021,0.0103,-37.7812,-18.8625,3.4500,
5.423166,-0.0285,0.1217,0.0408,-0.0060,-0.0021,0.0103,-37.7812,-18.9563,3.3188,
5.427700,-0.0285,0.1217,0.0408,-0.0059,-0.0014,0.0101,-37.7812,-18.9563,3.3188,
5.459236,-0.0285,0.1217,0.0408,-0.0059,-0.0014,0.0101,-37.7812,-18.9563,3.3188,
5.462589,-0.0285,0.1217,0.0408,-0.0059,-0.0014,0.0101,-37.7812,-18.9563,3.3188,
5.466422,-0.0272,0.1220,0.0367,-0.0059,-0.0014,0.0101,-37.7812,-18.9563,3.3188,
5.469439,-0.0272,0.1220,0.0367,-0.0059,-0.0014,0.0101,-37.7812,-18.9563,3.3188,
5.482033,-0.0272,0.1220,0.0367,-0.0059,-0.0014,0.0101,-37.8188,-18.9375,3.3938,
5.486104,-0.0272,0.1220,0.0367,-0.0063,-0.0019,0.0102,-37.8188,-18.9375,3.3938,
5.525980,-0.0272,0.1220,0.0367,-0.0063,-0.0019,0.0102,-37.8188,-18.9375,3.3938,
5.530186,-0.0272,0.1220,0.0367,-0.0063,-0.0019,0.0102,-37.8188,-18.9375,3.3938,
5.532697,-0.0230,0.1181,0.0333,-0.0063,-0.0019,0.0102,-37.8188,-18.9375,3.3938,
5.536327,-0.0230,0.1181,0.0333,-0.0063,-0.0019,0.0102,-37.8188,-18.9375,3.3938,
5.544041,-0.0230,0.1181,0.0333,-0.0063,-0.0019,0.0102,-37.8938,-19.0312,3.4125,
5.568216,-0.0230,0.1181,0.0333,-0.0063,-0.0019,0.0102,-37.8938,-19.0312,3.4125,
5.571762,-0.0230,0.1181,0.0333,-0.0069,-0.0009,0.0113,-37.8938,-19.0312,3.4125,
5.591401,-0.0127,0.0960,0.0293,-0.0069,-0.0009,0.0113,-37.8938,-19.0312,3.4125,
5.596157,-0.0127,0.0960,0.0293,-0.0069,-0.0009,0.0113,-37.8938,-19.0312,3.4125,
5.599055,-0.0127,0.0960,0.0293,-0.0069,-0.0009,0.0113,-37.8938,-19.0312,3.4125,
5.622641,-0.0127,0.0960,0.0293,-0.0069,-0.0009,0.0113,-37.8938,-19.0312,3.4125,
5.625185,-0.0127,0.0960,0.0293,-0.0069,-0.0009,0.0113,-37.8938,-18.9938,3.5250,
5.627196,-0.0127,0.0960,0.0293,-0.0116,0.0059,0.0169,-37.8938,-18.9938,3.5250,
5.648315,-0.0127,0.0960,0.0293,-0.0116,0.0059,0.0169,-37.8938,-18.9938,3.5250,
5.651550,-0.0127,0.0960,0.0293,-0.0116,0.0059,0.0169,-37.8938,-18.9938,3.5250,
5.653636,0.0470,0.0589,0.0460,-0.0116,0.0059,0.0169,-37.8938,-18.9938,3.5250,
5.682792,0.0470,0.0589,0.0460,-0.0116,0.0059,0.0169,-37.8188,-18.8625,3.5063,
5.687259,0.0470,0.0589,0.0460,-0.0116,0.0059,0.0169,-37.8188,-18.8625,3.5063,
5.690948,0.0470,0.0589,0.0460,-0.0053,-0.0048,0.0202,-37.8188,-18.8625,3.5063,
5.716197,-0.0097,-0.0076,0.0059,-0.0053,-0.0048,0.0202,-37.8188,-18.8625,3.5063,
5.719670,-0.0097,-0.0076,0.0059,-0.0053,-0.0048,0.0202,-37.8188,-18.8625,3.5063,
5.721476,-0.0097,-0.0076,0.0059,-0.0053,-0.0048,0.0202,-37.8188,-18.8625,3.5063,
5.742195,-0.0097,-0.0076,0.0059,-0.0053,-0.0048,0.0202,-37.8188,-18.8625,3.5063,
5.744611,-0.0097,-0.0076,0.0059,-0.0053,-0.0048,0.0202,-37.7812,-18.8063,3.4125,
5.768736,-0.0097,-0.0076,0.0059,-0.0053,-0.0048,0.0202,-37.7812,-18.8063,3.4125,
5.771989,-0.0097,-0.0076,0.0059,-0.0053,-0.0048,0.0202,-37.7812,-18.8063,3.4125,
5.774270,-0.0097,-0.0076,0.0059,-0.0013,-0.0031,0.0142,-37.7812,-18.8063,3.4125,
5.777534,-0.0295,0.1074,0.0202,-0.0013,-0.0031,0.0142,-37.7812,-18.8063,3.4125,
5.791581,-0.0295,0.1074,0.0202,-0.0013,-0.0031,0.0142,-37.7812,-18.8063,3.4125,
5.823242,-0.0295,0.1074,0.0202,-0.0013,-0.0031,0.0142,-37.7063,-19.0312,3.3375,
5.826678,-0.0295,0.1074,0.0202,-0.0013,-0.0031,0.0142,-37.7063,-19.0312,3.3375,
5.829340,-0.0295,0.1074,0.0202,-0.0053,-0.0063,0.0129,-37.7063,-19.0312,3.3375,
5.831752,-0.0902,0.2348,0.0171,-0.0053,-0.0063,0.0129,-37.7063,-19.0312,3.3375,
5.833959,-0.0902,0.2348,0.0171,-0.0053,-0.0063,0.0129,-37.7063,-19.0312,3.3375,
5.858964,-0.0902,0.2348,0.0171,-0.0053,-0.0063,0.0129,-37.7063,-19.0312,3.3375,
5.883253,-0.0902,0.2348,0.0171,-0.0053,-0.0063,0.0129,-37.7063,-19.0312,3.3375,
5.886925,-0.0902,0.2348,0.0171,-0.0053,-0.0063,0.0129,-37.7438,-18.9750,3.3000,
5.890019,-0.0902,0.2348,0.0171,0.0149,0.1045,-0.0111,-37.7438,-18.9750,3.3000,
5.893080,0.0214,0.0236,0.0019,0.0149,0.1045,-0.0111,-37.7438,-18.9750,3.3000,
5.896494,0.0214,0.0236,0.0019,0.0149,0.1045,-0.0111,-37.7438,-18.9750,3.3000,
5.925574,0.0214,0.0236,0.0019,0.0149,0.1045,-0.0111,-37.7438,-18.9750,3.3000,
5.942407,0.0214,0.0236,0.0019,0.0149,0.1045,-0.0111,-37.6875,-19.0125,3.0188,
5.947047,0.0214,0.0236,0.0019,0.0149,0.1045,-0.0111,-37.6875,-19.0125,3.0188,
5.949809,0.2260,-0.0363,-1.5065,0.0149,0.1045,-0.0111,-37.6875,-19.0125,3.0188,
5.953083,0.2260,-0.0363,-1.5065,0.0149,0.1045,-0.0111,-37.6875,-19.0125,3.0188,
5.968105,0.2260,-0.0363,-1.5065,0.7593,3.3824,-0.5939,-37.6875,-19.0125,3.0188,
5.991992,0.2260,-0.0363,-1.5065,0.7593,3.3824,-0.5939,-37.6875,-19.0125,3.0188,
5.995976,0.2260,-0.0363,-1.5065,0.7593,3.3824,-0.5939,-37.6875,-19.0125,3.0188,
6.008350,-0.9929,-1.0436,-5.1697,0.7593,3.3824,-0.5939,-37.6875,-19.0125,3.0188,
6.012763,-0.9929,-1.0436,-5.1697,0.7593,3.3824,-0.5939,-37.6875,-19.0125,3.0188,
6.025282,-0.9929,-1.0436,-5.1697,0.7593,3.3824,-0.5939,-37.5000,-19.3313,2.0250,
6.029571,-0.9929,-1.0436,-5.1697,0.3515,1.2263,-0.6373,-37.5000,-19.3313,2.0250,
6.057462,-0.9929,-1.0436,-5.1697,0.3515,1.2263,-0.6373,-37.5000,-19.3313,2.0250,
6.061477,-0.9929,-1.0436,-5.1697,0.3515,1.2263,-0.6373,-37.5000,-19.3313,2.0250,
6.067401,-0.9929,-1.0436,-5.1697,0.3515,1.2263,-0.6373,-37.5000,-19.3313,2.0250,
6.070524,2.9948,1.1453,4.4030,0.3515,1.2263,-0.6373,-37.5000,-19.3313,2.0250,
6.082024,2.9948,1.1453,4.4030,0.3515,1.2263,-0.6373,-37.2563,-19.6125,0.7500,
6.089860,2.9948,1.1453,4.4030,-0.4828,1.6610,-0.2156,-37.2563,-19.6125,0.7500,
6.127002,2.9948,1.1453,4.4030,-0.4828,1.6610,-0.2156,-37.2563,-19.6125,0.7500,
6.131065,2.9948,1.1453,4.4030,-0.4828,1.6610,-0.2156,-37.2563,-19.6125,0.7500,
6.133756,-0.4278,1.2518,3.1557,-0.4828,1.6610,-0.2156,-37.2563,-19.6125,0.7500,
6.137935,-0.4278,1.2518,3.1557,-0.4828,1.6610,-0.2156,-37.2563,-19.6125,0.7500,
6.144821,-0.4278,1.2518,3.1557,-0.4828,1.6610,-0.2156,-37.0688,-20.0625,-1.0688,
6.168785,-0.4278,1.2518,3.1557,-0.4828,1.6610,-0.2156,-37.0688,-20.0625,-1.0688,
6.172035,-0.4278,1.2518,3.1557,-0.1982,-0.2025,0.1859,-37.0688,-20.0625,-1.0688,
6.191646,-0.4278,1.2518,3.1557,-0.1982,-0.2025,0.1859,-37.0688,-20.0625,-1.0688,
6.194919,-0.4278,1.2518,3.1557,-0.1982,-0.2025,0.1859,-37.0688,-20.0625,-1.0688,
6.197557,-1.8531,-0.8994,0.7087,-0.1982,-0.2025,0.1859,-37.0688,-20.0625,-1.0688,
6.222797,-1.8531,-0.8994,0.7087,-0.1982,-0.2025,0.1859,-36.8063,-20.4375,-2.7938,
6.228029,-1.8531,-0.8994,0.7087,-0.1982,-0.2025,0.1859,-36.8063,-20.4375,-2.7938,
6.230627,-1.8531,-0.8994,0.7087,-0.1272,0.1665,0.7438,-36.8063,-20.4375,-2.7938,
6.249553,-1.8531,-0.8994,0.7087,-0.1272,0.1665,0.7438,-36.8063,-20.4375,-2.7938,
6.253254,1.7658,0.1796,0.9807,-0.1272,0.1665,0.7438,-36.8063,-20.4375,-2.7938,
6.257441,1.7658,0.1796,0.9807,-0.1272,0.1665,0.7438,-36.8063,-20.4375,-2.7938,
6.283232,1.7658,0.1796,0.9807,-0.1272,0.1665,0.7438,-36.8063,-20.4375,-2.7938,
6.287573,1.7658,0.1796,0.9807,-0.1272,0.1665,0.7438,-36.8250,-20.6250,-4.3500,
6.290741,1.7658,0.1796,0.9807,0.6591,-0.0176,1.1379,-36.8250,-20.6250,-4.3500,
6.308567,1.7658,0.1796,0.9807,0.6591,-0.0176,1.1379,-36.8250,-20.6250,-4.3500,
6.312083,1.7658,0.1796,0.9807,0.6591,-0.0176,1.1379,-36.8250,-20.6250,-4.3500,
6.314270,-2.9335,1.0980,4.2358,0.6591,-0.0176,1.1379,-36.8250,-20.6250,-4.3500,
6.342290,-2.9335,1.0980,4.2358,0.6591,-0.0176,1.1379,-36.8250,-20.6250,-4.3500,
6.347160,-2.9335,1.0980,4.2358,0.6591,-0.0176,1.1379,-36.9563,-20.6438,-5.7750,
6.370739,-2.9335,1.0980,4.2358,0.6591,-0.0176,1.1379,-36.9563,-20.6438,-5.7750,
6.374707,-2.9335,1.0980,4.2358,0.6591,-0.0176,1.1379,-36.9563,-20.6438,-5.7750,
6.377712,-2.9335,1.0980,4.2358,2.4517,0.6123,-0.7432,-36.9563,-20.6438,-5.7750,
6.380960,1.0502,-1.5864,5.7071,2.4517,0.6123,-0.7432,-36.9563,-20.6438,-5.7750,
6.392070,1.0502,-1.5864,5.7071,2.4517,0.6123,-0.7432,-36.9563,-20.6438,-5.7750,
6.423015,1.0502,-1.5864,5.7071,2.4517,0.6123,-0.7432,-36.9563,-20.6438,-5.7750,
6.427439,1.0502,-1.5864,5.7071,2.4517,0.6123,-0.7432,-36.9563,-20.9625,-7.0688,
6.430655,1.0502,-1.5864,5.7071,0.3419,0.4335,1.0055,-36.9563,-20.9625,-7.0688,
6.433798,1.0502,-1.5864,5.7071,0.3419,0.4335,1.0055,-36.9563,-20.9625,-7.0688,
6.436390,-1.9692,-1.6935,-0.0068,0.3419,0.4335,1.0055,-36.9563,-20.9625,-7.0688,
6.459251,-1.9692,-1.6935,-0.0068,0.3419,0.4335,1.0055,-36.9563,-20.9625,-7.0688,
6.482740,-1.9692,-1.6935,-0.0068,0.3419,0.4335,1.0055,-37.2750,-20.9062,-8.1188,
6.488620,-1.9692,-1.6935,-0.0068,0.3419,0.4335,1.0055,-37.2750,-20.9062,-8.1188,
6.491472,0.5761,-2.5082,-2.5046,0.3419,0.4335,1.0055,-37.2750,-20.9062,-8.1188,
6.494673,0.5761,-2.5082,-2.5046,0.6000,0.9209,0.7129,-37.2750,-20.9062,-8.1188,
6.497826,0.5761,-2.5082,-2.5046,0.6000,0.9209,0.7129,-37.2750,-20.9062,-8.1188,
6.525836,0.5761,-2.5082,-2.5046,0.6000,0.9209,0.7129,-37.2750,-20.9062,-8.1188,
6.543838,0.5761,-2.5082,-2.5046,0.6000,0.9209,0.7129,-37.6688,-20.6063,-8.6250,
6.549278,0.5761,-2.5082,-2.5046,0.6000,0.9209,0.7129,-37.6688,-20.6063,-8.6250,
6.552325,0.5761,-2.5082,-2.5046,0.6000,0.9209,0.7129,-37.6688,-20.6063,-8.6250,
6.555038,2.6331,-2.2839,1.7348,0.6000,0.9209,0.7129,-37.6688,-20.6063,-8.6250,
6.569841,2.6331,-2.2839,1.7348,1.4379,0.9096,-0.4986,-37.6688,-20.6063,-8.6250,
6.592097,2.6331,-2.2839,1.7348,1.4379,0.9096,-0.4986,-37.6688,-20.6063,-8.6250,
6.595866,2.6331,-2.2839,1.7348,1.4379,0.9096,-0.4986,-37.6688,-20.6063,-8.6250,
6.608299,1.7765,-0.5023,-0.7861,1.4379,0.9096,-0.4986,-37.6688,-20.6063,-8.6250,
6.612701,1.7765,-0.5023,-0.7861,1.4379,0.9096,-0.4986,-37.6688,-20.6063,-8.6250,
6.624241,1.7765,-0.5023,-0.7861,1.4379,0.9096,-0.4986,-37.9688,-20.4750,-8.7750,
6.628954,1.7765,-0.5023,-0.7861,0.3732,0.1411,0.1261,-37.9688,-20.4750,-8.7750,
6.632442,1.7765,-0.5023,-0.7861,0.3732,0.1411,0.1261,-37.9688,-20.4750,-8.7750,
6.658419,1.7765,-0.5023,-0.7861,0.3732,0.1411,0.1261,-37.9688,-20.4750,-8.7750,
6.667763,-0.4967,0.6800,-2.2884,0.3732,0.1411,0.1261,-37.9688,-20.4750,-8.7750,
6.670354,-0.4967,0.6800,-2.2884,0.3732,0.1411,0.1261,-37.9688,-20.4750,-8.7750,
6.682180,-0.4967,0.6800,-2.2884,0.3732,0.1411,0.1261,-38.3438,-20.1750,-8.3813,
6.689442,-0.4967,0.6800,-2.2884,0.2723,0.0134,-0.0213,-38.3438,-20.1750,-8.3813,
6.725908,-0.4967,0.6800,-2.2884,0.2723,0.0134,-0.0213,-38.3438,-20.1750,-8.3813,
6.729634,-0.4967,0.6800,-2.2884,0.2723,0.0134,-0.0213,-38.3438,-20.1750,-8.3813,
6.732256,0.4958,-0.0547,-3.5277,0.2723,0.0134,-0.0213,-38.3438,-20.1750,-8.3813,
6.735832,0.4958,-0.0547,-3.5277,0.2723,0.0134,-0.0213,-38.3438,-20.1750,-8.3813,
6.742582,0.4958,-0.0547,-3.5277,0.2723,0.0134,-0.0213,-38.8688,-20.0063,-7.9500,
6.770088,0.4958,-0.0547,-3.5277,0.2723,0.0134,-0.0213,-38.8688,-20.0063,-7.9500,
6.773409,0.4958,-0.0547,-3.5277,-0.0007,-0.1761,0.0324,-38.8688,-20.0063,-7.9500,
6.790719,0.4958,-0.0547,-3.5277,-0.0007,-0.1761,0.0324,-38.8688,-20.0063,-7.9500,
6.793930,0.4958,-0.0547,-3.5277,-0.0007,-0.1761,0.0324,-38.8688,-20.0063,-7.9500,
6.796606,0.1763,0.3314,-3.0672,-0.0007,-0.1761,0.0324,-38.8688,-20.0063,-7.9500,
6.822894,0.1763,0.3314,-3.0672,-0.0007,-0.1761,0.0324,-38.8688,-20.0063,-7.9500,
6.826675,0.1763,0.3314,-3.0672,-0.0007,-0.1761,0.0324,-39.1688,-19.9500,-7.6875,
6.829731,0.1763,0.3314,-3.0672,-0.1601,-0.2449,0.1043,-39.1688,-19.9500,-7.6875,
6.849630,0.1763,0.3314,-3.0672,-0.1601,-0.2449,0.1043,-39.1688,-19.9500,-7.6875,
6.853473,0.1763,0.3314,-3.0672,-0.1601,-0.2449,0.1043,-39.1688,-19.9500,-7.6875,
6.858098,0.1600,0.3013,-2.1934,-0.1601,-0.2449,0.1043,-39.1688,-19.9500,-7.6875,
6.882875,0.1600,0.3013,-2.1934,-0.1601,-0.2449,0.1043,-39.3563,-19.9500,-7.4813,
6.887536,0.1600,0.3013,-2.1934,-0.1601,-0.2449,0.1043,-39.3563,-19.9500,-7.4813,
6.890149,0.1600,0.3013,-2.1934,-0.2165,-0.2956,0.2340,-39.3563,-19.9500,-7.4813,
6.909313,0.1600,0.3013,-2.1934,-0.2165,-0.2956,0.2340,-39.3563,-19.9500,-7.4813,
6.912132,0.1600,0.3013,-2.1934,-0.2165,-0.2956,0.2340,-39.3563,-19.9500,-7.4813,
6.913930,0.0288,0.7261,-1.3240,-0.2165,-0.2956,0.2340,-39.3563,-19.9500,-7.4813,
6.943387,0.0288,0.7261,-1.3240,-0.2165,-0.2956,0.2340,-39.3563,-19.9500,-7.4813,
6.947397,0.0288,0.7261,-1.3240,-0.2165,-0.2956,0.2340,-39.6375,-19.6688,-7.4063,
6.970618,0.0288,0.7261,-1.3240,-0.2165,-0.2956,0.2340,-39.6375,-19.6688,-7.4063,
6.974578,0.0288,0.7261,-1.3240,-0.2165,-0.2956,0.2340,-39.6375,-19.6688,-7.4063,
6.977592,0.0288,0.7261,-1.3240,-0.0857,-0.2283,0.0325,-39.6375,-19.6688,-7.4063,
6.980868,0.2053,0.4695,-0.6591,-0.0857,-0.2283,0.0325,-39.6375,-19.6688,-7.4063,
6.996687,0.2053,0.4695,-0.6591,-0.0857,-0.2283,0.0325,-39.6375,-19.6688,-7.4063,
7.022834,0.2053,0.4695,-0.6591,-0.0857,-0.2283,0.0325,-39.6375,-19.6688,-7.4063,
7.026009,0.2053,0.4695,-0.6591,-0.0857,-0.2283,0.0325,-39.6562,-19.7812,-7.2000,
7.029284,0.2053,0.4695,-0.6591,-0.0847,-0.0932,-0.0431,-39.6562,-19.7812,-7.2000,
7.031506,0.2053,0.4695,-0.6591,-0.0847,-0.0932,-0.0431,-39.6562,-19.7812,-7.2000,
7.032853,-0.0415,0.3548,-0.6980,-0.0847,-0.0932,-0.0431,-39.6562,-19.7812,-7.2000,
7.056183,-0.0415,0.3548,-0.6980,-0.0847,-0.0932,-0.0431,-39.6562,-19.7812,-7.2000,
7.083285,-0.0415,0.3548,-0.6980,-0.0847,-0.0932,-0.0431,-39.6562,-19.7812,-7.2000,
7.087857,-0.0415,0.3548,-0.6980,-0.0847,-0.0932,-0.0431,-39.5438,-19.8000,-6.8063,
7.091382,-0.0415,0.3548,-0.6980,-0.1346,0.1163,0.0503,-39.5438,-19.8000,-6.8063,
7.094580,-0.0415,0.3548,-0.6980,-0.1346,0.1163,0.0503,-39.5438,-19.8000,-6.8063,
7.097345,-0.2717,0.3455,-1.0067,-0.1346,0.1163,0.0503,-39.5438,-19.8000,-6.8063,
7.126658,-0.2717,0.3455,-1.0067,-0.1346,0.1163,0.0503,-39.5438,-19.8000,-6.8063,
7.143522,-0.2717,0.3455,-1.0067,-0.1346,0.1163,0.0503,-39.7688,-19.6500,-6.5625,
7.149142,-0.2717,0.3455,-1.0067,-0.1346,0.1163,0.0503,-39.7688,-19.6500,-6.5625,
7.152297,-0.0552,0.3820,-0.2293,-0.1346,0.1163,0.0503,-39.7688,-19.6500,-6.5625,
7.156075,-0.0552,0.3820,-0.2293,-0.1346,0.1163,0.0503,-39.7688,-19.6500,-6.5625,
7.169785,-0.0552,0.3820,-0.2293,0.1810,0.2032,0.0997,-39.7688,-19.6500,-6.5625,
7.191790,-0.0552,0.3820,-0.2293,0.1810,0.2032,0.0997,-39.7688,-19.6500,-6.5625,
7.194743,-0.0552,0.3820,-0.2293,0.1810,0.2032,0.0997,-39.7688,-19.6500,-6.5625,
7.209066,-0.0552,0.3820,-0.2293,0.1810,0.2032,0.0997,-39.7688,-19.6500,-6.5625,
7.212320,-0.0663,0.5637,1.3998,0.1810,0.2032,0.0997,-39.7688,-19.6500,-6.5625,
7.224381,-0.0663,0.5637,1.3998,0.1810,0.2032,0.0997,-39.8813,-19.5375,-6.4313,
7.230237,-0.0663,0.5637,1.3998,0.2400,0.2877,-0.1229,-39.8813,-19.5375,-6.4313,
7.259642,-0.0663,0.5637,1.3998,0.2400,0.2877,-0.1229,-39.8813,-19.5375,-6.4313,
7.264137,-0.0663,0.5637,1.3998,0.2400,0.2877,-0.1229,-39.8813,-19.5375,-6.4313,
7.278197,0.2672,-0.1450,1.0914,0.2400,0.2877,-0.1229,-39.8813,-19.5375,-6.4313,
7.294988,0.2672,-0.1450,1.0914,0.2400,0.2877,-0.1229,-39.8813,-19.5375,-6.4313,
7.297527,0.2672,-0.1450,1.0914,0.2400,0.2877,-0.1229,-39.9750,-19.4813,-6.4313,
7.299809,0.2672,-0.1450,1.0914,0.5950,0.4039,-0.0924,-39.9750,-19.4813,-6.4313,
7.324147,0.2672,-0.1450,1.0914,0.5950,0.4039,-0.0924,-39.9750,-19.4813,-6.4313,
7.326348,0.2672,-0.1450,1.0914,0.5950,0.4039,-0.0924,-39.9750,-19.4813,-6.4313,
7.327361,-0.4495,-0.3638,0.8285,0.5950,0.4039,-0.0924,-39.9750,-19.4813,-6.4313,
7.328689,-0.4495,-0.3638,0.8285,0.5950,0.4039,-0.0924,-39.9750,-19.4813,-6.4313,
7.347378,-0.4495,-0.3638,0.8285,0.5950,0.4039,-0.0924,-39.9750,-19.5000,-6.4500,
7.370682,-0.4495,-0.3638,0.8285,0.5950,0.4039,-0.0924,-39.9750,-19.5000,-6.4500,
7.372998,-0.4495,-0.3638,0.8285,0.3040,0.2833,0.4374,-39.9750,-19.5000,-6.4500,
7.408374,-0.5052,-0.8008,-0.7968,0.3040,0.2833,0.4374,-39.9750,-19.5000,-6.4500,
7.414431,-0.5052,-0.8008,-0.7968,0.3040,0.2833,0.4374,-39.9750,-19.5000,-6.4500,
7.417352,-0.5052,-0.8008,-0.7968,0.3040,0.2833,0.4374,-39.9750,-19.5000,-6.4500,
7.424324,-0.5052,-0.8008,-0.7968,0.3040,0.2833,0.4374,-40.0875,-19.2750,-6.6375,
7.427855,-0.5052,-0.8008,-0.7968,0.3040,0.2833,0.4374,-40.0875,-19.2750,-6.6375,
7.429513,-0.5052,-0.8008,-0.7968,0.1548,0.3954,0.3822,-40.0875,-19.2750,-6.6375,
7.449711,-0.5052,-0.8008,-0.7968,0.1548,0.3954,0.3822,-40.0875,-19.2750,-6.6375,
7.451671,-0.5052,-0.8008,-0.7968,0.1548,0.3954,0.3822,-40.0875,-19.2750,-6.6375,
7.452844,0.5052,-1.0112,0.2228,0.1548,0.3954,0.3822,-40.0875,-19.2750,-6.6375,
7.482336,0.5052,-1.0112,0.2228,0.1548,0.3954,0.3822,-40.0875,-19.2750,-6.6375,
7.484377,0.5052,-1.0112,0.2228,0.1548,0.3954,0.3822,-40.0312,-19.1625,-6.8250,
7.488655,0.5052,-1.0112,0.2228,0.6041,0.3289,0.1574,-40.0312,-19.1625,-6.8250,
7.508525,0.5052,-1.0112,0.2228,0.6041,0.3289,0.1574,-40.0312,-19.1625,-6.8250,
7.511338,0.5052,-1.0112,0.2228,0.6041,0.3289,0.1574,-40.0312,-19.1625,-6.8250,
7.512636,0.8275,-0.7189,1.5111,0.6041,0.3289,0.1574,-40.0312,-19.1625,-6.8250,
7.543142,0.8275,-0.7189,1.5111,0.6041,0.3289,0.1574,-40.2000,-18.9375,-7.0875,
7.547788,0.8275,-0.7189,1.5111,0.6041,0.3289,0.1574,-40.2000,-18.9375,-7.0875,
7.559587,0.8275,-0.7189,1.5111,0.6041,0.3289,0.1574,-40.2000,-18.9375,-7.0875,
7.574420,0.8275,-0.7189,1.5111,0.6960,0.2606,0.2603,-40.2000,-18.9375,-7.0875,
7.577341,0.1228,0.1303,1.6696,0.6960,0.2606,0.2603,-40.2000,-18.9375,-7.0875,
7.578959,0.1228,0.1303,1.6696,0.6960,0.2606,0.2603,-40.2000,-18.9375,-7.0875,
7.592114,0.1228,0.1303,1.6696,0.6960,0.2606,0.2603,-40.2000,-18.9375,-7.0875,
7.623556,0.1228,0.1303,1.6696,0.6960,0.2606,0.2603,-40.2000,-18.9375,-7.0875,
7.626014,0.1228,0.1303,1.6696,0.6960,0.2606,0.2603,-40.3688,-18.7688,-7.4063,
7.629822,0.1228,0.1303,1.6696,0.9012,0.1959,0.0340,-40.3688,-18.7688,-7.4063,
7.631987,0.1228,0.1303,1.6696,0.9012,0.1959,0.0340,-40.3688,-18.7688,-7.4063,
7.633151,0.7166,0.2806,2.2046,0.9012,0.1959,0.0340,-40.3688,-18.7688,-7.4063,
7.659702,0.7166,0.2806,2.2046,0.9012,0.1959,0.0340,-40.3688,-18.7688,-7.4063,
7.683465,0.7166,0.2806,2.2046,0.9012,0.1959,0.0340,-40.4438,-18.6000,-7.6125,
7.688176,0.7166,0.2806,2.2046,0.9012,0.1959,0.0340,-40.4438,-18.6000,-7.6125,
7.690750,0.7166,0.2806,2.2046,0.9012,0.1959,0.0340,-40.4438,-18.6000,-7.6125,
7.692972,-0.2105,0.4815,1.7668,0.9012,0.1959,0.0340,-40.4438,-18.6000,-7.6125,
7.695892,-0.2105,0.4815,1.7668,0.5530,0.0297,0.2959,-40.4438,-18.6000,-7.6125,
7.726602,-0.2105,0.4815,1.7668,0.5530,0.0297,0.2959,-40.4438,-18.6000,-7.6125,
7.743379,-0.2105,0.4815,1.7668,0.5530,0.0297,0.2959,-40.7063,-18.2625,-7.5938,
7.748873,-0.2105,0.4815,1.7668,0.5530,0.0297,0.2959,-40.7063,-18.2625,-7.5938,
7.752012,-0.3257,-0.0370,1.4552,0.5530,0.0297,0.2959,-40.7063,-18.2625,-7.5938,
7.755943,-0.3257,-0.0370,1.4552,0.5530,0.0297,0.2959,-40.7063,-18.2625,-7.5938,
7.771926,-0.3257,-0.0370,1.4552,0.4613,0.1597,0.3935,-40.7063,-18.2625,-7.5938,
7.792565,-0.3257,-0.0370,1.4552,0.4613,0.1597,0.3935,-40.7063,-18.2625,-7.5938,
7.796439,-0.3257,-0.0370,1.4552,0.4613,0.1597,0.3935,-40.7063,-18.2625,-7.5938,
7.811151,-0.3257,-0.0370,1.4552,0.4613,0.1597,0.3935,-40.7063,-18.2625,-7.5938,
7.815392,0.0468,-0.5677,1.3472,0.4613,0.1597,0.3935,-40.7063,-18.2625,-7.5938,
7.824022,0.0468,-0.5677,1.3472,0.4613,0.1597,0.3935,-40.9500,-17.7188,-7.3500,
7.829823,0.0468,-0.5677,1.3472,0.7349,0.1034,0.2568,-40.9500,-17.7188,-7.3500,
7.860067,0.0468,-0.5677,1.3472,0.7349,0.1034,0.2568,-40.9500,-17.7188,-7.3500,
7.863747,0.0468,-0.5677,1.3472,0.7349,0.1034,0.2568,-40.9500,-17.7188,-7.3500,
7.868874,0.0468,-0.5677,1.3472,0.7349,0.1034,0.2568,-40.9500,-17.7188,-7.3500,
7.871554,0.1303,-1.1833,1.4702,0.7349,0.1034,0.2568,-40.9500,-17.7188,-7.3500,
7.883354,0.1303,-1.1833,1.4702,0.7349,0.1034,0.2568,-41.2313,-17.3250,-7.0875,
7.891758,0.1303,-1.1833,1.4702,0.0741,-0.3526,-0.1210,-41.2313,-17.3250,-7.0875,
7.926794,0.1303,-1.1833,1.4702,0.0741,-0.3526,-0.1210,-41.2313,-17.3250,-7.0875,
7.931098,0.1303,-1.1833,1.4702,0.0741,-0.3526,-0.1210,-41.2313,-17.3250,-7.0875,
7.933830,0.4754,-1.0690,0.2588,0.0741,-0.3526,-0.1210,-41.2313,-17.3250,-7.0875,
7.937850,0.4754,-1.0690,0.2588,0.0741,-0.3526,-0.1210,-41.2313,-17.3250,-7.0875,
7.945043,0.4754,-1.0690,0.2588,0.0741,-0.3526,-0.1210,-41.3250,-17.0250,-6.5625,
7.972448,0.4754,-1.0690,0.2588,0.0741,-0.3526,-0.1210,-41.3250,-17.0250,-6.5625,
7.976937,0.4754,-1.0690,0.2588,0.3790,-0.2365,-0.2359,-41.3250,-17.0250,-6.5625,
7.992952,0.4754,-1.0690,0.2588,0.3790,-0.2365,-0.2359,-41.3250,-17.0250,-6.5625,
7.997261,0.4754,-1.0690,0.2588,0.3790,-0.2365,-0.2359,-41.3250,-17.0250,-6.5625,
8.000035,-0.3073,0.0435,0.6476,0.3790,-0.2365,-0.2359,-41.3250,-17.0250,-6.5625,
8.022700,-0.3073,0.0435,0.6476,0.3790,-0.2365,-0.2359,-41.5125,-16.9500,-6.0375,
8.026909,-0.3073,0.0435,0.6476,0.3790,-0.2365,-0.2359,-41.5125,-16.9500,-6.0375,
8.030943,-0.3073,0.0435,0.6476,0.5471,-0.1302,-0.2224,-41.5125,-16.9500,-6.0375,
8.051287,-0.3073,0.0435,0.6476,0.5471,-0.1302,-0.2224,-41.5125,-16.9500,-6.0375,
8.056040,-0.3073,0.0435,0.6476,0.5471,-0.1302,-0.2224,-41.5125,-16.9500,-6.0375,
8.058864,-0.1593,0.7843,0.2814,0.5471,-0.1302,-0.2224,-41.5125,-16.9500,-6.0375,
8.083840,-0.1593,0.7843,0.2814,0.5471,-0.1302,-0.2224,-41.5125,-16.9688,-5.3813,
8.088501,-0.1593,0.7843,0.2814,0.5471,-0.1302,-0.2224,-41.5125,-16.9688,-5.3813,
8.091593,-0.1593,0.7843,0.2814,0.6625,-0.1167,-0.1579,-41.5125,-16.9688,-5.3813,
8.112472,-0.1593,0.7843,0.2814,0.6625,-0.1167,-0.1579,-41.5125,-16.9688,-5.3813,
8.117014,-0.1593,0.7843,0.2814,0.6625,-0.1167,-0.1579,-41.5125,-16.9688,-5.3813,
8.119611,-0.3564,0.3396,0.3438,0.6625,-0.1167,-0.1579,-41.5125,-16.9688,-5.3813,
8.143058,-0.3564,0.3396,0.3438,0.6625,-0.1167,-0.1579,-41.5312,-17.1562,-4.5563,
8.147049,-0.3564,0.3396,0.3438,0.6625,-0.1167,-0.1579,-41.5312,-17.1562,-4.5563,
8.171333,-0.3564,0.3396,0.3438,0.6625,-0.1167,-0.1579,-41.5312,-17.1562,-4.5563,
8.175238,-0.3564,0.3396,0.3438,0.6625,-0.1167,-0.1579,-41.5312,-17.1562,-4.5563,
8.177935,-0.3564,0.3396,0.3438,0.4764,-0.2397,-0.0856,-41.5312,-17.1562,-4.5563,
8.180583,-0.5168,0.2510,-0.1024,0.4764,-0.2397,-0.0856,-41.5312,-17.1562,-4.5563,
8.192699,-0.5168,0.2510,-0.1024,0.4764,-0.2397,-0.0856,-41.5312,-17.1562,-4.5563,
8.223728,-0.5168,0.2510,-0.1024,0.4764,-0.2397,-0.0856,-41.4938,-17.2125,-3.6188,
8.228867,-0.5168,0.2510,-0.1024,0.4764,-0.2397,-0.0856,-41.4938,-17.2125,-3.6188,
8.231625,-0.5168,0.2510,-0.1024,0.5157,-0.0764,-0.0911,-41.4938,-17.2125,-3.6188,
8.234939,-1.0207,0.8114,-0.4405,0.5157,-0.0764,-0.0911,-41.4938,-17.2125,-3.6188,
8.239194,-1.0207,0.8114,-0.4405,0.5157,-0.0764,-0.0911,-41.4938,-17.2125,-3.6188,
8.259279,-1.0207,0.8114,-0.4405,0.5157,-0.0764,-0.0911,-41.4938,-17.2125,-3.6188,
8.274752,-1.0207,0.8114,-0.4405,0.5157,-0.0764,-0.0911,-41.4938,-17.2125,-3.6188,
8.283589,-1.0207,0.8114,-0.4405,0.5157,-0.0764,-0.0911,-41.3250,-17.6625,-2.8688,
8.293624,-1.0207,0.8114,-0.4405,0.4744,0.0350,0.0134,-41.3250,-17.6625,-2.8688,
8.298258,-1.0207,0.8114,-0.4405,0.4744,0.0350,0.0134,-41.3250,-17.6625,-2.8688,
8.300919,-0.9646,0.9497,-0.2260,0.4744,0.0350,0.0134,-41.3250,-17.6625,-2.8688,
8.326192,-0.9646,0.9497,-0.2260,0.4744,0.0350,0.0134,-41.3250,-17.6625,-2.8688,
8.343392,-0.9646,0.9497,-0.2260,0.4744,0.0350,0.0134,-41.1188,-18.2625,-2.1188,
8.348569,-0.9646,0.9497,-0.2260,0.4744,0.0350,0.0134,-41.1188,-18.2625,-2.1188,
8.351434,-0.9646,0.9497,-0.2260,0.4744,0.0350,0.0134,-41.1188,-18.2625,-2.1188,
8.354125,0.1969,-0.0521,-0.0312,0.4744,0.0350,0.0134,-41.1188,-18.2625,-2.1188,
8.370415,0.1969,-0.0521,-0.0312,0.4630,-0.2147,0.0292,-41.1188,-18.2625,-2.1188,
8.392845,0.1969,-0.0521,-0.0312,0.4630,-0.2147,0.0292,-41.1188,-18.2625,-2.1188,
8.396945,0.1969,-0.0521,-0.0312,0.4630,-0.2147,0.0292,-41.1188,-18.2625,-2.1188,
8.410945,0.1969,-0.0521,-0.0312,0.4630,-0.2147,0.0292,-41.1188,-18.2625,-2.1188,
8.416121,0.0562,-0.2123,-0.2986,0.4630,-0.2147,0.0292,-41.1188,-18.2625,-2.1188,
8.425827,0.0562,-0.2123,-0.2986,0.4630,-0.2147,0.0292,-40.9125,-18.6938,-1.1438,
8.431897,0.0562,-0.2123,-0.2986,0.7891,-0.0507,-0.2049,-40.9125,-18.6938,-1.1438,
8.458782,0.0562,-0.2123,-0.2986,0.7891,-0.0507,-0.2049,-40.9125,-18.6938,-1.1438,
8.461848,0.0562,-0.2123,-0.2986,0.7891,-0.0507,-0.2049,-40.9125,-18.6938,-1.1438,
8.469357,-0.3376,-0.2414,-0.6542,0.7891,-0.0507,-0.2049,-40.9125,-18.6938,-1.1438,
8.472665,-0.3376,-0.2414,-0.6542,0.7891,-0.0507,-0.2049,-40.9125,-18.6938,-1.1438,
8.482583,-0.3376,-0.2414,-0.6542,0.7891,-0.0507,-0.2049,-40.7812,-19.2750,-0.5063,
8.490103,-0.3376,-0.2414,-0.6542,0.9611,0.3260,-0.2322,-40.7812,-19.2750,-0.5063,
8.525698,-0.3376,-0.2414,-0.6542,0.9611,0.3260,-0.2322,-40.7812,-19.2750,-0.5063,
8.528924,-0.3376,-0.2414,-0.6542,0.9611,0.3260,-0.2322,-40.7812,-19.2750,-0.5063,
8.530600,-0.2806,-0.0303,-0.5501,0.9611,0.3260,-0.2322,-40.7812,-19.2750,-0.5063,
8.532862,-0.2806,-0.0303,-0.5501,0.9611,0.3260,-0.2322,-40.7812,-19.2750,-0.5063,
8.542618,-0.2806,-0.0303,-0.5501,0.9611,0.3260,-0.2322,-40.5750,-19.6313,0.2250,
8.571536,-0.2806,-0.0303,-0.5501,0.8724,0.1508,0.0826,-40.5750,-19.6313,0.2250,
8.576210,-0.2806,-0.0303,-0.5501,0.8724,0.1508,0.0826,-40.5750,-19.6313,0.2250,
8.578691,-0.2806,-0.0303,-0.5501,0.8724,0.1508,0.0826,-40.5750,-19.6313,0.2250,
8.590596,-0.7105,-0.2045,-0.9741,0.8724,0.1508,0.0826,-40.5750,-19.6313,0.2250,
8.594740,-0.7105,-0.2045,-0.9741,0.8724,0.1508,0.0826,-40.5750,-19.6313,0.2250,
8.625014,-0.7105,-0.2045,-0.9741,0.8724,0.1508,0.0826,-40.3688,-19.7625,0.9938,
8.628856,-0.7105,-0.2045,-0.9741,0.8724,0.1508,0.0826,-40.3688,-19.7625,0.9938,
8.631053,-0.7105,-0.2045,-0.9741,0.9623,0.1792,0.1077,-40.3688,-19.7625,0.9938,
8.652260,-1.2285,0.2752,-0.7400,0.9623,0.1792,0.1077,-40.3688,-19.7625,0.9938,
8.657821,-1.2285,0.2752,-0.7400,0.9623,0.1792,0.1077,-40.3688,-19.7625,0.9938,
8.661137,-1.2285,0.2752,-0.7400,0.9623,0.1792,0.1077,-40.3688,-19.7625,0.9938,
8.681458,-1.2285,0.2752,-0.7400,0.9623,0.1792,0.1077,-40.3688,-19.7625,0.9938,
8.685172,-1.2285,0.2752,-0.7400,0.9623,0.1792,0.1077,-40.1813,-19.7250,1.6313,
8.688907,-1.2285,0.2752,-0.7400,0.9553,0.4340,0.0518,-40.1813,-19.7250,1.6313,
8.712063,-1.2285,0.2752,-0.7400,0.9553,0.4340,0.0518,-40.1813,-19.7250,1.6313,
8.713688,-1.2285,0.2752,-0.7400,0.9553,0.4340,0.0518,-40.1813,-19.7250,1.6313,
8.714627,0.0285,-0.4544,-0.3734,0.9553,0.4340,0.0518,-40.1813,-19.7250,1.6313,
8.743946,0.0285,-0.4544,-0.3734,0.9553,0.4340,0.0518,-40.2938,-19.8188,2.1188,
8.747979,0.0285,-0.4544,-0.3734,0.9553,0.4340,0.0518,-40.2938,-19.8188,2.1188,
8.773992,0.0285,-0.4544,-0.3734,0.9553,0.4340,0.0518,-40.2938,-19.8188,2.1188,
8.777103,0.0285,-0.4544,-0.3734,0.9553,0.4340,0.0518,-40.2938,-19.8188,2.1188,
8.779039,0.0285,-0.4544,-0.3734,0.7533,0.5807,-0.0197,-40.2938,-19.8188,2.1188,
8.781912,0.1439,-0.6743,-0.6676,0.7533,0.5807,-0.0197,-40.2938,-19.8188,2.1188,
8.793012,0.1439,-0.6743,-0.6676,0.7533,0.5807,-0.0197,-40.2938,-19.8188,2.1188,
8.823115,0.1439,-0.6743,-0.6676,0.7533,0.5807,-0.0197,-40.2375,-19.6688,2.4938,
8.827663,0.1439,-0.6743,-0.6676,0.7533,0.5807,-0.0197,-40.2375,-19.6688,2.4938,
8.832183,0.1439,-0.6743,-0.6676,0.1683,0.1706,0.3008,-40.2375,-19.6688,2.4938,
8.836035,-0.4097,-0.7205,-1.3684,0.1683,0.1706,0.3008,-40.2375,-19.6688,2.4938,
8.839027,-0.4097,-0.7205,-1.3684,0.1683,0.1706,0.3008,-40.2375,-19.6688,2.4938,
8.859067,-0.4097,-0.7205,-1.3684,0.1683,0.1706,0.3008,-40.2375,-19.6688,2.4938,
8.884129,-0.4097,-0.7205,-1.3684,0.1683,0.1706,0.3008,-40.2375,-19.6688,2.4938,
8.889007,-0.4097,-0.7205,-1.3684,0.1683,0.1706,0.3008,-40.3500,-19.3688,2.7563,
8.892749,-0.4097,-0.7205,-1.3684,0.3590,-0.1749,0.3186,-40.3500,-19.3688,2.7563,
8.896601,0.0168,-1.1181,-0.3063,0.3590,-0.1749,0.3186,-40.3500,-19.3688,2.7563,
8.899894,0.0168,-1.1181,-0.3063,0.3590,-0.1749,0.3186,-40.3500,-19.3688,2.7563,
8.925654,0.0168,-1.1181,-0.3063,0.3590,-0.1749,0.3186,-40.3500,-19.3688,2.7563,
8.943741,0.0168,-1.1181,-0.3063,0.3590,-0.1749,0.3186,-40.3500,-19.3688,2.7563,
8.947771,0.0168,-1.1181,-0.3063,0.3590,-0.1749,0.3186,-40.4438,-19.1063,2.9062,
8.950686,-0.1645,-1.9369,-0.1429,0.3590,-0.1749,0.3186,-40.4438,-19.1063,2.9062,
8.953710,-0.1645,-1.9369,-0.1429,0.3590,-0.1749,0.3186,-40.4438,-19.1063,2.9062,
8.971925,-0.1645,-1.9369,-0.1429,0.4135,-0.4828,0.0680,-40.4438,-19.1063,2.9062,
8.993336,-0.1645,-1.9369,-0.1429,0.4135,-0.4828,0.0680,-40.4438,-19.1063,2.9062,
8.997200,-0.1645,-1.9369,-0.1429,0.4135,-0.4828,0.0680,-40.4438,-19.1063,2.9062,
9.010746,-0.1645,-1.9369,-0.1429,0.4135,-0.4828,0.0680,-40.4438,-19.1063,2.9062,
9.014806,0.2954,-1.6393,-1.1976,0.4135,-0.4828,0.0680,-40.4438,-19.1063,2.9062,
9.024317,0.2954,-1.6393,-1.1976,0.4135,-0.4828,0.0680,-40.4813,-18.7875,3.3563,
9.032101,0.2954,-1.6393,-1.1976,-0.2898,-0.9089,-0.2691,-40.4813,-18.7875,3.3563,
9.058088,0.2954,-1.6393,-1.1976,-0.2898,-0.9089,-0.2691,-40.4813,-18.7875,3.3563,
9.062738,0.2954,-1.6393,-1.1976,-0.2898,-0.9089,-0.2691,-40.4813,-18.7875,3.3563,
9.074934,0.2954,-1.6393,-1.1976,-0.2898,-0.9089,-0.2691,-40.4813,-18.7875,3.3563,
9.078668,0.5145,-1.1714,-0.6022,-0.2898,-0.9089,-0.2691,-40.4813,-18.7875,3.3563,
9.083277,0.5145,-1.1714,-0.6022,-0.2898,-0.9089,-0.2691,-40.4625,-18.5063,3.9375,
9.091002,0.5145,-1.1714,-0.6022,-0.3522,-1.1632,-0.2324,-40.4625,-18.5063,3.9375,
9.125841,0.5145,-1.1714,-0.6022,-0.3522,-1.1632,-0.2324,-40.4625,-18.5063,3.9375,
9.129803,0.5145,-1.1714,-0.6022,-0.3522,-1.1632,-0.2324,-40.4625,-18.5063,3.9375,
9.132424,0.7736,-1.5305,-0.1780,-0.3522,-1.1632,-0.2324,-40.4625,-18.5063,3.9375,
9.135935,0.7736,-1.5305,-0.1780,-0.3522,-1.1632,-0.2324,-40.4625,-18.5063,3.9375,
9.143268,0.7736,-1.5305,-0.1780,-0.3522,-1.1632,-0.2324,-40.3500,-18.5063,4.7438,
9.173458,0.7736,-1.5305,-0.1780,-0.3522,-1.1632,-0.2324,-40.3500,-18.5063,4.7438,
9.178003,0.7736,-1.5305,-0.1780,0.1777,-0.8281,-0.1268,-40.3500,-18.5063,4.7438,
9.192748,-1.0293,0.3334,-1.4377,0.1777,-0.8281,-0.1268,-40.3500,-18.5063,4.7438,
9.198940,-1.0293,0.3334,-1.4377,0.1777,-0.8281,-0.1268,-40.3500,-18.5063,4.7438,
9.201848,-1.0293,0.3334,-1.4377,0.1777,-0.8281,-0.1268,-40.3500,-18.5063,4.7438,
9.222990,-1.0293,0.3334,-1.4377,0.1777,-0.8281,-0.1268,-40.2000,-18.6000,5.8125,
9.227259,-1.0293,0.3334,-1.4377,0.1777,-0.8281,-0.1268,-40.2000,-18.6000,5.8125,
9.232045,-1.0293,0.3334,-1.4377,-1.5086,-1.5399,0.1871,-40.2000,-18.6000,5.8125,
9.251917,-0.4196,0.2881,-3.7509,-1.5086,-1.5399,0.1871,-40.2000,-18.6000,5.8125,
9.255393,-0.4196,0.2881,-3.7509,-1.5086,-1.5399,0.1871,-40.2000,-18.6000,5.8125,
9.258246,-0.4196,0.2881,-3.7509,-1.5086,-1.5399,0.1871,-40.2000,-18.6000,5.8125,
9.283669,-0.4196,0.2881,-3.7509,-1.5086,-1.5399,0.1871,-39.7125,-18.8438,6.8250,
9.289139,-0.4196,0.2881,-3.7509,-1.5086,-1.5399,0.1871,-39.7125,-18.8438,6.8250,
9.291966,-0.4196,0.2881,-3.7509,-3.4949,-2.0069,1.6389,-39.7125,-18.8438,6.8250,
9.313297,-2.4181,-0.2461,-5.4441,-3.4949,-2.0069,1.6389,-39.7125,-18.8438,6.8250,
9.318229,-2.4181,-0.2461,-5.4441,-3.4949,-2.0069,1.6389,-39.7125,-18.8438,6.8250,
9.320603,-2.4181,-0.2461,-5.4441,-3.4949,-2.0069,1.6389,-39.7125,-18.8438,6.8250,
9.342445,-2.4181,-0.2461,-5.4441,-3.4949,-2.0069,1.6389,-39.3938,-19.0688,8.0250,
9.345882,-2.4181,-0.2461,-5.4441,-3.4949,-2.0069,1.6389,-39.3938,-19.0688,8.0250,
9.372776,-2.4181,-0.2461,-5.4441,-3.4949,-2.0069,1.6389,-39.3938,-19.0688,8.0250,
9.376135,-2.4181,-0.2461,-5.4441,-3.4949,-2.0069,1.6389,-39.3938,-19.0688,8.0250,
9.378432,-2.4181,-0.2461,-5.4441,-2.7366,-1.7254,1.5551,-39.3938,-19.0688,8.0250,
9.380899,-0.1744,-0.6775,-1.5458,-2.7366,-1.7254,1.5551,-39.3938,-19.0688,8.0250,
9.391949,-0.1744,-0.6775,-1.5458,-2.7366,-1.7254,1.5551,-39.3938,-19.0688,8.0250,
9.423907,-0.1744,-0.6775,-1.5458,-2.7366,-1.7254,1.5551,-39.3938,-19.0688,8.0250,
9.427990,-0.1744,-0.6775,-1.5458,-2.7366,-1.7254,1.5551,-39.0375,-19.2188,9.1313,
9.431967,-0.1744,-0.6775,-1.5458,-4.4792,-3.3009,2.8023,-39.0375,-19.2188,9.1313,
9.436058,-0.1744,-0.6775,-1.5458,-4.4792,-3.3009,2.8023,-39.0375,-19.2188,9.1313,
9.438557,-2.0761,0.3936,-2.5012,-4.4792,-3.3009,2.8023,-39.0375,-19.2188,9.1313,
9.457925,-2.0761,0.3936,-2.5012,-4.4792,-3.3009,2.8023,-39.0375,-19.2188,9.1313,
9.482317,-2.0761,0.3936,-2.5012,-4.4792,-3.3009,2.8023,-38.6438,-19.0688,10.6313,
9.485335,-2.0761,0.3936,-2.5012,-4.4792,-3.3009,2.8023,-38.6438,-19.0688,10.6313,
9.491177,-2.0761,0.3936,-2.5012,-1.0226,-3.1952,2.1403,-38.6438,-19.0688,10.6313,
9.494049,-2.0761,0.3936,-2.5012,-1.0226,-3.1952,2.1403,-38.6438,-19.0688,10.6313,
9.495057,-1.1276,0.2290,2.1997,-1.0226,-3.1952,2.1403,-38.6438,-19.0688,10.6313,
9.525760,-1.1276,0.2290,2.1997,-1.0226,-3.1952,2.1403,-38.6438,-19.0688,10.6313,
9.542865,-1.1276,0.2290,2.1997,-1.0226,-3.1952,2.1403,-38.3063,-18.2625,12.5625,
9.546137,-1.1276,0.2290,2.1997,-1.0226,-3.1952,2.1403,-38.3063,-18.2625,12.5625,
9.550215,-1.1276,0.2290,2.1997,-1.0226,-3.1952,2.1403,-38.3063,-18.2625,12.5625,
9.551765,-3.8531,0.7970,0.1004,-1.0226,-3.1952,2.1403,-38.3063,-18.2625,12.5625,
9.572229,-3.8531,0.7970,0.1004,0.2283,-0.5833,1.6536,-38.3063,-18.2625,12.5625,
9.594224,-3.8531,0.7970,0.1004,0.2283,-0.5833,1.6536,-38.3063,-18.2625,12.5625,
9.598031,-3.8531,0.7970,0.1004,0.2283,-0.5833,1.6536,-38.3063,-18.2625,12.5625,
9.611890,-3.8531,0.7970,0.1004,0.2283,-0.5833,1.6536,-38.3063,-18.2625,12.5625,
9.616099,2.8274,1.5800,0.0071,0.2283,-0.5833,1.6536,-38.3063,-18.2625,12.5625,
9.624560,2.8274,1.5800,0.0071,0.2283,-0.5833,1.6536,-38.2875,-17.1938,14.0250,
9.633444,2.8274,1.5800,0.0071,-1.4947,2.7438,0.0442,-38.2875,-17.1938,14.0250,
9.658857,2.8274,1.5800,0.0071,-1.4947,2.7438,0.0442,-38.2875,-17.1938,14.0250,
9.662613,2.8274,1.5800,0.0071,-1.4947,2.7438,0.0442,-38.2875,-17.1938,14.0250,
9.674005,1.6452,1.9892,-6.7248,-1.4947,2.7438,0.0442,-38.2875,-17.1938,14.0250,
9.677997,1.6452,1.9892,-6.7248,-1.4947,2.7438,0.0442,-38.2875,-17.1938,14.0250,
9.683353,1.6452,1.9892,-6.7248,-1.4947,2.7438,0.0442,-38.8500,-16.2750,14.1375,
9.693114,1.6452,1.9892,-6.7248,-2.4777,2.0366,0.0208,-38.8500,-16.2750,14.1375,
9.697045,1.6452,1.9892,-6.7248,-2.4777,2.0366,0.0208,-38.8500,-16.2750,14.1375,
9.726239,1.6452,1.9892,-6.7248,-2.4777,2.0366,0.0208,-38.8500,-16.2750,14.1375,
9.732860,-0.1520,0.1345,7.1284,-2.4777,2.0366,0.0208,-38.8500,-16.2750,14.1375,
9.736739,-0.1520,0.1345,7.1284,-2.4777,2.0366,0.0208,-38.8500,-16.2750,14.1375,
9.743374,-0.1520,0.1345,7.1284,-2.4777,2.0366,0.0208,-39.3750,-15.5250,13.3125,
9.774355,-0.1520,0.1345,7.1284,-2.4777,2.0366,0.0208,-39.3750,-15.5250,13.3125,
9.779189,-0.1520,0.1345,7.1284,1.2532,0.8462,-0.2934,-39.3750,-15.5250,13.3125,
9.792668,-0.1520,0.1345,7.1284,1.2532,0.8462,-0.2934,-39.3750,-15.5250,13.3125,
9.797123,-0.1520,0.1345,7.1284,1.2532,0.8462,-0.2934,-39.3750,-15.5250,13.3125,
9.799654,-0.7427,-1.0684,2.6248,1.2532,0.8462,-0.2934,-39.3750,-15.5250,13.3125,
9.823735,-0.7427,-1.0684,2.6248,1.2532,0.8462,-0.2934,-39.3750,-15.5250,13.3125,
9.826714,-0.7427,-1.0684,2.6248,1.2532,0.8462,-0.2934,-40.1438,-14.4750,12.2438,
9.832605,-0.7427,-1.0684,2.6248,0.2484,1.3579,0.4062,-40.1438,-14.4750,12.2438,
9.852532,-0.6678,0.7263,-3.6543,0.2484,1.3579,0.4062,-40.1438,-14.4750,12.2438,
9.856406,-0.6678,0.7263,-3.6543,0.2484,1.3579,0.4062,-40.1438,-14.4750,12.2438,
9.858306,-0.6678,0.7263,-3.6543,0.2484,1.3579,0.4062,-40.1438,-14.4750,12.2438,
9.874938,-0.6678,0.7263,-3.6543,0.2484,1.3579,0.4062,-40.1438,-14.4750,12.2438,
9.892067,-0.6678,0.7263,-3.6543,0.1167,-0.3150,-0.5401,-40.1438,-14.4750,12.2438,
9.914801,-0.6678,0.7263,-3.6543,0.1167,-0.3150,-0.5401,-40.1438,-14.4750,12.2438,
9.919163,-0.6678,0.7263,-3.6543,0.1167,-0.3150,-0.5401,-40.1438,-14.4750,12.2438,
9.921219,1.0465,-0.0287,0.5538,0.1167,-0.3150,-0.5401,-40.1438,-14.4750,12.2438,
9.925675,1.0465,-0.0287,0.5538,0.1167,-0.3150,-0.5401,-38.1562,-20.7563,14.4563,
9.973846,1.0465,-0.0287,0.5538,-0.2572,0.8681,0.0349,-38.1562,-20.7563,14.4563,
9.980025,-0.8144,0.4055,-0.0742,-0.2572,0.8681,0.0349,-38.1562,-20.7563,14.4563,
9.983674,-0.8144,0.4055,-0.0742,-0.2572,0.8681,0.0349,-38.1562,-20.7563,14.4563,
9.988574,-0.8144,0.4055,-0.0742,-0.2572,0.8681,0.0349,-38.1562,-20.7563,14.4563,
9.991733,-0.8144,0.4055,-0.0742,-0.2572,0.8681,0.0349,-38.1562,-20.7563,14.4563,
9.994825,-0.8144,0.4055,-0.0742,-0.2572,0.8681,0.0349,-38.7188,-20.0250,12.7313,
9.997897,-0.8144,0.4055,-0.0742,-0.2572,0.8681,0.0349,-38.7188,-20.0250,12.7313,
10.033905,-0.8144,0.4055,-0.0742,-0.2572,0.8681,0.0349,-38.7188,-20.0250,12.7313,
10.039649,-0.8144,0.4055,-0.0742,-0.2572,0.8681,0.0349,-38.7188,-20.0250,12.7313,
10.042246,-0.8144,0.4055,-0.0742,-1.4305,1.8695,0.6939,-38.7188,-20.0250,12.7313,
10.047169,-1.0517,1.4476,-1.9265,-1.4305,1.8695,0.6939,-38.7188,-20.0250,12.7313,
10.058255,-1.0517,1.4476,-1.9265,-1.4305,1.8695,0.6939,-38.7188,-20.0250,12.7313,
10.063073,-1.0517,1.4476,-1.9265,-1.4305,1.8695,0.6939,-39.4500,-19.4438,9.7313,
10.090642,-0.0181,0.3716,0.9159,-1.4305,1.8695,0.6939,-39.4500,-19.4438,9.7313,
10.094288,-0.0181,0.3716,0.9159,-1.4305,1.8695,0.6939,-39.4500,-19.4438,9.7313,
10.096170,-0.0181,0.3716,0.9159,-1.4305,1.8695,0.6939,-39.4500,-19.4438,9.7313,
10.098106,-0.0181,0.3716,0.9159,-0.9073,1.0100,0.4704,-39.4500,-19.4438,9.7313,
10.124919,-0.0181,0.3716,0.9159,-0.9073,1.0100,0.4704,-39.4500,-19.4438,9.7313,
10.129324,-0.0181,0.3716,0.9159,-0.9073,1.0100,0.4704,-39.8250,-18.9000,6.0188,
10.152011,-0.0181,0.3716,0.9159,-0.9073,1.0100,0.4704,-39.8250,-18.9000,6.0188,
10.156662,-0.0181,0.3716,0.9159,-0.9073,1.0100,0.4704,-39.8250,-18.9000,6.0188,
10.159681,0.9659,0.2197,1.3325,-0.9073,1.0100,0.4704,-39.8250,-18.9000,6.0188,
10.177414,0.9659,0.2197,1.3325,-0.0333,0.7086,0.0179,-39.8250,-18.9000,6.0188,
10.186674,0.9659,0.2197,1.3325,-0.0333,0.7086,0.0179,-39.8250,-18.9000,6.0188,
10.189969,0.9659,0.2197,1.3325,-0.0333,0.7086,0.0179,-40.3875,-18.8063,2.1375,
10.197979,0.9659,0.2197,1.3325,-0.0333,0.7086,0.0179,-40.3875,-18.8063,2.1375,
10.213305,-0.0020,-0.1957,1.6394,-0.0333,0.7086,0.0179,-40.3875,-18.8063,2.1375,
10.217706,-0.0020,-0.1957,1.6394,-0.0333,0.7086,0.0179,-40.3875,-18.8063,2.1375,
10.233222,-0.0020,-0.1957,1.6394,0.0111,-0.3548,0.5597,-40.3875,-18.8063,2.1375,
10.259319,-0.0020,-0.1957,1.6394,0.0111,-0.3548,0.5597,-40.3875,-18.8063,2.1375,
10.261950,-0.0020,-0.1957,1.6394,0.0111,-0.3548,0.5597,-40.3875,-18.8063,2.1375,
10.263517,-0.0020,-0.1957,1.6394,0.0111,-0.3548,0.5597,-40.6125,-18.3563,-0.7500,
10.273312,-0.0020,-0.1957,1.6394,0.0111,-0.3548,0.5597,-40.6125,-18.3563,-0.7500,
10.276137,-2.4536,0.4695,-1.0544,0.0111,-0.3548,0.5597,-40.6125,-18.3563,-0.7500,
10.291161,-2.4536,0.4695,-1.0544,-0.0393,-0.5512,1.1391,-40.6125,-18.3563,-0.7500,
10.322989,-2.4536,0.4695,-1.0544,-0.0393,-0.5512,1.1391,-40.8938,-17.2500,-2.7563,
10.326610,-2.4536,0.4695,-1.0544,-0.0393,-0.5512,1.1391,-40.8938,-17.2500,-2.7563,
10.328005,-2.4536,0.4695,-1.0544,-0.0393,-0.5512,1.1391,-40.8938,-17.2500,-2.7563,
10.330919,-0.6863,-1.0094,1.7366,-0.0393,-0.5512,1.1391,-40.8938,-17.2500,-2.7563,
10.332895,-0.6863,-1.0094,1.7366,-0.0393,-0.5512,1.1391,-40.8938,-17.2500,-2.7563,
10.373028,-0.6863,-1.0094,1.7366,0.5886,-0.9243,0.2511,-40.8938,-17.2500,-2.7563,
10.378139,-0.6863,-1.0094,1.7366,0.5886,-0.9243,0.2511,-40.8938,-17.2500,-2.7563,
10.386106,-0.6863,-1.0094,1.7366,0.5886,-0.9243,0.2511,-40.8938,-17.2500,-2.7563,
10.389573,-0.6863,-1.0094,1.7366,0.5886,-0.9243,0.2511,-41.1562,-16.2563,-4.1250,
10.393669,1.5735,-0.4323,-1.1770,0.5886,-0.9243,0.2511,-41.1562,-16.2563,-4.1250,
10.397324,1.5735,-0.4323,-1.1770,0.5886,-0.9243,0.2511,-41.1562,-16.2563,-4.1250,
10.434516,1.5735,-0.4323,-1.1770,0.5886,-0.9243,0.2511,-41.1562,-16.2563,-4.1250,
10.439036,1.5735,-0.4323,-1.1770,0.3627,-0.0710,0.5353,-41.1562,-16.2563,-4.1250,
10.454958,0.5655,-0.8784,-0.1436,0.3627,-0.0710,0.5353,-41.1562,-16.2563,-4.1250,
10.459832,0.5655,-0.8784,-0.1436,0.3627,-0.0710,0.5353,-41.1562,-16.2563,-4.1250,
10.462467,0.5655,-0.8784,-0.1436,0.3627,-0.0710,0.5353,-41.1562,-16.2563,-4.1250,
10.464882,0.5655,-0.8784,-0.1436,0.3627,-0.0710,0.5353,-41.3625,-15.0188,-6.6938,
10.491851,0.5655,-0.8784,-0.1436,0.3839,-0.0198,0.1991,-41.3625,-15.0188,-6.6938,
10.499829,0.5655,-0.8784,-0.1436,0.3839,-0.0198,0.1991,-41.3625,-15.0188,-6.6938,
10.513495,0.5655,-0.8784,-0.1436,0.3839,-0.0198,0.1991,-41.3625,-15.0188,-6.6938,
10.517414,0.5655,-0.8784,-0.1436,0.3839,-0.0198,0.1991,-41.3625,-15.0188,-6.6938,
10.519488,0.6942,-0.3024,0.0756,0.3839,-0.0198,0.1991,-41.3625,-15.0188,-6.6938,
10.528375,0.6942,-0.3024,0.0756,0.3839,-0.0198,0.1991,-41.6813,-13.7438,-7.3125,
10.574159,0.6942,-0.3024,0.0756,0.3839,-0.0198,0.1991,-41.6813,-13.7438,-7.3125,
10.579084,0.6942,-0.3024,0.0756,0.3839,-0.0198,0.1991,-41.6813,-13.7438,-7.3125,
10.581530,0.6942,-0.3024,0.0756,0.3839,-0.0198,0.1991,-41.6813,-13.7438,-7.3125,
10.583764,0.6942,-0.3024,0.0756,-0.5145,0.6035,0.3880,-41.6813,-13.7438,-7.3125,
10.587205,0.1539,0.5113,-1.1470,-0.5145,0.6035,0.3880,-41.6813,-13.7438,-7.3125,
10.590237,0.1539,0.5113,-1.1470,-0.5145,0.6035,0.3880,-41.9062,-12.5063,-7.4813,
10.597291,0.1539,0.5113,-1.1470,-0.5145,0.6035,0.3880,-41.9062,-12.5063,-7.4813,
10.634938,0.1539,0.5113,-1.1470,-0.5145,0.6035,0.3880,-41.9062,-12.5063,-7.4813,
10.639449,0.1539,0.5113,-1.1470,-0.5145,0.6035,0.3880,-41.9062,-12.5063,-7.4813,
10.642114,-0.6406,0.6376,0.3514,-0.5145,0.6035,0.3880,-41.9062,-12.5063,-7.4813,
10.645378,-0.6406,0.6376,0.3514,-0.3075,-0.2414,0.0717,-41.9062,-12.5063,-7.4813,
10.660142,-0.6406,0.6376,0.3514,-0.3075,-0.2414,0.0717,-41.9062,-12.5063,-7.4813,
10.663807,-0.6406,0.6376,0.3514,-0.3075,-0.2414,0.0717,-42.1125,-11.4000,-7.0125,
10.691307,-0.6406,0.6376,0.3514,0.3194,-0.4130,-0.1614,-42.1125,-11.4000,-7.0125,
10.694532,0.2282,-0.0138,1.7757,0.3194,-0.4130,-0.1614,-42.1125,-11.4000,-7.0125,
10.696920,0.2282,-0.0138,1.7757,0.3194,-0.4130,-0.1614,-42.1125,-11.4000,-7.0125,
10.698435,0.2282,-0.0138,1.7757,0.3194,-0.4130,-0.1614,-42.1125,-11.4000,-7.0125,
10.724256,0.2282,-0.0138,1.7757,0.3194,-0.4130,-0.1614,-42.1125,-11.4000,-7.0125,
10.727565,0.2282,-0.0138,1.7757,0.3194,-0.4130,-0.1614,-41.7188,-10.2563,-6.3375,
10.752538,0.2282,-0.0138,1.7757,0.3194,-0.4130,-0.1614,-41.7188,-10.2563,-6.3375,
10.756547,0.2282,-0.0138,1.7757,0.3194,-0.4130,-0.1614,-41.7188,-10.2563,-6.3375,
10.759564,-0.6632,0.2079,0.5307,0.3194,-0.4130,-0.1614,-41.7188,-10.2563,-6.3375,
10.776072,-0.6632,0.2079,0.5307,0.3207,0.4812,0.2451,-41.7188,-10.2563,-6.3375,
10.785596,-0.6632,0.2079,0.5307,0.3207,0.4812,0.2451,-41.7188,-10.2563,-6.3375,
10.788402,-0.6632,0.2079,0.5307,0.3207,0.4812,0.2451,-41.8875,-9.3750,-5.7563,
10.795377,-0.6632,0.2079,0.5307,0.3207,0.4812,0.2451,-41.8875,-9.3750,-5.7563,
10.811273,0.9952,0.1985,0.5587,0.3207,0.4812,0.2451,-41.8875,-9.3750,-5.7563,
10.815301,0.9952,0.1985,0.5587,0.3207,0.4812,0.2451,-41.8875,-9.3750,-5.7563,
10.833397,0.9952,0.1985,0.5587,0.2688,-0.2076,-0.4083,-41.8875,-9.3750,-5.7563,
10.860308,0.9952,0.1985,0.5587,0.2688,-0.2076,-0.4083,-41.8875,-9.3750,-5.7563,
10.863960,0.9952,0.1985,0.5587,0.2688,-0.2076,-0.4083,-41.8875,-9.3750,-5.7563,
10.866251,0.9952,0.1985,0.5587,0.2688,-0.2076,-0.4083,-42.0188,-9.0750,-5.3813,
10.874766,0.9952,0.1985,0.5587,0.2688,-0.2076,-0.4083,-42.0188,-9.0750,-5.3813,
10.878274,0.0272,0.0390,0.6284,0.2688,-0.2076,-0.4083,-42.0188,-9.0750,-5.3813,
10.891081,0.0272,0.0390,0.6284,0.3627,0.0431,-0.4275,-42.0188,-9.0750,-5.3813,
10.923457,0.0272,0.0390,0.6284,0.3627,0.0431,-0.4275,-42.0188,-9.0750,-5.3813,
10.927500,0.0272,0.0390,0.6284,0.3627,0.0431,-0.4275,-42.0188,-9.0750,-5.3813,
10.929670,0.0272,0.0390,0.6284,0.3627,0.0431,-0.4275,-41.9813,-8.9438,-5.3063,
10.932549,0.5034,-0.0708,-0.6301,0.3627,0.0431,-0.4275,-41.9813,-8.9438,-5.3063,
10.935185,0.5034,-0.0708,-0.6301,0.3627,0.0431,-0.4275,-41.9813,-8.9438,-5.3063,
10.975183,0.5034,-0.0708,-0.6301,0.2391,-0.1229,-0.6405,-41.9813,-8.9438,-5.3063,
10.981067,0.5034,-0.0708,-0.6301,0.2391,-0.1229,-0.6405,-41.9813,-8.9438,-5.3063,
10.984828,0.5034,-0.0708,-0.6301,0.2391,-0.1229,-0.6405,-41.9062,-9.0750,-5.1938,
10.988967,0.5034,-0.0708,-0.6301,0.2391,-0.1229,-0.6405,-41.9062,-9.0750,-5.1938,
10.995994,0.2934,-0.0557,-0.0072,0.2391,-0.1229,-0.6405,-41.9062,-9.0750,-5.1938,
11.000744,0.2934,-0.0557,-0.0072,0.2391,-0.1229,-0.6405,-41.9062,-9.0750,-5.1938,
11.033771,0.2934,-0.0557,-0.0072,0.3775,-0.5718,-0.9459,-41.9062,-9.0750,-5.1938,
11.038054,0.2934,-0.0557,-0.0072,0.3775,-0.5718,-0.9459,-41.9062,-9.0750,-5.1938,
11.054028,0.2934,-0.0557,-0.0072,0.3775,-0.5718,-0.9459,-41.9062,-9.0750,-5.1938,
11.058664,0.2934,-0.0557,-0.0072,0.3775,-0.5718,-0.9459,-41.9062,-9.0750,-5.1938,
11.061547,0.0957,0.0227,-0.2286,0.3775,-0.5718,-0.9459,-41.9062,-9.0750,-5.1938,
11.064925,0.0957,0.0227,-0.2286,0.3775,-0.5718,-0.9459,-41.8313,-9.7125,-5.0250,
11.091835,0.0957,0.0227,-0.2286,0.0436,0.3076,-0.7923,-41.8313,-9.7125,-5.0250,
11.094700,0.0957,0.0227,-0.2286,0.0436,0.3076,-0.7923,-41.8313,-9.7125,-5.0250,
11.112799,0.0957,0.0227,-0.2286,0.0436,0.3076,-0.7923,-41.8313,-9.7125,-5.0250,
11.115312,0.0957,0.0227,-0.2286,0.0436,0.3076,-0.7923,-41.8313,-9.7125,-5.0250,
11.116346,0.2568,0.3090,-0.8238,0.0436,0.3076,-0.7923,-41.8313,-9.7125,-5.0250,
11.122521,0.2568,0.3090,-0.8238,0.0436,0.3076,-0.7923,-41.5688,-10.7250,-4.4625,
11.175222,0.2568,0.3090,-0.8238,0.0436,0.3076,-0.7923,-41.5688,-10.7250,-4.4625,
11.179507,0.7039,-0.2831,0.5061,0.0436,0.3076,-0.7923,-41.5688,-10.7250,-4.4625,
11.182623,0.7039,-0.2831,0.5061,0.0436,0.3076,-0.7923,-41.5688,-10.7250,-4.4625,
11.185094,0.7039,-0.2831,0.5061,0.0436,0.3076,-0.7923,-41.5688,-10.7250,-4.4625,
11.188157,0.7039,-0.2831,0.5061,0.2421,0.2786,-0.8047,-41.5688,-10.7250,-4.4625,
11.191306,0.7039,-0.2831,0.5061,0.2421,0.2786,-0.8047,-41.2688,-12.1688,-4.2938,
11.194457,0.7039,-0.2831,0.5061,0.2421,0.2786,-0.8047,-41.2688,-12.1688,-4.2938,
11.236485,0.7039,-0.2831,0.5061,0.2421,0.2786,-0.8047,-41.2688,-12.1688,-4.2938,
11.241859,0.7039,-0.2831,0.5061,0.2421,0.2786,-0.8047,-41.2688,-12.1688,-4.2938,
11.244732,0.7039,-0.2831,0.5061,0.1980,-0.0321,-0.1179,-41.2688,-12.1688,-4.2938,
11.248740,-1.1329,-0.1817,-0.7146,0.1980,-0.0321,-0.1179,-41.2688,-12.1688,-4.2938,
11.259256,-1.1329,-0.1817,-0.7146,0.1980,-0.0321,-0.1179,-41.2688,-12.1688,-4.2938,
11.263822,-1.1329,-0.1817,-0.7146,0.1980,-0.0321,-0.1179,-41.0063,-13.5000,-3.9000,
11.293572,-1.1329,-0.1817,-0.7146,0.8034,-0.3082,-0.0573,-41.0063,-13.5000,-3.9000,
11.297525,-0.3432,-0.6050,0.2463,0.8034,-0.3082,-0.0573,-41.0063,-13.5000,-3.9000,
11.299664,-0.3432,-0.6050,0.2463,0.8034,-0.3082,-0.0573,-41.0063,-13.5000,-3.9000,
11.301270,-0.3432,-0.6050,0.2463,0.8034,-0.3082,-0.0573,-41.0063,-13.5000,-3.9000,
11.323583,-0.3432,-0.6050,0.2463,0.8034,-0.3082,-0.0573,-41.0063,-13.5000,-3.9000,
11.327269,-0.3432,-0.6050,0.2463,0.8034,-0.3082,-0.0573,-40.6688,-15.0000,-3.3938,
11.334215,-0.3432,-0.6050,0.2463,0.8034,-0.3082,-0.0573,-40.6688,-15.0000,-3.3938,
11.352981,-0.3432,-0.6050,0.2463,0.8034,-0.3082,-0.0573,-40.6688,-15.0000,-3.3938,
11.356456,-0.3940,-0.3752,-0.9870,0.8034,-0.3082,-0.0573,-40.6688,-15.0000,-3.3938,
11.377352,-0.3940,-0.3752,-0.9870,0.1090,-0.3134,0.0856,-40.6688,-15.0000,-3.3938,
11.386435,-0.3940,-0.3752,-0.9870,0.1090,-0.3134,0.0856,-40.6688,-15.0000,-3.3938,
11.390104,-0.3940,-0.3752,-0.9870,0.1090,-0.3134,0.0856,-40.3500,-16.2750,-2.8500,
11.393646,-0.3940,-0.3752,-0.9870,0.1090,-0.3134,0.0856,-40.3500,-16.2750,-2.8500,
11.413334,-0.3940,-0.3752,-0.9870,0.1090,-0.3134,0.0856,-40.3500,-16.2750,-2.8500,
11.415981,-0.9975,0.2029,-1.4894,0.1090,-0.3134,0.0856,-40.3500,-16.2750,-2.8500,
11.435153,-0.9975,0.2029,-1.4894,-0.1787,-0.2079,0.1666,-40.3500,-16.2750,-2.8500,
11.461002,-0.9975,0.2029,-1.4894,-0.1787,-0.2079,0.1666,-40.3500,-16.2750,-2.8500,
11.465392,-0.9975,0.2029,-1.4894,-0.1787,-0.2079,0.1666,-40.3500,-16.2750,-2.8500,
11.468984,-0.9975,0.2029,-1.4894,-0.1787,-0.2079,0.1666,-40.2750,-17.4188,-2.3063,
11.477935,0.0649,0.1123,0.1507,-0.1787,-0.2079,0.1666,-40.2750,-17.4188,-2.3063,
11.482491,0.0649,0.1123,0.1507,-0.1787,-0.2079,0.1666,-40.2750,-17.4188,-2.3063,
11.493135,0.0649,0.1123,0.1507,-0.0610,-0.1190,-0.0662,-40.2750,-17.4188,-2.3063,
11.523638,0.0649,0.1123,0.1507,-0.0610,-0.1190,-0.0662,-40.2750,-17.4188,-2.3063,
11.526342,0.0649,0.1123,0.1507,-0.0610,-0.1190,-0.0662,-40.2750,-17.4188,-2.3063,
11.528546,0.0649,0.1123,0.1507,-0.0610,-0.1190,-0.0662,-40.0312,-18.3750,-1.7813,
11.532482,0.0258,-0.1959,0.2529,-0.0610,-0.1190,-0.0662,-40.0312,-18.3750,-1.7813,
11.535118,0.0258,-0.1959,0.2529,-0.0610,-0.1190,-0.0662,-40.0312,-18.3750,-1.7813,
11.575023,0.0258,-0.1959,0.2529,0.1885,-0.2023,0.0308,-40.0312,-18.3750,-1.7813,
11.580845,0.0258,-0.1959,0.2529,0.1885,-0.2023,0.0308,-40.0312,-18.3750,-1.7813,
11.586692,0.0258,-0.1959,0.2529,0.1885,-0.2023,0.0308,-40.0312,-18.3750,-1.7813,
11.589723,0.0258,-0.1959,0.2529,0.1885,-0.2023,0.0308,-39.8438,-18.9563,-1.1438,
11.598093,0.0258,-0.1959,0.2529,0.1885,-0.2023,0.0308,-39.8438,-18.9563,-1.1438,
11.600826,-0.1714,0.0547,0.3275,0.1885,-0.2023,0.0308,-39.8438,-18.9563,-1.1438,
11.634197,-0.1714,0.0547,0.3275,0.1885,-0.2023,0.0308,-39.8438,-18.9563,-1.1438,
11.639918,-0.1714,0.0547,0.3275,-0.1361,-0.0974,-0.0450,-39.8438,-18.9563,-1.1438,
11.655037,-0.1714,0.0547,0.3275,-0.1361,-0.0974,-0.0450,-39.8438,-18.9563,-1.1438,
11.659178,-0.1714,0.0547,0.3275,-0.1361,-0.0974,-0.0450,-39.8438,-18.9563,-1.1438,
11.661012,-0.1500,0.2036,-0.3525,-0.1361,-0.0974,-0.0450,-39.8438,-18.9563,-1.1438,
11.663949,-0.1500,0.2036,-0.3525,-0.1361,-0.0974,-0.0450,-40.0875,-19.6313,-0.6938,
11.693548,-0.1500,0.2036,-0.3525,-0.1361,-0.0974,-0.0450,-40.0875,-19.6313,-0.6938,
11.695938,-0.1500,0.2036,-0.3525,-0.2747,0.1791,-0.0340,-40.0875,-19.6313,-0.6938,
11.716662,-0.1500,0.2036,-0.3525,-0.2747,0.1791,-0.0340,-40.0875,-19.6313,-0.6938,
11.719544,-0.1500,0.2036,-0.3525,-0.2747,0.1791,-0.0340,-40.0875,-19.6313,-0.6938,
11.721552,0.2152,0.3085,-0.4618,-0.2747,0.1791,-0.0340,-40.0875,-19.6313,-0.6938,
11.724482,0.2152,0.3085,-0.4618,-0.2747,0.1791,-0.0340,-40.1063,-19.6125,-0.2625,
11.776929,0.2152,0.3085,-0.4618,-0.2747,0.1791,-0.0340,-40.1063,-19.6125,-0.2625,
11.781034,0.2152,0.3085,-0.4618,-0.2747,0.1791,-0.0340,-40.1063,-19.6125,-0.2625,
11.783870,0.2152,0.3085,-0.4618,-0.2747,0.1791,-0.0340,-40.1063,-19.6125,-0.2625,
11.786541,0.2152,0.3085,-0.4618,-0.3057,-0.0308,0.0256,-40.1063,-19.6125,-0.2625,
11.790008,-0.3091,0.2991,-0.0772,-0.3057,-0.0308,0.0256,-40.1063,-19.6125,-0.2625,
11.793645,-0.3091,0.2991,-0.0772,-0.3057,-0.0308,0.0256,-40.0312,-19.5938,-0.0563,
11.797094,-0.3091,0.2991,-0.0772,-0.3057,-0.0308,0.0256,-40.0312,-19.5938,-0.0563,
11.833894,-0.2762,0.5564,-0.6563,-0.3057,-0.0308,0.0256,-40.0312,-19.5938,-0.0563,
11.839927,-0.2762,0.5564,-0.6563,-0.3057,-0.0308,0.0256,-40.0312,-19.5938,-0.0563,
11.842884,-0.2762,0.5564,-0.6563,-0.3057,-0.0308,0.0256,-40.0312,-19.5938,-0.0563,
11.845829,-0.2762,0.5564,-0.6563,-0.6322,0.0534,0.0826,-40.0312,-19.5938,-0.0563,
11.861002,-0.2762,0.5564,-0.6563,-0.6322,0.0534,0.0826,-40.0312,-19.5938,-0.0563,
11.863930,-0.2762,0.5564,-0.6563,-0.6322,0.0534,0.0826,-39.9938,-19.5563,-0.0938,
11.893797,-0.2762,0.5564,-0.6563,-0.6322,0.0534,0.0826,-39.9938,-19.5563,-0.0938,
11.898448,-0.2762,0.5564,-0.6563,-0.6322,0.0534,0.0826,-39.9938,-19.5563,-0.0938,
11.900914,-0.2762,0.5564,-0.6563,-0.9087,0.5056,0.1047,-39.9938,-19.5563,-0.0938,
11.904281,-0.0764,0.6121,-0.4177,-0.9087,0.5056,0.1047,-39.9938,-19.5563,-0.0938,
11.924288,-0.0764,0.6121,-0.4177,-0.9087,0.5056,0.1047,-39.9938,-19.3500,-0.3750,
11.931050,-0.0764,0.6121,-0.4177,-0.9087,0.5056,0.1047,-39.9938,-19.3500,-0.3750,
11.954885,-0.0764,0.6121,-0.4177,-0.9087,0.5056,0.1047,-39.9938,-19.3500,-0.3750,
11.959889,-0.0764,0.6121,-0.4177,-0.9087,0.5056,0.1047,-39.9938,-19.3500,-0.3750,
11.962616,-0.3063,0.6965,-1.1092,-0.9087,0.5056,0.1047,-39.9938,-19.3500,-0.3750,
11.976471,-0.3063,0.6965,-1.1092,-1.3494,1.2709,0.6708,-39.9938,-19.3500,-0.3750,
11.985184,-0.3063,0.6965,-1.1092,-1.3494,1.2709,0.6708,-39.9938,-19.3500,-0.3750,
11.988037,-0.3063,0.6965,-1.1092,-1.3494,1.2709,0.6708,-39.9000,-19.0875,-1.3500,
11.994546,-0.3063,0.6965,-1.1092,-1.3494,1.2709,0.6708,-39.9000,-19.0875,-1.3500,
12.013208,-0.3063,0.6965,-1.1092,-1.3494,1.2709,0.6708,-39.9000,-19.0875,-1.3500,
12.016221,0.3567,0.3159,-0.1112,-1.3494,1.2709,0.6708,-39.9000,-19.0875,-1.3500,
12.033844,0.3567,0.3159,-0.1112,-0.5620,-0.0368,-0.7713,-39.9000,-19.0875,-1.3500,
12.058135,0.3567,0.3159,-0.1112,-0.5620,-0.0368,-0.7713,-39.9000,-19.0875,-1.3500,
12.061635,0.3567,0.3159,-0.1112,-0.5620,-0.0368,-0.7713,-39.9000,-19.0875,-1.3500,
12.063875,0.3567,0.3159,-0.1112,-0.5620,-0.0368,-0.7713,-39.8250,-19.1063,-2.3813,
12.076871,0.3567,0.3159,-0.1112,-0.5620,-0.0368,-0.7713,-39.8250,-19.1063,-2.3813,
12.080125,0.7308,-0.0441,1.8212,-0.5620,-0.0368,-0.7713,-39.8250,-19.1063,-2.3813,
12.093267,0.7308,-0.0441,1.8212,0.4003,-0.4754,-0.1650,-39.8250,-19.1063,-2.3813,
12.124460,0.7308,-0.0441,1.8212,0.4003,-0.4754,-0.1650,-39.8250,-19.1063,-2.3813,
12.128092,0.7308,-0.0441,1.8212,0.4003,-0.4754,-0.1650,-39.8250,-19.1063,-2.3813,
12.129797,0.7308,-0.0441,1.8212,0.4003,-0.4754,-0.1650,-39.8063,-19.1438,-3.5438,
12.132717,-0.8711,0.3696,0.9107,0.4003,-0.4754,-0.1650,-39.8063,-19.1438,-3.5438,
12.135131,-0.8711,0.3696,0.9107,0.4003,-0.4754,-0.1650,-39.8063,-19.1438,-3.5438,
12.176730,-0.8711,0.3696,0.9107,0.4003,-0.4754,-0.1650,-39.8063,-19.1438,-3.5438,
12.180694,-0.8711,0.3696,0.9107,-0.0020,-0.2466,0.0036,-39.8063,-19.1438,-3.5438,
12.186280,-0.8711,0.3696,0.9107,-0.0020,-0.2466,0.0036,-39.8063,-19.1438,-3.5438,
12.189086,-0.8711,0.3696,0.9107,-0.0020,-0.2466,0.0036,-39.7875,-19.2000,-4.3688,
12.197905,-0.8711,0.3696,0.9107,-0.0020,-0.2466,0.0036,-39.7875,-19.2000,-4.3688,
12.200295,-0.3390,0.1551,-0.0712,-0.0020,-0.2466,0.0036,-39.7875,-19.2000,-4.3688,
12.237716,-0.3390,0.1551,-0.0712,-0.0020,-0.2466,0.0036,-39.7875,-19.2000,-4.3688,
12.242891,-0.3390,0.1551,-0.0712,0.0030,-0.4646,0.2489,-39.7875,-19.2000,-4.3688,
12.246769,-0.3390,0.1551,-0.0712,0.0030,-0.4646,0.2489,-39.7875,-19.2000,-4.3688,
12.258426,-1.0437,0.3405,-0.1257,0.0030,-0.4646,0.2489,-39.7875,-19.2000,-4.3688,
12.263633,-1.0437,0.3405,-0.1257,0.0030,-0.4646,0.2489,-39.7875,-19.2000,-4.3688,
12.266255,-1.0437,0.3405,-0.1257,0.0030,-0.4646,0.2489,-39.7875,-19.1813,-4.9313,
12.294972,-1.0437,0.3405,-0.1257,0.0030,-0.4646,0.2489,-39.7875,-19.1813,-4.9313,
12.299170,-1.0437,0.3405,-0.1257,-0.0271,-0.4606,0.1503,-39.7875,-19.1813,-4.9313,
12.316702,-1.0437,0.3405,-0.1257,-0.0271,-0.4606,0.1503,-39.7875,-19.1813,-4.9313,
12.319984,-1.0437,0.3405,-0.1257,-0.0271,-0.4606,0.1503,-39.7875,-19.1813,-4.9313,
12.321951,-0.1285,0.0541,0.3445,-0.0271,-0.4606,0.1503,-39.7875,-19.1813,-4.9313,
12.324950,-0.1285,0.0541,0.3445,-0.0271,-0.4606,0.1503,-39.8438,-19.0500,-5.2875,
12.377890,-0.1285,0.0541,0.3445,-0.0271,-0.4606,0.1503,-39.8438,-19.0500,-5.2875,
12.381894,-0.1285,0.0541,0.3445,-0.0271,-0.4606,0.1503,-39.8438,-19.0500,-5.2875,
12.384590,-0.1285,0.0541,0.3445,-0.0271,-0.4606,0.1503,-39.8438,-19.0500,-5.2875,
12.387739,-0.1285,0.0541,0.3445,0.1655,-0.2831,0.0373,-39.8438,-19.0500,-5.2875,
12.390984,-0.2389,-0.1763,0.2511,0.1655,-0.2831,0.0373,-39.8438,-19.0500,-5.2875,
12.394068,-0.2389,-0.1763,0.2511,0.1655,-0.2831,0.0373,-40.0125,-18.9000,-5.3813,
12.396999,-0.2389,-0.1763,0.2511,0.1655,-0.2831,0.0373,-40.0125,-18.9000,-5.3813,
12.437719,-0.2389,-0.1763,0.2511,0.1655,-0.2831,0.0373,-40.0125,-18.9000,-5.3813,
12.442186,-0.2389,-0.1763,0.2511,0.1655,-0.2831,0.0373,-40.0125,-18.9000,-5.3813,
12.444621,-0.2668,0.2367,-0.3357,0.1655,-0.2831,0.0373,-40.0125,-18.9000,-5.3813,
12.447950,-0.2668,0.2367,-0.3357,-0.0800,0.0129,0.1859,-40.0125,-18.9000,-5.3813,
12.459738,-0.2668,0.2367,-0.3357,-0.0800,0.0129,0.1859,-40.0125,-18.9000,-5.3813,
12.464111,-0.2668,0.2367,-0.3357,-0.0800,0.0129,0.1859,-40.1625,-18.8625,-5.2688,
12.494238,-0.2668,0.2367,-0.3357,-0.0800,0.0129,0.1859,-40.1625,-18.8625,-5.2688,
12.498026,-0.2668,0.2367,-0.3357,-0.0800,0.0129,0.1859,-40.1625,-18.8625,-5.2688,
12.500027,-0.2668,0.2367,-0.3357,0.0291,-0.0447,0.2085,-40.1625,-18.8625,-5.2688,
12.502682,-0.0982,0.0846,0.2819,0.0291,-0.0447,0.2085,-40.1625,-18.8625,-5.2688,
12.524487,-0.0982,0.0846,0.2819,0.0291,-0.0447,0.2085,-40.1625,-18.8625,-5.2688,
12.528826,-0.0982,0.0846,0.2819,0.0291,-0.0447,0.2085,-40.2563,-18.9563,-4.4438,
12.554279,-0.0982,0.0846,0.2819,0.0291,-0.0447,0.2085,-40.2563,-18.9563,-4.4438,
12.558387,0.1828,0.2953,-0.0117,0.0291,-0.0447,0.2085,-40.2563,-18.9563,-4.4438,
12.561822,0.1828,0.2953,-0.0117,0.0291,-0.0447,0.2085,-40.2563,-18.9563,-4.4438,
12.576373,0.1828,0.2953,-0.0117,-0.0999,0.0647,0.0234,-40.2563,-18.9563,-4.4438,
12.585865,0.1828,0.2953,-0.0117,-0.0999,0.0647,0.0234,-40.2563,-18.9563,-4.4438,
12.588743,0.1828,0.2953,-0.0117,-0.0999,0.0647,0.0234,-40.4062,-18.7313,-3.6938,
12.596951,0.1828,0.2953,-0.0117,-0.0999,0.0647,0.0234,-40.4062,-18.7313,-3.6938,
12.615198,0.1828,0.2953,-0.0117,-0.0999,0.0647,0.0234,-40.4062,-18.7313,-3.6938,
12.619020,0.0353,0.2900,-0.0969,-0.0999,0.0647,0.0234,-40.4062,-18.7313,-3.6938,
12.635907,0.0353,0.2900,-0.0969,-0.0289,-0.0756,0.0247,-40.4062,-18.7313,-3.6938,
12.659108,0.0353,0.2900,-0.0969,-0.0289,-0.0756,0.0247,-40.4062,-18.7313,-3.6938,
12.661731,0.0353,0.2900,-0.0969,-0.0289,-0.0756,0.0247,-40.4062,-18.7313,-3.6938,
12.663243,0.0353,0.2900,-0.0969,-0.0289,-0.0756,0.0247,-40.5938,-18.4125,-3.0375,
12.673954,0.0353,0.2900,-0.0969,-0.0289,-0.0756,0.0247,-40.5938,-18.4125,-3.0375,
12.676978,-0.2621,0.2395,0.3523,-0.0289,-0.0756,0.0247,-40.5938,-18.4125,-3.0375,
12.694783,-0.2621,0.2395,0.3523,0.0684,-0.1994,-0.0244,-40.5938,-18.4125,-3.0375,
12.723270,-0.2621,0.2395,0.3523,0.0684,-0.1994,-0.0244,-40.5938,-18.4125,-3.0375,
12.726870,-0.2621,0.2395,0.3523,0.0684,-0.1994,-0.0244,-40.5938,-18.4125,-3.0375,
12.728655,-0.2621,0.2395,0.3523,0.0684,-0.1994,-0.0244,-40.6875,-18.1875,-2.5500,
12.732920,0.0283,0.1889,-0.1927,0.0684,-0.1994,-0.0244,-40.6875,-18.1875,-2.5500,
12.735775,0.0283,0.1889,-0.1927,0.0684,-0.1994,-0.0244,-40.6875,-18.1875,-2.5500,
12.754242,0.0283,0.1889,-0.1927,-0.1151,0.0509,0.0466,-40.6875,-18.1875,-2.5500,
12.787100,0.0283,0.1889,-0.1927,-0.1151,0.0509,0.0466,-40.7812,-17.9438,-2.2125,
12.791455,0.0283,0.1889,-0.1927,-0.1151,0.0509,0.0466,-40.7812,-17.9438,-2.2125,
12.794024,0.0283,0.1889,-0.1927,-0.1151,0.0509,0.0466,-40.7812,-17.9438,-2.2125,
12.797027,0.0592,0.2157,-0.1296,-0.1151,0.0509,0.0466,-40.7812,-17.9438,-2.2125,
12.800668,0.0592,0.2157,-0.1296,-0.1151,0.0509,0.0466,-40.7812,-17.9438,-2.2125,
12.836642,0.0592,0.2157,-0.1296,-0.1151,0.0509,0.0466,-40.7812,-17.9438,-2.2125,
12.841399,0.0592,0.2157,-0.1296,-0.0827,-0.2047,-0.1116,-40.7812,-17.9438,-2.2125,
12.859104,0.0622,0.0062,0.2573,-0.0827,-0.2047,-0.1116,-40.7812,-17.9438,-2.2125,
12.864070,0.0622,0.0062,0.2573,-0.0827,-0.2047,-0.1116,-40.7812,-17.9438,-2.2125,
12.867202,0.0622,0.0062,0.2573,-0.0827,-0.2047,-0.1116,-40.7812,-17.9438,-2.2125,
12.869952,0.0622,0.0062,0.2573,-0.0827,-0.2047,-0.1116,-40.8938,-17.8875,-2.0063,
12.893684,0.0622,0.0062,0.2573,-0.0827,-0.2047,-0.1116,-40.8938,-17.8875,-2.0063,
12.896236,0.0622,0.0062,0.2573,-0.0024,0.1609,0.1578,-40.8938,-17.8875,-2.0063,
12.915799,0.0622,0.0062,0.2573,-0.0024,0.1609,0.1578,-40.8938,-17.8875,-2.0063,
12.918536,0.0622,0.0062,0.2573,-0.0024,0.1609,0.1578,-40.8938,-17.8875,-2.0063,
12.919818,0.0092,-0.0041,0.0976,-0.0024,0.1609,0.1578,-40.8938,-17.8875,-2.0063,
12.925949,0.0092,-0.0041,0.0976,-0.0024,0.1609,0.1578,-40.8938,-17.7750,-1.9875,
12.954694,0.0092,-0.0041,0.0976,-0.0024,0.1609,0.1578,-40.8938,-17.7750,-1.9875,
12.958587,0.0092,-0.0041,0.0976,-0.1294,0.1391,-0.0338,-40.8938,-17.7750,-1.9875,
12.974563,0.0092,-0.0041,0.0976,-0.1294,0.1391,-0.0338,-40.8938,-17.7750,-1.9875,
12.977664,0.0092,-0.0041,0.0976,-0.1294,0.1391,-0.0338,-40.8938,-17.7750,-1.9875,
12.979380,0.3106,0.2002,-0.0759,-0.1294,0.1391,-0.0338,-40.8938,-17.7750,-1.9875,
12.985216,0.3106,0.2002,-0.0759,-0.1294,0.1391,-0.0338,-40.8563,-17.7750,-2.0063,
13.037814,0.3106,0.2002,-0.0759,-0.5430,-0.0396,-0.0746,-40.8563,-17.7750,-2.0063,
13.042959,-0.2911,0.3352,-0.4140,-0.5430,-0.0396,-0.0746,-40.8563,-17.7750,-2.0063,
13.046504,-0.2911,0.3352,-0.4140,-0.5430,-0.0396,-0.0746,-40.8563,-17.7750,-2.0063,
13.049082,-0.2911,0.3352,-0.4140,-0.5430,-0.0396,-0.0746,-40.8563,-17.7750,-2.0063,
13.051577,-0.2911,0.3352,-0.4140,-0.5430,-0.0396,-0.0746,-40.8563,-17.7750,-2.0063,
13.059869,-0.2911,0.3352,-0.4140,-0.5430,-0.0396,-0.0746,-40.8563,-17.7750,-2.0063,
13.064752,-0.2911,0.3352,-0.4140,-0.5430,-0.0396,-0.0746,-40.7063,-17.7188,-1.9875,
13.094022,-0.2911,0.3352,-0.4140,-0.5430,-0.0396,-0.0746,-40.7063,-17.7188,-1.9875,
13.097880,-0.2473,0.2734,-0.5051,-0.5430,-0.0396,-0.0746,-40.7063,-17.7188,-1.9875,
13.100061,-0.2473,0.2734,-0.5051,-1.0281,0.0600,-0.3789,-40.7063,-17.7188,-1.9875,
13.102022,-0.2473,0.2734,-0.5051,-1.0281,0.0600,-0.3789,-40.7063,-17.7188,-1.9875,
13.124199,-0.2473,0.2734,-0.5051,-1.0281,0.0600,-0.3789,-40.7063,-17.7188,-1.9875,
13.127937,-0.2473,0.2734,-0.5051,-1.0281,0.0600,-0.3789,-40.7250,-17.9438,-2.2500,
13.156488,-0.2473,0.2734,-0.5051,-1.0601,0.7100,-1.0720,-40.7250,-17.9438,-2.2500,
13.162119,-0.2473,0.2734,-0.5051,-1.0601,0.7100,-1.0720,-40.7250,-17.9438,-2.2500,
13.164646,0.1534,0.8449,-0.8482,-1.0601,0.7100,-1.0720,-40.7250,-17.9438,-2.2500,
13.168257,0.1534,0.8449,-0.8482,-1.0601,0.7100,-1.0720,-40.7250,-17.9438,-2.2500,
13.184911,0.1534,0.8449,-0.8482,-1.0601,0.7100,-1.0720,-40.7250,-17.9438,-2.2500,
13.187898,0.1534,0.8449,-0.8482,-1.0601,0.7100,-1.0720,-40.3875,-18.5438,-2.8688,
13.214074,0.4137,0.9589,-1.2463,-1.0601,0.7100,-1.0720,-40.3875,-18.5438,-2.8688,
13.219380,0.4137,0.9589,-1.2463,-1.0601,0.7100,-1.0720,-40.3875,-18.5438,-2.8688,
13.222836,0.4137,0.9589,-1.2463,-1.0601,0.7100,-1.0720,-40.3875,-18.5438,-2.8688,
13.237435,0.4137,0.9589,-1.2463,-0.5045,0.1145,-1.3069,-40.3875,-18.5438,-2.8688,
13.259162,0.4137,0.9589,-1.2463,-0.5045,0.1145,-1.3069,-40.3875,-18.5438,-2.8688,
13.262111,0.4137,0.9589,-1.2463,-0.5045,0.1145,-1.3069,-40.3875,-18.5438,-2.8688,
13.263809,0.4137,0.9589,-1.2463,-0.5045,0.1145,-1.3069,-39.9563,-19.3875,-3.6188,
13.274396,-0.0256,-0.0523,2.0782,-0.5045,0.1145,-1.3069,-39.9563,-19.3875,-3.6188,
13.278019,-0.0256,-0.0523,2.0782,-0.5045,0.1145,-1.3069,-39.9563,-19.3875,-3.6188,
13.294777,-0.0256,-0.0523,2.0782,0.7376,0.4767,-0.2433,-39.9563,-19.3875,-3.6188,
13.323939,-0.0256,-0.0523,2.0782,0.7376,0.4767,-0.2433,-39.4313,-20.4938,-4.3313,
13.328644,-0.0256,-0.0523,2.0782,0.7376,0.4767,-0.2433,-39.4313,-20.4938,-4.3313,
13.330799,-0.0256,-0.0523,2.0782,0.7376,0.4767,-0.2433,-39.4313,-20.4938,-4.3313,
13.334372,-0.3991,-1.4591,0.0314,0.7376,0.4767,-0.2433,-39.4313,-20.4938,-4.3313,
13.337894,-0.3991,-1.4591,0.0314,0.7376,0.4767,-0.2433,-39.4313,-20.4938,-4.3313,
13.354972,-0.3991,-1.4591,0.0314,1.0414,-1.2872,-0.5020,-39.4313,-20.4938,-4.3313,
13.386238,-0.3991,-1.4591,0.0314,1.0414,-1.2872,-0.5020,-39.0000,-21.6000,-4.6125,
13.391290,-0.3991,-1.4591,0.0314,1.0414,-1.2872,-0.5020,-39.0000,-21.6000,-4.6125,
13.394552,-0.3991,-1.4591,0.0314,1.0414,-1.2872,-0.5020,-39.0000,-21.6000,-4.6125,
13.397756,-0.7274,-0.8280,4.6154,1.0414,-1.2872,-0.5020,-39.0000,-21.6000,-4.6125,
13.401098,-0.7274,-0.8280,4.6154,1.0414,-1.2872,-0.5020,-39.0000,-21.6000,-4.6125,
13.437376,-0.7274,-0.8280,4.6154,1.0414,-1.2872,-0.5020,-39.0000,-21.6000,-4.6125,
13.441632,-0.7274,-0.8280,4.6154,-1.6381,0.4875,0.6451,-39.0000,-21.6000,-4.6125,
13.460709,-0.7274,-0.8280,4.6154,-1.6381,0.4875,0.6451,-39.0000,-21.6000,-4.6125,
13.465692,-0.7274,-0.8280,4.6154,-1.6381,0.4875,0.6451,-39.0000,-21.6000,-4.6125,
13.468494,-0.5510,1.0655,-2.4936,-1.6381,0.4875,0.6451,-39.0000,-21.6000,-4.6125,
13.471859,-0.5510,1.0655,-2.4936,-1.6381,0.4875,0.6451,-38.5500,-22.6125,-5.1750,
13.494643,-0.5510,1.0655,-2.4936,-1.6381,0.4875,0.6451,-38.5500,-22.6125,-5.1750,
13.498835,-0.5510,1.0655,-2.4936,-0.6872,0.9813,-0.1870,-38.5500,-22.6125,-5.1750,
13.518346,-0.5510,1.0655,-2.4936,-0.6872,0.9813,-0.1870,-38.5500,-22.6125,-5.1750,
13.522068,-0.5510,1.0655,-2.4936,-0.6872,0.9813,-0.1870,-38.5500,-22.6125,-5.1750,
13.524728,1.4869,0.0687,1.5485,-0.6872,0.9813,-0.1870,-38.5500,-22.6125,-5.1750,
13.528421,1.4869,0.0687,1.5485,-0.6872,0.9813,-0.1870,-38.0625,-23.5875,-6.0938,
13.554123,1.4869,0.0687,1.5485,-0.6872,0.9813,-0.1870,-38.0625,-23.5875,-6.0938,
13.557347,1.4869,0.0687,1.5485,0.6539,0.7002,-0.1702,-38.0625,-23.5875,-6.0938,
13.575134,1.4869,0.0687,1.5485,0.6539,0.7002,-0.1702,-38.0625,-23.5875,-6.0938,
13.578299,1.4869,0.0687,1.5485,0.6539,0.7002,-0.1702,-38.0625,-23.5875,-6.0938,
13.579841,-0.3575,0.0289,1.3201,0.6539,0.7002,-0.1702,-38.0625,-23.5875,-6.0938,
13.583579,-0.3575,0.0289,1.3201,0.6539,0.7002,-0.1702,-37.6313,-24.6188,-7.2375,
13.636829,-0.3575,0.0289,1.3201,0.1693,0.1917,-0.1423,-37.6313,-24.6188,-7.2375,
13.640452,0.5633,-0.3160,-1.1534,0.1693,0.1917,-0.1423,-37.6313,-24.6188,-7.2375,
13.642656,0.5633,-0.3160,-1.1534,0.1693,0.1917,-0.1423,-37.6313,-24.6188,-7.2375,
13.644176,0.5633,-0.3160,-1.1534,0.1693,0.1917,-0.1423,-37.6313,-24.6188,-7.2375,
13.645963,0.5633,-0.3160,-1.1534,0.1693,0.1917,-0.1423,-37.6313,-24.6188,-7.2375,
