
time,ax,ay,az,wx,wy,wz,Bx,By,Bz,
0.147883,0.0000,0.0000,0.0000,0.0000,0.0000,0.0000,0.0000,0.0000,0.0000,
0.149732,0.0000,0.0000,0.0000,0.0000,0.0000,0.0000,0.0000,0.0000,0.0000,
0.151232,0.0000,0.0000,0.0000,0.0000,0.0000,0.0000,0.0000,0.0000,0.0000,
0.152808,0.0000,0.0000,0.0000,0.0000,0.0000,0.0000,0.0000,0.0000,0.0000,
0.154094,0.0000,0.0000,0.0000,0.0000,0.0000,0.0000,0.0000,0.0000,0.0000,
0.155268,0.0000,0.0000,0.0000,-0.0032,-0.0411,0.0108,0.0000,0.0000,0.0000,
0.181696,0.0000,0.0000,0.0000,-0.0032,-0.0411,0.0108,0.0000,0.0000,0.0000,
0.183279,0.0000,0.0000,0.0000,-0.0032,-0.0411,0.0108,0.0000,0.0000,0.0000,
0.184231,0.0000,0.0000,0.0000,-0.0032,-0.0411,0.0108,0.0000,0.0000,0.0000,
0.196901,0.0000,0.0000,0.0000,0.0114,0.0122,-0.0244,0.0000,0.0000,0.0000,
0.218356,0.0000,0.0000,0.0000,0.0114,0.0122,-0.0244,0.0000,0.0000,0.0000,
0.220594,0.0000,0.0000,0.0000,0.0114,0.0122,-0.0244,0.0000,0.0000,0.0000,
0.222003,0.0000,0.0000,0.0000,0.0114,0.0122,-0.0244,-46.5000,7.8188,4.8563,
0.224143,0.0000,0.0000,0.0000,0.0114,0.0122,-0.0244,-46.5000,7.8188,4.8563,
0.249223,0.0000,0.0000,0.0000,0.0114,0.0122,-0.0244,-46.5000,7.8188,4.8563,
0.279411,0.0000,0.0000,0.0000,0.0114,0.0122,-0.0244,-46.5000,7.8188,4.8563,
0.280676,-0.0704,0.0143,-0.0186,0.0114,0.0122,-0.0244,-46.5000,7.8188,4.8563,
0.281860,-0.0704,0.0143,-0.0186,0.0233,-0.0018,-0.0118,-46.5000,7.8188,4.8563,
0.283099,-0.0704,0.0143,-0.0186,0.0233,-0.0018,-0.0118,-46.5000,7.8188,4.8563,
0.284170,-0.0704,0.0143,-0.0186,0.0233,-0.0018,-0.0118,-46.3313,7.6688,5.5312,
0.320968,-0.0704,0.0143,-0.0186,0.0233,-0.0018,-0.0118,-46.3313,7.6688,5.5312,
0.322345,-0.0704,0.0143,-0.0186,0.0233,-0.0018,-0.0118,-46.3313,7.6688,5.5312,
0.338808,-0.0704,0.0143,-0.0186,0.0233,-0.0018,-0.0118,-46.4813,7.7063,5.4000,
0.340387,-0.0704,0.0143,-0.0186,0.0528,-0.0008,0.0070,-46.4813,7.7063,5.4000,
0.341679,-0.0704,0.0143,-0.0186,0.0528,-0.0008,0.0070,-46.4813,7.7063,5.4000,
0.342581,0.0090,-0.0141,0.0317,0.0528,-0.0008,0.0070,-46.4813,7.7063,5.4000,
0.386613,0.0090,-0.0141,0.0317,0.0528,-0.0008,0.0070,-46.4813,7.7063,5.4000,
0.389405,0.0090,-0.0141,0.0317,0.0528,-0.0008,0.0070,-46.4813,7.7063,5.4000,
0.398291,0.0090,-0.0141,0.0317,0.0355,0.0045,-0.0053,-46.4813,7.7063,5.4000,
0.401579,0.0090,-0.0141,0.0317,0.0355,0.0045,-0.0053,-46.4813,7.7063,5.4000,
0.403716,0.0618,-0.0180,-0.0981,0.0355,0.0045,-0.0053,-46.4813,7.7063,5.4000,
0.421970,0.0618,-0.0180,-0.0981,0.0355,0.0045,-0.0053,-46.4438,7.6500,5.4938,
0.450606,0.0618,-0.0180,-0.0981,0.0355,0.0045,-0.0053,-46.4438,7.6500,5.4938,
0.452872,0.0618,-0.0180,-0.0981,0.0355,0.0045,-0.0053,-46.4438,7.6500,5.4938,
0.458938,0.0364,-0.1123,-0.0722,0.0355,0.0045,-0.0053,-46.4438,7.6500,5.4938,
0.461430,0.0364,-0.1123,-0.0722,0.0355,0.0045,-0.0053,-46.4438,7.6500,5.4938,
0.479069,0.0364,-0.1123,-0.0722,0.0355,0.0045,-0.0053,-46.4625,7.7063,5.4563,
0.482414,0.0364,-0.1123,-0.0722,0.0489,0.0021,0.0288,-46.4625,7.7063,5.4563,
0.519524,0.0364,-0.1123,-0.0722,0.0489,0.0021,0.0288,-46.4625,7.7063,5.4563,
0.521834,0.0364,-0.1123,-0.0722,0.0489,0.0021,0.0288,-46.4625,7.7063,5.4563,
0.523599,0.0364,-0.1123,-0.0722,0.0489,0.0021,0.0288,-46.4625,7.7063,5.4563,
0.525156,-0.0326,-0.0863,-0.0446,0.0489,0.0021,0.0288,-46.4625,7.7063,5.4563,
0.536635,-0.0326,-0.0863,-0.0446,0.0489,0.0021,0.0288,-46.7438,7.6313,5.3438,
0.540076,-0.0326,-0.0863,-0.0446,0.0306,-0.0379,0.0478,-46.7438,7.6313,5.3438,
0.543361,-0.0326,-0.0863,-0.0446,0.0306,-0.0379,0.0478,-46.7438,7.6313,5.3438,
0.577106,0.0683,-0.0335,-0.1981,0.0306,-0.0379,0.0478,-46.7438,7.6313,5.3438,
0.578970,0.0683,-0.0335,-0.1981,0.0306,-0.0379,0.0478,-46.7438,7.6313,5.3438,
0.579941,0.0683,-0.0335,-0.1981,0.0306,-0.0379,0.0478,-46.7438,7.6313,5.3438,
0.598487,0.0683,-0.0335,-0.1981,0.0264,-0.0208,0.0137,-46.7438,7.6313,5.3438,
0.619020,0.0683,-0.0335,-0.1981,0.0264,-0.0208,0.0137,-46.7438,7.6313,5.3438,
0.620615,0.0683,-0.0335,-0.1981,0.0264,-0.0208,0.0137,-46.7250,7.7250,5.2688,
0.641044,0.1690,-0.0583,0.1245,0.0264,-0.0208,0.0137,-46.7250,7.7250,5.2688,
0.642834,0.1690,-0.0583,0.1245,0.0264,-0.0208,0.0137,-46.7250,7.7250,5.2688,
0.643961,0.1690,-0.0583,0.1245,0.0264,-0.0208,0.0137,-46.7250,7.7250,5.2688,
0.674948,0.1690,-0.0583,0.1245,0.0264,-0.0208,0.0137,-46.7250,7.7250,5.2688,
0.678242,0.1690,-0.0583,0.1245,0.0264,-0.0208,0.0137,-46.6875,7.6875,5.3250,
0.680660,0.1690,-0.0583,0.1245,0.0413,-0.0139,-0.0147,-46.6875,7.6875,5.3250,
0.698227,0.1690,-0.0583,0.1245,0.0413,-0.0139,-0.0147,-46.6875,7.6875,5.3250,
0.700335,0.1690,-0.0583,0.1245,0.0413,-0.0139,-0.0147,-46.6875,7.6875,5.3250,
0.701863,0.1158,0.0357,-0.1083,0.0413,-0.0139,-0.0147,-46.6875,7.6875,5.3250,
0.739630,0.1158,0.0357,-0.1083,0.0413,-0.0139,-0.0147,-46.6875,7.6875,5.3250,
0.742126,0.1158,0.0357,-0.1083,0.0413,-0.0139,-0.0147,-46.7250,7.6875,5.3063,
0.744275,0.1158,0.0357,-0.1083,0.0480,-0.0067,-0.0139,-46.7250,7.6875,5.3063,
0.759693,0.1158,0.0357,-0.1083,0.0480,-0.0067,-0.0139,-46.7250,7.6875,5.3063,
0.762319,0.1158,0.0357,-0.1083,0.0480,-0.0067,-0.0139,-46.7250,7.6875,5.3063,
0.764223,-0.0548,0.0108,0.0348,0.0480,-0.0067,-0.0139,-46.7250,7.6875,5.3063,
0.782965,-0.0548,0.0108,0.0348,0.0480,-0.0067,-0.0139,-46.7250,7.6875,5.3063,
0.800884,-0.0548,0.0108,0.0348,0.0292,0.0055,-0.0354,-46.7250,7.6875,5.3063,
0.816290,-0.0548,0.0108,0.0348,0.0292,0.0055,-0.0354,-46.7250,7.6875,5.3063,
0.818629,-0.0548,0.0108,0.0348,0.0292,0.0055,-0.0354,-46.8188,7.6688,5.3438,
0.820088,0.0459,0.0526,-0.1000,0.0292,0.0055,-0.0354,-46.8188,7.6688,5.3438,
0.821903,0.0459,0.0526,-0.1000,0.0292,0.0055,-0.0354,-46.8188,7.6688,5.3438,
0.850528,0.0459,0.0526,-0.1000,0.0292,0.0055,-0.0354,-46.8188,7.6688,5.3438,
0.874650,0.0459,0.0526,-0.1000,0.0292,0.0055,-0.0354,-46.8000,7.7063,5.4000,
0.876690,0.0459,0.0526,-0.1000,0.0292,0.0055,-0.0354,-46.8000,7.7063,5.4000,
0.878098,0.0459,0.0526,-0.1000,0.0491,-0.0090,-0.0055,-46.8000,7.7063,5.4000,
0.879657,-0.1079,0.0037,0.0794,0.0491,-0.0090,-0.0055,-46.8000,7.7063,5.4000,
0.880855,-0.1079,0.0037,0.0794,0.0491,-0.0090,-0.0055,-46.8000,7.7063,5.4000,
0.920426,-0.1079,0.0037,0.0794,0.0491,-0.0090,-0.0055,-46.8000,7.7063,5.4000,
0.940317,-0.1079,0.0037,0.0794,0.0491,-0.0090,-0.0055,-46.8375,7.6875,5.4188,
0.943090,-0.1079,0.0037,0.0794,0.0322,0.0092,-0.0378,-46.8375,7.6875,5.4188,
0.946285,0.1014,0.0646,-0.0780,0.0322,0.0092,-0.0378,-46.8375,7.6875,5.4188,
0.949171,0.1014,0.0646,-0.0780,0.0322,0.0092,-0.0378,-46.8375,7.6875,5.4188,
0.951358,0.1014,0.0646,-0.0780,0.0322,0.0092,-0.0378,-46.8375,7.6875,5.4188,
0.992371,0.1014,0.0646,-0.0780,0.0322,0.0092,-0.0378,-46.8375,7.6875,5.4188,
0.994713,0.1014,0.0646,-0.0780,0.0322,0.0092,-0.0378,-46.8375,7.6875,5.4188,
1.010809,0.1014,0.0646,-0.0780,0.0312,0.0097,-0.0428,-46.8375,7.6875,5.4188,
1.013677,0.1014,0.0646,-0.0780,0.0312,0.0097,-0.0428,-46.8375,7.6875,5.4188,
1.015355,0.0772,0.0152,-0.0330,0.0312,0.0097,-0.0428,-46.8375,7.6875,5.4188,
1.017938,0.0772,0.0152,-0.0330,0.0312,0.0097,-0.0428,-46.9313,7.6313,5.3438,
1.044971,0.0772,0.0152,-0.0330,0.0312,0.0097,-0.0428,-46.9313,7.6313,5.3438,
1.048433,0.0772,0.0152,-0.0330,0.0312,0.0097,-0.0428,-46.9313,7.6313,5.3438,
1.061284,0.0772,0.0152,-0.0330,0.0312,0.0097,-0.0428,-46.9313,7.6313,5.3438,
1.063665,-0.0629,-0.0418,0.0345,0.0312,0.0097,-0.0428,-46.9313,7.6313,5.3438,
1.078879,-0.0629,-0.0418,0.0345,0.0312,0.0097,-0.0428,-46.7438,7.6500,5.5125,
1.081037,-0.0629,-0.0418,0.0345,0.0254,0.0189,-0.0201,-46.7438,7.6500,5.5125,
1.127183,-0.0629,-0.0418,0.0345,0.0254,0.0189,-0.0201,-46.7438,7.6500,5.5125,
1.129301,-0.0629,-0.0418,0.0345,0.0254,0.0189,-0.0201,-46.7438,7.6500,5.5125,
1.130890,-0.0629,-0.0418,0.0345,0.0254,0.0189,-0.0201,-46.7438,7.6500,5.5125,
1.132191,-0.0823,0.0119,-0.1476,0.0254,0.0189,-0.0201,-46.7438,7.6500,5.5125,
1.135129,-0.0823,0.0119,-0.1476,0.0254,0.0189,-0.0201,-46.7063,7.5375,5.6438,
1.137744,-0.0823,0.0119,-0.1476,0.0052,0.0024,0.0147,-46.7063,7.5375,5.6438,
1.177844,-0.0823,0.0119,-0.1476,0.0052,0.0024,0.0147,-46.7063,7.5375,5.6438,
1.180687,-0.0823,0.0119,-0.1476,0.0052,0.0024,0.0147,-46.7063,7.5375,5.6438,
1.182871,-0.0823,0.0119,-0.1476,0.0052,0.0024,0.0147,-46.7063,7.5375,5.6438,
1.184880,-0.1123,0.0109,0.0156,0.0052,0.0024,0.0147,-46.7063,7.5375,5.6438,
1.197329,-0.1123,0.0109,0.0156,0.0015,-0.0018,0.0341,-46.7063,7.5375,5.6438,
1.225486,-0.1123,0.0109,0.0156,0.0015,-0.0018,0.0341,-46.7063,7.5375,5.6438,
1.228417,-0.1123,0.0109,0.0156,0.0015,-0.0018,0.0341,-46.7625,7.3875,5.5875,
1.242726,0.0953,0.0402,0.0138,0.0015,-0.0018,0.0341,-46.7625,7.3875,5.5875,
1.246495,0.0953,0.0402,0.0138,0.0015,-0.0018,0.0341,-46.7625,7.3875,5.5875,
1.248491,0.0953,0.0402,0.0138,0.0015,-0.0018,0.0341,-46.7625,7.3875,5.5875,
1.280051,0.0953,0.0402,0.0138,0.0015,-0.0018,0.0341,-46.7625,7.3875,5.5875,
1.282032,0.0953,0.0402,0.0138,0.0015,-0.0018,0.0341,-46.6875,7.2375,5.6625,
1.283404,0.0953,0.0402,0.0138,-0.0122,-0.0096,0.0147,-46.6875,7.2375,5.6625,
1.298580,0.0488,0.0238,-0.0031,-0.0122,-0.0096,0.0147,-46.6875,7.2375,5.6625,
1.301607,0.0488,0.0238,-0.0031,-0.0122,-0.0096,0.0147,-46.6875,7.2375,5.6625,
1.303377,0.0488,0.0238,-0.0031,-0.0122,-0.0096,0.0147,-46.6875,7.2375,5.6625,
1.343991,0.0488,0.0238,-0.0031,-0.0122,-0.0096,0.0147,-46.6875,7.2375,5.6625,
1.346842,0.0488,0.0238,-0.0031,-0.0122,-0.0096,0.0147,-46.5938,7.1813,5.5312,
1.348770,0.0488,0.0238,-0.0031,-0.0089,0.0071,0.0072,-46.5938,7.1813,5.5312,
1.360505,0.1101,0.0118,0.0806,-0.0089,0.0071,0.0072,-46.5938,7.1813,5.5312,
1.363706,0.1101,0.0118,0.0806,-0.0089,0.0071,0.0072,-46.5938,7.1813,5.5312,
1.365318,0.1101,0.0118,0.0806,-0.0089,0.0071,0.0072,-46.5938,7.1813,5.5312,
1.392116,0.1101,0.0118,0.0806,-0.0089,0.0071,0.0072,-46.5938,7.1813,5.5312,
1.411524,0.1101,0.0118,0.0806,-0.0061,-0.0228,0.0418,-46.5938,7.1813,5.5312,
1.430264,0.1101,0.0118,0.0806,-0.0061,-0.0228,0.0418,-46.6875,7.0875,5.4563,
1.433572,-0.1264,0.0301,0.0324,-0.0061,-0.0228,0.0418,-46.6875,7.0875,5.4563,
1.437056,-0.1264,0.0301,0.0324,-0.0061,-0.0228,0.0418,-46.6875,7.0875,5.4563,
1.439329,-0.1264,0.0301,0.0324,-0.0061,-0.0228,0.0418,-46.6875,7.0875,5.4563,
1.455615,-0.1264,0.0301,0.0324,-0.0061,-0.0228,0.0418,-46.6875,7.0875,5.4563,
1.476711,-0.1264,0.0301,0.0324,-0.0061,-0.0228,0.0418,-46.6875,7.0875,5.4563,
1.479006,-0.1264,0.0301,0.0324,-0.0061,-0.0228,0.0418,-46.8000,7.0313,5.4000,
1.480836,-0.1264,0.0301,0.0324,-0.0089,-0.0277,0.0631,-46.8000,7.0313,5.4000,
1.482740,-0.1264,0.0301,0.0324,-0.0089,-0.0277,0.0631,-46.8000,7.0313,5.4000,
1.484226,-0.0442,0.0353,0.0387,-0.0089,-0.0277,0.0631,-46.8000,7.0313,5.4000,
1.527719,-0.0442,0.0353,0.0387,-0.0089,-0.0277,0.0631,-46.8000,7.0313,5.4000,
1.545080,-0.0442,0.0353,0.0387,-0.0089,-0.0277,0.0631,-46.8375,6.9188,5.6438,
1.548238,-0.0442,0.0353,0.0387,-0.0089,-0.0277,0.0631,-46.8375,6.9188,5.6438,
1.550326,-0.0285,-0.0081,0.0943,-0.0089,-0.0277,0.0631,-46.8375,6.9188,5.6438,
1.552971,-0.0285,-0.0081,0.0943,0.0071,-0.0360,0.0712,-46.8375,6.9188,5.6438,
1.555477,-0.0285,-0.0081,0.0943,0.0071,-0.0360,0.0712,-46.8375,6.9188,5.6438,
1.582652,-0.0285,-0.0081,0.0943,0.0071,-0.0360,0.0712,-46.8375,6.9188,5.6438,
1.585047,-0.0285,-0.0081,0.0943,0.0071,-0.0360,0.0712,-46.8375,6.9188,5.6438,
1.611398,-0.0285,-0.0081,0.0943,0.0174,-0.0125,0.0588,-46.8375,6.9188,5.6438,
1.613960,-0.0285,-0.0081,0.0943,0.0174,-0.0125,0.0588,-46.8375,6.9188,5.6438,
1.615484,0.0170,-0.0563,0.0463,0.0174,-0.0125,0.0588,-46.8375,6.9188,5.6438,
1.618051,0.0170,-0.0563,0.0463,0.0174,-0.0125,0.0588,-46.9313,6.9375,5.6625,
1.658910,0.0170,-0.0563,0.0463,0.0174,-0.0125,0.0588,-46.9313,6.9375,5.6625,
1.660766,0.0170,-0.0563,0.0463,0.0174,-0.0125,0.0588,-46.9313,6.9375,5.6625,
1.662892,-0.0284,-0.0765,-0.1039,0.0174,-0.0125,0.0588,-46.9313,6.9375,5.6625,
1.664515,-0.0284,-0.0765,-0.1039,0.0174,-0.0125,0.0588,-46.9313,6.9375,5.6625,
1.674993,-0.0284,-0.0765,-0.1039,0.0174,-0.0125,0.0588,-47.0625,7.0125,5.6625,
1.677541,-0.0284,-0.0765,-0.1039,-0.0212,-0.0237,0.0351,-47.0625,7.0125,5.6625,
1.730686,-0.0284,-0.0765,-0.1039,-0.0212,-0.0237,0.0351,-47.0625,7.0125,5.6625,
1.733940,-0.0284,-0.0765,-0.1039,-0.0212,-0.0237,0.0351,-47.0625,7.0125,5.6625,
1.735692,-0.0570,-0.0766,-0.1404,-0.0212,-0.0237,0.0351,-47.0625,7.0125,5.6625,
1.738871,-0.0570,-0.0766,-0.1404,-0.0212,-0.0237,0.0351,-47.0625,7.0125,5.6625,
1.740654,-0.0570,-0.0766,-0.1404,-0.0212,-0.0181,0.0489,-47.0625,7.0125,5.6625,
1.742301,-0.0570,-0.0766,-0.1404,-0.0212,-0.0181,0.0489,-47.0625,7.0875,5.8125,
1.779414,-0.0570,-0.0766,-0.1404,-0.0212,-0.0181,0.0489,-47.0625,7.0875,5.8125,
1.781726,-0.0570,-0.0766,-0.1404,-0.0212,-0.0181,0.0489,-47.0625,7.0875,5.8125,
1.783244,-0.0570,-0.0766,-0.1404,-0.0212,-0.0181,0.0489,-47.0625,7.0875,5.8125,
1.784607,-0.0275,-0.0204,0.0530,-0.0212,-0.0181,0.0489,-47.0625,7.0875,5.8125,
1.810716,-0.0275,-0.0204,0.0530,-0.0264,-0.0115,0.0309,-47.0625,7.0875,5.8125,
1.814728,-0.0275,-0.0204,0.0530,-0.0264,-0.0115,0.0309,-47.0625,7.0875,5.8125,
1.816471,-0.0275,-0.0204,0.0530,-0.0264,-0.0115,0.0309,-47.2125,7.2375,5.9625,
1.841031,-0.0275,-0.0204,0.0530,-0.0264,-0.0115,0.0309,-47.2125,7.2375,5.9625,
1.842993,-0.0275,-0.0204,0.0530,-0.0264,-0.0115,0.0309,-47.2125,7.2375,5.9625,
1.844162,0.0578,0.0526,0.0088,-0.0264,-0.0115,0.0309,-47.2125,7.2375,5.9625,
1.879580,0.0578,0.0526,0.0088,-0.0264,-0.0115,0.0309,-47.2125,7.2375,5.9625,
1.881979,0.0578,0.0526,0.0088,-0.0264,-0.0115,0.0309,-47.3063,7.2750,5.9813,
1.884154,0.0578,0.0526,0.0088,-0.0061,0.0067,0.0102,-47.3063,7.2750,5.9813,
1.899626,0.0578,0.0526,0.0088,-0.0061,0.0067,0.0102,-47.3063,7.2750,5.9813,
1.902681,0.0578,0.0526,0.0088,-0.0061,0.0067,0.0102,-47.3063,7.2750,5.9813,
1.904955,0.0274,0.0290,0.1001,-0.0061,0.0067,0.0102,-47.3063,7.2750,5.9813,
1.943096,0.0274,0.0290,0.1001,-0.0061,0.0067,0.0102,-47.3063,7.2750,5.9813,
1.945722,0.0274,0.0290,0.1001,-0.0061,0.0067,0.0102,-47.2875,7.3125,6.1125,
1.948060,0.0274,0.0290,0.1001,0.0050,-0.0153,0.0162,-47.2875,7.3125,6.1125,
1.960943,0.0274,0.0290,0.1001,0.0050,-0.0153,0.0162,-47.2875,7.3125,6.1125,
1.963491,0.0274,0.0290,0.1001,0.0050,-0.0153,0.0162,-47.2875,7.3125,6.1125,
1.964812,0.0011,0.0252,0.1102,0.0050,-0.0153,0.0162,-47.2875,7.3125,6.1125,
1.991912,0.0011,0.0252,0.1102,0.0050,-0.0153,0.0162,-47.2875,7.3125,6.1125,
1.998458,0.0011,0.0252,0.1102,-0.0008,0.0123,-0.0415,-47.2875,7.3125,6.1125,
2.014988,0.0011,0.0252,0.1102,-0.0008,0.0123,-0.0415,-47.2875,7.3125,6.1125,
2.017344,0.0011,0.0252,0.1102,-0.0008,0.0123,-0.0415,-47.1562,7.4813,6.1875,
2.019809,0.1960,0.0042,-0.0253,-0.0008,0.0123,-0.0415,-47.1562,7.4813,6.1875,
2.021671,0.1960,0.0042,-0.0253,-0.0008,0.0123,-0.0415,-47.1562,7.4813,6.1875,
2.042755,0.1960,0.0042,-0.0253,-0.0008,0.0123,-0.0415,-47.1562,7.4813,6.1875,
2.079749,0.1960,0.0042,-0.0253,-0.0008,0.0123,-0.0415,-47.1562,7.4813,6.1875,
2.081851,0.1960,0.0042,-0.0253,-0.0008,0.0123,-0.0415,-47.1562,7.4813,6.1875,
2.083138,0.1960,0.0042,-0.0253,-0.0008,0.0123,-0.0415,-47.0250,7.5000,6.1313,
2.084773,0.1960,0.0042,-0.0253,-0.0279,0.0499,-0.1207,-47.0250,7.5000,6.1313,
2.085769,0.0892,-0.1016,-0.0391,-0.0279,0.0499,-0.1207,-47.0250,7.5000,6.1313,
2.116367,0.0892,-0.1016,-0.0391,-0.0279,0.0499,-0.1207,-47.0250,7.5000,6.1313,
2.138152,0.0892,-0.1016,-0.0391,-0.0279,0.0499,-0.1207,-47.0250,7.5000,6.1313,
2.139355,0.0892,-0.1016,-0.0391,-0.0279,0.0499,-0.1207,-46.9875,7.4250,6.0375,
2.140427,0.0892,-0.1016,-0.0391,-0.0641,0.1282,-0.1838,-46.9875,7.4250,6.0375,
2.141574,0.0892,-0.1016,-0.0391,-0.0641,0.1282,-0.1838,-46.9875,7.4250,6.0375,
2.142489,0.1039,-0.2052,-0.1621,-0.0641,0.1282,-0.1838,-46.9875,7.4250,6.0375,
2.189755,0.1039,-0.2052,-0.1621,-0.0641,0.1282,-0.1838,-46.9875,7.4250,6.0375,
2.191230,0.1039,-0.2052,-0.1621,-0.0641,0.1282,-0.1838,-46.9875,7.4250,6.0375,
2.197860,0.0459,-0.1876,-0.1907,-0.0641,0.1282,-0.1838,-46.9875,7.4250,6.0375,
2.201056,0.0459,-0.1876,-0.1907,-0.1418,0.1832,-0.2574,-46.9875,7.4250,6.0375,
2.203814,0.0459,-0.1876,-0.1907,-0.1418,0.1832,-0.2574,-46.9875,7.4250,6.0375,
2.220579,0.0459,-0.1876,-0.1907,-0.1418,0.1832,-0.2574,-46.9500,7.2750,6.0188,
2.254952,0.0459,-0.1876,-0.1907,-0.1418,0.1832,-0.2574,-46.9500,7.2750,6.0188,
2.256495,0.0459,-0.1876,-0.1907,-0.1418,0.1832,-0.2574,-46.9500,7.2750,6.0188,
2.258511,0.0459,-0.1876,-0.1907,-0.1418,0.1832,-0.2574,-46.9500,7.2750,6.0188,
2.259584,-0.0115,-0.1271,-0.0693,-0.1418,0.1832,-0.2574,-46.9500,7.2750,6.0188,
2.274583,-0.0115,-0.1271,-0.0693,-0.1418,0.1832,-0.2574,-47.1000,7.0875,5.8688,
2.278962,-0.0115,-0.1271,-0.0693,-0.0789,0.2850,-0.2004,-47.1000,7.0875,5.8688,
2.315335,-0.0115,-0.1271,-0.0693,-0.0789,0.2850,-0.2004,-47.1000,7.0875,5.8688,
2.318007,-0.0115,-0.1271,-0.0693,-0.0789,0.2850,-0.2004,-47.1000,7.0875,5.8688,
2.319930,-0.0115,-0.1271,-0.0693,-0.0789,0.2850,-0.2004,-47.1000,7.0875,5.8688,
2.321482,-0.3459,0.2474,-0.0759,-0.0789,0.2850,-0.2004,-47.1000,7.0875,5.8688,
2.343124,-0.3459,0.2474,-0.0759,-0.0789,0.2850,-0.2004,-47.1188,6.6938,5.6063,
2.345013,-0.3459,0.2474,-0.0759,-0.1477,0.0912,-0.0808,-47.1188,6.6938,5.6063,
2.378304,-0.3459,0.2474,-0.0759,-0.1477,0.0912,-0.0808,-47.1188,6.6938,5.6063,
2.380134,-0.3459,0.2474,-0.0759,-0.1477,0.0912,-0.0808,-47.1188,6.6938,5.6063,
2.381272,-0.3459,0.2474,-0.0759,-0.1477,0.0912,-0.0808,-47.1188,6.6938,5.6063,
2.382367,-0.4396,0.4592,-0.1983,-0.1477,0.0912,-0.0808,-47.1188,6.6938,5.6063,
2.410657,-0.4396,0.4592,-0.1983,-0.0954,0.0046,-0.0440,-47.1188,6.6938,5.6063,
2.424930,-0.4396,0.4592,-0.1983,-0.0954,0.0046,-0.0440,-47.1188,6.6938,5.6063,
2.427033,-0.4396,0.4592,-0.1983,-0.0954,0.0046,-0.0440,-47.2500,6.3563,5.3625,
2.442349,-0.4396,0.4592,-0.1983,-0.0954,0.0046,-0.0440,-47.2500,6.3563,5.3625,
2.444312,-0.4396,0.4592,-0.1983,-0.0954,0.0046,-0.0440,-47.2500,6.3563,5.3625,
2.445509,0.4866,0.6191,0.8306,-0.0954,0.0046,-0.0440,-47.2500,6.3563,5.3625,
2.477534,0.4866,0.6191,0.8306,-0.0954,0.0046,-0.0440,-47.3063,5.8875,5.1000,
2.480206,0.4866,0.6191,0.8306,-0.0954,0.0046,-0.0440,-47.3063,5.8875,5.1000,
2.481657,0.4866,0.6191,0.8306,-0.0522,0.0492,-0.1153,-47.3063,5.8875,5.1000,
2.498795,0.4866,0.6191,0.8306,-0.0522,0.0492,-0.1153,-47.3063,5.8875,5.1000,
2.501491,0.4866,0.6191,0.8306,-0.0522,0.0492,-0.1153,-47.3063,5.8875,5.1000,
2.503388,-0.0542,0.1939,0.4660,-0.0522,0.0492,-0.1153,-47.3063,5.8875,5.1000,
2.543611,-0.0542,0.1939,0.4660,-0.0522,0.0492,-0.1153,-47.3063,5.8875,5.1000,
2.546036,-0.0542,0.1939,0.4660,-0.0522,0.0492,-0.1153,-47.4563,5.4563,4.9688,
2.548019,-0.0542,0.1939,0.4660,0.0507,-0.0935,-0.0673,-47.4563,5.4563,4.9688,
2.550092,-0.0542,0.1939,0.4660,0.0507,-0.0935,-0.0673,-47.4563,5.4563,4.9688,
2.559931,-0.0542,0.1939,0.4660,0.0507,-0.0935,-0.0673,-47.4563,5.4563,4.9688,
2.562360,0.5010,-0.2901,0.9602,0.0507,-0.0935,-0.0673,-47.4563,5.4563,4.9688,
2.581870,0.5010,-0.2901,0.9602,0.0507,-0.0935,-0.0673,-47.4563,5.4563,4.9688,
2.611466,0.5010,-0.2901,0.9602,0.1355,-0.1539,-0.2279,-47.4563,5.4563,4.9688,
2.615701,0.5010,-0.2901,0.9602,0.1355,-0.1539,-0.2279,-47.4563,5.4563,4.9688,
2.618746,0.5010,-0.2901,0.9602,0.1355,-0.1539,-0.2279,-47.4938,5.0625,4.8375,
2.622359,0.7916,0.1669,0.7364,0.1355,-0.1539,-0.2279,-47.4938,5.0625,4.8375,
2.625420,0.7916,0.1669,0.7364,0.1355,-0.1539,-0.2279,-47.4938,5.0625,4.8375,
2.649300,0.7916,0.1669,0.7364,0.1355,-0.1539,-0.2279,-47.4938,5.0625,4.8375,
2.678287,0.7916,0.1669,0.7364,0.1355,-0.1539,-0.2279,-47.6250,4.4438,4.7438,
2.681082,0.7916,0.1669,0.7364,0.1355,-0.1539,-0.2279,-47.6250,4.4438,4.7438,
2.682671,0.7916,0.1669,0.7364,0.1732,0.0024,-0.3290,-47.6250,4.4438,4.7438,
2.685746,0.3013,-0.0626,0.2412,0.1732,0.0024,-0.3290,-47.6250,4.4438,4.7438,
2.687602,0.3013,-0.0626,0.2412,0.1732,0.0024,-0.3290,-47.6250,4.4438,4.7438,
2.727560,0.3013,-0.0626,0.2412,0.1732,0.0024,-0.3290,-47.6250,4.4438,4.7438,
2.742190,0.3013,-0.0626,0.2412,0.1732,0.0024,-0.3290,-47.7750,3.8813,4.6500,
2.745138,0.3013,-0.0626,0.2412,0.1732,0.0024,-0.3290,-47.7750,3.8813,4.6500,
2.746494,0.3013,-0.0626,0.2412,0.0800,0.0806,-0.3053,-47.7750,3.8813,4.6500,
2.748303,0.3013,-0.0626,0.2412,0.0800,0.0806,-0.3053,-47.7750,3.8813,4.6500,
2.749949,-0.1815,-0.2258,-0.2659,0.0800,0.0806,-0.3053,-47.7750,3.8813,4.6500,
2.782946,-0.1815,-0.2258,-0.2659,0.0800,0.0806,-0.3053,-47.7750,3.8813,4.6500,
2.785156,-0.1815,-0.2258,-0.2659,0.0800,0.0806,-0.3053,-47.7750,3.8813,4.6500,
2.810976,-0.1815,-0.2258,-0.2659,-0.2563,0.1082,-0.2498,-47.7750,3.8813,4.6500,
2.814113,-0.1584,0.0098,-1.2553,-0.2563,0.1082,-0.2498,-47.7750,3.8813,4.6500,
2.816317,-0.1584,0.0098,-1.2553,-0.2563,0.1082,-0.2498,-47.7750,3.8813,4.6500,
2.817944,-0.1584,0.0098,-1.2553,-0.2563,0.1082,-0.2498,-47.7000,3.3563,4.4438,
2.860818,-0.1584,0.0098,-1.2553,-0.2563,0.1082,-0.2498,-47.7000,3.3563,4.4438,
2.862512,-0.1584,0.0098,-1.2553,-0.2563,0.1082,-0.2498,-47.7000,3.3563,4.4438,
2.863704,-0.1584,0.0098,-1.2553,-0.2563,0.1082,-0.2498,-47.7000,3.3563,4.4438,
2.864658,-0.3654,0.6613,-1.3140,-0.2563,0.1082,-0.2498,-47.7000,3.3563,4.4438,
2.877117,-0.3654,0.6613,-1.3140,-0.2563,0.1082,-0.2498,-47.7188,2.7000,4.3500,
2.878996,-0.3654,0.6613,-1.3140,-0.5669,0.1929,-0.2092,-47.7188,2.7000,4.3500,
2.927338,-0.3654,0.6613,-1.3140,-0.5669,0.1929,-0.2092,-47.7188,2.7000,4.3500,
2.929487,-0.3654,0.6613,-1.3140,-0.5669,0.1929,-0.2092,-47.7188,2.7000,4.3500,
2.930753,0.1154,0.8422,-0.8703,-0.5669,0.1929,-0.2092,-47.7188,2.7000,4.3500,
2.932837,0.1154,0.8422,-0.8703,-0.5669,0.1929,-0.2092,-47.7188,2.7000,4.3500,
2.934281,0.1154,0.8422,-0.8703,-0.5669,0.1929,-0.2092,-47.7000,1.9688,4.2375,
2.942976,0.1154,0.8422,-0.8703,-0.7545,0.1951,-0.2876,-47.7000,1.9688,4.2375,
2.979527,0.1154,0.8422,-0.8703,-0.7545,0.1951,-0.2876,-47.7000,1.9688,4.2375,
2.981966,0.1154,0.8422,-0.8703,-0.7545,0.1951,-0.2876,-47.7000,1.9688,4.2375,
2.983762,0.1154,0.8422,-0.8703,-0.7545,0.1951,-0.2876,-47.7000,1.9688,4.2375,
2.985270,0.0588,1.1803,0.6429,-0.7545,0.1951,-0.2876,-47.7000,1.9688,4.2375,
2.998360,0.0588,1.1803,0.6429,-0.6769,0.1242,-0.1608,-47.7000,1.9688,4.2375,
3.024454,0.0588,1.1803,0.6429,-0.6769,0.1242,-0.1608,-47.7000,1.9688,4.2375,
3.025786,0.0588,1.1803,0.6429,-0.6769,0.1242,-0.1608,-47.6063,1.2750,4.0500,
3.041666,-0.1550,1.6646,2.0273,-0.6769,0.1242,-0.1608,-47.6063,1.2750,4.0500,
3.043497,-0.1550,1.6646,2.0273,-0.6769,0.1242,-0.1608,-47.6063,1.2750,4.0500,
3.044575,-0.1550,1.6646,2.0273,-0.6769,0.1242,-0.1608,-47.6063,1.2750,4.0500,
3.078615,-0.1550,1.6646,2.0273,-0.6769,0.1242,-0.1608,-47.6063,0.4500,3.7500,
3.082219,-0.1550,1.6646,2.0273,-0.6769,0.1242,-0.1608,-47.6063,0.4500,3.7500,
3.084279,-0.1550,1.6646,2.0273,-0.4719,-0.0996,0.0211,-47.6063,0.4500,3.7500,
3.111704,-0.1550,1.6646,2.0273,-0.4719,-0.0996,0.0211,-47.6063,0.4500,3.7500,
3.114915,-0.1550,1.6646,2.0273,-0.4719,-0.0996,0.0211,-47.6063,0.4500,3.7500,
3.117055,-0.3506,2.1067,2.5921,-0.4719,-0.0996,0.0211,-47.6063,0.4500,3.7500,
3.147166,-0.3506,2.1067,2.5921,-0.4719,-0.0996,0.0211,-47.7000,-0.2812,3.5625,
3.150395,-0.3506,2.1067,2.5921,-0.4719,-0.0996,0.0211,-47.7000,-0.2812,3.5625,
3.152571,-0.3506,2.1067,2.5921,-0.2176,-0.5475,-0.1742,-47.7000,-0.2812,3.5625,
3.161344,-0.3506,2.1067,2.5921,-0.2176,-0.5475,-0.1742,-47.7000,-0.2812,3.5625,
3.163587,-0.3506,2.1067,2.5921,-0.2176,-0.5475,-0.1742,-47.7000,-0.2812,3.5625,
3.165089,-0.0411,2.4003,2.4437,-0.2176,-0.5475,-0.1742,-47.7000,-0.2812,3.5625,
3.182381,-0.0411,2.4003,2.4437,-0.2176,-0.5475,-0.1742,-47.7000,-0.2812,3.5625,
3.212938,-0.0411,2.4003,2.4437,-0.1465,-0.5106,-0.5232,-47.7000,-0.2812,3.5625,
3.216658,-0.0411,2.4003,2.4437,-0.1465,-0.5106,-0.5232,-47.7000,-0.2812,3.5625,
3.218267,-0.0411,2.4003,2.4437,-0.1465,-0.5106,-0.5232,-47.4563,-0.9563,3.7688,
3.222512,-0.0411,2.4003,2.4437,-0.1465,-0.5106,-0.5232,-47.4563,-0.9563,3.7688,
3.224335,-0.3413,2.2209,1.1796,-0.1465,-0.5106,-0.5232,-47.4563,-0.9563,3.7688,
3.259781,-0.3413,2.2209,1.1796,-0.1465,-0.5106,-0.5232,-47.4563,-0.9563,3.7688,
3.275303,-0.3413,2.2209,1.1796,-0.1465,-0.5106,-0.5232,-47.2875,-1.9875,3.9563,
3.277771,-0.3413,2.2209,1.1796,-0.1465,-0.5106,-0.5232,-47.2875,-1.9875,3.9563,
3.295264,-0.3413,2.2209,1.1796,-0.2679,-0.4000,-0.6898,-47.2875,-1.9875,3.9563,
3.298201,-0.5879,1.2327,0.2826,-0.2679,-0.4000,-0.6898,-47.2875,-1.9875,3.9563,
3.300000,-0.5879,1.2327,0.2826,-0.2679,-0.4000,-0.6898,-47.2875,-1.9875,3.9563,
3.321259,-0.5879,1.2327,0.2826,-0.2679,-0.4000,-0.6898,-47.2875,-1.9875,3.9563,
3.337828,-0.5879,1.2327,0.2826,-0.2679,-0.4000,-0.6898,-47.0250,-3.2438,4.5563,
3.339243,-0.5879,1.2327,0.2826,-0.2679,-0.4000,-0.6898,-47.0250,-3.2438,4.5563,
3.340152,-0.5879,1.2327,0.2826,-0.3563,-0.9140,-0.6812,-47.0250,-3.2438,4.5563,
3.341375,-1.0250,0.7969,0.6135,-0.3563,-0.9140,-0.6812,-47.0250,-3.2438,4.5563,
3.342470,-1.0250,0.7969,0.6135,-0.3563,-0.9140,-0.6812,-47.0250,-3.2438,4.5563,
3.382607,-1.0250,0.7969,0.6135,-0.3563,-0.9140,-0.6812,-47.0250,-3.2438,4.5563,
3.385173,-1.0250,0.7969,0.6135,-0.3563,-0.9140,-0.6812,-47.0250,-3.2438,4.5563,
3.413328,-1.0250,0.7969,0.6135,0.3181,-1.0927,-0.1421,-47.0250,-3.2438,4.5563,
3.417453,-1.0250,0.7969,0.6135,0.3181,-1.0927,-0.1421,-47.0250,-3.2438,4.5563,
3.419827,-0.3099,1.3744,3.6969,0.3181,-1.0927,-0.1421,-47.0250,-3.2438,4.5563,
3.422823,-0.3099,1.3744,3.6969,0.3181,-1.0927,-0.1421,-46.6313,-4.5375,5.5312,
3.458916,-0.3099,1.3744,3.6969,0.3181,-1.0927,-0.1421,-46.6313,-4.5375,5.5312,
3.460560,-0.3099,1.3744,3.6969,0.3181,-1.0927,-0.1421,-46.6313,-4.5375,5.5312,
3.461412,-0.3099,1.3744,3.6969,0.3181,-1.0927,-0.1421,-46.6313,-4.5375,5.5312,
3.462144,-5.3389,11.3128,5.8119,0.3181,-1.0927,-0.1421,-46.6313,-4.5375,5.5312,
3.476318,-5.3389,11.3128,5.8119,0.3181,-1.0927,-0.1421,-46.1063,-5.4750,6.8813,
3.478419,-5.3389,11.3128,5.8119,1.8616,-0.6047,0.8264,-46.1063,-5.4750,6.8813,
3.501333,-5.3389,11.3128,5.8119,1.8616,-0.6047,0.8264,-46.1063,-5.4750,6.8813,
3.503664,-5.3389,11.3128,5.8119,1.8616,-0.6047,0.8264,-46.1063,-5.4750,6.8813,
3.519891,-12.8929,22.6500,10.2674,1.8616,-0.6047,0.8264,-46.1063,-5.4750,6.8813,
3.523776,-12.8929,22.6500,10.2674,1.8616,-0.6047,0.8264,-46.1063,-5.4750,6.8813,
3.539173,-12.8929,22.6500,10.2674,1.8616,-0.6047,0.8264,-45.4500,-5.5688,8.9625,
3.542961,-12.8929,22.6500,10.2674,5.1277,-1.6759,0.4373,-45.4500,-5.5688,8.9625,
3.545307,-12.8929,22.6500,10.2674,5.1277,-1.6759,0.4373,-45.4500,-5.5688,8.9625,
3.583330,-12.8929,22.6500,10.2674,5.1277,-1.6759,0.4373,-45.4500,-5.5688,8.9625,
3.585390,-12.8929,22.6500,10.2674,5.1277,-1.6759,0.4373,-45.4500,-5.5688,8.9625,
3.586952,-0.8425,1.3707,0.1366,5.1277,-1.6759,0.4373,-45.4500,-5.5688,8.9625,
3.599668,-0.8425,1.3707,0.1366,4.2765,-0.3490,-0.6535,-45.4500,-5.5688,8.9625,
3.616767,-0.8425,1.3707,0.1366,4.2765,-0.3490,-0.6535,-45.4500,-5.5688,8.9625,
3.618079,-0.8425,1.3707,0.1366,4.2765,-0.3490,-0.6535,-44.6625,-4.8188,11.4375,
3.640711,-1.7171,-12.2333,-12.4640,4.2765,-0.3490,-0.6535,-44.6625,-4.8188,11.4375,
3.646641,-1.7171,-12.2333,-12.4640,4.2765,-0.3490,-0.6535,-44.6625,-4.8188,11.4375,
3.649402,-1.7171,-12.2333,-12.4640,4.2765,-0.3490,-0.6535,-44.6625,-4.8188,11.4375,
3.676964,-1.7171,-12.2333,-12.4640,4.2765,-0.3490,-0.6535,-43.9313,-4.1625,13.3125,
3.682199,-1.7171,-12.2333,-12.4640,4.2765,-0.3490,-0.6535,-43.9313,-4.1625,13.3125,
3.684983,-1.7171,-12.2333,-12.4640,1.5593,1.5758,-1.2732,-43.9313,-4.1625,13.3125,
3.701795,-1.7171,-12.2333,-12.4640,1.5593,1.5758,-1.2732,-43.9313,-4.1625,13.3125,
3.705541,-1.7171,-12.2333,-12.4640,1.5593,1.5758,-1.2732,-43.9313,-4.1625,13.3125,
3.707925,0.7689,-8.0305,-8.5337,1.5593,1.5758,-1.2732,-43.9313,-4.1625,13.3125,
3.735576,0.7689,-8.0305,-8.5337,1.5593,1.5758,-1.2732,-43.9313,-4.1625,13.3125,
3.738079,0.7689,-8.0305,-8.5337,1.5593,1.5758,-1.2732,-43.7438,-4.0688,13.8375,
3.740159,0.7689,-8.0305,-8.5337,0.5131,2.8257,-2.4355,-43.7438,-4.0688,13.8375,
3.762384,0.7689,-8.0305,-8.5337,0.5131,2.8257,-2.4355,-43.7438,-4.0688,13.8375,
3.764940,0.7689,-8.0305,-8.5337,0.5131,2.8257,-2.4355,-43.7438,-4.0688,13.8375,
3.766206,9.9491,-5.9275,-8.4824,0.5131,2.8257,-2.4355,-43.7438,-4.0688,13.8375,
3.781857,9.9491,-5.9275,-8.4824,0.5131,2.8257,-2.4355,-43.7438,-4.0688,13.8375,
3.816612,9.9491,-5.9275,-8.4824,-0.7106,5.8273,-1.4812,-43.7438,-4.0688,13.8375,
3.818220,9.9491,-5.9275,-8.4824,-0.7106,5.8273,-1.4812,-43.7438,-4.0688,13.8375,
3.821256,9.9491,-5.9275,-8.4824,-0.7106,5.8273,-1.4812,-43.4062,-4.6500,12.2813,
3.823885,-3.5682,-17.9638,6.0544,-0.7106,5.8273,-1.4812,-43.4062,-4.6500,12.2813,
3.826223,-3.5682,-17.9638,6.0544,-0.7106,5.8273,-1.4812,-43.4062,-4.6500,12.2813,
3.848441,-3.5682,-17.9638,6.0544,-0.7106,5.8273,-1.4812,-43.4062,-4.6500,12.2813,
3.869121,-3.5682,-17.9638,6.0544,-0.7106,5.8273,-1.4812,-43.4062,-4.6500,12.2813,
3.873658,-3.5682,-17.9638,6.0544,-0.7106,5.8273,-1.4812,-43.2750,-5.3063,10.8000,
3.879744,-3.5682,-17.9638,6.0544,5.3752,0.4104,0.6515,-43.2750,-5.3063,10.8000,
3.886553,-3.5682,-17.9638,6.0544,5.3752,0.4104,0.6515,-43.2750,-5.3063,10.8000,
3.887690,-9.7265,-27.9517,56.6614,5.3752,0.4104,0.6515,-43.2750,-5.3063,10.8000,
3.913558,-9.7265,-27.9517,56.6614,5.3752,0.4104,0.6515,-43.2750,-5.3063,10.8000,
3.924605,-9.7265,-27.9517,56.6614,5.3752,0.4104,0.6515,-43.2750,-5.3063,10.8000,
3.936243,-9.7265,-27.9517,56.6614,5.3752,0.4104,0.6515,-43.5000,-4.3125,8.9062,
3.945035,-9.7265,-27.9517,56.6614,-1.4657,1.1302,1.5096,-43.5000,-4.3125,8.9062,
3.946077,-9.7265,-27.9517,56.6614,-1.4657,1.1302,1.5096,-43.5000,-4.3125,8.9062,
3.947533,-0.1499,-11.6005,-39.0554,-1.4657,1.1302,1.5096,-43.5000,-4.3125,8.9062,
3.980905,-0.1499,-11.6005,-39.0554,-1.4657,1.1302,1.5096,-43.5000,-4.3125,8.9062,
3.982810,-0.1499,-11.6005,-39.0554,-1.4657,1.1302,1.5096,-43.5000,-4.3125,8.9062,
3.998951,22.6477,2.7886,-9.8240,-1.4657,1.1302,1.5096,-43.5000,-4.3125,8.9062,
4.001049,22.6477,2.7886,-9.8240,-0.9622,0.2368,-1.2066,-43.5000,-4.3125,8.9062,
4.001551,22.6477,2.7886,-9.8240,-0.9622,0.2368,-1.2066,-43.5000,-4.3125,8.9062,
4.012824,22.6477,2.7886,-9.8240,-0.9622,0.2368,-1.2066,-43.5000,-4.5000,5.7375,
4.054652,22.6477,2.7886,-9.8240,-0.9622,0.2368,-1.2066,-43.5000,-4.5000,5.7375,
4.056409,22.6477,2.7886,-9.8240,-0.9622,0.2368,-1.2066,-43.5000,-4.5000,5.7375,
14.895285,22.6477,2.7886,-9.8240,-0.9622,0.2368,-1.2066,-43.5000,-4.5000,5.7375,
14.895776,22.6477,2.7886,-9.8240,-0.9622,0.2368,-1.2066,-43.5000,-4.5000,5.7375,
14.896246,22.6477,2.7886,-9.8240,-0.9622,0.2368,-1.2066,-43.5000,-4.5000,5.7375,
14.896613,22.6477,2.7886,-9.8240,-0.9622,0.2368,-1.2066,-43.5000,-4.5000,5.7375,
14.896966,22.6477,2.7886,-9.8240,-0.9622,0.2368,-1.2066,-43.5000,-4.5000,5.7375,
14.897306,22.6477,2.7886,-9.8240,-0.6872,-0.1620,0.1394,-43.5000,-4.5000,5.7375,
14.897814,22.6477,2.7886,-9.8240,-0.6872,-0.1620,0.1394,-43.5000,-4.5000,5.7375,
14.898157,22.6477,2.7886,-9.8240,-0.6872,-0.1620,0.1394,-43.5000,-4.5000,5.7375,
14.913797,22.6477,2.7886,-9.8240,-0.6872,-0.1620,0.1394,-43.5000,-4.5000,5.7375,
14.914320,0.0000,0.0000,0.0000,-0.6872,-0.1620,0.1394,-43.5000,-4.5000,5.7375,
14.914677,0.0000,0.0000,0.0000,-0.6872,-0.1620,0.1394,-37.5188,-27.0563,-3.1313,
14.942031,0.0000,0.0000,0.0000,-0.7998,-0.4713,0.3117,-37.5188,-27.0563,-3.1313,
14.958320,0.0000,0.0000,0.0000,-0.7998,-0.4713,0.3117,-37.5188,-27.0563,-3.1313,
14.958783,0.0000,0.0000,0.0000,-0.7998,-0.4713,0.3117,-37.5188,-27.0563,-3.1313,
14.970103,0.2848,0.6277,0.0558,-0.7998,-0.4713,0.3117,-37.5188,-27.0563,-3.1313,
14.971052,0.2848,0.6277,0.0558,-0.7998,-0.4713,0.3117,-37.5188,-27.0563,-3.1313,
14.993867,0.2848,0.6277,0.0558,-0.7998,-0.4713,0.3117,-37.5188,-27.0563,-3.1313,
14.994497,0.2848,0.6277,0.0558,-0.7998,-0.4713,0.3117,-38.4188,-26.9063,-3.2625,
15.008834,0.2848,0.6277,0.0558,-0.7484,-0.4197,0.6062,-38.4188,-26.9063,-3.2625,
15.026904,0.2848,0.6277,0.0558,-0.7484,-0.4197,0.6062,-38.4188,-26.9063,-3.2625,
15.031140,0.3201,0.2286,-0.2903,-0.7484,-0.4197,0.6062,-38.4188,-26.9063,-3.2625,
15.033001,0.3201,0.2286,-0.2903,-0.7484,-0.4197,0.6062,-38.4188,-26.9063,-3.2625,
15.052590,0.3201,0.2286,-0.2903,-0.7484,-0.4197,0.6062,-39.0000,-26.0250,-3.4313,
15.053419,0.3201,0.2286,-0.2903,-0.7484,-0.4197,0.6062,-39.0000,-26.0250,-3.4313,
15.068603,0.3201,0.2286,-0.2903,-0.5171,0.0538,0.1746,-39.0000,-26.0250,-3.4313,
15.090067,0.3201,0.2286,-0.2903,-0.5171,0.0538,0.1746,-39.0000,-26.0250,-3.4313,
15.091113,0.3201,0.2286,-0.2903,-0.5171,0.0538,0.1746,-39.0000,-26.0250,-3.4313,
15.091570,0.7576,-0.9420,-0.5858,-0.5171,0.0538,0.1746,-39.0000,-26.0250,-3.4313,
15.114291,0.7576,-0.9420,-0.5858,-0.5171,0.0538,0.1746,-39.0000,-26.0250,-3.4313,
15.115631,0.7576,-0.9420,-0.5858,-0.5171,0.0538,0.1746,-39.0563,-25.3688,-3.7313,
15.129469,0.7576,-0.9420,-0.5858,-0.5030,-0.0313,0.1058,-39.0563,-25.3688,-3.7313,
15.148872,0.7576,-0.9420,-0.5858,-0.5030,-0.0313,0.1058,-39.0563,-25.3688,-3.7313,
15.149516,0.7576,-0.9420,-0.5858,-0.5030,-0.0313,0.1058,-39.0563,-25.3688,-3.7313,
15.149835,-0.1247,-0.4287,0.3085,-0.5030,-0.0313,0.1058,-39.0563,-25.3688,-3.7313,
15.195695,-0.1247,-0.4287,0.3085,-0.5030,-0.0313,0.1058,-39.0563,-25.3688,-3.7313,
15.196515,-0.1247,-0.4287,0.3085,-0.5030,-0.0313,0.1058,-39.0563,-25.3688,-3.7313,
15.196889,-0.1247,-0.4287,0.3085,-0.5030,-0.0313,0.1058,-39.1500,-25.0875,-4.0688,
15.208872,-0.1247,-0.4287,0.3085,-0.2230,0.0405,0.2512,-39.1500,-25.0875,-4.0688,
15.209783,-0.0440,-0.5031,0.0609,-0.2230,0.0405,0.2512,-39.1500,-25.0875,-4.0688,
15.210237,-0.0440,-0.5031,0.0609,-0.2230,0.0405,0.2512,-39.1500,-25.0875,-4.0688,
15.252381,-0.0440,-0.5031,0.0609,-0.2230,0.0405,0.2512,-39.1500,-25.0875,-4.0688,
15.253076,-0.0440,-0.5031,0.0609,-0.2230,0.0405,0.2512,-39.1500,-25.0875,-4.0688,
15.253460,-0.0440,-0.5031,0.0609,-0.2230,0.0405,0.2512,-39.3375,-24.6938,-4.3313,
15.269904,-0.0440,-0.5031,0.0609,0.4553,0.6542,0.2708,-39.3375,-24.6938,-4.3313,
15.271135,0.6914,-0.4501,-0.5583,0.4553,0.6542,0.2708,-39.3375,-24.6938,-4.3313,
15.271842,0.6914,-0.4501,-0.5583,0.4553,0.6542,0.2708,-39.3375,-24.6938,-4.3313,
15.291794,0.6914,-0.4501,-0.5583,0.4553,0.6542,0.2708,-39.3375,-24.6938,-4.3313,
