
time,ax,ay,az,wx,wy,wz,Bx,By,Bz,
0.132452,0.0000,0.0000,0.0000,0.0000,0.0000,0.0000,0.0000,0.0000,0.0000,
0.134436,0.0000,0.0000,0.0000,0.0000,0.0000,0.0000,0.0000,0.0000,0.0000,
0.135778,0.0000,0.0000,0.0000,0.0000,0.0000,0.0000,0.0000,0.0000,0.0000,
0.136960,0.0000,0.0000,0.0000,0.0000,0.0000,0.0000,0.0000,0.0000,0.0000,
0.137956,0.0000,0.0000,0.0000,0.0000,0.0000,0.0000,0.0000,0.0000,0.0000,
0.154404,0.0000,0.0000,0.0000,0.0000,0.0000,0.0000,0.0000,0.0000,0.0000,
0.155303,0.0000,0.0000,0.0000,-0.0230,-0.1185,0.0215,0.0000,0.0000,0.0000,
0.175927,0.0000,0.0000,0.0000,-0.0230,-0.1185,0.0215,0.0000,0.0000,0.0000,
0.176881,0.0000,0.0000,0.0000,-0.0230,-0.1185,0.0215,0.0000,0.0000,0.0000,
0.208207,0.0000,0.0000,0.0000,-0.0230,-0.1185,0.0215,-41.9625,7.2000,5.6813,
0.209932,0.0000,0.0000,0.0000,-0.0230,-0.1185,0.0215,-41.9625,7.2000,5.6813,
0.212442,0.0000,0.0000,0.0000,0.0079,-0.1087,0.0317,-41.9625,7.2000,5.6813,
0.214145,0.0000,0.0000,0.0000,0.0079,-0.1087,0.0317,-41.9625,7.2000,5.6813,
0.215122,0.0000,0.0000,0.0000,0.0079,-0.1087,0.0317,-41.9625,7.2000,5.6813,
0.242326,0.0000,0.0000,0.0000,0.0079,-0.1087,0.0317,-41.9625,7.2000,5.6813,
0.275145,0.0000,0.0000,0.0000,0.0079,-0.1087,0.0317,-41.9625,7.2000,5.6813,
0.278430,0.0000,0.0000,0.0000,0.0079,-0.1087,0.0317,-41.9625,7.2000,5.6813,
0.280512,0.1695,0.0296,-0.0540,0.0079,-0.1087,0.0317,-41.9625,7.2000,5.6813,
0.283035,0.1695,0.0296,-0.0540,0.0079,-0.1087,0.0317,-41.6625,7.6125,5.8313,
0.293715,0.1695,0.0296,-0.0540,-0.0167,0.0902,0.0173,-41.6625,7.6125,5.8313,
0.310291,0.1695,0.0296,-0.0540,-0.0167,0.0902,0.0173,-41.6625,7.6125,5.8313,
0.328885,0.1695,0.0296,-0.0540,-0.0167,0.0902,0.0173,-41.6625,7.6125,5.8313,
0.331341,0.1695,0.0296,-0.0540,-0.0167,0.0902,0.0173,-41.4563,7.5750,5.4000,
0.334482,0.6071,0.1360,-0.2735,-0.0167,0.0902,0.0173,-41.4563,7.5750,5.4000,
0.337668,0.6071,0.1360,-0.2735,-0.0167,0.0902,0.0173,-41.4563,7.5750,5.4000,
0.356282,0.6071,0.1360,-0.2735,-0.2065,0.3343,-0.0736,-41.4563,7.5750,5.4000,
0.375957,0.6071,0.1360,-0.2735,-0.2065,0.3343,-0.0736,-41.4563,7.5750,5.4000,
0.377517,0.6071,0.1360,-0.2735,-0.2065,0.3343,-0.0736,-41.4563,7.5750,5.4000,
0.393865,0.6071,0.1360,-0.2735,-0.2065,0.3343,-0.0736,-41.4563,7.5750,5.4000,
0.394679,0.3180,-0.0452,-0.2572,-0.2065,0.3343,-0.0736,-41.4563,7.5750,5.4000,
0.408541,0.3180,-0.0452,-0.2572,-0.2065,0.3343,-0.0736,-41.7000,7.3500,5.2500,
0.411985,0.3180,-0.0452,-0.2572,-0.1542,-0.0131,-0.2420,-41.7000,7.3500,5.2500,
0.443191,0.3180,-0.0452,-0.2572,-0.1542,-0.0131,-0.2420,-41.7000,7.3500,5.2500,
0.444542,0.3180,-0.0452,-0.2572,-0.1542,-0.0131,-0.2420,-41.7000,7.3500,5.2500,
0.456691,0.3180,-0.0452,-0.2572,-0.1542,-0.0131,-0.2420,-41.7000,7.3500,5.2500,
0.457920,-0.3617,-0.3020,0.1489,-0.1542,-0.0131,-0.2420,-41.7000,7.3500,5.2500,
0.467367,-0.3617,-0.3020,0.1489,-0.1542,-0.0131,-0.2420,-41.6813,7.0313,4.9500,
0.494903,-0.3617,-0.3020,0.1489,-0.1542,-0.0131,-0.2420,-41.6813,7.0313,4.9500,
0.497631,-0.3617,-0.3020,0.1489,-0.0562,-0.0709,-0.1786,-41.6813,7.0313,4.9500,
0.510084,-0.3617,-0.3020,0.1489,-0.0562,-0.0709,-0.1786,-41.6813,7.0313,4.9500,
0.515367,-0.6590,-0.1200,0.0406,-0.0562,-0.0709,-0.1786,-41.6813,7.0313,4.9500,
0.519037,-0.6590,-0.1200,0.0406,-0.0562,-0.0709,-0.1786,-41.6813,7.0313,4.9500,
0.528505,-0.6590,-0.1200,0.0406,-0.0562,-0.0709,-0.1786,-41.6625,6.6750,4.9688,
0.555260,-0.6590,-0.1200,0.0406,-0.0562,-0.0709,-0.1786,-41.6625,6.6750,4.9688,
0.558079,-0.6590,-0.1200,0.0406,-0.1129,-0.0679,-0.2020,-41.6625,6.6750,4.9688,
0.573416,-0.6551,0.0449,-0.0388,-0.1129,-0.0679,-0.2020,-41.6625,6.6750,4.9688,
0.576797,-0.6551,0.0449,-0.0388,-0.1129,-0.0679,-0.2020,-41.6625,6.6750,4.9688,
0.579198,-0.6551,0.0449,-0.0388,-0.1129,-0.0679,-0.2020,-41.6625,6.6750,4.9688,
0.610784,-0.6551,0.0449,-0.0388,-0.1129,-0.0679,-0.2020,-41.6625,6.6750,4.9688,
0.613684,-0.6551,0.0449,-0.0388,-0.1129,-0.0679,-0.2020,-41.7750,6.3375,4.9313,
0.616621,-0.6551,0.0449,-0.0388,-0.1557,0.0670,-0.1763,-41.7750,6.3375,4.9313,
0.634792,-0.6809,-0.1560,0.2215,-0.1557,0.0670,-0.1763,-41.7750,6.3375,4.9313,
0.639485,-0.6809,-0.1560,0.2215,-0.1557,0.0670,-0.1763,-41.7750,6.3375,4.9313,
0.641287,-0.6809,-0.1560,0.2215,-0.1557,0.0670,-0.1763,-41.7750,6.3375,4.9313,
0.670847,-0.6809,-0.1560,0.2215,-0.1557,0.0670,-0.1763,-41.7188,5.9250,4.9875,
0.674474,-0.6809,-0.1560,0.2215,-0.1557,0.0670,-0.1763,-41.7188,5.9250,4.9875,
0.694751,-0.6809,-0.1560,0.2215,-0.0476,0.1435,-0.1580,-41.7188,5.9250,4.9875,
0.697511,-0.4659,-0.2121,0.3584,-0.0476,0.1435,-0.1580,-41.7188,5.9250,4.9875,
0.700071,-0.4659,-0.2121,0.3584,-0.0476,0.1435,-0.1580,-41.7188,5.9250,4.9875,
0.701787,-0.4659,-0.2121,0.3584,-0.0476,0.1435,-0.1580,-41.7188,5.9250,4.9875,
0.729801,-0.4659,-0.2121,0.3584,-0.0476,0.1435,-0.1580,-41.8125,5.4375,4.8188,
0.732985,-0.4659,-0.2121,0.3584,-0.0476,0.1435,-0.1580,-41.8125,5.4375,4.8188,
0.754253,-0.4255,0.2861,-0.1595,-0.0476,0.1435,-0.1580,-41.8125,5.4375,4.8188,
0.757127,-0.4255,0.2861,-0.1595,-0.1474,0.2187,-0.0793,-41.8125,5.4375,4.8188,
0.758885,-0.4255,0.2861,-0.1595,-0.1474,0.2187,-0.0793,-41.8125,5.4375,4.8188,
0.760079,-0.4255,0.2861,-0.1595,-0.1474,0.2187,-0.0793,-41.8125,5.4375,4.8188,
0.776754,-0.4255,0.2861,-0.1595,-0.1474,0.2187,-0.0793,-41.8125,5.4375,4.8188,
0.808989,-0.4255,0.2861,-0.1595,-0.1474,0.2187,-0.0793,-41.9438,4.8375,4.5750,
0.813786,-0.4255,0.2861,-0.1595,-0.1474,0.2187,-0.0793,-41.9438,4.8375,4.5750,
0.816655,-0.4255,0.2861,-0.1595,-0.1539,0.1301,0.0230,-41.9438,4.8375,4.5750,
0.820248,-0.3580,0.2618,0.1338,-0.1539,0.1301,0.0230,-41.9438,4.8375,4.5750,
0.824447,-0.3580,0.2618,0.1338,-0.1539,0.1301,0.0230,-41.9438,4.8375,4.5750,
0.844967,-0.3580,0.2618,0.1338,-0.1539,0.1301,0.0230,-41.9438,4.8375,4.5750,
0.881458,-0.3580,0.2618,0.1338,-0.1539,0.1301,0.0230,-42.0188,4.2938,4.4438,
0.885426,-0.3580,0.2618,0.1338,-0.1539,0.1301,0.0230,-42.0188,4.2938,4.4438,
0.887138,-0.1299,0.5776,0.1044,-0.1539,0.1301,0.0230,-42.0188,4.2938,4.4438,
0.889478,-0.1299,0.5776,0.1044,-0.1539,0.1301,0.0230,-42.0188,4.2938,4.4438,
0.896101,-0.1299,0.5776,0.1044,-0.3002,0.0657,0.0728,-42.0188,4.2938,4.4438,
0.913746,-0.1299,0.5776,0.1044,-0.3002,0.0657,0.0728,-42.0188,4.2938,4.4438,
0.930349,-0.1299,0.5776,0.1044,-0.3002,0.0657,0.0728,-42.0375,3.7688,4.3500,
0.933536,-0.1299,0.5776,0.1044,-0.3002,0.0657,0.0728,-42.0375,3.7688,4.3500,
0.935440,-0.1299,0.5776,0.1044,-0.3002,0.0657,0.0728,-42.0375,3.7688,4.3500,
0.937161,0.0802,0.6636,0.1995,-0.3002,0.0657,0.0728,-42.0375,3.7688,4.3500,
0.963635,0.0802,0.6636,0.1995,-0.3738,0.0016,0.0928,-42.0375,3.7688,4.3500,
0.977034,0.0802,0.6636,0.1995,-0.3738,0.0016,0.0928,-42.0375,3.7688,4.3500,
0.978969,0.0802,0.6636,0.1995,-0.3738,0.0016,0.0928,-42.0375,3.7688,4.3500,
0.997595,0.3540,0.4319,0.2632,-0.3738,0.0016,0.0928,-42.0375,3.7688,4.3500,
0.999449,0.3540,0.4319,0.2632,-0.3738,0.0016,0.0928,-42.0375,3.7688,4.3500,
1.008811,0.3540,0.4319,0.2632,-0.3738,0.0016,0.0928,-42.1313,3.3750,4.3688,
1.016581,0.3540,0.4319,0.2632,-0.3987,-0.0402,0.1029,-42.1313,3.3750,4.3688,
1.045684,0.3540,0.4319,0.2632,-0.3987,-0.0402,0.1029,-42.1313,3.3750,4.3688,
1.048255,0.3540,0.4319,0.2632,-0.3987,-0.0402,0.1029,-42.1313,3.3750,4.3688,
1.062801,0.3540,0.4319,0.2632,-0.3987,-0.0402,0.1029,-42.1313,3.3750,4.3688,
1.065492,0.4407,0.8630,0.0020,-0.3987,-0.0402,0.1029,-42.1313,3.3750,4.3688,
1.079438,0.4407,0.8630,0.0020,-0.3987,-0.0402,0.1029,-42.2250,3.1313,4.2000,
1.098681,0.4407,0.8630,0.0020,-0.3987,-0.0402,0.1029,-42.2250,3.1313,4.2000,
1.101759,0.4407,0.8630,0.0020,-0.7319,0.0725,0.1345,-42.2250,3.1313,4.2000,
1.114281,0.4407,0.8630,0.0020,-0.7319,0.0725,0.1345,-42.2250,3.1313,4.2000,
1.116953,0.5115,0.9322,-0.0762,-0.7319,0.0725,0.1345,-42.2250,3.1313,4.2000,
1.119430,0.5115,0.9322,-0.0762,-0.7319,0.0725,0.1345,-42.2250,3.1313,4.2000,
1.127876,0.5115,0.9322,-0.0762,-0.7319,0.0725,0.1345,-42.1500,2.8875,4.0125,
1.162596,0.5115,0.9322,-0.0762,-0.7319,0.0725,0.1345,-42.1500,2.8875,4.0125,
1.166634,0.5115,0.9322,-0.0762,-0.8378,-0.0029,0.1339,-42.1500,2.8875,4.0125,
1.180597,0.5115,0.9322,-0.0762,-0.8378,-0.0029,0.1339,-42.1500,2.8875,4.0125,
1.183894,0.5115,0.9322,-0.0762,-0.8378,-0.0029,0.1339,-42.1500,2.8875,4.0125,
1.186172,0.2543,0.5688,0.4733,-0.8378,-0.0029,0.1339,-42.1500,2.8875,4.0125,
1.214559,0.2543,0.5688,0.4733,-0.8378,-0.0029,0.1339,-42.3375,2.9062,3.8625,
1.218550,0.2543,0.5688,0.4733,-0.8378,-0.0029,0.1339,-42.3375,2.9062,3.8625,
1.221014,0.2543,0.5688,0.4733,-0.9149,-0.1823,0.1833,-42.3375,2.9062,3.8625,
1.234925,-0.1913,1.2339,0.1042,-0.9149,-0.1823,0.1833,-42.3375,2.9062,3.8625,
1.238806,-0.1913,1.2339,0.1042,-0.9149,-0.1823,0.1833,-42.3375,2.9062,3.8625,
1.241154,-0.1913,1.2339,0.1042,-0.9149,-0.1823,0.1833,-42.3375,2.9062,3.8625,
1.268216,-0.1913,1.2339,0.1042,-0.9149,-0.1823,0.1833,-42.3563,2.8313,3.8250,
1.271855,-0.1913,1.2339,0.1042,-0.9149,-0.1823,0.1833,-42.3563,2.8313,3.8250,
1.297486,-0.1913,1.2339,0.1042,-0.9160,-0.0056,0.2995,-42.3563,2.8313,3.8250,
1.301543,-0.0459,0.6965,0.7573,-0.9160,-0.0056,0.2995,-42.3563,2.8313,3.8250,
1.305405,-0.0459,0.6965,0.7573,-0.9160,-0.0056,0.2995,-42.3563,2.8313,3.8250,
1.307651,-0.0459,0.6965,0.7573,-0.9160,-0.0056,0.2995,-42.3563,2.8313,3.8250,
1.330058,-0.0459,0.6965,0.7573,-0.9160,-0.0056,0.2995,-42.4125,2.8313,3.8813,
1.333743,-0.0459,0.6965,0.7573,-0.9160,-0.0056,0.2995,-42.4125,2.8313,3.8813,
1.364152,-0.0459,0.6965,0.7573,-0.9160,-0.0056,0.2995,-42.4125,2.8313,3.8813,
1.367050,-0.0459,0.6965,0.7573,-0.9160,-0.0056,0.2995,-42.4125,2.8313,3.8813,
1.368947,-0.0459,0.6965,0.7573,-0.8187,-0.1519,0.0719,-42.4125,2.8313,3.8813,
1.371450,0.1604,0.5220,1.7060,-0.8187,-0.1519,0.0719,-42.4125,2.8313,3.8813,
1.379791,0.1604,0.5220,1.7060,-0.8187,-0.1519,0.0719,-42.4125,2.8313,3.8813,
1.411983,0.1604,0.5220,1.7060,-0.8187,-0.1519,0.0719,-42.4125,2.8313,3.8813,
1.415292,0.1604,0.5220,1.7060,-0.8187,-0.1519,0.0719,-42.4688,2.7563,4.0875,
1.417834,0.1604,0.5220,1.7060,-0.4457,0.3229,0.0383,-42.4688,2.7563,4.0875,
1.420383,0.1604,0.5220,1.7060,-0.4457,0.3229,0.0383,-42.4688,2.7563,4.0875,
1.422291,0.6139,0.2446,2.0250,-0.4457,0.3229,0.0383,-42.4688,2.7563,4.0875,
1.446646,0.6139,0.2446,2.0250,-0.4457,0.3229,0.0383,-42.4688,2.7563,4.0875,
1.477971,0.6139,0.2446,2.0250,-0.4457,0.3229,0.0383,-42.4688,2.7750,4.0312,
1.480789,0.6139,0.2446,2.0250,-0.4457,0.3229,0.0383,-42.4688,2.7750,4.0312,
1.482117,0.6139,0.2446,2.0250,-0.4457,0.3229,0.0383,-42.4688,2.7750,4.0312,
1.483546,0.3676,1.2067,1.8409,-0.4457,0.3229,0.0383,-42.4688,2.7750,4.0312,
1.496059,0.3676,1.2067,1.8409,0.0525,0.5524,0.1089,-42.4688,2.7750,4.0312,
1.510976,0.3676,1.2067,1.8409,0.0525,0.5524,0.1089,-42.4688,2.7750,4.0312,
1.530509,0.3676,1.2067,1.8409,0.0525,0.5524,0.1089,-42.4688,2.7750,4.0312,
1.533626,0.3676,1.2067,1.8409,0.0525,0.5524,0.1089,-42.5813,2.8125,3.8063,
1.536642,0.3676,1.2067,1.8409,0.0525,0.5524,0.1089,-42.5813,2.8125,3.8063,
1.538845,0.2603,2.9926,0.9250,0.0525,0.5524,0.1089,-42.5813,2.8125,3.8063,
1.561989,0.2603,2.9926,0.9250,-0.4788,0.3276,0.0475,-42.5813,2.8125,3.8063,
1.578664,0.2603,2.9926,0.9250,-0.4788,0.3276,0.0475,-42.5813,2.8125,3.8063,
1.581251,0.2603,2.9926,0.9250,-0.4788,0.3276,0.0475,-42.5813,2.8125,3.8063,
1.596087,-0.1571,6.4439,0.3149,-0.4788,0.3276,0.0475,-42.5813,2.8125,3.8063,
1.598692,-0.1571,6.4439,0.3149,-0.4788,0.3276,0.0475,-42.5813,2.8125,3.8063,
1.611378,-0.1571,6.4439,0.3149,-0.4788,0.3276,0.0475,-42.5625,2.5688,3.7688,
1.615443,-0.1571,6.4439,0.3149,-2.9748,-0.6187,0.3220,-42.5625,2.5688,3.7688,
1.647141,-0.1571,6.4439,0.3149,-2.9748,-0.6187,0.3220,-42.5625,2.5688,3.7688,
1.649612,-0.1571,6.4439,0.3149,-2.9748,-0.6187,0.3220,-42.5625,2.5688,3.7688,
1.662320,-0.1571,6.4439,0.3149,-2.9748,-0.6187,0.3220,-42.5625,2.5688,3.7688,
1.665043,-0.0638,8.4635,-1.8696,-2.9748,-0.6187,0.3220,-42.5625,2.5688,3.7688,
1.679653,-0.0638,8.4635,-1.8696,-2.9748,-0.6187,0.3220,-42.7125,2.7563,3.9000,
1.694410,-0.0638,8.4635,-1.8696,-2.9748,-0.6187,0.3220,-42.7125,2.7563,3.9000,
1.696387,-0.0638,8.4635,-1.8696,-1.7594,-1.1550,2.8026,-42.7125,2.7563,3.9000,
1.710930,-0.0638,8.4635,-1.8696,-1.7594,-1.1550,2.8026,-42.7125,2.7563,3.9000,
1.714080,-1.4850,4.7101,2.9498,-1.7594,-1.1550,2.8026,-42.7125,2.7563,3.9000,
1.716294,-1.4850,4.7101,2.9498,-1.7594,-1.1550,2.8026,-42.7125,2.7563,3.9000,
1.729938,-1.4850,4.7101,2.9498,-1.7594,-1.1550,2.8026,-42.3375,3.6375,4.5563,
1.761043,-1.4850,4.7101,2.9498,-1.7594,-1.1550,2.8026,-42.3375,3.6375,4.5563,
1.763915,-1.4850,4.7101,2.9498,-1.3030,-3.6579,2.1059,-42.3375,3.6375,4.5563,
1.779168,-1.4850,4.7101,2.9498,-1.3030,-3.6579,2.1059,-42.3375,3.6375,4.5563,
1.781787,-1.4850,4.7101,2.9498,-1.3030,-3.6579,2.1059,-42.3375,3.6375,4.5563,
1.783739,-2.6256,4.6562,-6.2623,-1.3030,-3.6579,2.1059,-42.3375,3.6375,4.5563,
1.798374,-2.6256,4.6562,-6.2623,-1.3030,-3.6579,2.1059,-42.3375,3.6375,4.5563,
1.811338,-2.6256,4.6562,-6.2623,-1.3030,-3.6579,2.1059,-41.3063,4.8563,6.7313,
1.816824,-2.6256,4.6562,-6.2623,-2.1832,-1.8177,1.9801,-41.3063,4.8563,6.7313,
1.844917,-2.6256,4.6562,-6.2623,-2.1832,-1.8177,1.9801,-41.3063,4.8563,6.7313,
1.847030,-2.6256,4.6562,-6.2623,-2.1832,-1.8177,1.9801,-41.3063,4.8563,6.7313,
1.848373,-5.4095,-6.3830,-11.5848,-2.1832,-1.8177,1.9801,-41.3063,4.8563,6.7313,
1.882124,-5.4095,-6.3830,-11.5848,-2.1832,-1.8177,1.9801,-40.0875,6.3750,9.0188,
1.886850,-5.4095,-6.3830,-11.5848,-2.1832,-1.8177,1.9801,-40.0875,6.3750,9.0188,
1.900873,-5.4095,-6.3830,-11.5848,-2.1832,-1.8177,1.9801,-40.0875,6.3750,9.0188,
1.904530,-5.4095,-6.3830,-11.5848,-2.1832,-1.8177,1.9801,-40.0875,6.3750,9.0188,
1.906792,-5.4095,-6.3830,-11.5848,-2.5553,0.0946,4.5888,-40.0875,6.3750,9.0188,
1.909146,-1.4184,-15.1740,7.8564,-2.5553,0.0946,4.5888,-40.0875,6.3750,9.0188,
1.928207,-1.4184,-15.1740,7.8564,-2.5553,0.0946,4.5888,-40.0875,6.3750,9.0188,
1.930536,-1.4184,-15.1740,7.8564,-2.5553,0.0946,4.5888,-38.8875,7.5750,12.0938,
1.955509,-1.4184,-15.1740,7.8564,-2.5553,0.0946,4.5888,-38.8875,7.5750,12.0938,
1.956651,-1.4184,-15.1740,7.8564,-2.5553,0.0946,4.5888,-38.8875,7.5750,12.0938,
1.957545,-1.4184,-15.1740,7.8564,-12.4635,8.3215,10.1684,-38.8875,7.5750,12.0938,
1.959133,-7.9298,-14.8533,5.8824,-12.4635,8.3215,10.1684,-38.8875,7.5750,12.0938,
1.976161,-7.9298,-14.8533,5.8824,-12.4635,8.3215,10.1684,-38.8875,7.5750,12.0938,
1.999713,-7.9298,-14.8533,5.8824,-12.4635,8.3215,10.1684,-38.8875,7.5750,12.0938,
2.007627,-7.9298,-14.8533,5.8824,-12.4635,8.3215,10.1684,-38.5500,9.2250,11.4563,
2.013460,-7.9298,-14.8533,5.8824,2.3669,1.0170,0.1064,-38.5500,9.2250,11.4563,
2.014181,-7.9298,-14.8533,5.8824,2.3669,1.0170,0.1064,-38.5500,9.2250,11.4563,
2.014839,-18.1857,-18.0260,-3.5869,2.3669,1.0170,0.1064,-38.5500,9.2250,11.4563,
2.042030,-18.1857,-18.0260,-3.5869,2.3669,1.0170,0.1064,-38.5500,9.2250,11.4563,
2.058785,-18.1857,-18.0260,-3.5869,2.3669,1.0170,0.1064,-38.5500,9.2250,11.4563,
2.072432,-18.1857,-18.0260,-3.5869,2.3669,1.0170,0.1064,-38.3625,10.3688,10.4438,
2.078459,-1.4227,3.6372,-9.2997,2.3669,1.0170,0.1064,-38.3625,10.3688,10.4438,
2.081880,-1.4227,3.6372,-9.2997,2.3669,1.0170,0.1064,-38.3625,10.3688,10.4438,
2.096954,-1.4227,3.6372,-9.2997,-0.6413,-2.9731,2.1427,-38.3625,10.3688,10.4438,
2.108011,-1.4227,3.6372,-9.2997,-0.6413,-2.9731,2.1427,-38.3625,10.3688,10.4438,
2.128522,-1.4227,3.6372,-9.2997,-0.6413,-2.9731,2.1427,-37.8938,12.7313,9.7875,
2.131046,-1.4227,3.6372,-9.2997,-0.6413,-2.9731,2.1427,-37.8938,12.7313,9.7875,
2.139143,-0.4187,1.4322,-2.1712,-0.6413,-2.9731,2.1427,-37.8938,12.7313,9.7875,
2.142137,-0.4187,1.4322,-2.1712,-0.6413,-2.9731,2.1427,-37.8938,12.7313,9.7875,
2.155238,-0.4187,1.4322,-2.1712,-0.0697,-0.2461,3.3448,-37.8938,12.7313,9.7875,
2.177847,-0.4187,1.4322,-2.1712,-0.0697,-0.2461,3.3448,-37.8938,12.7313,9.7875,
2.179342,-0.4187,1.4322,-2.1712,-0.0697,-0.2461,3.3448,-37.8938,12.7313,9.7875,
2.194947,10.0647,-2.5242,-1.6559,-0.0697,-0.2461,3.3448,-37.8938,12.7313,9.7875,
2.196347,10.0647,-2.5242,-1.6559,-0.0697,-0.2461,3.3448,-37.8938,12.7313,9.7875,
2.208404,10.0647,-2.5242,-1.6559,-0.0697,-0.2461,3.3448,-37.0875,15.8063,8.8688,
2.214817,10.0647,-2.5242,-1.6559,-0.5785,0.3761,0.1277,-37.0875,15.8063,8.8688,
2.242787,10.0647,-2.5242,-1.6559,-0.5785,0.3761,0.1277,-37.0875,15.8063,8.8688,
2.244521,10.0647,-2.5242,-1.6559,-0.5785,0.3761,0.1277,-37.0875,15.8063,8.8688,
2.254296,7.7954,-2.7808,-0.0609,-0.5785,0.3761,0.1277,-37.0875,15.8063,8.8688,
2.255947,7.7954,-2.7808,-0.0609,-0.5785,0.3761,0.1277,-37.0875,15.8063,8.8688,
2.268328,7.7954,-2.7808,-0.0609,-0.5785,0.3761,0.1277,-36.9000,17.8125,6.5813,
2.296698,7.7954,-2.7808,-0.0609,0.2798,0.2799,0.1295,-36.9000,17.8125,6.5813,
2.298395,7.7954,-2.7808,-0.0609,0.2798,0.2799,0.1295,-36.9000,17.8125,6.5813,
2.308509,7.7954,-2.7808,-0.0609,0.2798,0.2799,0.1295,-36.9000,17.8125,6.5813,
2.316952,4.1493,2.5969,-1.5678,0.2798,0.2799,0.1295,-36.9000,17.8125,6.5813,
2.321266,4.1493,2.5969,-1.5678,0.2798,0.2799,0.1295,-36.9000,17.8125,6.5813,
2.329582,4.1493,2.5969,-1.5678,0.2798,0.2799,0.1295,-37.1063,19.5188,2.8125,
2.356239,4.1493,2.5969,-1.5678,0.2798,0.2799,0.1295,-37.1063,19.5188,2.8125,
2.358944,4.1493,2.5969,-1.5678,0.2933,0.1165,0.1319,-37.1063,19.5188,2.8125,
2.375299,4.1493,2.5969,-1.5678,0.2933,0.1165,0.1319,-37.1063,19.5188,2.8125,
2.378510,5.7470,2.9761,-0.7486,0.2933,0.1165,0.1319,-37.1063,19.5188,2.8125,
2.381991,5.7470,2.9761,-0.7486,0.2933,0.1165,0.1319,-37.1063,19.5188,2.8125,
2.407883,5.7470,2.9761,-0.7486,0.2933,0.1165,0.1319,-37.3313,20.8688,-1.3125,
2.411704,5.7470,2.9761,-0.7486,0.2933,0.1165,0.1319,-37.3313,20.8688,-1.3125,
2.415313,5.7470,2.9761,-0.7486,0.1526,-0.2880,0.0090,-37.3313,20.8688,-1.3125,
2.436836,5.7470,2.9761,-0.7486,0.1526,-0.2880,0.0090,-37.3313,20.8688,-1.3125,
2.438848,5.7470,2.9761,-0.7486,0.1526,-0.2880,0.0090,-37.3313,20.8688,-1.3125,
2.440080,5.3498,-0.3127,-2.2561,0.1526,-0.2880,0.0090,-37.3313,20.8688,-1.3125,
2.469958,5.3498,-0.3127,-2.2561,0.1526,-0.2880,0.0090,-37.3313,20.8688,-1.3125,
2.472275,5.3498,-0.3127,-2.2561,0.1526,-0.2880,0.0090,-37.5375,22.5563,-6.2813,
2.497569,5.3498,-0.3127,-2.2561,0.1526,-0.2880,0.0090,-37.5375,22.5563,-6.2813,
2.500748,5.3498,-0.3127,-2.2561,0.1526,-0.2880,0.0090,-37.5375,22.5563,-6.2813,
2.502929,5.3498,-0.3127,-2.2561,0.2217,-1.0887,0.0285,-37.5375,22.5563,-6.2813,
2.506478,5.1862,1.6028,-0.3442,0.2217,-1.0887,0.0285,-37.5375,22.5563,-6.2813,
2.531581,5.1862,1.6028,-0.3442,0.2217,-1.0887,0.0285,-37.5375,22.5563,-6.2813,
2.534402,5.1862,1.6028,-0.3442,0.2217,-1.0887,0.0285,-36.8250,23.6813,-7.2563,
2.555193,5.1862,1.6028,-0.3442,-0.0395,-0.0670,0.0079,-36.8250,23.6813,-7.2563,
2.557948,3.6202,0.2742,-4.5779,-0.0395,-0.0670,0.0079,-36.8250,23.6813,-7.2563,
2.560470,3.6202,0.2742,-4.5779,-0.0395,-0.0670,0.0079,-36.8250,23.6813,-7.2563,
2.562092,3.6202,0.2742,-4.5779,-0.0395,-0.0670,0.0079,-36.8250,23.6813,-7.2563,
2.576780,3.6202,0.2742,-4.5779,-0.0395,-0.0670,0.0079,-36.8250,23.6813,-7.2563,
2.608532,3.6202,0.2742,-4.5779,-0.0395,-0.0670,0.0079,-36.2063,25.1813,-7.6688,
2.611999,3.6202,0.2742,-4.5779,-0.0395,-0.0670,0.0079,-36.2063,25.1813,-7.6688,
2.616085,3.6202,0.2742,-4.5779,0.0790,-0.1377,-0.0434,-36.2063,25.1813,-7.6688,
2.619575,4.1054,-0.2733,-1.1952,0.0790,-0.1377,-0.0434,-36.2063,25.1813,-7.6688,
2.622421,4.1054,-0.2733,-1.1952,0.0790,-0.1377,-0.0434,-36.2063,25.1813,-7.6688,
2.642538,4.1054,-0.2733,-1.1952,0.0790,-0.1377,-0.0434,-36.2063,25.1813,-7.6688,
2.669924,4.1054,-0.2733,-1.1952,0.0790,-0.1377,-0.0434,-35.9625,25.7438,-8.3438,
2.674021,4.1054,-0.2733,-1.1952,0.0790,-0.1377,-0.0434,-35.9625,25.7438,-8.3438,
2.676003,3.5649,-0.3400,-1.7281,0.0790,-0.1377,-0.0434,-35.9625,25.7438,-8.3438,
2.679954,3.5649,-0.3400,-1.7281,0.0790,-0.1377,-0.0434,-35.9625,25.7438,-8.3438,
2.694724,3.5649,-0.3400,-1.7281,-0.1064,0.2963,-0.0794,-35.9625,25.7438,-8.3438,
2.709923,3.5649,-0.3400,-1.7281,-0.1064,0.2963,-0.0794,-35.9625,25.7438,-8.3438,
2.729555,3.5649,-0.3400,-1.7281,-0.1064,0.2963,-0.0794,-35.9625,25.7438,-8.3438,
2.731697,3.5649,-0.3400,-1.7281,-0.1064,0.2963,-0.0794,-35.9813,25.2563,-8.8688,
2.737930,3.2058,-0.1749,-0.9804,-0.1064,0.2963,-0.0794,-35.9813,25.2563,-8.8688,
2.740316,3.2058,-0.1749,-0.9804,-0.1064,0.2963,-0.0794,-35.9813,25.2563,-8.8688,
2.755315,3.2058,-0.1749,-0.9804,0.2046,0.6969,-0.0457,-35.9813,25.2563,-8.8688,
2.778246,3.2058,-0.1749,-0.9804,0.2046,0.6969,-0.0457,-35.9813,25.2563,-8.8688,
2.780926,3.2058,-0.1749,-0.9804,0.2046,0.6969,-0.0457,-35.9813,25.2563,-8.8688,
2.797346,3.4290,0.1260,-0.8092,0.2046,0.6969,-0.0457,-35.9813,25.2563,-8.8688,
2.799152,3.4290,0.1260,-0.8092,0.2046,0.6969,-0.0457,-35.9813,25.2563,-8.8688,
2.808754,3.4290,0.1260,-0.8092,0.2046,0.6969,-0.0457,-35.6063,25.1063,-8.6250,
2.816727,3.4290,0.1260,-0.8092,0.3941,0.0186,-0.0618,-35.6063,25.1063,-8.6250,
2.844050,3.4290,0.1260,-0.8092,0.3941,0.0186,-0.0618,-35.6063,25.1063,-8.6250,
2.846691,3.4290,0.1260,-0.8092,0.3941,0.0186,-0.0618,-35.6063,25.1063,-8.6250,
2.855027,3.4290,0.1260,-0.8092,0.3941,0.0186,-0.0618,-35.6063,25.1063,-8.6250,
2.857789,3.9381,-0.1800,-1.6267,0.3941,0.0186,-0.0618,-35.6063,25.1063,-8.6250,
2.872188,3.9381,-0.1800,-1.6267,0.3941,0.0186,-0.0618,-35.6063,24.9188,-8.4563,
2.896620,3.9381,-0.1800,-1.6267,0.3941,0.0186,-0.0618,-35.6063,24.9188,-8.4563,
2.900199,3.9381,-0.1800,-1.6267,-0.1770,0.1010,-0.0017,-35.6063,24.9188,-8.4563,
2.909315,3.9381,-0.1800,-1.6267,-0.1770,0.1010,-0.0017,-35.6063,24.9188,-8.4563,
2.921953,3.4157,-0.4010,-0.8988,-0.1770,0.1010,-0.0017,-35.6063,24.9188,-8.4563,
2.926355,3.4157,-0.4010,-0.8988,-0.1770,0.1010,-0.0017,-35.6063,24.9188,-8.4563,
2.928464,3.4157,-0.4010,-0.8988,-0.1770,0.1010,-0.0017,-35.7750,24.7688,-8.1000,
2.957305,3.4157,-0.4010,-0.8988,-0.1770,0.1010,-0.0017,-35.7750,24.7688,-8.1000,
2.959824,3.4157,-0.4010,-0.8988,0.2205,0.0075,-0.0115,-35.7750,24.7688,-8.1000,
2.974914,3.6308,-0.3745,-1.4945,0.2205,0.0075,-0.0115,-35.7750,24.7688,-8.1000,
2.978259,3.6308,-0.3745,-1.4945,0.2205,0.0075,-0.0115,-35.7750,24.7688,-8.1000,
2.980116,3.6308,-0.3745,-1.4945,0.2205,0.0075,-0.0115,-35.7750,24.7688,-8.1000,
3.010369,3.6308,-0.3745,-1.4945,0.2205,0.0075,-0.0115,-36.0375,24.6750,-7.7438,
3.014421,3.6308,-0.3745,-1.4945,0.2205,0.0075,-0.0115,-36.0375,24.6750,-7.7438,
3.016973,3.6308,-0.3745,-1.4945,-1.2722,0.2006,-0.0037,-36.0375,24.6750,-7.7438,
3.019838,3.6308,-0.3745,-1.4945,-1.2722,0.2006,-0.0037,-36.0375,24.6750,-7.7438,
3.038297,3.6308,-0.3745,-1.4945,-1.2722,0.2006,-0.0037,-36.0375,24.6750,-7.7438,
3.040566,3.2962,-1.5198,-1.8906,-1.2722,0.2006,-0.0037,-36.0375,24.6750,-7.7438,
3.058471,3.2962,-1.5198,-1.8906,-1.2722,0.2006,-0.0037,-36.0375,24.6750,-7.7438,
3.067840,3.2962,-1.5198,-1.8906,-1.2722,0.2006,-0.0037,-36.4875,24.7313,-7.3313,
3.075995,3.2962,-1.5198,-1.8906,-0.5940,0.0774,-0.0298,-36.4875,24.7313,-7.3313,
3.097217,3.2962,-1.5198,-1.8906,-0.5940,0.0774,-0.0298,-36.4875,24.7313,-7.3313,
3.100087,3.2962,-1.5198,-1.8906,-0.5940,0.0774,-0.0298,-36.4875,24.7313,-7.3313,
3.101872,3.3765,-0.4339,-0.7065,-0.5940,0.0774,-0.0298,-36.4875,24.7313,-7.3313,
3.130081,3.3765,-0.4339,-0.7065,-0.5940,0.0774,-0.0298,-36.4875,24.7313,-7.3313,
3.132947,3.3765,-0.4339,-0.7065,-0.5940,0.0774,-0.0298,-36.7688,24.8438,-6.6188,
3.155995,3.3765,-0.4339,-0.7065,-0.5940,0.0774,-0.0298,-36.7688,24.8438,-6.6188,
3.158437,3.3765,-0.4339,-0.7065,-0.5940,0.0774,-0.0298,-36.7688,24.8438,-6.6188,
3.159952,3.3765,-0.4339,-0.7065,-0.0812,0.0334,-0.0024,-36.7688,24.8438,-6.6188,
3.161358,3.2804,-0.0325,-0.4944,-0.0812,0.0334,-0.0024,-36.7688,24.8438,-6.6188,
3.175845,3.2804,-0.0325,-0.4944,-0.0812,0.0334,-0.0024,-36.7688,24.8438,-6.6188,
3.208414,3.2804,-0.0325,-0.4944,-0.0812,0.0334,-0.0024,-36.7688,24.8438,-6.6188,
3.211722,3.2804,-0.0325,-0.4944,-0.0812,0.0334,-0.0024,-37.2375,24.9188,-5.7563,
3.216765,3.2804,-0.0325,-0.4944,-0.0270,0.0086,-0.0010,-37.2375,24.9188,-5.7563,
3.219707,3.2739,-0.1065,-1.0859,-0.0270,0.0086,-0.0010,-37.2375,24.9188,-5.7563,
3.222711,3.2739,-0.1065,-1.0859,-0.0270,0.0086,-0.0010,-37.2375,24.9188,-5.7563,
3.243717,3.2739,-0.1065,-1.0859,-0.0270,0.0086,-0.0010,-37.2375,24.9188,-5.7563,
3.269422,3.2739,-0.1065,-1.0859,-0.0270,0.0086,-0.0010,-37.2375,24.9188,-5.7563,
3.273429,3.2739,-0.1065,-1.0859,-0.0270,0.0086,-0.0010,-37.4250,24.6938,-4.5938,
3.282355,3.2739,-0.1065,-1.0859,-0.0371,0.0044,-0.0041,-37.4250,24.6938,-4.5938,
3.286367,3.2739,-0.1065,-1.0859,-0.0371,0.0044,-0.0041,-37.4250,24.6938,-4.5938,
3.289127,3.2206,-0.1318,-1.0055,-0.0371,0.0044,-0.0041,-37.4250,24.6938,-4.5938,
3.313771,3.2206,-0.1318,-1.0055,-0.0371,0.0044,-0.0041,-37.4250,24.6938,-4.5938,
3.330152,3.2206,-0.1318,-1.0055,-0.0371,0.0044,-0.0041,-37.4250,24.6938,-4.5938,
3.332912,3.2206,-0.1318,-1.0055,-0.0371,0.0044,-0.0041,-37.5938,24.3938,-3.3750,
3.336155,3.1424,-0.1720,-1.0326,-0.0371,0.0044,-0.0041,-37.5938,24.3938,-3.3750,
3.338868,3.1424,-0.1720,-1.0326,-0.0371,0.0044,-0.0041,-37.5938,24.3938,-3.3750,
3.355725,3.1424,-0.1720,-1.0326,-0.0189,-0.0119,0.0046,-37.5938,24.3938,-3.3750,
3.376617,3.1424,-0.1720,-1.0326,-0.0189,-0.0119,0.0046,-37.5938,24.3938,-3.3750,
3.378970,3.1424,-0.1720,-1.0326,-0.0189,-0.0119,0.0046,-37.5938,24.3938,-3.3750,
3.397676,3.1424,-0.1720,-1.0326,-0.0189,-0.0119,0.0046,-37.5938,24.3938,-3.3750,
3.400380,2.2182,-1.6982,-1.1000,-0.0189,-0.0119,0.0046,-37.5938,24.3938,-3.3750,
3.408535,2.2182,-1.6982,-1.1000,-0.0189,-0.0119,0.0046,-37.5563,24.1500,-2.0625,
3.416637,2.2182,-1.6982,-1.1000,0.0040,0.0208,0.0071,-37.5563,24.1500,-2.0625,
3.444312,2.2182,-1.6982,-1.1000,0.0040,0.0208,0.0071,-37.5563,24.1500,-2.0625,
3.447265,2.2182,-1.6982,-1.1000,0.0040,0.0208,0.0071,-37.5563,24.1500,-2.0625,
3.455853,2.6059,-0.1067,-0.9909,0.0040,0.0208,0.0071,-37.5563,24.1500,-2.0625,
3.458912,2.6059,-0.1067,-0.9909,0.0040,0.0208,0.0071,-37.5563,24.1500,-2.0625,
3.470665,2.6059,-0.1067,-0.9909,0.0040,0.0208,0.0071,-37.4625,23.9062,-0.7688,
3.477354,2.6059,-0.1067,-0.9909,-0.0145,-0.0323,0.0153,-37.4625,23.9062,-0.7688,
3.511215,2.6059,-0.1067,-0.9909,-0.0145,-0.0323,0.0153,-37.4625,23.9062,-0.7688,
3.515066,2.6059,-0.1067,-0.9909,-0.0145,-0.0323,0.0153,-37.4625,23.9062,-0.7688,
3.516985,4.4866,1.9438,-0.7929,-0.0145,-0.0323,0.0153,-37.4625,23.9062,-0.7688,
3.519774,4.4866,1.9438,-0.7929,-0.0145,-0.0323,0.0153,-37.4625,23.9062,-0.7688,
3.528193,4.4866,1.9438,-0.7929,-0.0145,-0.0323,0.0153,-37.4625,23.7375,0.5438,
3.557178,4.4866,1.9438,-0.7929,-0.0145,-0.0323,0.0153,-37.4625,23.7375,0.5438,
3.560662,4.4866,1.9438,-0.7929,-0.0328,-0.0347,0.0025,-37.4625,23.7375,0.5438,
3.578544,4.4866,1.9438,-0.7929,-0.0328,-0.0347,0.0025,-37.4625,23.7375,0.5438,
3.581944,4.4866,1.9438,-0.7929,-0.0328,-0.0347,0.0025,-37.4625,23.7375,0.5438,
3.584634,3.0145,-0.2119,-1.0301,-0.0328,-0.0347,0.0025,-37.4625,23.7375,0.5438,
3.609269,3.0145,-0.2119,-1.0301,-0.0328,-0.0347,0.0025,-37.4625,23.7375,0.5438,
3.612849,3.0145,-0.2119,-1.0301,-0.0328,-0.0347,0.0025,-37.2563,23.4000,1.5188,
3.616489,3.0145,-0.2119,-1.0301,0.0465,0.3503,-0.0908,-37.2563,23.4000,1.5188,
3.637084,0.1154,5.8298,-0.8806,0.0465,0.3503,-0.0908,-37.2563,23.4000,1.5188,
3.642134,0.1154,5.8298,-0.8806,0.0465,0.3503,-0.0908,-37.2563,23.4000,1.5188,
3.645176,0.1154,5.8298,-0.8806,0.0465,0.3503,-0.0908,-37.2563,23.4000,1.5188,
3.669207,0.1154,5.8298,-0.8806,0.0465,0.3503,-0.0908,-37.2563,23.4000,1.5188,
3.672708,0.1154,5.8298,-0.8806,0.0465,0.3503,-0.0908,-36.9750,23.0813,2.2500,
3.676504,0.1154,5.8298,-0.8806,0.7987,0.1340,-0.7676,-36.9750,23.0813,2.2500,
3.697200,0.1154,5.8298,-0.8806,0.7987,0.1340,-0.7676,-36.9750,23.0813,2.2500,
3.701170,0.1154,5.8298,-0.8806,0.7987,0.1340,-0.7676,-36.9750,23.0813,2.2500,
3.703900,3.6508,0.5741,-0.7747,0.7987,0.1340,-0.7676,-36.9750,23.0813,2.2500,
3.727747,3.6508,0.5741,-0.7747,0.7987,0.1340,-0.7676,-36.9750,23.0813,2.2500,
3.730330,3.6508,0.5741,-0.7747,0.7987,0.1340,-0.7676,-36.5813,22.6500,2.3625,
3.759229,3.6508,0.5741,-0.7747,0.7987,0.1340,-0.7676,-36.5813,22.6500,2.3625,
3.761012,3.6508,0.5741,-0.7747,2.0607,-1.9208,-1.4391,-36.5813,22.6500,2.3625,
3.762379,11.2043,3.6255,-0.7720,2.0607,-1.9208,-1.4391,-36.5813,22.6500,2.3625,
3.763935,11.2043,3.6255,-0.7720,2.0607,-1.9208,-1.4391,-36.5813,22.6500,2.3625,
3.776948,11.2043,3.6255,-0.7720,2.0607,-1.9208,-1.4391,-36.5813,22.6500,2.3625,
3.808406,11.2043,3.6255,-0.7720,2.0607,-1.9208,-1.4391,-36.5813,22.6500,2.3625,
3.810170,11.2043,3.6255,-0.7720,2.0607,-1.9208,-1.4391,-36.6188,21.9188,2.7000,
3.814773,11.2043,3.6255,-0.7720,2.6517,-3.0489,-0.9612,-36.6188,21.9188,2.7000,
3.817229,3.2083,3.5526,-3.3397,2.6517,-3.0489,-0.9612,-36.6188,21.9188,2.7000,
3.818737,3.2083,3.5526,-3.3397,2.6517,-3.0489,-0.9612,-36.6188,21.9188,2.7000,
3.843390,3.2083,3.5526,-3.3397,2.6517,-3.0489,-0.9612,-36.6188,21.9188,2.7000,
3.867318,3.2083,3.5526,-3.3397,2.6517,-3.0489,-0.9612,-36.6188,21.9188,2.7000,
3.869847,3.2083,3.5526,-3.3397,2.6517,-3.0489,-0.9612,-36.4688,21.7313,3.5250,
3.876206,3.2083,3.5526,-3.3397,3.6872,-3.4319,1.9129,-36.4688,21.7313,3.5250,
3.878244,-3.6283,-0.2332,-2.9883,3.6872,-3.4319,1.9129,-36.4688,21.7313,3.5250,
3.879673,-3.6283,-0.2332,-2.9883,3.6872,-3.4319,1.9129,-36.4688,21.7313,3.5250,
3.908692,-3.6283,-0.2332,-2.9883,3.6872,-3.4319,1.9129,-36.4688,21.7313,3.5250,
3.928338,-3.6283,-0.2332,-2.9883,3.6872,-3.4319,1.9129,-36.4688,21.7313,3.5250,
3.930789,-3.6283,-0.2332,-2.9883,3.6872,-3.4319,1.9129,-35.9438,22.1438,4.5563,
3.936399,4.0068,-6.3299,-5.8479,3.6872,-3.4319,1.9129,-35.9438,22.1438,4.5563,
3.940004,4.0068,-6.3299,-5.8479,3.6872,-3.4319,1.9129,-35.9438,22.1438,4.5563,
3.955914,4.0068,-6.3299,-5.8479,1.6155,-1.6283,-1.7971,-35.9438,22.1438,4.5563,
3.976082,4.0068,-6.3299,-5.8479,1.6155,-1.6283,-1.7971,-35.9438,22.1438,4.5563,
3.978139,4.0068,-6.3299,-5.8479,1.6155,-1.6283,-1.7971,-35.9438,22.1438,4.5563,
3.995596,4.0068,-6.3299,-5.8479,1.6155,-1.6283,-1.7971,-35.9438,22.1438,4.5563,
3.997362,4.2331,-1.2626,-6.1972,1.6155,-1.6283,-1.7971,-35.9438,22.1438,4.5563,
4.006684,4.2331,-1.2626,-6.1972,1.6155,-1.6283,-1.7971,-35.6813,22.2375,5.8313,
4.015723,4.2331,-1.2626,-6.1972,0.7985,-1.2602,-1.9813,-35.6813,22.2375,5.8313,
4.036684,4.2331,-1.2626,-6.1972,0.7985,-1.2602,-1.9813,-35.6813,22.2375,5.8313,
4.043287,4.2331,-1.2626,-6.1972,0.7985,-1.2602,-1.9813,-35.6813,22.2375,5.8313,
4.056022,4.2331,-1.2626,-6.1972,0.7985,-1.2602,-1.9813,-35.6813,22.2375,5.8313,
4.058236,2.1121,1.6591,-2.5406,0.7985,-1.2602,-1.9813,-35.6813,22.2375,5.8313,
4.069806,2.1121,1.6591,-2.5406,0.7985,-1.2602,-1.9813,-35.4750,21.9750,7.2750,
4.077435,2.1121,1.6591,-2.5406,0.7209,-0.2861,-0.2599,-35.4750,21.9750,7.2750,
4.110370,2.1121,1.6591,-2.5406,0.7209,-0.2861,-0.2599,-35.4750,21.9750,7.2750,
4.112296,2.1121,1.6591,-2.5406,0.7209,-0.2861,-0.2599,-35.4750,21.9750,7.2750,
4.116366,1.7038,1.6387,-2.1414,0.7209,-0.2861,-0.2599,-35.4750,21.9750,7.2750,
4.118834,1.7038,1.6387,-2.1414,0.7209,-0.2861,-0.2599,-35.4750,21.9750,7.2750,
4.129299,1.7038,1.6387,-2.1414,0.7209,-0.2861,-0.2599,-35.1375,22.0500,8.8688,
4.137840,1.7038,1.6387,-2.1414,0.7209,-0.2861,-0.2599,-35.1375,22.0500,8.8688,
4.155554,1.7038,1.6387,-2.1414,0.7090,0.1280,-0.0364,-35.1375,22.0500,8.8688,
4.175655,1.6898,-1.2327,-1.5692,0.7090,0.1280,-0.0364,-35.1375,22.0500,8.8688,
4.178358,1.6898,-1.2327,-1.5692,0.7090,0.1280,-0.0364,-35.1375,22.0500,8.8688,
4.179292,1.6898,-1.2327,-1.5692,0.7090,0.1280,-0.0364,-35.1375,22.0500,8.8688,
4.208080,1.6898,-1.2327,-1.5692,0.7090,0.1280,-0.0364,-35.1375,22.0500,8.8688,
4.210250,1.6898,-1.2327,-1.5692,0.7090,0.1280,-0.0364,-34.9125,22.3688,10.1625,
4.216075,1.6898,-1.2327,-1.5692,0.8996,0.5176,0.1491,-34.9125,22.3688,10.1625,
4.239569,1.6898,-1.2327,-1.5692,0.8996,0.5176,0.1491,-34.9125,22.3688,10.1625,
4.241759,1.6898,-1.2327,-1.5692,0.8996,0.5176,0.1491,-34.9125,22.3688,10.1625,
4.242568,1.9574,-1.3079,-0.8713,0.8996,0.5176,0.1491,-34.9125,22.3688,10.1625,
4.270524,1.9574,-1.3079,-0.8713,0.8996,0.5176,0.1491,-34.7063,23.2688,11.2688,
4.272971,1.9574,-1.3079,-0.8713,0.8996,0.5176,0.1491,-34.7063,23.2688,11.2688,
4.276583,1.9574,-1.3079,-0.8713,1.3452,-0.0428,1.4070,-34.7063,23.2688,11.2688,
4.296281,1.4786,-0.7838,0.2223,1.3452,-0.0428,1.4070,-34.7063,23.2688,11.2688,
4.299571,1.4786,-0.7838,0.2223,1.3452,-0.0428,1.4070,-34.7063,23.2688,11.2688,
4.300651,1.4786,-0.7838,0.2223,1.3452,-0.0428,1.4070,-34.7063,23.2688,11.2688,
4.328428,1.4786,-0.7838,0.2223,1.3452,-0.0428,1.4070,-33.8625,25.4063,11.7563,
4.331602,1.4786,-0.7838,0.2223,1.3452,-0.0428,1.4070,-33.8625,25.4063,11.7563,
4.342840,1.4786,-0.7838,0.2223,1.3452,-0.0428,1.4070,-33.8625,25.4063,11.7563,
4.357733,1.4786,-0.7838,0.2223,0.3988,-0.3589,0.9329,-33.8625,25.4063,11.7563,
4.362262,1.4786,-0.7838,0.2223,0.3988,-0.3589,0.9329,-33.8625,25.4063,11.7563,
4.364985,0.4787,-2.4999,-4.0299,0.3988,-0.3589,0.9329,-33.8625,25.4063,11.7563,
4.378925,0.4787,-2.4999,-4.0299,0.3988,-0.3589,0.9329,-33.8625,25.4063,11.7563,
4.410408,0.4787,-2.4999,-4.0299,0.3988,-0.3589,0.9329,-33.5625,26.9813,11.9813,
4.416151,0.4787,-2.4999,-4.0299,0.3988,-0.3589,0.9329,-33.5625,26.9813,11.9813,
4.418988,0.4787,-2.4999,-4.0299,1.7049,-1.1490,-1.3232,-33.5625,26.9813,11.9813,
4.422389,1.4401,-2.6067,-4.1651,1.7049,-1.1490,-1.3232,-33.5625,26.9813,11.9813,
4.425990,1.4401,-2.6067,-4.1651,1.7049,-1.1490,-1.3232,-33.5625,26.9813,11.9813,
4.444834,1.4401,-2.6067,-4.1651,1.7049,-1.1490,-1.3232,-33.5625,26.9813,11.9813,
4.468877,1.4401,-2.6067,-4.1651,1.7049,-1.1490,-1.3232,-33.5625,26.9813,11.9813,
4.473487,1.4401,-2.6067,-4.1651,1.7049,-1.1490,-1.3232,-34.1250,27.6938,12.1500,
4.479079,1.4401,-2.6067,-4.1651,0.9151,-0.2308,-2.1173,-34.1250,27.6938,12.1500,
4.482844,1.4401,-2.6067,-4.1651,0.9151,-0.2308,-2.1173,-34.1250,27.6938,12.1500,
4.485715,-2.1292,-0.8684,-5.6541,0.9151,-0.2308,-2.1173,-34.1250,27.6938,12.1500,
4.511071,-2.1292,-0.8684,-5.6541,0.9151,-0.2308,-2.1173,-34.1250,27.6938,12.1500,
4.530445,-2.1292,-0.8684,-5.6541,0.9151,-0.2308,-2.1173,-35.0625,28.0688,11.7375,
4.536386,-2.1292,-0.8684,-5.6541,0.9151,-0.2308,-2.1173,-35.0625,28.0688,11.7375,
4.539198,-0.0559,0.9602,-5.0303,0.9151,-0.2308,-2.1173,-35.0625,28.0688,11.7375,
4.543522,-0.0559,0.9602,-5.0303,0.9151,-0.2308,-2.1173,-35.0625,28.0688,11.7375,
4.560367,-0.0559,0.9602,-5.0303,-0.2699,0.3199,-1.7611,-35.0625,28.0688,11.7375,
4.580505,-0.0559,0.9602,-5.0303,-0.2699,0.3199,-1.7611,-35.0625,28.0688,11.7375,
4.584305,-0.0559,0.9602,-5.0303,-0.2699,0.3199,-1.7611,-35.0625,28.0688,11.7375,
4.599985,-0.0559,0.9602,-5.0303,-0.2699,0.3199,-1.7611,-35.0625,28.0688,11.7375,
4.603729,-1.1486,-0.2938,1.1564,-0.2699,0.3199,-1.7611,-35.0625,28.0688,11.7375,
4.610703,-1.1486,-0.2938,1.1564,-0.2699,0.3199,-1.7611,-36.4125,28.6500,10.8375,
4.617258,-1.1486,-0.2938,1.1564,1.0310,-0.2142,-0.8661,-36.4125,28.6500,10.8375,
4.645285,-1.1486,-0.2938,1.1564,1.0310,-0.2142,-0.8661,-36.4125,28.6500,10.8375,
4.649711,-1.1486,-0.2938,1.1564,1.0310,-0.2142,-0.8661,-36.4125,28.6500,10.8375,
4.658212,1.0392,-0.6241,1.9931,1.0310,-0.2142,-0.8661,-36.4125,28.6500,10.8375,
4.663521,1.0392,-0.6241,1.9931,1.0310,-0.2142,-0.8661,-36.4125,28.6500,10.8375,
4.667514,1.0392,-0.6241,1.9931,1.0310,-0.2142,-0.8661,-38.3063,29.2875,9.7875,
4.677368,1.0392,-0.6241,1.9931,1.1548,-0.5732,-0.8744,-38.3063,29.2875,9.7875,
4.710709,1.0392,-0.6241,1.9931,1.1548,-0.5732,-0.8744,-38.3063,29.2875,9.7875,
4.714400,1.0392,-0.6241,1.9931,1.1548,-0.5732,-0.8744,-38.3063,29.2875,9.7875,
4.721857,1.0392,-0.6241,1.9931,1.1548,-0.5732,-0.8744,-38.3063,29.2875,9.7875,
4.725541,3.8995,-2.1416,-3.8864,1.1548,-0.5732,-0.8744,-38.3063,29.2875,9.7875,
4.730188,3.8995,-2.1416,-3.8864,1.1548,-0.5732,-0.8744,-39.4313,29.0250,9.1500,
4.753003,3.8995,-2.1416,-3.8864,1.1548,-0.5732,-0.8744,-39.4313,29.0250,9.1500,
4.758585,3.8995,-2.1416,-3.8864,0.1269,-0.0935,-0.1500,-39.4313,29.0250,9.1500,
4.778647,-1.4014,-2.0453,0.3887,0.1269,-0.0935,-0.1500,-39.4313,29.0250,9.1500,
4.784612,-1.4014,-2.0453,0.3887,0.1269,-0.0935,-0.1500,-39.4313,29.0250,9.1500,
4.787813,-1.4014,-2.0453,0.3887,0.1269,-0.0935,-0.1500,-39.4313,29.0250,9.1500,
4.808775,-1.4014,-2.0453,0.3887,0.1269,-0.0935,-0.1500,-40.0688,28.0500,8.9438,
4.814313,-1.4014,-2.0453,0.3887,0.1269,-0.0935,-0.1500,-40.0688,28.0500,8.9438,
4.817669,-1.4014,-2.0453,0.3887,1.0525,0.0662,-0.0153,-40.0688,28.0500,8.9438,
4.838695,0.2738,-3.9330,0.3641,1.0525,0.0662,-0.0153,-40.0688,28.0500,8.9438,
4.843841,0.2738,-3.9330,0.3641,1.0525,0.0662,-0.0153,-40.0688,28.0500,8.9438,
4.846338,0.2738,-3.9330,0.3641,1.0525,0.0662,-0.0153,-40.0688,28.0500,8.9438,
4.870107,0.2738,-3.9330,0.3641,1.0525,0.0662,-0.0153,-40.0688,28.0500,8.9438,
4.874538,0.2738,-3.9330,0.3641,1.0525,0.0662,-0.0153,-41.0063,26.4750,8.6625,
4.881318,0.2738,-3.9330,0.3641,0.1829,0.2816,0.3562,-41.0063,26.4750,8.6625,
4.898881,0.2738,-3.9330,0.3641,0.1829,0.2816,0.3562,-41.0063,26.4750,8.6625,
4.902273,0.2738,-3.9330,0.3641,0.1829,0.2816,0.3562,-41.0063,26.4750,8.6625,
4.904539,1.1735,-1.9306,-2.5707,0.1829,0.2816,0.3562,-41.0063,26.4750,8.6625,
4.932121,1.1735,-1.9306,-2.5707,0.1829,0.2816,0.3562,-41.6625,24.9000,8.0250,
4.937099,1.1735,-1.9306,-2.5707,0.1829,0.2816,0.3562,-41.6625,24.9000,8.0250,
4.957489,1.1735,-1.9306,-2.5707,0.1829,0.2816,0.3562,-41.6625,24.9000,8.0250,
4.961291,1.1735,-1.9306,-2.5707,0.0262,0.1716,0.0373,-41.6625,24.9000,8.0250,
4.965490,1.5548,-1.7945,-0.0538,0.0262,0.1716,0.0373,-41.6625,24.9000,8.0250,
4.969198,1.5548,-1.7945,-0.0538,0.0262,0.1716,0.0373,-41.6625,24.9000,8.0250,
5.010372,1.5548,-1.7945,-0.0538,0.0262,0.1716,0.0373,-41.6625,24.9000,8.0250,
5.014801,1.5548,-1.7945,-0.0538,0.0262,0.1716,0.0373,-41.6625,24.9000,8.0250,
5.017449,1.5548,-1.7945,-0.0538,0.0262,0.1716,0.0373,-41.8500,23.7375,7.0875,
5.020810,1.5548,-1.7945,-0.0538,-0.3016,0.2484,1.0827,-41.8500,23.7375,7.0875,
5.024916,1.0857,-0.1840,-1.4212,-0.3016,0.2484,1.0827,-41.8500,23.7375,7.0875,
5.028006,1.0857,-0.1840,-1.4212,-0.3016,0.2484,1.0827,-41.8500,23.7375,7.0875,
5.044457,1.0857,-0.1840,-1.4212,-0.3016,0.2484,1.0827,-41.8500,23.7375,7.0875,
5.059637,1.0857,-0.1840,-1.4212,-0.3016,0.2484,1.0827,-41.8500,23.7375,7.0875,
5.072584,1.0857,-0.1840,-1.4212,-0.3016,0.2484,1.0827,-41.1562,23.5125,6.4875,
5.081691,1.0857,-0.1840,-1.4212,-0.0134,0.3518,0.8673,-41.1562,23.5125,6.4875,
5.085913,1.0857,-0.1840,-1.4212,-0.0134,0.3518,0.8673,-41.1562,23.5125,6.4875,
5.088558,3.2047,-0.5071,0.2049,-0.0134,0.3518,0.8673,-41.1562,23.5125,6.4875,
5.111177,3.2047,-0.5071,0.2049,-0.0134,0.3518,0.8673,-41.1562,23.5125,6.4875,
5.138377,6.3159,-2.4310,-0.9371,-0.0134,0.3518,0.8673,-41.1562,23.5125,6.4875,
5.144492,6.3159,-2.4310,-0.9371,-0.0134,0.3518,0.8673,-41.1562,23.5125,6.4875,
5.147476,6.3159,-2.4310,-0.9371,-0.0134,0.3518,0.8673,-41.1562,23.5125,6.4875,
5.158331,6.3159,-2.4310,-0.9371,-0.0134,0.3518,0.8673,-46.8750,17.6625,16.6500,
5.164460,6.3159,-2.4310,-0.9371,0.1348,0.6744,-0.1548,-46.8750,17.6625,16.6500,
5.178923,6.3159,-2.4310,-0.9371,0.1348,0.6744,-0.1548,-46.8750,17.6625,16.6500,
5.182346,6.3159,-2.4310,-0.9371,0.1348,0.6744,-0.1548,-46.8750,17.6625,16.6500,
5.197951,6.3159,-2.4310,-0.9371,0.1348,0.6744,-0.1548,-46.8750,17.6625,16.6500,
5.201118,2.7951,-0.6478,1.0043,0.1348,0.6744,-0.1548,-46.8750,17.6625,16.6500,
5.218412,2.7951,-0.6478,1.0043,0.7388,0.4035,-0.4742,-46.8750,17.6625,16.6500,
5.235434,2.7951,-0.6478,1.0043,0.7388,0.4035,-0.4742,-45.3188,17.1938,16.1250,
5.239668,2.7951,-0.6478,1.0043,0.7388,0.4035,-0.4742,-45.3188,17.1938,16.1250,
5.246964,2.7951,-0.6478,1.0043,0.7388,0.4035,-0.4742,-45.3188,17.1938,16.1250,
5.259032,0.3353,-0.6729,-0.8728,0.7388,0.4035,-0.4742,-45.3188,17.1938,16.1250,
5.264613,0.3353,-0.6729,-0.8728,0.7388,0.4035,-0.4742,-45.3188,17.1938,16.1250,
5.277608,0.3353,-0.6729,-0.8728,0.9659,-0.2910,0.2738,-45.3188,17.1938,16.1250,
5.296143,0.3353,-0.6729,-0.8728,0.9659,-0.2910,0.2738,-44.1562,17.4938,15.2813,
5.300267,0.3353,-0.6729,-0.8728,0.9659,-0.2910,0.2738,-44.1562,17.4938,15.2813,
5.310528,0.3353,-0.6729,-0.8728,0.9659,-0.2910,0.2738,-44.1562,17.4938,15.2813,
5.318170,0.3353,-0.6729,-0.8728,0.9659,-0.2910,0.2738,-44.1562,17.4938,15.2813,
5.321097,-0.5738,1.6401,-0.0201,0.9659,-0.2910,0.2738,-44.1562,17.4938,15.2813,
5.356773,-0.5738,1.6401,-0.0201,0.9659,-0.2910,0.2738,-44.1562,17.4938,15.2813,
5.360837,-0.5738,1.6401,-0.0201,0.9659,-0.2910,0.2738,-43.3875,18.0750,14.5125,
5.364665,-0.5738,1.6401,-0.0201,1.0069,-0.4500,0.2719,-43.3875,18.0750,14.5125,
5.382474,-0.5738,1.6401,-0.0201,1.0069,-0.4500,0.2719,-43.3875,18.0750,14.5125,
5.386984,-0.5738,1.6401,-0.0201,1.0069,-0.4500,0.2719,-43.3875,18.0750,14.5125,
5.389861,2.8557,0.4622,-2.1128,1.0069,-0.4500,0.2719,-43.3875,18.0750,14.5125,
5.418143,2.8557,0.4622,-2.1128,1.0069,-0.4500,0.2719,-43.3875,18.0750,14.5125,
5.422347,2.8557,0.4622,-2.1128,1.1485,0.1054,-0.1933,-43.3875,18.0750,14.5125,
5.435419,2.8557,0.4622,-2.1128,1.1485,0.1054,-0.1933,-43.3875,18.0750,14.5125,
5.438735,2.8557,0.4622,-2.1128,1.1485,0.1054,-0.1933,-42.6938,18.5250,13.7625,
5.442347,4.1490,-0.5910,-2.2913,1.1485,0.1054,-0.1933,-42.6938,18.5250,13.7625,
5.446379,4.1490,-0.5910,-2.2913,1.1485,0.1054,-0.1933,-42.6938,18.5250,13.7625,
5.479117,4.1490,-0.5910,-2.2913,1.1485,0.1054,-0.1933,-42.6938,18.5250,13.7625,
5.482962,4.1490,-0.5910,-2.2913,0.9562,0.6895,-0.0425,-42.6938,18.5250,13.7625,
5.497338,4.1490,-0.5910,-2.2913,0.9562,0.6895,-0.0425,-42.2625,19.0125,12.6375,
5.502912,4.1490,-0.5910,-2.2913,0.9562,0.6895,-0.0425,-42.2625,19.0125,12.6375,
5.505418,2.2071,0.5155,-1.8551,0.9562,0.6895,-0.0425,-42.2625,19.0125,12.6375,
5.508533,2.2071,0.5155,-1.8551,0.9562,0.6895,-0.0425,-42.2625,19.0125,12.6375,
5.556120,2.2071,0.5155,-1.8551,0.9562,0.6895,-0.0425,-42.2625,19.0125,12.6375,
5.561167,2.2071,0.5155,-1.8551,0.9562,0.6895,-0.0425,-42.2625,19.0125,12.6375,
5.564619,2.2071,0.5155,-1.8551,0.9562,0.6895,-0.0425,-41.8688,19.2563,11.3250,
5.568206,0.9888,0.3807,-0.3011,0.9562,0.6895,-0.0425,-41.8688,19.2563,11.3250,
5.571537,0.9888,0.3807,-0.3011,0.3661,0.3459,-0.2059,-41.8688,19.2563,11.3250,
5.575267,0.9888,0.3807,-0.3011,0.3661,0.3459,-0.2059,-41.8688,19.2563,11.3250,
5.618571,0.9888,0.3807,-0.3011,-0.0595,0.0063,-0.3173,-41.8688,19.2563,11.3250,
5.623801,0.4856,0.2979,0.0752,-0.0595,0.0063,-0.3173,-41.8688,19.2563,11.3250,
5.628156,0.4856,0.2979,0.0752,-0.0595,0.0063,-0.3173,-41.8688,19.2563,11.3250,
5.630484,0.4856,0.2979,0.0752,-0.0595,0.0063,-0.3173,-41.8688,19.2563,11.3250,
5.634555,0.4856,0.2979,0.0752,-0.0595,0.0063,-0.3173,-41.8688,19.2563,11.3250,
5.637400,0.4856,0.2979,0.0752,-0.0595,0.0063,-0.3173,-41.9438,19.1625,9.8625,
5.646105,0.4856,0.2979,0.0752,-0.0595,0.0063,-0.3173,-41.9438,19.1625,9.8625,
5.665382,0.4856,0.2979,0.0752,-0.0595,0.0063,-0.3173,-41.9438,19.1625,9.8625,
5.678790,0.6988,-0.0581,0.1075,-0.0595,0.0063,-0.3173,-41.9438,19.1625,9.8625,
5.681885,0.6988,-0.0581,0.1075,-0.0136,0.0564,-0.2479,-41.9438,19.1625,9.8625,
5.683856,0.6988,-0.0581,0.1075,-0.0136,0.0564,-0.2479,-41.9438,19.1625,9.8625,
5.694565,0.6988,-0.0581,0.1075,-0.0136,0.0564,-0.2479,-42.0750,18.8625,8.6813,
5.712410,0.6988,-0.0581,0.1075,-0.0136,0.0564,-0.2479,-42.0750,18.8625,8.6813,
5.738474,0.2903,-0.7944,0.5870,-0.0136,0.0564,-0.2479,-42.0750,18.8625,8.6813,
5.742730,0.2903,-0.7944,0.5870,-0.0136,0.0564,-0.2479,-42.0750,18.8625,8.6813,
5.744393,0.2903,-0.7944,0.5870,-0.0136,0.0564,-0.2479,-42.0750,18.8625,8.6813,
5.755919,0.2903,-0.7944,0.5870,-0.0136,0.0564,-0.2479,-40.3875,18.8813,4.7250,
5.760003,0.2903,-0.7944,0.5870,0.0294,0.0121,-0.2696,-40.3875,18.8813,4.7250,
5.776665,0.2903,-0.7944,0.5870,0.0294,0.0121,-0.2696,-40.3875,18.8813,4.7250,
5.796943,1.1928,-1.1533,-0.0148,0.0294,0.0121,-0.2696,-40.3875,18.8813,4.7250,
5.801219,1.1928,-1.1533,-0.0148,0.0294,0.0121,-0.2696,-40.3875,18.8813,4.7250,
5.803041,1.1928,-1.1533,-0.0148,0.0294,0.0121,-0.2696,-40.3875,18.8813,4.7250,
5.818273,1.1928,-1.1533,-0.0148,0.1753,0.2114,-0.0882,-40.3875,18.8813,4.7250,
5.839646,1.1928,-1.1533,-0.0148,0.1753,0.2114,-0.0882,-40.3875,18.8813,4.7250,
5.841946,1.1928,-1.1533,-0.0148,0.1753,0.2114,-0.0882,-40.6125,18.5813,3.8625,
5.843915,1.1928,-1.1533,-0.0148,0.1753,0.2114,-0.0882,-40.6125,18.5813,3.8625,
5.861589,0.7366,-1.1975,-0.0117,0.1753,0.2114,-0.0882,-40.6125,18.5813,3.8625,
5.866448,0.7366,-1.1975,-0.0117,0.1753,0.2114,-0.0882,-40.6125,18.5813,3.8625,
5.878969,0.7366,-1.1975,-0.0117,0.1477,0.1364,-0.1422,-40.6125,18.5813,3.8625,
5.895533,0.7366,-1.1975,-0.0117,0.1477,0.1364,-0.1422,-40.6125,18.5813,3.8625,
5.899200,0.7366,-1.1975,-0.0117,0.1477,0.1364,-0.1422,-40.9688,18.1125,2.7938,
5.911673,0.7366,-1.1975,-0.0117,0.1477,0.1364,-0.1422,-40.9688,18.1125,2.7938,
5.917540,0.7366,-1.1975,-0.0117,0.1477,0.1364,-0.1422,-40.9688,18.1125,2.7938,
5.919885,1.1965,-1.5261,-0.1088,0.1477,0.1364,-0.1422,-40.9688,18.1125,2.7938,
5.957993,1.1965,-1.5261,-0.1088,0.1477,0.1364,-0.1422,-40.9688,18.1125,2.7938,
5.962358,1.1965,-1.5261,-0.1088,0.1477,0.1364,-0.1422,-41.4375,17.5500,1.7813,
5.966488,1.1965,-1.5261,-0.1088,0.1655,0.1402,-0.2355,-41.4375,17.5500,1.7813,
5.980448,1.1965,-1.5261,-0.1088,0.1655,0.1402,-0.2355,-41.4375,17.5500,1.7813,
5.985309,1.1965,-1.5261,-0.1088,0.1655,0.1402,-0.2355,-41.4375,17.5500,1.7813,
5.987759,1.3421,-1.2724,-0.1450,0.1655,0.1402,-0.2355,-41.4375,17.5500,1.7813,
6.021360,1.3421,-1.2724,-0.1450,0.1655,0.1402,-0.2355,-41.4375,17.5500,1.7813,
6.025625,1.3421,-1.2724,-0.1450,0.1442,-0.0043,-0.0536,-41.4375,17.5500,1.7813,
6.038872,1.3421,-1.2724,-0.1450,0.1442,-0.0043,-0.0536,-41.4375,17.5500,1.7813,
6.042561,1.3421,-1.2724,-0.1450,0.1442,-0.0043,-0.0536,-41.7375,17.0063,1.0688,
6.047076,0.9308,-0.4934,-0.0527,0.1442,-0.0043,-0.0536,-41.7375,17.0063,1.0688,
6.050108,0.9308,-0.4934,-0.0527,0.1442,-0.0043,-0.0536,-41.7375,17.0063,1.0688,
6.062015,0.9308,-0.4934,-0.0527,0.1442,-0.0043,-0.0536,-41.7375,17.0063,1.0688,
6.078555,0.9308,-0.4934,-0.0527,0.0993,0.1431,-0.0164,-41.7375,17.0063,1.0688,
6.104645,0.9308,-0.4934,-0.0527,0.0993,0.1431,-0.0164,-41.7375,17.0063,1.0688,
6.108455,0.9308,-0.4934,-0.0527,0.0993,0.1431,-0.0164,-41.7375,17.0063,1.0688,
6.110737,0.9308,-0.4934,-0.0527,0.0993,0.1431,-0.0164,-42.0563,16.5563,0.6562,
6.113809,1.4089,-0.9098,-0.5304,0.0993,0.1431,-0.0164,-42.0563,16.5563,0.6562,
6.157797,1.4089,-0.9098,-0.5304,0.0993,0.1431,-0.0164,-42.1875,16.2563,0.3563,
6.162942,1.4089,-0.9098,-0.5304,0.0993,0.1431,-0.0164,-42.1875,16.2563,0.3563,
6.166015,1.4089,-0.9098,-0.5304,0.0993,0.1431,-0.0164,-42.1875,16.2563,0.3563,
6.168449,1.4089,-0.9098,-0.5304,0.1119,0.1119,-0.0347,-42.1875,16.2563,0.3563,
6.170862,0.7000,-1.1205,0.0009,0.1119,0.1119,-0.0347,-42.1875,16.2563,0.3563,
6.173989,0.7000,-1.1205,0.0009,0.1119,0.1119,-0.0347,-42.1875,16.2563,0.3563,
6.223493,0.7000,-1.1205,0.0009,0.1119,0.1119,-0.0347,-42.1875,16.2563,0.3563,
6.227994,0.7000,-1.1205,0.0009,0.1119,0.1119,-0.0347,-42.1875,16.2563,0.3563,
6.230608,0.7000,-1.1205,0.0009,0.1119,0.1119,-0.0347,-42.1875,16.2563,0.3563,
6.233417,0.7000,-1.1205,0.0009,-0.0408,-0.0018,-0.0450,-42.1875,16.2563,0.3563,
6.236062,0.9111,-0.9634,-0.4087,-0.0408,-0.0018,-0.0450,-42.1875,16.2563,0.3563,
6.239751,0.9111,-0.9634,-0.4087,-0.0408,-0.0018,-0.0450,-42.2250,15.8625,-0.1500,
6.246956,0.9111,-0.9634,-0.4087,-0.0408,-0.0018,-0.0450,-42.2250,15.8625,-0.1500,
6.279544,0.9111,-0.9634,-0.4087,-0.0254,-0.0539,0.1387,-42.2250,15.8625,-0.1500,
6.282512,0.7134,-0.1344,0.0309,-0.0254,-0.0539,0.1387,-42.2250,15.8625,-0.1500,
6.284775,0.7134,-0.1344,0.0309,-0.0254,-0.0539,0.1387,-42.2250,15.8625,-0.1500,
6.286668,0.7134,-0.1344,0.0309,-0.0254,-0.0539,0.1387,-42.2250,15.8625,-0.1500,
6.297286,0.7134,-0.1344,0.0309,-0.0254,-0.0539,0.1387,-42.3375,15.6000,-0.4125,
6.310990,0.7134,-0.1344,0.0309,-0.0254,-0.0539,0.1387,-42.3375,15.6000,-0.4125,
6.341257,1.8003,-0.4922,-0.5046,-0.0254,-0.0539,0.1387,-42.3375,15.6000,-0.4125,
6.343014,1.8003,-0.4922,-0.5046,-0.0254,-0.0539,0.1387,-42.3375,15.6000,-0.4125,
6.344326,1.8003,-0.4922,-0.5046,-0.0254,-0.0539,0.1387,-42.3375,15.6000,-0.4125,
6.355544,1.8003,-0.4922,-0.5046,-0.0254,-0.0539,0.1387,-42.5438,15.4500,-1.3500,
6.361806,1.8003,-0.4922,-0.5046,-0.2049,0.1680,0.0618,-42.5438,15.4500,-1.3500,
6.376375,1.8003,-0.4922,-0.5046,-0.2049,0.1680,0.0618,-42.5438,15.4500,-1.3500,
6.399946,0.7845,-1.0260,0.3795,-0.2049,0.1680,0.0618,-42.5438,15.4500,-1.3500,
6.402346,0.7845,-1.0260,0.3795,-0.2049,0.1680,0.0618,-42.5438,15.4500,-1.3500,
6.403687,0.7845,-1.0260,0.3795,-0.2049,0.1680,0.0618,-42.5438,15.4500,-1.3500,
6.421131,0.7845,-1.0260,0.3795,-0.0781,-0.0108,-0.0268,-42.5438,15.4500,-1.3500,
6.440269,0.7845,-1.0260,0.3795,-0.0781,-0.0108,-0.0268,-42.5438,15.4500,-1.3500,
6.445418,0.7845,-1.0260,0.3795,-0.0781,-0.0108,-0.0268,-42.5625,15.4500,-1.6688,
6.448901,0.7845,-1.0260,0.3795,-0.0781,-0.0108,-0.0268,-42.5625,15.4500,-1.6688,
6.461461,0.7440,-1.2129,0.6007,-0.0781,-0.0108,-0.0268,-42.5625,15.4500,-1.6688,
6.466391,0.7440,-1.2129,0.6007,-0.0781,-0.0108,-0.0268,-42.5625,15.4500,-1.6688,
6.481188,0.7440,-1.2129,0.6007,-0.0945,-0.1242,-0.0625,-42.5625,15.4500,-1.6688,
6.496340,0.7440,-1.2129,0.6007,-0.0945,-0.1242,-0.0625,-42.5625,15.4500,-1.6688,
6.499149,0.7440,-1.2129,0.6007,-0.0945,-0.1242,-0.0625,-42.5250,15.5438,-1.6313,
6.511932,0.7440,-1.2129,0.6007,-0.0945,-0.1242,-0.0625,-42.5250,15.5438,-1.6313,
6.520157,0.7598,-0.8298,0.0997,-0.0945,-0.1242,-0.0625,-42.5250,15.5438,-1.6313,
6.523548,0.7598,-0.8298,0.0997,-0.0945,-0.1242,-0.0625,-42.5250,15.5438,-1.6313,
6.555394,0.7598,-0.8298,0.0997,-0.0945,-0.1242,-0.0625,-42.5250,15.5438,-1.6313,
6.558863,0.7598,-0.8298,0.0997,-0.0945,-0.1242,-0.0625,-42.4875,15.6000,-1.5938,
6.561241,0.7598,-0.8298,0.0997,-0.0546,-0.0958,-0.0412,-42.4875,15.6000,-1.5938,
6.581163,0.7598,-0.8298,0.0997,-0.0546,-0.0958,-0.0412,-42.4875,15.6000,-1.5938,
6.585814,0.7598,-0.8298,0.0997,-0.0546,-0.0958,-0.0412,-42.4875,15.6000,-1.5938,
6.588595,1.2999,-0.7288,-0.1669,-0.0546,-0.0958,-0.0412,-42.4875,15.6000,-1.5938,
6.619410,1.2999,-0.7288,-0.1669,-0.0793,0.0478,-0.0630,-42.4875,15.6000,-1.5938,
6.623051,1.2999,-0.7288,-0.1669,-0.0793,0.0478,-0.0630,-42.4875,15.6000,-1.5938,
6.638890,1.2999,-0.7288,-0.1669,-0.0793,0.0478,-0.0630,-42.6188,15.6938,-1.4062,
6.644379,1.2999,-0.7288,-0.1669,-0.0793,0.0478,-0.0630,-42.6188,15.6938,-1.4062,
6.647368,0.9949,-0.5749,-0.1276,-0.0793,0.0478,-0.0630,-42.6188,15.6938,-1.4062,
6.651177,0.9949,-0.5749,-0.1276,-0.0793,0.0478,-0.0630,-42.6188,15.6938,-1.4062,
6.682908,0.9949,-0.5749,-0.1276,-0.0793,0.0478,-0.0630,-42.6188,15.6938,-1.4062,
6.688411,0.9949,-0.5749,-0.1276,-0.0622,0.0137,-0.0843,-42.6188,15.6938,-1.4062,
6.696783,0.9949,-0.5749,-0.1276,-0.0622,0.0137,-0.0843,-42.6188,15.6938,-1.4062,
6.700113,0.9949,-0.5749,-0.1276,-0.0622,0.0137,-0.0843,-42.6750,15.6188,-1.2375,
6.703794,0.7376,-0.8457,-0.0089,-0.0622,0.0137,-0.0843,-42.6750,15.6188,-1.2375,
6.707542,0.7376,-0.8457,-0.0089,-0.0622,0.0137,-0.0843,-42.6750,15.6188,-1.2375,
6.757415,0.7376,-0.8457,-0.0089,-0.0622,0.0137,-0.0843,-42.6750,15.6188,-1.2375,
6.761400,0.7376,-0.8457,-0.0089,-0.0622,0.0137,-0.0843,-42.6750,15.6188,-1.2375,
6.764593,0.7376,-0.8457,-0.0089,-0.0622,0.0137,-0.0843,-42.7125,15.6375,-0.9375,
6.768280,0.7376,-0.8457,-0.0089,-0.0273,-0.0403,0.0163,-42.7125,15.6375,-0.9375,
6.771368,0.5654,-0.5758,0.0935,-0.0273,-0.0403,0.0163,-42.7125,15.6375,-0.9375,
6.774958,0.5654,-0.5758,0.0935,-0.0273,-0.0403,0.0163,-42.7125,15.6375,-0.9375,
6.822324,0.6007,-0.6800,0.0917,-0.0273,-0.0403,0.0163,-42.7125,15.6375,-0.9375,
6.827800,0.6007,-0.6800,0.0917,0.0192,-0.0732,0.0331,-42.7125,15.6375,-0.9375,
6.830965,0.6007,-0.6800,0.0917,0.0192,-0.0732,0.0331,-42.7125,15.6375,-0.9375,
6.834258,0.6007,-0.6800,0.0917,0.0192,-0.0732,0.0331,-42.7125,15.6375,-0.9375,
6.838191,0.6007,-0.6800,0.0917,0.0192,-0.0732,0.0331,-42.7125,15.6375,-0.9375,
6.840587,0.6007,-0.6800,0.0917,0.0192,-0.0732,0.0331,-42.7313,15.7500,-0.8250,
6.844348,0.6007,-0.6800,0.0917,0.0192,-0.0732,0.0331,-42.7313,15.7500,-0.8250,
6.879723,0.6007,-0.6800,0.0917,0.0192,-0.0732,0.0331,-42.7313,15.7500,-0.8250,
6.882412,0.4726,-0.7534,-0.0154,0.0192,-0.0732,0.0331,-42.7313,15.7500,-0.8250,
6.885939,0.4726,-0.7534,-0.0154,0.0192,-0.0732,0.0331,-42.7313,15.7500,-0.8250,
6.888406,0.4726,-0.7534,-0.0154,0.0417,-0.1525,0.0538,-42.7313,15.7500,-0.8250,
6.898901,0.4726,-0.7534,-0.0154,0.0417,-0.1525,0.0538,-42.7500,15.8063,-0.6375,
6.912372,0.4726,-0.7534,-0.0154,0.0417,-0.1525,0.0538,-42.7500,15.8063,-0.6375,
6.939652,0.4726,-0.7534,-0.0154,0.0417,-0.1525,0.0538,-42.7500,15.8063,-0.6375,
6.943889,0.4726,-0.7534,-0.0154,0.0417,-0.1525,0.0538,-42.7500,15.8063,-0.6375,
6.946144,0.1046,-0.6894,0.1795,0.0417,-0.1525,0.0538,-42.7500,15.8063,-0.6375,
6.956241,0.1046,-0.6894,0.1795,0.0417,-0.1525,0.0538,-42.8250,15.6750,-0.1875,
6.963684,0.1046,-0.6894,0.1795,0.0286,-0.3013,-0.0859,-42.8250,15.6750,-0.1875,
6.982034,0.1046,-0.6894,0.1795,0.0286,-0.3013,-0.0859,-42.8250,15.6750,-0.1875,
6.986024,0.1046,-0.6894,0.1795,0.0286,-0.3013,-0.0859,-42.8250,15.6750,-0.1875,
7.001853,1.0818,-0.7105,-0.5834,0.0286,-0.3013,-0.0859,-42.8250,15.6750,-0.1875,
7.008401,1.0818,-0.7105,-0.5834,0.0286,-0.3013,-0.0859,-42.8250,15.6750,-0.1875,
7.021238,1.0818,-0.7105,-0.5834,-0.0633,-0.1812,-0.2728,-42.8250,15.6750,-0.1875,
7.034934,1.0818,-0.7105,-0.5834,-0.0633,-0.1812,-0.2728,-42.8250,15.6750,-0.1875,
7.037491,1.0818,-0.7105,-0.5834,-0.0633,-0.1812,-0.2728,-42.9000,15.6188,0.0000,
7.046612,1.0818,-0.7105,-0.5834,-0.0633,-0.1812,-0.2728,-42.9000,15.6188,0.0000,
7.060568,1.0818,-0.7105,-0.5834,-0.0633,-0.1812,-0.2728,-42.9000,15.6188,0.0000,
7.064040,0.6920,-0.2360,-0.3263,-0.0633,-0.1812,-0.2728,-42.9000,15.6188,0.0000,
7.079850,0.6920,-0.2360,-0.3263,-0.0247,-0.0560,-0.1775,-42.9000,15.6188,0.0000,
7.096507,0.6920,-0.2360,-0.3263,-0.0247,-0.0560,-0.1775,-42.9000,15.6188,0.0000,
7.100325,0.6920,-0.2360,-0.3263,-0.0247,-0.0560,-0.1775,-42.9938,15.4688,0.3375,
7.115995,0.6920,-0.2360,-0.3263,-0.0247,-0.0560,-0.1775,-42.9938,15.4688,0.3375,
7.119959,0.6920,-0.2360,-0.3263,-0.0247,-0.0560,-0.1775,-42.9938,15.4688,0.3375,
7.121938,0.6634,-0.3672,-0.3489,-0.0247,-0.0560,-0.1775,-42.9938,15.4688,0.3375,
7.155206,0.6634,-0.3672,-0.3489,-0.0247,-0.0560,-0.1775,-42.9938,15.4688,0.3375,
7.159231,0.6634,-0.3672,-0.3489,-0.0247,-0.0560,-0.1775,-43.0312,15.3375,0.5063,
7.162254,0.6634,-0.3672,-0.3489,0.0384,0.0041,-0.0012,-43.0312,15.3375,0.5063,
7.179159,0.6634,-0.3672,-0.3489,0.0384,0.0041,-0.0012,-43.0312,15.3375,0.5063,
7.182873,0.6634,-0.3672,-0.3489,0.0384,0.0041,-0.0012,-43.0312,15.3375,0.5063,
7.185681,0.3702,-0.2517,-0.1798,0.0384,0.0041,-0.0012,-43.0312,15.3375,0.5063,
7.221185,0.3702,-0.2517,-0.1798,0.0384,0.0041,-0.0012,-43.0312,15.3375,0.5063,
7.225672,0.3702,-0.2517,-0.1798,0.0276,-0.0504,-0.2910,-43.0312,15.3375,0.5063,
7.242980,0.3702,-0.2517,-0.1798,0.0276,-0.0504,-0.2910,-43.0312,15.3375,0.5063,
7.245202,0.3702,-0.2517,-0.1798,0.0276,-0.0504,-0.2910,-43.0875,15.1500,0.8625,
7.246646,0.9449,-0.8576,-0.0862,0.0276,-0.0504,-0.2910,-43.0875,15.1500,0.8625,
7.247901,0.9449,-0.8576,-0.0862,0.0276,-0.0504,-0.2910,-43.0875,15.1500,0.8625,
7.281557,0.9449,-0.8576,-0.0862,0.0611,0.0349,-0.1012,-43.0875,15.1500,0.8625,
7.284633,0.9449,-0.8576,-0.0862,0.0611,0.0349,-0.1012,-43.0875,15.1500,0.8625,
7.296828,0.9449,-0.8576,-0.0862,0.0611,0.0349,-0.1012,-43.1438,14.8125,1.0688,
7.298969,0.9449,-0.8576,-0.0862,0.0611,0.0349,-0.1012,-43.1438,14.8125,1.0688,
7.301528,0.4108,-0.3170,-0.2643,0.0611,0.0349,-0.1012,-43.1438,14.8125,1.0688,
7.303295,0.4108,-0.3170,-0.2643,0.0611,0.0349,-0.1012,-43.1438,14.8125,1.0688,
7.356412,0.4108,-0.3170,-0.2643,0.0611,0.0349,-0.1012,-43.2750,14.5500,1.3313,
7.362258,0.4108,-0.3170,-0.2643,0.0611,0.0349,-0.1012,-43.2750,14.5500,1.3313,
7.366355,0.4108,-0.3170,-0.2643,0.0611,0.0349,-0.1012,-43.2750,14.5500,1.3313,
7.369071,0.4108,-0.3170,-0.2643,0.1293,0.1204,0.0175,-43.2750,14.5500,1.3313,
7.371708,0.4108,-0.3170,-0.2643,0.1293,0.1204,0.0175,-43.2750,14.5500,1.3313,
7.374536,0.7295,-0.2219,-0.1292,0.1293,0.1204,0.0175,-43.2750,14.5500,1.3313,
7.423493,0.6872,-0.2505,-0.2198,0.1293,0.1204,0.0175,-43.2750,14.5500,1.3313,
7.428330,0.6872,-0.2505,-0.2198,0.0069,0.0518,-0.0990,-43.2750,14.5500,1.3313,
7.430842,0.6872,-0.2505,-0.2198,0.0069,0.0518,-0.0990,-43.2750,14.5500,1.3313,
7.433858,0.6872,-0.2505,-0.2198,0.0069,0.0518,-0.0990,-43.2750,14.5500,1.3313,
7.436391,0.6872,-0.2505,-0.2198,0.0069,0.0518,-0.0990,-43.2750,14.5500,1.3313,
7.440041,0.6872,-0.2505,-0.2198,0.0069,0.0518,-0.0990,-43.5563,14.2313,1.5000,
7.447322,0.6872,-0.2505,-0.2198,0.0069,0.0518,-0.0990,-43.5563,14.2313,1.5000,
7.482602,0.6872,-0.2505,-0.2198,0.0026,0.0790,-0.0533,-43.5563,14.2313,1.5000,
7.487557,0.5856,-0.0823,-0.0145,0.0026,0.0790,-0.0533,-43.5563,14.2313,1.5000,
7.491257,0.5856,-0.0823,-0.0145,0.0026,0.0790,-0.0533,-43.5563,14.2313,1.5000,
7.494313,0.5856,-0.0823,-0.0145,0.0026,0.0790,-0.0533,-43.5563,14.2313,1.5000,
7.497063,0.5856,-0.0823,-0.0145,0.0026,0.0790,-0.0533,-43.6500,13.9313,1.3875,
7.514385,0.5856,-0.0823,-0.0145,0.0026,0.0790,-0.0533,-43.6500,13.9313,1.3875,
7.541158,0.4740,-0.4359,0.0156,0.0026,0.0790,-0.0533,-43.6500,13.9313,1.3875,
7.546587,0.4740,-0.4359,0.0156,0.0026,0.0790,-0.0533,-43.6500,13.9313,1.3875,
7.548778,0.4740,-0.4359,0.0156,0.0026,0.0790,-0.0533,-43.6500,13.9313,1.3875,
7.559942,0.4740,-0.4359,0.0156,0.0026,0.0790,-0.0533,-43.8750,13.5563,1.2938,
7.564158,0.4740,-0.4359,0.0156,-0.0082,0.0955,-0.0903,-43.8750,13.5563,1.2938,
7.578324,0.4740,-0.4359,0.0156,-0.0082,0.0955,-0.0903,-43.8750,13.5563,1.2938,
7.601140,0.2164,-0.3119,0.1192,-0.0082,0.0955,-0.0903,-43.8750,13.5563,1.2938,
7.606177,0.2164,-0.3119,0.1192,-0.0082,0.0955,-0.0903,-43.8750,13.5563,1.2938,
7.608064,0.2164,-0.3119,0.1192,-0.0082,0.0955,-0.0903,-43.8750,13.5563,1.2938,
7.623608,0.2164,-0.3119,0.1192,0.0095,0.0224,-0.0712,-43.8750,13.5563,1.2938,
7.638678,0.2164,-0.3119,0.1192,0.0095,0.0224,-0.0712,-43.8750,13.5563,1.2938,
7.641560,0.2164,-0.3119,0.1192,0.0095,0.0224,-0.0712,-44.0250,13.3500,1.1063,
7.644899,0.2164,-0.3119,0.1192,0.0095,0.0224,-0.0712,-44.0250,13.3500,1.1063,
7.662565,0.2164,-0.3119,0.1192,0.0095,0.0224,-0.0712,-44.0250,13.3500,1.1063,
7.666225,0.2071,0.0448,0.0532,0.0095,0.0224,-0.0712,-44.0250,13.3500,1.1063,
7.680095,0.2071,0.0448,0.0532,-0.0952,-0.0101,-0.1142,-44.0250,13.3500,1.1063,
7.696085,0.2071,0.0448,0.0532,-0.0952,-0.0101,-0.1142,-44.0250,13.3500,1.1063,
7.698802,0.2071,0.0448,0.0532,-0.0952,-0.0101,-0.1142,-44.0625,13.0500,1.1250,
7.711910,0.2071,0.0448,0.0532,-0.0952,-0.0101,-0.1142,-44.0625,13.0500,1.1250,
7.721477,0.0753,-0.1096,-0.1293,-0.0952,-0.0101,-0.1142,-44.0625,13.0500,1.1250,
7.727367,0.0753,-0.1096,-0.1293,-0.0952,-0.0101,-0.1142,-44.0625,13.0500,1.1250,
7.755523,0.0753,-0.1096,-0.1293,-0.0952,-0.0101,-0.1142,-44.0625,13.0500,1.1250,
7.758243,0.0753,-0.1096,-0.1293,-0.0952,-0.0101,-0.1142,-44.2688,12.8625,0.9938,
7.760324,0.0753,-0.1096,-0.1293,-0.1111,-0.0318,-0.0882,-44.2688,12.8625,0.9938,
7.778306,0.0753,-0.1096,-0.1293,-0.1111,-0.0318,-0.0882,-44.2688,12.8625,0.9938,
7.780728,0.0359,-0.3403,-0.1673,-0.1111,-0.0318,-0.0882,-44.2688,12.8625,0.9938,
7.782420,0.0359,-0.3403,-0.1673,-0.1111,-0.0318,-0.0882,-44.2688,12.8625,0.9938,
7.824506,0.0359,-0.3403,-0.1673,-0.1111,-0.0318,-0.0882,-44.2688,12.8625,0.9938,
7.828524,0.0359,-0.3403,-0.1673,-0.0359,-0.1326,-0.0441,-44.2688,12.8625,0.9938,
7.840225,0.0359,-0.3403,-0.1673,-0.0359,-0.1326,-0.0441,-44.4938,12.7875,0.9000,
7.845706,0.0359,-0.3403,-0.1673,-0.0359,-0.1326,-0.0441,-44.4938,12.7875,0.9000,
7.848151,0.1396,-0.3787,0.2024,-0.0359,-0.1326,-0.0441,-44.4938,12.7875,0.9000,
7.851047,0.1396,-0.3787,0.2024,-0.0359,-0.1326,-0.0441,-44.4938,12.7875,0.9000,
7.880766,0.1396,-0.3787,0.2024,-0.0359,-0.1326,-0.0441,-44.4938,12.7875,0.9000,
7.884704,0.1396,-0.3787,0.2024,-0.0889,-0.0626,-0.1474,-44.4938,12.7875,0.9000,
7.897311,0.1396,-0.3787,0.2024,-0.0889,-0.0626,-0.1474,-44.7375,12.5250,0.9000,
7.902257,0.1396,-0.3787,0.2024,-0.0889,-0.0626,-0.1474,-44.7375,12.5250,0.9000,
7.905092,0.7671,0.1471,-0.2799,-0.0889,-0.0626,-0.1474,-44.7375,12.5250,0.9000,
7.908751,0.7671,0.1471,-0.2799,-0.0889,-0.0626,-0.1474,-44.7375,12.5250,0.9000,
7.956830,0.7671,0.1471,-0.2799,-0.0889,-0.0626,-0.1474,-44.7375,12.5250,0.9000,
7.961234,0.7671,0.1471,-0.2799,-0.0889,-0.0626,-0.1474,-44.7375,12.5250,0.9000,
7.964438,0.7671,0.1471,-0.2799,-0.0889,-0.0626,-0.1474,-44.6813,12.2625,0.9188,
7.968368,0.7671,0.1471,-0.2799,0.0126,0.0447,0.0164,-44.6813,12.2625,0.9188,
7.971161,0.7671,0.1471,-0.2799,0.0126,0.0447,0.0164,-44.6813,12.2625,0.9188,
7.974099,-0.0027,-0.0212,0.1878,0.0126,0.0447,0.0164,-44.6813,12.2625,0.9188,
8.021847,-0.0027,-0.0212,0.1878,-0.0817,-0.0363,-0.0124,-44.6813,12.2625,0.9188,
8.027774,-0.0027,-0.0212,0.1878,-0.0817,-0.0363,-0.0124,-44.6813,12.2625,0.9188,
8.030062,-0.0027,-0.0212,0.1878,-0.0817,-0.0363,-0.0124,-44.6813,12.2625,0.9188,
8.032268,-0.0523,-0.2158,-0.2306,-0.0817,-0.0363,-0.0124,-44.6813,12.2625,0.9188,
8.036092,-0.0523,-0.2158,-0.2306,-0.0817,-0.0363,-0.0124,-44.6813,12.2625,0.9188,
8.038987,-0.0523,-0.2158,-0.2306,-0.0817,-0.0363,-0.0124,-44.8500,12.0750,1.0875,
8.047758,-0.0523,-0.2158,-0.2306,-0.0817,-0.0363,-0.0124,-44.8500,12.0750,1.0875,
8.081449,-0.0523,-0.2158,-0.2306,-0.0538,-0.1585,0.0615,-44.8500,12.0750,1.0875,
8.085656,-0.2270,-0.1768,0.1348,-0.0538,-0.1585,0.0615,-44.8500,12.0750,1.0875,
8.088335,-0.2270,-0.1768,0.1348,-0.0538,-0.1585,0.0615,-44.8500,12.0750,1.0875,
8.090303,-0.2270,-0.1768,0.1348,-0.0538,-0.1585,0.0615,-44.8500,12.0750,1.0875,
8.097133,-0.2270,-0.1768,0.1348,-0.0538,-0.1585,0.0615,-44.8500,11.9813,1.2938,
8.112988,-0.2270,-0.1768,0.1348,-0.0538,-0.1585,0.0615,-44.8500,11.9813,1.2938,
8.143749,-0.2270,-0.1768,0.1348,-0.0538,-0.1585,0.0615,-44.8500,11.9813,1.2938,
8.146830,-0.2270,-0.1768,0.1348,-0.0538,-0.1585,0.0615,-44.8500,11.9813,1.2938,
8.148544,0.2688,-0.0501,-0.1024,-0.0538,-0.1585,0.0615,-44.8500,11.9813,1.2938,
8.154632,0.2688,-0.0501,-0.1024,-0.0538,-0.1585,0.0615,-44.8688,11.7938,1.4813,
8.161252,0.2688,-0.0501,-0.1024,-0.0726,-0.1410,-0.0664,-44.8688,11.7938,1.4813,
8.177763,0.2688,-0.0501,-0.1024,-0.0726,-0.1410,-0.0664,-44.8688,11.7938,1.4813,
8.200903,0.2688,-0.0501,-0.1024,-0.0726,-0.1410,-0.0664,-44.8688,11.7938,1.4813,
8.204917,0.2688,-0.0501,-0.1024,-0.0726,-0.1410,-0.0664,-44.8688,11.7938,1.4813,
8.207147,0.4455,-0.3960,-0.0704,-0.0726,-0.1410,-0.0664,-44.8688,11.7938,1.4813,
8.221807,0.4455,-0.3960,-0.0704,0.0601,0.0126,-0.0317,-44.8688,11.7938,1.4813,
8.240811,0.4455,-0.3960,-0.0704,0.0601,0.0126,-0.0317,-44.8688,11.7938,1.4813,
8.244354,0.4455,-0.3960,-0.0704,0.0601,0.0126,-0.0317,-44.9250,11.6625,1.6688,
8.247480,0.4455,-0.3960,-0.0704,0.0601,0.0126,-0.0317,-44.9250,11.6625,1.6688,
8.260957,0.2266,0.0878,-0.2295,0.0601,0.0126,-0.0317,-44.9250,11.6625,1.6688,
8.265258,0.2266,0.0878,-0.2295,0.0601,0.0126,-0.0317,-44.9250,11.6625,1.6688,
8.281429,0.2266,0.0878,-0.2295,-0.0131,-0.1354,-0.3533,-44.9250,11.6625,1.6688,
8.294882,0.2266,0.0878,-0.2295,-0.0131,-0.1354,-0.3533,-44.9250,11.6625,1.6688,
8.297251,0.2266,0.0878,-0.2295,-0.0131,-0.1354,-0.3533,-44.9625,11.4938,1.8000,
8.311979,0.2266,0.0878,-0.2295,-0.0131,-0.1354,-0.3533,-44.9625,11.4938,1.8000,
8.321761,-0.0561,-1.1614,0.2124,-0.0131,-0.1354,-0.3533,-44.9625,11.4938,1.8000,
8.325858,-0.0561,-1.1614,0.2124,-0.0131,-0.1354,-0.3533,-44.9625,11.4938,1.8000,
8.356273,-0.0561,-1.1614,0.2124,-0.0131,-0.1354,-0.3533,-44.9625,11.4938,1.8000,
8.359107,-0.0561,-1.1614,0.2124,-0.0131,-0.1354,-0.3533,-45.1313,11.1000,2.1000,
8.361192,-0.0561,-1.1614,0.2124,-0.1587,-0.3253,-1.1149,-45.1313,11.1000,2.1000,
8.378278,-0.0561,-1.1614,0.2124,-0.1587,-0.3253,-1.1149,-45.1313,11.1000,2.1000,
8.381322,-0.0561,-1.1614,0.2124,-0.1587,-0.3253,-1.1149,-45.1313,11.1000,2.1000,
8.382693,-0.1027,-0.7138,0.1589,-0.1587,-0.3253,-1.1149,-45.1313,11.1000,2.1000,
8.422449,-0.1027,-0.7138,0.1589,-0.1587,-0.3253,-1.1149,-45.1313,11.1000,2.1000,
8.427165,-0.1027,-0.7138,0.1589,0.3641,0.0888,0.6141,-45.1313,11.1000,2.1000,
8.436789,-0.1027,-0.7138,0.1589,0.3641,0.0888,0.6141,-45.1313,11.1000,2.1000,
8.440269,-0.1027,-0.7138,0.1589,0.3641,0.0888,0.6141,-45.2250,10.6688,2.3063,
8.444197,-0.1027,-0.7138,0.1589,0.3641,0.0888,0.6141,-45.2250,10.6688,2.3063,
8.446503,-0.7658,1.8052,0.7052,0.3641,0.0888,0.6141,-45.2250,10.6688,2.3063,
8.484458,-0.7658,1.8052,0.7052,0.3641,0.0888,0.6141,-45.2250,10.6688,2.3063,
8.488766,-0.7658,1.8052,0.7052,0.0567,0.1284,0.4962,-45.2250,10.6688,2.3063,
8.497311,-0.7658,1.8052,0.7052,0.0567,0.1284,0.4962,-45.2812,10.6500,2.4938,
8.501805,-0.7658,1.8052,0.7052,0.0567,0.1284,0.4962,-45.2812,10.6500,2.4938,
8.505004,-0.7658,1.8052,0.7052,0.0567,0.1284,0.4962,-45.2812,10.6500,2.4938,
8.507164,1.2365,0.4507,-0.7375,0.0567,0.1284,0.4962,-45.2812,10.6500,2.4938,
8.557793,1.2365,0.4507,-0.7375,0.0567,0.1284,0.4962,-45.2812,10.6500,2.4938,
8.562450,1.2365,0.4507,-0.7375,0.0567,0.1284,0.4962,-45.2812,10.6500,2.4938,
8.565520,1.2365,0.4507,-0.7375,0.0567,0.1284,0.4962,-45.3000,10.4250,2.6438,
8.568811,1.2365,0.4507,-0.7375,-0.3764,0.1539,-0.5508,-45.3000,10.4250,2.6438,
8.571811,1.2657,-0.4088,-0.6776,-0.3764,0.1539,-0.5508,-45.3000,10.4250,2.6438,
8.575490,1.2657,-0.4088,-0.6776,-0.3764,0.1539,-0.5508,-45.3000,10.4250,2.6438,
8.625231,1.2657,-0.4088,-0.6776,0.1850,0.2418,0.3978,-45.3000,10.4250,2.6438,
8.630459,-0.7830,0.3535,0.5713,0.1850,0.2418,0.3978,-45.3000,10.4250,2.6438,
8.634431,-0.7830,0.3535,0.5713,0.1850,0.2418,0.3978,-45.3000,10.4250,2.6438,
8.637638,-0.7830,0.3535,0.5713,0.1850,0.2418,0.3978,-45.3000,10.4250,2.6438,
8.640399,-0.7830,0.3535,0.5713,0.1850,0.2418,0.3978,-45.3000,10.4250,2.6438,
8.642901,-0.7830,0.3535,0.5713,0.1850,0.2418,0.3978,-45.3188,10.1813,2.6625,
8.650957,-0.7830,0.3535,0.5713,0.1850,0.2418,0.3978,-45.3188,10.1813,2.6625,
8.682797,-0.7830,0.3535,0.5713,-0.0454,0.0835,0.0045,-45.3188,10.1813,2.6625,
8.688540,0.2912,-0.3411,-0.2803,-0.0454,0.0835,0.0045,-45.3188,10.1813,2.6625,
8.692083,0.2912,-0.3411,-0.2803,-0.0454,0.0835,0.0045,-45.3188,10.1813,2.6625,
8.695910,0.2912,-0.3411,-0.2803,-0.0454,0.0835,0.0045,-45.3188,10.1813,2.6625,
8.698849,0.2912,-0.3411,-0.2803,-0.0454,0.0835,0.0045,-45.4125,10.0688,2.7188,
8.716767,0.2912,-0.3411,-0.2803,-0.0454,0.0835,0.0045,-45.4125,10.0688,2.7188,
8.743538,0.3123,-0.3304,0.1284,-0.0454,0.0835,0.0045,-45.4125,10.0688,2.7188,
8.748413,0.3123,-0.3304,0.1284,-0.0454,0.0835,0.0045,-45.4125,10.0688,2.7188,
8.750737,0.3123,-0.3304,0.1284,-0.0454,0.0835,0.0045,-45.4125,10.0688,2.7188,
8.758182,0.3123,-0.3304,0.1284,-0.0454,0.0835,0.0045,-45.4313,9.9000,2.6438,
8.762944,0.3123,-0.3304,0.1284,-0.2900,-0.2062,-0.2062,-45.4313,9.9000,2.6438,
8.776550,0.3123,-0.3304,0.1284,-0.2900,-0.2062,-0.2062,-45.4313,9.9000,2.6438,
8.803629,0.3123,-0.3304,0.1284,-0.2900,-0.2062,-0.2062,-45.4313,9.9000,2.6438,
8.806619,0.3123,-0.3304,0.1284,-0.2900,-0.2062,-0.2062,-45.4313,9.9000,2.6438,
8.808262,-0.1774,-0.8082,0.0490,-0.2900,-0.2062,-0.2062,-45.4313,9.9000,2.6438,
8.822681,-0.1774,-0.8082,0.0490,-0.1332,-0.1123,-0.2995,-45.4313,9.9000,2.6438,
8.842058,-0.1774,-0.8082,0.0490,-0.1332,-0.1123,-0.2995,-45.4313,9.9000,2.6438,
8.846487,-0.1774,-0.8082,0.0490,-0.1332,-0.1123,-0.2995,-45.4875,9.7125,2.6063,
8.848676,-0.1774,-0.8082,0.0490,-0.1332,-0.1123,-0.2995,-45.4875,9.7125,2.6063,
8.862343,-0.1196,0.7016,-0.2973,-0.1332,-0.1123,-0.2995,-45.4875,9.7125,2.6063,
8.865632,-0.1196,0.7016,-0.2973,-0.1332,-0.1123,-0.2995,-45.4875,9.7125,2.6063,
8.881385,-0.1196,0.7016,-0.2973,0.1639,-0.1658,0.2528,-45.4875,9.7125,2.6063,
8.896421,-0.1196,0.7016,-0.2973,0.1639,-0.1658,0.2528,-45.3750,9.7500,2.6250,
8.900819,-0.1196,0.7016,-0.2973,0.1639,-0.1658,0.2528,-45.3750,9.7500,2.6250,
8.914585,-0.1196,0.7016,-0.2973,0.1639,-0.1658,0.2528,-45.3750,9.7500,2.6250,
8.921508,-0.1196,0.7016,-0.2973,0.1639,-0.1658,0.2528,-45.3750,9.7500,2.6250,
8.924597,0.0163,0.4542,0.8518,0.1639,-0.1658,0.2528,-45.3750,9.7500,2.6250,
8.954679,0.0163,0.4542,0.8518,0.1639,-0.1658,0.2528,-45.3750,9.7500,2.6250,
8.957403,0.0163,0.4542,0.8518,0.1639,-0.1658,0.2528,-45.2438,9.9938,2.7188,
8.960689,0.0163,0.4542,0.8518,-0.5821,-0.1513,-0.0479,-45.2438,9.9938,2.7188,
8.977515,0.0163,0.4542,0.8518,-0.5821,-0.1513,-0.0479,-45.2438,9.9938,2.7188,
8.984004,0.0163,0.4542,0.8518,-0.5821,-0.1513,-0.0479,-45.2438,9.9938,2.7188,
8.986403,0.7719,-0.1387,-0.8933,-0.5821,-0.1513,-0.0479,-45.2438,9.9938,2.7188,
9.022765,0.7719,-0.1387,-0.8933,-0.5821,-0.1513,-0.0479,-45.2438,9.9938,2.7188,
9.026257,0.7719,-0.1387,-0.8933,0.1487,0.0756,0.0230,-45.2438,9.9938,2.7188,
9.037728,0.7719,-0.1387,-0.8933,0.1487,0.0756,0.0230,-45.1875,9.8250,2.7938,
9.041797,0.7719,-0.1387,-0.8933,0.1487,0.0756,0.0230,-45.1875,9.8250,2.7938,
9.043862,-0.1311,-0.6529,0.6818,0.1487,0.0756,0.0230,-45.1875,9.8250,2.7938,
9.046068,-0.1311,-0.6529,0.6818,0.1487,0.0756,0.0230,-45.1875,9.8250,2.7938,
9.081864,-0.1311,-0.6529,0.6818,0.0987,0.0066,0.0149,-45.1875,9.8250,2.7938,
9.087314,-0.1311,-0.6529,0.6818,0.0987,0.0066,0.0149,-45.1875,9.8250,2.7938,
9.096073,-0.1311,-0.6529,0.6818,0.0987,0.0066,0.0149,-45.1875,9.8250,2.7938,
9.099184,-0.1311,-0.6529,0.6818,0.0987,0.0066,0.0149,-45.1688,9.9188,2.8875,
9.107228,0.6330,-0.4009,-0.8927,0.0987,0.0066,0.0149,-45.1688,9.9188,2.8875,
9.112687,0.6330,-0.4009,-0.8927,0.0987,0.0066,0.0149,-45.1688,9.9188,2.8875,
9.157729,0.6330,-0.4009,-0.8927,0.0987,0.0066,0.0149,-45.2812,9.8813,3.0938,
9.162582,0.6330,-0.4009,-0.8927,0.0987,0.0066,0.0149,-45.2812,9.8813,3.0938,
9.166064,0.6330,-0.4009,-0.8927,0.0987,0.0066,0.0149,-45.2812,9.8813,3.0938,
9.168886,0.6330,-0.4009,-0.8927,0.0708,-0.1029,-0.3775,-45.2812,9.8813,3.0938,
9.171867,0.2936,-0.4725,0.1009,0.0708,-0.1029,-0.3775,-45.2812,9.8813,3.0938,
9.174065,0.2936,-0.4725,0.1009,0.0708,-0.1029,-0.3775,-45.2812,9.8813,3.0938,
9.221891,0.2936,-0.4725,0.1009,0.2585,0.2528,-0.0287,-45.2812,9.8813,3.0938,
9.226001,-0.0057,0.5963,-0.5165,0.2585,0.2528,-0.0287,-45.2812,9.8813,3.0938,
9.228246,-0.0057,0.5963,-0.5165,0.2585,0.2528,-0.0287,-45.2812,9.8813,3.0938,
9.229763,-0.0057,0.5963,-0.5165,0.2585,0.2528,-0.0287,-45.2812,9.8813,3.0938,
9.231257,-0.0057,0.5963,-0.5165,0.2585,0.2528,-0.0287,-45.2812,9.8813,3.0938,
9.234257,-0.0057,0.5963,-0.5165,0.2585,0.2528,-0.0287,-45.3000,9.7875,3.1688,
9.243444,-0.0057,0.5963,-0.5165,0.2585,0.2528,-0.0287,-45.3000,9.7875,3.1688,
9.283567,-0.0057,0.5963,-0.5165,0.0541,0.2335,-0.0337,-45.3000,9.7875,3.1688,
9.287695,0.3617,-0.1593,-0.2802,0.0541,0.2335,-0.0337,-45.3000,9.7875,3.1688,
9.289700,0.3617,-0.1593,-0.2802,0.0541,0.2335,-0.0337,-45.3000,9.7875,3.1688,
9.291114,0.3617,-0.1593,-0.2802,0.0541,0.2335,-0.0337,-45.3000,9.7875,3.1688,
9.295388,0.3617,-0.1593,-0.2802,0.0541,0.2335,-0.0337,-45.4688,9.6375,3.1313,
9.311211,0.3617,-0.1593,-0.2802,0.0541,0.2335,-0.0337,-45.4688,9.6375,3.1313,
9.342339,0.2999,0.1795,-0.6455,0.0541,0.2335,-0.0337,-45.4688,9.6375,3.1313,
9.347634,0.2999,0.1795,-0.6455,0.0541,0.2335,-0.0337,-45.4688,9.6375,3.1313,
9.350518,0.2999,0.1795,-0.6455,0.0541,0.2335,-0.0337,-45.4688,9.6375,3.1313,
9.358592,0.2999,0.1795,-0.6455,0.0541,0.2335,-0.0337,-45.5813,9.3375,3.1875,
9.363981,0.2999,0.1795,-0.6455,-0.3849,0.0753,-0.2105,-45.5813,9.3375,3.1875,
9.378482,0.2999,0.1795,-0.6455,-0.3849,0.0753,-0.2105,-45.5813,9.3375,3.1875,
9.402098,0.2999,0.1795,-0.6455,-0.3849,0.0753,-0.2105,-45.5813,9.3375,3.1875,
9.406084,0.2999,0.1795,-0.6455,-0.3849,0.0753,-0.2105,-45.5813,9.3375,3.1875,
9.408238,-0.3061,0.3084,-0.2072,-0.3849,0.0753,-0.2105,-45.5813,9.3375,3.1875,
9.423719,-0.3061,0.3084,-0.2072,-0.3308,0.0359,0.2344,-45.5813,9.3375,3.1875,
9.439354,-0.3061,0.3084,-0.2072,-0.3308,0.0359,0.2344,-45.5813,9.3375,3.1875,
9.442765,-0.3061,0.3084,-0.2072,-0.3308,0.0359,0.2344,-45.5813,9.3000,3.0563,
9.446695,-0.3061,0.3084,-0.2072,-0.3308,0.0359,0.2344,-45.5813,9.3000,3.0563,
9.464491,-0.3061,0.3084,-0.2072,-0.3308,0.0359,0.2344,-45.5813,9.3000,3.0563,
9.466994,0.1139,0.1371,0.4753,-0.3308,0.0359,0.2344,-45.5813,9.3000,3.0563,
9.481737,0.1139,0.1371,0.4753,-0.2240,-0.1376,0.1218,-45.5813,9.3000,3.0563,
9.496396,0.1139,0.1371,0.4753,-0.2240,-0.1376,0.1218,-45.5813,9.3000,3.0563,
9.499258,0.1139,0.1371,0.4753,-0.2240,-0.1376,0.1218,-45.6188,9.0938,3.0188,
9.512271,0.1139,0.1371,0.4753,-0.2240,-0.1376,0.1218,-45.6188,9.0938,3.0188,
9.527477,0.4878,-0.9290,0.9527,-0.2240,-0.1376,0.1218,-45.6188,9.0938,3.0188,
9.531859,0.4878,-0.9290,0.9527,-0.2240,-0.1376,0.1218,-45.6188,9.0938,3.0188,
9.556545,0.4878,-0.9290,0.9527,-0.2240,-0.1376,0.1218,-45.6188,9.0938,3.0188,
9.559772,0.4878,-0.9290,0.9527,-0.2240,-0.1376,0.1218,-45.7500,9.0750,3.0563,
9.562019,0.4878,-0.9290,0.9527,0.0461,-0.1305,-0.2785,-45.7500,9.0750,3.0563,
9.578203,0.4878,-0.9290,0.9527,0.0461,-0.1305,-0.2785,-45.7500,9.0750,3.0563,
9.583730,1.0214,-0.0978,0.0877,0.0461,-0.1305,-0.2785,-45.7500,9.0750,3.0563,
9.587460,1.0214,-0.0978,0.0877,0.0461,-0.1305,-0.2785,-45.7500,9.0750,3.0563,
9.624594,1.0214,-0.0978,0.0877,0.0461,-0.1305,-0.2785,-45.7500,9.0750,3.0563,
9.628530,1.0214,-0.0978,0.0877,-0.1639,0.2385,-0.0103,-45.7500,9.0750,3.0563,
9.640190,1.0214,-0.0978,0.0877,-0.1639,0.2385,-0.0103,-45.7500,9.0750,3.0563,
9.645071,1.0214,-0.0978,0.0877,-0.1639,0.2385,-0.0103,-45.8813,8.7750,3.0750,
9.648110,-0.5341,0.7553,-0.4189,-0.1639,0.2385,-0.0103,-45.8813,8.7750,3.0750,
9.650981,-0.5341,0.7553,-0.4189,-0.1639,0.2385,-0.0103,-45.8813,8.7750,3.0750,
9.682061,-0.5341,0.7553,-0.4189,-0.0044,0.0358,0.3254,-45.8813,8.7750,3.0750,
9.687643,-0.5341,0.7553,-0.4189,-0.0044,0.0358,0.3254,-45.8813,8.7750,3.0750,
9.697267,-0.5341,0.7553,-0.4189,-0.0044,0.0358,0.3254,-45.8438,8.8313,2.9062,
9.701301,-0.5341,0.7553,-0.4189,-0.0044,0.0358,0.3254,-45.8438,8.8313,2.9062,
9.704597,-0.4356,-0.1886,0.3123,-0.0044,0.0358,0.3254,-45.8438,8.8313,2.9062,
9.708020,-0.4356,-0.1886,0.3123,-0.0044,0.0358,0.3254,-45.8438,8.8313,2.9062,
9.757018,-0.4356,-0.1886,0.3123,-0.0044,0.0358,0.3254,-45.8438,8.8125,3.0563,
9.761780,-0.4356,-0.1886,0.3123,-0.0044,0.0358,0.3254,-45.8438,8.8125,3.0563,
9.764802,-0.4356,-0.1886,0.3123,-0.0044,0.0358,0.3254,-45.8438,8.8125,3.0563,
9.767515,-0.4356,-0.1886,0.3123,-0.1599,-0.0755,0.0878,-45.8438,8.8125,3.0563,
9.770706,0.7758,-0.0248,-0.2475,-0.1599,-0.0755,0.0878,-45.8438,8.8125,3.0563,
9.779151,0.7758,-0.0248,-0.2475,-0.1599,-0.0755,0.0878,-45.8438,8.8125,3.0563,
9.828372,0.4680,-0.2746,0.5276,-0.1599,-0.0755,0.0878,-45.8438,8.8125,3.0563,
9.833953,0.4680,-0.2746,0.5276,-0.1599,-0.0755,0.0878,-45.8438,8.8125,3.0563,
9.837118,0.4680,-0.2746,0.5276,-0.1599,-0.0755,0.0878,-45.8438,8.8125,3.0563,
9.839871,0.4680,-0.2746,0.5276,-0.1599,-0.0755,0.0878,-45.8438,8.8125,3.0563,
9.842829,0.4680,-0.2746,0.5276,-0.1324,-0.1445,-0.1330,-45.8438,8.8125,3.0563,
9.846443,0.4680,-0.2746,0.5276,-0.1324,-0.1445,-0.1330,-45.7688,8.9438,3.2438,
9.848971,0.4680,-0.2746,0.5276,-0.1324,-0.1445,-0.1330,-45.7688,8.9438,3.2438,
9.884191,0.4680,-0.2746,0.5276,-0.1324,-0.1445,-0.1330,-45.7688,8.9438,3.2438,
9.888615,0.4680,-0.2746,0.5276,-0.1324,-0.1445,-0.1330,-45.7688,8.9438,3.2438,
9.890671,0.4680,-0.2746,0.5276,-0.0082,-0.2687,-0.0757,-45.7688,8.9438,3.2438,
9.893353,-0.5350,-0.1598,0.4993,-0.0082,-0.2687,-0.0757,-45.7688,8.9438,3.2438,
9.895917,-0.5350,-0.1598,0.4993,-0.0082,-0.2687,-0.0757,-45.6562,8.9813,3.4125,
9.911839,-0.5350,-0.1598,0.4993,-0.0082,-0.2687,-0.0757,-45.6562,8.9813,3.4125,
9.945100,-0.5350,-0.1598,0.4993,-0.0082,-0.2687,-0.0757,-45.6562,8.9813,3.4125,
9.949266,-0.5350,-0.1598,0.4993,-0.0082,-0.2687,-0.0757,-45.6562,8.9813,3.4125,
9.951065,-0.5350,-0.1598,0.4993,0.4246,-0.0227,0.3319,-45.6562,8.9813,3.4125,
9.953797,-0.1162,0.2020,-0.0364,0.4246,-0.0227,0.3319,-45.6562,8.9813,3.4125,
9.956121,-0.1162,0.2020,-0.0364,0.4246,-0.0227,0.3319,-45.4688,9.0563,3.6750,
9.977365,-0.1162,0.2020,-0.0364,0.4246,-0.0227,0.3319,-45.4688,9.0563,3.6750,
10.002166,-0.1162,0.2020,-0.0364,0.4246,-0.0227,0.3319,-45.4688,9.0563,3.6750,
10.004521,-0.1162,0.2020,-0.0364,0.4246,-0.0227,0.3319,-45.4688,9.0563,3.6750,
10.006062,0.4061,-0.1810,0.3953,0.4246,-0.0227,0.3319,-45.4688,9.0563,3.6750,
10.030544,0.4061,-0.1810,0.3953,-0.0941,-0.2537,0.0511,-45.4688,9.0563,3.6750,
