
time,ax,ay,az,wx,wy,wz,Bx,By,Bz,
0.157517,0.0000,0.0000,0.0000,0.0000,0.0000,0.0000,0.0000,0.0000,0.0000,
0.159030,0.0000,0.0000,0.0000,0.0000,0.0000,0.0000,0.0000,0.0000,0.0000,
0.160495,0.0000,0.0000,0.0000,0.0000,0.0000,0.0000,0.0000,0.0000,0.0000,
0.161891,0.0000,0.0000,0.0000,0.0000,0.0000,0.0000,0.0000,0.0000,0.0000,
0.162764,0.0000,0.0000,0.0000,0.0000,0.0000,0.0000,0.0000,0.0000,0.0000,
0.163588,0.0000,0.0000,0.0000,0.0000,0.0000,0.0000,0.0000,0.0000,0.0000,
0.164419,0.0000,0.0000,0.0000,0.0505,0.0028,-0.0618,0.0000,0.0000,0.0000,
0.191887,0.0000,0.0000,0.0000,0.0505,0.0028,-0.0618,0.0000,0.0000,0.0000,
0.193557,0.0000,0.0000,0.0000,0.0505,0.0028,-0.0618,0.0000,0.0000,0.0000,
0.201057,0.0000,0.0000,0.0000,0.0505,0.0028,-0.0618,0.0000,0.0000,0.0000,
0.202465,0.0000,0.0000,0.0000,0.0505,0.0028,-0.0618,0.0000,0.0000,0.0000,
0.203214,0.0000,0.0000,0.0000,0.0505,0.0028,-0.0618,-42.5625,-12.4875,2.5875,
0.222443,0.0000,0.0000,0.0000,0.0551,0.0322,-0.0326,-42.5625,-12.4875,2.5875,
0.256360,0.0000,0.0000,0.0000,0.0551,0.0322,-0.0326,-42.5625,-12.4875,2.5875,
0.257625,0.0000,0.0000,0.0000,0.0551,0.0322,-0.0326,-42.5625,-12.4875,2.5875,
0.265694,0.0000,0.0000,0.0000,0.0551,0.0322,-0.0326,-42.5625,-12.4875,2.5875,
0.266968,0.0001,-0.0543,0.0262,0.0551,0.0322,-0.0326,-42.5625,-12.4875,2.5875,
0.268307,0.0001,-0.0543,0.0262,0.0551,0.0322,-0.0326,-42.6188,-12.6188,2.5875,
0.283798,0.0001,-0.0543,0.0262,0.0289,0.0134,-0.0266,-42.6188,-12.6188,2.5875,
0.323857,0.0001,-0.0543,0.0262,0.0289,0.0134,-0.0266,-42.6188,-12.6188,2.5875,
0.325247,0.0001,-0.0543,0.0262,0.0289,0.0134,-0.0266,-42.6188,-12.6188,2.5875,
0.326438,0.0001,-0.0543,0.0262,0.0289,0.0134,-0.0266,-42.6188,-12.6188,2.5875,
0.327468,-0.0198,0.0023,-0.0967,0.0289,0.0134,-0.0266,-42.6188,-12.6188,2.5875,
0.343010,-0.0198,0.0023,-0.0967,0.0289,0.0134,-0.0266,-42.6188,-12.6188,2.5875,
0.344303,-0.0198,0.0023,-0.0967,0.0289,0.0134,-0.0266,-42.3750,-12.4500,2.2313,
0.361893,-0.0198,0.0023,-0.0967,-0.0179,-0.0228,-0.0525,-42.3750,-12.4500,2.2313,
0.383650,-0.0198,0.0023,-0.0967,-0.0179,-0.0228,-0.0525,-42.3750,-12.4500,2.2313,
0.385011,-0.0198,0.0023,-0.0967,-0.0179,-0.0228,-0.0525,-42.3750,-12.4500,2.2313,
0.386190,-0.0034,0.0097,-0.0317,-0.0179,-0.0228,-0.0525,-42.3750,-12.4500,2.2313,
0.404523,-0.0034,0.0097,-0.0317,-0.0179,-0.0228,-0.0525,-42.3750,-12.4500,2.2313,
0.405718,-0.0034,0.0097,-0.0317,-0.0179,-0.0228,-0.0525,-42.4125,-12.5813,2.3625,
0.424189,-0.0034,0.0097,-0.0317,-0.0092,0.0121,-0.0082,-42.4125,-12.5813,2.3625,
0.446243,-0.0034,0.0097,-0.0317,-0.0092,0.0121,-0.0082,-42.4125,-12.5813,2.3625,
0.449515,-0.0034,0.0097,-0.0317,-0.0092,0.0121,-0.0082,-42.4125,-12.5813,2.3625,
0.451208,-0.3025,-0.0216,0.2387,-0.0092,0.0121,-0.0082,-42.4125,-12.5813,2.3625,
0.463760,-0.3025,-0.0216,0.2387,-0.0092,0.0121,-0.0082,-42.3750,-12.6563,2.4563,
0.466232,-0.3025,-0.0216,0.2387,-0.0092,0.0121,-0.0082,-42.3750,-12.6563,2.4563,
0.481683,-0.3025,-0.0216,0.2387,0.0155,0.0202,0.0292,-42.3750,-12.6563,2.4563,
0.502123,0.0326,0.1202,0.1356,0.0155,0.0202,0.0292,-42.3750,-12.6563,2.4563,
0.505392,0.0326,0.1202,0.1356,0.0155,0.0202,0.0292,-42.3750,-12.6563,2.4563,
0.506355,0.0326,0.1202,0.1356,0.0155,0.0202,0.0292,-42.3750,-12.6563,2.4563,
0.523741,0.0326,0.1202,0.1356,0.0155,0.0202,0.0292,-42.3750,-12.6563,2.4563,
0.544125,0.0326,0.1202,0.1356,0.0155,0.0202,0.0292,-42.3750,-12.6563,2.4563,
0.546102,0.0326,0.1202,0.1356,0.0155,0.0202,0.0292,-42.2812,-12.7313,2.4000,
0.563778,0.0326,0.1202,0.1356,0.0121,0.0054,0.0076,-42.2812,-12.7313,2.4000,
0.566184,0.0326,0.1202,0.1356,0.0121,0.0054,0.0076,-42.2812,-12.7313,2.4000,
0.567808,0.1027,0.1242,0.1088,0.0121,0.0054,0.0076,-42.2812,-12.7313,2.4000,
0.590817,0.1027,0.1242,0.1088,0.0121,0.0054,0.0076,-42.2812,-12.7313,2.4000,
0.607472,0.1027,0.1242,0.1088,0.0121,0.0054,0.0076,-42.2812,-12.7313,2.4000,
0.610325,0.1027,0.1242,0.1088,0.0121,0.0054,0.0076,-42.2625,-12.7313,2.4000,
0.623676,0.1027,0.1242,0.1088,0.0409,-0.0357,0.0308,-42.2625,-12.7313,2.4000,
0.626195,0.1027,0.1242,0.1088,0.0409,-0.0357,0.0308,-42.2625,-12.7313,2.4000,
0.627599,-0.0776,0.0734,0.1940,0.0409,-0.0357,0.0308,-42.2625,-12.7313,2.4000,
0.658048,-0.0776,0.0734,0.1940,0.0409,-0.0357,0.0308,-42.2625,-12.7313,2.4000,
0.662884,-0.0776,0.0734,0.1940,0.0409,-0.0357,0.0308,-42.2625,-12.7313,2.4000,
0.664107,-0.0776,0.0734,0.1940,0.0409,-0.0357,0.0308,-42.3188,-12.7500,2.4938,
0.686268,-0.0776,0.0734,0.1940,0.0251,0.0313,0.0123,-42.3188,-12.7500,2.4938,
0.687729,-0.0776,0.0734,0.1940,0.0251,0.0313,0.0123,-42.3188,-12.7500,2.4938,
0.688754,-0.0170,0.0107,0.1186,0.0251,0.0313,0.0123,-42.3188,-12.7500,2.4938,
0.725523,-0.0170,0.0107,0.1186,0.0251,0.0313,0.0123,-42.3188,-12.7500,2.4938,
0.726822,-0.0170,0.0107,0.1186,0.0251,0.0313,0.0123,-42.3188,-12.7500,2.4938,
0.744555,-0.0170,0.0107,0.1186,0.0251,0.0313,0.0123,-42.3188,-12.7500,2.4938,
0.746618,-0.0170,0.0107,0.1186,0.0251,0.0313,0.0123,-42.2625,-12.8438,2.4750,
0.749129,0.1744,0.0545,-0.1857,0.0251,0.0313,0.0123,-42.2625,-12.8438,2.4750,
0.765049,0.1744,0.0545,-0.1857,-0.0601,0.0250,-0.0360,-42.2625,-12.8438,2.4750,
0.790365,0.1744,0.0545,-0.1857,-0.0601,0.0250,-0.0360,-42.2625,-12.8438,2.4750,
0.792440,0.1744,0.0545,-0.1857,-0.0601,0.0250,-0.0360,-42.2625,-12.8438,2.4750,
0.802815,0.1744,0.0545,-0.1857,-0.0601,0.0250,-0.0360,-42.2625,-12.8438,2.4750,
0.804265,-0.1158,0.1205,-0.0751,-0.0601,0.0250,-0.0360,-42.2625,-12.8438,2.4750,
0.805655,-0.1158,0.1205,-0.0751,-0.0601,0.0250,-0.0360,-42.2063,-12.8625,2.5125,
0.821568,-0.1158,0.1205,-0.0751,-0.0850,-0.0241,0.0352,-42.2063,-12.8625,2.5125,
0.856432,-0.1158,0.1205,-0.0751,-0.0850,-0.0241,0.0352,-42.2063,-12.8625,2.5125,
0.858372,-0.1158,0.1205,-0.0751,-0.0850,-0.0241,0.0352,-42.2063,-12.8625,2.5125,
0.864395,-0.1158,0.1205,-0.0751,-0.0850,-0.0241,0.0352,-42.2063,-12.8625,2.5125,
0.866369,-0.0452,0.2257,-0.0452,-0.0850,-0.0241,0.0352,-42.2063,-12.8625,2.5125,
0.868217,-0.0452,0.2257,-0.0452,-0.0850,-0.0241,0.0352,-42.2812,-12.9563,2.6813,
0.883671,-0.0452,0.2257,-0.0452,-0.1192,-0.0759,0.0434,-42.2812,-12.9563,2.6813,
0.927125,-0.0452,0.2257,-0.0452,-0.1192,-0.0759,0.0434,-42.2812,-12.9563,2.6813,
0.928714,-0.0452,0.2257,-0.0452,-0.1192,-0.0759,0.0434,-42.2812,-12.9563,2.6813,
0.929952,-0.0452,0.2257,-0.0452,-0.1192,-0.0759,0.0434,-42.2812,-12.9563,2.6813,
0.930885,0.1591,0.2599,0.0933,-0.1192,-0.0759,0.0434,-42.2812,-12.9563,2.6813,
0.944766,0.1591,0.2599,0.0933,-0.1192,-0.0759,0.0434,-42.2812,-12.9563,2.6813,
0.946483,0.1591,0.2599,0.0933,-0.1192,-0.0759,0.0434,-42.2063,-12.9563,2.6250,
0.960917,0.1591,0.2599,0.0933,-0.0806,-0.0377,0.0258,-42.2063,-12.9563,2.6250,
0.982655,0.1591,0.2599,0.0933,-0.0806,-0.0377,0.0258,-42.2063,-12.9563,2.6250,
0.983964,0.1591,0.2599,0.0933,-0.0806,-0.0377,0.0258,-42.2063,-12.9563,2.6250,
0.985031,0.1069,0.2159,0.3070,-0.0806,-0.0377,0.0258,-42.2063,-12.9563,2.6250,
1.003047,0.1069,0.2159,0.3070,-0.0806,-0.0377,0.0258,-42.2625,-12.9000,2.6250,
1.004619,0.1069,0.2159,0.3070,-0.0806,-0.0377,0.0258,-42.2625,-12.9000,2.6250,
1.023126,0.1069,0.2159,0.3070,-0.0910,-0.0171,-0.0441,-42.2625,-12.9000,2.6250,
1.044092,0.1069,0.2159,0.3070,-0.0910,-0.0171,-0.0441,-42.2625,-12.9000,2.6250,
1.046326,0.3993,0.1762,0.0614,-0.0910,-0.0171,-0.0441,-42.2625,-12.9000,2.6250,
1.048507,0.3993,0.1762,0.0614,-0.0910,-0.0171,-0.0441,-42.2625,-12.9000,2.6250,
1.065526,0.3993,0.1762,0.0614,-0.0910,-0.0171,-0.0441,-42.2625,-12.9000,2.6250,
1.067489,0.3993,0.1762,0.0614,-0.0910,-0.0171,-0.0441,-42.3375,-12.8813,2.5875,
1.086811,0.3993,0.1762,0.0614,-0.0760,0.0144,-0.1251,-42.3375,-12.8813,2.5875,
1.103974,0.3993,0.1762,0.0614,-0.0760,0.0144,-0.1251,-42.3375,-12.8813,2.5875,
1.105548,0.3993,0.1762,0.0614,-0.0760,0.0144,-0.1251,-42.3375,-12.8813,2.5875,
1.106260,0.3278,0.2650,0.0794,-0.0760,0.0144,-0.1251,-42.3375,-12.8813,2.5875,
1.125381,0.3278,0.2650,0.0794,-0.0760,0.0144,-0.1251,-42.3375,-12.8813,2.5875,
1.144307,0.3278,0.2650,0.0794,-0.0760,0.0144,-0.1251,-42.3375,-12.8813,2.5875,
1.146441,0.3278,0.2650,0.0794,-0.0760,0.0144,-0.1251,-42.4313,-12.9000,2.5312,
1.162502,0.3278,0.2650,0.0794,-0.0788,0.0433,-0.1555,-42.4313,-12.9000,2.5312,
1.165070,0.3278,0.2650,0.0794,-0.0788,0.0433,-0.1555,-42.4313,-12.9000,2.5312,
1.166189,-0.0805,0.3670,-0.0009,-0.0788,0.0433,-0.1555,-42.4313,-12.9000,2.5312,
1.190258,-0.0805,0.3670,-0.0009,-0.0788,0.0433,-0.1555,-42.4313,-12.9000,2.5312,
1.204438,-0.0805,0.3670,-0.0009,-0.0788,0.0433,-0.1555,-42.4313,-12.9000,2.5312,
1.206304,-0.0805,0.3670,-0.0009,-0.0788,0.0433,-0.1555,-42.4500,-12.9938,2.3063,
1.224272,-0.0805,0.3670,-0.0009,-0.0770,0.0245,-0.0952,-42.4500,-12.9938,2.3063,
1.226847,-0.0805,0.3670,-0.0009,-0.0770,0.0245,-0.0952,-42.4500,-12.9938,2.3063,
1.227977,-0.4107,0.2767,0.0778,-0.0770,0.0245,-0.0952,-42.4500,-12.9938,2.3063,
1.257849,-0.4107,0.2767,0.0778,-0.0770,0.0245,-0.0952,-42.4500,-12.9938,2.3063,
1.263597,-0.4107,0.2767,0.0778,-0.0770,0.0245,-0.0952,-42.5063,-13.1625,2.1750,
1.265239,-0.4107,0.2767,0.0778,-0.0770,0.0245,-0.0952,-42.5063,-13.1625,2.1750,
1.283870,-0.4107,0.2767,0.0778,-0.0622,-0.0086,-0.0040,-42.5063,-13.1625,2.1750,
1.285560,-0.4107,0.2767,0.0778,-0.0622,-0.0086,-0.0040,-42.5063,-13.1625,2.1750,
1.286624,-0.4666,0.2992,0.0692,-0.0622,-0.0086,-0.0040,-42.5063,-13.1625,2.1750,
1.324764,-0.4666,0.2992,0.0692,-0.0622,-0.0086,-0.0040,-42.5063,-13.1625,2.1750,
1.326050,-0.4666,0.2992,0.0692,-0.0622,-0.0086,-0.0040,-42.5063,-13.1625,2.1750,
1.344601,-0.4666,0.2992,0.0692,-0.0459,-0.0151,0.0600,-42.5063,-13.1625,2.1750,
1.346919,-0.5026,0.3339,0.2628,-0.0459,-0.0151,0.0600,-42.5063,-13.1625,2.1750,
1.348422,-0.5026,0.3339,0.2628,-0.0459,-0.0151,0.0600,-42.4688,-13.1813,2.1000,
1.349869,-0.5026,0.3339,0.2628,-0.0459,-0.0151,0.0600,-42.4688,-13.1813,2.1000,
1.390250,-0.5026,0.3339,0.2628,-0.0459,-0.0151,0.0600,-42.4688,-13.1813,2.1000,
1.392226,-0.5026,0.3339,0.2628,-0.0459,-0.0151,0.0600,-42.4688,-13.1813,2.1000,
1.406836,-0.5026,0.3339,0.2628,-0.0459,-0.0151,0.0600,-42.4688,-13.1813,2.1000,
1.408505,-0.5026,0.3339,0.2628,-0.0459,-0.0151,0.0600,-42.3563,-13.3313,2.0813,
1.410338,-0.2741,0.5182,0.0518,-0.0459,-0.0151,0.0600,-42.3563,-13.3313,2.0813,
1.423695,-0.2741,0.5182,0.0518,-0.0182,-0.0046,0.1077,-42.3563,-13.3313,2.0813,
1.457133,-0.2741,0.5182,0.0518,-0.0182,-0.0046,0.1077,-42.3563,-13.3313,2.0813,
1.458990,-0.2741,0.5182,0.0518,-0.0182,-0.0046,0.1077,-42.3563,-13.3313,2.0813,
1.463696,-0.2741,0.5182,0.0518,-0.0182,-0.0046,0.1077,-42.3563,-13.3313,2.0813,
1.465035,-0.2011,0.6081,0.1269,-0.0182,-0.0046,0.1077,-42.3563,-13.3313,2.0813,
1.466562,-0.2011,0.6081,0.1269,-0.0182,-0.0046,0.1077,-42.3750,-13.5188,2.1375,
1.483052,-0.2011,0.6081,0.1269,-0.0184,-0.0250,0.1519,-42.3750,-13.5188,2.1375,
1.524352,-0.2011,0.6081,0.1269,-0.0184,-0.0250,0.1519,-42.3750,-13.5188,2.1375,
1.526166,-0.2011,0.6081,0.1269,-0.0184,-0.0250,0.1519,-42.3750,-13.5188,2.1375,
1.527343,-0.2011,0.6081,0.1269,-0.0184,-0.0250,0.1519,-42.3750,-13.5188,2.1375,
1.528309,-0.2472,0.6164,0.1288,-0.0184,-0.0250,0.1519,-42.3750,-13.5188,2.1375,
1.544257,-0.2472,0.6164,0.1288,-0.0184,-0.0250,0.1519,-42.3750,-13.5188,2.1375,
1.545811,-0.2472,0.6164,0.1288,0.0462,-0.0944,0.2445,-42.3750,-13.5188,2.1375,
1.547360,-0.2472,0.6164,0.1288,0.0462,-0.0944,0.2445,-42.3375,-13.7813,2.0625,
1.586763,-0.2472,0.6164,0.1288,0.0462,-0.0944,0.2445,-42.3375,-13.7813,2.0625,
1.587738,-0.2472,0.6164,0.1288,0.0462,-0.0944,0.2445,-42.3375,-13.7813,2.0625,
1.588276,-0.1044,0.6939,0.1043,0.0462,-0.0944,0.2445,-42.3375,-13.7813,2.0625,
1.606099,-0.1044,0.6939,0.1043,0.0462,-0.0944,0.2445,-42.3375,-13.7813,2.0625,
1.607319,-0.1044,0.6939,0.1043,0.0462,-0.0944,0.2445,-42.3188,-13.8188,2.2500,
1.622992,-0.1044,0.6939,0.1043,0.0994,-0.1002,0.2428,-42.3188,-13.8188,2.2500,
1.643839,-0.1044,0.6939,0.1043,0.0994,-0.1002,0.2428,-42.3188,-13.8188,2.2500,
1.645435,-0.1044,0.6939,0.1043,0.0994,-0.1002,0.2428,-42.3188,-13.8188,2.2500,
1.647174,0.0456,0.8287,-0.0403,0.0994,-0.1002,0.2428,-42.3188,-13.8188,2.2500,
1.662248,0.0456,0.8287,-0.0403,0.0994,-0.1002,0.2428,-42.3188,-13.8188,2.2500,
1.664313,0.0456,0.8287,-0.0403,0.0994,-0.1002,0.2428,-42.2063,-13.8000,2.3625,
1.683878,0.0456,0.8287,-0.0403,0.2043,-0.1629,0.2294,-42.2063,-13.8000,2.3625,
1.704055,0.0456,0.8287,-0.0403,0.2043,-0.1629,0.2294,-42.2063,-13.8000,2.3625,
1.705393,0.0456,0.8287,-0.0403,0.2043,-0.1629,0.2294,-42.2063,-13.8000,2.3625,
1.706076,-0.3012,1.0315,-0.0640,0.2043,-0.1629,0.2294,-42.2063,-13.8000,2.3625,
1.726579,-0.3012,1.0315,-0.0640,0.2043,-0.1629,0.2294,-42.2063,-13.8000,2.3625,
1.745282,-0.3012,1.0315,-0.0640,0.2898,-0.2953,0.1982,-42.2063,-13.8000,2.3625,
1.747388,-0.3012,1.0315,-0.0640,0.2898,-0.2953,0.1982,-42.2063,-13.8000,2.3625,
1.748232,-0.3012,1.0315,-0.0640,0.2898,-0.2953,0.1982,-42.2438,-13.6313,2.6813,
1.764381,-0.3012,1.0315,-0.0640,0.2898,-0.2953,0.1982,-42.2438,-13.6313,2.6813,
1.766223,-0.7343,1.5182,-0.0453,0.2898,-0.2953,0.1982,-42.2438,-13.6313,2.6813,
1.791120,-0.7343,1.5182,-0.0453,0.2898,-0.2953,0.1982,-42.2438,-13.6313,2.6813,
1.803721,-0.7343,1.5182,-0.0453,0.2898,-0.2953,0.1982,-42.1875,-13.3875,3.1688,
1.805660,-0.7343,1.5182,-0.0453,0.2898,-0.2953,0.1982,-42.1875,-13.3875,3.1688,
1.823147,-0.7343,1.5182,-0.0453,0.4853,-0.2849,0.1357,-42.1875,-13.3875,3.1688,
1.825096,-0.8537,1.8557,0.4174,0.4853,-0.2849,0.1357,-42.1875,-13.3875,3.1688,
1.826626,-0.8537,1.8557,0.4174,0.4853,-0.2849,0.1357,-42.1875,-13.3875,3.1688,
1.855801,-0.8537,1.8557,0.4174,0.4853,-0.2849,0.1357,-42.1875,-13.3875,3.1688,
1.864412,-0.8537,1.8557,0.4174,0.4853,-0.2849,0.1357,-42.1313,-13.2563,3.7500,
1.887675,-0.8537,1.8557,0.4174,0.9456,-0.4379,0.1486,-42.1313,-13.2563,3.7500,
1.891056,-1.4429,2.5294,0.9785,0.9456,-0.4379,0.1486,-42.1313,-13.2563,3.7500,
1.893317,-1.4429,2.5294,0.9785,0.9456,-0.4379,0.1486,-42.1313,-13.2563,3.7500,
1.894982,-1.4429,2.5294,0.9785,0.9456,-0.4379,0.1486,-42.1313,-13.2563,3.7500,
1.926491,-1.4429,2.5294,0.9785,0.9456,-0.4379,0.1486,-42.1313,-13.2563,3.7500,
1.928285,-1.4429,2.5294,0.9785,0.9456,-0.4379,0.1486,-42.1313,-13.2563,3.7500,
1.944406,-1.4429,2.5294,0.9785,1.6488,-1.1770,0.2449,-42.1313,-13.2563,3.7500,
1.946959,-3.4203,4.4522,0.8473,1.6488,-1.1770,0.2449,-42.1313,-13.2563,3.7500,
1.948413,-3.4203,4.4522,0.8473,1.6488,-1.1770,0.2449,-42.1313,-13.2563,3.7500,
1.949767,-3.4203,4.4522,0.8473,1.6488,-1.1770,0.2449,-41.9813,-12.9375,4.6313,
1.990881,-3.4203,4.4522,0.8473,1.6488,-1.1770,0.2449,-41.9813,-12.9375,4.6313,
1.992657,-3.4203,4.4522,0.8473,1.6488,-1.1770,0.2449,-41.9813,-12.9375,4.6313,
2.004510,-3.4203,4.4522,0.8473,1.6488,-1.1770,0.2449,-41.6625,-12.3188,6.0000,
2.006428,-5.6276,6.7892,-0.3117,1.6488,-1.1770,0.2449,-41.6625,-12.3188,6.0000,
2.008598,-5.6276,6.7892,-0.3117,1.6488,-1.1770,0.2449,-41.6625,-12.3188,6.0000,
2.024042,-5.6276,6.7892,-0.3117,2.6118,-1.3476,0.0462,-41.6625,-12.3188,6.0000,
2.057686,-5.6276,6.7892,-0.3117,2.6118,-1.3476,0.0462,-41.6625,-12.3188,6.0000,
2.059740,-5.6276,6.7892,-0.3117,2.6118,-1.3476,0.0462,-41.6625,-12.3188,6.0000,
2.064615,-5.6276,6.7892,-0.3117,2.6118,-1.3476,0.0462,-41.6625,-12.3188,6.0000,
2.066231,-5.6276,6.7892,-0.3117,2.6118,-1.3476,0.0462,-41.1750,-11.2500,7.9875,
2.068793,-4.0849,6.6758,-1.5040,2.6118,-1.3476,0.0462,-41.1750,-11.2500,7.9875,
2.084999,-4.0849,6.6758,-1.5040,3.3440,-0.2766,-0.9413,-41.1750,-11.2500,7.9875,
2.123884,-4.0849,6.6758,-1.5040,3.3440,-0.2766,-0.9413,-41.1750,-11.2500,7.9875,
2.125433,-4.0849,6.6758,-1.5040,3.3440,-0.2766,-0.9413,-41.1750,-11.2500,7.9875,
2.126459,-4.0849,6.6758,-1.5040,3.3440,-0.2766,-0.9413,-41.1750,-11.2500,7.9875,
2.127297,7.2298,1.0559,-9.2286,3.3440,-0.2766,-0.9413,-41.1750,-11.2500,7.9875,
2.142919,7.2298,1.0559,-9.2286,-1.0693,1.3963,-2.1548,-41.1750,-11.2500,7.9875,
2.145988,7.2298,1.0559,-9.2286,-1.0693,1.3963,-2.1548,-41.1750,-11.2500,7.9875,
2.147085,7.2298,1.0559,-9.2286,-1.0693,1.3963,-2.1548,-40.7250,-10.5750,9.4500,
2.184694,7.2298,1.0559,-9.2286,-1.0693,1.3963,-2.1548,-40.7250,-10.5750,9.4500,
2.186536,7.2298,1.0559,-9.2286,-1.0693,1.3963,-2.1548,-40.7250,-10.5750,9.4500,
2.187756,-0.4616,-3.8908,6.7121,-1.0693,1.3963,-2.1548,-40.7250,-10.5750,9.4500,
2.206128,-0.4616,-3.8908,6.7121,-1.0693,1.3963,-2.1548,-40.3125,-10.8188,10.8000,
2.227217,-0.4616,-3.8908,6.7121,-1.0693,1.3963,-2.1548,-40.3125,-10.8188,10.8000,
2.229142,-0.4616,-3.8908,6.7121,2.7904,-0.3916,-1.0781,-40.3125,-10.8188,10.8000,
2.246848,-0.4616,-3.8908,6.7121,2.7904,-0.3916,-1.0781,-40.3125,-10.8188,10.8000,
2.248985,-0.4616,-3.8908,6.7121,2.7904,-0.3916,-1.0781,-40.3125,-10.8188,10.8000,
2.251332,11.4087,-17.0419,7.3561,2.7904,-0.3916,-1.0781,-40.3125,-10.8188,10.8000,
2.266746,11.4087,-17.0419,7.3561,2.7904,-0.3916,-1.0781,-39.7688,-11.5500,11.1562,
2.283915,11.4087,-17.0419,7.3561,-1.6950,6.6557,-1.9843,-39.7688,-11.5500,11.1562,
2.287375,11.4087,-17.0419,7.3561,-1.6950,6.6557,-1.9843,-39.7688,-11.5500,11.1562,
2.302714,11.4087,-17.0419,7.3561,-1.6950,6.6557,-1.9843,-39.7688,-11.5500,11.1562,
2.304774,11.4087,-17.0419,7.3561,-1.6950,6.6557,-1.9843,-39.7688,-11.5500,11.1562,
2.306514,-8.5293,-29.2670,-16.9117,-1.6950,6.6557,-1.9843,-39.7688,-11.5500,11.1562,
2.324459,-8.5293,-29.2670,-16.9117,-1.6950,6.6557,-1.9843,-39.7688,-11.5500,11.1562,
2.344627,-8.5293,-29.2670,-16.9117,6.0546,-0.1970,-2.6516,-39.7688,-11.5500,11.1562,
2.348200,-8.5293,-29.2670,-16.9117,6.0546,-0.1970,-2.6516,-38.8875,-13.1438,9.6562,
2.367387,13.0371,-12.7785,48.7505,6.0546,-0.1970,-2.6516,-38.8875,-13.1438,9.6562,
2.370766,13.0371,-12.7785,48.7505,6.0546,-0.1970,-2.6516,-38.8875,-13.1438,9.6562,
2.372913,13.0371,-12.7785,48.7505,6.0546,-0.1970,-2.6516,-38.8875,-13.1438,9.6562,
2.389662,13.0371,-12.7785,48.7505,6.0546,-0.1970,-2.6516,-38.8875,-13.1438,9.6562,
2.406259,13.0371,-12.7785,48.7505,6.0546,-0.1970,-2.6516,-38.8875,-13.1438,9.6562,
2.408534,13.0371,-12.7785,48.7505,6.0546,-0.1970,-2.6516,-38.1750,-15.2063,9.1875,
2.423456,13.0371,-12.7785,48.7505,-1.4898,-0.3051,1.1899,-38.1750,-15.2063,9.1875,
2.425625,-8.9416,-15.2065,-33.1065,-1.4898,-0.3051,1.1899,-38.1750,-15.2063,9.1875,
2.427672,-8.9416,-15.2065,-33.1065,-1.4898,-0.3051,1.1899,-38.1750,-15.2063,9.1875,
2.456388,-8.9416,-15.2065,-33.1065,-1.4898,-0.3051,1.1899,-38.1750,-15.2063,9.1875,
2.463586,-8.9416,-15.2065,-33.1065,-1.4898,-0.3051,1.1899,-37.2563,-17.6813,7.7063,
2.465601,-8.9416,-15.2065,-33.1065,-1.4898,-0.3051,1.1899,-37.2563,-17.6813,7.7063,
2.484536,-8.9416,-15.2065,-33.1065,-1.9393,0.6208,-2.0885,-37.2563,-17.6813,7.7063,
2.486260,19.7895,9.1984,-10.1954,-1.9393,0.6208,-2.0885,-37.2563,-17.6813,7.7063,
2.487387,19.7895,9.1984,-10.1954,-1.9393,0.6208,-2.0885,-37.2563,-17.6813,7.7063,
2.527882,19.7895,9.1984,-10.1954,-1.9393,0.6208,-2.0885,-37.2563,-17.6813,7.7063,
2.529051,19.7895,9.1984,-10.1954,-1.9393,0.6208,-2.0885,-37.2563,-17.6813,7.7063,
2.545813,19.7895,9.1984,-10.1954,-1.9393,0.6208,-2.0885,-36.3750,-20.4563,5.5875,
2.547647,19.7895,9.1984,-10.1954,0.5113,-0.3587,0.9705,-36.3750,-20.4563,5.5875,
2.549468,19.7895,9.1984,-10.1954,0.5113,-0.3587,0.9705,-36.3750,-20.4563,5.5875,
2.550835,-15.7030,-3.4223,11.2458,0.5113,-0.3587,0.9705,-36.3750,-20.4563,5.5875,
2.589458,-15.7030,-3.4223,11.2458,0.5113,-0.3587,0.9705,-36.3750,-20.4563,5.5875,
2.592329,-15.7030,-3.4223,11.2458,0.5113,-0.3587,0.9705,-36.3750,-20.4563,5.5875,
2.604496,-15.7030,-3.4223,11.2458,0.5113,-0.3587,0.9705,-35.8313,-23.6438,2.9625,
2.606554,-15.7030,-3.4223,11.2458,0.5113,-0.3587,0.9705,-35.8313,-23.6438,2.9625,
2.607759,6.4820,0.3165,0.5918,0.5113,-0.3587,0.9705,-35.8313,-23.6438,2.9625,
2.623604,6.4820,0.3165,0.5918,0.3476,0.1871,-0.2566,-35.8313,-23.6438,2.9625,
2.655656,6.4820,0.3165,0.5918,0.3476,0.1871,-0.2566,-35.8313,-23.6438,2.9625,
2.657153,6.4820,0.3165,0.5918,0.3476,0.1871,-0.2566,-35.8313,-23.6438,2.9625,
2.663794,6.4820,0.3165,0.5918,0.3476,0.1871,-0.2566,-35.0250,-26.6813,0.9000,
2.665532,1.4226,-0.0649,1.9565,0.3476,0.1871,-0.2566,-35.0250,-26.6813,0.9000,
2.666807,1.4226,-0.0649,1.9565,0.3476,0.1871,-0.2566,-35.0250,-26.6813,0.9000,
2.686659,1.4226,-0.0649,1.9565,0.2960,0.0711,-0.2898,-35.0250,-26.6813,0.9000,
2.726524,1.4226,-0.0649,1.9565,0.2960,0.0711,-0.2898,-35.0250,-26.6813,0.9000,
2.728073,1.4226,-0.0649,1.9565,0.2960,0.0711,-0.2898,-35.0250,-26.6813,0.9000,
2.728884,1.4226,-0.0649,1.9565,0.2960,0.0711,-0.2898,-35.0250,-26.6813,0.9000,
2.730088,-0.4738,0.9727,-0.1777,0.2960,0.0711,-0.2898,-35.0250,-26.6813,0.9000,
2.743744,-0.4738,0.9727,-0.1777,0.2960,0.0711,-0.2898,-34.2938,-28.9313,-0.9750,
2.745754,-0.4738,0.9727,-0.1777,0.1217,-0.0801,-0.1938,-34.2938,-28.9313,-0.9750,
2.785394,-0.4738,0.9727,-0.1777,0.1217,-0.0801,-0.1938,-34.2938,-28.9313,-0.9750,
2.786660,-0.4738,0.9727,-0.1777,0.1217,-0.0801,-0.1938,-34.2938,-28.9313,-0.9750,
2.787586,-0.4738,0.9727,-0.1777,0.1217,-0.0801,-0.1938,-34.2938,-28.9313,-0.9750,
2.788334,0.1505,1.2803,1.1095,0.1217,-0.0801,-0.1938,-34.2938,-28.9313,-0.9750,
2.804821,0.1505,1.2803,1.1095,0.1217,-0.0801,-0.1938,-33.5438,-30.7500,-1.9875,
2.825389,0.1505,1.2803,1.1095,0.1217,-0.0801,-0.1938,-33.5438,-30.7500,-1.9875,
2.826942,0.1505,1.2803,1.1095,0.1833,0.0216,0.1285,-33.5438,-30.7500,-1.9875,
2.846130,0.1505,1.2803,1.1095,0.1833,0.0216,0.1285,-33.5438,-30.7500,-1.9875,
2.848198,0.1505,1.2803,1.1095,0.1833,0.0216,0.1285,-33.5438,-30.7500,-1.9875,
2.849626,-1.2411,2.1519,0.0222,0.1833,0.0216,0.1285,-33.5438,-30.7500,-1.9875,
2.864991,-1.2411,2.1519,0.0222,0.1833,0.0216,0.1285,-33.1875,-31.7250,-1.2375,
2.885345,-1.2411,2.1519,0.0222,0.1833,0.0216,0.1285,-33.1875,-31.7250,-1.2375,
2.886619,-1.2411,2.1519,0.0222,-0.1043,0.0779,0.0129,-33.1875,-31.7250,-1.2375,
2.903566,1.2090,1.4242,0.1556,-0.1043,0.0779,0.0129,-33.1875,-31.7250,-1.2375,
2.905802,1.2090,1.4242,0.1556,-0.1043,0.0779,0.0129,-33.1875,-31.7250,-1.2375,
2.906983,1.2090,1.4242,0.1556,-0.1043,0.0779,0.0129,-33.1875,-31.7250,-1.2375,
2.924560,1.2090,1.4242,0.1556,-0.1043,0.0779,0.0129,-33.1875,-31.7250,-1.2375,
2.944223,1.2090,1.4242,0.1556,-0.1043,0.0779,0.0129,-32.9250,-32.2125,-1.8000,
2.946449,1.2090,1.4242,0.1556,-0.0207,0.0205,0.0583,-32.9250,-32.2125,-1.8000,
2.963516,1.2090,1.4242,0.1556,-0.0207,0.0205,0.0583,-32.9250,-32.2125,-1.8000,
2.965132,1.2090,1.4242,0.1556,-0.0207,0.0205,0.0583,-32.9250,-32.2125,-1.8000,
2.966107,-0.2578,1.2037,0.8998,-0.0207,0.0205,0.0583,-32.9250,-32.2125,-1.8000,
2.989485,-0.2578,1.2037,0.8998,-0.0207,0.0205,0.0583,-32.9250,-32.2125,-1.8000,
3.006245,-0.2578,1.2037,0.8998,-0.0207,0.0205,0.0583,-32.9438,-32.4188,-1.6688,
3.027220,-0.2578,1.2037,0.8998,-0.1149,0.0363,0.0176,-32.9438,-32.4188,-1.6688,
3.030060,0.5066,1.2325,0.3691,-0.1149,0.0363,0.0176,-32.9438,-32.4188,-1.6688,
3.031775,0.5066,1.2325,0.3691,-0.1149,0.0363,0.0176,-32.9438,-32.4188,-1.6688,
3.032916,0.5066,1.2325,0.3691,-0.1149,0.0363,0.0176,-32.9438,-32.4188,-1.6688,
3.056741,0.5066,1.2325,0.3691,-0.1149,0.0363,0.0176,-32.9438,-32.4188,-1.6688,
3.062176,0.5066,1.2325,0.3691,-0.1149,0.0363,0.0176,-32.9813,-32.4938,-1.5188,
3.066838,0.5066,1.2325,0.3691,-0.1149,0.0363,0.0176,-32.9813,-32.4938,-1.5188,
3.084017,0.5066,1.2325,0.3691,-0.0489,-0.0042,0.0179,-32.9813,-32.4938,-1.5188,
3.085583,0.0125,1.2276,1.3224,-0.0489,-0.0042,0.0179,-32.9813,-32.4938,-1.5188,
3.086830,0.0125,1.2276,1.3224,-0.0489,-0.0042,0.0179,-32.9813,-32.4938,-1.5188,
3.125410,0.0125,1.2276,1.3224,-0.0489,-0.0042,0.0179,-32.9813,-32.4938,-1.5188,
3.126904,0.0125,1.2276,1.3224,-0.0489,-0.0042,0.0179,-32.9813,-32.4938,-1.5188,
3.146272,0.0125,1.2276,1.3224,-0.0489,-0.0042,0.0179,-32.9813,-32.4938,-1.5188,
3.147505,0.0125,1.2276,1.3224,-0.0489,-0.0042,0.0179,-32.8500,-32.6063,-1.3500,
3.148833,0.5186,1.1233,1.0722,-0.0489,-0.0042,0.0179,-32.8500,-32.6063,-1.3500,
3.150492,0.5186,1.1233,1.0722,-0.0098,0.0246,-0.0031,-32.8500,-32.6063,-1.3500,
3.190214,0.5186,1.1233,1.0722,-0.0098,0.0246,-0.0031,-32.8500,-32.6063,-1.3500,
3.192038,0.5186,1.1233,1.0722,-0.0098,0.0246,-0.0031,-32.8500,-32.6063,-1.3500,
3.205991,0.5186,1.1233,1.0722,-0.0098,0.0246,-0.0031,-32.9625,-32.5500,-1.2938,
3.209112,0.5186,1.1233,1.0722,-0.0098,0.0246,-0.0031,-32.9625,-32.5500,-1.2938,
3.210797,0.2205,1.0865,0.9526,-0.0098,0.0246,-0.0031,-32.9625,-32.5500,-1.2938,
3.222785,0.2205,1.0865,0.9526,-0.0057,0.0431,0.0157,-32.9625,-32.5500,-1.2938,
3.255759,0.2205,1.0865,0.9526,-0.0057,0.0431,0.0157,-32.9625,-32.5500,-1.2938,
3.257305,0.2205,1.0865,0.9526,-0.0057,0.0431,0.0157,-32.9625,-32.5500,-1.2938,
3.262682,0.2205,1.0865,0.9526,-0.0057,0.0431,0.0157,-33.0188,-32.4563,-1.4813,
3.265105,0.2205,1.0865,0.9526,-0.0057,0.0431,0.0157,-33.0188,-32.4563,-1.4813,
3.266024,0.0744,1.1209,0.7094,-0.0057,0.0431,0.0157,-33.0188,-32.4563,-1.4813,
3.284612,0.0744,1.1209,0.7094,-0.0027,0.0137,0.0267,-33.0188,-32.4563,-1.4813,
3.326959,0.2191,1.1405,0.7349,-0.0027,0.0137,0.0267,-33.0188,-32.4563,-1.4813,
3.329459,0.2191,1.1405,0.7349,-0.0027,0.0137,0.0267,-33.0188,-32.4563,-1.4813,
3.330418,0.2191,1.1405,0.7349,-0.0027,0.0137,0.0267,-33.0188,-32.4563,-1.4813,
3.331203,0.2191,1.1405,0.7349,-0.0027,0.0137,0.0267,-33.0188,-32.4563,-1.4813,
3.345328,0.2191,1.1405,0.7349,-0.0027,0.0137,0.0267,-33.1500,-32.4000,-1.5563,
3.347031,0.2191,1.1405,0.7349,-0.0237,0.0261,0.0078,-33.1500,-32.4000,-1.5563,
3.384781,0.2191,1.1405,0.7349,-0.0237,0.0261,0.0078,-33.1500,-32.4000,-1.5563,
3.386202,0.2191,1.1405,0.7349,-0.0237,0.0261,0.0078,-33.1500,-32.4000,-1.5563,
3.387177,0.2191,1.1405,0.7349,-0.0237,0.0261,0.0078,-33.1500,-32.4000,-1.5563,
3.388068,0.2720,0.9443,0.7382,-0.0237,0.0261,0.0078,-33.1500,-32.4000,-1.5563,
3.402043,0.2720,0.9443,0.7382,-0.0237,0.0261,0.0078,-33.2438,-32.3063,-1.7813,
3.424588,0.2720,0.9443,0.7382,-0.0237,0.0261,0.0078,-33.2438,-32.3063,-1.7813,
3.426494,0.2720,0.9443,0.7382,-0.0260,0.0195,0.0032,-33.2438,-32.3063,-1.7813,
3.444317,0.2720,0.9443,0.7382,-0.0260,0.0195,0.0032,-33.2438,-32.3063,-1.7813,
3.446184,0.2720,0.9443,0.7382,-0.0260,0.0195,0.0032,-33.2438,-32.3063,-1.7813,
3.447381,0.2084,0.8189,0.6286,-0.0260,0.0195,0.0032,-33.2438,-32.3063,-1.7813,
3.464948,0.2084,0.8189,0.6286,-0.0260,0.0195,0.0032,-33.2063,-32.2875,-1.8750,
3.486565,0.2084,0.8189,0.6286,-0.0260,0.0195,0.0032,-33.2063,-32.2875,-1.8750,
3.488170,0.2084,0.8189,0.6286,0.0112,-0.0052,0.0127,-33.2063,-32.2875,-1.8750,
3.505860,0.0435,0.7841,0.6582,0.0112,-0.0052,0.0127,-33.2063,-32.2875,-1.8750,
3.509003,0.0435,0.7841,0.6582,0.0112,-0.0052,0.0127,-33.2063,-32.2875,-1.8750,
3.510300,0.0435,0.7841,0.6582,0.0112,-0.0052,0.0127,-33.2063,-32.2875,-1.8750,
3.543761,0.0435,0.7841,0.6582,0.0112,-0.0052,0.0127,-33.2063,-32.2875,-1.8750,
3.546108,0.0435,0.7841,0.6582,0.0112,-0.0052,0.0127,-33.1875,-32.2125,-2.0438,
3.547857,0.0435,0.7841,0.6582,0.0037,0.0115,0.0192,-33.1875,-32.2125,-2.0438,
3.564860,0.0435,0.7841,0.6582,0.0037,0.0115,0.0192,-33.1875,-32.2125,-2.0438,
3.567357,0.0435,0.7841,0.6582,0.0037,0.0115,0.0192,-33.1875,-32.2125,-2.0438,
3.568768,0.1241,0.6781,0.5077,0.0037,0.0115,0.0192,-33.1875,-32.2125,-2.0438,
3.590489,0.1241,0.6781,0.5077,0.0037,0.0115,0.0192,-33.1875,-32.2125,-2.0438,
3.604296,0.1241,0.6781,0.5077,0.0037,0.0115,0.0192,-33.1500,-32.2313,-2.0625,
3.626036,0.1241,0.6781,0.5077,0.0037,0.0115,0.0192,-33.1500,-32.2313,-2.0625,
3.628551,0.1241,0.6781,0.5077,0.0037,0.0115,0.0192,-33.1500,-32.2313,-2.0625,
3.630197,0.1241,0.6781,0.5077,0.0024,0.0160,0.0202,-33.1500,-32.2313,-2.0625,
3.631274,0.1452,0.6035,0.4205,0.0024,0.0160,0.0202,-33.1500,-32.2313,-2.0625,
3.656261,0.1452,0.6035,0.4205,0.0024,0.0160,0.0202,-33.1500,-32.2313,-2.0625,
3.664298,0.1452,0.6035,0.4205,0.0024,0.0160,0.0202,-33.1500,-32.2125,-2.0438,
3.688625,0.1452,0.6035,0.4205,0.0024,0.0160,0.0202,-33.1500,-32.2125,-2.0438,
3.691548,0.1452,0.6035,0.4205,0.0024,0.0160,0.0202,-33.1500,-32.2125,-2.0438,
3.692710,0.1452,0.6035,0.4205,-0.0003,0.0150,0.0111,-33.1500,-32.2125,-2.0438,
3.694499,0.1333,0.5173,0.3618,-0.0003,0.0150,0.0111,-33.1500,-32.2125,-2.0438,
3.725111,0.1333,0.5173,0.3618,-0.0003,0.0150,0.0111,-33.1500,-32.2125,-2.0438,
3.745807,0.1333,0.5173,0.3618,-0.0003,0.0150,0.0111,-33.1313,-32.2688,-2.1750,
3.748685,0.1333,0.5173,0.3618,-0.0003,0.0150,0.0111,-33.1313,-32.2688,-2.1750,
3.750244,0.1333,0.5173,0.3618,0.0005,0.0162,0.0085,-33.1313,-32.2688,-2.1750,
3.751606,0.0939,0.4505,0.4124,0.0005,0.0162,0.0085,-33.1313,-32.2688,-2.1750,
3.753175,0.0939,0.4505,0.4124,0.0005,0.0162,0.0085,-33.1313,-32.2688,-2.1750,
3.789346,0.0939,0.4505,0.4124,0.0005,0.0162,0.0085,-33.1313,-32.2688,-2.1750,
3.791159,0.0939,0.4505,0.4124,0.0005,0.0162,0.0085,-33.1313,-32.2688,-2.1750,
3.806912,0.0939,0.4505,0.4124,0.0005,0.0162,0.0085,-33.1688,-32.2688,-2.0063,
3.809791,0.0901,0.4431,0.2817,0.0005,0.0162,0.0085,-33.1688,-32.2688,-2.0063,
3.812489,0.0901,0.4431,0.2817,0.0005,0.0162,0.0085,-33.1688,-32.2688,-2.0063,
3.828002,0.0901,0.4431,0.2817,-0.0094,0.0128,0.0101,-33.1688,-32.2688,-2.0063,
3.857009,0.0901,0.4431,0.2817,-0.0094,0.0128,0.0101,-33.1688,-32.2688,-2.0063,
3.859163,0.0901,0.4431,0.2817,-0.0094,0.0128,0.0101,-33.1688,-32.2688,-2.0063,
3.862946,0.0901,0.4431,0.2817,-0.0094,0.0128,0.0101,-33.1125,-32.2125,-1.9688,
3.865075,0.0901,0.4431,0.2817,-0.0094,0.0128,0.0101,-33.1125,-32.2125,-1.9688,
3.866287,0.0711,0.3595,0.3004,-0.0094,0.0128,0.0101,-33.1125,-32.2125,-1.9688,
3.884382,0.0711,0.3595,0.3004,0.0040,-0.0023,0.0072,-33.1125,-32.2125,-1.9688,
3.925102,0.0522,0.3158,0.2673,0.0040,-0.0023,0.0072,-33.1125,-32.2125,-1.9688,
3.928761,0.0522,0.3158,0.2673,0.0040,-0.0023,0.0072,-33.1125,-32.2125,-1.9688,
3.930166,0.0522,0.3158,0.2673,0.0040,-0.0023,0.0072,-33.1125,-32.2125,-1.9688,
3.931156,0.0522,0.3158,0.2673,0.0040,-0.0023,0.0072,-33.1125,-32.2125,-1.9688,
3.944625,0.0522,0.3158,0.2673,0.0040,-0.0023,0.0072,-33.1875,-32.0625,-1.8938,
3.946903,0.0522,0.3158,0.2673,-0.0011,0.0144,0.0101,-33.1875,-32.0625,-1.8938,
3.986546,0.0522,0.3158,0.2673,-0.0011,0.0144,0.0101,-33.1875,-32.0625,-1.8938,
3.988333,0.0522,0.3158,0.2673,-0.0011,0.0144,0.0101,-33.1875,-32.0625,-1.8938,
3.989118,0.0522,0.3158,0.2673,-0.0011,0.0144,0.0101,-33.1875,-32.0625,-1.8938,
3.990070,0.0508,0.3316,0.1933,-0.0011,0.0144,0.0101,-33.1875,-32.0625,-1.8938,
4.002209,0.0508,0.3316,0.1933,-0.0011,0.0144,0.0101,-33.1500,-32.0250,-1.8188,
4.025530,0.0508,0.3316,0.1933,-0.0011,0.0144,0.0101,-33.1500,-32.0250,-1.8188,
4.028015,0.0508,0.3316,0.1933,0.0037,-0.0002,0.0011,-33.1500,-32.0250,-1.8188,
4.046014,0.0508,0.3316,0.1933,0.0037,-0.0002,0.0011,-33.1500,-32.0250,-1.8188,
4.048910,0.0508,0.3316,0.1933,0.0037,-0.0002,0.0011,-33.1500,-32.0250,-1.8188,
4.050688,0.0755,0.2369,0.2008,0.0037,-0.0002,0.0011,-33.1500,-32.0250,-1.8188,
4.061303,0.0755,0.2369,0.2008,0.0037,-0.0002,0.0011,-33.1125,-31.9500,-1.8750,
4.063713,0.0755,0.2369,0.2008,0.0037,-0.0002,0.0011,-33.1125,-31.9500,-1.8750,
4.083888,0.0755,0.2369,0.2008,-0.0022,0.0065,0.0056,-33.1125,-31.9500,-1.8750,
4.105141,0.0755,0.2369,0.2008,-0.0022,0.0065,0.0056,-33.1125,-31.9500,-1.8750,
4.107537,0.0755,0.2369,0.2008,-0.0022,0.0065,0.0056,-33.1125,-31.9500,-1.8750,
4.108626,0.0495,0.2331,0.1674,-0.0022,0.0065,0.0056,-33.1125,-31.9500,-1.8750,
4.147915,0.0495,0.2331,0.1674,-0.0022,0.0065,0.0056,-33.1125,-31.9500,-1.8750,
4.150499,0.0495,0.2331,0.1674,-0.0022,0.0065,0.0056,-33.2438,-31.8750,-1.9875,
4.151919,0.0495,0.2331,0.1674,-0.0014,0.0129,0.0045,-33.2438,-31.8750,-1.9875,
4.168727,0.0495,0.2331,0.1674,-0.0014,0.0129,0.0045,-33.2438,-31.8750,-1.9875,
4.170964,0.0495,0.2331,0.1674,-0.0014,0.0129,0.0045,-33.2438,-31.8750,-1.9875,
4.171812,0.0323,0.2254,0.1708,-0.0014,0.0129,0.0045,-33.2438,-31.8750,-1.9875,
4.193875,0.0323,0.2254,0.1708,-0.0014,0.0129,0.0045,-33.2438,-31.8750,-1.9875,
4.202969,0.0323,0.2254,0.1708,-0.0014,0.0129,0.0045,-33.2625,-31.9500,-2.1188,
4.225502,0.0323,0.2254,0.1708,-0.0014,0.0129,0.0045,-33.2625,-31.9500,-2.1188,
4.228369,0.0323,0.2254,0.1708,-0.0014,0.0129,0.0045,-33.2625,-31.9500,-2.1188,
4.230411,0.0323,0.2254,0.1708,0.0102,0.0305,-0.0021,-33.2625,-31.9500,-2.1188,
4.233517,0.0840,0.1445,0.1597,0.0102,0.0305,-0.0021,-33.2625,-31.9500,-2.1188,
4.257186,0.0840,0.1445,0.1597,0.0102,0.0305,-0.0021,-33.2625,-31.9500,-2.1188,
4.265475,0.0840,0.1445,0.1597,0.0102,0.0305,-0.0021,-33.2812,-31.9500,-2.1375,
4.288478,0.0840,0.1445,0.1597,0.0102,0.0305,-0.0021,-33.2812,-31.9500,-2.1375,
4.292667,0.0840,0.1445,0.1597,0.0102,0.0305,-0.0021,-33.2812,-31.9500,-2.1375,
4.295089,0.0840,0.1445,0.1597,0.0140,0.1545,-0.0341,-33.2812,-31.9500,-2.1375,
4.298350,0.1966,0.1083,-0.0056,0.0140,0.1545,-0.0341,-33.2812,-31.9500,-2.1375,
4.327571,0.1966,0.1083,-0.0056,0.0140,0.1545,-0.0341,-33.2812,-31.9500,-2.1375,
4.344639,0.1966,0.1083,-0.0056,0.0140,0.1545,-0.0341,-33.2812,-31.9500,-2.1375,
4.346706,0.1966,0.1083,-0.0056,0.0140,0.1545,-0.0341,-33.2250,-32.0063,-2.3063,
4.348625,0.1966,0.1083,-0.0056,-0.0516,0.2424,-0.1064,-33.2250,-32.0063,-2.3063,
4.350776,0.1463,0.0687,-0.2094,-0.0516,0.2424,-0.1064,-33.2250,-32.0063,-2.3063,
4.352290,0.1463,0.0687,-0.2094,-0.0516,0.2424,-0.1064,-33.2250,-32.0063,-2.3063,
4.390933,0.1463,0.0687,-0.2094,-0.0516,0.2424,-0.1064,-33.2250,-32.0063,-2.3063,
4.394334,0.1463,0.0687,-0.2094,-0.0516,0.2424,-0.1064,-33.2250,-32.0063,-2.3063,
4.404856,0.1463,0.0687,-0.2094,-0.0516,0.2424,-0.1064,-33.2625,-32.1562,-2.4000,
4.408059,0.1463,0.0687,-0.2094,-0.0516,0.2424,-0.1064,-33.2625,-32.1562,-2.4000,
4.410518,-0.1799,-0.0598,0.5132,-0.0516,0.2424,-0.1064,-33.2625,-32.1562,-2.4000,
4.425622,-0.1799,-0.0598,0.5132,0.0757,0.2334,-0.0425,-33.2625,-32.1562,-2.4000,
4.458559,-0.1799,-0.0598,0.5132,0.0757,0.2334,-0.0425,-33.2625,-32.1562,-2.4000,
4.463089,-0.1799,-0.0598,0.5132,0.0757,0.2334,-0.0425,-33.2625,-32.1562,-2.4000,
4.468008,-0.1799,-0.0598,0.5132,0.0757,0.2334,-0.0425,-33.2063,-32.3813,-2.6438,
4.471187,-0.4641,0.4664,0.5147,0.0757,0.2334,-0.0425,-33.2063,-32.3813,-2.6438,
4.473523,-0.4641,0.4664,0.5147,0.0757,0.2334,-0.0425,-33.2063,-32.3813,-2.6438,
4.488537,-0.4641,0.4664,0.5147,0.1468,0.1738,0.1742,-33.2063,-32.3813,-2.6438,
4.524295,-0.4641,0.4664,0.5147,0.1468,0.1738,0.1742,-33.2063,-32.3813,-2.6438,
4.527528,-0.4641,0.4664,0.5147,0.1468,0.1738,0.1742,-33.2063,-32.3813,-2.6438,
4.530560,0.5341,-0.0481,0.7585,0.1468,0.1738,0.1742,-33.2063,-32.3813,-2.6438,
4.534525,0.5341,-0.0481,0.7585,0.1468,0.1738,0.1742,-33.2063,-32.3813,-2.6438,
4.546797,0.5341,-0.0481,0.7585,0.1468,0.1738,0.1742,-33.2250,-32.3625,-2.9250,
4.553294,0.5341,-0.0481,0.7585,0.2269,0.2719,0.2390,-33.2250,-32.3625,-2.9250,
4.585308,0.5341,-0.0481,0.7585,0.2269,0.2719,0.2390,-33.2250,-32.3625,-2.9250,
4.586989,0.5341,-0.0481,0.7585,0.2269,0.2719,0.2390,-33.2250,-32.3625,-2.9250,
4.587801,0.5341,-0.0481,0.7585,0.2269,0.2719,0.2390,-33.2250,-32.3625,-2.9250,
4.588552,-0.2660,-0.2070,-0.1035,0.2269,0.2719,0.2390,-33.2250,-32.3625,-2.9250,
4.605716,-0.2660,-0.2070,-0.1035,0.2269,0.2719,0.2390,-33.3188,-32.3625,-3.0000,
4.627384,-0.2660,-0.2070,-0.1035,0.2269,0.2719,0.2390,-33.3188,-32.3625,-3.0000,
4.630309,-0.2660,-0.2070,-0.1035,0.2020,0.1270,0.1843,-33.3188,-32.3625,-3.0000,
4.648232,0.5139,0.3902,0.0843,0.2020,0.1270,0.1843,-33.3188,-32.3625,-3.0000,
4.653110,0.5139,0.3902,0.0843,0.2020,0.1270,0.1843,-33.3188,-32.3625,-3.0000,
4.655086,0.5139,0.3902,0.0843,0.2020,0.1270,0.1843,-33.3188,-32.3625,-3.0000,
4.663090,0.5139,0.3902,0.0843,0.2020,0.1270,0.1843,-33.4313,-32.1375,-2.9625,
4.686361,0.5139,0.3902,0.0843,0.2020,0.1270,0.1843,-33.4313,-32.1375,-2.9625,
4.689386,0.5139,0.3902,0.0843,-0.0447,0.3249,0.4077,-33.4313,-32.1375,-2.9625,
4.698852,0.5139,0.3902,0.0843,-0.0447,0.3249,0.4077,-33.4313,-32.1375,-2.9625,
4.705594,-0.5643,0.9999,-0.9344,-0.0447,0.3249,0.4077,-33.4313,-32.1375,-2.9625,
4.708780,-0.5643,0.9999,-0.9344,-0.0447,0.3249,0.4077,-33.4313,-32.1375,-2.9625,
4.745857,-0.5643,0.9999,-0.9344,0.1681,0.4055,0.5961,-33.4313,-32.1375,-2.9625,
4.751802,-0.5643,0.9999,-0.9344,0.1681,0.4055,0.5961,-33.5625,-31.6688,-3.1688,
4.754978,-0.5643,0.9999,-0.9344,0.1681,0.4055,0.5961,-33.5625,-31.6688,-3.1688,
4.770407,-0.0890,-0.0177,0.7286,0.1681,0.4055,0.5961,-33.5625,-31.6688,-3.1688,
4.775340,-0.0890,-0.0177,0.7286,0.1681,0.4055,0.5961,-33.5625,-31.6688,-3.1688,
4.778079,-0.0890,-0.0177,0.7286,0.1681,0.4055,0.5961,-33.5625,-31.6688,-3.1688,
4.791358,-0.0890,-0.0177,0.7286,0.1681,0.4055,0.5961,-33.5625,-31.6688,-3.1688,
4.802970,-0.0890,-0.0177,0.7286,0.1681,0.4055,0.5961,-33.7500,-31.2375,-3.5250,
4.826646,-0.0890,-0.0177,0.7286,0.1681,0.4055,0.5961,-33.7500,-31.2375,-3.5250,
4.829483,-0.0890,-0.0177,0.7286,0.1681,0.4055,0.5961,-33.7500,-31.2375,-3.5250,
4.830914,-0.0890,-0.0177,0.7286,0.4319,0.5453,0.5942,-33.7500,-31.2375,-3.5250,
4.832740,0.1382,-0.6268,0.1936,0.4319,0.5453,0.5942,-33.7500,-31.2375,-3.5250,
4.855845,0.1382,-0.6268,0.1936,0.4319,0.5453,0.5942,-33.7500,-31.2375,-3.5250,
4.862471,0.1382,-0.6268,0.1936,0.4319,0.5453,0.5942,-34.0500,-30.5438,-4.0125,
4.885643,0.1382,-0.6268,0.1936,0.4319,0.5453,0.5942,-34.0500,-30.5438,-4.0125,
4.887476,0.1382,-0.6268,0.1936,0.4319,0.5453,0.5942,-34.0500,-30.5438,-4.0125,
4.888263,0.1382,-0.6268,0.1936,-1.0390,0.0289,-0.1781,-34.0500,-30.5438,-4.0125,
4.889779,1.8035,-0.4110,-4.3658,-1.0390,0.0289,-0.1781,-34.0500,-30.5438,-4.0125,
4.927524,1.8035,-0.4110,-4.3658,-1.0390,0.0289,-0.1781,-34.0500,-30.5438,-4.0125,
4.948227,1.8035,-0.4110,-4.3658,-1.0390,0.0289,-0.1781,-34.3500,-29.8500,-4.5375,
4.952264,1.8035,-0.4110,-4.3658,-2.3865,-2.1603,-0.4571,-34.3500,-29.8500,-4.5375,
4.953786,0.4687,-0.3601,0.4885,-2.3865,-2.1603,-0.4571,-34.3500,-29.8500,-4.5375,
4.955153,0.4687,-0.3601,0.4885,-2.3865,-2.1603,-0.4571,-34.3500,-29.8500,-4.5375,
4.956105,0.4687,-0.3601,0.4885,-2.3865,-2.1603,-0.4571,-34.3500,-29.8500,-4.5375,
4.991382,0.4687,-0.3601,0.4885,-2.3865,-2.1603,-0.4571,-34.3500,-29.8500,-4.5375,
4.994715,0.4687,-0.3601,0.4885,-2.3865,-2.1603,-0.4571,-34.3500,-29.8500,-4.5375,
5.002845,0.4687,-0.3601,0.4885,-2.3865,-2.1603,-0.4571,-34.7812,-29.0813,-4.4250,
5.008199,0.4687,-0.3601,0.4885,-2.3865,-2.1603,-0.4571,-34.7812,-29.0813,-4.4250,
5.010648,-1.9971,-2.1448,7.1833,-2.3865,-2.1603,-0.4571,-34.7812,-29.0813,-4.4250,
5.026455,-1.9971,-2.1448,7.1833,-1.3528,-4.4061,0.2284,-34.7812,-29.0813,-4.4250,
5.055730,-1.9971,-2.1448,7.1833,-1.3528,-4.4061,0.2284,-34.7812,-29.0813,-4.4250,
5.058196,-1.9971,-2.1448,7.1833,-1.3528,-4.4061,0.2284,-34.7812,-29.0813,-4.4250,
5.065406,-1.9971,-2.1448,7.1833,-1.3528,-4.4061,0.2284,-35.2500,-28.1250,-3.3938,
5.068637,-1.9971,-2.1448,7.1833,-1.3528,-4.4061,0.2284,-35.2500,-28.1250,-3.3938,
5.070337,5.8613,-7.8093,17.8922,-1.3528,-4.4061,0.2284,-35.2500,-28.1250,-3.3938,
5.086374,5.8613,-7.8093,17.8922,1.5052,-0.5716,1.0684,-35.2500,-28.1250,-3.3938,
5.123373,5.8613,-7.8093,17.8922,1.5052,-0.5716,1.0684,-35.2500,-28.1250,-3.3938,
5.125701,5.8613,-7.8093,17.8922,1.5052,-0.5716,1.0684,-35.2500,-28.1250,-3.3938,
5.127346,-1.0626,-12.3620,6.8585,1.5052,-0.5716,1.0684,-35.2500,-28.1250,-3.3938,
5.130261,-1.0626,-12.3620,6.8585,1.5052,-0.5716,1.0684,-35.2500,-28.1250,-3.3938,
5.150110,-1.0626,-12.3620,6.8585,1.5052,-0.5716,1.0684,-35.8688,-26.5125,-1.8375,
5.153139,-1.0626,-12.3620,6.8585,1.0604,0.5566,1.7465,-35.8688,-26.5125,-1.8375,
5.187076,-1.0626,-12.3620,6.8585,1.0604,0.5566,1.7465,-35.8688,-26.5125,-1.8375,
5.190632,-1.0626,-12.3620,6.8585,1.0604,0.5566,1.7465,-35.8688,-26.5125,-1.8375,
5.192372,-1.0626,-12.3620,6.8585,1.0604,0.5566,1.7465,-35.8688,-26.5125,-1.8375,
5.193813,-1.3212,-8.6541,-10.9849,1.0604,0.5566,1.7465,-35.8688,-26.5125,-1.8375,
5.202932,-1.3212,-8.6541,-10.9849,1.0604,0.5566,1.7465,-36.7313,-24.2625,-0.6375,
5.208703,-1.3212,-8.6541,-10.9849,1.0604,0.5566,1.7465,-36.7313,-24.2625,-0.6375,
5.224633,-1.3212,-8.6541,-10.9849,-1.4131,1.1136,1.1214,-36.7313,-24.2625,-0.6375,
5.248898,-1.3212,-8.6541,-10.9849,-1.4131,1.1136,1.1214,-36.7313,-24.2625,-0.6375,
5.251650,-1.3212,-8.6541,-10.9849,-1.4131,1.1136,1.1214,-36.7313,-24.2625,-0.6375,
5.252811,-2.5314,-2.3095,-18.5728,-1.4131,1.1136,1.1214,-36.7313,-24.2625,-0.6375,
5.262426,-2.5314,-2.3095,-18.5728,-1.4131,1.1136,1.1214,-37.5375,-21.7875,0.4688,
5.288021,-2.5314,-2.3095,-18.5728,-1.4131,1.1136,1.1214,-37.5375,-21.7875,0.4688,
5.291783,-2.5314,-2.3095,-18.5728,-4.6082,-0.7765,0.9474,-37.5375,-21.7875,0.4688,
5.306838,-2.5314,-2.3095,-18.5728,-4.6082,-0.7765,0.9474,-37.5375,-21.7875,0.4688,
5.310373,-2.5314,-2.3095,-18.5728,-4.6082,-0.7765,0.9474,-37.5375,-21.7875,0.4688,
5.312089,-3.6878,9.9077,-17.7407,-4.6082,-0.7765,0.9474,-37.5375,-21.7875,0.4688,
5.343239,-3.6878,9.9077,-17.7407,-4.6082,-0.7765,0.9474,-37.5375,-21.7875,0.4688,
5.346484,-3.6878,9.9077,-17.7407,-4.6082,-0.7765,0.9474,-38.4375,-19.0688,1.7438,
5.348880,-3.6878,9.9077,-17.7407,-0.7025,-1.0101,2.7303,-38.4375,-19.0688,1.7438,
5.368070,-3.6878,9.9077,-17.7407,-0.7025,-1.0101,2.7303,-38.4375,-19.0688,1.7438,
5.371498,-3.6878,9.9077,-17.7407,-0.7025,-1.0101,2.7303,-38.4375,-19.0688,1.7438,
5.373518,-1.6772,9.2518,18.4788,-0.7025,-1.0101,2.7303,-38.4375,-19.0688,1.7438,
5.390308,-1.6772,9.2518,18.4788,-0.7025,-1.0101,2.7303,-38.4375,-19.0688,1.7438,
5.405353,-1.6772,9.2518,18.4788,-0.7025,-1.0101,2.7303,-38.9813,-15.6188,3.6938,
5.428923,-1.6772,9.2518,18.4788,-0.7025,-1.0101,2.7303,-38.9813,-15.6188,3.6938,
5.431418,-1.6772,9.2518,18.4788,-0.7025,-1.0101,2.7303,-38.9813,-15.6188,3.6938,
5.432777,-1.6772,9.2518,18.4788,1.0876,0.7476,2.2027,-38.9813,-15.6188,3.6938,
5.434354,4.9993,12.5632,8.2058,1.0876,0.7476,2.2027,-38.9813,-15.6188,3.6938,
5.456196,4.9993,12.5632,8.2058,1.0876,0.7476,2.2027,-38.9813,-15.6188,3.6938,
5.461943,4.9993,12.5632,8.2058,1.0876,0.7476,2.2027,-39.5063,-11.4375,5.1750,
5.487249,4.9993,12.5632,8.2058,1.0876,0.7476,2.2027,-39.5063,-11.4375,5.1750,
5.490080,4.9993,12.5632,8.2058,1.0876,0.7476,2.2027,-39.5063,-11.4375,5.1750,
5.491638,4.9993,12.5632,8.2058,0.7763,2.0122,-0.0234,-39.5063,-11.4375,5.1750,
5.493710,10.8461,5.4733,6.3904,0.7763,2.0122,-0.0234,-39.5063,-11.4375,5.1750,
5.513754,10.8461,5.4733,6.3904,0.7763,2.0122,-0.0234,-39.5063,-11.4375,5.1750,
5.544515,10.8461,5.4733,6.3904,0.7763,2.0122,-0.0234,-39.5063,-11.4375,5.1750,
5.547282,10.8461,5.4733,6.3904,0.7763,2.0122,-0.0234,-39.9000,-7.4438,5.6063,
5.549002,10.8461,5.4733,6.3904,0.1383,-0.2969,-0.0925,-39.9000,-7.4438,5.6063,
5.550979,1.0136,-6.2128,0.4797,0.1383,-0.2969,-0.0925,-39.9000,-7.4438,5.6063,
5.552770,1.0136,-6.2128,0.4797,0.1383,-0.2969,-0.0925,-39.9000,-7.4438,5.6063,
5.590310,1.0136,-6.2128,0.4797,0.1383,-0.2969,-0.0925,-39.9000,-7.4438,5.6063,
5.592940,1.0136,-6.2128,0.4797,0.1383,-0.2969,-0.0925,-39.9000,-7.4438,5.6063,
5.602558,1.0136,-6.2128,0.4797,0.1383,-0.2969,-0.0925,-40.2375,-3.8063,5.4188,
5.611883,-0.7228,-1.4652,1.4159,0.1383,-0.2969,-0.0925,-40.2375,-3.8063,5.4188,
5.614481,-0.7228,-1.4652,1.4159,0.1383,-0.2969,-0.0925,-40.2375,-3.8063,5.4188,
5.628280,-0.7228,-1.4652,1.4159,-0.6641,-1.6586,-0.6502,-40.2375,-3.8063,5.4188,
5.656365,-0.7228,-1.4652,1.4159,-0.6641,-1.6586,-0.6502,-40.2375,-3.8063,5.4188,
5.658583,-0.7228,-1.4652,1.4159,-0.6641,-1.6586,-0.6502,-40.2375,-3.8063,5.4188,
5.662140,-0.7228,-1.4652,1.4159,-0.6641,-1.6586,-0.6502,-40.3875,-1.1438,5.1750,
5.665890,-0.7228,-1.4652,1.4159,-0.6641,-1.6586,-0.6502,-40.3875,-1.1438,5.1750,
5.667625,-1.2870,-3.0024,6.5502,-0.6641,-1.6586,-0.6502,-40.3875,-1.1438,5.1750,
5.686171,-1.2870,-3.0024,6.5502,-0.1903,-0.0693,-1.3300,-40.3875,-1.1438,5.1750,
5.694321,-1.2870,-3.0024,6.5502,-0.1903,-0.0693,-1.3300,-40.3875,-1.1438,5.1750,
5.726928,1.8930,-7.6380,12.0673,-0.1903,-0.0693,-1.3300,-40.3875,-1.1438,5.1750,
5.730586,1.8930,-7.6380,12.0673,-0.1903,-0.0693,-1.3300,-40.3875,-1.1438,5.1750,
5.731794,1.8930,-7.6380,12.0673,-0.1903,-0.0693,-1.3300,-40.3875,-1.1438,5.1750,
5.744251,1.8930,-7.6380,12.0673,-0.1903,-0.0693,-1.3300,-40.4250,-0.0000,5.0250,
5.747483,1.8930,-7.6380,12.0673,1.3246,0.0977,-0.7730,-40.4250,-0.0000,5.0250,
5.788235,1.8930,-7.6380,12.0673,1.3246,0.0977,-0.7730,-40.4250,-0.0000,5.0250,
5.790653,1.8930,-7.6380,12.0673,1.3246,0.0977,-0.7730,-40.4250,-0.0000,5.0250,
5.791881,1.8930,-7.6380,12.0673,1.3246,0.0977,-0.7730,-40.4250,-0.0000,5.0250,
5.793676,1.2288,-8.2026,5.7190,1.3246,0.0977,-0.7730,-40.4250,-0.0000,5.0250,
5.801678,1.2288,-8.2026,5.7190,1.3246,0.0977,-0.7730,-40.5188,0.5813,5.1375,
5.825910,1.2288,-8.2026,5.7190,1.3246,0.0977,-0.7730,-40.5188,0.5813,5.1375,
5.828072,1.2288,-8.2026,5.7190,0.9687,-0.1987,-0.9767,-40.5188,0.5813,5.1375,
5.848088,1.2288,-8.2026,5.7190,0.9687,-0.1987,-0.9767,-40.5188,0.5813,5.1375,
5.851011,1.2288,-8.2026,5.7190,0.9687,-0.1987,-0.9767,-40.5188,0.5813,5.1375,
5.852671,1.1844,-5.0942,-4.7376,0.9687,-0.1987,-0.9767,-40.5188,0.5813,5.1375,
5.862403,1.1844,-5.0942,-4.7376,0.9687,-0.1987,-0.9767,-40.4813,0.6000,5.4000,
5.885888,1.1844,-5.0942,-4.7376,0.9842,-1.1810,-1.0254,-40.4813,0.6000,5.4000,
5.886932,1.1844,-5.0942,-4.7376,0.9842,-1.1810,-1.0254,-40.4813,0.6000,5.4000,
5.907862,1.1844,-5.0942,-4.7376,0.9842,-1.1810,-1.0254,-40.4813,0.6000,5.4000,
5.908874,1.1844,-5.0942,-4.7376,0.9842,-1.1810,-1.0254,-40.4813,0.6000,5.4000,
5.909719,0.6538,-3.0646,-6.3433,0.9842,-1.1810,-1.0254,-40.4813,0.6000,5.4000,
5.943213,0.6538,-3.0646,-6.3433,0.9842,-1.1810,-1.0254,-40.4813,0.6000,5.4000,
5.944937,0.6538,-3.0646,-6.3433,0.9842,-1.1810,-1.0254,-40.5000,-0.8438,5.6625,
5.946418,0.6538,-3.0646,-6.3433,-0.0160,-1.0637,-1.5297,-40.5000,-0.8438,5.6625,
5.970241,0.6538,-3.0646,-6.3433,-0.0160,-1.0637,-1.5297,-40.5000,-0.8438,5.6625,
5.972129,0.6538,-3.0646,-6.3433,-0.0160,-1.0637,-1.5297,-40.5000,-0.8438,5.6625,
5.973181,-0.8076,0.1612,-8.7598,-0.0160,-1.0637,-1.5297,-40.5000,-0.8438,5.6625,
5.990964,-0.8076,0.1612,-8.7598,-0.0160,-1.0637,-1.5297,-40.5000,-0.8438,5.6625,
6.002922,-0.8076,0.1612,-8.7598,-0.0160,-1.0637,-1.5297,-40.3688,-3.5625,6.7125,
6.027332,-0.8076,0.1612,-8.7598,-0.0160,-1.0637,-1.5297,-40.3688,-3.5625,6.7125,
6.029830,-1.7742,-0.8271,-3.0205,-0.0160,-1.0637,-1.5297,-40.3688,-3.5625,6.7125,
6.031754,-1.7742,-0.8271,-3.0205,-0.3579,-0.3198,-1.7471,-40.3688,-3.5625,6.7125,
6.033069,-1.7742,-0.8271,-3.0205,-0.3579,-0.3198,-1.7471,-40.3688,-3.5625,6.7125,
6.056910,-1.7742,-0.8271,-3.0205,-0.3579,-0.3198,-1.7471,-40.3688,-3.5625,6.7125,
6.063016,-1.7742,-0.8271,-3.0205,-0.3579,-0.3198,-1.7471,-40.0500,-6.7500,8.2313,
6.090096,-1.7742,-0.8271,-3.0205,-0.3579,-0.3198,-1.7471,-40.0500,-6.7500,8.2313,
6.092009,-1.7742,-0.8271,-3.0205,-0.3579,-0.3198,-1.7471,-40.0500,-6.7500,8.2313,
6.092959,-1.7742,-0.8271,-3.0205,-0.5130,-0.1892,-1.3248,-40.0500,-6.7500,8.2313,
6.094202,-3.0062,-0.4407,-1.2540,-0.5130,-0.1892,-1.3248,-40.0500,-6.7500,8.2313,
6.126523,-3.0062,-0.4407,-1.2540,-0.5130,-0.1892,-1.3248,-40.0500,-6.7500,8.2313,
6.144896,-3.0062,-0.4407,-1.2540,-0.5130,-0.1892,-1.3248,-40.0500,-6.7500,8.2313,
6.146903,-3.0062,-0.4407,-1.2540,-0.5130,-0.1892,-1.3248,-39.5250,-10.1063,9.3938,
6.151450,-3.0062,-0.4407,-1.2540,-0.1346,-0.5818,-0.3173,-39.5250,-10.1063,9.3938,
6.153612,-3.0062,-0.4407,-1.2540,-0.1346,-0.5818,-0.3173,-39.5250,-10.1063,9.3938,
6.154495,-4.2289,0.7745,0.9537,-0.1346,-0.5818,-0.3173,-39.5250,-10.1063,9.3938,
6.189927,-4.2289,0.7745,0.9537,-0.1346,-0.5818,-0.3173,-39.5250,-10.1063,9.3938,
6.193117,-4.2289,0.7745,0.9537,-0.1346,-0.5818,-0.3173,-39.5250,-10.1063,9.3938,
6.203671,-4.2289,0.7745,0.9537,-0.1346,-0.5818,-0.3173,-39.2250,-13.2000,10.2750,
6.206870,-4.2289,0.7745,0.9537,-0.1346,-0.5818,-0.3173,-39.2250,-13.2000,10.2750,
6.208646,-5.0446,3.5571,0.4025,-0.1346,-0.5818,-0.3173,-39.2250,-13.2000,10.2750,
6.229465,-5.0446,3.5571,0.4025,0.2107,-0.0944,0.6865,-39.2250,-13.2000,10.2750,
6.256082,-5.0446,3.5571,0.4025,0.2107,-0.0944,0.6865,-39.2250,-13.2000,10.2750,
6.258034,-5.0446,3.5571,0.4025,0.2107,-0.0944,0.6865,-39.2250,-13.2000,10.2750,
6.262455,-5.0446,3.5571,0.4025,0.2107,-0.0944,0.6865,-38.8500,-15.4313,11.3438,
6.268317,-5.0993,7.2761,-1.8887,0.2107,-0.0944,0.6865,-38.8500,-15.4313,11.3438,
6.271796,-5.0993,7.2761,-1.8887,0.2107,-0.0944,0.6865,-38.8500,-15.4313,11.3438,
6.289843,-5.0993,7.2761,-1.8887,-0.3835,-0.2717,0.6661,-38.8500,-15.4313,11.3438,
6.323653,-5.0993,7.2761,-1.8887,-0.3835,-0.2717,0.6661,-38.8500,-15.4313,11.3438,
6.325691,-5.0993,7.2761,-1.8887,-0.3835,-0.2717,0.6661,-38.8500,-15.4313,11.3438,
6.327147,-0.3664,4.9139,-1.1082,-0.3835,-0.2717,0.6661,-38.8500,-15.4313,11.3438,
6.329062,-0.3664,4.9139,-1.1082,-0.3835,-0.2717,0.6661,-38.8500,-15.4313,11.3438,
6.344695,-0.3664,4.9139,-1.1082,-0.3835,-0.2717,0.6661,-38.4188,-17.3438,12.3000,
6.347106,-0.3664,4.9139,-1.1082,-0.5986,0.5306,0.5007,-38.4188,-17.3438,12.3000,
6.390280,-0.3664,4.9139,-1.1082,-0.5986,0.5306,0.5007,-38.4188,-17.3438,12.3000,
6.391800,-0.3664,4.9139,-1.1082,-0.5986,0.5306,0.5007,-38.4188,-17.3438,12.3000,
6.392720,-0.3664,4.9139,-1.1082,-0.5986,0.5306,0.5007,-38.4188,-17.3438,12.3000,
6.393539,0.6135,0.2858,1.5873,-0.5986,0.5306,0.5007,-38.4188,-17.3438,12.3000,
6.402657,0.6135,0.2858,1.5873,-0.5986,0.5306,0.5007,-38.2875,-18.7875,12.8625,
6.431522,0.6135,0.2858,1.5873,-0.5986,0.5306,0.5007,-38.2875,-18.7875,12.8625,
6.433194,0.6135,0.2858,1.5873,-0.6137,0.3810,0.6437,-38.2875,-18.7875,12.8625,
6.450778,1.6127,-1.2410,1.9238,-0.6137,0.3810,0.6437,-38.2875,-18.7875,12.8625,
6.453328,1.6127,-1.2410,1.9238,-0.6137,0.3810,0.6437,-38.2875,-18.7875,12.8625,
6.454417,1.6127,-1.2410,1.9238,-0.6137,0.3810,0.6437,-38.2875,-18.7875,12.8625,
6.463926,1.6127,-1.2410,1.9238,-0.6137,0.3810,0.6437,-38.3250,-19.7250,12.6938,
6.487181,1.6127,-1.2410,1.9238,-0.6137,0.3810,0.6437,-38.3250,-19.7250,12.6938,
6.489499,1.6127,-1.2410,1.9238,-0.6260,0.1266,0.3986,-38.3250,-19.7250,12.6938,
6.506560,3.1976,-1.5057,3.1172,-0.6260,0.1266,0.3986,-38.3250,-19.7250,12.6938,
6.510376,3.1976,-1.5057,3.1172,-0.6260,0.1266,0.3986,-38.3250,-19.7250,12.6938,
6.512057,3.1976,-1.5057,3.1172,-0.6260,0.1266,0.3986,-38.3250,-19.7250,12.6938,
6.543758,3.1976,-1.5057,3.1172,-0.6260,0.1266,0.3986,-38.3250,-19.7250,12.6938,
6.545707,3.1976,-1.5057,3.1172,-0.6260,0.1266,0.3986,-38.5875,-19.9313,12.1313,
6.546932,3.1976,-1.5057,3.1172,-0.6397,0.0133,0.0921,-38.5875,-19.9313,12.1313,
6.568623,3.1976,-1.5057,3.1172,-0.6397,0.0133,0.0921,-38.5875,-19.9313,12.1313,
6.571082,3.1976,-1.5057,3.1172,-0.6397,0.0133,0.0921,-38.5875,-19.9313,12.1313,
6.572090,3.6457,-0.2569,-0.0952,-0.6397,0.0133,0.0921,-38.5875,-19.9313,12.1313,
6.589870,3.6457,-0.2569,-0.0952,-0.6397,0.0133,0.0921,-38.5875,-19.9313,12.1313,
6.602010,3.6457,-0.2569,-0.0952,-0.6397,0.0133,0.0921,-39.0563,-19.6125,11.4000,
6.626934,3.6457,-0.2569,-0.0952,-0.6397,0.0133,0.0921,-39.0563,-19.6125,11.4000,
6.628952,3.6457,-0.2569,-0.0952,-0.6397,0.0133,0.0921,-39.0563,-19.6125,11.4000,
6.630089,1.6328,1.9802,-1.0769,-0.6397,0.0133,0.0921,-39.0563,-19.6125,11.4000,
6.631462,1.6328,1.9802,-1.0769,-0.7938,0.1000,-0.3021,-39.0563,-19.6125,11.4000,
6.655566,1.6328,1.9802,-1.0769,-0.7938,0.1000,-0.3021,-39.0563,-19.6125,11.4000,
6.662912,1.6328,1.9802,-1.0769,-0.7938,0.1000,-0.3021,-39.7688,-19.0125,10.6875,
6.688177,1.6328,1.9802,-1.0769,-0.7938,0.1000,-0.3021,-39.7688,-19.0125,10.6875,
6.689336,0.5659,2.6517,0.8490,-0.7938,0.1000,-0.3021,-39.7688,-19.0125,10.6875,
6.690659,0.5659,2.6517,0.8490,-0.7938,0.1000,-0.3021,-39.7688,-19.0125,10.6875,
6.691661,0.5659,2.6517,0.8490,-0.5075,0.2050,-0.3741,-39.7688,-19.0125,10.6875,
6.724161,0.5659,2.6517,0.8490,-0.5075,0.2050,-0.3741,-39.7688,-19.0125,10.6875,
6.742832,0.5659,2.6517,0.8490,-0.5075,0.2050,-0.3741,-40.2188,-18.6750,9.6562,
6.744426,0.5659,2.6517,0.8490,-0.5075,0.2050,-0.3741,-40.2188,-18.6750,9.6562,
6.751746,0.5659,2.6517,0.8490,-0.4186,0.3507,-0.3721,-40.2188,-18.6750,9.6562,
6.753879,0.5932,2.2795,1.3158,-0.4186,0.3507,-0.3721,-40.2188,-18.6750,9.6562,
6.755288,0.5932,2.2795,1.3158,-0.4186,0.3507,-0.3721,-40.2188,-18.6750,9.6562,
6.790231,0.5932,2.2795,1.3158,-0.4186,0.3507,-0.3721,-40.2188,-18.6750,9.6562,
6.792054,0.5932,2.2795,1.3158,-0.4186,0.3507,-0.3721,-40.2188,-18.6750,9.6562,
6.801854,0.5932,2.2795,1.3158,-0.4186,0.3507,-0.3721,-40.4625,-18.5625,8.3063,
6.807167,0.5932,2.2795,1.3158,-0.4186,0.3507,-0.3721,-40.4625,-18.5625,8.3063,
6.808542,-0.3859,1.4570,-1.5032,-0.4186,0.3507,-0.3721,-40.4625,-18.5625,8.3063,
6.826248,-0.3859,1.4570,-1.5032,-0.9448,0.6073,-0.1745,-40.4625,-18.5625,8.3063,
6.855279,-0.3859,1.4570,-1.5032,-0.9448,0.6073,-0.1745,-40.4625,-18.5625,8.3063,
6.856918,-0.3859,1.4570,-1.5032,-0.9448,0.6073,-0.1745,-40.4625,-18.5625,8.3063,
6.862735,-0.3859,1.4570,-1.5032,-0.9448,0.6073,-0.1745,-40.7438,-18.6000,6.8063,
6.867538,-0.3859,1.4570,-1.5032,-0.9448,0.6073,-0.1745,-40.7438,-18.6000,6.8063,
6.868782,-1.1823,0.5512,-0.9458,-0.9448,0.6073,-0.1745,-40.7438,-18.6000,6.8063,
6.888950,-1.1823,0.5512,-0.9458,-0.9435,0.2027,0.4970,-40.7438,-18.6000,6.8063,
6.923442,-1.1823,0.5512,-0.9458,-0.9435,0.2027,0.4970,-40.7438,-18.6000,6.8063,
6.925954,-1.1823,0.5512,-0.9458,-0.9435,0.2027,0.4970,-40.7438,-18.6000,6.8063,
6.928989,-2.0069,-0.9543,2.9384,-0.9435,0.2027,0.4970,-40.7438,-18.6000,6.8063,
6.931142,-2.0069,-0.9543,2.9384,-0.9435,0.2027,0.4970,-40.7438,-18.6000,6.8063,
6.945424,-2.0069,-0.9543,2.9384,-0.9435,0.2027,0.4970,-40.9313,-18.4688,5.2125,
6.947954,-2.0069,-0.9543,2.9384,-0.4844,0.2880,0.7686,-40.9313,-18.4688,5.2125,
6.987962,-2.0069,-0.9543,2.9384,-0.4844,0.2880,0.7686,-40.9313,-18.4688,5.2125,
6.989893,-2.0069,-0.9543,2.9384,-0.4844,0.2880,0.7686,-40.9313,-18.4688,5.2125,
6.991087,-2.0069,-0.9543,2.9384,-0.4844,0.2880,0.7686,-40.9313,-18.4688,5.2125,
6.992060,0.4020,-1.3117,2.3353,-0.4844,0.2880,0.7686,-40.9313,-18.4688,5.2125,
7.004541,0.4020,-1.3117,2.3353,-0.4844,0.2880,0.7686,-41.2125,-18.0563,3.8063,
7.028163,0.4020,-1.3117,2.3353,-0.4844,0.2880,0.7686,-41.2125,-18.0563,3.8063,
7.029875,0.4020,-1.3117,2.3353,-0.8807,-0.0790,0.8618,-41.2125,-18.0563,3.8063,
7.050209,0.4020,-1.3117,2.3353,-0.8807,-0.0790,0.8618,-41.2125,-18.0563,3.8063,
7.052776,0.4020,-1.3117,2.3353,-0.8807,-0.0790,0.8618,-41.2125,-18.0563,3.8063,
7.054133,0.7378,0.4641,-2.3431,-0.8807,-0.0790,0.8618,-41.2125,-18.0563,3.8063,
7.062077,0.7378,0.4641,-2.3431,-0.8807,-0.0790,0.8618,-41.4563,-17.4750,2.5875,
7.090651,0.7378,0.4641,-2.3431,-0.8807,-0.0790,0.8618,-41.4563,-17.4750,2.5875,
7.094064,0.7378,0.4641,-2.3431,-1.6087,-0.4266,0.6495,-41.4563,-17.4750,2.5875,
7.108193,0.7378,0.4641,-2.3431,-1.6087,-0.4266,0.6495,-41.4563,-17.4750,2.5875,
7.109925,0.7378,0.4641,-2.3431,-1.6087,-0.4266,0.6495,-41.4563,-17.4750,2.5875,
7.110841,0.2127,0.9770,-2.2493,-1.6087,-0.4266,0.6495,-41.4563,-17.4750,2.5875,
7.142301,0.2127,0.9770,-2.2493,-1.6087,-0.4266,0.6495,-41.4563,-17.4750,2.5875,
7.144730,0.2127,0.9770,-2.2493,-1.6087,-0.4266,0.6495,-41.8313,-16.6500,1.7063,
7.148834,0.2127,0.9770,-2.2493,-2.9399,-0.0221,0.3966,-41.8313,-16.6500,1.7063,
7.151506,0.2127,0.9770,-2.2493,-2.9399,-0.0221,0.3966,-41.8313,-16.6500,1.7063,
7.166890,0.0002,0.8044,-2.2090,-2.9399,-0.0221,0.3966,-41.8313,-16.6500,1.7063,
7.169483,0.0002,0.8044,-2.2090,-2.9399,-0.0221,0.3966,-41.8313,-16.6500,1.7063,
7.189026,0.0002,0.8044,-2.2090,-2.9399,-0.0221,0.3966,-41.8313,-16.6500,1.7063,
7.201887,0.0002,0.8044,-2.2090,-2.9399,-0.0221,0.3966,-42.0188,-15.4688,0.5813,
7.229522,-0.1675,-1.2114,2.9148,-2.9399,-0.0221,0.3966,-42.0188,-15.4688,0.5813,
7.232735,-0.1675,-1.2114,2.9148,-2.9399,-0.0221,0.3966,-42.0188,-15.4688,0.5813,
7.233855,-0.1675,-1.2114,2.9148,-2.9399,-0.0221,0.3966,-42.0188,-15.4688,0.5813,
7.234813,-0.1675,-1.2114,2.9148,-2.7190,0.8511,0.6853,-42.0188,-15.4688,0.5813,
7.255518,-0.1675,-1.2114,2.9148,-2.7190,0.8511,0.6853,-42.0188,-15.4688,0.5813,
7.262566,-0.1675,-1.2114,2.9148,-2.7190,0.8511,0.6853,-42.1500,-13.7625,-0.5250,
7.288797,-0.1675,-1.2114,2.9148,-2.7190,0.8511,0.6853,-42.1500,-13.7625,-0.5250,
7.290562,-0.1675,-1.2114,2.9148,-2.7190,0.8511,0.6853,-42.1500,-13.7625,-0.5250,
7.291248,-0.1675,-1.2114,2.9148,-0.8894,0.1148,-0.2895,-42.1500,-13.7625,-0.5250,
7.292384,1.7979,1.1300,4.2633,-0.8894,0.1148,-0.2895,-42.1500,-13.7625,-0.5250,
7.325921,1.7979,1.1300,4.2633,-0.8894,0.1148,-0.2895,-42.1500,-13.7625,-0.5250,
7.346624,1.7979,1.1300,4.2633,-0.8894,0.1148,-0.2895,-42.3750,-12.0750,-1.6125,
7.349753,1.7979,1.1300,4.2633,-0.8894,0.1148,-0.2895,-42.3750,-12.0750,-1.6125,
7.352295,1.7979,1.1300,4.2633,0.2031,-0.0095,-0.4132,-42.3750,-12.0750,-1.6125,
7.354521,0.0383,1.2938,2.4795,0.2031,-0.0095,-0.4132,-42.3750,-12.0750,-1.6125,
7.356967,0.0383,1.2938,2.4795,0.2031,-0.0095,-0.4132,-42.3750,-12.0750,-1.6125,
7.393328,0.0383,1.2938,2.4795,0.2031,-0.0095,-0.4132,-42.3750,-12.0750,-1.6125,
7.396224,0.0383,1.2938,2.4795,0.2031,-0.0095,-0.4132,-42.3750,-12.0750,-1.6125,
7.402033,0.0383,1.2938,2.4795,0.2031,-0.0095,-0.4132,-42.5250,-10.3125,-2.4563,
7.413818,0.0383,1.2938,2.4795,0.2031,-0.0095,-0.4132,-42.5250,-10.3125,-2.4563,
7.415974,-0.3701,2.0252,1.3059,0.2031,-0.0095,-0.4132,-42.5250,-10.3125,-2.4563,
7.429054,-0.3701,2.0252,1.3059,0.1781,0.3332,-0.4974,-42.5250,-10.3125,-2.4563,
7.454614,-0.3701,2.0252,1.3059,0.1781,0.3332,-0.4974,-42.5250,-10.3125,-2.4563,
7.456528,-0.3701,2.0252,1.3059,0.1781,0.3332,-0.4974,-42.5250,-10.3125,-2.4563,
7.462795,-0.3701,2.0252,1.3059,0.1781,0.3332,-0.4974,-42.5625,-9.2250,-3.0188,
7.466885,-0.3701,2.0252,1.3059,0.1781,0.3332,-0.4974,-42.5625,-9.2250,-3.0188,
7.468169,-1.0257,1.5866,0.2886,0.1781,0.3332,-0.4974,-42.5625,-9.2250,-3.0188,
7.488130,-1.0257,1.5866,0.2886,0.4907,-0.2521,-0.7346,-42.5625,-9.2250,-3.0188,
7.523938,-1.0257,1.5866,0.2886,0.4907,-0.2521,-0.7346,-42.5625,-9.2250,-3.0188,
7.526121,-1.0257,1.5866,0.2886,0.4907,-0.2521,-0.7346,-42.5625,-9.2250,-3.0188,
7.528080,-0.7065,0.0349,0.6640,0.4907,-0.2521,-0.7346,-42.5625,-9.2250,-3.0188,
7.529896,-0.7065,0.0349,0.6640,0.4907,-0.2521,-0.7346,-42.5625,-9.2250,-3.0188,
7.542015,-0.7065,0.0349,0.6640,0.4907,-0.2521,-0.7346,-42.3000,-8.9438,-3.2063,
7.552521,-0.7065,0.0349,0.6640,1.5253,-0.4248,-0.9078,-42.3000,-8.9438,-3.2063,
7.592634,-0.7065,0.0349,0.6640,1.5253,-0.4248,-0.9078,-42.3000,-8.9438,-3.2063,
7.594383,-0.7065,0.0349,0.6640,1.5253,-0.4248,-0.9078,-42.3000,-8.9438,-3.2063,
7.595540,-0.7065,0.0349,0.6640,1.5253,-0.4248,-0.9078,-42.3000,-8.9438,-3.2063,
7.596484,-1.5722,-2.3561,2.0551,1.5253,-0.4248,-0.9078,-42.3000,-8.9438,-3.2063,
7.604041,-1.5722,-2.3561,2.0551,1.5253,-0.4248,-0.9078,-42.0563,-9.3188,-3.4125,
7.628132,-1.5722,-2.3561,2.0551,0.9412,0.2840,-0.6693,-42.0563,-9.3188,-3.4125,
7.630171,-1.5722,-2.3561,2.0551,0.9412,0.2840,-0.6693,-42.0563,-9.3188,-3.4125,
7.650450,-1.5722,-2.3561,2.0551,0.9412,0.2840,-0.6693,-42.0563,-9.3188,-3.4125,
7.652135,-1.5722,-2.3561,2.0551,0.9412,0.2840,-0.6693,-42.0563,-9.3188,-3.4125,
7.653051,-0.2874,-1.2833,-0.7116,0.9412,0.2840,-0.6693,-42.0563,-9.3188,-3.4125,
7.662965,-0.2874,-1.2833,-0.7116,0.9412,0.2840,-0.6693,-41.6813,-10.2188,-3.7125,
7.689734,-0.2874,-1.2833,-0.7116,0.9412,0.2840,-0.6693,-41.6813,-10.2188,-3.7125,
7.693230,-0.2874,-1.2833,-0.7116,0.5928,0.3245,-0.4815,-41.6813,-10.2188,-3.7125,
7.696981,-0.2874,-1.2833,-0.7116,0.5928,0.3245,-0.4815,-41.6813,-10.2188,-3.7125,
7.711665,-1.0527,-0.1726,-1.6148,0.5928,0.3245,-0.4815,-41.6813,-10.2188,-3.7125,
7.715056,-1.0527,-0.1726,-1.6148,0.5928,0.3245,-0.4815,-41.6813,-10.2188,-3.7125,
7.742545,-1.0527,-0.1726,-1.6148,0.5928,0.3245,-0.4815,-41.4750,-11.6063,-3.8625,
7.745447,-1.0527,-0.1726,-1.6148,0.5928,0.3245,-0.4815,-41.4750,-11.6063,-3.8625,
7.750671,-1.0527,-0.1726,-1.6148,0.3180,0.3128,-0.3690,-41.4750,-11.6063,-3.8625,
7.768711,-1.0527,-0.1726,-1.6148,0.3180,0.3128,-0.3690,-41.4750,-11.6063,-3.8625,
7.772297,-1.0527,-0.1726,-1.6148,0.3180,0.3128,-0.3690,-41.4750,-11.6063,-3.8625,
7.773943,-0.3733,0.1643,-1.7726,0.3180,0.3128,-0.3690,-41.4750,-11.6063,-3.8625,
7.788815,-0.3733,0.1643,-1.7726,0.3180,0.3128,-0.3690,-41.4750,-11.6063,-3.8625,
7.804162,-0.3733,0.1643,-1.7726,0.3180,0.3128,-0.3690,-41.3438,-13.4625,-3.9375,
7.828038,-0.3733,0.1643,-1.7726,0.3180,0.3128,-0.3690,-41.3438,-13.4625,-3.9375,
7.830877,-0.3733,0.1643,-1.7726,0.3180,0.3128,-0.3690,-41.3438,-13.4625,-3.9375,
7.832146,-0.3733,0.1643,-1.7726,0.0090,0.2110,-0.3641,-41.3438,-13.4625,-3.9375,
7.833716,0.2728,0.3784,-1.4925,0.0090,0.2110,-0.3641,-41.3438,-13.4625,-3.9375,
7.856138,0.2728,0.3784,-1.4925,0.0090,0.2110,-0.3641,-41.3438,-13.4625,-3.9375,
7.862712,0.2728,0.3784,-1.4925,0.0090,0.2110,-0.3641,-41.1188,-15.3375,-3.7125,
7.892210,-0.0534,-0.1822,-0.6042,0.0090,0.2110,-0.3641,-41.1188,-15.3375,-3.7125,
7.894297,-0.0534,-0.1822,-0.6042,-0.0082,0.0730,-0.3358,-41.1188,-15.3375,-3.7125,
7.895477,-0.0534,-0.1822,-0.6042,-0.0082,0.0730,-0.3358,-41.1188,-15.3375,-3.7125,
7.896439,-0.0534,-0.1822,-0.6042,-0.0082,0.0730,-0.3358,-41.1188,-15.3375,-3.7125,
7.924152,-0.0534,-0.1822,-0.6042,-0.0082,0.0730,-0.3358,-41.1188,-15.3375,-3.7125,
7.947797,-0.0534,-0.1822,-0.6042,-0.0082,0.0730,-0.3358,-41.1188,-15.3375,-3.7125,
7.949408,-0.0534,-0.1822,-0.6042,-0.0082,0.0730,-0.3358,-40.8938,-17.3625,-3.5438,
7.950536,-0.0534,-0.1822,-0.6042,-0.0995,-0.0538,-0.2953,-40.8938,-17.3625,-3.5438,
7.951284,-0.5260,0.1770,-0.2430,-0.0995,-0.0538,-0.2953,-40.8938,-17.3625,-3.5438,
7.952266,-0.5260,0.1770,-0.2430,-0.0995,-0.0538,-0.2953,-40.8938,-17.3625,-3.5438,
7.992226,-0.5260,0.1770,-0.2430,-0.0995,-0.0538,-0.2953,-40.8938,-17.3625,-3.5438,
7.995261,-0.5260,0.1770,-0.2430,-0.0995,-0.0538,-0.2953,-40.8938,-17.3625,-3.5438,
8.002389,-0.5260,0.1770,-0.2430,-0.0995,-0.0538,-0.2953,-40.5750,-19.1438,-3.3750,
8.019489,-0.5260,0.1770,-0.2430,-0.0995,-0.0538,-0.2953,-40.5750,-19.1438,-3.3750,
8.021242,0.1487,0.2198,-0.4478,-0.0995,-0.0538,-0.2953,-40.5750,-19.1438,-3.3750,
8.028167,0.1487,0.2198,-0.4478,-0.1127,0.1249,-0.2056,-40.5750,-19.1438,-3.3750,
8.056995,0.1487,0.2198,-0.4478,-0.1127,0.1249,-0.2056,-40.5750,-19.1438,-3.3750,
8.058094,0.1487,0.2198,-0.4478,-0.1127,0.1249,-0.2056,-40.5750,-19.1438,-3.3750,
8.061135,0.1487,0.2198,-0.4478,-0.1127,0.1249,-0.2056,-47.5500,-15.5438,-5.8500,
8.069570,0.1487,0.2198,-0.4478,-0.1127,0.1249,-0.2056,-47.5500,-15.5438,-5.8500,
8.070624,0.0163,0.2502,0.1542,-0.1127,0.1249,-0.2056,-47.5500,-15.5438,-5.8500,
8.088573,0.0163,0.2502,0.1542,-0.0068,0.0703,0.0180,-47.5500,-15.5438,-5.8500,
8.126207,0.0163,0.2502,0.1542,-0.0068,0.0703,0.0180,-47.5500,-15.5438,-5.8500,
8.131009,0.0163,0.2502,0.1542,-0.0068,0.0703,0.0180,-47.5500,-15.5438,-5.8500,
8.133687,0.0604,0.2372,0.5129,-0.0068,0.0703,0.0180,-47.5500,-15.5438,-5.8500,
8.136063,0.0604,0.2372,0.5129,-0.0068,0.0703,0.0180,-47.5500,-15.5438,-5.8500,
8.146107,0.0604,0.2372,0.5129,-0.0068,0.0703,0.0180,-47.3063,-16.5188,-6.1313,
8.149418,0.0604,0.2372,0.5129,0.1150,0.0381,0.0578,-47.3063,-16.5188,-6.1313,
8.189903,0.0604,0.2372,0.5129,0.1150,0.0381,0.0578,-47.3063,-16.5188,-6.1313,
8.191573,0.0604,0.2372,0.5129,0.1150,0.0381,0.0578,-47.3063,-16.5188,-6.1313,
8.192598,0.0604,0.2372,0.5129,0.1150,0.0381,0.0578,-47.3063,-16.5188,-6.1313,
8.193661,0.3671,0.0472,0.5364,0.1150,0.0381,0.0578,-47.3063,-16.5188,-6.1313,
8.203168,0.3671,0.0472,0.5364,0.1150,0.0381,0.0578,-47.2125,-17.0438,-6.4688,
8.214124,0.3671,0.0472,0.5364,0.1397,-0.0392,0.0436,-47.2125,-17.0438,-6.4688,
8.251300,0.3671,0.0472,0.5364,0.1397,-0.0392,0.0436,-47.2125,-17.0438,-6.4688,
8.254323,0.3671,0.0472,0.5364,0.1397,-0.0392,0.0436,-47.2125,-17.0438,-6.4688,
8.255637,0.3671,0.0472,0.5364,0.1397,-0.0392,0.0436,-47.2125,-17.0438,-6.4688,
8.256463,0.3013,-0.0262,0.0658,0.1397,-0.0392,0.0436,-47.2125,-17.0438,-6.4688,
8.261427,0.3013,-0.0262,0.0658,0.1397,-0.0392,0.0436,-46.9125,-17.4188,-6.6000,
8.289078,0.3013,-0.0262,0.0658,0.1397,-0.0392,0.0436,-46.9125,-17.4188,-6.6000,
8.289927,0.3013,-0.0262,0.0658,0.1749,0.0004,0.1005,-46.9125,-17.4188,-6.6000,
8.307064,0.3013,-0.0262,0.0658,0.1749,0.0004,0.1005,-46.9125,-17.4188,-6.6000,
8.307798,0.3013,-0.0262,0.0658,0.1749,0.0004,0.1005,-46.9125,-17.4188,-6.6000,
8.308214,-0.0022,-0.2849,0.2171,0.1749,0.0004,0.1005,-46.9125,-17.4188,-6.6000,
8.343298,-0.0022,-0.2849,0.2171,0.1749,0.0004,0.1005,-46.6688,-17.7188,-6.6188,
8.344215,-0.0022,-0.2849,0.2171,0.1749,0.0004,0.1005,-46.6688,-17.7188,-6.6188,
8.348586,-0.0022,-0.2849,0.2171,0.1748,0.0615,0.1090,-46.6688,-17.7188,-6.6188,
8.369281,-0.0022,-0.2849,0.2171,0.1748,0.0615,0.1090,-46.6688,-17.7188,-6.6188,
8.370188,-0.0022,-0.2849,0.2171,0.1748,0.0615,0.1090,-46.6688,-17.7188,-6.6188,
8.370745,0.4311,-0.4379,0.0722,0.1748,0.0615,0.1090,-46.6688,-17.7188,-6.6188,
8.391371,0.4311,-0.4379,0.0722,0.1748,0.0615,0.1090,-46.6688,-17.7188,-6.6188,
8.401251,0.4311,-0.4379,0.0722,0.1748,0.0615,0.1090,-46.5563,-17.7938,-6.6938,
8.410451,0.4311,-0.4379,0.0722,0.2553,-0.0489,0.0439,-46.5563,-17.7938,-6.6938,
8.428168,0.4288,-0.2328,-0.0648,0.2553,-0.0489,0.0439,-46.5563,-17.7938,-6.6938,
8.430054,0.4288,-0.2328,-0.0648,0.2553,-0.0489,0.0439,-46.5563,-17.7938,-6.6938,
8.430979,0.4288,-0.2328,-0.0648,0.2553,-0.0489,0.0439,-46.5563,-17.7938,-6.6938,
8.460666,0.4288,-0.2328,-0.0648,0.2553,-0.0489,0.0439,-46.5563,-17.7938,-6.6938,
8.462936,0.4288,-0.2328,-0.0648,0.2553,-0.0489,0.0439,-46.4250,-17.8875,-6.6750,
