
time,ax,ay,az,wx,wy,wz,Bx,By,Bz,
0.113259,0.0000,0.0000,0.0000,0.0000,0.0000,0.0000,0.0000,0.0000,0.0000,
0.114493,0.0000,0.0000,0.0000,0.0000,0.0000,0.0000,0.0000,0.0000,0.0000,
0.115607,0.0000,0.0000,0.0000,0.0000,0.0000,0.0000,0.0000,0.0000,0.0000,
0.116498,0.0000,0.0000,0.0000,0.0000,0.0000,0.0000,0.0000,0.0000,0.0000,
0.117155,0.0000,0.0000,0.0000,0.0596,-0.1067,-0.0160,0.0000,0.0000,0.0000,
0.151408,0.0000,0.0000,0.0000,0.0596,-0.1067,-0.0160,0.0000,0.0000,0.0000,
0.153882,0.0000,0.0000,0.0000,0.0596,-0.1067,-0.0160,0.0000,0.0000,0.0000,
0.177785,0.0000,0.0000,0.0000,-0.1605,-0.1186,0.0337,0.0000,0.0000,0.0000,
0.180234,0.0000,0.0000,0.0000,-0.1605,-0.1186,0.0337,0.0000,0.0000,0.0000,
0.181613,0.0000,0.0000,0.0000,-0.1605,-0.1186,0.0337,0.0000,0.0000,0.0000,
0.183058,0.0000,0.0000,0.0000,-0.1605,-0.1186,0.0337,0.0000,0.0000,0.0000,
0.184375,0.0000,0.0000,0.0000,-0.1605,-0.1186,0.0337,-42.8250,-4.9875,-8.8875,
0.216785,0.0000,0.0000,0.0000,-0.1605,-0.1186,0.0337,-42.8250,-4.9875,-8.8875,
0.219055,0.0000,0.0000,0.0000,-0.1605,-0.1186,0.0337,-42.8250,-4.9875,-8.8875,
0.237131,0.0000,0.0000,0.0000,-0.1605,-0.1186,0.0337,-42.8250,-4.9875,-8.8875,
0.239597,0.1419,-0.2955,0.0551,-0.1605,-0.1186,0.0337,-42.8250,-4.9875,-8.8875,
0.242222,0.1419,-0.2955,0.0551,-0.1605,-0.1186,0.0337,-43.1813,-5.0250,-8.7750,
0.254185,0.1419,-0.2955,0.0551,-0.1151,-0.1564,0.1100,-43.1813,-5.0250,-8.7750,
0.283926,0.1419,-0.2955,0.0551,-0.1151,-0.1564,0.1100,-43.1813,-5.0250,-8.7750,
0.287147,0.1419,-0.2955,0.0551,-0.1151,-0.1564,0.1100,-43.1813,-5.0250,-8.7750,
0.296587,0.1948,-0.1911,0.1204,-0.1151,-0.1564,0.1100,-43.1813,-5.0250,-8.7750,
0.301026,0.1948,-0.1911,0.1204,-0.1151,-0.1564,0.1100,-43.1813,-5.0250,-8.7750,
0.311712,0.1948,-0.1911,0.1204,-0.1939,-0.0929,0.1537,-43.1813,-5.0250,-8.7750,
0.322840,0.1948,-0.1911,0.1204,-0.1939,-0.0929,0.1537,-43.1813,-5.0250,-8.7750,
0.325220,0.1948,-0.1911,0.1204,-0.1939,-0.0929,0.1537,-43.0500,-4.8938,-8.4750,
0.354141,0.1948,-0.1911,0.1204,-0.1939,-0.0929,0.1537,-43.0500,-4.8938,-8.4750,
0.355830,0.1948,-0.1911,0.1204,-0.1939,-0.0929,0.1537,-43.0500,-4.8938,-8.4750,
0.356919,0.2831,0.0245,0.1904,-0.1939,-0.0929,0.1537,-43.0500,-4.8938,-8.4750,
0.372534,0.2831,0.0245,0.1904,-0.2087,0.0405,0.1560,-43.0500,-4.8938,-8.4750,
0.383453,0.2831,0.0245,0.1904,-0.2087,0.0405,0.1560,-43.0500,-4.8938,-8.4750,
0.384641,0.2831,0.0245,0.1904,-0.2087,0.0405,0.1560,-43.0875,-4.7438,-8.4375,
0.411374,0.4543,-0.1132,0.2912,-0.2087,0.0405,0.1560,-43.0875,-4.7438,-8.4375,
0.413440,0.4543,-0.1132,0.2912,-0.2087,0.0405,0.1560,-43.0875,-4.7438,-8.4375,
0.414428,0.4543,-0.1132,0.2912,-0.2087,0.0405,0.1560,-43.0875,-4.7438,-8.4375,
0.441103,0.4543,-0.1132,0.2912,-0.2087,0.0405,0.1560,-43.1063,-4.5750,-8.3438,
0.443758,0.4543,-0.1132,0.2912,-0.2087,0.0405,0.1560,-43.1063,-4.5750,-8.3438,
0.454356,0.4543,-0.1132,0.2912,-0.0246,0.0912,0.1788,-43.1063,-4.5750,-8.3438,
0.474790,0.4543,-0.1132,0.2912,-0.0246,0.0912,0.1788,-43.1063,-4.5750,-8.3438,
0.477087,0.4543,-0.1132,0.2912,-0.0246,0.0912,0.1788,-43.1063,-4.5750,-8.3438,
0.478706,0.5093,0.1130,0.0337,-0.0246,0.0912,0.1788,-43.1063,-4.5750,-8.3438,
0.514913,0.5093,0.1130,0.0337,-0.1538,0.1497,0.1979,-43.1063,-4.5750,-8.3438,
0.519226,0.5093,0.1130,0.0337,-0.1538,0.1497,0.1979,-43.1063,-4.5750,-8.3438,
0.526600,0.5093,0.1130,0.0337,-0.1538,0.1497,0.1979,-43.1625,-4.3313,-8.3813,
0.529832,0.5093,0.1130,0.0337,-0.1538,0.1497,0.1979,-43.1625,-4.3313,-8.3813,
0.533577,0.5064,0.7898,-0.5469,-0.1538,0.1497,0.1979,-43.1625,-4.3313,-8.3813,
0.537848,0.5064,0.7898,-0.5469,-0.1538,0.1497,0.1979,-43.1625,-4.3313,-8.3813,
0.571746,0.5064,0.7898,-0.5469,-0.5150,0.1436,0.1259,-43.1625,-4.3313,-8.3813,
0.575223,0.5064,0.7898,-0.5469,-0.5150,0.1436,0.1259,-43.1625,-4.3313,-8.3813,
0.581534,0.5064,0.7898,-0.5469,-0.5150,0.1436,0.1259,-43.2000,-4.0500,-8.5500,
0.584877,0.5064,0.7898,-0.5469,-0.5150,0.1436,0.1259,-43.2000,-4.0500,-8.5500,
0.591162,0.3287,0.3559,-0.0139,-0.5150,0.1436,0.1259,-43.2000,-4.0500,-8.5500,
0.593912,0.3287,0.3559,-0.0139,-0.5150,0.1436,0.1259,-43.2000,-4.0500,-8.5500,
0.618930,0.3287,0.3559,-0.0139,-0.5150,0.1436,0.1259,-43.2000,-4.0500,-8.5500,
0.632092,0.3287,0.3559,-0.0139,-0.4500,-0.0237,0.1527,-43.2000,-4.0500,-8.5500,
0.641396,0.3287,0.3559,-0.0139,-0.4500,-0.0237,0.1527,-43.0312,-3.7125,-8.6813,
0.643696,0.3287,0.3559,-0.0139,-0.4500,-0.0237,0.1527,-43.0312,-3.7125,-8.6813,
0.654066,-0.2255,-0.0149,0.5930,-0.4500,-0.0237,0.1527,-43.0312,-3.7125,-8.6813,
0.656364,-0.2255,-0.0149,0.5930,-0.4500,-0.0237,0.1527,-43.0312,-3.7125,-8.6813,
0.683862,-0.2255,-0.0149,0.5930,-0.4500,-0.0237,0.1527,-43.0312,-3.7125,-8.6813,
0.717249,-0.2255,-0.0149,0.5930,-0.3978,0.0063,0.1802,-43.0312,-3.7125,-8.6813,
0.721160,-0.3371,0.4150,0.4324,-0.3978,0.0063,0.1802,-43.0312,-3.7125,-8.6813,
0.724197,-0.3371,0.4150,0.4324,-0.3978,0.0063,0.1802,-43.0312,-3.7125,-8.6813,
0.726221,-0.3371,0.4150,0.4324,-0.3978,0.0063,0.1802,-43.0312,-3.7125,-8.6813,
0.728016,-0.3371,0.4150,0.4324,-0.3978,0.0063,0.1802,-42.9938,-3.1688,-8.7938,
0.750308,-0.3371,0.4150,0.4324,-0.3978,0.0063,0.1802,-42.9938,-3.1688,-8.7938,
0.772935,-0.3371,0.4150,0.4324,-0.3978,0.0063,0.1802,-42.9938,-3.1688,-8.7938,
0.775480,-0.3371,0.4150,0.4324,-0.3978,0.0063,0.1802,-42.9938,-3.1688,-8.7938,
0.777135,-0.3371,0.4150,0.4324,-0.5869,-0.4081,0.3571,-42.9938,-3.1688,-8.7938,
0.779694,-0.7475,1.0394,0.8281,-0.5869,-0.4081,0.3571,-42.9938,-3.1688,-8.7938,
0.781975,-0.7475,1.0394,0.8281,-0.5869,-0.4081,0.3571,-42.9000,-2.4750,-8.7938,
0.817587,-0.7475,1.0394,0.8281,-0.5869,-0.4081,0.3571,-42.9000,-2.4750,-8.7938,
0.820314,-0.7475,1.0394,0.8281,-0.5869,-0.4081,0.3571,-42.9000,-2.4750,-8.7938,
0.834233,-0.7475,1.0394,0.8281,-1.2547,0.2094,0.7507,-42.9000,-2.4750,-8.7938,
0.838459,-0.7475,1.0394,0.8281,-1.2547,0.2094,0.7507,-42.9000,-2.4750,-8.7938,
0.840446,-0.1007,0.8424,0.6507,-1.2547,0.2094,0.7507,-42.9000,-2.4750,-8.7938,
0.846835,-0.1007,0.8424,0.6507,-1.2547,0.2094,0.7507,-42.8813,-1.5563,-8.8313,
0.886955,-0.1007,0.8424,0.6507,-1.2547,0.2094,0.7507,-42.8813,-1.5563,-8.8313,
0.889450,-0.1007,0.8424,0.6507,-1.2547,0.2094,0.7507,-42.8813,-1.5563,-8.8313,
0.892756,0.1595,1.7085,0.0406,-1.2547,0.2094,0.7507,-42.8813,-1.5563,-8.8313,
0.896033,0.1595,1.7085,0.0406,-1.2547,0.2094,0.7507,-42.8813,-1.5563,-8.8313,
0.912028,0.1595,1.7085,0.0406,-0.7053,-0.1432,0.5087,-42.8813,-1.5563,-8.8313,
0.922162,0.1595,1.7085,0.0406,-0.7053,-0.1432,0.5087,-42.8625,-0.3938,-8.9062,
0.925482,0.1595,1.7085,0.0406,-0.7053,-0.1432,0.5087,-42.8625,-0.3938,-8.9062,
0.952846,0.1595,1.7085,0.0406,-0.7053,-0.1432,0.5087,-42.8625,-0.3938,-8.9062,
0.955518,0.8736,2.3779,-1.1851,-0.7053,-0.1432,0.5087,-42.8625,-0.3938,-8.9062,
0.958628,0.8736,2.3779,-1.1851,-0.7053,-0.1432,0.5087,-42.8625,-0.3938,-8.9062,
0.972765,0.8736,2.3779,-1.1851,-0.3436,0.0689,0.2151,-42.8625,-0.3938,-8.9062,
0.983720,0.8736,2.3779,-1.1851,-0.3436,0.0689,0.2151,-42.8625,-0.3938,-8.9062,
0.986012,0.8736,2.3779,-1.1851,-0.3436,0.0689,0.2151,-42.8625,0.7313,-8.9813,
1.014112,-1.0764,1.4911,-0.4170,-0.3436,0.0689,0.2151,-42.8625,0.7313,-8.9813,
1.017141,-1.0764,1.4911,-0.4170,-0.3436,0.0689,0.2151,-42.8625,0.7313,-8.9813,
1.018445,-1.0764,1.4911,-0.4170,-0.3436,0.0689,0.2151,-42.8625,0.7313,-8.9813,
1.033699,-1.0764,1.4911,-0.4170,-0.7006,-0.2372,-0.8006,-42.8625,0.7313,-8.9813,
1.038081,-1.0764,1.4911,-0.4170,-0.7006,-0.2372,-0.8006,-42.8625,0.7313,-8.9813,
1.040516,-1.0764,1.4911,-0.4170,-0.7006,-0.2372,-0.8006,-42.8250,1.5000,-8.8688,
1.072596,-1.0764,1.4911,-0.4170,-0.7006,-0.2372,-0.8006,-42.8250,1.5000,-8.8688,
1.074796,-1.0764,1.4911,-0.4170,-0.7006,-0.2372,-0.8006,-42.8250,1.5000,-8.8688,
1.076051,-0.8327,0.0884,1.7315,-0.7006,-0.2372,-0.8006,-42.8250,1.5000,-8.8688,
1.112839,-0.8327,0.0884,1.7315,-1.0559,-0.2582,-0.9850,-42.8250,1.5000,-8.8688,
1.118165,-0.8327,0.0884,1.7315,-1.0559,-0.2582,-0.9850,-42.8250,1.5000,-8.8688,
1.129411,-0.8327,0.0884,1.7315,-1.0559,-0.2582,-0.9850,-42.8250,1.5000,-8.8688,
1.133559,-0.8327,0.0884,1.7315,-1.0559,-0.2582,-0.9850,-42.8625,2.0063,-8.7563,
1.138267,-2.1874,-0.8631,4.4936,-1.0559,-0.2582,-0.9850,-42.8625,2.0063,-8.7563,
1.143885,-2.1874,-0.8631,4.4936,-1.0559,-0.2582,-0.9850,-42.8625,2.0063,-8.7563,
1.174076,-2.1874,-0.8631,4.4936,-1.0559,-0.2582,-0.9850,-42.8625,2.0063,-8.7563,
1.176318,-2.1874,-0.8631,4.4936,-0.9761,0.0140,-0.3273,-42.8625,2.0063,-8.7563,
1.187838,-2.1874,-0.8631,4.4936,-0.9761,0.0140,-0.3273,-42.8625,2.0063,-8.7563,
1.189887,-2.1874,-0.8631,4.4936,-0.9761,0.0140,-0.3273,-43.0312,2.1938,-8.4750,
1.195776,-2.1874,-0.8631,4.4936,-0.9761,0.0140,-0.3273,-43.0312,2.1938,-8.4750,
1.197744,-2.3883,0.4418,3.8471,-0.9761,0.0140,-0.3273,-43.0312,2.1938,-8.4750,
1.219537,-2.3883,0.4418,3.8471,-0.9761,0.0140,-0.3273,-43.0312,2.1938,-8.4750,
1.232838,-2.3883,0.4418,3.8471,-1.1933,-0.6112,0.0138,-43.0312,2.1938,-8.4750,
1.241477,-2.3883,0.4418,3.8471,-1.1933,-0.6112,0.0138,-43.2000,2.3625,-8.1000,
1.244919,-2.3883,0.4418,3.8471,-1.1933,-0.6112,0.0138,-43.2000,2.3625,-8.1000,
1.254709,-2.0136,3.4804,2.2804,-1.1933,-0.6112,0.0138,-43.2000,2.3625,-8.1000,
1.257926,-2.0136,3.4804,2.2804,-1.1933,-0.6112,0.0138,-43.2000,2.3625,-8.1000,
1.293986,-2.0136,3.4804,2.2804,-1.1933,-0.6112,0.0138,-43.2000,2.3625,-8.1000,
1.314238,-0.9148,4.1154,0.2611,-1.1933,-0.6112,0.0138,-43.2000,2.3625,-8.1000,
1.317382,-0.9148,4.1154,0.2611,-1.1933,-0.6112,0.0138,-43.2000,2.3625,-8.1000,
1.318972,-0.9148,4.1154,0.2611,-1.1933,-0.6112,0.0138,-43.2000,2.3625,-8.1000,
1.320439,-0.9148,4.1154,0.2611,-1.2806,-0.3386,0.4717,-43.2000,2.3625,-8.1000,
1.326574,-0.9148,4.1154,0.2611,-1.2806,-0.3386,0.4717,-43.4813,2.5125,-7.5750,
1.362975,-0.9148,4.1154,0.2611,-1.2806,-0.3386,0.4717,-43.4813,2.5125,-7.5750,
1.379869,-0.9148,4.1154,0.2611,-1.2806,-0.3386,0.4717,-43.4813,2.5125,-7.5750,
1.382248,-0.9148,4.1154,0.2611,-1.2806,-0.3386,0.4717,-43.4813,2.5125,-7.5750,
1.384116,-0.9148,4.1154,0.2611,-1.8945,1.7739,0.1960,-43.4813,2.5125,-7.5750,
1.386171,2.3662,0.5714,-3.2382,-1.8945,1.7739,0.1960,-43.4813,2.5125,-7.5750,
1.388052,2.3662,0.5714,-3.2382,-1.8945,1.7739,0.1960,-43.5563,2.5875,-7.6688,
1.428361,2.3662,0.5714,-3.2382,-1.8945,1.7739,0.1960,-43.5563,2.5875,-7.6688,
1.431124,2.3662,0.5714,-3.2382,-1.8945,1.7739,0.1960,-43.5563,2.5875,-7.6688,
1.435348,2.3662,0.5714,-3.2382,-1.7861,-0.2514,-2.1804,-43.5563,2.5875,-7.6688,
1.438331,2.3662,0.5714,-3.2382,-1.7861,-0.2514,-2.1804,-43.5563,2.5875,-7.6688,
1.440160,0.5138,-4.3143,4.0341,-1.7861,-0.2514,-2.1804,-43.5563,2.5875,-7.6688,
1.442846,0.5138,-4.3143,4.0341,-1.7861,-0.2514,-2.1804,-43.5188,2.0438,-7.6875,
1.495631,0.5138,-4.3143,4.0341,-1.7861,-0.2514,-2.1804,-43.5188,2.0438,-7.6875,
1.498895,0.5138,-4.3143,4.0341,-1.7861,-0.2514,-2.1804,-43.5188,2.0438,-7.6875,
1.501302,4.5562,-4.1410,-3.8975,-1.7861,-0.2514,-2.1804,-43.5188,2.0438,-7.6875,
1.505029,4.5562,-4.1410,-3.8975,-1.7861,-0.2514,-2.1804,-43.5188,2.0438,-7.6875,
1.516766,4.5562,-4.1410,-3.8975,-3.3455,0.2499,-0.6694,-43.5188,2.0438,-7.6875,
1.523010,4.5562,-4.1410,-3.8975,-3.3455,0.2499,-0.6694,-43.5188,2.0438,-7.6875,
1.525281,4.5562,-4.1410,-3.8975,-3.3455,0.2499,-0.6694,-43.2938,1.2375,-7.8563,
1.550828,4.5562,-4.1410,-3.8975,-3.3455,0.2499,-0.6694,-43.2938,1.2375,-7.8563,
1.563235,-5.1981,0.1016,1.7028,-3.3455,0.2499,-0.6694,-43.2938,1.2375,-7.8563,
1.566875,-5.1981,0.1016,1.7028,-3.3455,0.2499,-0.6694,-43.2938,1.2375,-7.8563,
1.575939,-5.1981,0.1016,1.7028,-4.6188,0.1617,-1.2747,-43.2938,1.2375,-7.8563,
1.582056,-5.1981,0.1016,1.7028,-4.6188,0.1617,-1.2747,-43.2938,1.2375,-7.8563,
1.584841,-5.1981,0.1016,1.7028,-4.6188,0.1617,-1.2747,-43.0875,0.6750,-8.0063,
1.613599,-5.1981,0.1016,1.7028,-4.6188,0.1617,-1.2747,-43.0875,0.6750,-8.0063,
1.616119,-5.1981,0.1016,1.7028,-4.6188,0.1617,-1.2747,-43.0875,0.6750,-8.0063,
1.617902,0.6035,-0.2518,-1.9200,-4.6188,0.1617,-1.2747,-43.0875,0.6750,-8.0063,
1.634756,0.6035,-0.2518,-1.9200,-3.1155,0.8552,0.8639,-43.0875,0.6750,-8.0063,
1.646121,0.6035,-0.2518,-1.9200,-3.1155,0.8552,0.8639,-42.8813,0.6000,-8.2500,
1.649512,0.6035,-0.2518,-1.9200,-3.1155,0.8552,0.8639,-42.8813,0.6000,-8.2500,
1.678632,0.4625,-1.0417,-2.9555,-3.1155,0.8552,0.8639,-42.8813,0.6000,-8.2500,
1.683061,0.4625,-1.0417,-2.9555,-3.1155,0.8552,0.8639,-42.8813,0.6000,-8.2500,
1.685405,0.4625,-1.0417,-2.9555,-3.1155,0.8552,0.8639,-42.8813,0.6000,-8.2500,
1.714573,0.4625,-1.0417,-2.9555,-3.5033,0.9838,-2.0753,-42.8813,0.6000,-8.2500,
1.718380,0.4625,-1.0417,-2.9555,-3.5033,0.9838,-2.0753,-42.8813,0.6000,-8.2500,
1.728869,0.4625,-1.0417,-2.9555,-3.5033,0.9838,-2.0753,-42.8813,0.6000,-8.2500,
1.731326,0.4625,-1.0417,-2.9555,-3.5033,0.9838,-2.0753,-42.6000,0.6188,-8.6250,
1.734007,2.9115,4.5531,-14.0996,-3.5033,0.9838,-2.0753,-42.6000,0.6188,-8.6250,
1.739189,2.9115,4.5531,-14.0996,-3.5033,0.9838,-2.0753,-42.6000,0.6188,-8.6250,
1.780046,2.9115,4.5531,-14.0996,-0.8692,-1.3895,-0.3406,-42.6000,0.6188,-8.6250,
1.785568,2.9115,4.5531,-14.0996,-0.8692,-1.3895,-0.3406,-42.6000,0.6188,-8.6250,
1.788404,2.9115,4.5531,-14.0996,-0.8692,-1.3895,-0.3406,-42.2063,0.4125,-8.8875,
1.791527,2.9115,4.5531,-14.0996,-0.8692,-1.3895,-0.3406,-42.2063,0.4125,-8.8875,
1.794659,2.3774,-3.6986,-4.4481,-0.8692,-1.3895,-0.3406,-42.2063,0.4125,-8.8875,
1.797674,2.3774,-3.6986,-4.4481,-0.8692,-1.3895,-0.3406,-42.2063,0.4125,-8.8875,
1.817039,2.3774,-3.6986,-4.4481,-0.8692,-1.3895,-0.3406,-42.2063,0.4125,-8.8875,
1.838853,2.3774,-3.6986,-4.4481,-1.0037,-1.4900,-0.3218,-42.2063,0.4125,-8.8875,
1.842704,2.3774,-3.6986,-4.4481,-1.0037,-1.4900,-0.3218,-42.2063,0.4125,-8.8875,
1.844361,2.3774,-3.6986,-4.4481,-1.0037,-1.4900,-0.3218,-41.7563,0.1313,-8.7375,
1.855917,2.3774,-3.6986,-4.4481,-1.0037,-1.4900,-0.3218,-41.7563,0.1313,-8.7375,
1.858109,4.9311,-1.8931,-1.1090,-1.0037,-1.4900,-0.3218,-41.7563,0.1313,-8.7375,
1.884535,4.9311,-1.8931,-1.1090,-1.0037,-1.4900,-0.3218,-41.7563,0.1313,-8.7375,
1.915013,4.9311,-1.8931,-1.1090,0.1925,0.5436,-0.1041,-41.7563,0.1313,-8.7375,
1.918283,-2.0585,1.4064,3.6610,0.1925,0.5436,-0.1041,-41.7563,0.1313,-8.7375,
1.921328,-2.0585,1.4064,3.6610,0.1925,0.5436,-0.1041,-41.7563,0.1313,-8.7375,
1.924415,-2.0585,1.4064,3.6610,0.1925,0.5436,-0.1041,-41.7563,0.1313,-8.7375,
1.926705,-2.0585,1.4064,3.6610,0.1925,0.5436,-0.1041,-41.7563,-0.2812,-8.0625,
1.945841,-2.0585,1.4064,3.6610,0.1925,0.5436,-0.1041,-41.7563,-0.2812,-8.0625,
1.976045,-2.0585,1.4064,3.6610,0.3315,1.7681,-0.4968,-41.7563,-0.2812,-8.0625,
1.979649,-3.0950,0.0274,3.5916,0.3315,1.7681,-0.4968,-41.7563,-0.2812,-8.0625,
1.982686,-3.0950,0.0274,3.5916,0.3315,1.7681,-0.4968,-41.7563,-0.2812,-8.0625,
1.984912,-3.0950,0.0274,3.5916,0.3315,1.7681,-0.4968,-41.7563,-0.2812,-8.0625,
1.986824,-3.0950,0.0274,3.5916,0.3315,1.7681,-0.4968,-41.7938,-0.4875,-7.8938,
2.016519,-3.0950,0.0274,3.5916,0.3315,1.7681,-0.4968,-41.7938,-0.4875,-7.8938,
2.018527,-3.0950,0.0274,3.5916,0.3315,1.7681,-0.4968,-41.7938,-0.4875,-7.8938,
2.035980,-3.0950,0.0274,3.5916,0.3315,1.7681,-0.4968,-41.7938,-0.4875,-7.8938,
2.038282,-1.8957,4.6538,-5.1870,0.3315,1.7681,-0.4968,-41.7938,-0.4875,-7.8938,
2.040611,-1.8957,4.6538,-5.1870,-0.1265,0.4771,-0.4115,-41.7938,-0.4875,-7.8938,
2.042897,-1.8957,4.6538,-5.1870,-0.1265,0.4771,-0.4115,-41.9062,-0.5250,-7.7813,
2.084691,-1.8957,4.6538,-5.1870,-0.1265,0.4771,-0.4115,-41.9062,-0.5250,-7.7813,
2.087715,-1.8957,4.6538,-5.1870,-0.1265,0.4771,-0.4115,-41.9062,-0.5250,-7.7813,
2.094343,-1.8957,4.6538,-5.1870,-0.1265,0.4771,-0.4115,-41.9062,-0.5250,-7.7813,
2.097163,2.1458,1.4871,-1.3318,-0.1265,0.4771,-0.4115,-41.9062,-0.5250,-7.7813,
2.114403,2.1458,1.4871,-1.3318,-0.4247,-1.0258,-0.1410,-41.9062,-0.5250,-7.7813,
2.123263,2.1458,1.4871,-1.3318,-0.4247,-1.0258,-0.1410,-41.9062,-0.5250,-7.7813,
2.126279,2.1458,1.4871,-1.3318,-0.4247,-1.0258,-0.1410,-41.9438,-0.8063,-7.6688,
2.150559,2.1458,1.4871,-1.3318,-0.4247,-1.0258,-0.1410,-41.9438,-0.8063,-7.6688,
2.157762,1.8977,3.4310,-0.9840,-0.4247,-1.0258,-0.1410,-41.9438,-0.8063,-7.6688,
2.161369,1.8977,3.4310,-0.9840,-0.4247,-1.0258,-0.1410,-41.9438,-0.8063,-7.6688,
2.174635,1.8977,3.4310,-0.9840,0.4132,-0.3896,0.1965,-41.9438,-0.8063,-7.6688,
2.181926,1.8977,3.4310,-0.9840,0.4132,-0.3896,0.1965,-42.0188,-1.2000,-7.1063,
2.185147,1.8977,3.4310,-0.9840,0.4132,-0.3896,0.1965,-42.0188,-1.2000,-7.1063,
2.214492,1.8977,3.4310,-0.9840,0.4132,-0.3896,0.1965,-42.0188,-1.2000,-7.1063,
2.217093,1.8977,3.4310,-0.9840,0.4132,-0.3896,0.1965,-42.0188,-1.2000,-7.1063,
2.218544,-0.9063,2.0796,-0.6643,0.4132,-0.3896,0.1965,-42.0188,-1.2000,-7.1063,
2.233987,-0.9063,2.0796,-0.6643,1.9400,0.2805,0.0142,-42.0188,-1.2000,-7.1063,
2.244189,-0.9063,2.0796,-0.6643,1.9400,0.2805,0.0142,-42.0188,-1.2000,-7.1063,
2.247430,-0.9063,2.0796,-0.6643,1.9400,0.2805,0.0142,-42.2625,-1.5938,-6.6000,
2.277155,-2.1712,1.7489,0.4930,1.9400,0.2805,0.0142,-42.2625,-1.5938,-6.6000,
2.280371,-2.1712,1.7489,0.4930,1.9400,0.2805,0.0142,-42.2625,-1.5938,-6.6000,
2.282215,-2.1712,1.7489,0.4930,1.9400,0.2805,0.0142,-42.2625,-1.5938,-6.6000,
2.316761,-2.1712,1.7489,0.4930,1.9400,0.2805,0.0142,-42.2625,-1.5938,-6.6000,
2.320097,-2.1712,1.7489,0.4930,1.7618,-0.0486,0.0639,-42.2625,-1.5938,-6.6000,
2.323479,-2.1712,1.7489,0.4930,1.7618,-0.0486,0.0639,-42.2625,-1.5938,-6.6000,
2.325452,-2.1712,1.7489,0.4930,1.7618,-0.0486,0.0639,-42.5250,-2.0625,-6.1875,
2.345696,-2.1712,1.7489,0.4930,1.7618,-0.0486,0.0639,-42.5250,-2.0625,-6.1875,
2.348224,0.9225,2.3599,-3.2631,1.7618,-0.0486,0.0639,-42.5250,-2.0625,-6.1875,
2.377825,0.9225,2.3599,-3.2631,3.9053,0.1932,0.5461,-42.5250,-2.0625,-6.1875,
2.381163,0.9225,2.3599,-3.2631,3.9053,0.1932,0.5461,-42.5250,-2.0625,-6.1875,
2.383376,0.9225,2.3599,-3.2631,3.9053,0.1932,0.5461,-42.5250,-2.0625,-6.1875,
2.384993,0.9225,2.3599,-3.2631,3.9053,0.1932,0.5461,-42.6000,-2.6438,-6.3938,
2.394550,0.9225,2.3599,-3.2631,3.9053,0.1932,0.5461,-42.6000,-2.6438,-6.3938,
2.396660,1.5337,1.2580,-4.1108,3.9053,0.1932,0.5461,-42.6000,-2.6438,-6.3938,
2.417264,1.5337,1.2580,-4.1108,3.9053,0.1932,0.5461,-42.6000,-2.6438,-6.3938,
2.434036,1.5337,1.2580,-4.1108,4.1499,1.0362,2.3733,-42.6000,-2.6438,-6.3938,
2.445998,1.5337,1.2580,-4.1108,4.1499,1.0362,2.3733,-42.6000,-2.6438,-6.3938,
2.448255,1.5337,1.2580,-4.1108,4.1499,1.0362,2.3733,-42.4875,-2.8500,-6.8625,
2.460360,1.3661,4.4601,-4.2536,4.1499,1.0362,2.3733,-42.4875,-2.8500,-6.8625,
2.464005,1.3661,4.4601,-4.2536,4.1499,1.0362,2.3733,-42.4875,-2.8500,-6.8625,
2.494415,1.3661,4.4601,-4.2536,4.1499,1.0362,2.3733,-42.4875,-2.8500,-6.8625,
2.515965,1.3661,4.4601,-4.2536,4.1499,1.0362,2.3733,-42.4875,-2.8500,-6.8625,
2.518263,1.3661,4.4601,-4.2536,4.1499,1.0362,2.3733,-42.4875,-2.8500,-6.8625,
2.519825,1.3661,4.4601,-4.2536,4.1859,1.2927,2.1412,-42.4875,-2.8500,-6.8625,
2.522051,1.2229,0.9716,-2.9612,4.1859,1.2927,2.1412,-42.4875,-2.8500,-6.8625,
2.524847,1.2229,0.9716,-2.9612,4.1859,1.2927,2.1412,-42.2812,-2.5500,-7.2000,
2.561687,1.2229,0.9716,-2.9612,4.1859,1.2927,2.1412,-42.2812,-2.5500,-7.2000,
2.578870,0.5378,-0.7162,-1.9113,4.1859,1.2927,2.1412,-42.2812,-2.5500,-7.2000,
2.582646,0.5378,-0.7162,-1.9113,4.4596,-0.7119,0.1901,-42.2812,-2.5500,-7.2000,
2.585540,0.5378,-0.7162,-1.9113,4.4596,-0.7119,0.1901,-42.2812,-2.5500,-7.2000,
2.587669,0.5378,-0.7162,-1.9113,4.4596,-0.7119,0.1901,-42.2812,-2.5500,-7.2000,
2.589554,0.5378,-0.7162,-1.9113,4.4596,-0.7119,0.1901,-42.1875,-2.4563,-7.3875,
2.616400,0.5378,-0.7162,-1.9113,4.4596,-0.7119,0.1901,-42.1875,-2.4563,-7.3875,
2.618329,0.5378,-0.7162,-1.9113,4.4596,-0.7119,0.1901,-42.1875,-2.4563,-7.3875,
2.644610,0.5378,-0.7162,-1.9113,2.8775,-1.9155,-1.8205,-42.1875,-2.4563,-7.3875,
2.647528,0.5760,-1.7732,-2.4427,2.8775,-1.9155,-1.8205,-42.1875,-2.4563,-7.3875,
2.649542,0.5760,-1.7732,-2.4427,2.8775,-1.9155,-1.8205,-42.1875,-2.4563,-7.3875,
2.651204,0.5760,-1.7732,-2.4427,2.8775,-1.9155,-1.8205,-42.1500,-2.9625,-7.0125,
2.683874,0.5760,-1.7732,-2.4427,2.8775,-1.9155,-1.8205,-42.1500,-2.9625,-7.0125,
2.686170,0.5760,-1.7732,-2.4427,2.8775,-1.9155,-1.8205,-42.1500,-2.9625,-7.0125,
2.694103,-0.1800,-0.7637,0.4034,2.8775,-1.9155,-1.8205,-42.1500,-2.9625,-7.0125,
2.697454,-0.1800,-0.7637,0.4034,2.8775,-1.9155,-1.8205,-42.1500,-2.9625,-7.0125,
2.714409,-0.1800,-0.7637,0.4034,1.1728,1.2225,0.8412,-42.1500,-2.9625,-7.0125,
2.726263,-0.1800,-0.7637,0.4034,1.1728,1.2225,0.8412,-42.1500,-2.9625,-7.0125,
2.728493,-0.1800,-0.7637,0.4034,1.1728,1.2225,0.8412,-42.0000,-3.8250,-6.9750,
2.760301,-0.1800,-0.7637,0.4034,1.1728,1.2225,0.8412,-42.0000,-3.8250,-6.9750,
2.762825,-0.1800,-0.7637,0.4034,1.1728,1.2225,0.8412,-42.0000,-3.8250,-6.9750,
2.764738,-0.9732,0.5299,-1.3899,1.1728,1.2225,0.8412,-42.0000,-3.8250,-6.9750,
2.776610,-0.9732,0.5299,-1.3899,0.1091,1.5041,1.2315,-42.0000,-3.8250,-6.9750,
2.783581,-0.9732,0.5299,-1.3899,0.1091,1.5041,1.2315,-41.8500,-4.2188,-7.3313,
2.786745,-0.9732,0.5299,-1.3899,0.1091,1.5041,1.2315,-41.8500,-4.2188,-7.3313,
2.830315,-0.9732,0.5299,-1.3899,0.1091,1.5041,1.2315,-41.8500,-4.2188,-7.3313,
2.833619,-0.9732,0.5299,-1.3899,0.1091,1.5041,1.2315,-41.8500,-4.2188,-7.3313,
2.835700,-0.5259,-1.8563,-1.6575,0.1091,1.5041,1.2315,-41.8500,-4.2188,-7.3313,
2.838712,-0.5259,-1.8563,-1.6575,0.0639,-0.4167,1.6022,-41.8500,-4.2188,-7.3313,
2.846922,-0.5259,-1.8563,-1.6575,0.0639,-0.4167,1.6022,-41.8500,-4.2188,-7.3313,
2.849645,-0.5259,-1.8563,-1.6575,0.0639,-0.4167,1.6022,-41.5688,-3.9375,-8.0438,
2.879046,1.8103,-3.6675,1.1552,0.0639,-0.4167,1.6022,-41.5688,-3.9375,-8.0438,
2.882916,1.8103,-3.6675,1.1552,0.0639,-0.4167,1.6022,-41.5688,-3.9375,-8.0438,
2.885628,1.8103,-3.6675,1.1552,0.0639,-0.4167,1.6022,-41.5688,-3.9375,-8.0438,
2.916173,1.8103,-3.6675,1.1552,0.0639,-0.4167,1.6022,-41.5688,-3.9375,-8.0438,
2.919345,1.8103,-3.6675,1.1552,0.1479,0.3859,0.4741,-41.5688,-3.9375,-8.0438,
2.928975,1.8103,-3.6675,1.1552,0.1479,0.3859,0.4741,-41.6625,-3.2438,-8.6063,
2.932581,1.8103,-3.6675,1.1552,0.1479,0.3859,0.4741,-41.6625,-3.2438,-8.6063,
2.934832,4.5203,-0.2508,-3.1832,0.1479,0.3859,0.4741,-41.6625,-3.2438,-8.6063,
2.937795,4.5203,-0.2508,-3.1832,0.1479,0.3859,0.4741,-41.6625,-3.2438,-8.6063,
2.983464,4.5203,-0.2508,-3.1832,0.1164,-0.6031,-0.2944,-41.6625,-3.2438,-8.6063,
2.986503,4.5203,-0.2508,-3.1832,0.1164,-0.6031,-0.2944,-41.6625,-3.2438,-8.6063,
2.988173,4.5203,-0.2508,-3.1832,0.1164,-0.6031,-0.2944,-41.6625,-3.2438,-8.6063,
2.990012,4.5203,-0.2508,-3.1832,0.1164,-0.6031,-0.2944,-41.5875,-3.1688,-9.0188,
3.006737,4.5203,-0.2508,-3.1832,0.1164,-0.6031,-0.2944,-41.5875,-3.1688,-9.0188,
3.009574,-0.2303,-0.3144,0.3678,0.1164,-0.6031,-0.2944,-41.5875,-3.1688,-9.0188,
3.018388,-0.2303,-0.3144,0.3678,0.1164,-0.6031,-0.2944,-41.5875,-3.1688,-9.0188,
3.034230,-0.2303,-0.3144,0.3678,0.3654,-0.4952,-0.2701,-41.5875,-3.1688,-9.0188,
3.036493,-0.2303,-0.3144,0.3678,0.3654,-0.4952,-0.2701,-41.5875,-3.1688,-9.0188,
3.043397,-0.2303,-0.3144,0.3678,0.3654,-0.4952,-0.2701,-41.5688,-3.7125,-8.8125,
3.061037,-0.2303,-0.3144,0.3678,0.3654,-0.4952,-0.2701,-41.5688,-3.7125,-8.8125,
3.062115,-0.3566,0.3459,-2.2850,0.3654,-0.4952,-0.2701,-41.5688,-3.7125,-8.8125,
3.084609,-0.3566,0.3459,-2.2850,0.3654,-0.4952,-0.2701,-41.5688,-3.7125,-8.8125,
3.117267,-0.3566,0.3459,-2.2850,0.4311,-0.6780,-0.2728,-41.5688,-3.7125,-8.8125,
3.119066,-0.3566,0.3459,-2.2850,0.4311,-0.6780,-0.2728,-41.5688,-3.7125,-8.8125,
3.120149,-1.0461,1.3053,-1.9939,0.4311,-0.6780,-0.2728,-41.5688,-3.7125,-8.8125,
3.121626,-1.0461,1.3053,-1.9939,0.4311,-0.6780,-0.2728,-41.5688,-3.7125,-8.8125,
3.122810,-1.0461,1.3053,-1.9939,0.4311,-0.6780,-0.2728,-41.7375,-3.9750,-8.2500,
3.151152,-1.0461,1.3053,-1.9939,0.4311,-0.6780,-0.2728,-41.7375,-3.9750,-8.2500,
3.186427,-0.6212,-0.0876,-2.6144,0.4311,-0.6780,-0.2728,-41.7375,-3.9750,-8.2500,
3.190376,-0.6212,-0.0876,-2.6144,0.2422,0.2526,-0.4943,-41.7375,-3.9750,-8.2500,
3.193047,-0.6212,-0.0876,-2.6144,0.2422,0.2526,-0.4943,-41.7375,-3.9750,-8.2500,
3.195530,-0.6212,-0.0876,-2.6144,0.2422,0.2526,-0.4943,-41.7375,-3.9750,-8.2500,
3.197368,-0.6212,-0.0876,-2.6144,0.2422,0.2526,-0.4943,-41.8688,-3.6750,-8.4188,
3.216650,-0.6212,-0.0876,-2.6144,0.2422,0.2526,-0.4943,-41.8688,-3.6750,-8.4188,
3.218886,-0.6212,-0.0876,-2.6144,0.2422,0.2526,-0.4943,-41.8688,-3.6750,-8.4188,
3.236825,-0.6212,-0.0876,-2.6144,0.6764,1.8028,0.0180,-41.8688,-3.6750,-8.4188,
3.240085,-0.6212,-0.0876,-2.6144,0.6764,1.8028,0.0180,-41.8688,-3.6750,-8.4188,
3.241820,-0.7699,-0.0312,-1.7984,0.6764,1.8028,0.0180,-41.8688,-3.6750,-8.4188,
3.244418,-0.7699,-0.0312,-1.7984,0.6764,1.8028,0.0180,-41.9625,-3.2250,-8.8875,
3.257555,-0.7699,-0.0312,-1.7984,0.6764,1.8028,0.0180,-41.9625,-3.2250,-8.8875,
3.286463,-0.7699,-0.0312,-1.7984,0.6764,1.8028,0.0180,-41.9625,-3.2250,-8.8875,
3.296701,-0.7699,-0.0312,-1.7984,0.6764,1.8028,0.0180,-41.9625,-3.2250,-8.8875,
3.299530,-0.3673,-0.0976,-2.1763,0.6764,1.8028,0.0180,-41.9625,-3.2250,-8.8875,
3.315758,-0.3673,-0.0976,-2.1763,0.6210,1.7235,1.1007,-41.9625,-3.2250,-8.8875,
3.324260,-0.3673,-0.0976,-2.1763,0.6210,1.7235,1.1007,-41.9625,-3.2250,-8.8875,
3.326726,-0.3673,-0.0976,-2.1763,0.6210,1.7235,1.1007,-41.8125,-2.9625,-9.7688,
3.350972,-0.3673,-0.0976,-2.1763,0.6210,1.7235,1.1007,-41.8125,-2.9625,-9.7688,
3.358874,-0.3673,-0.0976,-2.1763,0.6210,1.7235,1.1007,-41.8125,-2.9625,-9.7688,
3.361770,-1.2760,-0.8612,0.8425,0.6210,1.7235,1.1007,-41.8125,-2.9625,-9.7688,
3.374747,-1.2760,-0.8612,0.8425,0.3308,-0.2739,0.6095,-41.8125,-2.9625,-9.7688,
3.387825,-1.2760,-0.8612,0.8425,0.3308,-0.2739,0.6095,-41.8125,-2.9625,-9.7688,
3.389902,-1.2760,-0.8612,0.8425,0.3308,-0.2739,0.6095,-41.8500,-3.0750,-10.2188,
3.416046,-1.2760,-0.8612,0.8425,0.3308,-0.2739,0.6095,-41.8500,-3.0750,-10.2188,
3.418419,-1.2760,-0.8612,0.8425,0.3308,-0.2739,0.6095,-41.8500,-3.0750,-10.2188,
3.419928,1.2220,0.7164,-0.3533,0.3308,-0.2739,0.6095,-41.8500,-3.0750,-10.2188,
3.437548,1.2220,0.7164,-0.3533,1.1368,0.1661,1.0036,-41.8500,-3.0750,-10.2188,
3.441337,1.2220,0.7164,-0.3533,1.1368,0.1661,1.0036,-41.8500,-3.0750,-10.2188,
3.443677,1.2220,0.7164,-0.3533,1.1368,0.1661,1.0036,-41.4563,-3.4500,-10.8938,
3.466540,1.2220,0.7164,-0.3533,1.1368,0.1661,1.0036,-41.4563,-3.4500,-10.8938,
3.477738,0.6008,0.2946,1.3698,1.1368,0.1661,1.0036,-41.4563,-3.4500,-10.8938,
3.480984,0.6008,0.2946,1.3698,1.1368,0.1661,1.0036,-41.4563,-3.4500,-10.8938,
3.514852,0.6008,0.2946,1.3698,1.2235,-0.5705,-0.0768,-41.4563,-3.4500,-10.8938,
3.518678,0.6008,0.2946,1.3698,1.2235,-0.5705,-0.0768,-41.4563,-3.4500,-10.8938,
3.522015,0.6008,0.2946,1.3698,1.2235,-0.5705,-0.0768,-41.3625,-3.5063,-11.2125,
3.524594,0.6008,0.2946,1.3698,1.2235,-0.5705,-0.0768,-41.3625,-3.5063,-11.2125,
3.538409,0.6008,0.2946,1.3698,1.2235,-0.5705,-0.0768,-41.3625,-3.5063,-11.2125,
3.541824,3.3290,-0.6835,-1.9915,1.2235,-0.5705,-0.0768,-41.3625,-3.5063,-11.2125,
3.575805,3.3290,-0.6835,-1.9915,1.5092,0.8729,0.1654,-41.3625,-3.5063,-11.2125,
3.579417,3.3290,-0.6835,-1.9915,1.5092,0.8729,0.1654,-41.3625,-3.5063,-11.2125,
3.583429,3.3290,-0.6835,-1.9915,1.5092,0.8729,0.1654,-41.2875,-3.6375,-12.0000,
3.586542,3.3290,-0.6835,-1.9915,1.5092,0.8729,0.1654,-41.2875,-3.6375,-12.0000,
3.596142,1.4801,-1.2769,-2.6041,1.5092,0.8729,0.1654,-41.2875,-3.6375,-12.0000,
3.601534,1.4801,-1.2769,-2.6041,1.5092,0.8729,0.1654,-41.2875,-3.6375,-12.0000,
3.617967,1.4801,-1.2769,-2.6041,1.5092,0.8729,0.1654,-41.2875,-3.6375,-12.0000,
3.639573,1.4801,-1.2769,-2.6041,1.8279,0.1190,0.0616,-41.2875,-3.6375,-12.0000,
3.645446,1.4801,-1.2769,-2.6041,1.8279,0.1190,0.0616,-40.8750,-4.0312,-13.2188,
3.649035,1.4801,-1.2769,-2.6041,1.8279,0.1190,0.0616,-40.8750,-4.0312,-13.2188,
3.656540,0.4101,-1.2522,-1.2976,1.8279,0.1190,0.0616,-40.8750,-4.0312,-13.2188,
3.660947,0.4101,-1.2522,-1.2976,1.8279,0.1190,0.0616,-40.8750,-4.0312,-13.2188,
3.684579,0.4101,-1.2522,-1.2976,1.8279,0.1190,0.0616,-40.8750,-4.0312,-13.2188,
3.716192,0.4101,-1.2522,-1.2976,1.8279,0.1190,0.0616,-40.8750,-4.0312,-13.2188,
3.721343,0.4101,-1.2522,-1.2976,1.8279,0.1190,0.0616,-40.8750,-4.0312,-13.2188,
3.724555,0.4101,-1.2522,-1.2976,1.0611,-0.7268,0.3732,-40.8750,-4.0312,-13.2188,
3.727539,-0.8797,0.3454,-0.8890,1.0611,-0.7268,0.3732,-40.8750,-4.0312,-13.2188,
3.730735,-0.8797,0.3454,-0.8890,1.0611,-0.7268,0.3732,-40.5938,-4.2188,-14.1563,
3.751054,-0.8797,0.3454,-0.8890,1.0611,-0.7268,0.3732,-40.5938,-4.2188,-14.1563,
3.772113,-0.8797,0.3454,-0.8890,1.0611,-0.7268,0.3732,-40.5938,-4.2188,-14.1563,
3.776029,-0.8797,0.3454,-0.8890,1.0894,-0.6409,0.2540,-40.5938,-4.2188,-14.1563,
3.779538,-0.8797,0.3454,-0.8890,1.0894,-0.6409,0.2540,-40.5938,-4.2188,-14.1563,
3.781876,-1.5507,-2.6995,2.8164,1.0894,-0.6409,0.2540,-40.5938,-4.2188,-14.1563,
3.785185,-1.5507,-2.6995,2.8164,1.0894,-0.6409,0.2540,-40.5375,-4.5563,-14.4750,
3.818692,-1.5507,-2.6995,2.8164,1.0894,-0.6409,0.2540,-40.5375,-4.5563,-14.4750,
3.822911,-1.5507,-2.6995,2.8164,1.0894,-0.6409,0.2540,-40.5375,-4.5563,-14.4750,
3.838993,-1.5507,-2.6995,2.8164,1.7503,-0.2430,0.4082,-40.5375,-4.5563,-14.4750,
3.843761,-1.5507,-2.6995,2.8164,1.7503,-0.2430,0.4082,-40.5375,-4.5563,-14.4750,
3.846344,-2.1569,-4.1946,7.2040,1.7503,-0.2430,0.4082,-40.5375,-4.5563,-14.4750,
3.849690,-2.1569,-4.1946,7.2040,1.7503,-0.2430,0.4082,-40.7250,-5.0438,-13.6500,
3.873423,-2.1569,-4.1946,7.2040,1.7503,-0.2430,0.4082,-40.7250,-5.0438,-13.6500,
3.888282,-2.1569,-4.1946,7.2040,1.7503,-0.2430,0.4082,-40.7250,-5.0438,-13.6500,
3.896229,1.6367,-2.1921,2.8258,1.7503,-0.2430,0.4082,-40.7250,-5.0438,-13.6500,
3.900547,1.6367,-2.1921,2.8258,1.7503,-0.2430,0.4082,-40.7250,-5.0438,-13.6500,
3.916615,1.6367,-2.1921,2.8258,0.0705,0.1494,-0.5747,-40.7250,-5.0438,-13.6500,
3.921574,1.6367,-2.1921,2.8258,0.0705,0.1494,-0.5747,-40.7250,-5.0438,-13.6500,
3.924476,1.6367,-2.1921,2.8258,0.0705,0.1494,-0.5747,-40.9500,-5.6438,-13.0313,
3.950809,1.6367,-2.1921,2.8258,0.0705,0.1494,-0.5747,-40.9500,-5.6438,-13.0313,
3.957995,-0.8854,0.3411,0.7066,0.0705,0.1494,-0.5747,-40.9500,-5.6438,-13.0313,
3.961439,-0.8854,0.3411,0.7066,0.0705,0.1494,-0.5747,-40.9500,-5.6438,-13.0313,
3.975326,-0.8854,0.3411,0.7066,-0.2998,-0.9301,-0.0607,-40.9500,-5.6438,-13.0313,
3.981886,-0.8854,0.3411,0.7066,-0.2998,-0.9301,-0.0607,-40.9500,-5.6438,-13.0313,
3.984671,-0.8854,0.3411,0.7066,-0.2998,-0.9301,-0.0607,-41.2875,-6.4688,-12.3000,
4.017147,-0.8854,0.3411,0.7066,-0.2998,-0.9301,-0.0607,-41.2875,-6.4688,-12.3000,
4.021291,-0.8854,0.3411,0.7066,-0.2998,-0.9301,-0.0607,-41.2875,-6.4688,-12.3000,
4.024158,-0.0854,2.8311,0.9635,-0.2998,-0.9301,-0.0607,-41.2875,-6.4688,-12.3000,
4.038246,-0.0854,2.8311,0.9635,0.0297,0.5062,-0.1930,-41.2875,-6.4688,-12.3000,
4.042062,-0.0854,2.8311,0.9635,0.0297,0.5062,-0.1930,-41.2875,-6.4688,-12.3000,
4.045100,-0.0854,2.8311,0.9635,0.0297,0.5062,-0.1930,-41.4750,-7.3875,-11.7938,
4.077848,-0.0854,2.8311,0.9635,0.0297,0.5062,-0.1930,-41.4750,-7.3875,-11.7938,
4.082157,-0.0854,2.8311,0.9635,0.0297,0.5062,-0.1930,-41.4750,-7.3875,-11.7938,
4.085346,0.9079,1.5705,0.9224,0.0297,0.5062,-0.1930,-41.4750,-7.3875,-11.7938,
4.118072,0.9079,1.5705,0.9224,0.0297,0.5062,-0.1930,-41.4750,-7.3875,-11.7938,
4.122089,0.9079,1.5705,0.9224,0.0513,0.1320,-0.1900,-41.4750,-7.3875,-11.7938,
4.126309,0.9079,1.5705,0.9224,0.0513,0.1320,-0.1900,-41.7563,-7.9875,-11.1000,
4.129374,0.9079,1.5705,0.9224,0.0513,0.1320,-0.1900,-41.7563,-7.9875,-11.1000,
4.139275,-0.0231,0.6897,-2.1149,0.0513,0.1320,-0.1900,-41.7563,-7.9875,-11.1000,
4.144222,-0.0231,0.6897,-2.1149,0.0513,0.1320,-0.1900,-41.7563,-7.9875,-11.1000,
4.175522,-0.0231,0.6897,-2.1149,-0.4417,-0.0354,-0.1945,-41.7563,-7.9875,-11.1000,
4.179257,-0.0231,0.6897,-2.1149,-0.4417,-0.0354,-0.1945,-41.7563,-7.9875,-11.1000,
4.183234,-0.0231,0.6897,-2.1149,-0.4417,-0.0354,-0.1945,-41.7563,-7.9875,-11.1000,
4.186023,-0.0231,0.6897,-2.1149,-0.4417,-0.0354,-0.1945,-42.0938,-8.3625,-10.4813,
4.196700,-0.0231,0.6897,-2.1149,-0.4417,-0.0354,-0.1945,-42.0938,-8.3625,-10.4813,
4.200118,0.1194,-1.3698,-0.1281,-0.4417,-0.0354,-0.1945,-42.0938,-8.3625,-10.4813,
4.217181,0.1194,-1.3698,-0.1281,-0.4417,-0.0354,-0.1945,-42.0938,-8.3625,-10.4813,
4.238252,0.1194,-1.3698,-0.1281,-0.3169,0.6102,-0.3023,-42.0938,-8.3625,-10.4813,
4.243213,0.1194,-1.3698,-0.1281,-0.3169,0.6102,-0.3023,-42.3188,-8.7188,-10.2188,
4.246723,0.1194,-1.3698,-0.1281,-0.3169,0.6102,-0.3023,-42.3188,-8.7188,-10.2188,
4.259931,0.1194,-1.3698,-0.1281,-0.3169,0.6102,-0.3023,-42.3188,-8.7188,-10.2188,
4.264002,0.9202,0.2132,-1.3173,-0.3169,0.6102,-0.3023,-42.3188,-8.7188,-10.2188,
4.283793,0.9202,0.2132,-1.3173,-0.3169,0.6102,-0.3023,-42.3188,-8.7188,-10.2188,
4.317673,0.9202,0.2132,-1.3173,-0.9163,1.1941,0.1436,-42.3188,-8.7188,-10.2188,
4.322762,0.5056,1.5817,-1.6679,-0.9163,1.1941,0.1436,-42.3188,-8.7188,-10.2188,
4.326441,0.5056,1.5817,-1.6679,-0.9163,1.1941,0.1436,-42.3188,-8.7188,-10.2188,
4.329135,0.5056,1.5817,-1.6679,-0.9163,1.1941,0.1436,-42.3188,-8.7188,-10.2188,
4.331475,0.5056,1.5817,-1.6679,-0.9163,1.1941,0.1436,-42.0938,-8.5125,-10.8000,
4.351757,0.5056,1.5817,-1.6679,-0.9163,1.1941,0.1436,-42.0938,-8.5125,-10.8000,
4.377021,0.5056,1.5817,-1.6679,-0.9163,1.1941,0.1436,-42.0938,-8.5125,-10.8000,
4.381012,0.5056,1.5817,-1.6679,-0.9163,1.1941,0.1436,-42.0938,-8.5125,-10.8000,
4.383939,0.5056,1.5817,-1.6679,-0.7987,-0.0012,-0.2278,-42.0938,-8.5125,-10.8000,
4.387281,0.2433,1.5358,0.0962,-0.7987,-0.0012,-0.2278,-42.0938,-8.5125,-10.8000,
4.390611,0.2433,1.5358,0.0962,-0.7987,-0.0012,-0.2278,-41.7938,-8.3063,-11.6063,
4.418011,0.2433,1.5358,0.0962,-0.7987,-0.0012,-0.2278,-41.7938,-8.3063,-11.6063,
4.421910,0.2433,1.5358,0.0962,-0.7987,-0.0012,-0.2278,-41.7938,-8.3063,-11.6063,
4.440393,0.2433,1.5358,0.0962,0.0076,0.1154,0.1818,-41.7938,-8.3063,-11.6063,
4.445646,0.2433,1.5358,0.0962,0.0076,0.1154,0.1818,-41.7938,-8.3063,-11.6063,
4.448224,-0.2459,0.9939,0.4307,0.0076,0.1154,0.1818,-41.7938,-8.3063,-11.6063,
4.451262,-0.2459,0.9939,0.4307,0.0076,0.1154,0.1818,-41.4000,-8.0625,-12.4313,
4.484389,-0.2459,0.9939,0.4307,0.0076,0.1154,0.1818,-41.4000,-8.0625,-12.4313,
4.487223,-0.2459,0.9939,0.4307,0.0076,0.1154,0.1818,-41.4000,-8.0625,-12.4313,
4.495372,-0.2459,0.9939,0.4307,0.0076,0.1154,0.1818,-41.4000,-8.0625,-12.4313,
4.497446,-0.4059,2.2849,-0.5866,0.0076,0.1154,0.1818,-41.4000,-8.0625,-12.4313,
4.515289,-0.4059,2.2849,-0.5866,-0.1686,-0.3776,-0.2011,-41.4000,-8.0625,-12.4313,
4.524031,-0.4059,2.2849,-0.5866,-0.1686,-0.3776,-0.2011,-41.4000,-8.0625,-12.4313,
4.526393,-0.4059,2.2849,-0.5866,-0.1686,-0.3776,-0.2011,-41.1000,-7.5375,-13.4063,
4.550839,-0.4059,2.2849,-0.5866,-0.1686,-0.3776,-0.2011,-41.1000,-7.5375,-13.4063,
4.556806,-0.4059,2.2849,-0.5866,-0.1686,-0.3776,-0.2011,-41.1000,-7.5375,-13.4063,
4.559162,0.2181,2.4758,-1.2328,-0.1686,-0.3776,-0.2011,-41.1000,-7.5375,-13.4063,
4.576778,0.2181,2.4758,-1.2328,-0.3016,-0.0427,-0.1827,-41.1000,-7.5375,-13.4063,
4.581092,0.2181,2.4758,-1.2328,-0.3016,-0.0427,-0.1827,-40.8938,-7.1438,-14.3625,
4.584245,0.2181,2.4758,-1.2328,-0.3016,-0.0427,-0.1827,-40.8938,-7.1438,-14.3625,
4.620440,-0.4732,1.9835,0.0112,-0.3016,-0.0427,-0.1827,-40.8938,-7.1438,-14.3625,
4.626437,-0.4732,1.9835,0.0112,-0.3016,-0.0427,-0.1827,-40.8938,-7.1438,-14.3625,
4.629077,-0.4732,1.9835,0.0112,-0.3016,-0.0427,-0.1827,-40.8938,-7.1438,-14.3625,
4.638592,-0.4732,1.9835,0.0112,-0.2433,-0.3449,-0.7949,-40.8938,-7.1438,-14.3625,
4.644049,-0.4732,1.9835,0.0112,-0.2433,-0.3449,-0.7949,-40.6500,-6.9563,-15.1313,
4.646856,-0.4732,1.9835,0.0112,-0.2433,-0.3449,-0.7949,-40.6500,-6.9563,-15.1313,
4.677332,-0.4732,1.9835,0.0112,-0.2433,-0.3449,-0.7949,-40.6500,-6.9563,-15.1313,
4.680795,-0.4732,1.9835,0.0112,-0.2433,-0.3449,-0.7949,-40.6500,-6.9563,-15.1313,
4.683141,-1.1565,0.4270,1.3197,-0.2433,-0.3449,-0.7949,-40.6500,-6.9563,-15.1313,
4.717380,-1.1565,0.4270,1.3197,-0.2433,-0.3449,-0.7949,-40.6500,-6.9563,-15.1313,
4.721848,-1.1565,0.4270,1.3197,0.1701,0.2637,-0.6569,-40.6500,-6.9563,-15.1313,
4.725585,-1.1565,0.4270,1.3197,0.1701,0.2637,-0.6569,-40.4062,-6.8438,-15.7313,
4.728440,-1.1565,0.4270,1.3197,0.1701,0.2637,-0.6569,-40.4062,-6.8438,-15.7313,
4.738512,0.5886,-0.3919,0.4166,0.1701,0.2637,-0.6569,-40.4062,-6.8438,-15.7313,
4.744603,0.5886,-0.3919,0.4166,0.1701,0.2637,-0.6569,-40.4062,-6.8438,-15.7313,
4.777890,0.5886,-0.3919,0.4166,0.3118,0.1703,-0.2358,-40.4062,-6.8438,-15.7313,
4.782652,0.5886,-0.3919,0.4166,0.3118,0.1703,-0.2358,-40.4062,-6.8438,-15.7313,
4.784839,0.5886,-0.3919,0.4166,0.3118,0.1703,-0.2358,-40.0312,-6.9563,-16.2750,
4.786569,0.5886,-0.3919,0.4166,0.3118,0.1703,-0.2358,-40.0312,-6.9563,-16.2750,
4.798586,-0.5919,-0.0394,-1.1513,0.3118,0.1703,-0.2358,-40.0312,-6.9563,-16.2750,
4.803784,-0.5919,-0.0394,-1.1513,0.3118,0.1703,-0.2358,-40.0312,-6.9563,-16.2750,
4.816700,-0.5919,-0.0394,-1.1513,0.3118,0.1703,-0.2358,-40.0312,-6.9563,-16.2750,
4.835938,-0.5919,-0.0394,-1.1513,0.7994,-0.4446,-0.2300,-40.0312,-6.9563,-16.2750,
4.844187,-0.5919,-0.0394,-1.1513,0.7994,-0.4446,-0.2300,-40.0500,-7.6125,-16.0500,
4.847096,-0.5919,-0.0394,-1.1513,0.7994,-0.4446,-0.2300,-40.0500,-7.6125,-16.0500,
4.856619,-0.5760,-0.1740,-2.1407,0.7994,-0.4446,-0.2300,-40.0500,-7.6125,-16.0500,
4.860808,-0.5760,-0.1740,-2.1407,0.7994,-0.4446,-0.2300,-40.0500,-7.6125,-16.0500,
4.886778,-0.5760,-0.1740,-2.1407,0.7994,-0.4446,-0.2300,-40.0500,-7.6125,-16.0500,
4.918971,-0.5760,-0.1740,-2.1407,0.3840,-0.7248,0.2120,-40.0500,-7.6125,-16.0500,
4.923685,-0.5760,-0.1740,-2.1407,0.3840,-0.7248,0.2120,-40.0500,-7.6125,-16.0500,
4.926099,-0.5760,-0.1740,-2.1407,0.3840,-0.7248,0.2120,-40.0500,-7.6125,-16.0500,
4.928383,-1.9410,0.9966,-2.0425,0.3840,-0.7248,0.2120,-40.0500,-7.6125,-16.0500,
4.931239,-1.9410,0.9966,-2.0425,0.3840,-0.7248,0.2120,-40.2563,-8.1750,-15.6563,
4.951818,-1.9410,0.9966,-2.0425,0.3840,-0.7248,0.2120,-40.2563,-8.1750,-15.6563,
4.978548,-1.9410,0.9966,-2.0425,0.0792,-0.0030,-0.1503,-40.2563,-8.1750,-15.6563,
4.983936,1.0959,0.8191,0.2329,0.0792,-0.0030,-0.1503,-40.2563,-8.1750,-15.6563,
4.988092,1.0959,0.8191,0.2329,0.0792,-0.0030,-0.1503,-40.2563,-8.1750,-15.6563,
4.990827,1.0959,0.8191,0.2329,0.0792,-0.0030,-0.1503,-40.2563,-8.1750,-15.6563,
4.993758,1.0959,0.8191,0.2329,0.0792,-0.0030,-0.1503,-40.4250,-8.8313,-15.0938,
5.017580,1.0959,0.8191,0.2329,0.0792,-0.0030,-0.1503,-40.4250,-8.8313,-15.0938,
5.021733,1.0959,0.8191,0.2329,0.0792,-0.0030,-0.1503,-40.4250,-8.8313,-15.0938,
5.038883,1.0959,0.8191,0.2329,-0.4739,1.5945,-0.2867,-40.4250,-8.8313,-15.0938,
5.043847,1.0959,0.8191,0.2329,-0.4739,1.5945,-0.2867,-40.4250,-8.8313,-15.0938,
5.045884,3.2810,0.1127,0.0996,-0.4739,1.5945,-0.2867,-40.4250,-8.8313,-15.0938,
5.047929,3.2810,0.1127,0.0996,-0.4739,1.5945,-0.2867,-40.3313,-9.6375,-15.0000,
5.084065,3.2810,0.1127,0.0996,-0.4739,1.5945,-0.2867,-40.3313,-9.6375,-15.0000,
5.088358,3.2810,0.1127,0.0996,-0.4739,1.5945,-0.2867,-40.3313,-9.6375,-15.0000,
5.100859,0.1375,0.5366,1.2438,-0.4739,1.5945,-0.2867,-40.3313,-9.6375,-15.0000,
5.105973,0.1375,0.5366,1.2438,-0.4739,1.5945,-0.2867,-40.3313,-9.6375,-15.0000,
5.118806,0.1375,0.5366,1.2438,0.3711,-0.1280,-0.1920,-40.3313,-9.6375,-15.0000,
5.123606,0.1375,0.5366,1.2438,0.3711,-0.1280,-0.1920,-40.0125,-10.5000,-14.8125,
5.126137,0.1375,0.5366,1.2438,0.3711,-0.1280,-0.1920,-40.0125,-10.5000,-14.8125,
5.151439,0.1375,0.5366,1.2438,0.3711,-0.1280,-0.1920,-40.0125,-10.5000,-14.8125,
5.156563,-0.7742,1.1558,-0.3276,0.3711,-0.1280,-0.1920,-40.0125,-10.5000,-14.8125,
5.159645,-0.7742,1.1558,-0.3276,0.3711,-0.1280,-0.1920,-40.0125,-10.5000,-14.8125,
5.176619,-0.7742,1.1558,-0.3276,0.0669,-0.3950,-0.1010,-40.0125,-10.5000,-14.8125,
5.184700,-0.7742,1.1558,-0.3276,0.0669,-0.3950,-0.1010,-39.8250,-11.1750,-14.6813,
5.188639,-0.7742,1.1558,-0.3276,0.0669,-0.3950,-0.1010,-39.8250,-11.1750,-14.6813,
5.218910,-0.7742,1.1558,-0.3276,0.0669,-0.3950,-0.1010,-39.8250,-11.1750,-14.6813,
5.223659,-0.7742,1.1558,-0.3276,0.0669,-0.3950,-0.1010,-39.8250,-11.1750,-14.6813,
5.226384,-0.3056,0.7311,-1.0335,0.0669,-0.3950,-0.1010,-39.8250,-11.1750,-14.6813,
5.238882,-0.3056,0.7311,-1.0335,-0.2992,0.1823,0.0186,-39.8250,-11.1750,-14.6813,
5.243749,-0.3056,0.7311,-1.0335,-0.2992,0.1823,0.0186,-39.6000,-11.7375,-14.7375,
5.248286,-0.3056,0.7311,-1.0335,-0.2992,0.1823,0.0186,-39.6000,-11.7375,-14.7375,
5.280541,-0.6037,-0.2091,0.8232,-0.2992,0.1823,0.0186,-39.6000,-11.7375,-14.7375,
5.286947,-0.6037,-0.2091,0.8232,-0.2992,0.1823,0.0186,-39.6000,-11.7375,-14.7375,
5.289477,-0.6037,-0.2091,0.8232,-0.2992,0.1823,0.0186,-39.6000,-11.7375,-14.7375,
5.316986,-0.6037,-0.2091,0.8232,-0.2992,0.1823,0.0186,-39.6000,-11.7375,-14.7375,
5.320155,-0.6037,-0.2091,0.8232,0.2604,-0.3838,0.0832,-39.6000,-11.7375,-14.7375,
5.323499,-0.6037,-0.2091,0.8232,0.2604,-0.3838,0.0832,-39.5813,-12.0375,-14.5688,
5.326145,-0.6037,-0.2091,0.8232,0.2604,-0.3838,0.0832,-39.5813,-12.0375,-14.5688,
5.338986,-0.6037,-0.2091,0.8232,0.2604,-0.3838,0.0832,-39.5813,-12.0375,-14.5688,
5.343211,-0.4084,-0.3822,1.0261,0.2604,-0.3838,0.0832,-39.5813,-12.0375,-14.5688,
5.377513,-0.4084,-0.3822,1.0261,0.2604,-0.3838,0.0832,-39.5813,-12.0375,-14.5688,
5.381453,-0.4084,-0.3822,1.0261,0.1502,0.1299,0.0408,-39.5813,-12.0375,-14.5688,
5.385525,-0.4084,-0.3822,1.0261,0.1502,0.1299,0.0408,-39.5813,-12.0375,-14.5688,
5.388116,-0.4084,-0.3822,1.0261,0.1502,0.1299,0.0408,-39.6000,-12.1688,-14.5875,
5.401357,-0.1253,0.2322,-1.0516,0.1502,0.1299,0.0408,-39.6000,-12.1688,-14.5875,
5.406660,-0.1253,0.2322,-1.0516,0.1502,0.1299,0.0408,-39.6000,-12.1688,-14.5875,
5.421665,-0.1253,0.2322,-1.0516,0.1502,0.1299,0.0408,-39.6000,-12.1688,-14.5875,
5.440336,-0.1253,0.2322,-1.0516,0.1305,-0.2090,-0.0239,-39.6000,-12.1688,-14.5875,
5.446342,-0.1253,0.2322,-1.0516,0.1305,-0.2090,-0.0239,-39.4500,-12.4125,-14.7563,
5.449194,-0.1253,0.2322,-1.0516,0.1305,-0.2090,-0.0239,-39.4500,-12.4125,-14.7563,
5.456803,-0.4251,-0.1933,0.2313,0.1305,-0.2090,-0.0239,-39.4500,-12.4125,-14.7563,
5.461432,-0.4251,-0.1933,0.2313,0.1305,-0.2090,-0.0239,-39.4500,-12.4125,-14.7563,
5.485844,-0.4251,-0.1933,0.2313,0.1305,-0.2090,-0.0239,-39.4500,-12.4125,-14.7563,
5.518270,-0.4251,-0.1933,0.2313,0.1305,-0.2090,-0.0239,-39.4500,-12.4125,-14.7563,
5.523212,-0.7274,0.1987,-0.6255,0.1305,-0.2090,-0.0239,-39.4500,-12.4125,-14.7563,
5.526698,-0.7274,0.1987,-0.6255,-0.1576,-0.0527,0.2663,-39.4500,-12.4125,-14.7563,
5.529232,-0.7274,0.1987,-0.6255,-0.1576,-0.0527,0.2663,-39.4500,-12.4125,-14.7563,
5.531894,-0.7274,0.1987,-0.6255,-0.1576,-0.0527,0.2663,-39.3938,-12.5625,-15.0938,
5.551289,-0.7274,0.1987,-0.6255,-0.1576,-0.0527,0.2663,-39.3938,-12.5625,-15.0938,
5.580640,-0.7274,0.1987,-0.6255,-0.0823,0.1137,0.3288,-39.3938,-12.5625,-15.0938,
5.586082,0.0932,0.2538,0.0901,-0.0823,0.1137,0.3288,-39.3938,-12.5625,-15.0938,
5.589270,0.0932,0.2538,0.0901,-0.0823,0.1137,0.3288,-39.3938,-12.5625,-15.0938,
5.591864,0.0932,0.2538,0.0901,-0.0823,0.1137,0.3288,-39.3938,-12.5625,-15.0938,
5.594670,0.0932,0.2538,0.0901,-0.0823,0.1137,0.3288,-39.5438,-12.4313,-14.9063,
5.617960,0.0932,0.2538,0.0901,-0.0823,0.1137,0.3288,-39.5438,-12.4313,-14.9063,
5.621484,0.0932,0.2538,0.0901,-0.0823,0.1137,0.3288,-39.5438,-12.4313,-14.9063,
5.637592,0.0932,0.2538,0.0901,-0.2438,0.0715,0.2221,-39.5438,-12.4313,-14.9063,
5.642129,0.0932,0.2538,0.0901,-0.2438,0.0715,0.2221,-39.5438,-12.4313,-14.9063,
5.644657,-0.1225,0.4484,-0.5133,-0.2438,0.0715,0.2221,-39.5438,-12.4313,-14.9063,
5.647572,-0.1225,0.4484,-0.5133,-0.2438,0.0715,0.2221,-39.7125,-12.1125,-14.8125,
5.685369,-0.1225,0.4484,-0.5133,-0.2438,0.0715,0.2221,-39.7125,-12.1125,-14.8125,
5.689508,-0.1225,0.4484,-0.5133,-0.2438,0.0715,0.2221,-39.7125,-12.1125,-14.8125,
5.698369,1.7758,0.0392,-0.0206,-0.2438,0.0715,0.2221,-39.7125,-12.1125,-14.8125,
5.702093,1.7758,0.0392,-0.0206,-0.2438,0.0715,0.2221,-39.7125,-12.1125,-14.8125,
5.719285,1.7758,0.0392,-0.0206,-0.2933,0.4390,0.0036,-39.7125,-12.1125,-14.8125,
5.724574,1.7758,0.0392,-0.0206,-0.2933,0.4390,0.0036,-39.6938,-11.7000,-14.9438,
5.727042,1.7758,0.0392,-0.0206,-0.2933,0.4390,0.0036,-39.6938,-11.7000,-14.9438,
5.751821,1.7758,0.0392,-0.0206,-0.2933,0.4390,0.0036,-39.6938,-11.7000,-14.9438,
5.760960,1.7758,0.0392,-0.0206,-0.2933,0.4390,0.0036,-39.6938,-11.7000,-14.9438,
5.764264,0.1222,0.3668,0.6621,-0.2933,0.4390,0.0036,-39.6938,-11.7000,-14.9438,
5.777049,0.1222,0.3668,0.6621,-0.1618,-0.0190,-0.1058,-39.6938,-11.7000,-14.9438,
5.783712,0.1222,0.3668,0.6621,-0.1618,-0.0190,-0.1058,-39.6938,-11.7000,-14.9438,
5.786628,0.1222,0.3668,0.6621,-0.1618,-0.0190,-0.1058,-39.8625,-11.3063,-14.9813,
5.817539,-0.2910,0.2094,0.1707,-0.1618,-0.0190,-0.1058,-39.8625,-11.3063,-14.9813,
5.821246,-0.2910,0.2094,0.1707,-0.1618,-0.0190,-0.1058,-39.8625,-11.3063,-14.9813,
5.823847,-0.2910,0.2094,0.1707,-0.1618,-0.0190,-0.1058,-39.8625,-11.3063,-14.9813,
5.838090,-0.2910,0.2094,0.1707,-0.0804,-0.0681,0.0959,-39.8625,-11.3063,-14.9813,
5.841335,-0.2910,0.2094,0.1707,-0.0804,-0.0681,0.0959,-39.8625,-11.3063,-14.9813,
5.843994,-0.2910,0.2094,0.1707,-0.0804,-0.0681,0.0959,-40.0312,-10.7812,-15.1875,
5.879729,-0.2910,0.2094,0.1707,-0.0804,-0.0681,0.0959,-40.0312,-10.7812,-15.1875,
5.883242,-0.2910,0.2094,0.1707,-0.0804,-0.0681,0.0959,-40.0312,-10.7812,-15.1875,
5.885234,-0.0002,-0.1779,0.5929,-0.0804,-0.0681,0.0959,-40.0312,-10.7812,-15.1875,
5.921370,-0.0002,-0.1779,0.5929,-0.0804,-0.0681,0.0959,-40.0312,-10.7812,-15.1875,
5.926165,-0.0002,-0.1779,0.5929,0.0356,0.1442,0.0857,-40.0312,-10.7812,-15.1875,
5.930088,-0.0002,-0.1779,0.5929,0.0356,0.1442,0.0857,-40.1250,-10.2938,-15.4500,
5.933720,-0.0002,-0.1779,0.5929,0.0356,0.1442,0.0857,-40.1250,-10.2938,-15.4500,
5.941579,-0.0002,-0.1779,0.5929,0.0356,0.1442,0.0857,-40.1250,-10.2938,-15.4500,
5.945104,0.5790,0.2641,-0.1221,0.0356,0.1442,0.0857,-40.1250,-10.2938,-15.4500,
5.977332,0.5790,0.2641,-0.1221,-0.0659,0.0131,-0.0469,-40.1250,-10.2938,-15.4500,
5.981575,0.5790,0.2641,-0.1221,-0.0659,0.0131,-0.0469,-40.1250,-10.2938,-15.4500,
5.984467,0.5790,0.2641,-0.1221,-0.0659,0.0131,-0.0469,-40.1813,-9.9750,-15.7125,
5.987906,0.5790,0.2641,-0.1221,-0.0659,0.0131,-0.0469,-40.1813,-9.9750,-15.7125,
5.999789,0.5790,0.2641,-0.1221,-0.0659,0.0131,-0.0469,-40.1813,-9.9750,-15.7125,
6.004568,0.1844,0.2132,0.3837,-0.0659,0.0131,-0.0469,-40.1813,-9.9750,-15.7125,
6.021711,0.1844,0.2132,0.3837,-0.0659,0.0131,-0.0469,-40.1813,-9.9750,-15.7125,
6.038080,0.1844,0.2132,0.3837,0.1048,0.1582,-0.1855,-40.1813,-9.9750,-15.7125,
6.040977,0.1844,0.2132,0.3837,0.1048,0.1582,-0.1855,-40.1813,-9.9750,-15.7125,
6.042290,0.1844,0.2132,0.3837,0.1048,0.1582,-0.1855,-40.1813,-9.6000,-16.0688,
6.058301,0.5265,-0.3108,-0.0410,0.1048,0.1582,-0.1855,-40.1813,-9.6000,-16.0688,
6.061057,0.5265,-0.3108,-0.0410,0.1048,0.1582,-0.1855,-40.1813,-9.6000,-16.0688,
6.083090,0.5265,-0.3108,-0.0410,0.1048,0.1582,-0.1855,-40.1813,-9.6000,-16.0688,
6.126827,0.5265,-0.3108,-0.0410,0.1048,0.1582,-0.1855,-40.1813,-9.6000,-16.0688,
6.128916,0.5265,-0.3108,-0.0410,0.1048,0.1582,-0.1855,-40.1813,-9.6000,-16.0688,
6.130220,0.5265,-0.3108,-0.0410,0.0693,-0.2760,-0.1411,-40.1813,-9.6000,-16.0688,
6.131857,-0.6951,-0.1319,0.1393,0.0693,-0.2760,-0.1411,-40.1813,-9.6000,-16.0688,
6.134371,-0.6951,-0.1319,0.1393,0.0693,-0.2760,-0.1411,-39.9938,-9.5438,-16.2938,
