
time,ax,ay,az,wx,wy,wz,Bx,By,Bz,
0.130214,0.0000,0.0000,0.0000,0.0000,0.0000,0.0000,0.0000,0.0000,0.0000,
0.130881,0.0000,0.0000,0.0000,0.0000,0.0000,0.0000,0.0000,0.0000,0.0000,
0.131624,0.0000,0.0000,0.0000,0.0000,0.0000,0.0000,0.0000,0.0000,0.0000,
0.132273,0.0000,0.0000,0.0000,0.0000,0.0000,0.0000,0.0000,0.0000,0.0000,
0.132757,0.0000,0.0000,0.0000,0.0000,0.0000,0.0000,0.0000,0.0000,0.0000,
0.152003,0.0000,0.0000,0.0000,0.0000,0.0000,0.0000,0.0000,0.0000,0.0000,
0.153730,0.0000,0.0000,0.0000,0.0974,-0.0545,-0.1164,0.0000,0.0000,0.0000,
0.181503,0.0000,0.0000,0.0000,0.0974,-0.0545,-0.1164,0.0000,0.0000,0.0000,
0.182324,0.0000,0.0000,0.0000,0.0974,-0.0545,-0.1164,0.0000,0.0000,0.0000,
0.192301,0.0000,0.0000,0.0000,0.0974,-0.0545,-0.1164,0.0000,0.0000,0.0000,
0.193541,0.0000,0.0000,0.0000,0.0974,-0.0545,-0.1164,5.5312,-11.7938,-41.1750,
0.211980,0.0000,0.0000,0.0000,0.0912,0.0793,-0.1554,5.5312,-11.7938,-41.1750,
0.214677,0.0000,0.0000,0.0000,0.0912,0.0793,-0.1554,5.5312,-11.7938,-41.1750,
0.216183,0.0000,0.0000,0.0000,0.0912,0.0793,-0.1554,5.5312,-11.7938,-41.1750,
0.248693,0.0000,0.0000,0.0000,0.0912,0.0793,-0.1554,5.5312,-11.7938,-41.1750,
0.273563,-0.2128,-0.0082,-0.0855,0.0912,0.0793,-0.1554,5.5312,-11.7938,-41.1750,
0.275258,-0.2128,-0.0082,-0.0855,0.0912,0.0793,-0.1554,5.5312,-11.7938,-41.1750,
0.276201,-0.2128,-0.0082,-0.0855,-0.0172,-0.1235,-0.2650,5.5312,-11.7938,-41.1750,
0.277388,-0.2128,-0.0082,-0.0855,-0.0172,-0.1235,-0.2650,5.5312,-11.7938,-41.1750,
0.278200,-0.2128,-0.0082,-0.0855,-0.0172,-0.1235,-0.2650,5.5875,-11.9438,-41.2500,
0.316138,-0.2128,-0.0082,-0.0855,-0.0172,-0.1235,-0.2650,5.5875,-11.9438,-41.2500,
0.319167,-0.2128,-0.0082,-0.0855,-0.0172,-0.1235,-0.2650,5.5875,-11.9438,-41.2500,
0.331080,-0.2128,-0.0082,-0.0855,-0.0172,-0.1235,-0.2650,5.5500,-11.7375,-41.3438,
0.335301,-0.2128,-0.0082,-0.0855,-0.0172,-0.1235,-0.2650,5.5500,-11.7375,-41.3438,
0.337542,-0.5322,0.0495,0.0266,-0.0172,-0.1235,-0.2650,5.5500,-11.7375,-41.3438,
0.351061,-0.5322,0.0495,0.0266,-0.1235,0.2034,-0.3536,5.5500,-11.7375,-41.3438,
0.380964,-0.5322,0.0495,0.0266,-0.1235,0.2034,-0.3536,5.5500,-11.7375,-41.3438,
0.383420,-0.5322,0.0495,0.0266,-0.1235,0.2034,-0.3536,5.5500,-11.7375,-41.3438,
0.391923,-0.5322,0.0495,0.0266,-0.1235,0.2034,-0.3536,5.7000,-11.6250,-41.0625,
0.394353,-0.1858,-0.2389,0.5135,-0.1235,0.2034,-0.3536,5.7000,-11.6250,-41.0625,
0.396005,-0.1858,-0.2389,0.5135,-0.1235,0.2034,-0.3536,5.7000,-11.6250,-41.0625,
0.411948,-0.1858,-0.2389,0.5135,0.2627,0.1891,-0.4643,5.7000,-11.6250,-41.0625,
0.448245,-0.1858,-0.2389,0.5135,0.2627,0.1891,-0.4643,5.7000,-11.6250,-41.0625,
0.451789,-0.1858,-0.2389,0.5135,0.2627,0.1891,-0.4643,5.7000,-11.6250,-41.0625,
0.454087,-0.1096,-0.7775,0.4088,0.2627,0.1891,-0.4643,5.7000,-11.6250,-41.0625,
0.457168,-0.1096,-0.7775,0.4088,0.2627,0.1891,-0.4643,5.7000,-11.6250,-41.0625,
0.472662,-0.1096,-0.7775,0.4088,0.2627,0.1891,-0.4643,6.0563,-11.9250,-41.0250,
0.475976,-0.1096,-0.7775,0.4088,0.4251,0.5343,-0.5770,6.0563,-11.9250,-41.0250,
0.512642,-0.1096,-0.7775,0.4088,0.4251,0.5343,-0.5770,6.0563,-11.9250,-41.0250,
0.515902,-0.1096,-0.7775,0.4088,0.4251,0.5343,-0.5770,6.0563,-11.9250,-41.0250,
0.518438,-0.1096,-0.7775,0.4088,0.4251,0.5343,-0.5770,6.0563,-11.9250,-41.0250,
0.520765,0.1054,-0.5030,-1.0242,0.4251,0.5343,-0.5770,6.0563,-11.9250,-41.0250,
0.532057,0.1054,-0.5030,-1.0242,0.4251,0.5343,-0.5770,6.4875,-12.2250,-40.8375,
0.552427,0.1054,-0.5030,-1.0242,0.4251,0.5343,-0.5770,6.4875,-12.2250,-40.8375,
0.554279,0.1054,-0.5030,-1.0242,0.3841,0.4652,-0.3732,6.4875,-12.2250,-40.8375,
0.572924,0.1054,-0.5030,-1.0242,0.3841,0.4652,-0.3732,6.4875,-12.2250,-40.8375,
0.574997,0.1054,-0.5030,-1.0242,0.3841,0.4652,-0.3732,6.4875,-12.2250,-40.8375,
0.576475,-0.7647,0.8093,-0.7379,0.3841,0.4652,-0.3732,6.4875,-12.2250,-40.8375,
0.592745,-0.7647,0.8093,-0.7379,0.3841,0.4652,-0.3732,7.0500,-12.4688,-40.6688,
0.611321,-0.7647,0.8093,-0.7379,-0.0941,-0.3515,-0.3524,7.0500,-12.4688,-40.6688,
0.614777,-0.7647,0.8093,-0.7379,-0.0941,-0.3515,-0.3524,7.0500,-12.4688,-40.6688,
0.632631,-1.1108,1.6136,-0.6500,-0.0941,-0.3515,-0.3524,7.0500,-12.4688,-40.6688,
0.635560,-1.1108,1.6136,-0.6500,-0.0941,-0.3515,-0.3524,7.0500,-12.4688,-40.6688,
0.637268,-1.1108,1.6136,-0.6500,-0.0941,-0.3515,-0.3524,7.0500,-12.4688,-40.6688,
0.672389,-1.1108,1.6136,-0.6500,-0.0941,-0.3515,-0.3524,7.3688,-12.3750,-40.6688,
0.675248,-1.1108,1.6136,-0.6500,-0.8207,-0.0732,-0.6018,7.3688,-12.3750,-40.6688,
0.678145,-1.1108,1.6136,-0.6500,-0.8207,-0.0732,-0.6018,7.3688,-12.3750,-40.6688,
0.692422,-1.1108,1.6136,-0.6500,-0.8207,-0.0732,-0.6018,7.3688,-12.3750,-40.6688,
0.694314,-1.1108,1.6136,-0.6500,-0.8207,-0.0732,-0.6018,7.3688,-12.3750,-40.6688,
0.695714,-0.9154,1.5364,-0.1751,-0.8207,-0.0732,-0.6018,7.3688,-12.3750,-40.6688,
0.713657,-0.9154,1.5364,-0.1751,-0.8207,-0.0732,-0.6018,7.3688,-12.3750,-40.6688,
0.733273,-0.9154,1.5364,-0.1751,-0.8207,-0.0732,-0.6018,7.9875,-12.1875,-40.6688,
0.743459,-0.9154,1.5364,-0.1751,-0.8207,-0.0732,-0.6018,7.9875,-12.1875,-40.6688,
0.756947,-0.9154,1.5364,-0.1751,-0.3107,0.5753,-0.5007,7.9875,-12.1875,-40.6688,
0.760035,-0.7515,0.3329,1.5196,-0.3107,0.5753,-0.5007,7.9875,-12.1875,-40.6688,
0.762962,-0.7515,0.3329,1.5196,-0.3107,0.5753,-0.5007,7.9875,-12.1875,-40.6688,
0.782260,-0.7515,0.3329,1.5196,-0.3107,0.5753,-0.5007,7.9875,-12.1875,-40.6688,
0.790956,-0.7515,0.3329,1.5196,-0.3107,0.5753,-0.5007,8.9062,-11.8875,-40.4438,
0.811782,-0.7515,0.3329,1.5196,0.7407,1.1541,-0.3577,8.9062,-11.8875,-40.4438,
0.815144,0.7352,0.5939,0.9514,0.7407,1.1541,-0.3577,8.9062,-11.8875,-40.4438,
0.817860,0.7352,0.5939,0.9514,0.7407,1.1541,-0.3577,8.9062,-11.8875,-40.4438,
0.820021,0.7352,0.5939,0.9514,0.7407,1.1541,-0.3577,8.9062,-11.8875,-40.4438,
0.848595,0.7352,0.5939,0.9514,0.7407,1.1541,-0.3577,8.9062,-11.8875,-40.4438,
0.874102,0.7352,0.5939,0.9514,0.7407,1.1541,-0.3577,10.2000,-12.1688,-40.0125,
0.877783,0.7352,0.5939,0.9514,1.9304,-0.0911,-0.3724,10.2000,-12.1688,-40.0125,
0.880658,1.0116,0.4523,0.2469,1.9304,-0.0911,-0.3724,10.2000,-12.1688,-40.0125,
0.883861,1.0116,0.4523,0.2469,1.9304,-0.0911,-0.3724,10.2000,-12.1688,-40.0125,
0.886034,1.0116,0.4523,0.2469,1.9304,-0.0911,-0.3724,10.2000,-12.1688,-40.0125,
0.914380,1.0116,0.4523,0.2469,1.9304,-0.0911,-0.3724,10.2000,-12.1688,-40.0125,
0.916869,1.0116,0.4523,0.2469,1.9304,-0.0911,-0.3724,10.2000,-12.1688,-40.0125,
0.933918,1.0116,0.4523,0.2469,1.9304,-0.0911,-0.3724,11.2313,-13.0688,-39.5625,
0.936943,0.3743,-0.8495,-1.3440,1.9304,-0.0911,-0.3724,11.2313,-13.0688,-39.5625,
0.939292,0.3743,-0.8495,-1.3440,1.9304,-0.0911,-0.3724,11.2313,-13.0688,-39.5625,
0.951981,0.3743,-0.8495,-1.3440,2.0726,-0.9676,-0.9856,11.2313,-13.0688,-39.5625,
0.982509,0.3743,-0.8495,-1.3440,2.0726,-0.9676,-0.9856,11.2313,-13.0688,-39.5625,
0.985482,0.3743,-0.8495,-1.3440,2.0726,-0.9676,-0.9856,11.2313,-13.0688,-39.5625,
0.992369,0.3743,-0.8495,-1.3440,2.0726,-0.9676,-0.9856,11.2313,-13.0688,-39.5625,
0.994661,-1.9816,-3.3624,-2.9990,2.0726,-0.9676,-0.9856,11.2313,-13.0688,-39.5625,
0.997161,-1.9816,-3.3624,-2.9990,2.0726,-0.9676,-0.9856,11.9062,-14.0438,-39.0188,
1.011586,-1.9816,-3.3624,-2.9990,0.8495,-1.4421,-1.2546,11.9062,-14.0438,-39.0188,
1.049041,-1.9816,-3.3624,-2.9990,0.8495,-1.4421,-1.2546,11.9062,-14.0438,-39.0188,
1.050950,-1.9816,-3.3624,-2.9990,0.8495,-1.4421,-1.2546,11.9062,-14.0438,-39.0188,
1.053795,-3.7663,-3.8707,-1.8224,0.8495,-1.4421,-1.2546,11.9062,-14.0438,-39.0188,
1.056843,-3.7663,-3.8707,-1.8224,0.8495,-1.4421,-1.2546,11.9062,-14.0438,-39.0188,
1.074165,-3.7663,-3.8707,-1.8224,0.8495,-1.4421,-1.2546,12.3375,-14.8875,-38.6438,
1.077258,-3.7663,-3.8707,-1.8224,0.3214,-1.2535,-1.4646,12.3375,-14.8875,-38.6438,
1.114290,-3.7663,-3.8707,-1.8224,0.3214,-1.2535,-1.4646,12.3375,-14.8875,-38.6438,
1.117336,-3.7663,-3.8707,-1.8224,0.3214,-1.2535,-1.4646,12.3375,-14.8875,-38.6438,
1.120110,-3.7663,-3.8707,-1.8224,0.3214,-1.2535,-1.4646,12.3375,-14.8875,-38.6438,
1.122606,-2.1546,-3.4898,0.8424,0.3214,-1.2535,-1.4646,12.3375,-14.8875,-38.6438,
1.133151,-2.1546,-3.4898,0.8424,0.3214,-1.2535,-1.4646,12.6188,-15.6000,-38.5125,
1.149716,-2.1546,-3.4898,0.8424,0.3214,-1.2535,-1.4646,12.6188,-15.6000,-38.5125,
1.151728,-2.1546,-3.4898,0.8424,-1.6191,0.7503,-1.0328,12.6188,-15.6000,-38.5125,
1.170628,-2.1546,-3.4898,0.8424,-1.6191,0.7503,-1.0328,12.6188,-15.6000,-38.5125,
1.172961,-2.1546,-3.4898,0.8424,-1.6191,0.7503,-1.0328,12.6188,-15.6000,-38.5125,
1.174538,-0.8473,-2.2896,1.1261,-1.6191,0.7503,-1.0328,12.6188,-15.6000,-38.5125,
1.192400,-0.8473,-2.2896,1.1261,-1.6191,0.7503,-1.0328,13.2750,-16.0125,-38.2688,
1.213127,-0.8473,-2.2896,1.1261,-1.6191,0.7503,-1.0328,13.2750,-16.0125,-38.2688,
1.215396,-0.8473,-2.2896,1.1261,1.1383,-2.5913,-1.3822,13.2750,-16.0125,-38.2688,
1.235627,1.8858,0.0276,12.5466,1.1383,-2.5913,-1.3822,13.2750,-16.0125,-38.2688,
1.239371,1.8858,0.0276,12.5466,1.1383,-2.5913,-1.3822,13.2750,-16.0125,-38.2688,
1.241784,1.8858,0.0276,12.5466,1.1383,-2.5913,-1.3822,13.2750,-16.0125,-38.2688,
1.272577,1.8858,0.0276,12.5466,1.1383,-2.5913,-1.3822,13.2750,-16.0125,-38.2688,
1.275428,1.8858,0.0276,12.5466,1.1383,-2.5913,-1.3822,13.1625,-17.0250,-37.9688,
1.278000,1.8858,0.0276,12.5466,1.1461,-0.8019,-1.2722,13.1625,-17.0250,-37.9688,
1.292172,3.9060,1.1825,-2.4610,1.1461,-0.8019,-1.2722,13.1625,-17.0250,-37.9688,
1.295835,3.9060,1.1825,-2.4610,1.1461,-0.8019,-1.2722,13.1625,-17.0250,-37.9688,
1.297874,3.9060,1.1825,-2.4610,1.1461,-0.8019,-1.2722,13.1625,-17.0250,-37.9688,
1.314411,3.9060,1.1825,-2.4610,1.1461,-0.8019,-1.2722,13.1625,-17.0250,-37.9688,
1.332053,3.9060,1.1825,-2.4610,1.1461,-0.8019,-1.2722,12.9000,-18.2438,-37.7063,
1.355823,3.9060,1.1825,-2.4610,0.3891,-1.1769,-2.2674,12.9000,-18.2438,-37.7063,
1.359695,2.0161,-4.1416,0.6683,0.3891,-1.1769,-2.2674,12.9000,-18.2438,-37.7063,
1.363070,2.0161,-4.1416,0.6683,0.3891,-1.1769,-2.2674,12.9000,-18.2438,-37.7063,
1.365455,2.0161,-4.1416,0.6683,0.3891,-1.1769,-2.2674,12.9000,-18.2438,-37.7063,
1.382282,2.0161,-4.1416,0.6683,0.3891,-1.1769,-2.2674,12.9000,-18.2438,-37.7063,
1.394237,2.0161,-4.1416,0.6683,0.3891,-1.1769,-2.2674,12.0938,-18.8813,-37.7438,
1.417817,2.0161,-4.1416,0.6683,0.3891,-1.1769,-2.2674,12.0938,-18.8813,-37.7438,
1.420546,2.0161,-4.1416,0.6683,0.3891,-1.1769,-2.2674,12.0938,-18.8813,-37.7438,
1.423397,2.0161,-4.1416,0.6683,-0.5881,-2.0811,-1.6513,12.0938,-18.8813,-37.7438,
1.426490,0.6482,-2.8713,0.0755,-0.5881,-2.0811,-1.6513,12.0938,-18.8813,-37.7438,
1.435888,0.6482,-2.8713,0.0755,-0.5881,-2.0811,-1.6513,12.0938,-18.8813,-37.7438,
1.455589,0.6482,-2.8713,0.0755,-0.5881,-2.0811,-1.6513,12.0938,-18.8813,-37.7438,
1.469338,0.6482,-2.8713,0.0755,-0.5881,-2.0811,-1.6513,11.2688,-18.6000,-38.0813,
1.472391,0.6482,-2.8713,0.0755,-0.3418,-0.8685,-2.5228,11.2688,-18.6000,-38.0813,
1.475295,3.8992,-1.9870,2.3786,-0.3418,-0.8685,-2.5228,11.2688,-18.6000,-38.0813,
1.477748,3.8992,-1.9870,2.3786,-0.3418,-0.8685,-2.5228,11.2688,-18.6000,-38.0813,
1.514471,3.8992,-1.9870,2.3786,-0.3418,-0.8685,-2.5228,11.2688,-18.6000,-38.0813,
1.516915,3.8992,-1.9870,2.3786,-0.3418,-0.8685,-2.5228,11.2688,-18.6000,-38.0813,
1.533972,3.8992,-1.9870,2.3786,-0.3418,-0.8685,-2.5228,11.1750,-17.6625,-38.4188,
1.537141,1.9260,-3.9075,-3.3726,-0.3418,-0.8685,-2.5228,11.1750,-17.6625,-38.4188,
1.540090,1.9260,-3.9075,-3.3726,-0.3418,-0.8685,-2.5228,11.1750,-17.6625,-38.4188,
1.553592,1.9260,-3.9075,-3.3726,-0.2211,1.6917,-2.0091,11.1750,-17.6625,-38.4188,
1.556985,1.9260,-3.9075,-3.3726,-0.2211,1.6917,-2.0091,11.1750,-17.6625,-38.4188,
1.574935,1.9260,-3.9075,-3.3726,-0.2211,1.6917,-2.0091,11.1750,-17.6625,-38.4188,
1.589750,1.9260,-3.9075,-3.3726,-0.2211,1.6917,-2.0091,11.4563,-16.6875,-38.6625,
1.593589,1.9260,-3.9075,-3.3726,-0.2211,1.6917,-2.0091,11.4563,-16.6875,-38.6625,
1.596083,-9.2165,-5.7857,2.8807,-0.2211,1.6917,-2.0091,11.4563,-16.6875,-38.6625,
1.612117,-9.2165,-5.7857,2.8807,0.6078,-1.1656,-0.3543,11.4563,-16.6875,-38.6625,
1.650200,-9.2165,-5.7857,2.8807,0.6078,-1.1656,-0.3543,11.4563,-16.6875,-38.6625,
1.653342,-9.2165,-5.7857,2.8807,0.6078,-1.1656,-0.3543,11.4563,-16.6875,-38.6625,
1.656712,1.8203,15.9102,-0.3840,0.6078,-1.1656,-0.3543,11.4563,-16.6875,-38.6625,
1.659358,1.8203,15.9102,-0.3840,0.6078,-1.1656,-0.3543,11.4563,-16.6875,-38.6625,
1.681162,1.8203,15.9102,-0.3840,0.6078,-1.1656,-0.3543,11.5125,-16.0688,-38.5125,
1.685328,1.8203,15.9102,-0.3840,0.6652,-1.1323,0.0893,11.5125,-16.0688,-38.5125,
1.715235,-3.1351,13.3727,-7.1639,0.6652,-1.1323,0.0893,11.5125,-16.0688,-38.5125,
1.718292,-3.1351,13.3727,-7.1639,0.6652,-1.1323,0.0893,11.5125,-16.0688,-38.5125,
1.719859,-3.1351,13.3727,-7.1639,0.6652,-1.1323,0.0893,11.5125,-16.0688,-38.5125,
1.721375,-3.1351,13.3727,-7.1639,0.6652,-1.1323,0.0893,11.5125,-16.0688,-38.5125,
1.729248,-3.1351,13.3727,-7.1639,0.6652,-1.1323,0.0893,10.9125,-16.1438,-38.4375,
1.760862,-3.1351,13.3727,-7.1639,0.6652,-1.1323,0.0893,10.9125,-16.1438,-38.4375,
1.762785,-3.1351,13.3727,-7.1639,-0.5039,0.4708,-0.8133,10.9125,-16.1438,-38.4375,
1.764334,-3.1351,13.3727,-7.1639,-0.5039,0.4708,-0.8133,10.9125,-16.1438,-38.4375,
1.776538,-1.7619,-0.9344,-8.0671,-0.5039,0.4708,-0.8133,10.9125,-16.1438,-38.4375,
1.778926,-1.7619,-0.9344,-8.0671,-0.5039,0.4708,-0.8133,10.9125,-16.1438,-38.4375,
1.797173,-1.7619,-0.9344,-8.0671,-0.5039,0.4708,-0.8133,11.5125,-15.6563,-38.3813,
1.816661,-1.7619,-0.9344,-8.0671,-0.6215,1.3076,0.3038,11.5125,-15.6563,-38.3813,
1.820291,-1.7619,-0.9344,-8.0671,-0.6215,1.3076,0.3038,11.5125,-15.6563,-38.3813,
1.835357,-1.7619,-0.9344,-8.0671,-0.6215,1.3076,0.3038,11.5125,-15.6563,-38.3813,
1.838076,-1.7619,-0.9344,-8.0671,-0.6215,1.3076,0.3038,11.5125,-15.6563,-38.3813,
1.840262,-8.3279,0.2929,-3.2131,-0.6215,1.3076,0.3038,11.5125,-15.6563,-38.3813,
1.881087,-8.3279,0.2929,-3.2131,-0.6215,1.3076,0.3038,11.5125,-15.6563,-38.3813,
1.884162,-8.3279,0.2929,-3.2131,-0.6215,1.3076,0.3038,12.1875,-14.8875,-38.3813,
1.886937,-8.3279,0.2929,-3.2131,-0.0806,1.0026,0.3028,12.1875,-14.8875,-38.3813,
1.896826,-8.3279,0.2929,-3.2131,-0.0806,1.0026,0.3028,12.1875,-14.8875,-38.3813,
1.899582,-8.3279,0.2929,-3.2131,-0.0806,1.0026,0.3028,12.1875,-14.8875,-38.3813,
1.901883,-0.4072,4.3766,2.0407,-0.0806,1.0026,0.3028,12.1875,-14.8875,-38.3813,
1.915956,-0.4072,4.3766,2.0407,-0.0806,1.0026,0.3028,12.1875,-14.8875,-38.3813,
1.932770,-0.4072,4.3766,2.0407,-0.0806,1.0026,0.3028,13.3875,-14.0625,-38.1188,
1.965113,-0.4072,4.3766,2.0407,-0.0806,1.0026,0.3028,13.3875,-14.0625,-38.1188,
1.968136,-0.4072,4.3766,2.0407,-0.0806,1.0026,0.3028,13.3875,-14.0625,-38.1188,
1.970281,-0.4072,4.3766,2.0407,-0.1213,0.6549,0.1200,13.3875,-14.0625,-38.1188,
1.973505,0.4559,2.6254,-0.6587,-0.1213,0.6549,0.1200,13.3875,-14.0625,-38.1188,
1.982310,0.4559,2.6254,-0.6587,-0.1213,0.6549,0.1200,13.3875,-14.0625,-38.1188,
1.998161,0.4559,2.6254,-0.6587,-0.1213,0.6549,0.1200,14.7938,-13.6313,-37.6125,
2.014718,0.4559,2.6254,-0.6587,0.4217,-0.4051,-0.0223,14.7938,-13.6313,-37.6125,
2.017888,-1.3275,0.8888,-0.6735,0.4217,-0.4051,-0.0223,14.7938,-13.6313,-37.6125,
2.020460,-1.3275,0.8888,-0.6735,0.4217,-0.4051,-0.0223,14.7938,-13.6313,-37.6125,
2.022802,-1.3275,0.8888,-0.6735,0.4217,-0.4051,-0.0223,14.7938,-13.6313,-37.6125,
2.048215,-1.3275,0.8888,-0.6735,0.4217,-0.4051,-0.0223,14.7938,-13.6313,-37.6125,
2.080731,-1.3275,0.8888,-0.6735,0.4217,-0.4051,-0.0223,14.7938,-13.6313,-37.6125,
2.083792,-1.3275,0.8888,-0.6735,0.4217,-0.4051,-0.0223,15.4688,-13.8000,-37.2750,
2.086305,-1.4286,2.7247,-3.3071,0.4217,-0.4051,-0.0223,15.4688,-13.8000,-37.2750,
2.088632,-1.4286,2.7247,-3.3071,0.4217,-0.4051,-0.0223,15.4688,-13.8000,-37.2750,
2.090405,-1.4286,2.7247,-3.3071,-0.0089,-0.1972,0.4383,15.4688,-13.8000,-37.2750,
2.114212,-1.4286,2.7247,-3.3071,-0.0089,-0.1972,0.4383,15.4688,-13.8000,-37.2750,
2.116528,-1.4286,2.7247,-3.3071,-0.0089,-0.1972,0.4383,15.4688,-13.8000,-37.2750,
2.132295,-1.4286,2.7247,-3.3071,-0.0089,-0.1972,0.4383,15.8813,-13.8563,-37.0688,
2.135540,-1.4286,2.7247,-3.3071,-0.0089,-0.1972,0.4383,15.8813,-13.8563,-37.0688,
2.137349,0.6162,2.7442,-3.9678,-0.0089,-0.1972,0.4383,15.8813,-13.8563,-37.0688,
2.153392,0.6162,2.7442,-3.9678,-0.8075,0.1618,0.2527,15.8813,-13.8563,-37.0688,
2.165012,0.6162,2.7442,-3.9678,-0.8075,0.1618,0.2527,15.8813,-13.8563,-37.0688,
2.181928,0.6162,2.7442,-3.9678,-0.8075,0.1618,0.2527,15.8813,-13.8563,-37.0688,
2.195869,0.6162,2.7442,-3.9678,-0.8075,0.1618,0.2527,16.2938,-13.5375,-37.0875,
2.199112,-0.6140,0.5362,0.7083,-0.8075,0.1618,0.2527,16.2938,-13.5375,-37.0875,
2.202279,-0.6140,0.5362,0.7083,-0.8075,0.1618,0.2527,16.2938,-13.5375,-37.0875,
2.217006,-0.6140,0.5362,0.7083,-0.1804,-0.2074,0.5896,16.2938,-13.5375,-37.0875,
2.250746,-0.6140,0.5362,0.7083,-0.1804,-0.2074,0.5896,16.2938,-13.5375,-37.0875,
2.254731,-0.6140,0.5362,0.7083,-0.1804,-0.2074,0.5896,16.2938,-13.5375,-37.0875,
2.257079,0.1850,-0.3083,1.1654,-0.1804,-0.2074,0.5896,16.2938,-13.5375,-37.0875,
2.260298,0.1850,-0.3083,1.1654,-0.1804,-0.2074,0.5896,16.2938,-13.5375,-37.0875,
2.280152,0.1850,-0.3083,1.1654,-0.1804,-0.2074,0.5896,17.0250,-13.1250,-37.1625,
2.282792,0.1850,-0.3083,1.1654,-0.1312,-0.1332,0.4313,17.0250,-13.1250,-37.1625,
2.314610,0.1850,-0.3083,1.1654,-0.1312,-0.1332,0.4313,17.0250,-13.1250,-37.1625,
2.317027,0.1850,-0.3083,1.1654,-0.1312,-0.1332,0.4313,17.0250,-13.1250,-37.1625,
2.318801,0.1850,-0.3083,1.1654,-0.1312,-0.1332,0.4313,17.0250,-13.1250,-37.1625,
2.320504,1.6571,0.0240,0.8516,-0.1312,-0.1332,0.4313,17.0250,-13.1250,-37.1625,
2.333826,1.6571,0.0240,0.8516,-0.1312,-0.1332,0.4313,17.1375,-12.8625,-37.2375,
2.336995,1.6571,0.0240,0.8516,-0.1312,-0.1332,0.4313,17.1375,-12.8625,-37.2375,
2.363986,1.6571,0.0240,0.8516,-0.2507,-0.0161,-0.0683,17.1375,-12.8625,-37.2375,
2.378229,2.1309,-0.6442,0.5785,-0.2507,-0.0161,-0.0683,17.1375,-12.8625,-37.2375,
2.381060,2.1309,-0.6442,0.5785,-0.2507,-0.0161,-0.0683,17.1375,-12.8625,-37.2375,
2.382567,2.1309,-0.6442,0.5785,-0.2507,-0.0161,-0.0683,17.1375,-12.8625,-37.2375,
2.398822,2.1309,-0.6442,0.5785,-0.2507,-0.0161,-0.0683,17.1375,-12.5438,-37.3500,
2.413717,2.1309,-0.6442,0.5785,-0.1398,0.0759,0.0048,17.1375,-12.5438,-37.3500,
2.415111,2.1309,-0.6442,0.5785,-0.1398,0.0759,0.0048,17.1375,-12.5438,-37.3500,
2.433148,2.1309,-0.6442,0.5785,-0.1398,0.0759,0.0048,17.1375,-12.5438,-37.3500,
2.434194,2.1309,-0.6442,0.5785,-0.1398,0.0759,0.0048,17.1375,-12.5438,-37.3500,
2.435003,-0.2378,-0.5854,0.3188,-0.1398,0.0759,0.0048,17.1375,-12.5438,-37.3500,
2.475614,-0.2378,-0.5854,0.3188,-0.1398,0.0759,0.0048,16.6688,-12.4125,-37.6313,
2.476457,-0.2378,-0.5854,0.3188,-0.3422,0.1333,-0.0655,16.6688,-12.4125,-37.6313,
2.477075,-0.2378,-0.5854,0.3188,-0.3422,0.1333,-0.0655,16.6688,-12.4125,-37.6313,
2.492422,-0.2378,-0.5854,0.3188,-0.3422,0.1333,-0.0655,16.6688,-12.4125,-37.6313,
2.493119,-0.2378,-0.5854,0.3188,-0.3422,0.1333,-0.0655,16.6688,-12.4125,-37.6313,
2.493529,-0.1352,-0.0562,-1.2203,-0.3422,0.1333,-0.0655,16.6688,-12.4125,-37.6313,
2.514566,-0.1352,-0.0562,-1.2203,-0.3422,0.1333,-0.0655,16.6688,-12.4125,-37.6313,
2.529721,-0.1352,-0.0562,-1.2203,-0.3422,0.1333,-0.0655,16.3875,-12.0375,-38.1188,
2.558202,0.6399,0.6120,-1.7930,-0.3422,0.1333,-0.0655,16.3875,-12.0375,-38.1188,
2.559721,0.6399,0.6120,-1.7930,-0.5904,0.6742,-0.0621,16.3875,-12.0375,-38.1188,
2.560965,0.6399,0.6120,-1.7930,-0.5904,0.6742,-0.0621,16.3875,-12.0375,-38.1188,
2.561968,0.6399,0.6120,-1.7930,-0.5904,0.6742,-0.0621,16.3875,-12.0375,-38.1188,
2.581313,0.6399,0.6120,-1.7930,-0.5904,0.6742,-0.0621,16.3875,-12.0375,-38.1188,
2.591779,0.6399,0.6120,-1.7930,-0.5904,0.6742,-0.0621,16.4062,-11.1188,-38.4750,
2.615039,0.7341,0.9089,-0.6831,-0.5904,0.6742,-0.0621,16.4062,-11.1188,-38.4750,
2.618521,0.7341,0.9089,-0.6831,-0.6533,0.3259,-0.1088,16.4062,-11.1188,-38.4750,
2.621213,0.7341,0.9089,-0.6831,-0.6533,0.3259,-0.1088,16.4062,-11.1188,-38.4750,
2.623864,0.7341,0.9089,-0.6831,-0.6533,0.3259,-0.1088,16.4062,-11.1188,-38.4750,
2.662069,0.7341,0.9089,-0.6831,-0.6533,0.3259,-0.1088,16.4062,-11.1188,-38.4750,
2.675257,0.7341,0.9089,-0.6831,-0.6533,0.3259,-0.1088,16.4062,-11.1188,-38.4750,
2.677510,0.7341,0.9089,-0.6831,-0.6533,0.3259,-0.1088,16.4062,-11.1188,-38.4750,
2.679466,0.7341,0.9089,-0.6831,-0.6533,0.3259,-0.1088,16.5750,-10.3500,-38.7375,
2.682303,0.7341,0.9089,-0.6831,-0.6370,0.5424,-0.1503,16.5750,-10.3500,-38.7375,
2.683739,1.2341,0.6837,-0.5863,-0.6370,0.5424,-0.1503,16.5750,-10.3500,-38.7375,
2.714734,1.2341,0.6837,-0.5863,-0.6370,0.5424,-0.1503,16.5750,-10.3500,-38.7375,
2.716148,1.2341,0.6837,-0.5863,-0.6370,0.5424,-0.1503,16.5750,-10.3500,-38.7375,
2.729356,1.2341,0.6837,-0.5863,-0.6370,0.5424,-0.1503,17.0813,-9.3750,-38.9625,
2.732836,1.2341,0.6837,-0.5863,-0.6370,0.5424,-0.1503,17.0813,-9.3750,-38.9625,
2.734206,0.4659,0.5004,0.0532,-0.6370,0.5424,-0.1503,17.0813,-9.3750,-38.9625,
2.758250,0.4659,0.5004,0.0532,-0.4820,0.6108,-0.1511,17.0813,-9.3750,-38.9625,
2.780307,0.4659,0.5004,0.0532,-0.4820,0.6108,-0.1511,17.0813,-9.3750,-38.9625,
2.781822,0.4659,0.5004,0.0532,-0.4820,0.6108,-0.1511,17.0813,-9.3750,-38.9625,
2.789842,0.4659,0.5004,0.0532,-0.4820,0.6108,-0.1511,17.6813,-8.1562,-38.9250,
2.793982,0.4659,0.5004,0.0532,-0.4820,0.6108,-0.1511,17.6813,-8.1562,-38.9250,
2.798760,-0.6338,0.9356,0.6349,-0.4820,0.6108,-0.1511,17.6813,-8.1562,-38.9250,
2.811936,-0.6338,0.9356,0.6349,-0.3791,0.2953,-0.1177,17.6813,-8.1562,-38.9250,
2.847775,-0.6338,0.9356,0.6349,-0.3791,0.2953,-0.1177,17.6813,-8.1562,-38.9250,
2.849490,-0.6338,0.9356,0.6349,-0.3791,0.2953,-0.1177,17.6813,-8.1562,-38.9250,
2.857594,-1.0642,1.5732,0.5376,-0.3791,0.2953,-0.1177,17.6813,-8.1562,-38.9250,
2.861108,-1.0642,1.5732,0.5376,-0.3791,0.2953,-0.1177,17.6813,-8.1562,-38.9250,
2.873590,-1.0642,1.5732,0.5376,-0.3791,0.2953,-0.1177,18.4688,-6.9938,-38.9625,
2.876841,-1.0642,1.5732,0.5376,-0.3110,0.2291,0.0511,18.4688,-6.9938,-38.9625,
2.915038,-1.0642,1.5732,0.5376,-0.3110,0.2291,0.0511,18.4688,-6.9938,-38.9625,
2.917218,-0.5583,1.7935,0.0966,-0.3110,0.2291,0.0511,18.4688,-6.9938,-38.9625,
2.919545,-0.5583,1.7935,0.0966,-0.3110,0.2291,0.0511,18.4688,-6.9938,-38.9625,
2.921118,-0.5583,1.7935,0.0966,-0.3110,0.2291,0.0511,18.4688,-6.9938,-38.9625,
2.930078,-0.5583,1.7935,0.0966,-0.3110,0.2291,0.0511,19.2188,-5.8500,-38.8500,
2.952409,-0.5583,1.7935,0.0966,-0.3110,0.2291,0.0511,19.2188,-5.8500,-38.8500,
2.953918,-0.5583,1.7935,0.0966,-0.0361,0.2916,0.3408,19.2188,-5.8500,-38.8500,
2.973115,-0.5583,1.7935,0.0966,-0.0361,0.2916,0.3408,19.2188,-5.8500,-38.8500,
2.975416,-0.5583,1.7935,0.0966,-0.0361,0.2916,0.3408,19.2188,-5.8500,-38.8500,
2.977170,-0.8943,2.0324,-0.2861,-0.0361,0.2916,0.3408,19.2188,-5.8500,-38.8500,
2.990651,-0.8943,2.0324,-0.2861,-0.0361,0.2916,0.3408,20.2500,-4.6688,-38.6625,
3.013958,-0.8943,2.0324,-0.2861,-0.0361,0.2916,0.3408,20.2500,-4.6688,-38.6625,
3.015890,-0.8943,2.0324,-0.2861,-0.0753,0.2948,0.5940,20.2500,-4.6688,-38.6625,
3.039648,-0.6634,2.7886,-1.5537,-0.0753,0.2948,0.5940,20.2500,-4.6688,-38.6625,
3.043152,-0.6634,2.7886,-1.5537,-0.0753,0.2948,0.5940,20.2500,-4.6688,-38.6625,
3.044793,-0.6634,2.7886,-1.5537,-0.0753,0.2948,0.5940,20.2500,-4.6688,-38.6625,
3.072524,-0.6634,2.7886,-1.5537,-0.0753,0.2948,0.5940,21.1688,-3.7688,-38.3813,
3.075221,-0.6634,2.7886,-1.5537,-0.0753,0.2948,0.5940,21.1688,-3.7688,-38.3813,
3.076868,-0.6634,2.7886,-1.5537,-0.2570,0.3066,0.8056,21.1688,-3.7688,-38.3813,
3.092849,-0.6634,2.7886,-1.5537,-0.2570,0.3066,0.8056,21.1688,-3.7688,-38.3813,
3.094387,-0.6634,2.7886,-1.5537,-0.2570,0.3066,0.8056,21.1688,-3.7688,-38.3813,
3.095366,-0.7771,2.8162,-1.3880,-0.2570,0.3066,0.8056,21.1688,-3.7688,-38.3813,
3.113273,-0.7771,2.8162,-1.3880,-0.2570,0.3066,0.8056,21.1688,-3.7688,-38.3813,
3.130577,-0.7771,2.8162,-1.3880,-0.2570,0.3066,0.8056,21.9375,-3.1125,-38.0250,
3.154549,-0.7771,2.8162,-1.3880,-0.2570,0.3066,0.8056,21.9375,-3.1125,-38.0250,
3.156555,-0.7771,2.8162,-1.3880,-0.2570,0.3066,0.8056,21.9375,-3.1125,-38.0250,
3.157965,-0.7771,2.8162,-1.3880,-0.5995,-0.1938,0.8524,21.9375,-3.1125,-38.0250,
3.160043,-0.6351,1.7058,-0.6443,-0.5995,-0.1938,0.8524,21.9375,-3.1125,-38.0250,
3.183991,-0.6351,1.7058,-0.6443,-0.5995,-0.1938,0.8524,21.9375,-3.1125,-38.0250,
3.190313,-0.6351,1.7058,-0.6443,-0.5995,-0.1938,0.8524,22.4062,-2.5500,-37.8188,
3.217034,-0.6351,1.7058,-0.6443,-0.5995,-0.1938,0.8524,22.4062,-2.5500,-37.8188,
3.219826,0.3849,0.1617,1.2302,-0.5995,-0.1938,0.8524,22.4062,-2.5500,-37.8188,
3.223135,0.3849,0.1617,1.2302,-0.5995,-0.1938,0.8524,22.4062,-2.5500,-37.8188,
3.225063,0.3849,0.1617,1.2302,-0.3175,-0.5830,0.7253,22.4062,-2.5500,-37.8188,
3.250244,0.3849,0.1617,1.2302,-0.3175,-0.5830,0.7253,22.4062,-2.5500,-37.8188,
3.273388,0.3849,0.1617,1.2302,-0.3175,-0.5830,0.7253,22.4062,-2.5500,-37.8188,
3.275328,0.3849,0.1617,1.2302,-0.3175,-0.5830,0.7253,22.3875,-2.3813,-37.8375,
3.277585,0.3849,0.1617,1.2302,-0.2782,-0.7247,0.6965,22.3875,-2.3813,-37.8375,
3.279728,0.4707,0.6482,1.9201,-0.2782,-0.7247,0.6965,22.3875,-2.3813,-37.8375,
3.281862,0.4707,0.6482,1.9201,-0.2782,-0.7247,0.6965,22.3875,-2.3813,-37.8375,
3.314940,0.4707,0.6482,1.9201,-0.2782,-0.7247,0.6965,22.3875,-2.3813,-37.8375,
3.316590,0.4707,0.6482,1.9201,-0.2782,-0.7247,0.6965,22.3875,-2.3813,-37.8375,
3.331015,0.4707,0.6482,1.9201,-0.2782,-0.7247,0.6965,21.8813,-2.3813,-38.1562,
3.335402,0.4707,0.6482,1.9201,-0.2782,-0.7247,0.6965,21.8813,-2.3813,-38.1562,
3.336513,-0.9071,2.2611,4.2970,-0.2782,-0.7247,0.6965,21.8813,-2.3813,-38.1562,
3.357198,-0.9071,2.2611,4.2970,0.1032,-1.1049,0.5685,21.8813,-2.3813,-38.1562,
3.382300,-0.9071,2.2611,4.2970,0.1032,-1.1049,0.5685,21.8813,-2.3813,-38.1562,
3.383609,-0.9071,2.2611,4.2970,0.1032,-1.1049,0.5685,21.8813,-2.3813,-38.1562,
3.388543,-0.9071,2.2611,4.2970,0.1032,-1.1049,0.5685,21.0375,-2.6438,-38.4750,
3.392585,-0.9071,2.2611,4.2970,0.1032,-1.1049,0.5685,21.0375,-2.6438,-38.4750,
3.393376,1.1091,0.5107,7.3667,0.1032,-1.1049,0.5685,21.0375,-2.6438,-38.4750,
3.412087,1.1091,0.5107,7.3667,1.1536,-0.4807,0.4820,21.0375,-2.6438,-38.4750,
3.446572,1.1091,0.5107,7.3667,1.1536,-0.4807,0.4820,21.0375,-2.6438,-38.4750,
3.447277,1.1091,0.5107,7.3667,1.1536,-0.4807,0.4820,21.0375,-2.6438,-38.4750,
3.455221,-1.4724,0.5841,5.2861,1.1536,-0.4807,0.4820,21.0375,-2.6438,-38.4750,
3.456886,-1.4724,0.5841,5.2861,1.1536,-0.4807,0.4820,21.0375,-2.6438,-38.4750,
3.471064,-1.4724,0.5841,5.2861,1.1536,-0.4807,0.4820,19.8188,-3.7688,-38.9625,
3.472318,-1.4724,0.5841,5.2861,1.3969,-0.4206,0.6965,19.8188,-3.7688,-38.9625,
3.517381,-1.5646,-0.7130,2.4874,1.3969,-0.4206,0.6965,19.8188,-3.7688,-38.9625,
3.521897,-1.5646,-0.7130,2.4874,1.3969,-0.4206,0.6965,19.8188,-3.7688,-38.9625,
3.524445,-1.5646,-0.7130,2.4874,1.3969,-0.4206,0.6965,19.8188,-3.7688,-38.9625,
3.526810,-1.5646,-0.7130,2.4874,1.3969,-0.4206,0.6965,19.8188,-3.7688,-38.9625,
3.530646,-1.5646,-0.7130,2.4874,1.3969,-0.4206,0.6965,18.3563,-5.4000,-39.2812,
3.554357,-1.5646,-0.7130,2.4874,1.3969,-0.4206,0.6965,18.3563,-5.4000,-39.2812,
3.557619,-1.5646,-0.7130,2.4874,1.2778,-0.0828,0.8101,18.3563,-5.4000,-39.2812,
3.574658,0.4088,-1.9494,0.5802,1.2778,-0.0828,0.8101,18.3563,-5.4000,-39.2812,
3.579113,0.4088,-1.9494,0.5802,1.2778,-0.0828,0.8101,18.3563,-5.4000,-39.2812,
3.581852,0.4088,-1.9494,0.5802,1.2778,-0.0828,0.8101,18.3563,-5.4000,-39.2812,
3.593712,0.4088,-1.9494,0.5802,1.2778,-0.0828,0.8101,16.7812,-7.3875,-39.4875,
3.614119,0.4088,-1.9494,0.5802,1.2778,-0.0828,0.8101,16.7812,-7.3875,-39.4875,
3.616503,0.4088,-1.9494,0.5802,1.4663,-0.0860,0.7699,16.7812,-7.3875,-39.4875,
3.634602,-1.3896,-2.0488,-0.9320,1.4663,-0.0860,0.7699,16.7812,-7.3875,-39.4875,
3.638305,-1.3896,-2.0488,-0.9320,1.4663,-0.0860,0.7699,16.7812,-7.3875,-39.4875,
3.639923,-1.3896,-2.0488,-0.9320,1.4663,-0.0860,0.7699,16.7812,-7.3875,-39.4875,
3.671210,-1.3896,-2.0488,-0.9320,1.4663,-0.0860,0.7699,16.7812,-7.3875,-39.4875,
3.675318,-1.3896,-2.0488,-0.9320,1.4663,-0.0860,0.7699,14.9625,-9.9938,-39.6750,
3.678061,-1.3896,-2.0488,-0.9320,0.4223,-0.5534,0.7903,14.9625,-9.9938,-39.6750,
3.696790,-1.3896,-2.0488,-0.9320,0.4223,-0.5534,0.7903,14.9625,-9.9938,-39.6750,
3.699880,-1.3896,-2.0488,-0.9320,0.4223,-0.5534,0.7903,14.9625,-9.9938,-39.6750,
3.702045,-2.2532,-1.3206,-3.4780,0.4223,-0.5534,0.7903,14.9625,-9.9938,-39.6750,
3.715914,-2.2532,-1.3206,-3.4780,0.4223,-0.5534,0.7903,14.9625,-9.9938,-39.6750,
3.731019,-2.2532,-1.3206,-3.4780,0.4223,-0.5534,0.7903,12.9750,-12.6375,-39.6000,
3.754794,-2.2532,-1.3206,-3.4780,0.4223,-0.5534,0.7903,12.9750,-12.6375,-39.6000,
3.758321,-2.2532,-1.3206,-3.4780,0.4223,-0.5534,0.7903,12.9750,-12.6375,-39.6000,
3.760543,-2.2532,-1.3206,-3.4780,-0.6784,-0.3338,1.1440,12.9750,-12.6375,-39.6000,
3.763643,0.0993,-0.5972,-4.3552,-0.6784,-0.3338,1.1440,12.9750,-12.6375,-39.6000,
3.783331,0.0993,-0.5972,-4.3552,-0.6784,-0.3338,1.1440,12.9750,-12.6375,-39.6000,
3.795109,0.0993,-0.5972,-4.3552,-0.6784,-0.3338,1.1440,10.8375,-14.9438,-39.3188,
3.816183,0.0993,-0.5972,-4.3552,-0.6784,-0.3338,1.1440,10.8375,-14.9438,-39.3188,
3.819281,0.0993,-0.5972,-4.3552,-0.6784,-0.3338,1.1440,10.8375,-14.9438,-39.3188,
3.821183,0.0993,-0.5972,-4.3552,-0.9676,-0.5804,1.1499,10.8375,-14.9438,-39.3188,
3.823879,1.8963,-0.9299,-2.7805,-0.9676,-0.5804,1.1499,10.8375,-14.9438,-39.3188,
3.848075,1.8963,-0.9299,-2.7805,-0.9676,-0.5804,1.1499,10.8375,-14.9438,-39.3188,
3.871739,1.8963,-0.9299,-2.7805,-0.9676,-0.5804,1.1499,10.8375,-14.9438,-39.3188,
3.876084,1.8963,-0.9299,-2.7805,-0.9676,-0.5804,1.1499,8.7938,-16.8938,-39.0750,
3.879942,1.8963,-0.9299,-2.7805,-1.4389,-0.3285,0.7598,8.7938,-16.8938,-39.0750,
3.883552,1.8963,-0.9299,-2.7805,-1.4389,-0.3285,0.7598,8.7938,-16.8938,-39.0750,
3.885805,2.6128,-0.5212,-3.6388,-1.4389,-0.3285,0.7598,8.7938,-16.8938,-39.0750,
3.916492,2.6128,-0.5212,-3.6388,-1.4389,-0.3285,0.7598,8.7938,-16.8938,-39.0750,
3.919986,2.6128,-0.5212,-3.6388,-1.4389,-0.3285,0.7598,8.7938,-16.8938,-39.0750,
3.932472,2.6128,-0.5212,-3.6388,-1.4389,-0.3285,0.7598,6.9000,-18.0563,-39.0750,
3.936812,2.6128,-0.5212,-3.6388,-1.4389,-0.3285,0.7598,6.9000,-18.0563,-39.0750,
3.939239,1.5527,0.9814,-2.6457,-1.4389,-0.3285,0.7598,6.9000,-18.0563,-39.0750,
3.955016,1.5527,0.9814,-2.6457,-1.4236,0.5794,0.5081,6.9000,-18.0563,-39.0750,
3.983674,1.5527,0.9814,-2.6457,-1.4236,0.5794,0.5081,6.9000,-18.0563,-39.0750,
3.987159,1.5527,0.9814,-2.6457,-1.4236,0.5794,0.5081,6.9000,-18.0563,-39.0750,
3.993781,1.5527,0.9814,-2.6457,-1.4236,0.5794,0.5081,5.2875,-17.9250,-39.3000,
4.000256,1.5527,0.9814,-2.6457,-1.4236,0.5794,0.5081,5.2875,-17.9250,-39.3000,
4.002996,-0.1196,1.2900,-0.8446,-1.4236,0.5794,0.5081,5.2875,-17.9250,-39.3000,
4.016528,-0.1196,1.2900,-0.8446,-1.7366,-0.1130,0.4713,5.2875,-17.9250,-39.3000,
4.049721,-0.1196,1.2900,-0.8446,-1.7366,-0.1130,0.4713,5.2875,-17.9250,-39.3000,
4.053358,-0.1196,1.2900,-0.8446,-1.7366,-0.1130,0.4713,5.2875,-17.9250,-39.3000,
4.055515,0.2469,0.1556,1.8736,-1.7366,-0.1130,0.4713,5.2875,-17.9250,-39.3000,
4.057966,0.2469,0.1556,1.8736,-1.7366,-0.1130,0.4713,5.2875,-17.9250,-39.3000,
4.072506,0.2469,0.1556,1.8736,-1.7366,-0.1130,0.4713,3.8250,-16.7625,-39.8438,
4.076769,0.2469,0.1556,1.8736,-0.9604,0.7890,0.3329,3.8250,-16.7625,-39.8438,
4.099183,0.2469,0.1556,1.8736,-0.9604,0.7890,0.3329,3.8250,-16.7625,-39.8438,
4.103450,0.2469,0.1556,1.8736,-0.9604,0.7890,0.3329,3.8250,-16.7625,-39.8438,
4.116662,1.3224,-0.0811,1.4805,-0.9604,0.7890,0.3329,3.8250,-16.7625,-39.8438,
4.121138,1.3224,-0.0811,1.4805,-0.9604,0.7890,0.3329,3.8250,-16.7625,-39.8438,
4.131096,1.3224,-0.0811,1.4805,-0.9604,0.7890,0.3329,2.8125,-14.8688,-40.5188,
4.155228,1.3224,-0.0811,1.4805,-0.9604,0.7890,0.3329,2.8125,-14.8688,-40.5188,
4.158088,1.3224,-0.0811,1.4805,-0.1519,1.2897,0.3300,2.8125,-14.8688,-40.5188,
4.177403,1.3224,-0.0811,1.4805,-0.1519,1.2897,0.3300,2.8125,-14.8688,-40.5188,
4.180806,1.3224,-0.0811,1.4805,-0.1519,1.2897,0.3300,2.8125,-14.8688,-40.5188,
4.183308,-1.0125,0.4380,1.6420,-0.1519,1.2897,0.3300,2.8125,-14.8688,-40.5188,
4.191294,-1.0125,0.4380,1.6420,-0.1519,1.2897,0.3300,2.3438,-12.3938,-41.2688,
4.200314,-1.0125,0.4380,1.6420,-0.1519,1.2897,0.3300,2.3438,-12.3938,-41.2688,
4.213946,-1.0125,0.4380,1.6420,0.3060,0.6273,0.3415,2.3438,-12.3938,-41.2688,
4.235709,-1.0125,0.4380,1.6420,0.3060,0.6273,0.3415,2.3438,-12.3938,-41.2688,
4.239632,-1.0125,0.4380,1.6420,0.3060,0.6273,0.3415,2.3438,-12.3938,-41.2688,
4.241870,-0.3277,0.8208,0.9213,0.3060,0.6273,0.3415,2.3438,-12.3938,-41.2688,
4.273704,-0.3277,0.8208,0.9213,0.3060,0.6273,0.3415,2.3438,-12.3938,-41.2688,
4.277553,-0.3277,0.8208,0.9213,0.3060,0.6273,0.3415,2.4938,-10.0875,-42.0938,
4.280614,-0.3277,0.8208,0.9213,0.3955,0.5501,0.2222,2.4938,-10.0875,-42.0938,
4.295964,-0.3277,0.8208,0.9213,0.3955,0.5501,0.2222,2.4938,-10.0875,-42.0938,
4.299097,-0.3277,0.8208,0.9213,0.3955,0.5501,0.2222,2.4938,-10.0875,-42.0938,
4.301130,0.4734,0.2636,-0.1497,0.3955,0.5501,0.2222,2.4938,-10.0875,-42.0938,
4.318613,0.4734,0.2636,-0.1497,0.3955,0.5501,0.2222,2.4938,-10.0875,-42.0938,
4.330738,0.4734,0.2636,-0.1497,0.3955,0.5501,0.2222,3.2250,-8.1562,-42.8625,
4.357016,0.4734,0.2636,-0.1497,0.3955,0.5501,0.2222,3.2250,-8.1562,-42.8625,
4.360375,0.4734,0.2636,-0.1497,0.3955,0.5501,0.2222,3.2250,-8.1562,-42.8625,
4.362924,0.4734,0.2636,-0.1497,0.2879,0.3586,0.1391,3.2250,-8.1562,-42.8625,
4.365774,0.4224,-0.2628,-0.2149,0.2879,0.3586,0.1391,3.2250,-8.1562,-42.8625,
4.381870,0.4224,-0.2628,-0.2149,0.2879,0.3586,0.1391,3.2250,-8.1562,-42.8625,
4.392553,0.4224,-0.2628,-0.2149,0.2879,0.3586,0.1391,4.2563,-6.8250,-43.4062,
4.415766,0.4224,-0.2628,-0.2149,0.2879,0.3586,0.1391,4.2563,-6.8250,-43.4062,
4.418947,0.4224,-0.2628,-0.2149,0.2879,0.3586,0.1391,4.2563,-6.8250,-43.4062,
4.421144,0.4224,-0.2628,-0.2149,0.2010,-0.0767,0.1225,4.2563,-6.8250,-43.4062,
4.424194,0.4572,-0.8037,0.2943,0.2010,-0.0767,0.1225,4.2563,-6.8250,-43.4062,
4.449225,0.4572,-0.8037,0.2943,0.2010,-0.0767,0.1225,4.2563,-6.8250,-43.4062,
4.471203,0.4572,-0.8037,0.2943,0.2010,-0.0767,0.1225,4.2563,-6.8250,-43.4062,
4.474952,0.4572,-0.8037,0.2943,0.2010,-0.0767,0.1225,5.3438,-6.0375,-43.7063,
4.478026,0.4572,-0.8037,0.2943,0.1490,-0.4474,0.0266,5.3438,-6.0375,-43.7063,
4.480377,0.4572,-0.8037,0.2943,0.1490,-0.4474,0.0266,5.3438,-6.0375,-43.7063,
4.483322,0.4436,-0.5511,0.8840,0.1490,-0.4474,0.0266,5.3438,-6.0375,-43.7063,
4.517921,0.4436,-0.5511,0.8840,0.1490,-0.4474,0.0266,5.3438,-6.0375,-43.7063,
4.521627,0.4436,-0.5511,0.8840,0.1490,-0.4474,0.0266,5.3438,-6.0375,-43.7063,
4.530242,0.4436,-0.5511,0.8840,0.1490,-0.4474,0.0266,6.2250,-5.9250,-43.7625,
4.534789,0.4436,-0.5511,0.8840,0.1490,-0.4474,0.0266,6.2250,-5.9250,-43.7625,
4.537281,1.3562,-0.1037,0.8911,0.1490,-0.4474,0.0266,6.2250,-5.9250,-43.7625,
4.554771,1.3562,-0.1037,0.8911,0.1095,-0.0572,-0.2248,6.2250,-5.9250,-43.7625,
4.583277,1.3562,-0.1037,0.8911,0.1095,-0.0572,-0.2248,6.2250,-5.9250,-43.7625,
4.586734,1.3562,-0.1037,0.8911,0.1095,-0.0572,-0.2248,6.2250,-5.9250,-43.7625,
4.593671,1.3562,-0.1037,0.8911,0.1095,-0.0572,-0.2248,7.0688,-6.3938,-43.7438,
4.598159,1.3562,-0.1037,0.8911,0.1095,-0.0572,-0.2248,7.0688,-6.3938,-43.7438,
4.600582,0.0092,-0.1884,0.4456,0.1095,-0.0572,-0.2248,7.0688,-6.3938,-43.7438,
4.615349,0.0092,-0.1884,0.4456,0.0425,0.1581,0.0958,7.0688,-6.3938,-43.7438,
4.653687,0.0092,-0.1884,0.4456,0.0425,0.1581,0.0958,7.0688,-6.3938,-43.7438,
4.657658,0.0092,-0.1884,0.4456,0.0425,0.1581,0.0958,7.0688,-6.3938,-43.7438,
4.659617,-1.6882,1.1392,1.3712,0.0425,0.1581,0.0958,7.0688,-6.3938,-43.7438,
4.662538,-1.6882,1.1392,1.3712,0.0425,0.1581,0.0958,7.0688,-6.3938,-43.7438,
4.672476,-1.6882,1.1392,1.3712,0.0425,0.1581,0.0958,7.6313,-7.1250,-43.6500,
4.678989,-1.6882,1.1392,1.3712,0.0847,-0.2149,0.7060,7.6313,-7.1250,-43.6500,
4.714857,-1.6882,1.1392,1.3712,0.0847,-0.2149,0.7060,7.6313,-7.1250,-43.6500,
4.716581,-1.6882,1.1392,1.3712,0.0847,-0.2149,0.7060,7.6313,-7.1250,-43.6500,
4.717400,-1.6882,1.1392,1.3712,0.0847,-0.2149,0.7060,7.6313,-7.1250,-43.6500,
4.718224,-0.3624,1.1148,1.7073,0.0847,-0.2149,0.7060,7.6313,-7.1250,-43.6500,
4.730564,-0.3624,1.1148,1.7073,0.0847,-0.2149,0.7060,7.6500,-8.0250,-43.5938,
4.758549,-0.3624,1.1148,1.7073,0.0847,-0.2149,0.7060,7.6500,-8.0250,-43.5938,
4.761904,-0.3624,1.1148,1.7073,0.4426,-0.4596,1.1099,7.6500,-8.0250,-43.5938,
4.775038,-0.3624,1.1148,1.7073,0.4426,-0.4596,1.1099,7.6500,-8.0250,-43.5938,
4.777258,-0.3624,1.1148,1.7073,0.4426,-0.4596,1.1099,7.6500,-8.0250,-43.5938,
4.778524,-0.0512,-1.0643,1.4517,0.4426,-0.4596,1.1099,7.6500,-8.0250,-43.5938,
4.788959,-0.0512,-1.0643,1.4517,0.4426,-0.4596,1.1099,7.2563,-8.9625,-43.5188,
4.819720,-0.0512,-1.0643,1.4517,0.5952,0.3790,0.8747,7.2563,-8.9625,-43.5188,
4.825519,-0.0512,-1.0643,1.4517,0.5952,0.3790,0.8747,7.2563,-8.9625,-43.5188,
4.837943,-0.0512,-1.0643,1.4517,0.5952,0.3790,0.8747,7.2563,-8.9625,-43.5188,
4.839974,-0.0512,-1.0643,1.4517,0.5952,0.3790,0.8747,7.2563,-8.9625,-43.5188,
4.841048,1.5837,-0.5087,-0.6861,0.5952,0.3790,0.8747,7.2563,-8.9625,-43.5188,
4.870193,1.5837,-0.5087,-0.6861,0.5952,0.3790,0.8747,6.8813,-9.9000,-43.4062,
4.872912,1.5837,-0.5087,-0.6861,0.5952,0.3790,0.8747,6.8813,-9.9000,-43.4062,
4.874117,1.5837,-0.5087,-0.6861,0.4717,1.5347,0.5829,6.8813,-9.9000,-43.4062,
4.894528,1.5837,-0.5087,-0.6861,0.4717,1.5347,0.5829,6.8813,-9.9000,-43.4062,
4.896684,1.5837,-0.5087,-0.6861,0.4717,1.5347,0.5829,6.8813,-9.9000,-43.4062,
4.897735,0.5153,0.0640,-1.6664,0.4717,1.5347,0.5829,6.8813,-9.9000,-43.4062,
4.929586,0.5153,0.0640,-1.6664,0.4717,1.5347,0.5829,6.8813,-9.9000,-43.4062,
4.931172,0.5153,0.0640,-1.6664,0.4717,1.5347,0.5829,7.0875,-10.8750,-43.0312,
4.957490,0.5153,0.0640,-1.6664,0.5204,1.3811,0.3883,7.0875,-10.8750,-43.0312,
4.961614,0.9855,-1.1631,0.1194,0.5204,1.3811,0.3883,7.0875,-10.8750,-43.0312,
4.964601,0.9855,-1.1631,0.1194,0.5204,1.3811,0.3883,7.0875,-10.8750,-43.0312,
4.966703,0.9855,-1.1631,0.1194,0.5204,1.3811,0.3883,7.0875,-10.8750,-43.0312,
4.981700,0.9855,-1.1631,0.1194,0.5204,1.3811,0.3883,7.0875,-10.8750,-43.0312,
4.989993,0.9855,-1.1631,0.1194,0.5204,1.3811,0.3883,7.5750,-12.0750,-42.5625,
5.017020,0.9855,-1.1631,0.1194,0.5204,1.3811,0.3883,7.5750,-12.0750,-42.5625,
5.020872,0.9855,-1.1631,0.1194,0.2542,1.2455,1.0446,7.5750,-12.0750,-42.5625,
5.024064,0.3344,-1.2473,-0.6974,0.2542,1.2455,1.0446,7.5750,-12.0750,-42.5625,
5.026825,0.3344,-1.2473,-0.6974,0.2542,1.2455,1.0446,7.5750,-12.0750,-42.5625,
5.049721,0.3344,-1.2473,-0.6974,0.2542,1.2455,1.0446,7.5750,-12.0750,-42.5625,
5.072761,0.3344,-1.2473,-0.6974,0.2542,1.2455,1.0446,7.5750,-12.0750,-42.5625,
5.075814,0.3344,-1.2473,-0.6974,0.2542,1.2455,1.0446,8.7000,-13.2375,-41.8875,
5.078491,0.3344,-1.2473,-0.6974,-0.0703,0.7306,0.9616,8.7000,-13.2375,-41.8875,
5.080739,0.3344,-1.2473,-0.6974,-0.0703,0.7306,0.9616,8.7000,-13.2375,-41.8875,
5.082869,0.8789,-1.1958,-1.3793,-0.0703,0.7306,0.9616,8.7000,-13.2375,-41.8875,
5.119301,0.8789,-1.1958,-1.3793,-0.0703,0.7306,0.9616,8.7000,-13.2375,-41.8875,
5.123624,0.8789,-1.1958,-1.3793,-0.0703,0.7306,0.9616,8.7000,-13.2375,-41.8875,
5.130751,0.8789,-1.1958,-1.3793,-0.0703,0.7306,0.9616,9.8063,-14.4750,-41.2125,
5.140497,0.8789,-1.1958,-1.3793,-0.0703,0.7306,0.9616,9.8063,-14.4750,-41.2125,
5.144150,0.2487,-2.0310,0.2783,-0.0703,0.7306,0.9616,9.8063,-14.4750,-41.2125,
5.157735,0.2487,-2.0310,0.2783,-0.0632,0.1936,1.0560,9.8063,-14.4750,-41.2125,
5.182721,0.2487,-2.0310,0.2783,-0.0632,0.1936,1.0560,9.8063,-14.4750,-41.2125,
5.186608,0.2487,-2.0310,0.2783,-0.0632,0.1936,1.0560,9.8063,-14.4750,-41.2125,
5.193504,0.2487,-2.0310,0.2783,-0.0632,0.1936,1.0560,10.6313,-15.6563,-40.6313,
5.199669,0.2487,-2.0310,0.2783,-0.0632,0.1936,1.0560,10.6313,-15.6563,-40.6313,
5.202040,-0.0412,-0.1316,-0.8801,-0.0632,0.1936,1.0560,10.6313,-15.6563,-40.6313,
5.215147,-0.0412,-0.1316,-0.8801,-0.6583,-0.0218,0.9964,10.6313,-15.6563,-40.6313,
5.246440,-0.0412,-0.1316,-0.8801,-0.6583,-0.0218,0.9964,10.6313,-15.6563,-40.6313,
5.248171,-0.0412,-0.1316,-0.8801,-0.6583,-0.0218,0.9964,10.6313,-15.6563,-40.6313,
5.255051,-0.0412,-0.1316,-0.8801,-0.6583,-0.0218,0.9964,10.6313,-15.6563,-40.6313,
5.256740,0.4981,0.6116,-0.9280,-0.6583,-0.0218,0.9964,10.6313,-15.6563,-40.6313,
5.271037,0.4981,0.6116,-0.9280,-0.6583,-0.0218,0.9964,11.6063,-16.5188,-40.0688,
5.275491,0.4981,0.6116,-0.9280,-1.0197,0.0366,0.6644,11.6063,-16.5188,-40.0688,
5.313128,0.4981,0.6116,-0.9280,-1.0197,0.0366,0.6644,11.6063,-16.5188,-40.0688,
5.314731,0.4981,0.6116,-0.9280,-1.0197,0.0366,0.6644,11.6063,-16.5188,-40.0688,
5.318726,0.9295,0.3216,-0.1903,-1.0197,0.0366,0.6644,11.6063,-16.5188,-40.0688,
5.320833,0.9295,0.3216,-0.1903,-1.0197,0.0366,0.6644,11.6063,-16.5188,-40.0688,
5.328808,0.9295,0.3216,-0.1903,-1.0197,0.0366,0.6644,12.6188,-16.8375,-39.7500,
5.355978,0.9295,0.3216,-0.1903,-0.9699,0.1579,0.5135,12.6188,-16.8375,-39.7500,
5.357947,0.9295,0.3216,-0.1903,-0.9699,0.1579,0.5135,12.6188,-16.8375,-39.7500,
5.376539,0.6638,-0.2382,0.5029,-0.9699,0.1579,0.5135,12.6188,-16.8375,-39.7500,
5.378346,0.6638,-0.2382,0.5029,-0.9699,0.1579,0.5135,12.6188,-16.8375,-39.7500,
5.379245,0.6638,-0.2382,0.5029,-0.9699,0.1579,0.5135,12.6188,-16.8375,-39.7500,
5.391965,0.6638,-0.2382,0.5029,-0.9699,0.1579,0.5135,13.5188,-16.6688,-39.5250,
5.415988,0.6638,-0.2382,0.5029,-0.6317,0.2159,0.2452,13.5188,-16.6688,-39.5250,
5.421115,0.6638,-0.2382,0.5029,-0.6317,0.2159,0.2452,13.5188,-16.6688,-39.5250,
5.426134,0.6638,-0.2382,0.5029,-0.6317,0.2159,0.2452,13.5188,-16.6688,-39.5250,
5.441115,1.2127,-0.3882,0.5108,-0.6317,0.2159,0.2452,13.5188,-16.6688,-39.5250,
5.448593,1.2127,-0.3882,0.5108,-0.6317,0.2159,0.2452,13.5188,-16.6688,-39.5250,
5.469561,1.2127,-0.3882,0.5108,-0.6317,0.2159,0.2452,13.5188,-16.6688,-39.5250,
5.470520,1.2127,-0.3882,0.5108,-0.6317,0.2159,0.2452,14.0250,-16.1438,-39.6375,
5.478225,1.2127,-0.3882,0.5108,-0.2450,0.3442,0.1030,14.0250,-16.1438,-39.6375,
5.494880,0.8967,0.1090,-0.5788,-0.2450,0.3442,0.1030,14.0250,-16.1438,-39.6375,
5.495881,0.8967,0.1090,-0.5788,-0.2450,0.3442,0.1030,14.0250,-16.1438,-39.6375,
5.496171,0.8967,0.1090,-0.5788,-0.2450,0.3442,0.1030,14.0250,-16.1438,-39.6375,
5.522373,0.8967,0.1090,-0.5788,-0.2450,0.3442,0.1030,14.0250,-16.1438,-39.6375,
5.531754,0.8967,0.1090,-0.5788,-0.2450,0.3442,0.1030,14.4563,-15.2063,-39.7313,
5.556029,0.8967,0.1090,-0.5788,-0.2450,0.3442,0.1030,14.4563,-15.2063,-39.7313,
5.557641,0.8967,0.1090,-0.5788,-0.2450,0.3442,0.1030,14.4563,-15.2063,-39.7313,
5.558485,0.8967,0.1090,-0.5788,-0.5896,0.6007,-0.2304,14.4563,-15.2063,-39.7313,
5.559593,0.1303,1.5069,1.7246,-0.5896,0.6007,-0.2304,14.4563,-15.2063,-39.7313,
5.580770,0.1303,1.5069,1.7246,-0.5896,0.6007,-0.2304,14.4563,-15.2063,-39.7313,
5.588583,0.1303,1.5069,1.7246,-0.5896,0.6007,-0.2304,14.4563,-14.0813,-40.0312,
5.616339,0.1303,1.5069,1.7246,-0.5896,0.6007,-0.2304,14.4563,-14.0813,-40.0312,
5.617988,0.1303,1.5069,1.7246,-0.5896,0.6007,-0.2304,14.4563,-14.0813,-40.0312,
5.618866,-3.5541,1.2566,2.0005,-0.5896,0.6007,-0.2304,14.4563,-14.0813,-40.0312,
5.620085,-3.5541,1.2566,2.0005,0.7357,-0.7561,0.4471,14.4563,-14.0813,-40.0312,
5.646338,-3.5541,1.2566,2.0005,0.7357,-0.7561,0.4471,14.4563,-14.0813,-40.0312,
5.668737,-3.5541,1.2566,2.0005,0.7357,-0.7561,0.4471,14.4563,-14.0813,-40.0312,
5.669555,-3.5541,1.2566,2.0005,0.7357,-0.7561,0.4471,14.3813,-13.1250,-40.2563,
5.674411,-3.5541,1.2566,2.0005,0.3610,-0.0161,-0.2869,14.3813,-13.1250,-40.2563,
5.675133,-3.5541,1.2566,2.0005,0.3610,-0.0161,-0.2869,14.3813,-13.1250,-40.2563,
5.675482,3.1984,0.5230,-1.6691,0.3610,-0.0161,-0.2869,14.3813,-13.1250,-40.2563,
5.713717,3.1984,0.5230,-1.6691,0.3610,-0.0161,-0.2869,14.3813,-13.1250,-40.2563,
5.724806,3.1984,0.5230,-1.6691,0.3610,-0.0161,-0.2869,14.3813,-13.1250,-40.2563,
5.728031,3.1984,0.5230,-1.6691,0.3610,-0.0161,-0.2869,14.2875,-12.3000,-40.4438,
5.733989,-0.6989,0.8043,-0.6261,0.3610,-0.0161,-0.2869,14.2875,-12.3000,-40.4438,
5.734826,-0.6989,0.8043,-0.6261,0.3610,-0.0161,-0.2869,14.2875,-12.3000,-40.4438,
5.755450,-0.6989,0.8043,-0.6261,0.6539,-0.8865,0.3844,14.2875,-12.3000,-40.4438,
5.780266,-0.6989,0.8043,-0.6261,0.6539,-0.8865,0.3844,14.2875,-12.3000,-40.4438,
5.781846,-0.6989,0.8043,-0.6261,0.6539,-0.8865,0.3844,14.2875,-12.3000,-40.4438,
5.788677,-0.6989,0.8043,-0.6261,0.6539,-0.8865,0.3844,14.1563,-12.0375,-40.5750,
5.797603,-0.6989,0.8043,-0.6261,0.6539,-0.8865,0.3844,14.1563,-12.0375,-40.5750,
5.798686,1.4035,0.4444,-0.6997,0.6539,-0.8865,0.3844,14.1563,-12.0375,-40.5750,
5.815339,1.4035,0.4444,-0.6997,0.2837,0.0605,0.2642,14.1563,-12.0375,-40.5750,
5.847285,1.4035,0.4444,-0.6997,0.2837,0.0605,0.2642,14.1563,-12.0375,-40.5750,
5.849222,1.4035,0.4444,-0.6997,0.2837,0.0605,0.2642,14.1563,-12.0375,-40.5750,
5.855676,1.4035,0.4444,-0.6997,0.2837,0.0605,0.2642,14.1563,-12.0375,-40.5750,
5.857433,-0.5626,0.8815,1.2151,0.2837,0.0605,0.2642,14.1563,-12.0375,-40.5750,
5.871197,-0.5626,0.8815,1.2151,0.2837,0.0605,0.2642,13.9875,-12.1875,-40.4250,
5.875158,-0.5626,0.8815,1.2151,0.6519,-1.1128,0.1828,13.9875,-12.1875,-40.4250,
5.917209,-0.5626,0.8815,1.2151,0.6519,-1.1128,0.1828,13.9875,-12.1875,-40.4250,
5.918903,-0.5626,0.8815,1.2151,0.6519,-1.1128,0.1828,13.9875,-12.1875,-40.4250,
5.919790,-0.5626,0.8815,1.2151,0.6519,-1.1128,0.1828,13.9875,-12.1875,-40.4250,
5.920558,0.2037,-1.3355,0.3745,0.6519,-1.1128,0.1828,13.9875,-12.1875,-40.4250,
5.929298,0.2037,-1.3355,0.3745,0.6519,-1.1128,0.1828,13.3313,-12.9375,-40.2000,
5.957169,0.2037,-1.3355,0.3745,0.9697,-0.7250,0.1024,13.3313,-12.9375,-40.2000,
5.959573,0.2037,-1.3355,0.3745,0.9697,-0.7250,0.1024,13.3313,-12.9375,-40.2000,
5.976333,-0.3582,-0.2226,0.1983,0.9697,-0.7250,0.1024,13.3313,-12.9375,-40.2000,
5.978683,-0.3582,-0.2226,0.1983,0.9697,-0.7250,0.1024,13.3313,-12.9375,-40.2000,
5.979666,-0.3582,-0.2226,0.1983,0.9697,-0.7250,0.1024,13.3313,-12.9375,-40.2000,
5.990112,-0.3582,-0.2226,0.1983,0.9697,-0.7250,0.1024,12.1688,-14.1750,-39.7125,
6.014898,-0.3582,-0.2226,0.1983,0.9697,-0.7250,0.1024,12.1688,-14.1750,-39.7125,
6.016330,-0.3582,-0.2226,0.1983,0.2589,-0.2705,0.0327,12.1688,-14.1750,-39.7125,
6.035429,0.1316,-0.1981,-0.1957,0.2589,-0.2705,0.0327,12.1688,-14.1750,-39.7125,
6.037522,0.1316,-0.1981,-0.1957,0.2589,-0.2705,0.0327,12.1688,-14.1750,-39.7125,
6.038329,0.1316,-0.1981,-0.1957,0.2589,-0.2705,0.0327,12.1688,-14.1750,-39.7125,
6.068772,0.1316,-0.1981,-0.1957,0.2589,-0.2705,0.0327,12.1688,-14.1750,-39.7125,
6.070242,0.1316,-0.1981,-0.1957,0.2589,-0.2705,0.0327,10.9875,-15.4125,-39.3000,
6.076247,0.1316,-0.1981,-0.1957,-0.4523,0.6099,-0.1856,10.9875,-15.4125,-39.3000,
6.095756,0.0101,0.5725,-0.9192,-0.4523,0.6099,-0.1856,10.9875,-15.4125,-39.3000,
6.097617,0.0101,0.5725,-0.9192,-0.4523,0.6099,-0.1856,10.9875,-15.4125,-39.3000,
6.098425,0.0101,0.5725,-0.9192,-0.4523,0.6099,-0.1856,10.9875,-15.4125,-39.3000,
6.130592,0.0101,0.5725,-0.9192,-0.4523,0.6099,-0.1856,10.0688,-16.6688,-38.9625,
6.133137,0.0101,0.5725,-0.9192,-0.4523,0.6099,-0.1856,10.0688,-16.6688,-38.9625,
6.157949,0.0101,0.5725,-0.9192,-0.3321,0.4138,-0.5556,10.0688,-16.6688,-38.9625,
6.162126,-0.2790,-0.5202,0.2376,-0.3321,0.4138,-0.5556,10.0688,-16.6688,-38.9625,
6.165087,-0.2790,-0.5202,0.2376,-0.3321,0.4138,-0.5556,10.0688,-16.6688,-38.9625,
6.167478,-0.2790,-0.5202,0.2376,-0.3321,0.4138,-0.5556,10.0688,-16.6688,-38.9625,
6.184001,-0.2790,-0.5202,0.2376,-0.3321,0.4138,-0.5556,10.0688,-16.6688,-38.9625,
6.192738,-0.2790,-0.5202,0.2376,-0.3321,0.4138,-0.5556,9.5063,-17.4938,-38.8688,
6.217881,-0.2790,-0.5202,0.2376,-0.3321,0.4138,-0.5556,9.5063,-17.4938,-38.8688,
6.221687,-0.2790,-0.5202,0.2376,-0.3321,0.4138,-0.5556,9.5063,-17.4938,-38.8688,
6.224111,-0.2790,-0.5202,0.2376,0.1151,0.2149,-0.3186,9.5063,-17.4938,-38.8688,
6.227112,-0.9836,-0.5897,-0.0425,0.1151,0.2149,-0.3186,9.5063,-17.4938,-38.8688,
6.248586,-0.9836,-0.5897,-0.0425,0.1151,0.2149,-0.3186,9.5063,-17.4938,-38.8688,
6.270862,-0.9836,-0.5897,-0.0425,0.1151,0.2149,-0.3186,9.5063,-17.4938,-38.8688,
6.274621,-0.9836,-0.5897,-0.0425,0.1151,0.2149,-0.3186,9.1313,-18.3750,-38.6063,
6.279641,-0.9836,-0.5897,-0.0425,0.6190,0.1463,-0.1414,9.1313,-18.3750,-38.6063,
6.282720,-0.9836,-0.5897,-0.0425,0.6190,0.1463,-0.1414,9.1313,-18.3750,-38.6063,
6.285141,-0.5080,-1.1151,0.8114,0.6190,0.1463,-0.1414,9.1313,-18.3750,-38.6063,
6.314327,-0.5080,-1.1151,0.8114,0.6190,0.1463,-0.1414,9.1313,-18.3750,-38.6063,
6.331315,-0.5080,-1.1151,0.8114,0.6190,0.1463,-0.1414,8.9062,-19.0312,-38.3063,
6.335120,-0.5080,-1.1151,0.8114,0.6190,0.1463,-0.1414,8.9062,-19.0312,-38.3063,
6.337116,-0.3903,-0.3642,0.5539,0.6190,0.1463,-0.1414,8.9062,-19.0312,-38.3063,
6.339707,-0.3903,-0.3642,0.5539,0.6190,0.1463,-0.1414,8.9062,-19.0312,-38.3063,
6.357235,-0.3903,-0.3642,0.5539,0.4421,0.0296,-0.1076,8.9062,-19.0312,-38.3063,
6.381619,-0.3903,-0.3642,0.5539,0.4421,0.0296,-0.1076,8.9062,-19.0312,-38.3063,
6.384832,-0.3903,-0.3642,0.5539,0.4421,0.0296,-0.1076,8.9062,-19.0312,-38.3063,
6.390999,-0.3903,-0.3642,0.5539,0.4421,0.0296,-0.1076,8.9813,-19.6500,-38.0438,
6.397998,-0.3903,-0.3642,0.5539,0.4421,0.0296,-0.1076,8.9813,-19.6500,-38.0438,
6.400843,0.7166,-0.2824,-1.1488,0.4421,0.0296,-0.1076,8.9813,-19.6500,-38.0438,
6.416923,0.7166,-0.2824,-1.1488,-0.5278,0.4797,-0.4955,8.9813,-19.6500,-38.0438,
6.438868,0.7166,-0.2824,-1.1488,-0.5278,0.4797,-0.4955,8.9813,-19.6500,-38.0438,
6.449093,0.7166,-0.2824,-1.1488,-0.5278,0.4797,-0.4955,8.9813,-19.6500,-38.0438,
6.459037,0.7166,-0.2824,-1.1488,-0.5278,0.4797,-0.4955,8.9813,-19.6500,-38.0438,
6.462700,-0.1557,0.7251,-1.4988,-0.5278,0.4797,-0.4955,8.9813,-19.6500,-38.0438,
6.474551,-0.1557,0.7251,-1.4988,-0.5278,0.4797,-0.4955,9.6188,-19.6875,-37.9875,
6.479517,-0.1557,0.7251,-1.4988,-0.9087,0.5152,-0.1294,9.6188,-19.6875,-37.9875,
6.515384,-0.1557,0.7251,-1.4988,-0.9087,0.5152,-0.1294,9.6188,-19.6875,-37.9875,
6.519270,-0.1557,0.7251,-1.4988,-0.9087,0.5152,-0.1294,9.6188,-19.6875,-37.9875,
6.522115,-0.5698,-0.0518,0.0564,-0.9087,0.5152,-0.1294,9.6188,-19.6875,-37.9875,
6.525441,-0.5698,-0.0518,0.0564,-0.9087,0.5152,-0.1294,9.6188,-19.6875,-37.9875,
6.532319,-0.5698,-0.0518,0.0564,-0.9087,0.5152,-0.1294,10.7812,-19.1438,-38.1562,
6.539689,-0.5698,-0.0518,0.0564,-0.3015,-0.0145,-0.1826,10.7812,-19.1438,-38.1562,
6.578970,-0.3451,0.1823,0.0407,-0.3015,-0.0145,-0.1826,10.7812,-19.1438,-38.1562,
6.584124,-0.3451,0.1823,0.0407,-0.3015,-0.0145,-0.1826,10.7812,-19.1438,-38.1562,
6.586492,-0.3451,0.1823,0.0407,-0.3015,-0.0145,-0.1826,10.7812,-19.1438,-38.1562,
6.588791,-0.3451,0.1823,0.0407,-0.3015,-0.0145,-0.1826,10.7812,-19.1438,-38.1562,
6.591156,-0.3451,0.1823,0.0407,-0.3015,-0.0145,-0.1826,11.9062,-18.5250,-38.4188,
6.619579,-0.3451,0.1823,0.0407,-0.3015,-0.0145,-0.1826,11.9062,-18.5250,-38.4188,
6.623709,-0.3451,0.1823,0.0407,-0.5470,0.3371,-0.2995,11.9062,-18.5250,-38.4188,
6.642160,0.8479,0.5192,-0.0349,-0.5470,0.3371,-0.2995,11.9062,-18.5250,-38.4188,
6.647043,0.8479,0.5192,-0.0349,-0.5470,0.3371,-0.2995,11.9062,-18.5250,-38.4188,
6.649711,0.8479,0.5192,-0.0349,-0.5470,0.3371,-0.2995,11.9062,-18.5250,-38.4188,
6.672086,0.8479,0.5192,-0.0349,-0.5470,0.3371,-0.2995,11.9062,-18.5250,-38.4188,
6.675434,0.8479,0.5192,-0.0349,-0.5470,0.3371,-0.2995,12.9563,-17.7750,-38.5312,
6.678105,0.8479,0.5192,-0.0349,-0.5969,0.3499,-0.4342,12.9563,-17.7750,-38.5312,
6.697749,0.8479,0.5192,-0.0349,-0.5969,0.3499,-0.4342,12.9563,-17.7750,-38.5312,
6.701211,0.8479,0.5192,-0.0349,-0.5969,0.3499,-0.4342,12.9563,-17.7750,-38.5312,
6.703877,0.5433,0.2194,1.0821,-0.5969,0.3499,-0.4342,12.9563,-17.7750,-38.5312,
6.734633,0.5433,0.2194,1.0821,-0.5969,0.3499,-0.4342,12.9563,-17.7750,-38.5312,
6.738720,0.5433,0.2194,1.0821,-0.5969,0.3499,-0.4342,13.8188,-16.9500,-38.5875,
6.743516,0.5433,0.2194,1.0821,-0.5969,0.1713,-0.6318,13.8188,-16.9500,-38.5875,
6.759300,0.5433,0.2194,1.0821,-0.5969,0.1713,-0.6318,13.8188,-16.9500,-38.5875,
6.762240,0.5433,0.2194,1.0821,-0.5969,0.1713,-0.6318,13.8188,-16.9500,-38.5875,
6.763856,0.2381,-0.4014,1.4720,-0.5969,0.1713,-0.6318,13.8188,-16.9500,-38.5875,
6.781343,0.2381,-0.4014,1.4720,-0.5969,0.1713,-0.6318,13.8188,-16.9500,-38.5875,
6.792076,0.2381,-0.4014,1.4720,-0.5969,0.1713,-0.6318,14.6813,-15.6750,-38.8313,
6.816371,0.2381,-0.4014,1.4720,-0.5969,0.1713,-0.6318,14.6813,-15.6750,-38.8313,
6.817124,0.2381,-0.4014,1.4720,-0.5969,0.1713,-0.6318,14.6813,-15.6750,-38.8313,
6.818470,0.2381,-0.4014,1.4720,-0.1862,-0.5808,-0.6686,14.6813,-15.6750,-38.8313,
6.819063,-0.8587,-1.4378,2.6918,-0.1862,-0.5808,-0.6686,14.6813,-15.6750,-38.8313,
6.848493,-0.8587,-1.4378,2.6918,-0.1862,-0.5808,-0.6686,14.6813,-15.6750,-38.8313,
6.869380,-0.8587,-1.4378,2.6918,-0.1862,-0.5808,-0.6686,14.6813,-15.6750,-38.8313,
6.871525,-0.8587,-1.4378,2.6918,-0.1862,-0.5808,-0.6686,15.3375,-14.1938,-39.0938,
6.876332,-0.8587,-1.4378,2.6918,0.8518,-0.4933,-0.2343,15.3375,-14.1938,-39.0938,
6.877816,-0.8587,-1.4378,2.6918,0.8518,-0.4933,-0.2343,15.3375,-14.1938,-39.0938,
6.878652,-1.6192,-1.0348,2.5072,0.8518,-0.4933,-0.2343,15.3375,-14.1938,-39.0938,
6.914776,-1.6192,-1.0348,2.5072,0.8518,-0.4933,-0.2343,15.3375,-14.1938,-39.0938,
6.929136,-1.6192,-1.0348,2.5072,0.8518,-0.4933,-0.2343,15.3375,-14.1938,-39.0938,
6.930862,-1.6192,-1.0348,2.5072,0.8518,-0.4933,-0.2343,15.6375,-12.9750,-39.3750,
6.938103,-1.6192,-1.0348,2.5072,1.1812,-0.1350,0.2188,15.6375,-12.9750,-39.3750,
6.939806,-1.1725,-0.2434,0.8155,1.1812,-0.1350,0.2188,15.6375,-12.9750,-39.3750,
6.941002,-1.1725,-0.2434,0.8155,1.1812,-0.1350,0.2188,15.6375,-12.9750,-39.3750,
6.982815,-1.1725,-0.2434,0.8155,1.1812,-0.1350,0.2188,15.6375,-12.9750,-39.3750,
6.986074,-1.1725,-0.2434,0.8155,1.1812,-0.1350,0.2188,15.6375,-12.9750,-39.3750,
6.992276,-1.1725,-0.2434,0.8155,1.1812,-0.1350,0.2188,15.7125,-12.6188,-39.4875,
6.997535,-0.5459,0.5003,-0.7722,1.1812,-0.1350,0.2188,15.7125,-12.6188,-39.4875,
7.000511,-0.5459,0.5003,-0.7722,1.1812,-0.1350,0.2188,15.7125,-12.6188,-39.4875,
7.017265,-0.5459,0.5003,-0.7722,0.8456,0.1748,0.3050,15.7125,-12.6188,-39.4875,
7.048707,-0.5459,0.5003,-0.7722,0.8456,0.1748,0.3050,15.7125,-12.6188,-39.4875,
7.052617,-0.5459,0.5003,-0.7722,0.8456,0.1748,0.3050,15.7125,-12.6188,-39.4875,
7.059157,0.2511,-0.2662,-1.0043,0.8456,0.1748,0.3050,15.7125,-12.6188,-39.4875,
7.063624,0.2511,-0.2662,-1.0043,0.8456,0.1748,0.3050,15.7125,-12.6188,-39.4875,
7.073111,0.2511,-0.2662,-1.0043,0.8456,0.1748,0.3050,15.5625,-12.7688,-39.3563,
7.079526,0.2511,-0.2662,-1.0043,0.7757,0.0827,0.3396,15.5625,-12.7688,-39.3563,
7.115201,0.2511,-0.2662,-1.0043,0.7757,0.0827,0.3396,15.5625,-12.7688,-39.3563,
7.118605,0.2511,-0.2662,-1.0043,0.7757,0.0827,0.3396,15.5625,-12.7688,-39.3563,
7.120786,0.2695,0.1378,-1.6197,0.7757,0.0827,0.3396,15.5625,-12.7688,-39.3563,
7.124416,0.2695,0.1378,-1.6197,0.7757,0.0827,0.3396,15.5625,-12.7688,-39.3563,
7.133132,0.2695,0.1378,-1.6197,0.7757,0.0827,0.3396,15.3375,-13.3500,-38.9438,
7.137780,0.2695,0.1378,-1.6197,0.1940,-0.0832,0.1605,15.3375,-13.3500,-38.9438,
7.178681,0.2695,0.1378,-1.6197,0.1940,-0.0832,0.1605,15.3375,-13.3500,-38.9438,
7.182563,0.2695,0.1378,-1.6197,0.1940,-0.0832,0.1605,15.3375,-13.3500,-38.9438,
7.184821,0.2695,0.1378,-1.6197,0.1940,-0.0832,0.1605,15.3375,-13.3500,-38.9438,
7.186827,0.4956,0.4991,-1.7908,0.1940,-0.0832,0.1605,15.3375,-13.3500,-38.9438,
7.194760,0.4956,0.4991,-1.7908,0.1940,-0.0832,0.1605,14.8313,-14.1938,-38.6813,
7.218279,0.4956,0.4991,-1.7908,0.1940,-0.0832,0.1605,14.8313,-14.1938,-38.6813,
7.222023,0.4956,0.4991,-1.7908,0.0392,-0.3411,0.0747,14.8313,-14.1938,-38.6813,
7.240972,0.9444,0.4315,-1.2140,0.0392,-0.3411,0.0747,14.8313,-14.1938,-38.6813,
7.245661,0.9444,0.4315,-1.2140,0.0392,-0.3411,0.0747,14.8313,-14.1938,-38.6813,
7.248135,0.9444,0.4315,-1.2140,0.0392,-0.3411,0.0747,14.8313,-14.1938,-38.6813,
7.271357,0.9444,0.4315,-1.2140,0.0392,-0.3411,0.0747,14.8313,-14.1938,-38.6813,
7.275313,0.9444,0.4315,-1.2140,0.0392,-0.3411,0.0747,14.2125,-15.1500,-38.4000,
7.279948,0.9444,0.4315,-1.2140,-0.1468,0.3013,0.1468,14.2125,-15.1500,-38.4000,
7.298157,0.9444,0.4315,-1.2140,-0.1468,0.3013,0.1468,14.2125,-15.1500,-38.4000,
7.301300,0.9444,0.4315,-1.2140,-0.1468,0.3013,0.1468,14.2125,-15.1500,-38.4000,
7.303994,1.5410,-0.0112,-1.5084,-0.1468,0.3013,0.1468,14.2125,-15.1500,-38.4000,
7.330086,1.5410,-0.0112,-1.5084,-0.1468,0.3013,0.1468,14.2125,-15.1500,-38.4000,
7.333310,1.5410,-0.0112,-1.5084,-0.1468,0.3013,0.1468,13.5750,-16.6500,-38.1375,
7.341527,1.5410,-0.0112,-1.5084,0.0806,0.0204,-0.0032,13.5750,-16.6500,-38.1375,
7.363271,1.5410,-0.0112,-1.5084,0.0806,0.0204,-0.0032,13.5750,-16.6500,-38.1375,
7.366670,1.5410,-0.0112,-1.5084,0.0806,0.0204,-0.0032,13.5750,-16.6500,-38.1375,
7.368808,0.9856,0.0742,-0.3478,0.0806,0.0204,-0.0032,13.5750,-16.6500,-38.1375,
7.383221,0.9856,0.0742,-0.3478,0.0806,0.0204,-0.0032,13.5750,-16.6500,-38.1375,
7.390680,0.9856,0.0742,-0.3478,0.0806,0.0204,-0.0032,13.0125,-18.0750,-37.8188,
7.420209,0.9856,0.0742,-0.3478,0.0806,0.0204,-0.0032,13.0125,-18.0750,-37.8188,
7.424475,0.9856,0.0742,-0.3478,0.0806,0.0204,-0.0032,13.0125,-18.0750,-37.8188,
7.426726,0.9856,0.0742,-0.3478,-0.0368,-0.0467,-0.0244,13.0125,-18.0750,-37.8188,
7.429048,0.6071,0.3091,-0.4824,-0.0368,-0.0467,-0.0244,13.0125,-18.0750,-37.8188,
7.449659,0.6071,0.3091,-0.4824,-0.0368,-0.0467,-0.0244,13.0125,-18.0750,-37.8188,
7.473015,0.6071,0.3091,-0.4824,-0.0368,-0.0467,-0.0244,13.0125,-18.0750,-37.8188,
7.476374,0.6071,0.3091,-0.4824,-0.0368,-0.0467,-0.0244,12.6938,-19.2188,-37.5750,
7.479146,0.6071,0.3091,-0.4824,-0.0686,-0.0518,-0.0746,12.6938,-19.2188,-37.5750,
7.481880,0.2315,0.1867,-0.0439,-0.0686,-0.0518,-0.0746,12.6938,-19.2188,-37.5750,
7.484404,0.2315,0.1867,-0.0439,-0.0686,-0.0518,-0.0746,12.6938,-19.2188,-37.5750,
7.516707,0.2315,0.1867,-0.0439,-0.0686,-0.0518,-0.0746,12.6938,-19.2188,-37.5750,
7.529233,0.2315,0.1867,-0.0439,-0.0686,-0.0518,-0.0746,12.3938,-19.9688,-37.3500,
7.531033,0.2315,0.1867,-0.0439,-0.0686,-0.0518,-0.0746,12.3938,-19.9688,-37.3500,
7.539786,0.2315,0.1867,-0.0439,0.1620,-0.0342,-0.0312,12.3938,-19.9688,-37.3500,
7.541794,0.2315,0.1867,-0.0439,0.1620,-0.0342,-0.0312,12.3938,-19.9688,-37.3500,
7.542822,-0.1477,0.0079,0.2479,0.1620,-0.0342,-0.0312,12.3938,-19.9688,-37.3500,
7.579899,-0.1477,0.0079,0.2479,0.1620,-0.0342,-0.0312,12.3938,-19.9688,-37.3500,
7.581480,-0.1477,0.0079,0.2479,0.1620,-0.0342,-0.0312,12.3938,-19.9688,-37.3500,
7.589607,-0.1477,0.0079,0.2479,0.1620,-0.0342,-0.0312,12.2625,-20.3625,-37.1625,
7.598760,-0.2492,-0.1943,0.4358,0.1620,-0.0342,-0.0312,12.2625,-20.3625,-37.1625,
7.600772,-0.2492,-0.1943,0.4358,0.1620,-0.0342,-0.0312,12.2625,-20.3625,-37.1625,
7.617003,-0.2492,-0.1943,0.4358,0.1414,-0.0562,0.0551,12.2625,-20.3625,-37.1625,
7.648262,-0.2492,-0.1943,0.4358,0.1414,-0.0562,0.0551,12.2625,-20.3625,-37.1625,
7.649478,-0.2492,-0.1943,0.4358,0.1414,-0.0562,0.0551,12.2625,-20.3625,-37.1625,
7.657572,-0.4435,-0.0502,-0.6065,0.1414,-0.0562,0.0551,12.2625,-20.3625,-37.1625,
7.659292,-0.4435,-0.0502,-0.6065,0.1414,-0.0562,0.0551,12.2625,-20.3625,-37.1625,
7.673901,-0.4435,-0.0502,-0.6065,0.1414,-0.0562,0.0551,11.9625,-20.4375,-37.2750,
7.677768,-0.4435,-0.0502,-0.6065,0.0183,-0.1236,-0.1387,11.9625,-20.4375,-37.2750,
7.715307,-0.4435,-0.0502,-0.6065,0.0183,-0.1236,-0.1387,11.9625,-20.4375,-37.2750,
7.716752,-0.4435,-0.0502,-0.6065,0.0183,-0.1236,-0.1387,11.9625,-20.4375,-37.2750,
7.719719,-0.4223,0.1066,0.2621,0.0183,-0.1236,-0.1387,11.9625,-20.4375,-37.2750,
7.721371,-0.4223,0.1066,0.2621,0.0183,-0.1236,-0.1387,11.9625,-20.4375,-37.2750,
7.729765,-0.4223,0.1066,0.2621,0.0183,-0.1236,-0.1387,12.0375,-20.6250,-37.3500,
7.739380,-0.4223,0.1066,0.2621,-0.0325,0.0376,0.1866,12.0375,-20.6250,-37.3500,
7.778303,-0.4223,0.1066,0.2621,-0.0325,0.0376,0.1866,12.0375,-20.6250,-37.3500,
7.781980,-0.4223,0.1066,0.2621,-0.0325,0.0376,0.1866,12.0375,-20.6250,-37.3500,
7.784280,-0.4223,0.1066,0.2621,-0.0325,0.0376,0.1866,12.0375,-20.6250,-37.3500,
7.786363,-0.3300,0.2599,-0.1300,-0.0325,0.0376,0.1866,12.0375,-20.6250,-37.3500,
7.792816,-0.3300,0.2599,-0.1300,-0.0325,0.0376,0.1866,11.9250,-20.8875,-37.4250,
7.818874,-0.3300,0.2599,-0.1300,-0.0325,0.0376,0.1866,11.9250,-20.8875,-37.4250,
7.822861,-0.3300,0.2599,-0.1300,0.1033,-0.1623,0.0745,11.9250,-20.8875,-37.4250,
7.839684,-0.3300,0.2599,-0.1300,0.1033,-0.1623,0.0745,11.9250,-20.8875,-37.4250,
7.842948,-0.3300,0.2599,-0.1300,0.1033,-0.1623,0.0745,11.9250,-20.8875,-37.4250,
7.845146,0.0026,-0.1962,0.4125,0.1033,-0.1623,0.0745,11.9250,-20.8875,-37.4250,
7.870629,0.0026,-0.1962,0.4125,0.1033,-0.1623,0.0745,11.7563,-20.9625,-37.4062,
7.875605,0.0026,-0.1962,0.4125,0.1033,-0.1623,0.0745,11.7563,-20.9625,-37.4062,
7.880146,0.0026,-0.1962,0.4125,0.0556,-0.0067,0.1319,11.7563,-20.9625,-37.4062,
7.901188,0.0026,-0.1962,0.4125,0.0556,-0.0067,0.1319,11.7563,-20.9625,-37.4062,
7.905165,0.0026,-0.1962,0.4125,0.0556,-0.0067,0.1319,11.7563,-20.9625,-37.4062,
7.907546,0.2699,0.2103,-0.0451,0.0556,-0.0067,0.1319,11.7563,-20.9625,-37.4062,
7.932479,0.2699,0.2103,-0.0451,0.0556,-0.0067,0.1319,11.6250,-21.1313,-37.4062,
7.937163,0.2699,0.2103,-0.0451,0.0556,-0.0067,0.1319,11.6250,-21.1313,-37.4062,
7.939633,0.2699,0.2103,-0.0451,0.0157,0.0173,0.0965,11.6250,-21.1313,-37.4062,
7.959862,0.2726,0.1309,0.1433,0.0157,0.0173,0.0965,11.6250,-21.1313,-37.4062,
7.964634,0.2726,0.1309,0.1433,0.0157,0.0173,0.0965,11.6250,-21.1313,-37.4062,
7.966818,0.2726,0.1309,0.1433,0.0157,0.0173,0.0965,11.6250,-21.1313,-37.4062,
7.983115,0.2726,0.1309,0.1433,0.0157,0.0173,0.0965,11.6250,-21.1313,-37.4062,
7.991767,0.2726,0.1309,0.1433,0.0157,0.0173,0.0965,11.5312,-21.2438,-37.3125,
8.019006,0.2726,0.1309,0.1433,0.0370,-0.1321,0.0053,11.5312,-21.2438,-37.3125,
8.023519,0.0840,-0.2150,0.3966,0.0370,-0.1321,0.0053,11.5312,-21.2438,-37.3125,
8.026694,0.0840,-0.2150,0.3966,0.0370,-0.1321,0.0053,11.5312,-21.2438,-37.3125,
8.029059,0.0840,-0.2150,0.3966,0.0370,-0.1321,0.0053,11.5312,-21.2438,-37.3125,
8.051354,0.0840,-0.2150,0.3966,0.0370,-0.1321,0.0053,11.5312,-21.2438,-37.3125,
8.073214,0.0840,-0.2150,0.3966,0.0370,-0.1321,0.0053,11.5312,-21.2438,-37.3125,
8.075952,0.0840,-0.2150,0.3966,0.0370,-0.1321,0.0053,11.3813,-21.3000,-37.4062,
8.080847,0.0840,-0.2150,0.3966,0.1400,-0.0479,0.1043,11.3813,-21.3000,-37.4062,
8.083393,0.0840,-0.2150,0.3966,0.1400,-0.0479,0.1043,11.3813,-21.3000,-37.4062,
8.084545,-0.1185,-0.1493,0.2910,0.1400,-0.0479,0.1043,11.3813,-21.3000,-37.4062,
8.113877,-0.1185,-0.1493,0.2910,0.1400,-0.0479,0.1043,11.3813,-21.3000,-37.4062,
8.129865,-0.1185,-0.1493,0.2910,0.1400,-0.0479,0.1043,11.3813,-21.3000,-37.4062,
8.132409,-0.1185,-0.1493,0.2910,0.1400,-0.0479,0.1043,11.1188,-21.5063,-37.4438,
8.138517,-0.1185,-0.1493,0.2910,0.4594,-0.0412,0.1102,11.1188,-21.5063,-37.4438,
8.141160,-0.1185,-0.1493,0.2910,0.4594,-0.0412,0.1102,11.1188,-21.5063,-37.4438,
8.142977,0.0522,-0.0951,-0.2578,0.4594,-0.0412,0.1102,11.1188,-21.5063,-37.4438,
8.180843,0.0522,-0.0951,-0.2578,0.4594,-0.0412,0.1102,11.1188,-21.5063,-37.4438,
8.182914,0.0522,-0.0951,-0.2578,0.4594,-0.0412,0.1102,11.1188,-21.5063,-37.4438,
8.196902,0.0522,-0.0951,-0.2578,0.4594,-0.0412,0.1102,10.9875,-21.8813,-37.4250,
