
time,ax,ay,az,wx,wy,wz,Bx,By,Bz,
0.146319,0.0000,0.0000,0.0000,0.0000,0.0000,0.0000,0.0000,0.0000,0.0000,
0.147129,0.0000,0.0000,0.0000,0.0000,0.0000,0.0000,0.0000,0.0000,0.0000,
0.147905,0.0000,0.0000,0.0000,0.0000,0.0000,0.0000,0.0000,0.0000,0.0000,
0.148555,0.0000,0.0000,0.0000,0.0000,0.0000,0.0000,0.0000,0.0000,0.0000,
0.149052,0.0000,0.0000,0.0000,0.0000,0.0000,0.0000,0.0000,0.0000,0.0000,
0.149525,0.0000,0.0000,0.0000,0.0000,0.0000,0.0000,0.0000,0.0000,0.0000,
0.167073,0.0000,0.0000,0.0000,0.0882,-0.0782,-0.0777,0.0000,0.0000,0.0000,
0.187782,0.0000,0.0000,0.0000,0.0882,-0.0782,-0.0777,0.0000,0.0000,0.0000,
0.188660,0.0000,0.0000,0.0000,0.0882,-0.0782,-0.0777,0.0000,0.0000,0.0000,
0.216655,0.0000,0.0000,0.0000,0.0882,-0.0782,-0.0777,0.0000,0.0000,0.0000,
0.217975,0.0000,0.0000,0.0000,0.0882,-0.0782,-0.0777,0.0000,0.0000,0.0000,
0.218901,0.0000,0.0000,0.0000,0.0882,-0.0782,-0.0777,0.0000,0.0000,0.0000,
0.219764,0.0000,0.0000,0.0000,0.0019,0.0206,-0.1663,0.0000,0.0000,0.0000,
0.221250,0.0000,0.0000,0.0000,0.0019,0.0206,-0.1663,-32.5500,28.6500,3.2250,
0.253284,0.0000,0.0000,0.0000,0.0019,0.0206,-0.1663,-32.5500,28.6500,3.2250,
0.281238,0.0000,0.0000,0.0000,0.0019,0.0206,-0.1663,-32.5500,28.6500,3.2250,
0.282770,0.0000,0.0000,0.0000,0.0019,0.0206,-0.1663,-32.5500,28.6500,3.2250,
0.283739,0.0000,0.0000,0.0000,-0.0152,0.0208,-0.1416,-32.5500,28.6500,3.2250,
0.285059,-0.2106,-0.0089,0.1237,-0.0152,0.0208,-0.1416,-32.5500,28.6500,3.2250,
0.298903,-0.2106,-0.0089,0.1237,-0.0152,0.0208,-0.1416,-32.5500,28.6500,3.2250,
0.300167,-0.2106,-0.0089,0.1237,-0.0152,0.0208,-0.1416,-32.6625,28.5000,3.6938,
0.319897,-0.2106,-0.0089,0.1237,-0.0152,0.0208,-0.1416,-32.6625,28.5000,3.6938,
0.337577,-0.2106,-0.0089,0.1237,-0.0152,0.0208,-0.1416,-32.6625,28.5000,3.6938,
0.340234,-0.1820,0.0863,0.0536,-0.0152,0.0208,-0.1416,-32.6625,28.5000,3.6938,
0.359124,-0.1820,0.0863,0.0536,-0.0261,0.0220,-0.0921,-32.6625,28.5000,3.6938,
0.362990,-0.1820,0.0863,0.0536,-0.0261,0.0220,-0.0921,-32.6625,28.5000,3.6938,
0.365689,-0.1820,0.0863,0.0536,-0.0261,0.0220,-0.0921,-33.0563,28.9313,3.4125,
0.387680,-0.1820,0.0863,0.0536,-0.0261,0.0220,-0.0921,-33.0563,28.9313,3.4125,
0.398144,-0.1392,0.1342,0.1179,-0.0261,0.0220,-0.0921,-33.0563,28.9313,3.4125,
0.400577,-0.1392,0.1342,0.1179,-0.0261,0.0220,-0.0921,-33.0563,28.9313,3.4125,
0.419020,-0.1392,0.1342,0.1179,-0.0303,0.0238,-0.0317,-33.0563,28.9313,3.4125,
0.421283,-0.1392,0.1342,0.1179,-0.0303,0.0238,-0.0317,-33.0563,28.9313,3.4125,
0.422350,-0.1392,0.1342,0.1179,-0.0303,0.0238,-0.0317,-33.0563,28.9313,3.1875,
0.451962,-0.1392,0.1342,0.1179,-0.0303,0.0238,-0.0317,-33.0563,28.9313,3.1875,
0.459108,-0.1392,0.1342,0.1179,-0.0303,0.0238,-0.0317,-33.0563,28.9313,3.1875,
0.461556,-0.0572,0.1818,0.1831,-0.0303,0.0238,-0.0317,-33.0563,28.9313,3.1875,
0.478866,-0.0572,0.1818,0.1831,-0.0096,0.0149,0.0134,-33.0563,28.9313,3.1875,
0.496113,-0.0572,0.1818,0.1831,-0.0096,0.0149,0.0134,-33.0938,28.8375,3.1688,
0.498840,-0.0572,0.1818,0.1831,-0.0096,0.0149,0.0134,-33.0938,28.8375,3.1688,
0.500460,-0.0572,0.1818,0.1831,-0.0096,0.0149,0.0134,-33.0938,28.8375,3.1688,
0.517108,-0.0572,0.1818,0.1831,-0.0096,0.0149,0.0134,-33.0938,28.8375,3.1688,
0.519277,0.0446,0.1909,0.1478,-0.0096,0.0149,0.0134,-33.0938,28.8375,3.1688,
0.559049,0.0446,0.1909,0.1478,-0.0096,0.0149,0.0134,-33.0938,28.8375,3.1688,
0.560603,0.0446,0.1909,0.1478,-0.0096,0.0149,0.0134,-33.0188,28.8563,3.0750,
0.562139,0.0446,0.1909,0.1478,-0.0096,0.0149,0.0134,-33.0188,28.8563,3.0750,
0.563065,0.0446,0.1909,0.1478,-0.0155,0.0140,0.0208,-33.0188,28.8563,3.0750,
0.578698,0.1092,0.1608,0.0988,-0.0155,0.0140,0.0208,-33.0188,28.8563,3.0750,
0.580507,0.1092,0.1608,0.0988,-0.0155,0.0140,0.0208,-33.0188,28.8563,3.0750,
0.618539,0.1092,0.1608,0.0988,-0.0155,0.0140,0.0208,-33.0188,28.8563,3.0750,
0.619856,0.1092,0.1608,0.0988,-0.0155,0.0140,0.0208,-33.0188,28.8563,3.0750,
0.621074,0.1092,0.1608,0.0988,-0.0020,0.0222,0.0166,-33.0188,28.8563,3.0750,
0.622357,0.1092,0.1608,0.0988,-0.0020,0.0222,0.0166,-33.0563,28.8938,3.0938,
0.638639,0.1092,0.1608,0.0988,-0.0020,0.0222,0.0166,-33.0563,28.8938,3.0938,
0.640714,0.1418,0.0999,0.1661,-0.0020,0.0222,0.0166,-33.0563,28.8938,3.0938,
0.677288,0.1418,0.0999,0.1661,-0.0020,0.0222,0.0166,-33.0563,28.8938,3.0938,
0.680359,0.1418,0.0999,0.1661,0.0121,0.0131,0.0458,-33.0563,28.8938,3.0938,
0.699560,0.1418,0.0999,0.1661,0.0121,0.0131,0.0458,-33.0563,28.8938,3.0938,
0.702645,0.1418,0.0999,0.1661,0.0121,0.0131,0.0458,-33.0563,28.8938,3.0938,
0.704668,0.0410,0.0405,0.1596,0.0121,0.0131,0.0458,-33.0563,28.8938,3.0938,
0.707281,0.0410,0.0405,0.1596,0.0121,0.0131,0.0458,-33.1125,28.9500,3.0938,
0.719949,0.0410,0.0405,0.1596,0.0121,0.0131,0.0458,-33.1125,28.9500,3.0938,
0.762304,0.0410,0.0405,0.1596,0.0121,0.0131,0.0458,-33.1125,28.9500,3.0938,
0.765742,0.0410,0.0405,0.1596,0.0121,0.0131,0.0458,-33.1125,28.9500,3.0938,
0.767936,0.0410,0.0405,0.1596,0.0294,-0.0169,0.0702,-33.1125,28.9500,3.0938,
0.770932,0.0410,0.0405,0.1596,0.0294,-0.0169,0.0702,-33.2250,28.9500,3.0938,
0.773182,0.0356,-0.0041,0.1370,0.0294,-0.0169,0.0702,-33.2250,28.9500,3.0938,
0.785675,0.0356,-0.0041,0.1370,0.0294,-0.0169,0.0702,-33.2250,28.9500,3.0938,
0.818295,0.0356,-0.0041,0.1370,0.0294,-0.0169,0.0702,-33.2250,28.9500,3.0938,
0.820961,0.0356,-0.0041,0.1370,0.0294,-0.0169,0.0702,-33.2250,28.9500,3.0938,
0.822816,0.0356,-0.0041,0.1370,0.0369,-0.0250,0.0918,-33.2250,28.9500,3.0938,
0.824637,0.0356,-0.0041,0.1370,0.0369,-0.0250,0.0918,-33.3000,29.0625,2.9250,
0.826507,0.0447,-0.0040,0.0829,0.0369,-0.0250,0.0918,-33.3000,29.0625,2.9250,
0.858251,0.0447,-0.0040,0.0829,0.0369,-0.0250,0.0918,-33.3000,29.0625,2.9250,
0.878000,0.0447,-0.0040,0.0829,0.0188,-0.0200,0.0609,-33.3000,29.0625,2.9250,
0.879586,0.1588,0.0189,-0.0813,0.0188,-0.0200,0.0609,-33.3000,29.0625,2.9250,
0.881066,0.1588,0.0189,-0.0813,0.0188,-0.0200,0.0609,-33.3000,29.0625,2.9250,
0.881991,0.1588,0.0189,-0.0813,0.0188,-0.0200,0.0609,-33.3000,29.0625,2.9250,
0.899058,0.1588,0.0189,-0.0813,0.0188,-0.0200,0.0609,-33.0938,29.0063,3.0000,
0.900509,0.1588,0.0189,-0.0813,0.0188,-0.0200,0.0609,-33.0938,29.0063,3.0000,
0.921895,0.1588,0.0189,-0.0813,0.0188,-0.0200,0.0609,-33.0938,29.0063,3.0000,
0.938833,0.1499,-0.0370,-0.0037,0.0188,-0.0200,0.0609,-33.0938,29.0063,3.0000,
0.940231,0.1499,-0.0370,-0.0037,0.0188,-0.0200,0.0609,-33.0938,29.0063,3.0000,
0.959238,0.1499,-0.0370,-0.0037,0.0233,-0.0021,0.0568,-33.0938,29.0063,3.0000,
0.961529,0.1499,-0.0370,-0.0037,0.0233,-0.0021,0.0568,-33.0938,29.0063,3.0000,
0.963059,0.1499,-0.0370,-0.0037,0.0233,-0.0021,0.0568,-33.0000,29.0438,3.0188,
0.986616,0.1499,-0.0370,-0.0037,0.0233,-0.0021,0.0568,-33.0000,29.0438,3.0188,
0.997003,0.0069,-0.0899,0.0176,0.0233,-0.0021,0.0568,-33.0000,29.0438,3.0188,
1.000332,0.0069,-0.0899,0.0176,0.0233,-0.0021,0.0568,-33.0000,29.0438,3.0188,
1.017720,0.0069,-0.0899,0.0176,0.0108,-0.0289,0.0626,-33.0000,29.0438,3.0188,
1.020464,0.0069,-0.0899,0.0176,0.0108,-0.0289,0.0626,-33.0000,29.0438,3.0188,
1.022107,0.0069,-0.0899,0.0176,0.0108,-0.0289,0.0626,-32.9250,29.1563,2.9625,
1.052848,0.0069,-0.0899,0.0176,0.0108,-0.0289,0.0626,-32.9250,29.1563,2.9625,
1.060311,0.1330,-0.0367,-0.1185,0.0108,-0.0289,0.0626,-32.9250,29.1563,2.9625,
1.063698,0.1330,-0.0367,-0.1185,0.0108,-0.0289,0.0626,-32.9250,29.1563,2.9625,
1.080475,0.1330,-0.0367,-0.1185,-0.0016,-0.0199,0.0402,-32.9250,29.1563,2.9625,
1.098892,0.1330,-0.0367,-0.1185,-0.0016,-0.0199,0.0402,-32.9250,29.1563,2.9625,
1.101430,0.1330,-0.0367,-0.1185,-0.0016,-0.0199,0.0402,-32.9250,29.1563,2.9625,
1.102979,0.1330,-0.0367,-0.1185,-0.0016,-0.0199,0.0402,-32.8500,29.1938,3.0188,
1.123834,0.1330,-0.0367,-0.1185,-0.0016,-0.0199,0.0402,-32.8500,29.1938,3.0188,
1.126469,0.0764,-0.0237,0.0816,-0.0016,-0.0199,0.0402,-32.8500,29.1938,3.0188,
1.157855,0.0764,-0.0237,0.0816,-0.0016,-0.0199,0.0402,-32.8500,29.1938,3.0188,
1.159210,0.0764,-0.0237,0.0816,-0.0016,-0.0199,0.0402,-32.7563,29.2688,2.9813,
1.160825,0.0764,-0.0237,0.0816,-0.0016,-0.0199,0.0402,-32.7563,29.2688,2.9813,
1.161936,0.0764,-0.0237,0.0816,0.0011,-0.0163,0.0308,-32.7563,29.2688,2.9813,
1.177551,0.0764,-0.0237,0.0816,0.0011,-0.0163,0.0308,-32.7563,29.2688,2.9813,
1.179027,0.0929,0.0210,-0.0238,0.0011,-0.0163,0.0308,-32.7563,29.2688,2.9813,
1.218579,0.0929,0.0210,-0.0238,0.0079,-0.0123,0.0209,-32.7563,29.2688,2.9813,
1.220193,0.0929,0.0210,-0.0238,0.0079,-0.0123,0.0209,-32.6063,29.3063,2.9813,
1.221417,0.0929,0.0210,-0.0238,0.0079,-0.0123,0.0209,-32.6063,29.3063,2.9813,
1.222379,0.0929,0.0210,-0.0238,0.0079,-0.0123,0.0209,-32.6063,29.3063,2.9813,
1.241653,-0.0011,0.0356,0.0261,0.0079,-0.0123,0.0209,-32.6063,29.3063,2.9813,
1.245129,-0.0011,0.0356,0.0261,0.0079,-0.0123,0.0209,-32.6063,29.3063,2.9813,
1.279051,-0.0011,0.0356,0.0261,0.0079,-0.0123,0.0209,-32.6063,29.3063,2.9813,
1.283408,-0.0011,0.0356,0.0261,0.0082,0.0053,-0.0033,-32.6063,29.3063,2.9813,
1.298237,0.0680,0.0000,0.0275,0.0082,0.0053,-0.0033,-32.6063,29.3063,2.9813,
1.301303,0.0680,0.0000,0.0275,0.0082,0.0053,-0.0033,-32.4750,29.4188,2.9062,
1.303393,0.0680,0.0000,0.0275,0.0082,0.0053,-0.0033,-32.4750,29.4188,2.9062,
1.304687,0.0680,0.0000,0.0275,0.0082,0.0053,-0.0033,-32.4750,29.4188,2.9062,
1.319575,0.0680,0.0000,0.0275,0.0082,0.0053,-0.0033,-32.4750,29.4188,2.9062,
1.359939,-0.0374,-0.0542,0.0562,0.0082,0.0053,-0.0033,-32.4750,29.4188,2.9062,
1.363598,-0.0374,-0.0542,0.0562,0.0208,0.0042,0.0085,-32.4750,29.4188,2.9062,
1.366777,-0.0374,-0.0542,0.0562,0.0208,0.0042,0.0085,-32.4750,29.4188,2.9062,
1.369588,-0.0374,-0.0542,0.0562,0.0208,0.0042,0.0085,-32.4750,29.4188,2.9062,
1.372099,-0.0374,-0.0542,0.0562,0.0208,0.0042,0.0085,-32.4000,29.6063,2.8875,
1.387395,-0.0374,-0.0542,0.0562,0.0208,0.0042,0.0085,-32.4000,29.6063,2.8875,
1.419435,-0.0374,-0.0542,0.0562,0.0208,0.0042,0.0085,-32.4000,29.6063,2.8875,
1.422286,-0.0374,-0.0542,0.0562,0.0208,0.0042,0.0085,-32.4000,29.6063,2.8875,
1.423931,-0.0374,-0.0542,0.0562,0.0208,0.0042,0.0085,-32.4750,29.7000,2.8875,
1.425586,-0.0374,-0.0542,0.0562,0.0118,0.0006,-0.0016,-32.4750,29.7000,2.8875,
1.427051,0.0378,-0.0612,-0.0361,0.0118,0.0006,-0.0016,-32.4750,29.7000,2.8875,
1.453474,0.0378,-0.0612,-0.0361,0.0118,0.0006,-0.0016,-32.4750,29.7000,2.8875,
1.479312,0.0378,-0.0612,-0.0361,0.0118,0.0006,-0.0016,-32.4750,29.7000,2.8875,
1.480626,0.0378,-0.0612,-0.0361,0.0118,0.0006,-0.0016,-32.4750,29.7000,2.8875,
1.481524,0.0567,-0.0922,-0.0467,0.0118,0.0006,-0.0016,-32.4750,29.7000,2.8875,
1.482685,0.0567,-0.0922,-0.0467,0.0030,0.0131,-0.0014,-32.4750,29.7000,2.8875,
1.496897,0.0567,-0.0922,-0.0467,0.0030,0.0131,-0.0014,-32.4750,29.7000,2.8875,
1.498322,0.0567,-0.0922,-0.0467,0.0030,0.0131,-0.0014,-32.3813,29.8500,2.9062,
1.520192,0.0567,-0.0922,-0.0467,0.0030,0.0131,-0.0014,-32.3813,29.8500,2.9062,
1.541418,0.0567,-0.0922,-0.0467,0.0030,0.0131,-0.0014,-32.3813,29.8500,2.9062,
1.544422,0.0562,-0.0585,0.0021,0.0030,0.0131,-0.0014,-32.3813,29.8500,2.9062,
1.561309,0.0562,-0.0585,0.0021,0.0030,0.0131,-0.0014,-32.3250,30.0563,2.9625,
1.564995,0.0562,-0.0585,0.0021,-0.0073,0.0039,0.0035,-32.3250,30.0563,2.9625,
1.586903,0.0562,-0.0585,0.0021,-0.0073,0.0039,0.0035,-32.3250,30.0563,2.9625,
1.589894,0.0562,-0.0585,0.0021,-0.0073,0.0039,0.0035,-32.3250,30.0563,2.9625,
1.599649,0.0562,-0.0585,0.0021,-0.0073,0.0039,0.0035,-32.3250,30.0563,2.9625,
1.603541,0.1160,0.0041,-0.0803,-0.0073,0.0039,0.0035,-32.3250,30.0563,2.9625,
1.617345,0.1160,0.0041,-0.0803,-0.0104,0.0031,-0.0078,-32.3250,30.0563,2.9625,
1.620251,0.1160,0.0041,-0.0803,-0.0104,0.0031,-0.0078,-32.3250,30.0563,2.9625,
1.622008,0.1160,0.0041,-0.0803,-0.0104,0.0031,-0.0078,-32.3438,30.0938,2.9438,
1.653763,0.1160,0.0041,-0.0803,-0.0104,0.0031,-0.0078,-32.3438,30.0938,2.9438,
1.657317,0.0366,0.0167,0.0139,-0.0104,0.0031,-0.0078,-32.3438,30.0938,2.9438,
1.659796,0.0366,0.0167,0.0139,-0.0104,0.0031,-0.0078,-32.3438,30.0938,2.9438,
1.677790,0.0366,0.0167,0.0139,-0.0192,-0.0009,-0.0244,-32.3438,30.0938,2.9438,
1.698366,0.0366,0.0167,0.0139,-0.0192,-0.0009,-0.0244,-32.3438,30.0938,2.9438,
1.700827,0.0366,0.0167,0.0139,-0.0192,-0.0009,-0.0244,-32.2688,30.1500,2.9813,
1.720825,0.0366,0.0167,0.0139,-0.0192,-0.0009,-0.0244,-32.2688,30.1500,2.9813,
1.723482,0.0366,0.0167,0.0139,-0.0192,-0.0009,-0.0244,-32.2688,30.1500,2.9813,
1.724844,0.0864,0.0439,-0.0139,-0.0192,-0.0009,-0.0244,-32.2688,30.1500,2.9813,
1.760871,0.0864,0.0439,-0.0139,-0.0192,-0.0009,-0.0244,-32.2688,30.1500,2.9813,
1.762720,0.0864,0.0439,-0.0139,-0.0192,-0.0009,-0.0244,-32.1750,30.1875,2.8875,
1.764382,0.0864,0.0439,-0.0139,-0.0118,0.0318,-0.0469,-32.1750,30.1875,2.8875,
1.777788,0.0864,0.0439,-0.0139,-0.0118,0.0318,-0.0469,-32.1750,30.1875,2.8875,
1.780087,0.0864,0.0439,-0.0139,-0.0118,0.0318,-0.0469,-32.1750,30.1875,2.8875,
1.781768,-0.0202,-0.0018,0.1288,-0.0118,0.0318,-0.0469,-32.1750,30.1875,2.8875,
1.817692,-0.0202,-0.0018,0.1288,-0.0118,0.0318,-0.0469,-32.1750,30.1875,2.8875,
1.819733,-0.0202,-0.0018,0.1288,-0.0118,0.0318,-0.0469,-32.1750,30.1875,2.8875,
1.821117,-0.0202,-0.0018,0.1288,-0.0105,0.0166,-0.0367,-32.1750,30.1875,2.8875,
1.822353,-0.0202,-0.0018,0.1288,-0.0105,0.0166,-0.0367,-32.1750,30.2063,2.7750,
1.841238,-0.0582,0.0083,-0.0120,-0.0105,0.0166,-0.0367,-32.1750,30.2063,2.7750,
1.844337,-0.0582,0.0083,-0.0120,-0.0105,0.0166,-0.0367,-32.1750,30.2063,2.7750,
1.880731,-0.0582,0.0083,-0.0120,-0.0145,0.0180,-0.0428,-32.1750,30.2063,2.7750,
1.884409,-0.0582,0.0083,-0.0120,-0.0145,0.0180,-0.0428,-32.1750,30.2063,2.7750,
1.900506,-0.0582,0.0083,-0.0120,-0.0145,0.0180,-0.0428,-32.1562,30.1688,2.8500,
1.903650,0.0148,0.0312,0.0022,-0.0145,0.0180,-0.0428,-32.1562,30.1688,2.8500,
1.906940,0.0148,0.0312,0.0022,-0.0145,0.0180,-0.0428,-32.1562,30.1688,2.8500,
1.909061,0.0148,0.0312,0.0022,-0.0145,0.0180,-0.0428,-32.1562,30.1688,2.8500,
1.921591,0.0148,0.0312,0.0022,-0.0145,0.0180,-0.0428,-32.1562,30.1688,2.8500,
1.959303,0.0148,0.0312,0.0022,-0.0145,0.0180,-0.0428,-32.1562,30.1688,2.8500,
1.962203,0.0148,0.0312,0.0022,-0.0145,0.0180,-0.0428,-32.1562,30.1688,2.8500,
1.964301,0.0148,0.0312,0.0022,-0.0145,0.0180,-0.0428,-32.1562,30.0750,2.7188,
1.967352,0.0148,0.0312,0.0022,-0.0359,0.0086,-0.0540,-32.1562,30.0750,2.7188,
1.970062,0.0153,0.0934,-0.0511,-0.0359,0.0086,-0.0540,-32.1562,30.0750,2.7188,
1.987931,0.0153,0.0934,-0.0511,-0.0359,0.0086,-0.0540,-32.1562,30.0750,2.7188,
2.019981,0.0153,0.0934,-0.0511,-0.0359,0.0086,-0.0540,-32.2875,29.9250,2.7938,
2.024292,0.0153,0.0934,-0.0511,-0.0240,0.0067,-0.0515,-32.2875,29.9250,2.7938,
2.026464,-0.0405,0.0852,0.0901,-0.0240,0.0067,-0.0515,-32.2875,29.9250,2.7938,
2.028564,-0.0405,0.0852,0.0901,-0.0240,0.0067,-0.0515,-32.2875,29.9250,2.7938,
2.030069,-0.0405,0.0852,0.0901,-0.0240,0.0067,-0.0515,-32.2875,29.9250,2.7938,
2.052633,-0.0405,0.0852,0.0901,-0.0240,0.0067,-0.0515,-32.2875,29.9250,2.7938,
2.061101,-0.0405,0.0852,0.0901,-0.0240,0.0067,-0.0515,-32.2875,29.9250,2.7938,
2.079973,-0.0405,0.0852,0.0901,-0.0240,0.0067,-0.0515,-32.2875,29.9250,2.7938,
2.081293,-0.0405,0.0852,0.0901,-0.0073,0.0247,-0.0470,-32.2875,29.9250,2.7938,
2.082282,-0.0361,0.0161,0.1269,-0.0073,0.0247,-0.0470,-32.2875,29.9250,2.7938,
2.098296,-0.0361,0.0161,0.1269,-0.0073,0.0247,-0.0470,-32.2688,29.7000,2.7938,
2.119215,-0.0361,0.0161,0.1269,-0.0073,0.0247,-0.0470,-32.2688,29.7000,2.7938,
2.120593,-0.0361,0.0161,0.1269,-0.0073,0.0247,-0.0470,-32.2688,29.7000,2.7938,
2.139229,-0.0361,0.0161,0.1269,-0.0073,0.0247,-0.0470,-32.2688,29.7000,2.7938,
2.140630,0.0311,0.0437,-0.1357,-0.0073,0.0247,-0.0470,-32.2688,29.7000,2.7938,
2.161438,0.0311,0.0437,-0.1357,-0.0073,0.0247,-0.0470,-32.4375,29.6250,2.7938,
2.164537,0.0311,0.0437,-0.1357,-0.0398,0.0076,-0.0419,-32.4375,29.6250,2.7938,
2.188259,0.0311,0.0437,-0.1357,-0.0398,0.0076,-0.0419,-32.4375,29.6250,2.7938,
2.193029,0.0311,0.0437,-0.1357,-0.0398,0.0076,-0.0419,-32.4375,29.6250,2.7938,
2.202766,0.0311,0.0437,-0.1357,-0.0398,0.0076,-0.0419,-32.4375,29.6250,2.7938,
2.206577,-0.0167,0.0836,-0.0096,-0.0398,0.0076,-0.0419,-32.4375,29.6250,2.7938,
2.219480,-0.0167,0.0836,-0.0096,-0.0470,-0.0012,-0.0399,-32.4375,29.6250,2.7938,
2.222065,-0.0167,0.0836,-0.0096,-0.0470,-0.0012,-0.0399,-32.6250,29.4563,2.7000,
2.253184,-0.0167,0.0836,-0.0096,-0.0470,-0.0012,-0.0399,-32.6250,29.4563,2.7000,
2.255457,-0.0167,0.0836,-0.0096,-0.0470,-0.0012,-0.0399,-32.6250,29.4563,2.7000,
2.264914,0.0780,0.1444,-0.1126,-0.0470,-0.0012,-0.0399,-32.6250,29.4563,2.7000,
2.266483,0.0780,0.1444,-0.1126,-0.0470,-0.0012,-0.0399,-32.6250,29.4563,2.7000,
2.282186,0.0780,0.1444,-0.1126,-0.0610,-0.0112,-0.0278,-32.6250,29.4563,2.7000,
2.298057,0.0780,0.1444,-0.1126,-0.0610,-0.0112,-0.0278,-32.6250,29.4563,2.7000,
2.299400,0.0780,0.1444,-0.1126,-0.0610,-0.0112,-0.0278,-32.8313,29.2688,2.9062,
2.320546,-0.1138,0.1154,0.0856,-0.0610,-0.0112,-0.0278,-32.8313,29.2688,2.9062,
2.322447,-0.1138,0.1154,0.0856,-0.0610,-0.0112,-0.0278,-32.8313,29.2688,2.9062,
2.323569,-0.1138,0.1154,0.0856,-0.0610,-0.0112,-0.0278,-32.8313,29.2688,2.9062,
2.361010,-0.1138,0.1154,0.0856,-0.0610,-0.0112,-0.0278,-32.8313,29.2688,2.9062,
2.362255,-0.1138,0.1154,0.0856,-0.0610,-0.0112,-0.0278,-32.9625,29.1563,3.0938,
2.363406,-0.1138,0.1154,0.0856,-0.0500,-0.0155,0.0131,-32.9625,29.1563,3.0938,
2.382282,-0.1138,0.1154,0.0856,-0.0500,-0.0155,0.0131,-32.9625,29.1563,3.0938,
2.383646,-0.1138,0.1154,0.0856,-0.0500,-0.0155,0.0131,-32.9625,29.1563,3.0938,
2.384721,-0.1023,0.1636,0.0845,-0.0500,-0.0155,0.0131,-32.9625,29.1563,3.0938,
2.418229,-0.1023,0.1636,0.0845,-0.0500,-0.0155,0.0131,-32.9625,29.1563,3.0938,
2.420589,-0.1023,0.1636,0.0845,-0.0500,-0.0155,0.0131,-33.0563,29.0250,3.0938,
2.422879,-0.1023,0.1636,0.0845,-0.0192,-0.0111,0.0312,-33.0563,29.0250,3.0938,
2.441557,-0.1023,0.1636,0.0845,-0.0192,-0.0111,0.0312,-33.0563,29.0250,3.0938,
2.444504,-0.1023,0.1636,0.0845,-0.0192,-0.0111,0.0312,-33.0563,29.0250,3.0938,
2.446801,0.0043,0.2005,0.1295,-0.0192,-0.0111,0.0312,-33.0563,29.0250,3.0938,
2.478929,0.0043,0.2005,0.1295,-0.0192,-0.0111,0.0312,-33.0563,29.0250,3.0938,
2.481684,0.0043,0.2005,0.1295,-0.0114,0.0076,0.0156,-33.0563,29.0250,3.0938,
2.498742,0.0043,0.2005,0.1295,-0.0114,0.0076,0.0156,-33.0563,28.9125,3.2813,
2.501235,0.1168,0.2029,0.0552,-0.0114,0.0076,0.0156,-33.0563,28.9125,3.2813,
2.502754,0.1168,0.2029,0.0552,-0.0114,0.0076,0.0156,-33.0563,28.9125,3.2813,
2.504229,0.1168,0.2029,0.0552,-0.0114,0.0076,0.0156,-33.0563,28.9125,3.2813,
2.520964,0.1168,0.2029,0.0552,-0.0114,0.0076,0.0156,-33.0563,28.9125,3.2813,
2.560341,0.1168,0.2029,0.0552,-0.0114,0.0076,0.0156,-33.1875,28.8188,3.2625,
2.562680,0.2234,0.1681,0.0212,-0.0114,0.0076,0.0156,-33.1875,28.8188,3.2625,
2.564190,0.2234,0.1681,0.0212,-0.0105,0.0315,0.0051,-33.1875,28.8188,3.2625,
2.565698,0.2234,0.1681,0.0212,-0.0105,0.0315,0.0051,-33.1875,28.8188,3.2625,
2.566867,0.2234,0.1681,0.0212,-0.0105,0.0315,0.0051,-33.1875,28.8188,3.2625,
2.587103,0.2234,0.1681,0.0212,-0.0105,0.0315,0.0051,-33.1875,28.8188,3.2625,
2.619188,0.2234,0.1681,0.0212,-0.0105,0.0315,0.0051,-33.1875,28.8188,3.2625,
2.621520,0.2234,0.1681,0.0212,-0.0105,0.0315,0.0051,-33.1875,28.8188,3.2625,
2.622794,0.2234,0.1681,0.0212,0.0198,0.0307,0.0376,-33.1875,28.8188,3.2625,
2.624972,0.3326,0.0672,-0.0232,0.0198,0.0307,0.0376,-33.1875,28.8188,3.2625,
2.627209,0.3326,0.0672,-0.0232,0.0198,0.0307,0.0376,-33.3563,28.7625,3.2813,
2.653169,0.3326,0.0672,-0.0232,0.0198,0.0307,0.0376,-33.3563,28.7625,3.2813,
2.680573,0.3326,0.0672,-0.0232,0.0198,0.0307,0.0376,-33.3563,28.7625,3.2813,
2.682121,0.3326,0.0672,-0.0232,0.0198,0.0307,0.0376,-33.3563,28.7625,3.2813,
2.683269,0.3326,0.0672,-0.0232,0.0203,0.0350,0.0622,-33.3563,28.7625,3.2813,
2.685369,0.6118,0.1068,-0.3180,0.0203,0.0350,0.0622,-33.3563,28.7625,3.2813,
2.698524,0.6118,0.1068,-0.3180,0.0203,0.0350,0.0622,-33.2625,28.7063,3.3000,
2.722420,0.6118,0.1068,-0.3180,0.0203,0.0350,0.0622,-33.2625,28.7063,3.3000,
2.723953,0.6118,0.1068,-0.3180,0.0203,0.0350,0.0622,-33.2625,28.7063,3.3000,
2.738919,0.6118,0.1068,-0.3180,0.0203,0.0350,0.0622,-33.2625,28.7063,3.3000,
2.740218,0.8184,0.2692,-0.6983,0.0203,0.0350,0.0622,-33.2625,28.7063,3.3000,
2.757498,0.8184,0.2692,-0.6983,0.0203,0.0350,0.0622,-33.1688,28.7250,3.3375,
2.760476,0.8184,0.2692,-0.6983,-0.0179,-0.0247,0.0608,-33.1688,28.7250,3.3375,
2.787654,0.8184,0.2692,-0.6983,-0.0179,-0.0247,0.0608,-33.1688,28.7250,3.3375,
2.789291,0.8184,0.2692,-0.6983,-0.0179,-0.0247,0.0608,-33.1688,28.7250,3.3375,
2.799270,0.9797,0.4984,-1.0385,-0.0179,-0.0247,0.0608,-33.1688,28.7250,3.3375,
2.801728,0.9797,0.4984,-1.0385,-0.0179,-0.0247,0.0608,-33.1688,28.7250,3.3375,
2.818788,0.9797,0.4984,-1.0385,-0.0179,-0.0247,0.0608,-33.0563,28.8000,3.3563,
2.821461,0.9797,0.4984,-1.0385,-0.1418,-0.0195,0.0210,-33.0563,28.8000,3.3563,
2.852762,0.9797,0.4984,-1.0385,-0.1418,-0.0195,0.0210,-33.0563,28.8000,3.3563,
2.855482,0.9797,0.4984,-1.0385,-0.1418,-0.0195,0.0210,-33.0563,28.8000,3.3563,
2.860314,0.9797,0.4984,-1.0385,-0.1418,-0.0195,0.0210,-33.0563,28.8000,3.3563,
2.861911,0.6804,0.7508,-0.9879,-0.1418,-0.0195,0.0210,-33.0563,28.8000,3.3563,
2.880546,0.6804,0.7508,-0.9879,-0.2097,-0.0454,0.0431,-33.0563,28.8000,3.3563,
2.897261,0.6804,0.7508,-0.9879,-0.2097,-0.0454,0.0431,-33.0563,28.8000,3.3563,
2.899222,0.6804,0.7508,-0.9879,-0.2097,-0.0454,0.0431,-33.0000,28.8750,3.4875,
2.920668,0.6804,0.7508,-0.9879,-0.2097,-0.0454,0.0431,-33.0000,28.8750,3.4875,
2.923085,0.6804,0.7508,-0.9879,-0.2097,-0.0454,0.0431,-33.0000,28.8750,3.4875,
2.925701,0.2388,0.9557,-0.8289,-0.2097,-0.0454,0.0431,-33.0000,28.8750,3.4875,
2.958012,0.2388,0.9557,-0.8289,-0.2097,-0.0454,0.0431,-33.0000,28.8750,3.4875,
2.959967,0.2388,0.9557,-0.8289,-0.2060,-0.0673,0.1119,-33.0000,28.8750,3.4875,
2.961777,0.2388,0.9557,-0.8289,-0.2060,-0.0673,0.1119,-32.8688,28.8000,3.7500,
2.978271,0.0582,1.1965,-0.5494,-0.2060,-0.0673,0.1119,-32.8688,28.8000,3.7500,
2.980981,0.0582,1.1965,-0.5494,-0.2060,-0.0673,0.1119,-32.8688,28.8000,3.7500,
2.982234,0.0582,1.1965,-0.5494,-0.2060,-0.0673,0.1119,-32.8688,28.8000,3.7500,
3.020216,0.0582,1.1965,-0.5494,-0.2060,-0.0673,0.1119,-32.7375,28.8938,4.0312,
3.022908,0.0582,1.1965,-0.5494,-0.1581,-0.1054,0.1916,-32.7375,28.8938,4.0312,
3.025230,0.0582,1.1965,-0.5494,-0.1581,-0.1054,0.1916,-32.7375,28.8938,4.0312,
3.040632,0.0582,1.1965,-0.5494,-0.1581,-0.1054,0.1916,-32.7375,28.8938,4.0312,
3.042582,0.0582,1.1965,-0.5494,-0.1581,-0.1054,0.1916,-32.7375,28.8938,4.0312,
3.043932,0.2117,1.2029,-0.0619,-0.1581,-0.1054,0.1916,-32.7375,28.8938,4.0312,
3.061446,0.2117,1.2029,-0.0619,-0.1581,-0.1054,0.1916,-32.7375,28.8938,4.0312,
3.078122,0.2117,1.2029,-0.0619,-0.0692,0.1147,0.1833,-32.7375,28.8938,4.0312,
3.097061,0.2117,1.2029,-0.0619,-0.0692,0.1147,0.1833,-32.7375,28.8938,4.0312,
3.099580,0.2117,1.2029,-0.0619,-0.0692,0.1147,0.1833,-32.5125,29.0813,4.3500,
3.102066,0.7562,1.4055,-0.7238,-0.0692,0.1147,0.1833,-32.5125,29.0813,4.3500,
3.104414,0.7562,1.4055,-0.7238,-0.0692,0.1147,0.1833,-32.5125,29.0813,4.3500,
3.119629,0.7562,1.4055,-0.7238,-0.0692,0.1147,0.1833,-32.5125,29.0813,4.3500,
3.160589,0.7562,1.4055,-0.7238,-0.0692,0.1147,0.1833,-32.5125,29.0813,4.3500,
3.162626,0.7562,1.4055,-0.7238,-0.0692,0.1147,0.1833,-32.3063,29.1938,4.5938,
3.164359,0.7562,1.4055,-0.7238,0.1840,0.0692,0.3541,-32.3063,29.1938,4.5938,
3.166585,0.5017,1.5162,-1.0244,0.1840,0.0692,0.3541,-32.3063,29.1938,4.5938,
3.169781,0.5017,1.5162,-1.0244,0.1840,0.0692,0.3541,-32.3063,29.1938,4.5938,
3.186231,0.5017,1.5162,-1.0244,0.1840,0.0692,0.3541,-32.3063,29.1938,4.5938,
3.217360,0.5017,1.5162,-1.0244,0.1840,0.0692,0.3541,-32.1375,29.3813,4.9875,
3.222128,0.5017,1.5162,-1.0244,0.1840,0.0692,0.3541,-32.1375,29.3813,4.9875,
3.227382,0.5017,1.5162,-1.0244,0.2564,0.1063,0.3260,-32.1375,29.3813,4.9875,
3.230092,0.9142,2.0943,-2.8970,0.2564,0.1063,0.3260,-32.1375,29.3813,4.9875,
3.232579,0.9142,2.0943,-2.8970,0.2564,0.1063,0.3260,-32.1375,29.3813,4.9875,
3.253775,0.9142,2.0943,-2.8970,0.2564,0.1063,0.3260,-32.1375,29.3813,4.9875,
3.279493,0.9142,2.0943,-2.8970,0.0590,-0.2190,0.0495,-32.1375,29.3813,4.9875,
3.282786,1.4130,2.1759,-2.7779,0.0590,-0.2190,0.0495,-32.1375,29.3813,4.9875,
3.285822,1.4130,2.1759,-2.7779,0.0590,-0.2190,0.0495,-32.1375,29.3813,4.9875,
3.287382,1.4130,2.1759,-2.7779,0.0590,-0.2190,0.0495,-32.1375,29.3813,4.9875,
3.299287,1.4130,2.1759,-2.7779,0.0590,-0.2190,0.0495,-31.8750,29.5500,5.3250,
3.321334,1.4130,2.1759,-2.7779,0.0590,-0.2190,0.0495,-31.8750,29.5500,5.3250,
3.322818,1.4130,2.1759,-2.7779,0.0590,-0.2190,0.0495,-31.8750,29.5500,5.3250,
3.341979,1.1258,1.8563,-1.8680,0.0590,-0.2190,0.0495,-31.8750,29.5500,5.3250,
3.345378,1.1258,1.8563,-1.8680,0.0590,-0.2190,0.0495,-31.8750,29.5500,5.3250,
3.360516,1.1258,1.8563,-1.8680,0.0590,-0.2190,0.0495,-31.6875,29.6625,5.6063,
3.363606,1.1258,1.8563,-1.8680,0.1293,-0.0992,0.2819,-31.6875,29.6625,5.6063,
3.386651,1.1258,1.8563,-1.8680,0.1293,-0.0992,0.2819,-31.6875,29.6625,5.6063,
3.389260,1.1258,1.8563,-1.8680,0.1293,-0.0992,0.2819,-31.6875,29.6625,5.6063,
3.399503,0.0120,2.3972,-3.0260,0.1293,-0.0992,0.2819,-31.6875,29.6625,5.6063,
3.402110,0.0120,2.3972,-3.0260,0.1293,-0.0992,0.2819,-31.6875,29.6625,5.6063,
3.416015,0.0120,2.3972,-3.0260,0.1293,-0.0992,0.2819,-31.2188,29.9063,6.0188,
3.418931,0.0120,2.3972,-3.0260,0.2732,-1.2816,0.7619,-31.2188,29.9063,6.0188,
3.453800,0.0120,2.3972,-3.0260,0.2732,-1.2816,0.7619,-31.2188,29.9063,6.0188,
3.457320,0.0120,2.3972,-3.0260,0.2732,-1.2816,0.7619,-31.2188,29.9063,6.0188,
3.463162,0.0120,2.3972,-3.0260,0.2732,-1.2816,0.7619,-31.2188,29.9063,6.0188,
3.466392,-0.7434,3.1188,-6.2597,0.2732,-1.2816,0.7619,-31.2188,29.9063,6.0188,
3.480380,-0.7434,3.1188,-6.2597,-0.1061,-1.5898,0.3267,-31.2188,29.9063,6.0188,
3.499301,-0.7434,3.1188,-6.2597,-0.1061,-1.5898,0.3267,-31.2188,29.9063,6.0188,
3.502342,-0.7434,3.1188,-6.2597,-0.1061,-1.5898,0.3267,-30.4688,30.3375,6.7125,
3.522848,-1.2330,2.3658,-8.2964,-0.1061,-1.5898,0.3267,-30.4688,30.3375,6.7125,
3.528481,-1.2330,2.3658,-8.2964,-0.1061,-1.5898,0.3267,-30.4688,30.3375,6.7125,
3.529959,-1.2330,2.3658,-8.2964,-0.1061,-1.5898,0.3267,-30.4688,30.3375,6.7125,
3.557207,-1.2330,2.3658,-8.2964,-0.1061,-1.5898,0.3267,-30.4688,30.3375,6.7125,
3.559943,-1.2330,2.3658,-8.2964,-0.1061,-1.5898,0.3267,-29.6250,30.5438,7.8188,
3.561929,-1.2330,2.3658,-8.2964,-0.4453,-2.2630,-0.7304,-29.6250,30.5438,7.8188,
3.578922,-5.0355,0.1898,-1.9969,-0.4453,-2.2630,-0.7304,-29.6250,30.5438,7.8188,
3.583375,-5.0355,0.1898,-1.9969,-0.4453,-2.2630,-0.7304,-29.6250,30.5438,7.8188,
3.585351,-5.0355,0.1898,-1.9969,-0.4453,-2.2630,-0.7304,-29.6250,30.5438,7.8188,
3.620535,-5.0355,0.1898,-1.9969,-0.4453,-2.2630,-0.7304,-29.6250,30.5438,7.8188,
3.624112,-5.0355,0.1898,-1.9969,2.1474,3.2260,-0.4454,-29.6250,30.5438,7.8188,
3.627443,-5.0355,0.1898,-1.9969,2.1474,3.2260,-0.4454,-28.8188,30.9375,8.7938,
3.643529,-6.2518,-8.5308,12.9303,2.1474,3.2260,-0.4454,-28.8188,30.9375,8.7938,
3.648225,-6.2518,-8.5308,12.9303,2.1474,3.2260,-0.4454,-28.8188,30.9375,8.7938,
3.651030,-6.2518,-8.5308,12.9303,2.1474,3.2260,-0.4454,-28.8188,30.9375,8.7938,
3.682029,-6.2518,-8.5308,12.9303,2.1474,3.2260,-0.4454,-28.8188,30.9375,8.7938,
3.686127,-6.2518,-8.5308,12.9303,5.5161,7.9052,1.2878,-28.8188,30.9375,8.7938,
3.697998,-6.2518,-8.5308,12.9303,5.5161,7.9052,1.2878,-28.8188,30.9375,8.7938,
3.701785,-6.2518,-8.5308,12.9303,5.5161,7.9052,1.2878,-28.1063,31.2563,6.8250,
3.705423,2.0109,-10.5054,43.7793,5.5161,7.9052,1.2878,-28.1063,31.2563,6.8250,
3.709952,2.0109,-10.5054,43.7793,5.5161,7.9052,1.2878,-28.1063,31.2563,6.8250,
3.725708,2.0109,-10.5054,43.7793,5.5161,7.9052,1.2878,-28.1063,31.2563,6.8250,
3.757599,2.0109,-10.5054,43.7793,5.5161,7.9052,1.2878,-28.1063,31.2563,6.8250,
3.761437,2.0109,-10.5054,43.7793,5.5161,7.9052,1.2878,-27.0938,30.7500,3.2438,
3.765617,2.0109,-10.5054,43.7793,3.3264,-1.0228,-0.5944,-27.0938,30.7500,3.2438,
3.768547,-4.1329,-15.7307,17.7208,3.3264,-1.0228,-0.5944,-27.0938,30.7500,3.2438,
3.771160,-4.1329,-15.7307,17.7208,3.3264,-1.0228,-0.5944,-27.0938,30.7500,3.2438,
3.786926,-4.1329,-15.7307,17.7208,3.3264,-1.0228,-0.5944,-27.0938,30.7500,3.2438,
3.810511,-4.1329,-15.7307,17.7208,3.3264,-1.0228,-0.5944,-27.0938,30.7500,3.2438,
3.820869,-4.1329,-15.7307,17.7208,3.3264,-1.0228,-0.5944,-25.9688,30.2063,-0.5625,
3.824007,-4.1329,-15.7307,17.7208,-3.2315,3.1751,-1.5713,-25.9688,30.2063,-0.5625,
3.828044,11.5214,-5.6135,-27.1792,-3.2315,3.1751,-1.5713,-25.9688,30.2063,-0.5625,
3.831317,11.5214,-5.6135,-27.1792,-3.2315,3.1751,-1.5713,-25.9688,30.2063,-0.5625,
3.854174,11.5214,-5.6135,-27.1792,-3.2315,3.1751,-1.5713,-25.9688,30.2063,-0.5625,
3.879658,11.5214,-5.6135,-27.1792,-3.2315,3.1751,-1.5713,-25.9688,30.2063,-0.5625,
3.883006,11.5214,-5.6135,-27.1792,-3.2315,3.1751,-1.5713,-25.9688,30.2063,-0.5625,
3.885117,11.5214,-5.6135,-27.1792,0.1284,-0.2207,1.1543,-25.9688,30.2063,-0.5625,
3.887663,-5.8532,4.3979,5.7122,0.1284,-0.2207,1.1543,-25.9688,30.2063,-0.5625,
3.900214,-5.8532,4.3979,5.7122,0.1284,-0.2207,1.1543,-24.9375,29.9625,-4.2938,
3.920737,-5.8532,4.3979,5.7122,0.1284,-0.2207,1.1543,-24.9375,29.9625,-4.2938,
3.923438,-5.8532,4.3979,5.7122,0.1284,-0.2207,1.1543,-24.9375,29.9625,-4.2938,
3.942496,-4.5028,2.9904,4.1012,0.1284,-0.2207,1.1543,-24.9375,29.9625,-4.2938,
3.946854,-4.5028,2.9904,4.1012,0.1284,-0.2207,1.1543,-24.9375,29.9625,-4.2938,
3.962291,-4.5028,2.9904,4.1012,0.1284,-0.2207,1.1543,-23.7938,29.8875,-8.1750,
3.966199,-4.5028,2.9904,4.1012,-1.2432,-0.1138,0.7610,-23.7938,29.8875,-8.1750,
3.985938,-4.5028,2.9904,4.1012,-1.2432,-0.1138,0.7610,-23.7938,29.8875,-8.1750,
3.988866,-4.5028,2.9904,4.1012,-1.2432,-0.1138,0.7610,-23.7938,29.8875,-8.1750,
4.002954,-4.5028,2.9904,4.1012,-1.2432,-0.1138,0.7610,-23.7938,29.8875,-8.1750,
4.006340,3.2258,-1.6001,-4.9454,-1.2432,-0.1138,0.7610,-23.7938,29.8875,-8.1750,
4.016647,3.2258,-1.6001,-4.9454,-1.2432,-0.1138,0.7610,-22.7625,29.9438,-12.2063,
4.021686,3.2258,-1.6001,-4.9454,-0.0103,-0.2875,1.1245,-22.7625,29.9438,-12.2063,
4.054631,3.2258,-1.6001,-4.9454,-0.0103,-0.2875,1.1245,-22.7625,29.9438,-12.2063,
4.058224,3.2258,-1.6001,-4.9454,-0.0103,-0.2875,1.1245,-22.7625,29.9438,-12.2063,
4.060039,3.2258,-1.6001,-4.9454,-0.0103,-0.2875,1.1245,-22.7625,29.9438,-12.2063,
4.061547,5.8016,-0.5516,5.5133,-0.0103,-0.2875,1.1245,-22.7625,29.9438,-12.2063,
4.079786,5.8016,-0.5516,5.5133,-0.4549,1.0482,-0.9794,-22.7625,29.9438,-12.2063,
4.098961,5.8016,-0.5516,5.5133,-0.4549,1.0482,-0.9794,-22.7625,29.9438,-12.2063,
4.102026,5.8016,-0.5516,5.5133,-0.4549,1.0482,-0.9794,-21.9188,30.1313,-16.8563,
4.122981,5.8016,-0.5516,5.5133,-0.4549,1.0482,-0.9794,-21.9188,30.1313,-16.8563,
4.126051,5.8016,-0.5516,5.5133,-0.4549,1.0482,-0.9794,-21.9188,30.1313,-16.8563,
4.127626,4.1168,3.7281,-6.3910,-0.4549,1.0482,-0.9794,-21.9188,30.1313,-16.8563,
4.157976,4.1168,3.7281,-6.3910,-0.4549,1.0482,-0.9794,-21.1125,30.1125,-21.0750,
4.162451,4.1168,3.7281,-6.3910,-0.4549,1.0482,-0.9794,-21.1125,30.1125,-21.0750,
4.164319,4.1168,3.7281,-6.3910,-0.2400,-0.3302,-0.3360,-21.1125,30.1125,-21.0750,
4.179579,4.1168,3.7281,-6.3910,-0.2400,-0.3302,-0.3360,-21.1125,30.1125,-21.0750,
4.182380,4.1168,3.7281,-6.3910,-0.2400,-0.3302,-0.3360,-21.1125,30.1125,-21.0750,
4.183766,-9.2681,-1.8971,2.7843,-0.2400,-0.3302,-0.3360,-21.1125,30.1125,-21.0750,
4.217759,-9.2681,-1.8971,2.7843,-0.2400,-0.3302,-0.3360,-21.1125,30.1125,-21.0750,
4.221409,-9.2681,-1.8971,2.7843,-0.2400,-0.3302,-0.3360,-20.2500,30.1500,-22.3875,
4.224405,-9.2681,-1.8971,2.7843,0.1037,0.1697,0.0830,-20.2500,30.1500,-22.3875,
4.239892,-1.6558,0.5414,-1.6461,0.1037,0.1697,0.0830,-20.2500,30.1500,-22.3875,
4.245797,-1.6558,0.5414,-1.6461,0.1037,0.1697,0.0830,-20.2500,30.1500,-22.3875,
4.248348,-1.6558,0.5414,-1.6461,0.1037,0.1697,0.0830,-20.2500,30.1500,-22.3875,
4.281371,-1.6558,0.5414,-1.6461,0.1622,-0.5058,0.1680,-20.2500,30.1500,-22.3875,
4.286625,-1.6558,0.5414,-1.6461,0.1622,-0.5058,0.1680,-20.2500,30.1500,-22.3875,
4.302093,-1.6558,0.5414,-1.6461,0.1622,-0.5058,0.1680,-20.2500,30.1500,-22.3875,
4.306148,-1.6558,0.5414,-1.6461,0.1622,-0.5058,0.1680,-20.2500,30.1500,-22.3875,
4.308582,-1.6558,0.5414,-1.6461,0.1622,-0.5058,0.1680,-19.6688,30.9375,-22.2000,
4.311657,-4.2567,-0.3930,-0.6614,0.1622,-0.5058,0.1680,-19.6688,30.9375,-22.2000,
4.324100,-4.2567,-0.3930,-0.6614,0.1622,-0.5058,0.1680,-19.6688,30.9375,-22.2000,
4.357671,-4.2567,-0.3930,-0.6614,0.1622,-0.5058,0.1680,-19.3125,31.6688,-21.6375,
4.362497,-4.2567,-0.3930,-0.6614,0.1622,-0.5058,0.1680,-19.3125,31.6688,-21.6375,
4.364745,-4.2567,-0.3930,-0.6614,0.2224,0.0484,0.0147,-19.3125,31.6688,-21.6375,
4.367892,2.0652,0.5403,-0.0687,0.2224,0.0484,0.0147,-19.3125,31.6688,-21.6375,
4.370636,2.0652,0.5403,-0.0687,0.2224,0.0484,0.0147,-19.3125,31.6688,-21.6375,
4.388197,2.0652,0.5403,-0.0687,0.2224,0.0484,0.0147,-19.3125,31.6688,-21.6375,
4.422461,2.0652,0.5403,-0.0687,0.2224,0.0484,0.0147,-19.3125,31.6688,-21.6375,
4.428359,2.0652,0.5403,-0.0687,0.2224,0.0484,0.0147,-19.3125,31.6688,-21.6375,
4.431177,2.0652,0.5403,-0.0687,0.2224,0.0484,0.0147,-18.8063,32.1000,-21.3000,
4.434525,2.0652,0.5403,-0.0687,0.0003,0.2690,-0.0718,-18.8063,32.1000,-21.3000,
4.437527,0.4254,1.3040,-0.7854,0.0003,0.2690,-0.0718,-18.8063,32.1000,-21.3000,
4.453994,0.4254,1.3040,-0.7854,0.0003,0.2690,-0.0718,-18.8063,32.1000,-21.3000,
4.484003,0.4254,1.3040,-0.7854,0.0003,0.2690,-0.0718,-18.8063,32.1000,-21.3000,
4.487268,0.4254,1.3040,-0.7854,0.0003,0.2690,-0.0718,-18.8063,32.1000,-21.3000,
4.489203,0.4254,1.3040,-0.7854,0.0783,0.2174,-0.0108,-18.8063,32.1000,-21.3000,
4.491425,-1.0461,0.7357,0.6065,0.0783,0.2174,-0.0108,-18.8063,32.1000,-21.3000,
4.498139,-1.0461,0.7357,0.6065,0.0783,0.2174,-0.0108,-18.5813,32.2500,-21.1500,
4.503245,-1.0461,0.7357,0.6065,0.0783,0.2174,-0.0108,-18.5813,32.2500,-21.1500,
4.520333,-1.0461,0.7357,0.6065,0.0783,0.2174,-0.0108,-18.5813,32.2500,-21.1500,
4.542929,-1.0461,0.7357,0.6065,0.0783,0.2174,-0.0108,-18.5813,32.2500,-21.1500,
4.546345,-0.2076,1.1843,-0.4607,0.0783,0.2174,-0.0108,-18.5813,32.2500,-21.1500,
4.560530,-0.2076,1.1843,-0.4607,0.0783,0.2174,-0.0108,-18.6750,31.9875,-21.3000,
4.565081,-0.2076,1.1843,-0.4607,0.0221,0.3537,-0.0217,-18.6750,31.9875,-21.3000,
4.587643,-0.2076,1.1843,-0.4607,0.0221,0.3537,-0.0217,-18.6750,31.9875,-21.3000,
4.590158,-0.2076,1.1843,-0.4607,0.0221,0.3537,-0.0217,-18.6750,31.9875,-21.3000,
4.602238,-0.2076,1.1843,-0.4607,0.0221,0.3537,-0.0217,-18.6750,31.9875,-21.3000,
4.604328,-0.5175,0.8735,-0.4028,0.0221,0.3537,-0.0217,-18.6750,31.9875,-21.3000,
4.619658,-0.5175,0.8735,-0.4028,0.0221,0.3537,-0.0217,-18.6938,31.9313,-21.3375,
4.623736,-0.5175,0.8735,-0.4028,-0.1077,0.1977,0.0227,-18.6938,31.9313,-21.3375,
4.654210,-0.5175,0.8735,-0.4028,-0.1077,0.1977,0.0227,-18.6938,31.9313,-21.3375,
4.658529,-0.5175,0.8735,-0.4028,-0.1077,0.1977,0.0227,-18.6938,31.9313,-21.3375,
4.661013,-1.0594,0.2631,0.0194,-0.1077,0.1977,0.0227,-18.6938,31.9313,-21.3375,
4.664177,-1.0594,0.2631,0.0194,-0.1077,0.1977,0.0227,-18.6938,31.9313,-21.3375,
4.681169,-1.0594,0.2631,0.0194,0.2576,0.3942,-0.1061,-18.6938,31.9313,-21.3375,
4.698182,-1.0594,0.2631,0.0194,0.2576,0.3942,-0.1061,-18.4500,31.8000,-21.6562,
4.703360,-1.0594,0.2631,0.0194,0.2576,0.3942,-0.1061,-18.4500,31.8000,-21.6562,
4.721728,-1.0594,0.2631,0.0194,0.2576,0.3942,-0.1061,-18.4500,31.8000,-21.6562,
4.725924,1.0873,-0.1489,0.7079,0.2576,0.3942,-0.1061,-18.4500,31.8000,-21.6562,
4.729601,1.0873,-0.1489,0.7079,0.2576,0.3942,-0.1061,-18.4500,31.8000,-21.6562,
4.761089,1.0873,-0.1489,0.7079,0.2576,0.3942,-0.1061,-18.4500,31.8000,-21.6562,
4.765227,1.0873,-0.1489,0.7079,0.2576,0.3942,-0.1061,-18.0750,31.4813,-22.0500,
4.769745,1.0873,-0.1489,0.7079,0.7097,0.3555,-0.0440,-18.0750,31.4813,-22.0500,
4.782147,-1.4118,-0.7482,0.3656,0.7097,0.3555,-0.0440,-18.0750,31.4813,-22.0500,
4.785853,-1.4118,-0.7482,0.3656,0.7097,0.3555,-0.0440,-18.0750,31.4813,-22.0500,
4.787534,-1.4118,-0.7482,0.3656,0.7097,0.3555,-0.0440,-18.0750,31.4813,-22.0500,
4.817144,-1.4118,-0.7482,0.3656,0.7097,0.3555,-0.0440,-18.0750,31.4813,-22.0500,
4.820428,-1.4118,-0.7482,0.3656,0.7097,0.3555,-0.0440,-17.7750,31.0688,-22.6313,
4.822927,-1.4118,-0.7482,0.3656,0.4041,-0.3002,-0.1470,-17.7750,31.0688,-22.6313,
4.825534,-1.4118,-0.7482,0.3656,0.4041,-0.3002,-0.1470,-17.7750,31.0688,-22.6313,
4.840463,-1.4118,-0.7482,0.3656,0.4041,-0.3002,-0.1470,-17.7750,31.0688,-22.6313,
4.843876,0.6405,0.1943,-1.3495,0.4041,-0.3002,-0.1470,-17.7750,31.0688,-22.6313,
4.880816,0.6405,0.1943,-1.3495,0.4041,-0.3002,-0.1470,-17.7750,31.0688,-22.6313,
4.884362,0.6405,0.1943,-1.3495,0.2798,-0.8403,-0.1538,-17.7750,31.0688,-22.6313,
4.900001,0.6405,0.1943,-1.3495,0.2798,-0.8403,-0.1538,-17.7750,31.0688,-22.6313,
4.903829,0.6405,0.1943,-1.3495,0.2798,-0.8403,-0.1538,-17.8125,30.7125,-23.2313,
4.907610,-1.5128,0.2109,-0.3121,0.2798,-0.8403,-0.1538,-17.8125,30.7125,-23.2313,
4.910515,-1.5128,0.2109,-0.3121,0.2798,-0.8403,-0.1538,-17.8125,30.7125,-23.2313,
4.927182,-1.5128,0.2109,-0.3121,0.2798,-0.8403,-0.1538,-17.8125,30.7125,-23.2313,
4.957373,-1.5128,0.2109,-0.3121,0.2798,-0.8403,-0.1538,-17.8125,30.7125,-23.2313,
4.961624,-1.5128,0.2109,-0.3121,0.2798,-0.8403,-0.1538,-17.9625,30.2813,-23.7188,
4.964706,-1.5128,0.2109,-0.3121,0.3184,-0.5683,-0.0484,-17.9625,30.2813,-23.7188,
4.967790,-1.5128,0.2109,-0.3121,0.3184,-0.5683,-0.0484,-17.9625,30.2813,-23.7188,
4.970204,1.4929,1.4402,0.4922,0.3184,-0.5683,-0.0484,-17.9625,30.2813,-23.7188,
4.987512,1.4929,1.4402,0.4922,0.3184,-0.5683,-0.0484,-17.9625,30.2813,-23.7188,
5.018918,1.4929,1.4402,0.4922,0.3184,-0.5683,-0.0484,-17.9625,30.2813,-23.7188,
5.022483,1.4929,1.4402,0.4922,0.3184,-0.5683,-0.0484,-18.2438,29.6625,-24.0375,
5.025984,1.4929,1.4402,0.4922,0.4545,0.0002,-0.0245,-18.2438,29.6625,-24.0375,
5.029456,0.3535,0.6251,-0.1782,0.4545,0.0002,-0.0245,-18.2438,29.6625,-24.0375,
5.033018,0.3535,0.6251,-0.1782,0.4545,0.0002,-0.0245,-18.2438,29.6625,-24.0375,
5.053671,0.3535,0.6251,-0.1782,0.4545,0.0002,-0.0245,-18.2438,29.6625,-24.0375,
5.060394,0.3535,0.6251,-0.1782,0.4545,0.0002,-0.0245,-18.2438,29.6625,-24.0375,
5.085194,0.3535,0.6251,-0.1782,1.0478,0.0857,0.9081,-18.2438,29.6625,-24.0375,
5.088771,0.3535,0.6251,-0.1782,1.0478,0.0857,0.9081,-18.2438,29.6625,-24.0375,
5.090489,-3.5593,-1.1596,0.5819,1.0478,0.0857,0.9081,-18.2438,29.6625,-24.0375,
5.098244,-3.5593,-1.1596,0.5819,1.0478,0.0857,0.9081,-18.2063,29.1750,-24.5813,
5.123853,-3.5593,-1.1596,0.5819,1.0478,0.0857,0.9081,-18.2063,29.1750,-24.5813,
5.143766,-3.5593,-1.1596,0.5819,0.8760,0.5670,1.4641,-18.2063,29.1750,-24.5813,
5.148819,-1.6153,0.0998,-1.0497,0.8760,0.5670,1.4641,-18.2063,29.1750,-24.5813,
5.151946,-1.6153,0.0998,-1.0497,0.8760,0.5670,1.4641,-18.2063,29.1750,-24.5813,
5.154528,-1.6153,0.0998,-1.0497,0.8760,0.5670,1.4641,-18.2063,29.1750,-24.5813,
5.160948,-1.6153,0.0998,-1.0497,0.8760,0.5670,1.4641,-17.8875,28.4063,-25.3688,
5.187407,-1.6153,0.0998,-1.0497,0.8760,0.5670,1.4641,-17.8875,28.4063,-25.3688,
5.190739,-1.6153,0.0998,-1.0497,0.8760,0.5670,1.4641,-17.8875,28.4063,-25.3688,
5.200424,-1.6153,0.0998,-1.0497,0.8760,0.5670,1.4641,-17.8875,28.4063,-25.3688,
5.203406,-0.1826,0.9064,-1.3028,0.8760,0.5670,1.4641,-17.8875,28.4063,-25.3688,
5.219819,-0.1826,0.9064,-1.3028,0.8760,0.5670,1.4641,-17.5500,27.8063,-26.1750,
5.225146,-0.1826,0.9064,-1.3028,0.0430,-0.4907,0.5721,-17.5500,27.8063,-26.1750,
5.228748,-0.1826,0.9064,-1.3028,0.0430,-0.4907,0.5721,-17.5500,27.8063,-26.1750,
5.254124,-0.1826,0.9064,-1.3028,0.0430,-0.4907,0.5721,-17.5500,27.8063,-26.1750,
5.263315,-0.1826,0.9064,-1.3028,0.0430,-0.4907,0.5721,-17.5500,27.8063,-26.1750,
5.266341,1.6273,0.3291,-1.4526,0.0430,-0.4907,0.5721,-17.5500,27.8063,-26.1750,
5.285706,1.6273,0.3291,-1.4526,0.0005,-0.9296,0.0132,-17.5500,27.8063,-26.1750,
5.297235,1.6273,0.3291,-1.4526,0.0005,-0.9296,0.0132,-17.4375,27.3375,-26.7375,
5.301187,1.6273,0.3291,-1.4526,0.0005,-0.9296,0.0132,-17.4375,27.3375,-26.7375,
5.319733,1.6273,0.3291,-1.4526,0.0005,-0.9296,0.0132,-17.4375,27.3375,-26.7375,
5.322928,1.6273,0.3291,-1.4526,0.0005,-0.9296,0.0132,-17.4375,27.3375,-26.7375,
5.324622,0.7204,0.6498,0.3639,0.0005,-0.9296,0.0132,-17.4375,27.3375,-26.7375,
5.341837,0.7204,0.6498,0.3639,-0.5308,-1.1125,-1.4316,-17.4375,27.3375,-26.7375,
5.357925,0.7204,0.6498,0.3639,-0.5308,-1.1125,-1.4316,-17.4375,27.3375,-26.7375,
5.360343,0.7204,0.6498,0.3639,-0.5308,-1.1125,-1.4316,-17.7938,26.9438,-26.9438,
5.380831,0.7204,0.6498,0.3639,-0.5308,-1.1125,-1.4316,-17.7938,26.9438,-26.9438,
5.383850,0.7204,0.6498,0.3639,-0.5308,-1.1125,-1.4316,-17.7938,26.9438,-26.9438,
5.385925,1.4327,0.9478,-1.2588,-0.5308,-1.1125,-1.4316,-17.7938,26.9438,-26.9438,
5.418722,1.4327,0.9478,-1.2588,-0.5308,-1.1125,-1.4316,-17.7938,26.9438,-26.9438,
5.422748,1.4327,0.9478,-1.2588,-0.5308,-1.1125,-1.4316,-18.4688,26.3438,-26.7375,
5.427009,1.4327,0.9478,-1.2588,-0.8870,-1.0216,-2.0759,-18.4688,26.3438,-26.7375,
5.435891,1.4327,0.9478,-1.2588,-0.8870,-1.0216,-2.0759,-18.4688,26.3438,-26.7375,
5.443550,-0.2320,0.2961,-1.1674,-0.8870,-1.0216,-2.0759,-18.4688,26.3438,-26.7375,
5.448596,-0.2320,0.2961,-1.1674,-0.8870,-1.0216,-2.0759,-18.4688,26.3438,-26.7375,
5.482950,-0.2320,0.2961,-1.1674,-0.8870,-1.0216,-2.0759,-18.4688,26.3438,-26.7375,
5.486767,-0.2320,0.2961,-1.1674,-1.5014,-0.8539,-2.1202,-18.4688,26.3438,-26.7375,
5.497991,-0.2320,0.2961,-1.1674,-1.5014,-0.8539,-2.1202,-18.4688,26.3438,-26.7375,
5.501724,-0.2320,0.2961,-1.1674,-1.5014,-0.8539,-2.1202,-19.6313,25.7250,-26.1563,
5.505161,-0.2320,0.2961,-1.1674,-1.5014,-0.8539,-2.1202,-19.6313,25.7250,-26.1563,
5.507642,-2.9193,-0.1881,0.0302,-1.5014,-0.8539,-2.1202,-19.6313,25.7250,-26.1563,
5.540372,-2.9193,-0.1881,0.0302,-1.5014,-0.8539,-2.1202,-19.6313,25.7250,-26.1563,
5.544104,-2.9193,-0.1881,0.0302,-1.8057,-1.7933,-1.6277,-19.6313,25.7250,-26.1563,
5.560598,-2.9193,-0.1881,0.0302,-1.8057,-1.7933,-1.6277,-19.6313,25.7250,-26.1563,
5.563818,-2.9193,-0.1881,0.0302,-1.8057,-1.7933,-1.6277,-21.2438,25.0125,-24.8813,
5.569142,-3.5482,-0.3493,1.5451,-1.8057,-1.7933,-1.6277,-21.2438,25.0125,-24.8813,
5.572425,-3.5482,-0.3493,1.5451,-1.8057,-1.7933,-1.6277,-21.2438,25.0125,-24.8813,
5.587058,-3.5482,-0.3493,1.5451,-1.8057,-1.7933,-1.6277,-21.2438,25.0125,-24.8813,
5.617716,-3.5482,-0.3493,1.5451,-1.8057,-1.7933,-1.6277,-23.5500,23.7938,-22.3875,
5.622721,-3.5482,-0.3493,1.5451,-1.8057,-1.7933,-1.6277,-23.5500,23.7938,-22.3875,
5.626097,-3.5482,-0.3493,1.5451,-1.9863,-1.7463,-2.7588,-23.5500,23.7938,-22.3875,
5.629887,1.0267,-2.6282,1.4063,-1.9863,-1.7463,-2.7588,-23.5500,23.7938,-22.3875,
5.632798,1.0267,-2.6282,1.4063,-1.9863,-1.7463,-2.7588,-23.5500,23.7938,-22.3875,
5.654017,1.0267,-2.6282,1.4063,-1.9863,-1.7463,-2.7588,-23.5500,23.7938,-22.3875,
5.682575,1.0267,-2.6282,1.4063,-1.9863,-1.7463,-2.7588,-23.5500,23.7938,-22.3875,
5.685809,1.0267,-2.6282,1.4063,-1.9863,-1.7463,-2.7588,-23.5500,23.7938,-22.3875,
5.687660,1.0267,-2.6282,1.4063,-1.8715,-1.0303,-2.7926,-23.5500,23.7938,-22.3875,
5.690178,-4.2970,-5.3165,2.4120,-1.8715,-1.0303,-2.7926,-23.5500,23.7938,-22.3875,
5.699324,-4.2970,-5.3165,2.4120,-1.8715,-1.0303,-2.7926,-26.7375,21.8063,-19.1625,
5.722867,-4.2970,-5.3165,2.4120,-1.8715,-1.0303,-2.7926,-26.7375,21.8063,-19.1625,
5.743720,-4.2970,-5.3165,2.4120,-1.0564,-1.4598,-1.0071,-26.7375,21.8063,-19.1625,
5.748769,-9.8437,-3.4837,6.2352,-1.0564,-1.4598,-1.0071,-26.7375,21.8063,-19.1625,
5.751896,-9.8437,-3.4837,6.2352,-1.0564,-1.4598,-1.0071,-26.7375,21.8063,-19.1625,
5.754306,-9.8437,-3.4837,6.2352,-1.0564,-1.4598,-1.0071,-26.7375,21.8063,-19.1625,
5.756879,-9.8437,-3.4837,6.2352,-1.0564,-1.4598,-1.0071,-30.2063,19.1438,-15.2250,
5.786999,-9.8437,-3.4837,6.2352,-1.0564,-1.4598,-1.0071,-30.2063,19.1438,-15.2250,
5.790158,-9.8437,-3.4837,6.2352,-1.0564,-1.4598,-1.0071,-30.2063,19.1438,-15.2250,
5.804017,-9.8437,-3.4837,6.2352,-1.0564,-1.4598,-1.0071,-30.2063,19.1438,-15.2250,
5.807122,-6.0516,-1.8546,5.0018,-1.0564,-1.4598,-1.0071,-30.2063,19.1438,-15.2250,
5.817713,-6.0516,-1.8546,5.0018,-1.0564,-1.4598,-1.0071,-33.4500,16.5563,-10.7438,
5.822190,-6.0516,-1.8546,5.0018,-1.1776,-1.5218,0.2928,-33.4500,16.5563,-10.7438,
5.853732,-6.0516,-1.8546,5.0018,-1.1776,-1.5218,0.2928,-33.4500,16.5563,-10.7438,
5.858589,-6.0516,-1.8546,5.0018,-1.1776,-1.5218,0.2928,-33.4500,16.5563,-10.7438,
5.863386,-5.4477,-4.6907,4.1251,-1.1776,-1.5218,0.2928,-33.4500,16.5563,-10.7438,
5.867287,-5.4477,-4.6907,4.1251,-1.1776,-1.5218,0.2928,-33.4500,16.5563,-10.7438,
5.882699,-5.4477,-4.6907,4.1251,-0.4169,-1.1483,1.3635,-33.4500,16.5563,-10.7438,
5.899424,-5.4477,-4.6907,4.1251,-0.4169,-1.1483,1.3635,-33.4500,16.5563,-10.7438,
5.903315,-5.4477,-4.6907,4.1251,-0.4169,-1.1483,1.3635,-36.0563,14.3438,-5.9250,
5.924020,-5.4477,-4.6907,4.1251,-0.4169,-1.1483,1.3635,-36.0563,14.3438,-5.9250,
5.928727,-5.4477,-4.6907,4.1251,-0.4169,-1.1483,1.3635,-36.0563,14.3438,-5.9250,
5.931136,4.2880,-2.8962,7.7244,-0.4169,-1.1483,1.3635,-36.0563,14.3438,-5.9250,
5.946418,4.2880,-2.8962,7.7244,-0.4169,-1.1483,1.3635,-36.0563,14.3438,-5.9250,
5.949835,4.2880,-2.8962,7.7244,0.5135,0.4058,1.0772,-36.0563,14.3438,-5.9250,
5.957657,4.2880,-2.8962,7.7244,0.5135,0.4058,1.0772,-38.0250,12.5813,-1.8188,
5.982186,4.2880,-2.8962,7.7244,0.5135,0.4058,1.0772,-38.0250,12.5813,-1.8188,
5.986269,4.2880,-2.8962,7.7244,0.5135,0.4058,1.0772,-38.0250,12.5813,-1.8188,
5.988297,0.8321,12.3601,-1.0959,0.5135,0.4058,1.0772,-38.0250,12.5813,-1.8188,
6.019183,0.8321,12.3601,-1.0959,0.5135,0.4058,1.0772,-38.0250,12.5813,-1.8188,
6.022896,0.8321,12.3601,-1.0959,0.5135,0.4058,1.0772,-39.3000,11.5312,1.8375,
6.026171,0.8321,12.3601,-1.0959,0.8135,-1.0609,1.3915,-39.3000,11.5312,1.8375,
6.046826,0.8321,12.3601,-1.0959,0.8135,-1.0609,1.3915,-39.3000,11.5312,1.8375,
6.051041,0.8321,12.3601,-1.0959,0.8135,-1.0609,1.3915,-39.3000,11.5312,1.8375,
6.053568,-0.6117,13.3086,-5.4116,0.8135,-1.0609,1.3915,-39.3000,11.5312,1.8375,
6.063581,-0.6117,13.3086,-5.4116,0.8135,-1.0609,1.3915,-39.3000,11.5312,1.8375,
6.082660,-0.6117,13.3086,-5.4116,0.8137,-1.2300,0.8489,-39.3000,11.5312,1.8375,
6.097288,-0.6117,13.3086,-5.4116,0.8137,-1.2300,0.8489,-39.7313,11.1188,5.2500,
6.101254,-0.6117,13.3086,-5.4116,0.8137,-1.2300,0.8489,-39.7313,11.1188,5.2500,
6.103124,-0.6117,13.3086,-5.4116,0.8137,-1.2300,0.8489,-39.7313,11.1188,5.2500,
6.104691,-2.4173,4.4289,-1.3202,0.8137,-1.2300,0.8489,-39.7313,11.1188,5.2500,
6.141146,-2.4173,4.4289,-1.3202,1.1317,0.4288,0.5583,-39.7313,11.1188,5.2500,
6.145643,-2.4173,4.4289,-1.3202,1.1317,0.4288,0.5583,-39.7313,11.1188,5.2500,
6.160507,-2.4173,4.4289,-1.3202,1.1317,0.4288,0.5583,-39.7313,11.1188,5.2500,
6.164097,-2.4173,4.4289,-1.3202,1.1317,0.4288,0.5583,-39.7500,11.4750,7.4625,
6.167924,-0.2716,-2.9684,-0.9604,1.1317,0.4288,0.5583,-39.7500,11.4750,7.4625,
6.171010,-0.2716,-2.9684,-0.9604,1.1317,0.4288,0.5583,-39.7500,11.4750,7.4625,
6.187896,-0.2716,-2.9684,-0.9604,1.1317,0.4288,0.5583,-39.7500,11.4750,7.4625,
6.219882,-0.2716,-2.9684,-0.9604,1.1317,0.4288,0.5583,-39.7500,11.4750,7.4625,
6.224004,-0.2716,-2.9684,-0.9604,1.1317,0.4288,0.5583,-39.0563,12.9938,8.7750,
6.229519,-0.2716,-2.9684,-0.9604,0.7185,0.4105,1.0894,-39.0563,12.9938,8.7750,
6.233827,-1.2495,-4.6090,-2.5537,0.7185,0.4105,1.0894,-39.0563,12.9938,8.7750,
6.237052,-1.2495,-4.6090,-2.5537,0.7185,0.4105,1.0894,-39.0563,12.9938,8.7750,
6.255452,-1.2495,-4.6090,-2.5537,0.7185,0.4105,1.0894,-39.0563,12.9938,8.7750,
6.285818,-1.2495,-4.6090,-2.5537,-0.0131,0.3237,1.2883,-39.0563,12.9938,8.7750,
6.288801,2.8028,-4.4093,-2.1687,-0.0131,0.3237,1.2883,-39.0563,12.9938,8.7750,
6.290821,2.8028,-4.4093,-2.1687,-0.0131,0.3237,1.2883,-39.0563,12.9938,8.7750,
6.292082,2.8028,-4.4093,-2.1687,-0.0131,0.3237,1.2883,-39.0563,12.9938,8.7750,
6.297736,2.8028,-4.4093,-2.1687,-0.0131,0.3237,1.2883,-38.1938,15.5438,9.3938,
6.319707,2.8028,-4.4093,-2.1687,-0.0131,0.3237,1.2883,-38.1938,15.5438,9.3938,
6.343240,2.8028,-4.4093,-2.1687,-0.1910,0.1935,1.0116,-38.1938,15.5438,9.3938,
6.348112,5.4409,-2.7382,1.3202,-0.1910,0.1935,1.0116,-38.1938,15.5438,9.3938,
6.352053,5.4409,-2.7382,1.3202,-0.1910,0.1935,1.0116,-38.1938,15.5438,9.3938,
6.354341,5.4409,-2.7382,1.3202,-0.1910,0.1935,1.0116,-38.1938,15.5438,9.3938,
6.360869,5.4409,-2.7382,1.3202,-0.1910,0.1935,1.0116,-37.1625,18.4688,9.2625,
6.385904,5.4409,-2.7382,1.3202,-0.1910,0.1935,1.0116,-37.1625,18.4688,9.2625,
6.388854,5.4409,-2.7382,1.3202,-0.1910,0.1935,1.0116,-37.1625,18.4688,9.2625,
6.403530,5.4409,-2.7382,1.3202,-0.1910,0.1935,1.0116,-37.1625,18.4688,9.2625,
6.406663,6.8181,-0.6118,-0.5276,-0.1910,0.1935,1.0116,-37.1625,18.4688,9.2625,
6.416732,6.8181,-0.6118,-0.5276,-0.1910,0.1935,1.0116,-36.0375,21.2063,8.7188,
6.425521,6.8181,-0.6118,-0.5276,-0.8501,0.3234,0.0735,-36.0375,21.2063,8.7188,
6.455344,6.8181,-0.6118,-0.5276,-0.8501,0.3234,0.0735,-36.0375,21.2063,8.7188,
6.459704,6.8181,-0.6118,-0.5276,-0.8501,0.3234,0.0735,-36.0375,21.2063,8.7188,
6.462996,4.1925,-0.4680,1.0041,-0.8501,0.3234,0.0735,-36.0375,21.2063,8.7188,
6.466815,4.1925,-0.4680,1.0041,-0.8501,0.3234,0.0735,-36.0375,21.2063,8.7188,
6.482450,4.1925,-0.4680,1.0041,-0.8784,0.4242,-0.0367,-36.0375,21.2063,8.7188,
6.498814,4.1925,-0.4680,1.0041,-0.8784,0.4242,-0.0367,-34.9875,23.5500,8.4938,
6.502680,4.1925,-0.4680,1.0041,-0.8784,0.4242,-0.0367,-34.9875,23.5500,8.4938,
6.520304,4.1925,-0.4680,1.0041,-0.8784,0.4242,-0.0367,-34.9875,23.5500,8.4938,
6.523976,-0.6477,-0.1097,3.9729,-0.8784,0.4242,-0.0367,-34.9875,23.5500,8.4938,
6.528561,-0.6477,-0.1097,3.9729,-0.8784,0.4242,-0.0367,-34.9875,23.5500,8.4938,
6.541462,-0.6477,-0.1097,3.9729,-0.1044,-0.3704,0.5762,-34.9875,23.5500,8.4938,
6.557704,-0.6477,-0.1097,3.9729,-0.1044,-0.3704,0.5762,-34.9875,23.5500,8.4938,
6.560406,-0.6477,-0.1097,3.9729,-0.1044,-0.3704,0.5762,-33.9563,25.4438,8.3438,
6.584410,-0.6477,-0.1097,3.9729,-0.1044,-0.3704,0.5762,-33.9563,25.4438,8.3438,
6.587992,-0.6477,-0.1097,3.9729,-0.1044,-0.3704,0.5762,-33.9563,25.4438,8.3438,
6.589836,-1.8596,1.9896,1.3271,-0.1044,-0.3704,0.5762,-33.9563,25.4438,8.3438,
6.617501,-1.8596,1.9896,1.3271,-0.1044,-0.3704,0.5762,-33.9563,25.4438,8.3438,
6.621006,-1.8596,1.9896,1.3271,-0.1044,-0.3704,0.5762,-32.9250,27.2063,7.7813,
6.623925,-1.8596,1.9896,1.3271,0.3787,-0.1052,0.4927,-32.9250,27.2063,7.7813,
6.643407,-1.8596,1.9896,1.3271,0.3787,-0.1052,0.4927,-32.9250,27.2063,7.7813,
6.647830,-1.8596,1.9896,1.3271,0.3787,-0.1052,0.4927,-32.9250,27.2063,7.7813,
6.650273,-0.7160,2.7457,-1.5180,0.3787,-0.1052,0.4927,-32.9250,27.2063,7.7813,
6.683337,-0.7160,2.7457,-1.5180,1.0317,-0.5108,0.4135,-32.9250,27.2063,7.7813,
6.688128,-0.7160,2.7457,-1.5180,1.0317,-0.5108,0.4135,-32.9250,27.2063,7.7813,
6.698701,-0.7160,2.7457,-1.5180,1.0317,-0.5108,0.4135,-32.9250,27.2063,7.7813,
6.703222,-0.7160,2.7457,-1.5180,1.0317,-0.5108,0.4135,-31.7625,29.0063,7.2750,
6.706788,-1.7948,1.8509,-0.3161,1.0317,-0.5108,0.4135,-31.7625,29.0063,7.2750,
6.710186,-1.7948,1.8509,-0.3161,1.0317,-0.5108,0.4135,-31.7625,29.0063,7.2750,
6.744150,-1.7948,1.8509,-0.3161,0.5548,0.1286,-0.4241,-31.7625,29.0063,7.2750,
6.749292,-1.7948,1.8509,-0.3161,0.5548,0.1286,-0.4241,-31.7625,29.0063,7.2750,
6.759656,-1.7948,1.8509,-0.3161,0.5548,0.1286,-0.4241,-30.7875,30.5063,7.0500,
6.763677,-1.7948,1.8509,-0.3161,0.5548,0.1286,-0.4241,-30.7875,30.5063,7.0500,
6.766261,-1.7948,1.8509,-0.3161,0.5548,0.1286,-0.4241,-30.7875,30.5063,7.0500,
6.768716,-0.7784,2.0609,-3.7952,0.5548,0.1286,-0.4241,-30.7875,30.5063,7.0500,
6.787165,-0.7784,2.0609,-3.7952,0.5548,0.1286,-0.4241,-30.7875,30.5063,7.0500,
6.819234,-0.7784,2.0609,-3.7952,0.5548,0.1286,-0.4241,-30.7875,30.5063,7.0500,
6.823371,-0.7784,2.0609,-3.7952,0.5548,0.1286,-0.4241,-29.9813,31.4438,6.5625,
6.826995,-0.7784,2.0609,-3.7952,0.8119,-0.3299,-0.2493,-29.9813,31.4438,6.5625,
6.831899,-2.4211,-0.1898,0.3420,0.8119,-0.3299,-0.2493,-29.9813,31.4438,6.5625,
6.835997,-2.4211,-0.1898,0.3420,0.8119,-0.3299,-0.2493,-29.9813,31.4438,6.5625,
6.852224,-2.4211,-0.1898,0.3420,0.8119,-0.3299,-0.2493,-29.9813,31.4438,6.5625,
6.883712,-2.4211,-0.1898,0.3420,0.1316,0.1581,-0.6184,-29.9813,31.4438,6.5625,
6.887279,0.6197,-0.1119,-2.9580,0.1316,0.1581,-0.6184,-29.9813,31.4438,6.5625,
6.889255,0.6197,-0.1119,-2.9580,0.1316,0.1581,-0.6184,-29.9813,31.4438,6.5625,
6.890599,0.6197,-0.1119,-2.9580,0.1316,0.1581,-0.6184,-29.9813,31.4438,6.5625,
6.897181,0.6197,-0.1119,-2.9580,0.1316,0.1581,-0.6184,-29.5313,31.9875,6.3000,
6.919870,0.6197,-0.1119,-2.9580,0.1316,0.1581,-0.6184,-29.5313,31.9875,6.3000,
6.944667,0.6197,-0.1119,-2.9580,0.5903,0.2291,-0.2771,-29.5313,31.9875,6.3000,
6.949768,-0.6235,0.2267,0.2807,0.5903,0.2291,-0.2771,-29.5313,31.9875,6.3000,
6.953121,-0.6235,0.2267,0.2807,0.5903,0.2291,-0.2771,-29.5313,31.9875,6.3000,
6.956412,-0.6235,0.2267,0.2807,0.5903,0.2291,-0.2771,-29.5313,31.9875,6.3000,
6.959105,-0.6235,0.2267,0.2807,0.5903,0.2291,-0.2771,-29.3250,32.3063,5.8125,
6.988199,-0.6235,0.2267,0.2807,0.5903,0.2291,-0.2771,-29.3250,32.3063,5.8125,
6.991749,-0.6235,0.2267,0.2807,0.5903,0.2291,-0.2771,-29.3250,32.3063,5.8125,
7.004583,-0.6235,0.2267,0.2807,0.5903,0.2291,-0.2771,-29.3250,32.3063,5.8125,
7.007760,-0.0036,0.7127,-2.6304,0.5903,0.2291,-0.2771,-29.3250,32.3063,5.8125,
7.018953,-0.0036,0.7127,-2.6304,0.5903,0.2291,-0.2771,-29.0813,32.6813,5.0063,
7.023879,-0.0036,0.7127,-2.6304,0.3988,0.1109,-0.1510,-29.0813,32.6813,5.0063,
7.054430,-0.0036,0.7127,-2.6304,0.3988,0.1109,-0.1510,-29.0813,32.6813,5.0063,
7.058518,-0.0036,0.7127,-2.6304,0.3988,0.1109,-0.1510,-29.0813,32.6813,5.0063,
7.065886,-0.0036,0.7127,-2.6304,0.3988,0.1109,-0.1510,-29.0813,32.6813,5.0063,
7.068694,-0.4427,0.3365,-2.2622,0.3988,0.1109,-0.1510,-29.0813,32.6813,5.0063,
7.085815,-0.4427,0.3365,-2.2622,0.0433,-0.0289,-0.0337,-29.0813,32.6813,5.0063,
7.099861,-0.4427,0.3365,-2.2622,0.0433,-0.0289,-0.0337,-29.0813,32.6813,5.0063,
7.103029,-0.4427,0.3365,-2.2622,0.0433,-0.0289,-0.0337,-28.9125,32.8688,4.0875,
7.119969,-0.4427,0.3365,-2.2622,0.0433,-0.0289,-0.0337,-28.9125,32.8688,4.0875,
7.123948,-0.6434,0.0487,-0.9811,0.0433,-0.0289,-0.0337,-28.9125,32.8688,4.0875,
7.127797,-0.6434,0.0487,-0.9811,0.0433,-0.0289,-0.0337,-28.9125,32.8688,4.0875,
7.143188,-0.6434,0.0487,-0.9811,0.0379,-0.1865,0.0760,-28.9125,32.8688,4.0875,
7.158187,-0.6434,0.0487,-0.9811,0.0379,-0.1865,0.0760,-28.9125,32.8688,4.0875,
7.160900,-0.6434,0.0487,-0.9811,0.0379,-0.1865,0.0760,-29.0625,32.7188,3.1125,
7.164074,-0.6434,0.0487,-0.9811,0.0379,-0.1865,0.0760,-29.0625,32.7188,3.1125,
7.183182,-0.9219,0.0386,0.8540,0.0379,-0.1865,0.0760,-29.0625,32.7188,3.1125,
7.186503,-0.9219,0.0386,0.8540,0.0379,-0.1865,0.0760,-29.0625,32.7188,3.1125,
7.217393,-0.9219,0.0386,0.8540,0.0379,-0.1865,0.0760,-29.4188,32.4375,2.3625,
7.222303,-0.9219,0.0386,0.8540,0.0379,-0.1865,0.0760,-29.4188,32.4375,2.3625,
7.224935,-0.9219,0.0386,0.8540,-0.1531,-0.1164,0.0215,-29.4188,32.4375,2.3625,
7.246929,0.1031,0.1729,1.7036,-0.1531,-0.1164,0.0215,-29.4188,32.4375,2.3625,
7.251651,0.1031,0.1729,1.7036,-0.1531,-0.1164,0.0215,-29.4188,32.4375,2.3625,
7.253889,0.1031,0.1729,1.7036,-0.1531,-0.1164,0.0215,-29.4188,32.4375,2.3625,
7.282822,0.1031,0.1729,1.7036,-0.1531,-0.1164,0.0215,-29.4188,32.4375,2.3625,
7.284605,0.1031,0.1729,1.7036,0.2271,0.5336,0.1557,-29.4188,32.4375,2.3625,
7.298046,0.1031,0.1729,1.7036,0.2271,0.5336,0.1557,-29.6813,32.0813,1.6500,
7.299976,0.1031,0.1729,1.7036,0.2271,0.5336,0.1557,-29.6813,32.0813,1.6500,
7.301217,-0.2157,0.5701,1.3175,0.2271,0.5336,0.1557,-29.6813,32.0813,1.6500,
7.302690,-0.2157,0.5701,1.3175,0.2271,0.5336,0.1557,-29.6813,32.0813,1.6500,
7.343407,-0.2157,0.5701,1.3175,0.2301,0.6346,-0.2415,-29.6813,32.0813,1.6500,
7.349037,-0.2157,0.5701,1.3175,0.2301,0.6346,-0.2415,-29.6813,32.0813,1.6500,
7.360197,-0.2157,0.5701,1.3175,0.2301,0.6346,-0.2415,-29.6813,32.0813,1.6500,
7.363725,-0.2157,0.5701,1.3175,0.2301,0.6346,-0.2415,-29.8500,31.8938,0.9750,
7.370081,1.3880,0.8343,0.4862,0.2301,0.6346,-0.2415,-29.8500,31.8938,0.9750,
7.374523,1.3880,0.8343,0.4862,0.2301,0.6346,-0.2415,-29.8500,31.8938,0.9750,
7.386956,1.3880,0.8343,0.4862,0.2301,0.6346,-0.2415,-29.8500,31.8938,0.9750,
7.417388,1.3880,0.8343,0.4862,0.2301,0.6346,-0.2415,-30.0938,31.5563,0.0563,
7.422615,1.3880,0.8343,0.4862,0.2301,0.6346,-0.2415,-30.0938,31.5563,0.0563,
7.425143,1.3880,0.8343,0.4862,-0.5712,0.7923,-0.6037,-30.0938,31.5563,0.0563,
7.428055,0.1750,1.4060,-0.9938,-0.5712,0.7923,-0.6037,-30.0938,31.5563,0.0563,
7.432036,0.1750,1.4060,-0.9938,-0.5712,0.7923,-0.6037,-30.0938,31.5563,0.0563,
7.453169,0.1750,1.4060,-0.9938,-0.5712,0.7923,-0.6037,-30.0938,31.5563,0.0563,
7.483677,0.1750,1.4060,-0.9938,-0.5712,0.7923,-0.6037,-30.0938,31.5563,0.0563,
7.487218,0.1750,1.4060,-0.9938,-0.5712,0.7923,-0.6037,-30.0938,31.5563,0.0563,
7.488976,0.1750,1.4060,-0.9938,-0.1662,0.2869,-0.6239,-30.0938,31.5563,0.0563,
7.491449,-0.2852,1.2629,1.7470,-0.1662,0.2869,-0.6239,-30.0938,31.5563,0.0563,
7.498301,-0.2852,1.2629,1.7470,-0.1662,0.2869,-0.6239,-30.4688,31.2375,-0.7313,
7.520461,-0.2852,1.2629,1.7470,-0.1662,0.2869,-0.6239,-30.4688,31.2375,-0.7313,
7.548558,-0.2852,1.2629,1.7470,-0.1662,0.2869,-0.6239,-30.4688,31.2375,-0.7313,
7.552455,-0.2852,1.2629,1.7470,-0.1662,0.2869,-0.6239,-30.4688,31.2375,-0.7313,
7.555190,-0.2852,1.2629,1.7470,0.0171,-0.0018,-0.4540,-30.4688,31.2375,-0.7313,
7.557990,-0.2508,0.3935,-1.5177,0.0171,-0.0018,-0.4540,-30.4688,31.2375,-0.7313,
7.560801,-0.2508,0.3935,-1.5177,0.0171,-0.0018,-0.4540,-30.9000,30.8250,-1.3125,
7.588462,-0.2508,0.3935,-1.5177,0.0171,-0.0018,-0.4540,-30.9000,30.8250,-1.3125,
7.592036,-0.2508,0.3935,-1.5177,0.0171,-0.0018,-0.4540,-30.9000,30.8250,-1.3125,
7.604017,-0.2508,0.3935,-1.5177,0.0171,-0.0018,-0.4540,-30.9000,30.8250,-1.3125,
7.607075,-2.1831,1.0693,5.1241,0.0171,-0.0018,-0.4540,-30.9000,30.8250,-1.3125,
7.619499,-2.1831,1.0693,5.1241,0.0171,-0.0018,-0.4540,-31.2188,30.5438,-1.9688,
7.624891,-2.1831,1.0693,5.1241,1.7514,-0.9677,0.6802,-31.2188,30.5438,-1.9688,
7.653187,-2.1831,1.0693,5.1241,1.7514,-0.9677,0.6802,-31.2188,30.5438,-1.9688,
7.657336,-2.1831,1.0693,5.1241,1.7514,-0.9677,0.6802,-31.2188,30.5438,-1.9688,
7.663815,0.7334,-0.4997,-0.5115,1.7514,-0.9677,0.6802,-31.2188,30.5438,-1.9688,
7.667785,0.7334,-0.4997,-0.5115,1.7514,-0.9677,0.6802,-31.2188,30.5438,-1.9688,
7.683849,0.7334,-0.4997,-0.5115,-0.2754,0.8009,0.2043,-31.2188,30.5438,-1.9688,
7.698016,0.7334,-0.4997,-0.5115,-0.2754,0.8009,0.2043,-31.2188,30.5438,-1.9688,
7.701243,0.7334,-0.4997,-0.5115,-0.2754,0.8009,0.2043,-31.3688,30.4125,-2.8313,
7.719423,0.7334,-0.4997,-0.5115,-0.2754,0.8009,0.2043,-31.3688,30.4125,-2.8313,
7.725542,1.8456,-0.7542,-1.4635,-0.2754,0.8009,0.2043,-31.3688,30.4125,-2.8313,
7.729260,1.8456,-0.7542,-1.4635,-0.2754,0.8009,0.2043,-31.3688,30.4125,-2.8313,
7.744406,1.8456,-0.7542,-1.4635,0.9476,-0.3709,-0.4158,-31.3688,30.4125,-2.8313,
7.758312,1.8456,-0.7542,-1.4635,0.9476,-0.3709,-0.4158,-31.3688,30.4125,-2.8313,
7.761145,1.8456,-0.7542,-1.4635,0.9476,-0.3709,-0.4158,-31.5375,30.0938,-3.8063,
7.784086,1.8456,-0.7542,-1.4635,0.9476,-0.3709,-0.4158,-31.5375,30.0938,-3.8063,
7.787920,1.8456,-0.7542,-1.4635,0.9476,-0.3709,-0.4158,-31.5375,30.0938,-3.8063,
7.789870,-0.0078,-1.6721,3.6587,0.9476,-0.3709,-0.4158,-31.5375,30.0938,-3.8063,
7.817916,-0.0078,-1.6721,3.6587,0.9476,-0.3709,-0.4158,-31.9313,29.7375,-4.8750,
7.821991,-0.0078,-1.6721,3.6587,0.9476,-0.3709,-0.4158,-31.9313,29.7375,-4.8750,
7.823702,-0.0078,-1.6721,3.6587,0.8582,-0.1071,-0.0809,-31.9313,29.7375,-4.8750,
7.843075,-0.0078,-1.6721,3.6587,0.8582,-0.1071,-0.0809,-31.9313,29.7375,-4.8750,
7.845900,-0.0078,-1.6721,3.6587,0.8582,-0.1071,-0.0809,-31.9313,29.7375,-4.8750,
7.847325,0.2177,-0.3705,-3.2572,0.8582,-0.1071,-0.0809,-31.9313,29.7375,-4.8750,
7.876068,0.2177,-0.3705,-3.2572,0.8582,-0.1071,-0.0809,-31.9313,29.7375,-4.8750,
7.885713,0.2177,-0.3705,-3.2572,0.0621,0.4291,-0.2491,-31.9313,29.7375,-4.8750,
7.900152,0.2177,-0.3705,-3.2572,0.0621,0.4291,-0.2491,-31.9313,29.7375,-4.8750,
7.901782,0.2177,-0.3705,-3.2572,0.0621,0.4291,-0.2491,-32.1750,29.2500,-5.8875,
