
time,ax,ay,az,wx,wy,wz,Bx,By,Bz,
0.024856,0.0000,0.0000,0.0000,0.0000,0.0000,0.0000,0.0000,0.0000,0.0000,
0.031269,0.6881,-0.3586,0.3481,0.0000,0.0000,0.0000,0.0000,0.0000,0.0000,
0.050015,0.5066,-0.4793,-0.0227,0.0000,0.0000,0.0000,0.0000,0.0000,0.0000,
0.060077,0.5066,-0.4793,-0.0227,0.0000,0.0000,0.0000,21.8250,-45.7875,-4.2375,
0.068786,0.5066,-0.4793,-0.0227,0.0522,-0.1033,0.0528,21.8250,-45.7875,-4.2375,
0.071897,-0.0526,-0.3245,-0.1699,0.0522,-0.1033,0.0528,21.8250,-45.7875,-4.2375,
0.074308,-0.0526,-0.3245,-0.1699,0.0522,-0.1033,0.0528,21.8250,-45.7875,-4.2375,
0.087641,-0.2023,-0.1839,-0.0190,0.0522,-0.1033,0.0528,21.8250,-45.7875,-4.2375,
0.108072,0.2799,-0.3081,0.3212,0.0522,-0.1033,0.0528,21.8250,-45.7875,-4.2375,
0.120729,0.2799,-0.3081,0.3212,0.0522,-0.1033,0.0528,21.4500,-46.1813,-4.0312,
0.124063,0.2799,-0.3081,0.3212,0.0522,-0.1033,0.0528,21.4500,-46.1813,-4.0312,
0.126115,0.9341,-0.4905,0.7872,0.0522,-0.1033,0.0528,21.4500,-46.1813,-4.0312,
0.130494,0.9341,-0.4905,0.7872,0.0168,-0.4393,0.2129,21.4500,-46.1813,-4.0312,
0.145366,1.0387,-0.5200,0.7457,0.0168,-0.4393,0.2129,21.4500,-46.1813,-4.0312,
0.165345,0.7618,-0.4256,0.5812,0.0168,-0.4393,0.2129,21.4500,-46.1813,-4.0312,
0.169402,0.7618,-0.4256,0.5812,0.0168,-0.4393,0.2129,21.4500,-46.1813,-4.0312,
0.179668,0.7618,-0.4256,0.5812,0.0168,-0.4393,0.2129,21.1688,-46.4250,-4.7438,
0.183491,0.4533,-0.4946,0.4647,0.0168,-0.4393,0.2129,21.1688,-46.4250,-4.7438,
0.192188,0.4533,-0.4946,0.4647,0.4102,-0.5492,0.0027,21.1688,-46.4250,-4.7438,
0.203077,0.3567,-0.4365,0.2341,0.4102,-0.5492,0.0027,21.1688,-46.4250,-4.7438,
0.216304,0.3567,-0.4365,0.2341,0.4102,-0.5492,0.0027,21.1688,-46.4250,-4.7438,
0.221475,0.3872,-0.4077,-0.1080,0.4102,-0.5492,0.0027,21.1688,-46.4250,-4.7438,
0.242109,0.3872,-0.4077,-0.1080,0.4102,-0.5492,0.0027,20.9813,-46.7250,-4.4250,
0.243410,0.3312,-0.4084,-0.4947,0.4102,-0.5492,0.0027,20.9813,-46.7250,-4.4250,
0.255610,0.3312,-0.4084,-0.4947,0.2061,-0.6445,0.0956,20.9813,-46.7250,-4.4250,
0.260178,0.3831,-0.3000,-0.5287,0.2061,-0.6445,0.0956,20.9813,-46.7250,-4.4250,
0.266083,0.3831,-0.3000,-0.5287,0.2061,-0.6445,0.0956,20.9813,-46.7250,-4.4250,
0.280079,0.5392,-0.6068,-0.0482,0.2061,-0.6445,0.0956,20.9813,-46.7250,-4.4250,
0.298969,-0.2662,-0.5814,-0.8397,0.2061,-0.6445,0.0956,20.9813,-46.7250,-4.4250,
0.301952,-0.2662,-0.5814,-0.8397,0.2061,-0.6445,0.0956,21.1688,-46.7438,-4.4438,
0.311927,-0.2662,-0.5814,-0.8397,0.2061,-0.6445,0.0956,21.1688,-46.7438,-4.4438,
0.316886,-0.2662,-0.5814,-0.8397,-0.4352,-0.2193,0.5574,21.1688,-46.7438,-4.4438,
0.318061,-0.1556,-0.4586,-0.9000,-0.4352,-0.2193,0.5574,21.1688,-46.7438,-4.4438,
0.337150,0.5098,-0.7708,-0.1379,-0.4352,-0.2193,0.5574,21.1688,-46.7438,-4.4438,
0.355103,0.6553,-0.7932,0.3444,-0.4352,-0.2193,0.5574,21.1688,-46.7438,-4.4438,
0.360199,0.6553,-0.7932,0.3444,-0.4352,-0.2193,0.5574,21.1688,-46.7438,-4.4438,
0.362671,0.6553,-0.7932,0.3444,-0.4352,-0.2193,0.5574,20.2500,-47.3438,-5.5500,
0.375483,0.6272,-0.4669,0.3896,-0.4352,-0.2193,0.5574,20.2500,-47.3438,-5.5500,
0.379988,0.6272,-0.4669,0.3896,-0.3106,0.2767,0.3986,20.2500,-47.3438,-5.5500,
0.394028,0.8072,-0.5114,0.7819,-0.3106,0.2767,0.3986,20.2500,-47.3438,-5.5500,
0.407809,0.8072,-0.5114,0.7819,-0.3106,0.2767,0.3986,20.2500,-47.3438,-5.5500,
0.413262,0.8283,-0.5301,1.1131,-0.3106,0.2767,0.3986,20.2500,-47.3438,-5.5500,
0.422260,0.8283,-0.5301,1.1131,-0.3106,0.2767,0.3986,19.1813,-47.2688,-6.2625,
0.432306,0.5034,-0.5659,1.2003,-0.3106,0.2767,0.3986,19.1813,-47.2688,-6.2625,
0.441490,0.5034,-0.5659,1.2003,0.6289,-0.5798,-0.0315,19.1813,-47.2688,-6.2625,
0.451749,0.1458,-0.6793,0.5187,0.6289,-0.5798,-0.0315,19.1813,-47.2688,-6.2625,
0.458165,0.1458,-0.6793,0.5187,0.6289,-0.5798,-0.0315,19.1813,-47.2688,-6.2625,
0.470751,0.1571,-0.2354,-1.3788,0.6289,-0.5798,-0.0315,19.1813,-47.2688,-6.2625,
0.482324,0.1571,-0.2354,-1.3788,0.6289,-0.5798,-0.0315,19.2750,-47.6438,-5.0063,
0.489104,0.1276,-0.6578,-0.3363,0.6289,-0.5798,-0.0315,19.2750,-47.6438,-5.0063,
0.503267,0.1276,-0.6578,-0.3363,0.6289,-0.5798,-0.0315,19.2750,-47.6438,-5.0063,
0.504053,0.1276,-0.6578,-0.3363,0.4859,-0.2353,-0.0327,19.2750,-47.6438,-5.0063,
0.510367,-0.0453,-0.2380,-0.2081,0.4859,-0.2353,-0.0327,19.2750,-47.6438,-5.0063,
0.528154,0.0631,-0.3798,0.3602,0.4859,-0.2353,-0.0327,19.2750,-47.6438,-5.0063,
0.540797,0.0631,-0.3798,0.3602,0.4859,-0.2353,-0.0327,18.6750,-47.4938,-3.7500,
0.547053,-0.3228,-0.4832,0.2639,0.4859,-0.2353,-0.0327,18.6750,-47.4938,-3.7500,
0.551350,-0.3228,-0.4832,0.2639,0.4859,-0.2353,-0.0327,18.6750,-47.4938,-3.7500,
0.566120,-0.3228,-0.4832,0.2639,0.5262,-0.8877,0.0198,18.6750,-47.4938,-3.7500,
0.569381,-0.7107,-0.3407,0.0001,0.5262,-0.8877,0.0198,18.6750,-47.4938,-3.7500,
0.585392,-0.5656,-0.4252,0.2264,0.5262,-0.8877,0.0198,18.6750,-47.4938,-3.7500,
0.598990,-0.5656,-0.4252,0.2264,0.5262,-0.8877,0.0198,18.6750,-47.4938,-3.7500,
0.600999,-0.5656,-0.4252,0.2264,0.5262,-0.8877,0.0198,18.2812,-47.6250,-2.9062,
0.604424,-0.6300,-0.2824,0.3717,0.5262,-0.8877,0.0198,18.2812,-47.6250,-2.9062,
0.624219,-0.8994,-0.0085,0.2937,0.5262,-0.8877,0.0198,18.2812,-47.6250,-2.9062,
0.628147,-0.8994,-0.0085,0.2937,0.4786,-0.8669,0.4304,18.2812,-47.6250,-2.9062,
0.642772,-0.9566,-0.0919,0.0078,0.4786,-0.8669,0.4304,18.2812,-47.6250,-2.9062,
0.646573,-0.9566,-0.0919,0.0078,0.4786,-0.8669,0.4304,18.2812,-47.6250,-2.9062,
0.659889,-0.9566,-0.0919,0.0078,0.4786,-0.8669,0.4304,18.9563,-48.1313,-1.5750,
0.662056,-0.9347,-0.1616,-0.3044,0.4786,-0.8669,0.4304,18.9563,-48.1313,-1.5750,
0.681767,-0.9502,-0.2201,-0.0424,0.4786,-0.8669,0.4304,18.9563,-48.1313,-1.5750,
0.690131,-0.9502,-0.2201,-0.0424,0.3076,-0.9548,0.6295,18.9563,-48.1313,-1.5750,
0.694311,-0.9502,-0.2201,-0.0424,0.3076,-0.9548,0.6295,18.9563,-48.1313,-1.5750,
0.700515,-1.5363,-0.3670,-0.1419,0.3076,-0.9548,0.6295,18.9563,-48.1313,-1.5750,
0.719445,-1.3820,-0.0812,0.1140,0.3076,-0.9548,0.6295,18.9563,-48.1313,-1.5750,
0.720640,-1.3820,-0.0812,0.1140,0.3076,-0.9548,0.6295,16.3688,-48.3563,-3.0563,
0.738431,-0.8977,-0.2972,0.2628,0.3076,-0.9548,0.6295,16.3688,-48.3563,-3.0563,
0.744787,-0.8977,-0.2972,0.2628,0.3076,-0.9548,0.6295,16.3688,-48.3563,-3.0563,
0.752902,-0.8977,-0.2972,0.2628,0.2538,-0.5981,0.8067,16.3688,-48.3563,-3.0563,
0.758433,-0.2808,-0.6896,0.1075,0.2538,-0.5981,0.8067,16.3688,-48.3563,-3.0563,
0.776306,-0.2936,-0.4983,0.4671,0.2538,-0.5981,0.8067,16.3688,-48.3563,-3.0563,
0.779127,-0.2936,-0.4983,0.4671,0.2538,-0.5981,0.8067,14.2500,-49.1063,-2.7000,
0.790382,-0.2936,-0.4983,0.4671,0.2538,-0.5981,0.8067,14.2500,-49.1063,-2.7000,
0.795511,0.0094,-0.5324,0.7074,0.2538,-0.5981,0.8067,14.2500,-49.1063,-2.7000,
0.814309,0.0094,-0.5324,0.7074,0.2441,0.0274,0.7541,14.2500,-49.1063,-2.7000,
0.817705,0.3636,-0.5209,1.4776,0.2441,0.0274,0.7541,14.2500,-49.1063,-2.7000,
0.833518,0.4943,-0.6012,1.4974,0.2441,0.0274,0.7541,14.2500,-49.1063,-2.7000,
0.837989,0.4943,-0.6012,1.4974,0.2441,0.0274,0.7541,14.2500,-49.1063,-2.7000,
0.839209,0.4943,-0.6012,1.4974,0.2441,0.0274,0.7541,12.6938,-49.4625,-2.4375,
0.854438,0.4921,-0.3872,1.8413,0.2441,0.0274,0.7541,12.6938,-49.4625,-2.4375,
0.872987,-1.1114,-0.2258,0.7822,0.2441,0.0274,0.7541,12.6938,-49.4625,-2.4375,
0.876952,-1.1114,-0.2258,0.7822,0.8866,0.1226,0.2826,12.6938,-49.4625,-2.4375,
0.885587,-1.1114,-0.2258,0.7822,0.8866,0.1226,0.2826,12.6938,-49.4625,-2.4375,
0.891970,-2.1774,-0.2096,-0.0982,0.8866,0.1226,0.2826,12.6938,-49.4625,-2.4375,
0.900388,-2.1774,-0.2096,-0.0982,0.8866,0.1226,0.2826,11.3063,-49.6875,0.5063,
0.910526,-1.0343,-0.6746,0.0467,0.8866,0.1226,0.2826,11.3063,-49.6875,0.5063,
0.930316,-0.1046,-0.5919,0.4497,0.8866,0.1226,0.2826,11.3063,-49.6875,0.5063,
0.935811,-0.1046,-0.5919,0.4497,0.8866,0.1226,0.2826,11.3063,-49.6875,0.5063,
0.937798,-0.1046,-0.5919,0.4497,0.7278,-0.4991,0.5587,11.3063,-49.6875,0.5063,
0.948101,0.2410,-0.6983,0.4546,0.7278,-0.4991,0.5587,11.3063,-49.6875,0.5063,
0.959528,0.2410,-0.6983,0.4546,0.7278,-0.4991,0.5587,9.1500,-49.7250,2.4375,
0.968111,0.3513,-0.7693,0.5157,0.7278,-0.4991,0.5587,9.1500,-49.7250,2.4375,
0.981975,0.3513,-0.7693,0.5157,0.7278,-0.4991,0.5587,9.1500,-49.7250,2.4375,
0.988044,0.5719,-0.9489,0.4782,0.7278,-0.4991,0.5587,9.1500,-49.7250,2.4375,
1.001096,0.5719,-0.9489,0.4782,0.8463,-0.4271,0.1018,9.1500,-49.7250,2.4375,
1.006217,0.2065,-0.9427,0.1947,0.8463,-0.4271,0.1018,9.1500,-49.7250,2.4375,
1.021367,0.2065,-0.9427,0.1947,0.8463,-0.4271,0.1018,9.8813,-49.1438,3.8813,
1.024589,-0.3524,-0.9988,-0.3822,0.8463,-0.4271,0.1018,9.8813,-49.1438,3.8813,
1.029277,-0.3524,-0.9988,-0.3822,0.8463,-0.4271,0.1018,9.8813,-49.1438,3.8813,
1.044379,-0.6010,-1.0110,-0.5872,0.8463,-0.4271,0.1018,9.8813,-49.1438,3.8813,
1.066095,-0.6010,-1.0110,-0.5872,0.5360,0.2009,0.1250,9.8813,-49.1438,3.8813,
1.069127,-0.5517,-1.0142,-0.4889,0.5360,0.2009,0.1250,9.8813,-49.1438,3.8813,
1.077081,-0.5517,-1.0142,-0.4889,0.5360,0.2009,0.1250,9.8813,-49.1438,3.8813,
1.079119,-0.5517,-1.0142,-0.4889,0.5360,0.2009,0.1250,9.6750,-49.0875,6.3750,
1.083021,-0.3546,-0.9699,-0.2719,0.5360,0.2009,0.1250,9.6750,-49.0875,6.3750,
1.102255,-0.2251,-1.0200,-0.2962,0.5360,0.2009,0.1250,9.6750,-49.0875,6.3750,
1.121083,-0.4816,-0.9446,-0.6193,0.5360,0.2009,0.1250,9.6750,-49.0875,6.3750,
1.125314,-0.4816,-0.9446,-0.6193,0.5360,0.2009,0.1250,9.6750,-49.0875,6.3750,
1.127489,-0.4816,-0.9446,-0.6193,0.2709,0.1521,0.2666,9.6750,-49.0875,6.3750,
1.140483,-0.1388,-1.1208,-0.5097,0.2709,0.1521,0.2666,9.6750,-49.0875,6.3750,
1.143865,-0.1388,-1.1208,-0.5097,0.2709,0.1521,0.2666,9.4688,-49.2188,6.9938,
1.159302,0.3166,-1.2698,-0.2240,0.2709,0.1521,0.2666,9.4688,-49.2188,6.9938,
1.173474,0.3166,-1.2698,-0.2240,0.2709,0.1521,0.2666,9.4688,-49.2188,6.9938,
1.178272,-0.2487,-1.2044,-0.5296,0.2709,0.1521,0.2666,9.4688,-49.2188,6.9938,
1.189407,-0.2487,-1.2044,-0.5296,0.2795,0.1594,0.2679,9.4688,-49.2188,6.9938,
1.201514,-0.6612,-0.9888,-1.1123,0.2795,0.1594,0.2679,9.4688,-49.2188,6.9938,
1.204718,-0.6612,-0.9888,-1.1123,0.2795,0.1594,0.2679,8.1750,-48.6375,8.0813,
1.216215,-0.9098,-0.7259,-1.4159,0.2795,0.1594,0.2679,8.1750,-48.6375,8.0813,
1.221102,-0.9098,-0.7259,-1.4159,0.2795,0.1594,0.2679,8.1750,-48.6375,8.0813,
1.236273,-0.9286,-0.6417,-1.2876,0.2795,0.1594,0.2679,8.1750,-48.6375,8.0813,
1.249347,-0.9286,-0.6417,-1.2876,0.1513,0.0531,0.4756,8.1750,-48.6375,8.0813,
1.255291,-0.8736,-0.5702,-1.1562,0.1513,0.0531,0.4756,8.1750,-48.6375,8.0813,
1.260219,-0.8736,-0.5702,-1.1562,0.1513,0.0531,0.4756,6.8063,-48.7125,8.2313,
1.268466,-0.8736,-0.5702,-1.1562,0.1513,0.0531,0.4756,6.8063,-48.7125,8.2313,
1.274381,-0.6650,-0.6941,-0.8255,0.1513,0.0531,0.4756,6.8063,-48.7125,8.2313,
1.293509,-0.1056,-0.7734,-0.3991,0.1513,0.0531,0.4756,6.8063,-48.7125,8.2313,
1.311704,-0.1056,-0.7734,-0.3991,0.2856,-0.1204,0.4169,6.8063,-48.7125,8.2313,
1.314692,0.5864,-0.9283,0.1221,0.2856,-0.1204,0.4169,6.8063,-48.7125,8.2313,
1.317744,0.5864,-0.9283,0.1221,0.2856,-0.1204,0.4169,6.8063,-48.7125,8.2313,
1.319453,0.5864,-0.9283,0.1221,0.2856,-0.1204,0.4169,5.8313,-48.7125,8.7750,
1.331301,0.8804,-1.1223,1.4714,0.2856,-0.1204,0.4169,5.8313,-48.7125,8.7750,
1.350480,1.1208,-1.5417,2.5076,0.2856,-0.1204,0.4169,5.8313,-48.7125,8.7750,
1.365574,1.1208,-1.5417,2.5076,0.2856,-0.1204,0.4169,5.8313,-48.7125,8.7750,
1.369547,1.8616,-3.2267,2.0624,0.2856,-0.1204,0.4169,5.8313,-48.7125,8.7750,
1.372873,1.8616,-3.2267,2.0624,1.2287,-0.4808,-0.8231,5.8313,-48.7125,8.7750,
1.379195,1.8616,-3.2267,2.0624,1.2287,-0.4808,-0.8231,7.2563,-48.5813,10.9125,
1.388432,-1.0270,-0.9533,0.8919,1.2287,-0.4808,-0.8231,7.2563,-48.5813,10.9125,
1.410412,-3.2274,-0.2036,0.3538,1.2287,-0.4808,-0.8231,7.2563,-48.5813,10.9125,
1.413886,-3.2274,-0.2036,0.3538,1.2287,-0.4808,-0.8231,7.2563,-48.5813,10.9125,
1.427299,-1.7483,-1.3795,-0.3547,1.2287,-0.4808,-0.8231,7.2563,-48.5813,10.9125,
1.436243,-1.7483,-1.3795,-0.3547,1.5977,-0.8388,-0.1854,7.2563,-48.5813,10.9125,
1.440425,-1.7483,-1.3795,-0.3547,1.5977,-0.8388,-0.1854,10.0500,-46.4813,14.2688,
1.446279,-1.0808,-1.8814,-1.0164,1.5977,-0.8388,-0.1854,10.0500,-46.4813,14.2688,
1.459820,-1.0808,-1.8814,-1.0164,1.5977,-0.8388,-0.1854,10.0500,-46.4813,14.2688,
1.466060,-1.5004,-1.6638,-1.8476,1.5977,-0.8388,-0.1854,10.0500,-46.4813,14.2688,
1.484754,-1.7119,-1.5873,-2.4946,1.5977,-0.8388,-0.1854,10.0500,-46.4813,14.2688,
1.498076,-1.7119,-1.5873,-2.4946,0.8635,0.4379,-0.1401,10.0500,-46.4813,14.2688,
1.499579,-1.7119,-1.5873,-2.4946,0.8635,0.4379,-0.1401,11.0438,-45.1688,16.6500,
1.502913,-2.4281,-1.0529,-2.1130,0.8635,0.4379,-0.1401,11.0438,-45.1688,16.6500,
1.507449,-2.4281,-1.0529,-2.1130,0.8635,0.4379,-0.1401,11.0438,-45.1688,16.6500,
1.523002,-2.9601,-0.6774,-1.9893,0.8635,0.4379,-0.1401,11.0438,-45.1688,16.6500,
1.542157,-2.7015,-1.1352,-1.6355,0.8635,0.4379,-0.1401,11.0438,-45.1688,16.6500,
1.555086,-2.7015,-1.1352,-1.6355,0.8635,0.4379,-0.1401,11.0438,-45.1688,16.6500,
1.560621,-2.7015,-1.1352,-1.6355,0.8635,0.4379,-0.1401,10.4438,-45.2063,17.7000,
1.561888,-2.7015,-1.1352,-1.6355,-0.4449,0.2926,0.5427,10.4438,-45.2063,17.7000,
1.562695,-2.6869,-1.5243,-0.8311,-0.4449,0.2926,0.5427,10.4438,-45.2063,17.7000,
1.580343,-2.5586,-1.5573,-0.2619,-0.4449,0.2926,0.5427,10.4438,-45.2063,17.7000,
1.599553,-3.0987,-1.4746,0.1710,-0.4449,0.2926,0.5427,10.4438,-45.2063,17.7000,
1.602548,-3.0987,-1.4746,0.1710,-0.4449,0.2926,0.5427,10.4438,-45.2063,17.7000,
1.617950,-3.6327,-1.4216,-0.0312,-0.4449,0.2926,0.5427,10.4438,-45.2063,17.7000,
1.619364,-3.6327,-1.4216,-0.0312,-0.4449,0.2926,0.5427,8.9438,-46.2750,16.5000,
1.623265,-3.6327,-1.4216,-0.0312,-0.3289,0.1203,0.8751,8.9438,-46.2750,16.5000,
1.637696,-4.4511,-1.6291,-1.0576,-0.3289,0.1203,0.8751,8.9438,-46.2750,16.5000,
1.651287,-4.4511,-1.6291,-1.0576,-0.3289,0.1203,0.8751,8.9438,-46.2750,16.5000,
1.656431,-5.1663,-1.9270,-1.8639,-0.3289,0.1203,0.8751,8.9438,-46.2750,16.5000,
1.677022,-6.6130,-2.0094,-2.3630,-0.3289,0.1203,0.8751,8.9438,-46.2750,16.5000,
1.681141,-6.6130,-2.0094,-2.3630,-0.3289,0.1203,0.8751,6.0000,-47.4750,14.8125,
1.683977,-6.6130,-2.0094,-2.3630,-0.8018,-0.3831,2.3618,6.0000,-47.4750,14.8125,
1.694606,-6.7572,-1.1870,-4.4317,-0.8018,-0.3831,2.3618,6.0000,-47.4750,14.8125,
1.700026,-6.7572,-1.1870,-4.4317,-0.8018,-0.3831,2.3618,6.0000,-47.4750,14.8125,
1.714041,-4.6281,-2.1958,-4.8662,-0.8018,-0.3831,2.3618,6.0000,-47.4750,14.8125,
1.732907,-4.6223,-0.2183,-3.3727,-0.8018,-0.3831,2.3618,6.0000,-47.4750,14.8125,
1.739773,-4.6223,-0.2183,-3.3727,-0.8018,-0.3831,2.3618,1.1063,-48.3938,10.9875,
1.746355,-4.6223,-0.2183,-3.3727,-0.8018,-0.3831,2.3618,1.1063,-48.3938,10.9875,
1.748927,-4.6223,-0.2183,-3.3727,-2.0870,-0.0154,1.8011,1.1063,-48.3938,10.9875,
1.751586,-4.3344,0.1120,-2.0085,-2.0870,-0.0154,1.8011,1.1063,-48.3938,10.9875,
1.771325,1.2531,-3.4414,-1.4529,-2.0870,-0.0154,1.8011,1.1063,-48.3938,10.9875,
1.790286,-3.6156,3.4375,1.8714,-2.0870,-0.0154,1.8011,1.1063,-48.3938,10.9875,
1.794488,-3.6156,3.4375,1.8714,-2.0870,-0.0154,1.8011,1.1063,-48.3938,10.9875,
1.800278,-3.6156,3.4375,1.8714,-2.0870,-0.0154,1.8011,-1.4062,-49.6313,6.2813,
1.812192,-3.6156,3.4375,1.8714,-1.6508,-1.2334,0.9751,-1.4062,-49.6313,6.2813,
1.815420,-7.1472,6.1978,5.9915,-1.6508,-1.2334,0.9751,-1.4062,-49.6313,6.2813,
1.828220,-1.9663,1.5201,3.8898,-1.6508,-1.2334,0.9751,-1.4062,-49.6313,6.2813,
1.842917,-1.9663,1.5201,3.8898,-1.6508,-1.2334,0.9751,-1.4062,-49.6313,6.2813,
1.848323,-0.5376,1.1567,3.4248,-1.6508,-1.2334,0.9751,-1.4062,-49.6313,6.2813,
1.860407,-0.5376,1.1567,3.4248,-1.6508,-1.2334,0.9751,-4.4250,-49.3688,5.0250,
1.866561,-3.2620,4.1469,1.0343,-1.6508,-1.2334,0.9751,-4.4250,-49.3688,5.0250,
1.870534,-3.2620,4.1469,1.0343,0.8280,-1.1833,1.5055,-4.4250,-49.3688,5.0250,
1.886641,-0.8531,3.0394,-0.6757,0.8280,-1.1833,1.5055,-4.4250,-49.3688,5.0250,
1.889439,-0.8531,3.0394,-0.6757,0.8280,-1.1833,1.5055,-4.4250,-49.3688,5.0250,
1.905597,3.1945,0.6824,2.1305,0.8280,-1.1833,1.5055,-4.4250,-49.3688,5.0250,
1.919419,3.1945,0.6824,2.1305,0.8280,-1.1833,1.5055,-6.2250,-48.4688,6.1125,
1.924559,5.0612,-0.0998,5.4539,0.8280,-1.1833,1.5055,-6.2250,-48.4688,6.1125,
1.932890,5.0612,-0.0998,5.4539,-0.9068,-3.5058,0.5745,-6.2250,-48.4688,6.1125,
1.937468,5.0612,-0.0998,5.4539,-0.9068,-3.5058,0.5745,-6.2250,-48.4688,6.1125,
1.943758,6.4350,-3.1687,7.1940,-0.9068,-3.5058,0.5745,-6.2250,-48.4688,6.1125,
1.962561,4.7143,-6.6996,7.0649,-0.9068,-3.5058,0.5745,-6.2250,-48.4688,6.1125,
1.979221,4.7143,-6.6996,7.0649,-0.9068,-3.5058,0.5745,-6.0188,-48.7313,5.3813,
1.981253,-2.1520,-2.9868,5.5746,-0.9068,-3.5058,0.5745,-6.0188,-48.7313,5.3813,
1.985328,-2.1520,-2.9868,5.5746,-0.9068,-3.5058,0.5745,-6.0188,-48.7313,5.3813,
1.995192,-2.1520,-2.9868,5.5746,2.3100,3.3835,0.2238,-6.0188,-48.7313,5.3813,
2.000324,0.5353,-5.7657,2.7576,2.3100,3.3835,0.2238,-6.0188,-48.7313,5.3813,
2.019787,0.5038,-5.7729,-2.2947,2.3100,3.3835,0.2238,-6.0188,-48.7313,5.3813,
2.033333,0.5038,-5.7729,-2.2947,2.3100,3.3835,0.2238,-6.0188,-48.7313,5.3813,
2.038528,-2.7691,-4.8101,-6.2318,2.3100,3.3835,0.2238,-6.0188,-48.7313,5.3813,
2.039866,-2.7691,-4.8101,-6.2318,2.3100,3.3835,0.2238,-6.3563,-47.0813,11.2313,
2.057509,-2.7691,-4.8101,-6.2318,1.0931,-2.4258,-0.1353,-6.3563,-47.0813,11.2313,
2.060861,-3.5181,-4.5225,-7.5953,1.0931,-2.4258,-0.1353,-6.3563,-47.0813,11.2313,
2.080486,-0.2317,-5.0341,-2.9645,1.0931,-2.4258,-0.1353,-6.3563,-47.0813,11.2313,
2.083633,-0.2317,-5.0341,-2.9645,1.0931,-2.4258,-0.1353,-6.3563,-47.0813,11.2313,
2.096584,8.0527,-7.0719,4.0443,1.0931,-2.4258,-0.1353,-6.3563,-47.0813,11.2313,
2.099961,8.0527,-7.0719,4.0443,1.0931,-2.4258,-0.1353,-5.3063,-46.7250,13.0688,
2.115573,16.5957,-10.0645,7.2890,1.0931,-2.4258,-0.1353,-5.3063,-46.7250,13.0688,
2.119452,16.5957,-10.0645,7.2890,0.7987,-3.9102,0.0736,-5.3063,-46.7250,13.0688,
2.128825,16.5957,-10.0645,7.2890,0.7987,-3.9102,0.0736,-5.3063,-46.7250,13.0688,
2.135976,17.5870,-8.6399,5.0012,0.7987,-3.9102,0.0736,-5.3063,-46.7250,13.0688,
2.162483,13.2242,-5.2848,-0.9746,0.7987,-3.9102,0.0736,-5.3063,-46.7250,13.0688,
2.167064,13.2242,-5.2848,-0.9746,0.7987,-3.9102,0.0736,0.2438,-45.5250,16.8563,
2.171936,14.5947,-7.7294,-7.9816,0.7987,-3.9102,0.0736,0.2438,-45.5250,16.8563,
2.176681,14.5947,-7.7294,-7.9816,0.7987,-3.9102,0.0736,0.2438,-45.5250,16.8563,
2.181845,14.5947,-7.7294,-7.9816,1.5538,-0.0887,-2.0351,0.2438,-45.5250,16.8563,
2.191681,11.6967,-5.6229,-11.5385,1.5538,-0.0887,-2.0351,0.2438,-45.5250,16.8563,
2.212126,5.7341,-4.9868,-13.1558,1.5538,-0.0887,-2.0351,0.2438,-45.5250,16.8563,
2.221074,5.7341,-4.9868,-13.1558,1.5538,-0.0887,-2.0351,4.2563,-44.1938,18.9375,
2.224720,5.7341,-4.9868,-13.1558,1.5538,-0.0887,-2.0351,4.2563,-44.1938,18.9375,
2.230063,-3.1155,-3.1663,-13.6324,1.5538,-0.0887,-2.0351,4.2563,-44.1938,18.9375,
2.244218,-3.1155,-3.1663,-13.6324,-2.0015,2.5222,-1.4402,4.2563,-44.1938,18.9375,
2.249155,-10.3846,1.7485,-8.7292,-2.0015,2.5222,-1.4402,4.2563,-44.1938,18.9375,
2.268235,-9.4615,5.3377,1.6597,-2.0015,2.5222,-1.4402,4.2563,-44.1938,18.9375,
2.272187,-9.4615,5.3377,1.6597,-2.0015,2.5222,-1.4402,4.2563,-44.1938,18.9375,
2.281619,-9.4615,5.3377,1.6597,-2.0015,2.5222,-1.4402,4.2750,-45.8625,15.2813,
2.287880,0.8329,2.9651,5.1888,-2.0015,2.5222,-1.4402,4.2750,-45.8625,15.2813,
2.306008,0.8329,2.9651,5.1888,1.9702,-2.5724,3.4785,4.2750,-45.8625,15.2813,
2.307469,9.9146,1.3587,1.1650,1.9702,-2.5724,3.4785,4.2750,-45.8625,15.2813,
2.321528,9.9146,1.3587,1.1650,1.9702,-2.5724,3.4785,4.2750,-45.8625,15.2813,
2.325942,9.3291,1.2819,-7.5584,1.9702,-2.5724,3.4785,4.2750,-45.8625,15.2813,
2.340505,9.3291,1.2819,-7.5584,1.9702,-2.5724,3.4785,-0.3750,-43.1813,19.3875,
2.347000,5.7323,1.0852,-11.2389,1.9702,-2.5724,3.4785,-0.3750,-43.1813,19.3875,
2.363774,0.9711,1.2280,-10.5775,1.9702,-2.5724,3.4785,-0.3750,-43.1813,19.3875,
2.368109,0.9711,1.2280,-10.5775,1.9702,-2.5724,3.4785,-0.3750,-43.1813,19.3875,
2.369098,0.9711,1.2280,-10.5775,0.0803,-1.5339,0.1188,-0.3750,-43.1813,19.3875,
2.382962,-2.7615,0.2965,-7.5676,0.0803,-1.5339,0.1188,-0.3750,-43.1813,19.3875,
2.399658,-2.7615,0.2965,-7.5676,0.0803,-1.5339,0.1188,0.5063,-43.5563,20.2875,
2.401803,-3.4148,-1.5398,-3.1045,0.0803,-1.5339,0.1188,0.5063,-43.5563,20.2875,
2.415678,-3.4148,-1.5398,-3.1045,0.0803,-1.5339,0.1188,0.5063,-43.5563,20.2875,
2.422491,-3.1693,-2.7165,0.4580,0.0803,-1.5339,0.1188,0.5063,-43.5563,20.2875,
2.429695,-3.1693,-2.7165,0.4580,-1.5665,-0.8535,-0.4236,0.5063,-43.5563,20.2875,
2.440482,-2.6912,-3.6729,1.9078,-1.5665,-0.8535,-0.4236,0.5063,-43.5563,20.2875,
2.460451,-2.9123,-4.2419,1.4281,-1.5665,-0.8535,-0.4236,0.5063,-43.5563,20.2875,
2.463572,-2.9123,-4.2419,1.4281,-1.5665,-0.8535,-0.4236,4.3500,-45.4500,14.9813,
2.465160,-2.9123,-4.2419,1.4281,-1.5665,-0.8535,-0.4236,4.3500,-45.4500,14.9813,
2.479311,-3.2998,-4.7440,-0.1388,-1.5665,-0.8535,-0.4236,4.3500,-45.4500,14.9813,
2.492733,-3.2998,-4.7440,-0.1388,-0.9606,-0.7802,-0.7120,4.3500,-45.4500,14.9813,
2.499252,-3.9010,-4.2398,-0.4353,-0.9606,-0.7802,-0.7120,4.3500,-45.4500,14.9813,
2.511706,-3.9010,-4.2398,-0.4353,-0.9606,-0.7802,-0.7120,4.3500,-45.4500,14.9813,
2.517236,-4.1235,-3.4451,-0.4870,-0.9606,-0.7802,-0.7120,4.3500,-45.4500,14.9813,
2.519091,-4.1235,-3.4451,-0.4870,-0.9606,-0.7802,-0.7120,5.0625,-46.0500,14.6438,
2.536333,-2.4654,-2.6665,0.1318,-0.9606,-0.7802,-0.7120,5.0625,-46.0500,14.6438,
2.555119,-2.4654,-2.6665,0.1318,-0.8921,-0.0825,0.2519,5.0625,-46.0500,14.6438,
2.558229,-1.0098,-2.1561,-0.1527,-0.8921,-0.0825,0.2519,5.0625,-46.0500,14.6438,
2.561368,-1.0098,-2.1561,-0.1527,-0.8921,-0.0825,0.2519,5.0625,-46.0500,14.6438,
2.574184,0.0512,-1.7356,-1.0449,-0.8921,-0.0825,0.2519,5.0625,-46.0500,14.6438,
2.580225,0.0512,-1.7356,-1.0449,-0.8921,-0.0825,0.2519,4.7438,-47.1750,12.1500,
2.593442,0.8942,-1.6168,-1.1711,-0.8921,-0.0825,0.2519,4.7438,-47.1750,12.1500,
2.607707,0.8942,-1.6168,-1.1711,-0.8921,-0.0825,0.2519,4.7438,-47.1750,12.1500,
2.613654,0.9428,-1.5490,-0.7794,-0.8921,-0.0825,0.2519,4.7438,-47.1750,12.1500,
2.617137,0.9428,-1.5490,-0.7794,-1.0009,0.5307,0.3264,4.7438,-47.1750,12.1500,
2.633089,1.2741,-0.6386,0.2214,-1.0009,0.5307,0.3264,4.7438,-47.1750,12.1500,
2.640028,1.2741,-0.6386,0.2214,-1.0009,0.5307,0.3264,4.2188,-47.7375,9.8625,
2.651543,2.3739,-0.3105,0.8250,-1.0009,0.5307,0.3264,4.2188,-47.7375,9.8625,
2.657988,2.3739,-0.3105,0.8250,-1.0009,0.5307,0.3264,4.2188,-47.7375,9.8625,
2.670295,2.7240,-0.2395,0.9477,-1.0009,0.5307,0.3264,4.2188,-47.7375,9.8625,
2.679268,2.7240,-0.2395,0.9477,-0.3326,0.7898,0.2824,4.2188,-47.7375,9.8625,
2.690077,2.3154,-0.4872,0.8049,-0.3326,0.7898,0.2824,4.2188,-47.7375,9.8625,
2.699398,2.3154,-0.4872,0.8049,-0.3326,0.7898,0.2824,1.7063,-47.8875,8.9062,
2.702551,2.3154,-0.4872,0.8049,-0.3326,0.7898,0.2824,1.7063,-47.8875,8.9062,
2.708508,1.1612,-0.6275,0.4208,-0.3326,0.7898,0.2824,1.7063,-47.8875,8.9062,
2.727532,0.0513,-0.8904,-0.0826,-0.3326,0.7898,0.2824,1.7063,-47.8875,8.9062,
2.741800,0.0513,-0.8904,-0.0826,-0.0003,0.7726,0.0381,1.7063,-47.8875,8.9062,
2.748712,-0.5432,-1.1366,-0.7546,-0.0003,0.7726,0.0381,1.7063,-47.8875,8.9062,
2.750772,-0.5432,-1.1366,-0.7546,-0.0003,0.7726,0.0381,1.7063,-47.8875,8.9062,
2.761130,-0.5432,-1.1366,-0.7546,-0.0003,0.7726,0.0381,1.2375,-48.1313,7.9875,
2.766392,-0.8874,-1.1059,-0.8322,-0.0003,0.7726,0.0381,1.2375,-48.1313,7.9875,
2.785265,-0.2874,-1.0059,-0.1266,-0.0003,0.7726,0.0381,1.2375,-48.1313,7.9875,
2.799092,-0.2874,-1.0059,-0.1266,-0.0003,0.7726,0.0381,1.2375,-48.1313,7.9875,
2.802597,-0.2874,-1.0059,-0.1266,-0.3693,0.4452,0.5012,1.2375,-48.1313,7.9875,
2.803940,1.2018,-0.9424,0.6180,-0.3693,0.4452,0.5012,1.2375,-48.1313,7.9875,
2.820567,1.2018,-0.9424,0.6180,-0.3693,0.4452,0.5012,-0.2250,-48.2625,7.6125,
2.823607,2.4966,-0.7253,1.3760,-0.3693,0.4452,0.5012,-0.2250,-48.2625,7.6125,
2.842506,2.6109,-0.4604,1.1708,-0.3693,0.4452,0.5012,-0.2250,-48.2625,7.6125,
2.846244,2.6109,-0.4604,1.1708,-0.3693,0.4452,0.5012,-0.2250,-48.2625,7.6125,
2.861575,1.9944,-0.5996,0.3782,-0.3693,0.4452,0.5012,-0.2250,-48.2625,7.6125,
2.868523,1.9944,-0.5996,0.3782,0.2074,0.3732,-0.1170,-0.2250,-48.2625,7.6125,
2.880689,1.1406,-0.5089,-0.2444,0.2074,0.3732,-0.1170,-0.2250,-48.2625,7.6125,
2.881919,1.1406,-0.5089,-0.2444,0.2074,0.3732,-0.1170,-0.0375,-48.0563,7.5938,
2.894262,1.1406,-0.5089,-0.2444,0.2074,0.3732,-0.1170,-0.0375,-48.0563,7.5938,
2.899573,0.5111,-0.6230,-0.3792,0.2074,0.3732,-0.1170,-0.0375,-48.0563,7.5938,
2.918122,0.2677,-0.5732,0.1410,0.2074,0.3732,-0.1170,-0.0375,-48.0563,7.5938,
2.927328,0.2677,-0.5732,0.1410,0.0522,0.5112,-0.0107,-0.0375,-48.0563,7.5938,
2.938017,0.6892,-0.6119,0.5674,0.0522,0.5112,-0.0107,-0.0375,-48.0563,7.5938,
2.942132,0.6892,-0.6119,0.5674,0.0522,0.5112,-0.0107,0.6562,-48.0000,6.0188,
2.944416,0.6892,-0.6119,0.5674,0.0522,0.5112,-0.0107,0.6562,-48.0000,6.0188,
2.956989,0.7801,-0.7006,0.4762,0.0522,0.5112,-0.0107,0.6562,-48.0000,6.0188,
2.977457,0.6381,-0.7880,0.0566,0.0522,0.5112,-0.0107,0.6562,-48.0000,6.0188,
2.990516,0.6381,-0.7880,0.0566,0.0522,0.5112,-0.0107,0.6562,-48.0000,6.0188,
2.991770,0.6381,-0.7880,0.0566,0.3589,0.4892,-0.1280,0.6562,-48.0000,6.0188,
2.994623,0.0477,-0.7949,-0.4335,0.3589,0.4892,-0.1280,0.6562,-48.0000,6.0188,
3.000439,0.0477,-0.7949,-0.4335,0.3589,0.4892,-0.1280,-0.6375,-47.9062,8.7563,
3.014367,-0.6914,-0.6689,-0.3501,0.3589,0.4892,-0.1280,-0.6375,-47.9062,8.7563,
3.034600,-0.6770,-0.5210,-0.5190,0.3589,0.4892,-0.1280,-0.6375,-47.9062,8.7563,
3.037442,-0.6770,-0.5210,-0.5190,0.3589,0.4892,-0.1280,-0.6375,-47.9062,8.7563,
3.051163,-0.6770,-0.5210,-0.5190,0.2123,0.0433,0.0173,-0.6375,-47.9062,8.7563,
3.051930,-0.0124,-0.1869,-0.8150,0.2123,0.0433,0.0173,-0.6375,-47.9062,8.7563,
3.058674,-0.0124,-0.1869,-0.8150,0.2123,0.0433,0.0173,-0.4500,-47.7000,8.3438,
3.071638,1.1912,-0.1739,-0.9416,0.2123,0.0433,0.0173,-0.4500,-47.7000,8.3438,
3.085007,1.1912,-0.1739,-0.9416,0.2123,0.0433,0.0173,-0.4500,-47.7000,8.3438,
3.091015,1.3924,-0.0032,-0.9463,0.2123,0.0433,0.0173,-0.4500,-47.7000,8.3438,
3.112657,1.0346,0.0282,-0.7041,0.2123,0.0433,0.0173,-0.4500,-47.7000,8.3438,
3.115667,1.0346,0.0282,-0.7041,-0.0968,0.3352,-0.2282,-0.4500,-47.7000,8.3438,
3.119687,1.0346,0.0282,-0.7041,-0.0968,0.3352,-0.2282,-0.4500,-47.7563,9.2812,
3.128947,0.4932,0.0169,-0.5195,-0.0968,0.3352,-0.2282,-0.4500,-47.7563,9.2812,
3.133264,0.4932,0.0169,-0.5195,-0.0968,0.3352,-0.2282,-0.4500,-47.7563,9.2812,
3.148473,0.6166,-0.1963,-0.2523,-0.0968,0.3352,-0.2282,-0.4500,-47.7563,9.2812,
3.167709,1.4302,-0.2299,-0.3797,-0.0968,0.3352,-0.2282,-0.4500,-47.7563,9.2812,
3.178306,1.4302,-0.2299,-0.3797,-0.1310,0.1948,-0.1928,-0.4500,-47.7563,9.2812,
3.180442,1.4302,-0.2299,-0.3797,-0.1310,0.1948,-0.1928,-0.2438,-47.9250,8.6438,
3.181925,1.4302,-0.2299,-0.3797,-0.1310,0.1948,-0.1928,-0.2438,-47.9250,8.6438,
3.185865,2.0715,-0.4930,-0.7823,-0.1310,0.1948,-0.1928,-0.2438,-47.9250,8.6438,
3.205136,1.7802,-0.5616,-0.7312,-0.1310,0.1948,-0.1928,-0.2438,-47.9250,8.6438,
3.231114,1.2439,-0.6134,-0.6232,-0.1310,0.1948,-0.1928,-0.2438,-47.9250,8.6438,
3.233055,1.2439,-0.6134,-0.6232,-0.1310,0.1948,-0.1928,-0.2438,-47.9250,8.6438,
3.237814,1.2439,-0.6134,-0.6232,-0.3289,0.2094,-0.6082,-0.2438,-47.9250,8.6438,
3.239126,1.2439,-0.6134,-0.6232,-0.3289,0.2094,-0.6082,1.2188,-47.9250,7.9875,
3.244725,0.8191,-0.7299,-0.4946,-0.3289,0.2094,-0.6082,1.2188,-47.9250,7.9875,
3.262659,0.6405,-0.7856,-0.4073,-0.3289,0.2094,-0.6082,1.2188,-47.9250,7.9875,
3.277741,0.6405,-0.7856,-0.4073,-0.3289,0.2094,-0.6082,1.2188,-47.9250,7.9875,
3.282108,0.4597,-1.0944,-0.6062,-0.3289,0.2094,-0.6082,1.2188,-47.9250,7.9875,
3.299883,0.4597,-1.0944,-0.6062,-0.3289,0.2094,-0.6082,2.7000,-48.2250,7.3125,
3.302269,0.4597,-1.0944,-0.6062,-0.2753,-0.0312,-0.6974,2.7000,-48.2250,7.3125,
3.303846,0.2982,-1.1394,-0.5548,-0.2753,-0.0312,-0.6974,2.7000,-48.2250,7.3125,
3.324866,-0.2591,-1.0964,-0.5945,-0.2753,-0.0312,-0.6974,2.7000,-48.2250,7.3125,
3.328036,-0.2591,-1.0964,-0.5945,-0.2753,-0.0312,-0.6974,2.7000,-48.2250,7.3125,
3.339751,-0.8132,-0.9768,-0.5826,-0.2753,-0.0312,-0.6974,2.7000,-48.2250,7.3125,
3.358725,-0.9965,-0.5734,-0.3655,-0.2753,-0.0312,-0.6974,2.7000,-48.2250,7.3125,
3.362245,-0.9965,-0.5734,-0.3655,-0.2753,-0.0312,-0.6974,4.4438,-47.9625,7.0500,
3.364004,-0.9965,-0.5734,-0.3655,-0.2618,-0.4845,-0.3919,4.4438,-47.9625,7.0500,
3.372916,-0.9965,-0.5734,-0.3655,-0.2618,-0.4845,-0.3919,4.4438,-47.9625,7.0500,
3.377334,-0.3704,-0.3155,-0.4825,-0.2618,-0.4845,-0.3919,4.4438,-47.9625,7.0500,
3.397338,0.2371,-0.1637,-0.4472,-0.2618,-0.4845,-0.3919,4.4438,-47.9625,7.0500,
3.416069,0.9708,0.0138,-0.2457,-0.2618,-0.4845,-0.3919,4.4438,-47.9625,7.0500,
3.420435,0.9708,0.0138,-0.2457,-0.2618,-0.4845,-0.3919,6.8250,-48.2813,4.2750,
3.422608,0.9708,0.0138,-0.2457,-0.2618,-0.4845,-0.3919,6.8250,-48.2813,4.2750,
3.424491,0.9708,0.0138,-0.2457,-0.0565,-0.8155,-0.1060,6.8250,-48.2813,4.2750,
3.435548,2.0727,0.1507,-0.4958,-0.0565,-0.8155,-0.1060,6.8250,-48.2813,4.2750,
3.453700,2.7956,0.0649,-1.3901,-0.0565,-0.8155,-0.1060,6.8250,-48.2813,4.2750,
3.468666,2.7956,0.0649,-1.3901,-0.0565,-0.8155,-0.1060,6.8250,-48.2813,4.2750,
3.473902,2.1814,-0.0790,-2.3040,-0.0565,-0.8155,-0.1060,6.8250,-48.2813,4.2750,
3.479081,2.1814,-0.0790,-2.3040,-0.0565,-0.8155,-0.1060,6.9000,-48.2250,6.7688,
3.487319,2.1814,-0.0790,-2.3040,0.0082,-0.7655,-0.4456,6.9000,-48.2250,6.7688,
3.492518,1.5296,-0.3436,-2.5886,0.0082,-0.7655,-0.4456,6.9000,-48.2250,6.7688,
3.512025,1.0910,-0.6077,-1.8560,0.0082,-0.7655,-0.4456,6.9000,-48.2250,6.7688,
3.515603,1.0910,-0.6077,-1.8560,0.0082,-0.7655,-0.4456,6.9000,-48.2250,6.7688,
3.531520,1.1458,-0.7969,-1.4684,0.0082,-0.7655,-0.4456,6.9000,-48.2250,6.7688,
3.539970,1.1458,-0.7969,-1.4684,0.0082,-0.7655,-0.4456,8.3250,-47.5688,6.6375,
3.549037,1.1458,-0.7969,-1.4684,0.5055,-1.2493,-0.4016,8.3250,-47.5688,6.6375,
3.550530,0.6613,-0.8417,-2.1554,0.5055,-1.2493,-0.4016,8.3250,-47.5688,6.6375,
3.564001,0.6613,-0.8417,-2.1554,0.5055,-1.2493,-0.4016,8.3250,-47.5688,6.6375,
3.568811,0.2672,-1.0422,-2.9152,0.5055,-1.2493,-0.4016,8.3250,-47.5688,6.6375,
3.588263,0.2783,-1.3774,-3.5415,0.5055,-1.2493,-0.4016,8.3250,-47.5688,6.6375,
3.601334,0.2783,-1.3774,-3.5415,0.5055,-1.2493,-0.4016,10.5563,-47.2875,7.4063,
3.607717,0.8157,-1.8131,-4.0630,0.5055,-1.2493,-0.4016,10.5563,-47.2875,7.4063,
3.613290,0.8157,-1.8131,-4.0630,0.5055,-1.2493,-0.4016,10.5563,-47.2875,7.4063,
3.615641,0.8157,-1.8131,-4.0630,0.5519,-2.0349,-0.3699,10.5563,-47.2875,7.4063,
3.628549,1.5205,-2.3775,-4.8390,0.5519,-2.0349,-0.3699,10.5563,-47.2875,7.4063,
3.645155,1.3039,-2.4949,-5.3797,0.5519,-2.0349,-0.3699,10.5563,-47.2875,7.4063,
3.658405,1.3039,-2.4949,-5.3797,0.5519,-2.0349,-0.3699,10.5563,-47.2875,7.4063,
3.659366,1.3039,-2.4949,-5.3797,0.5519,-2.0349,-0.3699,13.0875,-47.0438,6.9188,
3.664193,0.8470,-2.5770,-5.4100,0.5519,-2.0349,-0.3699,13.0875,-47.0438,6.9188,
3.673972,0.8470,-2.5770,-5.4100,-0.9789,-1.2298,-0.7316,13.0875,-47.0438,6.9188,
3.683893,-0.1841,-2.6084,-4.3986,-0.9789,-1.2298,-0.7316,13.0875,-47.0438,6.9188,
3.703333,-1.5445,-2.4663,-2.2596,-0.9789,-1.2298,-0.7316,13.0875,-47.0438,6.9188,
3.706670,-1.5445,-2.4663,-2.2596,-0.9789,-1.2298,-0.7316,13.0875,-47.0438,6.9188,
3.719712,-1.5445,-2.4663,-2.2596,-0.9789,-1.2298,-0.7316,15.4688,-47.2875,3.0938,
3.722711,-1.9127,-2.4746,-0.4812,-0.9789,-1.2298,-0.7316,15.4688,-47.2875,3.0938,
3.735384,-1.9127,-2.4746,-0.4812,-1.1036,-0.4234,-0.2111,15.4688,-47.2875,3.0938,
3.740956,-2.1248,-2.1493,0.3968,-1.1036,-0.4234,-0.2111,15.4688,-47.2875,3.0938,
3.755093,-2.1248,-2.1493,0.3968,-1.1036,-0.4234,-0.2111,15.4688,-47.2875,3.0938,
3.760083,-2.0258,-1.8936,0.3554,-1.1036,-0.4234,-0.2111,15.4688,-47.2875,3.0938,
3.779500,-1.7200,-1.7041,-0.6795,-1.1036,-0.4234,-0.2111,15.4688,-47.2875,3.0938,
3.782777,-1.7200,-1.7041,-0.6795,-1.1036,-0.4234,-0.2111,15.8063,-47.4375,0.1875,
3.798146,-1.7200,-1.7041,-0.6795,-0.7835,-1.4179,0.4254,15.8063,-47.4375,0.1875,
3.802222,-0.6825,-1.7504,-1.3237,-0.7835,-1.4179,0.4254,15.8063,-47.4375,0.1875,
3.804950,-0.6825,-1.7504,-1.3237,-0.7835,-1.4179,0.4254,15.8063,-47.4375,0.1875,
3.817224,0.2096,-1.8445,-0.6150,-0.7835,-1.4179,0.4254,15.8063,-47.4375,0.1875,
3.837667,-0.3800,-1.6744,0.6369,-0.7835,-1.4179,0.4254,15.8063,-47.4375,0.1875,
3.840942,-0.3800,-1.6744,0.6369,-0.7835,-1.4179,0.4254,15.1688,-47.8313,-2.9250,
3.849900,-0.3800,-1.6744,0.6369,-0.7835,-1.4179,0.4254,15.1688,-47.8313,-2.9250,
3.855056,-0.6046,-1.5863,2.1434,-0.7835,-1.4179,0.4254,15.1688,-47.8313,-2.9250,
3.859499,-0.6046,-1.5863,2.1434,-1.4224,-0.7557,0.5378,15.1688,-47.8313,-2.9250,
3.875582,0.5729,-1.5943,3.3152,-1.4224,-0.7557,0.5378,15.1688,-47.8313,-2.9250,
3.894631,0.6126,-1.3133,3.2695,-1.4224,-0.7557,0.5378,15.1688,-47.8313,-2.9250,
3.898323,0.6126,-1.3133,3.2695,-1.4224,-0.7557,0.5378,15.1688,-47.8313,-2.9250,
3.899561,0.6126,-1.3133,3.2695,-1.4224,-0.7557,0.5378,14.7563,-47.9250,-9.5625,
3.913462,0.5730,-1.3238,2.6856,-1.4224,-0.7557,0.5378,14.7563,-47.9250,-9.5625,
3.923355,0.5730,-1.3238,2.6856,-1.2709,-1.5852,0.6673,14.7563,-47.9250,-9.5625,
3.933624,0.9362,-1.3046,2.8276,-1.2709,-1.5852,0.6673,14.7563,-47.9250,-9.5625,
3.945625,0.9362,-1.3046,2.8276,-1.2709,-1.5852,0.6673,14.7563,-47.9250,-9.5625,
3.951409,1.5740,-1.0938,3.8308,-1.2709,-1.5852,0.6673,14.7563,-47.9250,-9.5625,
3.961215,1.5740,-1.0938,3.8308,-1.2709,-1.5852,0.6673,11.5688,-47.8875,-11.9625,
3.970902,2.2487,-0.4749,4.5639,-1.2709,-1.5852,0.6673,11.5688,-47.8875,-11.9625,
3.984768,2.2487,-0.4749,4.5639,-0.8128,-0.7191,0.5232,11.5688,-47.8875,-11.9625,
3.989957,2.1067,-0.5057,4.1157,-0.8128,-0.7191,0.5232,11.5688,-47.8875,-11.9625,
3.993154,2.1067,-0.5057,4.1157,-0.8128,-0.7191,0.5232,11.5688,-47.8875,-11.9625,
4.008964,1.3500,-0.6514,3.4158,-0.8128,-0.7191,0.5232,11.5688,-47.8875,-11.9625,
4.020211,1.3500,-0.6514,3.4158,-0.8128,-0.7191,0.5232,9.3375,-47.4938,-14.0813,
4.027864,0.5876,-0.5186,2.7187,-0.8128,-0.7191,0.5232,9.3375,-47.4938,-14.0813,
4.041221,0.5876,-0.5186,2.7187,-0.8128,-0.7191,0.5232,9.3375,-47.4938,-14.0813,
4.046311,0.5876,-0.5186,2.7187,-0.4071,-0.5371,0.1321,9.3375,-47.4938,-14.0813,
4.047659,0.3017,-0.3476,2.0183,-0.4071,-0.5371,0.1321,9.3375,-47.4938,-14.0813,
4.066297,-0.3011,-0.0851,0.9733,-0.4071,-0.5371,0.1321,9.3375,-47.4938,-14.0813,
4.080651,-0.3011,-0.0851,0.9733,-0.4071,-0.5371,0.1321,8.2688,-47.1562,-16.2188,
4.085336,-0.7882,-0.1194,0.4691,-0.4071,-0.5371,0.1321,8.2688,-47.1562,-16.2188,
4.088940,-0.7882,-0.1194,0.4691,-0.4071,-0.5371,0.1321,8.2688,-47.1562,-16.2188,
4.104338,-1.4830,-0.1445,0.6552,-0.4071,-0.5371,0.1321,8.2688,-47.1562,-16.2188,
4.109051,-1.4830,-0.1445,0.6552,-1.1622,0.1997,-0.1867,8.2688,-47.1562,-16.2188,
4.124358,-2.2774,-0.0655,1.3063,-1.1622,0.1997,-0.1867,8.2688,-47.1562,-16.2188,
4.137704,-2.2774,-0.0655,1.3063,-1.1622,0.1997,-0.1867,8.2688,-47.1562,-16.2188,
4.140942,-2.2774,-0.0655,1.3063,-1.1622,0.1997,-0.1867,8.3625,-46.4062,-18.9188,
4.143450,-2.6204,0.2760,2.2482,-1.1622,0.1997,-0.1867,8.3625,-46.4062,-18.9188,
4.161519,-2.3467,0.6177,2.9694,-1.1622,0.1997,-0.1867,8.3625,-46.4062,-18.9188,
4.171497,-2.3467,0.6177,2.9694,-0.8665,0.4855,0.1066,8.3625,-46.4062,-18.9188,
4.181242,-1.7969,0.9763,3.0220,-0.8665,0.4855,0.1066,8.3625,-46.4062,-18.9188,
4.185239,-1.7969,0.9763,3.0220,-0.8665,0.4855,0.1066,8.3625,-46.4062,-18.9188,
4.200327,-0.9102,1.3622,2.5445,-0.8665,0.4855,0.1066,8.3625,-46.4062,-18.9188,
4.201944,-0.9102,1.3622,2.5445,-0.8665,0.4855,0.1066,8.2688,-45.8063,-20.5688,
4.219314,-0.5931,1.5343,1.5794,-0.8665,0.4855,0.1066,8.2688,-45.8063,-20.5688,
4.235767,-0.5931,1.5343,1.5794,-0.8665,0.4855,0.1066,8.2688,-45.8063,-20.5688,
4.238751,-0.5931,1.5343,1.5794,-0.2435,-0.0362,0.0466,8.2688,-45.8063,-20.5688,
4.240643,-0.5334,1.4392,0.7164,-0.2435,-0.0362,0.0466,8.2688,-45.8063,-20.5688,
4.257632,-0.7053,1.3710,0.2190,-0.2435,-0.0362,0.0466,8.2688,-45.8063,-20.5688,
4.259522,-0.7053,1.3710,0.2190,-0.2435,-0.0362,0.0466,8.4375,-45.0750,-21.4125,
4.276741,-0.6516,0.9550,0.2230,-0.2435,-0.0362,0.0466,8.4375,-45.0750,-21.4125,
4.280471,-0.6516,0.9550,0.2230,-0.2435,-0.0362,0.0466,8.4375,-45.0750,-21.4125,
4.295715,-0.6516,0.9550,0.2230,-0.7065,0.3792,-0.0609,8.4375,-45.0750,-21.4125,
4.299368,-0.8988,0.8442,0.5854,-0.7065,0.3792,-0.0609,8.4375,-45.0750,-21.4125,
4.315343,-1.1424,1.0315,1.1614,-0.7065,0.3792,-0.0609,8.4375,-45.0750,-21.4125,
4.320397,-1.1424,1.0315,1.1614,-0.7065,0.3792,-0.0609,8.3250,-44.7188,-22.3313,
4.327824,-1.1424,1.0315,1.1614,-0.7065,0.3792,-0.0609,8.3250,-44.7188,-22.3313,
4.334055,-1.3925,1.1194,1.8776,-0.7065,0.3792,-0.0609,8.3250,-44.7188,-22.3313,
4.353497,-1.4330,1.1678,2.4885,-0.7065,0.3792,-0.0609,8.3250,-44.7188,-22.3313,
4.357158,-1.4330,1.1678,2.4885,-0.4866,0.3169,0.1541,8.3250,-44.7188,-22.3313,
4.372659,-1.3411,1.4383,2.7768,-0.4866,0.3169,0.1541,8.3250,-44.7188,-22.3313,
4.376909,-1.3411,1.4383,2.7768,-0.4866,0.3169,0.1541,8.3250,-44.7188,-22.3313,
4.379142,-1.3411,1.4383,2.7768,-0.4866,0.3169,0.1541,9.8063,-44.2875,-25.5000,
4.391137,-0.7777,1.8351,2.2703,-0.4866,0.3169,0.1541,9.8063,-44.2875,-25.5000,
4.410055,-0.2550,2.1564,1.4479,-0.4866,0.3169,0.1541,9.8063,-44.2875,-25.5000,
4.419839,-0.2550,2.1564,1.4479,-0.0027,0.1166,0.2104,9.8063,-44.2875,-25.5000,
4.426518,-0.2550,2.1564,1.4479,-0.0027,0.1166,0.2104,9.8063,-44.2875,-25.5000,
4.429462,-0.0741,2.3427,1.0652,-0.0027,0.1166,0.2104,9.8063,-44.2875,-25.5000,
4.439192,-0.0741,2.3427,1.0652,-0.0027,0.1166,0.2104,7.9313,-44.1375,-23.6625,
4.449245,0.2370,2.2458,1.2355,-0.0027,0.1166,0.2104,7.9313,-44.1375,-23.6625,
4.468543,0.6272,1.9378,1.8636,-0.0027,0.1166,0.2104,7.9313,-44.1375,-23.6625,
4.472573,0.6272,1.9378,1.8636,-0.0027,0.1166,0.2104,7.9313,-44.1375,-23.6625,
4.481059,0.6272,1.9378,1.8636,-0.2300,0.5968,-0.0107,7.9313,-44.1375,-23.6625,
4.487416,0.4291,1.5950,2.3766,-0.2300,0.5968,-0.0107,7.9313,-44.1375,-23.6625,
4.500368,0.4291,1.5950,2.3766,-0.2300,0.5968,-0.0107,7.7438,-44.1938,-24.2813,
4.506492,-0.1249,1.4468,2.4729,-0.2300,0.5968,-0.0107,7.7438,-44.1938,-24.2813,
4.519957,-0.1249,1.4468,2.4729,-0.2300,0.5968,-0.0107,7.7438,-44.1938,-24.2813,
4.525576,-0.4623,1.2534,2.6403,-0.2300,0.5968,-0.0107,7.7438,-44.1938,-24.2813,
4.543594,-0.4623,1.2534,2.6403,0.1951,0.4207,0.0136,7.7438,-44.1938,-24.2813,
4.547499,-0.5536,1.2941,2.7815,0.1951,0.4207,0.0136,7.7438,-44.1938,-24.2813,
4.559025,-0.5536,1.2941,2.7815,0.1951,0.4207,0.0136,8.4375,-44.3250,-24.0938,
4.563246,-0.1098,1.0119,2.7103,0.1951,0.4207,0.0136,8.4375,-44.3250,-24.0938,
4.567350,-0.1098,1.0119,2.7103,0.1951,0.4207,0.0136,8.4375,-44.3250,-24.0938,
4.583182,0.3213,0.6197,2.3891,0.1951,0.4207,0.0136,8.4375,-44.3250,-24.0938,
4.602197,0.4249,0.1713,2.0396,0.1951,0.4207,0.0136,8.4375,-44.3250,-24.0938,
4.606287,0.4249,0.1713,2.0396,0.7901,0.4855,0.0626,8.4375,-44.3250,-24.0938,
4.616067,0.4249,0.1713,2.0396,0.7901,0.4855,0.0626,8.4375,-44.3250,-24.0938,
4.620248,0.4249,0.1713,2.0396,0.7901,0.4855,0.0626,9.2250,-45.3375,-22.2563,
4.621509,0.3466,-0.2363,1.6382,0.7901,0.4855,0.0626,9.2250,-45.3375,-22.2563,
4.640068,0.6497,-0.4629,1.2488,0.7901,0.4855,0.0626,9.2250,-45.3375,-22.2563,
4.659642,0.8571,-0.6846,0.1873,0.7901,0.4855,0.0626,9.2250,-45.3375,-22.2563,
4.663595,0.8571,-0.6846,0.1873,0.7901,0.4855,0.0626,9.2250,-45.3375,-22.2563,
4.667978,0.8571,-0.6846,0.1873,1.1164,0.2815,0.0429,9.2250,-45.3375,-22.2563,
4.677998,0.7802,-0.9683,-0.6994,1.1164,0.2815,0.0429,9.2250,-45.3375,-22.2563,
4.681273,0.7802,-0.9683,-0.6994,1.1164,0.2815,0.0429,9.3750,-46.8750,-19.7812,
4.697410,0.4853,-1.2688,-1.5007,1.1164,0.2815,0.0429,9.3750,-46.8750,-19.7812,
4.711706,0.4853,-1.2688,-1.5007,1.1164,0.2815,0.0429,9.3750,-46.8750,-19.7812,
4.717199,0.0010,-1.4516,-1.7641,1.1164,0.2815,0.0429,9.3750,-46.8750,-19.7812,
4.729945,0.0010,-1.4516,-1.7641,0.3882,0.8789,-0.0267,9.3750,-46.8750,-19.7812,
4.735601,-0.3457,-1.8538,-1.6834,0.3882,0.8789,-0.0267,9.3750,-46.8750,-19.7812,
4.740405,-0.3457,-1.8538,-1.6834,0.3882,0.8789,-0.0267,9.3750,-47.6250,-17.2875,
4.755127,-0.7977,-2.0656,-1.1327,0.3882,0.8789,-0.0267,9.3750,-47.6250,-17.2875,
4.759005,-0.7977,-2.0656,-1.1327,0.3882,0.8789,-0.0267,9.3750,-47.6250,-17.2875,
4.774326,-1.2396,-2.0964,-0.0770,0.3882,0.8789,-0.0267,9.3750,-47.6250,-17.2875,
4.792537,-1.2396,-2.0964,-0.0770,0.2294,0.6480,0.3777,9.3750,-47.6250,-17.2875,
4.796176,-1.1659,-2.0164,0.4477,0.2294,0.6480,0.3777,9.3750,-47.6250,-17.2875,
4.801362,-1.1659,-2.0164,0.4477,0.2294,0.6480,0.3777,9.9563,-47.7750,-16.6875,
4.807007,-1.1659,-2.0164,0.4477,0.2294,0.6480,0.3777,9.9563,-47.7750,-16.6875,
4.812228,-0.7534,-1.9763,0.4223,0.2294,0.6480,0.3777,9.9563,-47.7750,-16.6875,
4.831947,-0.3435,-1.8924,-0.1454,0.2294,0.6480,0.3777,9.9563,-47.7750,-16.6875,
4.850426,0.0638,-2.0622,-0.5257,0.2294,0.6480,0.3777,9.9563,-47.7750,-16.6875,
4.856549,0.0638,-2.0622,-0.5257,0.2294,0.6480,0.3777,9.9563,-47.7750,-16.6875,
4.859366,0.0638,-2.0622,-0.5257,0.6155,0.5930,0.7661,9.9563,-47.7750,-16.6875,
4.860217,0.0638,-2.0622,-0.5257,0.6155,0.5930,0.7661,9.0000,-48.6188,-15.1125,
4.869143,0.2475,-2.0837,-0.7729,0.6155,0.5930,0.7661,9.0000,-48.6188,-15.1125,
4.888701,0.4836,-1.7210,-0.9446,0.6155,0.5930,0.7661,9.0000,-48.6188,-15.1125,
4.902512,0.4836,-1.7210,-0.9446,0.6155,0.5930,0.7661,9.0000,-48.6188,-15.1125,
4.908377,0.5586,-1.4415,-1.0364,0.6155,0.5930,0.7661,9.0000,-48.6188,-15.1125,
4.917802,0.5586,-1.4415,-1.0364,0.6130,0.4025,0.8847,9.0000,-48.6188,-15.1125,
4.921175,0.5586,-1.4415,-1.0364,0.6130,0.4025,0.8847,7.2375,-49.0875,-13.0875,
4.927413,0.6862,-1.2360,-1.0213,0.6130,0.4025,0.8847,7.2375,-49.0875,-13.0875,
4.945981,1.3355,-1.2927,-0.7750,0.6130,0.4025,0.8847,7.2375,-49.0875,-13.0875,
4.950942,1.3355,-1.2927,-0.7750,0.6130,0.4025,0.8847,7.2375,-49.0875,-13.0875,
4.965760,2.1944,-1.6403,-0.5045,0.6130,0.4025,0.8847,7.2375,-49.0875,-13.0875,
4.978999,2.1944,-1.6403,-0.5045,0.5885,0.5453,0.8981,7.2375,-49.0875,-13.0875,
4.980547,2.1944,-1.6403,-0.5045,0.5885,0.5453,0.8981,4.9313,-49.8938,-11.3625,
4.983587,1.9430,-1.6228,-0.6334,0.5885,0.5453,0.8981,4.9313,-49.8938,-11.3625,
4.997495,1.9430,-1.6228,-0.6334,0.5885,0.5453,0.8981,4.9313,-49.8938,-11.3625,
5.002666,1.8809,-1.3618,-1.2207,0.5885,0.5453,0.8981,4.9313,-49.8938,-11.3625,
5.022537,2.4884,-1.3442,-1.8020,0.5885,0.5453,0.8981,4.9313,-49.8938,-11.3625,
5.040925,2.4884,-1.3442,-1.8020,0.5885,0.5453,0.8981,2.9625,-49.9125,-10.0500,
5.044856,2.4884,-1.3442,-1.8020,0.0693,0.5405,0.5060,2.9625,-49.9125,-10.0500,
5.047634,2.5476,-1.0883,-1.7961,0.0693,0.5405,0.5060,2.9625,-49.9125,-10.0500,
5.048949,2.5476,-1.0883,-1.7961,0.0693,0.5405,0.5060,2.9625,-49.9125,-10.0500,
5.061088,1.7035,-1.0580,-1.2083,0.0693,0.5405,0.5060,2.9625,-49.9125,-10.0500,
5.080365,0.7451,-1.2094,-0.0662,0.0693,0.5405,0.5060,2.9625,-49.9125,-10.0500,
5.094185,0.7451,-1.2094,-0.0662,0.0693,0.5405,0.5060,2.9625,-49.9125,-10.0500,
5.098556,0.7287,-0.9432,0.4645,0.0693,0.5405,0.5060,2.9625,-49.9125,-10.0500,
5.099848,0.7287,-0.9432,0.4645,0.0693,0.5405,0.5060,2.2875,-50.0625,-10.6688,
5.103341,0.7287,-0.9432,0.4645,-0.2093,1.0292,0.2445,2.2875,-50.0625,-10.6688,
5.119005,1.2143,-1.1121,-0.5792,-0.2093,1.0292,0.2445,2.2875,-50.0625,-10.6688,
5.137917,0.4737,-0.7485,-1.6267,-0.2093,1.0292,0.2445,2.2875,-50.0625,-10.6688,
5.141712,0.4737,-0.7485,-1.6267,-0.2093,1.0292,0.2445,2.2875,-50.0625,-10.6688,
5.156654,0.1489,-0.4808,-1.8535,-0.2093,1.0292,0.2445,2.2875,-50.0625,-10.6688,
5.159565,0.1489,-0.4808,-1.8535,-0.2093,1.0292,0.2445,2.6063,-50.2313,-11.3063,
5.168376,0.1489,-0.4808,-1.8535,-0.5831,1.4055,0.2812,2.6063,-50.2313,-11.3063,
5.175593,0.6152,-0.0629,-1.1396,-0.5831,1.4055,0.2812,2.6063,-50.2313,-11.3063,
5.189753,0.6152,-0.0629,-1.1396,-0.5831,1.4055,0.2812,2.6063,-50.2313,-11.3063,
5.194559,1.9364,0.1877,-0.0649,-0.5831,1.4055,0.2812,2.6063,-50.2313,-11.3063,
5.214197,1.7318,0.8283,1.0277,-0.5831,1.4055,0.2812,2.6063,-50.2313,-11.3063,
5.219704,1.7318,0.8283,1.0277,-0.5831,1.4055,0.2812,2.0063,-49.4063,-13.2563,
5.228101,1.7318,0.8283,1.0277,-0.7065,0.4720,0.2384,2.0063,-49.4063,-13.2563,
5.235256,1.9871,0.9202,1.2438,-0.7065,0.4720,0.2384,2.0063,-49.4063,-13.2563,
5.236452,1.9871,0.9202,1.2438,-0.7065,0.4720,0.2384,2.0063,-49.4063,-13.2563,
5.252279,3.1889,1.4696,1.1544,-0.7065,0.4720,0.2384,2.0063,-49.4063,-13.2563,
5.271567,3.9836,1.6834,0.3824,-0.7065,0.4720,0.2384,2.0063,-49.4063,-13.2563,
5.280259,3.9836,1.6834,0.3824,-0.7065,0.4720,0.2384,2.3813,-48.9375,-14.8125,
5.285583,3.9836,1.6834,0.3824,-0.7065,0.4720,0.2384,2.3813,-48.9375,-14.8125,
5.289125,3.9836,1.6834,0.3824,-0.3559,0.7519,-0.1660,2.3813,-48.9375,-14.8125,
5.290570,3.4162,1.7496,-0.7401,-0.3559,0.7519,-0.1660,2.3813,-48.9375,-14.8125,
5.309855,1.7763,1.7134,-2.3631,-0.3559,0.7519,-0.1660,2.3813,-48.9375,-14.8125,
5.329075,0.1097,1.7349,-2.6269,-0.3559,0.7519,-0.1660,2.3813,-48.9375,-14.8125,
5.334378,0.1097,1.7349,-2.6269,-0.3559,0.7519,-0.1660,2.3813,-48.9375,-14.8125,
5.339624,0.1097,1.7349,-2.6269,-0.3559,0.7519,-0.1660,3.6563,-48.6000,-15.9938,
5.347540,-0.0418,1.5212,-0.5688,-0.3559,0.7519,-0.1660,3.6563,-48.6000,-15.9938,
5.351585,-0.0418,1.5212,-0.5688,-1.2624,1.0707,-0.3431,3.6563,-48.6000,-15.9938,
5.367038,0.5318,1.3314,1.8105,-1.2624,1.0707,-0.3431,3.6563,-48.6000,-15.9938,
5.380315,0.5318,1.3314,1.8105,-1.2624,1.0707,-0.3431,3.6563,-48.6000,-15.9938,
5.386362,0.2520,1.1661,3.2423,-1.2624,1.0707,-0.3431,3.6563,-48.6000,-15.9938,
5.400655,0.2520,1.1661,3.2423,-1.2624,1.0707,-0.3431,4.9125,-47.7000,-18.7313,
5.405162,-0.0159,0.6233,3.1458,-1.2624,1.0707,-0.3431,4.9125,-47.7000,-18.7313,
5.413895,-0.0159,0.6233,3.1458,-0.1458,-0.1180,-0.5191,4.9125,-47.7000,-18.7313,
5.423771,-0.0586,-0.0642,0.9942,-0.1458,-0.1180,-0.5191,4.9125,-47.7000,-18.7313,
5.427893,-0.0586,-0.0642,0.9942,-0.1458,-0.1180,-0.5191,4.9125,-47.7000,-18.7313,
5.444803,-0.4441,0.2644,-1.6243,-0.1458,-0.1180,-0.5191,4.9125,-47.7000,-18.7313,
5.459870,-0.4441,0.2644,-1.6243,-0.1458,-0.1180,-0.5191,6.4313,-46.9688,-18.2438,
5.463314,-1.6071,0.5026,-3.1495,-0.1458,-0.1180,-0.5191,6.4313,-46.9688,-18.2438,
5.476159,-1.6071,0.5026,-3.1495,-0.1458,-0.1180,-0.5191,6.4313,-46.9688,-18.2438,
5.477500,-1.6071,0.5026,-3.1495,-1.2880,0.8997,-0.6144,6.4313,-46.9688,-18.2438,
5.481562,-2.3303,0.2600,-1.3677,-1.2880,0.8997,-0.6144,6.4313,-46.9688,-18.2438,
5.500289,-1.2004,-0.7671,1.8308,-1.2880,0.8997,-0.6144,6.4313,-46.9688,-18.2438,
5.520734,-1.2151,-0.7438,3.7478,-1.2880,0.8997,-0.6144,6.4313,-46.9688,-18.2438,
5.524474,-1.2151,-0.7438,3.7478,-1.2880,0.8997,-0.6144,8.4375,-45.0750,-21.3000,
5.526536,-1.2151,-0.7438,3.7478,-1.2880,0.8997,-0.6144,8.4375,-45.0750,-21.3000,
5.538992,-1.2151,-0.7438,3.7478,-0.9118,0.8093,-0.0132,8.4375,-45.0750,-21.3000,
5.542705,-1.7284,0.1057,3.0278,-0.9118,0.8093,-0.0132,8.4375,-45.0750,-21.3000,
5.558201,-1.1867,0.4733,2.2720,-0.9118,0.8093,-0.0132,8.4375,-45.0750,-21.3000,
5.572585,-1.1867,0.4733,2.2720,-0.9118,0.8093,-0.0132,8.4375,-45.0750,-21.3000,
5.579650,-0.2776,-0.3991,2.9677,-0.9118,0.8093,-0.0132,8.4375,-45.0750,-21.3000,
5.581199,-0.2776,-0.3991,2.9677,-0.9118,0.8093,-0.0132,8.7938,-43.7812,-23.3813,
5.596198,-0.6332,-0.3833,3.4918,-0.9118,0.8093,-0.0132,8.7938,-43.7812,-23.3813,
5.600171,-0.6332,-0.3833,3.4918,-0.6039,0.0126,0.4803,8.7938,-43.7812,-23.3813,
5.616652,-0.1879,-0.3793,3.9453,-0.6039,0.0126,0.4803,8.7938,-43.7812,-23.3813,
5.620838,-0.1879,-0.3793,3.9453,-0.6039,0.0126,0.4803,8.7938,-43.7812,-23.3813,
5.634361,0.4577,-0.0674,3.7646,-0.6039,0.0126,0.4803,8.7938,-43.7812,-23.3813,
5.640430,0.4577,-0.0674,3.7646,-0.6039,0.0126,0.4803,7.8375,-44.0063,-24.1875,
5.654033,1.2836,-0.1849,2.7273,-0.6039,0.0126,0.4803,7.8375,-44.0063,-24.1875,
5.663199,1.2836,-0.1849,2.7273,0.7608,-0.3391,0.7528,7.8375,-44.0063,-24.1875,
5.669550,1.2836,-0.1849,2.7273,0.7608,-0.3391,0.7528,7.8375,-44.0063,-24.1875,
5.671811,1.6147,-0.0121,0.4426,0.7608,-0.3391,0.7528,7.8375,-44.0063,-24.1875,
5.692555,0.8328,0.2642,-2.0432,0.7608,-0.3391,0.7528,7.8375,-44.0063,-24.1875,
5.701843,0.8328,0.2642,-2.0432,0.7608,-0.3391,0.7528,5.8125,-45.1500,-22.0500,
5.712226,-0.4478,0.6377,-4.0526,0.7608,-0.3391,0.7528,5.8125,-45.1500,-22.0500,
5.715062,-0.4478,0.6377,-4.0526,0.7608,-0.3391,0.7528,5.8125,-45.1500,-22.0500,
5.724477,-0.4478,0.6377,-4.0526,0.0620,0.8227,0.2274,5.8125,-45.1500,-22.0500,
5.730682,-1.5898,0.6710,-4.6796,0.0620,0.8227,0.2274,5.8125,-45.1500,-22.0500,
5.749501,-2.3016,0.6409,-3.6303,0.0620,0.8227,0.2274,5.8125,-45.1500,-22.0500,
5.759364,-2.3016,0.6409,-3.6303,0.0620,0.8227,0.2274,6.6750,-45.1125,-21.3563,
5.763017,-2.3016,0.6409,-3.6303,0.0620,0.8227,0.2274,6.6750,-45.1125,-21.3563,
5.768122,-2.5069,0.6922,-1.7106,0.0620,0.8227,0.2274,6.6750,-45.1125,-21.3563,
5.787570,-2.5069,0.6922,-1.7106,-0.5306,0.9901,0.2006,6.6750,-45.1125,-21.3563,
5.791099,-2.6049,1.2348,-0.2480,-0.5306,0.9901,0.2006,6.6750,-45.1125,-21.3563,
5.806233,-2.1086,1.8504,0.0822,-0.5306,0.9901,0.2006,6.6750,-45.1125,-21.3563,
5.810979,-2.1086,1.8504,0.0822,-0.5306,0.9901,0.2006,6.6750,-45.1125,-21.3563,
5.820670,-2.1086,1.8504,0.0822,-0.5306,0.9901,0.2006,7.1813,-45.0750,-22.4062,
5.826048,-1.2190,1.9115,-0.7896,-0.5306,0.9901,0.2006,7.1813,-45.0750,-22.4062,
5.845173,-1.1265,2.0585,-2.3512,-0.5306,0.9901,0.2006,7.1813,-45.0750,-22.4062,
5.849288,-1.1265,2.0585,-2.3512,0.3686,-0.0837,-0.1110,7.1813,-45.0750,-22.4062,
5.858927,-1.1265,2.0585,-2.3512,0.3686,-0.0837,-0.1110,7.1813,-45.0750,-22.4062,
5.864705,-0.9713,1.8824,-4.2102,0.3686,-0.0837,-0.1110,7.1813,-45.0750,-22.4062,
5.880016,-0.9713,1.8824,-4.2102,0.3686,-0.0837,-0.1110,7.1813,-45.1125,-21.8813,
5.883649,-1.5852,1.6899,-4.7064,0.3686,-0.0837,-0.1110,7.1813,-45.1125,-21.8813,
5.902440,-1.9784,1.1376,-3.6411,0.3686,-0.0837,-0.1110,7.1813,-45.1125,-21.8813,
5.906526,-1.9784,1.1376,-3.6411,0.3686,-0.0837,-0.1110,7.1813,-45.1125,-21.8813,
5.912005,-1.9784,1.1376,-3.6411,-0.9020,1.1037,-0.4445,7.1813,-45.1125,-21.8813,
5.924828,-2.4066,0.9677,-1.4247,-0.9020,1.1037,-0.4445,7.1813,-45.1125,-21.8813,
5.940837,-2.4066,0.9677,-1.4247,-0.9020,1.1037,-0.4445,9.2063,-44.4188,-22.7812,
5.944803,-1.8205,0.9281,0.9285,-0.9020,1.1037,-0.4445,9.2063,-44.4188,-22.7812,
5.953725,-1.8205,0.9281,0.9285,-0.9020,1.1037,-0.4445,9.2063,-44.4188,-22.7812,
5.959668,-0.1848,0.6903,1.7483,-0.9020,1.1037,-0.4445,9.2063,-44.4188,-22.7812,
5.973867,-0.1848,0.6903,1.7483,-0.0187,0.2998,0.1101,9.2063,-44.4188,-22.7812,
5.980621,1.1765,0.4505,1.5322,-0.0187,0.2998,0.1101,9.2063,-44.4188,-22.7812,
5.998515,2.0007,0.5879,0.2024,-0.0187,0.2998,0.1101,9.2063,-44.4188,-22.7812,
6.002118,2.0007,0.5879,0.2024,-0.0187,0.2998,0.1101,10.5375,-43.7438,-23.3250,
6.004107,2.0007,0.5879,0.2024,-0.0187,0.2998,0.1101,10.5375,-43.7438,-23.3250,
6.016663,2.5799,0.9539,-1.1500,-0.0187,0.2998,0.1101,10.5375,-43.7438,-23.3250,
6.036043,2.5799,0.9539,-1.1500,0.0351,0.0799,-0.2124,10.5375,-43.7438,-23.3250,
6.039657,3.1505,1.4277,-0.8346,0.0351,0.0799,-0.2124,10.5375,-43.7438,-23.3250,
6.051045,3.1505,1.4277,-0.8346,0.0351,0.0799,-0.2124,10.5375,-43.7438,-23.3250,
6.056481,3.0661,1.5546,-0.0425,0.0351,0.0799,-0.2124,10.5375,-43.7438,-23.3250,
6.061323,3.0661,1.5546,-0.0425,0.0351,0.0799,-0.2124,11.9250,-44.0625,-23.7938,
6.074743,3.1977,1.4931,0.9205,0.0351,0.0799,-0.2124,11.9250,-44.0625,-23.7938,
6.094086,3.3530,1.5486,1.0601,0.0351,0.0799,-0.2124,11.9250,-44.0625,-23.7938,
6.097560,3.3530,1.5486,1.0601,0.0351,0.0799,-0.2124,11.9250,-44.0625,-23.7938,
6.098355,3.3530,1.5486,1.0601,-0.0945,0.4525,-0.5753,11.9250,-44.0625,-23.7938,
6.113494,2.8132,1.5538,0.1870,-0.0945,0.4525,-0.5753,11.9250,-44.0625,-23.7938,
6.121156,2.8132,1.5538,0.1870,-0.0945,0.4525,-0.5753,11.9062,-43.7250,-22.7438,
6.132552,2.0490,1.5543,-1.2154,-0.0945,0.4525,-0.5753,11.9062,-43.7250,-22.7438,
6.146128,2.0490,1.5543,-1.2154,-0.0945,0.4525,-0.5753,11.9062,-43.7250,-22.7438,
6.150711,1.2780,1.1553,-2.0632,-0.0945,0.4525,-0.5753,11.9062,-43.7250,-22.7438,
6.160525,1.2780,1.1553,-2.0632,-0.0968,1.1733,-0.6779,11.9062,-43.7250,-22.7438,
6.170076,0.7423,0.8230,-1.7452,-0.0968,1.1733,-0.6779,11.9062,-43.7250,-22.7438,
6.179652,0.7423,0.8230,-1.7452,-0.0968,1.1733,-0.6779,14.3063,-43.2375,-21.9750,
6.189356,1.0416,0.4987,-0.7339,-0.0968,1.1733,-0.6779,14.3063,-43.2375,-21.9750,
6.193113,1.0416,0.4987,-0.7339,-0.0968,1.1733,-0.6779,14.3063,-43.2375,-21.9750,
6.208788,1.5077,0.0165,-0.3995,-0.0968,1.1733,-0.6779,14.3063,-43.2375,-21.9750,
6.224307,1.5077,0.0165,-0.3995,0.3662,0.8619,-0.4115,14.3063,-43.2375,-21.9750,
6.227420,1.6848,-0.1187,-0.5240,0.3662,0.8619,-0.4115,14.3063,-43.2375,-21.9750,
6.239410,1.6848,-0.1187,-0.5240,0.3662,0.8619,-0.4115,15.7500,-43.2563,-20.6813,
6.241086,1.6848,-0.1187,-0.5240,0.3662,0.8619,-0.4115,15.7500,-43.2563,-20.6813,
6.247980,2.7332,-0.3956,-1.2111,0.3662,0.8619,-0.4115,15.7500,-43.2563,-20.6813,
6.265835,2.5208,-0.5511,-2.0826,0.3662,0.8619,-0.4115,15.7500,-43.2563,-20.6813,
6.284601,2.5208,-0.5511,-2.0826,0.6605,0.7481,-0.7316,15.7500,-43.2563,-20.6813,
6.288173,1.5072,-0.6240,-2.9876,0.6605,0.7481,-0.7316,15.7500,-43.2563,-20.6813,
6.290009,1.5072,-0.6240,-2.9876,0.6605,0.7481,-0.7316,15.7500,-43.2563,-20.6813,
6.299319,1.5072,-0.6240,-2.9876,0.6605,0.7481,-0.7316,18.9375,-43.3125,-18.0563,
6.303641,1.0496,-0.7869,-3.2015,0.6605,0.7481,-0.7316,18.9375,-43.3125,-18.0563,
6.322643,0.5789,-0.9265,-2.5928,0.6605,0.7481,-0.7316,18.9375,-43.3125,-18.0563,
6.337621,0.5789,-0.9265,-2.5928,0.6605,0.7481,-0.7316,18.9375,-43.3125,-18.0563,
6.342475,0.1648,-0.9429,-1.6887,0.6605,0.7481,-0.7316,18.9375,-43.3125,-18.0563,
6.345276,0.1648,-0.9429,-1.6887,0.4590,1.2161,-0.5081,18.9375,-43.3125,-18.0563,
6.359767,0.1648,-0.9429,-1.6887,0.4590,1.2161,-0.5081,20.9625,-43.3125,-15.8438,
6.363456,0.0525,-1.0448,-1.1111,0.4590,1.2161,-0.5081,20.9625,-43.3125,-15.8438,
6.380763,0.0744,-0.9951,-0.9915,0.4590,1.2161,-0.5081,20.9625,-43.3125,-15.8438,
6.384655,0.0744,-0.9951,-0.9915,0.4590,1.2161,-0.5081,20.9625,-43.3125,-15.8438,
6.401922,0.1671,-0.7613,-0.9486,0.4590,1.2161,-0.5081,20.9625,-43.3125,-15.8438,
6.409931,0.1671,-0.7613,-0.9486,0.7107,0.6651,-0.1977,20.9625,-43.3125,-15.8438,
6.418995,-0.3784,-0.3844,-0.7066,0.7107,0.6651,-0.1977,20.9625,-43.3125,-15.8438,
6.422558,-0.3784,-0.3844,-0.7066,0.7107,0.6651,-0.1977,22.0125,-43.5938,-12.9563,
6.432142,-0.3784,-0.3844,-0.7066,0.7107,0.6651,-0.1977,22.0125,-43.5938,-12.9563,
6.437938,-0.5365,-0.5271,-0.5053,0.7107,0.6651,-0.1977,22.0125,-43.5938,-12.9563,
6.457044,-0.3146,-0.7083,-0.6996,0.7107,0.6651,-0.1977,22.0125,-43.5938,-12.9563,
6.471039,-0.3146,-0.7083,-0.6996,0.2782,0.1092,-0.0536,22.0125,-43.5938,-12.9563,
6.476421,-0.4099,-0.7771,-0.8534,0.2782,0.1092,-0.0536,22.0125,-43.5938,-12.9563,
6.482537,-0.4099,-0.7771,-0.8534,0.2782,0.1092,-0.0536,21.8250,-44.2688,-11.6063,
6.484114,-0.4099,-0.7771,-0.8534,0.2782,0.1092,-0.0536,21.8250,-44.2688,-11.6063,
6.495842,-0.7803,-0.9892,-0.3344,0.2782,0.1092,-0.0536,21.8250,-44.2688,-11.6063,
6.515193,-1.3100,-0.8440,0.6012,0.2782,0.1092,-0.0536,21.8250,-44.2688,-11.6063,
6.528311,-1.3100,-0.8440,0.6012,0.2782,0.1092,-0.0536,21.8250,-44.2688,-11.6063,
6.534510,-1.3100,-0.8440,0.6012,-0.1078,0.5576,0.0258,21.8250,-44.2688,-11.6063,
6.536226,-1.8319,-0.7057,1.1143,-0.1078,0.5576,0.0258,21.8250,-44.2688,-11.6063,
6.539250,-1.8319,-0.7057,1.1143,-0.1078,0.5576,0.0258,23.6063,-44.2688,-12.6938,
6.554091,-1.5316,-0.6954,1.1196,-0.1078,0.5576,0.0258,23.6063,-44.2688,-12.6938,
6.572005,-1.3627,-0.7307,0.9118,-0.1078,0.5576,0.0258,23.6063,-44.2688,-12.6938,
6.576045,-1.3627,-0.7307,0.9118,-0.1078,0.5576,0.0258,23.6063,-44.2688,-12.6938,
6.590520,-1.8411,-0.4478,0.0025,-0.1078,0.5576,0.0258,23.6063,-44.2688,-12.6938,
6.595462,-1.8411,-0.4478,0.0025,-0.0553,0.4892,0.0516,23.6063,-44.2688,-12.6938,
6.600568,-1.8411,-0.4478,0.0025,-0.0553,0.4892,0.0516,22.3125,-44.3063,-11.1000,
6.610173,-1.6819,-0.3087,-0.5409,-0.0553,0.4892,0.0516,22.3125,-44.3063,-11.1000,
6.624244,-1.6819,-0.3087,-0.5409,-0.0553,0.4892,0.0516,22.3125,-44.3063,-11.1000,
6.629210,-1.4022,-0.2033,-0.4188,-0.0553,0.4892,0.0516,22.3125,-44.3063,-11.1000,
6.648508,-1.1893,-0.1778,0.0417,-0.0553,0.4892,0.0516,22.3125,-44.3063,-11.1000,
6.657327,-1.1893,-0.1778,0.0417,-0.5721,0.7151,-0.0622,22.3125,-44.3063,-11.1000,
6.659129,-1.1893,-0.1778,0.0417,-0.5721,0.7151,-0.0622,22.2375,-44.6063,-11.0063,
6.668367,-1.2291,-0.1223,0.4709,-0.5721,0.7151,-0.0622,22.2375,-44.6063,-11.0063,
6.671741,-1.2291,-0.1223,0.4709,-0.5721,0.7151,-0.0622,22.2375,-44.6063,-11.0063,
6.687430,-1.5119,0.0818,1.3776,-0.5721,0.7151,-0.0622,22.2375,-44.6063,-11.0063,
6.706106,-0.6051,0.1303,1.5171,-0.5721,0.7151,-0.0622,22.2375,-44.6063,-11.0063,
6.719265,-0.6051,0.1303,1.5171,-0.5721,0.7151,-0.0622,22.2375,-44.6063,-11.0063,
6.720626,-0.6051,0.1303,1.5171,-0.0810,0.0909,-0.0206,22.2375,-44.6063,-11.0063,
6.721571,-0.6051,0.1303,1.5171,-0.0810,0.0909,-0.0206,22.7063,-43.8938,-11.8500,
6.724687,-0.0537,-0.0552,1.2050,-0.0810,0.0909,-0.0206,22.7063,-43.8938,-11.8500,
6.743645,-0.1853,0.3101,0.3164,-0.0810,0.0909,-0.0206,22.7063,-43.8938,-11.8500,
6.763378,-0.3140,0.4493,-0.5121,-0.0810,0.0909,-0.0206,22.7063,-43.8938,-11.8500,
6.767182,-0.3140,0.4493,-0.5121,-0.0810,0.0909,-0.0206,22.7063,-43.8938,-11.8500,
6.780201,-0.3140,0.4493,-0.5121,-0.0810,0.0909,-0.0206,22.8000,-43.8938,-11.8500,
6.783408,-0.3140,0.4493,-0.5121,-0.0492,0.3450,-0.1134,22.8000,-43.8938,-11.8500,
6.785233,-0.5676,0.3570,-0.5726,-0.0492,0.3450,-0.1134,22.8000,-43.8938,-11.8500,
6.801547,-0.5089,0.2258,-0.0569,-0.0492,0.3450,-0.1134,22.8000,-43.8938,-11.8500,
6.815170,-0.5089,0.2258,-0.0569,-0.0492,0.3450,-0.1134,22.8000,-43.8938,-11.8500,
6.820426,-0.4205,0.1110,0.1846,-0.0492,0.3450,-0.1134,22.8000,-43.8938,-11.8500,
6.840030,-0.2674,0.0529,0.0588,-0.0492,0.3450,-0.1134,22.8000,-43.8938,-11.8500,
6.843681,-0.2674,0.0529,0.0588,-0.0492,0.3450,-0.1134,23.4750,-44.0438,-11.3438,
6.845965,-0.2674,0.0529,0.0588,0.1084,-0.0399,-0.2210,23.4750,-44.0438,-11.3438,
6.858988,-0.2499,0.0785,-0.3523,0.1084,-0.0399,-0.2210,23.4750,-44.0438,-11.3438,
6.863324,-0.2499,0.0785,-0.3523,0.1084,-0.0399,-0.2210,23.4750,-44.0438,-11.3438,
6.877226,-0.0159,0.1017,-0.7486,0.1084,-0.0399,-0.2210,23.4750,-44.0438,-11.3438,
6.897488,0.1343,-0.0242,-0.5830,0.1084,-0.0399,-0.2210,23.4750,-44.0438,-11.3438,
6.901207,0.1343,-0.0242,-0.5830,0.1084,-0.0399,-0.2210,24.2250,-43.5000,-10.8375,
6.905907,0.1343,-0.0242,-0.5830,-0.0052,0.2106,-0.3162,24.2250,-43.5000,-10.8375,
6.910290,0.1343,-0.0242,-0.5830,-0.0052,0.2106,-0.3162,24.2250,-43.5000,-10.8375,
6.916796,0.1721,0.0371,-0.4718,-0.0052,0.2106,-0.3162,24.2250,-43.5000,-10.8375,
6.936497,0.1107,-0.0635,-0.6772,-0.0052,0.2106,-0.3162,24.2250,-43.5000,-10.8375,
6.954662,0.1900,-0.0823,-0.9001,-0.0052,0.2106,-0.3162,24.2250,-43.5000,-10.8375,
6.957934,0.1900,-0.0823,-0.9001,-0.0052,0.2106,-0.3162,24.2250,-43.5000,-10.8375,
6.959051,0.1900,-0.0823,-0.9001,-0.0052,0.2106,-0.3162,24.9750,-42.8250,-10.7625,
6.968672,0.1900,-0.0823,-0.9001,-0.2593,0.6076,-0.3871,24.9750,-42.8250,-10.7625,
6.972739,0.0558,-0.2376,-0.9175,-0.2593,0.6076,-0.3871,24.9750,-42.8250,-10.7625,
6.992631,-0.0979,-0.2307,-0.5368,-0.2593,0.6076,-0.3871,24.9750,-42.8250,-10.7625,
7.007034,-0.0979,-0.2307,-0.5368,-0.2593,0.6076,-0.3871,24.9750,-42.8250,-10.7625,
7.012247,-0.3209,-0.1244,-0.4244,-0.2593,0.6076,-0.3871,24.9750,-42.8250,-10.7625,
7.019733,-0.3209,-0.1244,-0.4244,-0.2593,0.6076,-0.3871,27.3188,-42.6188,-12.3750,
7.030589,-0.3209,-0.1244,-0.4244,-0.5429,0.7849,-0.2918,27.3188,-42.6188,-12.3750,
7.032220,-0.3874,0.1654,-0.0074,-0.5429,0.7849,-0.2918,27.3188,-42.6188,-12.3750,
7.050426,-0.2536,-0.3869,0.2655,-0.5429,0.7849,-0.2918,27.3188,-42.6188,-12.3750,
7.054319,-0.2536,-0.3869,0.2655,-0.5429,0.7849,-0.2918,27.3188,-42.6188,-12.3750,
7.069201,-0.5895,-0.2349,0.6701,-0.5429,0.7849,-0.2918,27.3188,-42.6188,-12.3750,
7.079303,-0.5895,-0.2349,0.6701,-0.5429,0.7849,-0.2918,26.8688,-41.8313,-10.1813,
7.088804,-0.6289,0.2812,0.8998,-0.5429,0.7849,-0.2918,26.8688,-41.8313,-10.1813,
7.094264,-0.6289,0.2812,0.8998,-0.3156,0.4575,-0.0267,26.8688,-41.8313,-10.1813,
7.101983,-0.6289,0.2812,0.8998,-0.3156,0.4575,-0.0267,26.8688,-41.8313,-10.1813,
7.107284,-0.1338,0.3901,0.8668,-0.3156,0.4575,-0.0267,26.8688,-41.8313,-10.1813,
7.126323,0.6311,0.0884,0.5159,-0.3156,0.4575,-0.0267,26.8688,-41.8313,-10.1813,
7.139731,0.6311,0.0884,0.5159,-0.3156,0.4575,-0.0267,27.4688,-41.9250,-10.5188,
7.145941,1.1162,0.1159,-0.2029,-0.3156,0.4575,-0.0267,27.4688,-41.9250,-10.5188,
7.149761,1.1162,0.1159,-0.2029,-0.3156,0.4575,-0.0267,27.4688,-41.9250,-10.5188,
7.155174,1.1162,0.1159,-0.2029,0.0265,0.3108,0.2067,27.4688,-41.9250,-10.5188,
7.164324,0.8819,0.4126,-0.2543,0.0265,0.3108,0.2067,27.4688,-41.9250,-10.5188,
7.184518,0.8134,0.2742,-0.8599,0.0265,0.3108,0.2067,27.4688,-41.9250,-10.5188,
7.197792,0.8134,0.2742,-0.8599,0.0265,0.3108,0.2067,27.4688,-41.9250,-10.5188,
7.200850,0.8134,0.2742,-0.8599,0.0265,0.3108,0.2067,26.7750,-42.0563,-9.6562,
7.203611,0.9477,0.1522,-1.4214,0.0265,0.3108,0.2067,26.7750,-42.0563,-9.6562,
7.217218,0.9477,0.1522,-1.4214,-0.2252,0.3377,0.0490,26.7750,-42.0563,-9.6562,
7.221626,0.8364,0.2880,-0.9160,-0.2252,0.3377,0.0490,26.7750,-42.0563,-9.6562,
7.241159,0.7325,0.0465,-0.3884,-0.2252,0.3377,0.0490,26.7750,-42.0563,-9.6562,
7.245491,0.7325,0.0465,-0.3884,-0.2252,0.3377,0.0490,26.7750,-42.0563,-9.6562,
7.260471,0.7905,-0.1010,0.2854,-0.2252,0.3377,0.0490,26.7750,-42.0563,-9.6562,
7.264239,0.7905,-0.1010,0.2854,-0.2252,0.3377,0.0490,26.9813,-42.1500,-9.7688,
7.279174,0.7905,-0.1010,0.2854,-0.1665,0.0164,0.0209,26.9813,-42.1500,-9.7688,
7.280814,0.6953,-0.2643,0.1163,-0.1665,0.0164,0.0209,26.9813,-42.1500,-9.7688,
7.293185,0.6953,-0.2643,0.1163,-0.1665,0.0164,0.0209,26.9813,-42.1500,-9.7688,
7.298478,0.6675,-0.3428,-0.1177,-0.1665,0.0164,0.0209,26.9813,-42.1500,-9.7688,
7.319259,0.7602,-0.0770,0.1117,-0.1665,0.0164,0.0209,26.9813,-42.1500,-9.7688,
7.322682,0.7602,-0.0770,0.1117,-0.1665,0.0164,0.0209,26.4188,-42.4125,-10.1813,
7.337690,0.8725,0.1024,0.2314,-0.1665,0.0164,0.0209,26.4188,-42.4125,-10.1813,
7.341600,0.8725,0.1024,0.2314,-0.1665,0.0164,0.0209,26.4188,-42.4125,-10.1813,
7.343661,0.8725,0.1024,0.2314,0.0082,-0.2023,0.1822,26.4188,-42.4125,-10.1813,
7.356258,1.1499,0.0968,0.3680,0.0082,-0.2023,0.1822,26.4188,-42.4125,-10.1813,
7.375366,1.3365,-0.0278,0.2678,0.0082,-0.2023,0.1822,26.4188,-42.4125,-10.1813,
7.380417,1.3365,-0.0278,0.2678,0.0082,-0.2023,0.1822,26.4000,-42.2063,-10.2750,
7.388982,1.3365,-0.0278,0.2678,0.0082,-0.2023,0.1822,26.4000,-42.2063,-10.2750,
7.393917,1.1986,-0.0918,0.0078,0.0082,-0.2023,0.1822,26.4000,-42.2063,-10.2750,
7.402924,1.1986,-0.0918,0.0078,0.1683,-0.5603,-0.0952,26.4000,-42.2063,-10.2750,
7.413083,0.9902,-0.1790,-0.3091,0.1683,-0.5603,-0.0952,26.4000,-42.2063,-10.2750,
7.433234,0.7757,-0.2630,-0.4903,0.1683,-0.5603,-0.0952,26.4000,-42.2063,-10.2750,
7.437163,0.7757,-0.2630,-0.4903,0.1683,-0.5603,-0.0952,26.4000,-42.2063,-10.2750,
7.439702,0.7757,-0.2630,-0.4903,0.1683,-0.5603,-0.0952,26.1188,-42.2812,-10.6875,
7.452296,0.6276,-0.1574,-0.4337,0.1683,-0.5603,-0.0952,26.1188,-42.2812,-10.6875,
7.465545,0.6276,-0.1574,-0.4337,0.0045,0.0396,-0.0181,26.1188,-42.2812,-10.6875,
7.470234,0.6763,-0.0465,-0.2063,0.0045,0.0396,-0.0181,26.1188,-42.2812,-10.6875,
7.485252,0.6763,-0.0465,-0.2063,0.0045,0.0396,-0.0181,26.1188,-42.2812,-10.6875,
7.491408,0.8147,-0.0950,-0.0732,0.0045,0.0396,-0.0181,26.1188,-42.2812,-10.6875,
7.501647,0.8147,-0.0950,-0.0732,0.0045,0.0396,-0.0181,27.4875,-41.9438,-11.8688,
7.509198,0.7472,-0.1527,0.0389,0.0045,0.0396,-0.0181,27.4875,-41.9438,-11.8688,
7.528254,0.7472,-0.1527,0.0389,0.0815,-0.1694,-0.0732,27.4875,-41.9438,-11.8688,
7.532106,0.6966,-0.2046,-0.1199,0.0815,-0.1694,-0.0732,27.4875,-41.9438,-11.8688,
7.534574,0.6966,-0.2046,-0.1199,0.0815,-0.1694,-0.0732,27.4875,-41.9438,-11.8688,
7.547319,0.6092,-0.2545,-0.6695,0.0815,-0.1694,-0.0732,27.4875,-41.9438,-11.8688,
7.559339,0.6092,-0.2545,-0.6695,0.0815,-0.1694,-0.0732,26.2125,-42.0938,-10.5750,
7.566126,0.5572,-0.2782,-0.8251,0.0815,-0.1694,-0.0732,26.2125,-42.0938,-10.5750,
7.580359,0.5572,-0.2782,-0.8251,0.0815,-0.1694,-0.0732,26.2125,-42.0938,-10.5750,
7.585618,0.5733,-0.3667,-0.6115,0.0815,-0.1694,-0.0732,26.2125,-42.0938,-10.5750,
7.590022,0.5733,-0.3667,-0.6115,-0.1238,0.1959,-0.1342,26.2125,-42.0938,-10.5750,
7.604188,0.4244,-0.5007,-0.1598,-0.1238,0.1959,-0.1342,26.2125,-42.0938,-10.5750,
7.620253,0.4244,-0.5007,-0.1598,-0.1238,0.1959,-0.1342,25.9125,-42.1313,-9.6375,
7.624262,0.0177,-0.4099,0.2737,-0.1238,0.1959,-0.1342,25.9125,-42.1313,-9.6375,
7.628141,0.0177,-0.4099,0.2737,-0.1238,0.1959,-0.1342,25.9125,-42.1313,-9.6375,
7.643118,-0.0329,-0.4508,0.4031,-0.1238,0.1959,-0.1342,25.9125,-42.1313,-9.6375,
7.651126,-0.0329,-0.4508,0.4031,0.0155,-0.0252,-0.1062,25.9125,-42.1313,-9.6375,
7.662373,0.2590,-0.6340,0.5331,0.0155,-0.0252,-0.1062,25.9125,-42.1313,-9.6375,
7.675873,0.2590,-0.6340,0.5331,0.0155,-0.0252,-0.1062,25.9125,-42.1313,-9.6375,
7.679840,0.2590,-0.6340,0.5331,0.0155,-0.0252,-0.1062,26.8688,-41.7188,-10.5000,
7.680620,0.8539,-0.7765,-0.0267,0.0155,-0.0252,-0.1062,26.8688,-41.7188,-10.5000,
7.700371,0.3270,-0.4345,0.1473,0.0155,-0.0252,-0.1062,26.8688,-41.7188,-10.5000,
7.714521,0.3270,-0.4345,0.1473,0.2439,-0.2659,-0.2442,26.8688,-41.7188,-10.5000,
7.720949,0.3419,-0.3270,-0.5029,0.2439,-0.2659,-0.2442,26.8688,-41.7188,-10.5000,
7.723747,0.3419,-0.3270,-0.5029,0.2439,-0.2659,-0.2442,26.8688,-41.7188,-10.5000,
7.739173,0.4068,-0.3190,-0.8928,0.2439,-0.2659,-0.2442,26.8688,-41.7188,-10.5000,
7.740900,0.4068,-0.3190,-0.8928,0.2439,-0.2659,-0.2442,27.2625,-41.7188,-10.7063,
7.757256,0.1698,-0.3116,-1.0213,0.2439,-0.2659,-0.2442,27.2625,-41.7188,-10.7063,
7.771720,0.1698,-0.3116,-1.0213,0.2439,-0.2659,-0.2442,27.2625,-41.7188,-10.7063,
7.776765,0.1698,-0.3116,-1.0213,-0.1420,0.2558,-0.4360,27.2625,-41.7188,-10.7063,
7.779615,0.0685,-0.3358,-0.7888,-0.1420,0.2558,-0.4360,27.2625,-41.7188,-10.7063,
7.796219,0.1218,-0.4052,-0.4657,-0.1420,0.2558,-0.4360,27.2625,-41.7188,-10.7063,
7.802942,0.1218,-0.4052,-0.4657,-0.1420,0.2558,-0.4360,28.0125,-40.9688,-10.3125,
7.815412,-0.0340,-0.4625,-0.0556,-0.1420,0.2558,-0.4360,28.0125,-40.9688,-10.3125,
7.819498,-0.0340,-0.4625,-0.0556,-0.1420,0.2558,-0.4360,28.0125,-40.9688,-10.3125,
7.835069,0.1459,-0.5598,0.5517,-0.1420,0.2558,-0.4360,28.0125,-40.9688,-10.3125,
7.839033,0.1459,-0.5598,0.5517,-0.2680,0.2119,-0.4225,28.0125,-40.9688,-10.3125,
7.852879,0.3787,-0.5638,1.1251,-0.2680,0.2119,-0.4225,28.0125,-40.9688,-10.3125,
7.860668,0.3787,-0.5638,1.1251,-0.2680,0.2119,-0.4225,28.9500,-40.1625,-10.9500,
7.869645,0.3787,-0.5638,1.1251,-0.2680,0.2119,-0.4225,28.9500,-40.1625,-10.9500,
7.871904,0.4062,-0.5125,0.8610,-0.2680,0.2119,-0.4225,28.9500,-40.1625,-10.9500,
7.892146,0.2514,-0.3368,0.1333,-0.2680,0.2119,-0.4225,28.9500,-40.1625,-10.9500,
7.902624,0.2514,-0.3368,0.1333,0.2892,-0.0447,-0.4005,28.9500,-40.1625,-10.9500,
7.913130,-0.0458,-0.2169,-0.7358,0.2892,-0.0447,-0.4005,28.9500,-40.1625,-10.9500,
7.914757,-0.0458,-0.2169,-0.7358,0.2892,-0.0447,-0.4005,28.9500,-40.1625,-10.9500,
7.921163,-0.0458,-0.2169,-0.7358,0.2892,-0.0447,-0.4005,29.7000,-39.3188,-10.5563,
7.929230,-0.1334,-0.2438,-0.7958,0.2892,-0.0447,-0.4005,29.7000,-39.3188,-10.5563,
7.948816,-0.3268,-0.1434,-0.5943,0.2892,-0.0447,-0.4005,29.7000,-39.3188,-10.5563,
7.963372,-0.3268,-0.1434,-0.5943,0.2892,-0.0447,-0.4005,29.7000,-39.3188,-10.5563,
7.966402,-0.3268,-0.1434,-0.5943,-0.0505,-0.0692,-0.1257,29.7000,-39.3188,-10.5563,
7.967917,-0.2719,-0.1063,-0.4358,-0.0505,-0.0692,-0.1257,29.7000,-39.3188,-10.5563,
7.980990,-0.2719,-0.1063,-0.4358,-0.0505,-0.0692,-0.1257,31.0875,-39.3938,-11.8500,
7.986500,-0.0434,-0.1586,-0.2041,-0.0505,-0.0692,-0.1257,31.0875,-39.3938,-11.8500,
8.006280,0.1729,-0.1512,0.0059,-0.0505,-0.0692,-0.1257,31.0875,-39.3938,-11.8500,
8.011211,0.1729,-0.1512,0.0059,-0.0505,-0.0692,-0.1257,31.0875,-39.3938,-11.8500,
8.025109,0.1729,-0.1512,0.0059,-0.0993,-0.2890,-0.0939,31.0875,-39.3938,-11.8500,
8.028723,0.4768,-0.3769,0.6483,-0.0993,-0.2890,-0.0939,31.0875,-39.3938,-11.8500,
8.041394,0.4768,-0.3769,0.6483,-0.0993,-0.2890,-0.0939,30.4500,-38.7188,-11.1000,
8.045038,0.4791,-0.6763,0.7564,-0.0993,-0.2890,-0.0939,30.4500,-38.7188,-11.1000,
8.058689,0.4791,-0.6763,0.7564,-0.0993,-0.2890,-0.0939,30.4500,-38.7188,-11.1000,
8.063468,0.4154,-0.5713,0.5473,-0.0993,-0.2890,-0.0939,30.4500,-38.7188,-11.1000,
8.083521,0.6878,-0.2892,0.1522,-0.0993,-0.2890,-0.0939,30.4500,-38.7188,-11.1000,
8.088357,0.6878,-0.2892,0.1522,0.2659,0.0201,-0.0634,30.4500,-38.7188,-11.1000,
8.099450,0.6878,-0.2892,0.1522,0.2659,0.0201,-0.0634,30.5438,-38.7375,-10.7812,
8.102421,0.9334,-0.2827,-0.1882,0.2659,0.0201,-0.0634,30.5438,-38.7375,-10.7812,
8.105926,0.9334,-0.2827,-0.1882,0.2659,0.0201,-0.0634,30.5438,-38.7375,-10.7812,
8.121998,0.7071,-0.2731,-0.3079,0.2659,0.0201,-0.0634,30.5438,-38.7375,-10.7812,
8.140964,0.1582,-0.0509,-0.6141,0.2659,0.0201,-0.0634,30.5438,-38.7375,-10.7812,
8.148790,0.1582,-0.0509,-0.6141,0.0864,0.0714,-0.2711,30.5438,-38.7375,-10.7812,
8.154294,0.1582,-0.0509,-0.6141,0.0864,0.0714,-0.2711,30.5438,-38.7375,-10.7812,
8.160101,0.0235,0.0456,-0.6823,0.0864,0.0714,-0.2711,30.5438,-38.7375,-10.7812,
8.161743,0.0235,0.0456,-0.6823,0.0864,0.0714,-0.2711,31.3313,-38.7000,-10.1813,
8.178471,0.0092,-0.0492,-0.3040,0.0864,0.0714,-0.2711,31.3313,-38.7000,-10.1813,
8.197698,-0.0268,-0.2419,0.1863,0.0864,0.0714,-0.2711,31.3313,-38.7000,-10.1813,
8.201901,-0.0268,-0.2419,0.1863,0.0864,0.0714,-0.2711,31.3313,-38.7000,-10.1813,
8.215182,-0.0268,-0.2419,0.1863,-0.0688,-0.0264,-0.2197,31.3313,-38.7000,-10.1813,
8.216601,-0.1725,-0.3762,0.5630,-0.0688,-0.0264,-0.2197,31.3313,-38.7000,-10.1813,
8.219095,-0.1725,-0.3762,0.5630,-0.0688,-0.0264,-0.2197,31.5000,-38.1750,-10.7063,
8.236108,-0.2061,-0.4062,0.6281,-0.0688,-0.0264,-0.2197,31.5000,-38.1750,-10.7063,
8.249885,-0.2061,-0.4062,0.6281,-0.0688,-0.0264,-0.2197,31.5000,-38.1750,-10.7063,
8.255142,-0.3419,-0.3357,0.2612,-0.0688,-0.0264,-0.2197,31.5000,-38.1750,-10.7063,
8.274432,-0.3419,-0.3357,0.2612,0.1328,-0.0044,-0.0829,31.5000,-38.1750,-10.7063,
8.278691,-0.5765,-0.2456,0.2772,0.1328,-0.0044,-0.0829,31.5000,-38.1750,-10.7063,
8.281068,-0.5765,-0.2456,0.2772,0.1328,-0.0044,-0.0829,31.8750,-37.8375,-9.9938,
8.293569,-0.3194,-0.1446,0.3366,0.1328,-0.0044,-0.0829,31.8750,-37.8375,-9.9938,
8.297806,-0.3194,-0.1446,0.3366,0.1328,-0.0044,-0.0829,31.8750,-37.8375,-9.9938,
8.312965,0.1060,-0.1551,0.3252,0.1328,-0.0044,-0.0829,31.8750,-37.8375,-9.9938,
8.332106,0.4471,-0.2921,0.2408,0.1328,-0.0044,-0.0829,31.8750,-37.8375,-9.9938,
8.335813,0.4471,-0.2921,0.2408,0.1181,-0.1779,-0.0891,31.8750,-37.8375,-9.9938,
8.340323,0.4471,-0.2921,0.2408,0.1181,-0.1779,-0.0891,31.5750,-37.8188,-10.0875,
8.349129,0.4471,-0.2921,0.2408,0.1181,-0.1779,-0.0891,31.5750,-37.8188,-10.0875,
8.351960,0.3421,-0.2819,-0.0699,0.1181,-0.1779,-0.0891,31.5750,-37.8188,-10.0875,
8.369784,0.2322,-0.2033,-0.2730,0.1181,-0.1779,-0.0891,31.5750,-37.8188,-10.0875,
8.388693,0.1592,-0.3545,-0.4532,0.1181,-0.1779,-0.0891,31.5750,-37.8188,-10.0875,
8.393293,0.1592,-0.3545,-0.4532,0.1181,-0.1779,-0.0891,31.5750,-37.8188,-10.0875,
8.397915,0.1592,-0.3545,-0.4532,-0.0052,-0.0117,-0.3542,31.5750,-37.8188,-10.0875,
8.399242,0.1592,-0.3545,-0.4532,-0.0052,-0.0117,-0.3542,32.0625,-37.6500,-9.9938,
8.408409,-0.0288,-0.3031,-0.4242,-0.0052,-0.0117,-0.3542,32.0625,-37.6500,-9.9938,
8.426787,-0.3519,-0.3831,-0.5606,-0.0052,-0.0117,-0.3542,32.0625,-37.6500,-9.9938,
8.441066,-0.3519,-0.3831,-0.5606,-0.0052,-0.0117,-0.3542,32.0625,-37.6500,-9.9938,
8.447145,-0.3571,-0.3066,-0.6864,-0.0052,-0.0117,-0.3542,32.0625,-37.6500,-9.9938,
8.459647,-0.3571,-0.3066,-0.6864,-0.0639,0.0469,-0.2857,32.0625,-37.6500,-9.9938,
8.461039,-0.3571,-0.3066,-0.6864,-0.0639,0.0469,-0.2857,32.8125,-36.8625,-10.3125,
8.465263,-0.2180,-0.3500,-0.7240,-0.0639,0.0469,-0.2857,32.8125,-36.8625,-10.3125,
8.484520,-0.0614,-0.2647,-0.7099,-0.0639,0.0469,-0.2857,32.8125,-36.8625,-10.3125,
8.488900,-0.0614,-0.2647,-0.7099,-0.0639,0.0469,-0.2857,32.8125,-36.8625,-10.3125,
8.503766,0.0377,-0.2191,-0.6027,-0.0639,0.0469,-0.2857,32.8125,-36.8625,-10.3125,
8.519703,0.0377,-0.2191,-0.6027,-0.0639,0.0469,-0.2857,32.9813,-36.2438,-10.6313,
8.523420,0.0377,-0.2191,-0.6027,-0.2386,0.0531,-0.2014,32.9813,-36.2438,-10.6313,
8.523981,0.2002,-0.2149,-0.5055,-0.2386,0.0531,-0.2014,32.9813,-36.2438,-10.6313,
8.536378,0.2002,-0.2149,-0.5055,-0.2386,0.0531,-0.2014,32.9813,-36.2438,-10.6313,
8.542188,0.0494,-0.0891,-0.5397,-0.2386,0.0531,-0.2014,32.9813,-36.2438,-10.6313,
8.560949,-0.1211,0.0309,-0.5699,-0.2386,0.0531,-0.2014,32.9813,-36.2438,-10.6313,
8.579813,-0.2624,0.0834,-0.5655,-0.2386,0.0531,-0.2014,32.9813,-36.2438,-10.6313,
8.582319,-0.2624,0.0834,-0.5655,-0.2386,0.0531,-0.2014,33.5438,-35.7938,-10.3313,
8.585094,-0.2624,0.0834,-0.5655,-0.2386,0.0531,-0.2014,33.5438,-35.7938,-10.3313,
8.587262,-0.2624,0.0834,-0.5655,-0.4586,0.3877,-0.1319,33.5438,-35.7938,-10.3313,
8.599355,-0.4017,0.1197,-0.1461,-0.4586,0.3877,-0.1319,33.5438,-35.7938,-10.3313,
8.618352,-0.2421,-0.0964,0.4028,-0.4586,0.3877,-0.1319,33.5438,-35.7938,-10.3313,
8.632121,-0.2421,-0.0964,0.4028,-0.4586,0.3877,-0.1319,33.5438,-35.7938,-10.3313,
8.638109,-0.2636,-0.1921,0.7704,-0.4586,0.3877,-0.1319,33.5438,-35.7938,-10.3313,
8.640598,-0.2636,-0.1921,0.7704,-0.4586,0.3877,-0.1319,34.4062,-35.1938,-10.9875,
8.646211,-0.2636,-0.1921,0.7704,-0.4597,0.2217,-0.0329,34.4062,-35.1938,-10.9875,
8.657237,-0.2517,-0.2855,0.8640,-0.4597,0.2217,-0.0329,34.4062,-35.1938,-10.9875,
8.675968,-0.1890,-0.4089,1.2324,-0.4597,0.2217,-0.0329,34.4062,-35.1938,-10.9875,
8.680068,-0.1890,-0.4089,1.2324,-0.4597,0.2217,-0.0329,34.4062,-35.1938,-10.9875,
8.695168,-0.0433,-0.3909,1.3343,-0.4597,0.2217,-0.0329,34.4062,-35.1938,-10.9875,
8.700423,-0.0433,-0.3909,1.3343,-0.4597,0.2217,-0.0329,34.2375,-35.6438,-11.4938,
8.708444,-0.0433,-0.3909,1.3343,0.1474,-0.0093,0.0661,34.2375,-35.6438,-11.4938,
8.713503,0.0325,-0.3847,0.8302,0.1474,-0.0093,0.0661,34.2375,-35.6438,-11.4938,
8.728663,0.0325,-0.3847,0.8302,0.1474,-0.0093,0.0661,34.2375,-35.6438,-11.4938,
8.733134,-0.0649,-0.2157,0.1517,0.1474,-0.0093,0.0661,34.2375,-35.6438,-11.4938,
8.752095,0.0925,-0.1230,-0.2730,0.1474,-0.0093,0.0661,34.2375,-35.6438,-11.4938,
8.759562,0.0925,-0.1230,-0.2730,0.1474,-0.0093,0.0661,33.8438,-35.8688,-10.8563,
8.771165,0.0925,-0.1230,-0.2730,0.0583,0.0091,0.1748,33.8438,-35.8688,-10.8563,
8.775047,0.1098,-0.1680,-0.4693,0.0583,0.0091,0.1748,33.8438,-35.8688,-10.8563,
8.777599,0.1098,-0.1680,-0.4693,0.0583,0.0091,0.1748,33.8438,-35.8688,-10.8563,
8.790633,0.2224,-0.2470,-0.2337,0.0583,0.0091,0.1748,33.8438,-35.8688,-10.8563,
8.809731,0.5364,-0.3849,-0.2921,0.0583,0.0091,0.1748,33.8438,-35.8688,-10.8563,
8.819891,0.5364,-0.3849,-0.2921,0.0583,0.0091,0.1748,33.1500,-35.8500,-10.6313,
8.825754,0.5364,-0.3849,-0.2921,0.0583,0.0091,0.1748,33.1500,-35.8500,-10.6313,
8.828327,0.3976,-0.4278,-0.5935,0.0583,0.0091,0.1748,33.1500,-35.8500,-10.6313,
8.832531,0.3976,-0.4278,-0.5935,-0.0334,0.1899,0.0477,33.1500,-35.8500,-10.6313,
8.848190,0.0353,-0.2876,-0.5615,-0.0334,0.1899,0.0477,33.1500,-35.8500,-10.6313,
8.867252,0.0851,-0.1594,-0.7717,-0.0334,0.1899,0.0477,33.1500,-35.8500,-10.6313,
8.871602,0.0851,-0.1594,-0.7717,-0.0334,0.1899,0.0477,33.1500,-35.8500,-10.6313,
8.881418,0.0851,-0.1594,-0.7717,-0.0334,0.1899,0.0477,33.5438,-35.7938,-10.1250,
8.885214,0.4237,-0.4968,-0.2678,-0.0334,0.1899,0.0477,33.5438,-35.7938,-10.1250,
8.894726,0.4237,-0.4968,-0.2678,0.0253,0.1642,-0.0279,33.5438,-35.7938,-10.1250,
8.904929,0.1163,-0.2535,-0.2417,0.0253,0.1642,-0.0279,33.5438,-35.7938,-10.1250,
8.918778,0.1163,-0.2535,-0.2417,0.0253,0.1642,-0.0279,33.5438,-35.7938,-10.1250,
8.924760,-0.1458,-0.1790,-0.2836,0.0253,0.1642,-0.0279,33.5438,-35.7938,-10.1250,
8.940724,-0.1458,-0.1790,-0.2836,0.0253,0.1642,-0.0279,33.3375,-35.7000,-10.1250,
8.945422,-0.0514,-0.1560,-0.1555,0.0253,0.1642,-0.0279,33.3375,-35.7000,-10.1250,
8.956875,-0.0514,-0.1560,-0.1555,-0.0565,-0.0777,0.0661,33.3375,-35.7000,-10.1250,
8.962256,0.2940,-0.5997,-0.0205,-0.0565,-0.0777,0.0661,33.3375,-35.7000,-10.1250,
8.972313,0.2940,-0.5997,-0.0205,-0.0565,-0.0777,0.0661,33.3375,-35.7000,-10.1250,
