
time,ax,ay,az,wx,wy,wz,Bx,By,Bz,
0.129532,0.0000,0.0000,0.0000,0.0000,0.0000,0.0000,0.0000,0.0000,0.0000,
0.130520,0.0000,0.0000,0.0000,0.0000,0.0000,0.0000,0.0000,0.0000,0.0000,
0.131173,0.0000,0.0000,0.0000,0.0000,0.0000,0.0000,0.0000,0.0000,0.0000,
0.131749,0.0000,0.0000,0.0000,0.0000,0.0000,0.0000,0.0000,0.0000,0.0000,
0.132218,0.0000,0.0000,0.0000,0.0000,0.0000,0.0000,0.0000,0.0000,0.0000,
0.132687,0.0000,0.0000,0.0000,0.0000,0.0000,0.0000,0.0000,0.0000,0.0000,
0.158913,0.0000,0.0000,0.0000,0.0096,0.0169,-0.1039,0.0000,0.0000,0.0000,
0.177813,0.0000,0.0000,0.0000,0.0096,0.0169,-0.1039,0.0000,0.0000,0.0000,
0.178408,0.0000,0.0000,0.0000,0.0096,0.0169,-0.1039,0.0000,0.0000,0.0000,
0.185797,0.0000,0.0000,0.0000,0.0096,0.0169,-0.1039,0.0000,0.0000,0.0000,
0.186397,0.0000,0.0000,0.0000,0.0096,0.0169,-0.1039,28.6875,-71.0063,-82.4438,
0.187132,0.0000,0.0000,0.0000,0.0096,0.0169,-0.1039,28.6875,-71.0063,-82.4438,
0.205367,0.0000,0.0000,0.0000,0.1389,-0.0280,0.0061,28.6875,-71.0063,-82.4438,
0.244118,0.0000,0.0000,0.0000,0.1389,-0.0280,0.0061,28.6875,-71.0063,-82.4438,
0.245526,0.0000,0.0000,0.0000,0.1389,-0.0280,0.0061,28.6875,-71.0063,-82.4438,
0.248724,0.0000,0.0000,0.0000,0.1389,-0.0280,0.0061,28.6875,-71.0063,-82.4438,
0.249946,-0.0480,0.0056,-0.0764,0.1389,-0.0280,0.0061,28.6875,-71.0063,-82.4438,
0.270158,-0.0480,0.0056,-0.0764,0.0467,-0.0111,-0.0625,28.6875,-71.0063,-82.4438,
0.272252,-0.0480,0.0056,-0.0764,0.0467,-0.0111,-0.0625,28.1625,-70.8563,-82.0500,
0.274228,-0.0480,0.0056,-0.0764,0.0467,-0.0111,-0.0625,28.1625,-70.8563,-82.0500,
0.295407,-0.0480,0.0056,-0.0764,0.0467,-0.0111,-0.0625,28.1625,-70.8563,-82.0500,
0.308377,-0.0480,0.0056,-0.0764,0.0467,-0.0111,-0.0625,28.1625,-70.8563,-82.0500,
0.309868,0.0682,-0.0490,-0.0669,0.0467,-0.0111,-0.0625,28.1625,-70.8563,-82.0500,
0.328145,0.0682,-0.0490,-0.0669,0.0467,-0.0111,-0.0625,28.1625,-70.8563,-82.0500,
0.329451,0.0682,-0.0490,-0.0669,0.0467,-0.0111,-0.0625,28.0500,-71.0625,-82.2750,
0.347031,0.0682,-0.0490,-0.0669,0.0338,-0.0102,0.0016,28.0500,-71.0625,-82.2750,
0.368593,0.0792,0.0134,0.0433,0.0338,-0.0102,0.0016,28.0500,-71.0625,-82.2750,
0.370399,0.0792,0.0134,0.0433,0.0338,-0.0102,0.0016,28.0500,-71.0625,-82.2750,
0.371379,0.0792,0.0134,0.0433,0.0338,-0.0102,0.0016,28.0500,-71.0625,-82.2750,
0.390020,0.0792,0.0134,0.0433,0.0338,-0.0102,0.0016,28.0500,-71.0625,-82.2750,
0.392971,0.0792,0.0134,0.0433,0.0338,-0.0102,0.0016,27.9375,-71.1000,-82.3875,
0.408748,0.0792,0.0134,0.0433,-0.0068,-0.0982,-0.0370,27.9375,-71.1000,-82.3875,
0.429983,0.0792,0.0134,0.0433,-0.0068,-0.0982,-0.0370,27.9375,-71.1000,-82.3875,
0.432319,0.0792,0.0134,0.0433,-0.0068,-0.0982,-0.0370,27.9375,-71.1000,-82.3875,
0.434237,0.1924,-0.0059,0.2294,-0.0068,-0.0982,-0.0370,27.9375,-71.1000,-82.3875,
0.472165,0.1924,-0.0059,0.2294,-0.0015,-0.0758,-0.0175,27.9375,-71.1000,-82.3875,
0.476160,0.1924,-0.0059,0.2294,-0.0015,-0.0758,-0.0175,27.9000,-71.1750,-82.2750,
0.478202,0.1924,-0.0059,0.2294,-0.0015,-0.0758,-0.0175,27.9000,-71.1750,-82.2750,
0.479737,0.1924,-0.0059,0.2294,-0.0015,-0.0758,-0.0175,27.9000,-71.1750,-82.2750,
0.489788,0.1924,-0.0059,0.2294,-0.0015,-0.0758,-0.0175,27.9000,-71.1750,-82.2750,
0.492457,0.2636,-0.0120,0.1713,-0.0015,-0.0758,-0.0175,27.9000,-71.1750,-82.2750,
0.509643,0.2636,-0.0120,0.1713,-0.0015,-0.0758,-0.0175,27.9000,-71.1750,-82.2750,
0.528051,0.2636,-0.0120,0.1713,-0.0015,-0.0758,-0.0175,27.6563,-71.1750,-82.2938,
0.529891,0.2636,-0.0120,0.1713,-0.0015,-0.0758,-0.0175,27.6563,-71.1750,-82.2938,
0.546839,0.2636,-0.0120,0.1713,-0.0137,-0.0573,-0.0337,27.6563,-71.1750,-82.2938,
0.549639,0.2636,-0.0120,0.1713,-0.0137,-0.0573,-0.0337,27.6563,-71.1750,-82.2938,
0.550837,0.3086,0.0877,0.0748,-0.0137,-0.0573,-0.0337,27.6563,-71.1750,-82.2938,
0.576554,0.3086,0.0877,0.0748,-0.0137,-0.0573,-0.0337,27.6563,-71.1750,-82.2938,
0.589104,0.3086,0.0877,0.0748,-0.0137,-0.0573,-0.0337,27.4313,-71.1188,-82.2375,
0.591297,0.3086,0.0877,0.0748,-0.0137,-0.0573,-0.0337,27.4313,-71.1188,-82.2375,
0.606795,0.3086,0.0877,0.0748,-0.0289,-0.0495,-0.0678,27.4313,-71.1188,-82.2375,
0.609243,0.3086,0.0877,0.0748,-0.0289,-0.0495,-0.0678,27.4313,-71.1188,-82.2375,
0.610391,0.1131,0.1408,0.0213,-0.0289,-0.0495,-0.0678,27.4313,-71.1188,-82.2375,
0.643015,0.1131,0.1408,0.0213,-0.0289,-0.0495,-0.0678,27.4313,-71.1188,-82.2375,
0.667558,0.1131,0.1408,0.0213,-0.0289,-0.0495,-0.0678,27.4313,-71.1188,-82.2375,
0.669780,0.1131,0.1408,0.0213,-0.0289,-0.0495,-0.0678,27.4313,-71.1188,-82.2375,
0.670947,0.1131,0.1408,0.0213,0.0025,-0.1392,0.0941,27.4313,-71.1188,-82.2375,
0.672635,0.1131,0.1408,0.0213,0.0025,-0.1392,0.0941,27.3375,-71.0438,-82.3125,
0.674205,0.0417,0.0624,-0.0140,0.0025,-0.1392,0.0941,27.3375,-71.0438,-82.3125,
0.711167,0.0417,0.0624,-0.0140,0.0025,-0.1392,0.0941,27.3375,-71.0438,-82.3125,
0.714692,0.0417,0.0624,-0.0140,0.0025,-0.1392,0.0941,27.3375,-71.0438,-82.3125,
0.730839,0.0417,0.0624,-0.0140,0.0025,-0.1392,0.0941,27.1875,-70.9875,-82.2750,
0.734701,-0.0955,0.1774,0.2949,0.0025,-0.1392,0.0941,27.1875,-70.9875,-82.2750,
0.737939,-0.0955,0.1774,0.2949,0.0025,-0.1392,0.0941,27.1875,-70.9875,-82.2750,
0.750162,-0.0955,0.1774,0.2949,-0.0473,-0.0748,-0.0454,27.1875,-70.9875,-82.2750,
0.778021,-0.0955,0.1774,0.2949,-0.0473,-0.0748,-0.0454,27.1875,-70.9875,-82.2750,
0.780776,-0.0955,0.1774,0.2949,-0.0473,-0.0748,-0.0454,27.1875,-70.9875,-82.2750,
0.788122,-0.0955,0.1774,0.2949,-0.0473,-0.0748,-0.0454,27.1875,-70.9875,-82.2750,
0.790823,-0.0955,0.1774,0.2949,-0.0473,-0.0748,-0.0454,27.0750,-70.8563,-82.4062,
0.793206,0.1201,-0.0050,0.2633,-0.0473,-0.0748,-0.0454,27.0750,-70.8563,-82.4062,
0.806864,0.1201,-0.0050,0.2633,0.0586,-0.0082,0.0452,27.0750,-70.8563,-82.4062,
0.845091,0.1201,-0.0050,0.2633,0.0586,-0.0082,0.0452,27.0750,-70.8563,-82.4062,
0.847871,0.1201,-0.0050,0.2633,0.0586,-0.0082,0.0452,27.0750,-70.8563,-82.4062,
0.849816,0.1201,-0.0050,0.2633,0.0586,-0.0082,0.0452,27.0750,-70.8563,-82.4062,
0.851530,-0.2193,0.0849,0.3020,0.0586,-0.0082,0.0452,27.0750,-70.8563,-82.4062,
0.870391,-0.2193,0.0849,0.3020,0.0271,-0.0866,-0.0056,27.0750,-70.8563,-82.4062,
0.875726,-0.2193,0.0849,0.3020,0.0271,-0.0866,-0.0056,27.0750,-70.8563,-82.4062,
0.878303,-0.2193,0.0849,0.3020,0.0271,-0.0866,-0.0056,26.8688,-70.7625,-82.3125,
0.914779,-0.2193,0.0849,0.3020,0.0271,-0.0866,-0.0056,26.8688,-70.7625,-82.3125,
0.917771,-0.2193,0.0849,0.3020,0.0271,-0.0866,-0.0056,26.8688,-70.7625,-82.3125,
0.919840,-0.1152,0.0317,0.1221,0.0271,-0.0866,-0.0056,26.8688,-70.7625,-82.3125,
0.929383,-0.1152,0.0317,0.1221,0.0271,-0.0866,-0.0056,26.8688,-70.7625,-82.3125,
0.931525,-0.1152,0.0317,0.1221,0.0271,-0.0866,-0.0056,26.5875,-70.6875,-82.3125,
0.947241,-0.1152,0.0317,0.1221,0.1025,-0.0526,0.0191,26.5875,-70.6875,-82.3125,
0.967007,-0.0350,0.0196,0.0404,0.1025,-0.0526,0.0191,26.5875,-70.6875,-82.3125,
0.970467,-0.0350,0.0196,0.0404,0.1025,-0.0526,0.0191,26.5875,-70.6875,-82.3125,
0.974270,-0.0350,0.0196,0.0404,0.1025,-0.0526,0.0191,26.5875,-70.6875,-82.3125,
0.987082,-0.0350,0.0196,0.0404,0.1025,-0.0526,0.0191,26.3625,-70.6125,-82.5188,
1.008586,-0.0350,0.0196,0.0404,0.0999,-0.0454,0.0574,26.3625,-70.6125,-82.5188,
1.011543,-0.0350,0.0196,0.0404,0.0999,-0.0454,0.0574,26.3625,-70.6125,-82.5188,
1.029857,-0.0350,0.0196,0.0404,0.0999,-0.0454,0.0574,26.3625,-70.6125,-82.5188,
1.032522,-0.0350,0.0196,0.0404,0.0999,-0.0454,0.0574,26.3625,-70.6125,-82.5188,
1.034688,-0.0974,-0.1113,0.0764,0.0999,-0.0454,0.0574,26.3625,-70.6125,-82.5188,
1.051109,-0.0974,-0.1113,0.0764,0.0999,-0.0454,0.0574,26.3625,-70.6125,-82.5188,
1.071143,-0.0974,-0.1113,0.0764,0.0999,-0.0454,0.0574,26.2688,-70.7250,-82.5938,
1.075029,-0.0974,-0.1113,0.0764,0.1167,-0.0730,-0.0057,26.2688,-70.7250,-82.5938,
1.089023,-0.0974,-0.1113,0.0764,0.1167,-0.0730,-0.0057,26.2688,-70.7250,-82.5938,
1.092048,-0.0974,-0.1113,0.0764,0.1167,-0.0730,-0.0057,26.2688,-70.7250,-82.5938,
1.095209,0.0443,-0.0643,-0.1078,0.1167,-0.0730,-0.0057,26.2688,-70.7250,-82.5938,
1.112726,0.0443,-0.0643,-0.1078,0.1167,-0.0730,-0.0057,26.2688,-70.7250,-82.5938,
1.128357,0.0443,-0.0643,-0.1078,0.1167,-0.0730,-0.0057,26.1938,-70.8000,-82.7812,
1.148287,0.0443,-0.0643,-0.1078,0.1167,-0.0730,-0.0057,26.1938,-70.8000,-82.7812,
1.151197,0.0443,-0.0643,-0.1078,0.1167,-0.0730,-0.0057,26.1938,-70.8000,-82.7812,
1.152994,0.0443,-0.0643,-0.1078,0.1019,-0.0444,0.0134,26.1938,-70.8000,-82.7812,
1.155821,-0.0134,-0.0873,-0.2285,0.1019,-0.0444,0.0134,26.1938,-70.8000,-82.7812,
1.177900,-0.0134,-0.0873,-0.2285,0.1019,-0.0444,0.0134,26.1938,-70.8000,-82.7812,
1.188815,-0.0134,-0.0873,-0.2285,0.1019,-0.0444,0.0134,26.0063,-71.0063,-82.7438,
1.192058,-0.0134,-0.0873,-0.2285,0.1019,-0.0444,0.0134,26.0063,-71.0063,-82.7438,
1.210941,-0.0134,-0.0873,-0.2285,0.0647,-0.0670,0.0020,26.0063,-71.0063,-82.7438,
1.214333,-0.0134,-0.0873,-0.2285,0.0647,-0.0670,0.0020,26.0063,-71.0063,-82.7438,
1.216097,0.1342,-0.0537,-0.1735,0.0647,-0.0670,0.0020,26.0063,-71.0063,-82.7438,
1.248331,0.1342,-0.0537,-0.1735,0.0647,-0.0670,0.0020,26.0063,-71.0063,-82.7438,
1.269324,0.1342,-0.0537,-0.1735,0.0647,-0.0670,0.0020,25.7438,-71.3063,-82.7438,
1.272732,0.1342,-0.0537,-0.1735,0.0481,-0.0141,0.0290,25.7438,-71.3063,-82.7438,
1.275321,0.0181,-0.0641,-0.2552,0.0481,-0.0141,0.0290,25.7438,-71.3063,-82.7438,
1.278626,0.0181,-0.0641,-0.2552,0.0481,-0.0141,0.0290,25.7438,-71.3063,-82.7438,
1.280266,0.0181,-0.0641,-0.2552,0.0481,-0.0141,0.0290,25.7438,-71.3063,-82.7438,
1.310725,0.0181,-0.0641,-0.2552,0.0481,-0.0141,0.0290,25.7438,-71.3063,-82.7438,
1.313491,0.0181,-0.0641,-0.2552,0.0481,-0.0141,0.0290,25.7438,-71.3063,-82.7438,
1.329380,0.0181,-0.0641,-0.2552,0.0481,-0.0141,0.0290,25.5938,-71.7375,-82.7438,
1.332538,0.0695,-0.0580,-0.0518,0.0481,-0.0141,0.0290,25.5938,-71.7375,-82.7438,
1.335457,0.0695,-0.0580,-0.0518,0.0481,-0.0141,0.0290,25.5938,-71.7375,-82.7438,
1.348164,0.0695,-0.0580,-0.0518,0.0192,-0.0943,0.0152,25.5938,-71.7375,-82.7438,
1.377037,0.0695,-0.0580,-0.0518,0.0192,-0.0943,0.0152,25.5938,-71.7375,-82.7438,
1.379273,0.0695,-0.0580,-0.0518,0.0192,-0.0943,0.0152,25.5938,-71.7375,-82.7438,
1.390531,0.0695,-0.0580,-0.0518,0.0192,-0.0943,0.0152,25.4063,-72.0000,-82.8750,
1.393101,0.0365,-0.0167,-0.0337,0.0192,-0.0943,0.0152,25.4063,-72.0000,-82.8750,
1.395347,0.0365,-0.0167,-0.0337,0.0192,-0.0943,0.0152,25.4063,-72.0000,-82.8750,
1.407355,0.0365,-0.0167,-0.0337,-0.0036,-0.0547,-0.0253,25.4063,-72.0000,-82.8750,
1.444345,0.0365,-0.0167,-0.0337,-0.0036,-0.0547,-0.0253,25.4063,-72.0000,-82.8750,
1.447017,0.0365,-0.0167,-0.0337,-0.0036,-0.0547,-0.0253,25.4063,-72.0000,-82.8750,
1.448814,0.1550,-0.0176,-0.0129,-0.0036,-0.0547,-0.0253,25.4063,-72.0000,-82.8750,
1.451333,0.1550,-0.0176,-0.0129,-0.0036,-0.0547,-0.0253,25.4063,-72.0000,-82.8750,
1.468055,0.1550,-0.0176,-0.0129,-0.0036,-0.0547,-0.0253,25.2750,-72.2625,-82.9125,
1.471427,0.1550,-0.0176,-0.0129,0.0215,-0.0194,-0.0290,25.2750,-72.2625,-82.9125,
1.511311,0.1550,-0.0176,-0.0129,0.0215,-0.0194,-0.0290,25.2750,-72.2625,-82.9125,
1.514746,0.1550,-0.0176,-0.0129,0.0215,-0.0194,-0.0290,25.2750,-72.2625,-82.9125,
1.517640,0.1550,-0.0176,-0.0129,0.0215,-0.0194,-0.0290,25.2750,-72.2625,-82.9125,
1.520422,0.0405,0.0266,0.0780,0.0215,-0.0194,-0.0290,25.2750,-72.2625,-82.9125,
1.532123,0.0405,0.0266,0.0780,0.0215,-0.0194,-0.0290,25.0688,-72.4313,-82.8375,
1.550446,0.0405,0.0266,0.0780,-0.0023,-0.0132,-0.0116,25.0688,-72.4313,-82.8375,
1.553386,0.0405,0.0266,0.0780,-0.0023,-0.0132,-0.0116,25.0688,-72.4313,-82.8375,
1.569194,0.0954,-0.0154,0.0080,-0.0023,-0.0132,-0.0116,25.0688,-72.4313,-82.8375,
1.572886,0.0954,-0.0154,0.0080,-0.0023,-0.0132,-0.0116,25.0688,-72.4313,-82.8375,
1.575119,0.0954,-0.0154,0.0080,-0.0023,-0.0132,-0.0116,25.0688,-72.4313,-82.8375,
1.588799,0.0954,-0.0154,0.0080,-0.0023,-0.0132,-0.0116,24.9938,-72.4688,-82.7063,
1.607965,0.0954,-0.0154,0.0080,-0.0023,-0.0132,-0.0116,24.9938,-72.4688,-82.7063,
1.609974,0.0954,-0.0154,0.0080,-0.0121,-0.0610,0.0286,24.9938,-72.4688,-82.7063,
1.628444,0.0954,-0.0154,0.0080,-0.0121,-0.0610,0.0286,24.9938,-72.4688,-82.7063,
1.630671,0.0954,-0.0154,0.0080,-0.0121,-0.0610,0.0286,24.9938,-72.4688,-82.7063,
1.632660,0.0082,0.0916,0.0741,-0.0121,-0.0610,0.0286,24.9938,-72.4688,-82.7063,
1.670531,0.0082,0.0916,0.0741,-0.0121,-0.0610,0.0286,24.9938,-72.4688,-82.7063,
1.673197,0.0082,0.0916,0.0741,-0.0121,-0.0610,0.0286,24.8625,-72.6188,-82.7063,
1.676352,0.0082,0.0916,0.0741,-0.0008,-0.1167,0.1955,24.8625,-72.6188,-82.7063,
1.690216,0.0082,0.0916,0.0741,-0.0008,-0.1167,0.1955,24.8625,-72.6188,-82.7063,
1.693476,0.0082,0.0916,0.0741,-0.0008,-0.1167,0.1955,24.8625,-72.6188,-82.7063,
1.696241,-0.1099,0.1448,0.0628,-0.0008,-0.1167,0.1955,24.8625,-72.6188,-82.7063,
1.713784,-0.1099,0.1448,0.0628,-0.0008,-0.1167,0.1955,24.8625,-72.6188,-82.7063,
1.730749,-0.1099,0.1448,0.0628,-0.0008,-0.1167,0.1955,24.8250,-72.6562,-82.7250,
1.748558,-0.1099,0.1448,0.0628,-0.0008,-0.1167,0.1955,24.8250,-72.6562,-82.7250,
1.751248,-0.1099,0.1448,0.0628,-0.0008,-0.1167,0.1955,24.8250,-72.6562,-82.7250,
1.753157,-0.1099,0.1448,0.0628,-0.0444,-0.0463,-0.0260,24.8250,-72.6562,-82.7250,
1.755913,0.0251,-0.0174,0.0252,-0.0444,-0.0463,-0.0260,24.8250,-72.6562,-82.7250,
1.779371,0.0251,-0.0174,0.0252,-0.0444,-0.0463,-0.0260,24.8250,-72.6562,-82.7250,
1.786530,0.0251,-0.0174,0.0252,-0.0444,-0.0463,-0.0260,24.6750,-72.6750,-82.8000,
1.808234,0.0251,-0.0174,0.0252,-0.0444,-0.0463,-0.0260,24.6750,-72.6750,-82.8000,
1.811012,0.0251,-0.0174,0.0252,-0.0444,-0.0463,-0.0260,24.6750,-72.6750,-82.8000,
1.813388,0.0251,-0.0174,0.0252,0.0202,-0.0456,0.0703,24.6750,-72.6750,-82.8000,
1.816514,-0.0386,0.1181,0.2148,0.0202,-0.0456,0.0703,24.6750,-72.6750,-82.8000,
1.844139,-0.0386,0.1181,0.2148,0.0202,-0.0456,0.0703,24.6750,-72.6750,-82.8000,
1.872142,-0.0386,0.1181,0.2148,0.0202,-0.0456,0.0703,24.6750,-72.6750,-82.8000,
1.875499,-0.0386,0.1181,0.2148,0.0202,-0.0456,0.0703,24.6750,-72.6750,-82.8000,
1.877675,-0.0386,0.1181,0.2148,0.0202,-0.0456,0.0703,24.4688,-72.7500,-82.9313,
1.880366,-0.0386,0.1181,0.2148,0.0049,-0.0827,0.0671,24.4688,-72.7500,-82.9313,
1.882666,-0.0630,0.0450,0.1309,0.0049,-0.0827,0.0671,24.4688,-72.7500,-82.9313,
1.910731,-0.0630,0.0450,0.1309,0.0049,-0.0827,0.0671,24.4688,-72.7500,-82.9313,
1.913480,-0.0630,0.0450,0.1309,0.0049,-0.0827,0.0671,24.4688,-72.7500,-82.9313,
1.928980,-0.0630,0.0450,0.1309,0.0049,-0.0827,0.0671,24.3188,-72.7500,-82.9688,
1.932102,0.1305,0.0644,0.0954,0.0049,-0.0827,0.0671,24.3188,-72.7500,-82.9688,
1.934615,0.1305,0.0644,0.0954,0.0049,-0.0827,0.0671,24.3188,-72.7500,-82.9688,
1.947684,0.1305,0.0644,0.0954,0.0021,-0.1071,0.0960,24.3188,-72.7500,-82.9688,
1.978112,0.1305,0.0644,0.0954,0.0021,-0.1071,0.0960,24.3188,-72.7500,-82.9688,
1.981001,0.1305,0.0644,0.0954,0.0021,-0.1071,0.0960,24.3188,-72.7500,-82.9688,
1.989932,0.1305,0.0644,0.0954,0.0021,-0.1071,0.0960,24.2250,-72.7313,-83.0438,
1.992981,0.0463,0.0476,0.1578,0.0021,-0.1071,0.0960,24.2250,-72.7313,-83.0438,
1.994975,0.0463,0.0476,0.1578,0.0021,-0.1071,0.0960,24.2250,-72.7313,-83.0438,
2.009419,0.0463,0.0476,0.1578,-0.0187,-0.1138,0.0455,24.2250,-72.7313,-83.0438,
2.044496,0.0463,0.0476,0.1578,-0.0187,-0.1138,0.0455,24.2250,-72.7313,-83.0438,
2.047228,0.0463,0.0476,0.1578,-0.0187,-0.1138,0.0455,24.2250,-72.7313,-83.0438,
2.049224,0.1768,0.0068,0.0794,-0.0187,-0.1138,0.0455,24.2250,-72.7313,-83.0438,
2.051755,0.1768,0.0068,0.0794,-0.0187,-0.1138,0.0455,24.2250,-72.7313,-83.0438,
2.065794,0.1768,0.0068,0.0794,-0.0187,-0.1138,0.0455,24.0188,-72.7313,-83.0625,
2.069484,0.1768,0.0068,0.0794,-0.0096,-0.1324,0.0661,24.0188,-72.7313,-83.0625,
2.108181,0.1768,0.0068,0.0794,-0.0096,-0.1324,0.0661,24.0188,-72.7313,-83.0625,
2.110397,0.1768,0.0068,0.0794,-0.0096,-0.1324,0.0661,24.0188,-72.7313,-83.0625,
2.111947,0.1768,0.0068,0.0794,-0.0096,-0.1324,0.0661,24.0188,-72.7313,-83.0625,
2.113740,0.0022,0.0619,0.1633,-0.0096,-0.1324,0.0661,24.0188,-72.7313,-83.0625,
2.130143,0.0022,0.0619,0.1633,-0.0096,-0.1324,0.0661,23.6813,-72.7875,-83.1938,
2.149756,0.0022,0.0619,0.1633,-0.0096,-0.1324,0.0661,23.6813,-72.7875,-83.1938,
2.151939,0.0022,0.0619,0.1633,-0.0179,-0.1882,0.0689,23.6813,-72.7875,-83.1938,
2.169569,0.0022,0.0619,0.1633,-0.0179,-0.1882,0.0689,23.6813,-72.7875,-83.1938,
2.172082,0.0022,0.0619,0.1633,-0.0179,-0.1882,0.0689,23.6813,-72.7875,-83.1938,
2.174167,0.0500,0.0056,0.1126,-0.0179,-0.1882,0.0689,23.6813,-72.7875,-83.1938,
2.191046,0.0500,0.0056,0.1126,-0.0179,-0.1882,0.0689,23.3063,-72.7688,-83.0813,
2.212363,0.0500,0.0056,0.1126,-0.0179,-0.1882,0.0689,23.3063,-72.7688,-83.0813,
2.216213,0.0500,0.0056,0.1126,-0.0184,-0.1627,0.0756,23.3063,-72.7688,-83.0813,
2.232241,0.0500,0.0056,0.1126,-0.0184,-0.1627,0.0756,23.3063,-72.7688,-83.0813,
2.235748,0.0500,0.0056,0.1126,-0.0184,-0.1627,0.0756,23.3063,-72.7688,-83.0813,
2.237970,-0.0098,0.0415,0.1057,-0.0184,-0.1627,0.0756,23.3063,-72.7688,-83.0813,
2.267622,-0.0098,0.0415,0.1057,-0.0184,-0.1627,0.0756,22.8188,-72.8063,-83.1000,
2.270636,-0.0098,0.0415,0.1057,-0.0503,-0.3326,0.0989,22.8188,-72.8063,-83.1000,
2.272847,-0.0098,0.0415,0.1057,-0.0503,-0.3326,0.0989,22.8188,-72.8063,-83.1000,
2.288193,-0.0765,0.1405,0.1970,-0.0503,-0.3326,0.0989,22.8188,-72.8063,-83.1000,
2.291524,-0.0765,0.1405,0.1970,-0.0503,-0.3326,0.0989,22.8188,-72.8063,-83.1000,
2.292928,-0.0765,0.1405,0.1970,-0.0503,-0.3326,0.0989,22.8188,-72.8063,-83.1000,
2.320082,-0.0765,0.1405,0.1970,-0.0503,-0.3326,0.0989,22.8188,-72.8063,-83.1000,
2.337069,-0.0765,0.1405,0.1970,-0.0503,-0.3326,0.0989,22.4625,-72.7313,-83.3250,
2.354947,-0.0765,0.1405,0.1970,-0.0383,-0.2611,0.0845,22.4625,-72.7313,-83.3250,
2.358911,0.1607,0.0942,0.0957,-0.0383,-0.2611,0.0845,22.4625,-72.7313,-83.3250,
2.362116,0.1607,0.0942,0.0957,-0.0383,-0.2611,0.0845,22.4625,-72.7313,-83.3250,
2.365012,0.1607,0.0942,0.0957,-0.0383,-0.2611,0.0845,22.4625,-72.7313,-83.3250,
2.387764,0.1607,0.0942,0.0957,-0.0383,-0.2611,0.0845,22.4625,-72.7313,-83.3250,
2.390742,0.1607,0.0942,0.0957,-0.0383,-0.2611,0.0845,21.8625,-72.7313,-83.3250,
2.420365,0.1607,0.0942,0.0957,0.0185,-0.2159,0.0793,21.8625,-72.7313,-83.3250,
2.424380,0.2160,-0.0007,0.1857,0.0185,-0.2159,0.0793,21.8625,-72.7313,-83.3250,
2.427348,0.2160,-0.0007,0.1857,0.0185,-0.2159,0.0793,21.8625,-72.7313,-83.3250,
2.429559,0.2160,-0.0007,0.1857,0.0185,-0.2159,0.0793,21.8625,-72.7313,-83.3250,
2.433778,0.2160,-0.0007,0.1857,0.0185,-0.2159,0.0793,21.8625,-72.7313,-83.3250,
2.469571,0.2160,-0.0007,0.1857,0.0185,-0.2159,0.0793,21.8625,-72.7313,-83.3250,
2.472183,0.2160,-0.0007,0.1857,0.0185,-0.2159,0.0793,21.8625,-72.7313,-83.3250,
2.474317,0.2160,-0.0007,0.1857,0.0185,-0.2159,0.0793,21.2625,-72.6938,-83.4000,
2.476925,0.1119,0.0059,0.1972,0.0185,-0.2159,0.0793,21.2625,-72.6938,-83.4000,
2.479036,0.1119,0.0059,0.1972,0.0699,-0.2573,0.0955,21.2625,-72.6938,-83.4000,
2.519363,0.1119,0.0059,0.1972,0.0699,-0.2573,0.0955,21.2625,-72.6938,-83.4000,
2.522252,0.1119,0.0059,0.1972,0.0699,-0.2573,0.0955,21.2625,-72.6938,-83.4000,
2.537288,0.1119,0.0059,0.1972,0.0699,-0.2573,0.0955,20.5688,-72.6750,-83.5125,
2.540693,0.1119,0.0059,0.1972,0.0699,-0.2573,0.0955,20.5688,-72.6750,-83.5125,
2.542509,0.1740,0.0841,-0.0828,0.0699,-0.2573,0.0955,20.5688,-72.6750,-83.5125,
2.552013,0.1740,0.0841,-0.0828,0.0813,-0.1571,0.0776,20.5688,-72.6750,-83.5125,
2.587396,0.1740,0.0841,-0.0828,0.0813,-0.1571,0.0776,20.5688,-72.6750,-83.5125,
2.590552,0.1740,0.0841,-0.0828,0.0813,-0.1571,0.0776,20.5688,-72.6750,-83.5125,
2.592917,0.1740,0.0841,-0.0828,0.0813,-0.1571,0.0776,20.0063,-72.7500,-83.5875,
2.596140,0.1740,0.0841,-0.0828,0.0813,-0.1571,0.0776,20.0063,-72.7500,-83.5875,
2.597828,0.0865,0.0807,-0.2669,0.0813,-0.1571,0.0776,20.0063,-72.7500,-83.5875,
2.607598,0.0865,0.0807,-0.2669,0.0591,-0.1539,0.1485,20.0063,-72.7500,-83.5875,
2.638460,0.0865,0.0807,-0.2669,0.0591,-0.1539,0.1485,20.0063,-72.7500,-83.5875,
2.641240,0.0865,0.0807,-0.2669,0.0591,-0.1539,0.1485,20.0063,-72.7500,-83.5875,
2.653348,-0.1818,0.1045,-0.2127,0.0591,-0.1539,0.1485,20.0063,-72.7500,-83.5875,
2.657576,-0.1818,0.1045,-0.2127,0.0591,-0.1539,0.1485,20.0063,-72.7500,-83.5875,
2.671589,-0.1818,0.1045,-0.2127,0.0591,-0.1539,0.1485,19.5000,-72.9000,-83.7563,
2.676488,-0.1818,0.1045,-0.2127,0.0141,-0.2110,0.1771,19.5000,-72.9000,-83.7563,
2.717371,-0.1818,0.1045,-0.2127,0.0141,-0.2110,0.1771,19.5000,-72.9000,-83.7563,
2.719725,-0.1818,0.1045,-0.2127,0.0141,-0.2110,0.1771,19.5000,-72.9000,-83.7563,
2.721171,-0.1818,0.1045,-0.2127,0.0141,-0.2110,0.1771,19.5000,-72.9000,-83.7563,
2.722826,-0.1093,-0.2716,-0.0866,0.0141,-0.2110,0.1771,19.5000,-72.9000,-83.7563,
2.725721,-0.1093,-0.2716,-0.0866,0.0141,-0.2110,0.1771,18.9000,-73.1063,-83.9062,
2.752415,-0.1093,-0.2716,-0.0866,0.0141,-0.2110,0.1771,18.9000,-73.1063,-83.9062,
2.756099,-0.1093,-0.2716,-0.0866,-0.0312,-0.2876,0.1452,18.9000,-73.1063,-83.9062,
2.770038,-0.1093,-0.2716,-0.0866,-0.0312,-0.2876,0.1452,18.9000,-73.1063,-83.9062,
2.773379,-0.1093,-0.2716,-0.0866,-0.0312,-0.2876,0.1452,18.9000,-73.1063,-83.9062,
2.776419,-0.3386,-0.1844,0.0162,-0.0312,-0.2876,0.1452,18.9000,-73.1063,-83.9062,
2.789944,-0.3386,-0.1844,0.0162,-0.0312,-0.2876,0.1452,18.1875,-73.1063,-84.0188,
2.819884,-0.3386,-0.1844,0.0162,-0.1044,-0.3782,0.0673,18.1875,-73.1063,-84.0188,
2.822830,-0.3386,-0.1844,0.0162,-0.1044,-0.3782,0.0673,18.1875,-73.1063,-84.0188,
2.836198,-0.3386,-0.1844,0.0162,-0.1044,-0.3782,0.0673,18.1875,-73.1063,-84.0188,
2.838416,-0.3386,-0.1844,0.0162,-0.1044,-0.3782,0.0673,18.1875,-73.1063,-84.0188,
2.839991,-0.7209,-0.4774,0.1748,-0.1044,-0.3782,0.0673,18.1875,-73.1063,-84.0188,
2.868258,-0.7209,-0.4774,0.1748,-0.1044,-0.3782,0.0673,17.2875,-73.1250,-84.0938,
2.872029,-0.7209,-0.4774,0.1748,-0.1044,-0.3782,0.0673,17.2875,-73.1250,-84.0938,
2.874584,-0.7209,-0.4774,0.1748,-0.1288,-0.4361,-0.0189,17.2875,-73.1250,-84.0938,
2.890236,-0.7209,-0.4774,0.1748,-0.1288,-0.4361,-0.0189,17.2875,-73.1250,-84.0938,
2.893458,-0.7209,-0.4774,0.1748,-0.1288,-0.4361,-0.0189,17.2875,-73.1250,-84.0938,
2.895979,-0.8608,-0.2485,0.3538,-0.1288,-0.4361,-0.0189,17.2875,-73.1250,-84.0938,
2.919105,-0.8608,-0.2485,0.3538,-0.1288,-0.4361,-0.0189,17.2875,-73.1250,-84.0938,
2.934782,-0.8608,-0.2485,0.3538,-0.1288,-0.4361,-0.0189,16.4813,-73.0125,-84.0000,
2.950883,-0.8608,-0.2485,0.3538,-0.1288,-0.4361,-0.0189,16.4813,-73.0125,-84.0000,
2.953026,-0.8608,-0.2485,0.3538,-0.1288,-0.4361,-0.0189,16.4813,-73.0125,-84.0000,
2.954922,-0.8608,-0.2485,0.3538,-0.0508,-0.3247,-0.1258,16.4813,-73.0125,-84.0000,
2.957232,-0.8405,-0.2451,0.5210,-0.0508,-0.3247,-0.1258,16.4813,-73.0125,-84.0000,
2.989560,-0.8405,-0.2451,0.5210,-0.0508,-0.3247,-0.1258,16.4813,-73.0125,-84.0000,
2.994222,-0.8405,-0.2451,0.5210,-0.0508,-0.3247,-0.1258,15.6000,-73.1063,-83.9438,
3.020865,-0.8405,-0.2451,0.5210,0.0192,-0.1384,-0.2002,15.6000,-73.1063,-83.9438,
3.024331,-0.9632,-1.0322,0.5697,0.0192,-0.1384,-0.2002,15.6000,-73.1063,-83.9438,
3.026870,-0.9632,-1.0322,0.5697,0.0192,-0.1384,-0.2002,15.6000,-73.1063,-83.9438,
3.028652,-0.9632,-1.0322,0.5697,0.0192,-0.1384,-0.2002,15.6000,-73.1063,-83.9438,
3.052763,-0.9632,-1.0322,0.5697,0.0192,-0.1384,-0.2002,15.6000,-73.1063,-83.9438,
3.069712,-0.9632,-1.0322,0.5697,0.0192,-0.1384,-0.2002,15.6000,-73.1063,-83.9438,
3.072922,-0.9632,-1.0322,0.5697,0.0192,-0.1384,-0.2002,14.7938,-73.1625,-83.8500,
3.077064,-0.9632,-1.0322,0.5697,0.0578,-0.1313,-0.1936,14.7938,-73.1625,-83.8500,
3.080431,-0.8648,-0.3694,0.2479,0.0578,-0.1313,-0.1936,14.7938,-73.1625,-83.8500,
3.084657,-0.8648,-0.3694,0.2479,0.0578,-0.1313,-0.1936,14.7938,-73.1625,-83.8500,
3.120725,-0.8648,-0.3694,0.2479,0.0578,-0.1313,-0.1936,14.7938,-73.1625,-83.8500,
3.123446,-0.8648,-0.3694,0.2479,0.0578,-0.1313,-0.1936,14.7938,-73.1625,-83.8500,
3.135228,-0.8648,-0.3694,0.2479,0.0578,-0.1313,-0.1936,13.9688,-73.2375,-83.8313,
3.138039,-0.8648,-0.3694,0.2479,0.0578,-0.1313,-0.1936,13.9688,-73.2375,-83.8313,
3.139926,-0.5634,0.3223,-0.1611,0.0578,-0.1313,-0.1936,13.9688,-73.2375,-83.8313,
3.151228,-0.5634,0.3223,-0.1611,-0.0171,-0.2059,-0.2076,13.9688,-73.2375,-83.8313,
3.185847,-0.5634,0.3223,-0.1611,-0.0171,-0.2059,-0.2076,13.9688,-73.2375,-83.8313,
3.188272,-0.5634,0.3223,-0.1611,-0.0171,-0.2059,-0.2076,13.9688,-73.2375,-83.8313,
3.190313,-0.5634,0.3223,-0.1611,-0.0171,-0.2059,-0.2076,13.0313,-73.1813,-83.7938,
3.193006,-0.5634,0.3223,-0.1611,-0.0171,-0.2059,-0.2076,13.0313,-73.1813,-83.7938,
3.195081,-0.4295,0.0428,-0.1180,-0.0171,-0.2059,-0.2076,13.0313,-73.1813,-83.7938,
3.219346,-0.4295,0.0428,-0.1180,-0.0770,-0.1570,-0.2330,13.0313,-73.1813,-83.7938,
3.254814,-0.4295,0.0428,-0.1180,-0.0770,-0.1570,-0.2330,13.0313,-73.1813,-83.7938,
3.258661,-0.4295,0.0428,-0.1180,-0.0770,-0.1570,-0.2330,13.0313,-73.1813,-83.7938,
3.260801,-0.1463,-0.0055,0.1498,-0.0770,-0.1570,-0.2330,13.0313,-73.1813,-83.7938,
3.263656,-0.1463,-0.0055,0.1498,-0.0770,-0.1570,-0.2330,13.0313,-73.1813,-83.7938,
3.266899,-0.1463,-0.0055,0.1498,-0.0770,-0.1570,-0.2330,12.1875,-73.0500,-83.6813,
3.269664,-0.1463,-0.0055,0.1498,-0.0051,-0.3130,-0.2329,12.1875,-73.0500,-83.6813,
3.320747,-0.1463,-0.0055,0.1498,-0.0051,-0.3130,-0.2329,12.1875,-73.0500,-83.6813,
3.324493,-0.1463,-0.0055,0.1498,-0.0051,-0.3130,-0.2329,12.1875,-73.0500,-83.6813,
3.326670,-0.1463,-0.0055,0.1498,-0.0051,-0.3130,-0.2329,12.1875,-73.0500,-83.6813,
3.328493,-0.4791,0.0477,0.5199,-0.0051,-0.3130,-0.2329,12.1875,-73.0500,-83.6813,
3.331392,-0.4791,0.0477,0.5199,-0.0051,-0.3130,-0.2329,11.3813,-73.0688,-83.5875,
3.353506,-0.4791,0.0477,0.5199,-0.0051,-0.3130,-0.2329,11.3813,-73.0688,-83.5875,
3.356120,-0.4791,0.0477,0.5199,0.1674,-0.3321,-0.1021,11.3813,-73.0688,-83.5875,
3.370008,-0.4791,0.0477,0.5199,0.1674,-0.3321,-0.1021,11.3813,-73.0688,-83.5875,
3.371943,-0.4791,0.0477,0.5199,0.1674,-0.3321,-0.1021,11.3813,-73.0688,-83.5875,
3.372978,-0.3951,-0.1735,0.2857,0.1674,-0.3321,-0.1021,11.3813,-73.0688,-83.5875,
3.386814,-0.3951,-0.1735,0.2857,0.1674,-0.3321,-0.1021,10.8188,-73.1625,-83.2875,
3.409180,-0.3951,-0.1735,0.2857,0.1674,-0.3321,-0.1021,10.8188,-73.1625,-83.2875,
3.410665,-0.3951,-0.1735,0.2857,0.2083,-0.1948,0.0069,10.8188,-73.1625,-83.2875,
3.432509,-0.3951,-0.1735,0.2857,0.2083,-0.1948,0.0069,10.8188,-73.1625,-83.2875,
3.436482,-0.3951,-0.1735,0.2857,0.2083,-0.1948,0.0069,10.8188,-73.1625,-83.2875,
3.439004,-0.1315,0.5053,0.0409,0.2083,-0.1948,0.0069,10.8188,-73.1625,-83.2875,
3.470099,-0.1315,0.5053,0.0409,0.2083,-0.1948,0.0069,10.8188,-73.1625,-83.2875,
3.473457,-0.1315,0.5053,0.0409,0.2083,-0.1948,0.0069,10.1063,-73.3875,-83.2125,
3.477141,-0.1315,0.5053,0.0409,-0.0377,-0.1444,-0.1097,10.1063,-73.3875,-83.2125,
3.491637,-0.1315,0.5053,0.0409,-0.0377,-0.1444,-0.1097,10.1063,-73.3875,-83.2125,
3.495451,-0.1174,1.1881,-0.8095,-0.0377,-0.1444,-0.1097,10.1063,-73.3875,-83.2125,
3.499000,-0.1174,1.1881,-0.8095,-0.0377,-0.1444,-0.1097,10.1063,-73.3875,-83.2125,
3.514237,-0.1174,1.1881,-0.8095,-0.0377,-0.1444,-0.1097,10.1063,-73.3875,-83.2125,
3.529147,-0.1174,1.1881,-0.8095,-0.0377,-0.1444,-0.1097,9.7688,-73.5000,-83.1562,
3.551360,-0.1174,1.1881,-0.8095,-0.0377,-0.1444,-0.1097,9.7688,-73.5000,-83.1562,
3.555180,-0.1174,1.1881,-0.8095,-0.0377,-0.1444,-0.1097,9.7688,-73.5000,-83.1562,
3.557069,-0.1174,1.1881,-0.8095,-0.1526,0.1751,-0.0289,9.7688,-73.5000,-83.1562,
3.559428,0.7924,0.2532,-0.7646,-0.1526,0.1751,-0.0289,9.7688,-73.5000,-83.1562,
3.576778,0.7924,0.2532,-0.7646,-0.1526,0.1751,-0.0289,9.7688,-73.5000,-83.1562,
3.588074,0.7924,0.2532,-0.7646,-0.1526,0.1751,-0.0289,9.3750,-73.5750,-83.1375,
3.610474,0.7924,0.2532,-0.7646,-0.2556,-0.0806,-0.1232,9.3750,-73.5750,-83.1375,
3.614963,0.2456,0.1250,-0.2372,-0.2556,-0.0806,-0.1232,9.3750,-73.5750,-83.1375,
3.617043,0.2456,0.1250,-0.2372,-0.2556,-0.0806,-0.1232,9.3750,-73.5750,-83.1375,
3.618536,0.2456,0.1250,-0.2372,-0.2556,-0.0806,-0.1232,9.3750,-73.5750,-83.1375,
3.644231,0.2456,0.1250,-0.2372,-0.2556,-0.0806,-0.1232,9.3750,-73.5750,-83.1375,
3.666623,0.2456,0.1250,-0.2372,-0.2556,-0.0806,-0.1232,8.9438,-73.5000,-83.1000,
3.671551,0.2456,0.1250,-0.2372,-0.2556,-0.0806,-0.1232,8.9438,-73.5000,-83.1000,
3.674693,0.2456,0.1250,-0.2372,-0.2637,-0.0638,-0.0131,8.9438,-73.5000,-83.1000,
3.678799,0.2456,0.1250,-0.2372,-0.2637,-0.0638,-0.0131,8.9438,-73.5000,-83.1000,
3.681551,0.3310,-0.1749,-0.4154,-0.2637,-0.0638,-0.0131,8.9438,-73.5000,-83.1000,
3.711268,0.3310,-0.1749,-0.4154,-0.2637,-0.0638,-0.0131,8.9438,-73.5000,-83.1000,
3.717271,0.3310,-0.1749,-0.4154,-0.2637,-0.0638,-0.0131,8.9438,-73.5000,-83.1000,
3.737084,0.3310,-0.1749,-0.4154,-0.2637,-0.0638,-0.0131,8.6438,-73.2938,-82.9500,
3.740446,0.3310,-0.1749,-0.4154,-0.2637,-0.0638,-0.0131,8.6438,-73.2938,-82.9500,
3.742153,-0.1804,-0.2277,-0.0675,-0.2637,-0.0638,-0.0131,8.6438,-73.2938,-82.9500,
3.751831,-0.1804,-0.2277,-0.0675,-0.2290,-0.2729,-0.1823,8.6438,-73.2938,-82.9500,
3.757890,-0.1804,-0.2277,-0.0675,-0.2290,-0.2729,-0.1823,8.6438,-73.2938,-82.9500,
3.776772,-0.1804,-0.2277,-0.0675,-0.2290,-0.2729,-0.1823,8.6438,-73.2938,-82.9500,
3.786985,-0.1804,-0.2277,-0.0675,-0.2290,-0.2729,-0.1823,8.3063,-73.2188,-82.9688,
3.790878,-0.2451,-0.1712,-0.2423,-0.2290,-0.2729,-0.1823,8.3063,-73.2188,-82.9688,
3.793532,-0.2451,-0.1712,-0.2423,-0.2290,-0.2729,-0.1823,8.3063,-73.2188,-82.9688,
3.810589,-0.2451,-0.1712,-0.2423,-0.1985,-0.1261,-0.2200,8.3063,-73.2188,-82.9688,
3.845003,-0.2451,-0.1712,-0.2423,-0.1985,-0.1261,-0.2200,8.3063,-73.2188,-82.9688,
3.846940,-0.2451,-0.1712,-0.2423,-0.1985,-0.1261,-0.2200,8.3063,-73.2188,-82.9688,
3.852085,-0.4455,0.2076,-0.1542,-0.1985,-0.1261,-0.2200,8.3063,-73.2188,-82.9688,
3.854226,-0.4455,0.2076,-0.1542,-0.1985,-0.1261,-0.2200,8.3063,-73.2188,-82.9688,
3.866729,-0.4455,0.2076,-0.1542,-0.1985,-0.1261,-0.2200,8.0438,-72.9750,-82.8750,
3.870802,-0.4455,0.2076,-0.1542,-0.1938,-0.1542,-0.2534,8.0438,-72.9750,-82.8750,
3.910900,-0.4455,0.2076,-0.1542,-0.1938,-0.1542,-0.2534,8.0438,-72.9750,-82.8750,
3.912683,-0.4455,0.2076,-0.1542,-0.1938,-0.1542,-0.2534,8.0438,-72.9750,-82.8750,
3.913754,-0.4455,0.2076,-0.1542,-0.1938,-0.1542,-0.2534,8.0438,-72.9750,-82.8750,
3.915060,-0.7555,0.0528,0.0898,-0.1938,-0.1542,-0.2534,8.0438,-72.9750,-82.8750,
3.929116,-0.7555,0.0528,0.0898,-0.1938,-0.1542,-0.2534,7.7438,-72.6188,-82.8563,
3.951180,-0.7555,0.0528,0.0898,-0.1938,-0.1542,-0.2534,7.7438,-72.6188,-82.8563,
3.955597,-0.7555,0.0528,0.0898,-0.2424,-0.0254,-0.2846,7.7438,-72.6188,-82.8563,
3.970895,-0.7555,0.0528,0.0898,-0.2424,-0.0254,-0.2846,7.7438,-72.6188,-82.8563,
3.974793,-0.7555,0.0528,0.0898,-0.2424,-0.0254,-0.2846,7.7438,-72.6188,-82.8563,
3.977499,-0.6219,-0.0164,0.1079,-0.2424,-0.0254,-0.2846,7.7438,-72.6188,-82.8563,
3.986578,-0.6219,-0.0164,0.1079,-0.2424,-0.0254,-0.2846,7.7625,-72.1500,-82.9125,
4.011068,-0.6219,-0.0164,0.1079,-0.2424,-0.0254,-0.2846,7.7625,-72.1500,-82.9125,
4.014764,-0.6219,-0.0164,0.1079,-0.2368,-0.2863,-0.2865,7.7625,-72.1500,-82.9125,
4.030756,-1.0107,0.0466,0.6909,-0.2368,-0.2863,-0.2865,7.7625,-72.1500,-82.9125,
4.035674,-1.0107,0.0466,0.6909,-0.2368,-0.2863,-0.2865,7.7625,-72.1500,-82.9125,
4.038316,-1.0107,0.0466,0.6909,-0.2368,-0.2863,-0.2865,7.7625,-72.1500,-82.9125,
4.066058,-1.0107,0.0466,0.6909,-0.2368,-0.2863,-0.2865,7.4063,-71.5688,-82.8750,
4.069682,-1.0107,0.0466,0.6909,-0.2368,-0.2863,-0.2865,7.4063,-71.5688,-82.8750,
4.071768,-1.0107,0.0466,0.6909,-0.3095,-0.0017,-0.3964,7.4063,-71.5688,-82.8750,
4.090715,-0.1375,0.6342,-0.0537,-0.3095,-0.0017,-0.3964,7.4063,-71.5688,-82.8750,
4.095644,-0.1375,0.6342,-0.0537,-0.3095,-0.0017,-0.3964,7.4063,-71.5688,-82.8750,
4.098418,-0.1375,0.6342,-0.0537,-0.3095,-0.0017,-0.3964,7.4063,-71.5688,-82.8750,
4.112652,-0.1375,0.6342,-0.0537,-0.3095,-0.0017,-0.3964,7.4063,-71.5688,-82.8750,
4.129703,-0.1375,0.6342,-0.0537,-0.3095,-0.0017,-0.3964,7.0125,-71.0625,-82.7625,
4.152907,-0.1375,0.6342,-0.0537,-0.3095,-0.0017,-0.3964,7.0125,-71.0625,-82.7625,
4.157423,-0.1375,0.6342,-0.0537,-0.3095,-0.0017,-0.3964,7.0125,-71.0625,-82.7625,
4.160299,-0.1375,0.6342,-0.0537,-0.1438,-0.0538,-0.2379,7.0125,-71.0625,-82.7625,
4.164110,-0.6885,1.2875,0.0750,-0.1438,-0.0538,-0.2379,7.0125,-71.0625,-82.7625,
4.177157,-0.6885,1.2875,0.0750,-0.1438,-0.0538,-0.2379,7.0125,-71.0625,-82.7625,
4.186477,-0.6885,1.2875,0.0750,-0.1438,-0.0538,-0.2379,6.7875,-70.5188,-82.8188,
4.210689,-0.6885,1.2875,0.0750,-0.1438,-0.0538,-0.2379,6.7875,-70.5188,-82.8188,
4.215055,-0.6885,1.2875,0.0750,-0.1438,-0.0538,-0.2379,6.7875,-70.5188,-82.8188,
4.217840,-0.6885,1.2875,0.0750,-0.1288,-0.0494,-0.4989,6.7875,-70.5188,-82.8188,
4.221673,-0.9246,0.9314,0.1064,-0.1288,-0.0494,-0.4989,6.7875,-70.5188,-82.8188,
4.243412,-0.9246,0.9314,0.1064,-0.1288,-0.0494,-0.4989,6.7875,-70.5188,-82.8188,
4.268670,-0.9246,0.9314,0.1064,-0.1288,-0.0494,-0.4989,6.7875,-70.5188,-82.8188,
4.272728,-0.9246,0.9314,0.1064,-0.1288,-0.0494,-0.4989,6.4875,-70.1813,-82.9313,
4.276197,-0.9246,0.9314,0.1064,-0.1653,-0.4368,0.0170,6.4875,-70.1813,-82.9313,
4.279738,-1.9679,1.3234,0.2647,-0.1653,-0.4368,0.0170,6.4875,-70.1813,-82.9313,
4.283069,-1.9679,1.3234,0.2647,-0.1653,-0.4368,0.0170,6.4875,-70.1813,-82.9313,
4.313636,-1.9679,1.3234,0.2647,-0.1653,-0.4368,0.0170,6.4875,-70.1813,-82.9313,
4.318013,-1.9679,1.3234,0.2647,-0.1653,-0.4368,0.0170,6.4875,-70.1813,-82.9313,
4.328752,-1.9679,1.3234,0.2647,-0.1653,-0.4368,0.0170,6.2250,-69.5813,-82.8000,
4.337197,-1.9679,1.3234,0.2647,-0.1653,-0.4368,0.0170,6.2250,-69.5813,-82.8000,
4.340428,-1.8887,1.0622,0.0639,-0.1653,-0.4368,0.0170,6.2250,-69.5813,-82.8000,
4.349755,-1.8887,1.0622,0.0639,-0.3713,-0.3559,-0.4348,6.2250,-69.5813,-82.8000,
4.376688,-1.8887,1.0622,0.0639,-0.3713,-0.3559,-0.4348,6.2250,-69.5813,-82.8000,
4.380999,-1.8887,1.0622,0.0639,-0.3713,-0.3559,-0.4348,6.2250,-69.5813,-82.8000,
4.387093,-1.8887,1.0622,0.0639,-0.3713,-0.3559,-0.4348,5.9813,-69.2625,-82.7063,
4.390846,-1.8887,1.0622,0.0639,-0.3713,-0.3559,-0.4348,5.9813,-69.2625,-82.7063,
4.393546,-1.1589,1.8831,-1.6571,-0.3713,-0.3559,-0.4348,5.9813,-69.2625,-82.7063,
4.409644,-1.1589,1.8831,-1.6571,-0.2065,0.1478,-0.5611,5.9813,-69.2625,-82.7063,
4.433400,-1.1589,1.8831,-1.6571,-0.2065,0.1478,-0.5611,5.9813,-69.2625,-82.7063,
4.437096,-1.1589,1.8831,-1.6571,-0.2065,0.1478,-0.5611,5.9813,-69.2625,-82.7063,
4.452147,-1.1589,1.8831,-1.6571,-0.2065,0.1478,-0.5611,5.9813,-69.2625,-82.7063,
4.456478,-3.3062,0.7388,0.0237,-0.2065,0.1478,-0.5611,5.9813,-69.2625,-82.7063,
4.466186,-3.3062,0.7388,0.0237,-0.2065,0.1478,-0.5611,5.7563,-68.7938,-82.6875,
4.471514,-3.3062,0.7388,0.0237,-0.6100,0.2089,-1.6451,5.7563,-68.7938,-82.6875,
4.512893,-3.3062,0.7388,0.0237,-0.6100,0.2089,-1.6451,5.7563,-68.7938,-82.6875,
4.517180,-3.3062,0.7388,0.0237,-0.6100,0.2089,-1.6451,5.7563,-68.7938,-82.6875,
4.519609,-3.3062,0.7388,0.0237,-0.6100,0.2089,-1.6451,5.7563,-68.7938,-82.6875,
4.522053,-2.6909,-3.2004,-1.4127,-0.6100,0.2089,-1.6451,5.7563,-68.7938,-82.6875,
4.526194,-2.6909,-3.2004,-1.4127,-0.6100,0.2089,-1.6451,5.7563,-68.1562,-82.6875,
4.551371,-2.6909,-3.2004,-1.4127,-0.6100,0.2089,-1.6451,5.7563,-68.1562,-82.6875,
4.555317,-2.6909,-3.2004,-1.4127,-0.4347,0.2842,-1.6417,5.7563,-68.1562,-82.6875,
4.570818,-2.6909,-3.2004,-1.4127,-0.4347,0.2842,-1.6417,5.7563,-68.1562,-82.6875,
4.574977,-2.6909,-3.2004,-1.4127,-0.4347,0.2842,-1.6417,5.7563,-68.1562,-82.6875,
4.577901,-9.1987,-6.1483,0.4377,-0.4347,0.2842,-1.6417,5.7563,-68.1562,-82.6875,
4.586818,-9.1987,-6.1483,0.4377,-0.4347,0.2842,-1.6417,5.9813,-67.6125,-82.5188,
4.611103,-9.1987,-6.1483,0.4377,0.1789,1.3559,-3.0629,5.9813,-67.6125,-82.5188,
4.616180,-9.1987,-6.1483,0.4377,0.1789,1.3559,-3.0629,5.9813,-67.6125,-82.5188,
4.632814,0.8908,-11.4168,-1.7666,0.1789,1.3559,-3.0629,5.9813,-67.6125,-82.5188,
4.639504,0.8908,-11.4168,-1.7666,0.1789,1.3559,-3.0629,5.9813,-67.6125,-82.5188,
4.642808,0.8908,-11.4168,-1.7666,0.1789,1.3559,-3.0629,5.9813,-67.6125,-82.5188,
4.666566,0.8908,-11.4168,-1.7666,0.1789,1.3559,-3.0629,5.9813,-67.6125,-82.5188,
4.669771,0.8908,-11.4168,-1.7666,0.1789,1.3559,-3.0629,7.1438,-67.3875,-82.6125,
4.672363,0.8908,-11.4168,-1.7666,0.9129,2.0762,-3.6892,7.1438,-67.3875,-82.6125,
4.690175,0.8908,-11.4168,-1.7666,0.9129,2.0762,-3.6892,7.1438,-67.3875,-82.6125,
4.693522,0.8908,-11.4168,-1.7666,0.9129,2.0762,-3.6892,7.1438,-67.3875,-82.6125,
4.697022,5.0027,-12.6282,-4.9295,0.9129,2.0762,-3.6892,7.1438,-67.3875,-82.6125,
4.727964,5.0027,-12.6282,-4.9295,0.9129,2.0762,-3.6892,7.1438,-67.3875,-82.6125,
4.731457,5.0027,-12.6282,-4.9295,0.9129,2.0762,-3.6892,8.8313,-67.2938,-82.4250,
4.750129,5.0027,-12.6282,-4.9295,0.9129,2.0762,-3.6892,8.8313,-67.2938,-82.4250,
4.753395,5.0027,-12.6282,-4.9295,0.9129,2.0762,-3.6892,8.8313,-67.2938,-82.4250,
4.755497,5.0027,-12.6282,-4.9295,-0.7584,0.7844,-3.2499,8.8313,-67.2938,-82.4250,
4.757409,2.4334,-15.6461,0.8466,-0.7584,0.7844,-3.2499,8.8313,-67.2938,-82.4250,
4.775593,2.4334,-15.6461,0.8466,-0.7584,0.7844,-3.2499,8.8313,-67.2938,-82.4250,
4.784666,2.4334,-15.6461,0.8466,-0.7584,0.7844,-3.2499,10.8563,-66.6000,-82.1250,
4.811312,2.4334,-15.6461,0.8466,-1.9449,-1.9263,-2.5090,10.8563,-66.6000,-82.1250,
4.812615,6.8584,13.3594,-1.0917,-1.9449,-1.9263,-2.5090,10.8563,-66.6000,-82.1250,
4.813340,6.8584,13.3594,-1.0917,-1.9449,-1.9263,-2.5090,10.8563,-66.6000,-82.1250,
4.813733,6.8584,13.3594,-1.0917,-1.9449,-1.9263,-2.5090,10.8563,-66.6000,-82.1250,
4.843128,6.8584,13.3594,-1.0917,-1.9449,-1.9263,-2.5090,10.8563,-66.6000,-82.1250,
4.865280,6.8584,13.3594,-1.0917,-1.9449,-1.9263,-2.5090,10.8563,-66.6000,-82.1250,
4.865948,6.8584,13.3594,-1.0917,-1.9449,-1.9263,-2.5090,12.3563,-65.6250,-81.9375,
4.869547,6.8584,13.3594,-1.0917,0.5937,1.1376,-2.2297,12.3563,-65.6250,-81.9375,
4.870597,3.5533,-4.8112,9.3902,0.5937,1.1376,-2.2297,12.3563,-65.6250,-81.9375,
4.871494,3.5533,-4.8112,9.3902,0.5937,1.1376,-2.2297,12.3563,-65.6250,-81.9375,
4.908600,3.5533,-4.8112,9.3902,0.5937,1.1376,-2.2297,12.3563,-65.6250,-81.9375,
4.924988,3.5533,-4.8112,9.3902,0.5937,1.1376,-2.2297,13.8188,-65.1750,-81.8438,
4.926075,3.5533,-4.8112,9.3902,0.5937,1.1376,-2.2297,13.8188,-65.1750,-81.8438,
4.929600,-16.0643,5.7743,6.2375,0.5937,1.1376,-2.2297,13.8188,-65.1750,-81.8438,
4.930813,-16.0643,5.7743,6.2375,0.5937,1.1376,-2.2297,13.8188,-65.1750,-81.8438,
4.952898,-16.0643,5.7743,6.2375,0.9383,-2.2717,0.5279,13.8188,-65.1750,-81.8438,
4.974482,-16.0643,5.7743,6.2375,0.9383,-2.2717,0.5279,13.8188,-65.1750,-81.8438,
4.977388,-16.0643,5.7743,6.2375,0.9383,-2.2717,0.5279,13.8188,-65.1750,-81.8438,
4.984880,-16.0643,5.7743,6.2375,0.9383,-2.2717,0.5279,14.3625,-65.1188,-81.7688,
4.993724,-16.0643,5.7743,6.2375,0.9383,-2.2717,0.5279,14.3625,-65.1188,-81.7688,
4.997007,-7.9736,12.5739,-4.4692,0.9383,-2.2717,0.5279,14.3625,-65.1188,-81.7688,
5.018606,-7.9736,12.5739,-4.4692,-0.1731,-0.5729,-0.3922,14.3625,-65.1188,-81.7688,
5.061608,-7.9736,12.5739,-4.4692,-0.1731,-0.5729,-0.3922,14.3625,-65.1188,-81.7688,
5.062545,-7.9736,12.5739,-4.4692,-0.1731,-0.5729,-0.3922,14.3625,-65.1188,-81.7688,
5.063287,-0.7084,8.0605,-7.7247,-0.1731,-0.5729,-0.3922,14.3625,-65.1188,-81.7688,
5.064350,-0.7084,8.0605,-7.7247,-0.1731,-0.5729,-0.3922,14.3625,-65.1188,-81.7688,
5.065340,-0.7084,8.0605,-7.7247,-0.1731,-0.5729,-0.3922,15.0938,-65.4000,-81.5063,
5.088534,-0.7084,8.0605,-7.7247,1.3547,1.2027,1.0665,15.0938,-65.4000,-81.5063,
5.111560,-0.7084,8.0605,-7.7247,1.3547,1.2027,1.0665,15.0938,-65.4000,-81.5063,
5.112381,-0.7084,8.0605,-7.7247,1.3547,1.2027,1.0665,15.0938,-65.4000,-81.5063,
5.113013,-0.7084,8.0605,-7.7247,1.3547,1.2027,1.0665,15.0938,-65.4000,-81.5063,
5.113604,-11.3625,6.9484,4.7281,1.3547,1.2027,1.0665,15.0938,-65.4000,-81.5063,
5.127376,-11.3625,6.9484,4.7281,1.3547,1.2027,1.0665,15.8813,-65.9438,-81.5063,
5.130491,-11.3625,6.9484,4.7281,-0.4078,-0.3974,1.1169,15.8813,-65.9438,-81.5063,
5.170462,-11.3625,6.9484,4.7281,-0.4078,-0.3974,1.1169,15.8813,-65.9438,-81.5063,
5.171737,-11.3625,6.9484,4.7281,-0.4078,-0.3974,1.1169,15.8813,-65.9438,-81.5063,
5.172615,-11.3625,6.9484,4.7281,-0.4078,-0.3974,1.1169,15.8813,-65.9438,-81.5063,
5.173443,-1.8372,3.6419,1.2570,-0.4078,-0.3974,1.1169,15.8813,-65.9438,-81.5063,
5.185233,-1.8372,3.6419,1.2570,-0.4078,-0.3974,1.1169,15.6375,-66.0750,-81.2625,
5.212681,-1.8372,3.6419,1.2570,-0.4078,-0.3974,1.1169,15.6375,-66.0750,-81.2625,
5.213435,-1.8372,3.6419,1.2570,-0.1722,0.4252,0.5632,15.6375,-66.0750,-81.2625,
5.230751,5.6884,2.6309,-0.8485,-0.1722,0.4252,0.5632,15.6375,-66.0750,-81.2625,
5.231744,5.6884,2.6309,-0.8485,-0.1722,0.4252,0.5632,15.6375,-66.0750,-81.2625,
5.232243,5.6884,2.6309,-0.8485,-0.1722,0.4252,0.5632,15.6375,-66.0750,-81.2625,
5.264622,5.6884,2.6309,-0.8485,-0.1722,0.4252,0.5632,15.2063,-66.0563,-81.1875,
5.265903,5.6884,2.6309,-0.8485,-0.1722,0.4252,0.5632,15.2063,-66.0563,-81.1875,
5.271358,5.6884,2.6309,-0.8485,0.2183,0.8138,0.4335,15.2063,-66.0563,-81.1875,
5.291619,5.6884,2.6309,-0.8485,0.2183,0.8138,0.4335,15.2063,-66.0563,-81.1875,
5.292685,5.6884,2.6309,-0.8485,0.2183,0.8138,0.4335,15.2063,-66.0563,-81.1875,
5.293301,6.2780,0.4479,1.5135,0.2183,0.8138,0.4335,15.2063,-66.0563,-81.1875,
5.324611,6.2780,0.4479,1.5135,0.2183,0.8138,0.4335,14.4375,-66.7688,-81.2063,
5.325956,6.2780,0.4479,1.5135,0.2183,0.8138,0.4335,14.4375,-66.7688,-81.2063,
5.330198,6.2780,0.4479,1.5135,0.1962,-1.0174,0.3490,14.4375,-66.7688,-81.2063,
5.350395,0.2157,1.1301,3.7332,0.1962,-1.0174,0.3490,14.4375,-66.7688,-81.2063,
5.351611,0.2157,1.1301,3.7332,0.1962,-1.0174,0.3490,14.4375,-66.7688,-81.2063,
5.352165,0.2157,1.1301,3.7332,0.1962,-1.0174,0.3490,14.4375,-66.7688,-81.2063,
5.375585,0.2157,1.1301,3.7332,0.1962,-1.0174,0.3490,14.4375,-66.7688,-81.2063,
5.385998,0.2157,1.1301,3.7332,0.1962,-1.0174,0.3490,14.0438,-67.8563,-81.3188,
5.411311,0.2157,1.1301,3.7332,0.1962,-1.0174,0.3490,14.0438,-67.8563,-81.3188,
5.414703,0.2157,1.1301,3.7332,0.1962,-1.0174,0.3490,14.0438,-67.8563,-81.3188,
5.416589,0.2157,1.1301,3.7332,-0.2346,-0.4080,0.3675,14.0438,-67.8563,-81.3188,
5.418341,0.2603,2.1110,0.6031,-0.2346,-0.4080,0.3675,14.0438,-67.8563,-81.3188,
5.442129,0.2603,2.1110,0.6031,-0.2346,-0.4080,0.3675,14.0438,-67.8563,-81.3188,
5.465261,0.2603,2.1110,0.6031,-0.2346,-0.4080,0.3675,14.0438,-67.8563,-81.3188,
5.467515,0.2603,2.1110,0.6031,-0.2346,-0.4080,0.3675,13.4625,-68.2313,-81.5250,
5.473257,0.2603,2.1110,0.6031,-0.3057,-0.4643,0.4145,13.4625,-68.2313,-81.5250,
5.476011,-0.2488,1.3565,0.8403,-0.3057,-0.4643,0.4145,13.4625,-68.2313,-81.5250,
5.477895,-0.2488,1.3565,0.8403,-0.3057,-0.4643,0.4145,13.4625,-68.2313,-81.5250,
5.507966,-0.2488,1.3565,0.8403,-0.3057,-0.4643,0.4145,13.4625,-68.2313,-81.5250,
5.526520,-0.2488,1.3565,0.8403,-0.3057,-0.4643,0.4145,13.4625,-68.2313,-81.5250,
5.527417,-0.2488,1.3565,0.8403,-0.3057,-0.4643,0.4145,13.7250,-68.3063,-81.4688,
5.530175,-0.2488,1.3565,0.8403,-0.4414,-0.4429,0.3076,13.7250,-68.3063,-81.4688,
5.531034,0.0245,0.3627,0.2418,-0.4414,-0.4429,0.3076,13.7250,-68.3063,-81.4688,
5.531751,0.0245,0.3627,0.2418,-0.4414,-0.4429,0.3076,13.7250,-68.3063,-81.4688,
5.574553,0.0245,0.3627,0.2418,-0.4414,-0.4429,0.3076,13.7250,-68.3063,-81.4688,
5.575492,0.0245,0.3627,0.2418,-0.4414,-0.4429,0.3076,13.7250,-68.3063,-81.4688,
5.584280,0.0245,0.3627,0.2418,-0.4414,-0.4429,0.3076,13.2938,-68.1750,-81.4313,
5.591476,0.0245,0.3627,0.2418,-0.4414,-0.4429,0.3076,13.2938,-68.1750,-81.4313,
5.592423,1.1273,-0.9982,0.6925,-0.4414,-0.4429,0.3076,13.2938,-68.1750,-81.4313,
5.611645,1.1273,-0.9982,0.6925,-0.4374,-0.5197,0.1073,13.2938,-68.1750,-81.4313,
5.614471,1.1273,-0.9982,0.6925,-0.4374,-0.5197,0.1073,13.2938,-68.1750,-81.4313,
5.642726,1.1273,-0.9982,0.6925,-0.4374,-0.5197,0.1073,13.2938,-68.1750,-81.4313,
5.650882,0.8343,-0.0202,-0.1094,-0.4374,-0.5197,0.1073,13.2938,-68.1750,-81.4313,
5.653062,0.8343,-0.0202,-0.1094,-0.4374,-0.5197,0.1073,13.2938,-68.1750,-81.4313,
5.665634,0.8343,-0.0202,-0.1094,-0.4374,-0.5197,0.1073,12.5063,-67.5938,-81.2625,
5.670557,0.8343,-0.0202,-0.1094,-0.5626,-0.7122,0.1762,12.5063,-67.5938,-81.2625,
5.709012,0.8343,-0.0202,-0.1094,-0.5626,-0.7122,0.1762,12.5063,-67.5938,-81.2625,
5.711254,0.8343,-0.0202,-0.1094,-0.5626,-0.7122,0.1762,12.5063,-67.5938,-81.2625,
5.712731,0.8512,0.7534,0.0002,-0.5626,-0.7122,0.1762,12.5063,-67.5938,-81.2625,
5.714882,0.8512,0.7534,0.0002,-0.5626,-0.7122,0.1762,12.5063,-67.5938,-81.2625,
5.726875,0.8512,0.7534,0.0002,-0.5626,-0.7122,0.1762,11.7375,-66.8250,-81.1313,
5.730650,0.8512,0.7534,0.0002,-0.3030,-0.5968,0.2507,11.7375,-66.8250,-81.1313,
5.772594,0.8601,1.2044,0.4642,-0.3030,-0.5968,0.2507,11.7375,-66.8250,-81.1313,
5.776570,0.8601,1.2044,0.4642,-0.3030,-0.5968,0.2507,11.7375,-66.8250,-81.1313,
5.778220,0.8601,1.2044,0.4642,-0.3030,-0.5968,0.2507,11.7375,-66.8250,-81.1313,
5.780540,0.8601,1.2044,0.4642,-0.3030,-0.5968,0.2507,11.7375,-66.8250,-81.1313,
5.785978,0.8601,1.2044,0.4642,-0.3030,-0.5968,0.2507,10.3688,-66.0750,-80.9625,
5.812107,0.8601,1.2044,0.4642,-0.3030,-0.5968,0.2507,10.3688,-66.0750,-80.9625,
5.815170,0.8601,1.2044,0.4642,-0.4755,-0.1932,0.1077,10.3688,-66.0750,-80.9625,
5.832255,0.8601,1.2044,0.4642,-0.4755,-0.1932,0.1077,10.3688,-66.0750,-80.9625,
5.835307,0.8601,1.2044,0.4642,-0.4755,-0.1932,0.1077,10.3688,-66.0750,-80.9625,
5.836540,1.5582,1.0991,-0.6332,-0.4755,-0.1932,0.1077,10.3688,-66.0750,-80.9625,
5.867101,1.5582,1.0991,-0.6332,-0.4755,-0.1932,0.1077,9.0188,-65.0250,-80.7188,
5.869774,1.5582,1.0991,-0.6332,-0.4755,-0.1932,0.1077,9.0188,-65.0250,-80.7188,
5.871337,1.5582,1.0991,-0.6332,-0.1392,0.0252,0.0857,9.0188,-65.0250,-80.7188,
5.887615,1.5582,1.0991,-0.6332,-0.1392,0.0252,0.0857,9.0188,-65.0250,-80.7188,
5.893028,1.5582,1.0991,-0.6332,-0.1392,0.0252,0.0857,9.0188,-65.0250,-80.7188,
5.895445,0.3531,1.2214,0.3225,-0.1392,0.0252,0.0857,9.0188,-65.0250,-80.7188,
5.924953,0.3531,1.2214,0.3225,-0.1392,0.0252,0.0857,9.0188,-65.0250,-80.7188,
5.926642,0.3531,1.2214,0.3225,-0.1392,0.0252,0.0857,8.1562,-63.9750,-80.5125,
5.931381,0.3531,1.2214,0.3225,-0.4073,-0.0158,0.0204,8.1562,-63.9750,-80.5125,
5.953370,-0.1572,0.3428,0.3151,-0.4073,-0.0158,0.0204,8.1562,-63.9750,-80.5125,
5.956686,-0.1572,0.3428,0.3151,-0.4073,-0.0158,0.0204,8.1562,-63.9750,-80.5125,
5.958370,-0.1572,0.3428,0.3151,-0.4073,-0.0158,0.0204,8.1562,-63.9750,-80.5125,
5.975250,-0.1572,0.3428,0.3151,-0.4073,-0.0158,0.0204,8.1562,-63.9750,-80.5125,
5.986006,-0.1572,0.3428,0.3151,-0.4073,-0.0158,0.0204,7.3500,-62.9813,-80.1188,
6.013053,-0.1572,0.3428,0.3151,-0.4073,-0.0158,0.0204,7.3500,-62.9813,-80.1188,
6.015721,-0.1572,0.3428,0.3151,-0.1778,0.3701,0.0362,7.3500,-62.9813,-80.1188,
6.017506,-0.1572,0.3428,0.3151,-0.1778,0.3701,0.0362,7.3500,-62.9813,-80.1188,
6.018630,0.4734,0.5751,-0.7543,-0.1778,0.3701,0.0362,7.3500,-62.9813,-80.1188,
6.041402,0.4734,0.5751,-0.7543,-0.1778,0.3701,0.0362,7.3500,-62.9813,-80.1188,
6.065513,0.4734,0.5751,-0.7543,-0.1778,0.3701,0.0362,7.3500,-62.9813,-80.1188,
6.067659,0.4734,0.5751,-0.7543,-0.1778,0.3701,0.0362,6.7500,-61.8938,-79.8000,
6.072527,0.4734,0.5751,-0.7543,0.1307,0.6512,0.2304,6.7500,-61.8938,-79.8000,
6.075352,-0.7560,0.8928,-1.6192,0.1307,0.6512,0.2304,6.7500,-61.8938,-79.8000,
6.077357,-0.7560,0.8928,-1.6192,0.1307,0.6512,0.2304,6.7500,-61.8938,-79.8000,
6.108259,-0.7560,0.8928,-1.6192,0.1307,0.6512,0.2304,6.7500,-61.8938,-79.8000,
6.115554,-0.7560,0.8928,-1.6192,0.1307,0.6512,0.2304,6.7500,-61.8938,-79.8000,
6.126786,-0.7560,0.8928,-1.6192,0.1307,0.6512,0.2304,6.6750,-60.9188,-79.7812,
6.132531,-0.7560,0.8928,-1.6192,0.3341,0.6458,0.3710,6.6750,-60.9188,-79.7812,
6.135434,-0.5905,1.3408,-1.9457,0.3341,0.6458,0.3710,6.6750,-60.9188,-79.7812,
6.137097,-0.5905,1.3408,-1.9457,0.3341,0.6458,0.3710,6.6750,-60.9188,-79.7812,
6.176188,-0.5905,1.3408,-1.9457,0.3341,0.6458,0.3710,6.6750,-60.9188,-79.7812,
6.179129,-0.5905,1.3408,-1.9457,0.3341,0.6458,0.3710,6.6750,-60.9188,-79.7812,
6.186542,-0.5905,1.3408,-1.9457,0.3341,0.6458,0.3710,6.9938,-60.3375,-79.7625,
6.192954,-0.5905,1.3408,-1.9457,0.3341,0.6458,0.3710,6.9938,-60.3375,-79.7625,
6.195306,-1.1357,1.0623,-0.9500,0.3341,0.6458,0.3710,6.9938,-60.3375,-79.7625,
6.211093,-1.1357,1.0623,-0.9500,0.0731,0.6084,0.4520,6.9938,-60.3375,-79.7625,
6.241835,-1.1357,1.0623,-0.9500,0.0731,0.6084,0.4520,6.9938,-60.3375,-79.7625,
6.243951,-1.1357,1.0623,-0.9500,0.0731,0.6084,0.4520,6.9938,-60.3375,-79.7625,
6.252414,-1.1357,1.0623,-0.9500,0.0731,0.6084,0.4520,6.9938,-60.3375,-79.7625,
6.254198,0.0436,0.4327,-1.4844,0.0731,0.6084,0.4520,6.9938,-60.3375,-79.7625,
6.264897,0.0436,0.4327,-1.4844,0.0731,0.6084,0.4520,7.7438,-59.9813,-79.9313,
6.273539,0.0436,0.4327,-1.4844,0.0313,0.9220,0.2744,7.7438,-59.9813,-79.9313,
6.308054,0.0436,0.4327,-1.4844,0.0313,0.9220,0.2744,7.7438,-59.9813,-79.9313,
6.310596,0.0436,0.4327,-1.4844,0.0313,0.9220,0.2744,7.7438,-59.9813,-79.9313,
6.312097,0.0436,0.4327,-1.4844,0.0313,0.9220,0.2744,7.7438,-59.9813,-79.9313,
6.313455,0.6556,0.3540,-1.3822,0.0313,0.9220,0.2744,7.7438,-59.9813,-79.9313,
6.326756,0.6556,0.3540,-1.3822,0.0313,0.9220,0.2744,9.0563,-59.8125,-80.1188,
6.331342,0.6556,0.3540,-1.3822,0.3400,0.7549,0.4888,9.0563,-59.8125,-80.1188,
6.371406,0.6556,0.3540,-1.3822,0.3400,0.7549,0.4888,9.0563,-59.8125,-80.1188,
6.373651,0.6556,0.3540,-1.3822,0.3400,0.7549,0.4888,9.0563,-59.8125,-80.1188,
6.375639,0.6556,0.3540,-1.3822,0.3400,0.7549,0.4888,9.0563,-59.8125,-80.1188,
6.377038,-0.5267,0.5009,-0.2026,0.3400,0.7549,0.4888,9.0563,-59.8125,-80.1188,
6.384731,-0.5267,0.5009,-0.2026,0.3400,0.7549,0.4888,10.5938,-59.8125,-80.2688,
6.413211,-0.5267,0.5009,-0.2026,0.3400,0.7549,0.4888,10.5938,-59.8125,-80.2688,
6.416287,-0.5267,0.5009,-0.2026,0.0585,0.6466,0.4776,10.5938,-59.8125,-80.2688,
6.435181,-0.5267,0.5009,-0.2026,0.0585,0.6466,0.4776,10.5938,-59.8125,-80.2688,
6.437524,-0.5267,0.5009,-0.2026,0.0585,0.6466,0.4776,10.5938,-59.8125,-80.2688,
6.438740,-0.5009,0.5203,-0.8414,0.0585,0.6466,0.4776,10.5938,-59.8125,-80.2688,
6.465774,-0.5009,0.5203,-0.8414,0.0585,0.6466,0.4776,12.1688,-59.8688,-80.5500,
6.468572,-0.5009,0.5203,-0.8414,0.0585,0.6466,0.4776,12.1688,-59.8688,-80.5500,
6.472700,-0.5009,0.5203,-0.8414,0.2799,0.8103,0.5209,12.1688,-59.8688,-80.5500,
6.491602,0.0620,0.5625,-0.2171,0.2799,0.8103,0.5209,12.1688,-59.8688,-80.5500,
6.494782,0.0620,0.5625,-0.2171,0.2799,0.8103,0.5209,12.1688,-59.8688,-80.5500,
6.496385,0.0620,0.5625,-0.2171,0.2799,0.8103,0.5209,12.1688,-59.8688,-80.5500,
6.525573,0.0620,0.5625,-0.2171,0.2799,0.8103,0.5209,14.1563,-60.0750,-80.7375,
6.528838,0.0620,0.5625,-0.2171,0.2799,0.8103,0.5209,14.1563,-60.0750,-80.7375,
6.531748,0.0620,0.5625,-0.2171,0.1829,0.4901,0.5197,14.1563,-60.0750,-80.7375,
6.553302,0.0620,0.5625,-0.2171,0.1829,0.4901,0.5197,14.1563,-60.0750,-80.7375,
6.555871,0.0620,0.5625,-0.2171,0.1829,0.4901,0.5197,14.1563,-60.0750,-80.7375,
6.557092,0.3002,0.7590,0.8821,0.1829,0.4901,0.5197,14.1563,-60.0750,-80.7375,
6.574972,0.3002,0.7590,0.8821,0.1829,0.4901,0.5197,14.1563,-60.0750,-80.7375,
6.585016,0.3002,0.7590,0.8821,0.1829,0.4901,0.5197,16.2188,-60.4875,-81.0000,
6.616104,0.3002,0.7590,0.8821,0.1829,0.4901,0.5197,16.2188,-60.4875,-81.0000,
6.618666,0.3002,0.7590,0.8821,0.1829,0.4901,0.5197,16.2188,-60.4875,-81.0000,
6.620227,1.2336,0.6715,0.5081,0.1829,0.4901,0.5197,16.2188,-60.4875,-81.0000,
6.622359,1.2336,0.6715,0.5081,0.1332,0.4940,0.5076,16.2188,-60.4875,-81.0000,
6.641621,1.2336,0.6715,0.5081,0.1332,0.4940,0.5076,16.2188,-60.4875,-81.0000,
6.666911,1.2336,0.6715,0.5081,0.1332,0.4940,0.5076,18.1875,-60.9188,-81.1500,
6.669874,1.2336,0.6715,0.5081,0.1332,0.4940,0.5076,18.1875,-60.9188,-81.1500,
6.672006,1.2336,0.6715,0.5081,0.1704,0.4481,0.2947,18.1875,-60.9188,-81.1500,
6.674357,1.4504,0.5506,0.6399,0.1704,0.4481,0.2947,18.1875,-60.9188,-81.1500,
6.676413,1.4504,0.5506,0.6399,0.1704,0.4481,0.2947,18.1875,-60.9188,-81.1500,
6.700691,1.4504,0.5506,0.6399,0.1704,0.4481,0.2947,18.1875,-60.9188,-81.1500,
6.725467,1.4504,0.5506,0.6399,0.1704,0.4481,0.2947,18.1875,-60.9188,-81.1500,
6.728324,1.4504,0.5506,0.6399,0.1704,0.4481,0.2947,20.1000,-61.3125,-81.2812,
6.732860,1.4504,0.5506,0.6399,0.3616,0.5112,0.2453,20.1000,-61.3125,-81.2812,
6.735331,1.5551,0.2308,0.5443,0.3616,0.5112,0.2453,20.1000,-61.3125,-81.2812,
6.736780,1.5551,0.2308,0.5443,0.3616,0.5112,0.2453,20.1000,-61.3125,-81.2812,
6.776786,1.5551,0.2308,0.5443,0.3616,0.5112,0.2453,20.1000,-61.3125,-81.2812,
6.780264,1.5551,0.2308,0.5443,0.3616,0.5112,0.2453,20.1000,-61.3125,-81.2812,
6.786918,1.5551,0.2308,0.5443,0.3616,0.5112,0.2453,21.9938,-61.9313,-81.0938,
6.796770,1.5551,0.2308,0.5443,0.3616,0.5112,0.2453,21.9938,-61.9313,-81.0938,
6.799224,0.9144,0.4532,0.2707,0.3616,0.5112,0.2453,21.9938,-61.9313,-81.0938,
6.812682,0.9144,0.4532,0.2707,0.5206,0.2025,0.2986,21.9938,-61.9313,-81.0938,
6.842080,0.9144,0.4532,0.2707,0.5206,0.2025,0.2986,21.9938,-61.9313,-81.0938,
6.845010,0.9144,0.4532,0.2707,0.5206,0.2025,0.2986,21.9938,-61.9313,-81.0938,
6.852827,0.9144,0.4532,0.2707,0.5206,0.2025,0.2986,21.9938,-61.9313,-81.0938,
6.854996,0.8308,0.2989,0.0123,0.5206,0.2025,0.2986,21.9938,-61.9313,-81.0938,
6.865503,0.8308,0.2989,0.0123,0.5206,0.2025,0.2986,23.4750,-62.6250,-81.0000,
6.872921,0.8308,0.2989,0.0123,0.3968,0.2843,0.2889,23.4750,-62.6250,-81.0000,
6.908532,0.8308,0.2989,0.0123,0.3968,0.2843,0.2889,23.4750,-62.6250,-81.0000,
6.911590,0.8308,0.2989,0.0123,0.3968,0.2843,0.2889,23.4750,-62.6250,-81.0000,
6.915132,0.2940,0.9471,-0.5517,0.3968,0.2843,0.2889,23.4750,-62.6250,-81.0000,
6.917820,0.2940,0.9471,-0.5517,0.3968,0.2843,0.2889,23.4750,-62.6250,-81.0000,
6.927498,0.2940,0.9471,-0.5517,0.3968,0.2843,0.2889,24.6938,-63.3938,-80.9813,
6.934428,0.2940,0.9471,-0.5517,0.1090,-0.2992,0.1716,24.6938,-63.3938,-80.9813,
6.972712,0.2940,0.9471,-0.5517,0.1090,-0.2992,0.1716,24.6938,-63.3938,-80.9813,
6.976245,0.2940,0.9471,-0.5517,0.1090,-0.2992,0.1716,24.6938,-63.3938,-80.9813,
6.978129,0.2940,0.9471,-0.5517,0.1090,-0.2992,0.1716,24.6938,-63.3938,-80.9813,
6.979850,0.0597,0.8198,0.0812,0.1090,-0.2992,0.1716,24.6938,-63.3938,-80.9813,
6.987037,0.0597,0.8198,0.0812,0.1090,-0.2992,0.1716,25.5563,-64.2750,-80.9062,
7.013536,0.0597,0.8198,0.0812,0.1090,-0.2992,0.1716,25.5563,-64.2750,-80.9062,
7.016419,0.0597,0.8198,0.0812,0.1717,-0.0946,0.1791,25.5563,-64.2750,-80.9062,
7.033685,0.6217,0.2576,0.3689,0.1717,-0.0946,0.1791,25.5563,-64.2750,-80.9062,
7.037384,0.6217,0.2576,0.3689,0.1717,-0.0946,0.1791,25.5563,-64.2750,-80.9062,
7.038527,0.6217,0.2576,0.3689,0.1717,-0.0946,0.1791,25.5563,-64.2750,-80.9062,
7.065882,0.6217,0.2576,0.3689,0.1717,-0.0946,0.1791,25.5563,-64.2750,-80.9062,
7.069150,0.6217,0.2576,0.3689,0.1717,-0.0946,0.1791,26.2500,-65.0625,-81.0375,
7.077952,0.6217,0.2576,0.3689,0.3779,-0.0785,0.3670,26.2500,-65.0625,-81.0375,
7.095235,-0.4882,0.6207,1.2456,0.3779,-0.0785,0.3670,26.2500,-65.0625,-81.0375,
7.098191,-0.4882,0.6207,1.2456,0.3779,-0.0785,0.3670,26.2500,-65.0625,-81.0375,
7.099421,-0.4882,0.6207,1.2456,0.3779,-0.0785,0.3670,26.2500,-65.0625,-81.0375,
7.118120,-0.4882,0.6207,1.2456,0.3779,-0.0785,0.3670,26.2500,-65.0625,-81.0375,
7.128302,-0.4882,0.6207,1.2456,0.3779,-0.0785,0.3670,26.6813,-65.9438,-81.1688,
7.132124,-0.4882,0.6207,1.2456,0.1981,-0.4643,0.3237,26.6813,-65.9438,-81.1688,
7.153060,-0.4882,0.6207,1.2456,0.1981,-0.4643,0.3237,26.6813,-65.9438,-81.1688,
7.155986,-0.4882,0.6207,1.2456,0.1981,-0.4643,0.3237,26.6813,-65.9438,-81.1688,
7.157428,-0.5826,0.8739,1.8088,0.1981,-0.4643,0.3237,26.6813,-65.9438,-81.1688,
7.175686,-0.5826,0.8739,1.8088,0.1981,-0.4643,0.3237,26.6813,-65.9438,-81.1688,
7.185281,-0.5826,0.8739,1.8088,0.1981,-0.4643,0.3237,26.6250,-66.9188,-81.3000,
7.214228,-0.5826,0.8739,1.8088,0.3967,-0.5724,0.3973,26.6250,-66.9188,-81.3000,
7.217599,0.1739,0.9621,1.8797,0.3967,-0.5724,0.3973,26.6250,-66.9188,-81.3000,
7.219652,0.1739,0.9621,1.8797,0.3967,-0.5724,0.3973,26.6250,-66.9188,-81.3000,
7.221114,0.1739,0.9621,1.8797,0.3967,-0.5724,0.3973,26.6250,-66.9188,-81.3000,
7.243120,0.1739,0.9621,1.8797,0.3967,-0.5724,0.3973,26.6250,-66.9188,-81.3000,
7.266896,0.1739,0.9621,1.8797,0.3967,-0.5724,0.3973,26.6250,-66.9188,-81.3000,
7.269327,0.1739,0.9621,1.8797,0.3967,-0.5724,0.3973,26.2313,-68.0250,-81.5813,
7.277671,0.6146,1.4398,1.2181,0.3967,-0.5724,0.3973,26.2313,-68.0250,-81.5813,
7.281384,0.6146,1.4398,1.2181,0.4936,-0.4739,0.5325,26.2313,-68.0250,-81.5813,
7.283701,0.6146,1.4398,1.2181,0.4936,-0.4739,0.5325,26.2313,-68.0250,-81.5813,
7.310383,0.6146,1.4398,1.2181,0.4936,-0.4739,0.5325,26.2313,-68.0250,-81.5813,
7.330025,0.6146,1.4398,1.2181,0.4936,-0.4739,0.5325,26.2313,-68.0250,-81.5813,
7.332748,0.6146,1.4398,1.2181,0.4936,-0.4739,0.5325,25.2375,-69.0375,-81.9563,
7.335986,0.6146,1.4398,1.2181,0.0998,-0.9661,0.7293,25.2375,-69.0375,-81.9563,
7.338516,-0.9524,1.2218,1.2327,0.0998,-0.9661,0.7293,25.2375,-69.0375,-81.9563,
7.339942,-0.9524,1.2218,1.2327,0.0998,-0.9661,0.7293,25.2375,-69.0375,-81.9563,
7.376138,-0.9524,1.2218,1.2327,0.0998,-0.9661,0.7293,25.2375,-69.0375,-81.9563,
7.379115,-0.9524,1.2218,1.2327,0.0998,-0.9661,0.7293,25.2375,-69.0375,-81.9563,
7.385319,-0.9524,1.2218,1.2327,0.0998,-0.9661,0.7293,23.9250,-70.0688,-82.2188,
7.395840,-0.9524,1.2218,1.2327,0.0998,-0.9661,0.7293,23.9250,-70.0688,-82.2188,
7.398751,-0.5176,-0.8771,0.8642,0.0998,-0.9661,0.7293,23.9250,-70.0688,-82.2188,
7.416433,-0.5176,-0.8771,0.8642,0.4675,-0.4931,0.6806,23.9250,-70.0688,-82.2188,
7.441911,-0.5176,-0.8771,0.8642,0.4675,-0.4931,0.6806,23.9250,-70.0688,-82.2188,
7.444359,-0.5176,-0.8771,0.8642,0.4675,-0.4931,0.6806,23.9250,-70.0688,-82.2188,
7.453309,-0.5176,-0.8771,0.8642,0.4675,-0.4931,0.6806,23.9250,-70.0688,-82.2188,
7.455911,1.0892,-2.0740,-0.8214,0.4675,-0.4931,0.6806,23.9250,-70.0688,-82.2188,
7.466913,1.0892,-2.0740,-0.8214,0.4675,-0.4931,0.6806,22.7438,-71.1562,-82.5563,
7.472885,1.0892,-2.0740,-0.8214,0.7651,0.5256,0.6030,22.7438,-71.1562,-82.5563,
7.510837,1.0892,-2.0740,-0.8214,0.7651,0.5256,0.6030,22.7438,-71.1562,-82.5563,
7.513470,1.0892,-2.0740,-0.8214,0.7651,0.5256,0.6030,22.7438,-71.1562,-82.5563,
7.515289,-0.2766,-3.0935,-1.1206,0.7651,0.5256,0.6030,22.7438,-71.1562,-82.5563,
7.517328,-0.2766,-3.0935,-1.1206,0.7651,0.5256,0.6030,22.7438,-71.1562,-82.5563,
7.527528,-0.2766,-3.0935,-1.1206,0.7651,0.5256,0.6030,21.6188,-72.4313,-82.9500,
7.534095,-0.2766,-3.0935,-1.1206,0.4583,0.0203,0.3099,21.6188,-72.4313,-82.9500,
7.577020,-0.2766,-3.0935,-1.1206,0.4583,0.0203,0.3099,21.6188,-72.4313,-82.9500,
7.580542,-0.2766,-3.0935,-1.1206,0.4583,0.0203,0.3099,21.6188,-72.4313,-82.9500,
7.582440,-0.2766,-3.0935,-1.1206,0.4583,0.0203,0.3099,21.6188,-72.4313,-82.9500,
7.584638,0.6048,-2.9747,-0.5689,0.4583,0.0203,0.3099,21.6188,-72.4313,-82.9500,
7.586922,0.6048,-2.9747,-0.5689,0.4583,0.0203,0.3099,20.3250,-73.7625,-83.0250,
7.618328,0.6048,-2.9747,-0.5689,0.4583,0.0203,0.3099,20.3250,-73.7625,-83.0250,
7.621605,0.6048,-2.9747,-0.5689,0.4583,0.0203,0.3099,20.3250,-73.7625,-83.0250,
7.623154,0.6048,-2.9747,-0.5689,-0.1662,0.1386,0.1902,20.3250,-73.7625,-83.0250,
7.635750,0.6048,-2.9747,-0.5689,-0.1662,0.1386,0.1902,20.3250,-73.7625,-83.0250,
7.638077,0.8537,-2.4495,-1.1798,-0.1662,0.1386,0.1902,20.3250,-73.7625,-83.0250,
7.665489,0.8537,-2.4495,-1.1798,-0.1662,0.1386,0.1902,20.3250,-73.7625,-83.0250,
7.667928,0.8537,-2.4495,-1.1798,-0.1662,0.1386,0.1902,19.0500,-74.8125,-83.2688,
7.674037,0.8537,-2.4495,-1.1798,-0.0737,-0.0273,0.0812,19.0500,-74.8125,-83.2688,
7.693947,0.8537,-2.4495,-1.1798,-0.0737,-0.0273,0.0812,19.0500,-74.8125,-83.2688,
7.695573,0.8537,-2.4495,-1.1798,-0.0737,-0.0273,0.0812,19.0500,-74.8125,-83.2688,
7.696319,1.9297,-1.4119,-1.3080,-0.0737,-0.0273,0.0812,19.0500,-74.8125,-83.2688,
7.724953,1.9297,-1.4119,-1.3080,-0.0737,-0.0273,0.0812,18.2063,-75.7125,-83.2313,
7.725960,1.9297,-1.4119,-1.3080,-0.0737,-0.0273,0.0812,18.2063,-75.7125,-83.2313,
7.734300,1.9297,-1.4119,-1.3080,-0.2043,0.5204,-0.1815,18.2063,-75.7125,-83.2313,
7.755613,2.3738,-1.1117,-2.0169,-0.2043,0.5204,-0.1815,18.2063,-75.7125,-83.2313,
7.757114,2.3738,-1.1117,-2.0169,-0.2043,0.5204,-0.1815,18.2063,-75.7125,-83.2313,
7.757761,2.3738,-1.1117,-2.0169,-0.2043,0.5204,-0.1815,18.2063,-75.7125,-83.2313,
7.776121,2.3738,-1.1117,-2.0169,-0.2043,0.5204,-0.1815,18.2063,-75.7125,-83.2313,
7.786303,2.3738,-1.1117,-2.0169,-0.2043,0.5204,-0.1815,17.7188,-76.4062,-83.1000,
7.813600,2.3738,-1.1117,-2.0169,-0.2043,0.5204,-0.1815,17.7188,-76.4062,-83.1000,
7.815256,2.3738,-1.1117,-2.0169,-0.2043,0.5204,-0.1815,17.7188,-76.4062,-83.1000,
7.815856,-0.1502,0.8387,-1.2008,-0.2043,0.5204,-0.1815,17.7188,-76.4062,-83.1000,
7.816761,-0.1502,0.8387,-1.2008,0.2383,0.3296,-0.1234,17.7188,-76.4062,-83.1000,
7.843304,-0.1502,0.8387,-1.2008,0.2383,0.3296,-0.1234,17.7188,-76.4062,-83.1000,
7.865534,-0.1502,0.8387,-1.2008,0.2383,0.3296,-0.1234,17.7188,-76.4062,-83.1000,
7.868135,-0.1502,0.8387,-1.2008,0.2383,0.3296,-0.1234,17.7188,-77.1938,-82.9688,
7.877666,-0.1502,0.8387,-1.2008,0.2643,0.9786,-0.0245,17.7188,-77.1938,-82.9688,
7.880860,-0.1502,0.8387,-1.2008,0.2643,0.9786,-0.0245,17.7188,-77.1938,-82.9688,
7.882375,-0.4563,1.8175,-1.8723,0.2643,0.9786,-0.0245,17.7188,-77.1938,-82.9688,
7.909234,-0.4563,1.8175,-1.8723,0.2643,0.9786,-0.0245,17.7188,-77.1938,-82.9688,
7.928236,-0.4563,1.8175,-1.8723,0.2643,0.9786,-0.0245,17.7188,-77.1938,-82.9688,
7.931219,-0.4563,1.8175,-1.8723,0.2643,0.9786,-0.0245,18.3938,-77.9062,-82.8938,
7.934029,-0.4563,1.8175,-1.8723,0.2643,0.9786,-0.0245,18.3938,-77.9062,-82.8938,
7.936234,-1.5759,3.9716,-3.4045,0.2643,0.9786,-0.0245,18.3938,-77.9062,-82.8938,
7.938141,-1.5759,3.9716,-3.4045,0.2606,0.5579,0.2995,18.3938,-77.9062,-82.8938,
7.975790,-1.5759,3.9716,-3.4045,0.2606,0.5579,0.2995,18.3938,-77.9062,-82.8938,
7.979277,-1.5759,3.9716,-3.4045,0.2606,0.5579,0.2995,18.3938,-77.9062,-82.8938,
7.985342,-1.5759,3.9716,-3.4045,0.2606,0.5579,0.2995,18.9188,-78.5063,-82.7812,
7.994418,-3.6411,4.2223,0.6185,0.2606,0.5579,0.2995,18.9188,-78.5063,-82.7812,
7.998002,-3.6411,4.2223,0.6185,0.2606,0.5579,0.2995,18.9188,-78.5063,-82.7812,
8.014600,-3.6411,4.2223,0.6185,-0.4051,-0.5595,0.5624,18.9188,-78.5063,-82.7812,
8.043572,-3.6411,4.2223,0.6185,-0.4051,-0.5595,0.5624,18.9188,-78.5063,-82.7812,
8.047654,-3.6411,4.2223,0.6185,-0.4051,-0.5595,0.5624,18.9188,-78.5063,-82.7812,
8.056626,2.1920,2.3411,-0.1541,-0.4051,-0.5595,0.5624,18.9188,-78.5063,-82.7812,
8.059392,2.1920,2.3411,-0.1541,-0.4051,-0.5595,0.5624,18.9188,-78.5063,-82.7812,
8.069413,2.1920,2.3411,-0.1541,-0.4051,-0.5595,0.5624,19.4438,-78.7875,-82.4625,
8.077522,2.1920,2.3411,-0.1541,0.0470,0.1788,0.3835,19.4438,-78.7875,-82.4625,
8.109661,2.1920,2.3411,-0.1541,0.0470,0.1788,0.3835,19.4438,-78.7875,-82.4625,
8.112675,2.1920,2.3411,-0.1541,0.0470,0.1788,0.3835,19.4438,-78.7875,-82.4625,
8.117800,0.5801,1.2374,0.1381,0.0470,0.1788,0.3835,19.4438,-78.7875,-82.4625,
8.120946,0.5801,1.2374,0.1381,0.0470,0.1788,0.3835,19.4438,-78.7875,-82.4625,
8.126947,0.5801,1.2374,0.1381,0.0470,0.1788,0.3835,19.8750,-78.8813,-82.4625,
8.133351,0.5801,1.2374,0.1381,-0.1703,0.0841,0.4587,19.8750,-78.8813,-82.4625,
8.175933,0.5801,1.2374,0.1381,-0.1703,0.0841,0.4587,19.8750,-78.8813,-82.4625,
8.178640,0.5801,1.2374,0.1381,-0.1703,0.0841,0.4587,19.8750,-78.8813,-82.4625,
8.180088,0.5801,1.2374,0.1381,-0.1703,0.0841,0.4587,19.8750,-78.8813,-82.4625,
8.181557,0.8335,0.2100,-0.7190,-0.1703,0.0841,0.4587,19.8750,-78.8813,-82.4625,
8.185362,0.8335,0.2100,-0.7190,-0.1703,0.0841,0.4587,20.4000,-79.1438,-82.3875,
8.216576,0.8335,0.2100,-0.7190,-0.1703,0.0841,0.4587,20.4000,-79.1438,-82.3875,
8.219538,0.8335,0.2100,-0.7190,0.2263,0.1465,0.6183,20.4000,-79.1438,-82.3875,
8.237427,0.8335,0.2100,-0.7190,0.2263,0.1465,0.6183,20.4000,-79.1438,-82.3875,
8.239792,0.8335,0.2100,-0.7190,0.2263,0.1465,0.6183,20.4000,-79.1438,-82.3875,
8.241082,1.5579,-2.4619,-0.7499,0.2263,0.1465,0.6183,20.4000,-79.1438,-82.3875,
8.267416,1.5579,-2.4619,-0.7499,0.2263,0.1465,0.6183,20.9813,-79.5188,-82.6313,
8.271157,1.5579,-2.4619,-0.7499,0.2263,0.1465,0.6183,20.9813,-79.5188,-82.6313,
8.278676,1.5579,-2.4619,-0.7499,0.2894,0.9231,0.4632,20.9813,-79.5188,-82.6313,
8.294430,2.6360,-2.4269,-1.5736,0.2894,0.9231,0.4632,20.9813,-79.5188,-82.6313,
8.298260,2.6360,-2.4269,-1.5736,0.2894,0.9231,0.4632,20.9813,-79.5188,-82.6313,
8.300216,2.6360,-2.4269,-1.5736,0.2894,0.9231,0.4632,20.9813,-79.5188,-82.6313,
8.325850,2.6360,-2.4269,-1.5736,0.2894,0.9231,0.4632,21.5063,-79.9500,-82.6688,
8.330294,2.6360,-2.4269,-1.5736,0.2894,0.9231,0.4632,21.5063,-79.9500,-82.6688,
8.334870,2.6360,-2.4269,-1.5736,0.0744,0.5234,0.2796,21.5063,-79.9500,-82.6688,
8.357216,2.6360,-2.4269,-1.5736,0.0744,0.5234,0.2796,21.5063,-79.9500,-82.6688,
8.359674,2.6360,-2.4269,-1.5736,0.0744,0.5234,0.2796,21.5063,-79.9500,-82.6688,
8.361867,0.5396,-1.1142,-0.5170,0.0744,0.5234,0.2796,21.5063,-79.9500,-82.6688,
8.377639,0.5396,-1.1142,-0.5170,0.0744,0.5234,0.2796,21.5063,-79.9500,-82.6688,
8.386844,0.5396,-1.1142,-0.5170,0.0744,0.5234,0.2796,22.0125,-80.0813,-82.6688,
8.416399,0.5396,-1.1142,-0.5170,0.0744,0.5234,0.2796,22.0125,-80.0813,-82.6688,
8.418933,0.5396,-1.1142,-0.5170,0.0744,0.5234,0.2796,22.0125,-80.0813,-82.6688,
8.420253,0.5396,-1.1142,-0.5170,0.0531,0.4160,0.8864,22.0125,-80.0813,-82.6688,
8.421893,0.3965,-2.7351,2.5584,0.0531,0.4160,0.8864,22.0125,-80.0813,-82.6688,
8.442092,0.3965,-2.7351,2.5584,0.0531,0.4160,0.8864,22.0125,-80.0813,-82.6688,
8.465823,0.3965,-2.7351,2.5584,0.0531,0.4160,0.8864,22.2000,-80.3438,-82.5750,
8.468824,0.3965,-2.7351,2.5584,0.0531,0.4160,0.8864,22.2000,-80.3438,-82.5750,
8.477527,0.3965,-2.7351,2.5584,0.0392,0.1032,1.4369,22.2000,-80.3438,-82.5750,
8.480429,-1.2131,-0.9581,2.0288,0.0392,0.1032,1.4369,22.2000,-80.3438,-82.5750,
8.482235,-1.2131,-0.9581,2.0288,0.0392,0.1032,1.4369,22.2000,-80.3438,-82.5750,
8.510308,-1.2131,-0.9581,2.0288,0.0392,0.1032,1.4369,22.2000,-80.3438,-82.5750,
8.530046,-1.2131,-0.9581,2.0288,0.0392,0.1032,1.4369,22.2000,-80.3438,-82.5750,
8.534619,-1.2131,-0.9581,2.0288,0.0392,0.1032,1.4369,22.2938,-80.6813,-82.6125,
8.536626,-1.2131,-0.9581,2.0288,-0.1201,-0.1528,1.1753,22.2938,-80.6813,-82.6125,
8.538306,-1.2131,-0.9581,2.0288,-0.1201,-0.1528,1.1753,22.2938,-80.6813,-82.6125,
8.539420,0.8876,2.6254,-0.7267,-0.1201,-0.1528,1.1753,22.2938,-80.6813,-82.6125,
8.580769,0.8876,2.6254,-0.7267,-0.1201,-0.1528,1.1753,22.2938,-80.6813,-82.6125,
8.583631,0.8876,2.6254,-0.7267,-0.1201,-0.1528,1.1753,22.2938,-80.6813,-82.6125,
8.586954,0.8876,2.6254,-0.7267,-0.1201,-0.1528,1.1753,22.4813,-81.0000,-82.7438,
8.596948,0.8876,2.6254,-0.7267,-0.1201,-0.1528,1.1753,22.4813,-81.0000,-82.7438,
8.599433,0.7402,0.9603,0.0827,-0.1201,-0.1528,1.1753,22.4813,-81.0000,-82.7438,
8.613816,0.7402,0.9603,0.0827,-0.3154,1.0013,0.4275,22.4813,-81.0000,-82.7438,
8.615960,0.7402,0.9603,0.0827,-0.3154,1.0013,0.4275,22.4813,-81.0000,-82.7438,
8.642202,0.7402,0.9603,0.0827,-0.3154,1.0013,0.4275,22.4813,-81.0000,-82.7438,
8.655141,-1.9797,-1.2585,2.7958,-0.3154,1.0013,0.4275,22.4813,-81.0000,-82.7438,
8.657574,-1.9797,-1.2585,2.7958,-0.3154,1.0013,0.4275,22.4813,-81.0000,-82.7438,
8.665330,-1.9797,-1.2585,2.7958,-0.3154,1.0013,0.4275,22.8188,-81.4875,-82.6500,
8.677877,-1.9797,-1.2585,2.7958,-0.3788,-0.1590,0.9754,22.8188,-81.4875,-82.6500,
8.707901,-1.9797,-1.2585,2.7958,-0.3788,-0.1590,0.9754,22.8188,-81.4875,-82.6500,
8.709660,-1.9797,-1.2585,2.7958,-0.3788,-0.1590,0.9754,22.8188,-81.4875,-82.6500,
8.715856,-1.9797,-1.2585,2.7958,-0.3788,-0.1590,0.9754,22.8188,-81.4875,-82.6500,
8.717034,-1.1851,-0.2211,4.0149,-0.3788,-0.1590,0.9754,22.8188,-81.4875,-82.6500,
8.727532,-1.1851,-0.2211,4.0149,-0.3788,-0.1590,0.9754,23.0438,-81.9000,-82.6125,
8.736817,-1.1851,-0.2211,4.0149,-0.0486,0.2014,0.7007,23.0438,-81.9000,-82.6125,
8.774748,-1.1851,-0.2211,4.0149,-0.0486,0.2014,0.7007,23.0438,-81.9000,-82.6125,
8.777168,-1.1851,-0.2211,4.0149,-0.0486,0.2014,0.7007,23.0438,-81.9000,-82.6125,
8.778459,-1.1851,-0.2211,4.0149,-0.0486,0.2014,0.7007,23.0438,-81.9000,-82.6125,
8.779796,1.9492,-1.0772,1.0013,-0.0486,0.2014,0.7007,23.0438,-81.9000,-82.6125,
8.785164,1.9492,-1.0772,1.0013,-0.0486,0.2014,0.7007,23.3063,-82.2000,-82.4438,
8.814699,1.9492,-1.0772,1.0013,-0.0486,0.2014,0.7007,23.3063,-82.2000,-82.4438,
8.815815,1.9492,-1.0772,1.0013,0.0207,-0.2223,0.8321,23.3063,-82.2000,-82.4438,
8.835622,1.9492,-1.0772,1.0013,0.0207,-0.2223,0.8321,23.3063,-82.2000,-82.4438,
8.836638,1.9492,-1.0772,1.0013,0.0207,-0.2223,0.8321,23.3063,-82.2000,-82.4438,
8.837240,-0.5971,-1.6223,2.5033,0.0207,-0.2223,0.8321,23.3063,-82.2000,-82.4438,
8.865635,-0.5971,-1.6223,2.5033,0.0207,-0.2223,0.8321,23.3063,-82.2000,-82.4438,
8.866556,-0.5971,-1.6223,2.5033,0.0207,-0.2223,0.8321,23.0813,-82.4250,-82.4062,
8.875213,-0.5971,-1.6223,2.5033,-0.2081,-0.3583,0.5709,23.0813,-82.4250,-82.4062,
8.895352,-0.5971,-1.6223,2.5033,-0.2081,-0.3583,0.5709,23.0813,-82.4250,-82.4062,
8.896078,-0.5971,-1.6223,2.5033,-0.2081,-0.3583,0.5709,23.0813,-82.4250,-82.4062,
8.896477,1.7527,-1.6965,-0.4077,-0.2081,-0.3583,0.5709,23.0813,-82.4250,-82.4062,
8.924980,1.7527,-1.6965,-0.4077,-0.2081,-0.3583,0.5709,22.6875,-82.7438,-82.3875,
8.927795,1.7527,-1.6965,-0.4077,-0.2081,-0.3583,0.5709,22.6875,-82.7438,-82.3875,
8.933736,1.7527,-1.6965,-0.4077,-0.0411,0.4171,0.2840,22.6875,-82.7438,-82.3875,
8.937842,1.7527,-1.6965,-0.4077,-0.0411,0.4171,0.2840,22.6875,-82.7438,-82.3875,
8.955268,1.7527,-1.6965,-0.4077,-0.0411,0.4171,0.2840,22.6875,-82.7438,-82.3875,
8.957579,1.6208,-1.0753,-1.3602,-0.0411,0.4171,0.2840,22.6875,-82.7438,-82.3875,
8.975223,1.6208,-1.0753,-1.3602,-0.0411,0.4171,0.2840,22.6875,-82.7438,-82.3875,
8.985545,1.6208,-1.0753,-1.3602,-0.0411,0.4171,0.2840,22.2000,-82.8375,-82.4062,
9.016225,-0.2341,1.0616,-0.2507,-0.0411,0.4171,0.2840,22.2000,-82.8375,-82.4062,
9.019212,-0.2341,1.0616,-0.2507,-0.0411,0.4171,0.2840,22.2000,-82.8375,-82.4062,
9.020452,-0.2341,1.0616,-0.2507,-0.0411,0.4171,0.2840,22.2000,-82.8375,-82.4062,
9.021615,-0.2341,1.0616,-0.2507,0.1626,-0.3894,0.2059,22.2000,-82.8375,-82.4062,
9.041636,-0.2341,1.0616,-0.2507,0.1626,-0.3894,0.2059,22.2000,-82.8375,-82.4062,
9.066928,-0.2341,1.0616,-0.2507,0.1626,-0.3894,0.2059,21.9375,-82.9313,-82.2563,
9.069670,-0.2341,1.0616,-0.2507,0.1626,-0.3894,0.2059,21.9375,-82.9313,-82.2563,
9.078201,-0.2341,1.0616,-0.2507,0.5632,0.4568,-0.2419,21.9375,-82.9313,-82.2563,
9.080582,2.0071,0.6825,-2.6294,0.5632,0.4568,-0.2419,21.9375,-82.9313,-82.2563,
9.082322,2.0071,0.6825,-2.6294,0.5632,0.4568,-0.2419,21.9375,-82.9313,-82.2563,
9.109822,2.0071,0.6825,-2.6294,0.5632,0.4568,-0.2419,21.9375,-82.9313,-82.2563,
9.116244,2.0071,0.6825,-2.6294,0.5632,0.4568,-0.2419,21.9375,-82.9313,-82.2563,
9.126964,2.0071,0.6825,-2.6294,0.5632,0.4568,-0.2419,21.5625,-83.2500,-81.9563,
9.135282,2.0071,0.6825,-2.6294,0.3010,0.2175,-0.3512,21.5625,-83.2500,-81.9563,
9.137708,2.0071,0.6825,-2.6294,0.3010,0.2175,-0.3512,21.5625,-83.2500,-81.9563,
9.139084,0.4921,0.7262,-2.1488,0.3010,0.2175,-0.3512,21.5625,-83.2500,-81.9563,
9.180665,0.4921,0.7262,-2.1488,0.3010,0.2175,-0.3512,21.5625,-83.2500,-81.9563,
9.183283,0.4921,0.7262,-2.1488,0.3010,0.2175,-0.3512,21.5625,-83.2500,-81.9563,
9.186422,0.4921,0.7262,-2.1488,0.3010,0.2175,-0.3512,21.3375,-83.4750,-81.7500,
9.198404,0.4921,0.7262,-2.1488,0.3010,0.2175,-0.3512,21.3375,-83.4750,-81.7500,
9.201217,-0.4218,1.2308,-1.9958,0.3010,0.2175,-0.3512,21.3375,-83.4750,-81.7500,
9.217122,-0.4218,1.2308,-1.9958,-0.1040,0.1883,-0.3743,21.3375,-83.4750,-81.7500,
9.243034,-0.4218,1.2308,-1.9958,-0.1040,0.1883,-0.3743,21.3375,-83.4750,-81.7500,
9.245817,-0.4218,1.2308,-1.9958,-0.1040,0.1883,-0.3743,21.3375,-83.4750,-81.7500,
9.255197,-0.4218,1.2308,-1.9958,-0.1040,0.1883,-0.3743,21.3375,-83.4750,-81.7500,
9.257073,-0.4090,1.1635,-1.1461,-0.1040,0.1883,-0.3743,21.3375,-83.4750,-81.7500,
9.265168,-0.4090,1.1635,-1.1461,-0.1040,0.1883,-0.3743,21.2625,-83.9062,-81.4875,
9.277905,-0.4090,1.1635,-1.1461,-0.0602,0.1855,-0.1661,21.2625,-83.9062,-81.4875,
9.308837,-0.4090,1.1635,-1.1461,-0.0602,0.1855,-0.1661,21.2625,-83.9062,-81.4875,
9.311703,-0.4090,1.1635,-1.1461,-0.0602,0.1855,-0.1661,21.2625,-83.9062,-81.4875,
9.316452,-0.4090,1.1635,-1.1461,-0.0602,0.1855,-0.1661,21.2625,-83.9062,-81.4875,
9.322416,-0.8941,0.9229,0.6211,-0.0602,0.1855,-0.1661,21.2625,-83.9062,-81.4875,
9.336944,-0.8941,0.9229,0.6211,-0.0602,0.1855,-0.1661,20.9438,-84.2250,-81.1875,
9.340212,-0.8941,0.9229,0.6211,-0.4487,-0.6858,0.1332,20.9438,-84.2250,-81.1875,
9.377937,-0.8941,0.9229,0.6211,-0.4487,-0.6858,0.1332,20.9438,-84.2250,-81.1875,
9.379519,-0.8941,0.9229,0.6211,-0.4487,-0.6858,0.1332,20.9438,-84.2250,-81.1875,
9.380718,-0.8941,0.9229,0.6211,-0.4487,-0.6858,0.1332,20.9438,-84.2250,-81.1875,
9.381769,-0.8648,0.1644,1.0570,-0.4487,-0.6858,0.1332,20.9438,-84.2250,-81.1875,
9.386468,-0.8648,0.1644,1.0570,-0.4487,-0.6858,0.1332,20.8688,-84.2625,-80.9813,
9.415203,-0.8648,0.1644,1.0570,-0.2963,-0.4440,0.0349,20.8688,-84.2625,-80.9813,
9.417846,-0.8648,0.1644,1.0570,-0.2963,-0.4440,0.0349,20.8688,-84.2625,-80.9813,
9.435703,1.0122,-0.5155,0.8334,-0.2963,-0.4440,0.0349,20.8688,-84.2625,-80.9813,
9.438146,1.0122,-0.5155,0.8334,-0.2963,-0.4440,0.0349,20.8688,-84.2625,-80.9813,
9.439392,1.0122,-0.5155,0.8334,-0.2963,-0.4440,0.0349,20.8688,-84.2625,-80.9813,
9.465457,1.0122,-0.5155,0.8334,-0.2963,-0.4440,0.0349,20.7000,-84.1500,-80.9625,
9.468184,1.0122,-0.5155,0.8334,-0.2963,-0.4440,0.0349,20.7000,-84.1500,-80.9625,
9.479704,1.0122,-0.5155,0.8334,-0.1407,-0.3947,0.0212,20.7000,-84.1500,-80.9625,
9.496106,1.0122,-0.5155,0.8334,-0.1407,-0.3947,0.0212,20.7000,-84.1500,-80.9625,
9.498917,1.0122,-0.5155,0.8334,-0.1407,-0.3947,0.0212,20.7000,-84.1500,-80.9625,
9.500254,0.5197,1.6999,1.5321,-0.1407,-0.3947,0.0212,20.7000,-84.1500,-80.9625,
9.527338,0.5197,1.6999,1.5321,-0.1407,-0.3947,0.0212,20.3438,-84.0375,-81.0188,
9.529613,0.5197,1.6999,1.5321,-0.1407,-0.3947,0.0212,20.3438,-84.0375,-81.0188,
9.536187,0.5197,1.6999,1.5321,-0.1896,-0.4518,-0.0450,20.3438,-84.0375,-81.0188,
9.556641,0.5197,1.6999,1.5321,-0.1896,-0.4518,-0.0450,20.3438,-84.0375,-81.0188,
9.558969,0.5197,1.6999,1.5321,-0.1896,-0.4518,-0.0450,20.3438,-84.0375,-81.0188,
9.560038,0.0708,1.5967,0.6853,-0.1896,-0.4518,-0.0450,20.3438,-84.0375,-81.0188,
9.576163,0.0708,1.5967,0.6853,-0.1896,-0.4518,-0.0450,20.3438,-84.0375,-81.0188,
9.584382,0.0708,1.5967,0.6853,-0.1896,-0.4518,-0.0450,19.8750,-83.8500,-81.1500,
9.615937,0.0708,1.5967,0.6853,-0.1896,-0.4518,-0.0450,19.8750,-83.8500,-81.1500,
9.618493,0.0708,1.5967,0.6853,-0.1103,-0.4042,-0.0230,19.8750,-83.8500,-81.1500,
9.621159,-0.3798,1.2836,0.5445,-0.1103,-0.4042,-0.0230,19.8750,-83.8500,-81.1500,
9.622895,-0.3798,1.2836,0.5445,-0.1103,-0.4042,-0.0230,19.8750,-83.8500,-81.1500,
9.644545,-0.3798,1.2836,0.5445,-0.1103,-0.4042,-0.0230,19.8750,-83.8500,-81.1500,
9.666912,-0.3798,1.2836,0.5445,-0.1103,-0.4042,-0.0230,19.8750,-83.8500,-81.1500,
9.668884,-0.3798,1.2836,0.5445,-0.1103,-0.4042,-0.0230,19.3125,-83.2688,-81.3188,
9.677117,-0.3798,1.2836,0.5445,-0.1320,-0.0118,-0.0018,19.3125,-83.2688,-81.3188,
9.680012,-0.3798,1.2836,0.5445,-0.1320,-0.0118,-0.0018,19.3125,-83.2688,-81.3188,
9.681297,-0.2160,1.0848,0.2557,-0.1320,-0.0118,-0.0018,19.3125,-83.2688,-81.3188,
9.709639,-0.2160,1.0848,0.2557,-0.1320,-0.0118,-0.0018,19.3125,-83.2688,-81.3188,
9.732752,-0.2160,1.0848,0.2557,-0.1320,-0.0118,-0.0018,18.5063,-82.6688,-81.5250,
9.734690,-0.2160,1.0848,0.2557,-0.1320,-0.0118,-0.0018,18.5063,-82.6688,-81.5250,
9.735405,-0.2160,1.0848,0.2557,-0.0691,-0.1607,0.1437,18.5063,-82.6688,-81.5250,
9.736165,-1.3465,0.8897,0.9741,-0.0691,-0.1607,0.1437,18.5063,-82.6688,-81.5250,
9.736935,-1.3465,0.8897,0.9741,-0.0691,-0.1607,0.1437,18.5063,-82.6688,-81.5250,
9.776505,-1.3465,0.8897,0.9741,-0.0691,-0.1607,0.1437,18.5063,-82.6688,-81.5250,
9.777422,-1.3465,0.8897,0.9741,-0.0691,-0.1607,0.1437,18.5063,-82.6688,-81.5250,
9.784518,-1.3465,0.8897,0.9741,-0.0691,-0.1607,0.1437,17.6813,-82.0125,-81.9000,
9.795805,0.0909,0.3975,0.6819,-0.0691,-0.1607,0.1437,17.6813,-82.0125,-81.9000,
9.798118,0.0909,0.3975,0.6819,-0.0691,-0.1607,0.1437,17.6813,-82.0125,-81.9000,
9.814599,0.0909,0.3975,0.6819,-0.2414,0.1603,0.1048,17.6813,-82.0125,-81.9000,
9.841559,0.0909,0.3975,0.6819,-0.2414,0.1603,0.1048,17.6813,-82.0125,-81.9000,
9.843595,0.0909,0.3975,0.6819,-0.2414,0.1603,0.1048,17.6813,-82.0125,-81.9000,
9.856568,0.3354,0.3363,0.8233,-0.2414,0.1603,0.1048,17.6813,-82.0125,-81.9000,
9.858375,0.3354,0.3363,0.8233,-0.2414,0.1603,0.1048,17.6813,-82.0125,-81.9000,
9.867694,0.3354,0.3363,0.8233,-0.2414,0.1603,0.1048,16.9500,-81.3188,-82.2000,
9.876828,0.3354,0.3363,0.8233,-0.2276,0.1659,0.1014,16.9500,-81.3188,-82.2000,
9.909278,0.3354,0.3363,0.8233,-0.2276,0.1659,0.1014,16.9500,-81.3188,-82.2000,
9.911423,0.3354,0.3363,0.8233,-0.2276,0.1659,0.1014,16.9500,-81.3188,-82.2000,
9.915214,0.7715,0.0530,-0.2299,-0.2276,0.1659,0.1014,16.9500,-81.3188,-82.2000,
9.917880,0.7715,0.0530,-0.2299,-0.2276,0.1659,0.1014,16.9500,-81.3188,-82.2000,
9.926695,0.7715,0.0530,-0.2299,-0.2276,0.1659,0.1014,16.3313,-80.8313,-82.4625,
9.935466,0.7715,0.0530,-0.2299,-0.4053,0.3163,0.1677,16.3313,-80.8313,-82.4625,
9.976092,0.7715,0.0530,-0.2299,-0.4053,0.3163,0.1677,16.3313,-80.8313,-82.4625,
9.979194,0.7715,0.0530,-0.2299,-0.4053,0.3163,0.1677,16.3313,-80.8313,-82.4625,
9.980235,-0.3017,-0.3062,-0.2503,-0.4053,0.3163,0.1677,16.3313,-80.8313,-82.4625,
9.981714,-0.3017,-0.3062,-0.2503,-0.4053,0.3163,0.1677,16.3313,-80.8313,-82.4625,
9.985845,-0.3017,-0.3062,-0.2503,-0.4053,0.3163,0.1677,16.0125,-80.3250,-82.7250,
10.017483,-0.3017,-0.3062,-0.2503,-0.4053,0.3163,0.1677,16.0125,-80.3250,-82.7250,
10.019414,-0.3017,-0.3062,-0.2503,-0.3650,-0.2260,0.3318,16.0125,-80.3250,-82.7250,
10.038331,-0.3377,0.0982,0.3541,-0.3650,-0.2260,0.3318,16.0125,-80.3250,-82.7250,
10.041290,-0.3377,0.0982,0.3541,-0.3650,-0.2260,0.3318,16.0125,-80.3250,-82.7250,
10.042744,-0.3377,0.0982,0.3541,-0.3650,-0.2260,0.3318,16.0125,-80.3250,-82.7250,
10.065389,-0.3377,0.0982,0.3541,-0.3650,-0.2260,0.3318,15.7313,-79.6875,-82.9500,
10.068973,-0.3377,0.0982,0.3541,-0.3650,-0.2260,0.3318,15.7313,-79.6875,-82.9500,
10.077466,-0.3377,0.0982,0.3541,-0.2589,-0.1381,0.2291,15.7313,-79.6875,-82.9500,
10.095989,-0.3377,0.0982,0.3541,-0.2589,-0.1381,0.2291,15.7313,-79.6875,-82.9500,
10.098434,-0.3377,0.0982,0.3541,-0.2589,-0.1381,0.2291,15.7313,-79.6875,-82.9500,
10.099865,0.4852,-0.5005,-0.3368,-0.2589,-0.1381,0.2291,15.7313,-79.6875,-82.9500,
10.125552,0.4852,-0.5005,-0.3368,-0.2589,-0.1381,0.2291,15.7313,-79.6875,-82.9500,
10.128035,0.4852,-0.5005,-0.3368,-0.2589,-0.1381,0.2291,15.5813,-78.9563,-83.1000,
10.135745,0.4852,-0.5005,-0.3368,-0.3396,-0.0149,0.1304,15.5813,-78.9563,-83.1000,
10.157430,0.4852,-0.5005,-0.3368,-0.3396,-0.0149,0.1304,15.5813,-78.9563,-83.1000,
10.159339,0.4852,-0.5005,-0.3368,-0.3396,-0.0149,0.1304,15.5813,-78.9563,-83.1000,
10.160345,-0.2948,-0.1173,-0.4686,-0.3396,-0.0149,0.1304,15.5813,-78.9563,-83.1000,
10.177226,-0.2948,-0.1173,-0.4686,-0.3396,-0.0149,0.1304,15.5813,-78.9563,-83.1000,
10.185973,-0.2948,-0.1173,-0.4686,-0.3396,-0.0149,0.1304,15.5063,-78.2250,-83.3625,
10.216059,-0.2948,-0.1173,-0.4686,-0.3396,-0.0149,0.1304,15.5063,-78.2250,-83.3625,
10.218052,-0.7327,-0.1896,0.1458,-0.3396,-0.0149,0.1304,15.5063,-78.2250,-83.3625,
10.219454,-0.7327,-0.1896,0.1458,-0.3396,-0.0149,0.1304,15.5063,-78.2250,-83.3625,
10.220399,-0.7327,-0.1896,0.1458,-0.5306,-0.2493,0.0670,15.5063,-78.2250,-83.3625,
10.244827,-0.7327,-0.1896,0.1458,-0.5306,-0.2493,0.0670,15.5063,-78.2250,-83.3625,
10.264418,-0.7327,-0.1896,0.1458,-0.5306,-0.2493,0.0670,15.5250,-77.4375,-83.6625,
10.265583,-0.7327,-0.1896,0.1458,-0.5306,-0.2493,0.0670,15.5250,-77.4375,-83.6625,
10.275134,-0.7327,-0.1896,0.1458,-0.0815,0.4545,0.0473,15.5250,-77.4375,-83.6625,
10.276850,0.4427,-0.6839,-0.4164,-0.0815,0.4545,0.0473,15.5250,-77.4375,-83.6625,
10.277773,0.4427,-0.6839,-0.4164,-0.0815,0.4545,0.0473,15.5250,-77.4375,-83.6625,
10.307585,0.4427,-0.6839,-0.4164,-0.0815,0.4545,0.0473,15.5250,-77.4375,-83.6625,
10.326061,0.4427,-0.6839,-0.4164,-0.0815,0.4545,0.0473,15.6938,-76.5375,-83.7563,
10.327214,0.4427,-0.6839,-0.4164,-0.0815,0.4545,0.0473,15.6938,-76.5375,-83.7563,
10.337463,0.4427,-0.6839,-0.4164,0.1622,0.2666,0.1778,15.6938,-76.5375,-83.7563,
10.339637,-0.2667,-0.3298,-0.0706,0.1622,0.2666,0.1778,15.6938,-76.5375,-83.7563,
10.341143,-0.2667,-0.3298,-0.0706,0.1622,0.2666,0.1778,15.6938,-76.5375,-83.7563,
10.378436,-0.2667,-0.3298,-0.0706,0.1622,0.2666,0.1778,15.6938,-76.5375,-83.7563,
10.380363,-0.2667,-0.3298,-0.0706,0.1622,0.2666,0.1778,15.6938,-76.5375,-83.7563,
10.384763,-0.2667,-0.3298,-0.0706,0.1622,0.2666,0.1778,15.9750,-75.9375,-83.7375,
10.396673,0.0536,-0.1340,0.1330,0.1622,0.2666,0.1778,15.9750,-75.9375,-83.7375,
10.399662,0.0536,-0.1340,0.1330,0.1622,0.2666,0.1778,15.9750,-75.9375,-83.7375,
10.415938,0.0536,-0.1340,0.1330,0.1980,0.1293,-0.0164,15.9750,-75.9375,-83.7375,
10.443776,0.0536,-0.1340,0.1330,0.1980,0.1293,-0.0164,15.9750,-75.9375,-83.7375,
10.447920,0.0536,-0.1340,0.1330,0.1980,0.1293,-0.0164,15.9750,-75.9375,-83.7375,
10.456795,0.3442,-0.1980,-0.3763,0.1980,0.1293,-0.0164,15.9750,-75.9375,-83.7375,
10.460041,0.3442,-0.1980,-0.3763,0.1980,0.1293,-0.0164,15.9750,-75.9375,-83.7375,
10.469564,0.3442,-0.1980,-0.3763,0.1980,0.1293,-0.0164,16.2938,-75.4125,-83.8875,
10.477849,0.3442,-0.1980,-0.3763,0.0587,0.3072,-0.2167,16.2938,-75.4125,-83.8875,
10.509391,0.3442,-0.1980,-0.3763,0.0587,0.3072,-0.2167,16.2938,-75.4125,-83.8875,
10.511851,0.3442,-0.1980,-0.3763,0.0587,0.3072,-0.2167,16.2938,-75.4125,-83.8875,
10.519086,0.0801,-0.7847,-0.5435,0.0587,0.3072,-0.2167,16.2938,-75.4125,-83.8875,
10.520274,0.0801,-0.7847,-0.5435,0.0587,0.3072,-0.2167,16.2938,-75.4125,-83.8875,
10.525984,0.0801,-0.7847,-0.5435,0.0587,0.3072,-0.2167,16.5563,-75.0375,-83.8125,
10.536237,0.0801,-0.7847,-0.5435,0.1204,0.1515,-0.1263,16.5563,-75.0375,-83.8125,
10.564361,0.0801,-0.7847,-0.5435,0.1204,0.1515,-0.1263,16.5563,-75.0375,-83.8125,
10.565348,0.0801,-0.7847,-0.5435,0.1204,0.1515,-0.1263,16.5563,-75.0375,-83.8125,
10.576094,0.0801,-0.7847,-0.5435,0.1204,0.1515,-0.1263,16.5563,-75.0375,-83.8125,
10.577219,-0.1687,0.1412,-0.1119,0.1204,0.1515,-0.1263,16.5563,-75.0375,-83.8125,
10.584771,-0.1687,0.1412,-0.1119,0.1204,0.1515,-0.1263,17.1000,-74.7188,-83.7375,
