
time,ax,ay,az,wx,wy,wz,Bx,By,Bz,
0.066437,0.0000,0.0000,0.0000,0.0000,0.0000,0.0000,0.0000,0.0000,0.0000,
0.067028,0.0000,0.0000,0.0000,0.0000,0.0000,0.0000,0.0000,0.0000,0.0000,
0.067535,0.0000,0.0000,0.0000,0.0000,0.0000,0.0000,0.0000,0.0000,0.0000,
0.095410,0.0000,0.0000,0.0000,0.0000,0.0000,0.0000,-38.1128,20.0202,-14.7742,
0.110719,0.0000,0.0000,0.0000,-0.0084,-0.0007,-0.0397,-38.1128,20.0202,-14.7742,
0.124188,0.0000,0.0000,0.0000,-0.0084,-0.0007,-0.0397,-38.1128,20.0202,-14.7742,
0.125433,0.0000,0.0000,0.0000,-0.0084,-0.0007,-0.0397,-38.1128,20.0202,-14.7742,
0.126156,0.0000,0.0000,0.0000,-0.0084,-0.0007,-0.0397,-38.1128,20.0202,-14.7742,
0.150441,0.0000,0.0000,0.0000,-0.0084,-0.0007,-0.0397,-38.1494,19.8738,-14.7376,
0.180113,0.0000,0.0000,0.0000,0.0340,-0.0009,-0.0285,-38.1494,19.8738,-14.7376,
0.181923,0.0000,0.0000,0.0000,0.0340,-0.0009,-0.0285,-38.1494,19.8738,-14.7376,
0.191191,0.0000,0.0000,0.0000,0.0340,-0.0009,-0.0285,-38.1494,19.8738,-14.7376,
0.192504,0.0000,0.0000,0.0000,0.0340,-0.0009,-0.0285,-38.1494,19.8738,-14.7376,
0.193409,0.0000,0.0000,0.0000,0.0340,-0.0009,-0.0285,-38.1494,19.8738,-14.7376,
0.211382,0.0000,0.0000,0.0000,0.0340,-0.0009,-0.0285,-38.2836,20.0446,-14.9572,
0.250606,0.0000,0.0000,0.0000,0.0025,-0.0051,0.0003,-38.2836,20.0446,-14.9572,
0.252369,-0.0385,0.1121,-0.0265,0.0025,-0.0051,0.0003,-38.2836,20.0446,-14.9572,
0.256593,-0.0385,0.1121,-0.0265,0.0025,-0.0051,0.0003,-38.2836,20.0446,-14.9572,
0.257577,-0.0385,0.1121,-0.0265,0.0025,-0.0051,0.0003,-38.2836,20.0446,-14.9572,
0.258371,-0.0385,0.1121,-0.0265,0.0025,-0.0051,0.0003,-38.2836,20.0446,-14.9572,
0.271429,-0.0385,0.1121,-0.0265,0.0025,-0.0051,0.0003,-38.3202,20.1056,-15.0914,
0.322883,-0.0385,0.1121,-0.0265,-0.0421,-0.0314,0.0154,-38.3202,20.1056,-15.0914,
0.325273,-0.0211,0.0154,0.0460,-0.0421,-0.0314,0.0154,-38.3202,20.1056,-15.0914,
0.326481,-0.0211,0.0154,0.0460,-0.0421,-0.0314,0.0154,-38.3202,20.1056,-15.0914,
0.327864,-0.0211,0.0154,0.0460,-0.0421,-0.0314,0.0154,-38.3202,20.1056,-15.0914,
0.328829,-0.0211,0.0154,0.0460,-0.0421,-0.0314,0.0154,-38.3202,20.1056,-15.0914,
0.329722,-0.0211,0.0154,0.0460,-0.0421,-0.0314,0.0154,-38.3202,20.1056,-15.0914,
0.330717,-0.0211,0.0154,0.0460,-0.0421,-0.0314,0.0154,-38.4178,20.1666,-15.2134,
0.389583,-0.0211,0.0154,0.0460,-0.0421,-0.0314,0.0154,-38.5154,20.2398,-15.3354,
0.391490,-0.0211,0.0154,0.0460,-0.0024,-0.0101,0.0025,-38.5154,20.2398,-15.3354,
0.392668,-0.0211,0.0154,0.0460,-0.0024,-0.0101,0.0025,-38.5154,20.2398,-15.3354,
0.393576,-0.0211,0.0154,0.0460,-0.0024,-0.0101,0.0025,-38.5154,20.2398,-15.3354,
0.394424,-0.0211,0.0154,0.0460,-0.0024,-0.0101,0.0025,-38.5154,20.2398,-15.3354,
0.395449,0.0577,-0.0194,0.0063,-0.0024,-0.0101,0.0025,-38.5154,20.2398,-15.3354,
0.450454,0.0577,-0.0194,0.0063,-0.0024,-0.0101,0.0025,-38.5886,20.3008,-15.3354,
0.456344,0.0577,-0.0194,0.0063,-0.0024,-0.0101,0.0025,-38.5886,20.3008,-15.3354,
0.457382,0.0577,-0.0194,0.0063,-0.0024,-0.0101,0.0025,-38.5886,20.3008,-15.3354,
0.458291,0.0577,-0.0194,0.0063,-0.0024,-0.0101,0.0025,-38.5886,20.3008,-15.3354,
0.459548,0.0577,-0.0194,0.0063,-0.0382,-0.0702,0.0129,-38.5886,20.3008,-15.3354,
0.460755,-0.0193,-0.0194,0.0220,-0.0382,-0.0702,0.0129,-38.5886,20.3008,-15.3354,
0.512023,-0.0193,-0.0194,0.0220,-0.0382,-0.0702,0.0129,-38.6252,20.3008,-15.3476,
0.523793,-0.0193,-0.0194,0.0220,-0.0382,-0.0702,0.0129,-38.6252,20.3008,-15.3476,
0.525087,-0.0193,-0.0194,0.0220,-0.0382,-0.0702,0.0129,-38.6252,20.3008,-15.3476,
0.525987,-0.0193,-0.0194,0.0220,-0.0382,-0.0702,0.0129,-38.6252,20.3008,-15.3476,
0.526838,-0.0193,-0.0194,0.0220,-0.0382,-0.0702,0.0129,-38.6252,20.3008,-15.3476,
0.530031,-0.0193,-0.0194,0.0220,-0.0889,-0.0141,0.0130,-38.6252,20.3008,-15.3476,
0.531475,0.0860,0.0926,0.0654,-0.0889,-0.0141,0.0130,-38.6252,20.3008,-15.3476,
0.569154,0.0860,0.0926,0.0654,-0.0889,-0.0141,0.0130,-38.7228,20.3740,-15.3842,
0.592707,0.0860,0.0926,0.0654,-0.0889,-0.0141,0.0130,-38.7228,20.3740,-15.3842,
0.594115,0.0860,0.0926,0.0654,-0.0889,-0.0141,0.0130,-38.7228,20.3740,-15.3842,
0.595643,0.0860,0.0926,0.0654,-0.0889,-0.0141,0.0130,-38.7228,20.3740,-15.3842,
0.599665,0.0860,0.0926,0.0654,-0.0402,0.0256,-0.0154,-38.7228,20.3740,-15.3842,
0.601403,-0.0936,-0.1671,0.0314,-0.0402,0.0256,-0.0154,-38.7228,20.3740,-15.3842,
0.630045,-0.0936,-0.1671,0.0314,-0.0402,0.0256,-0.0154,-38.7960,20.5082,-15.4696,
0.658325,-0.0936,-0.1671,0.0314,-0.0402,0.0256,-0.0154,-38.7960,20.5082,-15.4696,
0.659963,-0.0936,-0.1671,0.0314,-0.0402,0.0256,-0.0154,-38.7960,20.5082,-15.4696,
0.660825,-0.0936,-0.1671,0.0314,-0.0402,0.0256,-0.0154,-38.7960,20.5082,-15.4696,
0.670971,-0.0936,-0.1671,0.0314,-0.0862,0.0072,-0.0065,-38.7960,20.5082,-15.4696,
0.672696,0.0718,-0.0244,0.0307,-0.0862,0.0072,-0.0065,-38.7960,20.5082,-15.4696,
0.690049,0.0718,-0.0244,0.0307,-0.0862,0.0072,-0.0065,-38.8570,20.5204,-15.4452,
0.726148,0.0718,-0.0244,0.0307,-0.0862,0.0072,-0.0065,-38.8570,20.5204,-15.4452,
0.727947,0.0718,-0.0244,0.0307,-0.0862,0.0072,-0.0065,-38.8570,20.5204,-15.4452,
0.728878,0.0718,-0.0244,0.0307,-0.0862,0.0072,-0.0065,-38.8570,20.5204,-15.4452,
0.729767,0.0718,-0.0244,0.0307,-0.0862,0.0072,-0.0065,-38.8570,20.5204,-15.4452,
0.740314,0.0718,-0.0244,0.0307,-0.0192,-0.0019,-0.0201,-38.8570,20.5204,-15.4452,
0.742153,-0.0750,0.0616,-0.0089,-0.0192,-0.0019,-0.0201,-38.8570,20.5204,-15.4452,
0.755395,-0.0750,0.0616,-0.0089,-0.0192,-0.0019,-0.0201,-38.8936,20.5814,-15.4086,
0.791025,-0.0750,0.0616,-0.0089,-0.0192,-0.0019,-0.0201,-38.8936,20.5814,-15.4086,
0.792672,-0.0750,0.0616,-0.0089,-0.0192,-0.0019,-0.0201,-38.8936,20.5814,-15.4086,
0.793687,-0.0750,0.0616,-0.0089,-0.0192,-0.0019,-0.0201,-38.8936,20.5814,-15.4086,
0.809563,-0.0750,0.0616,-0.0089,-0.0192,-0.0019,-0.0201,-38.9058,20.6180,-15.3598,
0.811473,-0.0750,0.0616,-0.0089,-0.0202,0.0249,-0.0031,-38.9058,20.6180,-15.3598,
0.812634,0.0350,-0.0781,-0.0029,-0.0202,0.0249,-0.0031,-38.9058,20.6180,-15.3598,
0.858639,0.0350,-0.0781,-0.0029,-0.0202,0.0249,-0.0031,-38.9058,20.6180,-15.3598,
0.860414,0.0350,-0.0781,-0.0029,-0.0202,0.0249,-0.0031,-38.9058,20.6180,-15.3598,
0.861291,0.0350,-0.0781,-0.0029,-0.0202,0.0249,-0.0031,-38.9058,20.6180,-15.3598,
0.862177,0.0350,-0.0781,-0.0029,-0.0202,0.0249,-0.0031,-38.9058,20.6180,-15.3598,
0.869287,0.0350,-0.0781,-0.0029,-0.0202,0.0249,-0.0031,-38.9302,20.6668,-15.3110,
0.877849,0.0350,-0.0781,-0.0029,-0.0162,0.0594,-0.0166,-38.9302,20.6668,-15.3110,
0.879183,0.1060,0.0373,0.0251,-0.0162,0.0594,-0.0166,-38.9302,20.6668,-15.3110,
0.924292,0.1060,0.0373,0.0251,-0.0162,0.0594,-0.0166,-38.9302,20.6668,-15.3110,
0.925755,0.1060,0.0373,0.0251,-0.0162,0.0594,-0.0166,-38.9302,20.6668,-15.3110,
0.926658,0.1060,0.0373,0.0251,-0.0162,0.0594,-0.0166,-38.9302,20.6668,-15.3110,
0.928023,0.1060,0.0373,0.0251,-0.0162,0.0594,-0.0166,-38.9180,20.6302,-15.2744,
0.947608,-0.0642,-0.0574,-0.0008,-0.0162,0.0594,-0.0166,-38.9180,20.6302,-15.2744,
0.949172,-0.0642,-0.0574,-0.0008,-0.0222,0.0241,-0.0169,-38.9180,20.6302,-15.2744,
0.987848,-0.0642,-0.0574,-0.0008,-0.0222,0.0241,-0.0169,-38.9546,20.6790,-15.2500,
0.989616,-0.0642,-0.0574,-0.0008,-0.0222,0.0241,-0.0169,-38.9546,20.6790,-15.2500,
0.990506,-0.0642,-0.0574,-0.0008,-0.0222,0.0241,-0.0169,-38.9546,20.6790,-15.2500,
0.991405,-0.0642,-0.0574,-0.0008,-0.0222,0.0241,-0.0169,-38.9546,20.6790,-15.2500,
1.017337,-0.0642,-0.0574,-0.0008,-0.0222,-0.0840,0.0704,-38.9546,20.6790,-15.2500,
1.019036,-0.0594,0.0334,-0.0161,-0.0222,-0.0840,0.0704,-38.9546,20.6790,-15.2500,
1.047478,-0.0594,0.0334,-0.0161,-0.0222,-0.0840,0.0704,-39.0034,20.6790,-15.2256,
1.057477,-0.0594,0.0334,-0.0161,-0.0222,-0.0840,0.0704,-39.0034,20.6790,-15.2256,
1.058568,-0.0594,0.0334,-0.0161,-0.0222,-0.0840,0.0704,-39.0034,20.6790,-15.2256,
1.059554,-0.0594,0.0334,-0.0161,-0.0222,-0.0840,0.0704,-39.0034,20.6790,-15.2256,
1.060393,-0.0594,0.0334,-0.0161,-0.0222,-0.0840,0.0704,-39.0034,20.6790,-15.2256,
1.087159,-0.0594,0.0334,-0.0161,-0.1376,0.0296,-0.0828,-39.0034,20.6790,-15.2256,
1.089094,-0.0607,0.6270,0.0061,-0.1376,0.0296,-0.0828,-39.0034,20.6790,-15.2256,
1.106881,-0.0607,0.6270,0.0061,-0.1376,0.0296,-0.0828,-39.0400,20.6302,-15.2134,
1.124446,-0.0607,0.6270,0.0061,-0.1376,0.0296,-0.0828,-39.0400,20.6302,-15.2134,
1.125589,-0.0607,0.6270,0.0061,-0.1376,0.0296,-0.0828,-39.0400,20.6302,-15.2134,
1.126448,-0.0607,0.6270,0.0061,-0.1376,0.0296,-0.0828,-39.0400,20.6302,-15.2134,
1.158210,-0.0074,-0.8703,0.0705,-0.1376,0.0296,-0.0828,-39.0400,20.6302,-15.2134,
1.160005,-0.0074,-0.8703,0.0705,0.0048,-0.0961,0.0249,-39.0400,20.6302,-15.2134,
1.166299,-0.0074,-0.8703,0.0705,0.0048,-0.0961,0.0249,-39.0888,20.6790,-15.1646,
1.190896,-0.0074,-0.8703,0.0705,0.0048,-0.0961,0.0249,-39.0888,20.6790,-15.1646,
1.192199,-0.0074,-0.8703,0.0705,0.0048,-0.0961,0.0249,-39.0888,20.6790,-15.1646,
1.192872,-0.0074,-0.8703,0.0705,0.0048,-0.0961,0.0249,-39.0888,20.6790,-15.1646,
1.228468,-0.0074,-0.8703,0.0705,0.0048,-0.0961,0.0249,-39.1498,20.6302,-15.1036,
1.230003,-0.0074,-0.8703,0.0705,-0.0229,-0.0177,-0.0312,-39.1498,20.6302,-15.1036,
1.231644,0.0842,0.2319,0.1094,-0.0229,-0.0177,-0.0312,-39.1498,20.6302,-15.1036,
1.258514,0.0842,0.2319,0.1094,-0.0229,-0.0177,-0.0312,-39.1498,20.6302,-15.1036,
1.260202,0.0842,0.2319,0.1094,-0.0229,-0.0177,-0.0312,-39.1498,20.6302,-15.1036,
1.261214,0.0842,0.2319,0.1094,-0.0229,-0.0177,-0.0312,-39.1498,20.6302,-15.1036,
1.262190,0.0842,0.2319,0.1094,-0.0229,-0.0177,-0.0312,-39.1498,20.6302,-15.1036,
1.287804,0.0842,0.2319,0.1094,-0.0229,-0.0177,-0.0312,-39.2108,20.6302,-15.0426,
1.297371,0.0842,0.2319,0.1094,0.0197,-0.0068,-0.0049,-39.2108,20.6302,-15.0426,
1.298784,0.1371,-0.0548,-0.0087,0.0197,-0.0068,-0.0049,-39.2108,20.6302,-15.0426,
1.325064,0.1371,-0.0548,-0.0087,0.0197,-0.0068,-0.0049,-39.2108,20.6302,-15.0426,
1.326304,0.1371,-0.0548,-0.0087,0.0197,-0.0068,-0.0049,-39.2108,20.6302,-15.0426,
1.327083,0.1371,-0.0548,-0.0087,0.0197,-0.0068,-0.0049,-39.2108,20.6302,-15.0426,
1.346663,0.1371,-0.0548,-0.0087,0.0197,-0.0068,-0.0049,-39.2474,20.5814,-14.9694,
1.366499,0.0460,0.0124,-0.0018,0.0197,-0.0068,-0.0049,-39.2474,20.5814,-14.9694,
1.368321,0.0460,0.0124,-0.0018,0.0372,0.0104,-0.0035,-39.2474,20.5814,-14.9694,
1.390657,0.0460,0.0124,-0.0018,0.0372,0.0104,-0.0035,-39.2474,20.5814,-14.9694,
1.391835,0.0460,0.0124,-0.0018,0.0372,0.0104,-0.0035,-39.2474,20.5814,-14.9694,
1.392517,0.0460,0.0124,-0.0018,0.0372,0.0104,-0.0035,-39.2474,20.5814,-14.9694,
1.402134,0.0460,0.0124,-0.0018,0.0372,0.0104,-0.0035,-39.2840,20.5570,-14.8352,
1.437123,0.0460,0.0124,-0.0018,0.0234,-0.0059,-0.0057,-39.2840,20.5570,-14.8352,
1.438870,0.0389,0.0131,-0.0107,0.0234,-0.0059,-0.0057,-39.2840,20.5570,-14.8352,
1.457975,0.0389,0.0131,-0.0107,0.0234,-0.0059,-0.0057,-39.2840,20.5570,-14.8352,
1.459391,0.0389,0.0131,-0.0107,0.0234,-0.0059,-0.0057,-39.2840,20.5570,-14.8352,
1.460244,0.0389,0.0131,-0.0107,0.0234,-0.0059,-0.0057,-39.2840,20.5570,-14.8352,
1.461063,0.0389,0.0131,-0.0107,0.0234,-0.0059,-0.0057,-39.2840,20.5570,-14.8352,
1.467430,0.0389,0.0131,-0.0107,0.0234,-0.0059,-0.0057,-39.2718,20.4838,-14.6766,
1.507446,0.0389,0.0131,-0.0107,0.0005,-0.0290,-0.0072,-39.2718,20.4838,-14.6766,
1.509437,-0.0543,0.0312,-0.0389,0.0005,-0.0290,-0.0072,-39.2718,20.4838,-14.6766,
1.524952,-0.0543,0.0312,-0.0389,0.0005,-0.0290,-0.0072,-39.2962,20.3862,-14.5546,
1.526375,-0.0543,0.0312,-0.0389,0.0005,-0.0290,-0.0072,-39.2962,20.3862,-14.5546,
1.527277,-0.0543,0.0312,-0.0389,0.0005,-0.0290,-0.0072,-39.2962,20.3862,-14.5546,
1.528142,-0.0543,0.0312,-0.0389,0.0005,-0.0290,-0.0072,-39.2962,20.3862,-14.5546,
1.576722,-0.0543,0.0312,-0.0389,-0.0337,-0.0407,-0.0282,-39.2962,20.3862,-14.5546,
1.578787,-0.0283,0.0683,0.0982,-0.0337,-0.0407,-0.0282,-39.2962,20.3862,-14.5546,
1.589849,-0.0283,0.0683,0.0982,-0.0337,-0.0407,-0.0282,-39.3450,20.3740,-14.5180,
1.591457,-0.0283,0.0683,0.0982,-0.0337,-0.0407,-0.0282,-39.3450,20.3740,-14.5180,
1.592566,-0.0283,0.0683,0.0982,-0.0337,-0.0407,-0.0282,-39.3450,20.3740,-14.5180,
1.593511,-0.0283,0.0683,0.0982,-0.0337,-0.0407,-0.0282,-39.3450,20.3740,-14.5180,
1.646728,-0.0283,0.0683,0.0982,-0.0337,-0.0407,-0.0282,-39.3938,20.2886,-14.4692,
1.648866,-0.0283,0.0683,0.0982,-0.0381,-0.0027,-0.0340,-39.3938,20.2886,-14.4692,
1.650430,-0.0969,-0.0851,0.0846,-0.0381,-0.0027,-0.0340,-39.3938,20.2886,-14.4692,
1.656316,-0.0969,-0.0851,0.0846,-0.0381,-0.0027,-0.0340,-39.3938,20.2886,-14.4692,
1.657506,-0.0969,-0.0851,0.0846,-0.0381,-0.0027,-0.0340,-39.3938,20.2886,-14.4692,
1.658522,-0.0969,-0.0851,0.0846,-0.0381,-0.0027,-0.0340,-39.3938,20.2886,-14.4692,
1.659578,-0.0969,-0.0851,0.0846,-0.0381,-0.0027,-0.0340,-39.3938,20.2886,-14.4692,
1.707803,-0.0969,-0.0851,0.0846,-0.0381,-0.0027,-0.0340,-39.4060,20.2886,-14.4814,
1.716442,0.0581,-0.0943,0.1887,-0.0381,-0.0027,-0.0340,-39.4060,20.2886,-14.4814,
1.717864,0.0581,-0.0943,0.1887,-0.0531,0.0547,-0.0269,-39.4060,20.2886,-14.4814,
1.727705,0.0581,-0.0943,0.1887,-0.0531,0.0547,-0.0269,-39.4060,20.2886,-14.4814,
1.728547,0.0581,-0.0943,0.1887,-0.0531,0.0547,-0.0269,-39.4060,20.2886,-14.4814,
1.729045,0.0581,-0.0943,0.1887,-0.0531,0.0547,-0.0269,-39.4060,20.2886,-14.4814,
1.765925,0.0581,-0.0943,0.1887,-0.0531,0.0547,-0.0269,-39.4060,20.2642,-14.4936,
1.785675,0.0581,-0.0943,0.1887,-0.0980,0.0346,-0.0109,-39.4060,20.2642,-14.4936,
1.787113,0.0026,0.1058,0.0877,-0.0980,0.0346,-0.0109,-39.4060,20.2642,-14.4936,
1.789483,0.0026,0.1058,0.0877,-0.0980,0.0346,-0.0109,-39.4060,20.2642,-14.4936,
1.790403,0.0026,0.1058,0.0877,-0.0980,0.0346,-0.0109,-39.4060,20.2642,-14.4936,
1.791315,0.0026,0.1058,0.0877,-0.0980,0.0346,-0.0109,-39.4060,20.2642,-14.4936,
1.824719,0.0026,0.1058,0.0877,-0.0980,0.0346,-0.0109,-39.4182,20.1910,-14.4448,
1.854678,0.0026,0.1058,0.0877,-0.1105,0.0160,-0.0097,-39.4182,20.1910,-14.4448,
1.856370,-0.0909,-0.0229,0.1566,-0.1105,0.0160,-0.0097,-39.4182,20.1910,-14.4448,
1.857386,-0.0909,-0.0229,0.1566,-0.1105,0.0160,-0.0097,-39.4182,20.1910,-14.4448,
1.858260,-0.0909,-0.0229,0.1566,-0.1105,0.0160,-0.0097,-39.4182,20.1910,-14.4448,
1.859112,-0.0909,-0.0229,0.1566,-0.1105,0.0160,-0.0097,-39.4182,20.1910,-14.4448,
1.860055,-0.0909,-0.0229,0.1566,-0.1105,0.0160,-0.0097,-39.4182,20.1910,-14.4448,
1.887028,-0.0909,-0.0229,0.1566,-0.1105,0.0160,-0.0097,-39.4304,20.1910,-14.4448,
1.924176,-0.0909,-0.0229,0.1566,-0.1621,-0.0003,-0.0377,-39.4304,20.1910,-14.4448,
1.926124,-0.0909,-0.0229,0.1566,-0.1621,-0.0003,-0.0377,-39.4304,20.1910,-14.4448,
1.927130,-0.0909,-0.0229,0.1566,-0.1621,-0.0003,-0.0377,-39.4304,20.1910,-14.4448,
1.928305,-0.0909,-0.0229,0.1566,-0.1621,-0.0003,-0.0377,-39.4304,20.1910,-14.4448,
1.929262,-0.1013,-0.0235,0.2210,-0.1621,-0.0003,-0.0377,-39.4304,20.1910,-14.4448,
1.944053,-0.1013,-0.0235,0.2210,-0.1621,-0.0003,-0.0377,-39.4914,20.2276,-14.5058,
1.990697,-0.1013,-0.0235,0.2210,-0.1621,-0.0003,-0.0377,-39.4914,20.2276,-14.5058,
1.992625,-0.1013,-0.0235,0.2210,-0.1621,-0.0003,-0.0377,-39.4914,20.2276,-14.5058,
1.993618,-0.1013,-0.0235,0.2210,-0.1621,-0.0003,-0.0377,-39.4914,20.2276,-14.5058,
1.994636,-0.1013,-0.0235,0.2210,-0.1895,-0.0553,-0.0498,-39.4914,20.2276,-14.5058,
1.996056,-0.2203,-0.0200,0.3528,-0.1895,-0.0553,-0.0498,-39.4914,20.2276,-14.5058,
2.003537,-0.2203,-0.0200,0.3528,-0.1895,-0.0553,-0.0498,-39.5280,20.2886,-14.5302,
2.057500,-0.2203,-0.0200,0.3528,-0.1895,-0.0553,-0.0498,-39.5280,20.2886,-14.5302,
2.059372,-0.2203,-0.0200,0.3528,-0.1895,-0.0553,-0.0498,-39.5280,20.2886,-14.5302,
2.060453,-0.2203,-0.0200,0.3528,-0.1895,-0.0553,-0.0498,-39.5280,20.2886,-14.5302,
2.061375,-0.2203,-0.0200,0.3528,-0.1895,-0.0553,-0.0498,-39.5280,20.2886,-14.5302,
2.065730,-0.2203,-0.0200,0.3528,-0.1895,-0.0553,-0.0498,-39.5280,20.2642,-14.3472,
2.067072,-0.2203,-0.0200,0.3528,-0.1650,-0.0979,-0.0794,-39.5280,20.2642,-14.3472,
2.068510,-0.1129,-0.1820,0.4438,-0.1650,-0.0979,-0.0794,-39.5280,20.2642,-14.3472,
2.125224,-0.1129,-0.1820,0.4438,-0.1650,-0.0979,-0.0794,-39.5646,20.2398,-14.2252,
2.127283,-0.1129,-0.1820,0.4438,-0.1650,-0.0979,-0.0794,-39.5646,20.2398,-14.2252,
2.128331,-0.1129,-0.1820,0.4438,-0.1650,-0.0979,-0.0794,-39.5646,20.2398,-14.2252,
2.129305,-0.1129,-0.1820,0.4438,-0.1650,-0.0979,-0.0794,-39.5646,20.2398,-14.2252,
2.134355,-0.1129,-0.1820,0.4438,-0.2210,-0.0921,-0.0951,-39.5646,20.2398,-14.2252,
2.136062,-0.2097,-0.1355,0.3514,-0.2210,-0.0921,-0.0951,-39.5646,20.2398,-14.2252,
2.183154,-0.2097,-0.1355,0.3514,-0.2210,-0.0921,-0.0951,-39.6134,20.1788,-14.0422,
2.189301,-0.2097,-0.1355,0.3514,-0.2210,-0.0921,-0.0951,-39.6134,20.1788,-14.0422,
2.190520,-0.2097,-0.1355,0.3514,-0.2210,-0.0921,-0.0951,-39.6134,20.1788,-14.0422,
2.191674,-0.2097,-0.1355,0.3514,-0.2210,-0.0921,-0.0951,-39.6134,20.1788,-14.0422,
2.202888,-0.2097,-0.1355,0.3514,-0.2321,0.0640,-0.0663,-39.6134,20.1788,-14.0422,
2.204303,0.1232,0.0874,0.4409,-0.2321,0.0640,-0.0663,-39.6134,20.1788,-14.0422,
2.244366,0.1232,0.0874,0.4409,-0.2321,0.0640,-0.0663,-39.6622,20.0934,-13.8348,
2.257071,0.1232,0.0874,0.4409,-0.2321,0.0640,-0.0663,-39.6622,20.0934,-13.8348,
2.258270,0.1232,0.0874,0.4409,-0.2321,0.0640,-0.0663,-39.6622,20.0934,-13.8348,
2.259086,0.1232,0.0874,0.4409,-0.2321,0.0640,-0.0663,-39.6622,20.0934,-13.8348,
2.260102,0.1232,0.0874,0.4409,-0.2321,0.0640,-0.0663,-39.6622,20.0934,-13.8348,
2.275669,0.1232,0.0874,0.4409,-0.3131,0.1427,-0.0622,-39.6622,20.0934,-13.8348,
2.277251,0.1919,-0.1170,0.3302,-0.3131,0.1427,-0.0622,-39.6622,20.0934,-13.8348,
2.304110,0.1919,-0.1170,0.3302,-0.3131,0.1427,-0.0622,-39.6866,20.0690,-13.6762,
2.324152,0.1919,-0.1170,0.3302,-0.3131,0.1427,-0.0622,-39.6866,20.0690,-13.6762,
2.325485,0.1919,-0.1170,0.3302,-0.3131,0.1427,-0.0622,-39.6866,20.0690,-13.6762,
2.326304,0.1919,-0.1170,0.3302,-0.3131,0.1427,-0.0622,-39.6866,20.0690,-13.6762,
2.344427,0.1919,-0.1170,0.3302,-0.3633,0.0044,-0.1131,-39.6866,20.0690,-13.6762,
2.345887,-0.1796,0.0750,0.4853,-0.3633,0.0044,-0.1131,-39.6866,20.0690,-13.6762,
2.364886,-0.1796,0.0750,0.4853,-0.3633,0.0044,-0.1131,-39.7110,20.0324,-13.5664,
2.392236,-0.1796,0.0750,0.4853,-0.3633,0.0044,-0.1131,-39.7110,20.0324,-13.5664,
2.393715,-0.1796,0.0750,0.4853,-0.3633,0.0044,-0.1131,-39.7110,20.0324,-13.5664,
2.394513,-0.1796,0.0750,0.4853,-0.3633,0.0044,-0.1131,-39.7110,20.0324,-13.5664,
2.414566,-0.1796,0.0750,0.4853,-0.2180,-0.1075,-0.2089,-39.7110,20.0324,-13.5664,
2.418705,-0.5788,-0.3162,0.2606,-0.2180,-0.1075,-0.2089,-39.7110,20.0324,-13.5664,
2.432284,-0.5788,-0.3162,0.2606,-0.2180,-0.1075,-0.2089,-39.7354,19.9348,-13.3956,
2.456807,-0.5788,-0.3162,0.2606,-0.2180,-0.1075,-0.2089,-39.7354,19.9348,-13.3956,
2.458404,-0.5788,-0.3162,0.2606,-0.2180,-0.1075,-0.2089,-39.7354,19.9348,-13.3956,
2.459938,-0.5788,-0.3162,0.2606,-0.2180,-0.1075,-0.2089,-39.7354,19.9348,-13.3956,
2.461023,-0.5788,-0.3162,0.2606,-0.2180,-0.1075,-0.2089,-39.7354,19.9348,-13.3956,
2.484617,-0.5788,-0.3162,0.2606,-0.2180,-0.1075,-0.2089,-39.8086,19.7640,-13.1882,
2.489207,-0.5788,-0.3162,0.2606,-0.3184,-0.1430,-0.1188,-39.8086,19.7640,-13.1882,
2.492839,-0.3660,-0.2652,0.4284,-0.3184,-0.1430,-0.1188,-39.8086,19.7640,-13.1882,
2.524906,-0.3660,-0.2652,0.4284,-0.3184,-0.1430,-0.1188,-39.8086,19.7640,-13.1882,
2.528558,-0.3660,-0.2652,0.4284,-0.3184,-0.1430,-0.1188,-39.8086,19.7640,-13.1882,
2.531091,-0.3660,-0.2652,0.4284,-0.3184,-0.1430,-0.1188,-39.8086,19.7640,-13.1882,
2.545235,-0.3660,-0.2652,0.4284,-0.3184,-0.1430,-0.1188,-39.9062,19.6176,-12.9930,
2.553472,-0.3660,-0.2652,0.4284,-0.3354,-0.0116,-0.0563,-39.9062,19.6176,-12.9930,
2.555579,0.1590,0.0599,0.8287,-0.3354,-0.0116,-0.0563,-39.9062,19.6176,-12.9930,
2.590123,0.1590,0.0599,0.8287,-0.3354,-0.0116,-0.0563,-39.9062,19.6176,-12.9930,
2.591032,0.1590,0.0599,0.8287,-0.3354,-0.0116,-0.0563,-39.9062,19.6176,-12.9930,
2.591458,0.1590,0.0599,0.8287,-0.3354,-0.0116,-0.0563,-39.9062,19.6176,-12.9930,
2.600940,0.1590,0.0599,0.8287,-0.3354,-0.0116,-0.0563,-39.9062,19.4468,-12.7856,
2.620864,0.1590,0.0599,0.8287,-0.3891,0.1317,-0.0457,-39.9062,19.4468,-12.7856,
2.621865,0.1082,0.3042,1.0642,-0.3891,0.1317,-0.0457,-39.9062,19.4468,-12.7856,
2.656441,0.1082,0.3042,1.0642,-0.3891,0.1317,-0.0457,-39.9062,19.4468,-12.7856,
2.657751,0.1082,0.3042,1.0642,-0.3891,0.1317,-0.0457,-39.9062,19.4468,-12.7856,
2.658636,0.1082,0.3042,1.0642,-0.3891,0.1317,-0.0457,-39.9062,19.4468,-12.7856,
2.659610,0.1082,0.3042,1.0642,-0.3891,0.1317,-0.0457,-39.9062,19.4468,-12.7856,
2.672470,0.1082,0.3042,1.0642,-0.3891,0.1317,-0.0457,-39.9550,19.3126,-12.6880,
2.692572,0.1082,0.3042,1.0642,-0.4551,0.1546,-0.0414,-39.9550,19.3126,-12.6880,
2.694047,0.1204,0.2442,1.1847,-0.4551,0.1546,-0.0414,-39.9550,19.3126,-12.6880,
2.724639,0.1204,0.2442,1.1847,-0.4551,0.1546,-0.0414,-39.9550,19.3126,-12.6880,
2.725948,0.1204,0.2442,1.1847,-0.4551,0.1546,-0.0414,-39.9550,19.3126,-12.6880,
2.726788,0.1204,0.2442,1.1847,-0.4551,0.1546,-0.0414,-39.9550,19.3126,-12.6880,
2.730951,0.1204,0.2442,1.1847,-0.4551,0.1546,-0.0414,-39.9916,19.1784,-12.6148,
2.762562,0.1204,0.2442,1.1847,-0.6707,0.7276,-0.2583,-39.9916,19.1784,-12.6148,
2.764301,-0.1860,1.7175,1.0226,-0.6707,0.7276,-0.2583,-39.9916,19.1784,-12.6148,
2.791722,-0.1860,1.7175,1.0226,-0.6707,0.7276,-0.2583,-39.9550,18.9588,-12.7246,
2.793409,-0.1860,1.7175,1.0226,-0.6707,0.7276,-0.2583,-39.9550,18.9588,-12.7246,
2.794401,-0.1860,1.7175,1.0226,-0.6707,0.7276,-0.2583,-39.9550,18.9588,-12.7246,
2.795354,-0.1860,1.7175,1.0226,-0.6707,0.7276,-0.2583,-39.9550,18.9588,-12.7246,
2.796190,-0.1860,1.7175,1.0226,-0.6707,0.7276,-0.2583,-39.9550,18.9588,-12.7246,
2.834150,-0.1860,1.7175,1.0226,-0.4972,1.7505,-0.1582,-39.9550,18.9588,-12.7246,
2.836418,1.3147,2.1735,0.3142,-0.4972,1.7505,-0.1582,-39.9550,18.9588,-12.7246,
2.852599,1.3147,2.1735,0.3142,-0.4972,1.7505,-0.1582,-39.6988,18.7270,-13.2980,
2.857547,1.3147,2.1735,0.3142,-0.4972,1.7505,-0.1582,-39.6988,18.7270,-13.2980,
2.858523,1.3147,2.1735,0.3142,-0.4972,1.7505,-0.1582,-39.6988,18.7270,-13.2980,
2.859410,1.3147,2.1735,0.3142,-0.4972,1.7505,-0.1582,-39.6988,18.7270,-13.2980,
2.902188,1.3147,2.1735,0.3142,-0.6983,1.7257,-0.1314,-39.6988,18.7270,-13.2980,
2.904049,-0.1992,1.4753,2.3398,-0.6983,1.7257,-0.1314,-39.6988,18.7270,-13.2980,
2.910290,-0.1992,1.4753,2.3398,-0.6983,1.7257,-0.1314,-39.1864,18.6050,-14.3350,
2.923797,-0.1992,1.4753,2.3398,-0.6983,1.7257,-0.1314,-39.1864,18.6050,-14.3350,
2.924928,-0.1992,1.4753,2.3398,-0.6983,1.7257,-0.1314,-39.1864,18.6050,-14.3350,
2.925722,-0.1992,1.4753,2.3398,-0.6983,1.7257,-0.1314,-39.1864,18.6050,-14.3350,
2.970584,-0.1992,1.4753,2.3398,-0.6983,1.7257,-0.1314,-38.3568,18.6538,-15.7868,
2.972659,-0.1992,1.4753,2.3398,-1.0590,1.1880,-0.2751,-38.3568,18.6538,-15.7868,
2.973750,-2.6370,3.1251,3.1101,-1.0590,1.1880,-0.2751,-38.3568,18.6538,-15.7868,
2.990754,-2.6370,3.1251,3.1101,-1.0590,1.1880,-0.2751,-38.3568,18.6538,-15.7868,
2.991938,-2.6370,3.1251,3.1101,-1.0590,1.1880,-0.2751,-38.3568,18.6538,-15.7868,
2.992758,-2.6370,3.1251,3.1101,-1.0590,1.1880,-0.2751,-38.3568,18.6538,-15.7868,
2.993582,-2.6370,3.1251,3.1101,-1.0590,1.1880,-0.2751,-38.3568,18.6538,-15.7868,
3.030556,-2.6370,3.1251,3.1101,-1.0590,1.1880,-0.2751,-37.5150,18.9466,-16.9946,
3.039956,-2.6370,3.1251,3.1101,-5.9652,-3.4716,-1.5675,-37.5150,18.9466,-16.9946,
3.041460,-2.6945,5.3490,0.0985,-5.9652,-3.4716,-1.5675,-37.5150,18.9466,-16.9946,
3.056161,-2.6945,5.3490,0.0985,-5.9652,-3.4716,-1.5675,-37.5150,18.9466,-16.9946,
3.057529,-2.6945,5.3490,0.0985,-5.9652,-3.4716,-1.5675,-37.5150,18.9466,-16.9946,
3.058462,-2.6945,5.3490,0.0985,-5.9652,-3.4716,-1.5675,-37.5150,18.9466,-16.9946,
3.092247,-2.6945,5.3490,0.0985,-5.9652,-3.4716,-1.5675,-37.2710,19.6298,-16.2626,
3.111494,-2.6945,5.3490,0.0985,-4.0376,-2.2476,-1.2998,-37.2710,19.6298,-16.2626,
3.117077,1.0086,-4.8608,-22.6013,-4.0376,-2.2476,-1.2998,-37.2710,19.6298,-16.2626,
3.134742,1.0086,-4.8608,-22.6013,-4.0376,-2.2476,-1.2998,-37.2710,19.6298,-16.2626,
3.136694,1.0086,-4.8608,-22.6013,-4.0376,-2.2476,-1.2998,-37.2710,19.6298,-16.2626,
3.138126,1.0086,-4.8608,-22.6013,-4.0376,-2.2476,-1.2998,-37.2710,19.6298,-16.2626,
3.149566,1.0086,-4.8608,-22.6013,-4.0376,-2.2476,-1.2998,-37.2222,19.8128,-14.2496,
3.180494,1.0086,-4.8608,-22.6013,-3.0367,-2.6187,-0.6951,-37.2222,19.8128,-14.2496,
3.182543,11.6103,-14.6788,4.1425,-3.0367,-2.6187,-0.6951,-37.2222,19.8128,-14.2496,
3.191440,11.6103,-14.6788,4.1425,-3.0367,-2.6187,-0.6951,-37.2222,19.8128,-14.2496,
3.192939,11.6103,-14.6788,4.1425,-3.0367,-2.6187,-0.6951,-37.2222,19.8128,-14.2496,
3.194164,11.6103,-14.6788,4.1425,-3.0367,-2.6187,-0.6951,-37.2222,19.8128,-14.2496,
3.196434,11.6103,-14.6788,4.1425,-3.0367,-2.6187,-0.6951,-37.2222,19.8128,-14.2496,
3.209571,11.6103,-14.6788,4.1425,-3.0367,-2.6187,-0.6951,-37.2710,19.5688,-11.0532,
3.251902,11.6103,-14.6788,4.1425,-1.1120,-4.2247,-0.9507,-37.2710,19.5688,-11.0532,
3.258741,-4.0479,-2.1432,4.2522,-1.1120,-4.2247,-0.9507,-37.2710,19.5688,-11.0532,
3.262325,-4.0479,-2.1432,4.2522,-1.1120,-4.2247,-0.9507,-37.2710,19.5688,-11.0532,
3.264765,-4.0479,-2.1432,4.2522,-1.1120,-4.2247,-0.9507,-37.2710,19.5688,-11.0532,
3.266211,-4.0479,-2.1432,4.2522,-1.1120,-4.2247,-0.9507,-37.2710,19.5688,-11.0532,
3.277422,-4.0479,-2.1432,4.2522,-1.1120,-4.2247,-0.9507,-36.8928,18.7514,-6.4782,
3.319958,6.7653,1.8938,1.5609,-1.1120,-4.2247,-0.9507,-36.8928,18.7514,-6.4782,
3.324435,6.7653,1.8938,1.5609,0.0083,-0.1517,-0.1979,-36.8928,18.7514,-6.4782,
3.326203,6.7653,1.8938,1.5609,0.0083,-0.1517,-0.1979,-36.8928,18.7514,-6.4782,
3.328173,6.7653,1.8938,1.5609,0.0083,-0.1517,-0.1979,-36.8928,18.7514,-6.4782,
3.329713,6.7653,1.8938,1.5609,0.0083,-0.1517,-0.1979,-36.8928,18.7514,-6.4782,
3.331203,6.7653,1.8938,1.5609,0.0083,-0.1517,-0.1979,-36.6610,17.7510,-1.1834,
3.394303,6.7653,1.8938,1.5609,0.0083,-0.1517,-0.1979,-36.9904,16.9458,4.0016,
3.398616,6.7653,1.8938,1.5609,0.9344,0.9241,0.4553,-36.9904,16.9458,4.0016,
3.402305,6.7653,1.8938,1.5609,0.9344,0.9241,0.4553,-36.9904,16.9458,4.0016,
3.404635,6.7653,1.8938,1.5609,0.9344,0.9241,0.4553,-36.9904,16.9458,4.0016,
3.406331,6.7653,1.8938,1.5609,0.9344,0.9241,0.4553,-36.9904,16.9458,4.0016,
3.407802,6.7653,1.8938,1.5609,0.9344,0.9241,0.4553,-36.9904,16.9458,4.0016,
3.408700,2.8993,3.9985,0.9125,0.9344,0.9241,0.4553,-36.9904,16.9458,4.0016,
3.451749,2.8993,3.9985,0.9125,0.9344,0.9241,0.4553,-37.6614,16.2016,9.2720,
3.457105,2.8993,3.9985,0.9125,0.9344,0.9241,0.4553,-37.6614,16.2016,9.2720,
3.458919,2.8993,3.9985,0.9125,0.9344,0.9241,0.4553,-37.6614,16.2016,9.2720,
3.460666,2.8993,3.9985,0.9125,0.9344,0.9241,0.4553,-37.6614,16.2016,9.2720,
3.462382,2.8993,3.9985,0.9125,-0.3723,0.6683,1.1393,-37.6614,16.2016,9.2720,
3.465858,-6.0253,6.9392,-2.9069,-0.3723,0.6683,1.1393,-37.6614,16.2016,9.2720,
3.510598,-6.0253,6.9392,-2.9069,-0.3723,0.6683,1.1393,-38.2958,15.4086,14.0178,
3.524722,-6.0253,6.9392,-2.9069,-0.3723,0.6683,1.1393,-38.2958,15.4086,14.0178,
3.527924,-6.0253,6.9392,-2.9069,-0.3723,0.6683,1.1393,-38.2958,15.4086,14.0178,
3.530152,-6.0253,6.9392,-2.9069,-0.3723,0.6683,1.1393,-38.2958,15.4086,14.0178,
3.532377,-6.0253,6.9392,-2.9069,-0.4718,1.2204,0.7577,-38.2958,15.4086,14.0178,
3.535131,-4.0058,7.4928,-5.5487,-0.4718,1.2204,0.7577,-38.2958,15.4086,14.0178,
3.570070,-4.0058,7.4928,-5.5487,-0.4718,1.2204,0.7577,-38.4422,14.3838,16.5188,
3.604856,-4.0058,7.4928,-5.5487,-0.1944,0.8136,0.5190,-38.4422,14.3838,16.5188,
3.608566,-4.0058,7.4928,-5.5487,-0.1944,0.8136,0.5190,-38.4422,14.3838,16.5188,
3.610657,-4.0058,7.4928,-5.5487,-0.1944,0.8136,0.5190,-38.4422,14.3838,16.5188,
3.612262,-4.0058,7.4928,-5.5487,-0.1944,0.8136,0.5190,-38.4422,14.3838,16.5188,
3.613384,-4.0058,7.4928,-5.5487,-0.1944,0.8136,0.5190,-38.4422,14.3838,16.5188,
3.614494,-2.6354,2.0225,-1.1422,-0.1944,0.8136,0.5190,-38.4422,14.3838,16.5188,
3.629050,-2.6354,2.0225,-1.1422,-0.1944,0.8136,0.5190,-38.3568,13.9690,17.6168,
3.658001,-2.6354,2.0225,-1.1422,-0.1944,0.8136,0.5190,-38.3568,13.9690,17.6168,
3.661815,-2.6354,2.0225,-1.1422,-0.1944,0.8136,0.5190,-38.3568,13.9690,17.6168,
3.664037,-2.6354,2.0225,-1.1422,-0.1944,0.8136,0.5190,-38.3568,13.9690,17.6168,
3.669770,-1.6328,-0.0737,1.6179,-0.1944,0.8136,0.5190,-38.3568,13.9690,17.6168,
3.673053,-1.6328,-0.0737,1.6179,-0.0320,0.2509,0.3951,-38.3568,13.9690,17.6168,
3.689809,-1.6328,-0.0737,1.6179,-0.0320,0.2509,0.3951,-38.1372,14.0788,17.5314,
3.725115,-1.6328,-0.0737,1.6179,-0.0320,0.2509,0.3951,-38.1372,14.0788,17.5314,
3.728457,-1.6328,-0.0737,1.6179,-0.0320,0.2509,0.3951,-38.1372,14.0788,17.5314,
3.730526,-1.6328,-0.0737,1.6179,-0.0320,0.2509,0.3951,-38.1372,14.0788,17.5314,
3.739904,-1.6328,-0.0737,1.6179,0.0533,-0.0226,0.1045,-38.1372,14.0788,17.5314,
3.743102,-0.4197,-0.2138,1.1367,0.0533,-0.0226,0.1045,-38.1372,14.0788,17.5314,
3.748240,-0.4197,-0.2138,1.1367,0.0533,-0.0226,0.1045,-38.4178,14.8962,16.2260,
3.792671,-0.4197,-0.2138,1.1367,0.0533,-0.0226,0.1045,-38.4178,14.8962,16.2260,
3.796249,-0.4197,-0.2138,1.1367,0.0533,-0.0226,0.1045,-38.4178,14.8962,16.2260,
3.798316,-0.4197,-0.2138,1.1367,0.0533,-0.0226,0.1045,-38.4178,14.8962,16.2260,
3.800391,-0.4197,-0.2138,1.1367,0.0533,-0.0226,0.1045,-38.4178,14.8962,16.2260,
3.808891,-0.4197,-0.2138,1.1367,0.0533,-0.0226,0.1045,-38.7594,15.9332,14.6156,
3.811712,-0.4197,-0.2138,1.1367,0.0824,0.0822,0.0286,-38.7594,15.9332,14.6156,
3.813650,0.6825,-0.1857,0.4182,0.0824,0.0822,0.0286,-38.7594,15.9332,14.6156,
3.857988,0.6825,-0.1857,0.4182,0.0824,0.0822,0.0286,-38.7594,15.9332,14.6156,
3.860650,0.6825,-0.1857,0.4182,0.0824,0.0822,0.0286,-38.7594,15.9332,14.6156,
3.862025,0.6825,-0.1857,0.4182,0.0824,0.0822,0.0286,-38.7594,15.9332,14.6156,
3.868543,0.6825,-0.1857,0.4182,0.0824,0.0822,0.0286,-38.7594,16.7262,13.4810,
3.878641,0.6825,-0.1857,0.4182,0.0814,0.0554,-0.0136,-38.7594,16.7262,13.4810,
3.882654,0.4776,-0.4330,0.5656,0.0814,0.0554,-0.0136,-38.7594,16.7262,13.4810,
3.925502,0.4776,-0.4330,0.5656,0.0814,0.0554,-0.0136,-38.7594,16.7262,13.4810,
3.928966,0.4776,-0.4330,0.5656,0.0814,0.0554,-0.0136,-38.7594,16.7262,13.4810,
3.931124,0.4776,-0.4330,0.5656,0.0814,0.0554,-0.0136,-38.7594,16.7262,13.4810,
3.933633,0.4776,-0.4330,0.5656,0.0814,0.0554,-0.0136,-38.6862,17.3362,12.6270,
3.946735,0.4776,-0.4330,0.5656,0.0470,-0.1017,-0.0482,-38.6862,17.3362,12.6270,
3.949247,-0.0024,-0.3838,0.5655,0.0470,-0.1017,-0.0482,-38.6862,17.3362,12.6270,
3.989327,-0.0024,-0.3838,0.5655,0.0470,-0.1017,-0.0482,-38.6252,17.7632,12.0292,
3.993771,-0.0024,-0.3838,0.5655,0.0470,-0.1017,-0.0482,-38.6252,17.7632,12.0292,
3.996624,-0.0024,-0.3838,0.5655,0.0470,-0.1017,-0.0482,-38.6252,17.7632,12.0292,
3.999454,-0.0024,-0.3838,0.5655,0.0470,-0.1017,-0.0482,-38.6252,17.7632,12.0292,
4.001768,-0.0024,-0.3838,0.5655,0.0470,-0.1017,-0.0482,-38.6252,17.7632,12.0292,
4.017964,-0.0024,-0.3838,0.5655,0.0013,-0.0719,-0.0558,-38.6252,17.7632,12.0292,
4.020789,-0.1560,-0.2525,0.0575,0.0013,-0.0719,-0.0558,-38.6252,17.7632,12.0292,
4.047611,-0.1560,-0.2525,0.0575,0.0013,-0.0719,-0.0558,-38.5276,18.0560,11.7242,
4.058582,-0.1560,-0.2525,0.0575,0.0013,-0.0719,-0.0558,-38.5276,18.0560,11.7242,
4.061602,-0.1560,-0.2525,0.0575,0.0013,-0.0719,-0.0558,-38.5276,18.0560,11.7242,
4.063972,-0.1560,-0.2525,0.0575,0.0013,-0.0719,-0.0558,-38.5276,18.0560,11.7242,
4.086803,-0.1560,-0.2525,0.0575,0.1000,0.1072,-0.0378,-38.5276,18.0560,11.7242,
4.090729,-0.1196,-0.2275,0.2730,0.1000,0.1072,-0.0378,-38.5276,18.0560,11.7242,
4.106682,-0.1196,-0.2275,0.2730,0.1000,0.1072,-0.0378,-38.4788,18.1780,11.6266,
4.124954,-0.1196,-0.2275,0.2730,0.1000,0.1072,-0.0378,-38.4788,18.1780,11.6266,
4.125954,-0.1196,-0.2275,0.2730,0.1000,0.1072,-0.0378,-38.4788,18.1780,11.6266,
4.126296,-0.1196,-0.2275,0.2730,0.1000,0.1072,-0.0378,-38.4788,18.1780,11.6266,
4.157842,-0.1196,-0.2275,0.2730,0.3670,0.7948,-0.0127,-38.4788,18.1780,11.6266,
4.159389,-0.2255,-0.1503,0.2258,0.3670,0.7948,-0.0127,-38.4788,18.1780,11.6266,
4.167129,-0.2255,-0.1503,0.2258,0.3670,0.7948,-0.0127,-38.4300,18.2024,11.4192,
4.192154,-0.2255,-0.1503,0.2258,0.3670,0.7948,-0.0127,-38.4300,18.2024,11.4192,
4.195918,-0.2255,-0.1503,0.2258,0.3670,0.7948,-0.0127,-38.4300,18.2024,11.4192,
4.198149,-0.2255,-0.1503,0.2258,0.3670,0.7948,-0.0127,-38.4300,18.2024,11.4192,
4.200522,-0.2255,-0.1503,0.2258,0.3670,0.7948,-0.0127,-38.4300,18.2024,11.4192,
4.227812,-0.2255,-0.1503,0.2258,0.5743,0.8197,-0.1048,-38.4300,18.2024,11.4192,
4.232040,-0.2255,-0.1503,0.2258,0.5743,0.8197,-0.1048,-38.5154,18.2756,10.8336,
4.234416,-0.7324,0.2239,-1.1402,0.5743,0.8197,-0.1048,-38.5154,18.2756,10.8336,
4.258444,-0.7324,0.2239,-1.1402,0.5743,0.8197,-0.1048,-38.5154,18.2756,10.8336,
4.262358,-0.7324,0.2239,-1.1402,0.5743,0.8197,-0.1048,-38.5154,18.2756,10.8336,
4.265089,-0.7324,0.2239,-1.1402,0.5743,0.8197,-0.1048,-38.5154,18.2756,10.8336,
4.286800,-0.7324,0.2239,-1.1402,0.5743,0.8197,-0.1048,-38.6984,18.2756,10.1870,
4.296787,-0.7324,0.2239,-1.1402,-0.1164,-0.3181,-0.3651,-38.6984,18.2756,10.1870,
4.300308,-0.6485,2.5152,-2.6181,-0.1164,-0.3181,-0.3651,-38.6984,18.2756,10.1870,
4.323853,-0.6485,2.5152,-2.6181,-0.1164,-0.3181,-0.3651,-38.6984,18.2756,10.1870,
4.325965,-0.6485,2.5152,-2.6181,-0.1164,-0.3181,-0.3651,-38.6984,18.2756,10.1870,
4.328236,-0.6485,2.5152,-2.6181,-0.1164,-0.3181,-0.3651,-38.6984,18.2756,10.1870,
4.346200,-0.6485,2.5152,-2.6181,-0.1164,-0.3181,-0.3651,-38.8204,18.1658,9.9430,
4.365851,-0.6485,2.5152,-2.6181,-0.2847,-0.4253,-0.2337,-38.8204,18.1658,9.9430,
4.369507,-0.6019,2.7410,-0.7300,-0.2847,-0.4253,-0.2337,-38.8204,18.1658,9.9430,
4.390297,-0.6019,2.7410,-0.7300,-0.2847,-0.4253,-0.2337,-38.8204,18.1658,9.9430,
4.394313,-0.6019,2.7410,-0.7300,-0.2847,-0.4253,-0.2337,-38.8204,18.1658,9.9430,
4.397837,-0.6019,2.7410,-0.7300,-0.2847,-0.4253,-0.2337,-38.8204,18.1658,9.9430,
4.400519,-0.6019,2.7410,-0.7300,-0.2847,-0.4253,-0.2337,-38.8204,18.1658,9.9430,
4.403619,-0.6019,2.7410,-0.7300,-0.2847,-0.4253,-0.2337,-38.9424,17.9950,9.9552,
4.437407,-0.6019,2.7410,-0.7300,-0.1093,-0.1057,-0.1615,-38.9424,17.9950,9.9552,
4.441736,0.7000,-0.3995,0.7566,-0.1093,-0.1057,-0.1615,-38.9424,17.9950,9.9552,
4.458075,0.7000,-0.3995,0.7566,-0.1093,-0.1057,-0.1615,-38.9424,17.9950,9.9552,
4.461846,0.7000,-0.3995,0.7566,-0.1093,-0.1057,-0.1615,-38.9424,17.9950,9.9552,
4.465320,0.7000,-0.3995,0.7566,-0.1093,-0.1057,-0.1615,-38.9424,17.9950,9.9552,
4.468311,0.7000,-0.3995,0.7566,-0.1093,-0.1057,-0.1615,-39.1254,17.8242,9.9674,
4.506998,0.7000,-0.3995,0.7566,0.0798,-0.4344,-0.1983,-39.1254,17.8242,9.9674,
4.510762,0.3297,0.6535,0.9858,0.0798,-0.4344,-0.1983,-39.1254,17.8242,9.9674,
4.533054,0.3297,0.6535,0.9858,0.0798,-0.4344,-0.1983,-39.1254,17.8242,9.9674,
4.535752,0.3297,0.6535,0.9858,0.0798,-0.4344,-0.1983,-39.1254,17.8242,9.9674,
4.537329,0.3297,0.6535,0.9858,0.0798,-0.4344,-0.1983,-39.1254,17.8242,9.9674,
4.538871,0.3297,0.6535,0.9858,0.0798,-0.4344,-0.1983,-39.2962,17.6534,10.0528,
4.540703,0.3297,0.6535,0.9858,0.0798,-0.4344,-0.1983,-39.2962,17.6534,10.0528,
4.575429,0.3297,0.6535,0.9858,0.1124,-0.6601,-0.2400,-39.2962,17.6534,10.0528,
4.577928,-0.5871,0.1493,1.7116,0.1124,-0.6601,-0.2400,-39.2962,17.6534,10.0528,
4.584871,-0.5871,0.1493,1.7116,0.1124,-0.6601,-0.2400,-39.3450,17.4582,10.3700,
4.590365,-0.5871,0.1493,1.7116,0.1124,-0.6601,-0.2400,-39.3450,17.4582,10.3700,
4.593208,-0.5871,0.1493,1.7116,0.1124,-0.6601,-0.2400,-39.3450,17.4582,10.3700,
4.595500,-0.5871,0.1493,1.7116,0.1124,-0.6601,-0.2400,-39.3450,17.4582,10.3700,
4.645970,-0.5871,0.1493,1.7116,0.1124,-0.6601,-0.2400,-39.4060,17.2508,11.0044,
4.649174,-0.5871,0.1493,1.7116,0.3099,-0.3469,-0.2153,-39.4060,17.2508,11.0044,
4.651027,1.5353,-0.1564,2.2939,0.3099,-0.3469,-0.2153,-39.4060,17.2508,11.0044,
4.657198,1.5353,-0.1564,2.2939,0.3099,-0.3469,-0.2153,-39.4060,17.2508,11.0044,
4.659922,1.5353,-0.1564,2.2939,0.3099,-0.3469,-0.2153,-39.4060,17.2508,11.0044,
4.661665,1.5353,-0.1564,2.2939,0.3099,-0.3469,-0.2153,-39.4060,17.2508,11.0044,
4.706382,1.5353,-0.1564,2.2939,0.3099,-0.3469,-0.2153,-39.4060,16.9214,12.1024,
4.716108,1.5353,-0.1564,2.2939,0.3691,-0.0541,-0.2981,-39.4060,16.9214,12.1024,
4.719085,1.2253,-0.8082,1.1869,0.3691,-0.0541,-0.2981,-39.4060,16.9214,12.1024,
4.726222,1.2253,-0.8082,1.1869,0.3691,-0.0541,-0.2981,-39.4060,16.9214,12.1024,
4.728620,1.2253,-0.8082,1.1869,0.3691,-0.0541,-0.2981,-39.4060,16.9214,12.1024,
4.730033,1.2253,-0.8082,1.1869,0.3691,-0.0541,-0.2981,-39.4060,16.9214,12.1024,
4.731470,1.2253,-0.8082,1.1869,0.3691,-0.0541,-0.2981,-39.4060,16.9214,12.1024,
4.765702,1.2253,-0.8082,1.1869,0.3691,-0.0541,-0.2981,-39.2962,16.6652,13.1638,
4.785806,1.2253,-0.8082,1.1869,0.5728,0.1975,-0.1498,-39.2962,16.6652,13.1638,
4.790501,0.5258,-1.4282,0.9150,0.5728,0.1975,-0.1498,-39.2962,16.6652,13.1638,
4.793432,0.5258,-1.4282,0.9150,0.5728,0.1975,-0.1498,-39.2962,16.6652,13.1638,
4.795909,0.5258,-1.4282,0.9150,0.5728,0.1975,-0.1498,-39.2962,16.6652,13.1638,
4.798748,0.5258,-1.4282,0.9150,0.5728,0.1975,-0.1498,-39.2962,16.6652,13.1638,
4.824310,0.5258,-1.4282,0.9150,0.5728,0.1975,-0.1498,-39.2962,16.5432,13.8836,
4.855505,0.5258,-1.4282,0.9150,0.5942,0.4401,-0.1658,-39.2962,16.5432,13.8836,
4.859161,0.5519,-2.0031,0.6329,0.5942,0.4401,-0.1658,-39.2962,16.5432,13.8836,
4.861789,0.5519,-2.0031,0.6329,0.5942,0.4401,-0.1658,-39.2962,16.5432,13.8836,
4.864236,0.5519,-2.0031,0.6329,0.5942,0.4401,-0.1658,-39.2962,16.5432,13.8836,
4.866224,0.5519,-2.0031,0.6329,0.5942,0.4401,-0.1658,-39.2962,16.5432,13.8836,
4.885387,0.5519,-2.0031,0.6329,0.5942,0.4401,-0.1658,-39.3450,16.5310,14.0910,
4.925939,0.5519,-2.0031,0.6329,0.4754,0.5812,0.0039,-39.3450,16.5310,14.0910,
4.930300,0.5519,-2.0031,0.6329,0.4754,0.5812,0.0039,-39.3450,16.5310,14.0910,
4.931921,0.5519,-2.0031,0.6329,0.4754,0.5812,0.0039,-39.3450,16.5310,14.0910,
4.932783,0.5519,-2.0031,0.6329,0.4754,0.5812,0.0039,-39.3450,16.5310,14.0910,
4.933760,0.5519,-2.0031,0.6329,0.4754,0.5812,0.0039,-39.3450,16.5310,14.0910,
4.934627,0.0749,-0.8288,0.8784,0.4754,0.5812,0.0039,-39.3450,16.5310,14.0910,
4.944806,0.0749,-0.8288,0.8784,0.4754,0.5812,0.0039,-39.4182,16.5920,14.1276,
4.991990,0.0749,-0.8288,0.8784,0.4754,0.5812,0.0039,-39.4182,16.5920,14.1276,
4.993354,0.0749,-0.8288,0.8784,0.4754,0.5812,0.0039,-39.4182,16.5920,14.1276,
4.993839,0.0749,-0.8288,0.8784,0.4754,0.5812,0.0039,-39.4182,16.5920,14.1276,
4.996117,0.0749,-0.8288,0.8784,0.3694,0.6434,0.0595,-39.4182,16.5920,14.1276,
4.997004,-0.2018,-0.3806,0.5595,0.3694,0.6434,0.0595,-39.4182,16.5920,14.1276,
5.002750,-0.2018,-0.3806,0.5595,0.3694,0.6434,0.0595,-39.5036,16.6652,13.8958,
5.057735,-0.2018,-0.3806,0.5595,0.3694,0.6434,0.0595,-39.5036,16.6652,13.8958,
5.059055,-0.2018,-0.3806,0.5595,0.3694,0.6434,0.0595,-39.5036,16.6652,13.8958,
5.059665,-0.2018,-0.3806,0.5595,0.3694,0.6434,0.0595,-39.5036,16.6652,13.8958,
5.061918,-0.2018,-0.3806,0.5595,0.3694,0.6434,0.0595,-39.6134,16.8482,13.2614,
5.062795,-0.2018,-0.3806,0.5595,0.3068,0.5068,0.1230,-39.6134,16.8482,13.2614,
5.063617,-0.5933,0.0510,0.6399,0.3068,0.5068,0.1230,-39.6134,16.8482,13.2614,
5.126284,-0.5933,0.0510,0.6399,0.3068,0.5068,0.1230,-39.7964,17.1898,12.3098,
5.129320,-0.5933,0.0510,0.6399,0.3068,0.5068,0.1230,-39.7964,17.1898,12.3098,
5.130444,-0.5933,0.0510,0.6399,0.3068,0.5068,0.1230,-39.7964,17.1898,12.3098,
5.131523,-0.5933,0.0510,0.6399,0.3068,0.5068,0.1230,-39.7964,17.1898,12.3098,
5.132633,-0.5933,0.0510,0.6399,0.3068,0.5068,0.1230,-39.7964,17.1898,12.3098,
5.133622,-0.5933,0.0510,0.6399,0.2917,0.6707,0.1338,-39.7964,17.1898,12.3098,
5.134949,-0.5536,0.1202,0.3170,0.2917,0.6707,0.1338,-39.7964,17.1898,12.3098,
5.184634,-0.5536,0.1202,0.3170,0.2917,0.6707,0.1338,-39.9916,17.6290,10.9800,
5.190129,-0.5536,0.1202,0.3170,0.2917,0.6707,0.1338,-39.9916,17.6290,10.9800,
5.192012,-0.5536,0.1202,0.3170,0.2917,0.6707,0.1338,-39.9916,17.6290,10.9800,
5.193842,-0.5536,0.1202,0.3170,0.2917,0.6707,0.1338,-39.9916,17.6290,10.9800,
5.202645,-0.5536,0.1202,0.3170,0.3358,0.8693,0.2521,-39.9916,17.6290,10.9800,
5.204901,0.2608,0.2101,0.0896,0.3358,0.8693,0.2521,-39.9916,17.6290,10.9800,
5.245171,0.2608,0.2101,0.0896,0.3358,0.8693,0.2521,-40.1380,18.1780,9.5282,
5.257252,0.2608,0.2101,0.0896,0.3358,0.8693,0.2521,-40.1380,18.1780,9.5282,
5.258447,0.2608,0.2101,0.0896,0.3358,0.8693,0.2521,-40.1380,18.1780,9.5282,
5.259393,0.2608,0.2101,0.0896,0.3358,0.8693,0.2521,-40.1380,18.1780,9.5282,
5.272386,0.2608,0.2101,0.0896,0.2852,0.6389,0.3955,-40.1380,18.1780,9.5282,
5.274172,0.0149,-0.2883,0.0614,0.2852,0.6389,0.3955,-40.1380,18.1780,9.5282,
5.303883,0.0149,-0.2883,0.0614,0.2852,0.6389,0.3955,-40.2356,18.8490,7.9422,
5.325243,0.0149,-0.2883,0.0614,0.2852,0.6389,0.3955,-40.2356,18.8490,7.9422,
5.328035,0.0149,-0.2883,0.0614,0.2852,0.6389,0.3955,-40.2356,18.8490,7.9422,
5.330360,0.0149,-0.2883,0.0614,0.2852,0.6389,0.3955,-40.2356,18.8490,7.9422,
5.332778,0.0149,-0.2883,0.0614,0.2852,0.6389,0.3955,-40.2356,18.8490,7.9422,
5.344500,0.0149,-0.2883,0.0614,0.6831,0.3023,0.2079,-40.2356,18.8490,7.9422,
5.346035,-0.5969,-0.5051,-0.6389,0.6831,0.3023,0.2079,-40.2356,18.8490,7.9422,
5.364148,-0.5969,-0.5051,-0.6389,0.6831,0.3023,0.2079,-40.2112,19.5688,6.4416,
5.391182,-0.5969,-0.5051,-0.6389,0.6831,0.3023,0.2079,-40.2112,19.5688,6.4416,
5.393627,-0.5969,-0.5051,-0.6389,0.6831,0.3023,0.2079,-40.2112,19.5688,6.4416,
5.395382,-0.5969,-0.5051,-0.6389,0.6831,0.3023,0.2079,-40.2112,19.5688,6.4416,
5.414065,-0.5969,-0.5051,-0.6389,1.4141,0.1056,0.2036,-40.2112,19.5688,6.4416,
5.417130,-0.5336,-1.1316,-0.5054,1.4141,0.1056,0.2036,-40.2112,19.5688,6.4416,
5.433383,-0.5336,-1.1316,-0.5054,1.4141,0.1056,0.2036,-40.1258,20.3496,4.8434,
5.456940,-0.5336,-1.1316,-0.5054,1.4141,0.1056,0.2036,-40.1258,20.3496,4.8434,
5.459508,-0.5336,-1.1316,-0.5054,1.4141,0.1056,0.2036,-40.1258,20.3496,4.8434,
5.461217,-0.5336,-1.1316,-0.5054,1.4141,0.1056,0.2036,-40.1258,20.3496,4.8434,
5.483206,-0.5336,-1.1316,-0.5054,1.6184,0.0581,0.3232,-40.1258,20.3496,4.8434,
5.486305,0.2374,-0.9376,-0.5762,1.6184,0.0581,0.3232,-40.1258,20.3496,4.8434,
5.493058,0.2374,-0.9376,-0.5762,1.6184,0.0581,0.3232,-39.9428,21.2158,3.1842,
5.525120,0.2374,-0.9376,-0.5762,1.6184,0.0581,0.3232,-39.9428,21.2158,3.1842,
5.527740,0.2374,-0.9376,-0.5762,1.6184,0.0581,0.3232,-39.9428,21.2158,3.1842,
5.529501,0.2374,-0.9376,-0.5762,1.6184,0.0581,0.3232,-39.9428,21.2158,3.1842,
5.531167,0.2374,-0.9376,-0.5762,1.6184,0.0581,0.3232,-39.9428,21.2158,3.1842,
5.553606,0.2374,-0.9376,-0.5762,1.6184,0.0581,0.3232,-39.7598,22.1064,1.4274,
5.557380,0.2374,-0.9376,-0.5762,1.5866,0.0136,0.3687,-39.7598,22.1064,1.4274,
5.559663,0.2772,-0.2832,-0.3021,1.5866,0.0136,0.3687,-39.7598,22.1064,1.4274,
5.592502,0.2772,-0.2832,-0.3021,1.5866,0.0136,0.3687,-39.7598,22.1064,1.4274,
5.594825,0.2772,-0.2832,-0.3021,1.5866,0.0136,0.3687,-39.7598,22.1064,1.4274,
5.596621,0.2772,-0.2832,-0.3021,1.5866,0.0136,0.3687,-39.7598,22.1064,1.4274,
5.612826,0.2772,-0.2832,-0.3021,1.5866,0.0136,0.3687,-39.4914,22.9482,-0.4392,
5.623323,0.2772,-0.2832,-0.3021,1.4043,-0.1170,0.2766,-39.4914,22.9482,-0.4392,
5.627018,0.1634,0.3681,-0.0308,1.4043,-0.1170,0.2766,-39.4914,22.9482,-0.4392,
5.656649,0.1634,0.3681,-0.0308,1.4043,-0.1170,0.2766,-39.4914,22.9482,-0.4392,
5.658936,0.1634,0.3681,-0.0308,1.4043,-0.1170,0.2766,-39.4914,22.9482,-0.4392,
5.660428,0.1634,0.3681,-0.0308,1.4043,-0.1170,0.2766,-39.4914,22.9482,-0.4392,
5.670818,0.1634,0.3681,-0.0308,1.4043,-0.1170,0.2766,-39.1010,23.7290,-2.1716,
5.691704,0.1634,0.3681,-0.0308,1.5556,-0.1433,0.1465,-39.1010,23.7290,-2.1716,
5.694994,-0.0012,0.5463,-0.1047,1.5556,-0.1433,0.1465,-39.1010,23.7290,-2.1716,
5.725098,-0.0012,0.5463,-0.1047,1.5556,-0.1433,0.1465,-39.1010,23.7290,-2.1716,
5.728412,-0.0012,0.5463,-0.1047,1.5556,-0.1433,0.1465,-39.1010,23.7290,-2.1716,
5.731076,-0.0012,0.5463,-0.1047,1.5556,-0.1433,0.1465,-39.1010,23.7290,-2.1716,
5.733802,-0.0012,0.5463,-0.1047,1.5556,-0.1433,0.1465,-39.1010,23.7290,-2.1716,
5.735903,-0.0012,0.5463,-0.1047,1.5556,-0.1433,0.1465,-38.6618,24.3146,-3.7576,
5.762490,-0.0012,0.5463,-0.1047,1.6276,-0.0984,0.1064,-38.6618,24.3146,-3.7576,
5.765984,0.3577,0.2511,-0.6222,1.6276,-0.0984,0.1064,-38.6618,24.3146,-3.7576,
5.792172,0.3577,0.2511,-0.6222,1.6276,-0.0984,0.1064,-38.2470,24.6928,-5.4290,
5.795765,0.3577,0.2511,-0.6222,1.6276,-0.0984,0.1064,-38.2470,24.6928,-5.4290,
5.796904,0.3577,0.2511,-0.6222,1.6276,-0.0984,0.1064,-38.2470,24.6928,-5.4290,
5.797953,0.3577,0.2511,-0.6222,1.6276,-0.0984,0.1064,-38.2470,24.6928,-5.4290,
5.830779,0.3577,0.2511,-0.6222,1.7948,-0.1310,0.1112,-38.2470,24.6928,-5.4290,
5.835790,0.3350,0.4114,-0.5601,1.7948,-0.1310,0.1112,-38.2470,24.6928,-5.4290,
5.852301,0.3350,0.4114,-0.5601,1.7948,-0.1310,0.1112,-37.8932,24.9124,-7.2102,
5.857427,0.3350,0.4114,-0.5601,1.7948,-0.1310,0.1112,-37.8932,24.9124,-7.2102,
5.860019,0.3350,0.4114,-0.5601,1.7948,-0.1310,0.1112,-37.8932,24.9124,-7.2102,
5.862074,0.3350,0.4114,-0.5601,1.7948,-0.1310,0.1112,-37.8932,24.9124,-7.2102,
5.900934,0.3350,0.4114,-0.5601,2.6188,-0.0081,0.4840,-37.8932,24.9124,-7.2102,
5.904897,0.1719,-0.2921,-0.6873,2.6188,-0.0081,0.4840,-37.8932,24.9124,-7.2102,
5.910225,0.1719,-0.2921,-0.6873,2.6188,-0.0081,0.4840,-37.5028,25.0222,-9.2110,
5.923805,0.1719,-0.2921,-0.6873,2.6188,-0.0081,0.4840,-37.5028,25.0222,-9.2110,
5.926644,0.1719,-0.2921,-0.6873,2.6188,-0.0081,0.4840,-37.5028,25.0222,-9.2110,
5.929188,0.1719,-0.2921,-0.6873,2.6188,-0.0081,0.4840,-37.5028,25.0222,-9.2110,
5.931358,0.1719,-0.2921,-0.6873,2.6188,-0.0081,0.4840,-37.5028,25.0222,-9.2110,
5.970524,0.1719,-0.2921,-0.6873,2.6188,-0.0081,0.4840,-37.0880,24.9124,-11.3216,
5.974390,0.1719,-0.2921,-0.6873,2.7967,-0.3366,1.1084,-37.0880,24.9124,-11.3216,
5.977423,1.0792,-3.6808,-2.1568,2.7967,-0.3366,1.1084,-37.0880,24.9124,-11.3216,
5.991157,1.0792,-3.6808,-2.1568,2.7967,-0.3366,1.1084,-37.0880,24.9124,-11.3216,
5.994150,1.0792,-3.6808,-2.1568,2.7967,-0.3366,1.1084,-37.0880,24.9124,-11.3216,
5.996260,1.0792,-3.6808,-2.1568,2.7967,-0.3366,1.1084,-37.0880,24.9124,-11.3216,
6.030109,1.0792,-3.6808,-2.1568,2.7967,-0.3366,1.1084,-36.6976,24.6074,-13.3102,
6.040052,1.0792,-3.6808,-2.1568,0.8075,-0.1997,0.4409,-36.6976,24.6074,-13.3102,
6.042933,-0.0402,-3.4280,-3.4576,0.8075,-0.1997,0.4409,-36.6976,24.6074,-13.3102,
6.056740,-0.0402,-3.4280,-3.4576,0.8075,-0.1997,0.4409,-36.6976,24.6074,-13.3102,
6.060126,-0.0402,-3.4280,-3.4576,0.8075,-0.1997,0.4409,-36.6976,24.6074,-13.3102,
6.062212,-0.0402,-3.4280,-3.4576,0.8075,-0.1997,0.4409,-36.6976,24.6074,-13.3102,
6.090319,-0.0402,-3.4280,-3.4576,0.8075,-0.1997,0.4409,-36.4780,24.1438,-14.9694,
6.110442,-0.0402,-3.4280,-3.4576,-1.2807,-0.2353,-0.2775,-36.4780,24.1438,-14.9694,
6.114614,0.2155,6.8500,-2.9029,-1.2807,-0.2353,-0.2775,-36.4780,24.1438,-14.9694,
6.129933,0.2155,6.8500,-2.9029,-1.2807,-0.2353,-0.2775,-36.4780,24.1438,-14.9694,
6.132342,0.2155,6.8500,-2.9029,-1.2807,-0.2353,-0.2775,-36.4780,24.1438,-14.9694,
6.133509,0.2155,6.8500,-2.9029,-1.2807,-0.2353,-0.2775,-36.4780,24.1438,-14.9694,
6.134928,0.2155,6.8500,-2.9029,-1.2807,-0.2353,-0.2775,-36.4780,24.1438,-14.9694,
6.150457,0.2155,6.8500,-2.9029,-1.2807,-0.2353,-0.2775,-36.3560,23.8632,-16.1528,
6.180023,0.2155,6.8500,-2.9029,-1.6930,0.1896,-0.0887,-36.3560,23.8632,-16.1528,
6.184145,-0.3693,4.1198,-1.9967,-1.6930,0.1896,-0.0887,-36.3560,23.8632,-16.1528,
6.190628,-0.3693,4.1198,-1.9967,-1.6930,0.1896,-0.0887,-36.3560,23.8632,-16.1528,
6.193305,-0.3693,4.1198,-1.9967,-1.6930,0.1896,-0.0887,-36.3560,23.8632,-16.1528,
6.195338,-0.3693,4.1198,-1.9967,-1.6930,0.1896,-0.0887,-36.3560,23.8632,-16.1528,
6.208680,-0.3693,4.1198,-1.9967,-1.6930,0.1896,-0.0887,-36.2950,23.9120,-16.8726,
6.250549,-0.3693,4.1198,-1.9967,-1.6268,0.7726,0.2294,-36.2950,23.9120,-16.8726,
6.252723,0.9977,-3.8395,1.7600,-1.6268,0.7726,0.2294,-36.2950,23.9120,-16.8726,
6.255988,0.9977,-3.8395,1.7600,-1.6268,0.7726,0.2294,-36.2950,23.9120,-16.8726,
6.256787,0.9977,-3.8395,1.7600,-1.6268,0.7726,0.2294,-36.2950,23.9120,-16.8726,
6.257506,0.9977,-3.8395,1.7600,-1.6268,0.7726,0.2294,-36.2950,23.9120,-16.8726,
6.269532,0.9977,-3.8395,1.7600,-1.6268,0.7726,0.2294,-36.1486,24.2536,-17.2508,
6.320300,0.9977,-3.8395,1.7600,-0.4439,0.1441,0.2040,-36.1486,24.2536,-17.2508,
6.323665,-1.1295,-5.2136,3.9828,-0.4439,0.1441,0.2040,-36.1486,24.2536,-17.2508,
6.325439,-1.1295,-5.2136,3.9828,-0.4439,0.1441,0.2040,-36.1486,24.2536,-17.2508,
6.327400,-1.1295,-5.2136,3.9828,-0.4439,0.1441,0.2040,-36.1486,24.2536,-17.2508,
6.328941,-1.1295,-5.2136,3.9828,-0.4439,0.1441,0.2040,-36.1486,24.2536,-17.2508,
6.331191,-1.1295,-5.2136,3.9828,-0.4439,0.1441,0.2040,-36.1486,24.2536,-17.2508,
6.332816,-1.1295,-5.2136,3.9828,-0.4439,0.1441,0.2040,-35.9900,24.7782,-17.3362,
6.392680,-1.1295,-5.2136,3.9828,-0.0329,-0.0784,-0.0284,-35.9900,24.7782,-17.3362,
6.396889,-1.1295,-5.2136,3.9828,-0.0329,-0.0784,-0.0284,-35.9900,24.7782,-17.3362,
6.399621,-1.1295,-5.2136,3.9828,-0.0329,-0.0784,-0.0284,-35.9900,24.7782,-17.3362,
6.402238,-1.1295,-5.2136,3.9828,-0.0329,-0.0784,-0.0284,-35.9900,24.7782,-17.3362,
6.405189,-1.1295,-5.2136,3.9828,-0.0329,-0.0784,-0.0284,-35.9290,25.2662,-16.8726,
6.407839,-1.3988,-3.4121,2.8231,-0.0329,-0.0784,-0.0284,-35.9290,25.2662,-16.8726,
6.451062,-1.3988,-3.4121,2.8231,-0.0329,-0.0784,-0.0284,-36.0022,25.7664,-15.9820,
6.457538,-1.3988,-3.4121,2.8231,-0.0329,-0.0784,-0.0284,-36.0022,25.7664,-15.9820,
6.459177,-1.3988,-3.4121,2.8231,-0.0329,-0.0784,-0.0284,-36.0022,25.7664,-15.9820,
6.460707,-1.3988,-3.4121,2.8231,-0.0329,-0.0784,-0.0284,-36.0022,25.7664,-15.9820,
6.462188,-1.3988,-3.4121,2.8231,-0.2008,-0.1185,-0.0855,-36.0022,25.7664,-15.9820,
6.464343,-0.1676,-1.2222,0.5378,-0.2008,-0.1185,-0.0855,-36.0022,25.7664,-15.9820,
6.510419,-0.1676,-1.2222,0.5378,-0.2008,-0.1185,-0.0855,-36.1486,26.3642,-14.9694,
6.525362,-0.1676,-1.2222,0.5378,-0.2008,-0.1185,-0.0855,-36.1486,26.3642,-14.9694,
6.528365,-0.1676,-1.2222,0.5378,-0.2008,-0.1185,-0.0855,-36.1486,26.3642,-14.9694,
6.530614,-0.1676,-1.2222,0.5378,-0.2008,-0.1185,-0.0855,-36.1486,26.3642,-14.9694,
6.532248,-0.1676,-1.2222,0.5378,-0.2008,-0.1185,-0.0855,-36.1486,26.3642,-14.9694,
6.533775,-0.1676,-1.2222,0.5378,0.0482,-0.0169,0.0268,-36.1486,26.3642,-14.9694,
6.535795,0.0069,-0.3972,0.0371,0.0482,-0.0169,0.0268,-36.1486,26.3642,-14.9694,
6.570574,0.0069,-0.3972,0.0371,0.0482,-0.0169,0.0268,-36.2218,26.9742,-14.0178,
6.591363,0.0069,-0.3972,0.0371,0.0482,-0.0169,0.0268,-36.2218,26.9742,-14.0178,
6.594237,0.0069,-0.3972,0.0371,0.0482,-0.0169,0.0268,-36.2218,26.9742,-14.0178,
6.596650,0.0069,-0.3972,0.0371,0.0482,-0.0169,0.0268,-36.2218,26.9742,-14.0178,
6.598428,0.0069,-0.3972,0.0371,0.1489,0.0194,-0.0281,-36.2218,26.9742,-14.0178,
6.600666,0.1119,1.8216,0.6383,0.1489,0.0194,-0.0281,-36.2218,26.9742,-14.0178,
6.627714,0.1119,1.8216,0.6383,0.1489,0.0194,-0.0281,-36.2584,27.3280,-13.3712,
6.658304,0.1119,1.8216,0.6383,0.1489,0.0194,-0.0281,-36.2584,27.3280,-13.3712,
6.661606,0.1119,1.8216,0.6383,0.1489,0.0194,-0.0281,-36.2584,27.3280,-13.3712,
6.664081,0.1119,1.8216,0.6383,0.1489,0.0194,-0.0281,-36.2584,27.3280,-13.3712,
6.666210,0.1119,1.8216,0.6383,0.1489,0.0194,-0.0281,-36.2584,27.3280,-13.3712,
6.671059,0.1119,1.8216,0.6383,0.3065,0.1494,-0.0296,-36.2584,27.3280,-13.3712,
6.673139,-0.2253,2.4212,1.3173,0.3065,0.1494,-0.0296,-36.2584,27.3280,-13.3712,
6.688936,-0.2253,2.4212,1.3173,0.3065,0.1494,-0.0296,-36.3438,27.3158,-13.1028,
6.725120,-0.2253,2.4212,1.3173,0.3065,0.1494,-0.0296,-36.3438,27.3158,-13.1028,
6.728552,-0.2253,2.4212,1.3173,0.3065,0.1494,-0.0296,-36.3438,27.3158,-13.1028,
6.730549,-0.2253,2.4212,1.3173,0.3065,0.1494,-0.0296,-36.3438,27.3158,-13.1028,
6.739736,0.7688,2.2461,0.9414,0.3065,0.1494,-0.0296,-36.3438,27.3158,-13.1028,
6.743130,0.7688,2.2461,0.9414,0.3056,0.3232,0.0659,-36.3438,27.3158,-13.1028,
6.748683,0.7688,2.2461,0.9414,0.3056,0.3232,0.0659,-36.5268,27.0352,-13.1028,
6.791726,0.7688,2.2461,0.9414,0.3056,0.3232,0.0659,-36.5268,27.0352,-13.1028,
6.794147,0.7688,2.2461,0.9414,0.3056,0.3232,0.0659,-36.5268,27.0352,-13.1028,
6.795961,0.7688,2.2461,0.9414,0.3056,0.3232,0.0659,-36.5268,27.0352,-13.1028,
6.808611,0.7688,2.2461,0.9414,0.3056,0.3232,0.0659,-36.6976,26.6204,-13.2736,
6.811707,0.7688,2.2461,0.9414,0.1704,0.0373,-0.0549,-36.6976,26.6204,-13.2736,
6.814523,0.3102,2.6087,1.0889,0.1704,0.0373,-0.0549,-36.6976,26.6204,-13.2736,
6.857790,0.3102,2.6087,1.0889,0.1704,0.0373,-0.0549,-36.6976,26.6204,-13.2736,
6.860206,0.3102,2.6087,1.0889,0.1704,0.0373,-0.0549,-36.6976,26.6204,-13.2736,
6.861612,0.3102,2.6087,1.0889,0.1704,0.0373,-0.0549,-36.6976,26.6204,-13.2736,
6.862940,0.3102,2.6087,1.0889,0.1704,0.0373,-0.0549,-36.6976,26.6204,-13.2736,
6.868464,0.3102,2.6087,1.0889,0.1704,0.0373,-0.0549,-36.8562,26.2544,-13.4932,
6.876799,0.3102,2.6087,1.0889,0.0972,-0.2044,0.0161,-36.8562,26.2544,-13.4932,
6.879373,-0.7436,2.2708,0.5857,0.0972,-0.2044,0.0161,-36.8562,26.2544,-13.4932,
6.925399,-0.7436,2.2708,0.5857,0.0972,-0.2044,0.0161,-36.8562,26.2544,-13.4932,
6.928588,-0.7436,2.2708,0.5857,0.0972,-0.2044,0.0161,-36.8562,26.2544,-13.4932,
6.930289,-0.7436,2.2708,0.5857,0.0972,-0.2044,0.0161,-36.8562,26.2544,-13.4932,
6.932364,-0.7436,2.2708,0.5857,0.0972,-0.2044,0.0161,-36.9294,25.9494,-13.7494,
6.946681,-0.7436,2.2708,0.5857,0.3429,-0.2060,0.0525,-36.9294,25.9494,-13.7494,
6.948377,0.3015,-0.7041,-0.4116,0.3429,-0.2060,0.0525,-36.9294,25.9494,-13.7494,
6.986943,0.3015,-0.7041,-0.4116,0.3429,-0.2060,0.0525,-37.0026,25.6810,-13.9934,
6.990735,0.3015,-0.7041,-0.4116,0.3429,-0.2060,0.0525,-37.0026,25.6810,-13.9934,
6.993135,0.3015,-0.7041,-0.4116,0.3429,-0.2060,0.0525,-37.0026,25.6810,-13.9934,
6.995131,0.3015,-0.7041,-0.4116,0.3429,-0.2060,0.0525,-37.0026,25.6810,-13.9934,
7.018370,0.3015,-0.7041,-0.4116,0.1438,-0.2457,0.0510,-37.0026,25.6810,-13.9934,
7.021741,-0.3824,-0.7425,0.0316,0.1438,-0.2457,0.0510,-37.0026,25.6810,-13.9934,
7.048386,-0.3824,-0.7425,0.0316,0.1438,-0.2457,0.0510,-37.0636,25.4614,-14.2008,
7.058070,-0.3824,-0.7425,0.0316,0.1438,-0.2457,0.0510,-37.0636,25.4614,-14.2008,
7.060744,-0.3824,-0.7425,0.0316,0.1438,-0.2457,0.0510,-37.0636,25.4614,-14.2008,
7.062513,-0.3824,-0.7425,0.0316,0.1438,-0.2457,0.0510,-37.0636,25.4614,-14.2008,
7.064627,-0.3824,-0.7425,0.0316,0.1438,-0.2457,0.0510,-37.0636,25.4614,-14.2008,
7.086190,-0.3824,-0.7425,0.0316,0.0822,-0.0703,0.0356,-37.0636,25.4614,-14.2008,
7.089402,0.1562,-0.1784,0.0368,0.0822,-0.0703,0.0356,-37.0636,25.4614,-14.2008,
7.107457,0.1562,-0.1784,0.0368,0.0822,-0.0703,0.0356,-37.1124,25.2906,-14.3472,
7.125597,0.1562,-0.1784,0.0368,0.0822,-0.0703,0.0356,-37.1124,25.2906,-14.3472,
7.128513,0.1562,-0.1784,0.0368,0.0822,-0.0703,0.0356,-37.1124,25.2906,-14.3472,
7.130605,0.1562,-0.1784,0.0368,0.0822,-0.0703,0.0356,-37.1124,25.2906,-14.3472,
7.157210,0.0660,-0.5157,-0.0759,0.0822,-0.0703,0.0356,-37.1124,25.2906,-14.3472,
7.161397,0.0660,-0.5157,-0.0759,0.1160,-0.0222,-0.0473,-37.1124,25.2906,-14.3472,
7.177899,0.0660,-0.5157,-0.0759,0.1160,-0.0222,-0.0473,-37.1978,25.2296,-14.5424,
7.190206,0.0660,-0.5157,-0.0759,0.1160,-0.0222,-0.0473,-37.1978,25.2296,-14.5424,
7.191775,0.0660,-0.5157,-0.0759,0.1160,-0.0222,-0.0473,-37.1978,25.2296,-14.5424,
7.192706,0.0660,-0.5157,-0.0759,0.1160,-0.0222,-0.0473,-37.1978,25.2296,-14.5424,
7.228055,0.0660,-0.5157,-0.0759,0.1160,-0.0222,-0.0473,-37.2710,25.1320,-14.4570,
7.232063,0.0660,-0.5157,-0.0759,0.0344,-0.1764,0.0172,-37.2710,25.1320,-14.4570,
7.234876,-0.2988,-0.2408,0.0147,0.0344,-0.1764,0.0172,-37.2710,25.1320,-14.4570,
7.257815,-0.2988,-0.2408,0.0147,0.0344,-0.1764,0.0172,-37.2710,25.1320,-14.4570,
7.260982,-0.2988,-0.2408,0.0147,0.0344,-0.1764,0.0172,-37.2710,25.1320,-14.4570,
7.263420,-0.2988,-0.2408,0.0147,0.0344,-0.1764,0.0172,-37.2710,25.1320,-14.4570,
7.265546,-0.2988,-0.2408,0.0147,0.0344,-0.1764,0.0172,-37.2710,25.1320,-14.4570,
7.286268,-0.2988,-0.2408,0.0147,0.0344,-0.1764,0.0172,-37.3320,25.0466,-14.2374,
7.295200,-0.2988,-0.2408,0.0147,0.1182,0.0049,-0.0313,-37.3320,25.0466,-14.2374,
7.296435,-0.3583,-0.4954,-0.0959,0.1182,0.0049,-0.0313,-37.3320,25.0466,-14.2374,
7.324714,-0.3583,-0.4954,-0.0959,0.1182,0.0049,-0.0313,-37.3320,25.0466,-14.2374,
7.327059,-0.3583,-0.4954,-0.0959,0.1182,0.0049,-0.0313,-37.3320,25.0466,-14.2374,
7.328641,-0.3583,-0.4954,-0.0959,0.1182,0.0049,-0.0313,-37.3320,25.0466,-14.2374,
7.347021,-0.3583,-0.4954,-0.0959,0.1182,0.0049,-0.0313,-37.3686,24.9002,-13.9934,
7.366651,-0.3583,-0.4954,-0.0959,0.0811,0.0549,0.0617,-37.3686,24.9002,-13.9934,
7.370136,0.1778,-0.4359,-0.0404,0.0811,0.0549,0.0617,-37.3686,24.9002,-13.9934,
7.390172,0.1778,-0.4359,-0.0404,0.0811,0.0549,0.0617,-37.3686,24.9002,-13.9934,
7.391497,0.1778,-0.4359,-0.0404,0.0811,0.0549,0.0617,-37.3686,24.9002,-13.9934,
7.392787,0.1778,-0.4359,-0.0404,0.0811,0.0549,0.0617,-37.3686,24.9002,-13.9934,
7.401159,0.1778,-0.4359,-0.0404,0.0811,0.0549,0.0617,-37.4784,24.8880,-13.9446,
7.436972,0.1778,-0.4359,-0.0404,0.0494,0.1229,0.0451,-37.4784,24.8880,-13.9446,
7.440360,-0.0753,-0.1670,-0.1091,0.0494,0.1229,0.0451,-37.4784,24.8880,-13.9446,
7.457984,-0.0753,-0.1670,-0.1091,0.0494,0.1229,0.0451,-37.4784,24.8880,-13.9446,
7.460496,-0.0753,-0.1670,-0.1091,0.0494,0.1229,0.0451,-37.4784,24.8880,-13.9446,
7.462231,-0.0753,-0.1670,-0.1091,0.0494,0.1229,0.0451,-37.4784,24.8880,-13.9446,
7.465085,-0.0753,-0.1670,-0.1091,0.0494,0.1229,0.0451,-37.4784,24.8880,-13.9446,
7.466855,-0.0753,-0.1670,-0.1091,0.0494,0.1229,0.0451,-37.5028,24.8758,-13.9446,
7.507912,-0.0753,-0.1670,-0.1091,-0.0152,0.0115,0.0684,-37.5028,24.8758,-13.9446,
7.512156,-0.2436,0.0062,-0.1438,-0.0152,0.0115,0.0684,-37.5028,24.8758,-13.9446,
7.534925,-0.2436,0.0062,-0.1438,-0.0152,0.0115,0.0684,-37.4906,24.8880,-13.9812,
7.536850,-0.2436,0.0062,-0.1438,-0.0152,0.0115,0.0684,-37.4906,24.8880,-13.9812,
7.538197,-0.2436,0.0062,-0.1438,-0.0152,0.0115,0.0684,-37.4906,24.8880,-13.9812,
7.539643,-0.2436,0.0062,-0.1438,-0.0152,0.0115,0.0684,-37.4906,24.8880,-13.9812,
7.576236,-0.2436,0.0062,-0.1438,0.0133,-0.0104,0.0631,-37.4906,24.8880,-13.9812,
7.578864,-0.4036,-0.2475,-0.3895,0.0133,-0.0104,0.0631,-37.4906,24.8880,-13.9812,
7.585692,-0.4036,-0.2475,-0.3895,0.0133,-0.0104,0.0631,-37.4296,24.9246,-14.0666,
7.600558,-0.4036,-0.2475,-0.3895,0.0133,-0.0104,0.0631,-37.4296,24.9246,-14.0666,
7.601482,-0.4036,-0.2475,-0.3895,0.0133,-0.0104,0.0631,-37.4296,24.9246,-14.0666,
7.602120,-0.4036,-0.2475,-0.3895,0.0133,-0.0104,0.0631,-37.4296,24.9246,-14.0666,
7.648294,-0.4036,-0.2475,-0.3895,-0.0148,0.0466,0.0563,-37.4296,24.9246,-14.0666,
7.650391,-0.4036,-0.2475,-0.3895,-0.0148,0.0466,0.0563,-37.3564,24.9734,-14.1276,
7.651655,0.0372,0.0434,-0.1908,-0.0148,0.0466,0.0563,-37.3564,24.9734,-14.1276,
7.659712,0.0372,0.0434,-0.1908,-0.0148,0.0466,0.0563,-37.3564,24.9734,-14.1276,
7.660669,0.0372,0.0434,-0.1908,-0.0148,0.0466,0.0563,-37.3564,24.9734,-14.1276,
7.661436,0.0372,0.0434,-0.1908,-0.0148,0.0466,0.0563,-37.3564,24.9734,-14.1276,
7.662221,0.0372,0.0434,-0.1908,-0.0148,0.0466,0.0563,-37.3564,24.9734,-14.1276,
7.707530,0.0372,0.0434,-0.1908,-0.0148,0.0466,0.0563,-37.2466,25.0710,-14.2984,
7.714581,0.0372,0.0434,-0.1908,-0.0021,0.1240,0.1052,-37.2466,25.0710,-14.2984,
7.716173,0.0123,-0.1122,-0.4377,-0.0021,0.1240,0.1052,-37.2466,25.0710,-14.2984,
7.724656,0.0123,-0.1122,-0.4377,-0.0021,0.1240,0.1052,-37.2466,25.0710,-14.2984,
7.726584,0.0123,-0.1122,-0.4377,-0.0021,0.1240,0.1052,-37.2466,25.0710,-14.2984,
7.727941,0.0123,-0.1122,-0.4377,-0.0021,0.1240,0.1052,-37.2466,25.0710,-14.2984,
7.765482,0.0123,-0.1122,-0.4377,-0.0021,0.1240,0.1052,-37.1246,25.2174,-14.5180,
7.785405,0.0123,-0.1122,-0.4377,-0.0497,0.1587,0.0591,-37.1246,25.2174,-14.5180,
7.788831,-0.2006,0.0659,-0.3286,-0.0497,0.1587,0.0591,-37.1246,25.2174,-14.5180,
7.791468,-0.2006,0.0659,-0.3286,-0.0497,0.1587,0.0591,-37.1246,25.2174,-14.5180,
7.793519,-0.2006,0.0659,-0.3286,-0.0497,0.1587,0.0591,-37.1246,25.2174,-14.5180,
7.796004,-0.2006,0.0659,-0.3286,-0.0497,0.1587,0.0591,-37.1246,25.2174,-14.5180,
7.825150,-0.2006,0.0659,-0.3286,-0.0497,0.1587,0.0591,-36.9782,25.4248,-14.7986,
7.855879,-0.2006,0.0659,-0.3286,0.0425,0.1230,0.0169,-36.9782,25.4248,-14.7986,
7.858828,0.0787,-0.0287,-0.1797,0.0425,0.1230,0.0169,-36.9782,25.4248,-14.7986,
7.861113,0.0787,-0.0287,-0.1797,0.0425,0.1230,0.0169,-36.9782,25.4248,-14.7986,
7.862827,0.0787,-0.0287,-0.1797,0.0425,0.1230,0.0169,-36.9782,25.4248,-14.7986,
7.865155,0.0787,-0.0287,-0.1797,0.0425,0.1230,0.0169,-36.9782,25.4248,-14.7986,
7.866828,0.0787,-0.0287,-0.1797,0.0425,0.1230,0.0169,-36.9782,25.4248,-14.7986,
7.884106,0.0787,-0.0287,-0.1797,0.0425,0.1230,0.0169,-36.8196,25.5102,-15.0060,
7.926340,0.0787,-0.0287,-0.1797,0.1372,0.1369,0.0282,-36.8196,25.5102,-15.0060,
7.929165,0.0787,-0.0287,-0.1797,0.1372,0.1369,0.0282,-36.8196,25.5102,-15.0060,
7.931052,0.0787,-0.0287,-0.1797,0.1372,0.1369,0.0282,-36.8196,25.5102,-15.0060,
7.932764,0.0787,-0.0287,-0.1797,0.1372,0.1369,0.0282,-36.8196,25.5102,-15.0060,
7.934161,0.2713,-0.2164,-0.1406,0.1372,0.1369,0.0282,-36.8196,25.5102,-15.0060,
7.943044,0.2713,-0.2164,-0.1406,0.1372,0.1369,0.0282,-36.6122,25.5956,-15.2012,
7.991026,0.2713,-0.2164,-0.1406,0.1372,0.1369,0.0282,-36.6122,25.5956,-15.2012,
7.993876,0.2713,-0.2164,-0.1406,0.1372,0.1369,0.0282,-36.6122,25.5956,-15.2012,
7.995616,0.2713,-0.2164,-0.1406,0.1372,0.1369,0.0282,-36.6122,25.5956,-15.2012,
7.997422,0.2713,-0.2164,-0.1406,0.1755,0.0997,0.0378,-36.6122,25.5956,-15.2012,
7.999814,0.2546,-0.1521,-0.1061,0.1755,0.0997,0.0378,-36.6122,25.5956,-15.2012,
8.004224,0.2546,-0.1521,-0.1061,0.1755,0.0997,0.0378,-36.4414,25.6688,-15.4940,
8.057613,0.2546,-0.1521,-0.1061,0.1755,0.0997,0.0378,-36.4414,25.6688,-15.4940,
8.059807,0.2546,-0.1521,-0.1061,0.1755,0.0997,0.0378,-36.4414,25.6688,-15.4940,
8.061009,0.2546,-0.1521,-0.1061,0.1755,0.0997,0.0378,-36.4414,25.6688,-15.4940,
8.062249,0.2546,-0.1521,-0.1061,0.1755,0.0997,0.0378,-36.4414,25.6688,-15.4940,
8.063962,0.2546,-0.1521,-0.1061,0.1755,0.0997,0.0378,-36.2950,25.7054,-15.7990,
8.066212,0.2546,-0.1521,-0.1061,0.0161,0.1321,-0.0462,-36.2950,25.7054,-15.7990,
8.069124,-0.0033,0.1047,-0.1105,0.0161,0.1321,-0.0462,-36.2950,25.7054,-15.7990,
8.123802,-0.0033,0.1047,-0.1105,0.0161,0.1321,-0.0462,-36.0876,25.7298,-16.0918,
8.126796,-0.0033,0.1047,-0.1105,0.0161,0.1321,-0.0462,-36.0876,25.7298,-16.0918,
8.128221,-0.0033,0.1047,-0.1105,0.0161,0.1321,-0.0462,-36.0876,25.7298,-16.0918,
8.129508,-0.0033,0.1047,-0.1105,0.0161,0.1321,-0.0462,-36.0876,25.7298,-16.0918,
8.132722,-0.0033,0.1047,-0.1105,0.0449,0.0543,0.0378,-36.0876,25.7298,-16.0918,
8.134267,0.2655,-0.0177,-0.0484,0.0449,0.0543,0.0378,-36.0876,25.7298,-16.0918,
8.185491,0.2655,-0.0177,-0.0484,0.0449,0.0543,0.0378,-35.9534,25.7542,-16.4456,
8.192188,0.2655,-0.0177,-0.0484,0.0449,0.0543,0.0378,-35.9534,25.7542,-16.4456,
8.194315,0.2655,-0.0177,-0.0484,0.0449,0.0543,0.0378,-35.9534,25.7542,-16.4456,
8.195906,0.2655,-0.0177,-0.0484,0.0449,0.0543,0.0378,-35.9534,25.7542,-16.4456,
8.205232,0.2655,-0.0177,-0.0484,-0.0032,0.0719,-0.0041,-35.9534,25.7542,-16.4456,
8.207483,0.0328,-0.1895,-0.2052,-0.0032,0.0719,-0.0041,-35.9534,25.7542,-16.4456,
8.244099,0.0328,-0.1895,-0.2052,-0.0032,0.0719,-0.0041,-35.8680,25.7664,-16.7750,
8.259304,0.0328,-0.1895,-0.2052,-0.0032,0.0719,-0.0041,-35.8680,25.7664,-16.7750,
8.262300,0.0328,-0.1895,-0.2052,-0.0032,0.0719,-0.0041,-35.8680,25.7664,-16.7750,
8.264727,0.0328,-0.1895,-0.2052,-0.0032,0.0719,-0.0041,-35.8680,25.7664,-16.7750,
8.267482,0.0328,-0.1895,-0.2052,-0.0032,0.0719,-0.0041,-35.8680,25.7664,-16.7750,
8.272847,0.0328,-0.1895,-0.2052,-0.0585,0.0330,0.0024,-35.8680,25.7664,-16.7750,
8.275063,-0.0502,-0.1196,-0.0414,-0.0585,0.0330,0.0024,-35.8680,25.7664,-16.7750,
8.315623,-0.0502,-0.1196,-0.0414,-0.0585,0.0330,0.0024,-35.7582,25.7420,-17.0678,
8.326319,-0.0502,-0.1196,-0.0414,-0.0585,0.0330,0.0024,-35.7582,25.7420,-17.0678,
8.329019,-0.0502,-0.1196,-0.0414,-0.0585,0.0330,0.0024,-35.7582,25.7420,-17.0678,
8.331064,-0.0502,-0.1196,-0.0414,-0.0585,0.0330,0.0024,-35.7582,25.7420,-17.0678,
8.344484,-0.0502,-0.1196,-0.0414,-0.1691,0.0357,0.0201,-35.7582,25.7420,-17.0678,
8.346314,0.1501,0.1536,-0.0273,-0.1691,0.0357,0.0201,-35.7582,25.7420,-17.0678,
8.371904,0.1501,0.1536,-0.0273,-0.1691,0.0357,0.0201,-35.6484,25.7542,-17.2630,
8.392791,0.1501,0.1536,-0.0273,-0.1691,0.0357,0.0201,-35.6484,25.7542,-17.2630,
8.395766,0.1501,0.1536,-0.0273,-0.1691,0.0357,0.0201,-35.6484,25.7542,-17.2630,
8.398062,0.1501,0.1536,-0.0273,-0.1691,0.0357,0.0201,-35.6484,25.7542,-17.2630,
8.401492,0.1501,0.1536,-0.0273,-0.1691,0.0357,0.0201,-35.6484,25.7542,-17.2630,
8.412349,0.1501,0.1536,-0.0273,-0.1951,0.1804,0.0844,-35.6484,25.7542,-17.2630,
8.415493,0.0779,-0.0654,0.0764,-0.1951,0.1804,0.0844,-35.6484,25.7542,-17.2630,
8.431372,0.0779,-0.0654,0.0764,-0.1951,0.1804,0.0844,-35.5752,25.8274,-17.4338,
8.456639,0.0779,-0.0654,0.0764,-0.1951,0.1804,0.0844,-35.5752,25.8274,-17.4338,
8.459836,0.0779,-0.0654,0.0764,-0.1951,0.1804,0.0844,-35.5752,25.8274,-17.4338,
8.462184,0.0779,-0.0654,0.0764,-0.1951,0.1804,0.0844,-35.5752,25.8274,-17.4338,
8.482992,0.0779,-0.0654,0.0764,-0.1008,0.3072,0.2093,-35.5752,25.8274,-17.4338,
8.486879,0.4369,-0.3789,0.1936,-0.1008,0.3072,0.2093,-35.5752,25.8274,-17.4338,
8.493432,0.4369,-0.3789,0.1936,-0.1008,0.3072,0.2093,-35.4044,25.9250,-17.4826,
8.524762,0.4369,-0.3789,0.1936,-0.1008,0.3072,0.2093,-35.4044,25.9250,-17.4826,
8.527821,0.4369,-0.3789,0.1936,-0.1008,0.3072,0.2093,-35.4044,25.9250,-17.4826,
8.529862,0.4369,-0.3789,0.1936,-0.1008,0.3072,0.2093,-35.4044,25.9250,-17.4826,
8.552861,0.4369,-0.3789,0.1936,-0.1008,0.3072,0.2093,-35.1482,26.1202,-17.6046,
8.556566,0.1985,-0.1074,-0.1126,-0.1008,0.3072,0.2093,-35.1482,26.1202,-17.6046,
8.560141,0.1985,-0.1074,-0.1126,0.0324,0.1899,0.1674,-35.1482,26.1202,-17.6046,
8.590773,0.1985,-0.1074,-0.1126,0.0324,0.1899,0.1674,-35.1482,26.1202,-17.6046,
8.593766,0.1985,-0.1074,-0.1126,0.0324,0.1899,0.1674,-35.1482,26.1202,-17.6046,
8.595155,0.1985,-0.1074,-0.1126,0.0324,0.1899,0.1674,-35.1482,26.1202,-17.6046,
8.596630,0.1985,-0.1074,-0.1126,0.0324,0.1899,0.1674,-35.1482,26.1202,-17.6046,
8.612449,0.1985,-0.1074,-0.1126,0.0324,0.1899,0.1674,-34.9042,26.3398,-17.7388,
8.621898,0.1985,-0.1074,-0.1126,-0.0282,0.1141,0.1597,-34.9042,26.3398,-17.7388,
8.624070,-0.1932,0.1463,-0.2443,-0.0282,0.1141,0.1597,-34.9042,26.3398,-17.7388,
8.657236,-0.1932,0.1463,-0.2443,-0.0282,0.1141,0.1597,-34.9042,26.3398,-17.7388,
8.658718,-0.1932,0.1463,-0.2443,-0.0282,0.1141,0.1597,-34.9042,26.3398,-17.7388,
8.659761,-0.1932,0.1463,-0.2443,-0.0282,0.1141,0.1597,-34.9042,26.3398,-17.7388,
8.671731,-0.1932,0.1463,-0.2443,-0.0282,0.1141,0.1597,-34.5992,26.6448,-17.9218,
8.692813,-0.1932,0.1463,-0.2443,0.0108,0.0870,0.1660,-34.5992,26.6448,-17.9218,
8.695765,0.1028,0.1331,-0.0523,0.0108,0.0870,0.1660,-34.5992,26.6448,-17.9218,
8.724653,0.1028,0.1331,-0.0523,0.0108,0.0870,0.1660,-34.5992,26.6448,-17.9218,
8.726521,0.1028,0.1331,-0.0523,0.0108,0.0870,0.1660,-34.5992,26.6448,-17.9218,
8.727985,0.1028,0.1331,-0.0523,0.0108,0.0870,0.1660,-34.5992,26.6448,-17.9218,
8.730072,0.1028,0.1331,-0.0523,0.0108,0.0870,0.1660,-34.2698,26.9620,-18.1048,
8.760907,0.1028,0.1331,-0.0523,0.0099,0.0397,0.1667,-34.2698,26.9620,-18.1048,
8.764048,-0.1081,0.0895,-0.0946,0.0099,0.0397,0.1667,-34.2698,26.9620,-18.1048,
8.792614,-0.1081,0.0895,-0.0946,0.0099,0.0397,0.1667,-33.9526,27.3158,-18.2634,
8.795709,-0.1081,0.0895,-0.0946,0.0099,0.0397,0.1667,-33.9526,27.3158,-18.2634,
8.797438,-0.1081,0.0895,-0.0946,0.0099,0.0397,0.1667,-33.9526,27.3158,-18.2634,
8.799097,-0.1081,0.0895,-0.0946,0.0099,0.0397,0.1667,-33.9526,27.3158,-18.2634,
8.800859,-0.1081,0.0895,-0.0946,0.0099,0.0397,0.1667,-33.9526,27.3158,-18.2634,
8.831910,-0.1081,0.0895,-0.0946,0.0605,0.0185,0.0702,-33.9526,27.3158,-18.2634,
8.834729,0.0465,-0.1368,-0.1028,0.0605,0.0185,0.0702,-33.9526,27.3158,-18.2634,
8.852004,0.0465,-0.1368,-0.1028,0.0605,0.0185,0.0702,-33.5988,27.6940,-18.5196,
8.856945,0.0465,-0.1368,-0.1028,0.0605,0.0185,0.0702,-33.5988,27.6940,-18.5196,
8.859632,0.0465,-0.1368,-0.1028,0.0605,0.0185,0.0702,-33.5988,27.6940,-18.5196,
8.861419,0.0465,-0.1368,-0.1028,0.0605,0.0185,0.0702,-33.5988,27.6940,-18.5196,
8.902021,0.0465,-0.1368,-0.1028,0.0320,-0.0162,-0.0466,-33.5988,27.6940,-18.5196,
8.906431,-0.1081,0.0042,0.0765,0.0320,-0.0162,-0.0466,-33.5988,27.6940,-18.5196,
8.911093,-0.1081,0.0042,0.0765,0.0320,-0.0162,-0.0466,-33.2450,27.9990,-18.7514,
8.925966,-0.1081,0.0042,0.0765,0.0320,-0.0162,-0.0466,-33.2450,27.9990,-18.7514,
8.928169,-0.1081,0.0042,0.0765,0.0320,-0.0162,-0.0466,-33.2450,27.9990,-18.7514,
8.929302,-0.1081,0.0042,0.0765,0.0320,-0.0162,-0.0466,-33.2450,27.9990,-18.7514,
8.972238,-0.1081,0.0042,0.0765,0.1015,0.1419,-0.1095,-33.2450,27.9990,-18.7514,
8.976785,-0.1081,0.0042,0.0765,0.1015,0.1419,-0.1095,-32.9766,28.2186,-19.0320,
8.980557,-0.2118,-0.0537,0.0797,0.1015,0.1419,-0.1095,-32.9766,28.2186,-19.0320,
8.992413,-0.2118,-0.0537,0.0797,0.1015,0.1419,-0.1095,-32.9766,28.2186,-19.0320,
8.993582,-0.2118,-0.0537,0.0797,0.1015,0.1419,-0.1095,-32.9766,28.2186,-19.0320,
8.994636,-0.2118,-0.0537,0.0797,0.1015,0.1419,-0.1095,-32.9766,28.2186,-19.0320,
8.995766,-0.2118,-0.0537,0.0797,0.1015,0.1419,-0.1095,-32.9766,28.2186,-19.0320,
9.032388,-0.2118,-0.0537,0.0797,0.1015,0.1419,-0.1095,-32.7814,28.3162,-19.3126,
9.040796,-0.2118,-0.0537,0.0797,0.1973,0.0909,-0.0843,-32.7814,28.3162,-19.3126,
9.044648,0.3008,0.1258,-0.0445,0.1973,0.0909,-0.0843,-32.7814,28.3162,-19.3126,
9.056521,0.3008,0.1258,-0.0445,0.1973,0.0909,-0.0843,-32.7814,28.3162,-19.3126,
9.058377,0.3008,0.1258,-0.0445,0.1973,0.0909,-0.0843,-32.7814,28.3162,-19.3126,
9.059800,0.3008,0.1258,-0.0445,0.1973,0.0909,-0.0843,-32.7814,28.3162,-19.3126,
9.091746,0.3008,0.1258,-0.0445,0.1973,0.0909,-0.0843,-32.6716,28.3650,-19.6054,
9.110128,0.3008,0.1258,-0.0445,0.3242,-0.0901,-0.0485,-32.6716,28.3650,-19.6054,
9.113876,-0.9217,-0.5165,-0.0023,0.3242,-0.0901,-0.0485,-32.6716,28.3650,-19.6054,
9.128308,-0.9217,-0.5165,-0.0023,0.3242,-0.0901,-0.0485,-32.6716,28.3650,-19.6054,
9.129659,-0.9217,-0.5165,-0.0023,0.3242,-0.0901,-0.0485,-32.6716,28.3650,-19.6054,
9.130827,-0.9217,-0.5165,-0.0023,0.3242,-0.0901,-0.0485,-32.6716,28.3650,-19.6054,
9.149246,-0.9217,-0.5165,-0.0023,0.3242,-0.0901,-0.0485,-32.6350,28.2064,-19.7884,
9.181198,-0.9217,-0.5165,-0.0023,0.3691,-0.2719,-0.1663,-32.6350,28.2064,-19.7884,
9.185191,-0.5349,-0.0932,0.0126,0.3691,-0.2719,-0.1663,-32.6350,28.2064,-19.7884,
9.190760,-0.5349,-0.0932,0.0126,0.3691,-0.2719,-0.1663,-32.6350,28.2064,-19.7884,
9.192838,-0.5349,-0.0932,0.0126,0.3691,-0.2719,-0.1663,-32.6350,28.2064,-19.7884,
9.194159,-0.5349,-0.0932,0.0126,0.3691,-0.2719,-0.1663,-32.6350,28.2064,-19.7884,
9.195781,-0.5349,-0.0932,0.0126,0.3691,-0.2719,-0.1663,-32.6350,28.2064,-19.7884,
9.208497,-0.5349,-0.0932,0.0126,0.3691,-0.2719,-0.1663,-32.7204,27.9624,-20.0324,
9.250627,-0.5349,-0.0932,0.0126,0.3647,-0.1201,-0.2743,-32.7204,27.9624,-20.0324,
9.254719,-0.1809,0.0335,-0.3252,0.3647,-0.1201,-0.2743,-32.7204,27.9624,-20.0324,
9.258897,-0.1809,0.0335,-0.3252,0.3647,-0.1201,-0.2743,-32.7204,27.9624,-20.0324,
9.261561,-0.1809,0.0335,-0.3252,0.3647,-0.1201,-0.2743,-32.7204,27.9624,-20.0324,
9.263828,-0.1809,0.0335,-0.3252,0.3647,-0.1201,-0.2743,-32.7204,27.9624,-20.0324,
9.269234,-0.1809,0.0335,-0.3252,0.3647,-0.1201,-0.2743,-32.8912,27.5232,-20.2398,
9.319882,-0.1809,0.0335,-0.3252,0.1518,0.1403,-0.4153,-32.8912,27.5232,-20.2398,
9.322995,0.3761,0.4872,-0.0910,0.1518,0.1403,-0.4153,-32.8912,27.5232,-20.2398,
9.323927,0.3761,0.4872,-0.0910,0.1518,0.1403,-0.4153,-32.8912,27.5232,-20.2398,
9.324611,0.3761,0.4872,-0.0910,0.1518,0.1403,-0.4153,-32.8912,27.5232,-20.2398,
9.325281,0.3761,0.4872,-0.0910,0.1518,0.1403,-0.4153,-32.8912,27.5232,-20.2398,
9.326372,0.3761,0.4872,-0.0910,0.1518,0.1403,-0.4153,-33.1352,26.9132,-20.4960,
9.390010,0.3761,0.4872,-0.0910,0.1518,0.1403,-0.4153,-33.4036,26.2300,-20.7522,
9.394454,0.3761,0.4872,-0.0910,-0.0037,0.0421,-0.1731,-33.4036,26.2300,-20.7522,
9.397593,0.4180,0.8128,-0.2338,-0.0037,0.0421,-0.1731,-33.4036,26.2300,-20.7522,
9.400609,0.4180,0.8128,-0.2338,-0.0037,0.0421,-0.1731,-33.4036,26.2300,-20.7522,
9.403005,0.4180,0.8128,-0.2338,-0.0037,0.0421,-0.1731,-33.4036,26.2300,-20.7522,
9.405867,0.4180,0.8128,-0.2338,-0.0037,0.0421,-0.1731,-33.4036,26.2300,-20.7522,
9.407934,0.4180,0.8128,-0.2338,-0.0037,0.0421,-0.1731,-33.4036,26.2300,-20.7522,
9.450355,0.4180,0.8128,-0.2338,-0.0037,0.0421,-0.1731,-33.6964,25.5956,-20.9962,
9.457733,0.4180,0.8128,-0.2338,0.0538,-0.1478,0.0441,-33.6964,25.5956,-20.9962,
9.460262,0.4180,0.8128,-0.2338,0.0538,-0.1478,0.0441,-33.6964,25.5956,-20.9962,
9.462052,0.4180,0.8128,-0.2338,0.0538,-0.1478,0.0441,-33.6964,25.5956,-20.9962,
9.464426,0.4180,0.8128,-0.2338,0.0538,-0.1478,0.0441,-33.6964,25.5956,-20.9962,
9.466277,-0.1827,-0.4028,-0.5323,0.0538,-0.1478,0.0441,-33.6964,25.5956,-20.9962,
9.509866,-0.1827,-0.4028,-0.5323,0.0538,-0.1478,0.0441,-34.0502,25.0100,-21.0816,
9.524746,-0.1827,-0.4028,-0.5323,0.0538,-0.1478,0.0441,-34.0502,25.0100,-21.0816,
9.527758,-0.1827,-0.4028,-0.5323,0.0538,-0.1478,0.0441,-34.0502,25.0100,-21.0816,
9.530990,-0.1827,-0.4028,-0.5323,0.0538,-0.1478,0.0441,-34.0502,25.0100,-21.0816,
9.533253,-0.1827,-0.4028,-0.5323,0.0083,-0.0158,0.0577,-34.0502,25.0100,-21.0816,
9.535730,-0.1019,-0.1853,-0.1056,0.0083,-0.0158,0.0577,-34.0502,25.0100,-21.0816,
9.569839,-0.1019,-0.1853,-0.1056,0.0083,-0.0158,0.0577,-34.3064,24.4610,-21.1304,
9.591979,-0.1019,-0.1853,-0.1056,0.0083,-0.0158,0.0577,-34.3064,24.4610,-21.1304,
9.595995,-0.1019,-0.1853,-0.1056,0.0083,-0.0158,0.0577,-34.3064,24.4610,-21.1304,
9.598354,-0.1019,-0.1853,-0.1056,0.0083,-0.0158,0.0577,-34.3064,24.4610,-21.1304,
9.600047,-0.1019,-0.1853,-0.1056,0.0083,-0.0158,0.0577,-34.3064,24.4610,-21.1304,
9.601184,-0.1019,-0.1853,-0.1056,0.0655,0.0220,0.0262,-34.3064,24.4610,-21.1304,
9.602429,0.2163,0.0632,0.2774,0.0655,0.0220,0.0262,-34.3064,24.4610,-21.1304,
9.627067,0.2163,0.0632,0.2774,0.0655,0.0220,0.0262,-34.5504,23.9974,-21.2158,
9.657406,0.2163,0.0632,0.2774,0.0655,0.0220,0.0262,-34.5504,23.9974,-21.2158,
9.660057,0.2163,0.0632,0.2774,0.0655,0.0220,0.0262,-34.5504,23.9974,-21.2158,
9.661895,0.2163,0.0632,0.2774,0.0655,0.0220,0.0262,-34.5504,23.9974,-21.2158,
9.668918,0.2367,-0.0732,0.2670,0.0655,0.0220,0.0262,-34.5504,23.9974,-21.2158,
9.671902,0.2367,-0.0732,0.2670,0.0439,0.1285,0.0264,-34.5504,23.9974,-21.2158,
9.686870,0.2367,-0.0732,0.2670,0.0439,0.1285,0.0264,-34.6114,23.6436,-21.2890,
9.724710,0.2367,-0.0732,0.2670,0.0439,0.1285,0.0264,-34.6114,23.6436,-21.2890,
9.727087,0.2367,-0.0732,0.2670,0.0439,0.1285,0.0264,-34.6114,23.6436,-21.2890,
9.729062,0.2367,-0.0732,0.2670,0.0439,0.1285,0.0264,-34.6114,23.6436,-21.2890,
9.738051,0.2367,-0.0732,0.2670,0.0864,0.1834,0.0332,-34.6114,23.6436,-21.2890,
9.741133,0.3895,-0.0502,0.2049,0.0864,0.1834,0.0332,-34.6114,23.6436,-21.2890,
9.748492,0.3895,-0.0502,0.2049,0.0864,0.1834,0.0332,-34.6358,23.3874,-21.4110,
9.791738,0.3895,-0.0502,0.2049,0.0864,0.1834,0.0332,-34.6358,23.3874,-21.4110,
9.794103,0.3895,-0.0502,0.2049,0.0864,0.1834,0.0332,-34.6358,23.3874,-21.4110,
9.795963,0.3895,-0.0502,0.2049,0.0864,0.1834,0.0332,-34.6358,23.3874,-21.4110,
9.797609,0.3895,-0.0502,0.2049,0.0864,0.1834,0.0332,-34.6358,23.3874,-21.4110,
9.808278,0.3895,-0.0502,0.2049,0.0864,0.1834,0.0332,-34.5504,23.2898,-21.5452,
9.810631,0.3895,-0.0502,0.2049,0.0490,0.1826,0.0418,-34.5504,23.2898,-21.5452,
9.812520,-0.1031,-0.1197,0.0976,0.0490,0.1826,0.0418,-34.5504,23.2898,-21.5452,
9.858378,-0.1031,-0.1197,0.0976,0.0490,0.1826,0.0418,-34.5504,23.2898,-21.5452,
9.860992,-0.1031,-0.1197,0.0976,0.0490,0.1826,0.0418,-34.5504,23.2898,-21.5452,
9.862750,-0.1031,-0.1197,0.0976,0.0490,0.1826,0.0418,-34.5504,23.2898,-21.5452,
9.867778,-0.1031,-0.1197,0.0976,0.0490,0.1826,0.0418,-34.4528,23.2776,-21.6550,
9.877633,-0.1031,-0.1197,0.0976,0.0253,0.0445,0.0541,-34.4528,23.2776,-21.6550,
9.880574,0.1343,0.1233,0.0572,0.0253,0.0445,0.0541,-34.4528,23.2776,-21.6550,
9.925950,0.1343,0.1233,0.0572,0.0253,0.0445,0.0541,-34.2576,23.3386,-21.8014,
9.929355,0.1343,0.1233,0.0572,0.0253,0.0445,0.0541,-34.2576,23.3386,-21.8014,
9.931043,0.1343,0.1233,0.0572,0.0253,0.0445,0.0541,-34.2576,23.3386,-21.8014,
9.932800,0.1343,0.1233,0.0572,0.0253,0.0445,0.0541,-34.2576,23.3386,-21.8014,
9.948181,0.1343,0.1233,0.0572,0.0257,0.0012,0.0398,-34.2576,23.3386,-21.8014,
9.951994,-0.2146,-0.0830,-0.0206,0.0257,0.0012,0.0398,-34.2576,23.3386,-21.8014,
9.987768,-0.2146,-0.0830,-0.0206,0.0257,0.0012,0.0398,-34.0502,23.3142,-21.8868,
9.991163,-0.2146,-0.0830,-0.0206,0.0257,0.0012,0.0398,-34.0502,23.3142,-21.8868,
9.992971,-0.2146,-0.0830,-0.0206,0.0257,0.0012,0.0398,-34.0502,23.3142,-21.8868,
9.994619,-0.2146,-0.0830,-0.0206,0.0257,0.0012,0.0398,-34.0502,23.3142,-21.8868,
9.996550,-0.2146,-0.0830,-0.0206,0.0257,0.0012,0.0398,-34.0502,23.3142,-21.8868,
10.015967,-0.1735,0.0920,-0.0391,0.0257,0.0012,0.0398,-34.0502,23.3142,-21.8868,
10.017788,-0.1735,0.0920,-0.0391,0.1292,-0.0101,0.0068,-34.0502,23.3142,-21.8868,
10.046255,-0.1735,0.0920,-0.0391,0.1292,-0.0101,0.0068,-33.8916,23.2410,-22.0088,
10.056782,-0.1735,0.0920,-0.0391,0.1292,-0.0101,0.0068,-33.8916,23.2410,-22.0088,
10.058399,-0.1735,0.0920,-0.0391,0.1292,-0.0101,0.0068,-33.8916,23.2410,-22.0088,
10.060041,-0.1735,0.0920,-0.0391,0.1292,-0.0101,0.0068,-33.8916,23.2410,-22.0088,
10.086246,-0.1735,0.0920,-0.0391,0.1182,-0.1202,0.0193,-33.8916,23.2410,-22.0088,
10.088647,-0.1193,-0.2390,-0.0529,0.1182,-0.1202,0.0193,-33.8916,23.2410,-22.0088,
10.105775,-0.1193,-0.2390,-0.0529,0.1182,-0.1202,0.0193,-33.7330,23.1922,-22.1552,
