
time,ax,ay,az,wx,wy,wz,Bx,By,Bz,
0.044275,0.0000,0.0000,0.0000,0.0000,0.0000,0.0000,0.0000,0.0000,0.0000,
0.062514,0.0000,0.0000,0.0000,0.0000,0.0000,0.0000,-42.2486,18.8490,6.2952,
0.086441,0.0000,0.0000,0.0000,-0.0766,0.0053,0.0031,-42.2486,18.8490,6.2952,
0.098796,0.0000,0.0000,0.0000,-0.0766,0.0053,0.0031,-42.2486,18.8490,6.2952,
0.099958,0.0000,0.0000,0.0000,-0.0766,0.0053,0.0031,-42.2486,18.8490,6.2952,
0.100858,0.0000,0.0000,0.0000,-0.0766,0.0053,0.0031,-42.2486,18.8490,6.2952,
0.101685,0.0000,0.0000,0.0000,-0.0766,0.0053,0.0031,-42.2486,18.8490,6.2952,
0.102661,0.0000,0.0000,0.0000,-0.0766,0.0053,0.0031,-42.3096,18.5562,6.4538,
0.152406,0.0000,0.0000,0.0000,-0.0766,0.0053,0.0031,-42.4194,18.3976,6.5026,
0.155744,0.0000,0.0000,0.0000,-0.0111,-0.0119,0.0047,-42.4194,18.3976,6.5026,
0.164434,0.0000,0.0000,0.0000,-0.0111,-0.0119,0.0047,-42.4194,18.3976,6.5026,
0.165741,0.0000,0.0000,0.0000,-0.0111,-0.0119,0.0047,-42.4194,18.3976,6.5026,
0.166882,0.0000,0.0000,0.0000,-0.0111,-0.0119,0.0047,-42.4194,18.3976,6.5026,
0.167892,0.0115,0.0053,0.0044,-0.0111,-0.0119,0.0047,-42.4194,18.3976,6.5026,
0.203043,0.0115,0.0053,0.0044,-0.0111,-0.0119,0.0047,-42.4072,18.3610,6.6124,
0.226144,0.0115,0.0053,0.0044,0.0415,-0.0140,0.0051,-42.4072,18.3610,6.6124,
0.230318,0.0115,0.0053,0.0044,0.0415,-0.0140,0.0051,-42.4072,18.3610,6.6124,
0.231254,0.0115,0.0053,0.0044,0.0415,-0.0140,0.0051,-42.4072,18.3610,6.6124,
0.232056,0.0115,0.0053,0.0044,0.0415,-0.0140,0.0051,-42.4072,18.3610,6.6124,
0.239015,0.0548,0.0222,-0.0375,0.0415,-0.0140,0.0051,-42.4072,18.3610,6.6124,
0.252773,0.0548,0.0222,-0.0375,0.0415,-0.0140,0.0051,-42.4682,18.4220,6.5636,
0.272969,0.0548,0.0222,-0.0375,0.0415,-0.0140,0.0051,-42.3828,18.4098,6.8198,
0.295930,0.0548,0.0222,-0.0375,0.0369,0.0056,-0.0019,-42.3828,18.4098,6.8198,
0.308547,0.0366,-0.0111,0.0357,0.0369,0.0056,-0.0019,-42.3828,18.4098,6.8198,
0.310050,0.0366,-0.0111,0.0357,0.0369,0.0056,-0.0019,-42.3828,18.4098,6.8198,
0.310791,0.0366,-0.0111,0.0357,0.0369,0.0056,-0.0019,-42.3828,18.4098,6.8198,
0.312628,0.0366,-0.0111,0.0357,0.0369,0.0056,-0.0019,-42.3828,18.4098,6.8198,
0.313090,0.0366,-0.0111,0.0357,0.0369,0.0056,-0.0019,-42.3828,18.4098,6.8198,
0.336948,0.0366,-0.0111,0.0357,0.0369,0.0056,-0.0019,-42.3950,18.4342,6.7832,
0.365740,0.0366,-0.0111,0.0357,0.0250,0.0028,-0.0072,-42.3950,18.4342,6.7832,
0.367347,0.0366,-0.0111,0.0357,0.0250,0.0028,-0.0072,-42.3950,18.4342,6.7832,
0.368194,0.0366,-0.0111,0.0357,0.0250,0.0028,-0.0072,-42.3950,18.4342,6.7832,
0.368942,0.0366,-0.0111,0.0357,0.0250,0.0028,-0.0072,-42.3950,18.4342,6.7832,
0.377611,0.0009,0.0253,-0.0173,0.0250,0.0028,-0.0072,-42.3950,18.4342,6.7832,
0.397997,0.0009,0.0253,-0.0173,0.0250,0.0028,-0.0072,-42.4438,18.4342,6.7466,
0.431883,0.0009,0.0253,-0.0173,0.0250,0.0028,-0.0072,-42.4438,18.4342,6.7466,
0.433142,0.0009,0.0253,-0.0173,0.0250,0.0028,-0.0072,-42.4438,18.4342,6.7466,
0.433945,0.0009,0.0253,-0.0173,0.0250,0.0028,-0.0072,-42.4438,18.4342,6.7466,
0.434720,0.0009,0.0253,-0.0173,0.0156,0.0028,-0.0024,-42.4438,18.4342,6.7466,
0.445135,0.0451,0.0318,-0.0489,0.0156,0.0028,-0.0024,-42.4438,18.4342,6.7466,
0.456346,0.0451,0.0318,-0.0489,0.0156,0.0028,-0.0024,-42.4804,18.3854,6.9052,
0.498428,0.0451,0.0318,-0.0489,0.0156,0.0028,-0.0024,-42.4804,18.3854,6.9052,
0.499928,0.0451,0.0318,-0.0489,0.0156,0.0028,-0.0024,-42.4804,18.3854,6.9052,
0.500849,0.0451,0.0318,-0.0489,0.0156,0.0028,-0.0024,-42.4804,18.3854,6.9052,
0.501639,0.0451,0.0318,-0.0489,0.0156,0.0028,-0.0024,-42.4804,18.3854,6.9052,
0.505810,0.0451,0.0318,-0.0489,0.0320,0.0125,0.0955,-42.4804,18.3854,6.9052,
0.518281,0.0451,0.0318,-0.0489,0.0320,0.0125,0.0955,-42.4926,18.3732,7.0516,
0.519262,0.0519,-0.0283,-0.0041,0.0320,0.0125,0.0955,-42.4926,18.3732,7.0516,
0.566918,0.0519,-0.0283,-0.0041,0.0320,0.0125,0.0955,-42.4926,18.3732,7.0516,
0.567856,0.0519,-0.0283,-0.0041,0.0320,0.0125,0.0955,-42.4926,18.3732,7.0516,
0.568674,0.0519,-0.0283,-0.0041,0.0320,0.0125,0.0955,-42.4926,18.3732,7.0516,
0.577569,0.0519,-0.0283,-0.0041,0.0052,-0.0206,-0.0238,-42.4926,18.3732,7.0516,
0.579554,0.0519,-0.0283,-0.0041,0.0052,-0.0206,-0.0238,-42.4316,18.4586,7.1858,
0.586962,-0.0649,-0.0571,0.0171,0.0052,-0.0206,-0.0238,-42.4316,18.4586,7.1858,
0.633552,-0.0649,-0.0571,0.0171,0.0052,-0.0206,-0.0238,-42.4316,18.4586,7.1858,
0.635310,-0.0649,-0.0571,0.0171,0.0052,-0.0206,-0.0238,-42.4316,18.4586,7.1858,
0.636225,-0.0649,-0.0571,0.0171,0.0052,-0.0206,-0.0238,-42.4316,18.4586,7.1858,
0.637122,-0.0649,-0.0571,0.0171,0.0052,-0.0206,-0.0238,-42.4194,18.5074,7.2346,
0.645607,-0.0649,-0.0571,0.0171,0.0160,-0.0109,-0.0328,-42.4194,18.5074,7.2346,
0.656457,0.1129,0.0715,-0.0479,0.0160,-0.0109,-0.0328,-42.4194,18.5074,7.2346,
0.695709,0.1129,0.0715,-0.0479,0.0160,-0.0109,-0.0328,-42.4316,18.4952,7.2956,
0.697627,0.1129,0.0715,-0.0479,0.0160,-0.0109,-0.0328,-42.4316,18.4952,7.2956,
0.698761,0.1129,0.0715,-0.0479,0.0160,-0.0109,-0.0328,-42.4316,18.4952,7.2956,
0.700125,0.1129,0.0715,-0.0479,0.0160,-0.0109,-0.0328,-42.4316,18.4952,7.2956,
0.701099,0.1129,0.0715,-0.0479,0.0160,-0.0109,-0.0328,-42.4316,18.4952,7.2956,
0.714175,0.1129,0.0715,-0.0479,0.0469,-0.0053,0.0202,-42.4316,18.4952,7.2956,
0.728112,-0.0479,0.0480,0.0009,0.0469,-0.0053,0.0202,-42.4316,18.4952,7.2956,
0.756725,-0.0479,0.0480,0.0009,0.0469,-0.0053,0.0202,-42.5048,18.5562,7.1492,
0.766825,-0.0479,0.0480,0.0009,0.0469,-0.0053,0.0202,-42.5048,18.5562,7.1492,
0.767931,-0.0479,0.0480,0.0009,0.0469,-0.0053,0.0202,-42.5048,18.5562,7.1492,
0.768805,-0.0479,0.0480,0.0009,0.0469,-0.0053,0.0202,-42.5048,18.5562,7.1492,
0.785699,-0.0479,0.0480,0.0009,0.0274,-0.0270,0.0156,-42.5048,18.5562,7.1492,
0.793939,0.0036,-0.0549,0.0786,0.0274,-0.0270,0.0156,-42.5048,18.5562,7.1492,
0.814981,0.0036,-0.0549,0.0786,0.0274,-0.0270,0.0156,-42.5292,18.6050,7.1858,
0.832985,0.0036,-0.0549,0.0786,0.0274,-0.0270,0.0156,-42.5292,18.6050,7.1858,
0.834331,0.0036,-0.0549,0.0786,0.0274,-0.0270,0.0156,-42.5292,18.6050,7.1858,
0.835061,0.0036,-0.0549,0.0786,0.0274,-0.0270,0.0156,-42.5292,18.6050,7.1858,
0.856730,0.0036,-0.0549,0.0786,0.0069,0.0072,-0.0109,-42.5292,18.6050,7.1858,
0.864644,0.0398,0.0944,0.0488,0.0069,0.0072,-0.0109,-42.5292,18.6050,7.1858,
0.875133,0.0398,0.0944,0.0488,0.0069,0.0072,-0.0109,-42.5292,18.6660,7.2224,
0.899067,0.0398,0.0944,0.0488,0.0069,0.0072,-0.0109,-42.5292,18.6660,7.2224,
0.900410,0.0398,0.0944,0.0488,0.0069,0.0072,-0.0109,-42.5292,18.6660,7.2224,
0.901165,0.0398,0.0944,0.0488,0.0069,0.0072,-0.0109,-42.5292,18.6660,7.2224,
0.901938,0.0398,0.0944,0.0488,0.0069,0.0072,-0.0109,-42.5292,18.6660,7.2224,
0.924719,0.0398,0.0944,0.0488,-0.0712,-0.0020,0.0003,-42.5292,18.6660,7.2224,
0.936320,0.0398,0.0944,0.0488,-0.0712,-0.0020,0.0003,-42.5048,18.7026,7.1492,
0.937671,-0.0277,-0.0159,0.1259,-0.0712,-0.0020,0.0003,-42.5048,18.7026,7.1492,
0.965537,-0.0277,-0.0159,0.1259,-0.0712,-0.0020,0.0003,-42.5048,18.7026,7.1492,
0.967158,-0.0277,-0.0159,0.1259,-0.0712,-0.0020,0.0003,-42.5048,18.7026,7.1492,
0.968056,-0.0277,-0.0159,0.1259,-0.0712,-0.0020,0.0003,-42.5048,18.7026,7.1492,
0.994282,-0.0277,-0.0159,0.1259,-0.0712,-0.0020,0.0003,-42.5048,18.7636,7.0516,
0.995823,-0.0277,-0.0159,0.1259,-0.1248,0.0040,-0.0045,-42.5048,18.7636,7.0516,
1.007080,0.0314,0.0367,0.1744,-0.1248,0.0040,-0.0045,-42.5048,18.7636,7.0516,
1.034459,0.0314,0.0367,0.1744,-0.1248,0.0040,-0.0045,-42.5048,18.7636,7.0516,
1.035917,0.0314,0.0367,0.1744,-0.1248,0.0040,-0.0045,-42.5048,18.7636,7.0516,
1.036748,0.0314,0.0367,0.1744,-0.1248,0.0040,-0.0045,-42.5048,18.7636,7.0516,
1.063827,0.0314,0.0367,0.1744,-0.1248,0.0040,-0.0045,-42.5780,18.7270,6.9784,
1.065622,0.0314,0.0367,0.1744,-0.1683,0.0256,-0.0096,-42.5780,18.7270,6.9784,
1.072728,0.0222,0.0439,0.2787,-0.1683,0.0256,-0.0096,-42.5780,18.7270,6.9784,
1.097795,0.0222,0.0439,0.2787,-0.1683,0.0256,-0.0096,-42.5780,18.7270,6.9784,
1.099634,0.0222,0.0439,0.2787,-0.1683,0.0256,-0.0096,-42.5780,18.7270,6.9784,
1.100554,0.0222,0.0439,0.2787,-0.1683,0.0256,-0.0096,-42.5780,18.7270,6.9784,
1.101413,0.0222,0.0439,0.2787,-0.1683,0.0256,-0.0096,-42.5780,18.7270,6.9784,
1.124345,0.0222,0.0439,0.2787,-0.1683,0.0256,-0.0096,-42.6146,18.7026,6.9540,
1.135137,0.0222,0.0439,0.2787,-0.1603,0.0459,-0.0059,-42.6146,18.7026,6.9540,
1.143898,-0.0244,-0.0109,0.3739,-0.1603,0.0459,-0.0059,-42.6146,18.7026,6.9540,
1.166417,-0.0244,-0.0109,0.3739,-0.1603,0.0459,-0.0059,-42.6146,18.7026,6.9540,
1.167697,-0.0244,-0.0109,0.3739,-0.1603,0.0459,-0.0059,-42.6146,18.7026,6.9540,
1.168614,-0.0244,-0.0109,0.3739,-0.1603,0.0459,-0.0059,-42.6146,18.7026,6.9540,
1.183381,-0.0244,-0.0109,0.3739,-0.1603,0.0459,-0.0059,-42.5902,18.6782,6.9906,
1.203169,-0.0244,-0.0109,0.3739,-0.1959,0.0678,-0.0107,-42.5902,18.6782,6.9906,
1.214964,0.0377,0.0382,0.3755,-0.1959,0.0678,-0.0107,-42.5902,18.6782,6.9906,
1.233915,0.0377,0.0382,0.3755,-0.1959,0.0678,-0.0107,-42.5902,18.6782,6.9906,
1.235284,0.0377,0.0382,0.3755,-0.1959,0.0678,-0.0107,-42.5902,18.6782,6.9906,
1.236161,0.0377,0.0382,0.3755,-0.1959,0.0678,-0.0107,-42.5902,18.6782,6.9906,
1.237034,0.0377,0.0382,0.3755,-0.1959,0.0678,-0.0107,-42.5902,18.6782,6.9906,
1.243210,0.0377,0.0382,0.3755,-0.1959,0.0678,-0.0107,-42.6146,18.5562,7.0760,
1.273121,0.0377,0.0382,0.3755,-0.2302,0.0754,-0.0088,-42.6146,18.5562,7.0760,
1.283476,0.0328,0.0947,0.3344,-0.2302,0.0754,-0.0088,-42.6146,18.5562,7.0760,
1.297998,0.0328,0.0947,0.3344,-0.2302,0.0754,-0.0088,-42.6146,18.5562,7.0760,
1.299164,0.0328,0.0947,0.3344,-0.2302,0.0754,-0.0088,-42.6146,18.5562,7.0760,
1.300012,0.0328,0.0947,0.3344,-0.2302,0.0754,-0.0088,-42.6146,18.5562,7.0760,
1.301521,0.0328,0.0947,0.3344,-0.2302,0.0754,-0.0088,-42.5780,18.3732,7.2224,
1.343721,0.0328,0.0947,0.3344,-0.2770,0.0972,-0.0048,-42.5780,18.3732,7.2224,
1.353446,0.0711,0.0702,0.3879,-0.2770,0.0972,-0.0048,-42.5780,18.3732,7.2224,
1.363723,0.0711,0.0702,0.3879,-0.2770,0.0972,-0.0048,-42.4926,18.1902,7.3078,
1.365501,0.0711,0.0702,0.3879,-0.2770,0.0972,-0.0048,-42.4926,18.1902,7.3078,
1.367395,0.0711,0.0702,0.3879,-0.2770,0.0972,-0.0048,-42.4926,18.1902,7.3078,
1.369090,0.0711,0.0702,0.3879,-0.2770,0.0972,-0.0048,-42.4926,18.1902,7.3078,
1.414157,0.0711,0.0702,0.3879,-0.2730,0.1169,-0.0133,-42.4926,18.1902,7.3078,
1.423779,0.0711,0.0702,0.3879,-0.2730,0.1169,-0.0133,-42.5414,18.0194,7.3566,
1.427556,0.0946,0.0096,0.7239,-0.2730,0.1169,-0.0133,-42.5414,18.0194,7.3566,
1.433202,0.0946,0.0096,0.7239,-0.2730,0.1169,-0.0133,-42.5414,18.0194,7.3566,
1.436007,0.0946,0.0096,0.7239,-0.2730,0.1169,-0.0133,-42.5414,18.0194,7.3566,
1.438101,0.0946,0.0096,0.7239,-0.2730,0.1169,-0.0133,-42.5414,18.0194,7.3566,
1.439454,0.0946,0.0096,0.7239,-0.2730,0.1169,-0.0133,-42.5414,18.0194,7.3566,
1.483708,0.0946,0.0096,0.7239,-0.2621,0.1288,0.0008,-42.5414,18.0194,7.3566,
1.488483,0.0946,0.0096,0.7239,-0.2621,0.1288,0.0008,-42.5780,17.8486,7.3078,
1.505083,0.0232,0.1266,0.7817,-0.2621,0.1288,0.0008,-42.5780,17.8486,7.3078,
1.507436,0.0232,0.1266,0.7817,-0.2621,0.1288,0.0008,-42.5780,17.8486,7.3078,
1.508781,0.0232,0.1266,0.7817,-0.2621,0.1288,0.0008,-42.5780,17.8486,7.3078,
1.510382,0.0232,0.1266,0.7817,-0.2621,0.1288,0.0008,-42.5780,17.8486,7.3078,
1.541266,0.0232,0.1266,0.7817,-0.2621,0.1288,0.0008,-42.6024,17.6656,7.2712,
1.550759,0.0232,0.1266,0.7817,-0.3666,0.1633,0.0186,-42.6024,17.6656,7.2712,
1.561163,0.0635,0.1971,0.5752,-0.3666,0.1633,0.0186,-42.6024,17.6656,7.2712,
1.563372,0.0635,0.1971,0.5752,-0.3666,0.1633,0.0186,-42.6024,17.6656,7.2712,
1.564288,0.0635,0.1971,0.5752,-0.3666,0.1633,0.0186,-42.6024,17.6656,7.2712,
1.565069,0.0635,0.1971,0.5752,-0.3666,0.1633,0.0186,-42.6024,17.6656,7.2712,
1.602284,0.0635,0.1971,0.5752,-0.3666,0.1633,0.0186,-42.6268,17.4582,7.2590,
1.623080,0.0635,0.1971,0.5752,-0.4533,0.1493,0.0487,-42.6268,17.4582,7.2590,
1.631727,-0.0938,0.1467,0.5561,-0.4533,0.1493,0.0487,-42.6268,17.4582,7.2590,
1.634998,-0.0938,0.1467,0.5561,-0.4533,0.1493,0.0487,-42.6268,17.4582,7.2590,
1.638214,-0.0938,0.1467,0.5561,-0.4533,0.1493,0.0487,-42.6268,17.4582,7.2590,
1.640572,-0.0938,0.1467,0.5561,-0.4533,0.1493,0.0487,-42.6268,17.4582,7.2590,
1.642541,-0.0938,0.1467,0.5561,-0.4533,0.1493,0.0487,-42.6268,17.4582,7.2590,
1.661826,-0.0938,0.1467,0.5561,-0.4533,0.1493,0.0487,-42.6634,17.2508,7.1370,
1.692672,-0.0938,0.1467,0.5561,-0.5084,0.1446,0.0465,-42.6634,17.2508,7.1370,
1.697699,-0.0938,0.1467,0.5561,-0.5084,0.1446,0.0465,-42.6634,17.2508,7.1370,
1.700826,-0.0938,0.1467,0.5561,-0.5084,0.1446,0.0465,-42.6634,17.2508,7.1370,
1.703382,-0.0938,0.1467,0.5561,-0.5084,0.1446,0.0465,-42.6634,17.2508,7.1370,
1.704813,-0.0551,0.3025,0.6607,-0.5084,0.1446,0.0465,-42.6634,17.2508,7.1370,
1.720446,-0.0551,0.3025,0.6607,-0.5084,0.1446,0.0465,-42.6634,17.0800,6.9662,
1.762379,-0.0551,0.3025,0.6607,-0.5923,0.1309,0.0329,-42.6634,17.0800,6.9662,
1.767728,-0.0551,0.3025,0.6607,-0.5923,0.1309,0.0329,-42.6634,17.0800,6.9662,
1.770586,-0.0551,0.3025,0.6607,-0.5923,0.1309,0.0329,-42.6634,17.0800,6.9662,
1.772649,-0.0551,0.3025,0.6607,-0.5923,0.1309,0.0329,-42.6634,17.0800,6.9662,
1.774662,-0.1083,0.5171,0.8197,-0.5923,0.1309,0.0329,-42.6634,17.0800,6.9662,
1.780103,-0.1083,0.5171,0.8197,-0.5923,0.1309,0.0329,-42.7488,16.9092,6.7466,
1.832203,-0.1083,0.5171,0.8197,-0.6521,0.1441,-0.0017,-42.7488,16.9092,6.7466,
1.836832,-0.1083,0.5171,0.8197,-0.6521,0.1441,-0.0017,-42.7488,16.9092,6.7466,
1.839581,-0.1083,0.5171,0.8197,-0.6521,0.1441,-0.0017,-42.7488,16.9092,6.7466,
1.841812,-0.1083,0.5171,0.8197,-0.6521,0.1441,-0.0017,-42.7488,16.9092,6.7466,
1.844415,-0.1083,0.5171,0.8197,-0.6521,0.1441,-0.0017,-42.7488,16.9092,6.7466,
1.846644,-0.1083,0.5171,0.8197,-0.6521,0.1441,-0.0017,-42.8830,16.6774,6.5514,
1.848895,0.0803,0.4130,1.3051,-0.6521,0.1441,-0.0017,-42.8830,16.6774,6.5514,
1.899582,0.0803,0.4130,1.3051,-0.6521,0.1441,-0.0017,-42.8830,16.6774,6.5514,
1.903173,0.0803,0.4130,1.3051,-0.6521,0.1441,-0.0017,-42.8830,16.6774,6.5514,
1.906179,0.0803,0.4130,1.3051,-0.6521,0.1441,-0.0017,-42.8830,16.6774,6.5514,
1.907721,0.0803,0.4130,1.3051,-0.6521,0.1441,-0.0017,-42.9196,16.4212,6.3440,
1.909651,0.0803,0.4130,1.3051,-0.5079,0.2980,-0.0337,-42.9196,16.4212,6.3440,
1.911558,0.3260,0.7241,1.8297,-0.5079,0.2980,-0.0337,-42.9196,16.4212,6.3440,
1.955433,0.3260,0.7241,1.8297,-0.5079,0.2980,-0.0337,-42.9928,16.1162,6.1610,
1.965549,0.3260,0.7241,1.8297,-0.5079,0.2980,-0.0337,-42.9928,16.1162,6.1610,
1.967433,0.3260,0.7241,1.8297,-0.5079,0.2980,-0.0337,-42.9928,16.1162,6.1610,
1.969397,0.3260,0.7241,1.8297,-0.5079,0.2980,-0.0337,-42.9928,16.1162,6.1610,
1.971993,0.3260,0.7241,1.8297,-0.3925,0.5775,0.0290,-42.9928,16.1162,6.1610,
1.983482,0.1388,1.1885,2.2336,-0.3925,0.5775,0.0290,-42.9928,16.1162,6.1610,
2.019548,0.1388,1.1885,2.2336,-0.3925,0.5775,0.0290,-42.9928,15.8112,5.7340,
2.032287,0.1388,1.1885,2.2336,-0.3925,0.5775,0.0290,-42.9928,15.8112,5.7340,
2.034927,0.1388,1.1885,2.2336,-0.3925,0.5775,0.0290,-42.9928,15.8112,5.7340,
2.037336,0.1388,1.1885,2.2336,-0.3925,0.5775,0.0290,-42.9928,15.8112,5.7340,
2.039309,0.1388,1.1885,2.2336,-0.3925,0.5775,0.0290,-42.9928,15.8112,5.7340,
2.040619,0.1388,1.1885,2.2336,-0.1601,0.5060,0.1072,-42.9928,15.8112,5.7340,
2.050613,-0.9885,1.6089,2.9940,-0.1601,0.5060,0.1072,-42.9928,15.8112,5.7340,
2.082801,-0.9885,1.6089,2.9940,-0.1601,0.5060,0.1072,-43.0538,15.5672,5.0996,
2.100270,-0.9885,1.6089,2.9940,-0.1601,0.5060,0.1072,-43.0538,15.5672,5.0996,
2.101566,-0.9885,1.6089,2.9940,-0.1601,0.5060,0.1072,-43.0538,15.5672,5.0996,
2.102455,-0.9885,1.6089,2.9940,-0.1601,0.5060,0.1072,-43.0538,15.5672,5.0996,
2.108926,-0.9885,1.6089,2.9940,-0.3466,-0.0031,-0.0132,-43.0538,15.5672,5.0996,
2.121811,0.0726,2.6583,1.4698,-0.3466,-0.0031,-0.0132,-43.0538,15.5672,5.0996,
2.140727,0.0726,2.6583,1.4698,-0.3466,-0.0031,-0.0132,-43.1270,15.2744,4.4896,
2.164336,0.0726,2.6583,1.4698,-0.3466,-0.0031,-0.0132,-43.1270,15.2744,4.4896,
2.166889,0.0726,2.6583,1.4698,-0.3466,-0.0031,-0.0132,-43.1270,15.2744,4.4896,
2.168344,0.0726,2.6583,1.4698,-0.3466,-0.0031,-0.0132,-43.1270,15.2744,4.4896,
2.179226,0.0726,2.6583,1.4698,-1.0749,0.0462,0.0390,-43.1270,15.2744,4.4896,
2.196205,0.5993,4.5435,0.3337,-1.0749,0.0462,0.0390,-43.1270,15.2744,4.4896,
2.202004,0.5993,4.5435,0.3337,-1.0749,0.0462,0.0390,-43.2124,14.9938,3.8064,
2.232940,0.5993,4.5435,0.3337,-1.0749,0.0462,0.0390,-43.2124,14.9938,3.8064,
2.236997,0.5993,4.5435,0.3337,-1.0749,0.0462,0.0390,-43.2124,14.9938,3.8064,
2.240115,0.5993,4.5435,0.3337,-1.0749,0.0462,0.0390,-43.2124,14.9938,3.8064,
2.242536,0.5993,4.5435,0.3337,-1.0749,0.0462,0.0390,-43.2124,14.9938,3.8064,
2.251426,0.5993,4.5435,0.3337,-2.0052,0.1948,0.0362,-43.2124,14.9938,3.8064,
2.258759,0.5993,4.5435,0.3337,-2.0052,0.1948,0.0362,-43.2490,14.6522,3.1598,
2.259930,-0.1653,5.1453,-0.9946,-2.0052,0.1948,0.0362,-43.2490,14.6522,3.1598,
2.300537,-0.1653,5.1453,-0.9946,-2.0052,0.1948,0.0362,-43.2490,14.6522,3.1598,
2.304535,-0.1653,5.1453,-0.9946,-2.0052,0.1948,0.0362,-43.2490,14.6522,3.1598,
2.306748,-0.1653,5.1453,-0.9946,-2.0052,0.1948,0.0362,-43.2490,14.6522,3.1598,
2.318444,-0.1653,5.1453,-0.9946,-2.0052,0.1948,0.0362,-43.1392,14.5668,2.5254,
2.320172,-0.1653,5.1453,-0.9946,-3.1977,0.1935,0.2822,-43.1392,14.5668,2.5254,
2.330510,-0.0593,0.9120,-0.6064,-3.1977,0.1935,0.2822,-43.1392,14.5668,2.5254,
2.365635,-0.0593,0.9120,-0.6064,-3.1977,0.1935,0.2822,-43.1392,14.5668,2.5254,
2.368467,-0.0593,0.9120,-0.6064,-3.1977,0.1935,0.2822,-43.1392,14.5668,2.5254,
2.370673,-0.0593,0.9120,-0.6064,-3.1977,0.1935,0.2822,-43.1392,14.5668,2.5254,
2.381150,-0.0593,0.9120,-0.6064,-3.1977,0.1935,0.2822,-43.0660,14.4204,2.1960,
2.388069,-0.0593,0.9120,-0.6064,-5.8435,0.2864,0.2478,-43.0660,14.4204,2.1960,
2.398432,0.5581,-3.5553,-2.2505,-5.8435,0.2864,0.2478,-43.0660,14.4204,2.1960,
2.432356,0.5581,-3.5553,-2.2505,-5.8435,0.2864,0.2478,-43.0660,14.4204,2.1960,
2.434853,0.5581,-3.5553,-2.2505,-5.8435,0.2864,0.2478,-43.0660,14.4204,2.1960,
2.436229,0.5581,-3.5553,-2.2505,-5.8435,0.2864,0.2478,-43.0660,14.4204,2.1960,
2.437528,0.5581,-3.5553,-2.2505,-5.8435,0.2864,0.2478,-43.0660,14.4204,2.1960,
2.439765,0.5581,-3.5553,-2.2505,-5.8435,0.2864,0.2478,-42.9684,14.2252,2.1594,
2.460561,0.5581,-3.5553,-2.2505,-2.9672,-1.0481,-0.2812,-42.9684,14.2252,2.1594,
2.477079,-2.1758,2.2669,-24.2021,-2.9672,-1.0481,-0.2812,-42.9684,14.2252,2.1594,
2.498209,-2.1758,2.2669,-24.2021,-2.9672,-1.0481,-0.2812,-42.9684,13.5786,2.6962,
2.500177,-2.1758,2.2669,-24.2021,-2.9672,-1.0481,-0.2812,-42.9684,13.5786,2.6962,
2.501482,-2.1758,2.2669,-24.2021,-2.9672,-1.0481,-0.2812,-42.9684,13.5786,2.6962,
2.502922,-2.1758,2.2669,-24.2021,-2.9672,-1.0481,-0.2812,-42.9684,13.5786,2.6962,
2.529144,-2.1758,2.2669,-24.2021,-0.3285,-0.0710,0.0927,-42.9684,13.5786,2.6962,
2.547191,2.2169,-0.6997,-14.1173,-0.3285,-0.0710,0.0927,-42.9684,13.5786,2.6962,
2.558146,2.2169,-0.6997,-14.1173,-0.3285,-0.0710,0.0927,-42.8586,13.0906,3.4160,
2.564952,2.2169,-0.6997,-14.1173,-0.3285,-0.0710,0.0927,-42.8586,13.0906,3.4160,
2.567476,2.2169,-0.6997,-14.1173,-0.3285,-0.0710,0.0927,-42.8586,13.0906,3.4160,
2.569383,2.2169,-0.6997,-14.1173,-0.3285,-0.0710,0.0927,-42.8586,13.0906,3.4160,
2.597570,2.2169,-0.6997,-14.1173,0.1189,0.7647,0.0804,-42.8586,13.0906,3.4160,
2.620563,0.4468,3.9135,8.6139,0.1189,0.7647,0.0804,-42.8586,13.0906,3.4160,
2.623748,0.4468,3.9135,8.6139,0.1189,0.7647,0.0804,-42.7732,12.4440,4.0626,
2.632514,0.4468,3.9135,8.6139,0.1189,0.7647,0.0804,-42.7732,12.4440,4.0626,
2.633933,0.4468,3.9135,8.6139,0.1189,0.7647,0.0804,-42.7732,12.4440,4.0626,
2.635073,0.4468,3.9135,8.6139,0.1189,0.7647,0.0804,-42.7732,12.4440,4.0626,
2.636350,0.4468,3.9135,8.6139,0.1189,0.7647,0.0804,-42.7732,12.4440,4.0626,
2.667782,0.4468,3.9135,8.6139,-0.0549,0.2976,-0.1497,-42.7732,12.4440,4.0626,
2.689449,0.4468,3.9135,8.6139,-0.0549,0.2976,-0.1497,-42.7000,11.8340,4.6116,
2.692265,-0.4738,1.3229,8.7866,-0.0549,0.2976,-0.1497,-42.7000,11.8340,4.6116,
2.700222,-0.4738,1.3229,8.7866,-0.0549,0.2976,-0.1497,-42.7000,11.8340,4.6116,
2.702232,-0.4738,1.3229,8.7866,-0.0549,0.2976,-0.1497,-42.7000,11.8340,4.6116,
2.703541,-0.4738,1.3229,8.7866,-0.0549,0.2976,-0.1497,-42.7000,11.8340,4.6116,
2.738095,-0.4738,1.3229,8.7866,-0.0549,0.2976,-0.1497,-42.5902,11.1508,5.2460,
2.742119,-0.4738,1.3229,8.7866,0.1650,-0.4442,-0.0055,-42.5902,11.1508,5.2460,
2.756828,-1.2891,2.8607,2.2408,0.1650,-0.4442,-0.0055,-42.5902,11.1508,5.2460,
2.764709,-1.2891,2.8607,2.2408,0.1650,-0.4442,-0.0055,-42.5902,11.1508,5.2460,
2.766171,-1.2891,2.8607,2.2408,0.1650,-0.4442,-0.0055,-42.5902,11.1508,5.2460,
2.767557,-1.2891,2.8607,2.2408,0.1650,-0.4442,-0.0055,-42.5902,11.1508,5.2460,
2.799766,-1.2891,2.8607,2.2408,0.1650,-0.4442,-0.0055,-42.5536,10.1382,6.2220,
2.807744,-1.2891,2.8607,2.2408,-0.3121,-1.0611,-0.0666,-42.5536,10.1382,6.2220,
2.820802,0.6875,2.4372,-7.8580,-0.3121,-1.0611,-0.0666,-42.5536,10.1382,6.2220,
2.831135,0.6875,2.4372,-7.8580,-0.3121,-1.0611,-0.0666,-42.5536,10.1382,6.2220,
2.832032,0.6875,2.4372,-7.8580,-0.3121,-1.0611,-0.0666,-42.5536,10.1382,6.2220,
2.832565,0.6875,2.4372,-7.8580,-0.3121,-1.0611,-0.0666,-42.5536,10.1382,6.2220,
2.833104,0.6875,2.4372,-7.8580,-0.3121,-1.0611,-0.0666,-42.5536,10.1382,6.2220,
2.856746,0.6875,2.4372,-7.8580,-0.3121,-1.0611,-0.0666,-42.3584,9.2354,7.2468,
2.876806,0.6875,2.4372,-7.8580,-0.4748,-0.3758,0.0009,-42.3584,9.2354,7.2468,
2.901603,-0.0364,-0.5364,1.4283,-0.4748,-0.3758,0.0009,-42.3584,9.2354,7.2468,
2.904362,-0.0364,-0.5364,1.4283,-0.4748,-0.3758,0.0009,-42.3584,9.2354,7.2468,
2.905740,-0.0364,-0.5364,1.4283,-0.4748,-0.3758,0.0009,-42.3584,9.2354,7.2468,
2.907644,-0.0364,-0.5364,1.4283,-0.4748,-0.3758,0.0009,-42.3584,9.2354,7.2468,
2.917595,-0.0364,-0.5364,1.4283,-0.4748,-0.3758,0.0009,-42.2364,8.4790,7.9910,
2.948177,-0.0364,-0.5364,1.4283,0.0310,-0.1894,-0.1278,-42.2364,8.4790,7.9910,
2.961444,0.2718,-0.8108,3.0334,0.0310,-0.1894,-0.1278,-42.2364,8.4790,7.9910,
2.964553,0.2718,-0.8108,3.0334,0.0310,-0.1894,-0.1278,-42.2364,8.4790,7.9910,
2.965662,0.2718,-0.8108,3.0334,0.0310,-0.1894,-0.1278,-42.2364,8.4790,7.9910,
2.966963,0.2718,-0.8108,3.0334,0.0310,-0.1894,-0.1278,-42.2364,8.4790,7.9910,
2.975660,0.2718,-0.8108,3.0334,0.0310,-0.1894,-0.1278,-42.0290,8.1862,8.4180,
3.016906,0.2718,-0.8108,3.0334,0.1808,-0.1065,-0.0502,-42.0290,8.1862,8.4180,
3.026631,-0.4985,-0.7933,-0.1564,0.1808,-0.1065,-0.0502,-42.0290,8.1862,8.4180,
3.031869,-0.4985,-0.7933,-0.1564,0.1808,-0.1065,-0.0502,-42.0290,8.1862,8.4180,
3.033393,-0.4985,-0.7933,-0.1564,0.1808,-0.1065,-0.0502,-42.0290,8.1862,8.4180,
3.035323,-0.4985,-0.7933,-0.1564,0.1808,-0.1065,-0.0502,-42.0290,8.1862,8.4180,
3.036710,-0.4985,-0.7933,-0.1564,0.1808,-0.1065,-0.0502,-42.0290,8.1862,8.4180,
3.038205,-0.4985,-0.7933,-0.1564,0.1808,-0.1065,-0.0502,-41.8948,7.7104,8.9060,
3.087317,-0.4985,-0.7933,-0.1564,0.0501,0.0481,-0.0156,-41.8948,7.7104,8.9060,
3.102648,-0.4985,-0.7933,-0.1564,0.0501,0.0481,-0.0156,-41.7118,7.4420,9.5648,
3.104509,-0.1495,-0.5631,0.0212,0.0501,0.0481,-0.0156,-41.7118,7.4420,9.5648,
3.106236,-0.1495,-0.5631,0.0212,0.0501,0.0481,-0.0156,-41.7118,7.4420,9.5648,
3.107829,-0.1495,-0.5631,0.0212,0.0501,0.0481,-0.0156,-41.7118,7.4420,9.5648,
3.108776,-0.1495,-0.5631,0.0212,0.0501,0.0481,-0.0156,-41.7118,7.4420,9.5648,
3.156371,-0.1495,-0.5631,0.0212,0.0501,0.0481,-0.0156,-41.5288,7.1980,10.4066,
3.160378,-0.1495,-0.5631,0.0212,0.0429,0.1437,0.0077,-41.5288,7.1980,10.4066,
3.178091,-0.1495,-0.5631,0.0212,0.0429,0.1437,0.0077,-41.5288,7.1980,10.4066,
3.179236,-0.1495,-0.5631,0.0212,0.0429,0.1437,0.0077,-41.5288,7.1980,10.4066,
3.180162,-0.1495,-0.5631,0.0212,0.0429,0.1437,0.0077,-41.5288,7.1980,10.4066,
3.181473,-0.0387,-0.4491,1.1358,0.0429,0.1437,0.0077,-41.5288,7.1980,10.4066,
3.216076,-0.0387,-0.4491,1.1358,0.0429,0.1437,0.0077,-41.4190,7.0760,11.0288,
3.226125,-0.0387,-0.4491,1.1358,-0.0061,0.1389,0.0073,-41.4190,7.0760,11.0288,
3.231667,-0.0387,-0.4491,1.1358,-0.0061,0.1389,0.0073,-41.4190,7.0760,11.0288,
3.233188,-0.0387,-0.4491,1.1358,-0.0061,0.1389,0.0073,-41.4190,7.0760,11.0288,
3.234587,-0.0387,-0.4491,1.1358,-0.0061,0.1389,0.0073,-41.4190,7.0760,11.0288,
3.235634,-0.0387,-0.4491,1.1358,-0.0061,0.1389,0.0073,-41.4190,7.0760,11.0288,
3.236866,-0.0176,-0.3345,0.3704,-0.0061,0.1389,0.0073,-41.4190,7.0760,11.0288,
3.276970,-0.0176,-0.3345,0.3704,-0.0061,0.1389,0.0073,-41.3946,7.1126,11.2606,
3.295734,-0.0176,-0.3345,0.3704,-0.0020,0.0755,0.0036,-41.3946,7.1126,11.2606,
3.298842,-0.0176,-0.3345,0.3704,-0.0020,0.0755,0.0036,-41.3946,7.1126,11.2606,
3.300043,-0.0176,-0.3345,0.3704,-0.0020,0.0755,0.0036,-41.3946,7.1126,11.2606,
3.301117,-0.0176,-0.3345,0.3704,-0.0020,0.0755,0.0036,-41.3946,7.1126,11.2606,
3.304591,-0.0008,-0.3054,0.3450,-0.0020,0.0755,0.0036,-41.3946,7.1126,11.2606,
3.335457,-0.0008,-0.3054,0.3450,-0.0020,0.0755,0.0036,-41.4800,7.1614,11.1264,
3.365386,-0.0008,-0.3054,0.3450,0.0201,0.0284,-0.0016,-41.4800,7.1614,11.1264,
3.367455,-0.0008,-0.3054,0.3450,0.0201,0.0284,-0.0016,-41.4800,7.1614,11.1264,
3.368576,-0.0008,-0.3054,0.3450,0.0201,0.0284,-0.0016,-41.4800,7.1614,11.1264,
3.369636,-0.0008,-0.3054,0.3450,0.0201,0.0284,-0.0016,-41.4800,7.1614,11.1264,
3.370760,-0.0008,-0.3054,0.3450,0.0201,0.0284,-0.0016,-41.4800,7.1614,11.1264,
3.380075,0.0128,-0.2819,0.4851,0.0201,0.0284,-0.0016,-41.4800,7.1614,11.1264,
3.394690,0.0128,-0.2819,0.4851,0.0201,0.0284,-0.0016,-41.4922,7.1248,11.0532,
3.433103,0.0128,-0.2819,0.4851,0.0201,0.0284,-0.0016,-41.4922,7.1248,11.0532,
3.435934,0.0128,-0.2819,0.4851,0.0201,0.0284,-0.0016,-41.4922,7.1248,11.0532,
3.438624,0.0128,-0.2819,0.4851,0.0201,0.0284,-0.0016,-41.4922,7.1248,11.0532,
3.440474,0.0128,-0.2819,0.4851,0.0013,-0.0276,-0.0044,-41.4922,7.1248,11.0532,
3.452076,0.0031,-0.2636,0.2852,0.0013,-0.0276,-0.0044,-41.4922,7.1248,11.0532,
3.454390,0.0031,-0.2636,0.2852,0.0013,-0.0276,-0.0044,-41.5288,7.0516,10.9800,
3.498726,0.0031,-0.2636,0.2852,0.0013,-0.0276,-0.0044,-41.5288,7.0516,10.9800,
3.501411,0.0031,-0.2636,0.2852,0.0013,-0.0276,-0.0044,-41.5288,7.0516,10.9800,
3.504178,0.0031,-0.2636,0.2852,0.0013,-0.0276,-0.0044,-41.5288,7.0516,10.9800,
3.506932,0.0031,-0.2636,0.2852,0.0119,-0.0258,-0.0049,-41.5288,7.0516,10.9800,
3.514072,0.0031,-0.2636,0.2852,0.0119,-0.0258,-0.0049,-41.5410,7.0638,10.9434,
3.515921,-0.0239,-0.2233,0.3177,0.0119,-0.0258,-0.0049,-41.5410,7.0638,10.9434,
3.567473,-0.0239,-0.2233,0.3177,0.0119,-0.0258,-0.0049,-41.5410,7.0638,10.9434,
3.571131,-0.0239,-0.2233,0.3177,0.0119,-0.0258,-0.0049,-41.5410,7.0638,10.9434,
3.574246,-0.0239,-0.2233,0.3177,0.0119,-0.0258,-0.0049,-41.5410,7.0638,10.9434,
3.576878,-0.0239,-0.2233,0.3177,0.0119,-0.0258,-0.0049,-41.5410,7.0638,10.9434,
3.579650,-0.0239,-0.2233,0.3177,0.0317,-0.0205,-0.0017,-41.5410,7.0638,10.9434,
3.582917,-0.0239,-0.2233,0.3177,0.0317,-0.0205,-0.0017,-41.5532,7.0394,10.9068,
3.586157,-0.0224,-0.2044,0.2713,0.0317,-0.0205,-0.0017,-41.5532,7.0394,10.9068,
3.632792,-0.0224,-0.2044,0.2713,0.0317,-0.0205,-0.0017,-41.5532,7.0394,10.9068,
3.636525,-0.0224,-0.2044,0.2713,0.0317,-0.0205,-0.0017,-41.5532,7.0394,10.9068,
3.639213,-0.0224,-0.2044,0.2713,0.0317,-0.0205,-0.0017,-41.5532,7.0394,10.9068,
3.641707,-0.0224,-0.2044,0.2713,0.0317,-0.0205,-0.0017,-41.6020,7.0760,10.7360,
3.647470,-0.0224,-0.2044,0.2713,-0.0011,0.0079,0.0004,-41.6020,7.0760,10.7360,
3.653555,-0.0258,-0.1666,0.2129,-0.0011,0.0079,0.0004,-41.6020,7.0760,10.7360,
3.695771,-0.0258,-0.1666,0.2129,-0.0011,0.0079,0.0004,-41.6020,7.1126,10.6628,
3.700864,-0.0258,-0.1666,0.2129,-0.0011,0.0079,0.0004,-41.6020,7.1126,10.6628,
3.702918,-0.0258,-0.1666,0.2129,-0.0011,0.0079,0.0004,-41.6020,7.1126,10.6628,
3.705427,-0.0258,-0.1666,0.2129,-0.0011,0.0079,0.0004,-41.6020,7.1126,10.6628,
3.714472,-0.0258,-0.1666,0.2129,0.0233,0.0224,-0.0003,-41.6020,7.1126,10.6628,
3.734501,-0.0137,-0.1347,0.2536,0.0233,0.0224,-0.0003,-41.6020,7.1126,10.6628,
3.753412,-0.0137,-0.1347,0.2536,0.0233,0.0224,-0.0003,-41.6020,7.1614,10.6262,
3.766787,-0.0137,-0.1347,0.2536,0.0233,0.0224,-0.0003,-41.6020,7.1614,10.6262,
3.770167,-0.0137,-0.1347,0.2536,0.0233,0.0224,-0.0003,-41.6020,7.1614,10.6262,
3.772355,-0.0137,-0.1347,0.2536,0.0233,0.0224,-0.0003,-41.6020,7.1614,10.6262,
3.774726,-0.0137,-0.1347,0.2536,0.0233,0.0224,-0.0003,-41.6020,7.1614,10.6262,
3.784713,-0.0137,-0.1347,0.2536,0.0138,0.0079,-0.0036,-41.6020,7.1614,10.6262,
3.792896,0.0033,-0.1541,0.2032,0.0138,0.0079,-0.0036,-41.6020,7.1614,10.6262,
3.812868,0.0033,-0.1541,0.2032,0.0138,0.0079,-0.0036,-41.6020,7.1492,10.6750,
3.830821,0.0033,-0.1541,0.2032,0.0138,0.0079,-0.0036,-41.6020,7.1492,10.6750,
3.832677,0.0033,-0.1541,0.2032,0.0138,0.0079,-0.0036,-41.6020,7.1492,10.6750,
3.834550,0.0033,-0.1541,0.2032,0.0138,0.0079,-0.0036,-41.6020,7.1492,10.6750,
3.853055,0.0033,-0.1541,0.2032,-0.0021,-0.0051,0.0004,-41.6020,7.1492,10.6750,
3.862630,-0.0036,-0.1294,0.1699,-0.0021,-0.0051,0.0004,-41.6020,7.1492,10.6750,
3.872504,-0.0036,-0.1294,0.1699,-0.0021,-0.0051,0.0004,-41.5654,7.1004,10.8092,
3.898562,-0.0036,-0.1294,0.1699,-0.0021,-0.0051,0.0004,-41.5654,7.1004,10.8092,
3.900217,-0.0036,-0.1294,0.1699,-0.0021,-0.0051,0.0004,-41.5654,7.1004,10.8092,
3.901174,-0.0036,-0.1294,0.1699,-0.0021,-0.0051,0.0004,-41.5654,7.1004,10.8092,
3.923619,-0.0036,-0.1294,0.1699,0.0077,-0.0064,-0.0011,-41.5654,7.1004,10.8092,
3.934126,-0.0192,-0.0999,0.1455,0.0077,-0.0064,-0.0011,-41.5654,7.1004,10.8092,
3.943988,-0.0192,-0.0999,0.1455,0.0077,-0.0064,-0.0011,-41.5288,7.1248,10.8458,
3.964407,-0.0192,-0.0999,0.1455,0.0077,-0.0064,-0.0011,-41.5288,7.1248,10.8458,
3.966165,-0.0192,-0.0999,0.1455,0.0077,-0.0064,-0.0011,-41.5288,7.1248,10.8458,
3.967187,-0.0192,-0.0999,0.1455,0.0077,-0.0064,-0.0011,-41.5288,7.1248,10.8458,
3.968122,-0.0192,-0.0999,0.1455,0.0077,-0.0064,-0.0011,-41.5288,7.1248,10.8458,
3.991732,-0.0192,-0.0999,0.1455,0.0115,0.0056,-0.0004,-41.5288,7.1248,10.8458,
4.006474,-0.0192,-0.0999,0.1455,0.0115,0.0056,-0.0004,-41.5288,7.1126,10.7848,
4.007832,-0.0242,-0.0937,0.1254,0.0115,0.0056,-0.0004,-41.5288,7.1126,10.7848,
4.032078,-0.0242,-0.0937,0.1254,0.0115,0.0056,-0.0004,-41.5288,7.1126,10.7848,
4.033557,-0.0242,-0.0937,0.1254,0.0115,0.0056,-0.0004,-41.5288,7.1126,10.7848,
4.034393,-0.0242,-0.0937,0.1254,0.0115,0.0056,-0.0004,-41.5288,7.1126,10.7848,
4.065053,-0.0242,-0.0937,0.1254,0.0115,0.0056,-0.0004,-41.4800,7.0882,10.7848,
4.067251,-0.0242,-0.0937,0.1254,0.0124,0.0108,0.0000,-41.4800,7.0882,10.7848,
4.081390,-0.0063,-0.0854,0.1309,0.0124,0.0108,0.0000,-41.4800,7.0882,10.7848,
4.098193,-0.0063,-0.0854,0.1309,0.0124,0.0108,0.0000,-41.4800,7.0882,10.7848,
4.099547,-0.0063,-0.0854,0.1309,0.0124,0.0108,0.0000,-41.4800,7.0882,10.7848,
4.100082,-0.0063,-0.0854,0.1309,0.0124,0.0108,0.0000,-41.4800,7.0882,10.7848,
4.123767,-0.0063,-0.0854,0.1309,0.0124,0.0108,0.0000,-41.4678,7.0028,10.7970,
4.133311,-0.0063,-0.0854,0.1309,0.0145,0.0096,-0.0007,-41.4678,7.0028,10.7970,
4.142761,0.0003,-0.0757,0.1142,0.0145,0.0096,-0.0007,-41.4678,7.0028,10.7970,
4.164400,0.0003,-0.0757,0.1142,0.0145,0.0096,-0.0007,-41.4678,7.0028,10.7970,
4.168083,0.0003,-0.0757,0.1142,0.0145,0.0096,-0.0007,-41.4678,7.0028,10.7970,
4.170751,0.0003,-0.0757,0.1142,0.0145,0.0096,-0.0007,-41.4678,7.0028,10.7970,
4.172623,0.0003,-0.0757,0.1142,0.0145,0.0096,-0.0007,-41.4068,6.9174,10.9190,
4.181604,0.0003,-0.0757,0.1142,0.0145,0.0096,-0.0007,-41.4068,6.9174,10.9190,
4.203307,0.0003,-0.0757,0.1142,0.0145,0.0096,-0.0007,-41.3946,6.8198,11.0410,
4.206859,0.0003,-0.0757,0.1142,0.0083,-0.0020,-0.0003,-41.3946,6.8198,11.0410,
4.212468,-0.0033,-0.0684,0.1290,0.0083,-0.0020,-0.0003,-41.3946,6.8198,11.0410,
4.231572,-0.0033,-0.0684,0.1290,0.0083,-0.0020,-0.0003,-41.3946,6.8198,11.0410,
4.233172,-0.0033,-0.0684,0.1290,0.0083,-0.0020,-0.0003,-41.3946,6.8198,11.0410,
4.234539,-0.0033,-0.0684,0.1290,0.0083,-0.0020,-0.0003,-41.3946,6.8198,11.0410,
4.252164,-0.0033,-0.0684,0.1290,0.0083,-0.0020,-0.0003,-41.3214,6.7588,11.1020,
4.271633,-0.0033,-0.0684,0.1290,-0.0051,-0.0003,-0.0001,-41.3214,6.7588,11.1020,
4.294294,-0.0275,-0.0623,0.0579,-0.0051,-0.0003,-0.0001,-41.3214,6.7588,11.1020,
4.302182,-0.0275,-0.0623,0.0579,-0.0051,-0.0003,-0.0001,-41.3214,6.7588,11.1020,
4.304724,-0.0275,-0.0623,0.0579,-0.0051,-0.0003,-0.0001,-41.3214,6.7588,11.1020,
4.306532,-0.0275,-0.0623,0.0579,-0.0051,-0.0003,-0.0001,-41.3214,6.7588,11.1020,
4.307715,-0.0275,-0.0623,0.0579,-0.0051,-0.0003,-0.0001,-41.3580,6.8320,10.9556,
4.343136,-0.0275,-0.0623,0.0579,0.1993,0.0945,0.0029,-41.3580,6.8320,10.9556,
4.353326,-0.0806,0.0388,-0.3967,0.1993,0.0945,0.0029,-41.3580,6.8320,10.9556,
4.354792,-0.0806,0.0388,-0.3967,0.1993,0.0945,0.0029,-41.3946,6.8686,10.8580,
4.369543,-0.0806,0.0388,-0.3967,0.1993,0.0945,0.0029,-41.4312,6.8686,10.7970,
4.384958,-0.0806,0.0388,-0.3967,0.1993,0.0945,0.0029,-41.4312,6.8686,10.7970,
4.386040,-0.0806,0.0388,-0.3967,0.1993,0.0945,0.0029,-41.4312,6.8686,10.7970,
4.386615,-0.0806,0.0388,-0.3967,0.1993,0.0945,0.0029,-41.4312,6.8686,10.7970,
4.387153,-0.0806,0.0388,-0.3967,0.1993,0.0945,0.0029,-41.4312,6.8686,10.7970,
4.387682,-0.0806,0.0388,-0.3967,0.1993,0.0945,0.0029,-41.4312,6.8686,10.7970,
4.412948,-0.0806,0.0388,-0.3967,0.3526,0.0467,-0.0004,-41.4312,6.8686,10.7970,
4.422766,-0.0806,0.0388,-0.3967,0.3526,0.0467,-0.0004,-41.4678,6.9296,10.6506,
4.424596,-0.0489,0.0373,-0.0610,0.3526,0.0467,-0.0004,-41.4678,6.9296,10.6506,
4.453055,-0.0489,0.0373,-0.0610,0.3526,0.0467,-0.0004,-41.4678,6.9296,10.6506,
4.454895,-0.0489,0.0373,-0.0610,0.3526,0.0467,-0.0004,-41.4678,6.9296,10.6506,
4.455680,-0.0489,0.0373,-0.0610,0.3526,0.0467,-0.0004,-41.4678,6.9296,10.6506,
4.483212,-0.0489,0.0373,-0.0610,0.3526,0.0467,-0.0004,-41.4190,6.9784,10.6140,
4.485167,-0.0489,0.0373,-0.0610,0.1380,0.0810,-0.0119,-41.4190,6.9784,10.6140,
4.494278,-0.0793,-0.0023,0.4833,0.1380,0.0810,-0.0119,-41.4190,6.9784,10.6140,
4.520857,-0.0793,-0.0023,0.4833,0.1380,0.0810,-0.0119,-41.4190,6.9784,10.6140,
4.523637,-0.0793,-0.0023,0.4833,0.1380,0.0810,-0.0119,-41.4190,6.9784,10.6140,
4.524949,-0.0793,-0.0023,0.4833,0.1380,0.0810,-0.0119,-41.4190,6.9784,10.6140,
4.526098,-0.0793,-0.0023,0.4833,0.1380,0.0810,-0.0119,-41.4190,6.9784,10.6140,
4.540987,-0.0793,-0.0023,0.4833,0.1380,0.0810,-0.0119,-41.4434,7.1126,10.3578,
4.551422,-0.0793,-0.0023,0.4833,0.1029,-0.0120,-0.0145,-41.4434,7.1126,10.3578,
4.564632,0.0193,0.1854,-0.4537,0.1029,-0.0120,-0.0145,-41.4434,7.1126,10.3578,
4.587931,0.0193,0.1854,-0.4537,0.1029,-0.0120,-0.0145,-41.4434,7.1126,10.3578,
4.589752,0.0193,0.1854,-0.4537,0.1029,-0.0120,-0.0145,-41.4434,7.1126,10.3578,
4.590811,0.0193,0.1854,-0.4537,0.1029,-0.0120,-0.0145,-41.4434,7.1126,10.3578,
4.600317,0.0193,0.1854,-0.4537,0.1029,-0.0120,-0.0145,-41.4068,7.2102,10.2236,
4.622443,0.0193,0.1854,-0.4537,0.1519,-0.0205,-0.0257,-41.4068,7.2102,10.2236,
4.630711,0.0457,0.1365,-0.7243,0.1519,-0.0205,-0.0257,-41.4068,7.2102,10.2236,
4.654807,0.0457,0.1365,-0.7243,0.1519,-0.0205,-0.0257,-41.4068,7.2102,10.2236,
4.656761,0.0457,0.1365,-0.7243,0.1519,-0.0205,-0.0257,-41.4068,7.2102,10.2236,
4.657717,0.0457,0.1365,-0.7243,0.1519,-0.0205,-0.0257,-41.4068,7.2102,10.2236,
4.661014,0.0457,0.1365,-0.7243,0.1519,-0.0205,-0.0257,-41.4678,7.3566,10.0772,
4.692007,0.0457,0.1365,-0.7243,0.0794,0.0478,-0.0625,-41.4678,7.3566,10.0772,
4.700217,0.2300,0.3530,-1.2921,0.0794,0.0478,-0.0625,-41.4678,7.3566,10.0772,
4.720629,0.2300,0.3530,-1.2921,0.0794,0.0478,-0.0625,-41.4800,7.3932,10.0162,
4.722597,0.2300,0.3530,-1.2921,0.0794,0.0478,-0.0625,-41.4800,7.3932,10.0162,
4.723445,0.2300,0.3530,-1.2921,0.0794,0.0478,-0.0625,-41.4800,7.3932,10.0162,
4.724629,0.2300,0.3530,-1.2921,0.0794,0.0478,-0.0625,-41.4800,7.3932,10.0162,
4.725365,0.2300,0.3530,-1.2921,0.0794,0.0478,-0.0625,-41.4800,7.3932,10.0162,
4.752105,0.2300,0.3530,-1.2921,0.0794,0.0478,-0.0625,-41.4800,7.3932,10.0162,
4.760789,0.2300,0.3530,-1.2921,-0.0909,-0.1735,-0.2059,-41.4800,7.3932,10.0162,
4.770577,0.2606,0.1998,-1.6255,-0.0909,-0.1735,-0.2059,-41.4800,7.3932,10.0162,
4.779493,0.2606,0.1998,-1.6255,-0.0909,-0.1735,-0.2059,-41.5288,7.4176,10.0284,
4.786149,0.2606,0.1998,-1.6255,-0.0909,-0.1735,-0.2059,-41.5288,7.4176,10.0284,
4.787687,0.2606,0.1998,-1.6255,-0.0909,-0.1735,-0.2059,-41.5288,7.4176,10.0284,
4.831068,0.2606,0.1998,-1.6255,-0.3578,-0.7081,-0.2663,-41.5288,7.4176,10.0284,
4.840249,0.2606,0.1998,-1.6255,-0.3578,-0.7081,-0.2663,-41.5532,7.3810,10.2480,
4.841994,-0.2166,0.1961,0.0749,-0.3578,-0.7081,-0.2663,-41.5532,7.3810,10.2480,
4.853598,-0.2166,0.1961,0.0749,-0.3578,-0.7081,-0.2663,-41.5532,7.3810,10.2480,
4.855405,-0.2166,0.1961,0.0749,-0.3578,-0.7081,-0.2663,-41.5532,7.3810,10.2480,
4.856522,-0.2166,0.1961,0.0749,-0.3578,-0.7081,-0.2663,-41.5532,7.3810,10.2480,
4.900665,-0.2166,0.1961,0.0749,-0.3578,-0.7081,-0.2663,-41.5288,7.2102,10.8824,
4.904283,-0.2166,0.1961,0.0749,-0.3876,-0.6043,-0.1377,-41.5288,7.2102,10.8824,
4.909447,0.2986,-0.3697,0.8310,-0.3876,-0.6043,-0.1377,-41.5288,7.2102,10.8824,
4.920153,0.2986,-0.3697,0.8310,-0.3876,-0.6043,-0.1377,-41.5288,7.2102,10.8824,
4.921941,0.2986,-0.3697,0.8310,-0.3876,-0.6043,-0.1377,-41.5288,7.2102,10.8824,
4.923123,0.2986,-0.3697,0.8310,-0.3876,-0.6043,-0.1377,-41.5288,7.2102,10.8824,
4.924159,0.2986,-0.3697,0.8310,-0.3876,-0.6043,-0.1377,-41.5288,7.2102,10.8824,
4.954147,0.2986,-0.3697,0.8310,-0.3876,-0.6043,-0.1377,-41.4800,6.9662,11.6266,
4.969454,0.2986,-0.3697,0.8310,-0.1570,0.0120,-0.0204,-41.4800,6.9662,11.6266,
4.981587,-0.2053,-0.4608,1.5225,-0.1570,0.0120,-0.0204,-41.4800,6.9662,11.6266,
4.986479,-0.2053,-0.4608,1.5225,-0.1570,0.0120,-0.0204,-41.4800,6.9662,11.6266,
4.987896,-0.2053,-0.4608,1.5225,-0.1570,0.0120,-0.0204,-41.4800,6.9662,11.6266,
4.988854,-0.2053,-0.4608,1.5225,-0.1570,0.0120,-0.0204,-41.4800,6.9662,11.6266,
5.020486,-0.2053,-0.4608,1.5225,-0.1570,0.0120,-0.0204,-41.4190,6.6368,12.5050,
5.039112,-0.2053,-0.4608,1.5225,-0.0807,0.1112,0.0711,-41.4190,6.6368,12.5050,
5.050227,-0.6515,-0.4017,2.4434,-0.0807,0.1112,0.0711,-41.4190,6.6368,12.5050,
5.058147,-0.6515,-0.4017,2.4434,-0.0807,0.1112,0.0711,-41.4190,6.6368,12.5050,
5.060636,-0.6515,-0.4017,2.4434,-0.0807,0.1112,0.0711,-41.4190,6.6368,12.5050,
5.062572,-0.6515,-0.4017,2.4434,-0.0807,0.1112,0.0711,-41.4190,6.6368,12.5050,
5.078903,-0.6515,-0.4017,2.4434,-0.0807,0.1112,0.0711,-41.3946,6.4416,13.1516,
5.108649,-0.6515,-0.4017,2.4434,0.0802,0.0394,0.0483,-41.3946,6.4416,13.1516,
5.124154,-0.6515,-0.4017,2.4434,0.0802,0.0394,0.0483,-41.3946,6.4416,13.1516,
5.124995,-0.6515,-0.4017,2.4434,0.0802,0.0394,0.0483,-41.3946,6.4416,13.1516,
5.125530,-0.6515,-0.4017,2.4434,0.0802,0.0394,0.0483,-41.3946,6.4416,13.1516,
5.126205,-0.6515,-0.4017,2.4434,0.0802,0.0394,0.0483,-41.3946,6.4416,13.1516,
5.126834,0.0700,-0.3063,1.3297,0.0802,0.0394,0.0483,-41.3946,6.4416,13.1516,
5.140105,0.0700,-0.3063,1.3297,0.0802,0.0394,0.0483,-41.2848,6.2464,13.8470,
5.180224,0.0700,-0.3063,1.3297,0.1406,0.0915,0.0466,-41.2848,6.2464,13.8470,
5.187437,0.0700,-0.3063,1.3297,0.1406,0.0915,0.0466,-41.2848,6.2464,13.8470,
5.188401,0.0700,-0.3063,1.3297,0.1406,0.0915,0.0466,-41.2848,6.2464,13.8470,
5.188948,0.0700,-0.3063,1.3297,0.1406,0.0915,0.0466,-41.2848,6.2464,13.8470,
5.189527,0.0220,-0.3148,-0.2800,0.1406,0.0915,0.0466,-41.2848,6.2464,13.8470,
5.198451,0.0220,-0.3148,-0.2800,0.1406,0.0915,0.0466,-41.1750,6.0512,14.6034,
5.249820,0.0220,-0.3148,-0.2800,0.1180,0.1435,0.0680,-41.1750,6.0512,14.6034,
5.253677,0.0220,-0.3148,-0.2800,0.1180,0.1435,0.0680,-41.1750,6.0512,14.6034,
5.255072,0.0220,-0.3148,-0.2800,0.1180,0.1435,0.0680,-41.1750,6.0512,14.6034,
5.257177,0.0220,-0.3148,-0.2800,0.1180,0.1435,0.0680,-41.1750,6.0512,14.6034,
5.258592,0.0220,-0.3148,-0.2800,0.1180,0.1435,0.0680,-41.1140,6.0146,15.1402,
5.260812,-0.4839,0.0477,-1.0099,0.1180,0.1435,0.0680,-41.1140,6.0146,15.1402,
5.318626,-0.4839,0.0477,-1.0099,0.1180,0.1435,0.0680,-41.0774,6.0634,15.4330,
5.321519,-0.4839,0.0477,-1.0099,0.2606,-0.2238,-0.0684,-41.0774,6.0634,15.4330,
5.323699,-0.4839,0.0477,-1.0099,0.2606,-0.2238,-0.0684,-41.0774,6.0634,15.4330,
5.325092,-0.4839,0.0477,-1.0099,0.2606,-0.2238,-0.0684,-41.0774,6.0634,15.4330,
5.326761,-0.4839,0.0477,-1.0099,0.2606,-0.2238,-0.0684,-41.0774,6.0634,15.4330,
5.328899,-0.4839,0.0477,-1.0099,0.2606,-0.2238,-0.0684,-41.0774,6.0634,15.4330,
5.330771,-0.9552,-0.2541,-0.7708,0.2606,-0.2238,-0.0684,-41.0774,6.0634,15.4330,
5.380423,-0.9552,-0.2541,-0.7708,0.2606,-0.2238,-0.0684,-41.0774,6.2464,15.5672,
5.388254,-0.9552,-0.2541,-0.7708,0.3680,-0.5851,-0.0268,-41.0774,6.2464,15.5672,
5.391120,-0.9552,-0.2541,-0.7708,0.3680,-0.5851,-0.0268,-41.0774,6.2464,15.5672,
5.392647,-0.9552,-0.2541,-0.7708,0.3680,-0.5851,-0.0268,-41.0774,6.2464,15.5672,
5.394457,-0.9552,-0.2541,-0.7708,0.3680,-0.5851,-0.0268,-41.0774,6.2464,15.5672,
5.399289,1.5192,0.8584,-0.7225,0.3680,-0.5851,-0.0268,-41.0774,6.2464,15.5672,
5.439631,1.5192,0.8584,-0.7225,0.3680,-0.5851,-0.0268,-41.0164,6.5392,15.6282,
5.455665,1.5192,0.8584,-0.7225,0.3680,-0.5851,-0.0268,-41.0164,6.5392,15.6282,
5.458172,1.5192,0.8584,-0.7225,0.3680,-0.5851,-0.0268,-41.0164,6.5392,15.6282,
5.459851,1.5192,0.8584,-0.7225,0.3680,-0.5851,-0.0268,-41.0164,6.5392,15.6282,
5.462810,1.5192,0.8584,-0.7225,0.4719,0.2084,0.1037,-41.0164,6.5392,15.6282,
5.476234,1.0800,0.5107,0.3437,0.4719,0.2084,0.1037,-41.0164,6.5392,15.6282,
5.497312,1.0800,0.5107,0.3437,0.4719,0.2084,0.1037,-40.9676,6.9052,15.6038,
5.521736,1.0800,0.5107,0.3437,0.4719,0.2084,0.1037,-40.9676,6.9052,15.6038,
5.523270,1.0800,0.5107,0.3437,0.4719,0.2084,0.1037,-40.9676,6.9052,15.6038,
5.523833,1.0800,0.5107,0.3437,0.4719,0.2084,0.1037,-40.9676,6.9052,15.6038,
5.524352,1.0800,0.5107,0.3437,0.4719,0.2084,0.1037,-40.9676,6.9052,15.6038,
5.526720,1.0800,0.5107,0.3437,0.5088,0.6979,0.2092,-40.9676,6.9052,15.6038,
5.537028,-0.1155,0.1949,-0.0028,0.5088,0.6979,0.2092,-40.9676,6.9052,15.6038,
5.557441,-0.1155,0.1949,-0.0028,0.5088,0.6979,0.2092,-40.9676,7.3688,15.5184,
5.587749,-0.1155,0.1949,-0.0028,0.5088,0.6979,0.2092,-40.9676,7.3688,15.5184,
5.589591,-0.1155,0.1949,-0.0028,0.5088,0.6979,0.2092,-40.9676,7.3688,15.5184,
5.590773,-0.1155,0.1949,-0.0028,0.5088,0.6979,0.2092,-40.9676,7.3688,15.5184,
5.598124,-0.1155,0.1949,-0.0028,0.5704,0.8863,0.3180,-40.9676,7.3688,15.5184,
5.607284,-0.3666,0.2617,-0.0977,0.5704,0.8863,0.3180,-40.9676,7.3688,15.5184,
5.617098,-0.3666,0.2617,-0.0977,0.5704,0.8863,0.3180,-41.0286,7.8812,15.1768,
5.655738,-0.3666,0.2617,-0.0977,0.5704,0.8863,0.3180,-41.0286,7.8812,15.1768,
5.658432,-0.3666,0.2617,-0.0977,0.5704,0.8863,0.3180,-41.0286,7.8812,15.1768,
5.660266,-0.3666,0.2617,-0.0977,0.5704,0.8863,0.3180,-41.0286,7.8812,15.1768,
5.668403,-0.3666,0.2617,-0.0977,0.5997,0.8970,0.3674,-41.0286,7.8812,15.1768,
5.678657,-0.3666,0.2617,-0.0977,0.5997,0.8970,0.3674,-41.1384,8.6132,14.4204,
5.681813,0.0607,0.1289,-0.2563,0.5997,0.8970,0.3674,-41.1384,8.6132,14.4204,
5.721152,0.0607,0.1289,-0.2563,0.5997,0.8970,0.3674,-41.1384,8.6132,14.4204,
5.723990,0.0607,0.1289,-0.2563,0.5997,0.8970,0.3674,-41.1384,8.6132,14.4204,
5.725782,0.0607,0.1289,-0.2563,0.5997,0.8970,0.3674,-41.1384,8.6132,14.4204,
5.727740,0.0607,0.1289,-0.2563,0.5997,0.8970,0.3674,-41.1384,8.6132,14.4204,
5.736870,0.0607,0.1289,-0.2563,0.5997,0.8970,0.3674,-41.1628,9.3940,13.4688,
5.740288,0.0607,0.1289,-0.2563,0.4920,0.8401,0.2257,-41.1628,9.3940,13.4688,
5.748252,-0.5694,0.2649,-0.1186,0.4920,0.8401,0.2257,-41.1628,9.3940,13.4688,
5.788896,-0.5694,0.2649,-0.1186,0.4920,0.8401,0.2257,-41.1628,9.3940,13.4688,
5.792464,-0.5694,0.2649,-0.1186,0.4920,0.8401,0.2257,-41.1628,9.3940,13.4688,
5.794322,-0.5694,0.2649,-0.1186,0.4920,0.8401,0.2257,-41.1628,9.3940,13.4688,
5.796766,-0.5694,0.2649,-0.1186,0.4920,0.8401,0.2257,-41.2360,10.2724,12.2488,
5.806475,-0.5694,0.2649,-0.1186,0.4597,0.4700,0.1582,-41.2360,10.2724,12.2488,
5.816525,-0.1607,-0.0425,0.2108,0.4597,0.4700,0.1582,-41.2360,10.2724,12.2488,
5.856357,-0.1607,-0.0425,0.2108,0.4597,0.4700,0.1582,-41.3092,11.2118,10.6628,
5.859904,-0.1607,-0.0425,0.2108,0.4597,0.4700,0.1582,-41.3092,11.2118,10.6628,
5.861770,-0.1607,-0.0425,0.2108,0.4597,0.4700,0.1582,-41.3092,11.2118,10.6628,
5.863696,-0.1607,-0.0425,0.2108,0.4597,0.4700,0.1582,-41.3092,11.2118,10.6628,
5.875559,-0.1607,-0.0425,0.2108,0.2935,0.4020,0.0763,-41.3092,11.2118,10.6628,
5.886588,0.0871,0.4907,-0.0095,0.2935,0.4020,0.0763,-41.3092,11.2118,10.6628,
5.916215,0.0871,0.4907,-0.0095,0.2935,0.4020,0.0763,-41.4678,12.1024,8.8816,
5.919694,0.0871,0.4907,-0.0095,0.2935,0.4020,0.0763,-41.4678,12.1024,8.8816,
5.920830,0.0871,0.4907,-0.0095,0.2935,0.4020,0.0763,-41.4678,12.1024,8.8816,
5.922682,0.0871,0.4907,-0.0095,0.2935,0.4020,0.0763,-41.4678,12.1024,8.8816,
5.924262,0.0871,0.4907,-0.0095,0.2935,0.4020,0.0763,-41.4678,12.1024,8.8816,
5.946109,0.0871,0.4907,-0.0095,-0.0096,0.3953,0.0739,-41.4678,12.1024,8.8816,
5.958463,-0.3993,0.5533,-0.3378,-0.0096,0.3953,0.0739,-41.4678,12.1024,8.8816,
5.975885,-0.3993,0.5533,-0.3378,-0.0096,0.3953,0.0739,-41.5044,12.9320,7.1858,
5.987209,-0.3993,0.5533,-0.3378,-0.0096,0.3953,0.0739,-41.5044,12.9320,7.1858,
5.992624,-0.3993,0.5533,-0.3378,-0.0096,0.3953,0.0739,-41.5044,12.9320,7.1858,
5.993521,-0.3993,0.5533,-0.3378,-0.0096,0.3953,0.0739,-41.5044,12.9320,7.1858,
6.015630,-0.3993,0.5533,-0.3378,-0.3848,0.0724,0.0439,-41.5044,12.9320,7.1858,
6.025127,-0.0306,1.0630,-0.6997,-0.3848,0.0724,0.0439,-41.5044,12.9320,7.1858,
6.034633,-0.0306,1.0630,-0.6997,-0.3848,0.0724,0.0439,-41.5044,13.5786,5.7584,
6.054707,-0.0306,1.0630,-0.6997,-0.3848,0.0724,0.0439,-41.5044,13.5786,5.7584,
6.055599,-0.0306,1.0630,-0.6997,-0.3848,0.0724,0.0439,-41.5044,13.5786,5.7584,
6.055912,-0.0306,1.0630,-0.6997,-0.3848,0.0724,0.0439,-41.5044,13.5786,5.7584,
6.056193,-0.0306,1.0630,-0.6997,-0.3848,0.0724,0.0439,-41.5044,13.5786,5.7584,
6.086654,-0.0306,1.0630,-0.6997,-0.4740,-0.0515,-0.0166,-41.5044,13.5786,5.7584,
6.095132,-0.0306,1.0630,-0.6997,-0.4740,-0.0515,-0.0166,-41.4434,14.1032,4.6970,
6.096342,-0.0086,1.2062,0.4224,-0.4740,-0.0515,-0.0166,-41.4434,14.1032,4.6970,
6.120905,-0.0086,1.2062,0.4224,-0.4740,-0.0515,-0.0166,-41.4434,14.1032,4.6970,
6.122775,-0.0086,1.2062,0.4224,-0.4740,-0.0515,-0.0166,-41.4434,14.1032,4.6970,
6.123784,-0.0086,1.2062,0.4224,-0.4740,-0.0515,-0.0166,-41.4434,14.1032,4.6970,
6.155993,-0.0086,1.2062,0.4224,-0.4740,-0.0515,-0.0166,-41.4434,14.5302,3.9894,
6.157461,-0.0086,1.2062,0.4224,-0.8706,-0.4005,0.0088,-41.4434,14.5302,3.9894,
6.165533,0.5992,0.9580,1.2669,-0.8706,-0.4005,0.0088,-41.4434,14.5302,3.9894,
6.188144,0.5992,0.9580,1.2669,-0.8706,-0.4005,0.0088,-41.4434,14.5302,3.9894,
6.189690,0.5992,0.9580,1.2669,-0.8706,-0.4005,0.0088,-41.4434,14.5302,3.9894,
6.190586,0.5992,0.9580,1.2669,-0.8706,-0.4005,0.0088,-41.4434,14.5302,3.9894,
6.214770,0.5992,0.9580,1.2669,-0.8706,-0.4005,0.0088,-41.3824,14.7498,3.9650,
6.224122,0.5992,0.9580,1.2669,-1.0855,-0.3284,-0.0309,-41.3824,14.7498,3.9650,
6.237504,1.1641,0.3563,0.4825,-1.0855,-0.3284,-0.0309,-41.3824,14.7498,3.9650,
6.254650,1.1641,0.3563,0.4825,-1.0855,-0.3284,-0.0309,-41.3824,14.7498,3.9650,
6.257836,1.1641,0.3563,0.4825,-1.0855,-0.3284,-0.0309,-41.3824,14.7498,3.9650,
6.258915,1.1641,0.3563,0.4825,-1.0855,-0.3284,-0.0309,-41.3824,14.7498,3.9650,
6.259844,1.1641,0.3563,0.4825,-1.0855,-0.3284,-0.0309,-41.3824,14.7498,3.9650,
6.274592,1.1641,0.3563,0.4825,-1.0855,-0.3284,-0.0309,-41.2238,14.7620,4.3676,
6.294563,1.1641,0.3563,0.4825,-0.9100,0.2091,-0.0834,-41.2238,14.7620,4.3676,
6.304174,0.6997,-0.2610,0.1190,-0.9100,0.2091,-0.0834,-41.2238,14.7620,4.3676,
6.320563,0.6997,-0.2610,0.1190,-0.9100,0.2091,-0.0834,-41.2238,14.7620,4.3676,
6.321605,0.6997,-0.2610,0.1190,-0.9100,0.2091,-0.0834,-41.2238,14.7620,4.3676,
6.322410,0.6997,-0.2610,0.1190,-0.9100,0.2091,-0.0834,-41.2238,14.7620,4.3676,
6.334025,0.6997,-0.2610,0.1190,-0.9100,0.2091,-0.0834,-41.0652,14.7010,5.0996,
6.365346,0.6997,-0.2610,0.1190,-0.3425,0.3249,-0.0694,-41.0652,14.7010,5.0996,
6.375812,-0.4647,-0.3686,0.7451,-0.3425,0.3249,-0.0694,-41.0652,14.7010,5.0996,
6.390157,-0.4647,-0.3686,0.7451,-0.3425,0.3249,-0.0694,-41.0652,14.7010,5.0996,
6.391696,-0.4647,-0.3686,0.7451,-0.3425,0.3249,-0.0694,-41.0652,14.7010,5.0996,
6.392570,-0.4647,-0.3686,0.7451,-0.3425,0.3249,-0.0694,-41.0652,14.7010,5.0996,
6.394725,-0.4647,-0.3686,0.7451,-0.3425,0.3249,-0.0694,-40.9188,14.6156,5.8316,
6.437335,-0.4647,-0.3686,0.7451,0.0764,-0.1439,-0.1940,-40.9188,14.6156,5.8316,
6.448885,-0.9491,-0.6957,0.5362,0.0764,-0.1439,-0.1940,-40.9188,14.6156,5.8316,
6.454500,-0.9491,-0.6957,0.5362,0.0764,-0.1439,-0.1940,-40.9188,14.6156,5.8316,
6.455438,-0.9491,-0.6957,0.5362,0.0764,-0.1439,-0.1940,-40.9188,14.6156,5.8316,
6.456196,-0.9491,-0.6957,0.5362,0.0764,-0.1439,-0.1940,-40.9188,14.6156,5.8316,
6.456947,-0.9491,-0.6957,0.5362,0.0764,-0.1439,-0.1940,-40.9188,14.6156,5.8316,
6.457695,-0.9491,-0.6957,0.5362,0.0764,-0.1439,-0.1940,-40.8456,14.5058,6.6124,
6.507539,-0.9491,-0.6957,0.5362,0.4645,-0.3591,-0.0786,-40.8456,14.5058,6.6124,
6.514831,-0.9491,-0.6957,0.5362,0.4645,-0.3591,-0.0786,-40.8212,14.3838,7.4420,
6.516364,-0.4434,-1.6223,0.5157,0.4645,-0.3591,-0.0786,-40.8212,14.3838,7.4420,
6.520282,-0.4434,-1.6223,0.5157,0.4645,-0.3591,-0.0786,-40.8212,14.3838,7.4420,
6.521176,-0.4434,-1.6223,0.5157,0.4645,-0.3591,-0.0786,-40.8212,14.3838,7.4420,
6.522069,-0.4434,-1.6223,0.5157,0.4645,-0.3591,-0.0786,-40.8212,14.3838,7.4420,
6.577121,-0.4434,-1.6223,0.5157,0.4645,-0.3591,-0.0786,-40.8334,14.4082,8.1984,
6.579366,-0.4434,-1.6223,0.5157,0.9298,-0.2887,-0.0157,-40.8334,14.4082,8.1984,
6.584793,0.2637,-2.2488,-0.0757,0.9298,-0.2887,-0.0157,-40.8334,14.4082,8.1984,
6.586616,0.2637,-2.2488,-0.0757,0.9298,-0.2887,-0.0157,-40.8334,14.4082,8.1984,
6.587562,0.2637,-2.2488,-0.0757,0.9298,-0.2887,-0.0157,-40.8334,14.4082,8.1984,
6.588386,0.2637,-2.2488,-0.0757,0.9298,-0.2887,-0.0157,-40.8334,14.4082,8.1984,
6.635273,0.2637,-2.2488,-0.0757,0.9298,-0.2887,-0.0157,-40.7602,14.4448,8.9304,
6.646598,0.2637,-2.2488,-0.0757,1.4185,-0.0537,-0.1912,-40.7602,14.4448,8.9304,
6.655276,0.2637,-2.2488,-0.0757,1.4185,-0.0537,-0.1912,-40.7602,14.4448,8.9304,
6.656684,0.2637,-2.2488,-0.0757,1.4185,-0.0537,-0.1912,-40.7602,14.4448,8.9304,
6.657565,0.2637,-2.2488,-0.0757,1.4185,-0.0537,-0.1912,-40.7602,14.4448,8.9304,
6.658506,0.2637,-2.2488,-0.0757,1.4185,-0.0537,-0.1912,-40.7602,14.4448,8.9304,
6.659411,0.5475,-1.8440,-0.5693,1.4185,-0.0537,-0.1912,-40.7602,14.4448,8.9304,
6.696912,0.5475,-1.8440,-0.5693,1.4185,-0.0537,-0.1912,-40.7846,14.6278,9.2842,
6.717218,0.5475,-1.8440,-0.5693,1.7247,-0.1101,-0.1570,-40.7846,14.6278,9.2842,
6.719971,0.5475,-1.8440,-0.5693,1.7247,-0.1101,-0.1570,-40.7846,14.6278,9.2842,
6.720870,0.5475,-1.8440,-0.5693,1.7247,-0.1101,-0.1570,-40.7846,14.6278,9.2842,
6.721653,0.5475,-1.8440,-0.5693,1.7247,-0.1101,-0.1570,-40.7846,14.6278,9.2842,
6.727735,0.4268,-0.8094,-0.6322,1.7247,-0.1101,-0.1570,-40.7846,14.6278,9.2842,
6.765519,0.4268,-0.8094,-0.6322,1.7247,-0.1101,-0.1570,-40.7968,14.9084,9.3818,
6.784283,0.4268,-0.8094,-0.6322,1.8758,-0.4190,-0.3527,-40.7968,14.9084,9.3818,
6.787250,0.4268,-0.8094,-0.6322,1.8758,-0.4190,-0.3527,-40.7968,14.9084,9.3818,
6.789152,0.4268,-0.8094,-0.6322,1.8758,-0.4190,-0.3527,-40.7968,14.9084,9.3818,
6.790973,0.4268,-0.8094,-0.6322,1.8758,-0.4190,-0.3527,-40.7968,14.9084,9.3818,
6.794428,-0.4073,0.2586,-0.3576,1.8758,-0.4190,-0.3527,-40.7968,14.9084,9.3818,
6.823338,-0.4073,0.2586,-0.3576,1.8758,-0.4190,-0.3527,-40.9066,15.2012,9.2964,
6.854478,-0.4073,0.2586,-0.3576,2.1369,-0.7449,-0.6270,-40.9066,15.2012,9.2964,
6.859091,-0.4073,0.2586,-0.3576,2.1369,-0.7449,-0.6270,-40.9066,15.2012,9.2964,
6.861557,-0.4073,0.2586,-0.3576,2.1369,-0.7449,-0.6270,-40.9066,15.2012,9.2964,
6.863222,-0.4073,0.2586,-0.3576,2.1369,-0.7449,-0.6270,-40.9066,15.2012,9.2964,
6.864522,-0.4073,0.2586,-0.3576,2.1369,-0.7449,-0.6270,-40.9066,15.2012,9.2964,
6.866095,-0.5196,1.1118,-0.6594,2.1369,-0.7449,-0.6270,-40.9066,15.2012,9.2964,
6.882553,-0.5196,1.1118,-0.6594,2.1369,-0.7449,-0.6270,-41.0652,15.4818,9.3818,
6.923742,-0.5196,1.1118,-0.6594,2.1369,-0.7449,-0.6270,-41.0652,15.4818,9.3818,
6.927369,-0.5196,1.1118,-0.6594,2.1369,-0.7449,-0.6270,-41.0652,15.4818,9.3818,
6.930091,-0.5196,1.1118,-0.6594,2.1369,-0.7449,-0.6270,-41.0652,15.4818,9.3818,
6.933175,-0.5196,1.1118,-0.6594,2.1067,-0.2884,-0.3744,-41.0652,15.4818,9.3818,
6.935496,-0.7405,0.4316,-1.0822,2.1067,-0.2884,-0.3744,-41.0652,15.4818,9.3818,
6.944274,-0.7405,0.4316,-1.0822,2.1067,-0.2884,-0.3744,-41.3458,15.8722,9.2842,
6.988819,-0.7405,0.4316,-1.0822,2.1067,-0.2884,-0.3744,-41.3458,15.8722,9.2842,
6.992452,-0.7405,0.4316,-1.0822,2.1067,-0.2884,-0.3744,-41.3458,15.8722,9.2842,
6.995027,-0.7405,0.4316,-1.0822,2.1067,-0.2884,-0.3744,-41.3458,15.8722,9.2842,
6.997569,-0.7405,0.4316,-1.0822,2.2212,-0.2598,-0.2170,-41.3458,15.8722,9.2842,
7.004671,-0.7405,0.4316,-1.0822,2.2212,-0.2598,-0.2170,-41.6020,16.3846,9.0280,
7.007474,-1.2759,-0.5510,-1.3148,2.2212,-0.2598,-0.2170,-41.6020,16.3846,9.0280,
7.056501,-1.2759,-0.5510,-1.3148,2.2212,-0.2598,-0.2170,-41.6020,16.3846,9.0280,
7.060359,-1.2759,-0.5510,-1.3148,2.2212,-0.2598,-0.2170,-41.6020,16.3846,9.0280,
7.063025,-1.2759,-0.5510,-1.3148,2.2212,-0.2598,-0.2170,-41.6020,16.3846,9.0280,
7.065579,-1.2759,-0.5510,-1.3148,2.2212,-0.2598,-0.2170,-41.6020,16.3846,9.0280,
7.067981,-1.2759,-0.5510,-1.3148,1.6040,-0.1025,-0.2049,-41.6020,16.3846,9.0280,
7.071157,-1.2759,-0.5510,-1.3148,1.6040,-0.1025,-0.2049,-41.8094,16.7750,8.6986,
7.073606,0.5372,0.4223,-1.8518,1.6040,-0.1025,-0.2049,-41.8094,16.7750,8.6986,
7.122876,0.5372,0.4223,-1.8518,1.6040,-0.1025,-0.2049,-42.0168,17.0434,8.3326,
7.127063,0.5372,0.4223,-1.8518,1.6040,-0.1025,-0.2049,-42.0168,17.0434,8.3326,
7.129514,0.5372,0.4223,-1.8518,1.6040,-0.1025,-0.2049,-42.0168,17.0434,8.3326,
7.132786,0.5372,0.4223,-1.8518,1.6040,-0.1025,-0.2049,-42.0168,17.0434,8.3326,
7.135690,0.5372,0.4223,-1.8518,0.0076,0.3039,-0.0557,-42.0168,17.0434,8.3326,
7.148146,0.6989,-0.2327,-2.3808,0.0076,0.3039,-0.0557,-42.0168,17.0434,8.3326,
7.183060,0.6989,-0.2327,-2.3808,0.0076,0.3039,-0.0557,-42.2242,17.1776,8.0520,
7.186507,0.6989,-0.2327,-2.3808,0.0076,0.3039,-0.0557,-42.2242,17.1776,8.0520,
7.187372,0.6989,-0.2327,-2.3808,0.0076,0.3039,-0.0557,-42.2242,17.1776,8.0520,
7.188126,0.6989,-0.2327,-2.3808,0.0076,0.3039,-0.0557,-42.2242,17.1776,8.0520,
7.202697,0.6989,-0.2327,-2.3808,-0.8639,0.4453,-0.0479,-42.2242,17.1776,8.0520,
7.211457,0.6532,-2.7369,-1.8985,-0.8639,0.4453,-0.0479,-42.2242,17.1776,8.0520,
7.241399,0.6532,-2.7369,-1.8985,-0.8639,0.4453,-0.0479,-42.3096,17.1776,7.9300,
7.255296,0.6532,-2.7369,-1.8985,-0.8639,0.4453,-0.0479,-42.3096,17.1776,7.9300,
7.259138,0.6532,-2.7369,-1.8985,-0.8639,0.4453,-0.0479,-42.3096,17.1776,7.9300,
7.261948,0.6532,-2.7369,-1.8985,-0.8639,0.4453,-0.0479,-42.3096,17.1776,7.9300,
7.264597,0.6532,-2.7369,-1.8985,-0.8639,0.4453,-0.0479,-42.3096,17.1776,7.9300,
7.272205,0.6532,-2.7369,-1.8985,-1.2019,0.2499,-0.0995,-42.3096,17.1776,7.9300,
7.282652,-0.3909,-3.5321,2.2679,-1.2019,0.2499,-0.0995,-42.3096,17.1776,7.9300,
7.303081,-0.3909,-3.5321,2.2679,-1.2019,0.2499,-0.0995,-42.3706,17.1044,7.8202,
7.322386,-0.3909,-3.5321,2.2679,-1.2019,0.2499,-0.0995,-42.3706,17.1044,7.8202,
7.325957,-0.3909,-3.5321,2.2679,-1.2019,0.2499,-0.0995,-42.3706,17.1044,7.8202,
7.328436,-0.3909,-3.5321,2.2679,-1.2019,0.2499,-0.0995,-42.3706,17.1044,7.8202,
7.343400,-0.3909,-3.5321,2.2679,-0.6444,0.1703,-0.0348,-42.3706,17.1044,7.8202,
7.351565,-0.9261,-2.4040,3.0239,-0.6444,0.1703,-0.0348,-42.3706,17.1044,7.8202,
7.362363,-0.9261,-2.4040,3.0239,-0.6444,0.1703,-0.0348,-42.3584,16.9824,7.6982,
7.388764,-0.9261,-2.4040,3.0239,-0.6444,0.1703,-0.0348,-42.3584,16.9824,7.6982,
7.393473,-0.9261,-2.4040,3.0239,-0.6444,0.1703,-0.0348,-42.3584,16.9824,7.6982,
7.396421,-0.9261,-2.4040,3.0239,-0.6444,0.1703,-0.0348,-42.3584,16.9824,7.6982,
7.412389,-0.9261,-2.4040,3.0239,0.4428,0.0983,0.0107,-42.3584,16.9824,7.6982,
7.422299,-0.9261,-2.4040,3.0239,0.4428,0.0983,0.0107,-42.2364,16.7872,7.6006,
7.424578,-1.1943,-1.6415,2.1994,0.4428,0.0983,0.0107,-42.2364,16.7872,7.6006,
7.454616,-1.1943,-1.6415,2.1994,0.4428,0.0983,0.0107,-42.2364,16.7872,7.6006,
7.455854,-1.1943,-1.6415,2.1994,0.4428,0.0983,0.0107,-42.2364,16.7872,7.6006,
7.456678,-1.1943,-1.6415,2.1994,0.4428,0.0983,0.0107,-42.2364,16.7872,7.6006,
7.457769,-1.1943,-1.6415,2.1994,0.4428,0.0983,0.0107,-42.2364,16.7872,7.6006,
7.482275,-1.1943,-1.6415,2.1994,0.4428,0.0983,0.0107,-42.1144,16.5432,7.5152,
7.485472,-1.1943,-1.6415,2.1994,0.8650,-0.0423,0.0856,-42.1144,16.5432,7.5152,
7.491904,0.2130,-0.3822,0.4428,0.8650,-0.0423,0.0856,-42.1144,16.5432,7.5152,
7.522759,0.2130,-0.3822,0.4428,0.8650,-0.0423,0.0856,-42.1144,16.5432,7.5152,
7.526277,0.2130,-0.3822,0.4428,0.8650,-0.0423,0.0856,-42.1144,16.5432,7.5152,
7.529106,0.2130,-0.3822,0.4428,0.8650,-0.0423,0.0856,-42.1144,16.5432,7.5152,
7.543004,0.2130,-0.3822,0.4428,0.8650,-0.0423,0.0856,-42.1022,16.4090,7.3322,
7.551338,0.2130,-0.3822,0.4428,0.6425,-0.0499,0.1337,-42.1022,16.4090,7.3322,
7.563251,0.4007,0.2948,-0.4017,0.6425,-0.0499,0.1337,-42.1022,16.4090,7.3322,
7.588796,0.4007,0.2948,-0.4017,0.6425,-0.0499,0.1337,-42.1022,16.4090,7.3322,
7.593210,0.4007,0.2948,-0.4017,0.6425,-0.0499,0.1337,-42.1022,16.4090,7.3322,
7.596006,0.4007,0.2948,-0.4017,0.6425,-0.0499,0.1337,-42.1022,16.4090,7.3322,
7.603185,0.4007,0.2948,-0.4017,0.6425,-0.0499,0.1337,-42.1632,16.3358,7.1370,
7.620081,0.4007,0.2948,-0.4017,0.2866,-0.0278,0.0728,-42.1632,16.3358,7.1370,
7.630374,0.2775,0.3959,-0.3029,0.2866,-0.0278,0.0728,-42.1632,16.3358,7.1370,
7.655031,0.2775,0.3959,-0.3029,0.2866,-0.0278,0.0728,-42.1632,16.3358,7.1370,
7.656461,0.2775,0.3959,-0.3029,0.2866,-0.0278,0.0728,-42.1632,16.3358,7.1370,
7.657219,0.2775,0.3959,-0.3029,0.2866,-0.0278,0.0728,-42.1632,16.3358,7.1370,
7.658021,0.2775,0.3959,-0.3029,0.2866,-0.0278,0.0728,-42.1632,16.3358,7.1370,
7.662004,0.2775,0.3959,-0.3029,0.2866,-0.0278,0.0728,-42.1998,16.3236,6.9174,
7.692150,0.2775,0.3959,-0.3029,0.2218,-0.0747,-0.0216,-42.1998,16.3236,6.9174,
7.702351,0.1938,0.5154,0.0142,0.2218,-0.0747,-0.0216,-42.1998,16.3236,6.9174,
7.721019,0.1938,0.5154,0.0142,0.2218,-0.0747,-0.0216,-42.4316,16.3358,6.6246,
7.722756,0.1938,0.5154,0.0142,0.2218,-0.0747,-0.0216,-42.4316,16.3358,6.6246,
7.723745,0.1938,0.5154,0.0142,0.2218,-0.0747,-0.0216,-42.4316,16.3358,6.6246,
7.724708,0.1938,0.5154,0.0142,0.2218,-0.0747,-0.0216,-42.4316,16.3358,6.6246,
7.761376,0.1938,0.5154,0.0142,0.5286,-0.0437,-0.0578,-42.4316,16.3358,6.6246,
7.769645,0.5959,1.1712,0.9883,0.5286,-0.0437,-0.0578,-42.4316,16.3358,6.6246,
7.780712,0.5959,1.1712,0.9883,0.5286,-0.0437,-0.0578,-42.6756,16.3724,6.2830,
7.787321,0.5959,1.1712,0.9883,0.5286,-0.0437,-0.0578,-42.6756,16.3724,6.2830,
7.790304,0.5959,1.1712,0.9883,0.5286,-0.0437,-0.0578,-42.6756,16.3724,6.2830,
7.792989,0.5959,1.1712,0.9883,0.5286,-0.0437,-0.0578,-42.6756,16.3724,6.2830,
7.831468,0.5959,1.1712,0.9883,0.4961,-0.0001,-0.0374,-42.6756,16.3724,6.2830,
7.841144,0.5959,1.1712,0.9883,0.4961,-0.0001,-0.0374,-42.9440,16.4212,5.9170,
7.844811,0.0507,2.4976,1.2824,0.4961,-0.0001,-0.0374,-42.9440,16.4212,5.9170,
7.855661,0.0507,2.4976,1.2824,0.4961,-0.0001,-0.0374,-42.9440,16.4212,5.9170,
7.859235,0.0507,2.4976,1.2824,0.4961,-0.0001,-0.0374,-42.9440,16.4212,5.9170,
7.862248,0.0507,2.4976,1.2824,0.4961,-0.0001,-0.0374,-42.9440,16.4212,5.9170,
7.865287,0.0507,2.4976,1.2824,0.4961,-0.0001,-0.0374,-42.9440,16.4212,5.9170,
7.901122,0.0507,2.4976,1.2824,0.4961,-0.0001,-0.0374,-43.2246,16.3968,5.6486,
7.905243,0.0507,2.4976,1.2824,0.5878,0.0221,-0.0666,-43.2246,16.3968,5.6486,
7.921246,0.5507,2.9499,1.1383,0.5878,0.0221,-0.0666,-43.2246,16.3968,5.6486,
7.923225,0.5507,2.9499,1.1383,0.5878,0.0221,-0.0666,-43.2246,16.3968,5.6486,
7.924365,0.5507,2.9499,1.1383,0.5878,0.0221,-0.0666,-43.2246,16.3968,5.6486,
7.925475,0.5507,2.9499,1.1383,0.5878,0.0221,-0.0666,-43.2246,16.3968,5.6486,
7.954135,0.5507,2.9499,1.1383,0.5878,0.0221,-0.0666,-43.4686,16.2260,5.3924,
7.973612,0.5507,2.9499,1.1383,0.6080,0.2152,-0.0664,-43.4686,16.2260,5.3924,
7.980310,0.6201,3.2308,0.3038,0.6080,0.2152,-0.0664,-43.4686,16.2260,5.3924,
7.988059,0.6201,3.2308,0.3038,0.6080,0.2152,-0.0664,-43.4686,16.2260,5.3924,
7.990972,0.6201,3.2308,0.3038,0.6080,0.2152,-0.0664,-43.4686,16.2260,5.3924,
7.992236,0.6201,3.2308,0.3038,0.6080,0.2152,-0.0664,-43.4686,16.2260,5.3924,
8.019337,0.6201,3.2308,0.3038,0.6080,0.2152,-0.0664,-43.6272,15.9454,5.0508,
8.039148,0.6201,3.2308,0.3038,0.5208,0.2579,0.1561,-43.6272,15.9454,5.0508,
8.049442,0.3771,1.1580,-0.7670,0.5208,0.2579,0.1561,-43.6272,15.9454,5.0508,
8.063788,0.3771,1.1580,-0.7670,0.5208,0.2579,0.1561,-43.6272,15.9454,5.0508,
8.064902,0.3771,1.1580,-0.7670,0.5208,0.2579,0.1561,-43.6272,15.9454,5.0508,
8.065788,0.3771,1.1580,-0.7670,0.5208,0.2579,0.1561,-43.6272,15.9454,5.0508,
8.066717,0.3771,1.1580,-0.7670,0.5208,0.2579,0.1561,-43.6272,15.9454,5.0508,
8.078241,0.3771,1.1580,-0.7670,0.5208,0.2579,0.1561,-43.6882,15.7502,4.6116,
8.108755,0.3771,1.1580,-0.7670,0.4485,0.3429,0.3672,-43.6882,15.7502,4.6116,
8.119423,-0.1759,-0.0804,-1.2081,0.4485,0.3429,0.3672,-43.6882,15.7502,4.6116,
8.122381,-0.1759,-0.0804,-1.2081,0.4485,0.3429,0.3672,-43.6882,15.7502,4.6116,
8.124157,-0.1759,-0.0804,-1.2081,0.4485,0.3429,0.3672,-43.6882,15.7502,4.6116,
8.125972,-0.1759,-0.0804,-1.2081,0.4485,0.3429,0.3672,-43.6882,15.7502,4.6116,
8.138353,-0.1759,-0.0804,-1.2081,0.4485,0.3429,0.3672,-43.7004,15.6648,4.0748,
8.178595,-0.1759,-0.0804,-1.2081,0.4181,0.2902,0.2076,-43.7004,15.6648,4.0748,
8.189070,-0.1759,-0.0804,-1.2081,0.4181,0.2902,0.2076,-43.7004,15.6648,4.0748,
8.191523,-0.1759,-0.0804,-1.2081,0.4181,0.2902,0.2076,-43.7004,15.6648,4.0748,
8.193030,-0.1759,-0.0804,-1.2081,0.4181,0.2902,0.2076,-43.7004,15.6648,4.0748,
8.194711,-0.1759,-0.0804,-1.2081,0.4181,0.2902,0.2076,-43.7004,15.6648,4.0748,
8.195575,-0.6024,-0.4824,-0.1721,0.4181,0.2902,0.2076,-43.7004,15.6648,4.0748,
8.198411,-0.6024,-0.4824,-0.1721,0.4181,0.2902,0.2076,-43.6638,15.7014,3.3306,
8.249020,-0.6024,-0.4824,-0.1721,0.4984,-0.3357,0.1417,-43.6638,15.7014,3.3306,
8.254672,-0.6024,-0.4824,-0.1721,0.4984,-0.3357,0.1417,-43.6638,15.7014,3.3306,
8.257075,-0.6024,-0.4824,-0.1721,0.4984,-0.3357,0.1417,-43.6638,15.7014,3.3306,
8.259294,-0.6024,-0.4824,-0.1721,0.4984,-0.3357,0.1417,-43.6638,15.7014,3.3306,
8.261579,-0.6024,-0.4824,-0.1721,0.4984,-0.3357,0.1417,-43.5784,15.8600,2.6718,
8.264761,-0.2608,-0.3210,-0.4521,0.4984,-0.3357,0.1417,-43.5784,15.8600,2.6718,
8.318260,-0.2608,-0.3210,-0.4521,0.4984,-0.3357,0.1417,-43.4930,16.1040,2.0618,
8.320954,-0.2608,-0.3210,-0.4521,0.3433,-0.2273,0.0336,-43.4930,16.1040,2.0618,
8.322254,-0.2608,-0.3210,-0.4521,0.3433,-0.2273,0.0336,-43.4930,16.1040,2.0618,
8.323002,-0.2608,-0.3210,-0.4521,0.3433,-0.2273,0.0336,-43.4930,16.1040,2.0618,
8.324080,-0.2608,-0.3210,-0.4521,0.3433,-0.2273,0.0336,-43.4930,16.1040,2.0618,
8.326815,0.3796,-0.2665,-0.4120,0.3433,-0.2273,0.0336,-43.4930,16.1040,2.0618,
8.379557,0.3796,-0.2665,-0.4120,0.3433,-0.2273,0.0336,-43.4076,16.4090,1.4396,
8.388351,0.3796,-0.2665,-0.4120,0.3433,-0.2273,0.0336,-43.4076,16.4090,1.4396,
8.391873,0.3796,-0.2665,-0.4120,0.3433,-0.2273,0.0336,-43.4076,16.4090,1.4396,
8.394195,0.3796,-0.2665,-0.4120,0.3433,-0.2273,0.0336,-43.4076,16.4090,1.4396,
8.397178,0.3796,-0.2665,-0.4120,0.3433,-0.2273,0.0336,-43.4076,16.4090,1.4396,
8.399210,0.3796,-0.2665,-0.4120,0.2526,-0.1053,0.0413,-43.4076,16.4090,1.4396,
8.400707,-0.0713,-0.2424,-0.4091,0.2526,-0.1053,0.0413,-43.4076,16.4090,1.4396,
8.439586,-0.0713,-0.2424,-0.4091,0.2526,-0.1053,0.0413,-43.3344,16.8238,0.8906,
8.455182,-0.0713,-0.2424,-0.4091,0.2526,-0.1053,0.0413,-43.3344,16.8238,0.8906,
8.457950,-0.0713,-0.2424,-0.4091,0.2526,-0.1053,0.0413,-43.3344,16.8238,0.8906,
8.460263,-0.0713,-0.2424,-0.4091,0.2526,-0.1053,0.0413,-43.3344,16.8238,0.8906,
8.462791,-0.0713,-0.2424,-0.4091,0.1494,0.0063,0.0399,-43.3344,16.8238,0.8906,
8.475010,-0.1912,-0.2969,-0.6103,0.1494,0.0063,0.0399,-43.3344,16.8238,0.8906,
8.497386,-0.1912,-0.2969,-0.6103,0.1494,0.0063,0.0399,-43.2246,17.2264,0.5490,
8.521932,-0.1912,-0.2969,-0.6103,0.1494,0.0063,0.0399,-43.2246,17.2264,0.5490,
8.524274,-0.1912,-0.2969,-0.6103,0.1494,0.0063,0.0399,-43.2246,17.2264,0.5490,
8.526097,-0.1912,-0.2969,-0.6103,0.1494,0.0063,0.0399,-43.2246,17.2264,0.5490,
8.528038,-0.1912,-0.2969,-0.6103,0.1131,-0.1085,0.0373,-43.2246,17.2264,0.5490,
8.542074,-0.4034,-0.2508,-0.1987,0.1131,-0.1085,0.0373,-43.2246,17.2264,0.5490,
8.556708,-0.4034,-0.2508,-0.1987,0.1131,-0.1085,0.0373,-43.1270,17.5192,0.4026,
8.588985,-0.4034,-0.2508,-0.1987,0.1131,-0.1085,0.0373,-43.1270,17.5192,0.4026,
8.592472,-0.4034,-0.2508,-0.1987,0.1131,-0.1085,0.0373,-43.1270,17.5192,0.4026,
8.595472,-0.4034,-0.2508,-0.1987,0.1131,-0.1085,0.0373,-43.1270,17.5192,0.4026,
8.597769,-0.4034,-0.2508,-0.1987,0.1131,-0.1085,0.0373,-43.1270,17.5192,0.4026,
8.600249,-0.4034,-0.2508,-0.1987,0.0411,-0.1964,0.0462,-43.1270,17.5192,0.4026,
8.607563,-0.1370,-0.2828,-0.0793,0.0411,-0.1964,0.0462,-43.1270,17.5192,0.4026,
8.618522,-0.1370,-0.2828,-0.0793,0.0411,-0.1964,0.0462,-43.0538,17.6900,0.4758,
8.655546,-0.1370,-0.2828,-0.0793,0.0411,-0.1964,0.0462,-43.0538,17.6900,0.4758,
8.658924,-0.1370,-0.2828,-0.0793,0.0411,-0.1964,0.0462,-43.0538,17.6900,0.4758,
8.661138,-0.1370,-0.2828,-0.0793,0.0411,-0.1964,0.0462,-43.0538,17.6900,0.4758,
8.668021,-0.1370,-0.2828,-0.0793,0.0099,-0.1409,0.0230,-43.0538,17.6900,0.4758,
8.677691,-0.1370,-0.2828,-0.0793,0.0099,-0.1409,0.0230,-42.9928,17.8364,0.6710,
8.681068,-0.0762,-0.3172,-0.1299,0.0099,-0.1409,0.0230,-42.9928,17.8364,0.6710,
8.723413,-0.0762,-0.3172,-0.1299,0.0099,-0.1409,0.0230,-42.9928,17.8364,0.6710,
8.727131,-0.0762,-0.3172,-0.1299,0.0099,-0.1409,0.0230,-42.9928,17.8364,0.6710,
8.729383,-0.0762,-0.3172,-0.1299,0.0099,-0.1409,0.0230,-42.9928,17.8364,0.6710,
8.738950,-0.0762,-0.3172,-0.1299,0.0099,-0.1409,0.0230,-42.9806,17.9462,0.8296,
8.740609,-0.0762,-0.3172,-0.1299,0.0594,-0.1104,-0.0186,-42.9806,17.9462,0.8296,
8.747716,-0.1508,-0.2471,-0.0012,0.0594,-0.1104,-0.0186,-42.9806,17.9462,0.8296,
8.788817,-0.1508,-0.2471,-0.0012,0.0594,-0.1104,-0.0186,-42.9806,17.9462,0.8296,
8.792613,-0.1508,-0.2471,-0.0012,0.0594,-0.1104,-0.0186,-42.9806,17.9462,0.8296,
8.795431,-0.1508,-0.2471,-0.0012,0.0594,-0.1104,-0.0186,-42.9806,17.9462,0.8296,
8.798721,-0.1508,-0.2471,-0.0012,0.0594,-0.1104,-0.0186,-42.9806,17.9462,0.8296,
8.801150,-0.1508,-0.2471,-0.0012,0.0594,-0.1104,-0.0186,-42.9318,17.9828,1.0126,
8.807358,-0.1508,-0.2471,-0.0012,0.0465,-0.1336,-0.0076,-42.9318,17.9828,1.0126,
8.817564,-0.2401,-0.1676,-0.0766,0.0465,-0.1336,-0.0076,-42.9318,17.9828,1.0126,
8.856714,-0.2401,-0.1676,-0.0766,0.0465,-0.1336,-0.0076,-42.9318,17.9828,1.0126,
8.860252,-0.2401,-0.1676,-0.0766,0.0465,-0.1336,-0.0076,-42.9318,17.9828,1.0126,
8.862866,-0.2401,-0.1676,-0.0766,0.0465,-0.1336,-0.0076,-42.9318,17.9828,1.0126,
8.865300,-0.2401,-0.1676,-0.0766,0.0465,-0.1336,-0.0076,-42.9074,18.0682,1.2078,
8.876925,-0.2401,-0.1676,-0.0766,0.0740,-0.1415,-0.0426,-42.9074,18.0682,1.2078,
8.888985,-0.0410,-0.2201,-0.0598,0.0740,-0.1415,-0.0426,-42.9074,18.0682,1.2078,
8.917446,-0.0410,-0.2201,-0.0598,0.0740,-0.1415,-0.0426,-42.8830,18.0804,1.4396,
8.922647,-0.0410,-0.2201,-0.0598,0.0740,-0.1415,-0.0426,-42.8830,18.0804,1.4396,
8.926440,-0.0410,-0.2201,-0.0598,0.0740,-0.1415,-0.0426,-42.8830,18.0804,1.4396,
8.927841,-0.0410,-0.2201,-0.0598,0.0740,-0.1415,-0.0426,-42.8830,18.0804,1.4396,
8.946369,-0.0410,-0.2201,-0.0598,0.0766,-0.0863,-0.0037,-42.8830,18.0804,1.4396,
8.955928,-0.0353,-0.1513,-0.0101,0.0766,-0.0863,-0.0037,-42.8830,18.0804,1.4396,
8.976855,-0.0353,-0.1513,-0.0101,0.0766,-0.0863,-0.0037,-42.8952,18.1414,1.6470,
8.989216,-0.0353,-0.1513,-0.0101,0.0766,-0.0863,-0.0037,-42.8952,18.1414,1.6470,
8.992905,-0.0353,-0.1513,-0.0101,0.0766,-0.0863,-0.0037,-42.8952,18.1414,1.6470,
8.995776,-0.0353,-0.1513,-0.0101,0.0766,-0.0863,-0.0037,-42.8952,18.1414,1.6470,
8.998280,-0.0353,-0.1513,-0.0101,0.0766,-0.0863,-0.0037,-42.8952,18.1414,1.6470,
9.016811,-0.0353,-0.1513,-0.0101,0.0353,-0.0170,-0.0012,-42.8952,18.1414,1.6470,
9.026764,-0.0844,-0.2129,0.1340,0.0353,-0.0170,-0.0012,-42.8952,18.1414,1.6470,
9.036535,-0.0844,-0.2129,0.1340,0.0353,-0.0170,-0.0012,-42.9440,18.1780,1.8300,
9.055904,-0.0844,-0.2129,0.1340,0.0353,-0.0170,-0.0012,-42.9440,18.1780,1.8300,
9.058810,-0.0844,-0.2129,0.1340,0.0353,-0.0170,-0.0012,-42.9440,18.1780,1.8300,
9.061136,-0.0844,-0.2129,0.1340,0.0353,-0.0170,-0.0012,-42.9440,18.1780,1.8300,
9.087080,-0.0844,-0.2129,0.1340,-0.0061,-0.0047,-0.0027,-42.9440,18.1780,1.8300,
9.096676,-0.0844,-0.2129,0.1340,-0.0061,-0.0047,-0.0027,-42.9684,18.2268,1.9642,
9.099925,-0.0529,-0.0955,0.0913,-0.0061,-0.0047,-0.0027,-42.9684,18.2268,1.9642,
9.123859,-0.0529,-0.0955,0.0913,-0.0061,-0.0047,-0.0027,-42.9684,18.2268,1.9642,
9.127191,-0.0529,-0.0955,0.0913,-0.0061,-0.0047,-0.0027,-42.9684,18.2268,1.9642,
9.129767,-0.0529,-0.0955,0.0913,-0.0061,-0.0047,-0.0027,-42.9684,18.2268,1.9642,
9.156760,-0.0529,-0.0955,0.0913,-0.0061,-0.0047,-0.0027,-43.0172,18.2512,2.0984,
9.160332,-0.0529,-0.0955,0.0913,-0.0446,-0.0161,0.0039,-43.0172,18.2512,2.0984,
9.164857,0.0663,-0.2249,0.0630,-0.0446,-0.0161,0.0039,-43.0172,18.2512,2.0984,
9.187651,0.0663,-0.2249,0.0630,-0.0446,-0.0161,0.0039,-43.0172,18.2512,2.0984,
9.190169,0.0663,-0.2249,0.0630,-0.0446,-0.0161,0.0039,-43.0172,18.2512,2.0984,
9.192522,0.0663,-0.2249,0.0630,-0.0446,-0.0161,0.0039,-43.0172,18.2512,2.0984,
9.195417,0.0663,-0.2249,0.0630,-0.0446,-0.0161,0.0039,-43.0172,18.2512,2.0984,
9.215604,0.0663,-0.2249,0.0630,-0.0446,-0.0161,0.0039,-43.0172,18.2512,2.2936,
9.224279,0.0663,-0.2249,0.0630,0.0178,-0.0312,0.0722,-43.0172,18.2512,2.2936,
9.238673,0.0251,-0.0235,-0.0197,0.0178,-0.0312,0.0722,-43.0172,18.2512,2.2936,
9.255779,0.0251,-0.0235,-0.0197,0.0178,-0.0312,0.0722,-43.0172,18.2512,2.2936,
9.257156,0.0251,-0.0235,-0.0197,0.0178,-0.0312,0.0722,-43.0172,18.2512,2.2936,
9.257995,0.0251,-0.0235,-0.0197,0.0178,-0.0312,0.0722,-43.0172,18.2512,2.2936,
9.275967,0.0251,-0.0235,-0.0197,0.0178,-0.0312,0.0722,-43.0172,18.2512,2.4888,
9.295834,0.0251,-0.0235,-0.0197,-0.0033,0.0664,-0.0401,-43.0172,18.2512,2.4888,
9.307673,-0.0576,-0.0922,-0.0233,-0.0033,0.0664,-0.0401,-43.0172,18.2512,2.4888,
9.321528,-0.0576,-0.0922,-0.0233,-0.0033,0.0664,-0.0401,-43.0172,18.2512,2.4888,
9.323281,-0.0576,-0.0922,-0.0233,-0.0033,0.0664,-0.0401,-43.0172,18.2512,2.4888,
9.324207,-0.0576,-0.0922,-0.0233,-0.0033,0.0664,-0.0401,-43.0172,18.2512,2.4888,
9.335108,-0.0576,-0.0922,-0.0233,-0.0033,0.0664,-0.0401,-42.9928,18.2024,2.6718,
9.364495,-0.0576,-0.0922,-0.0233,-0.0093,0.0220,-0.0250,-42.9928,18.2024,2.6718,
9.375790,0.0194,-0.1278,0.0053,-0.0093,0.0220,-0.0250,-42.9928,18.2024,2.6718,
9.388202,0.0194,-0.1278,0.0053,-0.0093,0.0220,-0.0250,-42.9928,18.2024,2.6718,
9.391639,0.0194,-0.1278,0.0053,-0.0093,0.0220,-0.0250,-42.9928,18.2024,2.6718,
9.394086,0.0194,-0.1278,0.0053,-0.0093,0.0220,-0.0250,-42.9928,18.2024,2.6718,
9.396822,0.0194,-0.1278,0.0053,-0.0093,0.0220,-0.0250,-42.9928,18.2024,2.6718,
9.400072,0.0194,-0.1278,0.0053,-0.0093,0.0220,-0.0250,-42.9196,18.1658,2.8182,
9.435559,0.0194,-0.1278,0.0053,0.0115,0.0023,-0.0172,-42.9196,18.1658,2.8182,
9.456300,-0.0260,-0.0818,-0.0071,0.0115,0.0023,-0.0172,-42.9196,18.1658,2.8182,
9.458352,-0.0260,-0.0818,-0.0071,0.0115,0.0023,-0.0172,-42.8952,18.1048,2.9524,
9.459719,-0.0260,-0.0818,-0.0071,0.0115,0.0023,-0.0172,-42.8952,18.1048,2.9524,
9.460804,-0.0260,-0.0818,-0.0071,0.0115,0.0023,-0.0172,-42.8952,18.1048,2.9524,
9.462092,-0.0260,-0.0818,-0.0071,0.0115,0.0023,-0.0172,-42.8952,18.1048,2.9524,
9.505666,-0.0260,-0.0818,-0.0071,0.0165,0.0099,0.0029,-42.8952,18.1048,2.9524,
9.523107,-0.0260,-0.0818,-0.0071,0.0165,0.0099,0.0029,-42.8708,18.1170,2.9402,
9.525643,0.0613,-0.0447,-0.0311,0.0165,0.0099,0.0029,-42.8708,18.1170,2.9402,
9.527083,0.0613,-0.0447,-0.0311,0.0165,0.0099,0.0029,-42.8708,18.1170,2.9402,
9.527972,0.0613,-0.0447,-0.0311,0.0165,0.0099,0.0029,-42.8708,18.1170,2.9402,
9.528898,0.0613,-0.0447,-0.0311,0.0165,0.0099,0.0029,-42.8708,18.1170,2.9402,
9.574646,0.0613,-0.0447,-0.0311,0.0165,0.0099,0.0029,-42.8464,18.1292,2.9524,
9.576820,0.0613,-0.0447,-0.0311,0.0232,0.0004,0.0201,-42.8464,18.1292,2.9524,
9.583555,0.0090,-0.0814,0.0417,0.0232,0.0004,0.0201,-42.8464,18.1292,2.9524,
9.587245,0.0090,-0.0814,0.0417,0.0232,0.0004,0.0201,-42.8464,18.1292,2.9524,
9.588678,0.0090,-0.0814,0.0417,0.0232,0.0004,0.0201,-42.8464,18.1292,2.9524,
9.590157,0.0090,-0.0814,0.0417,0.0232,0.0004,0.0201,-42.8464,18.1292,2.9524,
9.591507,0.0090,-0.0814,0.0417,0.0232,0.0004,0.0201,-42.8464,18.1292,2.9524,
9.645594,0.0090,-0.0814,0.0417,0.0232,0.0004,0.0201,-42.8098,18.0926,2.9646,
9.649151,0.0090,-0.0814,0.0417,0.0361,0.0057,0.0091,-42.8098,18.0926,2.9646,
9.652555,0.0379,-0.0940,0.0254,0.0361,0.0057,0.0091,-42.8098,18.0926,2.9646,
9.654942,0.0379,-0.0940,0.0254,0.0361,0.0057,0.0091,-42.8098,18.0926,2.9646,
9.656665,0.0379,-0.0940,0.0254,0.0361,0.0057,0.0091,-42.8098,18.0926,2.9646,
9.658516,0.0379,-0.0940,0.0254,0.0361,0.0057,0.0091,-42.8098,18.0926,2.9646,
9.704662,0.0379,-0.0940,0.0254,0.0361,0.0057,0.0091,-42.7976,18.0804,2.9402,
9.714645,0.0379,-0.0940,0.0254,0.0619,0.0008,0.0216,-42.7976,18.0804,2.9402,
9.720417,0.0379,-0.0940,0.0254,0.0619,0.0008,0.0216,-42.7976,18.0804,2.9402,
9.723363,0.0379,-0.0940,0.0254,0.0619,0.0008,0.0216,-42.7976,18.0804,2.9402,
9.724527,0.0379,-0.0940,0.0254,0.0619,0.0008,0.0216,-42.7976,18.0804,2.9402,
9.730797,-0.0045,0.0317,-0.0199,0.0619,0.0008,0.0216,-42.7976,18.0804,2.9402,
9.764686,-0.0045,0.0317,-0.0199,0.0619,0.0008,0.0216,-42.8342,18.1414,2.7694,
9.785923,-0.0045,0.0317,-0.0199,0.1228,-0.0035,0.0200,-42.8342,18.1414,2.7694,
9.787949,-0.0045,0.0317,-0.0199,0.1228,-0.0035,0.0200,-42.8342,18.1414,2.7694,
9.788846,-0.0045,0.0317,-0.0199,0.1228,-0.0035,0.0200,-42.8342,18.1414,2.7694,
9.789632,-0.0045,0.0317,-0.0199,0.1228,-0.0035,0.0200,-42.8342,18.1414,2.7694,
9.790688,-0.0045,0.0317,-0.0199,0.1228,-0.0035,0.0200,-42.8342,18.1414,2.7694,
9.799151,0.0429,-0.1050,-0.0233,0.1228,-0.0035,0.0200,-42.8342,18.1414,2.7694,
