
time,ax,ay,az,wx,wy,wz,Bx,By,Bz,
0.031631,-0.1043,-0.3411,-0.0991,0.0000,0.0000,0.0000,0.0000,0.0000,0.0000,
0.039070,-0.1043,-0.3411,-0.0991,0.0000,0.0000,0.0000,0.0000,0.0000,0.0000,
0.049422,-0.0450,-0.2935,-0.0072,0.0000,0.0000,0.0000,0.0000,0.0000,0.0000,
0.060209,-0.0450,-0.2935,-0.0072,0.0000,0.0000,0.0000,-41.3438,17.5312,-9.4313,
0.068534,-0.0450,-0.2935,-0.0072,0.0154,-0.0268,-0.0103,-41.3438,17.5312,-9.4313,
0.069701,-0.0401,-0.2066,-0.0909,0.0154,-0.0268,-0.0103,-41.3438,17.5312,-9.4313,
0.088343,-0.0401,-0.2066,-0.0909,0.0154,-0.0268,-0.0103,-41.3438,17.5312,-9.4313,
0.090946,-0.0345,-0.1367,-0.2023,0.0154,-0.0268,-0.0103,-41.3438,17.5312,-9.4313,
0.106917,-0.1046,-0.1182,-0.1259,0.0154,-0.0268,-0.0103,-41.3438,17.5312,-9.4313,
0.121878,-0.1046,-0.1182,-0.1259,0.0154,-0.0268,-0.0103,-42.0188,17.3438,-9.3000,
0.126608,-0.0965,-0.1583,-0.0561,0.0154,-0.0268,-0.0103,-42.0188,17.3438,-9.3000,
0.132453,-0.0965,-0.1583,-0.0561,-0.0311,0.0025,0.0104,-42.0188,17.3438,-9.3000,
0.135138,-0.0965,-0.1583,-0.0561,-0.0311,0.0025,0.0104,-42.0188,17.3438,-9.3000,
0.146361,-0.1335,-0.2775,-0.0793,-0.0311,0.0025,0.0104,-42.0188,17.3438,-9.3000,
0.166295,-0.1168,-0.3291,-0.1186,-0.0311,0.0025,0.0104,-42.0188,17.3438,-9.3000,
0.179304,-0.1168,-0.3291,-0.1186,-0.0311,0.0025,0.0104,-41.8313,17.3063,-8.7938,
0.182515,-0.1168,-0.3291,-0.1186,-0.0311,0.0025,0.0104,-41.8313,17.3063,-8.7938,
0.183140,-0.1318,-0.2769,-0.0887,-0.0311,0.0025,0.0104,-41.8313,17.3063,-8.7938,
0.192118,-0.1318,-0.2769,-0.0887,0.0081,0.0220,0.0250,-41.8313,17.3063,-8.7938,
0.202817,-0.1318,-0.2574,-0.1115,0.0081,0.0220,0.0250,-41.8313,17.3063,-8.7938,
0.222608,-0.0899,-0.2759,-0.0972,0.0081,0.0220,0.0250,-41.8313,17.3063,-8.7938,
0.234556,-0.0899,-0.2759,-0.0972,0.0081,0.0220,0.0250,-41.8313,17.3063,-8.7938,
0.240622,-0.0928,-0.2682,-0.1039,0.0081,0.0220,0.0250,-41.8313,17.3063,-8.7938,
0.241668,-0.0928,-0.2682,-0.1039,0.0081,0.0220,0.0250,-41.2500,17.4188,-9.3375,
0.254840,-0.0928,-0.2682,-0.1039,-0.0004,0.0074,0.0055,-41.2500,17.4188,-9.3375,
0.260088,-0.0864,-0.2300,-0.1394,-0.0004,0.0074,0.0055,-41.2500,17.4188,-9.3375,
0.278762,-0.0864,-0.2300,-0.1394,-0.0004,0.0074,0.0055,-41.2500,17.4188,-9.3375,
0.279768,-0.1152,-0.2498,-0.1352,-0.0004,0.0074,0.0055,-41.2500,17.4188,-9.3375,
0.298621,-0.1458,-0.2213,-0.1320,-0.0004,0.0074,0.0055,-41.2500,17.4188,-9.3375,
0.301844,-0.1458,-0.2213,-0.1320,-0.0004,0.0074,0.0055,-41.7188,17.2313,-9.3188,
0.316617,-0.1458,-0.2213,-0.1320,0.0203,0.0085,0.0030,-41.7188,17.2313,-9.3188,
0.317566,-0.0970,-0.2377,-0.1859,0.0203,0.0085,0.0030,-41.7188,17.2313,-9.3188,
0.326651,-0.0970,-0.2377,-0.1859,0.0203,0.0085,0.0030,-41.7188,17.2313,-9.3188,
0.336263,-0.0956,-0.2416,-0.2030,0.0203,0.0085,0.0030,-41.7188,17.2313,-9.3188,
0.355804,-0.0610,-0.2074,-0.1500,0.0203,0.0085,0.0030,-41.7188,17.2313,-9.3188,
0.361242,-0.0610,-0.2074,-0.1500,0.0203,0.0085,0.0030,-41.4188,17.2688,-9.9563,
0.374485,-0.0610,-0.2074,-0.1500,0.0203,0.0085,0.0030,-41.4188,17.2688,-9.9563,
0.375469,-0.0652,-0.2022,-0.0722,0.0203,0.0085,0.0030,-41.4188,17.2688,-9.9563,
0.378596,-0.0652,-0.2022,-0.0722,0.0056,-0.0012,0.0018,-41.4188,17.2688,-9.9563,
0.393913,-0.0739,-0.2306,-0.0829,0.0056,-0.0012,0.0018,-41.4188,17.2688,-9.9563,
0.412500,-0.0969,-0.2352,-0.1364,0.0056,-0.0012,0.0018,-41.4188,17.2688,-9.9563,
0.422789,-0.0969,-0.2352,-0.1364,0.0056,-0.0012,0.0018,-41.7375,17.6250,-9.1125,
0.425649,-0.0969,-0.2352,-0.1364,0.0056,-0.0012,0.0018,-41.7375,17.6250,-9.1125,
0.431786,-0.0942,-0.2161,-0.1122,0.0056,-0.0012,0.0018,-41.7375,17.6250,-9.1125,
0.440748,-0.0942,-0.2161,-0.1122,-0.0041,0.0025,-0.0067,-41.7375,17.6250,-9.1125,
0.451567,-0.0802,-0.2020,-0.0492,-0.0041,0.0025,-0.0067,-41.7375,17.6250,-9.1125,
0.469581,-0.0802,-0.2020,-0.0492,-0.0041,0.0025,-0.0067,-41.7375,17.6250,-9.1125,
0.470760,-0.0619,-0.2045,-0.0414,-0.0041,0.0025,-0.0067,-41.7375,17.6250,-9.1125,
0.480440,-0.0619,-0.2045,-0.0414,-0.0041,0.0025,-0.0067,-41.3438,17.6438,-9.6375,
0.489728,-0.0525,-0.2500,-0.0606,-0.0041,0.0025,-0.0067,-41.3438,17.6438,-9.6375,
0.503429,-0.0525,-0.2500,-0.0606,0.0056,-0.0146,-0.0005,-41.3438,17.6438,-9.6375,
0.509419,-0.0331,-0.2783,-0.0858,0.0056,-0.0146,-0.0005,-41.3438,17.6438,-9.6375,
0.517309,-0.0331,-0.2783,-0.0858,0.0056,-0.0146,-0.0005,-41.3438,17.6438,-9.6375,
0.528812,-0.0066,-0.2921,-0.1069,0.0056,-0.0146,-0.0005,-41.3438,17.6438,-9.6375,
0.541047,-0.0066,-0.2921,-0.1069,0.0056,-0.0146,-0.0005,-41.4375,17.1000,-8.7000,
0.547488,-0.0075,-0.2917,-0.0935,0.0056,-0.0146,-0.0005,-41.4375,17.1000,-8.7000,
0.565685,-0.0075,-0.2917,-0.0935,0.0056,-0.0146,-0.0005,-41.4375,17.1000,-8.7000,
0.566799,-0.0075,-0.2917,-0.0935,-0.0004,0.0062,-0.0055,-41.4375,17.1000,-8.7000,
0.567717,-0.0020,-0.2747,-0.0534,-0.0004,0.0062,-0.0055,-41.4375,17.1000,-8.7000,
0.585454,-0.0165,-0.2548,-0.0125,-0.0004,0.0062,-0.0055,-41.4375,17.1000,-8.7000,
0.600095,-0.0165,-0.2548,-0.0125,-0.0004,0.0062,-0.0055,-41.2313,17.3250,-9.4313,
0.604419,0.0010,-0.2060,-0.0654,-0.0004,0.0062,-0.0055,-41.2313,17.3250,-9.4313,
0.614495,0.0010,-0.2060,-0.0654,-0.0004,0.0062,-0.0055,-41.2313,17.3250,-9.4313,
0.622747,0.0253,-0.2054,-0.0646,-0.0004,0.0062,-0.0055,-41.2313,17.3250,-9.4313,
0.626606,0.0253,-0.2054,-0.0646,0.0044,0.0245,0.0067,-41.2313,17.3250,-9.4313,
0.643655,0.0141,-0.2770,-0.0797,0.0044,0.0245,0.0067,-41.2313,17.3250,-9.4313,
0.660167,0.0141,-0.2770,-0.0797,0.0044,0.0245,0.0067,-42.1313,17.5312,-9.0938,
0.663181,0.0141,-0.2770,-0.0797,0.0044,0.0245,0.0067,-42.1313,17.5312,-9.0938,
0.665328,0.0131,-0.2527,-0.0329,0.0044,0.0245,0.0067,-42.1313,17.5312,-9.0938,
0.681193,-0.0094,-0.2594,-0.0391,0.0044,0.0245,0.0067,-42.1313,17.5312,-9.0938,
0.689149,-0.0094,-0.2594,-0.0391,0.0007,0.0367,0.0092,-42.1313,17.5312,-9.0938,
0.700700,-0.0369,-0.2734,-0.0377,0.0007,0.0367,0.0092,-42.1313,17.5312,-9.0938,
0.709835,-0.0369,-0.2734,-0.0377,0.0007,0.0367,0.0092,-42.1313,17.5312,-9.0938,
0.720914,-0.0556,-0.2325,-0.0334,0.0007,0.0367,0.0092,-42.1313,17.5312,-9.0938,
0.722254,-0.0556,-0.2325,-0.0334,0.0007,0.0367,0.0092,-41.1375,17.3438,-9.7500,
0.739147,-0.0574,-0.2296,-0.0515,0.0007,0.0367,0.0092,-41.1375,17.3438,-9.7500,
0.751577,-0.0574,-0.2296,-0.0515,0.0104,0.0305,0.0018,-41.1375,17.3438,-9.7500,
0.756079,-0.0574,-0.2296,-0.0515,0.0104,0.0305,0.0018,-41.1375,17.3438,-9.7500,
0.757006,-0.1014,-0.2527,-0.0586,0.0104,0.0305,0.0018,-41.1375,17.3438,-9.7500,
0.777036,-0.1152,-0.3140,-0.0736,0.0104,0.0305,0.0018,-41.1375,17.3438,-9.7500,
0.780548,-0.1152,-0.3140,-0.0736,0.0104,0.0305,0.0018,-41.1375,17.3250,-9.4313,
0.796133,-0.1003,-0.3054,-0.0300,0.0104,0.0305,0.0018,-41.1375,17.3250,-9.4313,
0.804694,-0.1003,-0.3054,-0.0300,0.0104,0.0305,0.0018,-41.1375,17.3250,-9.4313,
0.813532,-0.1003,-0.3054,-0.0300,0.0239,0.0098,0.0018,-41.1375,17.3250,-9.4313,
0.814690,-0.0972,-0.2845,-0.0212,0.0239,0.0098,0.0018,-41.1375,17.3250,-9.4313,
0.833499,-0.0636,-0.2087,-0.0641,0.0239,0.0098,0.0018,-41.1375,17.3250,-9.4313,
0.840396,-0.0636,-0.2087,-0.0641,0.0239,0.0098,0.0018,-41.5312,17.5500,-9.7313,
0.852153,-0.0636,-0.2087,-0.0641,0.0239,0.0098,0.0018,-41.5312,17.5500,-9.7313,
0.853102,-0.0124,-0.1984,-0.0663,0.0239,0.0098,0.0018,-41.5312,17.5500,-9.7313,
0.872209,-0.0565,-0.1192,-0.0813,0.0239,0.0098,0.0018,-41.5312,17.5500,-9.7313,
0.879589,-0.0565,-0.1192,-0.0813,0.0007,-0.0036,-0.0055,-41.5312,17.5500,-9.7313,
0.891428,-0.0576,-0.1962,-0.1376,0.0007,-0.0036,-0.0055,-41.5312,17.5500,-9.7313,
0.901513,-0.0576,-0.1962,-0.1376,0.0007,-0.0036,-0.0055,-41.5312,17.5500,-9.7313,
0.904232,-0.0576,-0.1962,-0.1376,0.0007,-0.0036,-0.0055,-41.8125,17.3438,-9.5250,
0.910927,-0.0265,-0.1852,-0.1201,0.0007,-0.0036,-0.0055,-41.8125,17.3438,-9.5250,
0.929842,-0.0070,-0.2239,0.0082,0.0007,-0.0036,-0.0055,-41.8125,17.3438,-9.5250,
0.938181,-0.0070,-0.2239,0.0082,0.0019,0.0098,0.0067,-41.8125,17.3438,-9.5250,
0.948423,-0.0070,-0.2239,0.0082,0.0019,0.0098,0.0067,-41.8125,17.3438,-9.5250,
0.951118,0.0357,-0.2235,-0.0504,0.0019,0.0098,0.0067,-41.8125,17.3438,-9.5250,
0.959880,0.0357,-0.2235,-0.0504,0.0019,0.0098,0.0067,-42.3188,17.3625,-9.3000,
0.967728,-0.0268,-0.3429,-0.1519,0.0019,0.0098,0.0067,-42.3188,17.3625,-9.3000,
0.986598,-0.0423,-0.3702,-0.1731,0.0019,0.0098,0.0067,-42.3188,17.3625,-9.3000,
0.996452,-0.0423,-0.3702,-0.1731,0.0019,0.0098,0.0067,-42.3188,17.3625,-9.3000,
1.000198,-0.0423,-0.3702,-0.1731,-0.0188,0.0502,-0.0067,-42.3188,17.3625,-9.3000,
1.005761,-0.1834,0.1696,0.0228,-0.0188,0.0502,-0.0067,-42.3188,17.3625,-9.3000,
1.021732,-0.1834,0.1696,0.0228,-0.0188,0.0502,-0.0067,-41.8313,17.7375,-9.2063,
1.024993,-0.1401,0.2750,0.1441,-0.0188,0.0502,-0.0067,-41.8313,17.7375,-9.2063,
1.043679,-0.1401,0.2750,0.1441,-0.0188,0.0502,-0.0067,-41.8313,17.7375,-9.2063,
1.044675,-0.0939,-0.0740,0.0379,-0.0188,0.0502,-0.0067,-41.8313,17.7375,-9.2063,
1.063334,-0.0939,-0.0740,0.0379,-0.0481,-0.0268,0.0470,-41.8313,17.7375,-9.2063,
1.066526,0.0665,-1.2677,-0.4259,-0.0481,-0.0268,0.0470,-41.8313,17.7375,-9.2063,
1.079459,0.0665,-1.2677,-0.4259,-0.0481,-0.0268,0.0470,-41.4375,17.6250,-9.4313,
1.081932,-0.1335,-0.7970,-0.2929,-0.0481,-0.0268,0.0470,-41.4375,17.6250,-9.4313,
1.091040,-0.1335,-0.7970,-0.2929,-0.0481,-0.0268,0.0470,-41.4375,17.6250,-9.4313,
1.101067,-0.1024,-0.1250,0.3357,-0.0481,-0.0268,0.0470,-41.4375,17.6250,-9.4313,
1.120872,-0.0531,0.1517,0.2412,-0.0481,-0.0268,0.0470,-41.4375,17.6250,-9.4313,
1.125547,-0.0531,0.1517,0.2412,0.0789,-0.0098,0.0055,-41.4375,17.6250,-9.4313,
1.139052,-0.0531,0.1517,0.2412,0.0789,-0.0098,0.0055,-41.4375,17.6250,-9.4313,
1.140024,0.0228,0.1673,-0.2679,0.0789,-0.0098,0.0055,-41.4375,17.6250,-9.4313,
1.141023,0.0228,0.1673,-0.2679,0.0789,-0.0098,0.0055,-41.4375,17.6250,-9.4313,
1.159202,-0.1353,-0.1294,-0.3885,0.0789,-0.0098,0.0055,-41.4375,17.6250,-9.4313,
1.179082,-0.1215,-0.3698,0.0403,0.0789,-0.0098,0.0055,-41.4375,17.6250,-9.4313,
1.190331,-0.1215,-0.3698,0.0403,0.0789,-0.0098,0.0055,-41.4375,17.6250,-9.4313,
1.192676,-0.1215,-0.3698,0.0403,-0.0896,0.0195,-0.0213,-41.4375,17.6250,-9.4313,
1.197432,-0.0566,-0.4822,0.3348,-0.0896,0.0195,-0.0213,-41.4375,17.6250,-9.4313,
1.200444,-0.0566,-0.4822,0.3348,-0.0896,0.0195,-0.0213,-41.6438,17.7188,-9.2063,
1.216981,0.0205,-0.4155,0.1661,-0.0896,0.0195,-0.0213,-41.6438,17.7188,-9.2063,
1.235114,0.0205,-0.4155,0.1661,-0.0896,0.0195,-0.0213,-41.6438,17.7188,-9.2063,
1.237882,-0.0250,-0.2213,-0.1482,-0.0896,0.0195,-0.0213,-41.6438,17.7188,-9.2063,
1.249115,-0.0250,-0.2213,-0.1482,0.0214,-0.0452,0.0104,-41.6438,17.7188,-9.2063,
1.254599,-0.1158,-0.2016,-0.2151,0.0214,-0.0452,0.0104,-41.6438,17.7188,-9.2063,
1.260078,-0.1158,-0.2016,-0.2151,0.0214,-0.0452,0.0104,-41.6438,17.6625,-9.7313,
1.273866,-0.1514,-0.2164,-0.1038,0.0214,-0.0452,0.0104,-41.6438,17.6625,-9.7313,
1.282348,-0.1514,-0.2164,-0.1038,0.0214,-0.0452,0.0104,-41.6438,17.6625,-9.7313,
1.292350,-0.0450,-0.2196,-0.0918,0.0214,-0.0452,0.0104,-41.6438,17.6625,-9.7313,
1.310642,-0.0450,-0.2196,-0.0918,-0.0249,-0.0232,-0.0238,-41.6438,17.6625,-9.7313,
1.311716,0.0403,-0.2259,-0.1495,-0.0249,-0.0232,-0.0238,-41.6438,17.6625,-9.7313,
1.320290,0.0403,-0.2259,-0.1495,-0.0249,-0.0232,-0.0238,-41.7375,17.6250,-9.1125,
1.331952,0.0403,-0.2259,-0.1495,-0.0249,-0.0232,-0.0238,-41.7375,17.6250,-9.1125,
1.332986,0.0523,-0.1988,-0.0411,-0.0249,-0.0232,-0.0238,-41.7375,17.6250,-9.1125,
1.350754,-0.0100,-0.2264,0.0057,-0.0249,-0.0232,-0.0238,-41.7375,17.6250,-9.1125,
1.369655,-0.0242,-0.2365,-0.0189,-0.0249,-0.0232,-0.0238,-41.7375,17.6250,-9.1125,
1.373262,-0.0242,-0.2365,-0.0189,-0.0126,-0.0378,-0.0043,-41.7375,17.6250,-9.1125,
1.378316,-0.0242,-0.2365,-0.0189,-0.0126,-0.0378,-0.0043,-41.7375,17.6250,-9.1125,
1.379654,-0.0242,-0.2365,-0.0189,-0.0126,-0.0378,-0.0043,-42.3188,17.6438,-8.9813,
1.388799,-0.0441,-0.2754,-0.0629,-0.0126,-0.0378,-0.0043,-42.3188,17.6438,-8.9813,
1.407795,-0.0309,-0.3121,-0.0702,-0.0126,-0.0378,-0.0043,-42.3188,17.6438,-8.9813,
1.426315,-0.0309,-0.3121,-0.0702,-0.0126,-0.0378,-0.0043,-42.3188,17.6438,-8.9813,
1.427334,0.0060,-0.2484,-0.0648,-0.0126,-0.0378,-0.0043,-42.3188,17.6438,-8.9813,
1.435704,0.0060,-0.2484,-0.0648,-0.0213,-0.0122,-0.0115,-42.3188,17.6438,-8.9813,
1.439747,0.0060,-0.2484,-0.0648,-0.0213,-0.0122,-0.0115,-42.1125,17.5688,-9.5063,
1.444913,0.0252,-0.2373,-0.0451,-0.0213,-0.0122,-0.0115,-42.1125,17.5688,-9.5063,
1.465597,0.0272,-0.2694,-0.0590,-0.0213,-0.0122,-0.0115,-42.1125,17.5688,-9.5063,
1.473638,0.0272,-0.2694,-0.0590,-0.0213,-0.0122,-0.0115,-42.1125,17.5688,-9.5063,
1.484405,-0.0519,-0.2562,-0.0195,-0.0213,-0.0122,-0.0115,-42.1125,17.5688,-9.5063,
1.498010,-0.0519,-0.2562,-0.0195,-0.0334,0.0098,-0.0043,-42.1125,17.5688,-9.5063,
1.499547,-0.0519,-0.2562,-0.0195,-0.0334,0.0098,-0.0043,-41.9250,17.5312,-9.0000,
1.502796,-0.0888,-0.2648,-0.0057,-0.0334,0.0098,-0.0043,-41.9250,17.5312,-9.0000,
1.521083,-0.0888,-0.2648,-0.0057,-0.0334,0.0098,-0.0043,-41.9250,17.5312,-9.0000,
1.522180,-0.0560,-0.2948,0.0343,-0.0334,0.0098,-0.0043,-41.9250,17.5312,-9.0000,
1.541222,-0.0519,-0.2861,0.0369,-0.0334,0.0098,-0.0043,-41.9250,17.5312,-9.0000,
1.560539,-0.0519,-0.2861,0.0369,-0.0249,0.0172,0.0055,-41.9250,17.5312,-9.0000,
1.563642,-0.0427,-0.3226,0.0578,-0.0249,0.0172,0.0055,-41.9250,17.5312,-9.0000,
1.565601,-0.0427,-0.3226,0.0578,-0.0249,0.0172,0.0055,-42.3188,17.6438,-9.1875,
1.568994,-0.0427,-0.3226,0.0578,-0.0249,0.0172,0.0055,-42.3188,17.6438,-9.1875,
1.580005,-0.0096,-0.3204,0.0919,-0.0249,0.0172,0.0055,-42.3188,17.6438,-9.1875,
1.600257,0.0041,-0.2701,0.0655,-0.0249,0.0172,0.0055,-42.3188,17.6438,-9.1875,
1.617621,0.0041,-0.2701,0.0655,-0.0249,0.0172,0.0055,-42.3188,17.6438,-9.1875,
1.618430,0.0257,-0.2556,0.0388,-0.0249,0.0172,0.0055,-42.3188,17.6438,-9.1875,
1.621351,0.0257,-0.2556,0.0388,-0.0249,0.0172,0.0055,-41.6250,17.4188,-9.1125,
1.622360,0.0257,-0.2556,0.0388,-0.0115,0.0318,-0.0007,-41.6250,17.4188,-9.1125,
1.637252,-0.0040,-0.2532,0.0462,-0.0115,0.0318,-0.0007,-41.6250,17.4188,-9.1125,
1.656631,-0.0437,-0.2181,0.0007,-0.0115,0.0318,-0.0007,-41.6250,17.4188,-9.1125,
1.667505,-0.0437,-0.2181,0.0007,-0.0115,0.0318,-0.0007,-41.6250,17.4188,-9.1125,
1.674771,-0.0558,-0.2148,0.0698,-0.0115,0.0318,-0.0007,-41.6250,17.4188,-9.1125,
1.680781,-0.0558,-0.2148,0.0698,-0.0115,0.0318,-0.0007,-41.8313,17.7375,-9.3188,
1.683661,-0.0558,-0.2148,0.0698,-0.0506,0.0380,0.0140,-41.8313,17.7375,-9.3188,
1.695180,-0.0505,-0.2454,0.1663,-0.0506,0.0380,0.0140,-41.8313,17.7375,-9.3188,
1.713243,-0.0505,-0.2454,0.1663,-0.0506,0.0380,0.0140,-41.8313,17.7375,-9.3188,
1.715453,-0.0905,-0.2354,0.1747,-0.0506,0.0380,0.0140,-41.8313,17.7375,-9.3188,
1.732954,-0.0964,-0.2543,0.1138,-0.0506,0.0380,0.0140,-41.8313,17.7375,-9.3188,
1.741623,-0.0964,-0.2543,0.1138,-0.0506,0.0380,0.0140,-41.8500,17.7188,-9.0000,
1.748626,-0.0964,-0.2543,0.1138,-0.0531,0.0220,0.0165,-41.8500,17.7188,-9.0000,
1.751844,-0.1178,-0.2779,0.1028,-0.0531,0.0220,0.0165,-41.8500,17.7188,-9.0000,
1.760348,-0.1178,-0.2779,0.1028,-0.0531,0.0220,0.0165,-41.8500,17.7188,-9.0000,
1.771194,-0.1548,-0.3137,0.0781,-0.0531,0.0220,0.0165,-41.8500,17.7188,-9.0000,
1.790731,-0.1003,-0.3537,0.1453,-0.0531,0.0220,0.0165,-41.8500,17.7188,-9.0000,
1.801620,-0.1003,-0.3537,0.1453,-0.0531,0.0220,0.0165,-41.4188,17.2688,-10.0500,
1.809346,-0.1003,-0.3537,0.1453,-0.0531,0.0220,0.0165,-41.4188,17.2688,-10.0500,
1.811140,-0.1003,-0.3537,0.1453,-0.0469,0.0428,0.0263,-41.4188,17.2688,-10.0500,
1.812537,0.0787,-0.2857,0.1469,-0.0469,0.0428,0.0263,-41.4188,17.2688,-10.0500,
1.827999,0.1636,-0.2009,0.1798,-0.0469,0.0428,0.0263,-41.4188,17.2688,-10.0500,
1.846850,0.1331,-0.0647,0.0036,-0.0469,0.0428,0.0263,-41.4188,17.2688,-10.0500,
1.855873,0.1331,-0.0647,0.0036,-0.0469,0.0428,0.0263,-41.4188,17.2688,-10.0500,
1.862217,0.1331,-0.0647,0.0036,-0.0469,0.0428,0.0263,-42.0375,17.6438,-9.4125,
1.867452,0.0267,0.0299,-0.0818,-0.0469,0.0428,0.0263,-42.0375,17.6438,-9.4125,
1.870323,0.0267,0.0299,-0.0818,-0.1299,0.0770,0.0080,-42.0375,17.6438,-9.4125,
1.885840,-0.1642,0.0394,-0.0226,-0.1299,0.0770,0.0080,-42.0375,17.6438,-9.4125,
1.904702,-0.1642,0.0394,-0.0226,-0.1299,0.0770,0.0080,-42.0375,17.6438,-9.4125,
1.907236,-0.3246,-0.0396,0.1474,-0.1299,0.0770,0.0080,-42.0375,17.6438,-9.4125,
1.920623,-0.3246,-0.0396,0.1474,-0.1299,0.0770,0.0080,-40.9688,17.9062,-9.2250,
1.925028,-0.2522,-0.1924,0.2537,-0.1299,0.0770,0.0080,-40.9688,17.9062,-9.2250,
1.934027,-0.2522,-0.1924,0.2537,-0.2057,0.0648,0.0410,-40.9688,17.9062,-9.2250,
1.943700,-0.1414,-0.2734,0.1466,-0.2057,0.0648,0.0410,-40.9688,17.9062,-9.2250,
1.951731,-0.1414,-0.2734,0.1466,-0.2057,0.0648,0.0410,-40.9688,17.9062,-9.2250,
1.962227,-0.1236,-0.2575,0.0692,-0.2057,0.0648,0.0410,-40.9688,17.9062,-9.2250,
1.980540,-0.1236,-0.2575,0.0692,-0.2057,0.0648,0.0410,-41.1562,17.9062,-9.2250,
1.983779,-0.1793,-0.2306,0.1330,-0.2057,0.0648,0.0410,-41.1562,17.9062,-9.2250,
1.994896,-0.1793,-0.2306,0.1330,-0.2302,0.0500,0.0300,-41.1562,17.9062,-9.2250,
1.999568,-0.1793,-0.2306,0.1330,-0.2302,0.0500,0.0300,-41.1562,17.9062,-9.2250,
2.000569,-0.1773,-0.2299,0.2076,-0.2302,0.0500,0.0300,-41.1562,17.9062,-9.2250,
2.019714,-0.0788,-0.2570,0.2604,-0.2302,0.0500,0.0300,-41.1562,17.9062,-9.2250,
2.039195,-0.0211,-0.1958,0.1652,-0.2302,0.0500,0.0300,-41.1562,17.9062,-9.2250,
2.042012,-0.0211,-0.1958,0.1652,-0.2302,0.0500,0.0300,-41.3813,18.3750,-8.5875,
2.048396,-0.0211,-0.1958,0.1652,-0.2302,0.0500,0.0300,-41.3813,18.3750,-8.5875,
2.056878,-0.0211,-0.1958,0.1652,-0.2509,0.0477,0.0190,-41.3813,18.3750,-8.5875,
2.058244,-0.0358,-0.2058,0.1295,-0.2509,0.0477,0.0190,-41.3813,18.3750,-8.5875,
2.076732,-0.0564,-0.1489,0.1714,-0.2509,0.0477,0.0190,-41.3813,18.3750,-8.5875,
2.096507,-0.0564,-0.1489,0.1714,-0.2509,0.0477,0.0190,-41.3813,18.3750,-8.5875,
2.099572,-0.0609,-0.1227,0.2558,-0.2509,0.0477,0.0190,-41.3813,18.3750,-8.5875,
2.101697,-0.0609,-0.1227,0.2558,-0.2509,0.0477,0.0190,-41.2875,18.3938,-8.9062,
2.115254,-0.0713,-0.1286,0.3302,-0.2509,0.0477,0.0190,-41.2875,18.3938,-8.9062,
2.121976,-0.0713,-0.1286,0.3302,-0.3340,0.0672,0.0153,-41.2875,18.3938,-8.9062,
2.134307,-0.0668,-0.1671,0.3520,-0.3340,0.0672,0.0153,-41.2875,18.3938,-8.9062,
2.145324,-0.0668,-0.1671,0.3520,-0.3340,0.0672,0.0153,-41.2875,18.3938,-8.9062,
2.153430,-0.0449,-0.2261,0.4078,-0.3340,0.0672,0.0153,-41.2875,18.3938,-8.9062,
2.160580,-0.0449,-0.2261,0.4078,-0.3340,0.0672,0.0153,-41.3813,18.3938,-9.0000,
2.173406,-0.0888,-0.2478,0.4647,-0.3340,0.0672,0.0153,-41.3813,18.3938,-9.0000,
2.180954,-0.0888,-0.2478,0.4647,-0.3865,0.0477,0.0128,-41.3813,18.3938,-9.0000,
2.190664,-0.0888,-0.2478,0.4647,-0.3865,0.0477,0.0128,-41.3813,18.3938,-9.0000,
2.191529,-0.1389,-0.2824,0.4533,-0.3865,0.0477,0.0128,-41.3813,18.3938,-9.0000,
2.211019,-0.1018,-0.2449,0.4310,-0.3865,0.0477,0.0128,-41.3813,18.3938,-9.0000,
2.223948,-0.1018,-0.2449,0.4310,-0.3865,0.0477,0.0128,-41.0250,18.8625,-8.6063,
2.230670,-0.0970,-0.2687,0.4973,-0.3865,0.0477,0.0128,-41.0250,18.8625,-8.6063,
2.239074,-0.0970,-0.2687,0.4973,-0.3865,0.0477,0.0128,-41.0250,18.8625,-8.6063,
2.244727,-0.0970,-0.2687,0.4973,-0.4355,0.0477,0.0067,-41.0250,18.8625,-8.6063,
2.248958,-0.0418,-0.2767,0.4807,-0.4355,0.0477,0.0067,-41.0250,18.8625,-8.6063,
2.267855,-0.0337,-0.3022,0.5147,-0.4355,0.0477,0.0067,-41.0250,18.8625,-8.6063,
2.279665,-0.0337,-0.3022,0.5147,-0.4355,0.0477,0.0067,-41.1375,19.1438,-8.1750,
2.287718,-0.0337,-0.3022,0.5147,-0.4355,0.0477,0.0067,-41.1375,19.1438,-8.1750,
2.289924,-0.0731,-0.2957,0.5364,-0.4355,0.0477,0.0067,-41.1375,19.1438,-8.1750,
2.304933,-0.0731,-0.2957,0.5364,-0.4757,0.0135,-0.0128,-41.1375,19.1438,-8.1750,
2.305878,-0.1587,-0.2477,0.5002,-0.4757,0.0135,-0.0128,-41.1375,19.1438,-8.1750,
2.325823,-0.1013,-0.0998,0.3682,-0.4757,0.0135,-0.0128,-41.1375,19.1438,-8.1750,
2.334823,-0.1013,-0.0998,0.3682,-0.4757,0.0135,-0.0128,-41.1375,19.1438,-8.1750,
2.340660,-0.1013,-0.0998,0.3682,-0.4757,0.0135,-0.0128,-40.9313,19.1063,-7.8750,
2.344526,-0.1124,-0.0443,0.3092,-0.4757,0.0135,-0.0128,-40.9313,19.1063,-7.8750,
2.363921,-0.0342,-0.0027,0.2017,-0.4757,0.0135,-0.0128,-40.9313,19.1063,-7.8750,
2.370747,-0.0342,-0.0027,0.2017,-0.5563,0.0245,-0.0250,-40.9313,19.1063,-7.8750,
2.381969,-0.0342,-0.0027,0.2017,-0.5563,0.0245,-0.0250,-40.9313,19.1063,-7.8750,
2.383464,-0.0313,-0.0112,-0.0525,-0.5563,0.0245,-0.0250,-40.9313,19.1063,-7.8750,
2.400914,-0.0313,-0.0112,-0.0525,-0.5563,0.0245,-0.0250,-40.9500,19.2938,-7.6688,
2.404500,-0.0257,0.1526,-0.2479,-0.5563,0.0245,-0.0250,-40.9500,19.2938,-7.6688,
2.421619,-0.0400,0.2910,-0.3092,-0.5563,0.0245,-0.0250,-40.9500,19.2938,-7.6688,
2.429830,-0.0400,0.2910,-0.3092,-0.5563,0.0245,-0.0250,-40.9500,19.2938,-7.6688,
2.430728,-0.0400,0.2910,-0.3092,-0.7323,-0.0268,-0.0446,-40.9500,19.2938,-7.6688,
2.440331,-0.0931,0.5229,-0.2907,-0.7323,-0.0268,-0.0446,-40.9500,19.2938,-7.6688,
2.459704,-0.1462,0.4614,-0.2484,-0.7323,-0.0268,-0.0446,-40.9500,19.2938,-7.6688,
2.462679,-0.1462,0.4614,-0.2484,-0.7323,-0.0268,-0.0446,-41.3625,19.5750,-7.1250,
2.477701,-0.1462,0.4614,-0.2484,-0.7323,-0.0268,-0.0446,-41.3625,19.5750,-7.1250,
2.478900,-0.1613,0.4842,-0.4098,-0.7323,-0.0268,-0.0446,-41.3625,19.5750,-7.1250,
2.492057,-0.1613,0.4842,-0.4098,-0.9705,-0.0183,-0.0996,-41.3625,19.5750,-7.1250,
2.498025,-0.1442,0.6704,-0.4458,-0.9705,-0.0183,-0.0996,-41.3625,19.5750,-7.1250,
2.516814,-0.0215,0.5849,-0.2508,-0.9705,-0.0183,-0.0996,-41.3625,19.5750,-7.1250,
2.519966,-0.0215,0.5849,-0.2508,-0.9705,-0.0183,-0.0996,-41.2875,19.7625,-5.0438,
2.526057,-0.0215,0.5849,-0.2508,-0.9705,-0.0183,-0.0996,-41.2875,19.7625,-5.0438,
2.536548,-0.0224,0.2768,0.1765,-0.9705,-0.0183,-0.0996,-41.2875,19.7625,-5.0438,
2.554951,-0.0224,0.2768,0.1765,-1.2137,-0.0610,-0.1253,-41.2875,19.7625,-5.0438,
2.556108,0.1079,0.0552,0.1750,-1.2137,-0.0610,-0.1253,-41.2875,19.7625,-5.0438,
2.574457,0.1079,0.0552,0.1750,-1.2137,-0.0610,-0.1253,-41.2875,19.7625,-5.0438,
2.576725,0.1647,-0.1697,-0.4234,-1.2137,-0.0610,-0.1253,-41.2875,19.7625,-5.0438,
2.582231,0.1647,-0.1697,-0.4234,-1.2137,-0.0610,-0.1253,-41.3813,19.7250,-4.5375,
2.593166,0.1546,0.0996,-1.0856,-1.2137,-0.0610,-0.1253,-41.3813,19.7250,-4.5375,
2.612528,0.3094,0.4169,-1.0769,-1.2137,-0.0610,-0.1253,-41.3813,19.7250,-4.5375,
2.617546,0.3094,0.4169,-1.0769,-1.5423,-0.0003,-0.1408,-41.3813,19.7250,-4.5375,
2.624282,0.3094,0.4169,-1.0769,-1.5423,-0.0003,-0.1408,-41.3813,19.7250,-4.5375,
2.632446,0.2794,0.6660,-0.5730,-1.5423,-0.0003,-0.1408,-41.3813,19.7250,-4.5375,
2.639569,0.2794,0.6660,-0.5730,-1.5423,-0.0003,-0.1408,-41.5125,19.6688,-1.6125,
2.650928,0.1591,0.8374,-0.3587,-1.5423,-0.0003,-0.1408,-41.5125,19.6688,-1.6125,
2.669084,0.1591,0.8374,-0.3587,-1.5423,-0.0003,-0.1408,-41.5125,19.6688,-1.6125,
2.671957,0.1785,1.0849,0.0854,-1.5423,-0.0003,-0.1408,-41.5125,19.6688,-1.6125,
2.678391,0.1785,1.0849,0.0854,-2.0175,-0.1713,0.0400,-41.5125,19.6688,-1.6125,
2.689179,0.3664,0.4912,0.8945,-2.0175,-0.1713,0.0400,-41.5125,19.6688,-1.6125,
2.700406,0.3664,0.4912,0.8945,-2.0175,-0.1713,0.0400,-41.2500,19.8375,0.3563,
2.708262,-0.2766,-0.3432,1.8480,-2.0175,-0.1713,0.0400,-41.2500,19.8375,0.3563,
2.717336,-0.2766,-0.3432,1.8480,-2.0175,-0.1713,0.0400,-41.2500,19.8375,0.3563,
2.728218,-0.4347,-0.4317,1.3954,-2.0175,-0.1713,0.0400,-41.2500,19.8375,0.3563,
2.740659,-0.4347,-0.4317,1.3954,-2.0554,0.0742,0.0718,-41.2500,19.8375,0.3563,
2.746657,0.7146,-1.1682,1.2137,-2.0554,0.0742,0.0718,-41.2500,19.8375,0.3563,
2.760718,0.7146,-1.1682,1.2137,-2.0554,0.0742,0.0718,-40.7812,19.3688,3.0375,
2.766426,0.7146,-1.1682,1.2137,-2.0554,0.0742,0.0718,-40.7812,19.3688,3.0375,
2.767376,0.7577,-1.0050,0.8844,-2.0554,0.0742,0.0718,-40.7812,19.3688,3.0375,
2.785191,0.4307,-1.3336,1.7942,-2.0554,0.0742,0.0718,-40.7812,19.3688,3.0375,
2.802796,0.4307,-1.3336,1.7942,-2.2814,-0.0796,-0.0004,-40.7812,19.3688,3.0375,
2.804064,-0.2968,-2.4385,2.7801,-2.2814,-0.0796,-0.0004,-40.7812,19.3688,3.0375,
2.812940,-0.2968,-2.4385,2.7801,-2.2814,-0.0796,-0.0004,-40.7812,19.3688,3.0375,
2.819999,-0.2968,-2.4385,2.7801,-2.2814,-0.0796,-0.0004,-41.3813,19.0500,5.4375,
2.823915,-0.8183,-3.5449,2.8304,-2.2814,-0.0796,-0.0004,-41.3813,19.0500,5.4375,
2.843421,-1.0475,-3.7732,2.6743,-2.2814,-0.0796,-0.0004,-41.3813,19.0500,5.4375,
2.861123,-1.0475,-3.7732,2.6743,-2.2814,-0.0796,-0.0004,-41.3813,19.0500,5.4375,
2.865836,-1.7239,-2.1755,2.3965,-2.2814,-0.0796,-0.0004,-41.3813,19.0500,5.4375,
2.868276,-1.7239,-2.1755,2.3965,-1.6607,-0.0956,-0.3730,-41.3813,19.0500,5.4375,
2.881142,-1.8013,-2.6803,2.5840,-1.6607,-0.0956,-0.3730,-41.3813,19.0500,5.4375,
2.881950,-1.8013,-2.6803,2.5840,-1.6607,-0.0956,-0.3730,-41.0438,17.7375,7.3875,
2.898618,-1.0184,-4.0396,3.0776,-1.6607,-0.0956,-0.3730,-41.0438,17.7375,7.3875,
2.908230,-1.0184,-4.0396,3.0776,-1.6607,-0.0956,-0.3730,-41.0438,17.7375,7.3875,
2.918272,-0.4922,-4.9016,3.7605,-1.6607,-0.0956,-0.3730,-41.0438,17.7375,7.3875,
2.927514,-0.4922,-4.9016,3.7605,-1.7463,0.2185,-0.2178,-41.0438,17.7375,7.3875,
2.938343,0.1807,-4.5844,3.7633,-1.7463,0.2185,-0.2178,-41.0438,17.7375,7.3875,
2.941954,0.1807,-4.5844,3.7633,-1.7463,0.2185,-0.2178,-41.3063,16.5750,8.8500,
2.956482,0.1807,-4.5844,3.7633,-1.7463,0.2185,-0.2178,-41.3063,16.5750,8.8500,
2.957457,0.2374,-3.9798,4.0033,-1.7463,0.2185,-0.2178,-41.3063,16.5750,8.8500,
2.977561,-0.7342,-4.0038,5.8642,-1.7463,0.2185,-0.2178,-41.3063,16.5750,8.8500,
2.990588,-0.7342,-4.0038,5.8642,-2.7127,0.5666,-0.1360,-41.3063,16.5750,8.8500,
2.995664,-0.9812,-3.8305,8.9106,-2.7127,0.5666,-0.1360,-41.3063,16.5750,8.8500,
3.002755,-0.9812,-3.8305,8.9106,-2.7127,0.5666,-0.1360,-41.6625,15.3188,10.4062,
3.003970,-0.9812,-3.8305,8.9106,-2.7127,0.5666,-0.1360,-41.6625,15.3188,10.4062,
3.013843,-0.3964,-3.3434,12.0702,-2.7127,0.5666,-0.1360,-41.6625,15.3188,10.4062,
3.033592,-0.1049,-4.8770,14.5884,-2.7127,0.5666,-0.1360,-41.6625,15.3188,10.4062,
3.052576,-0.1049,-4.8770,14.5884,-2.7127,0.5666,-0.1360,-41.6625,15.3188,10.4062,
3.055437,-0.1049,-4.8770,14.5884,-2.4842,0.6302,-0.1335,-41.6625,15.3188,10.4062,
3.057728,0.1762,-3.9831,15.4486,-2.4842,0.6302,-0.1335,-41.6625,15.3188,10.4062,
3.060430,0.1762,-3.9831,15.4486,-2.4842,0.6302,-0.1335,-41.4938,13.9125,10.5000,
3.071668,-0.6434,-1.1387,13.1204,-2.4842,0.6302,-0.1335,-41.4938,13.9125,10.5000,
3.091039,-0.6505,1.3030,9.1291,-2.4842,0.6302,-0.1335,-41.4938,13.9125,10.5000,
3.102035,-0.6505,1.3030,9.1291,-2.4842,0.6302,-0.1335,-41.4938,13.9125,10.5000,
3.113867,0.0071,2.0380,7.0702,-2.4842,0.6302,-0.1335,-41.4938,13.9125,10.5000,
3.117234,0.0071,2.0380,7.0702,-1.9491,0.5264,0.2024,-41.4938,13.9125,10.5000,
3.120038,0.0071,2.0380,7.0702,-1.9491,0.5264,0.2024,-41.7750,13.5188,10.5000,
3.128667,0.4776,2.1488,6.0975,-1.9491,0.5264,0.2024,-41.7750,13.5188,10.5000,
3.147435,0.4776,2.1488,6.0975,-1.9491,0.5264,0.2024,-41.7750,13.5188,10.5000,
3.148428,0.6428,2.7349,6.0516,-1.9491,0.5264,0.2024,-41.7750,13.5188,10.5000,
3.167794,-1.3766,2.2394,9.2662,-1.9491,0.5264,0.2024,-41.7750,13.5188,10.5000,
3.176008,-1.3766,2.2394,9.2662,-1.5399,-0.8346,-0.4243,-41.7750,13.5188,10.5000,
3.182508,-1.3766,2.2394,9.2662,-1.5399,-0.8346,-0.4243,-41.1000,13.2188,12.0375,
3.186652,-3.5377,-1.2233,12.2846,-1.5399,-0.8346,-0.4243,-41.1000,13.2188,12.0375,
3.195285,-3.5377,-1.2233,12.2846,-1.5399,-0.8346,-0.4243,-41.1000,13.2188,12.0375,
3.205879,-4.6486,-3.5099,-3.8876,-1.5399,-0.8346,-0.4243,-41.1000,13.2188,12.0375,
3.225342,-7.5324,-1.6658,-12.2686,-1.5399,-0.8346,-0.4243,-41.1000,13.2188,12.0375,
3.237763,-7.5324,-1.6658,-12.2686,3.6609,-1.8426,-0.2875,-41.1000,13.2188,12.0375,
3.239476,-7.5324,-1.6658,-12.2686,3.6609,-1.8426,-0.2875,-39.7688,13.6313,12.9375,
3.242695,-7.5324,-1.6658,-12.2686,3.6609,-1.8426,-0.2875,-39.7688,13.6313,12.9375,
3.243892,-1.4943,3.0464,-13.5495,3.6609,-1.8426,-0.2875,-39.7688,13.6313,12.9375,
3.262505,-18.9567,78.2393,-67.1787,3.6609,-1.8426,-0.2875,-39.7688,13.6313,12.9375,
3.283195,-1.6494,18.4357,-56.7169,3.6609,-1.8426,-0.2875,-39.7688,13.6313,12.9375,
3.294852,-1.6494,18.4357,-56.7169,3.6609,-1.8426,-0.2875,-39.7688,13.6313,12.9375,
3.301883,-1.6494,18.4357,-56.7169,-1.4996,0.0352,-0.0175,-39.7688,13.6313,12.9375,
3.303824,-3.9000,9.0030,-25.3724,-1.4996,0.0352,-0.0175,-39.7688,13.6313,12.9375,
3.304825,-3.9000,9.0030,-25.3724,-1.4996,0.0352,-0.0175,-40.8563,15.3750,7.2750,
3.320215,4.5795,-2.0306,9.2816,-1.4996,0.0352,-0.0175,-40.8563,15.3750,7.2750,
3.338880,4.5795,-2.0306,9.2816,-1.4996,0.0352,-0.0175,-40.8563,15.3750,7.2750,
3.340258,9.3718,-11.1189,-10.6674,-1.4996,0.0352,-0.0175,-40.8563,15.3750,7.2750,
3.360413,-9.7051,-11.6359,-11.6566,-1.4996,0.0352,-0.0175,-40.8563,15.3750,7.2750,
3.364895,-9.7051,-11.6359,-11.6566,-1.4996,0.0352,-0.0175,-41.6250,12.6750,7.8938,
3.367615,-9.7051,-11.6359,-11.6566,-2.5099,0.9453,-1.0889,-41.6250,12.6750,7.8938,
3.377759,-4.9061,-17.7468,-9.0841,-2.5099,0.9453,-1.0889,-41.6250,12.6750,7.8938,
3.386487,-4.9061,-17.7468,-9.0841,-2.5099,0.9453,-1.0889,-41.6250,12.6750,7.8938,
3.396837,-6.4756,5.2624,14.7476,-2.5099,0.9453,-1.0889,-41.6250,12.6750,7.8938,
3.415804,-2.0713,4.7032,24.3639,-2.5099,0.9453,-1.0889,-41.6250,12.6750,7.8938,
3.424703,-2.0713,4.7032,24.3639,-2.5099,0.9453,-1.0889,-41.4563,11.8125,5.6063,
3.425971,-2.0713,4.7032,24.3639,1.0392,1.4231,0.8389,-41.4563,11.8125,5.6063,
3.433691,-2.0713,4.7032,24.3639,1.0392,1.4231,0.8389,-41.4563,11.8125,5.6063,
3.434925,2.2562,0.7197,20.3972,1.0392,1.4231,0.8389,-41.4563,11.8125,5.6063,
3.454689,-4.0881,3.9930,8.9480,1.0392,1.4231,0.8389,-41.4563,11.8125,5.6063,
3.474065,-4.6622,8.3148,3.7646,1.0392,1.4231,0.8389,-41.4563,11.8125,5.6063,
3.480169,-4.6622,8.3148,3.7646,1.0392,1.4231,0.8389,-41.6063,10.8563,5.1750,
3.482904,-4.6622,8.3148,3.7646,1.0392,1.4231,0.8389,-41.6063,10.8563,5.1750,
3.486501,-4.6622,8.3148,3.7646,-0.3475,-0.8444,-0.3131,-41.6063,10.8563,5.1750,
3.492088,0.9440,21.5341,18.7587,-0.3475,-0.8444,-0.3131,-41.6063,10.8563,5.1750,
3.511675,0.0862,-7.7864,-22.3656,-0.3475,-0.8444,-0.3131,-41.6063,10.8563,5.1750,
3.529579,0.0862,-7.7864,-22.3656,-0.3475,-0.8444,-0.3131,-41.6063,10.8563,5.1750,
3.531147,2.0817,-0.5427,-8.3235,-0.3475,-0.8444,-0.3131,-41.6063,10.8563,5.1750,
3.540883,2.0817,-0.5427,-8.3235,-0.3475,-0.8444,-0.3131,-40.4625,10.9125,6.9188,
3.548615,2.0817,-0.5427,-8.3235,0.3697,-0.0478,-0.0004,-40.4625,10.9125,6.9188,
3.550054,1.8608,0.3094,-4.5504,0.3697,-0.0478,-0.0004,-40.4625,10.9125,6.9188,
3.569734,0.7897,6.0444,-0.3649,0.3697,-0.0478,-0.0004,-40.4625,10.9125,6.9188,
3.579330,0.7897,6.0444,-0.3649,0.3697,-0.0478,-0.0004,-40.4625,10.9125,6.9188,
3.591651,-0.0213,2.5428,-3.4861,0.3697,-0.0478,-0.0004,-40.4625,10.9125,6.9188,
3.602465,-0.0213,2.5428,-3.4861,0.3697,-0.0478,-0.0004,-41.0625,11.1188,7.3500,
3.607036,0.2612,1.9178,0.8302,0.3697,-0.0478,-0.0004,-41.0625,11.1188,7.3500,
3.610490,0.2612,1.9178,0.8302,-0.0444,0.0242,0.0106,-41.0625,11.1188,7.3500,
3.625328,0.2612,1.9178,0.8302,-0.0444,0.0242,0.0106,-41.0625,11.1188,7.3500,
3.626682,-0.0426,0.7232,-0.0059,-0.0444,0.0242,0.0106,-41.0625,11.1188,7.3500,
3.645554,0.0342,0.6719,0.3909,-0.0444,0.0242,0.0106,-41.0625,11.1188,7.3500,
3.660269,0.0342,0.6719,0.3909,-0.0444,0.0242,0.0106,-40.8563,10.8938,7.5563,
3.664350,-0.1983,0.8266,1.2279,-0.0444,0.0242,0.0106,-40.8563,10.8938,7.5563,
3.673165,-0.1983,0.8266,1.2279,-0.0444,0.0242,0.0106,-40.8563,10.8938,7.5563,
3.675168,-0.1983,0.8266,1.2279,-0.1141,-0.0784,-0.0554,-40.8563,10.8938,7.5563,
3.683456,-0.2669,0.7726,1.1792,-0.1141,-0.0784,-0.0554,-40.8563,10.8938,7.5563,
3.702175,-0.2488,0.7536,0.7287,-0.1141,-0.0784,-0.0554,-40.8563,10.8938,7.5563,
3.720591,-0.2488,0.7536,0.7287,-0.1141,-0.0784,-0.0554,-40.5750,11.0813,7.6500,
3.723097,-0.2488,0.7536,0.7287,-0.1141,-0.0784,-0.0554,-40.5750,11.0813,7.6500,
3.724630,-0.1953,0.6654,0.7334,-0.1141,-0.0784,-0.0554,-40.5750,11.0813,7.6500,
3.736022,-0.1953,0.6654,0.7334,0.1167,-0.0858,-0.0224,-40.5750,11.0813,7.6500,
3.741214,-0.1625,0.6347,0.5086,0.1167,-0.0858,-0.0224,-40.5750,11.0813,7.6500,
3.759522,-0.2097,0.6900,0.2889,0.1167,-0.0858,-0.0224,-40.5750,11.0813,7.6500,
3.769270,-0.2097,0.6900,0.2889,0.1167,-0.0858,-0.0224,-40.5750,11.0813,7.6500,
3.780043,-0.2653,0.6429,-0.2037,0.1167,-0.0858,-0.0224,-40.5750,11.0813,7.6500,
3.781688,-0.2653,0.6429,-0.2037,0.1167,-0.0858,-0.0224,-40.9500,10.6313,8.7000,
3.798601,-0.2653,0.6429,-0.2037,0.1425,-0.0748,0.0033,-40.9500,10.6313,8.7000,
3.799930,-0.2500,0.6523,-0.5553,0.1425,-0.0748,0.0033,-40.9500,10.6313,8.7000,
3.816050,-0.2500,0.6523,-0.5553,0.1425,-0.0748,0.0033,-40.9500,10.6313,8.7000,
3.817279,-0.1736,0.6641,-0.4976,0.1425,-0.0748,0.0033,-40.9500,10.6313,8.7000,
3.836737,-0.0469,0.6112,-0.3109,0.1425,-0.0748,0.0033,-40.9500,10.6313,8.7000,
3.840700,-0.0469,0.6112,-0.3109,0.1425,-0.0748,0.0033,-41.0625,11.1938,7.6500,
3.855068,-0.1461,0.5856,-0.0884,0.1425,-0.0748,0.0033,-41.0625,11.1938,7.6500,
3.859138,-0.1461,0.5856,-0.0884,-0.0176,-0.0051,-0.0004,-41.0625,11.1938,7.6500,
3.864206,-0.1461,0.5856,-0.0884,-0.0176,-0.0051,-0.0004,-41.0625,11.1938,7.6500,
3.874328,-0.1827,0.5907,0.1434,-0.0176,-0.0051,-0.0004,-41.0625,11.1938,7.6500,
3.894470,-0.1618,0.6144,0.2435,-0.0176,-0.0051,-0.0004,-41.0625,11.1938,7.6500,
3.902245,-0.1618,0.6144,0.2435,-0.0176,-0.0051,-0.0004,-41.2688,11.4750,7.8750,
3.914847,-0.1618,0.6144,0.2435,-0.0176,-0.0051,-0.0004,-41.2688,11.4750,7.8750,
3.917936,-0.1605,0.6006,0.3771,-0.0176,-0.0051,-0.0004,-41.2688,11.4750,7.8750,
3.922040,-0.1605,0.6006,0.3771,-0.0225,0.0450,0.0045,-41.2688,11.4750,7.8750,
3.931990,-0.1381,0.5685,0.5155,-0.0225,0.0450,0.0045,-41.2688,11.4750,7.8750,
3.951593,-0.1167,0.5499,0.3094,-0.0225,0.0450,0.0045,-41.2688,11.4750,7.8750,
3.960355,-0.1167,0.5499,0.3094,-0.0225,0.0450,0.0045,-41.2688,11.4750,7.8750,
3.961728,-0.1167,0.5499,0.3094,-0.0225,0.0450,0.0045,-40.8750,11.1750,7.9688,
3.970560,-0.1276,0.5674,0.1894,-0.0225,0.0450,0.0045,-40.8750,11.1750,7.9688,
3.984785,-0.1276,0.5674,0.1894,0.0337,0.0022,0.0033,-40.8750,11.1750,7.9688,
3.990798,-0.1337,0.5650,0.0839,0.0337,0.0022,0.0033,-40.8750,11.1750,7.9688,
4.008167,-0.1337,0.5650,0.0839,0.0337,0.0022,0.0033,-40.8750,11.1750,7.9688,
4.010978,-0.1475,0.5738,0.1628,0.0337,0.0022,0.0033,-40.8750,11.1750,7.9688,
4.020536,-0.1475,0.5738,0.1628,0.0337,0.0022,0.0033,-40.1813,10.8750,7.6313,
4.027973,-0.1541,0.5352,0.1219,0.0337,0.0022,0.0033,-40.1813,10.8750,7.6313,
4.046788,-0.1541,0.5352,0.1219,0.0214,-0.0038,0.0021,-40.1813,10.8750,7.6313,
4.049742,-0.1534,0.5298,0.1073,0.0214,-0.0038,0.0021,-40.1813,10.8750,7.6313,
4.058006,-0.1534,0.5298,0.1073,0.0214,-0.0038,0.0021,-40.1813,10.8750,7.6313,
4.067235,-0.1551,0.5110,0.1215,0.0214,-0.0038,0.0021,-40.1813,10.8750,7.6313,
4.080983,-0.1551,0.5110,0.1215,0.0214,-0.0038,0.0021,-40.7625,10.9875,7.6500,
4.085340,-0.1234,0.4988,0.0518,0.0214,-0.0038,0.0021,-40.7625,10.9875,7.6500,
4.103625,-0.1234,0.4988,0.0518,0.0214,-0.0038,0.0021,-40.7625,10.9875,7.6500,
4.104922,-0.1321,0.4946,0.2190,0.0214,-0.0038,0.0021,-40.7625,10.9875,7.6500,
4.108483,-0.1321,0.4946,0.2190,0.0032,-0.0100,0.0021,-40.7625,10.9875,7.6500,
4.123526,-0.1376,0.4745,0.2307,0.0032,-0.0100,0.0021,-40.7625,10.9875,7.6500,
4.140484,-0.1376,0.4745,0.2307,0.0032,-0.0100,0.0021,-40.9688,11.0813,7.7625,
4.142059,-0.1529,0.4779,0.2640,0.0032,-0.0100,0.0021,-40.9688,11.0813,7.7625,
4.151967,-0.1529,0.4779,0.2640,0.0032,-0.0100,0.0021,-40.9688,11.0813,7.7625,
4.161518,-0.1398,0.4739,0.1250,0.0032,-0.0100,0.0021,-40.9688,11.0813,7.7625,
4.170585,-0.1398,0.4739,0.1250,0.0324,-0.0038,0.0008,-40.9688,11.0813,7.7625,
4.181630,-0.1586,0.4736,0.0650,0.0324,-0.0038,0.0008,-40.9688,11.0813,7.7625,
4.200107,-0.1586,0.4736,0.0650,0.0324,-0.0038,0.0008,-40.9688,11.0813,7.7625,
4.203316,-0.1515,0.4579,0.0960,0.0324,-0.0038,0.0008,-40.9688,11.0813,7.7625,
4.205859,-0.1515,0.4579,0.0960,0.0324,-0.0038,0.0008,-41.2688,11.2688,8.0813,
4.218911,-0.1614,0.4358,0.1221,0.0324,-0.0038,0.0008,-41.2688,11.2688,8.0813,
4.232551,-0.1614,0.4358,0.1221,0.0044,-0.0015,0.0008,-41.2688,11.2688,8.0813,
4.238400,-0.1565,0.4191,0.1721,0.0044,-0.0015,0.0008,-41.2688,11.2688,8.0813,
4.246761,-0.1565,0.4191,0.1721,0.0044,-0.0015,0.0008,-41.2688,11.2688,8.0813,
4.256964,-0.1586,0.4251,0.2053,0.0044,-0.0015,0.0008,-41.2688,11.2688,8.0813,
4.260397,-0.1586,0.4251,0.2053,0.0044,-0.0015,0.0008,-40.8563,10.9688,7.8563,
4.276629,-0.1604,0.4102,0.1547,0.0044,-0.0015,0.0008,-40.8563,10.9688,7.8563,
4.295911,-0.1604,0.4102,0.1547,0.0044,-0.0015,0.0008,-40.8563,10.9688,7.8563,
4.298888,-0.1604,0.4102,0.1547,0.0092,-0.0027,0.0021,-40.8563,10.9688,7.8563,
4.300780,-0.1765,0.4159,0.1257,0.0092,-0.0027,0.0021,-40.8563,10.9688,7.8563,
4.315405,-0.1456,0.3864,0.0991,0.0092,-0.0027,0.0021,-40.8563,10.9688,7.8563,
4.320113,-0.1456,0.3864,0.0991,0.0092,-0.0027,0.0021,-41.1562,10.9688,8.1750,
4.333979,-0.1370,0.3854,0.1085,0.0092,-0.0027,0.0021,-41.1562,10.9688,8.1750,
4.342939,-0.1370,0.3854,0.1085,0.0092,-0.0027,0.0021,-41.1562,10.9688,8.1750,
4.352906,-0.1422,0.3818,0.1633,0.0092,-0.0027,0.0021,-41.1562,10.9688,8.1750,
4.356723,-0.1422,0.3818,0.1633,0.0081,-0.0015,0.0008,-41.1562,10.9688,8.1750,
4.372902,-0.1351,0.3837,0.1654,0.0081,-0.0015,0.0008,-41.1562,10.9688,8.1750,
4.379430,-0.1351,0.3837,0.1654,0.0081,-0.0015,0.0008,-40.7625,10.6500,8.1562,
4.390050,-0.1351,0.3837,0.1654,0.0081,-0.0015,0.0008,-40.7625,10.6500,8.1562,
4.393445,-0.1492,0.3857,0.1676,0.0081,-0.0015,0.0008,-40.7625,10.6500,8.1562,
4.410216,-0.1613,0.3739,0.1410,0.0081,-0.0015,0.0008,-40.7625,10.6500,8.1562,
4.419172,-0.1613,0.3739,0.1410,0.0104,0.0010,-0.0004,-40.7625,10.6500,8.1562,
4.430424,-0.1399,0.3632,0.1215,0.0104,0.0010,-0.0004,-40.7625,10.6500,8.1562,
4.438836,-0.1399,0.3632,0.1215,0.0104,0.0010,-0.0004,-40.7625,10.6500,8.1562,
4.440887,-0.1399,0.3632,0.1215,0.0104,0.0010,-0.0004,-41.2688,11.1750,8.0813,
4.448640,-0.1486,0.3320,0.1713,0.0104,0.0010,-0.0004,-41.2688,11.1750,8.0813,
4.467856,-0.1332,0.3223,0.1589,0.0104,0.0010,-0.0004,-41.2688,11.1750,8.0813,
4.481654,-0.1332,0.3223,0.1589,0.0069,-0.0051,0.0008,-41.2688,11.1750,8.0813,
4.486313,-0.1332,0.3223,0.1589,0.0069,-0.0051,0.0008,-41.2688,11.1750,8.0813,
4.488284,-0.1341,0.3200,0.2326,0.0069,-0.0051,0.0008,-41.2688,11.1750,8.0813,
4.499898,-0.1341,0.3200,0.2326,0.0069,-0.0051,0.0008,-40.7812,11.2688,7.7625,
4.505390,-0.1463,0.3030,0.2729,0.0069,-0.0051,0.0008,-40.7812,11.2688,7.7625,
4.525398,-0.1437,0.3086,0.2726,0.0069,-0.0051,0.0008,-40.7812,11.2688,7.7625,
4.536229,-0.1437,0.3086,0.2726,0.0069,-0.0051,0.0008,-40.7812,11.2688,7.7625,
4.543776,-0.1437,0.3086,0.2726,0.0349,-0.0027,0.0021,-40.7812,11.2688,7.7625,
4.545811,-0.1539,0.2948,0.3609,0.0349,-0.0027,0.0021,-40.7812,11.2688,7.7625,
4.559643,-0.1539,0.2948,0.3609,0.0349,-0.0027,0.0021,-41.0625,11.2875,7.7625,
4.563003,-0.1291,0.2648,0.3106,0.0349,-0.0027,0.0021,-41.0625,11.2875,7.7625,
4.581434,-0.1291,0.2648,0.3106,0.0349,-0.0027,0.0021,-41.0625,11.2875,7.7625,
4.582974,-0.1116,0.2658,0.2053,0.0349,-0.0027,0.0021,-41.0625,11.2875,7.7625,
4.601894,-0.1225,0.2616,0.0905,0.0349,-0.0027,0.0021,-41.0625,11.2875,7.7625,
4.606623,-0.1225,0.2616,0.0905,0.0606,-0.0051,0.0021,-41.0625,11.2875,7.7625,
4.620955,-0.1432,0.2400,0.1816,0.0606,-0.0051,0.0021,-41.0625,11.2875,7.7625,
4.624182,-0.1432,0.2400,0.1816,0.0606,-0.0051,0.0021,-40.8750,11.0625,7.9688,
4.629355,-0.1432,0.2400,0.1816,0.0606,-0.0051,0.0021,-40.8750,11.0625,7.9688,
4.639184,-0.1369,0.2482,0.2488,0.0606,-0.0051,0.0021,-40.8750,11.0625,7.9688,
4.659209,-0.1344,0.2262,0.2922,0.0606,-0.0051,0.0021,-40.8750,11.0625,7.9688,
4.667442,-0.1344,0.2262,0.2922,0.0924,0.0082,0.0044,-40.8750,11.0625,7.9688,
4.679001,-0.1344,0.2262,0.2922,0.0924,0.0082,0.0044,-40.8750,11.0625,7.9688,
4.680313,-0.1094,0.2280,0.1035,0.0924,0.0082,0.0044,-40.8750,11.0625,7.9688,
4.681236,-0.1094,0.2280,0.1035,0.0924,0.0082,0.0044,-40.8750,11.2875,7.7625,
4.697485,-0.1014,0.2370,0.0442,0.0924,0.0082,0.0044,-40.8750,11.2875,7.7625,
4.718699,-0.0950,0.2036,-0.0366,0.0924,0.0082,0.0044,-40.8750,11.2875,7.7625,
4.726571,-0.0950,0.2036,-0.0366,0.0924,0.0082,0.0044,-40.8750,11.2875,7.7625,
4.729438,-0.0950,0.2036,-0.0366,0.0960,0.0144,0.0021,-40.8750,11.2875,7.7625,
4.735649,-0.0624,0.2088,-0.0505,0.0960,0.0144,0.0021,-40.8750,11.2875,7.7625,
4.740710,-0.0624,0.2088,-0.0505,0.0960,0.0144,0.0021,-41.2500,11.1000,7.7625,
4.755999,-0.1047,0.2267,-0.0548,0.0960,0.0144,0.0021,-41.2500,11.1000,7.7625,
4.773862,-0.1047,0.2267,-0.0548,0.0960,0.0144,0.0021,-41.2500,11.1000,7.7625,
4.777255,-0.0889,0.1963,-0.0209,0.0960,0.0144,0.0021,-41.2500,11.1000,7.7625,
4.792299,-0.0889,0.1963,-0.0209,0.0692,-0.0038,-0.0004,-41.2500,11.1000,7.7625,
4.793738,-0.0703,0.1924,0.0225,0.0692,-0.0038,-0.0004,-41.2500,11.1000,7.7625,
4.799801,-0.0703,0.1924,0.0225,0.0692,-0.0038,-0.0004,-40.6875,11.2688,7.8563,
4.811538,-0.0984,0.1601,0.1832,0.0692,-0.0038,-0.0004,-40.6875,11.2688,7.8563,
4.820309,-0.0984,0.1601,0.1832,0.0692,-0.0038,-0.0004,-40.6875,11.2688,7.8563,
4.831503,-0.0832,0.1614,0.0230,0.0692,-0.0038,-0.0004,-40.6875,11.2688,7.8563,
4.850454,-0.0946,0.1525,0.0304,0.0692,-0.0038,-0.0004,-40.6875,11.2688,7.8563,
4.854467,-0.0946,0.1525,0.0304,0.0544,-0.0051,-0.0016,-40.6875,11.2688,7.8563,
4.859805,-0.0946,0.1525,0.0304,0.0544,-0.0051,-0.0016,-40.8563,10.9688,7.8563,
4.868437,-0.0946,0.1525,0.0304,0.0544,-0.0051,-0.0016,-40.8563,10.9688,7.8563,
4.869680,-0.0895,0.1532,-0.0508,0.0544,-0.0051,-0.0016,-40.8563,10.9688,7.8563,
4.888606,-0.1113,0.0923,0.0164,0.0544,-0.0051,-0.0016,-40.8563,10.9688,7.8563,
4.908047,-0.0785,0.1214,-0.1177,0.0544,-0.0051,-0.0016,-40.8563,10.9688,7.8563,
4.917033,-0.0785,0.1214,-0.1177,0.0544,-0.0051,-0.0016,-40.8563,10.9688,7.8563,
4.919201,-0.0785,0.1214,-0.1177,-0.0201,-0.0100,-0.0004,-40.8563,10.9688,7.8563,
4.921616,-0.0785,0.1214,-0.1177,-0.0201,-0.0100,-0.0004,-40.4813,11.0813,7.6500,
4.926970,-0.0691,0.0315,-0.6831,-0.0201,-0.0100,-0.0004,-40.4813,11.0813,7.6500,
4.945623,-0.1114,0.1042,-1.4123,-0.0201,-0.0100,-0.0004,-40.4813,11.0813,7.6500,
4.964997,-0.1114,0.1042,-1.4123,-0.0201,-0.0100,-0.0004,-40.4813,11.0813,7.6500,
4.967703,-0.4653,-0.3177,-1.4072,-0.0201,-0.0100,-0.0004,-40.4813,11.0813,7.6500,
4.979024,-0.4653,-0.3177,-1.4072,-0.0126,-0.1469,0.0118,-40.4813,11.0813,7.6500,
4.980554,-0.4653,-0.3177,-1.4072,-0.0126,-0.1469,0.0118,-40.4813,11.0250,8.3625,
4.984246,-1.6954,-5.4209,-2.4705,-0.0126,-0.1469,0.0118,-40.4813,11.0250,8.3625,
5.003725,-2.5079,-1.1350,-5.4171,-0.0126,-0.1469,0.0118,-40.4813,11.0250,8.3625,
5.012566,-2.5079,-1.1350,-5.4171,-0.0126,-0.1469,0.0118,-40.4813,11.0250,8.3625,
5.024386,-0.6517,8.1199,-9.3887,-0.0126,-0.1469,0.0118,-40.4813,11.0250,8.3625,
5.041374,-0.6517,8.1199,-9.3887,-0.0126,-0.1469,0.0118,-40.4625,10.8750,7.6313,
5.044582,-0.6517,8.1199,-9.3887,0.8486,0.0938,-0.1422,-40.4625,10.8750,7.6313,
5.046942,0.3871,8.5101,-7.1118,0.8486,0.0938,-0.1422,-40.4625,10.8750,7.6313,
5.059913,0.3871,8.5101,-7.1118,0.8486,0.0938,-0.1422,-40.4625,10.8750,7.6313,
5.061277,1.7137,5.7212,-3.8482,0.8486,0.0938,-0.1422,-40.4625,10.8750,7.6313,
5.080315,1.8786,2.8852,-2.0601,0.8486,0.0938,-0.1422,-40.4625,10.8750,7.6313,
5.098911,1.5334,1.4499,-1.5874,0.8486,0.0938,-0.1422,-40.4625,10.8750,7.6313,
5.100564,1.5334,1.4499,-1.5874,0.8486,0.0938,-0.1422,-40.7812,11.4750,7.8563,
5.101906,1.5334,1.4499,-1.5874,-1.1012,-0.2324,0.2964,-40.7812,11.4750,7.8563,
5.108029,1.5334,1.4499,-1.5874,-1.1012,-0.2324,0.2964,-40.7812,11.4750,7.8563,
5.117884,0.8359,0.3848,-0.9722,-1.1012,-0.2324,0.2964,-40.7812,11.4750,7.8563,
5.137118,0.2206,0.1379,-0.2868,-1.1012,-0.2324,0.2964,-40.7812,11.4750,7.8563,
5.156041,0.2206,0.1379,-0.2868,-1.1012,-0.2324,0.2964,-40.7812,11.4750,7.8563,
5.159104,-0.3233,-0.2210,-0.0258,-1.1012,-0.2324,0.2964,-40.7812,11.4750,7.8563,
5.161546,-0.3233,-0.2210,-0.0258,-1.1012,-0.2324,0.2964,-40.4250,11.5125,10.4438,
5.165233,-0.3233,-0.2210,-0.0258,-1.0560,-0.4632,0.0729,-40.4250,11.5125,10.4438,
5.176121,-0.1216,-0.5450,0.1448,-1.0560,-0.4632,0.0729,-40.4250,11.5125,10.4438,
5.194558,-0.0706,-0.6063,0.4019,-1.0560,-0.4632,0.0729,-40.4250,11.5125,10.4438,
5.203632,-0.0706,-0.6063,0.4019,-1.0560,-0.4632,0.0729,-40.4250,11.5125,10.4438,
5.214383,0.4205,-0.9573,0.7092,-1.0560,-0.4632,0.0729,-40.4250,11.5125,10.4438,
5.219778,0.4205,-0.9573,0.7092,-1.0560,-0.4632,0.0729,-40.4250,11.3250,11.9062,
5.226296,0.4205,-0.9573,0.7092,-0.0433,0.6570,-0.0249,-40.4250,11.3250,11.9062,
5.234755,0.9208,-0.3098,0.6318,-0.0433,0.6570,-0.0249,-40.4250,11.3250,11.9062,
5.251664,0.9208,-0.3098,0.6318,-0.0433,0.6570,-0.0249,-40.4250,11.3250,11.9062,
5.254906,1.4107,0.9079,0.0586,-0.0433,0.6570,-0.0249,-40.4250,11.3250,11.9062,
5.270814,1.5428,1.9171,-0.1344,-0.0433,0.6570,-0.0249,-40.4250,11.3250,11.9062,
5.281148,1.5428,1.9171,-0.1344,-0.0433,0.6570,-0.0249,-41.4938,11.6438,10.3688,
5.292028,1.5428,1.9171,-0.1344,-0.2155,0.4103,-0.1287,-41.4938,11.6438,10.3688,
5.295940,1.5949,2.4172,0.2778,-0.2155,0.4103,-0.1287,-41.4938,11.6438,10.3688,
5.298932,1.5949,2.4172,0.2778,-0.2155,0.4103,-0.1287,-41.4938,11.6438,10.3688,
5.308977,0.2027,2.9886,0.8602,-0.2155,0.4103,-0.1287,-41.4938,11.6438,10.3688,
5.328456,-1.5846,3.0596,1.5036,-0.2155,0.4103,-0.1287,-41.4938,11.6438,10.3688,
5.339835,-1.5846,3.0596,1.5036,-0.2155,0.4103,-0.1287,-41.0625,10.3125,10.7625,
5.346783,-1.5846,3.0596,1.5036,-0.2155,0.4103,-0.1287,-41.0625,10.3125,10.7625,
5.357152,-2.9728,2.3731,2.3649,-0.2155,0.4103,-0.1287,-41.0625,10.3125,10.7625,
5.359080,-2.9728,2.3731,2.3649,-0.6725,-0.0320,-0.1092,-41.0625,10.3125,10.7625,
5.367823,-3.1668,1.4437,3.0002,-0.6725,-0.0320,-0.1092,-41.0625,10.3125,10.7625,
5.385672,-2.2453,0.6733,2.7915,-0.6725,-0.0320,-0.1092,-41.0625,10.3125,10.7625,
5.395685,-2.2453,0.6733,2.7915,-0.6725,-0.0320,-0.1092,-41.0625,10.3125,10.7625,
5.401978,-2.2453,0.6733,2.7915,-0.6725,-0.0320,-0.1092,-40.6500,9.3563,11.8875,
5.404579,-0.8842,-0.1138,3.3384,-0.6725,-0.0320,-0.1092,-40.6500,9.3563,11.8875,
5.412785,-0.8842,-0.1138,3.3384,-0.2889,-0.5757,0.2047,-40.6500,9.3563,11.8875,
5.423808,-0.1339,-0.4110,3.7474,-0.2889,-0.5757,0.2047,-40.6500,9.3563,11.8875,
5.443163,-0.1339,-0.4110,3.7474,-0.2889,-0.5757,0.2047,-40.6500,9.3563,11.8875,
5.445995,0.3810,-0.3203,4.5940,-0.2889,-0.5757,0.2047,-40.6500,9.3563,11.8875,
5.460298,0.3810,-0.3203,4.5940,-0.2889,-0.5757,0.2047,-40.6875,9.8438,13.7625,
5.463578,0.9625,-0.0056,4.8710,-0.2889,-0.5757,0.2047,-40.6875,9.8438,13.7625,
5.476414,0.9625,-0.0056,4.8710,-0.0421,-0.2861,0.3295,-40.6875,9.8438,13.7625,
5.481493,0.8417,0.0065,4.3003,-0.0421,-0.2861,0.3295,-40.6875,9.8438,13.7625,
5.491207,0.8417,0.0065,4.3003,-0.0421,-0.2861,0.3295,-40.6875,9.8438,13.7625,
5.501179,0.1597,0.1905,3.7118,-0.0421,-0.2861,0.3295,-40.6875,9.8438,13.7625,
5.519617,-0.0852,0.4297,3.0822,-0.0421,-0.2861,0.3295,-40.6875,9.8438,13.7625,
5.521279,-0.0852,0.4297,3.0822,-0.0421,-0.2861,0.3295,-40.5375,10.7063,14.1938,
5.538547,-0.0852,0.4297,3.0822,-0.0421,-0.2861,0.3295,-40.5375,10.7063,14.1938,
5.541482,-0.0852,0.4297,3.0822,0.0019,0.6875,0.8474,-40.5375,10.7063,14.1938,
5.544190,0.1099,0.4056,2.2118,0.0019,0.6875,0.8474,-40.5375,10.7063,14.1938,
5.557672,0.0532,-0.1160,0.9835,0.0019,0.6875,0.8474,-40.5375,10.7063,14.1938,
5.578016,-0.2038,0.1450,-0.5409,0.0019,0.6875,0.8474,-40.5375,10.7063,14.1938,
5.581513,-0.2038,0.1450,-0.5409,0.0019,0.6875,0.8474,-40.2188,12.6375,13.0500,
5.586001,-0.2038,0.1450,-0.5409,0.0019,0.6875,0.8474,-40.2188,12.6375,13.0500,
5.596095,0.3402,-0.2811,-1.8608,0.0019,0.6875,0.8474,-40.2188,12.6375,13.0500,
5.599856,0.3402,-0.2811,-1.8608,-0.5466,0.7402,0.8609,-40.2188,12.6375,13.0500,
5.615833,-0.8684,-1.5111,-1.4867,-0.5466,0.7402,0.8609,-40.2188,12.6375,13.0500,
5.633806,-0.8684,-1.5111,-1.4867,-0.5466,0.7402,0.8609,-40.2188,12.6375,13.0500,
5.636677,-1.5990,-1.4361,-0.3823,-0.5466,0.7402,0.8609,-40.2188,12.6375,13.0500,
5.639305,-1.5990,-1.4361,-0.3823,-0.5466,0.7402,0.8609,-39.6938,14.3625,12.2063,
5.653479,-1.5906,-1.7276,0.4005,-0.5466,0.7402,0.8609,-39.6938,14.3625,12.2063,
5.661645,-1.5906,-1.7276,0.4005,-0.7274,-0.6100,-0.0982,-39.6938,14.3625,12.2063,
5.673219,-1.1379,-0.9076,0.2988,-0.7274,-0.6100,-0.0982,-39.6938,14.3625,12.2063,
5.681147,-1.1379,-0.9076,0.2988,-0.7274,-0.6100,-0.0982,-39.6938,14.3625,12.2063,
5.692208,-0.7618,-1.2485,1.5908,-0.7274,-0.6100,-0.0982,-39.6938,14.3625,12.2063,
5.700302,-0.7618,-1.2485,1.5908,-0.7274,-0.6100,-0.0982,-39.9750,13.7250,14.8125,
5.712922,1.0578,-1.1261,2.7483,-0.7274,-0.6100,-0.0982,-39.9750,13.7250,14.8125,
5.724673,1.0578,-1.1261,2.7483,-0.8093,-1.3685,-0.2729,-39.9750,13.7250,14.8125,
5.729208,1.0578,-1.1261,2.7483,-0.8093,-1.3685,-0.2729,-39.9750,13.7250,14.8125,
5.730292,2.0155,-2.3750,3.4203,-0.8093,-1.3685,-0.2729,-39.9750,13.7250,14.8125,
5.749700,1.6057,-2.7642,2.6291,-0.8093,-1.3685,-0.2729,-39.9750,13.7250,14.8125,
5.760406,1.6057,-2.7642,2.6291,-0.8093,-1.3685,-0.2729,-38.6813,11.8688,18.8250,
5.769575,1.2377,-1.8960,0.7251,-0.8093,-1.3685,-0.2729,-38.6813,11.8688,18.8250,
5.777824,1.2377,-1.8960,0.7251,-0.8093,-1.3685,-0.2729,-38.6813,11.8688,18.8250,
5.786560,1.2377,-1.8960,0.7251,0.1217,-0.0773,-0.5283,-38.6813,11.8688,18.8250,
5.790032,0.2697,-0.7981,-1.2493,0.1217,-0.0773,-0.5283,-38.6813,11.8688,18.8250,
5.806046,-0.4017,-0.5900,-2.3139,0.1217,-0.0773,-0.5283,-38.6813,11.8688,18.8250,
5.821309,-0.4017,-0.5900,-2.3139,0.1217,-0.0773,-0.5283,-39.4125,10.8000,18.8250,
5.825120,-0.4017,-0.5900,-2.3139,0.1217,-0.0773,-0.5283,-39.4125,10.8000,18.8250,
5.827254,-1.1039,-0.6668,-1.9105,0.1217,-0.0773,-0.5283,-39.4125,10.8000,18.8250,
5.844663,-1.4871,0.7120,-0.0329,0.1217,-0.0773,-0.5283,-39.4125,10.8000,18.8250,
5.848463,-1.4871,0.7120,-0.0329,0.5089,0.9100,-0.3169,-39.4125,10.8000,18.8250,
5.863823,-0.5152,-1.7784,1.0485,0.5089,0.9100,-0.3169,-39.4125,10.8000,18.8250,
5.872728,-0.5152,-1.7784,1.0485,0.5089,0.9100,-0.3169,-39.4125,10.8000,18.8250,
5.880118,-0.5152,-1.7784,1.0485,0.5089,0.9100,-0.3169,-40.1625,10.6125,17.4000,
5.882799,0.2616,-2.4766,1.3165,0.5089,0.9100,-0.3169,-40.1625,10.6125,17.4000,
5.902480,0.0865,-2.3536,0.9996,0.5089,0.9100,-0.3169,-40.1625,10.6125,17.4000,
5.911092,0.0865,-2.3536,0.9996,1.6244,-0.1273,-0.5686,-40.1625,10.6125,17.4000,
5.920741,0.0865,-2.3536,0.9996,1.6244,-0.1273,-0.5686,-40.1625,10.6125,17.4000,
5.923834,-0.4836,-1.1951,0.1438,1.6244,-0.1273,-0.5686,-40.1625,10.6125,17.4000,
5.940434,-0.8051,-1.5230,0.4614,1.6244,-0.1273,-0.5686,-40.1625,10.6125,17.4000,
5.942055,-0.8051,-1.5230,0.4614,1.6244,-0.1273,-0.5686,-40.4625,11.1000,15.9563,
5.958839,0.2050,-2.9343,-0.0444,1.6244,-0.1273,-0.5686,-40.4625,11.1000,15.9563,
5.970026,0.2050,-2.9343,-0.0444,1.6244,-0.1273,-0.5686,-40.4625,11.1000,15.9563,
5.973198,0.2050,-2.9343,-0.0444,1.9408,0.1683,-0.2314,-40.4625,11.1000,15.9563,
5.979428,-0.2367,-0.9161,-0.0582,1.9408,0.1683,-0.2314,-40.4625,11.1000,15.9563,
5.997400,-0.1404,-1.0638,0.0213,1.9408,0.1683,-0.2314,-40.4625,11.1000,15.9563,
5.999774,-0.1404,-1.0638,0.0213,1.9408,0.1683,-0.2314,-40.8938,12.2438,15.2438,
6.016595,-0.1404,-1.0638,0.0213,1.9408,0.1683,-0.2314,-40.8938,12.2438,15.2438,
6.020005,-0.2416,-1.0482,-0.6994,1.9408,0.1683,-0.2314,-40.8938,12.2438,15.2438,
6.035466,-0.2416,-1.0482,-0.6994,1.8760,0.2123,-0.1031,-40.8938,12.2438,15.2438,
6.037121,-0.2142,-1.0610,-0.7774,1.8760,0.2123,-0.1031,-40.8938,12.2438,15.2438,
6.055216,-0.4051,-1.3565,-0.3268,1.8760,0.2123,-0.1031,-40.8938,12.2438,15.2438,
6.060146,-0.4051,-1.3565,-0.3268,1.8760,0.2123,-0.1031,-41.3063,13.4813,12.8813,
6.063519,-0.4051,-1.3565,-0.3268,1.8760,0.2123,-0.1031,-41.3063,13.4813,12.8813,
6.074004,-0.5465,-1.4661,-0.3726,1.8760,0.2123,-0.1031,-41.3063,13.4813,12.8813,
6.093357,-0.5291,-1.6201,-0.4947,1.8760,0.2123,-0.1031,-41.3063,13.4813,12.8813,
6.097363,-0.5291,-1.6201,-0.4947,1.9444,-0.1188,-0.0896,-41.3063,13.4813,12.8813,
6.111561,-0.5291,-1.6201,-0.4947,1.9444,-0.1188,-0.0896,-41.3063,13.4813,12.8813,
6.112940,-0.2658,-1.5274,-0.7765,1.9444,-0.1188,-0.0896,-41.3063,13.4813,12.8813,
6.120131,-0.2658,-1.5274,-0.7765,1.9444,-0.1188,-0.0896,-41.0625,15.0000,10.5000,
6.131688,-0.0009,-1.3756,-0.7138,1.9444,-0.1188,-0.0896,-41.0625,15.0000,10.5000,
6.150893,0.1759,-1.2019,-0.5474,1.9444,-0.1188,-0.0896,-41.0625,15.0000,10.5000,
6.159898,0.1759,-1.2019,-0.5474,1.9444,-0.1188,-0.0896,-41.0625,15.0000,10.5000,
6.163928,0.1759,-1.2019,-0.5474,1.7453,-0.0443,-0.1385,-41.0625,15.0000,10.5000,
6.169245,0.1368,-0.8446,-0.3295,1.7453,-0.0443,-0.1385,-41.0625,15.0000,10.5000,
6.179938,0.1368,-0.8446,-0.3295,1.7453,-0.0443,-0.1385,-41.0813,15.9750,8.8313,
6.189936,0.0638,-0.4962,-0.2242,1.7453,-0.0443,-0.1385,-41.0813,15.9750,8.8313,
6.207012,0.0638,-0.4962,-0.2242,1.7453,-0.0443,-0.1385,-41.0813,15.9750,8.8313,
6.208379,-0.0877,-0.1658,-0.2061,1.7453,-0.0443,-0.1385,-41.0813,15.9750,8.8313,
6.221334,-0.0877,-0.1658,-0.2061,1.4961,0.1085,-0.0091,-41.0813,15.9750,8.8313,
6.227764,0.1043,-0.0009,-0.0896,1.4961,0.1085,-0.0091,-41.0813,15.9750,8.8313,
6.240962,0.1043,-0.0009,-0.0896,1.4961,0.1085,-0.0091,-41.1000,16.7625,7.2750,
6.246730,0.1658,0.2437,-0.1126,1.4961,0.1085,-0.0091,-41.1000,16.7625,7.2750,
6.255262,0.1658,0.2437,-0.1126,1.4961,0.1085,-0.0091,-41.1000,16.7625,7.2750,
6.264917,0.1968,0.4711,-0.1942,1.4961,0.1085,-0.0091,-41.1000,16.7625,7.2750,
6.283380,0.1968,0.4711,-0.1942,1.0697,-0.0283,0.0814,-41.1000,16.7625,7.2750,
6.285144,0.0980,0.4090,-0.1813,1.0697,-0.0283,0.0814,-41.1000,16.7625,7.2750,
6.300740,0.0980,0.4090,-0.1813,1.0697,-0.0283,0.0814,-41.2125,17.3625,5.4188,
6.304177,0.0980,0.4090,-0.1813,1.0697,-0.0283,0.0814,-41.2125,17.3625,5.4188,
6.306491,0.0539,0.3539,-0.2499,1.0697,-0.0283,0.0814,-41.2125,17.3625,5.4188,
6.322572,-0.0908,0.7050,-0.4536,1.0697,-0.0283,0.0814,-41.2125,17.3625,5.4188,
6.342545,-0.0822,0.7274,-0.5053,1.0697,-0.0283,0.0814,-41.2125,17.3625,5.4188,
6.345783,-0.0822,0.7274,-0.5053,0.7447,-0.1616,0.0044,-41.2125,17.3625,5.4188,
6.351169,-0.0822,0.7274,-0.5053,0.7447,-0.1616,0.0044,-41.2125,17.3625,5.4188,
6.361603,-0.0703,0.5409,-0.4733,0.7447,-0.1616,0.0044,-41.2125,17.3625,5.4188,
6.365124,-0.0703,0.5409,-0.4733,0.7447,-0.1616,0.0044,-41.1000,17.3625,5.3063,
6.380460,0.0289,0.5131,-0.4534,0.7447,-0.1616,0.0044,-41.1000,17.3625,5.3063,
6.399072,0.0289,0.5131,-0.4534,0.7447,-0.1616,0.0044,-41.1000,17.3625,5.3063,
6.402379,0.0508,0.6078,-0.3438,0.7447,-0.1616,0.0044,-41.1000,17.3625,5.3063,
6.407798,0.0508,0.6078,-0.3438,0.6458,-0.1689,-0.1055,-41.1000,17.3625,5.3063,
6.419061,0.0543,0.6269,-0.0888,0.6458,-0.1689,-0.1055,-41.1000,17.3625,5.3063,
6.422671,0.0543,0.6269,-0.0888,0.6458,-0.1689,-0.1055,-41.3063,17.5125,4.8000,
6.437261,0.1743,0.7461,-0.0305,0.6458,-0.1689,-0.1055,-41.3063,17.5125,4.8000,
6.446467,0.1743,0.7461,-0.0305,0.6458,-0.1689,-0.1055,-41.3063,17.5125,4.8000,
6.459872,0.1596,0.8941,-0.0037,0.6458,-0.1689,-0.1055,-41.3063,17.5125,4.8000,
6.470500,0.1596,0.8941,-0.0037,0.7422,-0.0418,-0.1935,-41.3063,17.5125,4.8000,
6.475904,0.3987,0.7861,0.0135,0.7422,-0.0418,-0.1935,-41.3063,17.5125,4.8000,
6.482063,0.3987,0.7861,0.0135,0.7422,-0.0418,-0.1935,-41.2875,17.4563,3.8625,
6.494455,0.3987,0.7861,0.0135,0.7422,-0.0418,-0.1935,-41.2875,17.4563,3.8625,
6.495842,0.3073,0.7661,-0.0647,0.7422,-0.0418,-0.1935,-41.2875,17.4563,3.8625,
6.514741,0.2359,0.9737,-0.2755,0.7422,-0.0418,-0.1935,-41.2875,17.4563,3.8625,
6.532518,0.2359,0.9737,-0.2755,0.7105,-0.1420,-0.2119,-41.2875,17.4563,3.8625,
6.536417,0.1155,1.1424,-0.2075,0.7105,-0.1420,-0.2119,-41.2875,17.4563,3.8625,
6.540360,0.1155,1.1424,-0.2075,0.7105,-0.1420,-0.2119,-41.3813,17.4750,3.6563,
6.541559,0.1155,1.1424,-0.2075,0.7105,-0.1420,-0.2119,-41.3813,17.4750,3.6563,
6.552345,0.0865,0.8411,-0.1922,0.7105,-0.1420,-0.2119,-41.3813,17.4750,3.6563,
6.571990,-0.1416,0.4264,-0.2728,0.7105,-0.1420,-0.2119,-41.3813,17.4750,3.6563,
6.589956,-0.1416,0.4264,-0.2728,0.7105,-0.1420,-0.2119,-41.3813,17.4750,3.6563,
6.593070,-0.0927,0.3520,-0.2657,0.7105,-0.1420,-0.2119,-41.3813,17.4750,3.6563,
6.595792,-0.0927,0.3520,-0.2657,0.4051,-0.2984,-0.0726,-41.3813,17.4750,3.6563,
6.602519,-0.0927,0.3520,-0.2657,0.4051,-0.2984,-0.0726,-41.8688,17.1750,3.9750,
6.609705,0.0027,0.3636,-0.0945,0.4051,-0.2984,-0.0726,-41.8688,17.1750,3.9750,
6.629271,-0.0055,0.3380,0.0568,0.4051,-0.2984,-0.0726,-41.8688,17.1750,3.9750,
6.637899,-0.0055,0.3380,0.0568,0.4051,-0.2984,-0.0726,-41.8688,17.1750,3.9750,
6.648439,-0.0640,0.2187,-0.1041,0.4051,-0.2984,-0.0726,-41.8688,17.1750,3.9750,
6.659434,-0.0640,0.2187,-0.1041,0.1559,-0.0601,0.0912,-41.8688,17.1750,3.9750,
6.663249,-0.0640,0.2187,-0.1041,0.1559,-0.0601,0.0912,-41.4750,17.3438,4.2938,
6.668116,-0.2358,0.2872,-0.5663,0.1559,-0.0601,0.0912,-41.4750,17.3438,4.2938,
6.685598,-0.2358,0.2872,-0.5663,0.1559,-0.0601,0.0912,-41.4750,17.3438,4.2938,
6.687095,-0.2311,0.1423,-0.4865,0.1559,-0.0601,0.0912,-41.4750,17.3438,4.2938,
6.705791,-0.4238,-0.4411,0.0456,0.1559,-0.0601,0.0912,-41.4750,17.3438,4.2938,
6.719259,-0.4238,-0.4411,0.0456,0.5664,0.1733,0.0534,-41.4750,17.3438,4.2938,
6.723147,-0.4238,-0.4411,0.0456,0.5664,0.1733,0.0534,-41.6813,17.6813,3.5625,
6.725798,-0.4355,-1.2819,-0.1859,0.5664,0.1733,0.0534,-41.6813,17.6813,3.5625,
6.733526,-0.4355,-1.2819,-0.1859,0.5664,0.1733,0.0534,-41.6813,17.6813,3.5625,
6.743931,-0.4341,-0.8595,-0.7599,0.5664,0.1733,0.0534,-41.6813,17.6813,3.5625,
6.762345,-0.2213,0.5693,-0.6149,0.5664,0.1733,0.0534,-41.6813,17.6813,3.5625,
6.780460,-0.2213,0.5693,-0.6149,0.5664,0.1733,0.0534,-41.5875,17.9438,2.4188,
6.784572,-0.2213,0.5693,-0.6149,0.5664,0.1733,0.0534,-41.5875,17.9438,2.4188,
6.786816,-0.2213,0.5693,-0.6149,0.9622,0.0535,0.0777,-41.5875,17.9438,2.4188,
6.789557,0.4113,1.3356,0.0007,0.9622,0.0535,0.0777,-41.5875,17.9438,2.4188,
6.800974,0.6240,1.3942,0.1056,0.9622,0.0535,0.0777,-41.5875,17.9438,2.4188,
6.820208,0.5610,1.0142,-0.0287,0.9622,0.0535,0.0777,-41.5875,17.9438,2.4188,
6.829639,0.5610,1.0142,-0.0287,0.9622,0.0535,0.0777,-41.5875,17.9438,2.4188,
6.840221,0.4033,0.6123,-0.1819,0.9622,0.0535,0.0777,-41.5875,17.9438,2.4188,
6.841925,0.4033,0.6123,-0.1819,0.9622,0.0535,0.0777,-41.0813,18.0000,1.2750,
6.842920,0.4033,0.6123,-0.1819,0.9402,0.1048,-0.0591,-41.0813,18.0000,1.2750,
6.858676,0.7190,0.2442,-0.3572,0.9402,0.1048,-0.0591,-41.0813,18.0000,1.2750,
6.877021,0.7190,0.2442,-0.3572,0.9402,0.1048,-0.0591,-41.0813,18.0000,1.2750,
6.879991,0.6876,0.0009,-0.5816,0.9402,0.1048,-0.0591,-41.0813,18.0000,1.2750,
6.897211,0.6438,0.0050,-0.9964,0.9402,0.1048,-0.0591,-41.0813,18.0000,1.2750,
6.900878,0.6438,0.0050,-0.9964,0.9402,0.1048,-0.0591,-41.8500,18.0188,-0.3750,
6.906610,0.6438,0.0050,-0.9964,1.0538,0.2893,-0.0689,-41.8500,18.0188,-0.3750,
6.915533,1.3591,-0.8137,-1.5773,1.0538,0.2893,-0.0689,-41.8500,18.0188,-0.3750,
6.924792,1.3591,-0.8137,-1.5773,1.0538,0.2893,-0.0689,-41.8500,18.0188,-0.3750,
6.935365,2.2184,-0.1452,-1.6700,1.0538,0.2893,-0.0689,-41.8500,18.0188,-0.3750,
6.954694,3.0004,-1.3067,-1.8573,1.0538,0.2893,-0.0689,-41.8500,18.0188,-0.3750,
6.959586,3.0004,-1.3067,-1.8573,1.0538,0.2893,-0.0689,-41.1562,18.3563,-3.3000,
6.968565,3.0004,-1.3067,-1.8573,1.1308,1.7383,0.4577,-41.1562,18.3563,-3.3000,
6.972719,3.0004,-1.3067,-1.8573,1.1308,1.7383,0.4577,-41.1562,18.3563,-3.3000,
6.973630,2.2871,-2.4596,-1.5185,1.1308,1.7383,0.4577,-41.1562,18.3563,-3.3000,
6.992520,1.4633,-2.2254,-2.1991,1.1308,1.7383,0.4577,-41.1562,18.3563,-3.3000,
7.011685,-1.0085,-1.0390,-3.7261,1.1308,1.7383,0.4577,-41.1562,18.3563,-3.3000,
7.020575,-1.0085,-1.0390,-3.7261,1.1308,1.7383,0.4577,-41.1562,18.3563,-3.3000,
7.023029,-1.0085,-1.0390,-3.7261,1.1308,1.7383,0.4577,-39.3188,20.1000,-8.6438,
7.029482,-1.0085,-1.0390,-3.7261,0.6702,2.0619,0.8217,-39.3188,20.1000,-8.6438,
7.032740,-1.1074,-0.1089,-4.9725,0.6702,2.0619,0.8217,-39.3188,20.1000,-8.6438,
7.049596,-0.5793,0.3274,-4.2220,0.6702,2.0619,0.8217,-39.3188,20.1000,-8.6438,
7.068107,-0.5793,0.3274,-4.2220,0.6702,2.0619,0.8217,-39.3188,20.1000,-8.6438,
7.071224,0.4263,0.4610,-3.3441,0.6702,2.0619,0.8217,-39.3188,20.1000,-8.6438,
7.080094,0.4263,0.4610,-3.3441,0.6702,2.0619,0.8217,-36.8063,22.1063,-13.8938,
7.088225,0.3606,0.3721,-3.2910,0.6702,2.0619,0.8217,-36.8063,22.1063,-13.8938,
7.091866,0.3606,0.3721,-3.2910,-0.1947,1.7883,0.5750,-36.8063,22.1063,-13.8938,
7.106618,-0.0545,1.0213,-3.4587,-0.1947,1.7883,0.5750,-36.8063,22.1063,-13.8938,
7.115870,-0.0545,1.0213,-3.4587,-0.1947,1.7883,0.5750,-36.8063,22.1063,-13.8938,
7.125803,-0.4734,2.2796,-2.8401,-0.1947,1.7883,0.5750,-36.8063,22.1063,-13.8938,
7.141042,-0.4734,2.2796,-2.8401,-0.1947,1.7883,0.5750,-34.7063,23.6813,-16.5375,
7.147295,0.2414,1.4486,-2.0439,-0.1947,1.7883,0.5750,-34.7063,23.6813,-16.5375,
7.153040,0.2414,1.4486,-2.0439,-0.6969,1.1909,0.0179,-34.7063,23.6813,-16.5375,
7.162912,0.2414,1.4486,-2.0439,-0.6969,1.1909,0.0179,-34.7063,23.6813,-16.5375,
7.164085,0.4171,-0.3316,-2.1141,-0.6969,1.1909,0.0179,-34.7063,23.6813,-16.5375,
7.183992,-0.1250,0.3685,-1.1329,-0.6969,1.1909,0.0179,-34.7063,23.6813,-16.5375,
7.200202,-0.1250,0.3685,-1.1329,-0.6969,1.1909,0.0179,-34.1438,24.3000,-17.2875,
7.203949,-1.1428,0.2816,-0.8911,-0.6969,1.1909,0.0179,-34.1438,24.3000,-17.2875,
7.211758,-1.1428,0.2816,-0.8911,-0.6969,1.1909,0.0179,-34.1438,24.3000,-17.2875,
7.216903,-1.1428,0.2816,-0.8911,-1.0475,0.7352,-0.2998,-34.1438,24.3000,-17.2875,
7.222053,-1.2044,-1.6451,-1.5568,-1.0475,0.7352,-0.2998,-34.1438,24.3000,-17.2875,
7.241425,-1.3194,0.3281,0.8719,-1.0475,0.7352,-0.2998,-34.1438,24.3000,-17.2875,
7.259699,-1.3194,0.3281,0.8719,-1.0475,0.7352,-0.2998,-34.1438,24.3000,-17.2875,
7.263047,-0.0407,-1.4212,1.2767,-1.0475,0.7352,-0.2998,-34.1438,24.3000,-17.2875,
7.266015,-0.0407,-1.4212,1.2767,-1.0475,0.7352,-0.2998,-34.0875,25.0313,-16.4438,
7.278356,-0.0407,-1.4212,1.2767,-0.7678,0.6350,0.1387,-34.0875,25.0313,-16.4438,
7.280027,-0.8860,-0.1458,0.8272,-0.7678,0.6350,0.1387,-34.0875,25.0313,-16.4438,
7.298228,-0.8961,0.2670,-1.1069,-0.7678,0.6350,0.1387,-34.0875,25.0313,-16.4438,
7.307939,-0.8961,0.2670,-1.1069,-0.7678,0.6350,0.1387,-34.0875,25.0313,-16.4438,
7.317802,-1.1446,-1.4697,-2.2441,-0.7678,0.6350,0.1387,-34.0875,25.0313,-16.4438,
7.321624,-1.1446,-1.4697,-2.2441,-0.7678,0.6350,0.1387,-33.5625,26.4938,-16.3500,
7.336733,0.5780,-0.0313,-0.8985,-0.7678,0.6350,0.1387,-33.5625,26.4938,-16.3500,
7.340674,0.5780,-0.0313,-0.8985,-0.6138,0.5312,1.1088,-33.5625,26.4938,-16.3500,
7.355394,0.5780,-0.0313,-0.8985,-0.6138,0.5312,1.1088,-33.5625,26.4938,-16.3500,
7.356782,2.3430,2.5764,0.4847,-0.6138,0.5312,1.1088,-33.5625,26.4938,-16.3500,
7.375554,0.3777,-0.8209,0.5309,-0.6138,0.5312,1.1088,-33.5625,26.4938,-16.3500,
7.380337,0.3777,-0.8209,0.5309,-0.6138,0.5312,1.1088,-31.7250,29.0813,-15.7688,
7.394336,0.2684,-3.2794,-0.0752,-0.6138,0.5312,1.1088,-31.7250,29.0813,-15.7688,
7.402538,0.2684,-3.2794,-0.0752,-0.6138,0.5312,1.1088,-31.7250,29.0813,-15.7688,
7.403762,0.2684,-3.2794,-0.0752,-1.1000,0.7743,0.3380,-31.7250,29.0813,-15.7688,
7.412480,3.1054,-4.8763,2.2127,-1.1000,0.7743,0.3380,-31.7250,29.0813,-15.7688,
7.432546,-0.4736,-4.4101,1.4809,-1.1000,0.7743,0.3380,-31.7250,29.0813,-15.7688,
7.439940,-0.4736,-4.4101,1.4809,-1.1000,0.7743,0.3380,-31.3688,29.7563,-15.5625,
7.451779,-0.4736,-4.4101,1.4809,-1.1000,0.7743,0.3380,-31.3688,29.7563,-15.5625,
7.454476,-1.4430,-3.3202,3.0773,-1.1000,0.7743,0.3380,-31.3688,29.7563,-15.5625,
7.464608,-1.4430,-3.3202,3.0773,-0.1264,0.7718,-0.2472,-31.3688,29.7563,-15.5625,
7.470044,-1.2106,-3.8022,4.0478,-0.1264,0.7718,-0.2472,-31.3688,29.7563,-15.5625,
7.489573,-1.1844,-3.3550,3.1788,-0.1264,0.7718,-0.2472,-31.3688,29.7563,-15.5625,
7.498823,-1.1844,-3.3550,3.1788,-0.1264,0.7718,-0.2472,-31.3688,29.7563,-15.5625,
7.501199,-1.1844,-3.3550,3.1788,-0.1264,0.7718,-0.2472,-31.4438,29.5313,-16.5938,
7.508173,-1.4670,-3.3495,3.2138,-0.1264,0.7718,-0.2472,-31.4438,29.5313,-16.5938,
7.527477,-1.4670,-3.3495,3.2138,0.5431,-0.8421,0.0972,-31.4438,29.5313,-16.5938,
7.529210,-1.7835,-2.3211,2.3007,0.5431,-0.8421,0.0972,-31.4438,29.5313,-16.5938,
7.546634,-1.7835,-2.3211,2.3007,0.5431,-0.8421,0.0972,-31.4438,29.5313,-16.5938,
7.549805,-1.9823,-2.4154,1.7449,0.5431,-0.8421,0.0972,-31.4438,29.5313,-16.5938,
7.560104,-1.9823,-2.4154,1.7449,0.5431,-0.8421,0.0972,-32.2125,29.0063,-15.7500,
7.566917,-1.3118,-2.3947,1.0561,0.5431,-0.8421,0.0972,-32.2125,29.0063,-15.7500,
7.587058,-1.0174,-2.1421,0.7492,0.5431,-0.8421,0.0972,-32.2125,29.0063,-15.7500,
7.588438,-1.0174,-2.1421,0.7492,0.5419,-0.7858,0.2450,-32.2125,29.0063,-15.7500,
7.593755,-1.0174,-2.1421,0.7492,0.5419,-0.7858,0.2450,-32.2125,29.0063,-15.7500,
7.605417,-0.7762,-1.9114,0.6120,0.5419,-0.7858,0.2450,-32.2125,29.0063,-15.7500,
7.621476,-0.7762,-1.9114,0.6120,0.5419,-0.7858,0.2450,-32.8125,29.0813,-15.1125,
7.625785,-0.6454,-1.7202,0.5162,0.5419,-0.7858,0.2450,-32.8125,29.0813,-15.1125,
7.641787,-0.6454,-1.7202,0.5162,0.5419,-0.7858,0.2450,-32.8125,29.0813,-15.1125,
7.643241,-0.6729,-1.3177,1.3004,0.5419,-0.7858,0.2450,-32.8125,29.0813,-15.1125,
7.651548,-0.6729,-1.3177,1.3004,0.7569,-0.7468,0.0630,-32.8125,29.0813,-15.1125,
7.662679,-0.5841,-1.3118,1.6208,0.7569,-0.7468,0.0630,-32.8125,29.0813,-15.1125,
7.680898,-0.4072,-1.2384,1.0508,0.7569,-0.7468,0.0630,-32.8125,29.0813,-15.1125,
7.682849,-0.4072,-1.2384,1.0508,0.7569,-0.7468,0.0630,-32.8688,28.5000,-15.1125,
7.689814,-0.4072,-1.2384,1.0508,0.7569,-0.7468,0.0630,-32.8688,28.5000,-15.1125,
7.700114,-0.0965,-1.0172,0.6569,0.7569,-0.7468,0.0630,-32.8688,28.5000,-15.1125,
7.715197,-0.0965,-1.0172,0.6569,0.7349,-1.1059,-0.1006,-32.8688,28.5000,-15.1125,
7.719257,0.1943,-0.9329,0.5928,0.7349,-1.1059,-0.1006,-32.8688,28.5000,-15.1125,
7.737248,0.1943,-0.9329,0.5928,0.7349,-1.1059,-0.1006,-32.8688,28.5000,-15.1125,
7.739048,0.0988,-0.7386,0.3127,0.7349,-1.1059,-0.1006,-32.8688,28.5000,-15.1125,
7.740389,0.0988,-0.7386,0.3127,0.7349,-1.1059,-0.1006,-34.5563,26.5875,-13.9313,
7.757669,-0.0176,-0.6029,0.2506,0.7349,-1.1059,-0.1006,-34.5563,26.5875,-13.9313,
7.775913,-0.0176,-0.6029,0.2506,0.8265,-0.9569,-0.2460,-34.5563,26.5875,-13.9313,
7.779803,-0.0768,-0.5142,-0.1346,0.8265,-0.9569,-0.2460,-34.5563,26.5875,-13.9313,
7.786227,-0.0768,-0.5142,-0.1346,0.8265,-0.9569,-0.2460,-34.5563,26.5875,-13.9313,
7.794980,-0.3631,-0.4502,-0.4285,0.8265,-0.9569,-0.2460,-34.5563,26.5875,-13.9313,
7.801305,-0.3631,-0.4502,-0.4285,0.8265,-0.9569,-0.2460,-35.8875,25.2938,-12.9563,
7.814657,-0.4042,-0.5278,-0.2243,0.8265,-0.9569,-0.2460,-35.8875,25.2938,-12.9563,
7.833466,-0.4042,-0.5278,-0.2243,0.8265,-0.9569,-0.2460,-35.8875,25.2938,-12.9563,
7.836406,-0.2477,-0.2880,-0.2264,0.8265,-0.9569,-0.2460,-35.8875,25.2938,-12.9563,
7.838526,-0.2477,-0.2880,-0.2264,0.6091,-1.0692,-0.2094,-35.8875,25.2938,-12.9563,
7.853061,0.0124,-0.1417,-0.3157,0.6091,-1.0692,-0.2094,-35.8875,25.2938,-12.9563,
7.861115,0.0124,-0.1417,-0.3157,0.6091,-1.0692,-0.2094,-36.7313,24.4688,-12.1125,
7.871515,-0.0700,-0.0060,-0.3616,0.6091,-1.0692,-0.2094,-36.7313,24.4688,-12.1125,
7.880549,-0.0700,-0.0060,-0.3616,0.6091,-1.0692,-0.2094,-36.7313,24.4688,-12.1125,
7.892182,-0.4718,-0.1206,-0.2964,0.6091,-1.0692,-0.2094,-36.7313,24.4688,-12.1125,
7.900069,-0.4718,-0.1206,-0.2964,0.4576,-1.1609,-0.3242,-36.7313,24.4688,-12.1125,
7.909981,-0.5234,0.0124,0.0654,0.4576,-1.1609,-0.3242,-36.7313,24.4688,-12.1125,
7.919881,-0.5234,0.0124,0.0654,0.4576,-1.1609,-0.3242,-37.8750,23.1938,-9.9000,
7.928971,-0.5234,0.0124,0.0654,0.4576,-1.1609,-0.3242,-37.8750,23.1938,-9.9000,
7.932006,-0.5447,0.0808,0.1267,0.4576,-1.1609,-0.3242,-37.8750,23.1938,-9.9000,
7.948584,-0.5012,0.1590,0.2199,0.4576,-1.1609,-0.3242,-37.8750,23.1938,-9.9000,
7.962432,-0.5012,0.1590,0.2199,0.6897,-0.9679,-0.2204,-37.8750,23.1938,-9.9000,
7.968285,-0.0155,0.3725,0.3744,0.6897,-0.9679,-0.2204,-37.8750,23.1938,-9.9000,
7.976840,-0.0155,0.3725,0.3744,0.6897,-0.9679,-0.2204,-37.8750,23.1938,-9.9000,
7.980504,-0.0155,0.3725,0.3744,0.6897,-0.9679,-0.2204,-39.3938,22.1813,-8.6250,
7.987101,0.3886,0.5417,0.5148,0.6897,-0.9679,-0.2204,-39.3938,22.1813,-8.6250,
8.006390,0.4687,0.8534,1.3940,0.6897,-0.9679,-0.2204,-39.3938,22.1813,-8.6250,
8.024601,0.4687,0.8534,1.3940,0.6897,-0.9679,-0.2204,-39.3938,22.1813,-8.6250,
8.027636,0.4687,0.8534,1.3940,0.8047,-0.8433,-0.2887,-39.3938,22.1813,-8.6250,
8.030660,0.4296,1.2241,1.6420,0.8047,-0.8433,-0.2887,-39.3938,22.1813,-8.6250,
8.039755,0.4296,1.2241,1.6420,0.8047,-0.8433,-0.2887,-40.3313,20.8313,-7.1438,
8.044377,-0.1039,1.8345,1.4505,0.8047,-0.8433,-0.2887,-40.3313,20.8313,-7.1438,
8.063066,-0.5758,2.4671,1.1641,0.8047,-0.8433,-0.2887,-40.3313,20.8313,-7.1438,
8.071849,-0.5758,2.4671,1.1641,0.8047,-0.8433,-0.2887,-40.3313,20.8313,-7.1438,
8.082048,-0.6458,3.0726,0.7391,0.8047,-0.8433,-0.2887,-40.3313,20.8313,-7.1438,
8.085978,-0.6458,3.0726,0.7391,0.7802,-1.0644,-0.0566,-40.3313,20.8313,-7.1438,
8.100476,-0.6458,3.0726,0.7391,0.7802,-1.0644,-0.0566,-40.6875,19.8000,-6.0000,
8.104199,-0.3812,3.4159,0.0222,0.7802,-1.0644,-0.0566,-40.6875,19.8000,-6.0000,
8.119536,-0.3812,3.4159,0.0222,0.7802,-1.0644,-0.0566,-40.6875,19.8000,-6.0000,
8.120928,0.5867,2.4295,-1.0499,0.7802,-1.0644,-0.0566,-40.6875,19.8000,-6.0000,
8.140205,1.4989,1.2121,-0.9508,0.7802,-1.0644,-0.0566,-40.6875,19.8000,-6.0000,
8.147890,1.4989,1.2121,-0.9508,0.4784,-0.5402,-0.0371,-40.6875,19.8000,-6.0000,
8.159217,1.1355,0.5469,-0.0665,0.4784,-0.5402,-0.0371,-40.6875,19.8000,-6.0000,
8.163439,1.1355,0.5469,-0.0665,0.4784,-0.5402,-0.0371,-40.8188,19.8750,-3.8250,
8.169043,1.1355,0.5469,-0.0665,0.4784,-0.5402,-0.0371,-40.8188,19.8750,-3.8250,
8.178367,0.1945,0.2272,-0.0253,0.4784,-0.5402,-0.0371,-40.8188,19.8750,-3.8250,
8.197331,-0.1938,0.0107,-0.9612,0.4784,-0.5402,-0.0371,-40.8188,19.8750,-3.8250,
8.210870,-0.1938,0.0107,-0.9612,0.3831,-0.2984,-0.0126,-40.8188,19.8750,-3.8250,
8.216945,-0.1938,0.0107,-0.9612,0.3831,-0.2984,-0.0126,-40.8188,19.8750,-3.8250,
8.220035,0.3080,0.0474,-1.3753,0.3831,-0.2984,-0.0126,-40.8188,19.8750,-3.8250,
8.222726,0.3080,0.0474,-1.3753,0.3831,-0.2984,-0.0126,-41.7563,18.9375,-4.5188,
8.234758,0.6409,0.2280,-0.5522,0.3831,-0.2984,-0.0126,-41.7563,18.9375,-4.5188,
8.253642,0.4169,0.3701,0.2262,0.3831,-0.2984,-0.0126,-41.7563,18.9375,-4.5188,
8.263618,0.4169,0.3701,0.2262,0.3831,-0.2984,-0.0126,-41.7563,18.9375,-4.5188,
8.272508,0.4169,0.3701,0.2262,0.5309,-0.0626,-0.0799,-41.7563,18.9375,-4.5188,
8.274386,0.1201,0.4850,-0.1180,0.5309,-0.0626,-0.0799,-41.7563,18.9375,-4.5188,
8.280572,0.1201,0.4850,-0.1180,0.5309,-0.0626,-0.0799,-41.6250,18.6000,-5.3625,
8.293104,-0.4535,0.7567,-0.8571,0.5309,-0.0626,-0.0799,-41.6250,18.6000,-5.3625,
8.312695,-0.4535,0.7567,-0.8571,0.5309,-0.0626,-0.0799,-41.6250,18.6000,-5.3625,
8.316483,-0.5972,0.6647,-0.9621,0.5309,-0.0626,-0.0799,-41.6250,18.6000,-5.3625,
8.330508,-0.9326,0.8256,-0.6418,0.5309,-0.0626,-0.0799,-41.6250,18.6000,-5.3625,
8.335361,-0.9326,0.8256,-0.6418,0.4271,-0.0345,0.0704,-41.6250,18.6000,-5.3625,
8.340918,-0.9326,0.8256,-0.6418,0.4271,-0.0345,0.0704,-41.8875,18.2438,-5.9813,
8.349797,-0.7822,0.9293,-0.7729,0.4271,-0.0345,0.0704,-41.8875,18.2438,-5.9813,
8.360849,-0.7822,0.9293,-0.7729,0.4271,-0.0345,0.0704,-41.8875,18.2438,-5.9813,
8.370712,-0.1975,0.9258,-0.9818,0.4271,-0.0345,0.0704,-41.8875,18.2438,-5.9813,
8.388398,-0.0044,0.5026,-0.8629,0.4271,-0.0345,0.0704,-41.8875,18.2438,-5.9813,
8.397476,-0.0044,0.5026,-0.8629,-0.0054,0.0925,0.1339,-41.8875,18.2438,-5.9813,
8.400610,-0.0044,0.5026,-0.8629,-0.0054,0.0925,0.1339,-41.6438,18.8813,-5.1562,
8.406729,-0.0044,0.5026,-0.8629,-0.0054,0.0925,0.1339,-41.6438,18.8813,-5.1562,
8.407975,0.0533,-0.0193,-0.6409,-0.0054,0.0925,0.1339,-41.6438,18.8813,-5.1562,
8.426411,0.2704,-0.3622,-0.5375,-0.0054,0.0925,0.1339,-41.6438,18.8813,-5.1562,
8.447137,0.1194,-0.2107,-0.6900,-0.0054,0.0925,0.1339,-41.6438,18.8813,-5.1562,
8.455061,0.1194,-0.2107,-0.6900,-0.0054,0.0925,0.1339,-41.6438,18.8813,-5.1562,
8.460484,0.1194,-0.2107,-0.6900,0.0617,0.1671,-0.0311,-41.6438,18.8813,-5.1562,
8.463772,0.1194,-0.2107,-0.6900,0.0617,0.1671,-0.0311,-41.8125,18.6562,-6.3000,
8.466529,0.3211,0.2339,-0.7731,0.0617,0.1671,-0.0311,-41.8125,18.6562,-6.3000,
8.483983,0.0215,0.5933,-0.6609,0.0617,0.1671,-0.0311,-41.8125,18.6562,-6.3000,
8.503431,0.0215,0.5933,-0.6609,0.0617,0.1671,-0.0311,-41.8125,18.6562,-6.3000,
8.506365,-0.2937,0.6735,-0.6072,0.0617,0.1671,-0.0311,-41.8125,18.6562,-6.3000,
8.520258,-0.2937,0.6735,-0.6072,0.0617,0.1671,-0.0311,-41.3250,18.5250,-6.0938,
8.523818,-0.2937,0.6735,-0.6072,0.0239,0.0217,-0.0371,-41.3250,18.5250,-6.0938,
8.525303,-0.6222,0.3845,-0.4075,0.0239,0.0217,-0.0371,-41.3250,18.5250,-6.0938,
8.540897,-1.0702,0.2029,-0.3061,0.0239,0.0217,-0.0371,-41.3250,18.5250,-6.0938,
8.550230,-1.0702,0.2029,-0.3061,0.0239,0.0217,-0.0371,-41.3250,18.5250,-6.0938,
8.560261,-0.8555,-0.1564,-0.3307,0.0239,0.0217,-0.0371,-41.3250,18.5250,-6.0938,
8.580932,-0.4003,-0.5240,-0.1819,0.0239,0.0217,-0.0371,-41.3250,18.5250,-6.0938,
8.584445,-0.4003,-0.5240,-0.1819,0.0239,0.0217,-0.0371,-41.4375,18.8438,-6.3000,
8.586935,-0.4003,-0.5240,-0.1819,-0.1116,0.1402,0.0484,-41.4375,18.8438,-6.3000,
8.598286,-0.4003,-0.5240,-0.1819,-0.1116,0.1402,0.0484,-41.4375,18.8438,-6.3000,
8.599668,-0.2382,-0.6738,0.0639,-0.1116,0.1402,0.0484,-41.4375,18.8438,-6.3000,
8.617162,-0.1718,-0.5958,0.1679,-0.1116,0.1402,0.0484,-41.4375,18.8438,-6.3000,
8.637110,-0.2766,-0.2293,0.2444,-0.1116,0.1402,0.0484,-41.4375,18.8438,-6.3000,
8.640415,-0.2766,-0.2293,0.2444,-0.1116,0.1402,0.0484,-42.0938,18.4688,-6.3938,
8.649511,-0.2766,-0.2293,0.2444,-0.1116,0.1402,0.0484,-42.0938,18.4688,-6.3938,
8.652512,-0.2766,-0.2293,0.2444,0.1350,0.0290,-0.0506,-42.0938,18.4688,-6.3938,
8.656012,-0.4143,-0.3628,-0.0931,0.1350,0.0290,-0.0506,-42.0938,18.4688,-6.3938,
8.675628,-0.2760,-0.2352,-0.0834,0.1350,0.0290,-0.0506,-42.0938,18.4688,-6.3938,
8.694250,-0.2760,-0.2352,-0.0834,0.1350,0.0290,-0.0506,-42.0938,18.4688,-6.3938,
8.697265,-0.4942,-0.1725,-0.1628,0.1350,0.0290,-0.0506,-42.0938,18.4688,-6.3938,
8.700075,-0.4942,-0.1725,-0.1628,0.1350,0.0290,-0.0506,-41.3063,18.4688,-6.9375,
8.707612,-0.4942,-0.1725,-0.1628,0.1522,-0.0858,-0.0676,-41.3063,18.4688,-6.9375,
8.713550,-0.4211,-0.4470,-0.1983,0.1522,-0.0858,-0.0676,-41.3063,18.4688,-6.9375,
8.732622,-0.3580,-0.2452,-0.0638,0.1522,-0.0858,-0.0676,-41.3063,18.4688,-6.9375,
8.741529,-0.3580,-0.2452,-0.0638,0.1522,-0.0858,-0.0676,-41.3063,18.4688,-6.9375,
8.752883,-0.3487,-0.1153,-0.0555,0.1522,-0.0858,-0.0676,-41.3063,18.4688,-6.9375,
8.761307,-0.3487,-0.1153,-0.0555,0.1522,-0.0858,-0.0676,-41.9813,17.9813,-6.7125,
8.770418,-0.3487,-0.1153,-0.0555,0.1314,-0.0736,-0.0896,-41.9813,17.9813,-6.7125,
8.771705,-0.1571,-0.0122,-0.1310,0.1314,-0.0736,-0.0896,-41.9813,17.9813,-6.7125,
8.788638,-0.1571,-0.0122,-0.1310,0.1314,-0.0736,-0.0896,-41.9813,17.9813,-6.7125,
8.790377,0.1865,-0.0370,-0.2677,0.1314,-0.0736,-0.0896,-41.9813,17.9813,-6.7125,
8.809533,0.2825,-0.0461,-0.4328,0.1314,-0.0736,-0.0896,-41.9813,17.9813,-6.7125,
8.820895,0.2825,-0.0461,-0.4328,0.1314,-0.0736,-0.0896,-41.5875,17.7563,-6.4125,
8.828344,0.4651,-0.1190,-0.5042,0.1314,-0.0736,-0.0896,-41.5875,17.7563,-6.4125,
8.832384,0.4651,-0.1190,-0.5042,0.0703,-0.0113,-0.0726,-41.5875,17.7563,-6.4125,
8.838718,0.4651,-0.1190,-0.5042,0.0703,-0.0113,-0.0726,-41.5875,17.7563,-6.4125,
8.847216,0.4036,0.1579,-0.3585,0.0703,-0.0113,-0.0726,-41.5875,17.7563,-6.4125,
8.866757,0.2543,-0.0429,-0.2109,0.0703,-0.0113,-0.0726,-41.5875,17.7563,-6.4125,
8.881673,0.2543,-0.0429,-0.2109,0.0703,-0.0113,-0.0726,-42.0563,17.7938,-6.8063,
8.885094,0.2543,-0.0429,-0.2109,0.0703,-0.0113,-0.0726,-42.0563,17.7938,-6.8063,
8.886012,0.0963,-0.0694,-0.1347,0.0703,-0.0113,-0.0726,-42.0563,17.7938,-6.8063,
8.894470,0.0963,-0.0694,-0.1347,-0.0091,-0.0723,-0.0188,-42.0563,17.7938,-6.8063,
8.904739,-0.0999,-0.1356,-0.1629,-0.0091,-0.0723,-0.0188,-42.0563,17.7938,-6.8063,
8.924371,-0.1015,-0.1981,-0.0851,-0.0091,-0.0723,-0.0188,-42.0563,17.7938,-6.8063,
8.933042,-0.1015,-0.1981,-0.0851,-0.0091,-0.0723,-0.0188,-42.0563,17.7938,-6.8063,
8.939763,-0.1015,-0.1981,-0.0851,-0.0091,-0.0723,-0.0188,-41.9813,17.9813,-6.6000,
8.943402,0.0536,-0.2868,-0.0628,-0.0091,-0.0723,-0.0188,-41.9813,17.9813,-6.6000,
8.956728,0.0536,-0.2868,-0.0628,-0.0201,-0.0296,-0.0151,-41.9813,17.9813,-6.6000,
8.962044,0.1269,-0.3192,-0.1271,-0.0201,-0.0296,-0.0151,-41.9813,17.9813,-6.6000,
8.981983,0.1269,-0.3192,-0.1271,-0.0201,-0.0296,-0.0151,-41.9813,17.9813,-6.6000,
8.985239,0.3324,-0.0108,0.0638,-0.0201,-0.0296,-0.0151,-41.9813,17.9813,-6.6000,
9.000354,0.2695,-0.1530,-0.0391,-0.0201,-0.0296,-0.0151,-41.9813,17.9813,-6.6000,
9.002286,0.2695,-0.1530,-0.0391,-0.0201,-0.0296,-0.0151,-41.9625,17.7000,-6.8063,
9.018696,0.2695,-0.1530,-0.0391,-0.0384,-0.0650,0.0179,-41.9625,17.7000,-6.8063,
9.021568,0.2197,-0.2260,-0.2139,-0.0384,-0.0650,0.0179,-41.9625,17.7000,-6.8063,
9.027758,0.2197,-0.2260,-0.2139,-0.0384,-0.0650,0.0179,-41.9625,17.7000,-6.8063,
9.037849,0.3761,-0.6537,-0.2791,-0.0384,-0.0650,0.0179,-41.9625,17.7000,-6.8063,
9.057889,0.1406,-0.6665,-0.0747,-0.0384,-0.0650,0.0179,-41.9625,17.7000,-6.8063,
9.061174,0.1406,-0.6665,-0.0747,-0.0384,-0.0650,0.0179,-41.7750,17.6813,-6.6188,
9.076035,0.1406,-0.6665,-0.0747,-0.0384,-0.0650,0.0179,-41.7750,17.6813,-6.6188,
9.077366,-0.0403,-0.3943,-0.0493,-0.0384,-0.0650,0.0179,-41.7750,17.6813,-6.6188,
9.080190,-0.0403,-0.3943,-0.0493,0.1057,-0.0320,0.0276,-41.7750,17.6813,-6.6188,
9.103170,-0.1215,-0.1936,-0.1954,0.1057,-0.0320,0.0276,-41.7750,17.6813,-6.6188,
9.115509,0.0155,-0.0408,-0.3256,0.1057,-0.0320,0.0276,-41.7750,17.6813,-6.6188,
9.120423,0.0155,-0.0408,-0.3256,0.1057,-0.0320,0.0276,-41.4750,17.7563,-6.3000,
9.126737,0.0155,-0.0408,-0.3256,0.1057,-0.0320,0.0276,-41.4750,17.7563,-6.3000,
9.134649,0.0808,-0.0106,-0.1495,0.1057,-0.0320,0.0276,-41.4750,17.7563,-6.3000,
9.143190,0.0808,-0.0106,-0.1495,-0.0323,0.0340,-0.0151,-41.4750,17.7563,-6.3000,
9.153676,0.2614,-0.0557,-0.0062,-0.0323,0.0340,-0.0151,-41.4750,17.7563,-6.3000,
9.172324,0.2614,-0.0557,-0.0062,-0.0323,0.0340,-0.0151,-41.4750,17.7563,-6.3000,
9.175201,0.2506,-0.2843,0.0461,-0.0323,0.0340,-0.0151,-41.4750,17.7563,-6.3000,
9.181591,0.2506,-0.2843,0.0461,-0.0323,0.0340,-0.0151,-41.6063,18.1500,-6.2063,
9.192362,0.2711,-0.3838,0.0174,-0.0323,0.0340,-0.0151,-41.6063,18.1500,-6.2063,
9.205434,0.2711,-0.3838,0.0174,-0.0591,-0.0100,-0.0286,-41.6063,18.1500,-6.2063,
9.210696,0.1474,-0.3237,0.0532,-0.0591,-0.0100,-0.0286,-41.6063,18.1500,-6.2063,
9.219817,0.1474,-0.3237,0.0532,-0.0591,-0.0100,-0.0286,-41.6063,18.1500,-6.2063,
9.229469,0.0786,-0.3180,0.1988,-0.0591,-0.0100,-0.0286,-41.6063,18.1500,-6.2063,
9.239996,0.0786,-0.3180,0.1988,-0.0591,-0.0100,-0.0286,-42.1688,17.6625,-6.1875,
9.248901,0.0684,-0.2572,-0.0009,-0.0591,-0.0100,-0.0286,-42.1688,17.6625,-6.1875,
9.267030,0.0684,-0.2572,-0.0009,-0.0591,-0.0100,-0.0286,-42.1688,17.6625,-6.1875,
9.268298,0.0684,-0.2572,-0.0009,-0.0408,0.0022,-0.0115,-42.1688,17.6625,-6.1875,
9.268990,0.0876,-0.2637,-0.0108,-0.0408,0.0022,-0.0115,-42.1688,17.6625,-6.1875,
9.287455,0.1583,-0.2694,0.0674,-0.0408,0.0022,-0.0115,-42.1688,17.6625,-6.1875,
9.300596,0.1583,-0.2694,0.0674,-0.0408,0.0022,-0.0115,-42.1688,17.8688,-6.0750,
9.305646,0.0946,-0.3051,0.1028,-0.0408,0.0022,-0.0115,-42.1688,17.8688,-6.0750,
9.315440,0.0946,-0.3051,0.1028,-0.0408,0.0022,-0.0115,-42.1688,17.8688,-6.0750,
9.327151,0.0924,-0.2788,-0.0663,-0.0408,0.0022,-0.0115,-42.1688,17.8688,-6.0750,
9.328901,0.0924,-0.2788,-0.0663,-0.0140,0.0082,-0.0029,-42.1688,17.8688,-6.0750,
9.344821,0.0675,-0.3644,-0.0619,-0.0140,0.0082,-0.0029,-42.1688,17.8688,-6.0750,
9.359845,0.0675,-0.3644,-0.0619,-0.0140,0.0082,-0.0029,-41.9813,17.9438,-6.0938,
9.362841,0.0675,-0.3644,-0.0619,-0.0140,0.0082,-0.0029,-41.9813,17.9438,-6.0938,
9.363662,0.0278,-0.4005,0.1488,-0.0140,0.0082,-0.0029,-41.9813,17.9438,-6.0938,
9.383160,-0.0023,-0.3434,0.1934,-0.0140,0.0082,-0.0029,-41.9813,17.9438,-6.0938,
9.394445,-0.0023,-0.3434,0.1934,0.0667,0.0645,0.0166,-41.9813,17.9438,-6.0938,
9.402949,0.0107,-0.2294,-0.1352,0.0667,0.0645,0.0166,-41.9813,17.9438,-6.0938,
9.410571,0.0107,-0.2294,-0.1352,0.0667,0.0645,0.0166,-41.9813,17.9438,-6.0938,
9.420266,0.0107,-0.2294,-0.1352,0.0667,0.0645,0.0166,-41.6813,17.8688,-6.5063,
9.421718,-0.0523,-0.3848,-0.3029,0.0667,0.0645,0.0166,-41.6813,17.8688,-6.5063,
9.440580,0.0071,-0.3901,-0.3176,0.0667,0.0645,0.0166,-41.6813,17.8688,-6.5063,
9.454333,0.0071,-0.3901,-0.3176,-0.0323,0.0230,0.0337,-41.6813,17.8688,-6.5063,
9.460120,0.0071,-0.3901,-0.3176,-0.0323,0.0230,0.0337,-41.6813,17.8688,-6.5063,
9.461542,-0.1504,-0.3234,-0.2928,-0.0323,0.0230,0.0337,-41.6813,17.8688,-6.5063,
9.479184,-0.4162,0.1526,0.0043,-0.0323,0.0230,0.0337,-41.6813,17.8688,-6.5063,
9.480878,-0.4162,0.1526,0.0043,-0.0323,0.0230,0.0337,-42.1688,18.0750,-6.4875,
