
time,ax,ay,az,wx,wy,wz,Bx,By,Bz,
0.051671,0.0561,-0.0666,-0.9380,0.0000,0.0000,0.0000,0.0000,0.0000,0.0000,
0.070422,0.0561,-0.0666,-0.9380,0.0000,0.0000,0.0000,0.0000,0.0000,0.0000,
0.080268,0.0561,-0.0666,-0.9380,0.0000,0.0000,0.0000,0.0000,0.0000,0.0000,
0.087073,0.0561,-0.0666,-0.9380,0.0000,0.0000,0.0000,-41.2125,10.3875,-10.8750,
0.089069,0.0561,-0.0666,-0.9380,0.0000,0.0000,0.0000,-41.2125,10.3875,-10.8750,
0.093534,0.0561,-0.0666,-0.9380,-0.0117,-0.0025,0.0019,-41.2125,10.3875,-10.8750,
0.108667,0.0561,-0.0666,-0.9380,-0.0117,-0.0025,0.0019,-41.2125,10.3875,-10.8750,
0.128444,0.0237,-0.2914,-0.0536,-0.0117,-0.0025,0.0019,-41.2125,10.3875,-10.8750,
0.142003,0.0237,-0.2914,-0.0536,-0.0117,-0.0025,0.0019,-41.2125,10.3875,-10.8750,
0.148002,0.0151,-0.2894,-0.0327,-0.0117,-0.0025,0.0019,-41.2125,10.3875,-10.8750,
0.150749,0.0151,-0.2894,-0.0327,-0.0117,-0.0025,0.0019,-42.0563,10.0875,-11.9813,
0.155955,0.0151,-0.2894,-0.0327,-0.0067,0.0025,-0.0054,-42.0563,10.0875,-11.9813,
0.166250,0.0071,-0.2679,-0.0086,-0.0067,0.0025,-0.0054,-42.0563,10.0875,-11.9813,
0.185084,-0.0022,-0.2393,-0.0274,-0.0067,0.0025,-0.0054,-42.0563,10.0875,-11.9813,
0.203700,-0.0022,-0.2393,-0.0274,-0.0067,0.0025,-0.0054,-42.0563,10.0875,-11.9813,
0.204962,0.0075,-0.2560,0.0251,-0.0067,0.0025,-0.0054,-42.0563,10.0875,-11.9813,
0.206651,0.0075,-0.2560,0.0251,-0.0067,0.0025,-0.0054,-41.9813,10.3875,-12.1875,
0.218778,0.0075,-0.2560,0.0251,0.0030,0.0048,0.0008,-41.9813,10.3875,-12.1875,
0.225855,0.0124,-0.3011,0.0207,0.0030,0.0048,0.0008,-41.9813,10.3875,-12.1875,
0.242284,0.0096,-0.2720,-0.0219,0.0030,0.0048,0.0008,-41.9813,10.3875,-12.1875,
0.262146,0.0186,-0.2458,-0.0526,0.0030,0.0048,0.0008,-41.9813,10.3875,-12.1875,
0.268575,0.0186,-0.2458,-0.0526,0.0030,0.0048,0.0008,-41.9813,10.3875,-12.1875,
0.269472,0.0186,-0.2458,-0.0526,0.0030,0.0048,0.0008,-42.2812,10.4813,-11.8688,
0.280065,0.0186,-0.2458,-0.0526,-0.0067,-0.0073,-0.0016,-42.2812,10.4813,-11.8688,
0.281483,0.0063,-0.2508,-0.0319,-0.0067,-0.0073,-0.0016,-42.2812,10.4813,-11.8688,
0.300038,0.0181,-0.2724,-0.0346,-0.0067,-0.0073,-0.0016,-42.2812,10.4813,-11.8688,
0.319674,0.0057,-0.2984,-0.0481,-0.0067,-0.0073,-0.0016,-42.2812,10.4813,-11.8688,
0.329214,0.0057,-0.2984,-0.0481,-0.0067,-0.0073,-0.0016,-41.8875,10.4625,-11.7750,
0.330092,0.0057,-0.2984,-0.0481,-0.0067,-0.0073,-0.0016,-41.8875,10.4625,-11.7750,
0.338346,-0.0047,-0.2670,-0.0279,-0.0067,-0.0073,-0.0016,-41.8875,10.4625,-11.7750,
0.342108,-0.0047,-0.2670,-0.0279,0.0030,-0.0037,-0.0054,-41.8875,10.4625,-11.7750,
0.358258,-0.0173,-0.2478,-0.0358,0.0030,-0.0037,-0.0054,-41.8875,10.4625,-11.7750,
0.378312,0.0008,-0.2095,-0.0259,0.0030,-0.0037,-0.0054,-41.8875,10.4625,-11.7750,
0.387872,0.0008,-0.2095,-0.0259,0.0030,-0.0037,-0.0054,-41.8688,10.3688,-11.9813,
0.391942,0.0008,-0.2095,-0.0259,0.0030,-0.0037,-0.0054,-41.8688,10.3688,-11.9813,
0.395943,0.0258,-0.2432,-0.0349,0.0030,-0.0037,-0.0054,-41.8688,10.3688,-11.9813,
0.404481,0.0258,-0.2432,-0.0349,-0.0055,-0.0012,-0.0041,-41.8688,10.3688,-11.9813,
0.415504,0.0317,-0.2458,-0.0318,-0.0055,-0.0012,-0.0041,-41.8688,10.3688,-11.9813,
0.435342,0.0167,-0.2651,-0.0002,-0.0055,-0.0012,-0.0041,-41.8688,10.3688,-11.9813,
0.448641,0.0167,-0.2651,-0.0002,-0.0055,-0.0012,-0.0041,-41.4938,10.5750,-12.2063,
0.452802,0.0167,-0.2651,-0.0002,-0.0055,-0.0012,-0.0041,-41.4938,10.5750,-12.2063,
0.455118,0.0064,-0.2675,-0.0195,-0.0055,-0.0012,-0.0041,-41.4938,10.5750,-12.2063,
0.466872,0.0064,-0.2675,-0.0195,-0.0043,-0.0025,-0.0078,-41.4938,10.5750,-12.2063,
0.471794,-0.0374,-0.2579,-0.0265,-0.0043,-0.0025,-0.0078,-41.4938,10.5750,-12.2063,
0.490871,-0.0523,-0.2654,0.0034,-0.0043,-0.0025,-0.0078,-41.4938,10.5750,-12.2063,
0.507309,-0.0523,-0.2654,0.0034,-0.0043,-0.0025,-0.0078,-41.4750,10.1813,-12.3188,
0.510673,-0.0077,-0.3088,0.0075,-0.0043,-0.0025,-0.0078,-41.4750,10.1813,-12.3188,
0.515550,-0.0077,-0.3088,0.0075,-0.0043,-0.0025,-0.0078,-41.4750,10.1813,-12.3188,
0.529483,-0.0077,-0.3088,0.0075,-0.0104,-0.0122,-0.0089,-41.4750,10.1813,-12.3188,
0.530314,0.0076,-0.3066,0.0490,-0.0104,-0.0122,-0.0089,-41.4750,10.1813,-12.3188,
0.549609,0.0399,-0.3017,0.0147,-0.0104,-0.0122,-0.0089,-41.4750,10.1813,-12.3188,
0.569146,0.0460,-0.2848,-0.0390,-0.0104,-0.0122,-0.0089,-41.4750,10.1813,-12.3188,
0.572406,0.0460,-0.2848,-0.0390,-0.0104,-0.0122,-0.0089,-41.8875,10.4813,-12.0938,
0.576822,0.0460,-0.2848,-0.0390,-0.0104,-0.0122,-0.0089,-41.8875,10.4813,-12.0938,
0.587656,0.0568,-0.2798,-0.0427,-0.0104,-0.0122,-0.0089,-41.8875,10.4813,-12.0938,
0.591087,0.0568,-0.2798,-0.0427,0.0055,-0.0073,-0.0066,-41.8875,10.4813,-12.0938,
0.606432,0.0194,-0.2698,-0.0353,0.0055,-0.0073,-0.0066,-41.8875,10.4813,-12.0938,
0.625086,0.0162,-0.2455,-0.0157,0.0055,-0.0073,-0.0066,-41.8875,10.4813,-12.0938,
0.627809,0.0162,-0.2455,-0.0157,0.0055,-0.0073,-0.0066,-41.9625,9.9938,-12.2063,
0.641778,0.0162,-0.2455,-0.0157,0.0055,-0.0073,-0.0066,-41.9625,9.9938,-12.2063,
0.648844,0.0490,-0.2691,-0.0032,0.0055,-0.0073,-0.0066,-41.9625,9.9938,-12.2063,
0.654349,0.0490,-0.2691,-0.0032,0.0018,0.0037,-0.0029,-41.9625,9.9938,-12.2063,
0.662655,0.0457,-0.2520,-0.0174,0.0018,0.0037,-0.0029,-41.9625,9.9938,-12.2063,
0.682382,0.0256,-0.2612,-0.0193,0.0018,0.0037,-0.0029,-41.9625,9.9938,-12.2063,
0.688422,0.0256,-0.2612,-0.0193,0.0018,0.0037,-0.0029,-40.6875,10.3313,-13.4813,
0.702395,0.0256,-0.2612,-0.0193,0.0018,0.0037,-0.0029,-40.6875,10.3313,-13.4813,
0.704796,0.0224,-0.2682,-0.0179,0.0018,0.0037,-0.0029,-40.6875,10.3313,-13.4813,
0.715296,0.0224,-0.2682,-0.0179,0.0043,0.0147,-0.0016,-40.6875,10.3313,-13.4813,
0.720111,0.0122,-0.2463,-0.0344,0.0043,0.0147,-0.0016,-40.6875,10.3313,-13.4813,
0.740600,0.0529,-0.1981,-0.1029,0.0043,0.0147,-0.0016,-40.6875,10.3313,-13.4813,
0.748377,0.0529,-0.1981,-0.1029,0.0043,0.0147,-0.0016,-42.1688,10.1813,-12.0938,
0.760005,-0.0149,-0.1838,-0.0308,0.0043,0.0147,-0.0016,-42.1688,10.1813,-12.0938,
0.763453,-0.0149,-0.1838,-0.0308,0.0043,0.0147,-0.0016,-42.1688,10.1813,-12.0938,
0.777324,-0.0149,-0.1838,-0.0308,0.0030,0.0232,-0.0016,-42.1688,10.1813,-12.0938,
0.778292,-0.0106,-0.2842,-0.0486,0.0030,0.0232,-0.0016,-42.1688,10.1813,-12.0938,
0.797216,-0.0104,-0.2887,-0.0547,0.0030,0.0232,-0.0016,-42.1688,10.1813,-12.0938,
0.806914,-0.0104,-0.2887,-0.0547,0.0030,0.0232,-0.0016,-41.6813,10.3688,-12.0938,
0.816579,-0.0190,-0.2551,-0.0792,0.0030,0.0232,-0.0016,-41.6813,10.3688,-12.0938,
0.826443,-0.0190,-0.2551,-0.0792,0.0030,0.0232,-0.0016,-41.6813,10.3688,-12.0938,
0.835985,-0.0254,-0.2528,-0.0930,0.0030,0.0232,-0.0016,-41.6813,10.3688,-12.0938,
0.839643,-0.0254,-0.2528,-0.0930,-0.0043,-0.0049,-0.0004,-41.6813,10.3688,-12.0938,
0.854899,0.0321,-0.2121,-0.0494,-0.0043,-0.0049,-0.0004,-41.6813,10.3688,-12.0938,
0.866989,0.0321,-0.2121,-0.0494,-0.0043,-0.0049,-0.0004,-41.9813,10.4813,-12.0938,
0.873990,0.0459,-0.2672,-0.0162,-0.0043,-0.0049,-0.0004,-41.9813,10.4813,-12.0938,
0.888366,0.0459,-0.2672,-0.0162,-0.0043,-0.0049,-0.0004,-41.9813,10.4813,-12.0938,
0.894180,0.0620,-0.2599,-0.0242,-0.0043,-0.0049,-0.0004,-41.9813,10.4813,-12.0938,
0.901856,0.0620,-0.2599,-0.0242,-0.0055,-0.0062,-0.0016,-41.9813,10.4813,-12.0938,
0.913883,0.0379,-0.2312,-0.0528,-0.0055,-0.0062,-0.0016,-41.9813,10.4813,-12.0938,
0.927300,0.0379,-0.2312,-0.0528,-0.0055,-0.0062,-0.0016,-41.6813,10.2563,-11.8875,
0.930952,0.0426,-0.2292,-0.0986,-0.0055,-0.0062,-0.0016,-41.6813,10.2563,-11.8875,
0.950766,0.0426,-0.2292,-0.0986,-0.0055,-0.0062,-0.0016,-41.6813,10.2563,-11.8875,
0.953400,0.0325,-0.2393,-0.1032,-0.0055,-0.0062,-0.0016,-41.6813,10.2563,-11.8875,
0.965201,0.0325,-0.2393,-0.1032,-0.0104,0.0060,-0.0029,-41.6813,10.2563,-11.8875,
0.971380,0.0078,-0.2421,-0.0940,-0.0104,0.0060,-0.0029,-41.6813,10.2563,-11.8875,
0.987358,0.0078,-0.2421,-0.0940,-0.0104,0.0060,-0.0029,-41.6813,10.2938,-12.3000,
0.990556,0.0093,-0.2329,-0.0944,-0.0104,0.0060,-0.0029,-41.6813,10.2938,-12.3000,
1.007924,0.0301,-0.2287,-0.1203,-0.0104,0.0060,-0.0029,-41.6813,10.2938,-12.3000,
1.014940,0.0301,-0.2287,-0.1203,-0.0104,0.0060,-0.0029,-41.6813,10.2938,-12.3000,
1.026386,0.0301,-0.2287,-0.1203,-0.0177,0.0183,-0.0004,-41.6813,10.2938,-12.3000,
1.027379,0.0482,-0.2438,-0.1501,-0.0177,0.0183,-0.0004,-41.6813,10.2938,-12.3000,
1.047341,0.0446,-0.2614,-0.1269,-0.0177,0.0183,-0.0004,-41.6813,10.2938,-12.3000,
1.050168,0.0446,-0.2614,-0.1269,-0.0177,0.0183,-0.0004,-42.5438,10.1063,-12.2813,
1.064882,0.0058,-0.2623,-0.1323,-0.0177,0.0183,-0.0004,-42.5438,10.1063,-12.2813,
1.074402,0.0058,-0.2623,-0.1323,-0.0177,0.0183,-0.0004,-42.5438,10.1063,-12.2813,
1.083811,-0.0079,-0.2438,-0.1214,-0.0177,0.0183,-0.0004,-42.5438,10.1063,-12.2813,
1.088378,-0.0079,-0.2438,-0.1214,-0.0165,0.0170,0.0056,-42.5438,10.1063,-12.2813,
1.103503,-0.0089,-0.2133,-0.1111,-0.0165,0.0170,0.0056,-42.5438,10.1063,-12.2813,
1.107560,-0.0089,-0.2133,-0.1111,-0.0165,0.0170,0.0056,-41.8875,10.6125,-12.7125,
1.122959,0.0256,-0.2257,-0.0752,-0.0165,0.0170,0.0056,-41.8875,10.6125,-12.7125,
1.135983,0.0256,-0.2257,-0.0752,-0.0165,0.0170,0.0056,-41.8875,10.6125,-12.7125,
1.141383,0.0777,-0.2238,-0.0848,-0.0165,0.0170,0.0056,-41.8875,10.6125,-12.7125,
1.151248,0.0777,-0.2238,-0.0848,-0.0190,0.0428,0.0056,-41.8875,10.6125,-12.7125,
1.160730,0.0665,-0.2100,-0.0676,-0.0190,0.0428,0.0056,-41.8875,10.6125,-12.7125,
1.167067,0.0665,-0.2100,-0.0676,-0.0190,0.0428,0.0056,-40.9875,10.3500,-13.8938,
1.179603,0.0296,-0.2564,-0.0923,-0.0190,0.0428,0.0056,-40.9875,10.3500,-13.8938,
1.199129,0.0296,-0.2564,-0.0923,-0.0190,0.0428,0.0056,-40.9875,10.3500,-13.8938,
1.201592,-0.0149,-0.3145,-0.0818,-0.0190,0.0428,0.0056,-40.9875,10.3500,-13.8938,
1.213248,-0.0149,-0.3145,-0.0818,-0.0067,0.0378,0.0104,-40.9875,10.3500,-13.8938,
1.218067,-0.0393,-0.3243,-0.0612,-0.0067,0.0378,0.0104,-40.9875,10.3500,-13.8938,
1.227519,-0.0393,-0.3243,-0.0612,-0.0067,0.0378,0.0104,-42.4688,10.5188,-12.4875,
1.237817,-0.0132,-0.3265,-0.0642,-0.0067,0.0378,0.0104,-42.4688,10.5188,-12.4875,
1.257211,0.0140,-0.2735,-0.0226,-0.0067,0.0378,0.0104,-42.4688,10.5188,-12.4875,
1.260241,0.0140,-0.2735,-0.0226,-0.0067,0.0378,0.0104,-42.4688,10.5188,-12.4875,
1.275423,0.0140,-0.2735,-0.0226,0.0103,0.0280,0.0044,-42.4688,10.5188,-12.4875,
1.278876,0.0260,-0.2227,-0.0177,0.0103,0.0280,0.0044,-42.4688,10.5188,-12.4875,
1.286191,0.0260,-0.2227,-0.0177,0.0103,0.0280,0.0044,-42.0750,10.3875,-12.0938,
1.300775,0.0196,-0.2032,-0.0412,0.0103,0.0280,0.0044,-42.0750,10.3875,-12.0938,
1.313858,0.0188,-0.2580,-0.0279,0.0103,0.0280,0.0044,-42.0750,10.3875,-12.0938,
1.325027,0.0188,-0.2580,-0.0279,0.0103,0.0280,0.0044,-42.0750,10.3875,-12.0938,
1.333368,0.0088,-0.3364,0.0081,0.0103,0.0280,0.0044,-42.0750,10.3875,-12.0938,
1.336800,0.0088,-0.3364,0.0081,0.0128,0.0245,0.0117,-42.0750,10.3875,-12.0938,
1.347379,0.0088,-0.3364,0.0081,0.0128,0.0245,0.0117,-41.6813,10.4813,-12.4125,
1.352270,-0.0370,-0.3738,0.0178,0.0128,0.0245,0.0117,-41.6813,10.4813,-12.4125,
1.371591,-0.0541,-0.3605,0.0069,0.0128,0.0245,0.0117,-41.6813,10.4813,-12.4125,
1.384838,-0.0541,-0.3605,0.0069,0.0128,0.0245,0.0117,-41.6813,10.4813,-12.4125,
1.393292,-0.0838,-0.2873,0.0099,0.0128,0.0245,0.0117,-41.6813,10.4813,-12.4125,
1.400116,-0.0838,-0.2873,0.0099,0.0298,-0.0062,-0.0066,-41.6813,10.4813,-12.4125,
1.406661,-0.0838,-0.2873,0.0099,0.0298,-0.0062,-0.0066,-41.8688,10.5000,-12.6188,
1.409240,-0.0495,-0.2429,0.0200,0.0298,-0.0062,-0.0066,-41.8688,10.5000,-12.6188,
1.428573,0.0067,-0.2320,-0.0059,0.0298,-0.0062,-0.0066,-41.8688,10.5000,-12.6188,
1.447953,0.0067,-0.2320,-0.0059,0.0298,-0.0062,-0.0066,-41.8688,10.5000,-12.6188,
1.450651,0.0105,-0.2164,-0.0263,0.0298,-0.0062,-0.0066,-41.8688,10.5000,-12.6188,
1.461065,0.0105,-0.2164,-0.0263,0.0263,-0.0293,0.0032,-41.8688,10.5000,-12.6188,
1.466828,0.0267,-0.2344,0.0139,0.0263,-0.0293,0.0032,-41.8688,10.5000,-12.6188,
1.467835,0.0267,-0.2344,0.0139,0.0263,-0.0293,0.0032,-42.1500,10.2375,-12.8063,
1.486258,0.0594,-0.2480,-0.0234,0.0263,-0.0293,0.0032,-42.1500,10.2375,-12.8063,
1.505009,0.0862,-0.2519,-0.0231,0.0263,-0.0293,0.0032,-42.1500,10.2375,-12.8063,
1.508564,0.0862,-0.2519,-0.0231,0.0263,-0.0293,0.0032,-42.1500,10.2375,-12.8063,
1.525291,0.0862,-0.2519,-0.0231,0.0115,-0.0183,0.0007,-42.1500,10.2375,-12.8063,
1.528440,0.1095,-0.2390,-0.0615,0.0115,-0.0183,0.0007,-42.1500,10.2375,-12.8063,
1.531267,0.1095,-0.2390,-0.0615,0.0115,-0.0183,0.0007,-42.5625,10.5188,-12.4875,
1.543194,0.0588,-0.2812,-0.0810,0.0115,-0.0183,0.0007,-42.5625,10.5188,-12.4875,
1.563141,0.0347,-0.2822,-0.0640,0.0115,-0.0183,0.0007,-42.5625,10.5188,-12.4875,
1.571736,0.0347,-0.2822,-0.0640,0.0115,-0.0183,0.0007,-42.5625,10.5188,-12.4875,
1.582232,0.0516,-0.2401,-0.0523,0.0115,-0.0183,0.0007,-42.5625,10.5188,-12.4875,
1.585765,0.0516,-0.2401,-0.0523,0.0213,-0.0122,0.0032,-42.5625,10.5188,-12.4875,
1.587905,0.0516,-0.2401,-0.0523,0.0213,-0.0122,0.0032,-41.2688,10.3500,-13.6688,
1.601558,0.0189,-0.2485,-0.0896,0.0213,-0.0122,0.0032,-41.2688,10.3500,-13.6688,
1.619957,0.0358,-0.2524,-0.1205,0.0213,-0.0122,0.0032,-41.2688,10.3500,-13.6688,
1.635705,0.0358,-0.2524,-0.1205,0.0213,-0.0122,0.0032,-41.2688,10.3500,-13.6688,
1.639125,0.0587,-0.2468,-0.1198,0.0213,-0.0122,0.0032,-41.2688,10.3500,-13.6688,
1.646759,0.0587,-0.2468,-0.1198,0.0213,-0.0122,0.0032,-40.8938,10.7438,-13.6875,
1.648030,0.0587,-0.2468,-0.1198,0.0128,0.0122,-0.0005,-40.8938,10.7438,-13.6875,
1.657673,0.0148,-0.2556,-0.0933,0.0128,0.0122,-0.0005,-40.8938,10.7438,-13.6875,
1.678239,0.0198,-0.2498,-0.0528,0.0128,0.0122,-0.0005,-40.8938,10.7438,-13.6875,
1.696283,0.0198,-0.2498,-0.0528,0.0128,0.0122,-0.0005,-40.8938,10.7438,-13.6875,
1.697209,-0.0053,-0.2416,-0.0439,0.0128,0.0122,-0.0005,-40.8938,10.7438,-13.6875,
1.707023,-0.0053,-0.2416,-0.0439,0.0128,0.0122,-0.0005,-41.8875,10.5938,-12.3000,
1.710551,-0.0053,-0.2416,-0.0439,0.0177,-0.0073,0.0069,-41.8875,10.5938,-12.3000,
1.715135,0.0013,-0.2022,-0.0759,0.0177,-0.0073,0.0069,-41.8875,10.5938,-12.3000,
1.735932,0.0078,-0.2707,-0.1115,0.0177,-0.0073,0.0069,-41.8875,10.5938,-12.3000,
1.754428,0.0094,-0.2772,-0.0864,0.0177,-0.0073,0.0069,-41.8875,10.5938,-12.3000,
1.758243,0.0094,-0.2772,-0.0864,0.0177,-0.0073,0.0069,-41.8875,10.5938,-12.3000,
1.766686,0.0094,-0.2772,-0.0864,0.0177,-0.0073,0.0069,-41.9813,10.5000,-12.3000,
1.771711,0.0094,-0.2772,-0.0864,0.0055,-0.0110,0.0007,-41.9813,10.5000,-12.3000,
1.772913,-0.0042,-0.2670,-0.1159,0.0055,-0.0110,0.0007,-41.9813,10.5000,-12.3000,
1.791810,-0.0019,-0.2283,-0.1444,0.0055,-0.0110,0.0007,-41.9813,10.5000,-12.3000,
1.811723,0.0216,-0.2278,-0.0751,0.0055,-0.0110,0.0007,-41.9813,10.5000,-12.3000,
1.819378,0.0216,-0.2278,-0.0751,0.0055,-0.0110,0.0007,-41.9813,10.5000,-12.3000,
1.826330,0.0216,-0.2278,-0.0751,0.0055,-0.0110,0.0007,-42.0750,10.4062,-12.3938,
1.829477,0.0382,-0.2342,-0.0889,0.0055,-0.0110,0.0007,-42.0750,10.4062,-12.3938,
1.834595,0.0382,-0.2342,-0.0889,0.0140,-0.0135,0.0032,-42.0750,10.4062,-12.3938,
1.849129,0.0767,-0.2213,-0.0938,0.0140,-0.0135,0.0032,-42.0750,10.4062,-12.3938,
1.870029,0.0857,-0.2217,-0.0920,0.0140,-0.0135,0.0032,-42.0750,10.4062,-12.3938,
1.882296,0.0857,-0.2217,-0.0920,0.0140,-0.0135,0.0032,-42.0750,10.4062,-12.3938,
1.888103,0.0491,-0.2991,-0.0998,0.0140,-0.0135,0.0032,-42.0750,10.4062,-12.3938,
1.891041,0.0491,-0.2991,-0.0998,0.0140,-0.0135,0.0032,-42.4688,10.6688,-11.7563,
1.896069,0.0491,-0.2991,-0.0998,0.0030,0.0025,0.0019,-42.4688,10.6688,-11.7563,
1.906353,0.0197,-0.2856,-0.0883,0.0030,0.0025,0.0019,-42.4688,10.6688,-11.7563,
1.926456,0.0097,-0.2792,-0.0578,0.0030,0.0025,0.0019,-42.4688,10.6688,-11.7563,
1.945038,0.0097,-0.2792,-0.0578,0.0030,0.0025,0.0019,-42.4688,10.6688,-11.7563,
1.945970,-0.0081,-0.2345,-0.0776,0.0030,0.0025,0.0019,-42.4688,10.6688,-11.7563,
1.946892,-0.0081,-0.2345,-0.0776,0.0030,0.0025,0.0019,-42.2812,10.8750,-11.9813,
1.958482,-0.0081,-0.2345,-0.0776,-0.0007,0.0048,-0.0018,-42.2812,10.8750,-11.9813,
1.964817,-0.0019,-0.2355,-0.0893,-0.0007,0.0048,-0.0018,-42.2812,10.8750,-11.9813,
1.984507,0.0065,-0.2412,-0.0722,-0.0007,0.0048,-0.0018,-42.2812,10.8750,-11.9813,
2.002440,0.0027,-0.2540,-0.0371,-0.0007,0.0048,-0.0018,-42.2812,10.8750,-11.9813,
2.006441,0.0027,-0.2540,-0.0371,-0.0007,0.0048,-0.0018,-42.2812,10.8750,-11.9813,
2.007307,0.0027,-0.2540,-0.0371,-0.0007,0.0048,-0.0018,-42.2812,10.4813,-11.8688,
2.020993,0.0027,-0.2540,-0.0371,-0.0007,-0.0012,-0.0029,-42.2812,10.4813,-11.8688,
2.022319,-0.0009,-0.2572,-0.0355,-0.0007,-0.0012,-0.0029,-42.2812,10.4813,-11.8688,
2.041294,0.0052,-0.2462,-0.0497,-0.0007,-0.0012,-0.0029,-42.2812,10.4813,-11.8688,
2.059955,-0.0077,-0.2450,-0.0506,-0.0007,-0.0012,-0.0029,-42.2812,10.4813,-11.8688,
2.066984,-0.0077,-0.2450,-0.0506,-0.0007,-0.0012,-0.0029,-41.2875,10.5563,-13.6688,
2.069962,-0.0077,-0.2450,-0.0506,-0.0007,-0.0012,-0.0029,-41.2875,10.5563,-13.6688,
2.080729,-0.0039,-0.2845,-0.0515,-0.0007,-0.0012,-0.0029,-41.2875,10.5563,-13.6688,
2.083805,-0.0039,-0.2845,-0.0515,-0.0104,-0.0012,-0.0043,-41.2875,10.5563,-13.6688,
2.097991,-0.0146,-0.2810,-0.0668,-0.0104,-0.0012,-0.0043,-41.2875,10.5563,-13.6688,
2.117043,0.0133,-0.2768,-0.1138,-0.0104,-0.0012,-0.0043,-41.2875,10.5563,-13.6688,
2.127642,0.0133,-0.2768,-0.1138,-0.0104,-0.0012,-0.0043,-40.4062,10.3125,-13.4813,
2.131115,0.0133,-0.2768,-0.1138,-0.0104,-0.0012,-0.0043,-40.4062,10.3125,-13.4813,
2.135622,0.0121,-0.2583,-0.1225,-0.0104,-0.0012,-0.0043,-40.4062,10.3125,-13.4813,
2.145673,0.0121,-0.2583,-0.1225,-0.0030,-0.0049,-0.0054,-40.4062,10.3125,-13.4813,
2.155637,0.0412,-0.2781,-0.0720,-0.0030,-0.0049,-0.0054,-40.4062,10.3125,-13.4813,
2.175857,0.0624,-0.2807,-0.0257,-0.0030,-0.0049,-0.0054,-40.4062,10.3125,-13.4813,
2.187732,0.0624,-0.2807,-0.0257,-0.0030,-0.0049,-0.0054,-42.0563,10.2000,-12.3000,
2.194869,0.0624,-0.2807,-0.0257,-0.0030,-0.0049,-0.0054,-42.0563,10.2000,-12.3000,
2.197444,0.0400,-0.2665,-0.0324,-0.0030,-0.0049,-0.0054,-42.0563,10.2000,-12.3000,
2.207538,0.0400,-0.2665,-0.0324,-0.0007,-0.0000,-0.0115,-42.0563,10.2000,-12.3000,
2.213335,-0.0082,-0.2261,-0.0100,-0.0007,-0.0000,-0.0115,-42.0563,10.2000,-12.3000,
2.232390,0.0326,-0.2004,-0.0502,-0.0007,-0.0000,-0.0115,-42.0563,10.2000,-12.3000,
2.246748,0.0326,-0.2004,-0.0502,-0.0007,-0.0000,-0.0115,-41.7938,10.5563,-11.7750,
2.250524,0.0374,-0.2134,-0.0431,-0.0007,-0.0000,-0.0115,-41.7938,10.5563,-11.7750,
2.255566,0.0374,-0.2134,-0.0431,-0.0007,-0.0000,-0.0115,-41.7938,10.5563,-11.7750,
2.269595,0.0374,-0.2134,-0.0431,-0.0202,0.0025,-0.0091,-41.7938,10.5563,-11.7750,
2.272606,0.0938,-0.2791,-0.0357,-0.0202,0.0025,-0.0091,-41.7938,10.5563,-11.7750,
2.291014,0.0961,-0.3110,0.0010,-0.0202,0.0025,-0.0091,-41.7938,10.5563,-11.7750,
2.307105,0.0961,-0.3110,0.0010,-0.0202,0.0025,-0.0091,-42.1688,10.3875,-12.1875,
2.307851,0.0626,-0.2995,-0.0550,-0.0202,0.0025,-0.0091,-42.1688,10.3875,-12.1875,
2.317325,0.0626,-0.2995,-0.0550,-0.0202,0.0025,-0.0091,-42.1688,10.3875,-12.1875,
2.327134,0.1141,-0.2930,-0.0934,-0.0202,0.0025,-0.0091,-42.1688,10.3875,-12.1875,
2.331741,0.1141,-0.2930,-0.0934,-0.0055,0.0012,-0.0263,-42.1688,10.3875,-12.1875,
2.346848,0.1226,-0.2721,0.0094,-0.0055,0.0012,-0.0263,-42.1688,10.3875,-12.1875,
2.366627,0.1067,-0.2319,-0.0136,-0.0055,0.0012,-0.0263,-42.1688,10.3875,-12.1875,
2.368755,0.1067,-0.2319,-0.0136,-0.0055,0.0012,-0.0263,-42.1688,10.5938,-12.1875,
2.380525,0.1067,-0.2319,-0.0136,-0.0055,0.0012,-0.0263,-42.1688,10.5938,-12.1875,
2.385154,0.1054,-0.2256,-0.0707,-0.0055,0.0012,-0.0263,-42.1688,10.5938,-12.1875,
2.394137,0.1054,-0.2256,-0.0707,-0.0153,-0.0183,-0.0371,-42.1688,10.5938,-12.1875,
2.403643,0.1303,-0.2602,0.0286,-0.0153,-0.0183,-0.0371,-42.1688,10.5938,-12.1875,
2.423005,0.1283,-0.3208,0.0162,-0.0153,-0.0183,-0.0371,-42.1688,10.5938,-12.1875,
2.427921,0.1283,-0.3208,0.0162,-0.0153,-0.0183,-0.0371,-42.0563,10.3125,-12.5063,
2.441968,0.1283,-0.3208,0.0162,-0.0153,-0.0183,-0.0371,-42.0563,10.3125,-12.5063,
2.445291,0.1298,-0.2786,-0.0074,-0.0153,-0.0183,-0.0371,-42.0563,10.3125,-12.5063,
2.457071,0.1298,-0.2786,-0.0074,-0.0312,-0.0587,-0.0543,-42.0563,10.3125,-12.5063,
2.461263,0.1407,-0.2419,0.0201,-0.0312,-0.0587,-0.0543,-42.0563,10.3125,-12.5063,
2.480934,0.2108,-0.1654,0.0156,-0.0312,-0.0587,-0.0543,-42.0563,10.3125,-12.5063,
2.487702,0.2108,-0.1654,0.0156,-0.0312,-0.0587,-0.0543,-41.9625,9.8250,-11.1562,
2.499686,0.2792,-0.1926,-0.0092,-0.0312,-0.0587,-0.0543,-41.9625,9.8250,-11.1562,
2.503224,0.2792,-0.1926,-0.0092,-0.0312,-0.0587,-0.0543,-41.9625,9.8250,-11.1562,
2.518014,0.2792,-0.1926,-0.0092,-0.0862,-0.1100,-0.0726,-41.9625,9.8250,-11.1562,
2.519769,0.2554,-0.2085,-0.0000,-0.0862,-0.1100,-0.0726,-41.9625,9.8250,-11.1562,
2.538621,0.2242,-0.2201,0.0064,-0.0862,-0.1100,-0.0726,-41.9625,9.8250,-11.1562,
2.548912,0.2242,-0.2201,0.0064,-0.0862,-0.1100,-0.0726,-40.8750,9.8250,-13.2750,
2.560440,0.2276,-0.2249,0.0679,-0.0862,-0.1100,-0.0726,-40.8750,9.8250,-13.2750,
2.566287,0.2276,-0.2249,0.0679,-0.0862,-0.1100,-0.0726,-40.8750,9.8250,-13.2750,
2.575886,0.2089,-0.2204,0.1735,-0.0862,-0.1100,-0.0726,-40.8750,9.8250,-13.2750,
2.580375,0.2089,-0.2204,0.1735,-0.1253,-0.2078,-0.0763,-40.8750,9.8250,-13.2750,
2.600675,0.2160,-0.2351,0.2337,-0.1253,-0.2078,-0.0763,-40.8750,9.8250,-13.2750,
2.607138,0.2160,-0.2351,0.2337,-0.1253,-0.2078,-0.0763,-41.4750,10.0875,-12.4125,
2.614763,0.1518,-0.1828,0.1941,-0.1253,-0.2078,-0.0763,-41.4750,10.0875,-12.4125,
2.628660,0.1518,-0.1828,0.1941,-0.1253,-0.2078,-0.0763,-41.4750,10.0875,-12.4125,
2.633697,0.1536,-0.1452,0.0245,-0.1253,-0.2078,-0.0763,-41.4750,10.0875,-12.4125,
2.642652,0.1536,-0.1452,0.0245,-0.1290,-0.3213,-0.0788,-41.4750,10.0875,-12.4125,
2.652874,0.1800,-0.1970,-0.0096,-0.1290,-0.3213,-0.0788,-41.4750,10.0875,-12.4125,
2.668330,0.1800,-0.1970,-0.0096,-0.1290,-0.3213,-0.0788,-42.7313,9.5063,-10.3125,
2.671222,0.1030,-0.2301,0.0114,-0.1290,-0.3213,-0.0788,-42.7313,9.5063,-10.3125,
2.690118,0.1030,-0.2301,0.0114,-0.1290,-0.3213,-0.0788,-42.7313,9.5063,-10.3125,
2.691167,0.0884,-0.2628,0.0107,-0.1290,-0.3213,-0.0788,-42.7313,9.5063,-10.3125,
2.704608,0.0884,-0.2628,0.0107,-0.1326,-0.4031,-0.0018,-42.7313,9.5063,-10.3125,
2.709869,0.1424,-0.3689,0.0836,-0.1326,-0.4031,-0.0018,-42.7313,9.5063,-10.3125,
2.729602,0.1424,-0.3689,0.0836,-0.1326,-0.4031,-0.0018,-43.5375,9.5625,-9.0375,
2.730936,0.2798,-0.3044,0.0701,-0.1326,-0.4031,-0.0018,-43.5375,9.5625,-9.0375,
2.749138,0.2430,-0.1210,-0.0381,-0.1326,-0.4031,-0.0018,-43.5375,9.5625,-9.0375,
2.752805,0.2430,-0.1210,-0.0381,-0.1326,-0.4031,-0.0018,-43.5375,9.5625,-9.0375,
2.767170,0.2430,-0.1210,-0.0381,-0.1558,-0.3861,0.0250,-43.5375,9.5625,-9.0375,
2.770476,0.0530,-0.0918,0.0348,-0.1558,-0.3861,0.0250,-43.5375,9.5625,-9.0375,
2.786391,-0.0981,-0.1269,0.1326,-0.1558,-0.3861,0.0250,-43.5375,9.5625,-9.0375,
2.788395,-0.0981,-0.1269,0.1326,-0.1558,-0.3861,0.0250,-43.1625,9.6750,-7.7063,
2.805700,-0.1472,-0.0931,0.0575,-0.1558,-0.3861,0.0250,-43.1625,9.6750,-7.7063,
2.814456,-0.1472,-0.0931,0.0575,-0.1558,-0.3861,0.0250,-43.1625,9.6750,-7.7063,
2.825992,-0.3416,-0.1653,0.0208,-0.1558,-0.3861,0.0250,-43.1625,9.6750,-7.7063,
2.829034,-0.3416,-0.1653,0.0208,-0.1863,-0.2945,0.0470,-43.1625,9.6750,-7.7063,
2.843567,-0.5500,-0.1999,0.0105,-0.1863,-0.2945,0.0470,-43.1625,9.6750,-7.7063,
2.846900,-0.5500,-0.1999,0.0105,-0.1863,-0.2945,0.0470,-43.6688,10.0500,-7.0500,
2.863540,-0.6714,-0.2163,0.1620,-0.1863,-0.2945,0.0470,-43.6688,10.0500,-7.0500,
2.876646,-0.6714,-0.2163,0.1620,-0.1863,-0.2945,0.0470,-43.6688,10.0500,-7.0500,
2.881441,-0.8454,-0.2148,0.1426,-0.1863,-0.2945,0.0470,-43.6688,10.0500,-7.0500,
2.893022,-0.8454,-0.2148,0.1426,-0.2756,-0.4692,0.0764,-43.6688,10.0500,-7.0500,
2.902454,-1.2444,-0.0815,-0.0358,-0.2756,-0.4692,0.0764,-43.6688,10.0500,-7.0500,
2.907820,-1.2444,-0.0815,-0.0358,-0.2756,-0.4692,0.0764,-43.5000,10.1625,-5.8125,
2.920493,-1.6751,0.0590,0.1255,-0.2756,-0.4692,0.0764,-43.5000,10.1625,-5.8125,
2.939135,-1.6751,0.0590,0.1255,-0.2756,-0.4692,0.0764,-43.5000,10.1625,-5.8125,
2.942306,-1.6299,-0.0192,0.0683,-0.2756,-0.4692,0.0764,-43.5000,10.1625,-5.8125,
2.953006,-1.6299,-0.0192,0.0683,-0.3501,-0.6672,0.0972,-43.5000,10.1625,-5.8125,
2.958919,-0.9816,-0.3062,-0.2702,-0.3501,-0.6672,0.0972,-43.5000,10.1625,-5.8125,
2.967809,-0.9816,-0.3062,-0.2702,-0.3501,-0.6672,0.0972,-44.1375,10.8750,-3.9188,
2.977929,-0.0422,-0.6589,-0.0780,-0.3501,-0.6672,0.0972,-44.1375,10.8750,-3.9188,
2.997680,0.6983,-0.8959,0.3420,-0.3501,-0.6672,0.0972,-44.1375,10.8750,-3.9188,
3.001240,0.6983,-0.8959,0.3420,-0.3501,-0.6672,0.0972,-44.1375,10.8750,-3.9188,
3.015041,0.6983,-0.8959,0.3420,-0.3354,-0.2810,0.0007,-44.1375,10.8750,-3.9188,
3.016647,0.8995,-0.8452,0.7157,-0.3354,-0.2810,0.0007,-44.1375,10.8750,-3.9188,
3.026679,0.8995,-0.8452,0.7157,-0.3354,-0.2810,0.0007,-43.9500,10.6875,-2.4750,
3.037110,0.6021,-0.5805,0.7495,-0.3354,-0.2810,0.0007,-43.9500,10.6875,-2.4750,
3.054519,-0.0024,-0.3121,0.4742,-0.3354,-0.2810,0.0007,-43.9500,10.6875,-2.4750,
3.062740,-0.0024,-0.3121,0.4742,-0.3354,-0.2810,0.0007,-43.9500,10.6875,-2.4750,
3.072822,-0.6754,-0.1103,0.4098,-0.3354,-0.2810,0.0007,-43.9500,10.6875,-2.4750,
3.076939,-0.6754,-0.1103,0.4098,-0.2463,-0.1930,0.0605,-43.9500,10.6875,-2.4750,
3.088524,-0.6754,-0.1103,0.4098,-0.2463,-0.1930,0.0605,-43.5375,10.3500,-1.9688,
3.092038,-0.9480,-0.0755,0.4502,-0.2463,-0.1930,0.0605,-43.5375,10.3500,-1.9688,
3.111876,-0.6293,-0.2601,0.5238,-0.2463,-0.1930,0.0605,-43.5375,10.3500,-1.9688,
3.125369,-0.6293,-0.2601,0.5238,-0.2463,-0.1930,0.0605,-43.5375,10.3500,-1.9688,
3.130059,-0.0511,-0.3469,0.6475,-0.2463,-0.1930,0.0605,-43.5375,10.3500,-1.9688,
3.139703,-0.0511,-0.3469,0.6475,-0.3196,-0.0660,-0.0861,-43.5375,10.3500,-1.9688,
3.146978,-0.0511,-0.3469,0.6475,-0.3196,-0.0660,-0.0861,-44.6250,10.5188,-0.9000,
3.150154,0.3281,-0.3312,0.5044,-0.3196,-0.0660,-0.0861,-44.6250,10.5188,-0.9000,
3.169760,0.3911,-0.2357,0.2508,-0.3196,-0.0660,-0.0861,-44.6250,10.5188,-0.9000,
3.187573,0.3911,-0.2357,0.2508,-0.3196,-0.0660,-0.0861,-44.6250,10.5188,-0.9000,
3.189391,0.1517,-0.2004,0.0609,-0.3196,-0.0660,-0.0861,-44.6250,10.5188,-0.9000,
3.202824,0.1517,-0.2004,0.0609,-0.3598,0.0330,-0.0458,-44.6250,10.5188,-0.9000,
3.206944,-0.0162,-0.2509,0.2056,-0.3598,0.0330,-0.0458,-44.6250,10.5188,-0.9000,
3.207899,-0.0162,-0.2509,0.2056,-0.3598,0.0330,-0.0458,-44.3250,10.2000,-0.9000,
3.226426,-0.2913,-0.2659,0.2231,-0.3598,0.0330,-0.0458,-44.3250,10.2000,-0.9000,
3.247925,-0.5764,-0.3043,0.0712,-0.3598,0.0330,-0.0458,-44.3250,10.2000,-0.9000,
3.251406,-0.5764,-0.3043,0.0712,-0.3598,0.0330,-0.0458,-44.3250,10.2000,-0.9000,
3.264627,-0.5764,-0.3043,0.0712,-0.3769,-0.0795,-0.0103,-44.3250,10.2000,-0.9000,
3.268412,-0.5756,-0.4032,0.1444,-0.3769,-0.0795,-0.0103,-44.3250,10.2000,-0.9000,
3.270901,-0.5756,-0.4032,0.1444,-0.3769,-0.0795,-0.0103,-44.3438,10.2938,-0.6000,
3.284244,-0.3519,-0.3523,0.1820,-0.3769,-0.0795,-0.0103,-44.3438,10.2938,-0.6000,
3.303159,-0.0457,-0.2911,0.1738,-0.3769,-0.0795,-0.0103,-44.3438,10.2938,-0.6000,
3.311870,-0.0457,-0.2911,0.1738,-0.3769,-0.0795,-0.0103,-44.3438,10.2938,-0.6000,
3.323055,0.2636,-0.3415,0.3068,-0.3769,-0.0795,-0.0103,-44.3438,10.2938,-0.6000,
3.326125,0.2636,-0.3415,0.3068,-0.3366,0.0451,-0.0593,-44.3438,10.2938,-0.6000,
3.328437,0.2636,-0.3415,0.3068,-0.3366,0.0451,-0.0593,-44.0438,10.1438,-0.0750,
3.341056,0.5309,-0.4531,0.3865,-0.3366,0.0451,-0.0593,-44.0438,10.1438,-0.0750,
3.359953,0.6197,-0.5217,0.3770,-0.3366,0.0451,-0.0593,-44.0438,10.1438,-0.0750,
3.374283,0.6197,-0.5217,0.3770,-0.3366,0.0451,-0.0593,-44.0438,10.1438,-0.0750,
3.381748,0.4512,-0.5137,0.4313,-0.3366,0.0451,-0.0593,-44.0438,10.1438,-0.0750,
3.386583,0.4512,-0.5137,0.4313,-0.3366,0.0451,-0.0593,-43.6313,9.8625,-0.4125,
3.387704,0.4512,-0.5137,0.4313,-0.3183,0.1343,-0.0091,-43.6313,9.8625,-0.4125,
3.398109,0.1953,-0.4734,0.4097,-0.3183,0.1343,-0.0091,-43.6313,9.8625,-0.4125,
3.417952,-0.0290,-0.3304,0.1844,-0.3183,0.1343,-0.0091,-43.6313,9.8625,-0.4125,
3.436616,-0.0290,-0.3304,0.1844,-0.3183,0.1343,-0.0091,-43.6313,9.8625,-0.4125,
3.439551,-0.1580,-0.2466,0.0536,-0.3183,0.1343,-0.0091,-43.6313,9.8625,-0.4125,
3.449124,-0.1580,-0.2466,0.0536,-0.3183,0.1343,-0.0091,-43.9500,10.4438,-0.0750,
3.452362,-0.1580,-0.2466,0.0536,-0.3061,0.1148,0.0202,-43.9500,10.4438,-0.0750,
3.456454,-0.2366,-0.1884,0.0260,-0.3061,0.1148,0.0202,-43.9500,10.4438,-0.0750,
3.475196,-0.0697,-0.1605,0.0561,-0.3061,0.1148,0.0202,-43.9500,10.4438,-0.0750,
3.493957,0.0407,-0.0467,0.1579,-0.3061,0.1148,0.0202,-43.9500,10.4438,-0.0750,
3.498757,0.0407,-0.0467,0.1579,-0.3061,0.1148,0.0202,-43.9500,10.4438,-0.0750,
3.506458,0.0407,-0.0467,0.1579,-0.3061,0.1148,0.0202,-43.9500,10.4625,-0.5063,
3.512788,0.0407,-0.0467,0.1579,-0.2914,0.0843,-0.0543,-43.9500,10.4625,-0.5063,
3.513727,0.0051,-0.0055,0.1742,-0.2914,0.0843,-0.0543,-43.9500,10.4625,-0.5063,
3.532394,-0.0548,-0.1129,0.1491,-0.2914,0.0843,-0.0543,-43.9500,10.4625,-0.5063,
3.553047,0.0262,-0.2504,0.0470,-0.2914,0.0843,-0.0543,-43.9500,10.4625,-0.5063,
3.560713,0.0262,-0.2504,0.0470,-0.2914,0.0843,-0.0543,-43.9500,10.4625,-0.5063,
3.566502,0.0262,-0.2504,0.0470,-0.2914,0.0843,-0.0543,-43.4625,10.0312,-0.0938,
3.571548,0.1893,-0.3236,0.0838,-0.2914,0.0843,-0.0543,-43.4625,10.0312,-0.0938,
3.574360,0.1893,-0.3236,0.0838,-0.2596,0.1148,-0.0360,-43.4625,10.0312,-0.0938,
3.590629,0.2589,-0.2215,0.1598,-0.2596,0.1148,-0.0360,-43.4625,10.0312,-0.0938,
3.609535,0.1249,-0.0424,0.2200,-0.2596,0.1148,-0.0360,-43.4625,10.0312,-0.0938,
3.622749,0.1249,-0.0424,0.2200,-0.2596,0.1148,-0.0360,-43.4625,10.0312,-0.0938,
3.627680,0.1249,-0.0424,0.2200,-0.2596,0.1148,-0.0360,-44.2125,9.8063,-0.8063,
3.630307,-0.0224,0.0623,0.1581,-0.2596,0.1148,-0.0360,-44.2125,9.8063,-0.8063,
3.636081,-0.0224,0.0623,0.1581,-0.2426,0.1918,-0.0751,-44.2125,9.8063,-0.8063,
3.648062,0.0547,-0.0664,0.1071,-0.2426,0.1918,-0.0751,-44.2125,9.8063,-0.8063,
3.666468,0.1350,-0.3612,0.1241,-0.2426,0.1918,-0.0751,-44.2125,9.8063,-0.8063,
3.685247,0.1350,-0.3612,0.1241,-0.2426,0.1918,-0.0751,-44.2125,9.8063,-0.8063,
3.687842,0.3011,-0.3784,0.3246,-0.2426,0.1918,-0.0751,-44.2125,9.8063,-0.8063,
3.690789,0.3011,-0.3784,0.3246,-0.2426,0.1918,-0.0751,-44.7750,9.4500,-1.1063,
3.698655,0.3011,-0.3784,0.3246,-0.2695,0.2394,-0.0556,-44.7750,9.4500,-1.1063,
3.704089,0.2996,-0.1863,0.3766,-0.2695,0.2394,-0.0556,-44.7750,9.4500,-1.1063,
3.723871,0.1306,0.0117,0.4358,-0.2695,0.2394,-0.0556,-44.7750,9.4500,-1.1063,
3.743719,-0.1239,0.1255,0.3183,-0.2695,0.2394,-0.0556,-44.7750,9.4500,-1.1063,
3.747232,-0.1239,0.1255,0.3183,-0.2695,0.2394,-0.0556,-44.7750,9.4500,-1.1063,
3.749396,-0.1239,0.1255,0.3183,-0.2695,0.2394,-0.0556,-44.3813,9.4688,-1.9500,
3.761559,-0.1239,0.1255,0.3183,-0.2975,0.3017,0.0055,-44.3813,9.4688,-1.9500,
3.765073,-0.0770,0.0148,0.1075,-0.2975,0.3017,0.0055,-44.3813,9.4688,-1.9500,
3.780579,-0.0146,-0.1263,0.0154,-0.2975,0.3017,0.0055,-44.3813,9.4688,-1.9500,
3.799996,-0.0022,-0.1675,-0.0515,-0.2975,0.3017,0.0055,-44.3813,9.4688,-1.9500,
3.807024,-0.0022,-0.1675,-0.0515,-0.2975,0.3017,0.0055,-44.3813,9.6188,-2.5688,
3.809081,-0.0022,-0.1675,-0.0515,-0.2975,0.3017,0.0055,-44.3813,9.6188,-2.5688,
3.818786,-0.1181,-0.0308,-0.0343,-0.2975,0.3017,0.0055,-44.3813,9.6188,-2.5688,
3.823476,-0.1181,-0.0308,-0.0343,-0.4295,0.2894,-0.0861,-44.3813,9.6188,-2.5688,
3.838269,-0.3265,0.1603,0.3580,-0.4295,0.2894,-0.0861,-44.3813,9.6188,-2.5688,
3.857536,-0.3196,0.4010,0.8728,-0.4295,0.2894,-0.0861,-44.3813,9.6188,-2.5688,
3.867715,-0.3196,0.4010,0.8728,-0.4295,0.2894,-0.0861,-44.1750,9.3375,-3.2063,
3.870930,-0.3196,0.4010,0.8728,-0.4295,0.2894,-0.0861,-44.1750,9.3375,-3.2063,
3.876823,-0.2912,0.8053,0.9628,-0.4295,0.2894,-0.0861,-44.1750,9.3375,-3.2063,
3.886890,-0.2912,0.8053,0.9628,-0.4319,0.3677,-0.1875,-44.1750,9.3375,-3.2063,
3.896498,-0.0748,0.8652,0.8384,-0.4319,0.3677,-0.1875,-44.1750,9.3375,-3.2063,
3.914546,0.0245,0.5565,1.1025,-0.4319,0.3677,-0.1875,-44.1750,9.3375,-3.2063,
3.927544,0.0245,0.5565,1.1025,-0.4319,0.3677,-0.1875,-43.8563,9.0750,-3.9375,
3.932792,0.0245,0.5565,1.1025,-0.4319,0.3677,-0.1875,-43.8563,9.0750,-3.9375,
3.933625,-0.0661,0.2634,1.5578,-0.4319,0.3677,-0.1875,-43.8563,9.0750,-3.9375,
3.948072,-0.0661,0.2634,1.5578,-0.5186,0.4593,-0.2756,-43.8563,9.0750,-3.9375,
3.953890,0.1313,-0.0257,1.8626,-0.5186,0.4593,-0.2756,-43.8563,9.0750,-3.9375,
3.972709,0.3112,-0.1260,2.2719,-0.5186,0.4593,-0.2756,-43.8563,9.0750,-3.9375,
3.987803,0.3112,-0.1260,2.2719,-0.5186,0.4593,-0.2756,-44.1000,8.3813,-5.2875,
3.991616,0.4933,-0.1513,2.5675,-0.5186,0.4593,-0.2756,-44.1000,8.3813,-5.2875,
3.995391,0.4933,-0.1513,2.5675,-0.5186,0.4593,-0.2756,-44.1000,8.3813,-5.2875,
4.009979,0.4933,-0.1513,2.5675,-0.3366,1.0347,-0.4819,-44.1000,8.3813,-5.2875,
4.013190,0.4912,-0.2521,2.4123,-0.3366,1.0347,-0.4819,-44.1000,8.3813,-5.2875,
4.029984,0.1855,-0.2635,2.1117,-0.3366,1.0347,-0.4819,-44.1000,8.3813,-5.2875,
4.047536,0.1855,-0.2635,2.1117,-0.3366,1.0347,-0.4819,-43.3500,7.3313,-8.3250,
4.051150,-0.0547,-0.2796,2.4379,-0.3366,1.0347,-0.4819,-43.3500,7.3313,-8.3250,
4.061146,-0.0547,-0.2796,2.4379,-0.3366,1.0347,-0.4819,-43.3500,7.3313,-8.3250,
4.068036,-0.2489,-0.1565,2.8188,-0.3366,1.0347,-0.4819,-43.3500,7.3313,-8.3250,
4.073715,-0.2489,-0.1565,2.8188,-0.2658,1.2253,-0.3316,-43.3500,7.3313,-8.3250,
4.088739,-0.2078,-0.4276,2.7398,-0.2658,1.2253,-0.3316,-43.3500,7.3313,-8.3250,
4.106971,-0.1667,-0.5405,2.7952,-0.2658,1.2253,-0.3316,-43.3500,7.3313,-8.3250,
4.110966,-0.1667,-0.5405,2.7952,-0.2658,1.2253,-0.3316,-42.6188,6.9563,-10.8563,
4.120397,-0.1667,-0.5405,2.7952,-0.2658,1.2253,-0.3316,-42.6188,6.9563,-10.8563,
4.125444,-0.4340,-0.1836,3.2001,-0.2658,1.2253,-0.3316,-42.6188,6.9563,-10.8563,
4.134208,-0.4340,-0.1836,3.2001,-0.0837,1.4135,-0.2646,-42.6188,6.9563,-10.8563,
4.145997,-0.9618,0.4409,3.4481,-0.0837,1.4135,-0.2646,-42.6188,6.9563,-10.8563,
4.163913,-1.7662,1.3061,3.2630,-0.0837,1.4135,-0.2646,-42.6188,6.9563,-10.8563,
4.170301,-1.7662,1.3061,3.2630,-0.0837,1.4135,-0.2646,-41.6813,6.3938,-15.3563,
4.182103,-1.7662,1.3061,3.2630,-0.0837,1.4135,-0.2646,-41.6813,6.3938,-15.3563,
4.185521,-2.3167,2.0489,2.9916,-0.0837,1.4135,-0.2646,-41.6813,6.3938,-15.3563,
4.196122,-2.3167,2.0489,2.9916,0.1948,1.4746,-0.0727,-41.6813,6.3938,-15.3563,
4.202643,-2.6462,2.8828,2.0025,0.1948,1.4746,-0.0727,-41.6813,6.3938,-15.3563,
4.221316,-2.2186,3.8061,1.2606,0.1948,1.4746,-0.0727,-41.6813,6.3938,-15.3563,
4.228279,-2.2186,3.8061,1.2606,0.1948,1.4746,-0.0727,-39.7688,5.9438,-18.7313,
4.239579,-3.4781,2.9709,1.0111,0.1948,1.4746,-0.0727,-39.7688,5.9438,-18.7313,
4.243826,-3.4781,2.9709,1.0111,0.1948,1.4746,-0.0727,-39.7688,5.9438,-18.7313,
4.258682,-3.4781,2.9709,1.0111,0.0971,1.3487,-0.2291,-39.7688,5.9438,-18.7313,
4.260432,-3.4156,1.8989,1.1445,0.0971,1.3487,-0.2291,-39.7688,5.9438,-18.7313,
4.279223,-2.4428,1.4331,0.7988,0.0971,1.3487,-0.2291,-39.7688,5.9438,-18.7313,
4.289760,-2.4428,1.4331,0.7988,0.0971,1.3487,-0.2291,-38.1375,5.3063,-22.4250,
4.298193,-0.9629,2.7215,1.9880,0.0971,1.3487,-0.2291,-38.1375,5.3063,-22.4250,
4.305789,-0.9629,2.7215,1.9880,0.0971,1.3487,-0.2291,-38.1375,5.3063,-22.4250,
4.317009,-4.9517,5.5715,0.6674,0.0971,1.3487,-0.2291,-38.1375,5.3063,-22.4250,
4.320959,-4.9517,5.5715,0.6674,-0.2498,0.4190,-0.5602,-38.1375,5.3063,-22.4250,
4.335365,-6.5766,6.9018,0.9238,-0.2498,0.4190,-0.5602,-38.1375,5.3063,-22.4250,
4.347666,-6.5766,6.9018,0.9238,-0.2498,0.4190,-0.5602,-35.8500,4.6875,-24.7875,
4.354869,-2.4651,8.2319,1.7297,-0.2498,0.4190,-0.5602,-35.8500,4.6875,-24.7875,
4.368910,-2.4651,8.2319,1.7297,-0.2498,0.4190,-0.5602,-35.8500,4.6875,-24.7875,
4.373321,1.9810,11.6347,-5.6797,-0.2498,0.4190,-0.5602,-35.8500,4.6875,-24.7875,
4.382447,1.9810,11.6347,-5.6797,-2.1937,0.4972,-0.9268,-35.8500,4.6875,-24.7875,
4.394093,3.4556,14.7074,-24.5298,-2.1937,0.4972,-0.9268,-35.8500,4.6875,-24.7875,
4.408437,3.4556,14.7074,-24.5298,-2.1937,0.4972,-0.9268,-36.2250,6.3938,-23.3063,
4.414843,-3.3065,5.4726,-36.1221,-2.1937,0.4972,-0.9268,-36.2250,6.3938,-23.3063,
4.430741,-3.3065,5.4726,-36.1221,-2.1937,0.4972,-0.9268,-36.2250,6.3938,-23.3063,
4.432134,-9.3758,-7.4800,-20.8938,-2.1937,0.4972,-0.9268,-36.2250,6.3938,-23.3063,
4.445428,-9.3758,-7.4800,-20.8938,-4.8289,-7.7311,-1.0366,-36.2250,6.3938,-23.3063,
4.450666,17.5644,-34.7388,-13.9812,-4.8289,-7.7311,-1.0366,-36.2250,6.3938,-23.3063,
4.467137,17.5644,-34.7388,-13.9812,-4.8289,-7.7311,-1.0366,-43.2188,8.1375,-5.0063,
4.469362,18.1280,-15.4180,-10.6705,-4.8289,-7.7311,-1.0366,-43.2188,8.1375,-5.0063,
4.489977,28.1255,-14.7918,3.8629,-4.8289,-7.7311,-1.0366,-43.2188,8.1375,-5.0063,
4.492569,28.1255,-14.7918,3.8629,-4.8289,-7.7311,-1.0366,-43.2188,8.1375,-5.0063,
4.507372,28.1255,-14.7918,3.8629,-2.6249,-1.5162,-1.3042,-43.2188,8.1375,-5.0063,
4.509130,11.3880,10.8513,18.7813,-2.6249,-1.5162,-1.3042,-43.2188,8.1375,-5.0063,
4.526477,0.0988,5.2195,11.6696,-2.6249,-1.5162,-1.3042,-43.2188,8.1375,-5.0063,
4.527907,0.0988,5.2195,11.6696,-2.6249,-1.5162,-1.3042,-43.9688,3.5063,1.6313,
4.546754,-8.6571,-1.7143,10.8868,-2.6249,-1.5162,-1.3042,-43.9688,3.5063,1.6313,
4.556737,-8.6571,-1.7143,10.8868,-2.6249,-1.5162,-1.3042,-43.9688,3.5063,1.6313,
4.564963,-10.8207,-7.4425,10.7633,-2.6249,-1.5162,-1.3042,-43.9688,3.5063,1.6313,
4.569662,-10.8207,-7.4425,10.7633,-4.2387,-1.5027,1.5925,-43.9688,3.5063,1.6313,
4.583689,-2.7487,-11.3244,6.6899,-4.2387,-1.5027,1.5925,-43.9688,3.5063,1.6313,
4.586241,-2.7487,-11.3244,6.6899,-4.2387,-1.5027,1.5925,-43.6125,7.0313,7.5750,
4.605801,2.2380,-9.3246,-1.4343,-4.2387,-1.5027,1.5925,-43.6125,7.0313,7.5750,
4.617196,2.2380,-9.3246,-1.4343,-4.2387,-1.5027,1.5925,-43.6125,7.0313,7.5750,
4.622178,4.8334,-6.5655,0.4158,-4.2387,-1.5027,1.5925,-43.6125,7.0313,7.5750,
4.631250,4.8334,-6.5655,0.4158,0.2192,-0.3286,-1.2957,-43.6125,7.0313,7.5750,
4.641839,4.6058,0.1373,6.3517,0.2192,-0.3286,-1.2957,-43.6125,7.0313,7.5750,
4.648540,4.6058,0.1373,6.3517,0.2192,-0.3286,-1.2957,-43.4062,4.1438,9.3188,
4.660722,8.2300,9.5463,10.9381,0.2192,-0.3286,-1.2957,-43.4062,4.1438,9.3188,
4.679877,8.2300,9.5463,10.9381,0.2192,-0.3286,-1.2957,-43.4062,4.1438,9.3188,
4.682871,2.6569,14.9651,-2.6571,0.2192,-0.3286,-1.2957,-43.4062,4.1438,9.3188,
4.700509,2.6569,14.9651,-2.6571,1.5656,0.5460,1.2052,-43.4062,4.1438,9.3188,
4.701989,0.9436,11.1045,-7.3054,1.5656,0.5460,1.2052,-43.4062,4.1438,9.3188,
4.706830,0.9436,11.1045,-7.3054,1.5656,0.5460,1.2052,-42.7688,5.7563,6.7125,
4.717845,-0.6969,3.8860,-5.3735,1.5656,0.5460,1.2052,-42.7688,5.7563,6.7125,
4.737644,-1.3471,-1.4025,3.3110,1.5656,0.5460,1.2052,-42.7688,5.7563,6.7125,
4.741890,-1.3471,-1.4025,3.3110,1.5656,0.5460,1.2052,-42.7688,5.7563,6.7125,
4.755994,-1.3471,-1.4025,3.3110,-0.2035,1.2082,-0.2206,-42.7688,5.7563,6.7125,
4.757811,1.0933,-1.5541,1.5862,-0.2035,1.2082,-0.2206,-42.7688,5.7563,6.7125,
4.767953,1.0933,-1.5541,1.5862,-0.2035,1.2082,-0.2206,-42.7688,6.6938,4.2188,
4.775094,0.4091,2.3055,-0.5071,-0.2035,1.2082,-0.2206,-42.7688,6.6938,4.2188,
4.795168,-1.3272,6.8998,0.2621,-0.2035,1.2082,-0.2206,-42.7688,6.6938,4.2188,
4.805645,-1.3272,6.8998,0.2621,-0.2035,1.2082,-0.2206,-42.7688,6.6938,4.2188,
4.816488,-13.0320,46.0491,-63.5473,-0.2035,1.2082,-0.2206,-42.7688,6.6938,4.2188,
4.821484,-13.0320,46.0491,-63.5473,-1.3042,-6.0536,-0.8240,-42.7688,6.6938,4.2188,
4.830300,-13.0320,46.0491,-63.5473,-1.3042,-6.0536,-0.8240,-41.2313,4.4062,5.1938,
4.832600,3.2362,4.5425,-7.6937,-1.3042,-6.0536,-0.8240,-41.2313,4.4062,5.1938,
4.851865,-1.1764,1.5704,-14.5314,-1.3042,-6.0536,-0.8240,-41.2313,4.4062,5.1938,
4.865617,-1.1764,1.5704,-14.5314,-1.3042,-6.0536,-0.8240,-41.2313,4.4062,5.1938,
4.870865,-0.3048,0.4219,0.3825,-1.3042,-6.0536,-0.8240,-41.2313,4.4062,5.1938,
4.883251,-0.3048,0.4219,0.3825,-0.3598,-0.1662,-0.0263,-41.2313,4.4062,5.1938,
4.886523,-0.3048,0.4219,0.3825,-0.3598,-0.1662,-0.0263,-40.5375,4.4250,4.7625,
4.892722,-0.0182,0.3333,-0.4915,-0.3598,-0.1662,-0.0263,-40.5375,4.4250,4.7625,
4.910130,-0.1968,0.5229,0.2448,-0.3598,-0.1662,-0.0263,-40.5375,4.4250,4.7625,
4.928453,-0.1968,0.5229,0.2448,-0.3598,-0.1662,-0.0263,-40.5375,4.4250,4.7625,
4.931409,0.1332,0.4043,-0.3623,-0.3598,-0.1662,-0.0263,-40.5375,4.4250,4.7625,
4.942363,0.1332,0.4043,-0.3623,-0.3281,-0.2285,-0.0923,-40.5375,4.4250,4.7625,
4.948261,0.1175,0.4367,0.5865,-0.3281,-0.2285,-0.0923,-40.5375,4.4250,4.7625,
4.949859,0.1175,0.4367,0.5865,-0.3281,-0.2285,-0.0923,-41.4188,4.0125,7.0688,
4.967448,-0.1638,0.4022,1.1416,-0.3281,-0.2285,-0.0923,-41.4188,4.0125,7.0688,
4.986638,-0.2699,0.5350,1.1742,-0.3281,-0.2285,-0.0923,-41.4188,4.0125,7.0688,
4.994267,-0.2699,0.5350,1.1742,-0.3281,-0.2285,-0.0923,-41.4188,4.0125,7.0688,
5.004412,-0.2699,0.5350,1.1742,0.0653,-0.1478,-0.0947,-41.4188,4.0125,7.0688,
5.005789,-0.2556,0.5335,1.2329,0.0653,-0.1478,-0.0947,-41.4188,4.0125,7.0688,
5.006565,-0.2556,0.5335,1.2329,0.0653,-0.1478,-0.0947,-41.1188,3.8063,7.1625,
5.024422,-0.3539,0.6116,0.7194,0.0653,-0.1478,-0.0947,-41.1188,3.8063,7.1625,
5.043736,-0.3636,0.6148,-0.2010,0.0653,-0.1478,-0.0947,-41.1188,3.8063,7.1625,
5.052086,-0.3636,0.6148,-0.2010,0.0653,-0.1478,-0.0947,-41.1188,3.8063,7.1625,
5.062942,-0.2750,0.5009,-0.5014,0.0653,-0.1478,-0.0947,-41.1188,3.8063,7.1625,
5.066723,-0.2750,0.5009,-0.5014,0.1081,-0.1222,-0.0190,-41.1188,3.8063,7.1625,
5.067899,-0.2750,0.5009,-0.5014,0.1081,-0.1222,-0.0190,-40.9313,3.4313,8.1938,
5.081401,-0.1286,0.5159,0.0580,0.1081,-0.1222,-0.0190,-40.9313,3.4313,8.1938,
5.101331,-0.2726,0.5258,-0.1993,0.1081,-0.1222,-0.0190,-40.9313,3.4313,8.1938,
5.115633,-0.2726,0.5258,-0.1993,0.1081,-0.1222,-0.0190,-40.9313,3.4313,8.1938,
5.120853,-0.2169,0.4614,-0.2337,0.1081,-0.1222,-0.0190,-40.9313,3.4313,8.1938,
5.126362,-0.2169,0.4614,-0.2337,0.1081,-0.1222,-0.0190,-40.8375,3.6375,8.1938,
5.128011,-0.2169,0.4614,-0.2337,0.0115,-0.0660,-0.0202,-40.8375,3.6375,8.1938,
5.138669,-0.1377,0.4370,0.1272,0.0115,-0.0660,-0.0202,-40.8375,3.6375,8.1938,
5.158923,-0.0933,0.4312,0.5791,0.0115,-0.0660,-0.0202,-40.8375,3.6375,8.1938,
5.176967,-0.0933,0.4312,0.5791,0.0115,-0.0660,-0.0202,-40.8375,3.6375,8.1938,
5.178718,-0.1626,0.4235,0.3340,0.0115,-0.0660,-0.0202,-40.8375,3.6375,8.1938,
5.187180,-0.1626,0.4235,0.3340,0.0115,-0.0660,-0.0202,-40.5188,3.2813,7.3500,
5.191998,-0.1626,0.4235,0.3340,0.0568,-0.1052,-0.0300,-40.5188,3.2813,7.3500,
5.195794,-0.2782,0.4252,-0.0335,0.0568,-0.1052,-0.0300,-40.5188,3.2813,7.3500,
5.215614,-0.3454,0.4189,-0.1520,0.0568,-0.1052,-0.0300,-40.5188,3.2813,7.3500,
5.234795,-0.2749,0.3755,0.1008,0.0568,-0.1052,-0.0300,-40.5188,3.2813,7.3500,
5.239000,-0.2749,0.3755,0.1008,0.0568,-0.1052,-0.0300,-40.5188,3.2813,7.3500,
5.249443,-0.2749,0.3755,0.1008,0.0568,-0.1052,-0.0300,-41.0625,3.9750,9.1313,
5.253308,-0.2749,0.3755,0.1008,0.0274,-0.0342,-0.0067,-41.0625,3.9750,9.1313,
5.255287,-0.2181,0.3568,0.0978,0.0274,-0.0342,-0.0067,-41.0625,3.9750,9.1313,
5.273255,-0.1591,0.3836,0.0303,0.0274,-0.0342,-0.0067,-41.0625,3.9750,9.1313,
5.293213,-0.2098,0.3559,-0.0949,0.0274,-0.0342,-0.0067,-41.0625,3.9750,9.1313,
5.301143,-0.2098,0.3559,-0.0949,0.0274,-0.0342,-0.0067,-41.0625,3.9750,9.1313,
5.306950,-0.2098,0.3559,-0.0949,0.0274,-0.0342,-0.0067,-41.5125,3.4313,8.6250,
5.312382,-0.1940,0.3582,0.1175,0.0274,-0.0342,-0.0067,-41.5125,3.4313,8.6250,
5.315585,-0.1940,0.3582,0.1175,0.0225,-0.0367,-0.0032,-41.5125,3.4313,8.6250,
5.330363,-0.1686,0.3145,0.1817,0.0225,-0.0367,-0.0032,-41.5125,3.4313,8.6250,
5.349628,-0.2058,0.3083,0.2412,0.0225,-0.0367,-0.0032,-41.5125,3.4313,8.6250,
5.363154,-0.2058,0.3083,0.2412,0.0225,-0.0367,-0.0032,-41.5125,3.4313,8.6250,
5.367303,-0.2058,0.3083,0.2412,0.0225,-0.0367,-0.0032,-39.7500,3.5625,7.2188,
5.369923,-0.1901,0.3014,0.1669,0.0225,-0.0367,-0.0032,-39.7500,3.5625,7.2188,
5.376874,-0.1901,0.3014,0.1669,0.0153,0.0280,0.0018,-39.7500,3.5625,7.2188,
5.387196,-0.1641,0.3017,0.2508,0.0153,0.0280,0.0018,-39.7500,3.5625,7.2188,
5.406905,-0.1837,0.3148,0.0763,0.0153,0.0280,0.0018,-39.7500,3.5625,7.2188,
5.425818,-0.1837,0.3148,0.0763,0.0153,0.0280,0.0018,-39.7500,3.5625,7.2188,
5.428739,-0.1573,0.3207,0.0456,0.0153,0.0280,0.0018,-39.7500,3.5625,7.2188,
5.431074,-0.1573,0.3207,0.0456,0.0153,0.0280,0.0018,-41.2125,3.3188,8.7188,
5.439760,-0.1573,0.3207,0.0456,0.0115,0.0439,0.0030,-41.2125,3.3188,8.7188,
5.445026,-0.1565,0.3134,0.0125,0.0115,0.0439,0.0030,-41.2125,3.3188,8.7188,
5.464804,-0.1432,0.2825,0.2067,0.0115,0.0439,0.0030,-41.2125,3.3188,8.7188,
5.483805,-0.1344,0.2741,0.1663,0.0115,0.0439,0.0030,-41.2125,3.3188,8.7188,
5.487881,-0.1344,0.2741,0.1663,0.0115,0.0439,0.0030,-40.8375,3.6000,8.7188,
5.491196,-0.1344,0.2741,0.1663,0.0115,0.0439,0.0030,-40.8375,3.6000,8.7188,
5.502760,-0.1344,0.2741,0.1663,0.0140,0.0353,0.0005,-40.8375,3.6000,8.7188,
5.504031,-0.0993,0.2697,0.1810,0.0140,0.0353,0.0005,-40.8375,3.6000,8.7188,
5.522127,-0.1433,0.2727,0.0494,0.0140,0.0353,0.0005,-40.8375,3.6000,8.7188,
5.540787,-0.1577,0.2772,0.1070,0.0140,0.0353,0.0005,-40.8375,3.6000,8.7188,
5.548743,-0.1577,0.2772,0.1070,0.0140,0.0353,0.0005,-41.2313,3.4313,8.4000,
5.551373,-0.1577,0.2772,0.1070,0.0140,0.0353,0.0005,-41.2313,3.4313,8.4000,
5.559930,-0.1271,0.2742,0.0784,0.0140,0.0353,0.0005,-41.2313,3.4313,8.4000,
5.563689,-0.1271,0.2742,0.0784,0.0091,0.0231,-0.0019,-41.2313,3.4313,8.4000,
5.579160,-0.1486,0.2625,0.0498,0.0091,0.0231,-0.0019,-41.2313,3.4313,8.4000,
5.598428,-0.1643,0.2419,0.1121,0.0091,0.0231,-0.0019,-41.2313,3.4313,8.4000,
5.608015,-0.1643,0.2419,0.1121,0.0091,0.0231,-0.0019,-41.3250,3.4500,8.3063,
5.611766,-0.1643,0.2419,0.1121,0.0091,0.0231,-0.0019,-41.3250,3.4500,8.3063,
5.616807,-0.1028,0.2471,0.1695,0.0091,0.0231,-0.0019,-41.3250,3.4500,8.3063,
5.627370,-0.1028,0.2471,0.1695,0.0066,0.0085,-0.0019,-41.3250,3.4500,8.3063,
5.637266,-0.0958,0.2306,0.1503,0.0066,0.0085,-0.0019,-41.3250,3.4500,8.3063,
5.655795,-0.1266,0.2331,0.0234,0.0066,0.0085,-0.0019,-41.3250,3.4500,8.3063,
5.667868,-0.1266,0.2331,0.0234,0.0066,0.0085,-0.0019,-40.8375,3.5625,7.5750,
5.674698,-0.1266,0.2331,0.0234,0.0066,0.0085,-0.0019,-40.8375,3.5625,7.5750,
5.677732,-0.1441,0.2290,0.0113,0.0066,0.0085,-0.0019,-40.8375,3.5625,7.5750,
5.688372,-0.1441,0.2290,0.0113,0.0103,-0.0099,-0.0032,-40.8375,3.5625,7.5750,
5.694342,-0.1526,0.1971,0.1500,0.0103,-0.0099,-0.0032,-40.8375,3.5625,7.5750,
5.713920,-0.1326,0.2129,0.1641,0.0103,-0.0099,-0.0032,-40.8375,3.5625,7.5750,
5.727932,-0.1326,0.2129,0.1641,0.0103,-0.0099,-0.0032,-41.3438,4.0312,8.3063,
5.731902,-0.0911,0.1761,0.1328,0.0103,-0.0099,-0.0032,-41.3438,4.0312,8.3063,
5.736599,-0.0911,0.1761,0.1328,0.0103,-0.0099,-0.0032,-41.3438,4.0312,8.3063,
5.750547,-0.0911,0.1761,0.1328,0.0286,-0.0184,-0.0019,-41.3438,4.0312,8.3063,
5.751954,-0.1246,0.1876,0.0415,0.0286,-0.0184,-0.0019,-41.3438,4.0312,8.3063,
5.770714,-0.1147,0.1998,0.0365,0.0286,-0.0184,-0.0019,-41.3438,4.0312,8.3063,
5.787375,-0.1147,0.1998,0.0365,0.0286,-0.0184,-0.0019,-40.7438,3.7313,8.0813,
5.790783,-0.1413,0.2122,0.0073,0.0286,-0.0184,-0.0019,-40.7438,3.7313,8.0813,
5.798187,-0.1413,0.2122,0.0073,0.0286,-0.0184,-0.0019,-40.7438,3.7313,8.0813,
5.808427,-0.1161,0.1726,0.0763,0.0286,-0.0184,-0.0019,-40.7438,3.7313,8.0813,
5.812688,-0.1161,0.1726,0.0763,0.0286,-0.0417,-0.0019,-40.7438,3.7313,8.0813,
5.827326,-0.1098,0.1660,0.0924,0.0286,-0.0417,-0.0019,-40.7438,3.7313,8.0813,
5.846638,-0.1016,0.1821,0.1990,0.0286,-0.0417,-0.0019,-40.7438,3.7313,8.0813,
5.849864,-0.1016,0.1821,0.1990,0.0286,-0.0417,-0.0019,-39.7500,3.6938,6.6000,
5.860644,-0.1016,0.1821,0.1990,0.0286,-0.0417,-0.0019,-39.7500,3.6938,6.6000,
5.865772,-0.0838,0.1788,0.0591,0.0286,-0.0417,-0.0019,-39.7500,3.6938,6.6000,
5.875136,-0.0838,0.1788,0.0591,0.0384,-0.0612,0.0005,-39.7500,3.6938,6.6000,
5.884587,-0.0801,0.1612,-0.0476,0.0384,-0.0612,0.0005,-39.7500,3.6938,6.6000,
5.905013,-0.1087,0.1522,0.0202,0.0384,-0.0612,0.0005,-39.7500,3.6938,6.6000,
5.908556,-0.1087,0.1522,0.0202,0.0384,-0.0612,0.0005,-41.0250,3.3188,8.5125,
5.922636,-0.1087,0.1522,0.0202,0.0384,-0.0612,0.0005,-41.0250,3.3188,8.5125,
5.924015,-0.0851,0.1243,0.1357,0.0384,-0.0612,0.0005,-41.0250,3.3188,8.5125,
5.937472,-0.0851,0.1243,0.1357,0.0543,-0.0978,0.0005,-41.0250,3.3188,8.5125,
5.942240,-0.0581,0.2452,0.1697,0.0543,-0.0978,0.0005,-41.0250,3.3188,8.5125,
5.961795,-0.0547,0.1755,0.1148,0.0543,-0.0978,0.0005,-41.0250,3.3188,8.5125,
5.967579,-0.0547,0.1755,0.1148,0.0543,-0.0978,0.0005,-41.0625,4.0875,8.9250,
5.980854,0.0901,0.2306,0.6962,0.0543,-0.0978,0.0005,-41.0625,4.0875,8.9250,
5.985460,0.0901,0.2306,0.6962,0.0543,-0.0978,0.0005,-41.0625,4.0875,8.9250,
5.999599,0.0901,0.2306,0.6962,0.1728,-0.2810,-0.0092,-41.0625,4.0875,8.9250,
6.002965,-0.0016,0.3139,-0.3258,0.1728,-0.2810,-0.0092,-41.0625,4.0875,8.9250,
6.018999,0.0421,0.0657,-0.6545,0.1728,-0.2810,-0.0092,-41.0625,4.0875,8.9250,
6.028105,0.0421,0.0657,-0.6545,0.1728,-0.2810,-0.0092,-40.8375,3.4875,9.0188,
6.038951,0.0312,-0.2865,-0.2470,0.1728,-0.2810,-0.0092,-40.8375,3.4875,9.0188,
6.047427,0.0312,-0.2865,-0.2470,0.1728,-0.2810,-0.0092,-40.8375,3.4875,9.0188,
6.057862,0.4087,-0.6800,0.2264,0.1728,-0.2810,-0.0092,-40.8375,3.4875,9.0188,
6.061449,0.4087,-0.6800,0.2264,0.5247,-0.4289,0.0763,-40.8375,3.4875,9.0188,
6.077223,0.6744,-0.5369,0.4202,0.5247,-0.4289,0.0763,-40.8375,3.4875,9.0188,
6.087281,0.6744,-0.5369,0.4202,0.5247,-0.4289,0.0763,-40.7812,4.2188,10.0688,
6.095919,1.1462,-0.6819,-0.0825,0.5247,-0.4289,0.0763,-40.7812,4.2188,10.0688,
6.109490,1.1462,-0.6819,-0.0825,0.5247,-0.4289,0.0763,-40.7812,4.2188,10.0688,
6.116758,-0.7004,2.0240,-0.5619,0.5247,-0.4289,0.0763,-40.7812,4.2188,10.0688,
6.123905,-0.7004,2.0240,-0.5619,1.0134,-0.6684,0.2962,-40.7812,4.2188,10.0688,
6.133468,-0.6049,1.0018,-0.2395,1.0134,-0.6684,0.2962,-40.7812,4.2188,10.0688,
6.148975,-0.6049,1.0018,-0.2395,1.0134,-0.6684,0.2962,-40.0875,5.5875,11.6063,
6.153264,-0.0232,-0.0558,0.1885,1.0134,-0.6684,0.2962,-40.0875,5.5875,11.6063,
6.171773,-0.0232,-0.0558,0.1885,1.0134,-0.6684,0.2962,-40.0875,5.5875,11.6063,
6.174968,-0.3749,1.2458,-0.0218,1.0134,-0.6684,0.2962,-40.0875,5.5875,11.6063,
6.186513,-0.3749,1.2458,-0.0218,0.8496,-0.2578,0.0408,-40.0875,5.5875,11.6063,
6.193427,0.4464,0.3505,-0.8757,0.8496,-0.2578,0.0408,-40.0875,5.5875,11.6063,
6.206786,0.4464,0.3505,-0.8757,0.8496,-0.2578,0.0408,-39.6188,5.9813,11.4938,
6.210050,0.6592,-0.1116,-0.4882,0.8496,-0.2578,0.0408,-39.6188,5.9813,11.4938,
6.229581,0.5567,-0.7897,-0.3326,0.8496,-0.2578,0.0408,-39.6188,5.9813,11.4938,
6.233553,0.5567,-0.7897,-0.3326,0.8496,-0.2578,0.0408,-39.6188,5.9813,11.4938,
6.247968,0.5567,-0.7897,-0.3326,1.0659,-0.3433,-0.1754,-39.6188,5.9813,11.4938,
6.251635,-0.5292,-0.4068,-0.0045,1.0659,-0.3433,-0.1754,-39.6188,5.9813,11.4938,
6.267098,-1.2659,-0.2545,0.3022,1.0659,-0.3433,-0.1754,-39.6188,5.9813,11.4938,
6.268848,-1.2659,-0.2545,0.3022,1.0659,-0.3433,-0.1754,-39.5250,6.1500,11.9062,
6.287296,-1.0658,0.1480,0.4311,1.0659,-0.3433,-0.1754,-39.5250,6.1500,11.9062,
6.295235,-1.0658,0.1480,0.4311,1.0659,-0.3433,-0.1754,-39.5250,6.1500,11.9062,
6.306753,-1.3731,0.6855,0.9925,1.0659,-0.3433,-0.1754,-39.5250,6.1500,11.9062,
6.310166,-1.3731,0.6855,0.9925,0.6933,-0.5914,-0.6237,-39.5250,6.1500,11.9062,
6.324978,-0.6886,0.7150,-0.1467,0.6933,-0.5914,-0.6237,-39.5250,6.1500,11.9062,
6.326668,-0.6886,0.7150,-0.1467,0.6933,-0.5914,-0.6237,-37.9313,5.6813,10.7250,
6.344439,-0.1596,0.4910,-0.8105,0.6933,-0.5914,-0.6237,-37.9313,5.6813,10.7250,
6.361193,-0.1596,0.4910,-0.8105,0.6933,-0.5914,-0.6237,-37.9313,5.6813,10.7250,
6.364047,0.0241,0.4167,-0.7109,0.6933,-0.5914,-0.6237,-37.9313,5.6813,10.7250,
6.372242,0.0241,0.4167,-0.7109,0.4587,-0.7990,-0.3978,-37.9313,5.6813,10.7250,
6.381573,0.4126,0.3333,-0.7642,0.4587,-0.7990,-0.3978,-37.9313,5.6813,10.7250,
6.387512,0.4126,0.3333,-0.7642,0.4587,-0.7990,-0.3978,-39.0938,4.4062,14.4750,
6.403134,0.9931,0.1666,-0.0811,0.4587,-0.7990,-0.3978,-39.0938,4.4062,14.4750,
6.420677,0.9931,0.1666,-0.0811,0.4587,-0.7990,-0.3978,-39.0938,4.4062,14.4750,
6.423999,0.6428,0.3723,0.7252,0.4587,-0.7990,-0.3978,-39.0938,4.4062,14.4750,
6.434507,0.6428,0.3723,0.7252,0.2607,-0.1150,0.0286,-39.0938,4.4062,14.4750,
6.439713,0.1317,-0.0263,-0.1828,0.2607,-0.1150,0.0286,-39.0938,4.4062,14.4750,
6.449147,0.1317,-0.0263,-0.1828,0.2607,-0.1150,0.0286,-39.6938,4.7625,15.4313,
6.460631,0.0993,-0.2413,-0.4055,0.2607,-0.1150,0.0286,-39.6938,4.7625,15.4313,
6.478196,-0.3936,-0.2253,-0.1141,0.2607,-0.1150,0.0286,-39.6938,4.7625,15.4313,
6.482079,-0.3936,-0.2253,-0.1141,0.2607,-0.1150,0.0286,-39.6938,4.7625,15.4313,
6.496878,-0.3936,-0.2253,-0.1141,0.1459,-0.2518,-0.1350,-39.6938,4.7625,15.4313,
6.500097,-0.3733,-0.2828,-0.5203,0.1459,-0.2518,-0.1350,-39.6938,4.7625,15.4313,
6.507325,-0.3733,-0.2828,-0.5203,0.1459,-0.2518,-0.1350,-39.0188,4.7625,15.2063,
6.516759,-0.1498,-0.4720,-0.8542,0.1459,-0.2518,-0.1350,-39.0188,4.7625,15.2063,
6.535428,0.2166,-0.4867,-1.2764,0.1459,-0.2518,-0.1350,-39.0188,4.7625,15.2063,
6.544979,0.2166,-0.4867,-1.2764,0.1459,-0.2518,-0.1350,-39.0188,4.7625,15.2063,
6.554444,1.0324,-0.5361,-1.6631,0.1459,-0.2518,-0.1350,-39.0188,4.7625,15.2063,
6.560599,1.0324,-0.5361,-1.6631,-0.0472,0.1722,-0.1314,-39.0188,4.7625,15.2063,
6.568396,1.0324,-0.5361,-1.6631,-0.0472,0.1722,-0.1314,-39.3750,3.8813,15.3188,
6.572984,1.2198,-0.3991,-1.5181,-0.0472,0.1722,-0.1314,-39.3750,3.8813,15.3188,
6.593111,0.4140,0.0110,-1.8242,-0.0472,0.1722,-0.1314,-39.3750,3.8813,15.3188,
6.607329,0.4140,0.0110,-1.8242,-0.0472,0.1722,-0.1314,-39.3750,3.8813,15.3188,
6.611708,0.2357,-0.1407,-1.9636,-0.0472,0.1722,-0.1314,-39.3750,3.8813,15.3188,
6.620891,0.2357,-0.1407,-1.9636,0.0886,0.6793,-0.0912,-39.3750,3.8813,15.3188,
6.627303,0.2357,-0.1407,-1.9636,0.0886,0.6793,-0.0912,-39.0563,3.6750,15.0000,
6.630544,0.1538,-0.4535,-1.7557,0.0886,0.6793,-0.0912,-39.0563,3.6750,15.0000,
6.650252,0.2164,-0.2011,-1.2869,0.0886,0.6793,-0.0912,-39.0563,3.6750,15.0000,
6.669279,0.2164,-0.2011,-1.2869,0.0886,0.6793,-0.0912,-39.0563,3.6750,15.0000,
6.671898,-0.4399,0.2995,-1.1311,0.0886,0.6793,-0.0912,-39.0563,3.6750,15.0000,
6.683829,-0.4399,0.2995,-1.1311,0.0848,0.4153,-0.1815,-39.0563,3.6750,15.0000,
6.688274,-0.4399,0.2995,-1.1311,0.0848,0.4153,-0.1815,-40.5000,3.5250,13.2750,
6.690717,-1.7998,0.4827,-0.3379,0.0848,0.4153,-0.1815,-40.5000,3.5250,13.2750,
6.713465,-1.9364,0.2664,-0.6978,0.0848,0.4153,-0.1815,-40.5000,3.5250,13.2750,
6.727101,-2.0540,0.6802,-1.7911,0.0848,0.4153,-0.1815,-40.5000,3.5250,13.2750,
6.731284,-2.0540,0.6802,-1.7911,0.0848,0.4153,-0.1815,-40.5000,3.5250,13.2750,
6.744920,-2.0540,0.6802,-1.7911,0.1239,0.2956,-0.1253,-40.5000,3.5250,13.2750,
6.746617,0.0183,1.1414,-2.8491,0.1239,0.2956,-0.1253,-40.5000,3.5250,13.2750,
6.747550,0.0183,1.1414,-2.8491,0.1239,0.2956,-0.1253,-40.9125,4.0500,13.0875,
6.764567,0.8368,2.1634,-1.5440,0.1239,0.2956,-0.1253,-40.9125,4.0500,13.0875,
6.783999,0.1246,1.5644,-0.9353,0.1239,0.2956,-0.1253,-40.9125,4.0500,13.0875,
6.794693,0.1246,1.5644,-0.9353,0.1239,0.2956,-0.1253,-40.9125,4.0500,13.0875,
6.802954,-0.6519,0.8973,-2.0817,0.1239,0.2956,-0.1253,-40.9125,4.0500,13.0875,
6.807316,-0.6519,0.8973,-2.0817,-0.0802,-0.0855,-0.0154,-40.9125,4.0500,13.0875,
6.808395,-0.6519,0.8973,-2.0817,-0.0802,-0.0855,-0.0154,-39.3188,3.6750,11.6813,
6.821795,-0.8048,0.6956,-1.6739,-0.0802,-0.0855,-0.0154,-39.3188,3.6750,11.6813,
6.841179,-0.4151,0.0581,-0.6027,-0.0802,-0.0855,-0.0154,-39.3188,3.6750,11.6813,
6.855273,-0.4151,0.0581,-0.6027,-0.0802,-0.0855,-0.0154,-39.3188,3.6750,11.6813,
6.860859,0.0061,-0.8802,-0.9175,-0.0802,-0.0855,-0.0154,-39.3188,3.6750,11.6813,
6.867165,0.0061,-0.8802,-0.9175,-0.0802,-0.0855,-0.0154,-40.9125,4.0125,13.5938,
6.870644,0.0061,-0.8802,-0.9175,-0.0557,-0.2188,-0.0484,-40.9125,4.0125,13.5938,
6.879990,0.1492,-0.7274,-0.8546,-0.0557,-0.2188,-0.0484,-40.9125,4.0125,13.5938,
6.898877,0.2085,-0.4680,-0.8926,-0.0557,-0.2188,-0.0484,-40.9125,4.0125,13.5938,
6.917875,0.2085,-0.4680,-0.8926,-0.0557,-0.2188,-0.0484,-40.9125,4.0125,13.5938,
6.921147,0.0582,-0.1935,-1.0556,-0.0557,-0.2188,-0.0484,-40.9125,4.0125,13.5938,
6.927458,0.0582,-0.1935,-1.0556,-0.0557,-0.2188,-0.0484,-41.3063,3.9938,14.2313,
6.931178,0.0582,-0.1935,-1.0556,0.0738,-0.1980,-0.2414,-41.3063,3.9938,14.2313,
6.936357,0.0181,0.4798,-0.2456,0.0738,-0.1980,-0.2414,-41.3063,3.9938,14.2313,
6.956430,-0.1411,1.0141,-0.3461,0.0738,-0.1980,-0.2414,-41.3063,3.9938,14.2313,
6.976022,0.0652,1.0513,-0.5015,0.0738,-0.1980,-0.2414,-41.3063,3.9938,14.2313,
6.979531,0.0652,1.0513,-0.5015,0.0738,-0.1980,-0.2414,-41.3063,3.9938,14.2313,
6.986891,0.0652,1.0513,-0.5015,0.0738,-0.1980,-0.2414,-40.7250,3.8438,14.8313,
6.994339,0.0652,1.0513,-0.5015,-0.1338,-0.2883,-0.0594,-40.7250,3.8438,14.8313,
6.997273,0.7325,1.0078,0.2526,-0.1338,-0.2883,-0.0594,-40.7250,3.8438,14.8313,
7.013725,1.2792,0.8083,0.2519,-0.1338,-0.2883,-0.0594,-40.7250,3.8438,14.8313,
7.033174,1.0188,0.5814,0.5381,-0.1338,-0.2883,-0.0594,-40.7250,3.8438,14.8313,
7.041813,1.0188,0.5814,0.5381,-0.1338,-0.2883,-0.0594,-40.7250,3.8438,14.8313,
7.048327,1.0188,0.5814,0.5381,-0.1338,-0.2883,-0.0594,-41.2313,3.8813,16.3125,
7.051067,0.6414,0.7936,0.4553,-0.1338,-0.2883,-0.0594,-41.2313,3.8813,16.3125,
7.057292,0.6414,0.7936,0.4553,-0.2340,-0.1907,-0.0154,-41.2313,3.8813,16.3125,
7.071299,0.5668,0.7242,0.4388,-0.2340,-0.1907,-0.0154,-41.2313,3.8813,16.3125,
7.090751,0.8683,0.7657,0.6605,-0.2340,-0.1907,-0.0154,-41.2313,3.8813,16.3125,
7.105653,0.8683,0.7657,0.6605,-0.2340,-0.1907,-0.0154,-41.2313,3.8813,16.3125,
7.108443,0.8683,0.7657,0.6605,-0.2340,-0.1907,-0.0154,-41.1375,3.9563,16.5188,
7.111055,1.1495,0.7289,0.2031,-0.2340,-0.1907,-0.0154,-41.1375,3.9563,16.5188,
7.118823,1.1495,0.7289,0.2031,-0.4418,0.2124,0.0236,-41.1375,3.9563,16.5188,
7.127375,1.3383,0.5392,0.9031,-0.4418,0.2124,0.0236,-41.1375,3.9563,16.5188,
7.147020,0.8605,0.1058,0.8012,-0.4418,0.2124,0.0236,-41.1375,3.9563,16.5188,
7.166455,0.8605,0.1058,0.8012,-0.4418,0.2124,0.0236,-41.1375,3.9563,16.5188,
7.169857,0.3796,0.4665,-0.2519,-0.4418,0.2124,0.0236,-41.1375,3.9563,16.5188,
7.172355,0.3796,0.4665,-0.2519,-0.4418,0.2124,0.0236,-41.2125,3.6188,15.6750,
7.182500,0.3796,0.4665,-0.2519,-0.2475,0.4227,-0.1510,-41.2125,3.6188,15.6750,
7.185589,-0.4303,0.3506,-1.0133,-0.2475,0.4227,-0.1510,-41.2125,3.6188,15.6750,
7.205164,-0.4123,0.2540,-1.0743,-0.2475,0.4227,-0.1510,-41.2125,3.6188,15.6750,
7.224303,-0.6043,0.7105,0.2137,-0.2475,0.4227,-0.1510,-41.2125,3.6188,15.6750,
7.227622,-0.6043,0.7105,0.2137,-0.2475,0.4227,-0.1510,-42.3563,3.2813,15.0938,
7.230267,-0.6043,0.7105,0.2137,-0.2475,0.4227,-0.1510,-42.3563,3.2813,15.0938,
7.242639,-0.6043,0.7105,0.2137,0.0971,0.6718,-0.0509,-42.3563,3.2813,15.0938,
7.244331,-0.6629,0.6325,2.0144,0.0971,0.6718,-0.0509,-42.3563,3.2813,15.0938,
7.262456,-0.4970,0.3304,1.5579,0.0971,0.6718,-0.0509,-42.3563,3.2813,15.0938,
7.281890,-0.0315,0.2950,1.0224,0.0971,0.6718,-0.0509,-42.3563,3.2813,15.0938,
7.287491,-0.0315,0.2950,1.0224,0.0971,0.6718,-0.0509,-42.7500,3.5813,13.5375,
7.291218,-0.0315,0.2950,1.0224,0.0971,0.6718,-0.0509,-42.7500,3.5813,13.5375,
7.300807,0.0274,0.7328,1.9905,0.0971,0.6718,-0.0509,-42.7500,3.5813,13.5375,
7.304538,0.0274,0.7328,1.9905,-0.1167,0.8856,-0.0472,-42.7500,3.5813,13.5375,
7.319284,-0.5931,0.5944,2.1035,-0.1167,0.8856,-0.0472,-42.7500,3.5813,13.5375,
7.338100,-1.4119,-0.2109,1.9017,-0.1167,0.8856,-0.0472,-42.7500,3.5813,13.5375,
7.348528,-1.4119,-0.2109,1.9017,-0.1167,0.8856,-0.0472,-43.2000,3.4125,11.5875,
7.352556,-1.4119,-0.2109,1.9017,-0.1167,0.8856,-0.0472,-43.2000,3.4125,11.5875,
7.358050,-1.4308,-1.3496,1.5306,-0.1167,0.8856,-0.0472,-43.2000,3.4125,11.5875,
7.365930,-1.4308,-1.3496,1.5306,-0.5358,0.8429,0.0346,-43.2000,3.4125,11.5875,
7.376528,-0.5388,-1.8973,0.3072,-0.5358,0.8429,0.0346,-43.2000,3.4125,11.5875,
7.396021,-0.2920,-1.1834,0.0050,-0.5358,0.8429,0.0346,-43.2000,3.4125,11.5875,
7.406633,-0.2920,-1.1834,0.0050,-0.5358,0.8429,0.0346,-43.5750,3.5813,8.8875,
7.415771,-0.2920,-1.1834,0.0050,-0.5358,0.8429,0.0346,-43.5750,3.5813,8.8875,
7.417226,-1.2241,0.2923,0.3571,-0.5358,0.8429,0.0346,-43.5750,3.5813,8.8875,
7.428412,-1.2241,0.2923,0.3571,-0.5664,0.6047,0.2399,-43.5750,3.5813,8.8875,
7.433652,-1.0747,0.7640,0.5858,-0.5664,0.6047,0.2399,-43.5750,3.5813,8.8875,
7.453695,0.2414,-0.3379,0.0839,-0.5664,0.6047,0.2399,-43.5750,3.5813,8.8875,
7.468490,0.2414,-0.3379,0.0839,-0.5664,0.6047,0.2399,-43.6688,4.0500,7.7625,
7.472823,1.5099,-0.6528,0.4417,-0.5664,0.6047,0.2399,-43.6688,4.0500,7.7625,
7.476841,1.5099,-0.6528,0.4417,-0.5664,0.6047,0.2399,-43.6688,4.0500,7.7625,
7.491605,1.5099,-0.6528,0.4417,-0.5151,0.7793,0.2069,-43.6688,4.0500,7.7625,
7.495062,1.4297,0.0298,1.6652,-0.5151,0.7793,0.2069,-43.6688,4.0500,7.7625,
7.511110,-0.8887,0.7203,1.6585,-0.5151,0.7793,0.2069,-43.6688,4.0500,7.7625,
7.526648,-0.8887,0.7203,1.6585,-0.5151,0.7793,0.2069,-43.9875,4.8188,6.6375,
7.529444,-1.2794,-0.1440,1.1650,-0.5151,0.7793,0.2069,-43.9875,4.8188,6.6375,
7.539258,-1.2794,-0.1440,1.1650,-0.5151,0.7793,0.2069,-43.9875,4.8188,6.6375,
7.548387,-0.3224,-1.6886,1.3026,-0.5151,0.7793,0.2069,-43.9875,4.8188,6.6375,
7.552428,-0.3224,-1.6886,1.3026,-0.7545,0.5448,0.4440,-43.9875,4.8188,6.6375,
7.569531,0.5229,-2.2826,1.1426,-0.7545,0.5448,0.4440,-43.9875,4.8188,6.6375,
7.587661,0.3999,-2.0737,0.9956,-0.7545,0.5448,0.4440,-43.9875,4.8188,6.6375,
7.591247,0.3999,-2.0737,0.9956,-0.7545,0.5448,0.4440,-43.1438,5.6625,6.8250,
7.601193,0.3999,-2.0737,0.9956,-0.7545,0.5448,0.4440,-43.1438,5.6625,6.8250,
7.606046,-0.0871,-1.7617,0.6003,-0.7545,0.5448,0.4440,-43.1438,5.6625,6.8250,
7.615384,-0.0871,-1.7617,0.6003,-0.2439,-0.0500,0.3161,-43.1438,5.6625,6.8250,
7.627598,0.1819,-1.6623,-0.8632,-0.2439,-0.0500,0.3161,-43.1438,5.6625,6.8250,
7.644575,0.7497,-1.1354,-0.8236,-0.2439,-0.0500,0.3161,-43.1438,5.6625,6.8250,
7.646406,0.7497,-1.1354,-0.8236,-0.2439,-0.0500,0.3161,-44.0625,6.6188,6.3375,
7.663331,0.7497,-1.1354,-0.8236,-0.2439,-0.0500,0.3161,-44.0625,6.6188,6.3375,
7.664886,1.3284,-0.6476,-0.2177,-0.2439,-0.0500,0.3161,-44.0625,6.6188,6.3375,
7.677202,1.3284,-0.6476,-0.2177,-0.1756,0.1088,0.2501,-44.0625,6.6188,6.3375,
7.683317,1.4446,-0.5549,0.8048,-0.1756,0.1088,0.2501,-44.0625,6.6188,6.3375,
7.704975,1.1757,-0.1664,1.0324,-0.1756,0.1088,0.2501,-44.0625,6.6188,6.3375,
7.708813,1.1757,-0.1664,1.0324,-0.1756,0.1088,0.2501,-43.4062,7.5000,6.2250,
7.721271,1.4030,-0.4575,0.4664,-0.1756,0.1088,0.2501,-43.4062,7.5000,6.2250,
7.726386,1.4030,-0.4575,0.4664,-0.1756,0.1088,0.2501,-43.4062,7.5000,6.2250,
7.740570,1.4030,-0.4575,0.4664,-0.0826,0.1015,0.3637,-43.4062,7.5000,6.2250,
7.743628,1.3010,-0.4726,0.0374,-0.0826,0.1015,0.3637,-43.4062,7.5000,6.2250,
7.759592,0.8795,-0.3733,0.6059,-0.0826,0.1015,0.3637,-43.4062,7.5000,6.2250,
7.767812,0.8795,-0.3733,0.6059,-0.0826,0.1015,0.3637,-43.3313,8.1188,5.5875,
7.778893,0.3298,-0.0624,0.5490,-0.0826,0.1015,0.3637,-43.3313,8.1188,5.5875,
7.787976,0.3298,-0.0624,0.5490,-0.0826,0.1015,0.3637,-43.3313,8.1188,5.5875,
7.797743,-0.0017,-0.2120,0.8294,-0.0826,0.1015,0.3637,-43.3313,8.1188,5.5875,
7.801785,-0.0017,-0.2120,0.8294,-0.1034,0.0880,0.1891,-43.3313,8.1188,5.5875,
7.815902,-0.1668,-0.3629,0.6192,-0.1034,0.0880,0.1891,-43.3313,8.1188,5.5875,
7.827112,-0.1668,-0.3629,0.6192,-0.1034,0.0880,0.1891,-43.0875,8.9625,6.3188,
7.836491,0.0257,-0.1103,0.5431,-0.1034,0.0880,0.1891,-43.0875,8.9625,6.3188,
7.850322,0.0257,-0.1103,0.5431,-0.1034,0.0880,0.1891,-43.0875,8.9625,6.3188,
7.855381,0.5904,0.2721,0.4728,-0.1034,0.0880,0.1891,-43.0875,8.9625,6.3188,
7.864542,0.5904,0.2721,0.4728,-0.0301,-0.2248,0.1743,-43.0875,8.9625,6.3188,
7.873818,1.0488,0.8487,0.4870,-0.0301,-0.2248,0.1743,-43.0875,8.9625,6.3188,
7.888480,1.0488,0.8487,0.4870,-0.0301,-0.2248,0.1743,-43.5938,9.6000,5.9250,
7.895003,0.9880,1.0106,0.5212,-0.0301,-0.2248,0.1743,-43.5938,9.6000,5.9250,
7.911703,0.9880,1.0106,0.5212,-0.0301,-0.2248,0.1743,-43.5938,9.6000,5.9250,
7.913439,0.6181,1.0728,0.6039,-0.0301,-0.2248,0.1743,-43.5938,9.6000,5.9250,
7.925750,0.6181,1.0728,0.6039,-0.2194,-0.1320,0.1915,-43.5938,9.6000,5.9250,
7.931053,0.6855,0.5497,0.6203,-0.2194,-0.1320,0.1915,-43.5938,9.6000,5.9250,
7.946421,0.6855,0.5497,0.6203,-0.2194,-0.1320,0.1915,-42.9375,9.8063,6.9375,
7.950653,0.6660,0.4886,0.4623,-0.2194,-0.1320,0.1915,-42.9375,9.8063,6.9375,
7.969104,0.8463,0.1119,0.2779,-0.2194,-0.1320,0.1915,-42.9375,9.8063,6.9375,
7.973855,0.8463,0.1119,0.2779,-0.2194,-0.1320,0.1915,-42.9375,9.8063,6.9375,
7.987052,0.8463,0.1119,0.2779,-0.3355,-0.0562,0.1561,-42.9375,9.8063,6.9375,
7.988321,0.5153,0.1091,0.2244,-0.3355,-0.0562,0.1561,-42.9375,9.8063,6.9375,
8.006853,-0.0376,0.0058,0.5549,-0.3355,-0.0562,0.1561,-42.9375,9.8063,6.9375,
8.007978,-0.0376,0.0058,0.5549,-0.3355,-0.0562,0.1561,-42.9563,10.3875,7.2563,
8.025324,-0.0894,-0.0292,0.4788,-0.3355,-0.0562,0.1561,-42.9563,10.3875,7.2563,
8.034491,-0.0894,-0.0292,0.4788,-0.3355,-0.0562,0.1561,-42.9563,10.3875,7.2563,
8.045312,0.1649,0.3085,0.0088,-0.3355,-0.0562,0.1561,-42.9563,10.3875,7.2563,
8.049813,0.1649,0.3085,0.0088,-0.0448,-0.4740,0.0974,-42.9563,10.3875,7.2563,
8.064110,0.2650,0.3529,0.5563,-0.0448,-0.4740,0.0974,-42.9563,10.3875,7.2563,
8.066155,0.2650,0.3529,0.5563,-0.0448,-0.4740,0.0974,-42.6000,10.8000,8.6063,
8.084624,0.4302,0.5615,0.7871,-0.0448,-0.4740,0.0974,-42.6000,10.8000,8.6063,
8.097246,0.4302,0.5615,0.7871,-0.0448,-0.4740,0.0974,-42.6000,10.8000,8.6063,
8.104658,-0.1934,0.7953,0.0088,-0.0448,-0.4740,0.0974,-42.6000,10.8000,8.6063,
8.111545,-0.1934,0.7953,0.0088,-0.1547,-0.4606,0.0546,-42.6000,10.8000,8.6063,
8.121486,0.1568,0.2350,0.2256,-0.1547,-0.4606,0.0546,-42.6000,10.8000,8.6063,
8.128522,0.1568,0.2350,0.2256,-0.1547,-0.4606,0.0546,-42.6000,10.1063,10.1625,
8.140313,-0.1015,-0.0154,0.2851,-0.1547,-0.4606,0.0546,-42.6000,10.1063,10.1625,
8.159149,-0.1015,-0.0154,0.2851,-0.1547,-0.4606,0.0546,-42.6000,10.1063,10.1625,
8.160921,-0.0686,-0.2356,0.0268,-0.1547,-0.4606,0.0546,-42.6000,10.1063,10.1625,
8.173786,-0.0686,-0.2356,0.0268,-0.0961,-0.5034,0.0485,-42.6000,10.1063,10.1625,
8.179531,0.3910,-0.2826,-0.1770,-0.0961,-0.5034,0.0485,-42.6000,10.1063,10.1625,
8.186190,0.3910,-0.2826,-0.1770,-0.0961,-0.5034,0.0485,-41.1562,10.6500,10.3313,
8.199359,0.8932,-0.4351,-0.5790,-0.0961,-0.5034,0.0485,-41.1562,10.6500,10.3313,
8.218169,1.1564,-0.7431,-0.1549,-0.0961,-0.5034,0.0485,-41.1562,10.6500,10.3313,
8.221979,1.1564,-0.7431,-0.1549,-0.0961,-0.5034,0.0485,-41.1562,10.6500,10.3313,
8.235931,1.1564,-0.7431,-0.1549,0.1360,-0.5094,-0.1628,-41.1562,10.6500,10.3313,
8.237766,1.0601,-0.9677,0.1452,0.1360,-0.5094,-0.1628,-41.1562,10.6500,10.3313,
8.247072,1.0601,-0.9677,0.1452,0.1360,-0.5094,-0.1628,-42.1688,10.6125,13.3688,
8.256105,0.4922,-0.8176,-0.0820,0.1360,-0.5094,-0.1628,-42.1688,10.6125,13.3688,
8.274845,0.7552,-1.4879,-0.1098,0.1360,-0.5094,-0.1628,-42.1688,10.6125,13.3688,
8.284931,0.7552,-1.4879,-0.1098,0.1360,-0.5094,-0.1628,-42.1688,10.6125,13.3688,
8.294031,0.5852,-1.6022,-0.1668,0.1360,-0.5094,-0.1628,-42.1688,10.6125,13.3688,
8.297816,0.5852,-1.6022,-0.1668,0.3926,-0.3653,-0.3204,-42.1688,10.6125,13.3688,
8.309561,0.5852,-1.6022,-0.1668,0.3926,-0.3653,-0.3204,-42.2438,9.8438,14.6063,
8.312962,0.6645,-1.6212,0.0726,0.3926,-0.3653,-0.3204,-42.2438,9.8438,14.6063,
8.332890,0.7748,-1.6303,0.0575,0.3926,-0.3653,-0.3204,-42.2438,9.8438,14.6063,
8.345466,0.7748,-1.6303,0.0575,0.3926,-0.3653,-0.3204,-42.2438,9.8438,14.6063,
8.351611,0.7812,-1.4866,0.0211,0.3926,-0.3653,-0.3204,-42.2438,9.8438,14.6063,
8.361191,0.7812,-1.4866,0.0211,0.8935,-0.1148,-0.3399,-42.2438,9.8438,14.6063,
8.366179,0.7812,-1.4866,0.0211,0.8935,-0.1148,-0.3399,-42.0563,9.9188,15.0188,
8.370742,0.5365,-1.5258,-0.1106,0.8935,-0.1148,-0.3399,-42.0563,9.9188,15.0188,
8.389653,0.1495,-1.6272,-0.3188,0.8935,-0.1148,-0.3399,-42.0563,9.9188,15.0188,
8.408421,0.1495,-1.6272,-0.3188,0.8935,-0.1148,-0.3399,-42.0563,9.9188,15.0188,
8.411526,0.2324,-1.5573,-0.5462,0.8935,-0.1148,-0.3399,-42.0563,9.9188,15.0188,
8.422429,0.2324,-1.5573,-0.5462,1.2673,-0.1233,-0.2886,-42.0563,9.9188,15.0188,
8.425986,0.2324,-1.5573,-0.5462,1.2673,-0.1233,-0.2886,-41.9438,9.7875,13.8750,
8.427578,0.4065,-1.2222,-0.6203,1.2673,-0.1233,-0.2886,-41.9438,9.7875,13.8750,
8.447734,0.4548,-0.8589,-0.4171,1.2673,-0.1233,-0.2886,-41.9438,9.7875,13.8750,
8.466659,0.1253,-0.5920,-0.0857,1.2673,-0.1233,-0.2886,-41.9438,9.7875,13.8750,
8.470587,0.1253,-0.5920,-0.0857,1.2673,-0.1233,-0.2886,-41.9438,9.7875,13.8750,
8.485042,0.1253,-0.5920,-0.0857,1.3199,-0.1331,-0.3131,-41.9438,9.7875,13.8750,
8.489199,-0.2024,-0.5494,0.1934,1.3199,-0.1331,-0.3131,-41.9438,9.7875,13.8750,
8.491690,-0.2024,-0.5494,0.1934,1.3199,-0.1331,-0.3131,-42.6375,10.5750,12.6563,
8.504422,-0.4434,-0.5216,0.1425,1.3199,-0.1331,-0.3131,-42.6375,10.5750,12.6563,
8.524054,-0.4646,-0.4844,-0.0615,1.3199,-0.1331,-0.3131,-42.6375,10.5750,12.6563,
8.532816,-0.4646,-0.4844,-0.0615,1.3199,-0.1331,-0.3131,-42.6375,10.5750,12.6563,
8.543283,-0.3163,-0.2642,-0.1266,1.3199,-0.1331,-0.3131,-42.6375,10.5750,12.6563,
8.547351,-0.3163,-0.2642,-0.1266,1.3199,-0.1331,-0.3131,-42.4500,10.7438,12.8625,
8.549687,-0.3163,-0.2642,-0.1266,1.4726,-0.1111,-0.2886,-42.4500,10.7438,12.8625,
8.561540,-0.2680,-0.0666,-0.1217,1.4726,-0.1111,-0.2886,-42.4500,10.7438,12.8625,
8.581242,-0.1900,0.0977,0.0266,1.4726,-0.1111,-0.2886,-42.4500,10.7438,12.8625,
8.595181,-0.1900,0.0977,0.0266,1.4726,-0.1111,-0.2886,-42.4500,10.7438,12.8625,
8.600723,-0.1292,0.1922,0.0671,1.4726,-0.1111,-0.2886,-42.4500,10.7438,12.8625,
8.607117,-0.1292,0.1922,0.0671,1.4726,-0.1111,-0.2886,-43.0500,11.1375,11.4188,
8.608282,-0.1292,0.1922,0.0671,1.4189,-0.0733,-0.2936,-43.0500,11.1375,11.4188,
8.619198,-0.2598,0.3741,-0.0298,1.4189,-0.0733,-0.2936,-43.0500,11.1375,11.4188,
8.638733,-0.2903,0.4589,0.0484,1.4189,-0.0733,-0.2936,-43.0500,11.1375,11.4188,
8.657174,-0.2903,0.4589,0.0484,1.4189,-0.0733,-0.2936,-43.0500,11.1375,11.4188,
8.659892,-0.2044,0.6525,-0.0994,1.4189,-0.0733,-0.2936,-43.0500,11.1375,11.4188,
8.668005,-0.2044,0.6525,-0.0994,1.4189,-0.0733,-0.2936,-41.7563,11.4563,8.6813,
8.670936,-0.2044,0.6525,-0.0994,1.2429,-0.0257,-0.1885,-41.7563,11.4563,8.6813,
8.676416,-0.1387,0.6441,-0.1309,1.2429,-0.0257,-0.1885,-41.7563,11.4563,8.6813,
8.696277,-0.2107,0.5433,-0.1412,1.2429,-0.0257,-0.1885,-41.7563,11.4563,8.6813,
8.714491,-0.2631,0.5763,0.0011,1.2429,-0.0257,-0.1885,-41.7563,11.4563,8.6813,
8.718363,-0.2631,0.5763,0.0011,1.2429,-0.0257,-0.1885,-41.7563,11.4563,8.6813,
8.728879,-0.2631,0.5763,0.0011,1.2429,-0.0257,-0.1885,-43.2375,11.9813,8.9438,
8.733395,-0.2631,0.5763,0.0011,1.1329,0.1233,-0.2020,-43.2375,11.9813,8.9438,
8.734619,-0.1367,0.6778,0.1485,1.1329,0.1233,-0.2020,-43.2375,11.9813,8.9438,
8.753011,-0.0612,0.6164,0.1154,1.1329,0.1233,-0.2020,-43.2375,11.9813,8.9438,
8.773003,0.0978,0.1384,-0.1339,1.1329,0.1233,-0.2020,-43.2375,11.9813,8.9438,
8.784902,0.0978,0.1384,-0.1339,1.1329,0.1233,-0.2020,-43.2375,11.9813,8.9438,
8.787992,0.0978,0.1384,-0.1339,1.1329,0.1233,-0.2020,-43.2375,12.0188,8.3250,
8.795467,0.3124,-0.2924,-0.4108,1.1329,0.1233,-0.2020,-43.2375,12.0188,8.3250,
8.796891,0.3124,-0.2924,-0.4108,1.3529,0.1356,-0.2190,-43.2375,12.0188,8.3250,
8.810293,0.5222,-0.1736,-0.4987,1.3529,0.1356,-0.2190,-43.2375,12.0188,8.3250,
8.830590,0.6090,0.2200,-0.2527,1.3529,0.1356,-0.2190,-43.2375,12.0188,8.3250,
8.843847,0.6090,0.2200,-0.2527,1.3529,0.1356,-0.2190,-43.2375,12.0188,8.3250,
8.846982,0.6090,0.2200,-0.2527,1.3529,0.1356,-0.2190,-43.5188,12.3563,6.2625,
8.849641,0.5649,0.1703,0.0629,1.3529,0.1356,-0.2190,-43.5188,12.3563,6.2625,
8.858490,0.5649,0.1703,0.0629,1.4334,0.0305,-0.3228,-43.5188,12.3563,6.2625,
8.868461,0.1321,-0.1018,0.1763,1.4334,0.0305,-0.3228,-43.5188,12.3563,6.2625,
8.888495,-0.1000,-0.3277,-0.0097,1.4334,0.0305,-0.3228,-43.5188,12.3563,6.2625,
8.906219,-0.1000,-0.3277,-0.0097,1.4334,0.0305,-0.3228,-43.5188,12.3563,6.2625,
8.909040,-0.0355,-0.2858,-0.5717,1.4334,0.0305,-0.3228,-43.5188,12.3563,6.2625,
8.910685,-0.0355,-0.2858,-0.5717,1.4334,0.0305,-0.3228,-44.3813,12.1313,5.2313,
8.919264,-0.0355,-0.2858,-0.5717,1.8440,-0.0293,-0.3706,-44.3813,12.1313,5.2313,
8.925712,0.4618,-0.2247,-1.0615,1.8440,-0.0293,-0.3706,-44.3813,12.1313,5.2313,
8.944642,0.3738,0.2609,-1.0078,1.8440,-0.0293,-0.3706,-44.3813,12.1313,5.2313,
8.963888,0.0363,0.6377,-0.7301,1.8440,-0.0293,-0.3706,-44.3813,12.1313,5.2313,
8.968703,0.0363,0.6377,-0.7301,1.8440,-0.0293,-0.3706,-44.4188,11.3438,3.6750,
8.969825,0.0363,0.6377,-0.7301,1.8440,-0.0293,-0.3706,-44.4188,11.3438,3.6750,
8.982743,0.0363,0.6377,-0.7301,1.3699,-0.2199,-0.4267,-44.4188,11.3438,3.6750,
8.984643,-0.1458,0.7105,-0.3317,1.3699,-0.2199,-0.4267,-44.4188,11.3438,3.6750,
9.001986,-0.0304,0.5632,-0.1035,1.3699,-0.2199,-0.4267,-44.4188,11.3438,3.6750,
9.021441,0.1241,0.3184,-0.3401,1.3699,-0.2199,-0.4267,-44.4188,11.3438,3.6750,
9.027618,0.1241,0.3184,-0.3401,1.3699,-0.2199,-0.4267,-44.9813,10.7063,2.8500,
9.029694,0.1241,0.3184,-0.3401,1.3699,-0.2199,-0.4267,-44.9813,10.7063,2.8500,
9.039580,0.5437,0.0474,-0.6426,1.3699,-0.2199,-0.4267,-44.9813,10.7063,2.8500,
9.043925,0.5437,0.0474,-0.6426,1.3859,-0.1576,-0.4231,-44.9813,10.7063,2.8500,
9.059012,0.9748,-0.1968,-0.9757,1.3859,-0.1576,-0.4231,-44.9813,10.7063,2.8500,
9.077980,1.0802,-0.6461,-0.8999,1.3859,-0.1576,-0.4231,-44.9813,10.7063,2.8500,
9.086992,1.0802,-0.6461,-0.8999,1.3859,-0.1576,-0.4231,-44.3438,9.9563,1.8938,
9.092351,1.0802,-0.6461,-0.8999,1.3859,-0.1576,-0.4231,-44.3438,9.9563,1.8938,
9.097874,0.7235,-1.2182,-0.5464,1.3859,-0.1576,-0.4231,-44.3438,9.9563,1.8938,
9.106411,0.7235,-1.2182,-0.5464,1.8208,0.1185,-0.4291,-44.3438,9.9563,1.8938,
9.116837,0.3100,-1.5846,-0.3774,1.8208,0.1185,-0.4291,-44.3438,9.9563,1.8938,
9.136633,0.2902,-1.2348,-0.3040,1.8208,0.1185,-0.4291,-44.3438,9.9563,1.8938,
9.147595,0.2902,-1.2348,-0.3040,1.8208,0.1185,-0.4291,-44.1000,9.3375,-1.5375,
9.155086,0.2902,-1.2348,-0.3040,1.8208,0.1185,-0.4291,-44.1000,9.3375,-1.5375,
9.157679,0.5255,-0.4582,-1.1650,1.8208,0.1185,-0.4291,-44.1000,9.3375,-1.5375,
9.169391,0.5255,-0.4582,-1.1650,1.9123,0.4642,-0.1495,-44.1000,9.3375,-1.5375,
9.174153,0.3958,-0.2682,-1.8918,1.9123,0.4642,-0.1495,-44.1000,9.3375,-1.5375,
9.193535,1.0583,0.3307,-2.1580,1.9123,0.4642,-0.1495,-44.1000,9.3375,-1.5375,
9.206535,1.0583,0.3307,-2.1580,1.9123,0.4642,-0.1495,-44.7375,8.9438,-2.8688,
9.211824,0.9619,0.8405,-1.7233,1.9123,0.4642,-0.1495,-44.7375,8.9438,-2.8688,
9.215967,0.9619,0.8405,-1.7233,1.9123,0.4642,-0.1495,-44.7375,8.9438,-2.8688,
9.232629,0.9619,0.8405,-1.7233,-0.1254,0.6170,0.1291,-44.7375,8.9438,-2.8688,
9.235997,-0.4466,1.1889,-1.8594,-0.1254,0.6170,0.1291,-44.7375,8.9438,-2.8688,
9.250882,-1.7071,0.1137,-1.9057,-0.1254,0.6170,0.1291,-44.7375,8.9438,-2.8688,
9.267355,-1.7071,0.1137,-1.9057,-0.1254,0.6170,0.1291,-44.9813,10.0688,-3.2813,
9.271062,-2.5496,-2.6766,-3.0641,-0.1254,0.6170,0.1291,-44.9813,10.0688,-3.2813,
9.278469,-2.5496,-2.6766,-3.0641,-0.1254,0.6170,0.1291,-44.9813,10.0688,-3.2813,
9.289051,-1.9277,-4.5057,-4.9565,-0.1254,0.6170,0.1291,-44.9813,10.0688,-3.2813,
9.293122,-1.9277,-4.5057,-4.9565,-1.1065,0.1222,-0.1347,-44.9813,10.0688,-3.2813,
9.308767,-0.8251,-3.6214,-5.1909,-1.1065,0.1222,-0.1347,-44.9813,10.0688,-3.2813,
9.326868,1.1079,-1.3693,-2.2854,-1.1065,0.1222,-0.1347,-44.9813,10.0688,-3.2813,
9.327712,1.1079,-1.3693,-2.2854,-1.1065,0.1222,-0.1347,-45.0750,9.8813,-3.4875,
9.339591,1.1079,-1.3693,-2.2854,-1.1065,0.1222,-0.1347,-45.0750,9.8813,-3.4875,
9.344998,2.3242,-0.5532,-0.1818,-1.1065,0.1222,-0.1347,-45.0750,9.8813,-3.4875,
9.353988,2.3242,-0.5532,-0.1818,-2.1755,0.2834,-0.0652,-45.0750,9.8813,-3.4875,
9.363938,2.3419,-3.0386,-1.1515,-2.1755,0.2834,-0.0652,-45.0750,9.8813,-3.4875,
9.383656,0.5901,-3.7972,-1.7132,-2.1755,0.2834,-0.0652,-45.0750,9.8813,-3.4875,
9.386098,0.5901,-3.7972,-1.7132,-2.1755,0.2834,-0.0652,-45.3000,10.5563,-3.0563,
9.401650,0.5901,-3.7972,-1.7132,-2.1755,0.2834,-0.0652,-45.3000,10.5563,-3.0563,
9.402390,-0.2283,-4.0257,-0.2648,-2.1755,0.2834,-0.0652,-45.3000,10.5563,-3.0563,
9.417689,-0.2283,-4.0257,-0.2648,-2.9341,0.5657,0.1731,-45.3000,10.5563,-3.0563,
9.422499,0.8331,-3.9123,1.6691,-2.9341,0.5657,0.1731,-45.3000,10.5563,-3.0563,
9.448825,0.2189,-3.3880,1.6644,-2.9341,0.5657,0.1731,-45.3000,10.5563,-3.0563,
9.452611,0.2189,-3.3880,1.6644,-2.9341,0.5657,0.1731,-45.7688,11.4563,0.6000,
9.461982,0.2447,-1.8398,1.2970,-2.9341,0.5657,0.1731,-45.7688,11.4563,0.6000,
9.466062,0.2447,-1.8398,1.2970,-2.9341,0.5657,0.1731,-45.7688,11.4563,0.6000,
9.478851,0.2447,-1.8398,1.2970,-1.8615,-0.2065,-0.1690,-45.7688,11.4563,0.6000,
9.480510,0.4219,-0.2757,1.5674,-1.8615,-0.2065,-0.1690,-45.7688,11.4563,0.6000,
9.499547,0.6193,-0.1556,1.9689,-1.8615,-0.2065,-0.1690,-45.7688,11.4563,0.6000,
9.507006,0.6193,-0.1556,1.9689,-1.8615,-0.2065,-0.1690,-45.9188,10.1250,3.1875,
9.518038,0.4160,-0.1183,1.7764,-1.8615,-0.2065,-0.1690,-45.9188,10.1250,3.1875,
9.527203,0.4160,-0.1183,1.7764,-1.8615,-0.2065,-0.1690,-45.9188,10.1250,3.1875,
9.538637,0.2389,-0.1851,1.8564,-1.8615,-0.2065,-0.1690,-45.9188,10.1250,3.1875,
9.540912,0.2389,-0.1851,1.8564,-1.1162,0.3983,0.6533,-45.9188,10.1250,3.1875,
9.556869,-0.7639,0.5233,2.7270,-1.1162,0.3983,0.6533,-45.9188,10.1250,3.1875,
9.566949,-0.7639,0.5233,2.7270,-1.1162,0.3983,0.6533,-44.9250,11.4375,3.9000,
9.576267,-1.1679,0.8081,2.1760,-1.1162,0.3983,0.6533,-44.9250,11.4375,3.9000,
9.589801,-1.1679,0.8081,2.1760,-1.1162,0.3983,0.6533,-44.9250,11.4375,3.9000,
9.595052,-0.8645,0.0515,1.6648,-1.1162,0.3983,0.6533,-44.9250,11.4375,3.9000,
9.606779,-0.8645,0.0515,1.6648,-1.0955,-0.0367,0.6263,-44.9250,11.4375,3.9000,
9.614405,-0.4012,-0.8533,0.6290,-1.0955,-0.0367,0.6263,-44.9250,11.4375,3.9000,
9.626772,-0.4012,-0.8533,0.6290,-1.0955,-0.0367,0.6263,-43.8000,12.6188,3.4500,
9.633585,-0.5568,-1.2505,-0.0623,-1.0955,-0.0367,0.6263,-43.8000,12.6188,3.4500,
9.652945,-0.5568,-1.2505,-0.0623,-1.0955,-0.0367,0.6263,-43.8000,12.6188,3.4500,
9.656050,-0.5721,-0.8691,-0.0227,-1.0955,-0.0367,0.6263,-43.8000,12.6188,3.4500,
9.666429,-0.5721,-0.8691,-0.0227,-1.5671,-0.0562,0.5677,-43.8000,12.6188,3.4500,
9.673464,-0.0103,-0.8904,-0.1875,-1.5671,-0.0562,0.5677,-43.8000,12.6188,3.4500,
9.686946,-0.0103,-0.8904,-0.1875,-1.5671,-0.0562,0.5677,-44.2688,13.8375,6.6938,
9.691340,0.0964,-2.3411,-0.3477,-1.5671,-0.0562,0.5677,-44.2688,13.8375,6.6938,
9.709880,-0.4033,-3.1865,-2.1252,-1.5671,-0.0562,0.5677,-44.2688,13.8375,6.6938,
9.713586,-0.4033,-3.1865,-2.1252,-1.5671,-0.0562,0.5677,-44.2688,13.8375,6.6938,
9.727637,-0.4033,-3.1865,-2.1252,-0.8902,0.6194,0.7595,-44.2688,13.8375,6.6938,
9.729438,0.4765,-2.2828,1.0573,-0.8902,0.6194,0.7595,-44.2688,13.8375,6.6938,
9.746771,0.4765,-2.2828,1.0573,-0.8902,0.6194,0.7595,-44.1375,15.1875,7.0125,
9.749255,0.6365,-1.9378,1.6503,-0.8902,0.6194,0.7595,-44.1375,15.1875,7.0125,
9.767194,0.8704,-2.2088,0.6281,-0.8902,0.6194,0.7595,-44.1375,15.1875,7.0125,
9.775665,0.8704,-2.2088,0.6281,-0.8902,0.6194,0.7595,-44.1375,15.1875,7.0125,
9.786475,0.6123,-1.4426,-0.6954,-0.8902,0.6194,0.7595,-44.1375,15.1875,7.0125,
9.789778,0.6123,-1.4426,-0.6954,-0.1339,0.1796,0.2501,-44.1375,15.1875,7.0125,
9.805364,0.1924,-0.8971,-0.0993,-0.1339,0.1796,0.2501,-44.1375,15.1875,7.0125,
9.806912,0.1924,-0.8971,-0.0993,-0.1339,0.1796,0.2501,-43.4625,15.4688,7.1063,
9.824967,0.2468,-0.1126,0.3080,-0.1339,0.1796,0.2501,-43.4625,15.4688,7.1063,
9.839916,0.2468,-0.1126,0.3080,-0.1339,0.1796,0.2501,-43.4625,15.4688,7.1063,
9.843579,0.8402,-0.2175,0.1331,-0.1339,0.1796,0.2501,-43.4625,15.4688,7.1063,
9.852371,0.8402,-0.2175,0.1331,-0.4907,0.0208,0.5115,-43.4625,15.4688,7.1063,
9.863185,1.2192,-0.5203,-0.2245,-0.4907,0.0208,0.5115,-43.4625,15.4688,7.1063,
9.867313,1.2192,-0.5203,-0.2245,-0.4907,0.0208,0.5115,-43.2188,16.2375,7.3125,
9.881524,1.3361,-0.8737,-0.2233,-0.4907,0.0208,0.5115,-43.2188,16.2375,7.3125,
9.900462,1.3361,-0.8737,-0.2233,-0.4907,0.0208,0.5115,-43.2188,16.2375,7.3125,
9.903806,1.0888,-1.1506,0.1812,-0.4907,0.0208,0.5115,-43.2188,16.2375,7.3125,
9.914392,1.0888,-1.1506,0.1812,-0.3844,0.2078,0.5995,-43.2188,16.2375,7.3125,
9.920512,1.0948,-1.1882,0.7728,-0.3844,0.2078,0.5995,-43.2188,16.2375,7.3125,
9.927614,1.0948,-1.1882,0.7728,-0.3844,0.2078,0.5995,-42.3750,17.0063,7.4063,
9.939326,0.4431,-0.8333,1.1981,-0.3844,0.2078,0.5995,-42.3750,17.0063,7.4063,
9.958620,0.5849,-1.2465,1.9564,-0.3844,0.2078,0.5995,-42.3750,17.0063,7.4063,
9.963382,0.5849,-1.2465,1.9564,-0.3844,0.2078,0.5995,-42.3750,17.0063,7.4063,
9.977117,0.5849,-1.2465,1.9564,0.5538,0.4434,0.4432,-42.3750,17.0063,7.4063,
9.980820,0.5571,-1.3989,1.8564,0.5538,0.4434,0.4432,-42.3750,17.0063,7.4063,
9.989500,0.5571,-1.3989,1.8564,0.5538,0.4434,0.4432,-42.1125,18.1500,6.2625,
9.996398,0.5638,-1.0711,1.6766,0.5538,0.4434,0.4432,-42.1125,18.1500,6.2625,
10.015654,0.5423,-0.6542,1.6186,0.5538,0.4434,0.4432,-42.1125,18.1500,6.2625,
10.025115,0.5423,-0.6542,1.6186,0.5538,0.4434,0.4432,-42.1125,18.1500,6.2625,
10.035314,0.6542,-0.4167,1.5020,0.5538,0.4434,0.4432,-42.1125,18.1500,6.2625,
10.038457,0.6542,-0.4167,1.5020,0.9740,0.1528,0.3246,-42.1125,18.1500,6.2625,
10.046381,0.6542,-0.4167,1.5020,0.9740,0.1528,0.3246,-41.6438,19.1438,4.0688,
10.054243,0.2122,-0.4357,1.6691,0.9740,0.1528,0.3246,-41.6438,19.1438,4.0688,
10.073639,0.1901,-0.5329,1.1530,0.9740,0.1528,0.3246,-41.6438,19.1438,4.0688,
10.086800,0.1901,-0.5329,1.1530,0.9740,0.1528,0.3246,-41.6438,19.1438,4.0688,
10.093945,0.5555,-0.6350,0.6891,0.9740,0.1528,0.3246,-41.6438,19.1438,4.0688,
10.101494,0.5555,-0.6350,0.6891,1.2771,0.1563,0.0045,-41.6438,19.1438,4.0688,
10.106686,0.5555,-0.6350,0.6891,1.2771,0.1563,0.0045,-40.2563,19.3688,1.1250,
10.110345,0.9906,-0.5109,0.6200,1.2771,0.1563,0.0045,-40.2563,19.3688,1.1250,
10.130435,1.1457,-0.0676,0.8342,1.2771,0.1563,0.0045,-40.2563,19.3688,1.1250,
10.149874,1.1457,-0.0676,0.8342,1.2771,0.1563,0.0045,-40.2563,19.3688,1.1250,
10.151294,1.0455,0.0486,0.7850,1.2771,0.1563,0.0045,-40.2563,19.3688,1.1250,
10.162176,1.0455,0.0486,0.7850,1.3259,0.1075,0.0326,-40.2563,19.3688,1.1250,
10.165608,1.0455,0.0486,0.7850,1.3259,0.1075,0.0326,-40.7438,19.6688,-0.3188,
10.167602,0.7244,-0.2701,0.5187,1.3259,0.1075,0.0326,-40.7438,19.6688,-0.3188,
10.190050,0.2539,-0.4439,0.2540,1.3259,0.1075,0.0326,-40.7438,19.6688,-0.3188,
10.205930,-0.3111,-0.3846,-0.0901,1.3259,0.1075,0.0326,-40.7438,19.6688,-0.3188,
10.209635,-0.3111,-0.3846,-0.0901,1.3259,0.1075,0.0326,-40.7438,19.6688,-0.3188,
10.224292,-0.3111,-0.3846,-0.0901,1.4042,0.0440,-0.0554,-40.7438,19.6688,-0.3188,
10.226444,-0.4081,-0.1184,-0.1065,1.4042,0.0440,-0.0554,-40.7438,19.6688,-0.3188,
10.227264,-0.4081,-0.1184,-0.1065,1.4042,0.0440,-0.0554,-40.8000,19.0875,-2.3063,
10.244412,-0.0671,0.1413,-0.0812,1.4042,0.0440,-0.0554,-40.8000,19.0875,-2.3063,
10.264638,0.5735,0.4162,-0.0151,1.4042,0.0440,-0.0554,-40.8000,19.0875,-2.3063,
10.273177,0.5735,0.4162,-0.0151,1.4042,0.0440,-0.0554,-40.8000,19.0875,-2.3063,
10.284502,0.6859,0.6234,0.0211,1.4042,0.0440,-0.0554,-40.8000,19.0875,-2.3063,
10.288569,0.6859,0.6234,0.0211,1.4042,0.0440,-0.0554,-41.1562,18.9750,-3.6375,
10.291229,0.6859,0.6234,0.0211,0.9277,-0.0598,-0.2093,-41.1562,18.9750,-3.6375,
10.303127,0.3891,0.3076,-0.0750,0.9277,-0.0598,-0.2093,-41.1562,18.9750,-3.6375,
10.321998,0.1260,-0.2530,-0.2935,0.9277,-0.0598,-0.2093,-41.1562,18.9750,-3.6375,
10.335605,0.1260,-0.2530,-0.2935,0.9277,-0.0598,-0.2093,-41.1562,18.9750,-3.6375,
10.340323,0.3115,-0.5771,-0.4325,0.9277,-0.0598,-0.2093,-41.1562,18.9750,-3.6375,
10.346654,0.3115,-0.5771,-0.4325,0.9277,-0.0598,-0.2093,-41.3625,17.4000,-5.4000,
10.349964,0.3115,-0.5771,-0.4325,0.9252,-0.0122,-0.1690,-41.3625,17.4000,-5.4000,
10.360868,0.5336,-0.4389,-0.3407,0.9252,-0.0122,-0.1690,-41.3625,17.4000,-5.4000,
10.378451,0.6403,-0.2127,-0.2940,0.9252,-0.0122,-0.1690,-41.3625,17.4000,-5.4000,
10.397035,0.6403,-0.2127,-0.2940,0.9252,-0.0122,-0.1690,-41.3625,17.4000,-5.4000,
10.397995,0.2556,0.0377,-0.1899,0.9252,-0.0122,-0.1690,-41.3625,17.4000,-5.4000,
10.406858,0.2556,0.0377,-0.1899,0.9252,-0.0122,-0.1690,-41.2313,16.5563,-6.2438,
10.411210,0.2556,0.0377,-0.1899,1.0658,-0.1515,-0.2375,-41.2313,16.5563,-6.2438,
10.416635,-0.1592,0.1730,-0.1802,1.0658,-0.1515,-0.2375,-41.2313,16.5563,-6.2438,
10.436112,-0.3736,0.6758,-0.2137,1.0658,-0.1515,-0.2375,-41.2313,16.5563,-6.2438,
10.456598,0.1824,0.7712,-0.3239,1.0658,-0.1515,-0.2375,-41.2313,16.5563,-6.2438,
10.460419,0.1824,0.7712,-0.3239,1.0658,-0.1515,-0.2375,-41.2313,16.5563,-6.2438,
10.467395,0.1824,0.7712,-0.3239,1.0658,-0.1515,-0.2375,-42.5438,15.5250,-6.6375,
10.474227,0.1824,0.7712,-0.3239,0.8495,-0.1050,-0.2472,-42.5438,15.5250,-6.6375,
10.476552,0.2417,1.0499,0.0175,0.8495,-0.1050,-0.2472,-42.5438,15.5250,-6.6375,
10.495807,0.3029,1.0506,0.1280,0.8495,-0.1050,-0.2472,-42.5438,15.5250,-6.6375,
10.514047,0.3129,0.7595,0.1638,0.8495,-0.1050,-0.2472,-42.5438,15.5250,-6.6375,
10.522750,0.3129,0.7595,0.1638,0.8495,-0.1050,-0.2472,-42.5438,15.5250,-6.6375,
10.528923,0.3129,0.7595,0.1638,0.8495,-0.1050,-0.2472,-42.3938,14.4750,-7.1625,
10.533425,0.4055,0.0718,-0.1945,0.8495,-0.1050,-0.2472,-42.3938,14.4750,-7.1625,
10.536942,0.4055,0.0718,-0.1945,0.7054,-0.1759,-0.0468,-42.3938,14.4750,-7.1625,
10.551491,0.5292,-0.1965,-0.3560,0.7054,-0.1759,-0.0468,-42.3938,14.4750,-7.1625,
10.571715,0.7324,-0.1851,-0.2583,0.7054,-0.1759,-0.0468,-42.3938,14.4750,-7.1625,
10.585001,0.7324,-0.1851,-0.2583,0.7054,-0.1759,-0.0468,-42.3938,14.4750,-7.1625,
10.587943,0.7324,-0.1851,-0.2583,0.7054,-0.1759,-0.0468,-42.5813,14.1938,-7.2750,
10.590627,0.6922,0.1141,-0.1521,0.7054,-0.1759,-0.0468,-42.5813,14.1938,-7.2750,
10.598106,0.6922,0.1141,-0.1521,0.6442,0.1503,-0.1006,-42.5813,14.1938,-7.2750,
10.609368,0.0595,0.9807,0.0888,0.6442,0.1503,-0.1006,-42.5813,14.1938,-7.2750,
10.628488,0.2040,0.9326,-0.1136,0.6442,0.1503,-0.1006,-42.5813,14.1938,-7.2750,
10.647335,0.2040,0.9326,-0.1136,0.6442,0.1503,-0.1006,-42.5813,14.1938,-7.2750,
10.650572,0.0821,1.2372,0.0595,0.6442,0.1503,-0.1006,-42.5813,14.1938,-7.2750,
10.652913,0.0821,1.2372,0.0595,0.6442,0.1503,-0.1006,-42.0375,13.3500,-8.6438,
10.660740,0.0821,1.2372,0.0595,0.7175,0.2003,-0.0542,-42.0375,13.3500,-8.6438,
10.666132,0.3314,1.1994,-0.0980,0.7175,0.2003,-0.0542,-42.0375,13.3500,-8.6438,
10.686051,0.2556,0.9848,-0.1594,0.7175,0.2003,-0.0542,-42.0375,13.3500,-8.6438,
10.704362,-0.1493,0.6195,-0.3417,0.7175,0.2003,-0.0542,-42.0375,13.3500,-8.6438,
10.706379,-0.1493,0.6195,-0.3417,0.7175,0.2003,-0.0542,-42.5063,13.2375,-9.6750,
10.708678,-0.1493,0.6195,-0.3417,0.7175,0.2003,-0.0542,-42.5063,13.2375,-9.6750,
10.723097,-0.1493,0.6195,-0.3417,0.4696,0.2041,-0.0529,-42.5063,13.2375,-9.6750,
10.724942,-0.3652,0.3734,-0.4874,0.4696,0.2041,-0.0529,-42.5063,13.2375,-9.6750,
10.743195,-0.3481,0.0857,-0.2779,0.4696,0.2041,-0.0529,-42.5063,13.2375,-9.6750,
10.762039,-0.2567,0.4185,-0.2222,0.4696,0.2041,-0.0529,-42.5063,13.2375,-9.6750,
10.767566,-0.2567,0.4185,-0.2222,0.4696,0.2041,-0.0529,-41.6813,12.3563,-10.4250,
10.773843,-0.2567,0.4185,-0.2222,0.4696,0.2041,-0.0529,-41.6813,12.3563,-10.4250,
10.781271,-0.4302,0.3134,-0.1374,0.4696,0.2041,-0.0529,-41.6813,12.3563,-10.4250,
10.786690,-0.4302,0.3134,-0.1374,0.4781,0.3189,0.0521,-41.6813,12.3563,-10.4250,
10.799700,-0.1943,0.1143,-0.0860,0.4781,0.3189,0.0521,-41.6813,12.3563,-10.4250,
10.819597,0.3023,-0.1495,-0.0364,0.4781,0.3189,0.0521,-41.6813,12.3563,-10.4250,
10.826620,0.3023,-0.1495,-0.0364,0.4781,0.3189,0.0521,-41.3625,12.0375,-12.0000,
10.833119,0.3023,-0.1495,-0.0364,0.4781,0.3189,0.0521,-41.3625,12.0375,-12.0000,
10.838187,0.4152,-0.0663,-0.1187,0.4781,0.3189,0.0521,-41.3625,12.0375,-12.0000,
10.848577,0.4152,-0.0663,-0.1187,0.4414,0.3091,0.0546,-41.3625,12.0375,-12.0000,
10.857910,0.2939,-0.0181,-0.1735,0.4414,0.3091,0.0546,-41.3625,12.0375,-12.0000,
10.877317,0.0347,-0.0805,-0.2708,0.4414,0.3091,0.0546,-41.3625,12.0375,-12.0000,
10.887515,0.0347,-0.0805,-0.2708,0.4414,0.3091,0.0546,-41.3438,12.0000,-13.0313,
10.894762,0.0347,-0.0805,-0.2708,0.4414,0.3091,0.0546,-41.3438,12.0000,-13.0313,
10.896912,-0.2300,0.0335,-0.5109,0.4414,0.3091,0.0546,-41.3438,12.0000,-13.0313,
10.910418,-0.2300,0.0335,-0.5109,0.2875,0.2419,0.0656,-41.3438,12.0000,-13.0313,
10.916660,-0.2718,-0.0626,-0.6900,0.2875,0.2419,0.0656,-41.3438,12.0000,-13.0313,
10.934551,-0.2022,-0.0400,-0.5676,0.2875,0.2419,0.0656,-41.3438,12.0000,-13.0313,
10.947504,-0.2022,-0.0400,-0.5676,0.2875,0.2419,0.0656,-40.9500,11.8313,-13.7813,
10.954409,-0.1125,0.1679,-0.2104,0.2875,0.2419,0.0656,-40.9500,11.8313,-13.7813,
10.957531,-0.1125,0.1679,-0.2104,0.2875,0.2419,0.0656,-40.9500,11.8313,-13.7813,
10.971584,-0.1125,0.1679,-0.2104,0.3095,0.2566,0.0448,-40.9500,11.8313,-13.7813,
10.973367,-0.0444,0.2130,0.0343,0.3095,0.2566,0.0448,-40.9500,11.8313,-13.7813,
10.992462,0.0068,0.2159,-0.0127,0.3095,0.2566,0.0448,-40.9500,11.8313,-13.7813,
11.007870,0.0068,0.2159,-0.0127,0.3095,0.2566,0.0448,-40.7250,11.4938,-14.9250,
11.011015,0.0177,0.0617,-0.1572,0.3095,0.2566,0.0448,-40.7250,11.4938,-14.9250,
11.019030,0.0177,0.0617,-0.1572,0.3095,0.2566,0.0448,-40.7250,11.4938,-14.9250,
11.029484,0.0126,-0.0486,-0.2608,0.3095,0.2566,0.0448,-40.7250,11.4938,-14.9250,
11.034145,0.0126,-0.0486,-0.2608,0.1640,0.1625,0.0631,-40.7250,11.4938,-14.9250,
11.049508,-0.0502,-0.0089,-0.3758,0.1640,0.1625,0.0631,-40.7250,11.4938,-14.9250,
11.067555,-0.0502,-0.0089,-0.3758,0.1640,0.1625,0.0631,-40.7250,11.8313,-15.5438,
11.070749,-0.1194,0.0665,-0.3181,0.1640,0.1625,0.0631,-40.7250,11.8313,-15.5438,
11.083075,-0.1194,0.0665,-0.3181,0.1640,0.1625,0.0631,-40.7250,11.8313,-15.5438,
11.087469,-0.1854,0.1122,-0.2848,0.1640,0.1625,0.0631,-40.7250,11.8313,-15.5438,
11.096359,-0.1854,0.1122,-0.2848,0.0249,0.0586,0.0143,-40.7250,11.8313,-15.5438,
11.106679,-0.1216,0.0569,-0.2499,0.0249,0.0586,0.0143,-40.7250,11.8313,-15.5438,
11.126471,-0.0068,-0.0439,-0.3680,0.0249,0.0586,0.0143,-40.7250,11.8313,-15.5438,
11.129829,-0.0068,-0.0439,-0.3680,0.0249,0.0586,0.0143,-40.2375,11.7188,-15.6563,
11.144493,-0.0068,-0.0439,-0.3680,0.0249,0.0586,0.0143,-40.2375,11.7188,-15.6563,
11.145898,0.1221,-0.1325,-0.3485,0.0249,0.0586,0.0143,-40.2375,11.7188,-15.6563,
11.158735,0.1221,-0.1325,-0.3485,0.0542,0.0525,0.0228,-40.2375,11.7188,-15.6563,
11.164399,0.1890,-0.2147,-0.0439,0.0542,0.0525,0.0228,-40.2375,11.7188,-15.6563,
11.183106,0.1486,-0.1599,0.1033,0.0542,0.0525,0.0228,-40.2375,11.7188,-15.6563,
11.188572,0.1486,-0.1599,0.1033,0.0542,0.0525,0.0228,-40.3313,11.6063,-15.3563,
11.202281,0.1072,-0.1372,0.0675,0.0542,0.0525,0.0228,-40.3313,11.6063,-15.3563,
11.205809,0.1072,-0.1372,0.0675,0.0542,0.0525,0.0228,-40.3313,11.6063,-15.3563,
11.220495,0.1072,-0.1372,0.0675,0.1018,0.0280,-0.0004,-40.3313,11.6063,-15.3563,
11.221933,0.0971,-0.2840,-0.0807,0.1018,0.0280,-0.0004,-40.3313,11.6063,-15.3563,
11.240115,0.0679,-0.3697,-0.1647,0.1018,0.0280,-0.0004,-40.3313,11.6063,-15.3563,
11.248382,0.0679,-0.3697,-0.1647,0.1018,0.0280,-0.0004,-40.1438,11.7000,-15.4688,
11.259608,-0.0171,-0.2741,-0.1814,0.1018,0.0280,-0.0004,-40.1438,11.7000,-15.4688,
11.268853,-0.0171,-0.2741,-0.1814,0.1018,0.0280,-0.0004,-40.1438,11.7000,-15.4688,
11.279625,0.0086,-0.2794,-0.1052,0.1018,0.0280,-0.0004,-40.1438,11.7000,-15.4688,
11.283067,0.0086,-0.2794,-0.1052,-0.0606,0.0073,-0.0285,-40.1438,11.7000,-15.4688,
11.298343,-0.0075,-0.2417,0.0022,-0.0606,0.0073,-0.0285,-40.1438,11.7000,-15.4688,
11.308658,-0.0075,-0.2417,0.0022,-0.0606,0.0073,-0.0285,-40.5188,11.6438,-15.7688,
11.317216,-0.0061,-0.2352,0.0451,-0.0606,0.0073,-0.0285,-40.5188,11.6438,-15.7688,
11.330837,-0.0061,-0.2352,0.0451,-0.0606,0.0073,-0.0285,-40.5188,11.6438,-15.7688,
11.336118,-0.0661,-0.2752,-0.0376,-0.0606,0.0073,-0.0285,-40.5188,11.6438,-15.7688,
11.344693,-0.0661,-0.2752,-0.0376,0.0407,0.0012,-0.0346,-40.5188,11.6438,-15.7688,
11.354762,-0.0007,-0.2168,-0.0969,0.0407,0.0012,-0.0346,-40.5188,11.6438,-15.7688,
11.367445,-0.0007,-0.2168,-0.0969,0.0407,0.0012,-0.0346,-40.3125,11.3625,-16.2938,
11.373629,-0.0178,-0.1712,-0.0839,0.0407,0.0012,-0.0346,-40.3125,11.3625,-16.2938,
11.393088,-0.0178,-0.1712,-0.0839,0.0407,0.0012,-0.0346,-40.3125,11.3625,-16.2938,
11.395840,0.0416,-0.0975,-0.0705,0.0407,0.0012,-0.0346,-40.3125,11.3625,-16.2938,
11.406590,0.0416,-0.0975,-0.0705,0.0114,-0.0342,-0.0419,-40.3125,11.3625,-16.2938,
11.412630,0.1049,-0.1053,-0.0617,0.0114,-0.0342,-0.0419,-40.3125,11.3625,-16.2938,
11.427140,0.1049,-0.1053,-0.0617,0.0114,-0.0342,-0.0419,-40.2000,11.0438,-15.8813,
11.431106,0.1306,-0.1536,-0.1519,0.0114,-0.0342,-0.0419,-40.2000,11.0438,-15.8813,
11.450878,0.0844,-0.2117,-0.1521,0.0114,-0.0342,-0.0419,-40.2000,11.0438,-15.8813,
11.454605,0.0844,-0.2117,-0.1521,0.0114,-0.0342,-0.0419,-40.2000,11.0438,-15.8813,
11.469701,0.0844,-0.2117,-0.1521,0.0052,-0.0892,-0.0309,-40.2000,11.0438,-15.8813,
11.473226,-0.0123,-0.2890,-0.0371,0.0052,-0.0892,-0.0309,-40.2000,11.0438,-15.8813,
11.487627,-0.0123,-0.2890,-0.0371,0.0052,-0.0892,-0.0309,-39.3188,11.2875,-17.1562,
11.490708,0.0357,-0.2958,0.0738,0.0052,-0.0892,-0.0309,-39.3188,11.2875,-17.1562,
11.508473,0.0833,-0.3011,0.0062,0.0052,-0.0892,-0.0309,-39.3188,11.2875,-17.1562,
11.518425,0.0833,-0.3011,0.0062,0.0052,-0.0892,-0.0309,-39.3188,11.2875,-17.1562,
11.527601,0.1262,-0.3179,-0.0128,0.0052,-0.0892,-0.0309,-39.3188,11.2875,-17.1562,
11.530701,0.1262,-0.3179,-0.0128,0.0554,-0.1002,-0.0199,-39.3188,11.2875,-17.1562,
11.546745,0.1967,-0.3241,-0.0987,0.0554,-0.1002,-0.0199,-39.3188,11.2875,-17.1562,
11.550659,0.1967,-0.3241,-0.0987,0.0554,-0.1002,-0.0199,-40.7063,11.2313,-15.3375,
11.565133,0.2543,-0.3510,-0.0489,0.0554,-0.1002,-0.0199,-40.7063,11.2313,-15.3375,
11.579087,0.2543,-0.3510,-0.0489,0.0554,-0.1002,-0.0199,-40.7063,11.2313,-15.3375,
11.585460,0.2129,-0.2104,-0.0968,0.0554,-0.1002,-0.0199,-40.7063,11.2313,-15.3375,
11.593083,0.2129,-0.2104,-0.0968,0.0236,-0.0465,-0.0187,-40.7063,11.2313,-15.3375,
11.603315,0.1824,-0.0788,-0.1091,0.0236,-0.0465,-0.0187,-40.7063,11.2313,-15.3375,
11.607247,0.1824,-0.0788,-0.1091,0.0236,-0.0465,-0.0187,-40.1063,10.7063,-15.3563,
11.622510,0.2511,0.0577,-0.0788,0.0236,-0.0465,-0.0187,-40.1063,10.7063,-15.3563,
11.641595,0.2511,0.0577,-0.0788,0.0236,-0.0465,-0.0187,-40.1063,10.7063,-15.3563,
11.644987,0.2772,-0.0863,0.0370,0.0236,-0.0465,-0.0187,-40.1063,10.7063,-15.3563,
11.655609,0.2772,-0.0863,0.0370,-0.0326,0.0037,0.0118,-40.1063,10.7063,-15.3563,
11.660606,0.3009,-0.3702,0.0997,-0.0326,0.0037,0.0118,-40.1063,10.7063,-15.3563,
11.666631,0.3009,-0.3702,0.0997,-0.0326,0.0037,0.0118,-40.5000,11.0063,-15.1500,
11.680964,0.2446,-0.4222,0.2238,-0.0326,0.0037,0.0118,-40.5000,11.0063,-15.1500,
11.699609,0.2586,-0.3611,0.0574,-0.0326,0.0037,0.0118,-40.5000,11.0063,-15.1500,
11.703715,0.2586,-0.3611,0.0574,-0.0326,0.0037,0.0118,-40.5000,11.0063,-15.1500,
11.717042,0.2586,-0.3611,0.0574,0.0004,0.0660,0.0106,-40.5000,11.0063,-15.1500,
11.719474,0.2466,-0.2850,-0.0082,0.0004,0.0660,0.0106,-40.5000,11.0063,-15.1500,
11.727470,0.2466,-0.2850,-0.0082,0.0004,0.0660,0.0106,-41.0063,11.3438,-15.6375,
11.738976,0.2284,-0.3113,0.0339,0.0004,0.0660,0.0106,-41.0063,11.3438,-15.6375,
11.757104,0.1078,-0.3248,0.0422,0.0004,0.0660,0.0106,-41.0063,11.3438,-15.6375,
11.765960,0.1078,-0.3248,0.0422,0.0004,0.0660,0.0106,-41.0063,11.3438,-15.6375,
11.776307,0.0715,-0.3073,0.0444,0.0004,0.0660,0.0106,-41.0063,11.3438,-15.6375,
11.779878,0.0715,-0.3073,0.0444,0.0052,0.0378,0.0241,-41.0063,11.3438,-15.6375,
11.787966,0.0715,-0.3073,0.0444,0.0052,0.0378,0.0241,-40.1063,11.0250,-15.6750,
11.795391,0.0362,-0.3239,0.0704,0.0052,0.0378,0.0241,-40.1063,11.0250,-15.6750,
11.814537,0.0897,-0.2469,0.0957,0.0052,0.0378,0.0241,-40.1063,11.0250,-15.6750,
11.829879,0.0897,-0.2469,0.0957,0.0052,0.0378,0.0241,-40.1063,11.0250,-15.6750,
11.833249,0.1547,-0.2241,0.1237,0.0052,0.0378,0.0241,-40.1063,11.0250,-15.6750,
11.842786,0.1547,-0.2241,0.1237,0.0432,0.0660,0.0106,-40.1063,11.0250,-15.6750,
11.847537,0.1547,-0.2241,0.1237,0.0432,0.0660,0.0106,-40.6875,11.0625,-15.8625,
11.851872,0.2470,-0.1983,0.0960,0.0432,0.0660,0.0106,-40.6875,11.0625,-15.8625,
11.873290,0.2598,-0.1584,0.0147,0.0432,0.0660,0.0106,-40.6875,11.0625,-15.8625,
11.891545,0.2598,-0.1584,0.0147,0.0432,0.0660,0.0106,-40.6875,11.0625,-15.8625,
11.894523,0.2470,-0.2150,-0.0181,0.0432,0.0660,0.0106,-40.6875,11.0625,-15.8625,
11.905694,0.2470,-0.2150,-0.0181,0.0236,0.0575,0.0106,-40.6875,11.0625,-15.8625,
11.907021,0.2470,-0.2150,-0.0181,0.0236,0.0575,0.0106,-39.9188,11.0438,-15.9938,
11.909538,0.2481,-0.2361,-0.0258,0.0236,0.0575,0.0106,-39.9188,11.0438,-15.9938,
11.928462,0.1782,-0.1665,-0.0868,0.0236,0.0575,0.0106,-39.9188,11.0438,-15.9938,
11.947806,0.2017,-0.3203,-0.0729,0.0236,0.0575,0.0106,-39.9188,11.0438,-15.9938,
11.951393,0.2017,-0.3203,-0.0729,0.0236,0.0575,0.0106,-39.9188,11.0438,-15.9938,
11.965785,0.2017,-0.3203,-0.0729,0.0102,0.0733,0.0069,-39.9188,11.0438,-15.9938,
11.967626,0.0602,-0.0838,-0.0974,0.0102,0.0733,0.0069,-39.9188,11.0438,-15.9938,
11.969277,0.0602,-0.0838,-0.0974,0.0102,0.0733,0.0069,-38.9062,10.9313,-18.0938,
11.985435,0.0979,-0.2708,-0.0757,0.0102,0.0733,0.0069,-38.9062,10.9313,-18.0938,
12.005685,0.1753,-0.2825,0.1165,0.0102,0.0733,0.0069,-38.9062,10.9313,-18.0938,
12.014532,0.1753,-0.2825,0.1165,0.0102,0.0733,0.0069,-38.9062,10.9313,-18.0938,
12.024703,0.2281,-0.4875,0.1956,0.0102,0.0733,0.0069,-38.9062,10.9313,-18.0938,
12.026417,0.2281,-0.4875,0.1956,0.0102,0.0733,0.0069,-39.9188,10.9313,-15.8813,
12.028814,0.2281,-0.4875,0.1956,0.0114,0.0708,0.0033,-39.9188,10.9313,-15.8813,
12.043527,0.1094,-0.4576,0.1255,0.0114,0.0708,0.0033,-39.9188,10.9313,-15.8813,
12.062475,0.0647,-0.2890,0.0585,0.0114,0.0708,0.0033,-39.9188,10.9313,-15.8813,
12.076898,0.0647,-0.2890,0.0585,0.0114,0.0708,0.0033,-39.9188,10.9313,-15.8813,
12.083042,0.1272,-0.0443,-0.0134,0.0114,0.0708,0.0033,-39.9188,10.9313,-15.8813,
12.086839,0.1272,-0.0443,-0.0134,0.0114,0.0708,0.0033,-40.5000,11.1000,-16.7063,
12.090616,0.1272,-0.0443,-0.0134,-0.0045,0.0683,0.0021,-40.5000,11.1000,-16.7063,
12.101666,0.1163,-0.3660,0.0329,-0.0045,0.0683,0.0021,-40.5000,11.1000,-16.7063,
12.120078,0.0707,-0.3169,0.1899,-0.0045,0.0683,0.0021,-40.5000,11.1000,-16.7063,
12.139030,0.0707,-0.3169,0.1899,-0.0045,0.0683,0.0021,-40.5000,11.1000,-16.7063,
12.141924,-0.0535,-0.1819,0.2165,-0.0045,0.0683,0.0021,-40.5000,11.1000,-16.7063,
12.147639,-0.0535,-0.1819,0.2165,-0.0045,0.0683,0.0021,-40.1250,11.4563,-16.4062,
12.153558,-0.0535,-0.1819,0.2165,0.0920,0.0610,-0.0236,-40.1250,11.4563,-16.4062,
12.161941,0.0095,-0.1047,-0.2740,0.0920,0.0610,-0.0236,-40.1250,11.4563,-16.4062,
12.177668,0.0479,-0.3014,0.0863,0.0920,0.0610,-0.0236,-40.1250,11.4563,-16.4062,
12.197910,0.1277,-0.3160,0.3265,0.0920,0.0610,-0.0236,-40.1250,11.4563,-16.4062,
12.200477,0.1277,-0.3160,0.3265,0.0920,0.0610,-0.0236,-40.1250,11.4563,-16.4062,
12.206668,0.1277,-0.3160,0.3265,0.0920,0.0610,-0.0236,-39.8063,10.9875,-16.9313,
12.216301,0.1277,-0.3160,0.3265,0.0468,0.0183,-0.0054,-39.8063,10.9875,-16.9313,
12.217689,0.1395,-0.2519,0.2654,0.0468,0.0183,-0.0054,-39.8063,10.9875,-16.9313,
12.234649,0.0698,-0.2157,0.0593,0.0468,0.0183,-0.0054,-39.8063,10.9875,-16.9313,
12.255075,0.0098,-0.3135,0.0431,0.0468,0.0183,-0.0054,-39.8063,10.9875,-16.9313,
12.267647,0.0098,-0.3135,0.0431,0.0468,0.0183,-0.0054,-39.8063,10.9875,-16.9313,
12.268571,0.0098,-0.3135,0.0431,0.0468,0.0183,-0.0054,-39.9000,11.1000,-17.1375,
