time,ax,ay,az,wx,wy,wz,Bx,By,Bz,Unnamed: 10,time_diff,acc_mag,acc_mag_filtered,label
0.056876,0.0,0.0,0.0,0.0083,-0.0403,0.0099,0.0,0.0,0.0,,0.0,0.0,-0.00022459591224975971,non_fall
0.102839,0.0,0.0,0.0,0.0083,-0.0403,0.0099,0.0,0.0,0.0,,0.045963,0.0,-0.0022983632935548847,non_fall
0.111367,0.0,0.0,0.0,0.0083,-0.0403,0.0099,-2.0063,19.2938,41.8313,,0.008527999999999994,0.0,-0.003938868811513424,non_fall
0.137053,0.0,0.0,0.0,0.0083,-0.0403,0.0099,-2.0063,19.2938,41.8313,,0.025686000000000014,0.0,-0.004789309615196531,non_fall
0.15747,0.0,0.0,0.0,0.0019,-0.0069,0.0386,-2.0063,19.2938,41.8313,,0.02041699999999999,0.0,-0.004514747309347748,non_fall
0.173023,0.0,0.0,0.0,0.0019,-0.0069,0.0386,-2.3063,18.4875,41.8125,,0.015553000000000011,0.0,-0.0028427041497636435,non_fall
0.199267,0.0,0.0,0.0,0.0019,-0.0069,0.0386,-2.3063,18.4875,41.8125,,0.02624399999999999,0.0,0.00037128094611858016,non_fall
0.200309,0.0,0.0,0.0,0.0019,-0.0069,0.0386,-2.3063,18.4875,41.8125,,0.0010419999999999874,0.0,0.005069047724684102,non_fall
0.218957,0.0,0.0,0.0,-0.0064,-0.0201,0.0216,-2.3063,18.4875,41.8125,,0.018648000000000026,0.0,0.01093404529903971,non_fall
0.231339,0.0,0.0,0.0,-0.0064,-0.0201,0.0216,-2.1188,18.525,41.6438,,0.012381999999999976,0.0,0.017387484534177537,non_fall
0.258993,0.0,0.0,0.0,-0.0064,-0.0201,0.0216,-2.1188,18.525,41.6438,,0.027653999999999984,0.0,0.023662836934439747,non_fall
0.259791,-0.0545,-0.0051,0.0062,-0.0064,-0.0201,0.0216,-2.1188,18.525,41.6438,,0.0007980000000000209,0.05508811124008518,0.028962687069619096,non_fall
0.279109,-0.0545,-0.0051,0.0062,-0.0113,-0.0176,0.0252,-2.1188,18.525,41.6438,,0.019318000000000002,0.05508811124008518,0.03266593982489632,non_fall
0.291759,-0.0545,-0.0051,0.0062,-0.0113,-0.0176,0.0252,-2.1375,18.5063,41.7375,,0.012649999999999995,0.05508811124008518,0.034518442733944735,non_fall
0.321062,-0.0545,-0.0051,0.0062,-0.0113,-0.0176,0.0252,-2.1375,18.5063,41.7375,,0.029303000000000023,0.05508811124008518,0.03472972146864213,non_fall
0.322659,-0.0075,0.0067,0.013,-0.0113,-0.0176,0.0252,-2.1375,18.5063,41.7375,,0.0015969999999999596,0.016435936237403696,0.033926614075964465,non_fall
0.340076,-0.0075,0.0067,0.013,0.0043,-0.0001,0.023,-2.1375,18.5063,41.7375,,0.017417000000000016,0.016435936237403696,0.0329705131685259,non_fall
0.35174,-0.0075,0.0067,0.013,0.0043,-0.0001,0.023,-2.1562,18.5063,41.8125,,0.011664000000000008,0.016435936237403696,0.03269991332336386,non_fall
0.381263,-0.0075,0.0067,0.013,0.0043,-0.0001,0.023,-2.1562,18.5063,41.8125,,0.02952300000000002,0.016435936237403696,0.0336865578805948,non_fall
0.38211,-0.0069,-0.0307,-0.0326,0.0043,-0.0001,0.023,-2.1562,18.5063,41.8125,,0.0008469999999999867,0.04530849809914251,0.03608146970081261,non_fall
0.400451,-0.0069,-0.0307,-0.0326,-0.0053,0.0012,0.0025,-2.1562,18.5063,41.8125,,0.018340999999999996,0.04530849809914251,0.03958734907574929,non_fall
0.415351,-0.0069,-0.0307,-0.0326,-0.0053,0.0012,0.0025,-2.1188,18.45,41.8125,,0.014900000000000024,0.04530849809914251,0.0435490461715779,non_fall
0.442614,-0.0069,-0.0307,-0.0326,-0.0053,0.0012,0.0025,-2.1188,18.45,41.8125,,0.02726299999999998,0.04530849809914251,0.047124096055172315,non_fall
0.462651,-0.0069,-0.0307,-0.0326,-0.0028,0.0158,0.0152,-2.1188,18.45,41.8125,,0.02003699999999997,0.04530849809914251,0.04948681924177729,non_fall
0.463778,-0.038,0.0405,0.0168,-0.0028,0.0158,0.0152,-2.1188,18.45,41.8125,,0.0011270000000000446,0.05802146154656913,0.05002406736818546,non_fall
0.47294,-0.038,0.0405,0.0168,-0.0028,0.0158,0.0152,-2.0063,18.3375,41.925,,0.009162000000000003,0.05802146154656913,0.04848663956202202,non_fall
0.503415,-0.038,0.0405,0.0168,-0.0028,0.0158,0.0152,-2.0063,18.3375,41.925,,0.03047499999999992,0.05802146154656913,0.04506434503693863,non_fall
0.523566,-0.038,0.0405,0.0168,-0.0011,0.0119,0.006,-2.0063,18.3375,41.925,,0.02015100000000003,0.05802146154656913,0.04036075736810266,non_fall
0.525036,-0.0155,0.0022,0.0068,-0.0011,0.0119,0.006,-2.0063,18.3375,41.925,,0.0014699999999999713,0.01706839183988931,0.035263127317296056,non_fall
0.532632,-0.0155,0.0022,0.0068,-0.0011,0.0119,0.006,-2.0063,18.1688,41.9062,,0.007596000000000047,0.01706839183988931,0.030733153234283772,non_fall
0.563645,-0.0155,0.0022,0.0068,-0.0011,0.0119,0.006,-2.0063,18.1688,41.9062,,0.031012999999999957,0.01706839183988931,0.027573697367993727,non_fall
0.584263,-0.0155,0.0022,0.0068,-0.0103,0.0148,0.0064,-2.0063,18.1688,41.9062,,0.020618000000000025,0.01706839183988931,0.02623826481681806,non_fall
0.584817,-0.0299,0.0024,-0.0035,-0.0103,0.0148,0.0064,-2.0063,18.1688,41.9062,,0.0005540000000000544,0.030199668872356863,0.026735778646501417,non_fall
0.591393,-0.0299,0.0024,-0.0035,-0.0103,0.0148,0.0064,-1.9875,18.0375,42.075,,0.006575999999999915,0.030199668872356863,0.028650926660958233,non_fall
0.623662,-0.0299,0.0024,-0.0035,-0.0103,0.0148,0.0064,-1.9875,18.0375,42.075,,0.0322690000000001,0.030199668872356863,0.031266952805329644,non_fall
0.645859,-0.0299,0.0024,-0.0035,-0.0152,0.0027,0.0036,-1.9875,18.0375,42.075,,0.02219699999999991,0.030199668872356863,0.03375537802294146,non_fall
0.646842,-0.0375,0.011,0.0226,-0.0152,0.0027,0.0036,-1.9875,18.0375,42.075,,0.0009830000000000672,0.045144324117213225,0.03538746561351689,non_fall
0.649729,-0.0375,0.011,0.0226,-0.0152,0.0027,0.0036,-1.95,18.0938,42.0563,,0.002886999999999973,0.045144324117213225,0.035720415394315974,non_fall
0.688362,-0.0375,0.011,0.0226,-0.0152,0.0027,0.0036,-1.95,18.0938,42.0563,,0.03863300000000003,0.045144324117213225,0.03471400458633483,non_fall
0.706029,-0.0375,0.011,0.0226,-0.0096,-0.0023,0.0124,-1.95,18.0938,42.0563,,0.01766699999999999,0.045144324117213225,0.03274313389490056,non_fall
0.711851,-0.0375,0.011,0.0226,-0.0096,-0.0023,0.0124,-1.95,18.15,42.075,,0.005821999999999994,0.045144324117213225,0.030492471239510936,non_fall
0.726004,-0.0064,0.0018,0.0005,-0.0096,-0.0023,0.0124,-1.95,18.15,42.075,,0.014152999999999971,0.006667083320313314,0.028750793132559318,non_fall
0.746477,-0.0064,0.0018,0.0005,-0.0096,-0.0023,0.0124,-1.95,18.15,42.075,,0.020472999999999963,0.006667083320313314,0.028158199197108873,non_fall
0.766748,-0.0064,0.0018,0.0005,-0.0071,0.0087,0.0216,-1.95,18.15,42.075,,0.02027100000000004,0.006667083320313314,0.028985944482850353,non_fall
0.771843,-0.0064,0.0018,0.0005,-0.0071,0.0087,0.0216,-1.8188,18.0938,42.2812,,0.005094999999999961,0.006667083320313314,0.031029460673535583,non_fall
0.786965,0.0519,-0.0144,-0.0024,-0.0071,0.0087,0.0216,-1.8188,18.0938,42.2812,,0.01512200000000008,0.05391409834171393,0.033661331111001065,non_fall
0.806948,0.0519,-0.0144,-0.0024,-0.0071,0.0087,0.0216,-1.8188,18.0938,42.2812,,0.019982999999999973,0.05391409834171393,0.03603228631405046,non_fall
0.825635,0.0519,-0.0144,-0.0024,-0.0205,-0.0031,0.0294,-1.8188,18.0938,42.2812,,0.01868700000000001,0.05391409834171393,0.037350786898108036,non_fall
0.831556,0.0519,-0.0144,-0.0024,-0.0205,-0.0031,0.0294,-1.8375,18.0563,42.3,,0.005920999999999954,0.05391409834171393,0.037143176459385814,non_fall
0.84838,-0.0114,0.0233,0.0184,-0.0205,-0.0031,0.0294,-1.8375,18.0563,42.3,,0.01682400000000006,0.03180267284364634,0.03540865139544289,non_fall
0.868595,-0.0114,0.0233,0.0184,-0.0205,-0.0031,0.0294,-1.8375,18.0563,42.3,,0.020214999999999983,0.03180267284364634,0.03262571097060397,non_fall
0.890256,-0.0114,0.0233,0.0184,-0.0209,0.002,0.0422,-1.8375,18.0563,42.3,,0.02166100000000004,0.03180267284364634,0.029616159840951724,non_fall
0.892136,-0.0114,0.0233,0.0184,-0.0209,0.002,0.0422,-1.7625,18.0563,42.3375,,0.0018799999999999928,0.03180267284364634,0.027310213055547417,non_fall
0.928877,0.0104,0.0008,-0.0058,-0.0209,0.002,0.0422,-1.7625,18.0563,42.3375,,0.03674099999999991,0.011934822998268552,0.026476202841346996,non_fall
0.930055,0.0104,0.0008,-0.0058,-0.0209,0.002,0.0422,-1.7625,18.0563,42.3375,,0.0011780000000000124,0.011934822998268552,0.027485430059819915,non_fall
0.949675,0.0104,0.0008,-0.0058,-0.028,-0.0059,0.0599,-1.7625,18.0563,42.3375,,0.019620000000000082,0.011934822998268552,0.03018061276862004,non_fall
0.951292,0.0104,0.0008,-0.0058,-0.028,-0.0059,0.0599,-1.7625,18.1688,42.3,,0.0016169999999999796,0.011934822998268552,0.03390137656418907,non_fall
0.991303,0.0104,0.0008,-0.0058,-0.028,-0.0059,0.0599,-1.7625,18.1688,42.3,,0.04001100000000002,0.011934822998268552,0.03768627520869066,non_fall
0.992286,0.0801,-0.0067,0.0174,-0.028,-0.0059,0.0599,-1.7625,18.1688,42.3,,0.0009829999999999561,0.08224147372220418,0.04061821329060537,non_fall
1.010175,0.0801,-0.0067,0.0174,-0.0418,-0.0097,0.0699,-1.7625,18.1688,42.3,,0.017889000000000044,0.08224147372220418,0.04221964269538067,non_fall
1.011486,0.0801,-0.0067,0.0174,-0.0418,-0.0097,0.0699,-1.65,18.3188,42.4688,,0.0013110000000000621,0.08224147372220418,0.04275923543021962,non_fall
1.051566,0.0801,-0.0067,0.0174,-0.0418,-0.0097,0.0699,-1.65,18.3188,42.4688,,0.040079999999999893,0.08224147372220418,0.04333356313581857,non_fall
1.052552,0.0063,0.012,0.0208,-0.0418,-0.0097,0.0699,-1.65,18.3188,42.4688,,0.0009859999999999314,0.024825994441310905,0.045651313352399664,non_fall
1.073316,0.0063,0.012,0.0208,-0.0294,0.0924,0.1108,-1.65,18.3188,42.4688,,0.020764000000000005,0.024825994441310905,0.051555779540480504,non_fall
1.074402,0.0063,0.012,0.0208,-0.0294,0.0924,0.1108,-1.6125,18.2625,42.4125,,0.0010860000000001424,0.024825994441310905,0.06242901093228502,non_fall
1.112246,0.0063,0.012,0.0208,-0.0294,0.0924,0.1108,-1.6125,18.2625,42.4125,,0.03784399999999999,0.024825994441310905,0.07868147638278296,non_fall
1.134414,0.0063,0.012,0.0208,-0.0294,0.0924,0.1108,-1.575,18.3,42.3,,0.022167999999999966,0.024825994441310905,0.09951828918290613,non_fall
1.135594,0.1719,-0.0387,0.0658,-0.0294,0.0924,0.1108,-1.575,18.3,42.3,,0.0011799999999999589,0.18808758598057448,0.12308826687048245,non_fall
1.136323,0.1719,-0.0387,0.0658,0.0724,0.591,0.2304,-1.575,18.3,42.3,,0.0007289999999999797,0.18808758598057448,0.14699050504448205,non_fall
1.17369,0.1719,-0.0387,0.0658,0.0724,0.591,0.2304,-1.575,18.3,42.3,,0.03736699999999993,0.18808758598057448,0.16898363150842768,non_fall
1.192158,0.1719,-0.0387,0.0658,0.0724,0.591,0.2304,-1.6125,18.2625,42.375,,0.01846800000000015,0.18808758598057448,0.18767512741811884,non_fall
1.193215,0.1991,-0.0756,-0.1065,0.0724,0.591,0.2304,-1.6125,18.2625,42.375,,0.0010569999999998636,0.23811430028454822,0.20298887996056184,non_fall
1.194074,0.1991,-0.0756,-0.1065,-0.0301,-0.0127,0.0656,-1.6125,18.2625,42.375,,0.0008590000000001652,0.23811430028454822,0.21628803700890192,non_fall
1.234073,0.1991,-0.0756,-0.1065,-0.0301,-0.0127,0.0656,-1.6125,18.2625,42.375,,0.039998999999999896,0.23811430028454822,0.2301188223589047,non_fall
1.251699,0.1991,-0.0756,-0.1065,-0.0301,-0.0127,0.0656,-1.7438,18.375,42.3188,,0.01762599999999992,0.23811430028454822,0.24761967227473786,non_fall
1.252816,0.1991,-0.0756,-0.1065,0.1178,0.4798,0.1941,-1.7438,18.375,42.3188,,0.0011170000000000346,0.23811430028454822,0.27171018381946177,non_fall
1.253575,-0.263,0.1351,-0.1286,0.1178,0.4798,0.1941,-1.7438,18.375,42.3188,,0.0007590000000001762,0.32242668934193397,0.3042280126291628,non_fall
1.294943,-0.263,0.1351,-0.1286,0.1178,0.4798,0.1941,-1.7438,18.375,42.3188,,0.04136799999999985,0.32242668934193397,0.3452030972804602,non_fall
1.31049,-0.263,0.1351,-0.1286,0.1178,0.4798,0.1941,-2.0813,18.3938,42.1125,,0.015546999999999978,0.32242668934193397,0.3924445658844446,non_fall
1.313055,-0.263,0.1351,-0.1286,-0.0181,0.0996,0.1711,-2.0813,18.3938,42.1125,,0.0025650000000001505,0.32242668934193397,0.4415750790251285,non_fall
1.313419,0.3941,-0.2849,0.3014,-0.0181,0.0996,0.1711,-2.0813,18.3938,42.1125,,0.0003639999999998089,0.5721230462059713,0.48657510056678,non_fall
1.354788,0.3941,-0.2849,0.3014,-0.0181,0.0996,0.1711,-2.0813,18.3938,42.1125,,0.04136900000000021,0.5721230462059713,0.5207798448011911,non_fall
1.371317,0.3941,-0.2849,0.3014,-0.0181,0.0996,0.1711,-2.4938,18.5813,41.9625,,0.016528999999999794,0.5721230462059713,0.5381272002819828,non_fall
1.374118,0.3941,-0.2849,0.3014,-0.0081,-0.0044,0.1281,-2.4938,18.5813,41.9625,,0.0028010000000000534,0.5721230462059713,0.5343626108480539,non_fall
1.396503,-0.1967,0.2394,-0.3512,-0.0081,-0.0044,0.1281,-2.4938,18.5813,41.9625,,0.0223850000000001,0.4683424921998857,0.5079258209156254,non_fall
1.416282,-0.1967,0.2394,-0.3512,-0.0081,-0.0044,0.1281,-2.4938,18.5813,41.9625,,0.01977899999999999,0.4683424921998857,0.4603495485805803,non_fall
1.432164,-0.1967,0.2394,-0.3512,-0.0081,-0.0044,0.1281,-2.625,18.6188,41.8688,,0.01588199999999995,0.4683424921998857,0.3961149308447832,non_fall
1.436138,-0.1967,0.2394,-0.3512,-0.0341,0.0459,0.1594,-2.625,18.6188,41.8688,,0.003973999999999922,0.4683424921998857,0.32198660522595557,non_fall
1.457608,-0.0673,0.0393,0.0226,-0.0341,0.0459,0.1594,-2.625,18.6188,41.8688,,0.0214700000000001,0.08114517853822246,0.24591334410543716,non_fall
1.476576,-0.0673,0.0393,0.0226,-0.0341,0.0459,0.1594,-2.625,18.6188,41.8688,,0.018968000000000096,0.08114517853822246,0.1756754971084141,non_fall
1.492017,-0.0673,0.0393,0.0226,-0.0341,0.0459,0.1594,-3.0188,18.75,41.7375,,0.015440999999999816,0.08114517853822246,0.11757160707566637,non_fall
1.496956,-0.0673,0.0393,0.0226,-0.0635,-0.0161,0.1541,-3.0188,18.75,41.7375,,0.004939000000000027,0.08114517853822246,0.07546721901979478,non_fall
1.517248,-0.0093,0.0448,0.0308,-0.0635,-0.0161,0.1541,-3.0188,18.75,41.7375,,0.020291999999999977,0.05515587004118419,0.05041729550309714,non_fall
1.537731,-0.0093,0.0448,0.0308,-0.0635,-0.0161,0.1541,-3.0188,18.75,41.7375,,0.02048300000000003,0.05515587004118419,0.04088176071118599,non_fall
1.551562,-0.0093,0.0448,0.0308,-0.0635,-0.0161,0.1541,-3.2063,18.7688,41.5312,,0.013831000000000149,0.05515587004118419,0.04339654652049536,non_fall
1.558169,-0.0093,0.0448,0.0308,-0.0989,0.0158,0.176,-3.2063,18.7688,41.5312,,0.0066069999999998075,0.05515587004118419,0.05349307521110491,non_fall
1.577175,0.0353,-0.0125,0.0955,-0.0989,0.0158,0.176,-3.2063,18.7688,41.5312,,0.01900600000000008,0.10257967634965515,0.06665743746348725,non_fall
1.59949,0.0353,-0.0125,0.0955,-0.0989,0.0158,0.176,-3.2063,18.7688,41.5312,,0.022315000000000085,0.10257967634965515,0.07915086084021977,non_fall
1.611749,0.0353,-0.0125,0.0955,-0.0989,0.0158,0.176,-3.3938,18.825,41.7188,,0.01225900000000002,0.10257967634965515,0.08855833770047404,non_fall
1.619417,0.0353,-0.0125,0.0955,-0.1473,-0.0896,0.1775,-3.3938,18.825,41.7188,,0.007668000000000008,0.10257967634965515,0.09399147195072971,non_fall
1.660101,0.0353,-0.0125,0.0955,-0.1473,-0.0896,0.1775,-3.3938,18.825,41.7188,,0.04068399999999994,0.10257967634965515,0.09594304491224999,non_fall
1.661646,0.0109,0.0195,0.0689,-0.1473,-0.0896,0.1775,-3.3938,18.825,41.7188,,0.0015449999999999076,0.07243113971214314,0.09586262669835546,non_fall
1.67189,0.0109,0.0195,0.0689,-0.1473,-0.0896,0.1775,-3.5813,18.9,41.5875,,0.010244000000000142,0.07243113971214314,0.09557841070598394,non_fall
1.680253,0.0109,0.0195,0.0689,-0.1381,-0.0762,0.2148,-3.5813,18.9,41.5875,,0.008362999999999898,0.07243113971214314,0.0967175950390923,non_fall
1.720937,0.0109,0.0195,0.0689,-0.1381,-0.0762,0.2148,-3.5813,18.9,41.5875,,0.04068399999999994,0.07243113971214314,0.10026846104126477,non_fall
1.722382,0.0902,-0.0289,0.0681,-0.1381,-0.0762,0.2148,-3.5813,18.9,41.5875,,0.0014450000000001406,0.11665701864868655,0.10638178007901766,non_fall
1.732837,0.0902,-0.0289,0.0681,-0.1381,-0.0762,0.2148,-3.5625,18.7875,41.4938,,0.010454999999999881,0.11665701864868655,0.1144394648391884,non_fall
1.741621,0.0902,-0.0289,0.0681,-0.11,-0.1109,0.2744,-3.5625,18.7875,41.4938,,0.008784000000000125,0.11665701864868655,0.12334671873770407,non_fall
1.781997,0.1248,-0.0767,-0.0636,-0.11,-0.1109,0.2744,-3.5625,18.7875,41.4938,,0.04037599999999997,0.15969624291134718,0.13195184852684042,non_fall
1.784044,0.1248,-0.0767,-0.0636,-0.11,-0.1109,0.2744,-3.5625,18.7875,41.4938,,0.00204699999999991,0.15969624291134718,0.13947501834610937,non_fall
1.791835,0.1248,-0.0767,-0.0636,-0.11,-0.1109,0.2744,-3.075,18.7313,41.7375,,0.007791000000000103,0.15969624291134718,0.14583182699502015,non_fall
1.801385,0.1248,-0.0767,-0.0636,-0.12,-0.0435,0.3469,-3.075,18.7313,41.7375,,0.009549999999999947,0.15969624291134718,0.15176618168108055,non_fall
1.842426,0.1248,-0.0767,-0.0636,-0.12,-0.0435,0.3469,-3.075,18.7313,41.7375,,0.04104099999999988,0.15969624291134718,0.15875523405886385,lateral_fall
1.850848,0.1248,-0.0767,-0.0636,-0.12,-0.0435,0.3469,-2.6438,18.3563,41.9813,,0.008422000000000152,0.15969624291134718,0.1687053839191901,lateral_fall
1.8643,0.1578,-0.0461,0.1038,-0.12,-0.0435,0.3469,-2.6438,18.3563,41.9813,,0.01345200000000002,0.19442348109217672,0.18350618755796477,lateral_fall
1.865243,0.1578,-0.0461,0.1038,-0.1775,0.0783,0.4509,-2.6438,18.3563,41.9813,,0.0009429999999999161,0.19442348109217672,0.2045384160528738,lateral_fall
1.903764,0.1578,-0.0461,0.1038,-0.1775,0.0783,0.4509,-2.6438,18.3563,41.9813,,0.03852100000000003,0.19442348109217672,0.23224388563762038,lateral_fall
1.911366,0.1578,-0.0461,0.1038,-0.1775,0.0783,0.4509,-2.5875,18.0188,42.1125,,0.007601999999999887,0.19442348109217672,0.26586068448981665,lateral_fall
1.924364,0.2517,-0.2031,0.1824,-0.1775,0.0783,0.4509,-2.5875,18.0188,42.1125,,0.012998000000000065,0.37131154035391895,0.30340133591792123,lateral_fall
1.925346,0.2517,-0.2031,0.1824,-0.4654,0.0854,0.5095,-2.5875,18.0188,42.1125,,0.0009820000000000384,0.37131154035391895,0.34189413299522725,lateral_fall
1.964342,0.2517,-0.2031,0.1824,-0.4654,0.0854,0.5095,-2.5875,18.0188,42.1125,,0.03899600000000003,0.37131154035391895,0.3778362367648165,lateral_fall
1.972629,0.2517,-0.2031,0.1824,-0.4654,0.0854,0.5095,-2.1938,17.475,42.2812,,0.008286999999999933,0.37131154035391895,0.4077659802357637,lateral_fall
1.984911,0.2517,-0.2031,0.1824,-0.6254,0.102,0.6035,-2.1938,17.475,42.2812,,0.012282000000000126,0.37131154035391895,0.428872748830896,lateral_fall
1.986173,0.242,0.1073,0.403,-0.6254,0.102,0.6035,-2.1938,17.475,42.2812,,0.0012619999999998743,0.48216832123232656,0.4395885910433025,lateral_fall
2.02631,0.242,0.1073,0.403,-0.6254,0.102,0.6035,-2.1938,17.475,42.2812,,0.04013700000000009,0.48216832123232656,0.44009407708776166,lateral_fall
2.03403,0.242,0.1073,0.403,-0.6254,0.102,0.6035,-1.9688,16.8375,42.7125,,0.007719999999999949,0.48216832123232656,0.4326226632224289,lateral_fall
2.045729,0.242,0.1073,0.403,-0.3226,0.0076,0.6872,-1.9688,16.8375,42.7125,,0.011699000000000126,0.48216832123232656,0.4214192993575599,lateral_fall
2.046832,0.22,-0.328,-0.0124,-0.3226,0.0076,0.6872,-1.9688,16.8375,42.7125,,0.0011030000000000761,0.3951427083978648,0.41225224368787705,lateral_fall
2.086016,0.22,-0.328,-0.0124,-0.3226,0.0076,0.6872,-1.9688,16.8375,42.7125,,0.039183999999999664,0.3951427083978648,0.41149142413046136,lateral_fall
2.091053,0.22,-0.328,-0.0124,-0.3226,0.0076,0.6872,-1.5938,16.05,42.9938,,0.00503700000000018,0.3951427083978648,0.424903811420084,lateral_fall
2.108929,0.22,-0.328,-0.0124,-0.5708,0.1844,0.8662,-1.5938,16.05,42.9938,,0.01787599999999978,0.3951427083978648,0.45641632636990576,lateral_fall
2.126499,0.4983,-0.2305,0.0996,-0.5708,0.1844,0.8662,-1.5938,16.05,42.9938,,0.017570000000000086,0.5579904121040075,0.5071231381874818,lateral_fall
2.147289,0.4983,-0.2305,0.0996,-0.5708,0.1844,0.8662,-1.5938,16.05,42.9938,,0.020789999999999864,0.5579904121040075,0.5747705519175906,lateral_fall
2.149899,0.4983,-0.2305,0.0996,-0.5708,0.1844,0.8662,-1.2563,15.0,43.5,,0.0026100000000002233,0.5579904121040075,0.6538761649115921,lateral_fall
2.172287,0.4983,-0.2305,0.0996,-1.1364,0.473,1.0746,-1.2563,15.0,43.5,,0.022387999999999852,0.5579904121040075,0.7365642696491254,lateral_fall
2.188001,0.2886,-0.2925,0.809,-1.1364,0.473,1.0746,-1.2563,15.0,43.5,,0.015714000000000006,0.9073737983874122,0.8141136232462104,lateral_fall
2.207893,0.2886,-0.2925,0.809,-1.1364,0.473,1.0746,-1.2563,15.0,43.5,,0.01989200000000002,0.9073737983874122,0.8790675752781302,lateral_fall
2.211702,0.2886,-0.2925,0.809,-1.1364,0.473,1.0746,-1.2188,13.575,43.8563,,0.0038089999999999513,0.9073737983874122,0.9275507548085613,lateral_fall
2.228374,0.2886,-0.2925,0.809,-1.8641,1.2275,1.4575,-1.2188,13.575,43.8563,,0.016672000000000242,0.9073737983874122,0.9612563706627364,lateral_fall
2.249562,0.3655,-0.5838,1.1621,-1.8641,1.2275,1.4575,-1.2188,13.575,43.8563,,0.021187999999999985,1.3508845620555443,0.9884900494781709,lateral_fall
2.269749,0.3655,-0.5838,1.1621,-1.8641,1.2275,1.4575,-1.2188,13.575,43.8563,,0.020186999999999955,1.3508845620555443,1.0236857979111957,lateral_fall
2.27551,0.3655,-0.5838,1.1621,-1.8641,1.2275,1.4575,-1.7063,11.5688,44.2875,,0.005761000000000127,1.3508845620555443,1.084976209914451,lateral_fall
2.289086,0.3655,-0.5838,1.1621,-2.3604,0.8657,1.7767,-1.7063,11.5688,44.2875,,0.013576000000000032,1.3508845620555443,1.1898156815505725,lateral_fall
2.329296,0.3655,-0.5838,1.1621,-2.3604,0.8657,1.7767,-1.7063,11.5688,44.2875,,0.040209999999999635,1.3508845620555443,1.3493817025881405,lateral_fall
2.330372,-0.0027,-0.2328,0.6574,-2.3604,0.8657,1.7767,-1.7063,11.5688,44.2875,,0.001076000000000299,0.6974079795930069,1.5633672128204827,lateral_fall
2.331418,-0.0027,-0.2328,0.6574,-2.3604,0.8657,1.7767,-2.8125,8.9625,44.5875,,0.0010460000000001024,0.6974079795930069,1.8174809089786494,lateral_fall
2.351429,-0.0027,-0.2328,0.6574,-2.6905,4.0624,2.0405,-2.8125,8.9625,44.5875,,0.02001099999999978,0.6974079795930069,2.0860264675664126,lateral_fall
2.392652,-0.0027,-0.2328,0.6574,-2.6905,4.0624,2.0405,-2.8125,8.9625,44.5875,,0.04122300000000001,0.6974079795930069,2.3408523479542347,lateral_fall
2.393738,-0.1416,1.227,5.2667,-2.6905,4.0624,2.0405,-2.8125,8.9625,44.5875,,0.0010859999999999204,5.409594111391353,2.565519196157856,lateral_fall
2.39528,-0.1416,1.227,5.2667,-2.6905,4.0624,2.0405,-5.0438,6.075,44.325,,0.0015420000000001544,5.409594111391353,2.7702272452178405,lateral_fall
2.412003,-0.1416,1.227,5.2667,-3.3163,2.4287,2.338,-5.0438,6.075,44.325,,0.01672299999999982,5.409594111391353,3.0004921652852143,lateral_fall
2.452247,-0.1416,1.227,5.2667,-3.3163,2.4287,2.338,-8.325,1.9688,43.1063,,0.040243999999999946,5.409594111391353,3.3329039250430315,lateral_fall
2.454203,-1.4678,-0.7625,-0.7103,-3.3163,2.4287,2.338,-8.325,1.9688,43.1063,,0.001956000000000291,1.8001025470789156,3.8555603214534275,lateral_fall
2.455521,-1.4678,-0.7625,-0.7103,-3.3163,2.4287,2.338,-8.325,1.9688,43.1063,,0.0013179999999999303,1.8001025470789156,4.637555956461951,lateral_fall
2.472303,-1.4678,-0.7625,-0.7103,-5.0286,-1.0314,1.3863,-8.325,1.9688,43.1063,,0.016782000000000075,1.8001025470789156,5.6980189044358,lateral_fall
2.512044,-1.4678,-0.7625,-0.7103,-5.0286,-1.0314,1.3863,-11.5312,-2.8875,40.9875,,0.039740999999999804,1.8001025470789156,6.9873200513321505,lateral_fall
2.513236,0.1557,-4.8011,-11.7248,-5.0286,-1.0314,1.3863,-11.5312,-2.8875,40.9875,,0.0011920000000000819,12.67066449480847,8.389513387569425,lateral_fall
2.514457,0.1557,-4.8011,-11.7248,-5.0286,-1.0314,1.3863,-11.5312,-2.8875,40.9875,,0.0012210000000001386,12.67066449480847,9.746792205344569,lateral_fall
2.5331,0.1557,-4.8011,-11.7248,-2.6723,-1.9104,-1.463,-11.5312,-2.8875,40.9875,,0.018642999999999965,12.67066449480847,10.897649808324637,lateral_fall
2.573336,0.1557,-4.8011,-11.7248,-2.6723,-1.9104,-1.463,-13.4813,-8.2313,39.3375,,0.040235999999999716,12.67066449480847,11.715433298197215,lateral_fall
2.575459,0.1557,-4.8011,-11.7248,-2.6723,-1.9104,-1.463,-13.4813,-8.2313,39.3375,,0.002123000000000097,12.67066449480847,12.135409912513392,lateral_fall
2.594099,0.1557,-4.8011,-11.7248,1.3192,-2.7248,-1.0445,-13.4813,-8.2313,39.3375,,0.01863999999999999,12.67066449480847,12.164315254718133,lateral_fall
2.595157,1.1847,9.1131,4.3455,1.3192,-2.7248,-1.0445,-13.4813,-8.2313,39.3375,,0.0010580000000000034,10.16540584285743,11.872751770579335,lateral_fall
2.631598,1.1847,9.1131,4.3455,1.3192,-2.7248,-1.0445,-14.6813,-12.9563,38.0813,,0.036440999999999946,10.16540584285743,11.375331894640432,lateral_fall
2.635968,1.1847,9.1131,4.3455,1.3192,-2.7248,-1.0445,-14.6813,-12.9563,38.0813,,0.004370000000000207,10.16540584285743,10.805506501969106,lateral_fall
2.655288,1.1847,9.1131,4.3455,3.6228,-2.509,0.5623,-14.6813,-12.9563,38.0813,,0.019320000000000004,10.16540584285743,10.291643126002942,lateral_fall
2.656652,6.4589,-7.9466,1.3044,3.6228,-2.509,0.5623,-14.6813,-12.9563,38.0813,,0.0013639999999996988,10.323143907260036,9.938657194975159,lateral_fall
2.692278,6.4589,-7.9466,1.3044,3.6228,-2.509,0.5623,-15.1313,-15.9188,37.5,,0.03562600000000016,10.323143907260036,9.816593799296632,lateral_fall
2.694469,6.4589,-7.9466,1.3044,3.6228,-2.509,0.5623,-15.1313,-15.9188,37.5,,0.002190999999999832,10.323143907260036,9.955375991627442,lateral_fall
2.714999,-6.1131,-7.3219,-4.7321,3.6228,-2.509,0.5623,-15.1313,-15.9188,37.5,,0.02053000000000038,10.647674940098424,10.344156297628224,lateral_fall
2.716987,-6.1131,-7.3219,-4.7321,-0.335,-3.259,7.1379,-15.1313,-15.9188,37.5,,0.0019879999999998788,10.647674940098424,10.934171127043074,lateral_fall
2.752363,-6.1131,-7.3219,-4.7321,-0.335,-3.259,7.1379,-16.2188,-17.9062,36.4313,,0.03537599999999985,10.647674940098424,11.64507516805924,lateral_fall
2.756263,-6.1131,-7.3219,-4.7321,-0.335,-3.259,7.1379,-16.2188,-17.9062,36.4313,,0.0039000000000002366,10.647674940098424,12.375656091136511,lateral_fall
2.776717,-6.1131,-7.3219,-4.7321,-0.9638,7.5784,4.6693,-16.2188,-17.9062,36.4313,,0.020453999999999972,10.647674940098424,13.019812269720854,lateral_fall
2.797124,-6.5161,-3.6116,-14.6243,-0.9638,7.5784,4.6693,-16.2188,-17.9062,36.4313,,0.020407000000000064,16.412597730402094,13.487071659328423,lateral_fall
2.810588,-6.5161,-3.6116,-14.6243,-0.9638,7.5784,4.6693,-19.3125,-18.5063,33.4688,,0.01346399999999992,16.412597730402094,13.723812692015994,lateral_fall
2.816525,-6.5161,-3.6116,-14.6243,-0.9638,7.5784,4.6693,-19.3125,-18.5063,33.4688,,0.005936999999999859,16.412597730402094,13.728263835658908,lateral_fall
2.836728,-6.5161,-3.6116,-14.6243,2.5553,11.5054,1.5073,-19.3125,-18.5063,33.4688,,0.02020299999999997,16.412597730402094,13.551925884885003,lateral_fall
2.857333,-2.2124,-1.0627,9.7004,2.5553,11.5054,1.5073,-19.3125,-18.5063,33.4688,,0.020605000000000206,10.00608840706497,13.283911539086997,lateral_fall
2.872032,-2.2124,-1.0627,9.7004,2.5553,11.5054,1.5073,-22.1063,-17.3625,27.6375,,0.014698999999999796,10.00608840706497,13.02166961078718,lateral_fall
2.876654,-2.2124,-1.0627,9.7004,2.5553,11.5054,1.5073,-22.1063,-17.3625,27.6375,,0.004621999999999904,10.00608840706497,12.83807839157089,lateral_fall
2.898678,-2.2124,-1.0627,9.7004,1.2408,2.9929,1.4437,-22.1063,-17.3625,27.6375,,0.022024000000000044,10.00608840706497,12.757160199588279,lateral_fall
2.917634,-5.5249,0.0719,13.8427,1.2408,2.9929,1.4437,-22.1063,-17.3625,27.6375,,0.018956000000000195,14.90469835018475,12.747157937170638,lateral_fall
2.930333,-5.5249,0.0719,13.8427,1.2408,2.9929,1.4437,-24.2625,-14.9813,22.95,,0.012699000000000016,14.90469835018475,12.732230713771804,lateral_fall
2.937979,-5.5249,0.0719,13.8427,1.2408,2.9929,1.4437,-24.2625,-14.9813,22.95,,0.00764599999999982,14.90469835018475,12.616531076004032,lateral_fall
2.959628,-5.5249,0.0719,13.8427,0.4392,-4.0284,-0.2123,-24.2625,-14.9813,22.95,,0.02164900000000003,14.90469835018475,12.310638314019803,lateral_fall
2.980122,-3.5039,4.461,6.8132,0.4392,-4.0284,-0.2123,-24.2625,-14.9813,22.95,,0.020494000000000234,8.865524826540165,11.751708974028139,lateral_fall
2.992992,-3.5039,4.461,6.8132,0.4392,-4.0284,-0.2123,-26.3813,-11.8875,20.5312,,0.012869999999999937,8.865524826540165,10.913814700078856,lateral_fall
3.001949,-3.5039,4.461,6.8132,0.4392,-4.0284,-0.2123,-26.3813,-11.8875,20.5312,,0.008957000000000104,8.865524826540165,9.810322734249931,lateral_fall
3.018996,-3.5039,4.461,6.8132,-2.5787,-1.9477,-3.0608,-26.3813,-11.8875,20.5312,,0.017046999999999812,8.865524826540165,8.492521819945638,lateral_fall
3.052329,-3.5039,4.461,6.8132,-2.5787,-1.9477,-3.0608,-29.6063,-9.9,17.9813,,0.033332999999999835,8.865524826540165,7.047078348156743,lateral_fall
3.060935,-3.5039,4.461,6.8132,-2.5787,-1.9477,-3.0608,-29.6063,-9.9,17.9813,,0.008606000000000336,8.865524826540165,5.591413145592475,lateral_fall
3.062553,2.3241,-0.6259,-0.143,-2.5787,-1.9477,-3.0608,-29.6063,-9.9,17.9813,,0.0016179999999996753,2.4111492322127224,4.263984586884053,lateral_fall
3.080771,2.3241,-0.6259,-0.143,-2.644,-0.2756,-3.9015,-29.6063,-9.9,17.9813,,0.018218000000000067,2.4111492322127224,3.2075457526182714,lateral_fall
3.111535,2.3241,-0.6259,-0.143,-2.644,-0.2756,-3.9015,-33.525,-9.2063,14.2688,,0.030764000000000014,2.4111492322127224,2.5468030427289423,lateral_fall
3.122099,2.3241,-0.6259,-0.143,-2.644,-0.2756,-3.9015,-33.525,-9.2063,14.2688,,0.010564000000000018,2.4111492322127224,2.364928649958407,lateral_fall
3.122777,1.2214,0.4697,-2.1892,-2.644,-0.2756,-3.9015,-33.525,-9.2063,14.2688,,0.0006780000000001785,2.5504965575354146,2.6842427517933745,lateral_fall
3.14081,1.2214,0.4697,-2.1892,3.3047,4.2503,-0.3015,-33.525,-9.2063,14.2688,,0.018032999999999966,2.5504965575354146,3.4554773289680356,lateral_fall
3.172201,1.2214,0.4697,-2.1892,3.3047,4.2503,-0.3015,-38.1188,-9.4875,9.8063,,0.031390999999999725,2.5504965575354146,4.558728054115834,lateral_fall
3.182275,1.2214,0.4697,-2.1892,3.3047,4.2503,-0.3015,-38.1188,-9.4875,9.8063,,0.01007400000000036,2.5504965575354146,5.817865614021351,lateral_fall
3.183537,-4.2935,9.179,0.087,3.3047,4.2503,-0.3015,-38.1188,-9.4875,9.8063,,0.0012619999999996523,10.133891268905543,7.027980472345135,lateral_fall
3.202596,-4.2935,9.179,0.087,2.294,-0.4593,1.1452,-38.1188,-9.4875,9.8063,,0.01905900000000038,10.133891268905543,7.99176563832291,lateral_fall
3.231508,-4.2935,9.179,0.087,2.294,-0.4593,1.1452,-41.7563,-9.5813,6.2063,,0.028911999999999605,10.133891268905543,8.55672280648284,lateral_fall
3.243284,-4.2935,9.179,0.087,2.294,-0.4593,1.1452,-41.7563,-9.5813,6.2063,,0.01177600000000023,10.133891268905543,8.643311507797478,lateral_fall
3.263941,-4.2935,9.179,0.087,2.0746,-0.5486,1.0334,-41.7563,-9.5813,6.2063,,0.020656999999999925,10.133891268905543,8.256358569095356,lateral_fall
3.267282,-3.3556,3.2127,0.2658,2.0746,-0.5486,1.0334,-41.7563,-9.5813,6.2063,,0.0033409999999998163,4.653186251376577,7.477329228966296,lateral_fall
3.292409,-3.3556,3.2127,0.2658,2.0746,-0.5486,1.0334,-42.7875,-9.7688,4.8375,,0.025127000000000344,4.653186251376577,6.440983000640196,lateral_fall
3.304596,-3.3556,3.2127,0.2658,2.0746,-0.5486,1.0334,-42.7875,-9.7688,4.8375,,0.012186999999999948,4.653186251376577,5.304152688533221,lateral_fall
3.326457,-3.3556,3.2127,0.2658,0.5591,0.0158,0.1278,-42.7875,-9.7688,4.8375,,0.02186099999999991,4.653186251376577,4.215364775350138,lateral_fall
3.328241,0.7645,1.4462,-1.9355,0.5591,0.0158,0.1278,-42.7875,-9.7688,4.8375,,0.0017839999999997858,2.534189207616511,3.2917790125281647,lateral_fall
3.353249,0.7645,1.4462,-1.9355,0.5591,0.0158,0.1278,-42.7125,-10.725,6.45,,0.02500800000000014,2.534189207616511,2.606267879125667,lateral_fall
3.365881,0.7645,1.4462,-1.9355,0.5591,0.0158,0.1278,-42.7125,-10.725,6.45,,0.012631999999999977,2.534189207616511,2.184425529877582,lateral_fall
3.38436,0.7645,1.4462,-1.9355,0.0324,0.4961,0.3787,-42.7125,-10.725,6.45,,0.018479000000000134,2.534189207616511,2.009557023715322,lateral_fall
3.38528,0.6951,0.4619,-2.0593,0.0324,0.4961,0.3787,-42.7125,-10.725,6.45,,0.0009199999999998099,2.221988323551679,2.0329049485261907,lateral_fall
3.413769,0.6951,0.4619,-2.0593,0.0324,0.4961,0.3787,-42.675,-11.9813,8.2313,,0.028488999999999987,2.221988323551679,2.186276271694924,lateral_fall
3.427016,0.6951,0.4619,-2.0593,0.0324,0.4961,0.3787,-42.675,-11.9813,8.2313,,0.01324700000000023,2.221988323551679,2.3947769777257686,lateral_fall
3.446401,0.6951,0.4619,-2.0593,-0.2796,-0.0336,0.4831,-42.675,-11.9813,8.2313,,0.019384999999999764,2.221988323551679,2.5882264381301945,lateral_fall
3.447933,-0.5349,0.9758,-2.848,-0.2796,-0.0336,0.4831,-42.675,-11.9813,8.2313,,0.0015320000000000888,3.057680109167733,2.7104979099784967,lateral_fall
3.472606,-0.5349,0.9758,-2.848,-0.2796,-0.0336,0.4831,-42.7313,-12.8813,8.4563,,0.024672999999999945,3.057680109167733,2.7262336921148482,lateral_fall
3.487033,-0.5349,0.9758,-2.848,-0.2796,-0.0336,0.4831,-42.7313,-12.8813,8.4563,,0.014426999999999968,3.057680109167733,2.624265910858925,lateral_fall
3.505644,-0.5349,0.9758,-2.848,-0.0369,-0.1248,0.0352,-42.7313,-12.8813,8.4563,,0.018611000000000377,3.057680109167733,2.417082106455681,lateral_fall
3.530592,0.7942,-0.9626,0.5722,-0.0369,-0.1248,0.0352,-42.7313,-12.8813,8.4563,,0.024947999999999748,1.372867524563095,2.1361842948539156,lateral_fall
3.532938,0.7942,-0.9626,0.5722,-0.0369,-0.1248,0.0352,-42.8813,-12.1313,8.5312,,0.0023460000000001813,1.372867524563095,1.8241754427352912,lateral_fall
3.549188,0.7942,-0.9626,0.5722,-0.0369,-0.1248,0.0352,-42.8813,-12.1313,8.5312,,0.016249999999999876,1.372867524563095,1.5253861122579497,lateral_fall
3.56736,0.7942,-0.9626,0.5722,0.0164,-0.237,-0.3149,-42.8813,-12.1313,8.5312,,0.018171999999999855,1.372867524563095,1.277212991778554,lateral_fall
3.587956,0.9047,-0.1274,-0.1658,0.0164,-0.237,-0.3149,-42.8813,-12.1313,8.5312,,0.02059600000000028,0.9285485932357014,1.1038774702289922,lateral_fall
3.590289,0.9047,-0.1274,-0.1658,0.0164,-0.237,-0.3149,-43.0875,-10.6313,9.3375,,0.0023329999999996964,0.9285485932357014,1.013426725370719,lateral_fall
3.610366,0.9047,-0.1274,-0.1658,0.0164,-0.237,-0.3149,-43.0875,-10.6313,9.3375,,0.020077000000000123,0.9285485932357014,0.9980306215829434,lateral_fall
3.628902,0.9047,-0.1274,-0.1658,-0.0646,-0.1784,-0.5847,-43.0875,-10.6313,9.3375,,0.018536000000000108,0.9285485932357014,1.0371430425693526,lateral_fall
3.650392,1.1833,-0.5561,-0.2357,-0.0646,-0.1784,-0.5847,-43.0875,-10.6313,9.3375,,0.02149000000000001,1.328533247608053,1.1027579421310416,lateral_fall
3.652575,1.1833,-0.5561,-0.2357,-0.0646,-0.1784,-0.5847,-43.2563,-9.5063,10.2375,,0.002183000000000046,1.328533247608053,1.1656991319490724,lateral_fall
3.67019,1.1833,-0.5561,-0.2357,-0.0646,-0.1784,-0.5847,-43.2563,-9.5063,10.2375,,0.017614999999999714,1.328533247608053,1.2017019489776097,lateral_fall
3.689219,1.1833,-0.5561,-0.2357,0.0415,-0.2977,-0.4515,-43.2563,-9.5063,10.2375,,0.019029000000000185,1.328533247608053,1.196091830910488,lateral_fall
3.712265,1.1833,-0.5561,-0.2357,0.0415,-0.2977,-0.4515,-43.35,-9.0,10.7438,,0.0230459999999999,1.328533247608053,1.1461726294810726,lateral_fall
3.730835,1.1833,-0.5561,-0.2357,0.0415,-0.2977,-0.4515,-43.35,-9.0,10.7438,,0.018569999999999975,1.328533247608053,1.0609235000317745,lateral_fall
3.733982,-0.2756,0.4682,0.3425,0.0415,-0.2977,-0.4515,-43.35,-9.0,10.7438,,0.003147000000000233,0.6422404923391237,0.9581605740066926,lateral_fall
3.753525,-0.2756,0.4682,0.3425,-0.0088,-0.0282,-0.3356,-43.35,-9.0,10.7438,,0.019542999999999644,0.6422404923391237,0.8598749585141826,lateral_fall
3.774016,-0.2756,0.4682,0.3425,-0.0088,-0.0282,-0.3356,-43.2938,-9.2625,11.1938,,0.02049100000000026,0.6422404923391237,0.7868946600709154,lateral_fall
3.793415,-0.2756,0.4682,0.3425,-0.0088,-0.0282,-0.3356,-43.2938,-9.2625,11.1938,,0.019398999999999944,0.6422404923391237,0.7541476841821306,lateral_fall
3.79452,-0.6012,0.1425,-0.5129,-0.0088,-0.0282,-0.3356,-43.2938,-9.2625,11.1938,,0.0011049999999999116,0.8030031755852526,0.767538626810421,lateral_fall
3.812055,-0.6012,0.1425,-0.5129,0.027,0.1965,-0.1136,-43.2938,-9.2625,11.1938,,0.01753500000000008,0.8030031755852526,0.8229367897060005,lateral_fall
3.831753,-0.6012,0.1425,-0.5129,0.027,0.1965,-0.1136,-43.2188,-9.5438,11.475,,0.019697999999999993,0.8030031755852526,0.9072660443491436,non_fall
3.854067,-0.6012,0.1425,-0.5129,0.027,0.1965,-0.1136,-43.2188,-9.5438,11.475,,0.022314000000000167,0.8030031755852526,1.0013337030719107,non_fall
3.855957,-0.937,0.9526,0.2127,0.027,0.1965,-0.1136,-43.2188,-9.5438,11.475,,0.0018899999999999473,1.3530177567201402,1.0838104421576056,non_fall
3.874149,-0.937,0.9526,0.2127,0.0121,0.6228,0.0312,-43.2188,-9.5438,11.475,,0.018191999999999986,1.3530177567201402,1.1355821778883972,non_fall
3.89311,-0.937,0.9526,0.2127,0.0121,0.6228,0.0312,-43.1438,-10.0125,11.475,,0.018961000000000006,1.3530177567201402,1.143545862185304,non_fall
3.913979,-0.937,0.9526,0.2127,0.0121,0.6228,0.0312,-43.1438,-10.0125,11.475,,0.020868999999999804,1.3530177567201402,1.1029652101705105,non_fall
3.915441,-0.6702,0.2276,-0.1048,0.0121,0.6228,0.0312,-43.1438,-10.0125,11.475,,0.0014620000000000744,0.7155087979892352,1.0178633467030285,non_fall
3.934016,-0.6702,0.2276,-0.1048,0.0601,0.3427,0.0117,-43.1438,-10.0125,11.475,,0.01857500000000023,0.7155087979892352,0.8995205536846972,non_fall
3.954108,-0.6702,0.2276,-0.1048,0.0601,0.3427,0.0117,-43.1625,-10.5375,11.5875,,0.020092,0.7155087979892352,0.7636875243397406,non_fall
3.974574,-0.6702,0.2276,-0.1048,0.0601,0.3427,0.0117,-43.1625,-10.5375,11.5875,,0.020465999999999873,0.7155087979892352,0.6273445959924199,non_fall
3.994428,-0.6702,0.2276,-0.1048,0.0419,-0.0627,-0.0206,-43.1625,-10.5375,11.5875,,0.01985400000000004,0.7155087979892352,0.5056893086392081,non_fall
3.996017,0.0615,0.1031,-0.1333,0.0419,-0.0627,-0.0206,-43.1625,-10.5375,11.5875,,0.0015890000000000626,0.17938993840235298,0.4097436148858609,non_fall
4.01227,0.0615,0.1031,-0.1333,0.0419,-0.0627,-0.0206,-43.2375,-10.95,11.475,,0.01625299999999985,0.17938993840235298,0.34480765047820094,non_fall
4.034545,0.0615,0.1031,-0.1333,0.0419,-0.0627,-0.0206,-43.2375,-10.95,11.475,,0.0222749999999996,0.17938993840235298,0.30998695134637627,non_fall
4.055385,0.0615,0.1031,-0.1333,0.0505,-0.1716,-0.0298,-43.2375,-10.95,11.475,,0.020840000000000636,0.17938993840235298,0.2989875791615307,non_fall
4.058186,0.2013,-0.002,-0.4521,0.0505,-0.1716,-0.0298,-43.2375,-10.95,11.475,,0.0028009999999998314,0.49489402906076774,0.30213488367302693,non_fall
4.071187,0.2013,-0.002,-0.4521,0.0505,-0.1716,-0.0298,-43.3313,-11.2688,11.3438,,0.01300100000000004,0.49489402906076774,0.3091745047302484,non_fall
4.096821,0.2013,-0.002,-0.4521,0.0505,-0.1716,-0.0298,-43.3313,-11.2688,11.3438,,0.025634000000000157,0.49489402906076774,0.3120785680429749,non_fall
4.117356,0.2013,-0.002,-0.4521,0.1843,-0.2292,-0.0,-43.3313,-11.2688,11.3438,,0.020534999999999748,0.49489402906076774,0.3070164310740296,non_fall
4.119905,0.0212,0.1665,-0.0455,0.1843,-0.2292,-0.0,-43.3313,-11.2688,11.3438,,0.0025490000000001345,0.1739020988947517,0.294922439905755,non_fall
4.131114,0.0212,0.1665,-0.0455,0.1843,-0.2292,-0.0,-43.3875,-11.5125,11.1562,,0.011209000000000024,0.1739020988947517,0.280590416523508,non_fall
4.157859,0.0212,0.1665,-0.0455,0.1843,-0.2292,-0.0,-43.3875,-11.5125,11.1562,,0.02674500000000002,0.1739020988947517,0.2707223001843563,non_fall
4.177438,0.0212,0.1665,-0.0455,0.1413,-0.5234,-0.0539,-43.3875,-11.5125,11.1562,,0.019579000000000235,0.1739020988947517,0.27164459876135283,non_fall
4.19244,0.0212,0.1665,-0.0455,0.1413,-0.5234,-0.0539,-43.3125,-11.6625,11.1938,,0.01500199999999996,0.1739020988947517,0.2873954642191116,non_fall
4.19757,0.3685,0.1722,-0.068,0.1413,-0.5234,-0.0539,-43.3125,-11.6625,11.1938,,0.005129999999999413,0.4123943379824703,0.31864426280903696,non_fall
4.218924,0.3685,0.1722,-0.068,0.1413,-0.5234,-0.0539,-43.3125,-11.6625,11.1938,,0.02135400000000054,0.4123943379824703,0.36257597397704205,non_fall
4.237076,0.3685,0.1722,-0.068,0.0083,-0.3378,-0.0565,-43.3125,-11.6625,11.1938,,0.018151999999999724,0.4123943379824703,0.41358667144219935,non_fall
4.253087,0.3685,0.1722,-0.068,0.0083,-0.3378,-0.0565,-43.3313,-11.6063,11.2313,,0.016010999999999775,0.4123943379824703,0.4644809204191556,non_fall
4.257839,0.4848,-0.0323,-0.3227,0.0083,-0.3378,-0.0565,-43.3313,-11.6063,11.2313,,0.0047519999999998674,0.5832749094552242,0.5078472109982349,non_fall
4.279728,0.4848,-0.0323,-0.3227,0.0083,-0.3378,-0.0565,-43.3313,-11.6063,11.2313,,0.021889000000000713,0.5832749094552242,0.5373437581253637,non_fall
4.300238,0.4848,-0.0323,-0.3227,0.0324,-0.1898,-0.0469,-43.3313,-11.6063,11.2313,,0.020509999999999806,0.5832749094552242,0.5486849518672382,non_fall
4.312172,0.4848,-0.0323,-0.3227,0.0324,-0.1898,-0.0469,-43.1625,-11.5312,11.475,,0.011934000000000111,0.5832749094552242,0.5401800275051317,non_fall
4.319509,-0.1059,0.2196,0.3499,0.0324,-0.1898,-0.0469,-43.1625,-11.5312,11.475,,0.007336999999999705,0.426460994699398,0.5127733404954158,non_fall
4.339186,-0.1059,0.2196,0.3499,0.0324,-0.1898,-0.0469,-43.1625,-11.5312,11.475,,0.019676999999999722,0.426460994699398,0.4696601845560169,non_fall
4.360205,-0.1059,0.2196,0.3499,0.1577,-0.084,-0.0081,-43.1625,-11.5312,11.475,,0.0210189999999999,0.426460994699398,0.4156458913965105,non_fall
4.37303,-0.1059,0.2196,0.3499,0.1577,-0.084,-0.0081,-42.9563,-11.4563,11.9813,,0.012825000000000308,0.426460994699398,0.356429314075563,non_fall
4.380412,-0.1818,0.0265,-0.1184,0.1577,-0.084,-0.0081,-42.9563,-11.4563,11.9813,,0.007381999999999778,0.21856818158185787,0.29793488045617234,non_fall
4.401169,-0.1818,0.0265,-0.1184,0.1577,-0.084,-0.0081,-42.9563,-11.4563,11.9813,,0.02075700000000058,0.21856818158185787,0.24575205052711904,non_fall
4.420937,-0.1818,0.0265,-0.1184,0.1538,-0.0261,0.0149,-42.9563,-11.4563,11.9813,,0.019768000000000008,0.21856818158185787,0.20470845699289428,non_fall
4.43155,-0.1818,0.0265,-0.1184,0.1538,-0.0261,0.0149,-42.525,-11.3813,12.525,,0.010612999999999317,0.21856818158185787,0.17858226778183917,non_fall
4.4616,-0.1818,0.0265,-0.1184,0.1538,-0.0261,0.0149,-42.525,-11.3813,12.525,,0.030050000000000132,0.21856818158185787,0.16992195241025104,non_fall
4.463543,-0.0059,-0.1061,-0.1501,0.1538,-0.0261,0.0149,-42.525,-11.3813,12.525,,0.001942999999999806,0.18390766705061537,0.1799112856875787,non_fall
4.481541,-0.0059,-0.1061,-0.1501,0.1832,0.0506,-0.0848,-42.525,-11.3813,12.525,,0.017998000000000403,0.18390766705061537,0.20823818802083285,non_fall
4.491757,-0.0059,-0.1061,-0.1501,0.1832,0.0506,-0.0848,-42.1875,-11.4,13.0125,,0.01021599999999978,0.18390766705061537,0.2529972303524411,non_fall
4.523075,-0.0059,-0.1061,-0.1501,0.1832,0.0506,-0.0848,-42.1875,-11.4,13.0125,,0.03131800000000062,0.18390766705061537,0.31072356950175595,non_fall
4.52616,0.0287,-0.5131,0.0075,0.1832,0.0506,-0.0848,-42.1875,-11.4,13.0125,,0.0030849999999995603,0.513956758881523,0.3766565670664916,non_fall
4.542462,0.0287,-0.5131,0.0075,0.1939,0.0594,-0.0735,-42.1875,-11.4,13.0125,,0.016302000000000483,0.513956758881523,0.44524216998361604,non_fall
4.554349,0.0287,-0.5131,0.0075,0.1939,0.0594,-0.0735,-41.8125,-11.3813,13.5188,,0.011886999999999759,0.513956758881523,0.5107595953291125,non_fall
4.584159,0.0287,-0.5131,0.0075,0.1939,0.0594,-0.0735,-41.8125,-11.3813,13.5188,,0.029809999999999448,0.513956758881523,0.5679022802289436,non_fall
4.587313,-0.2595,0.5341,-0.2142,0.1939,0.0594,-0.0735,-41.8125,-11.3813,13.5188,,0.003154000000000323,0.6312564455116478,0.6122008093789058,non_fall
4.604441,-0.2595,0.5341,-0.2142,0.1278,-0.015,0.0124,-41.8125,-11.3813,13.5188,,0.017127999999999588,0.6312564455116478,0.6402816480002476,non_fall
4.611532,-0.2595,0.5341,-0.2142,0.1278,-0.015,0.0124,-41.625,-11.4,13.9875,,0.007091000000000847,0.6312564455116478,0.6500183572860417,non_fall
4.64458,-0.2595,0.5341,-0.2142,0.1278,-0.015,0.0124,-41.625,-11.4,13.9875,,0.033047999999999966,0.6312564455116478,0.6406312807905039,non_fall
4.666,-0.2595,0.5341,-0.2142,0.0253,0.0871,-0.0121,-41.625,-11.4,13.9875,,0.021419999999999995,0.6312564455116478,0.6127621766638557,non_fall
4.668374,-0.0333,0.4617,0.2511,0.0253,0.0871,-0.0121,-41.625,-11.4,13.9875,,0.002373999999999654,0.5266184482146443,0.5685179476142558,non_fall
4.672059,-0.0333,0.4617,0.2511,0.0253,0.0871,-0.0121,-41.5875,-11.325,14.2313,,0.0036849999999999383,0.5266184482146443,0.5114474722074532,non_fall
4.705989,-0.0333,0.4617,0.2511,0.0253,0.0871,-0.0121,-41.5875,-11.325,14.2313,,0.033929999999999794,0.5266184482146443,0.4463889932284483,non_fall
4.726319,-0.0333,0.4617,0.2511,0.0658,0.1009,-0.0465,-41.5875,-11.325,14.2313,,0.020330000000000403,0.5266184482146443,0.3791116155006913,non_fall
4.729745,-0.1198,-0.0959,-0.0934,0.0658,0.1009,-0.0465,-41.5875,-11.325,14.2313,,0.003426000000000151,0.17964523372469418,0.31570136910890273,non_fall
4.731714,-0.1198,-0.0959,-0.0934,0.0658,0.1009,-0.0465,-41.4938,-11.325,14.2688,,0.0019689999999998875,0.17964523372469418,0.26173968193704644,non_fall
4.766849,-0.1198,-0.0959,-0.0934,0.0658,0.1009,-0.0465,-41.4938,-11.325,14.2688,,0.03513499999999947,0.17964523372469418,0.22145777242640766,non_fall
4.786998,-0.1198,-0.0959,-0.0934,0.0933,0.0425,-0.0571,-41.4938,-11.325,14.2688,,0.020148999999999972,0.17964523372469418,0.19711926743416516,non_fall
4.789689,-0.0525,0.2184,-0.0227,0.0933,0.0425,-0.0571,-41.4938,-11.325,14.2688,,0.002691000000000443,0.22576558639438388,0.188812312301971,non_fall
4.791789,-0.0525,0.2184,-0.0227,0.0933,0.0425,-0.0571,-41.4938,-11.2875,14.1938,,0.0020999999999995467,0.22576558639438388,0.19466871383356732,non_fall
4.829797,-0.0525,0.2184,-0.0227,0.0933,0.0425,-0.0571,-41.4938,-11.2875,14.1938,,0.038008000000000486,0.22576558639438388,0.2113835561337372,non_fall
4.848391,-0.0525,0.2184,-0.0227,0.2063,0.008,-0.0128,-41.4938,-11.2875,14.1938,,0.01859400000000022,0.22576558639438388,0.23485320824359082,non_fall
4.849831,-0.0811,0.2251,-0.1724,0.2063,0.008,-0.0128,-41.4938,-11.2875,14.1938,,0.0014399999999996638,0.2949050355622976,0.26077549825790797,non_fall
4.850763,-0.0811,0.2251,-0.1724,0.2063,0.008,-0.0128,-41.4938,-11.1938,14.1563,,0.0009319999999997108,0.2949050355622976,0.2851174931511474,non_fall
4.887815,-0.0811,0.2251,-0.1724,0.2063,0.008,-0.0128,-41.4938,-11.1938,14.1563,,0.037052000000000085,0.2949050355622976,0.3044171415925213,non_fall
4.9083,-0.0811,0.2251,-0.1724,0.1051,0.0374,0.0352,-41.4938,-11.1938,14.1563,,0.020484999999999864,0.2949050355622976,0.31593535927295985,non_fall
4.912237,-0.0811,0.2251,-0.1724,0.1051,0.0374,0.0352,-41.6063,-11.025,14.0438,,0.003937000000000523,0.2949050355622976,0.31771442279234424,non_fall
4.929233,0.0408,0.2767,-0.067,0.1051,0.0374,0.0352,-41.6063,-11.025,14.0438,,0.01699599999999979,0.2876048156759549,0.308615720487763,non_fall
4.949308,0.0408,0.2767,-0.067,0.1051,0.0374,0.0352,-41.6063,-11.025,14.0438,,0.020075000000000287,0.2876048156759549,0.28839209685536116,non_fall
4.970289,0.0408,0.2767,-0.067,0.0047,0.0276,0.0891,-41.6063,-11.025,14.0438,,0.020980999999999916,0.2876048156759549,0.2578011435460003,non_fall
4.972103,0.0408,0.2767,-0.067,0.0047,0.0276,0.0891,-41.7188,-11.025,13.9875,,0.0018139999999995382,0.2876048156759549,0.2187093620090824,non_fall
4.989952,0.0121,-0.081,0.0778,0.0047,0.0276,0.0891,-41.7188,-11.025,13.9875,,0.017849000000000004,0.11296127655086055,0.17410576196012886,non_fall
5.009174,0.0121,-0.081,0.0778,0.0047,0.0276,0.0891,-41.7188,-11.025,13.9875,,0.019222000000000072,0.11296127655086055,0.12795890954370978,non_fall
5.032364,0.0121,-0.081,0.0778,-0.0586,0.0246,0.0763,-41.7188,-11.025,13.9875,,0.023190000000000488,0.11296127655086055,0.08490025791032856,non_fall
5.03513,0.0121,-0.081,0.0778,-0.0586,0.0246,0.0763,-41.775,-10.9313,13.875,,0.00276599999999938,0.11296127655086055,0.049756811900315875,non_fall
5.051189,0.0073,0.0001,0.0016,-0.0586,0.0246,0.0763,-41.775,-10.9313,13.875,,0.016059000000000268,0.007473954776421918,0.026968251358650313,non_fall
5.071297,0.0073,0.0001,0.0016,-0.0586,0.0246,0.0763,-41.775,-10.9313,13.875,,0.02010800000000046,0.007473954776421918,0.0199364240869755,non_fall
5.092829,0.0073,0.0001,0.0016,-0.2353,-0.0779,0.0394,-41.775,-10.9313,13.875,,0.021531999999999663,0.007473954776421918,0.030397434703233774,non_fall
5.094595,0.0073,0.0001,0.0016,-0.2353,-0.0779,0.0394,-41.6438,-10.8188,13.8375,,0.0017659999999999343,0.007473954776421918,0.0579579819423445,non_fall
5.133867,0.0073,0.0001,0.0016,-0.2353,-0.0779,0.0394,-41.6438,-10.8188,13.8375,,0.03927200000000042,0.007473954776421918,0.09995153295457648,non_fall
5.137027,0.0849,-0.0765,-0.1981,-0.2353,-0.0779,0.0394,-41.6438,-10.8188,13.8375,,0.0031599999999993855,0.22870039352830157,0.15172050735291598,non_fall
5.156211,0.0849,-0.0765,-0.1981,-0.2353,-0.0779,0.0394,-41.5875,-10.7812,13.725,,0.01918400000000009,0.22870039352830157,0.20732584290717163,non_fall
5.158316,0.0849,-0.0765,-0.1981,0.1836,-0.1077,-0.0586,-41.5875,-10.7812,13.725,,0.0021050000000002456,0.22870039352830157,0.2605650090525812,non_fall
5.193165,0.0849,-0.0765,-0.1981,0.1836,-0.1077,-0.0586,-41.5875,-10.7812,13.725,,0.034848999999999464,0.22870039352830157,0.30609850975155894,non_fall
5.195365,0.158,0.0695,0.4331,0.1836,-0.1077,-0.0586,-41.5875,-10.7812,13.725,,0.002200000000000202,0.46622940705193616,0.3404614542345425,non_fall
5.212696,0.158,0.0695,0.4331,0.0477,-0.1117,-0.0782,-41.5875,-10.7812,13.725,,0.01733100000000043,0.46622940705193616,0.3627360206434993,non_fall
5.214148,0.158,0.0695,0.4331,0.0477,-0.1117,-0.0782,-41.6438,-10.8188,13.7625,,0.0014519999999995647,0.46622940705193616,0.37466711274888903,non_fall
5.255714,0.158,0.0695,0.4331,0.0477,-0.1117,-0.0782,-41.6438,-10.8188,13.7625,,0.041566000000000436,0.46622940705193616,0.38007263461160684,non_fall
5.257123,0.1511,-0.169,-0.1009,0.0477,-0.1117,-0.0782,-41.6438,-10.8188,13.7625,,0.0014089999999997715,0.2481391142081393,0.38358799604794763,non_fall
5.273112,0.1511,-0.169,-0.1009,-0.2151,0.034,-0.0348,-41.6438,-10.8188,13.7625,,0.015989000000000253,0.2481391142081393,0.3890533682051831,non_fall
5.274576,0.1511,-0.169,-0.1009,-0.2151,0.034,-0.0348,-41.6813,-10.8938,13.8563,,0.0014639999999994657,0.2481391142081393,0.39807130221879716,non_fall
5.317662,0.1511,-0.169,-0.1009,-0.2151,0.034,-0.0348,-41.6813,-10.8938,13.8563,,0.043086000000000624,0.2481391142081393,0.4092932543511202,non_fall
5.322324,-0.3316,-0.2925,-0.2561,-0.2151,0.034,-0.0348,-41.6813,-10.8938,13.8563,,0.004661999999999722,0.5109814282339428,0.41878044894106325,non_fall
5.330848,-0.3316,-0.2925,-0.2561,-0.2151,0.034,-0.0348,-41.6813,-10.9875,13.8,,0.008523999999999532,0.5109814282339428,0.4213962381606033,non_fall
5.334299,-0.3316,-0.2925,-0.2561,-0.4756,0.0996,-0.0036,-41.6813,-10.9875,13.8,,0.003451000000000093,0.5109814282339428,0.4127878501763159,non_fall
5.377895,-0.3316,-0.2925,-0.2561,-0.4756,0.0996,-0.0036,-41.6813,-10.9875,13.8,,0.04359599999999997,0.5109814282339428,0.391278407715355,non_fall
5.392035,-0.3316,-0.2925,-0.2561,-0.4756,0.0996,-0.0036,-41.6438,-11.25,13.7813,,0.014140000000000263,0.5109814282339428,0.3590025730903069,non_fall
5.394664,-0.3316,-0.2925,-0.2561,0.0043,-0.2874,0.049,-41.6438,-11.25,13.7813,,0.0026289999999997704,0.5109814282339428,0.32185314027825396,non_fall
5.395486,-0.0643,0.0144,0.0271,0.0043,-0.2874,0.049,-41.6438,-11.25,13.7813,,0.0008220000000003225,0.07124787716135829,0.2881794760830677,non_fall
5.436913,-0.0643,0.0144,0.0271,0.0043,-0.2874,0.049,-41.6438,-11.25,13.7813,,0.04142699999999966,0.07124787716135829,0.2666047512854252,non_fall
5.452047,-0.0643,0.0144,0.0271,0.0043,-0.2874,0.049,-41.625,-11.1375,13.8375,,0.015134000000000647,0.07124787716135829,0.263678467953951,non_fall
5.455448,-0.0643,0.0144,0.0271,0.1463,-0.0854,0.7221,-41.625,-11.1375,13.8375,,0.0034009999999993212,0.07124787716135829,0.2821784120194212,non_fall
5.45609,0.1835,0.2026,0.4621,0.1463,-0.0854,0.7221,-41.625,-11.1375,13.8375,,0.0006420000000000314,0.5368942353946446,0.32062380290500175,non_fall
5.49718,0.1835,0.2026,0.4621,0.1463,-0.0854,0.7221,-41.625,-11.1375,13.8375,,0.041090000000000515,0.5368942353946446,0.37405939853779696,non_fall
5.512016,0.1835,0.2026,0.4621,0.1463,-0.0854,0.7221,-41.6438,-11.0063,13.9875,,0.01483599999999985,0.5368942353946446,0.4356802572515642,non_fall
5.516907,0.1835,0.2026,0.4621,-0.1935,0.2533,0.0188,-41.6438,-11.0063,13.9875,,0.004890999999999757,0.5368942353946446,0.49864468155877295,non_fall
5.518065,-0.2084,-0.4361,0.173,-0.1935,0.2533,0.0188,-41.6438,-11.0063,13.9875,,0.0011580000000002144,0.5133641689872794,0.5575465732669214,non_fall
5.558617,-0.2084,-0.4361,0.173,-0.1935,0.2533,0.0188,-41.6438,-11.0063,13.9875,,0.04055199999999992,0.5133641689872794,0.6093457793763853,non_fall
5.570495,-0.2084,-0.4361,0.173,-0.1935,0.2533,0.0188,-41.6063,-10.9313,13.9688,,0.011878000000000277,0.5133641689872794,0.6538560276641701,non_fall
5.578591,-0.2084,-0.4361,0.173,-0.2768,0.2944,-0.2695,-41.6063,-10.9313,13.9688,,0.008096000000000103,0.5133641689872794,0.6940076133425963,non_fall
5.597656,-0.2765,0.4168,-0.8914,-0.2768,0.2944,-0.2695,-41.6063,-10.9313,13.9688,,0.019064999999999444,1.0221391539315965,0.7359976161285845,non_fall
5.617242,-0.2765,0.4168,-0.8914,-0.2768,0.2944,-0.2695,-41.6063,-10.9313,13.9688,,0.019586000000000325,1.0221391539315965,0.7891811138147143,non_fall
5.630606,-0.2765,0.4168,-0.8914,-0.2768,0.2944,-0.2695,-41.6813,-11.1562,13.5,,0.013364000000000154,1.0221391539315965,0.8653186706909785,non_fall
5.638026,-0.2765,0.4168,-0.8914,0.0927,0.5224,-1.3952,-41.6813,-11.1562,13.5,,0.00741999999999976,1.0221391539315965,0.9768002746450983,non_fall
5.659785,0.6981,0.0468,-0.9121,0.0927,0.5224,-1.3952,-41.6813,-11.1562,13.5,,0.021759000000000306,1.1495478502437382,1.133805433042097,non_fall
5.679121,0.6981,0.0468,-0.9121,0.0927,0.5224,-1.3952,-41.6813,-11.1562,13.5,,0.01933600000000002,1.1495478502437382,1.3408915527631664,non_fall
5.690905,0.6981,0.0468,-0.9121,0.0927,0.5224,-1.3952,-41.7938,-11.325,12.9375,,0.011783999999999573,1.1495478502437382,1.5939674083671778,non_fall
5.69982,0.6981,0.0468,-0.9121,1.8027,0.9569,0.634,-41.7938,-11.325,12.9375,,0.008915000000000006,1.1495478502437382,1.8787832161250668,non_fall
5.7193,-2.0678,1.7922,0.383,1.8027,0.9569,0.634,-41.7938,-11.325,12.9375,,0.01947999999999972,2.76305386845787,2.171799664150378,non_fall
5.739865,-2.0678,1.7922,0.383,1.8027,0.9569,0.634,-41.7938,-11.325,12.9375,,0.02056500000000039,2.76305386845787,2.443559407461438,non_fall
5.75117,-2.0678,1.7922,0.383,1.8027,0.9569,0.634,-42.075,-10.9875,12.225,,0.01130500000000012,2.76305386845787,2.663761338550106,non_fall
5.7601,-2.0678,1.7922,0.383,2.3839,-0.0372,0.5768,-42.075,-10.9875,12.225,,0.008930000000000327,2.76305386845787,2.8066719280292776,non_fall
5.780819,0.6769,1.9688,1.8751,2.3839,-0.0372,0.5768,-42.075,-10.9875,12.225,,0.02071899999999971,2.8018506491246105,2.8556092898975716,non_fall
5.80142,0.6769,1.9688,1.8751,2.3839,-0.0372,0.5768,-42.075,-10.9875,12.225,,0.02060100000000009,2.8018506491246105,2.8057558617337546,non_fall
5.813414,0.6769,1.9688,1.8751,2.3839,-0.0372,0.5768,-42.2063,-10.2,12.1688,,0.011993999999999616,2.8018506491246105,2.665017649662206,non_fall
5.821981,0.6769,1.9688,1.8751,3.0407,-0.588,0.2787,-42.2063,-10.2,12.1688,,0.008567000000000213,2.8018506491246105,2.4528515280890475,non_fall
5.861488,0.6769,1.9688,1.8751,3.0407,-0.588,0.2787,-42.2063,-10.2,12.1688,,0.039506999999999515,2.8018506491246105,2.197081524272605,non_fall
5.863112,-0.2563,0.9306,-0.6771,3.0407,-0.588,0.2787,-42.2063,-10.2,12.1688,,0.001624000000000514,1.1790549011814504,1.9289928796686109,non_fall
5.87057,-0.2563,0.9306,-0.6771,3.0407,-0.588,0.2787,-42.4688,-8.85,11.8313,,0.007457999999999743,1.1790549011814504,1.677547921842299,non_fall
5.881974,-0.2563,0.9306,-0.6771,2.4261,1.3683,-0.2237,-42.4688,-8.85,11.8313,,0.011403999999999748,1.1790549011814504,1.4641602674572243,non_fall
5.923797,-0.2563,0.9306,-0.6771,2.4261,1.3683,-0.2237,-42.4688,-8.85,11.8313,,0.04182300000000083,1.1790549011814504,1.2995712552412872,non_fall
5.926098,-0.9228,0.3239,-0.9239,2.4261,1.3683,-0.2237,-42.4688,-8.85,11.8313,,0.0023009999999992203,1.3453855432551667,1.1837155865624724,non_fall
5.930365,-0.9228,0.3239,-0.9239,2.4261,1.3683,-0.2237,-42.7688,-7.7625,11.4188,,0.004267000000000465,1.3453855432551667,1.1083575394679845,non_fall
5.942551,-0.9228,0.3239,-0.9239,2.791,0.2157,-0.3699,-42.7688,-7.7625,11.4188,,0.012185999999999808,1.3453855432551667,1.0613376807161619,non_fall
5.983562,-0.9228,0.3239,-0.9239,2.791,0.2157,-0.3699,-42.7688,-7.7625,11.4188,,0.04101100000000013,1.3453855432551667,1.0308936156232105,non_fall
5.986201,0.2929,-0.8465,-0.1188,2.791,0.2157,-0.3699,-42.7688,-7.7625,11.4188,,0.00263900000000028,0.903585137106626,1.008747077177988,non_fall
5.990314,0.2929,-0.8465,-0.1188,2.791,0.2157,-0.3699,-43.1063,-6.6188,10.8,,0.004112999999999367,0.903585137106626,0.9912889713235384,non_fall
6.004988,0.2929,-0.8465,-0.1188,1.1197,1.1994,-0.6386,-43.1063,-6.6188,10.8,,0.014674000000000298,0.903585137106626,0.9789374524699317,non_fall
6.045727,0.2929,-0.8465,-0.1188,1.1197,1.1994,-0.6386,-43.1063,-6.6188,10.8,,0.0407390000000003,0.903585137106626,0.9742864663056228,non_fall
6.047951,-0.6347,0.5243,-0.4955,1.1197,1.1994,-0.6386,-43.1063,-6.6188,10.8,,0.0022240000000000038,0.9608615040680941,0.9798491611434265,non_fall
6.052226,-0.6347,0.5243,-0.4955,1.1197,1.1994,-0.6386,-43.6313,-5.5875,10.1063,,0.004274999999999807,0.9608615040680941,0.9960956839027034,non_fall
6.065057,-0.6347,0.5243,-0.4955,0.2316,-0.0101,-0.5553,-43.6313,-5.5875,10.1063,,0.012831000000000259,0.9608615040680941,1.0202608722085826,non_fall
6.106298,-0.6347,0.5243,-0.4955,0.2316,-0.0101,-0.5553,-43.6313,-5.5875,10.1063,,0.04124099999999942,0.9608615040680941,1.0461792752832064,non_fall
6.113441,-0.6347,0.5243,-0.4955,0.2316,-0.0101,-0.5553,-43.7625,-4.275,9.9,,0.0071430000000001215,0.9608615040680941,1.0652183755215294,non_fall
6.126274,-0.6347,0.5243,-0.4955,0.1321,-0.3274,-0.0931,-43.7625,-4.275,9.9,,0.012833000000000538,0.9608615040680941,1.0681909381280341,non_fall
6.128254,0.3862,-0.4461,1.0711,0.1321,-0.3274,-0.0931,-43.7625,-4.275,9.9,,0.0019799999999996487,1.222869927670151,1.0478956658465959,non_fall
6.167848,0.3862,-0.4461,1.0711,0.1321,-0.3274,-0.0931,-43.7625,-4.275,9.9,,0.03959400000000013,1.222869927670151,1.001673317243833,non_fall
6.173062,0.3862,-0.4461,1.0711,0.1321,-0.3274,-0.0931,-44.1562,-3.0375,9.8438,,0.005213999999999608,1.222869927670151,0.9331719360724782,non_fall
6.1872,0.3862,-0.4461,1.0711,0.5663,0.1071,-0.7788,-44.1562,-3.0375,9.8438,,0.014137999999999984,1.222869927670151,0.8525506436731144,non_fall
6.188379,-0.1609,-0.3814,-0.1905,0.5663,0.1071,-0.7788,-44.1562,-3.0375,9.8438,,0.0011790000000004852,0.4556808312843541,0.7747313539990345,non_fall
6.229382,-0.1609,-0.3814,-0.1905,0.5663,0.1071,-0.7788,-44.1562,-3.0375,9.8438,,0.0410029999999999,0.4556808312843541,0.7159745810568161,non_fall
6.231671,-0.1609,-0.3814,-0.1905,0.5663,0.1071,-0.7788,-44.2875,-2.5688,9.6562,,0.0022890000000002075,0.4556808312843541,0.6897364119075456,non_fall
6.248043,-0.1609,-0.3814,-0.1905,0.825,0.7627,-1.2265,-44.2875,-2.5688,9.6562,,0.01637199999999961,0.4556808312843541,0.7030939969811344,non_fall
6.249889,-0.6882,0.0234,-0.5957,0.825,0.7627,-1.2265,-44.2875,-2.5688,9.6562,,0.0018459999999995702,0.9105082591607833,0.7548127977220569,non_fall
6.289548,-0.6882,0.0234,-0.5957,0.825,0.7627,-1.2265,-44.2875,-2.5688,9.6562,,0.03965900000000033,0.9105082591607833,0.8355099231781443,non_fall
6.293219,-0.6882,0.0234,-0.5957,0.825,0.7627,-1.2265,-44.5125,-2.8688,8.9062,,0.003670999999999758,0.9105082591607833,0.9296948704885963,non_fall
6.308754,-0.6882,0.0234,-0.5957,0.3153,0.0372,-0.2123,-44.5125,-2.8688,8.9062,,0.015535000000000743,0.9105082591607833,1.0190355442992447,non_fall
6.330304,0.8645,0.9302,0.1008,0.3153,0.0372,-0.2123,-44.5125,-2.8688,8.9062,,0.021549999999999514,1.2738889001792897,1.0860655177315368,non_fall
6.350988,0.8645,0.9302,0.1008,0.3153,0.0372,-0.2123,-44.5125,-2.8688,8.9062,,0.020684000000000147,1.2738889001792897,1.1175847540883994,non_fall
6.3535,0.8645,0.9302,0.1008,0.3153,0.0372,-0.2123,-44.8313,-3.6,8.5125,,0.0025120000000002918,1.2738889001792897,1.107088764161662,non_fall
6.370208,0.8645,0.9302,0.1008,0.5067,-0.6605,0.2208,-44.8313,-3.6,8.5125,,0.0167079999999995,1.2738889001792897,1.0557218176528884,non_fall
6.390057,-0.1889,0.1431,0.6316,0.5067,-0.6605,0.2208,-44.8313,-3.6,8.5125,,0.019848999999999783,0.6745957159662371,0.9715772082253749,non_fall
6.411329,-0.1889,0.1431,0.6316,0.5067,-0.6605,0.2208,-45.0188,-4.2938,8.475,,0.021272000000000624,0.6745957159662371,0.8676288337993026,non_fall
6.414041,-0.1889,0.1431,0.6316,0.5067,-0.6605,0.2208,-45.0188,-4.2938,8.475,,0.0027119999999998257,0.6745957159662371,0.7589783240985122,non_fall
6.431988,-0.1889,0.1431,0.6316,0.4952,-0.5164,-0.0714,-45.0188,-4.2938,8.475,,0.01794699999999949,0.6745957159662371,0.6602155023354336,non_fall
6.45297,0.4308,-0.2732,0.3039,0.4952,-0.5164,-0.0714,-45.0188,-4.2938,8.475,,0.020982000000000056,0.593786232578695,0.5834608361095223,non_fall
6.473762,0.4308,-0.2732,0.3039,0.4952,-0.5164,-0.0714,-45.0188,-4.2938,8.475,,0.020792000000000144,0.593786232578695,0.537263679160366,non_fall
6.476091,0.4308,-0.2732,0.3039,0.4952,-0.5164,-0.0714,-44.9625,-5.1,8.7563,,0.0023290000000004696,0.593786232578695,0.5262123941931884,non_fall
6.492878,0.4308,-0.2732,0.3039,0.6128,0.2202,-0.1641,-44.9625,-5.1,8.7563,,0.016786999999999885,0.593786232578695,0.5509863249184233,non_fall
6.534316,0.4308,-0.2732,0.3039,0.6128,0.2202,-0.1641,-44.8125,-5.7375,9.2063,,0.04143799999999942,0.593786232578695,0.6086196063414777,non_fall
6.536568,0.4308,-0.2732,0.3039,0.6128,0.2202,-0.1641,-44.8125,-5.7375,9.2063,,0.002252000000000365,0.593786232578695,0.6928773113130796,non_fall
6.537113,-0.0596,0.0909,-0.8185,0.6128,0.2202,-0.1641,-44.8125,-5.7375,9.2063,,0.0005449999999997956,0.8256859088055215,0.7947838147551948,non_fall
6.552886,-0.0596,0.0909,-0.8185,0.9831,-0.337,0.0341,-44.8125,-5.7375,9.2063,,0.01577300000000026,0.8256859088055215,0.903417478040657,non_fall
6.593459,-0.0596,0.0909,-0.8185,0.9831,-0.337,0.0341,-44.925,-6.15,9.75,,0.04057300000000019,0.8256859088055215,1.0070595476862683,non_fall
6.595957,0.627,0.2333,1.0737,0.9831,-0.337,0.0341,-44.925,-6.15,9.75,,0.0024980000000001112,1.2650650497108835,1.0946714364454848,non_fall
6.596976,0.627,0.2333,1.0737,0.9831,-0.337,0.0341,-44.925,-6.15,9.75,,0.001018999999999437,1.2650650497108835,1.1575068481313848,non_fall
6.613162,0.627,0.2333,1.0737,0.4981,-0.5181,0.284,-44.925,-6.15,9.75,,0.016186000000000256,1.2650650497108835,1.1905025244486385,non_fall
6.653801,0.627,0.2333,1.0737,0.4981,-0.5181,0.284,-44.625,-6.3375,10.4062,,0.04063899999999965,1.2650650497108835,1.1930357083311838,non_fall
6.656128,0.627,0.2333,1.0737,0.4981,-0.5181,0.284,-44.625,-6.3375,10.4062,,0.00232700000000019,1.2650650497108835,1.1687623725243428,non_fall
6.65696,0.9675,-0.027,0.04,0.4981,-0.5181,0.284,-44.625,-6.3375,10.4062,,0.0008319999999999439,0.9687028698212884,1.1245192632449783,non_fall
6.674156,0.9675,-0.027,0.04,0.421,-0.3637,0.1641,-44.625,-6.3375,10.4062,,0.01719600000000021,0.9687028698212884,1.0685663338938758,non_fall
6.715201,0.9675,-0.027,0.04,0.421,-0.3637,0.1641,-44.4375,-5.9813,11.5125,,0.04104500000000044,0.9687028698212884,1.0086470927980202,non_fall
6.720989,0.9675,-0.027,0.04,0.421,-0.3637,0.1641,-44.4375,-5.9813,11.5125,,0.005787999999999904,0.9687028698212884,0.950374974356402,non_fall
6.72292,-0.2978,0.1713,0.7318,0.421,-0.3637,0.1641,-44.4375,-5.9813,11.5125,,0.001930999999999905,0.808430436092061,0.8963143039237005,non_fall
6.735376,-0.2978,0.1713,0.7318,0.3117,-0.1638,0.0976,-44.4375,-5.9813,11.5125,,0.012455999999999356,0.808430436092061,0.8459052928929395,non_fall
6.77435,-0.2978,0.1713,0.7318,0.3117,-0.1638,0.0976,-44.175,-5.5312,12.6563,,0.03897400000000051,0.808430436092061,0.7961811290024335,non_fall
6.776625,-0.2978,0.1713,0.7318,0.3117,-0.1638,0.0976,-44.175,-5.5312,12.6563,,0.002275000000000027,0.808430436092061,0.7430670381704171,non_fall
6.796924,-0.2978,0.1713,0.7318,0.3735,-0.3378,-0.1157,-44.175,-5.5312,12.6563,,0.020298999999999623,0.808430436092061,0.682928489227552,non_fall
6.798948,0.3529,-0.2612,-0.3425,0.3735,-0.3378,-0.1157,-44.175,-5.5312,12.6563,,0.00202400000000047,0.5568393843829655,0.6139767977211746,non_fall
6.83281,0.3529,-0.2612,-0.3425,0.3735,-0.3378,-0.1157,-43.6688,-4.9875,13.8188,,0.03386200000000006,0.5568393843829655,0.5371867988697899,non_fall
6.839366,0.3529,-0.2612,-0.3425,0.3735,-0.3378,-0.1157,-43.6688,-4.9875,13.8188,,0.006555999999999784,0.5568393843829655,0.45651736833666295,non_fall
6.85703,0.3529,-0.2612,-0.3425,0.2273,-0.1563,-0.2638,-43.6688,-4.9875,13.8188,,0.017663999999999902,0.5568393843829655,0.3783841220653558,non_fall
6.858789,-0.0445,0.0992,-0.0536,0.2273,-0.1563,-0.2638,-43.6688,-4.9875,13.8188,,0.001758999999999844,0.12121819170405075,0.31048235079241043,non_fall
6.893479,-0.0445,0.0992,-0.0536,0.2273,-0.1563,-0.2638,-43.2188,-4.4625,14.7,,0.03469000000000033,0.12121819170405075,0.26022351136805194,non_fall
6.897596,-0.0445,0.0992,-0.0536,0.2273,-0.1563,-0.2638,-43.2188,-4.4625,14.7,,0.004116999999999926,0.12121819170405075,0.2332120289961459,non_fall
6.918424,-0.0445,0.0992,-0.0536,0.5272,-0.0953,-0.2858,-43.2188,-4.4625,14.7,,0.020827999999999847,0.12121819170405075,0.23223098277959658,non_fall
6.921822,0.2275,-0.3243,-0.1243,0.5272,-0.0953,-0.2858,-43.2188,-4.4625,14.7,,0.00339799999999979,0.41518336912742543,0.25702802723034485,non_fall
6.952961,0.2275,-0.3243,-0.1243,0.5272,-0.0953,-0.2858,-43.0125,-3.975,15.4125,,0.031139000000000472,0.41518336912742543,0.3048602875300691,non_fall
6.958019,0.2275,-0.3243,-0.1243,0.5272,-0.0953,-0.2858,-43.0125,-3.975,15.4125,,0.005058000000000007,0.41518336912742543,0.37145769888616703,non_fall
6.979445,0.2275,-0.3243,-0.1243,0.9088,-0.0063,-0.3288,-43.0125,-3.975,15.4125,,0.021425999999999945,0.41518336912742543,0.4519606762861396,non_fall
6.981873,-0.2041,0.6114,0.0824,0.9088,-0.0063,-0.3288,-43.0125,-3.975,15.4125,,0.0024280000000000967,0.6498126883956638,0.5415007731513114,non_fall
7.012424,-0.2041,0.6114,0.0824,0.9088,-0.0063,-0.3288,-42.675,-3.3938,16.35,,0.030550999999999995,0.6498126883956638,0.6353106844367529,non_fall
7.019978,-0.2041,0.6114,0.0824,0.9088,-0.0063,-0.3288,-42.675,-3.3938,16.35,,0.007553999999999839,0.6498126883956638,0.7284520144767135,non_fall
7.039466,-0.2041,0.6114,0.0824,0.7175,-0.5096,0.0341,-42.675,-3.3938,16.35,,0.01948799999999995,0.6498126883956638,0.8153939241835895,non_fall
7.060267,-0.113,-0.6951,0.6057,0.7175,-0.5096,0.0341,-42.675,-3.3938,16.35,,0.020800999999999625,0.9288732421595532,0.889751293871663,non_fall
7.072295,-0.113,-0.6951,0.6057,0.7175,-0.5096,0.0341,-42.15,-2.8125,17.2875,,0.012028000000000816,0.9288732421595532,0.9444580682456721,non_fall
7.080969,-0.113,-0.6951,0.6057,0.7175,-0.5096,0.0341,-42.15,-2.8125,17.2875,,0.008673999999999182,0.9288732421595532,0.9724999377731931,non_fall
7.102393,-0.113,-0.6951,0.6057,0.5655,-0.6112,0.2374,-42.15,-2.8125,17.2875,,0.021424000000000554,0.9288732421595532,0.9681326591026873,non_fall
7.120759,0.6387,0.6879,-0.1445,0.5655,-0.6112,0.2374,-42.15,-2.8125,17.2875,,0.01836599999999944,0.9497496249012157,0.9283513097744563,non_fall
7.132493,0.6387,0.6879,-0.1445,0.5655,-0.6112,0.2374,-41.6813,-2.1562,18.2063,,0.011734000000000577,0.9497496249012157,0.8542660560338603,non_fall
7.140786,0.6387,0.6879,-0.1445,0.5655,-0.6112,0.2374,-41.6813,-2.1562,18.2063,,0.008293000000000106,0.9497496249012157,0.7519680339490621,non_fall
7.161813,0.6387,0.6879,-0.1445,0.3337,-0.151,0.2442,-41.6813,-2.1562,18.2063,,0.02102700000000013,0.9497496249012157,0.6324732451227837,non_fall
7.181678,0.0082,-0.1972,0.1333,0.3337,-0.151,0.2442,-41.6813,-2.1562,18.2063,,0.019864999999999355,0.23816794494641802,0.5104969883023155,non_fall
7.191653,0.0082,-0.1972,0.1333,0.3337,-0.151,0.2442,-41.1188,-1.5375,18.8813,,0.009974999999999845,0.23816794494641802,0.4021664263269456,non_fall
7.202005,0.0082,-0.1972,0.1333,0.3337,-0.151,0.2442,-41.1188,-1.5375,18.8813,,0.010352000000000139,0.23816794494641802,0.3221951911679928,non_fall
7.22236,0.0082,-0.1972,0.1333,0.3021,-0.073,0.2925,-41.1188,-1.5375,18.8813,,0.020355000000000345,0.23816794494641802,0.2812734012266495,non_fall
7.252058,0.0082,-0.1972,0.1333,0.3021,-0.073,0.2925,-40.6875,-0.6188,19.7063,,0.02969799999999978,0.23816794494641802,0.2843245282525286,non_fall
7.262637,0.0082,-0.1972,0.1333,0.3021,-0.073,0.2925,-40.6875,-0.6188,19.7063,,0.010578999999999894,0.23816794494641802,0.3299475268641434,non_fall
7.264347,0.4117,0.3806,0.2359,0.3021,-0.073,0.2925,-40.6875,-0.6188,19.7063,,0.0017100000000001003,0.6082779463370344,0.41100515160940976,non_fall
7.283202,0.4117,0.3806,0.2359,-0.0394,0.232,0.3294,-40.6875,-0.6188,19.7063,,0.018855000000000288,0.6082779463370344,0.5160584843509646,non_fall
7.312679,0.4117,0.3806,0.2359,-0.0394,0.232,0.3294,-40.35,0.1688,20.3813,,0.029476999999999975,0.6082779463370344,0.6312223708215798,non_fall
7.324403,0.4117,0.3806,0.2359,-0.0394,0.232,0.3294,-40.35,0.1688,20.3813,,0.011724000000000068,0.6082779463370344,0.7420498466689041,non_fall
7.325781,-0.1075,0.2348,-0.8877,-0.0394,0.232,0.3294,-40.35,0.1688,20.3813,,0.0013779999999998793,0.9244990968086448,0.8352085923139667,non_fall
7.344168,-0.1075,0.2348,-0.8877,0.0913,0.2859,0.163,-40.35,0.1688,20.3813,,0.01838699999999971,0.9244990968086448,0.8998635704437612,non_fall
7.372272,-0.1075,0.2348,-0.8877,0.0913,0.2859,0.163,-39.975,1.0312,20.9062,,0.028103999999999907,0.9244990968086448,0.9287317534585724,non_fall
7.385266,-0.1075,0.2348,-0.8877,0.0913,0.2859,0.163,-39.975,1.0312,20.9062,,0.01299399999999995,0.9244990968086448,0.9187612799253627,non_fall
7.387229,0.0746,-0.607,0.5185,0.0913,0.2859,0.163,-39.975,1.0312,20.9062,,0.001962999999999937,0.8017832687204192,0.871391649491413,non_fall
7.405751,0.0746,-0.607,0.5185,0.5698,0.4431,-0.1381,-39.975,1.0312,20.9062,,0.018522000000000816,0.8017832687204192,0.7923850119191201,non_fall
7.432461,0.0746,-0.607,0.5185,0.5698,0.4431,-0.1381,-39.8063,1.9688,21.4125,,0.026709999999999567,0.8017832687204192,0.691234093261656,non_fall
7.44747,0.0746,-0.607,0.5185,0.5698,0.4431,-0.1381,-39.8063,1.9688,21.4125,,0.01500900000000005,0.8017832687204192,0.5801361415337642,non_fall
7.449111,0.021,-0.2708,0.0132,0.5698,0.4431,-0.1381,-39.8063,1.9688,21.4125,,0.0016410000000002256,0.27193359483520974,0.47253425309723396,non_fall
7.466006,0.021,-0.2708,0.0132,0.5706,0.1699,-0.0756,-39.8063,1.9688,21.4125,,0.016894999999999882,0.27193359483520974,0.3813396277966185,non_fall
7.492211,0.021,-0.2708,0.0132,0.5706,0.1699,-0.0756,-39.675,2.8875,21.6,,0.026205000000000034,0.27193359483520974,0.31712901282978456,non_fall
7.507121,0.021,-0.2708,0.0132,0.5706,0.1699,-0.0756,-39.675,2.8875,21.6,,0.014909999999999535,0.27193359483520974,0.28671123704541074,non_fall
7.526958,0.021,-0.2708,0.0132,0.4069,0.1638,0.0993,-39.675,2.8875,21.6,,0.019836999999999883,0.27193359483520974,0.2923672155101544,non_fall
7.528539,0.0717,-0.0374,0.4177,0.4069,0.1638,0.0993,-39.675,2.8875,21.6,,0.0015810000000007207,0.4254561552028599,0.3318490603634032,non_fall
7.5519,0.0717,-0.0374,0.4177,0.4069,0.1638,0.0993,-39.7313,3.75,21.5063,,0.02336099999999952,0.4254561552028599,0.39902230970414965,non_fall
7.567679,0.0717,-0.0374,0.4177,0.4069,0.1638,0.0993,-39.7313,3.75,21.5063,,0.01577900000000021,0.4254561552028599,0.4849409854445801,non_fall
7.587446,0.0717,-0.0374,0.4177,0.4694,0.1806,0.0107,-39.7313,3.75,21.5063,,0.019766999999999868,0.4254561552028599,0.5791563204237081,non_fall
7.589333,0.7474,0.237,-0.3071,0.4694,0.1806,0.0107,-39.7313,3.75,21.5063,,0.001886999999999972,0.842072544380827,0.6711084448124282,non_fall
7.612037,0.7474,0.237,-0.3071,0.4694,0.1806,0.0107,-39.9,4.5375,21.225,,0.022704000000000057,0.842072544380827,0.7514529867299917,non_fall
7.631201,0.7474,0.237,-0.3071,0.4694,0.1806,0.0107,-39.9,4.5375,21.225,,0.01916399999999996,0.842072544380827,0.8131256837955724,non_fall
7.648713,0.7474,0.237,-0.3071,0.2425,0.2021,0.2619,-39.9,4.5375,21.225,,0.017511999999999972,0.842072544380827,0.851943839503723,non_fall
7.650467,-0.1583,0.0696,0.7915,0.2425,0.2021,0.2619,-39.9,4.5375,21.225,,0.0017540000000000333,0.8101699204487908,0.8666579442248469,non_fall
7.671545,-0.1583,0.0696,0.7915,0.2425,0.2021,0.2619,-40.05,5.1375,20.925,,0.021078000000000152,0.8101699204487908,0.8585441878257912,non_fall
7.689049,-0.1583,0.0696,0.7915,0.2425,0.2021,0.2619,-40.05,5.1375,20.925,,0.017503999999999742,0.8101699204487908,0.8307476170260705,non_fall
7.708833,-0.1583,0.0696,0.7915,0.0724,0.1891,-0.0068,-40.05,5.1375,20.925,,0.019784000000000468,0.8101699204487908,0.7875860089293876,non_fall
7.731091,-0.1583,0.0696,0.7915,0.0724,0.1891,-0.0068,-40.4062,5.775,20.2125,,0.02225799999999989,0.8101699204487908,0.7339384224069342,non_fall
7.732876,-0.37,0.4344,-0.1596,0.0724,0.1891,-0.0068,-40.4062,5.775,20.2125,,0.0017849999999999255,0.5925162613802257,0.6747464202087744,non_fall
7.750329,-0.37,0.4344,-0.1596,0.0724,0.1891,-0.0068,-40.4062,5.775,20.2125,,0.01745299999999972,0.5925162613802257,0.6146107212716455,non_fall
7.771476,-0.37,0.4344,-0.1596,0.1796,0.308,-0.2855,-40.4062,5.775,20.2125,,0.021147000000000027,0.5925162613802257,0.5574724997250486,non_fall
7.792001,-0.37,0.4344,-0.1596,0.1796,0.308,-0.2855,-40.725,6.225,19.4438,,0.020525000000000126,0.5925162613802257,0.5063792458956545,non_fall
7.79352,-0.202,-0.342,-0.0073,0.1796,0.308,-0.2855,-40.725,6.225,19.4438,,0.001519000000000048,0.39726727778663073,0.4633247512148084,non_fall
7.813062,-0.202,-0.342,-0.0073,0.1796,0.308,-0.2855,-40.725,6.225,19.4438,,0.019542000000000392,0.39726727778663073,0.4291521439326426,non_fall
7.832524,-0.202,-0.342,-0.0073,0.1069,-0.0069,-0.1208,-40.725,6.225,19.4438,,0.01946199999999987,0.39726727778663073,0.40354226760588763,non_fall
7.856769,-0.0738,-0.1737,0.3199,0.1069,-0.0069,-0.1208,-40.725,6.225,19.4438,,0.024244999999999628,0.37142178180607555,0.38514124816069606,non_fall
7.85959,-0.0738,-0.1737,0.3199,0.1069,-0.0069,-0.1208,-41.0813,6.6563,18.8625,,0.0028209999999999624,0.37142178180607555,0.37186411255223384,non_fall
7.872462,-0.0738,-0.1737,0.3199,0.1069,-0.0069,-0.1208,-41.0813,6.6563,18.8625,,0.012871999999999773,0.37142178180607555,0.36135237548938975,non_fall
7.892024,-0.0738,-0.1737,0.3199,0.0863,0.0679,-0.0017,-41.0813,6.6563,18.8625,,0.019562000000000523,0.37142178180607555,0.35150396740759465,non_fall
7.913285,-0.0738,-0.1737,0.3199,0.0863,0.0679,-0.0017,-41.2688,6.9,18.3375,,0.021260999999999974,0.37142178180607555,0.34096137736605775,non_fall
7.916245,-0.0964,0.2744,0.14,0.0863,0.0679,-0.0017,-41.2688,6.9,18.3375,,0.0029599999999998516,0.3227821556406116,0.32944480812280935,non_fall
7.933437,-0.0964,0.2744,0.14,0.0863,0.0679,-0.0017,-41.2688,6.9,18.3375,,0.017191999999999652,0.3227821556406116,0.3178486635449935,non_fall
7.954113,-0.0964,0.2744,0.14,0.0178,0.08,0.0501,-41.2688,6.9,18.3375,,0.020676000000000805,0.3227821556406116,0.3080699638259072,non_fall
7.97308,-0.0964,0.2744,0.14,0.0178,0.08,0.0501,-41.4,7.1813,17.8313,,0.018966999999999956,0.3227821556406116,0.30258773814084117,non_fall
7.993757,-0.0964,0.2744,0.14,0.0178,0.08,0.0501,-41.4,7.1813,17.8313,,0.02067699999999917,0.3227821556406116,0.3038530104537666,non_fall
7.994935,0.0963,0.2131,0.1725,0.0178,0.08,0.0501,-41.4,7.1813,17.8313,,0.0011780000000003454,0.2905882826268121,0.31358610909451906,non_fall
8.014039,0.0963,0.2131,0.1725,-0.0011,0.0555,0.0021,-41.4,7.1813,17.8313,,0.019104000000000454,0.2905882826268121,0.33211967015974836,non_fall
8.032289,0.0963,0.2131,0.1725,-0.0011,0.0555,0.0021,-41.5125,7.2375,17.5312,,0.0182500000000001,0.2905882826268121,0.35796070649222356,non_fall
8.055194,0.0963,0.2131,0.1725,-0.0011,0.0555,0.0021,-41.5125,7.2375,17.5312,,0.02290499999999973,0.2905882826268121,0.387742362967257,non_fall
8.058007,-0.2266,-0.3909,0.1774,-0.0011,0.0555,0.0021,-41.5125,7.2375,17.5312,,0.0028129999999997324,0.48540820965451337,0.41666532687239516,non_fall
8.074063,-0.2266,-0.3909,0.1774,-0.0774,0.002,-0.038,-41.5125,7.2375,17.5312,,0.016056000000000736,0.48540820965451337,0.43939020021444575,non_fall
8.091085,-0.2266,-0.3909,0.1774,-0.0774,0.002,-0.038,-41.7375,7.2375,16.9313,,0.017021999999998982,0.48540820965451337,0.4511851363570878,non_fall
8.116634,-0.2266,-0.3909,0.1774,-0.0774,0.002,-0.038,-41.7375,7.2375,16.9313,,0.025548999999999822,0.48540820965451337,0.4490377068385915,non_fall
8.119642,0.0175,-0.4152,-0.0389,-0.0774,0.002,-0.038,-41.7375,7.2375,16.9313,,0.003008000000001232,0.4173853135892541,0.4324538636022692,non_fall
8.136187,0.0175,-0.4152,-0.0389,-0.0625,-0.0357,0.1551,-41.7375,7.2375,16.9313,,0.01654499999999892,0.4173853135892541,0.40376433557113844,non_fall
8.151599,0.0175,-0.4152,-0.0389,-0.0625,-0.0357,0.1551,-41.8875,7.3875,16.6125,,0.015411999999999537,0.4173853135892541,0.3678744160066804,non_fall
8.177375,0.0175,-0.4152,-0.0389,-0.0625,-0.0357,0.1551,-41.8875,7.3875,16.6125,,0.025776000000000465,0.4173853135892541,0.33148503496078346,non_fall
8.198168,-0.0887,0.0048,0.2137,-0.0625,-0.0357,0.1551,-41.8875,7.3875,16.6125,,0.02079300000000117,0.2314269215108735,0.3018889886365401,non_fall
8.199601,-0.0887,0.0048,0.2137,-0.1256,-0.0747,0.1079,-41.8875,7.3875,16.6125,,0.0014329999999986853,0.2314269215108735,0.28553495263671486,non_fall
8.211131,-0.0887,0.0048,0.2137,-0.1256,-0.0747,0.1079,-41.85,7.1625,16.5563,,0.011530000000000484,0.2314269215108735,0.28664765458732966,non_fall
8.236853,-0.0887,0.0048,0.2137,-0.1256,-0.0747,0.1079,-41.85,7.1625,16.5563,,0.025722000000000023,0.2314269215108735,0.30623845797326105,non_fall
8.257824,-0.0887,0.0048,0.2137,-0.2935,-0.167,0.0912,-41.85,7.1625,16.5563,,0.020970999999999407,0.2314269215108735,0.3417825972906992,non_fall
8.259904,0.3552,-0.086,0.3389,-0.2935,-0.167,0.0912,-41.85,7.1625,16.5563,,0.002080000000001192,0.49841373375941395,0.38767860514726926,non_fall
8.273309,0.3552,-0.086,0.3389,-0.2935,-0.167,0.0912,-41.7938,7.0313,16.6125,,0.013404999999998779,0.49841373375941395,0.4363918027261576,non_fall
8.297978,0.3552,-0.086,0.3389,-0.2935,-0.167,0.0912,-41.7938,7.0313,16.6125,,0.024669000000001162,0.49841373375941395,0.4799933458763618,non_fall
8.318459,0.3552,-0.086,0.3389,-0.289,-0.1539,0.1349,-41.7938,7.0313,16.6125,,0.020481000000000193,0.49841373375941395,0.511719274798307,non_fall
8.321264,-0.0215,-0.4581,0.3291,-0.289,-0.1539,0.1349,-41.7938,7.0313,16.6125,,0.002804999999998614,0.5644684845055568,0.527216868873827,non_fall
8.332592,-0.0215,-0.4581,0.3291,-0.289,-0.1539,0.1349,-41.6438,6.9563,16.5938,,0.01132800000000067,0.5644684845055568,0.5252607693640728,non_fall
8.359219,-0.0215,-0.4581,0.3291,-0.289,-0.1539,0.1349,-41.6438,6.9563,16.5938,,0.026626999999999512,0.5644684845055568,0.5078332227196495,non_fall
8.380067,-0.0215,-0.4581,0.3291,-0.3137,-0.1088,-0.0192,-41.6438,6.9563,16.5938,,0.020848000000000866,0.5644684845055568,0.47955637402475376,non_fall
8.381023,0.1345,-0.0745,0.2949,-0.3137,-0.1088,-0.0192,-41.6438,6.9563,16.5938,,0.000956000000000401,0.3325755703595801,0.44657285630556365,non_fall
8.391899,0.1345,-0.0745,0.2949,-0.3137,-0.1088,-0.0192,-41.4375,6.8813,16.575,,0.010875999999999664,0.3325755703595801,0.4151071615075281,non_fall
8.420461,0.1345,-0.0745,0.2949,-0.3137,-0.1088,-0.0192,-41.4375,6.8813,16.575,,0.028561999999999088,0.3325755703595801,0.39005788218963194,non_fall
8.440473,0.1345,-0.0745,0.2949,-0.2389,-0.0033,-0.1012,-41.4375,6.8813,16.575,,0.02001200000000125,0.3325755703595801,0.37399014690133425,non_fall
8.452237,0.1345,-0.0745,0.2949,-0.2389,-0.0033,-0.1012,-41.3625,6.75,16.65,,0.011763999999999442,0.3325755703595801,0.36678108750335736,non_fall
8.460081,0.041,0.4148,-0.0288,-0.2389,-0.0033,-0.1012,-41.3625,6.75,16.65,,0.007844000000000406,0.4178151265811232,0.36596595165676304,non_fall
8.481117,0.041,0.4148,-0.0288,-0.2389,-0.0033,-0.1012,-41.3625,6.75,16.65,,0.021035999999998722,0.4178151265811232,0.3676269255927624,non_fall
8.501915,0.041,0.4148,-0.0288,-0.2304,0.0372,-0.1792,-41.3625,6.75,16.65,,0.020798000000000982,0.4178151265811232,0.3675298147374554,non_fall
8.511092,0.041,0.4148,-0.0288,-0.2304,0.0372,-0.1792,-41.175,6.5063,16.8,,0.009176999999999325,0.4178151265811232,0.36217929894661277,non_fall
8.520854,-0.1826,0.2209,0.1429,-0.2304,0.0372,-0.1792,-41.175,6.5063,16.8,,0.00976200000000027,0.3202498711943535,0.34953211968304343,non_fall
8.541376,-0.1826,0.2209,0.1429,-0.2304,0.0372,-0.1792,-41.175,6.5063,16.8,,0.020521999999999707,0.3202498711943535,0.3292434809746351,non_fall
8.561524,-0.1826,0.2209,0.1429,0.017,0.1595,-0.1051,-41.175,6.5063,16.8,,0.02014800000000072,0.3202498711943535,0.3024653762763707,non_fall
8.570965,-0.1826,0.2209,0.1429,0.017,0.1595,-0.1051,-41.1375,6.3375,16.8375,,0.009440999999998922,0.3202498711943535,0.27131595142741494,non_fall
8.582974,-0.1328,-0.0484,0.0229,0.017,0.1595,-0.1051,-41.1375,6.3375,16.8375,,0.012009000000000825,0.14318802324216925,0.23818655412477835,non_fall
8.602052,-0.1328,-0.0484,0.0229,0.017,0.1595,-0.1051,-41.1375,6.3375,16.8375,,0.019078000000000372,0.14318802324216925,0.20507210582892557,non_fall
8.624658,-0.1328,-0.0484,0.0229,-0.0358,0.0031,0.13,-41.1375,6.3375,16.8375,,0.022605999999999682,0.14318802324216925,0.17311001965707498,non_fall
8.63241,-0.1328,-0.0484,0.0229,-0.0358,0.0031,0.13,-41.1,5.9813,16.65,,0.007751999999999981,0.14318802324216925,0.14246412920446255,non_fall
