time,ax,ay,az,wx,wy,wz,Bx,By,Bz,Unnamed: 10,time_diff,acc_mag,acc_mag_filtered,label
0.080747,0.0,0.0,0.0,0.0051,0.0289,0.0068,0.0,0.0,0.0,,0.0,0.0,8.068200177100001e-05,non_fall
0.128628,0.0,0.0,0.0,0.0051,0.0289,0.0068,37.1625,6.675,-45.2063,,0.04788099999999999,0.0,-0.0008397373483696436,non_fall
0.161967,0.0,0.0,0.0,0.0232,0.0297,-0.0184,37.1625,6.675,-45.2063,,0.03333900000000001,0.0,-0.001800078623256671,non_fall
0.188515,0.0,0.0,0.0,0.0232,0.0297,-0.0184,36.9938,6.2063,-45.4688,,0.02654799999999999,0.0,-0.002750389360507563,non_fall
0.202512,0.0,0.0,0.0,-0.002,-0.0545,-0.0457,36.9938,6.2063,-45.4688,,0.01399700000000001,0.0,-0.0035248169175466277,non_fall
0.2508,0.0,0.0,0.0,-0.002,-0.0545,-0.0457,37.35,5.9062,-44.8875,,0.048288000000000025,0.0,-0.0038302646436557193,non_fall
0.263355,0.0,0.0,0.0,-0.028,-0.0332,-0.0485,37.35,5.9062,-44.8875,,0.012554999999999983,0.0,-0.0032796229463240858,non_fall
0.26393,0.0,0.0,0.0,-0.028,-0.0332,-0.0485,37.35,5.9062,-44.8875,,0.0005749999999999922,0.0,-0.001468576467965387,non_fall
0.303784,0.0,0.0,0.0,-0.028,-0.0332,-0.0485,37.35,5.9062,-44.8875,,0.039854,0.0,0.0019170945170819593,non_fall
0.308907,0.0,0.0,0.0,-0.028,-0.0332,-0.0485,37.5938,5.9625,-44.4563,,0.005122999999999989,0.0,0.006988668953950995,non_fall
0.323822,0.0,0.0,0.0,-0.0606,-0.0332,-0.0642,37.5938,5.9625,-44.4563,,0.014915000000000012,0.0,0.013569253106692372,non_fall
0.324299,0.0,0.0,0.0,-0.0606,-0.0332,-0.0642,37.5938,5.9625,-44.4563,,0.0004770000000000052,0.0,0.021169192327107778,non_fall
0.365211,0.0349,0.0224,0.0268,-0.0606,-0.0332,-0.0642,37.5938,5.9625,-44.4563,,0.040912000000000004,0.04937620884596143,0.029041944586071986,non_fall
0.370582,0.0349,0.0224,0.0268,-0.0606,-0.0332,-0.0642,37.4062,6.225,-44.7375,,0.005371000000000015,0.04937620884596143,0.03631365795224478,non_fall
0.384605,0.0349,0.0224,0.0268,-0.1092,-0.0254,-0.0623,37.4062,6.225,-44.7375,,0.014022999999999952,0.04937620884596143,0.04215027692637237,non_fall
0.386337,0.0349,0.0224,0.0268,-0.1092,-0.0254,-0.0623,37.4062,6.225,-44.7375,,0.0017320000000000113,0.04937620884596143,0.04591217747932737,non_fall
0.425635,0.0309,-0.0196,0.0133,-0.1092,-0.0254,-0.0623,37.4062,6.225,-44.7375,,0.039298,0.03893404679711576,0.047258092467750513,non_fall
0.428169,0.0309,-0.0196,0.0133,-0.1092,-0.0254,-0.0623,37.275,6.3,-44.7938,,0.0025340000000000362,0.03893404679711576,0.046187763491815526,non_fall
0.445663,0.0309,-0.0196,0.0133,-0.1309,0.014,-0.0495,37.275,6.3,-44.7938,,0.017493999999999954,0.03893404679711576,0.043036525337810855,non_fall
0.446116,0.0309,-0.0196,0.0133,-0.1309,0.014,-0.0495,37.275,6.3,-44.7938,,0.0004530000000000367,0.03893404679711576,0.03844209853073045,non_fall
0.48864,0.0309,-0.0196,0.0133,-0.1309,0.014,-0.0495,37.1813,6.3938,-44.8125,,0.042524000000000006,0.03893404679711576,0.03329491913069655,non_fall
0.507867,0.0309,-0.0196,0.0133,-0.1217,0.0137,-0.0276,37.1813,6.3938,-44.8125,,0.01922699999999994,0.03893404679711576,0.028668243724365373,non_fall
0.511897,0.019,-0.0181,-0.0145,-0.1217,0.0137,-0.0276,37.1813,6.3938,-44.8125,,0.004030000000000089,0.02998099397951976,0.02571459302359296,non_fall
0.51237,0.019,-0.0181,-0.0145,-0.1217,0.0137,-0.0276,37.1813,6.3938,-44.8125,,0.0004729999999999457,0.02998099397951976,0.025517912250647125,non_fall
0.549345,0.019,-0.0181,-0.0145,-0.1217,0.0137,-0.0276,37.0875,6.5813,-44.8125,,0.03697499999999998,0.02998099397951976,0.028906004466848198,non_fall
0.567852,0.019,-0.0181,-0.0145,-0.0908,0.0055,-0.0052,37.0875,6.5813,-44.8125,,0.01850700000000005,0.02998099397951976,0.03624924904063796,non_fall
0.56838,0.019,-0.0181,-0.0145,-0.0908,0.0055,-0.0052,37.0875,6.5813,-44.8125,,0.0005279999999999729,0.02998099397951976,0.04729103646308497,non_fall
0.568685,0.0405,-0.0271,-0.0278,-0.0908,0.0055,-0.0052,37.0875,6.5813,-44.8125,,0.0003049999999999997,0.05610258461069329,0.061065118115821465,non_fall
0.60921,0.0405,-0.0271,-0.0278,-0.0908,0.0055,-0.0052,37.1063,6.75,-44.7188,,0.04052500000000003,0.05610258461069329,0.0759494048142866,non_fall
0.629131,0.0405,-0.0271,-0.0278,-0.0226,-0.0176,0.0083,37.1063,6.75,-44.7188,,0.019920999999999967,0.05610258461069329,0.08988217227919193,non_fall
0.63012,0.0568,-0.0461,-0.1117,-0.0226,-0.0176,0.0083,37.1063,6.75,-44.7188,,0.0009890000000000176,0.13352280704059513,0.10072660664047854,non_fall
0.630955,0.0568,-0.0461,-0.1117,-0.0226,-0.0176,0.0083,37.1063,6.75,-44.7188,,0.0008350000000000302,0.13352280704059513,0.10671892622076314,non_fall
0.669758,0.0568,-0.0461,-0.1117,-0.0226,-0.0176,0.0083,37.2375,6.7688,-44.3813,,0.03880299999999992,0.13352280704059513,0.10688952174519283,non_fall
0.690764,0.0568,-0.0461,-0.1117,0.0445,0.0233,0.0313,37.2375,6.7688,-44.3813,,0.02100600000000008,0.13352280704059513,0.10133207933731107,non_fall
0.691492,0.0248,-0.0209,-0.0551,0.0445,0.0233,0.0313,37.2375,6.7688,-44.3813,,0.0007279999999999509,0.06393637462352711,0.09123106431762722,non_fall
0.691905,0.0248,-0.0209,-0.0551,0.0445,0.0233,0.0313,37.2375,6.7688,-44.3813,,0.0004129999999999967,0.06393637462352711,0.07863230528908881,non_fall
0.730207,0.0248,-0.0209,-0.0551,0.0445,0.0233,0.0313,37.2188,6.9188,-44.325,,0.03830200000000006,0.06393637462352711,0.06601811025562974,non_fall
0.751108,0.0248,-0.0209,-0.0551,0.0445,0.0233,0.0313,37.2188,6.9188,-44.325,,0.020900999999999947,0.06393637462352711,0.055791676788626426,non_fall
0.751905,0.0248,-0.0209,-0.0551,0.0502,0.002,0.0278,37.2188,6.9188,-44.325,,0.0007970000000000477,0.06393637462352711,0.049776855129513374,non_fall
0.77216,0.0173,0.0057,0.0141,0.0502,0.002,0.0278,37.2188,6.9188,-44.325,,0.020254999999999912,0.023034539283432607,0.0488203224393235,non_fall
0.790316,0.0173,0.0057,0.0141,0.0502,0.002,0.0278,37.1813,6.8625,-44.2875,,0.01815600000000006,0.023034539283432607,0.052570236482855144,non_fall
0.8125,0.0173,0.0057,0.0141,0.027,0.0314,0.027,37.1813,6.8625,-44.2875,,0.02218399999999998,0.023034539283432607,0.05950003645522622,non_fall
0.81316,0.0173,0.0057,0.0141,0.027,0.0314,0.027,37.1813,6.8625,-44.2875,,0.0006599999999999939,0.023034539283432607,0.06722478240745072,non_fall
0.832622,-0.1047,0.0235,0.0424,0.027,0.0314,0.027,37.1813,6.8625,-44.2875,,0.01946199999999998,0.11537807417356212,0.07309807279206292,non_fall
0.850333,-0.1047,0.0235,0.0424,0.027,0.0314,0.027,37.3875,6.7875,-43.7812,,0.017711000000000032,0.11537807417356212,0.07498464473615413,non_fall
0.874015,-0.1047,0.0235,0.0424,-0.0158,-0.0005,0.0129,37.3875,6.7875,-43.7812,,0.02368199999999998,0.11537807417356212,0.07201428099437288,non_fall
0.874842,-0.1047,0.0235,0.0424,-0.0158,-0.0005,0.0129,37.3875,6.7875,-43.7812,,0.0008270000000000222,0.11537807417356212,0.0650873856635151,non_fall
0.894714,0.0402,0.0132,0.031,-0.0158,-0.0005,0.0129,37.3875,6.7875,-43.7812,,0.019872,0.052452645309841145,0.056950612018300165,non_fall
0.908976,0.0402,0.0132,0.031,-0.0158,-0.0005,0.0129,37.4813,6.6375,-43.35,,0.014261999999999997,0.052452645309841145,0.05177704662449877,non_fall
0.934653,0.0402,0.0132,0.031,-0.0372,0.0563,0.0097,37.4813,6.6375,-43.35,,0.02567699999999995,0.052452645309841145,0.05432261026188597,non_fall
0.936394,0.0402,0.0132,0.031,-0.0372,0.0563,0.0097,37.4813,6.6375,-43.35,,0.0017409999999999926,0.052452645309841145,0.06884133043906282,non_fall
0.968928,0.0402,0.0132,0.031,-0.0372,0.0563,0.0097,37.8,6.5813,-43.1813,,0.03253400000000006,0.052452645309841145,0.09800286928044527,non_fall
0.974557,0.1371,-0.0101,0.0408,-0.0372,0.0563,0.0097,37.8,6.5813,-43.1813,,0.005628999999999995,0.14339825661422806,0.14206605982727685,non_fall
0.994794,0.1371,-0.0101,0.0408,-0.0372,0.0563,0.0097,37.8,6.5813,-43.1813,,0.02023699999999995,0.14339825661422806,0.19853080825606037,non_fall
0.995333,0.1371,-0.0101,0.0408,0.0115,0.0704,-0.0297,37.8,6.5813,-43.1813,,0.0005390000000000672,0.14339825661422806,0.26242370740329884,non_fall
1.034537,0.1371,-0.0101,0.0408,0.0115,0.0704,-0.0297,37.9125,6.375,-43.0875,,0.03920400000000002,0.14339825661422806,0.327267123188663,non_fall
1.035389,-0.3998,-0.0503,0.4762,0.0115,0.0704,-0.0297,37.9125,6.375,-43.0875,,0.0008519999999998529,0.6238081195367691,0.3866162666065793,non_fall
1.054592,-0.3998,-0.0503,0.4762,0.1063,-0.1497,-0.1004,37.9125,6.375,-43.0875,,0.01920300000000008,0.6238081195367691,0.4358158102411237,non_fall
1.055161,-0.3998,-0.0503,0.4762,0.1063,-0.1497,-0.1004,37.9125,6.375,-43.0875,,0.0005690000000000417,0.6238081195367691,0.47341272787374156,non_fall
1.088792,-0.3998,-0.0503,0.4762,0.1063,-0.1497,-0.1004,38.0063,6.225,-42.9938,,0.033630999999999966,0.6238081195367691,0.5016426299330983,non_fall
1.095637,-0.1028,0.3261,-0.2144,0.1063,-0.1497,-0.1004,38.0063,6.225,-42.9938,,0.00684499999999999,0.4035794965059548,0.5256898879030084,non_fall
1.115915,-0.1028,0.3261,-0.2144,-0.2664,-0.6274,-0.0744,38.0063,6.225,-42.9938,,0.020278000000000018,0.4035794965059548,0.5519058822683696,non_fall
1.116516,-0.1028,0.3261,-0.2144,-0.2664,-0.6274,-0.0744,38.0063,6.225,-42.9938,,0.0006010000000000737,0.4035794965059548,0.5856093501276275,non_fall
1.150192,-0.1028,0.3261,-0.2144,-0.2664,-0.6274,-0.0744,37.8,6.375,-43.1625,,0.03367600000000004,0.4035794965059548,0.6292688815542888,non_fall
1.156851,0.2422,-0.4556,-0.6803,-0.2664,-0.6274,-0.0744,37.8,6.375,-43.1625,,0.0066589999999999705,0.8538385620244614,0.6816991467746583,non_fall
1.178255,0.2422,-0.4556,-0.6803,-0.0099,-0.3886,-0.2498,37.8,6.375,-43.1625,,0.02140399999999998,0.8538385620244614,0.7384741984837275,non_fall
1.178814,0.2422,-0.4556,-0.6803,-0.0099,-0.3886,-0.2498,37.8,6.375,-43.1625,,0.0005589999999999762,0.8538385620244614,0.7932900966705871,non_fall
1.209283,0.2422,-0.4556,-0.6803,-0.0099,-0.3886,-0.2498,37.4813,6.6,-43.4062,,0.03046900000000008,0.8538385620244614,0.8397338406907043,non_fall
1.238204,0.2422,-0.4556,-0.6803,0.2149,0.1925,-0.292,37.4813,6.6,-43.4062,,0.028920999999999975,0.8538385620244614,0.8729351881389884,non_fall
1.238762,0.2422,-0.4556,-0.6803,0.2149,0.1925,-0.292,37.4813,6.6,-43.4062,,0.0005579999999998364,0.8538385620244614,0.8907869459986467,non_fall
1.23903,-0.7898,-0.2336,-0.3776,0.2149,0.1925,-0.292,37.4813,6.6,-43.4062,,0.000268000000000157,0.9060545016719468,0.8946301174619055,non_fall
1.27032,-0.7898,-0.2336,-0.3776,0.2149,0.1925,-0.292,37.2188,6.9375,-43.7063,,0.03128999999999982,0.9060545016719468,0.8894058846579534,non_fall
1.298963,-0.7898,-0.2336,-0.3776,0.2075,-0.4961,-0.432,37.2188,6.9375,-43.7063,,0.028643000000000196,0.9060545016719468,0.8832865592144834,non_fall
1.299692,-0.7898,-0.2336,-0.3776,0.2075,-0.4961,-0.432,37.2188,6.9375,-43.7063,,0.0007289999999999797,0.9060545016719468,0.8867764973616933,non_fall
1.300035,-0.9902,-0.0322,-0.2829,0.2075,-0.4961,-0.432,37.2188,6.9375,-43.7063,,0.0003429999999999822,1.0303229056951029,0.9112772918866007,non_fall
1.328478,-0.9902,-0.0322,-0.2829,0.2075,-0.4961,-0.432,36.75,7.2,-44.1562,,0.028442999999999996,1.0303229056951029,0.9671656065950354,non_fall
1.35971,-0.9902,-0.0322,-0.2829,-0.0056,-0.0811,-0.1025,36.75,7.2,-44.1562,,0.031231999999999926,1.0303229056951029,1.0615478324761685,non_fall
1.360383,-0.9902,-0.0322,-0.2829,-0.0056,-0.0811,-0.1025,36.75,7.2,-44.1562,,0.0006729999999999237,1.0303229056951029,1.1960300472566858,non_fall
1.360826,-0.8637,-0.5453,-0.9715,-0.0056,-0.0811,-0.1025,36.75,7.2,-44.1562,,0.00044300000000019324,1.409660253394413,1.3650224922895482,non_fall
1.389317,-0.8637,-0.5453,-0.9715,-0.0056,-0.0811,-0.1025,36.3563,7.725,-44.7938,,0.028490999999999822,1.409660253394413,1.5551859789123863,non_fall
1.42125,-0.8637,-0.5453,-0.9715,-0.0056,-0.0811,-0.1025,36.3563,7.725,-44.7938,,0.03193299999999999,1.409660253394413,1.746554735217782,non_fall
1.422928,-0.8637,-0.5453,-0.9715,-0.3993,-0.5774,-0.0791,36.3563,7.725,-44.7938,,0.0016780000000000683,1.409660253394413,1.9156300237105541,non_fall
1.440929,-0.691,0.1046,-2.3672,-0.3993,-0.5774,-0.0791,36.3563,7.725,-44.7938,,0.018000999999999934,2.468209472471897,2.040307850506688,non_fall
1.44979,-0.691,0.1046,-2.3672,-0.3993,-0.5774,-0.0791,35.625,8.2688,-45.0563,,0.008861000000000008,2.468209472471897,2.1058521036382247,non_fall
1.480817,-0.691,0.1046,-2.3672,-1.2108,0.0055,0.0466,35.625,8.2688,-45.0563,,0.031027000000000138,2.468209472471897,2.1104229173306885,non_fall
1.481334,-0.691,0.1046,-2.3672,-1.2108,0.0055,0.0466,35.625,8.2688,-45.0563,,0.0005169999999998787,2.468209472471897,2.068345378288871,non_fall
1.502385,-0.9496,0.0722,-1.7161,-1.2108,0.0055,0.0466,35.625,8.2688,-45.0563,,0.021051000000000153,1.9626390931600237,2.00968662686226,non_fall
1.509726,-0.9496,0.0722,-1.7161,-1.2108,0.0055,0.0466,35.2875,9.2625,-45.0938,,0.00734099999999982,1.9626390931600237,1.9756955094313613,non_fall
1.54312,-0.9496,0.0722,-1.7161,-1.2108,0.0055,0.0466,35.2875,9.2625,-45.0938,,0.033394000000000146,1.9626390931600237,2.010811992493511,non_fall
1.544524,-0.9496,0.0722,-1.7161,-1.4846,-1.233,-0.0201,35.2875,9.2625,-45.0938,,0.0014039999999999608,1.9626390931600237,2.1528514665660343,non_fall
1.563439,1.6862,-0.1714,1.7828,-1.4846,-1.233,-0.0201,35.2875,9.2625,-45.0938,,0.018915000000000015,2.4598829728261467,2.4234199258549824,non_fall
1.569079,1.6862,-0.1714,1.7828,-1.4846,-1.233,-0.0201,34.6875,10.7063,-45.0938,,0.005639999999999867,2.4598829728261467,2.8206594041788633,non_fall
1.604939,1.6862,-0.1714,1.7828,-1.1498,-1.2778,-0.1245,34.6875,10.7063,-45.0938,,0.03586,2.4598829728261467,3.3161851597344993,non_fall
1.606287,1.6862,-0.1714,1.7828,-1.1498,-1.2778,-0.1245,34.6875,10.7063,-45.0938,,0.0013480000000001269,2.4598829728261467,3.857566167862247,non_fall
1.624399,1.3101,-0.0287,5.4677,-1.1498,-1.2778,-0.1245,34.6875,10.7063,-45.0938,,0.018111999999999906,5.622537593471475,4.376705745243141,non_fall
1.628741,1.3101,-0.0287,5.4677,-1.1498,-1.2778,-0.1245,34.1813,12.3188,-44.7188,,0.004342000000000068,5.622537593471475,4.802836127339938,non_fall
1.664303,1.3101,-0.0287,5.4677,-0.1398,-0.4386,-0.3218,34.1813,12.3188,-44.7188,,0.035562000000000094,5.622537593471475,5.0770145499976636,non_fall
1.665431,1.3101,-0.0287,5.4677,-0.1398,-0.4386,-0.3218,34.1813,12.3188,-44.7188,,0.0011280000000000179,5.622537593471475,5.164098974789785,non_fall
1.688492,1.3101,-0.0287,5.4677,-0.1398,-0.4386,-0.3218,33.5063,14.025,-44.4188,,0.023060999999999998,5.622537593471475,5.058923500790598,non_fall
1.704608,3.1986,0.0632,2.2915,-0.1398,-0.4386,-0.3218,33.5063,14.025,-44.4188,,0.016115999999999797,3.935226607198117,4.785389423089966,non_fall
1.72619,3.1986,0.0632,2.2915,0.3771,-0.3875,-0.1703,33.5063,14.025,-44.4188,,0.02158199999999999,3.935226607198117,4.389391302158906,non_fall
1.726983,3.1986,0.0632,2.2915,0.3771,-0.3875,-0.1703,33.5063,14.025,-44.4188,,0.0007930000000000437,3.935226607198117,3.9280319647187683,non_fall
1.748498,3.1986,0.0632,2.2915,0.3771,-0.3875,-0.1703,32.6625,15.6,-44.175,,0.021515000000000173,3.935226607198117,3.4580239402457353,non_fall
1.765331,0.9658,0.8484,-1.8793,0.3771,-0.3875,-0.1703,32.6625,15.6,-44.175,,0.016832999999999876,2.2769103385948246,3.0256738152188265,non_fall
1.785608,0.9658,0.8484,-1.8793,0.3583,-0.5906,-0.7989,32.6625,15.6,-44.175,,0.0202770000000001,2.2769103385948246,2.6600339188805218,non_fall
1.786968,0.9658,0.8484,-1.8793,0.3583,-0.5906,-0.7989,32.6625,15.6,-44.175,,0.0013599999999998058,2.2769103385948246,2.3701630468124146,non_fall
1.809161,0.9658,0.8484,-1.8793,0.3583,-0.5906,-0.7989,31.5938,17.3438,-44.3063,,0.02219300000000013,2.2769103385948246,2.14683808745947,non_fall
1.826349,0.1562,-1.0133,-1.6187,0.3583,-0.5906,-0.7989,31.5938,17.3438,-44.3063,,0.01718799999999998,1.9160806402654353,1.9682301957974204,non_fall
1.8465,0.1562,-1.0133,-1.6187,0.2305,0.7996,-0.4543,31.5938,17.3438,-44.3063,,0.02015100000000003,1.9160806402654353,1.8081587459473005,lateral_fall
1.846914,0.1562,-1.0133,-1.6187,0.2305,0.7996,-0.4543,31.5938,17.3438,-44.3063,,0.00041399999999991444,1.9160806402654353,1.6449404591432712,lateral_fall
1.868824,0.1562,-1.0133,-1.6187,0.2305,0.7996,-0.4543,30.6188,19.0125,-44.025,,0.021910000000000096,1.9160806402654353,1.4687006096112327,lateral_fall
1.907487,0.1562,-1.0133,-1.6187,0.1332,0.018,-0.7326,30.6188,19.0125,-44.025,,0.03866299999999989,1.9160806402654353,1.2852482392596623,lateral_fall
1.908826,0.1562,-1.0133,-1.6187,0.1332,0.018,-0.7326,30.6188,19.0125,-44.025,,0.001338999999999979,1.9160806402654353,1.1152528057677273,lateral_fall
1.91,-0.1271,-0.054,0.1004,0.1332,0.018,-0.7326,30.6188,19.0125,-44.025,,0.0011740000000000084,0.17073538004760466,0.9885965034581639,lateral_fall
1.929433,-0.1271,-0.054,0.1004,0.1332,0.018,-0.7326,29.7,20.5125,-43.8563,,0.019433000000000034,0.17073538004760466,0.9353326778508246,lateral_fall
1.971346,-0.1271,-0.054,0.1004,0.1332,0.018,-0.7326,29.7,20.5125,-43.8563,,0.04191300000000009,0.17073538004760466,0.9761270473565898,lateral_fall
1.972712,-0.1271,-0.054,0.1004,0.0523,-1.5207,-1.3397,29.7,20.5125,-43.8563,,0.0013659999999999783,0.17073538004760466,1.1155516551756806,lateral_fall
1.974601,1.6559,0.6198,1.3537,0.0523,-1.5207,-1.3397,29.7,20.5125,-43.8563,,0.0018890000000000295,2.2268050071795686,1.3406189818518028,lateral_fall
1.989182,1.6559,0.6198,1.3537,0.0523,-1.5207,-1.3397,28.0313,21.825,-44.0813,,0.014580999999999955,2.2268050071795686,1.6248317881498582,lateral_fall
2.030432,1.6559,0.6198,1.3537,0.3447,-1.4862,-1.8793,28.0313,21.825,-44.0813,,0.04124999999999979,2.2268050071795686,1.935869039641613,lateral_fall
2.032205,1.6559,0.6198,1.3537,0.3447,-1.4862,-1.8793,28.0313,21.825,-44.0813,,0.0017730000000000246,2.2268050071795686,2.243941690917848,lateral_fall
2.033119,2.4941,-0.4287,1.3231,0.3447,-1.4862,-1.8793,28.0313,21.825,-44.0813,,0.0009140000000003035,2.855680673674842,2.5281906543067274,lateral_fall
2.049942,2.4941,-0.4287,1.3231,0.3447,-1.4862,-1.8793,27.0375,28.1813,-45.9938,,0.016823000000000032,2.855680673674842,2.779695333511079,lateral_fall
2.090531,2.4941,-0.4287,1.3231,0.6539,0.6332,-1.9432,27.0375,28.1813,-45.9938,,0.040588999999999764,2.855680673674842,3.000897555979793,lateral_fall
2.091141,-2.4903,-1.5418,-1.4825,0.6539,0.6332,-1.9432,27.0375,28.1813,-45.9938,,0.0006099999999999994,3.2827652337625364,3.2021431049819657,lateral_fall
2.091473,-2.4903,-1.5418,-1.4825,0.6539,0.6332,-1.9432,27.0375,28.1813,-45.9938,,0.000332000000000221,3.2827652337625364,3.396613412799372,lateral_fall
2.108826,-2.4903,-1.5418,-1.4825,0.6539,0.6332,-1.9432,24.1875,28.8,-47.2875,,0.017352999999999952,3.2827652337625364,3.5952167651910503,lateral_fall
2.151696,-2.4903,-1.5418,-1.4825,0.6539,0.6332,-1.9432,24.1875,28.8,-47.2875,,0.04286999999999974,3.2827652337625364,3.803035232214702,lateral_fall
2.152885,-2.4903,-1.5418,-1.4825,0.1719,0.7109,-1.7181,24.1875,28.8,-47.2875,,0.0011890000000001066,3.2827652337625364,4.0186459497421065,lateral_fall
2.169213,-2.4903,-1.5418,-1.4825,0.1719,0.7109,-1.7181,21.2812,29.1375,-48.3188,,0.01632800000000012,3.2827652337625364,4.236925158229171,lateral_fall
2.171109,-5.5441,0.4595,-2.8132,0.1719,0.7109,-1.7181,21.2812,29.1375,-48.3188,,0.0018959999999998978,6.233961766004024,4.454652759725978,lateral_fall
2.213225,-5.5441,0.4595,-2.8132,0.1719,0.7109,-1.7181,21.2812,29.1375,-48.3188,,0.04211600000000004,6.233961766004024,4.676537516525238,lateral_fall
2.214461,-5.5441,0.4595,-2.8132,-0.5228,0.5124,-1.8356,21.2812,29.1375,-48.3188,,0.0012360000000000149,6.233961766004024,4.918033064406903,lateral_fall
2.230339,-5.5441,0.4595,-2.8132,-0.5228,0.5124,-1.8356,18.1875,29.6063,-49.2375,,0.015877999999999837,6.233961766004024,5.201777459358342,lateral_fall
2.233727,-1.7214,-2.6185,1.8229,-0.5228,0.5124,-1.8356,18.1875,29.6063,-49.2375,,0.0033880000000001687,3.625289591191302,5.547243536588647,lateral_fall
2.274012,-1.7214,-2.6185,1.8229,-0.0889,1.2477,-1.1784,18.1875,29.6063,-49.2375,,0.040284999999999904,3.625289591191302,5.957253125997033,lateral_fall
2.275832,-1.7214,-2.6185,1.8229,-0.0889,1.2477,-1.1784,18.1875,29.6063,-49.2375,,0.0018199999999999328,3.625289591191302,6.408182611064646,lateral_fall
2.289002,-1.7214,-2.6185,1.8229,-0.0889,1.2477,-1.1784,15.4875,30.0375,-49.7063,,0.013170000000000126,3.625289591191302,6.8507563253312584,lateral_fall
2.293908,-6.112,-9.2532,-0.6156,-0.0889,1.2477,-1.1784,15.4875,30.0375,-49.7063,,0.004906000000000077,11.106629443715136,7.224326282087492,lateral_fall
2.33512,-6.112,-9.2532,-0.6156,0.976,-0.6707,-0.6808,15.4875,30.0375,-49.7063,,0.041211999999999804,11.106629443715136,7.480646276865623,lateral_fall
2.335766,-6.112,-9.2532,-0.6156,0.976,-0.6707,-0.6808,15.4875,30.0375,-49.7063,,0.0006460000000001465,11.106629443715136,7.606762279232245,lateral_fall
2.350191,-6.112,-9.2532,-0.6156,0.976,-0.6707,-0.6808,11.3625,37.7063,-50.2313,,0.014425000000000132,11.106629443715136,7.634910328272912,lateral_fall
2.376319,-0.7333,-0.1364,4.0182,0.976,-0.6707,-0.6808,11.3625,37.7063,-50.2313,,0.02612799999999993,4.086840477679549,7.632276506672961,lateral_fall
2.397216,-0.7333,-0.1364,4.0182,2.7865,0.7116,0.232,11.3625,37.7063,-50.2313,,0.02089699999999972,4.086840477679549,7.673115186258943,lateral_fall
2.398978,-0.7333,-0.1364,4.0182,2.7865,0.7116,0.232,11.3625,37.7063,-50.2313,,0.0017620000000002634,4.086840477679549,7.804946960797658,lateral_fall
2.410074,-0.7333,-0.1364,4.0182,2.7865,0.7116,0.232,8.9625,37.2375,-51.6375,,0.011095999999999773,4.086840477679549,8.024237955283503,lateral_fall
2.436158,9.9908,-1.9224,-4.3444,2.7865,0.7116,0.232,8.9625,37.2375,-51.6375,,0.026083999999999996,11.062798821274841,8.272957280532953,lateral_fall
2.456021,9.9908,-1.9224,-4.3444,2.1851,1.9398,-1.0923,8.9625,37.2375,-51.6375,,0.019862999999999964,11.062798821274841,8.45781903221443,lateral_fall
2.456932,9.9908,-1.9224,-4.3444,2.1851,1.9398,-1.0923,8.9625,37.2375,-51.6375,,0.0009110000000003282,11.062798821274841,8.483897649893958,lateral_fall
2.469245,9.9908,-1.9224,-4.3444,2.1851,1.9398,-1.0923,7.6313,35.7188,-52.8563,,0.012312999999999796,11.062798821274841,8.288738722146588,lateral_fall
2.497109,3.4968,-5.2601,-1.3889,2.1851,1.9398,-1.0923,7.6313,35.7188,-52.8563,,0.02786400000000011,6.467248677760892,7.864294700025832,lateral_fall
2.517748,3.4968,-5.2601,-1.3889,2.5387,1.5916,-1.9268,7.6313,35.7188,-52.8563,,0.020639000000000074,6.467248677760892,7.260339849153141,lateral_fall
2.519218,3.4968,-5.2601,-1.3889,2.5387,1.5916,-1.9268,7.6313,35.7188,-52.8563,,0.0014699999999998603,6.467248677760892,6.570498286518209,lateral_fall
2.530411,3.4968,-5.2601,-1.3889,2.5387,1.5916,-1.9268,8.0438,33.6,-53.625,,0.011193000000000008,6.467248677760892,5.907158731329598,lateral_fall
2.558133,2.8877,-2.2411,-0.8418,2.5387,1.5916,-1.9268,8.0438,33.6,-53.625,,0.027722000000000246,3.7509955665129757,5.373250505257179,lateral_fall
2.582035,2.8877,-2.2411,-0.8418,2.7016,1.1883,-0.7561,8.0438,33.6,-53.625,,0.023901999999999646,3.7509955665129757,5.038274453026398,lateral_fall
2.582813,2.8877,-2.2411,-0.8418,2.7016,1.1883,-0.7561,8.0438,33.6,-53.625,,0.0007779999999999454,3.7509955665129757,4.924553684898988,lateral_fall
2.588979,2.8877,-2.2411,-0.8418,2.7016,1.1883,-0.7561,9.1125,30.7688,-53.775,,0.006166000000000338,3.7509955665129757,5.007565775972499,lateral_fall
2.639719,2.8877,-2.2411,-0.8418,1.7328,-5.5744,-2.6962,9.1125,30.7688,-53.775,,0.050739999999999785,3.7509955665129757,5.230950346273348,lateral_fall
2.640331,8.3173,-0.4538,2.7093,1.7328,-5.5744,-2.6962,9.1125,30.7688,-53.775,,0.000612000000000279,8.75920773928784,5.532470608635901,lateral_fall
2.640687,8.3173,-0.4538,2.7093,1.7328,-5.5744,-2.6962,9.1125,30.7688,-53.775,,0.0003559999999995789,8.75920773928784,5.872861217804157,lateral_fall
2.649179,8.3173,-0.4538,2.7093,1.7328,-5.5744,-2.6962,5.1562,-6.525,-26.4188,,0.008492000000000388,8.75920773928784,6.25685510069044,lateral_fall
2.700942,8.3173,-0.4538,2.7093,1.7328,-5.5744,-2.6962,5.1562,-6.525,-26.4188,,0.05176299999999978,8.75920773928784,6.736693795055284,lateral_fall
2.701515,8.3173,-0.4538,2.7093,1.2816,-0.7024,-2.962,5.1562,-6.525,-26.4188,,0.0005730000000001567,8.75920773928784,7.393833586657372,lateral_fall
2.701947,-3.5577,-1.0422,1.1033,1.2816,-0.7024,-2.962,5.1562,-6.525,-26.4188,,0.00043199999999998795,3.867903956925508,8.302886125335437,lateral_fall
2.709435,-3.5577,-1.0422,1.1033,1.2816,-0.7024,-2.962,11.4188,24.675,-49.3875,,0.007487999999999939,3.867903956925508,9.490019876332905,lateral_fall
2.760742,-3.5577,-1.0422,1.1033,1.2816,-0.7024,-2.962,11.4188,24.675,-49.3875,,0.05130699999999999,3.867903956925508,10.902531474759574,lateral_fall
2.761183,-15.3093,-0.2274,-7.4225,1.2816,-0.7024,-2.962,11.4188,24.675,-49.3875,,0.0004409999999999137,17.015283820730115,12.403919510812868,lateral_fall
2.762211,-15.3093,-0.2274,-7.4225,1.0477,1.396,-1.8172,11.4188,24.675,-49.3875,,0.001028000000000251,17.015283820730115,13.799017662913007,lateral_fall
2.76934,-15.3093,-0.2274,-7.4225,1.0477,1.396,-1.8172,6.4125,-11.0438,-26.4,,0.007128999999999941,17.015283820730115,14.880911661251366,lateral_fall
2.826075,-15.3093,-0.2274,-7.4225,0.4321,0.8561,-0.318,6.4125,-11.0438,-26.4,,0.05673499999999976,17.015283820730115,15.482752936047337,lateral_fall
2.826979,-15.3093,-0.2274,-7.4225,0.4321,0.8561,-0.318,6.4125,-11.0438,-26.4,,0.000904000000000238,17.015283820730115,15.517440577837656,lateral_fall
2.827664,-15.3093,-0.2274,-7.4225,0.4321,0.8561,-0.318,7.3313,-15.3938,-26.4938,,0.0006849999999998246,17.015283820730115,14.99459781953524,lateral_fall
2.842263,-7.3712,5.9396,-5.4605,0.4321,0.8561,-0.318,7.3313,-15.3938,-26.4938,,0.014599000000000029,10.928426137829728,14.01266201995548,lateral_fall
2.88269,-7.3712,5.9396,-5.4605,-0.0482,-0.0222,-0.4795,7.3313,-15.3938,-26.4938,,0.04042700000000021,10.928426137829728,12.731099587794912,lateral_fall
2.883756,-7.3712,5.9396,-5.4605,-0.0482,-0.0222,-0.4795,7.3313,-15.3938,-26.4938,,0.0010659999999997893,10.928426137829728,11.332327735900778,lateral_fall
2.889172,-7.3712,5.9396,-5.4605,-0.0482,-0.0222,-0.4795,12.9563,10.3125,-50.4938,,0.005415999999999865,10.928426137829728,9.9839093123157,lateral_fall
2.903767,-5.2619,3.0247,-3.5948,-0.0482,-0.0222,-0.4795,12.9563,10.3125,-50.4938,,0.014595000000000358,7.054005155938008,8.80920044849813,lateral_fall
2.944547,-5.2619,3.0247,-3.5948,-0.3099,-1.6743,-0.3751,12.9563,10.3125,-50.4938,,0.040779999999999816,7.054005155938008,7.870886336582353,lateral_fall
2.945911,-5.2619,3.0247,-3.5948,-0.3099,-1.6743,-0.3751,12.9563,10.3125,-50.4938,,0.0013640000000001429,7.054005155938008,7.168705205251336,lateral_fall
2.949885,-5.2619,3.0247,-3.5948,-0.3099,-1.6743,-0.3751,12.5813,7.6125,-50.025,,0.003973999999999922,7.054005155938008,6.650298319214135,lateral_fall
2.96399,-5.7341,2.6563,-1.9748,-0.3099,-1.6743,-0.3751,12.5813,7.6125,-50.025,,0.014104999999999812,6.620850967964767,6.2318737399243,lateral_fall
3.005969,-5.7341,2.6563,-1.9748,-0.2854,-0.4159,0.5712,12.5813,7.6125,-50.025,,0.04197899999999999,6.620850967964767,5.823415845339201,lateral_fall
3.007717,-5.7341,2.6563,-1.9748,-0.2854,-0.4159,0.5712,12.5813,7.6125,-50.025,,0.0017480000000000828,6.620850967964767,5.352319859870831,lateral_fall
3.010278,-5.7341,2.6563,-1.9748,-0.2854,-0.4159,0.5712,11.4188,5.475,-49.8188,,0.0025610000000000355,6.620850967964767,4.779985835149867,lateral_fall
3.024999,-0.2341,2.3308,-0.9393,-0.2854,-0.4159,0.5712,11.4188,5.475,-49.8188,,0.014721000000000206,2.5238296178625053,4.107961898583768,lateral_fall
3.067036,-0.2341,2.3308,-0.9393,-0.4997,-0.347,0.5095,11.4188,5.475,-49.8188,,0.04203699999999966,2.5238296178625053,3.3732901935606003,lateral_fall
3.067754,-0.2341,2.3308,-0.9393,-0.4997,-0.347,0.5095,11.4188,5.475,-49.8188,,0.0007179999999999964,2.5238296178625053,2.635820205822481,lateral_fall
3.071817,-0.2341,2.3308,-0.9393,-0.4997,-0.347,0.5095,9.7688,4.3125,-50.025,,0.004062999999999928,2.5238296178625053,1.962016965791702,lateral_fall
3.106964,-0.3957,-0.2396,-0.2285,-0.4997,-0.347,0.5095,9.7688,4.3125,-50.025,,0.03514700000000026,0.5159446675758942,1.4095946197374605,lateral_fall
3.127072,-0.3957,-0.2396,-0.2285,-0.4997,-0.347,0.5095,9.7688,4.3125,-50.025,,0.020108000000000015,0.5159446675758942,1.0159964118493543,lateral_fall
3.127733,-0.3957,-0.2396,-0.2285,-0.6187,-0.4919,0.7221,9.7688,4.3125,-50.025,,0.0006610000000000227,0.5159446675758942,0.7924680565382559,lateral_fall
3.128288,-0.3957,-0.2396,-0.2285,-0.6187,-0.4919,0.7221,9.4875,3.9188,-49.8938,,0.0005549999999998612,0.5159446675758942,0.7244094126995507,lateral_fall
3.168629,1.3362,-0.0039,-0.3968,-0.6187,-0.4919,0.7221,9.4875,3.9188,-49.8938,,0.04034100000000018,1.3938780039874366,0.7774496655258049,lateral_fall
3.189023,1.3362,-0.0039,-0.3968,-0.7475,0.4009,0.9021,9.4875,3.9188,-49.8938,,0.020394000000000023,1.3938780039874366,0.9073334776339677,lateral_fall
3.190112,1.3362,-0.0039,-0.3968,-0.7475,0.4009,0.9021,9.4875,3.9188,-49.8938,,0.0010889999999998956,1.3938780039874366,1.0707969769077896,lateral_fall
3.190602,1.3362,-0.0039,-0.3968,-0.7475,0.4009,0.9021,9.7688,4.2,-49.6313,,0.0004900000000001015,1.3938780039874366,1.2346158904136415,lateral_fall
3.22887,0.3993,-1.3851,-0.0471,-0.7475,0.4009,0.9021,9.7688,4.2,-49.6313,,0.03826799999999997,1.4422762946120968,1.3808897138543976,lateral_fall
3.25038,0.3993,-1.3851,-0.0471,-0.7475,0.4009,0.9021,9.3,5.1375,-49.4625,,0.021509999999999696,1.4422762946120968,1.50792171275219,lateral_fall
3.251311,0.3993,-1.3851,-0.0471,-0.7791,0.0116,0.992,9.3,5.1375,-49.4625,,0.0009310000000000151,1.4422762946120968,1.6272271085321375,lateral_fall
3.252162,0.3993,-1.3851,-0.0471,-0.7791,0.0116,0.992,9.3,5.1375,-49.4625,,0.0008510000000003792,1.4422762946120968,1.757941685369637,lateral_fall
3.289939,0.428,-2.0829,0.6526,-0.7791,0.0116,0.992,9.3,5.1375,-49.4625,,0.03777699999999973,2.224307346119236,1.920148084558317,lateral_fall
3.31005,0.428,-2.0829,0.6526,-0.8068,0.9388,1.5096,9.3,5.1375,-49.4625,,0.02011099999999999,2.224307346119236,2.128476345040432,lateral_fall
3.310801,0.428,-2.0829,0.6526,-0.8068,0.9388,1.5096,9.3,5.1375,-49.4625,,0.0007510000000001682,2.224307346119236,2.3869939113975267,lateral_fall
3.311167,0.428,-2.0829,0.6526,-0.8068,0.9388,1.5096,8.775,6.5625,-49.6688,,0.0003660000000000885,2.224307346119236,2.686155396007995,lateral_fall
3.370715,0.428,-2.0829,0.6526,-0.8068,0.9388,1.5096,7.5188,7.125,-50.4563,,0.059547999999999934,2.224307346119236,3.00249354614007,lateral_fall
3.371746,2.0531,-2.2905,2.3094,-0.8068,0.9388,1.5096,7.5188,7.125,-50.4563,,0.001030999999999782,3.8464188825451657,3.301508589048525,lateral_fall
3.372261,2.0531,-2.2905,2.3094,-0.7333,0.9619,1.855,7.5188,7.125,-50.4563,,0.0005150000000000432,3.8464188825451657,3.543538590500024,lateral_fall
3.372733,2.0531,-2.2905,2.3094,-0.7333,0.9619,1.855,7.5188,7.125,-50.4563,,0.00047200000000025,3.8464188825451657,3.6914195462434165,lateral_fall
3.432282,2.0531,-2.2905,2.3094,-0.7333,0.9619,1.855,8.1938,8.8313,-50.6438,,0.05954899999999963,3.8464188825451657,3.7180654682570338,lateral_fall
3.43443,2.0531,-2.2905,2.3094,-0.7333,0.9619,1.855,8.1938,8.8313,-50.6438,,0.0021480000000000388,3.8464188825451657,3.612145412137269,lateral_fall
3.435243,2.0531,-2.2905,2.3094,-0.6947,0.9942,1.5305,8.1938,8.8313,-50.6438,,0.0008129999999999526,3.8464188825451657,3.3806695530515243,lateral_fall
3.436253,2.3021,-0.4456,0.6354,-0.6947,0.9942,1.5305,8.1938,8.8313,-50.6438,,0.0010099999999999554,2.429394354566586,3.0481275490076225,lateral_fall
3.488782,2.3021,-0.4456,0.6354,-0.6947,0.9942,1.5305,9.225,10.8938,-50.5313,,0.05252900000000027,2.429394354566586,2.652614180535334,lateral_fall
3.493843,2.3021,-0.4456,0.6354,-0.5822,-0.3381,1.0027,9.225,10.8938,-50.5313,,0.005060999999999982,2.429394354566586,2.2399713921686746,lateral_fall
3.495213,2.3021,-0.4456,0.6354,-0.5822,-0.3381,1.0027,9.225,10.8938,-50.5313,,0.0013700000000000934,2.429394354566586,1.8571639399914035,lateral_fall
3.496334,0.6129,0.7588,-0.0312,-0.5822,-0.3381,1.0027,9.225,10.8938,-50.5313,,0.0011209999999999276,0.9759084434515362,1.5459079417924066,lateral_fall
3.549856,0.6129,0.7588,-0.0312,-0.5822,-0.3381,1.0027,10.1625,12.8625,-50.475,,0.05352200000000007,0.9759084434515362,1.337360514916436,lateral_fall
3.552325,0.6129,0.7588,-0.0312,-0.7173,-0.3698,0.6238,10.1625,12.8625,-50.475,,0.0024690000000000545,0.9759084434515362,1.2486836134930337,lateral_fall
3.553367,0.6129,0.7588,-0.0312,-0.7173,-0.3698,0.6238,10.1625,12.8625,-50.475,,0.0010419999999999874,0.9759084434515362,1.2822233669374354,lateral_fall
3.573234,-1.8902,-0.6538,0.4599,-0.7173,-0.3698,0.6238,10.1625,12.8625,-50.475,,0.019866999999999635,2.052271543923952,1.4275050961636713,lateral_fall
3.612051,-1.8902,-0.6538,0.4599,-0.7173,-0.3698,0.6238,11.2125,14.9438,-50.4,,0.03881700000000032,2.052271543923952,1.6653328365263163,lateral_fall
3.616531,-1.8902,-0.6538,0.4599,-0.9012,-0.5192,0.725,11.2125,14.9438,-50.4,,0.0044800000000000395,2.052271543923952,1.9725482177051423,lateral_fall
3.618412,-1.8902,-0.6538,0.4599,-0.9012,-0.5192,0.725,11.2125,14.9438,-50.4,,0.0018810000000000215,2.052271543923952,2.3259311017459887,lateral_fall
3.63473,-0.2791,-2.9569,1.0665,-0.9012,-0.5192,0.725,11.2125,14.9438,-50.4,,0.01631799999999961,3.155721259870713,2.704312079595853,lateral_fall
3.669977,-0.2791,-2.9569,1.0665,-0.9012,-0.5192,0.725,12.2063,17.1188,-50.175,,0.03524700000000003,3.155721259870713,3.0887698983188043,lateral_fall
3.675421,-0.2791,-2.9569,1.0665,-1.1622,-0.5096,1.0611,12.2063,17.1188,-50.175,,0.0054440000000002264,3.155721259870713,3.4614045682909023,lateral_fall
3.676365,-0.2791,-2.9569,1.0665,-1.1622,-0.5096,1.0611,12.2063,17.1188,-50.175,,0.0009440000000000559,3.155721259870713,3.8035655596936753,lateral_fall
3.695903,3.5473,-1.2094,2.2041,-1.1622,-0.5096,1.0611,12.2063,17.1188,-50.175,,0.019537999999999833,4.347877926069222,4.094609445171932,lateral_fall
3.728946,3.5473,-1.2094,2.2041,-1.1622,-0.5096,1.0611,13.1625,19.8375,-49.8938,,0.033043000000000156,4.347877926069222,4.312107281169084,lateral_fall
3.736285,3.5473,-1.2094,2.2041,-1.2551,0.2728,0.5876,13.1625,19.8375,-49.8938,,0.007338999999999984,4.347877926069222,4.433858323767464,lateral_fall
3.736927,3.5473,-1.2094,2.2041,-1.2551,0.2728,0.5876,13.1625,19.8375,-49.8938,,0.0006420000000000314,4.347877926069222,4.441397664171849,lateral_fall
3.756924,3.596,-1.3861,1.7777,-1.2551,0.2728,0.5876,13.1625,19.8375,-49.8938,,0.019997000000000043,4.244137898325171,4.3242582952985344,lateral_fall
3.791632,3.596,-1.3861,1.7777,-1.2551,0.2728,0.5876,14.3625,22.1063,-49.0688,,0.03470799999999974,4.244137898325171,4.08406474784361,lateral_fall
3.798464,3.596,-1.3861,1.7777,-0.9641,-0.1003,1.3332,14.3625,22.1063,-49.0688,,0.006832000000000171,4.244137898325171,3.7374088888948576,lateral_fall
3.799655,3.596,-1.3861,1.7777,-0.9641,-0.1003,1.3332,14.3625,22.1063,-49.0688,,0.001190999999999942,4.244137898325171,3.316395956858836,non_fall
3.837902,1.2666,-1.6746,-0.1849,-0.9641,-0.1003,1.3332,14.3625,22.1063,-49.0688,,0.03824700000000014,2.107782894417734,2.866015916159418,non_fall
3.849942,1.2666,-1.6746,-0.1849,-0.9641,-0.1003,1.3332,15.2063,24.2063,-48.375,,0.012039999999999829,2.107782894417734,2.438297758461592,non_fall
3.858242,1.2666,-1.6746,-0.1849,-0.9641,-0.1003,1.3332,15.2063,24.2063,-48.375,,0.008300000000000196,2.107782894417734,2.084288798930857,non_fall
3.859402,1.2666,-1.6746,-0.1849,-0.8004,-0.0534,1.3569,15.2063,24.2063,-48.375,,0.0011600000000000499,2.107782894417734,1.8456160688308123,non_fall
3.89866,0.2024,-0.8067,-1.2399,-0.8004,-0.0534,1.3569,15.2063,24.2063,-48.375,,0.03925799999999979,1.4930112725629368,1.7473597109610708,non_fall
3.909633,0.2024,-0.8067,-1.2399,-0.8004,-0.0534,1.3569,15.9938,26.1938,-47.3438,,0.0109729999999999,1.4930112725629368,1.7935141987830432,non_fall
3.9206,0.2024,-0.8067,-1.2399,-1.0753,0.1542,1.7673,15.9938,26.1938,-47.3438,,0.010966999999999949,1.4930112725629368,1.9659153481097826,non_fall
3.92262,0.2024,-0.8067,-1.2399,-1.0753,0.1542,1.7673,15.9938,26.1938,-47.3438,,0.002020000000000355,1.4930112725629368,2.2271691809093532,non_fall
3.959506,2.271,2.3508,0.7396,-1.0753,0.1542,1.7673,15.9938,26.1938,-47.3438,,0.036885999999999974,3.351225119266087,2.52747881152204,non_fall
3.969884,2.271,2.3508,0.7396,-1.0753,0.1542,1.7673,17.0063,28.0125,-46.2375,,0.010377999999999776,3.351225119266087,2.8142040123641063,non_fall
3.981092,2.271,2.3508,0.7396,-1.0753,0.1542,1.7673,17.0063,28.0125,-46.2375,,0.011207999999999885,3.351225119266087,3.041920636253545,non_fall
3.982355,2.271,2.3508,0.7396,-1.148,0.1198,1.8199,17.0063,28.0125,-46.2375,,0.0012630000000002362,3.351225119266087,3.1803684974890456,non_fall
4.031229,2.271,2.3508,0.7396,-1.148,0.1198,1.8199,18.5438,29.6438,-44.6438,,0.04887399999999964,3.351225119266087,3.218314589124072,non_fall
4.040805,2.271,2.3508,0.7396,-1.1011,0.2089,1.5618,18.5438,29.6438,-44.6438,,0.009576000000000029,3.351225119266087,3.1626455503612956,non_fall
4.04261,2.271,2.3508,0.7396,-1.1011,0.2089,1.5618,18.5438,29.6438,-44.6438,,0.0018050000000000566,3.351225119266087,3.0333078393205066,non_fall
4.043362,0.9575,1.5925,-0.3785,-1.1011,0.2089,1.5618,18.5438,29.6438,-44.6438,,0.000752000000000308,1.8963451030864609,2.8557207486477076,non_fall
4.089978,0.9575,1.5925,-0.3785,-1.1011,0.2089,1.5618,20.7188,30.9938,-42.8625,,0.04661600000000021,1.8963451030864609,2.6529693826322185,non_fall
4.102692,0.9575,1.5925,-0.3785,-1.0265,0.6282,1.9831,20.7188,30.9938,-42.8625,,0.012713999999999892,1.8963451030864609,2.440284283618791,non_fall
4.104568,0.9575,1.5925,-0.3785,-1.0265,0.6282,1.9831,20.7188,30.9938,-42.8625,,0.0018760000000002108,1.8963451030864609,2.2236684101002724,non_fall
4.105811,-3.0775,-0.9829,0.4214,-1.0265,0.6282,1.9831,20.7188,30.9938,-42.8625,,0.001242999999999661,3.258017283563732,2.002942797782856,non_fall
4.150768,-3.0775,-0.9829,0.4214,-1.0265,0.6282,1.9831,23.2313,31.7813,-41.0813,,0.044957000000000136,3.258017283563732,1.7775424212402844,non_fall
4.162864,0.2892,0.73,0.4752,-1.0265,0.6282,1.9831,23.2313,31.7813,-41.0813,,0.012095999999999663,0.9177971889257451,1.552198569483354,non_fall
4.164615,0.2892,0.73,0.4752,-1.0265,0.6282,1.9831,23.2313,31.7813,-41.0813,,0.0017510000000005022,0.9177971889257451,1.340023802941768,non_fall
4.165278,0.2892,0.73,0.4752,-1.0819,0.0581,1.1527,23.2313,31.7813,-41.0813,,0.0006629999999994141,0.9177971889257451,1.1622142193736458,non_fall
4.211204,0.2892,0.73,0.4752,-1.0819,0.0581,1.1527,25.6313,32.2313,-39.5063,,0.04592600000000058,0.9177971889257451,1.045304413626425,non_fall
4.223416,0.2892,0.73,0.4752,-0.7866,-0.419,1.1741,25.6313,32.2313,-39.5063,,0.01221199999999989,0.9177971889257451,1.0175173599135616,non_fall
4.224488,0.2892,0.73,0.4752,-0.7866,-0.419,1.1741,25.6313,32.2313,-39.5063,,0.0010719999999997398,0.9177971889257451,1.1052493805847878,non_fall
4.224861,1.3046,-0.0898,1.8002,-0.7866,-0.419,1.1741,25.6313,32.2313,-39.5063,,0.00037299999999973465,2.22503151438356,1.329856782205119,non_fall
4.27068,1.3046,-0.0898,1.8002,-0.7866,-0.419,1.1741,27.8625,32.2313,-38.1188,,0.04581899999999983,2.22503151438356,1.7042678184758613,non_fall
4.284737,1.3046,-0.0898,1.8002,-0.7866,-0.419,1.1741,27.8625,32.2313,-38.1188,,0.014057000000000208,2.22503151438356,2.228846112741897,non_fall
4.286687,1.3046,-0.0898,1.8002,-0.2587,0.0076,1.2735,27.8625,32.2313,-38.1188,,0.0019499999999998963,2.22503151438356,2.8865462520645715,non_fall
4.30471,-0.5494,2.4997,2.7736,-0.2587,0.0076,1.2735,27.8625,32.2313,-38.1188,,0.018023000000000344,3.7740160850213664,3.638526459883394,non_fall
4.329302,-0.5494,2.4997,2.7736,-0.2587,0.0076,1.2735,30.2625,31.9875,-36.8063,,0.02459200000000017,3.7740160850213664,4.422352908575624,non_fall
4.344706,-0.5494,2.4997,2.7736,-0.6989,1.5991,2.7212,30.2625,31.9875,-36.8063,,0.015404000000000195,3.7740160850213664,5.155126047013687,non_fall
4.346236,-0.5494,2.4997,2.7736,-0.6989,1.5991,2.7212,30.2625,31.9875,-36.8063,,0.0015299999999998093,3.7740160850213664,5.743101373839657,non_fall
4.364979,-2.5773,-1.3172,-7.3717,-0.6989,1.5991,2.7212,30.2625,31.9875,-36.8063,,0.018742999999999732,7.9195613527518045,6.09763609930261,non_fall
4.389007,-2.5773,-1.3172,-7.3717,-0.6989,1.5991,2.7212,31.7063,31.5,-35.7188,,0.024028000000000382,7.9195613527518045,6.154608398852167,non_fall
4.405762,-2.5773,-1.3172,-7.3717,-1.3024,-0.1521,0.9454,31.7063,31.5,-35.7188,,0.016754999999999853,7.9195613527518045,5.891683331204698,non_fall
4.407335,-2.5773,-1.3172,-7.3717,-1.3024,-0.1521,0.9454,31.7063,31.5,-35.7188,,0.0015729999999996025,7.9195613527518045,5.33682128334328,non_fall
4.425911,-1.707,0.4163,0.4521,-1.3024,-0.1521,0.9454,31.7063,31.5,-35.7188,,0.01857600000000037,1.814262687705394,4.563720951422304,non_fall
4.449007,-1.707,0.4163,0.4521,-1.3024,-0.1521,0.9454,33.8438,30.7688,-34.5375,,0.023095999999999783,1.814262687705394,3.674896697321799,non_fall
4.465989,-1.707,0.4163,0.4521,-1.3418,-0.4003,-0.8611,33.8438,30.7688,-34.5375,,0.016982000000000497,1.814262687705394,2.7781870039897654,non_fall
4.466788,-1.707,0.4163,0.4521,-1.3418,-0.4003,-0.8611,33.8438,30.7688,-34.5375,,0.0007989999999997721,1.814262687705394,1.9647146865531753,non_fall
4.507696,0.9814,0.3258,-0.2141,-1.3418,-0.4003,-0.8611,33.8438,30.7688,-34.5375,,0.040907999999999944,1.05599735321638,1.2946375521746323,non_fall
4.509408,0.9814,0.3258,-0.2141,-1.3418,-0.4003,-0.8611,35.6625,30.4125,-33.3188,,0.0017119999999994917,1.05599735321638,0.7930666448562063,non_fall
4.529089,0.9814,0.3258,-0.2141,-1.3418,-0.4003,-0.8611,35.6625,30.4125,-33.3188,,0.01968100000000028,1.05599735321638,0.4548077715632182,non_fall
4.530273,0.9814,0.3258,-0.2141,-1.1665,-0.2806,0.4304,35.6625,30.4125,-33.3188,,0.001184000000000296,1.05599735321638,0.2544523057469009,non_fall
4.569272,-0.0801,-0.1396,0.0007,-1.1665,-0.2806,0.4304,35.6625,30.4125,-33.3188,,0.03899899999999956,0.1609492466586905,0.15784708380107434,non_fall
4.57186,-0.0801,-0.1396,0.0007,-1.1665,-0.2806,0.4304,37.0688,30.1125,-32.25,,0.0025880000000002568,0.1609492466586905,0.13171354770708554,non_fall
4.589985,-0.0801,-0.1396,0.0007,-1.1665,-0.2806,0.4304,37.0688,30.1125,-32.25,,0.01812500000000039,0.1609492466586905,0.1496409747233181,non_fall
4.592501,-0.0801,-0.1396,0.0007,-0.7778,-0.0871,0.7683,37.0688,30.1125,-32.25,,0.0025159999999999627,0.1609492466586905,0.19417938334583776,non_fall
4.631883,-0.0801,-0.1396,0.0007,-0.7778,-0.0871,0.7683,38.2875,29.8125,-31.275,,0.039381999999999806,0.1609492466586905,0.255778661966867,non_fall
4.634577,-0.1358,0.1426,-0.2384,-0.7778,-0.0871,0.7683,38.2875,29.8125,-31.275,,0.002693999999999974,0.30921021975348745,0.32976790457205574,non_fall
4.651139,-0.1358,0.1426,-0.2384,-0.3983,-0.0886,0.8653,38.2875,29.8125,-31.275,,0.01656199999999952,0.30921021975348745,0.4126430204344786,non_fall
4.652756,-0.1358,0.1426,-0.2384,-0.3983,-0.0886,0.8653,38.2875,29.8125,-31.275,,0.0016170000000004237,0.30921021975348745,0.49882216422227227,non_fall
4.691207,-0.1358,0.1426,-0.2384,-0.3983,-0.0886,0.8653,39.3938,29.175,-30.15,,0.038451000000000235,0.30921021975348745,0.5788134100838337,non_fall
4.692885,-0.1496,0.0735,-0.625,-0.3983,-0.0886,0.8653,39.3938,29.175,-30.15,,0.0016780000000000683,0.6468441929862244,0.6394141884501308,non_fall
4.711084,-0.1496,0.0735,-0.625,-0.0893,0.0606,0.5329,39.3938,29.175,-30.15,,0.018198999999999188,0.6468441929862244,0.6661025652358249,non_fall
4.712924,-0.1496,0.0735,-0.625,-0.0893,0.0606,0.5329,39.3938,29.175,-30.15,,0.001840000000000508,0.6468441929862244,0.6472265741184555,non_fall
4.750621,-0.1496,0.0735,-0.625,-0.0893,0.0606,0.5329,40.6125,28.575,-29.0063,,0.03769699999999965,0.6468441929862244,0.5790872265046108,non_fall
4.772148,-0.1496,0.0735,-0.625,0.3125,-0.1162,0.2731,40.6125,28.575,-29.0063,,0.021526999999999852,0.6468441929862244,0.470681316564223,non_fall
4.774479,-0.1859,-0.4284,0.2675,0.3125,-0.1162,0.2731,40.6125,28.575,-29.0063,,0.002331000000000749,0.5381836303716419,0.34676671241494533,non_fall
4.775576,-0.1859,-0.4284,0.2675,0.3125,-0.1162,0.2731,40.6125,28.575,-29.0063,,0.0010969999999996816,0.5381836303716419,0.24802686848977484,non_fall
4.809773,-0.1859,-0.4284,0.2675,0.3125,-0.1162,0.2731,41.5875,27.9563,-28.05,,0.03419699999999981,0.5381836303716419,0.22745209156239826,non_fall
4.831979,-0.1859,-0.4284,0.2675,1.0555,-0.288,-0.0439,41.5875,27.9563,-28.05,,0.022205999999999726,0.5381836303716419,0.34264044913872826,non_fall
4.832766,0.3607,0.0036,-1.1183,1.0555,-0.288,-0.0439,41.5875,27.9563,-28.05,,0.0007870000000007593,1.1750371653696747,0.6445359034630229,non_fall
4.833112,0.3607,0.0036,-1.1183,1.0555,-0.288,-0.0439,41.5875,27.9563,-28.05,,0.00034599999999951336,1.1750371653696747,1.164114745316037,non_fall
4.870316,0.3607,0.0036,-1.1183,1.0555,-0.288,-0.0439,41.5688,27.9,-27.8813,,0.037204000000000015,1.1750371653696747,1.8996243157614277,non_fall
4.893591,0.3607,0.0036,-1.1183,1.4191,-1.3449,-0.6666,41.5688,27.9,-27.8813,,0.023274999999999935,1.1750371653696747,2.8079694572710867,non_fall
4.896053,0.3607,0.0036,-1.1183,1.4191,-1.3449,-0.6666,41.5688,27.9,-27.8813,,0.0024620000000004083,1.1750371653696747,3.8042157230636366,non_fall
4.896984,5.2443,-3.3028,-1.1187,1.4191,-1.3449,-0.6666,41.5688,27.9,-27.8813,,0.0009309999999995711,6.297829786521703,4.772131064378695,non_fall
4.93065,5.2443,-3.3028,-1.1187,1.4191,-1.3449,-0.6666,41.2313,27.675,-28.3313,,0.033666000000000196,6.297829786521703,5.585791284114021,non_fall
4.955007,5.2443,-3.3028,-1.1187,0.5706,-3.6372,-2.1149,41.2313,27.675,-28.3313,,0.024357000000000184,6.297829786521703,6.1383903078482716,non_fall
4.957564,5.2443,-3.3028,-1.1187,0.5706,-3.6372,-2.1149,41.2313,27.675,-28.3313,,0.0025569999999994764,6.297829786521703,6.37145219281403,non_fall
4.975461,7.4203,1.9813,-1.7883,0.5706,-3.6372,-2.1149,41.2313,27.675,-28.3313,,0.017897000000000496,7.885709775917448,6.296914194936567,non_fall
4.990234,7.4203,1.9813,-1.7883,0.5706,-3.6372,-2.1149,39.6562,27.6563,-30.0188,,0.014772999999999925,7.885709775917448,6.005632674714201,non_fall
5.017209,7.4203,1.9813,-1.7883,-0.7354,-0.1258,-3.1196,39.6562,27.6563,-30.0188,,0.026975000000000193,7.885709775917448,5.657873221510012,non_fall
5.019016,7.4203,1.9813,-1.7883,-0.7354,-0.1258,-3.1196,39.6562,27.6563,-30.0188,,0.001806999999999448,7.885709775917448,5.454393204479233,non_fall
5.035794,2.139,0.258,-1.4674,-0.7354,-0.1258,-3.1196,39.6562,27.6563,-30.0188,,0.016778000000000404,2.606750421501836,5.5914540214728685,non_fall
5.050302,2.139,0.258,-1.4674,-0.7354,-0.1258,-3.1196,37.2938,28.2938,-31.6125,,0.014508000000000187,2.606750421501836,6.209124426722737,non_fall
5.076413,2.139,0.258,-1.4674,-0.925,0.6155,-1.7536,37.2938,28.2938,-31.6125,,0.02611099999999933,2.606750421501836,7.347299534499299,non_fall
5.078535,2.139,0.258,-1.4674,-0.925,0.6155,-1.7536,37.2938,28.2938,-31.6125,,0.0021219999999999573,2.606750421501836,8.924609133347177,non_fall
5.096924,-14.2793,5.5539,6.8647,-0.925,0.6155,-1.7536,37.2938,28.2938,-31.6125,,0.01838899999999999,16.788934444746634,10.749569687603872,non_fall
5.111254,-14.2793,5.5539,6.8647,-0.925,0.6155,-1.7536,34.425,29.5125,-33.375,,0.014330000000000176,16.788934444746634,12.5620724224544,non_fall
5.136974,-14.2793,5.5539,6.8647,-0.925,0.6155,-1.7536,34.425,29.5125,-33.375,,0.02572000000000063,16.788934444746634,14.09168988981298,non_fall
5.138957,-14.2793,5.5539,6.8647,0.5127,2.8071,2.264,34.425,29.5125,-33.375,,0.001983000000000068,16.788934444746634,15.113815654774656,non_fall
5.157783,-2.3131,-13.393,-0.9176,0.5127,2.8071,2.264,34.425,29.5125,-33.375,,0.018825999999999787,13.622219729911862,15.488214103685062,non_fall
5.169734,-2.3131,-13.393,-0.9176,0.5127,2.8071,2.264,32.3438,30.6375,-34.8938,,0.011950999999999823,13.622219729911862,15.173879830187866,non_fall
5.199633,-2.3131,-13.393,-0.9176,-1.1292,-0.4116,0.6899,32.3438,30.6375,-34.8938,,0.029899000000000342,13.622219729911862,14.222971817412763,non_fall
5.202281,-2.3131,-13.393,-0.9176,-1.1292,-0.4116,0.6899,32.3438,30.6375,-34.8938,,0.0026479999999997617,13.622219729911862,12.760908558160267,non_fall
5.231487,-2.3131,-13.393,-0.9176,-1.1292,-0.4116,0.6899,30.4125,32.0625,-36.4125,,0.029206000000000287,13.622219729911862,10.959466757708133,non_fall
5.238318,-3.1916,4.1339,1.8857,-1.1292,-0.4116,0.6899,30.4125,32.0625,-36.4125,,0.006830999999999143,5.552594372003055,9.00766417383229,non_fall
5.258582,-3.1916,4.1339,1.8857,-1.1292,-0.4116,0.6899,30.4125,32.0625,-36.4125,,0.02026400000000006,5.552594372003055,7.0840912404241205,non_fall
5.259294,-3.1916,4.1339,1.8857,0.18,-0.3204,0.321,30.4125,32.0625,-36.4125,,0.0007120000000000459,5.552594372003055,5.334516749431422,non_fall
5.289022,-3.1916,4.1339,1.8857,0.18,-0.3204,0.321,28.2938,33.3563,-37.7812,,0.02972800000000042,5.552594372003055,3.8581338533127645,non_fall
5.300062,1.029,0.6682,-1.1577,0.18,-0.3204,0.321,28.2938,33.3563,-37.7812,,0.011039999999999495,1.686891084213797,2.7035941549801454,non_fall
5.318722,1.029,0.6682,-1.1577,0.3767,0.347,0.6867,28.2938,33.3563,-37.7812,,0.018660000000000565,1.686891084213797,1.8733469276579187,non_fall
5.319539,1.029,0.6682,-1.1577,0.3767,0.347,0.6867,28.2938,33.3563,-37.7812,,0.0008169999999996236,1.686891084213797,1.3335547616153762,non_fall
5.350013,1.029,0.6682,-1.1577,0.3767,0.347,0.6867,26.925,34.8563,-38.9813,,0.03047399999999989,1.686891084213797,1.0269239950603632,non_fall
5.360461,-0.6404,-0.633,0.0273,0.3767,0.347,0.6867,26.925,34.8563,-38.9813,,0.010448000000000235,0.90085872921341,0.8860828273671982,non_fall
5.380567,-0.6404,-0.633,0.0273,0.3573,-0.2782,-0.0868,26.925,34.8563,-38.9813,,0.02010600000000018,0.90085872921341,0.845391529976598,non_fall
5.382382,-0.6404,-0.633,0.0273,0.3573,-0.2782,-0.0868,26.925,34.8563,-38.9813,,0.001814999999999678,0.90085872921341,0.8496540790252897,non_fall
5.40984,-0.6404,-0.633,0.0273,0.3573,-0.2782,-0.0868,25.95,36.0,-39.525,,0.027458000000000204,0.90085872921341,0.8590928714819805,non_fall
5.44093,-0.6404,-0.633,0.0273,0.3607,-0.2952,-0.138,25.95,36.0,-39.525,,0.03108999999999984,0.90085872921341,0.8507335051076459,non_fall
5.442888,-0.6404,-0.633,0.0273,0.3607,-0.2952,-0.138,25.95,36.0,-39.525,,0.0019580000000001263,0.90085872921341,0.8168204540361871,non_fall
5.443723,0.3902,0.2724,-0.1184,0.3607,-0.2952,-0.138,25.95,36.0,-39.525,,0.0008350000000003632,0.49038389043686986,0.7611480243397265,non_fall
5.46944,0.3902,0.2724,-0.1184,0.3607,-0.2952,-0.138,26.025,36.6188,-39.3563,,0.025716999999999324,0.49038389043686986,0.6943613389645058,non_fall
5.502835,0.3902,0.2724,-0.1184,0.3607,-0.2952,-0.138,26.025,36.6188,-39.3563,,0.03339500000000051,0.49038389043686986,0.6293304035952344,non_fall
5.505552,0.5574,0.2306,-0.0303,0.3607,-0.2952,-0.138,26.025,36.6188,-39.3563,,0.0027169999999996364,0.6039778224405263,0.5775186568688385,non_fall
5.506998,0.5574,0.2306,-0.0303,0.2511,0.2724,0.2011,26.025,36.6188,-39.3563,,0.0014460000000005024,0.6039778224405263,0.5468380278042547,non_fall
5.529403,0.5574,0.2306,-0.0303,0.2511,0.2724,0.2011,26.7938,36.2063,-39.2812,,0.022405000000000008,0.6039778224405263,0.5409647395269394,non_fall
5.563038,0.5574,0.2306,-0.0303,-0.1036,0.3197,-0.1547,26.7938,36.2063,-39.2812,,0.033634999999999415,0.6039778224405263,0.5597095055026424,non_fall
5.565366,-0.2952,0.1012,0.6199,-0.1036,0.3197,-0.1547,26.7938,36.2063,-39.2812,,0.00232800000000033,0.6940176438679351,0.5999060296294447,non_fall
5.56706,-0.2952,0.1012,0.6199,-0.1036,0.3197,-0.1547,26.7938,36.2063,-39.2812,,0.0016939999999996402,0.6940176438679351,0.6563636418096253,non_fall
5.589995,-0.2952,0.1012,0.6199,-0.1036,0.3197,-0.1547,27.8438,35.5688,-39.15,,0.022935000000000372,0.6940176438679351,0.7226238479570474,non_fall
5.623976,-0.2952,0.1012,0.6199,-0.1475,0.1535,-0.3099,27.8438,35.5688,-39.15,,0.03398099999999982,0.6940176438679351,0.791483802520793,non_fall
5.625847,-0.2952,0.1012,0.6199,-0.1475,0.1535,-0.3099,27.8438,35.5688,-39.15,,0.0018710000000004001,0.6940176438679351,0.8554320819073676,non_fall
5.626977,-0.3316,-0.3008,-0.8832,-0.1475,0.1535,-0.3099,27.8438,35.5688,-39.15,,0.0011299999999998533,0.9901926277245251,0.9072072002552072,non_fall
5.649337,-0.3316,-0.3008,-0.8832,-0.1475,0.1535,-0.3099,28.275,35.4375,-39.3188,,0.022359999999999935,0.9901926277245251,0.9405939849557609,non_fall
5.684791,-0.3316,-0.3008,-0.8832,0.3136,0.3438,-0.1763,28.275,35.4375,-39.3188,,0.03545399999999965,0.9901926277245251,0.9513722643108988,non_fall
5.687045,-0.3316,-0.3008,-0.8832,0.3136,0.3438,-0.1763,28.275,35.4375,-39.3188,,0.0022540000000006444,0.9901926277245251,0.9381642670391781,non_fall
5.706534,0.7333,0.3463,-0.3196,0.3136,0.3438,-0.1763,28.275,35.4375,-39.3188,,0.01948900000000009,0.8716632033073325,0.9028974547619197,non_fall
5.709066,0.7333,0.3463,-0.3196,0.3136,0.3438,-0.1763,28.4813,34.9688,-39.4313,,0.0025319999999995346,0.8716632033073325,0.8506961944187581,non_fall
5.747573,0.7333,0.3463,-0.3196,0.3136,0.3438,-0.1763,28.4813,34.9688,-39.4313,,0.03850700000000007,0.8716632033073325,0.7891518006609034,non_fall
5.750871,0.7333,0.3463,-0.3196,0.451,0.5188,0.0345,28.4813,34.9688,-39.4313,,0.003298000000000023,0.8716632033073325,0.7270352251446816,non_fall
5.767705,0.3369,0.0819,-0.3625,0.451,0.5188,0.0345,28.4813,34.9688,-39.4313,,0.016834000000000238,0.5016128686547027,0.6726222769627186,non_fall
5.7699,0.3369,0.0819,-0.3625,0.451,0.5188,0.0345,28.9125,34.6125,-39.3563,,0.002194999999999503,0.5016128686547027,0.6319371991073487,non_fall
5.806974,0.3369,0.0819,-0.3625,0.4428,0.8175,0.0385,28.9125,34.6125,-39.3563,,0.037074000000000495,0.5016128686547027,0.6073561425425075,non_fall
5.808725,0.3369,0.0819,-0.3625,0.4428,0.8175,0.0385,28.9125,34.6125,-39.3563,,0.001750999999999614,0.5016128686547027,0.5970271742297664,non_fall
5.827873,-0.0668,0.4965,0.4291,0.4428,0.8175,0.0385,28.9125,34.6125,-39.3563,,0.019148000000000387,0.6596220887750803,0.5953701344924227,non_fall
5.829149,-0.0668,0.4965,0.4291,0.4428,0.8175,0.0385,29.1563,34.0875,-39.1313,,0.0012759999999998328,0.6596220887750803,0.5945764606040002,non_fall
5.867962,-0.0668,0.4965,0.4291,0.1854,-0.0246,-0.0631,29.1563,34.0875,-39.1313,,0.03881300000000021,0.6596220887750803,0.5866981189107837,non_fall
5.870167,-0.0668,0.4965,0.4291,0.1854,-0.0246,-0.0631,29.1563,34.0875,-39.1313,,0.0022050000000000125,0.6596220887750803,0.5657371760820912,non_fall
5.890257,-0.0668,0.4965,0.4291,0.1854,-0.0246,-0.0631,29.475,33.7688,-38.9062,,0.02008999999999972,0.6596220887750803,0.5291716761259796,non_fall
5.909792,0.0293,0.0668,0.3812,0.1854,-0.0246,-0.0631,29.475,33.7688,-38.9062,,0.019535000000000302,0.3881161810592287,0.47854347633505423,non_fall
5.930074,0.0293,0.0668,0.3812,-0.0499,-0.0527,-0.057,29.475,33.7688,-38.9062,,0.02028199999999991,0.3881161810592287,0.41901210848376547,non_fall
5.931683,0.0293,0.0668,0.3812,-0.0499,-0.0527,-0.057,29.475,33.7688,-38.9062,,0.0016089999999993054,0.3881161810592287,0.3580511908829611,non_fall
5.950666,0.0293,0.0668,0.3812,-0.0499,-0.0527,-0.057,29.8875,33.4125,-38.55,,0.018983000000000416,0.3881161810592287,0.3036420760087199,non_fall
5.970718,-0.0386,0.0849,0.0662,-0.0499,-0.0527,-0.057,29.8875,33.4125,-38.55,,0.020051999999999737,0.11436962009205068,0.2623801803330054,non_fall
5.990866,-0.0386,0.0849,0.0662,-0.0499,-0.0527,-0.057,29.8875,33.4125,-38.55,,0.020147999999999833,0.11436962009205068,0.23790930655816878,non_fall
5.992042,-0.0386,0.0849,0.0662,-0.0947,0.0947,0.0334,29.8875,33.4125,-38.55,,0.0011760000000000659,0.11436962009205068,0.23007525900311648,non_fall
6.011509,-0.0386,0.0849,0.0662,-0.0947,0.0947,0.0334,30.3188,33.225,-38.2688,,0.019467000000000567,0.11436962009205068,0.2350861493333568,non_fall
6.032139,0.3864,0.0952,-0.102,-0.0947,0.0947,0.0334,30.3188,33.225,-38.2688,,0.020629999999999704,0.4108186948034376,0.24671565907573595,non_fall
6.051284,0.3864,0.0952,-0.102,-0.0947,0.0947,0.0334,30.3188,33.225,-38.2688,,0.019144999999999968,0.4108186948034376,0.2582302604416881,non_fall
6.052686,0.3864,0.0952,-0.102,-0.1142,0.057,0.0651,30.3188,33.225,-38.2688,,0.0014019999999996813,0.4108186948034376,0.26442079724554557,non_fall
6.070717,0.3864,0.0952,-0.102,-0.1142,0.057,0.0651,30.8063,32.9438,-38.1188,,0.018031000000000574,0.4108186948034376,0.2630453382159633,non_fall
6.092142,0.1191,-0.0099,-0.0923,-0.1142,0.057,0.0651,30.8063,32.9438,-38.1188,,0.021424999999999805,0.15100367545195714,0.25520992627063344,non_fall
6.111595,0.1191,-0.0099,-0.0923,-0.1049,0.0346,-0.1543,30.8063,32.9438,-38.1188,,0.019453000000000387,0.15100367545195714,0.24463303992344035,non_fall
6.113245,0.1191,-0.0099,-0.0923,-0.1049,0.0346,-0.1543,30.8063,32.9438,-38.1188,,0.0016499999999997073,0.15100367545195714,0.23615845126287027,non_fall
6.132025,0.1191,-0.0099,-0.0923,-0.1049,0.0346,-0.1543,31.2375,32.4563,-37.7625,,0.018779999999999575,0.15100367545195714,0.23411199843945604,non_fall
6.17407,0.1191,-0.0099,-0.0923,-0.1049,0.0346,-0.1543,31.2375,32.4563,-37.7625,,0.042045000000000776,0.15100367545195714,0.2410678513425877,non_fall
6.175524,0.3105,0.0164,-0.1294,-0.1049,0.0346,-0.1543,31.2375,32.4563,-37.7625,,0.0014539999999998443,0.336784159366203,0.25736089709856025,non_fall
6.176333,0.3105,0.0164,-0.1294,-0.0798,0.3087,0.0782,31.2375,32.4563,-37.7625,,0.0008089999999993935,0.336784159366203,0.28138089521375337,non_fall
6.19001,0.3105,0.0164,-0.1294,-0.0798,0.3087,0.0782,31.6875,32.2313,-37.3688,,0.013677000000000383,0.336784159366203,0.31043044943936127,non_fall
6.232654,0.3105,0.0164,-0.1294,-0.0422,0.2409,0.0711,31.6875,32.2313,-37.3688,,0.042644000000000126,0.336784159366203,0.3418040814214113,non_fall
6.2341,0.3105,0.0164,-0.1294,-0.0422,0.2409,0.0711,31.6875,32.2313,-37.3688,,0.0014459999999996143,0.336784159366203,0.3737640742403943,non_fall
6.234584,-0.3978,-0.2776,-0.1389,-0.0422,0.2409,0.0711,31.6875,32.2313,-37.3688,,0.000484000000000151,0.504578844185921,0.40618542321918866,non_fall
6.251252,-0.3978,-0.2776,-0.1389,-0.0422,0.2409,0.0711,32.1,32.1562,-37.2375,,0.016668000000000127,0.504578844185921,0.44073437458602854,non_fall
6.293984,-0.3978,-0.2776,-0.1389,-0.0964,-0.2792,-0.226,32.1,32.1562,-37.2375,,0.04273199999999999,0.504578844185921,0.4805143504267928,non_fall
6.295221,-0.3978,-0.2776,-0.1389,-0.0964,-0.2792,-0.226,32.1,32.1562,-37.2375,,0.0012369999999997106,0.504578844185921,0.5292044896526181,non_fall
6.295922,-0.0172,-0.5963,-0.0051,-0.0964,-0.2792,-0.226,32.1,32.1562,-37.2375,,0.0007010000000002847,0.596569811505745,0.5898565621136224,non_fall
6.310555,-0.0172,-0.5963,-0.0051,-0.0964,-0.2792,-0.226,32.1562,32.3438,-37.125,,0.014632999999999896,0.596569811505745,0.6636654933738363,non_fall
6.356052,-0.0172,-0.5963,-0.0051,-0.2538,0.0666,-0.4838,32.1562,32.3438,-37.125,,0.04549700000000012,0.596569811505745,0.7491198125311351,non_fall
6.35844,-0.0172,-0.5963,-0.0051,-0.2538,0.0666,-0.4838,32.1562,32.3438,-37.125,,0.0023879999999998347,0.596569811505745,0.8419257385662509,non_fall
6.369926,-0.0172,-0.5963,-0.0051,-0.2538,0.0666,-0.4838,32.2688,32.5875,-36.975,,0.011486000000000551,0.596569811505745,0.935943168233525,non_fall
6.375974,-0.3685,-1.5018,-0.1999,-0.2538,0.0666,-0.4838,32.2688,32.5875,-36.975,,0.006047999999999831,1.5592163095606717,1.025022935907277,non_fall
6.417102,-0.3685,-1.5018,-0.1999,-0.2538,0.0666,-0.4838,32.2688,32.5875,-36.975,,0.04112799999999961,1.5592163095606717,1.1051205199855962,non_fall
6.418934,-0.3685,-1.5018,-0.1999,-0.2357,-0.122,0.0754,32.2688,32.5875,-36.975,,0.0018320000000002779,1.5592163095606717,1.1756304986159558,non_fall
6.430122,-0.3685,-1.5018,-0.1999,-0.2357,-0.122,0.0754,32.5312,32.8125,-36.5813,,0.011187999999999754,1.5592163095606717,1.2389441496285032,non_fall
6.437107,0.4258,-0.5447,0.2667,-0.2357,-0.122,0.0754,32.5312,32.8125,-36.5813,,0.006985000000000241,0.7410348304904433,1.2979883148328042,non_fall
6.477387,0.4258,-0.5447,0.2667,-0.2357,-0.122,0.0754,32.5312,32.8125,-36.5813,,0.040280000000000094,0.7410348304904433,1.3526818188259695,non_fall
6.478755,0.4258,-0.5447,0.2667,-0.2807,-0.1923,0.0583,32.5312,32.8125,-36.5813,,0.0013679999999993697,0.7410348304904433,1.3971991466842522,non_fall
6.490047,0.4258,-0.5447,0.2667,-0.2807,-0.1923,0.0583,32.6063,33.0938,-36.4313,,0.01129200000000008,0.7410348304904433,1.420029517976007,non_fall
6.496261,0.5839,-1.8954,0.056,-0.2807,-0.1923,0.0583,32.6063,33.0938,-36.4313,,0.006213999999999942,1.9840908169738602,1.407826175288498,non_fall
6.538551,0.5839,-1.8954,0.056,-0.8743,0.0037,-0.1398,32.6063,33.0938,-36.4313,,0.04229000000000038,1.9840908169738602,1.3522916828748455,non_fall
6.539819,0.5839,-1.8954,0.056,-0.8743,0.0037,-0.1398,32.6063,33.0938,-36.4313,,0.0012679999999996028,1.9840908169738602,1.257644239084792,non_fall
6.550495,0.5839,-1.8954,0.056,-0.8743,0.0037,-0.1398,32.7,33.4125,-35.85,,0.01067600000000013,1.9840908169738602,1.1454461824548963,non_fall
6.559,0.5657,-0.5152,0.3656,-0.8743,0.0037,-0.1398,32.7,33.4125,-35.85,,0.008505000000000429,0.8480040624902689,1.0542115411873305,non_fall
6.59906,0.5657,-0.5152,0.3656,-0.8743,0.0037,-0.1398,32.7,33.4125,-35.85,,0.04005999999999954,0.8480040624902689,1.0329885196369981,non_fall
6.600797,0.5657,-0.5152,0.3656,-1.2555,-0.0395,-0.1511,32.7,33.4125,-35.85,,0.0017370000000003216,0.8480040624902689,1.1302315041055864,non_fall
6.610573,0.5657,-0.5152,0.3656,-1.2555,-0.0395,-0.1511,32.475,33.6188,-35.2875,,0.009775999999999563,0.8480040624902689,1.380861646026483,non_fall
6.639069,0.5263,-1.6221,0.7463,-1.2555,-0.0395,-0.1511,32.475,33.6188,-35.2875,,0.02849600000000052,1.861495041626488,1.7949777885373548,non_fall
6.659574,0.5263,-1.6221,0.7463,-1.2555,-0.0395,-0.1511,32.475,33.6188,-35.2875,,0.020504999999999995,1.861495041626488,2.351285240278317,non_fall
6.660612,0.5263,-1.6221,0.7463,-1.3348,-0.6899,0.5926,32.475,33.6188,-35.2875,,0.0010380000000003164,1.861495041626488,2.9973499862363493,non_fall
6.668984,0.5263,-1.6221,0.7463,-1.3348,-0.6899,0.5926,32.3813,33.9938,-34.8188,,0.008371999999999602,1.861495041626488,3.6575374607978626,non_fall
6.699663,3.0419,0.5034,5.4685,-1.3348,-0.6899,0.5926,32.3813,33.9938,-34.8188,,0.030679000000000123,6.277822824833463,4.247834765903548,non_fall
6.719726,3.0419,0.5034,5.4685,1.281,-2.0723,0.5454,32.3813,33.9938,-34.8188,,0.020062999999999498,6.277822824833463,4.694507111084399,non_fall
6.721104,3.0419,0.5034,5.4685,1.281,-2.0723,0.5454,32.3813,33.9938,-34.8188,,0.0013780000000007675,6.277822824833463,4.951363439479271,non_fall
6.729567,3.0419,0.5034,5.4685,1.281,-2.0723,0.5454,32.1188,33.9938,-34.7063,,0.008462999999999887,6.277822824833463,5.009888599365221,non_fall
6.761443,2.5567,-0.2047,2.4239,1.281,-2.0723,0.5454,32.1188,33.9938,-34.7063,,0.03187599999999957,3.5290095196811246,4.898692078208657,non_fall
6.781841,2.5567,-0.2047,2.4239,3.6712,-3.6965,0.2401,32.1188,33.9938,-34.7063,,0.020398000000000138,3.5290095196811246,4.672818829752152,non_fall
6.783582,2.5567,-0.2047,2.4239,3.6712,-3.6965,0.2401,32.1188,33.9938,-34.7063,,0.0017409999999999926,3.5290095196811246,4.397300321684156,non_fall
6.788497,2.5567,-0.2047,2.4239,3.6712,-3.6965,0.2401,34.5188,32.3063,-35.1375,,0.004914999999999559,3.5290095196811246,4.130971587823174,non_fall
6.842686,2.5567,-0.2047,2.4239,3.2772,-4.5303,1.5546,34.5188,32.3063,-35.1375,,0.05418900000000004,3.5290095196811246,3.9155402391020995,non_fall
6.844604,-2.2963,-2.3761,-2.7277,3.2772,-4.5303,1.5546,34.5188,32.3063,-35.1375,,0.0019180000000007524,4.284762792734273,3.772127994812153,non_fall
6.845613,-2.2963,-2.3761,-2.7277,3.2772,-4.5303,1.5546,34.5188,32.3063,-35.1375,,0.0010089999999998156,4.284762792734273,3.7045145300154387,non_fall
6.851072,-2.2963,-2.3761,-2.7277,3.2772,-4.5303,1.5546,30.1688,29.4188,-37.7063,,0.005459000000000103,4.284762792734273,3.7062128293212533,non_fall
6.903968,-2.2963,-2.3761,-2.7277,3.0375,-4.1047,2.4176,30.1688,29.4188,-37.7063,,0.05289599999999961,4.284762792734273,3.7677948918406385,non_fall
6.906506,-3.9513,0.3228,0.2278,3.0375,-4.1047,2.4176,30.1688,29.4188,-37.7063,,0.0025380000000003733,3.9710029425826416,3.8815456554029995,non_fall
6.907601,-3.9513,0.3228,0.2278,3.0375,-4.1047,2.4176,30.1688,29.4188,-37.7063,,0.001094999999999402,3.9710029425826416,4.042089479638633,non_fall
6.910517,-3.9513,0.3228,0.2278,3.0375,-4.1047,2.4176,26.0813,25.725,-39.9938,,0.0029159999999999187,3.9710029425826416,4.243417465930419,non_fall
6.964825,-3.9513,0.3228,0.2278,2.4596,-1.8,0.4649,26.0813,25.725,-39.9938,,0.05430800000000069,3.9710029425826416,4.474131576902991,non_fall
6.966876,-3.9513,0.3228,0.2278,2.4596,-1.8,0.4649,26.0813,25.725,-39.9938,,0.002050999999999803,3.9710029425826416,4.713348977641086,non_fall
6.967241,0.857,0.7673,-4.9653,2.4596,-1.8,0.4649,26.0813,25.725,-39.9938,,0.0003649999999995046,5.096803152957744,4.929469640989264,non_fall
6.96996,0.857,0.7673,-4.9653,2.4596,-1.8,0.4649,21.1688,21.0375,-41.775,,0.002719000000000804,5.096803152957744,5.0830198354580025,non_fall
7.024887,0.857,0.7673,-4.9653,-0.5807,-1.1017,0.2252,21.1688,21.0375,-41.775,,0.05492699999999928,5.096803152957744,5.133409550006746,non_fall
7.026529,0.857,0.7673,-4.9653,-0.5807,-1.1017,0.2252,21.1688,21.0375,-41.775,,0.0016420000000003654,5.096803152957744,5.048212702464112,non_fall
7.027238,-2.8147,1.3419,-3.615,-0.5807,-1.1017,0.2252,21.1688,21.0375,-41.775,,0.0007089999999996266,4.774039872058046,4.812859268975559,non_fall
7.029112,-2.8147,1.3419,-3.615,-0.5807,-1.1017,0.2252,-2.5875,0.1313,-17.1,,0.0018739999999999313,4.774039872058046,4.438387857810656,non_fall
7.08635,-2.8147,1.3419,-3.615,-0.8579,-0.6864,0.4879,-2.5875,0.1313,-17.1,,0.05723800000000079,4.774039872058046,3.964931938477143,non_fall
7.08732,-2.8147,1.3419,-3.615,-0.8579,-0.6864,0.4879,-2.5875,0.1313,-17.1,,0.0009699999999996933,4.774039872058046,3.458883746111899,non_fall
7.089229,-2.8147,1.3419,-3.615,-0.8579,-0.6864,0.4879,10.5375,11.5312,-45.975,,0.0019089999999994944,4.774039872058046,3.0025073363213104,non_fall
7.107001,-0.3503,-0.4664,-0.4521,-0.8579,-0.6864,0.4879,10.5375,11.5312,-45.975,,0.017772000000000787,0.7379928590440425,2.6765953191982077,non_fall
7.147352,-0.3503,-0.4664,-0.4521,-0.2069,-1.3655,0.9337,10.5375,11.5312,-45.975,,0.04035099999999936,0.7379928590440425,2.539583991635841,non_fall
7.149309,-0.3503,-0.4664,-0.4521,-0.2069,-1.3655,0.9337,10.5375,11.5312,-45.975,,0.0019569999999999865,0.7379928590440425,2.609276031033379,non_fall
7.150039,-0.3503,-0.4664,-0.4521,-0.2069,-1.3655,0.9337,4.725,7.1438,-48.3,,0.0007299999999998974,0.7379928590440425,2.8540515752257307,non_fall
7.166636,-0.2105,3.2726,3.8442,-0.2069,-1.3655,0.9337,4.725,7.1438,-48.3,,0.016596999999999973,5.052929313774338,3.197931488329171,non_fall
7.207715,-0.2105,3.2726,3.8442,2.8926,-0.7045,-0.2157,4.725,7.1438,-48.3,,0.041079000000000754,5.052929313774338,3.538838434141892,non_fall
7.20978,-0.2105,3.2726,3.8442,2.8926,-0.7045,-0.2157,4.725,7.1438,-48.3,,0.0020649999999999835,5.052929313774338,3.7743455263474335,non_fall
7.210708,-0.2105,3.2726,3.8442,2.8926,-0.7045,-0.2157,-1.575,2.4938,-49.5938,,0.0009280000000000399,5.052929313774338,3.8267142363044133,non_fall
7.230149,-2.7564,-0.1316,0.5913,2.8926,-0.7045,-0.2157,-1.575,2.4938,-49.5938,,0.019440999999999597,2.822179159798329,3.6601498835764104,non_fall
7.268583,-2.7564,-0.1316,0.5913,1.1485,0.4634,1.6448,-1.575,2.4938,-49.5938,,0.038433999999999635,2.822179159798329,3.2868345978829723,non_fall
7.270557,-2.7564,-0.1316,0.5913,1.1485,0.4634,1.6448,-1.575,2.4938,-49.5938,,0.0019740000000005864,2.822179159798329,2.762184724785148,non_fall
7.271379,-2.7564,-0.1316,0.5913,1.1485,0.4634,1.6448,-6.6188,-1.8938,-49.725,,0.0008219999999994343,2.822179159798329,2.1721799792305094,non_fall
7.310905,-0.2216,0.7622,-0.333,1.1485,0.4634,1.6448,-6.6188,-1.8938,-49.725,,0.039526000000000394,0.8607812730304952,1.6162342933151708,non_fall
7.330828,-0.2216,0.7622,-0.333,0.9366,-0.3999,1.5725,-6.6188,-1.8938,-49.725,,0.019923000000000357,0.8607812730304952,1.1887943593334551,non_fall
7.333127,-0.2216,0.7622,-0.333,0.9366,-0.3999,1.5725,-10.5938,-4.65,-48.9188,,0.002298999999999829,0.8607812730304952,0.9625134825739264,non_fall
7.334441,-0.2216,0.7622,-0.333,0.9366,-0.3999,1.5725,-10.5938,-4.65,-48.9188,,0.0013139999999998153,0.8607812730304952,0.9755041631873141,non_fall
7.369393,-1.1386,0.5632,0.0395,0.9366,-0.3999,1.5725,-10.5938,-4.65,-48.9188,,0.03495199999999965,1.270891203053983,1.2245257677952157,non_fall
7.390142,-1.1386,0.5632,0.0395,0.9366,-0.3999,1.5725,-13.1813,-6.1125,-47.9438,,0.02074900000000035,1.270891203053983,1.6650896270253803,non_fall
7.392219,-1.1386,0.5632,0.0395,0.5035,-0.0172,2.9335,-13.1813,-6.1125,-47.9438,,0.0020769999999998845,1.270891203053983,2.2186737583736393,non_fall
7.39311,-1.1386,0.5632,0.0395,0.5035,-0.0172,2.9335,-13.1813,-6.1125,-47.9438,,0.0008910000000001972,1.270891203053983,2.7865236802790885,non_fall
7.430656,1.7364,-3.7199,2.9471,0.5035,-0.0172,2.9335,-13.1813,-6.1125,-47.9438,,0.03754599999999986,5.053527419535784,3.268448535740623,non_fall
7.448985,1.7364,-3.7199,2.9471,0.5035,-0.0172,2.9335,-16.0875,-6.9188,-46.2,,0.018329000000000484,5.053527419535784,3.583318233650557,non_fall
7.4506,1.7364,-3.7199,2.9471,1.4276,-2.7397,2.0662,-16.0875,-6.9188,-46.2,,0.001614999999999256,5.053527419535784,3.6862514534384765,non_fall
7.450986,1.7364,-3.7199,2.9471,1.4276,-2.7397,2.0662,-16.0875,-6.9188,-46.2,,0.0003860000000006636,5.053527419535784,3.5772282148563224,non_fall
7.490783,0.3256,-1.6931,-0.0501,1.4276,-2.7397,2.0662,-16.0875,-6.9188,-46.2,,0.03979700000000008,1.7248515820208996,3.298066520938921,non_fall
7.510971,0.3256,-1.6931,-0.0501,1.4276,-2.7397,2.0662,-18.6938,-6.8438,-44.5688,,0.020187999999999207,1.7248515820208996,2.918708496171766,non_fall
7.511997,0.3256,-1.6931,-0.0501,1.4097,-2.0003,1.5855,-18.6938,-6.8438,-44.5688,,0.0010260000000004155,1.7248515820208996,2.51755878391395,non_fall
7.512371,0.3256,-1.6931,-0.0501,1.4097,-2.0003,1.5855,-18.6938,-6.8438,-44.5688,,0.00037399999999987443,1.7248515820208996,2.1622655532772277,non_fall
7.569251,0.3256,-1.6931,-0.0501,1.4097,-2.0003,1.5855,-21.6,-7.1063,-42.2625,,0.056880000000000486,1.7248515820208996,1.8962674622444637,non_fall
7.572509,0.3256,-1.6931,-0.0501,1.298,-2.1976,0.8614,-21.6,-7.1063,-42.2625,,0.003257999999999761,1.7248515820208996,1.733683046719815,non_fall
7.573324,0.3256,-1.6931,-0.0501,1.298,-2.1976,0.8614,-21.6,-7.1063,-42.2625,,0.0008150000000002322,1.7248515820208996,1.6622694600045052,non_fall
7.574019,1.0289,-1.8385,-0.6594,1.298,-2.1976,0.8614,-21.6,-7.1063,-42.2625,,0.0006949999999994461,2.2076063553088443,1.652173844784975,non_fall
7.63005,1.0289,-1.8385,-0.6594,1.298,-2.1976,0.8614,-24.525,-7.7813,-39.5063,,0.05603099999999994,2.2076063553088443,1.6672081137974115,non_fall
7.632341,1.0289,-1.8385,-0.6594,1.4928,-0.0229,0.483,-24.525,-7.7813,-39.5063,,0.002291000000000487,2.2076063553088443,1.6752828625104732,non_fall
7.632975,1.0289,-1.8385,-0.6594,1.4928,-0.0229,0.483,-24.525,-7.7813,-39.5063,,0.0006339999999998014,2.2076063553088443,1.6553518106507743,non_fall
7.63336,-0.3926,-0.4787,-0.6848,1.4928,-0.0229,0.483,-24.525,-7.7813,-39.5063,,0.00038499999999963563,0.9231681807774789,1.5996113653884092,non_fall
7.689296,-0.3926,-0.4787,-0.6848,1.4928,-0.0229,0.483,-26.5688,-7.8563,-37.0125,,0.055935999999999986,0.9231681807774789,1.5114128006992449,non_fall
7.69491,-0.3926,-0.4787,-0.6848,0.8237,0.2405,0.168,-26.5688,-7.8563,-37.0125,,0.005614000000000452,0.9231681807774789,1.40075543790455,non_fall
7.696175,0.719,0.3539,-1.066,0.8237,0.2405,0.168,-26.5688,-7.8563,-37.0125,,0.0012650000000000716,1.3336274629745746,1.279697369777227,non_fall
7.696783,0.719,0.3539,-1.066,0.8237,0.2405,0.168,-26.5688,-7.8563,-37.0125,,0.0006079999999997199,1.3336274629745746,1.1593591025206782,non_fall
7.749649,0.719,0.3539,-1.066,0.8237,0.2405,0.168,-28.8375,-7.425,-34.7063,,0.05286599999999986,1.3336274629745746,1.0489097993134269,non_fall
7.755864,0.719,0.3539,-1.066,0.7698,0.2639,0.0178,-28.8375,-7.425,-34.7063,,0.006215000000000082,1.3336274629745746,0.9558359588953732,non_fall
7.756793,-0.4021,0.5938,-0.0803,0.7698,0.2639,0.0178,-28.8375,-7.425,-34.7063,,0.0009290000000001797,0.7216168928177888,0.8864221782274583,non_fall
7.757566,-0.4021,0.5938,-0.0803,0.7698,0.2639,0.0178,-28.8375,-7.425,-34.7063,,0.0007729999999996906,0.7216168928177888,0.8457099944466054,non_fall
7.810457,-0.4021,0.5938,-0.0803,0.7698,0.2639,0.0178,-30.8063,-7.4625,-32.6063,,0.05289100000000069,0.7216168928177888,0.8368600120900136,non_fall
7.81641,-0.4021,0.5938,-0.0803,0.7698,0.2639,0.0178,-30.8063,-7.4625,-32.6063,,0.005952999999999875,0.7216168928177888,0.8603648824660162,non_fall
7.81778,-0.4021,0.5938,-0.0803,1.4992,1.0659,0.4862,-30.8063,-7.4625,-32.6063,,0.0013699999999996493,0.7216168928177888,0.9136787622170356,non_fall
7.835836,-1.0682,0.1993,-0.6815,1.4992,1.0659,0.4862,-30.8063,-7.4625,-32.6063,,0.018055999999999628,1.2826589492144824,0.9915717548922935,non_fall
7.868759,-1.0682,0.1993,-0.6815,1.4992,1.0659,0.4862,-32.8125,-7.6688,-30.5813,,0.03292300000000026,1.2826589492144824,1.0870971367230164,non_fall
7.883281,-1.0682,0.1993,-0.6815,0.7189,-0.5526,0.5915,-32.8125,-7.6688,-30.5813,,0.014522000000000368,1.2826589492144824,1.1927230092395034,non_fall
7.884483,-1.0682,0.1993,-0.6815,0.7189,-0.5526,0.5915,-32.8125,-7.6688,-30.5813,,0.0012020000000001474,1.2826589492144824,1.3011312966083228,non_fall
