time,ax,ay,az,wx,wy,wz,Bx,By,Bz,Unnamed: 10,time_diff,acc_mag,acc_mag_filtered,label
0.069436,0.0,0.0,0.0,-0.0072,-0.0274,0.0186,0.0,0.0,0.0,,0.0,0.0,0.00024545704667410255,non_fall
0.129373,0.0,0.0,0.0,-0.0072,-0.0274,0.0186,16.4625,21.9563,-43.95,,0.05993699999999999,0.0,6.62692653819829e-05,non_fall
0.157926,0.0,0.0,0.0,0.0035,-0.031,-0.0176,16.4625,21.9563,-43.95,,0.028553000000000023,0.0,-0.00017344235490603725,non_fall
0.191575,0.0,0.0,0.0,0.0035,-0.031,-0.0176,16.3875,21.6,-43.7812,,0.033648999999999984,0.0,-0.0004966099756429708,non_fall
0.199258,0.0,0.0,0.0,0.0084,-0.0274,-0.0051,16.3875,21.6,-43.7812,,0.007682999999999995,0.0,-0.0008822289156323356,non_fall
0.249583,0.0,0.0,0.0,0.0084,-0.0274,-0.0051,16.95,21.9375,-43.7625,,0.05032500000000001,0.0,-0.0012491078799251214,non_fall
0.259502,0.0,0.0,0.0,0.0084,-0.0274,-0.0051,16.95,21.9375,-43.7625,,0.009919000000000011,0.0,-0.0014534588260840542,non_fall
0.260608,0.0,0.0,0.0,0.0084,0.0009,0.0067,16.95,21.9375,-43.7625,,0.0011059999999999959,0.0,-0.0013034905611424472,non_fall
0.299859,0.0,0.0,0.0,0.0084,0.0009,0.0067,16.95,21.9375,-43.7625,,0.03925099999999998,0.0,-0.0005908329284343292,non_fall
0.309515,0.0,0.0,0.0,0.0084,0.0009,0.0067,17.0813,21.6938,-43.7812,,0.009655999999999998,0.0,0.0008656256435156217,non_fall
0.319735,0.0,0.0,0.0,0.002,0.0024,-0.0001,17.0813,21.6938,-43.7812,,0.010220000000000007,0.0,0.0031722440409979063,non_fall
0.320221,0.0,0.0,0.0,0.002,0.0024,-0.0001,17.0813,21.6938,-43.7812,,0.00048599999999998644,0.0,0.006321215446182632,non_fall
0.360964,0.0145,0.0048,-0.0004,0.002,0.0024,-0.0001,17.0813,21.6938,-43.7812,,0.04074300000000003,0.015279070652366262,0.010170712120559049,non_fall
0.370454,0.0145,0.0048,-0.0004,0.002,0.0024,-0.0001,17.2313,21.6938,-43.7812,,0.009489999999999998,0.015279070652366262,0.014451553154174276,non_fall
0.381576,0.0145,0.0048,-0.0004,0.002,0.0024,-0.0001,17.2313,21.6938,-43.7812,,0.01112200000000002,0.015279070652366262,0.018800386155948378,non_fall
0.38261,0.0145,0.0048,-0.0004,-0.0019,0.0261,-0.0016,17.2313,21.6938,-43.7812,,0.0010339999999999794,0.015279070652366262,0.022813719575640774,non_fall
0.421716,0.0241,-0.0061,-0.0234,-0.0019,0.0261,-0.0016,17.2313,21.6938,-43.7812,,0.039105999999999974,0.034140591676185106,0.026114103418081992,non_fall
0.429376,0.0241,-0.0061,-0.0234,-0.0019,0.0261,-0.0016,17.25,21.7125,-43.6875,,0.00766,0.034140591676185106,0.028416695406446573,non_fall
0.444841,0.0241,-0.0061,-0.0234,-0.0019,0.0261,-0.0016,17.25,21.7125,-43.6875,,0.015465000000000007,0.034140591676185106,0.029580455335299793,non_fall
0.446232,0.0241,-0.0061,-0.0234,-0.0029,0.0648,-0.0097,17.25,21.7125,-43.6875,,0.001391000000000031,0.034140591676185106,0.029627959932256653,non_fall
0.48251,-0.0208,-0.0008,-0.0062,-0.0029,0.0648,-0.0097,17.25,21.7125,-43.6875,,0.03627799999999998,0.021719116004110296,0.028726050878452532,non_fall
0.489307,-0.0208,-0.0008,-0.0062,-0.0029,0.0648,-0.0097,17.3063,21.5813,-43.7063,,0.0067969999999999975,0.021719116004110296,0.027133975611932457,non_fall
0.502503,-0.0208,-0.0008,-0.0062,0.0091,0.0056,-0.0104,17.3063,21.5813,-43.7063,,0.013196000000000041,0.021719116004110296,0.02513824234399855,non_fall
0.50366,-0.0208,-0.0008,-0.0062,0.0091,0.0056,-0.0104,17.3063,21.5813,-43.7063,,0.0011569999999999636,0.021719116004110296,0.02299675183591541,non_fall
0.550807,-0.0208,-0.0008,-0.0062,0.0091,0.0056,-0.0104,17.3438,21.4688,-43.5,,0.04714700000000005,0.021719116004110296,0.020907566589443618,non_fall
0.565547,-0.0208,-0.0008,-0.0062,0.0073,0.0095,-0.0072,17.3438,21.4688,-43.5,,0.014739999999999975,0.021719116004110296,0.019004954451987223,non_fall
0.566418,-0.0208,-0.0008,-0.0062,0.0073,0.0095,-0.0072,17.3438,21.4688,-43.5,,0.0008709999999999551,0.021719116004110296,0.017374170525170287,non_fall
0.566977,0.0092,0.0125,0.0016,0.0073,0.0095,-0.0072,17.3438,21.4688,-43.5,,0.0005589999999999762,0.015602884348735014,0.016071352318476635,non_fall
0.61033,0.0092,0.0125,0.0016,0.0073,0.0095,-0.0072,17.5312,21.4125,-43.3313,,0.043353000000000086,0.015602884348735014,0.015136601361220857,non_fall
0.625772,0.0092,0.0125,0.0016,0.008,0.0037,-0.0119,17.5312,21.4125,-43.3313,,0.015441999999999956,0.015602884348735014,0.014594552718628551,non_fall
0.626635,0.001,0.0129,-0.0014,0.008,0.0037,-0.0119,17.5312,21.4125,-43.3313,,0.0008630000000000582,0.013014222988715077,0.014443843178756657,non_fall
0.627328,0.001,0.0129,-0.0014,0.008,0.0037,-0.0119,17.5312,21.4125,-43.3313,,0.0006929999999999437,0.013014222988715077,0.014642050450140111,non_fall
0.6708,0.001,0.0129,-0.0014,0.008,0.0037,-0.0119,17.85,21.4688,-43.125,,0.043471999999999955,0.013014222988715077,0.015095030433390515,non_fall
0.686352,0.001,0.0129,-0.0014,0.0056,0.0045,-0.0136,17.85,21.4688,-43.125,,0.01555200000000001,0.013014222988715077,0.015659209538542957,non_fall
0.687119,0.001,0.0129,-0.0014,0.0056,0.0045,-0.0136,17.85,21.4688,-43.125,,0.0007670000000000732,0.013014222988715077,0.01616223204539347,non_fall
0.687507,0.0187,0.0057,-0.0022,0.0056,0.0045,-0.0136,17.85,21.4688,-43.125,,0.00038799999999994395,0.019672823894906395,0.01644154943501871,non_fall
0.729883,0.0187,0.0057,-0.0022,0.0056,0.0045,-0.0136,17.7375,21.1875,-43.0125,,0.04237599999999997,0.019672823894906395,0.01639316946967169,non_fall
0.74863,0.0187,0.0057,-0.0022,-0.0001,0.0041,-0.0119,17.7375,21.1875,-43.0125,,0.01874700000000007,0.019672823894906395,0.016016372193111316,non_fall
0.749354,0.0187,0.0057,-0.0022,-0.0001,0.0041,-0.0119,17.7375,21.1875,-43.0125,,0.0007239999999999469,0.019672823894906395,0.015438108729154977,non_fall
0.768105,-0.0054,0.006,-0.0111,-0.0001,0.0041,-0.0119,17.7375,21.1875,-43.0125,,0.018751000000000073,0.01372479508043745,0.014905081349181457,non_fall
0.790694,-0.0054,0.006,-0.0111,-0.0001,0.0041,-0.0119,17.9062,21.2438,-42.825,,0.02258899999999997,0.01372479508043745,0.014740989227684414,non_fall
0.808594,-0.0054,0.006,-0.0111,0.0073,0.0123,-0.0154,17.9062,21.2438,-42.825,,0.017900000000000027,0.01372479508043745,0.015277222375835725,non_fall
0.809424,-0.0054,0.006,-0.0111,0.0073,0.0123,-0.0154,17.9062,21.2438,-42.825,,0.0008299999999999974,0.01372479508043745,0.016773124434953914,non_fall
0.828721,0.0092,-0.01,-0.0159,0.0073,0.0123,-0.0154,17.9062,21.2438,-42.825,,0.01929700000000001,0.020915305400591215,0.019344474256675594,non_fall
0.852141,0.0092,-0.01,-0.0159,0.0073,0.0123,-0.0154,17.9062,21.225,-42.5813,,0.023419999999999996,0.020915305400591215,0.022916544596914525,non_fall
0.869415,0.0092,-0.01,-0.0159,0.0169,0.013,-0.0197,17.9062,21.225,-42.5813,,0.01727400000000001,0.020915305400591215,0.027213289524587524,non_fall
0.870532,0.0092,-0.01,-0.0159,0.0169,0.013,-0.0197,17.9062,21.225,-42.5813,,0.0011169999999999236,0.020915305400591215,0.03178858110162281,non_fall
0.891432,-0.0146,-0.0186,-0.0407,0.0169,0.013,-0.0197,17.9062,21.225,-42.5813,,0.02090000000000003,0.047070266623421626,0.03609800786665651,non_fall
0.911257,-0.0146,-0.0186,-0.0407,0.0169,0.013,-0.0197,18.0,21.1688,-42.5625,,0.01982499999999998,0.047070266623421626,0.03959869965042775,non_fall
0.932107,-0.0146,-0.0186,-0.0407,0.025,0.0045,-0.0296,18.0,21.1688,-42.5625,,0.020850000000000035,0.047070266623421626,0.04185268425005172,non_fall
0.934141,-0.0146,-0.0186,-0.0407,0.025,0.0045,-0.0296,18.0,21.1688,-42.5625,,0.0020339999999999803,0.047070266623421626,0.042604779257096444,non_fall
0.953693,-0.0183,0.0131,0.0272,0.025,0.0045,-0.0296,18.0,21.1688,-42.5625,,0.019552000000000014,0.03530354089889568,0.041814734358465507,non_fall
0.973932,-0.0183,0.0131,0.0272,0.025,0.0045,-0.0296,18.0938,21.1125,-42.375,,0.020239000000000007,0.03530354089889568,0.03964103070340293,non_fall
0.992751,-0.0183,0.0131,0.0272,0.018,-0.0051,-0.0317,18.0938,21.1125,-42.375,,0.01881900000000003,0.03530354089889568,0.03638970135143177,non_fall
0.993929,-0.0183,0.0131,0.0272,0.018,-0.0051,-0.0317,18.0938,21.1125,-42.375,,0.0011779999999999013,0.03530354089889568,0.032447720604478085,non_fall
1.031092,-0.0183,0.0131,0.0272,0.018,-0.0051,-0.0317,18.225,21.2812,-42.375,,0.037162999999999946,0.03530354089889568,0.02821691014928637,non_fall
1.03203,0.0011,0.0149,0.0002,0.018,-0.0051,-0.0317,18.225,21.2812,-42.375,,0.0009380000000001054,0.014941887430977387,0.02405768716162266,non_fall
1.052997,0.0011,0.0149,0.0002,0.0137,0.0045,-0.0328,18.225,21.2812,-42.375,,0.020966999999999958,0.014941887430977387,0.02024918675403236,non_fall
1.055404,0.0011,0.0149,0.0002,0.0137,0.0045,-0.0328,18.225,21.2812,-42.375,,0.002407000000000048,0.014941887430977387,0.016973331594394507,non_fall
1.091852,-0.0104,-0.0046,0.0092,0.0137,0.0045,-0.0328,18.225,21.2812,-42.375,,0.036448000000000036,0.014627371602581237,0.014329016093214677,non_fall
1.092677,-0.0104,-0.0046,0.0092,0.0137,0.0045,-0.0328,18.2812,21.2438,-42.3,,0.0008249999999998536,0.014627371602581237,0.012374454425627835,non_fall
1.113448,-0.0104,-0.0046,0.0092,0.0137,0.0045,-0.0328,18.2812,21.2438,-42.3,,0.020771000000000095,0.014627371602581237,0.011184182913189485,non_fall
1.114544,-0.0104,-0.0046,0.0092,0.0063,0.0027,-0.0332,18.2812,21.2438,-42.3,,0.0010959999999999859,0.014627371602581237,0.010899084941272728,non_fall
1.152919,-0.0104,-0.0046,0.0092,0.0063,0.0027,-0.0332,18.15,21.0938,-42.375,,0.03837500000000005,0.014627371602581237,0.011746999981970565,non_fall
1.153845,-0.0037,-0.0215,-0.0053,0.0063,0.0027,-0.0332,18.15,21.0938,-42.375,,0.0009259999999999824,0.022450612463805968,0.014017595071568122,non_fall
1.175534,-0.0037,-0.0215,-0.0053,0.0063,0.0027,-0.0332,18.15,21.0938,-42.375,,0.02168900000000007,0.022450612463805968,0.017986264563768183,non_fall
1.176553,-0.0037,-0.0215,-0.0053,-0.0019,-0.0119,-0.0353,18.15,21.0938,-42.375,,0.0010189999999998811,0.022450612463805968,0.023796533452757562,non_fall
1.211155,-0.0037,-0.0215,-0.0053,-0.0019,-0.0119,-0.0353,18.2812,21.1688,-42.4125,,0.03460200000000002,0.022450612463805968,0.03132753157647228,non_fall
1.234622,-0.0037,-0.0215,-0.0053,-0.0123,-0.0246,-0.0463,18.2812,21.1688,-42.4125,,0.023467000000000127,0.022450612463805968,0.04008875222266159,non_fall
1.235529,-0.0037,-0.0215,-0.0053,-0.0123,-0.0246,-0.0463,18.2812,21.1688,-42.4125,,0.0009069999999999911,0.022450612463805968,0.04919061544333329,non_fall
1.236018,-0.0591,0.0312,0.0289,-0.0123,-0.0246,-0.0463,18.2812,21.1688,-42.4125,,0.0004889999999999617,0.07281112552350774,0.05742740896383479,non_fall
1.271638,-0.0591,0.0312,0.0289,-0.0123,-0.0246,-0.0463,18.075,21.075,-42.2812,,0.035619999999999985,0.07281112552350774,0.06347654601069783,non_fall
1.296568,-0.0591,0.0312,0.0289,-0.0123,-0.0246,-0.0463,18.075,21.075,-42.2812,,0.024929999999999897,0.07281112552350774,0.06617606493782073,non_fall
1.297511,-0.0591,0.0312,0.0289,-0.0278,-0.0278,-0.0423,18.075,21.075,-42.2812,,0.0009430000000001382,0.07281112552350774,0.06481237444095905,non_fall
1.298194,-0.0,0.035,0.0457,-0.0278,-0.0278,-0.0423,18.075,21.075,-42.2812,,0.0006829999999999892,0.05756292209400075,0.0593468989443799,non_fall
1.331158,-0.0,0.035,0.0457,-0.0278,-0.0278,-0.0423,17.9625,20.9438,-42.375,,0.03296399999999999,0.05756292209400075,0.05052894782736331,non_fall
1.358631,-0.0,0.035,0.0457,-0.0336,-0.0189,-0.0336,17.9625,20.9438,-42.375,,0.02747299999999986,0.05756292209400075,0.03986783529561754,non_fall
1.360159,0.012,-0.0009,0.017,-0.0336,-0.0189,-0.0336,17.9625,20.9438,-42.375,,0.0015279999999999738,0.020828106010869065,0.029460823750483357,non_fall
1.361645,0.012,-0.0009,0.017,-0.0336,-0.0189,-0.0336,17.9625,20.9438,-42.375,,0.0014860000000000984,0.020828106010869065,0.021695446885656337,non_fall
1.390899,0.012,-0.0009,0.017,-0.0336,-0.0189,-0.0336,17.9062,20.9438,-42.4313,,0.029254000000000113,0.020828106010869065,0.018866825853239247,non_fall
1.417436,0.012,-0.0009,0.017,-0.0336,-0.0189,-0.0336,17.9062,20.9438,-42.4313,,0.02653699999999981,0.020828106010869065,0.022768559840447372,non_fall
1.418254,0.012,-0.0009,0.017,-0.0278,-0.0108,-0.0282,17.9062,20.9438,-42.4313,,0.0008179999999999854,0.020828106010869065,0.034324368996135744,non_fall
1.419064,0.0319,-0.0388,-0.0348,-0.0278,-0.0108,-0.0282,17.9062,20.9438,-42.4313,,0.0008100000000001994,0.061107200885002086,0.053327064921103985,non_fall
1.450253,0.0319,-0.0388,-0.0348,-0.0278,-0.0108,-0.0282,17.7938,21.075,-42.5438,,0.03118899999999991,0.061107200885002086,0.07834451178789383,non_fall
1.477419,0.0319,-0.0388,-0.0348,-0.0278,-0.0108,-0.0282,17.7938,21.075,-42.5438,,0.027166000000000023,0.061107200885002086,0.10683948151647477,non_fall
1.477926,0.0319,-0.0388,-0.0348,-0.0104,0.0354,-0.0182,17.7938,21.075,-42.5438,,0.0005070000000000352,0.061107200885002086,0.1355270371413323,non_fall
1.498915,0.193,-0.0607,-0.1346,-0.0104,0.0354,-0.0182,17.7938,21.075,-42.5438,,0.020988999999999924,0.24300339503801177,0.16094642837678774,non_fall
1.509866,0.193,-0.0607,-0.1346,-0.0104,0.0354,-0.0182,17.6813,21.1125,-42.6562,,0.010950999999999933,0.24300339503801177,0.1801456246269562,non_fall
1.539315,0.193,-0.0607,-0.1346,0.0123,0.1209,-0.0061,17.6813,21.1125,-42.6562,,0.02944900000000006,0.24300339503801177,0.19129331709261208,non_fall
1.540467,0.193,-0.0607,-0.1346,0.0123,0.1209,-0.0061,17.6813,21.1125,-42.6562,,0.0011520000000000419,0.24300339503801177,0.1940117328930369,non_fall
1.559674,-0.0994,-0.033,0.0724,0.0123,0.1209,-0.0061,17.6813,21.1125,-42.6562,,0.019206999999999974,0.12732289660544172,0.1893082889569069,non_fall
1.570751,-0.0994,-0.033,0.0724,0.0123,0.1209,-0.0061,17.55,21.075,-42.675,,0.011077000000000004,0.12732289660544172,0.17914295541083003,non_fall
1.601265,-0.0994,-0.033,0.0724,0.0365,0.0485,-0.0385,17.55,21.075,-42.675,,0.03051399999999993,0.12732289660544172,0.16581313597386393,non_fall
1.602571,-0.0994,-0.033,0.0724,0.0365,0.0485,-0.0385,17.55,21.075,-42.675,,0.0013060000000000294,0.12732289660544172,0.15139077416558702,non_fall
1.619951,-0.1037,0.0586,-0.0809,0.0365,0.0485,-0.0385,17.55,21.075,-42.675,,0.01737999999999995,0.1439877078086876,0.13738860838746716,non_fall
1.631319,-0.1037,0.0586,-0.0809,0.0365,0.0485,-0.0385,17.5688,21.1688,-42.6375,,0.011368000000000045,0.1439877078086876,0.12470838584617709,non_fall
1.661094,-0.1037,0.0586,-0.0809,0.0439,0.083,-0.0491,17.5688,21.1688,-42.6375,,0.029775000000000107,0.1439877078086876,0.11380191404883855,non_fall
1.662651,-0.1037,0.0586,-0.0809,0.0439,0.083,-0.0491,17.5688,21.1688,-42.6375,,0.0015570000000000306,0.1439877078086876,0.10490533511000767,non_fall
1.691527,-0.1037,0.0586,-0.0809,0.0439,0.083,-0.0491,17.5875,21.1875,-42.5438,,0.028875999999999902,0.1439877078086876,0.09820457701030957,non_fall
1.701932,0.0003,0.0212,-0.0434,0.0439,0.083,-0.0491,17.5875,21.1875,-42.5438,,0.010404999999999998,0.04830207034900264,0.09384869276625686,non_fall
1.72385,0.0003,0.0212,-0.0434,0.0439,0.083,-0.0491,17.5875,21.1875,-42.5438,,0.021918000000000104,0.04830207034900264,0.0918240353019999,non_fall
1.724807,0.0003,0.0212,-0.0434,0.0154,0.0893,-0.0485,17.5875,21.1875,-42.5438,,0.0009569999999998746,0.04830207034900264,0.09179353255837132,non_fall
1.750697,0.0003,0.0212,-0.0434,0.0154,0.0893,-0.0485,17.625,21.2438,-42.6375,,0.02588999999999997,0.04830207034900264,0.09304000859143528,non_fall
1.763212,-0.102,-0.0065,0.1002,0.0154,0.0893,-0.0485,17.625,21.2438,-42.6375,,0.012515000000000054,0.14313032522844346,0.09460237569141414,non_fall
1.783139,-0.102,-0.0065,0.1002,-0.0197,0.028,-0.0602,17.625,21.2438,-42.6375,,0.019927000000000028,0.14313032522844346,0.09558154207423579,non_fall
1.783977,-0.102,-0.0065,0.1002,-0.0197,0.028,-0.0602,17.625,21.2438,-42.6375,,0.0008379999999998944,0.14313032522844346,0.0954832968759298,non_fall
1.810592,-0.102,-0.0065,0.1002,-0.0197,0.028,-0.0602,17.8688,21.4688,-42.4125,,0.026615000000000055,0.14313032522844346,0.09442473920866139,non_fall
1.824709,0.0424,-0.0234,-0.0018,-0.0197,0.028,-0.0602,17.8688,21.4688,-42.4125,,0.014116999999999935,0.04846194383224841,0.09308695742954828,non_fall
1.844404,0.0424,-0.0234,-0.0018,-0.0197,0.028,-0.0602,17.8688,21.4688,-42.4125,,0.019695000000000018,0.04846194383224841,0.09242117049291194,non_fall
1.845092,0.0424,-0.0234,-0.0018,-0.0325,0.0527,-0.0591,17.8688,21.4688,-42.4125,,0.0006880000000000219,0.04846194383224841,0.09324011217050197,non_fall
1.87034,0.0424,-0.0234,-0.0018,-0.0325,0.0527,-0.0591,18.0563,21.5063,-42.1688,,0.025247999999999937,0.04846194383224841,0.09588250010956346,non_fall
1.88497,-0.0834,-0.0871,0.0641,-0.0325,0.0527,-0.0591,18.0563,21.5063,-42.1688,,0.014630000000000143,0.136567858590519,0.10009671326024841,non_fall
1.904219,-0.0834,-0.0871,0.0641,-0.0257,0.0439,-0.0651,18.0563,21.5063,-42.1688,,0.01924900000000007,0.136567858590519,0.10517671917430671,non_fall
1.905248,-0.0834,-0.0871,0.0641,-0.0257,0.0439,-0.0651,18.0563,21.5063,-42.1688,,0.0010289999999999466,0.136567858590519,0.11026293419364763,non_fall
1.931256,-0.0834,-0.0871,0.0641,-0.0257,0.0439,-0.0651,18.0188,21.5625,-42.0,,0.02600800000000003,0.136567858590519,0.11465540826205681,non_fall
1.965934,-0.0834,-0.0871,0.0641,-0.0257,0.0439,-0.0651,18.0188,21.5625,-42.0,,0.03467799999999999,0.136567858590519,0.11800122817589945,non_fall
1.967449,-0.0834,-0.0871,0.0641,-0.0161,-0.0498,-0.0924,18.0188,21.5625,-42.0,,0.001514999999999933,0.136567858590519,0.1202918298071784,non_fall
1.969088,-0.0336,-0.0532,0.0052,-0.0161,-0.0498,-0.0924,18.0188,21.5625,-42.0,,0.001638999999999946,0.06313667713777785,0.12169913777822532,non_fall
1.991584,-0.0336,-0.0532,0.0052,-0.0161,-0.0498,-0.0924,18.0375,21.5813,-41.775,,0.02249600000000007,0.06313667713777785,0.12235846722409892,non_fall
2.026611,-0.0336,-0.0532,0.0052,-0.0274,-0.0515,-0.0975,18.0375,21.5813,-41.775,,0.03502699999999992,0.06313667713777785,0.12224161189492529,non_fall
2.027717,-0.1048,0.1087,0.0688,-0.0274,-0.0515,-0.0975,18.0375,21.5813,-41.775,,0.0011060000000000514,0.1659282073669212,0.12122740713542135,non_fall
2.028463,-0.1048,0.1087,0.0688,-0.0274,-0.0515,-0.0975,18.0375,21.5813,-41.775,,0.0007459999999999134,0.1659282073669212,0.11936803854877663,non_fall
2.050807,-0.1048,0.1087,0.0688,-0.0274,-0.0515,-0.0975,18.0188,21.7313,-41.6813,,0.02234399999999992,0.1659282073669212,0.11721861487601232,non_fall
2.087855,-0.1048,0.1087,0.0688,-0.0459,-0.0249,-0.1035,18.0188,21.7313,-41.6813,,0.03704799999999997,0.1659282073669212,0.11602470348445973,non_fall
2.089544,-0.1048,0.1087,0.0688,-0.0459,-0.0249,-0.1035,18.0188,21.7313,-41.6813,,0.0016890000000002736,0.1659282073669212,0.11759550270259284,non_fall
2.090537,-0.0783,-0.0064,0.0273,-0.0459,-0.0249,-0.1035,18.0188,21.7313,-41.6813,,0.0009929999999997996,0.08316934531424423,0.12381503769295962,non_fall
2.110638,-0.0783,-0.0064,0.0273,-0.0459,-0.0249,-0.1035,17.9625,21.7125,-41.7375,,0.020100999999999924,0.08316934531424423,0.13590661360239778,non_fall
2.150016,-0.0783,-0.0064,0.0273,-0.1027,-0.1045,-0.1169,17.9625,21.7125,-41.7375,,0.039378000000000135,0.08316934531424423,0.15370369410005574,non_fall
2.151943,-0.0783,-0.0064,0.0273,-0.1027,-0.1045,-0.1169,17.9625,21.7125,-41.7375,,0.001927000000000234,0.08316934531424423,0.17523539337439753,non_fall
2.169646,-0.0783,-0.0064,0.0273,-0.1027,-0.1045,-0.1169,17.9062,22.0125,-41.6438,,0.017703000000000024,0.08316934531424423,0.19687147734428542,non_fall
2.170854,-0.0751,-0.0884,0.3148,-0.1027,-0.1045,-0.1169,17.9062,22.0125,-41.6438,,0.0012079999999996538,0.33549010417596525,0.21409379689821845,non_fall
2.218853,-0.0751,-0.0884,0.3148,-0.1027,-0.1045,-0.1169,17.9062,22.0125,-41.6438,,0.04799900000000035,0.33549010417596525,0.2227154460666809,non_fall
2.220416,-0.0751,-0.0884,0.3148,-0.2294,-0.2397,-0.119,17.9062,22.0125,-41.6438,,0.001562999999999981,0.33549010417596525,0.22015041532328763,non_fall
2.229456,-0.0751,-0.0884,0.3148,-0.2294,-0.2397,-0.119,17.9625,22.3125,-41.475,,0.009039999999999715,0.33549010417596525,0.206266072367897,non_fall
2.229997,0.0119,0.0329,0.0475,-0.2294,-0.2397,-0.119,17.9625,22.3125,-41.475,,0.0005410000000001247,0.05899381323494863,0.18349633890543882,non_fall
2.272714,0.0119,0.0329,0.0475,-0.2294,-0.2397,-0.119,17.9625,22.3125,-41.475,,0.042717000000000116,0.05899381323494863,0.15619855116144907,non_fall
2.273901,0.0119,0.0329,0.0475,-0.3519,-0.3835,-0.1836,17.9625,22.3125,-41.475,,0.001186999999999827,0.05899381323494863,0.12954215905823788,non_fall
2.291785,0.0119,0.0329,0.0475,-0.3519,-0.3835,-0.1836,17.6625,22.6125,-41.475,,0.01788400000000001,0.05899381323494863,0.1083602038804724,non_fall
2.292984,0.0255,-0.1265,0.0647,-0.3519,-0.3835,-0.1836,17.6625,22.6125,-41.475,,0.0011990000000001722,0.1443557757763783,0.09631715265294345,non_fall
2.331399,0.0255,-0.1265,0.0647,-0.3519,-0.3835,-0.1836,17.6625,22.6125,-41.475,,0.03841500000000009,0.1443557757763783,0.09552932534242417,non_fall
2.332075,0.0255,-0.1265,0.0647,-0.3675,-0.2667,-0.206,17.6625,22.6125,-41.475,,0.0006759999999998989,0.1443557757763783,0.10656165588144652,non_fall
2.352462,0.0255,-0.1265,0.0647,-0.3675,-0.2667,-0.206,17.0625,23.0438,-41.5312,,0.020386999999999933,0.1443557757763783,0.12862192928541266,non_fall
2.353701,0.0961,0.0187,-0.1216,-0.3675,-0.2667,-0.206,17.0625,23.0438,-41.5312,,0.0012389999999999901,0.1561136124750177,0.15979898489081348,non_fall
2.393169,0.0961,0.0187,-0.1216,-0.3579,-0.1759,-0.2597,17.0625,23.0438,-41.5312,,0.03946799999999984,0.1561136124750177,0.19729290542118544,non_fall
2.39425,0.0961,0.0187,-0.1216,-0.3579,-0.1759,-0.2597,17.0625,23.0438,-41.5312,,0.0010810000000001097,0.1561136124750177,0.23768791686794685,non_fall
2.411313,0.0961,0.0187,-0.1216,-0.3579,-0.1759,-0.2597,16.6688,23.6438,-41.4375,,0.01706299999999983,0.1561136124750177,0.2773619162644025,non_fall
2.432026,-0.3399,0.2858,-0.0844,-0.3579,-0.1759,-0.2597,16.6688,23.6438,-41.4375,,0.020713000000000203,0.45203651401186606,0.313075378445898,non_fall
2.452255,-0.3399,0.2858,-0.0844,-0.3253,-0.2021,-0.3419,16.6688,23.6438,-41.4375,,0.020229000000000052,0.45203651401186606,0.34264228942288727,non_fall
2.453972,-0.3399,0.2858,-0.0844,-0.3253,-0.2021,-0.3419,16.6688,23.6438,-41.4375,,0.0017169999999997465,0.45203651401186606,0.36543241756318257,non_fall
2.472801,-0.3399,0.2858,-0.0844,-0.3253,-0.2021,-0.3419,16.0312,24.375,-41.3625,,0.018829000000000207,0.45203651401186606,0.3824137027203589,non_fall
2.493142,-0.1664,0.2746,-0.0342,-0.3253,-0.2021,-0.3419,16.0312,24.375,-41.3625,,0.020341000000000165,0.3228989934948699,0.39558854821954065,non_fall
2.514048,-0.1664,0.2746,-0.0342,-0.2927,0.0538,-0.376,16.0312,24.375,-41.3625,,0.020905999999999647,0.3228989934948699,0.40694879970351955,non_fall
2.515072,-0.1664,0.2746,-0.0342,-0.2927,0.0538,-0.376,16.0312,24.375,-41.3625,,0.001024000000000136,0.3228989934948699,0.41732411565559824,non_fall
2.530214,-0.1664,0.2746,-0.0342,-0.2927,0.0538,-0.376,15.45,25.2563,-41.1,,0.015141999999999989,0.3228989934948699,0.42559910037657855,non_fall
2.553614,-0.2677,-0.3214,-0.0282,-0.2927,0.0538,-0.376,15.45,25.2563,-41.1,,0.023400000000000087,0.4192332167183321,0.4286826256357583,non_fall
2.574162,-0.2677,-0.3214,-0.0282,-0.2447,0.0936,-0.4706,15.45,25.2563,-41.1,,0.02054799999999979,0.4192332167183321,0.4223733841859277,non_fall
2.575581,-0.2677,-0.3214,-0.0282,-0.2447,0.0936,-0.4706,15.45,25.2563,-41.1,,0.0014190000000002811,0.4192332167183321,0.4029753677228664,non_fall
2.591522,-0.2677,-0.3214,-0.0282,-0.2447,0.0936,-0.4706,14.7,26.3438,-40.7812,,0.01594099999999976,0.4192332167183321,0.3692723928765142,non_fall
2.636798,-0.2677,-0.3214,-0.0282,-0.2209,0.2807,-0.5135,14.7,26.3438,-40.7812,,0.045276000000000316,0.4192332167183321,0.3243308741844814,non_fall
2.638063,-0.2677,-0.3214,-0.0282,-0.2209,0.2807,-0.5135,14.7,26.3438,-40.7812,,0.0012649999999996275,0.4192332167183321,0.27658062495955327,non_fall
2.638832,-0.0474,0.2641,-0.1287,-0.2209,0.2807,-0.5135,14.7,26.3438,-40.7812,,0.0007690000000000197,0.2975890791006955,0.23972321774768007,non_fall
2.649689,-0.0474,0.2641,-0.1287,-0.2209,0.2807,-0.5135,13.725,27.3563,-40.8375,,0.010857000000000117,0.2975890791006955,0.23123411207571876,non_fall
2.696938,-0.0474,0.2641,-0.1287,-0.1453,0.5494,-0.6029,13.725,27.3563,-40.8375,,0.047248999999999874,0.2975890791006955,0.2695352010249072,non_fall
2.698226,-0.2051,0.1716,-0.2792,-0.1453,0.5494,-0.6029,13.725,27.3563,-40.8375,,0.0012880000000001779,0.38660730722530323,0.37025797803096555,non_fall
2.699068,-0.2051,0.1716,-0.2792,-0.1453,0.5494,-0.6029,13.725,27.3563,-40.8375,,0.0008420000000000094,0.38660730722530323,0.5423211421063544,non_fall
2.712082,-0.2051,0.1716,-0.2792,-0.1453,0.5494,-0.6029,13.0688,28.3313,-40.5,,0.013014000000000081,0.38660730722530323,0.7847490958048597,non_fall
2.758135,-0.2051,0.1716,-0.2792,-0.1453,0.5494,-0.6029,13.0688,28.3313,-40.5,,0.04605299999999968,0.38660730722530323,1.0851765118943975,non_fall
2.759386,0.7443,1.6215,-1.2198,-0.1453,0.5494,-0.6029,13.0688,28.3313,-40.5,,0.0012510000000003352,2.161285908897756,1.4206813327646541,non_fall
2.760704,0.7443,1.6215,-1.2198,-0.0981,-0.4677,-1.1308,13.0688,28.3313,-40.5,,0.0013179999999999303,2.161285908897756,1.7609044061934371,non_fall
2.771161,0.7443,1.6215,-1.2198,-0.0981,-0.4677,-1.1308,12.1688,29.475,-40.0688,,0.01045700000000016,2.161285908897756,2.0726245326168757,non_fall
2.820925,0.7443,1.6215,-1.2198,-0.3147,-1.5948,-1.7809,12.1688,29.475,-40.0688,,0.0497639999999997,2.161285908897756,2.3246141309522605,non_fall
2.82279,0.7443,1.6215,-1.2198,-0.3147,-1.5948,-1.7809,12.1688,29.475,-40.0688,,0.0018650000000000055,2.161285908897756,2.491966699015908,non_fall
2.824112,2.3795,0.2685,0.4489,-0.3147,-1.5948,-1.7809,12.1688,29.475,-40.0688,,0.0013220000000000454,2.436313549196819,2.5597726738523576,non_fall
2.830395,2.3795,0.2685,0.4489,-0.3147,-1.5948,-1.7809,10.575,30.6188,-39.5438,,0.006283000000000261,2.436313549196819,2.526390652808837,non_fall
2.879005,2.3795,0.2685,0.4489,-0.3147,-1.5948,-1.7809,10.575,30.6188,-39.5438,,0.0486099999999996,2.436313549196819,2.4063641448858815,non_fall
2.880757,2.3795,0.2685,0.4489,-0.3459,-1.9352,-2.1114,10.575,30.6188,-39.5438,,0.0017520000000001978,2.436313549196819,2.2324937050101403,non_fall
2.890875,2.3795,0.2685,0.4489,-0.3459,-1.9352,-2.1114,7.8938,31.725,-38.9813,,0.01011799999999985,2.436313549196819,2.056065630843488,non_fall
2.899154,0.5524,-0.7209,2.2004,-0.3459,-1.9352,-2.1114,7.8938,31.725,-38.9813,,0.008278999999999925,2.38046271342359,1.944039487479104,non_fall
2.940663,0.5524,-0.7209,2.2004,-0.3459,-1.9352,-2.1114,7.8938,31.725,-38.9813,,0.04150900000000002,2.38046271342359,1.9722562945390563,non_fall
2.941804,0.5524,-0.7209,2.2004,-0.1169,-0.6579,-2.3954,7.8938,31.725,-38.9813,,0.0011410000000000586,2.38046271342359,2.21448945057767,non_fall
2.950484,0.5524,-0.7209,2.2004,-0.1169,-0.6579,-2.3954,4.1813,32.475,-38.6625,,0.008680000000000021,2.38046271342359,2.7283209963322235,non_fall
2.961526,1.911,-2.2542,2.5093,-0.1169,-0.6579,-2.3954,4.1813,32.475,-38.6625,,0.011042000000000218,3.876844738959764,3.5401085659076785,non_fall
3.000744,1.911,-2.2542,2.5093,-0.1169,-0.6579,-2.3954,4.1813,32.475,-38.6625,,0.039217999999999975,3.876844738959764,4.632343964617455,non_fall
3.001449,1.911,-2.2542,2.5093,0.4539,0.4181,-2.9974,4.1813,32.475,-38.6625,,0.0007049999999999557,3.876844738959764,5.937197002721936,non_fall
3.010758,1.911,-2.2542,2.5093,0.4539,0.4181,-2.9974,0.15,32.3438,-38.4188,,0.009309000000000012,3.876844738959764,7.339697278569764,non_fall
3.021979,-3.7839,-11.2526,0.5409,0.4539,0.4181,-2.9974,0.15,32.3438,-38.4188,,0.011220999999999925,11.884085104878707,8.692269608051076,non_fall
3.062014,-3.7839,-11.2526,0.5409,0.4539,0.4181,-2.9974,0.15,32.3438,-38.4188,,0.04003500000000004,11.884085104878707,9.83882364503593,non_fall
3.063629,-3.7839,-11.2526,0.5409,1.3322,-1.5167,-2.8661,0.15,32.3438,-38.4188,,0.001615000000000144,11.884085104878707,10.642465050770886,non_fall
3.071228,-3.7839,-11.2526,0.5409,1.3322,-1.5167,-2.8661,-4.7063,31.1813,-38.0625,,0.007598999999999911,11.884085104878707,11.00888419910139,non_fall
3.102576,-2.83,-5.6592,-7.0764,1.3322,-1.5167,-2.8661,-4.7063,31.1813,-38.0625,,0.03134799999999993,9.492675155086683,10.899353921768995,non_fall
3.123029,-2.83,-5.6592,-7.0764,1.3322,-1.5167,-2.8661,-4.7063,31.1813,-38.0625,,0.020452999999999832,9.492675155086683,10.331757310510042,non_fall
3.124137,-2.83,-5.6592,-7.0764,0.282,-0.3895,-1.593,-4.7063,31.1813,-38.0625,,0.001108000000000331,9.492675155086683,9.372159817349363,non_fall
3.130407,-2.83,-5.6592,-7.0764,0.282,-0.3895,-1.593,-9.5438,29.3813,-37.3688,,0.006269999999999776,9.492675155086683,8.121147954886965,non_fall
3.163516,-0.7142,2.8461,-3.4247,0.282,-0.3895,-1.593,-9.5438,29.3813,-37.3688,,0.033109000000000055,4.509871055806363,6.698692413429355,non_fall
3.183684,-0.7142,2.8461,-3.4247,0.282,-0.3895,-1.593,-9.5438,29.3813,-37.3688,,0.020167999999999964,4.509871055806363,5.230144820440406,non_fall
3.184542,-0.7142,2.8461,-3.4247,-0.1919,1.2566,-1.5703,-9.5438,29.3813,-37.3688,,0.0008580000000000254,4.509871055806363,3.8350587884477054,non_fall
3.190875,-0.7142,2.8461,-3.4247,-0.1919,1.2566,-1.5703,-14.3813,27.5438,-37.1063,,0.006333000000000144,4.509871055806363,2.6194941038495676,non_fall
3.224751,0.144,-0.0133,-0.767,-0.1919,1.2566,-1.5703,-14.3813,27.5438,-37.1063,,0.033875999999999795,0.7805138627852807,1.6710932967474246,non_fall
3.244709,0.144,-0.0133,-0.767,-0.0023,1.1827,-1.7091,-14.3813,27.5438,-37.1063,,0.01995799999999992,0.7805138627852807,1.0554271129430526,non_fall
3.246471,0.144,-0.0133,-0.767,-0.0023,1.1827,-1.7091,-14.3813,27.5438,-37.1063,,0.0017620000000002634,0.7805138627852807,0.8126541018339227,non_fall
3.250265,0.144,-0.0133,-0.767,-0.0023,1.1827,-1.7091,-18.5813,25.125,-37.0688,,0.003794000000000075,0.7805138627852807,0.9547145160394047,non_fall
3.285494,0.9886,-1.7782,-0.9799,-0.0023,1.1827,-1.7091,-18.5813,25.125,-37.0688,,0.03522899999999973,2.25821372106362,1.463861033562464,non_fall
3.305672,0.9886,-1.7782,-0.9799,0.0557,2.7544,-2.1188,-18.5813,25.125,-37.0688,,0.02017800000000003,2.25821372106362,2.2931449091580935,non_fall
3.306672,0.9886,-1.7782,-0.9799,0.0557,2.7544,-2.1188,-18.5813,25.125,-37.0688,,0.0009999999999998899,2.25821372106362,3.369233018311827,non_fall
3.310186,0.9886,-1.7782,-0.9799,0.0557,2.7544,-2.1188,-21.075,22.425,-37.3688,,0.003514000000000017,2.25821372106362,4.598014210370348,non_fall
3.370589,-7.6714,2.8188,-2.2354,0.0557,2.7544,-2.1188,-21.075,22.425,-37.3688,,0.060402999999999984,8.473076451915206,5.873339873569575,non_fall
3.372709,-7.6714,2.8188,-2.2354,0.0329,3.0479,-0.5823,-21.075,22.425,-37.3688,,0.002120000000000122,8.473076451915206,7.0881753936049785,non_fall
3.373838,-7.6714,2.8188,-2.2354,0.0329,3.0479,-0.5823,-21.075,22.425,-37.3688,,0.0011290000000001577,8.473076451915206,8.145800255165607,non_fall
3.374525,-7.6714,2.8188,-2.2354,0.0329,3.0479,-0.5823,-21.3563,19.4813,-38.0813,,0.0006870000000001042,8.473076451915206,8.968162671603652,non_fall
3.428183,-7.6714,2.8188,-2.2354,0.0329,3.0479,-0.5823,-21.3563,19.4813,-38.0813,,0.053657999999999983,8.473076451915206,9.500076963961785,non_fall
3.431177,-7.6714,2.8188,-2.2354,-0.0886,-0.08,-0.5352,-21.3563,19.4813,-38.0813,,0.002993999999999719,8.473076451915206,9.710479914606148,non_fall
3.432797,3.306,7.7159,-4.2572,-0.0886,-0.08,-0.5352,-21.3563,19.4813,-38.0813,,0.0016199999999999548,9.412146442230911,9.593308695152052,non_fall
3.434087,3.306,7.7159,-4.2572,-0.0886,-0.08,-0.5352,-20.6438,16.7438,-38.9625,,0.0012900000000000134,9.412146442230911,9.169749873620825,non_fall
3.489625,3.306,7.7159,-4.2572,-0.0886,-0.08,-0.5352,-20.6438,16.7438,-38.9625,,0.05553800000000031,9.412146442230911,8.491310752974607,non_fall
3.491695,3.306,7.7159,-4.2572,-0.0886,-0.08,-0.5352,-19.7438,15.075,-39.3,,0.0020699999999997942,9.412146442230911,7.6408671210447245,non_fall
3.493443,3.306,7.7159,-4.2572,-1.7585,-1.9296,-0.7378,-19.7438,15.075,-39.3,,0.0017480000000000828,9.412146442230911,6.727940145264964,non_fall
3.494769,0.037,-3.2355,-1.6079,-1.7585,-1.9296,-0.7378,-19.7438,15.075,-39.3,,0.0013259999999997163,3.6131941077113474,5.8757545912576035,non_fall
3.55075,0.037,-3.2355,-1.6079,-2.4365,0.4273,0.6278,-19.7438,15.075,-39.3,,0.05598100000000006,3.6131941077113474,5.200989206054173,non_fall
3.553089,0.037,-3.2355,-1.6079,-2.4365,0.4273,0.6278,-19.7438,15.075,-39.3,,0.002339000000000091,3.6131941077113474,4.791047452378337,non_fall
3.554011,0.037,-3.2355,-1.6079,-2.4365,0.4273,0.6278,-17.9062,15.1125,-39.3375,,0.0009220000000000894,3.6131941077113474,4.6857377540621235,non_fall
3.555119,-3.4123,0.0028,4.619,-2.4365,0.4273,0.6278,-17.9062,15.1125,-39.3375,,0.0011079999999998869,5.742731068925307,4.869005296001376,non_fall
3.611398,-3.4123,0.0028,4.619,-1.6289,0.4177,0.4819,-17.9062,15.1125,-39.3375,,0.05627899999999997,5.742731068925307,5.2726975078201805,non_fall
3.613237,-3.4123,0.0028,4.619,-1.6289,0.4177,0.4819,-17.9062,15.1125,-39.3375,,0.001838999999999924,5.742731068925307,5.790573425941212,non_fall
3.614029,-3.4123,0.0028,4.619,-1.6289,0.4177,0.4819,-15.525,16.0312,-39.0375,,0.0007920000000001259,5.742731068925307,6.2986008991077655,non_fall
3.631366,-4.2644,2.4326,5.6627,-1.6289,0.4177,0.4819,-15.525,16.0312,-39.0375,,0.017336999999999936,7.494586140007999,6.677190462839238,non_fall
3.672061,-4.2644,2.4326,5.6627,-0.8557,0.4823,0.7348,-15.525,16.0312,-39.0375,,0.040694999999999926,7.494586140007999,6.831475785343869,non_fall
3.675924,-4.2644,2.4326,5.6627,-0.8557,0.4823,0.7348,-13.0125,17.4938,-38.5688,,0.003863000000000394,7.494586140007999,6.7063012928928964,non_fall
3.677185,-4.2644,2.4326,5.6627,-0.8557,0.4823,0.7348,-13.0125,17.4938,-38.5688,,0.0012609999999999566,7.494586140007999,6.293342279325331,non_fall
3.692255,-1.6599,0.0847,3.6033,-0.8557,0.4823,0.7348,-13.0125,17.4938,-38.5688,,0.015069999999999695,3.9681498195002667,5.629279099265841,non_fall
3.731759,-1.6599,0.0847,3.6033,-0.8557,0.4823,0.7348,-10.2938,19.5188,-37.9313,,0.039503999999999984,3.9681498195002667,4.786122964346356,non_fall
3.733848,-1.6599,0.0847,3.6033,-0.8557,0.4823,0.7348,-10.2938,19.5188,-37.9313,,0.0020890000000002296,3.9681498195002667,3.856728794222634,non_fall
3.73469,-1.6599,0.0847,3.6033,-0.4723,1.2654,1.1405,-10.2938,19.5188,-37.9313,,0.0008420000000000094,3.9681498195002667,2.939131571392975,non_fall
3.752491,1.0062,-0.2184,0.4595,-0.4723,1.2654,1.1405,-10.2938,19.5188,-37.9313,,0.017800999999999956,1.127509312600122,2.1224705756264433,non_fall
3.792093,1.0062,-0.2184,0.4595,-0.4723,1.2654,1.1405,-7.8188,21.8813,-36.675,,0.039601999999999915,1.127509312600122,1.475980451800264,non_fall
3.794512,1.0062,-0.2184,0.4595,-0.6735,0.8558,1.0197,-7.8188,21.8813,-36.675,,0.002419000000000171,1.127509312600122,1.04179871566226,non_fall
3.795592,1.0062,-0.2184,0.4595,-0.6735,0.8558,1.0197,-7.8188,21.8813,-36.675,,0.0010799999999999699,1.127509312600122,0.8320104956388138,non_fall
3.832996,0.2146,0.8571,0.1263,-0.6735,0.8558,1.0197,-7.8188,21.8813,-36.675,,0.03740399999999999,0.8925386602271075,0.829858499496066,non_fall
3.850483,0.2146,0.8571,0.1263,-0.6735,0.8558,1.0197,-6.2813,24.4125,-35.1375,,0.01748700000000003,0.8925386602271075,0.9944610639674614,non_fall
3.853451,0.2146,0.8571,0.1263,-0.6735,0.8558,1.0197,-6.2813,24.4125,-35.1375,,0.0029680000000000817,0.8925386602271075,1.268134424881619,non_fall
3.853915,0.2146,0.8571,0.1263,-0.7911,-0.3633,0.5696,-6.2813,24.4125,-35.1375,,0.00046400000000001995,0.8925386602271075,1.5855045506885999,non_fall
3.894322,0.0469,2.3425,1.3855,-0.7911,-0.3633,0.5696,-6.2813,24.4125,-35.1375,,0.04040699999999964,2.7219691603690146,1.8835725401884271,non_fall
3.910829,0.0469,2.3425,1.3855,-0.7911,-0.3633,0.5696,-4.4062,27.3,-33.2438,,0.01650700000000027,2.7219691603690146,2.111461553392867,non_fall
3.913176,0.0469,2.3425,1.3855,-0.6204,0.013,0.6229,-4.4062,27.3,-33.2438,,0.002346999999999877,2.7219691603690146,2.237988021849194,non_fall
3.913695,0.0469,2.3425,1.3855,-0.6204,0.013,0.6229,-4.4062,27.3,-33.2438,,0.0005190000000001582,2.7219691603690146,2.2551500574735,non_fall
3.955573,-0.0419,0.5905,1.4514,-0.6204,0.013,0.6229,-4.4062,27.3,-33.2438,,0.04187799999999964,1.5674845517580072,2.1765478522702204,non_fall
3.970832,-0.0419,0.5905,1.4514,-0.6204,0.013,0.6229,-2.0063,29.7563,-31.4063,,0.015259000000000356,1.5674845517580072,2.031332018413642,non_fall
3.975277,-0.0419,0.5905,1.4514,-0.4386,0.4071,0.7131,-2.0063,29.7563,-31.4063,,0.004445000000000032,1.5674845517580072,1.8556818074499002,non_fall
3.976643,-0.0419,0.5905,1.4514,-0.4386,0.4071,0.7131,-2.0063,29.7563,-31.4063,,0.0013659999999999783,1.5674845517580072,1.6843323806625767,non_fall
4.016638,-0.2208,-0.6213,1.3527,-0.4386,0.4071,0.7131,-2.0063,29.7563,-31.4063,,0.039995000000000225,1.5048467098013671,1.5441706346382027,non_fall
4.030705,-0.2208,-0.6213,1.3527,-0.4386,0.4071,0.7131,0.8625,31.5,-29.8125,,0.01406699999999983,1.5048467098013671,1.4508543496591162,non_fall
4.036604,-0.2208,-0.6213,1.3527,-0.3523,0.2423,0.6048,0.8625,31.5,-29.8125,,0.0058989999999994325,1.5048467098013671,1.4083849025819501,non_fall
4.037315,-0.2208,-0.6213,1.3527,-0.3523,0.2423,0.6048,0.8625,31.5,-29.8125,,0.0007110000000007943,1.5048467098013671,1.410919990891868,non_fall
4.094515,-0.2208,-0.6213,1.3527,-0.3523,0.2423,0.6048,3.225,32.7938,-28.5375,,0.05719999999999992,1.5048467098013671,1.4458779876187429,non_fall
4.097857,-0.2208,-0.6213,1.3527,-0.2043,-0.1876,0.4838,3.225,32.7938,-28.5375,,0.003341999999999956,1.5048467098013671,1.4974482750440723,non_fall
4.099765,-0.2208,-0.6213,1.3527,-0.2043,-0.1876,0.4838,3.225,32.7938,-28.5375,,0.0019079999999993547,1.5048467098013671,1.5498447421138615,non_fall
4.101004,-0.5085,-0.6887,1.4301,-0.2043,-0.1876,0.4838,3.225,32.7938,-28.5375,,0.0012389999999999901,1.6667531160912823,1.5898920141405353,non_fall
4.150868,-0.5085,-0.6887,1.4301,-0.2043,-0.1876,0.4838,5.2688,33.5438,-27.4875,,0.04986400000000035,1.6667531160912823,1.6087247593432998,non_fall
4.158527,-0.5085,-0.6887,1.4301,-0.0204,-0.1453,0.4113,5.2688,33.5438,-27.4875,,0.0076590000000003045,1.6667531160912823,1.6024956783626763,non_fall
4.159732,-0.5085,-0.6887,1.4301,-0.0204,-0.1453,0.4113,5.2688,33.5438,-27.4875,,0.0012049999999996786,1.6667531160912823,1.572085448117953,non_fall
4.160453,0.5927,-0.9335,0.7932,-0.0204,-0.1453,0.4113,5.2688,33.5438,-27.4875,,0.0007210000000004158,1.3608386311389018,1.52195169937428,non_fall
4.211012,0.5927,-0.9335,0.7932,-0.0204,-0.1453,0.4113,7.0313,34.1625,-26.3625,,0.0505589999999998,1.3608386311389018,1.4584414499819889,non_fall
4.220461,0.5927,-0.9335,0.7932,0.0389,-0.0526,0.2437,7.0313,34.1625,-26.3625,,0.00944900000000004,1.3608386311389018,1.388039115507875,non_fall
4.221528,1.0236,-0.661,-0.1061,0.0389,-0.0526,0.2437,7.0313,34.1625,-26.3625,,0.0010669999999999291,1.2230842857301374,1.3160277070352984,non_fall
4.222023,1.0236,-0.661,-0.1061,0.0389,-0.0526,0.2437,7.0313,34.1625,-26.3625,,0.0004949999999999122,1.2230842857301374,1.245876067334136,non_fall
4.270901,1.0236,-0.661,-0.1061,0.0389,-0.0526,0.2437,8.2875,34.6313,-25.425,,0.0488780000000002,1.2230842857301374,1.1794031166677652,non_fall
4.280058,1.0236,-0.661,-0.1061,0.1948,-0.1595,0.0708,8.2875,34.6313,-25.425,,0.009157000000000082,1.2230842857301374,1.1175151541994746,non_fall
4.281393,1.0236,-0.661,-0.1061,0.1948,-0.1595,0.0708,8.2875,34.6313,-25.425,,0.001334999999999198,1.2230842857301374,1.0611417177589453,non_fall
4.300342,0.0797,-0.9285,-0.054,0.1948,-0.1595,0.0708,8.2875,34.6313,-25.425,,0.018949000000000105,0.9334775519529113,1.0119662932785292,non_fall
4.331177,0.0797,-0.9285,-0.054,0.1948,-0.1595,0.0708,9.375,34.9313,-24.5625,,0.030835000000000612,0.9334775519529113,0.9726821252045917,non_fall
4.342791,0.0797,-0.9285,-0.054,0.1948,-0.1595,0.0708,9.375,34.9313,-24.5625,,0.011613999999999791,0.9334775519529113,0.94673542616571,non_fall
4.344722,0.0797,-0.9285,-0.054,0.3534,-0.0782,0.1618,9.375,34.9313,-24.5625,,0.001930999999999905,0.9334775519529113,0.9377134575467291,non_fall
4.361662,-0.1264,-0.864,-0.4322,0.3534,-0.0782,0.1618,9.375,34.9313,-24.5625,,0.016939999999999955,0.9743047777774673,0.9486013261303431,non_fall
4.391308,-0.1264,-0.864,-0.4322,0.3534,-0.0782,0.1618,10.1625,34.9125,-24.225,,0.029646000000000505,0.9743047777774673,0.9810944644821669,non_fall
4.402334,-0.1264,-0.864,-0.4322,0.3534,-0.0782,0.1618,10.1625,34.9125,-24.225,,0.011025999999999314,0.9743047777774673,1.035098697618282,non_fall
4.403312,-0.1264,-0.864,-0.4322,0.4269,-0.1819,0.1827,10.1625,34.9125,-24.225,,0.0009779999999999234,0.9743047777774673,1.1085192035447513,non_fall
4.424789,0.7554,-0.6219,-0.9319,0.4269,-0.1819,0.1827,10.1625,34.9125,-24.225,,0.02147699999999997,1.351231430954742,1.1974055197192524,non_fall
4.452441,0.7554,-0.6219,-0.9319,0.4269,-0.1819,0.1827,10.6125,34.875,-24.2438,,0.027652000000000676,1.351231430954742,1.296439509418832,non_fall
4.464852,0.7554,-0.6219,-0.9319,0.2995,0.0772,0.0826,10.6125,34.875,-24.2438,,0.012410999999999284,1.351231430954742,1.3996480812622234,non_fall
4.466139,0.7554,-0.6219,-0.9319,0.2995,0.0772,0.0826,10.6125,34.875,-24.2438,,0.0012870000000004822,1.351231430954742,1.5011732126716923,non_fall
4.483118,0.9915,-0.8469,-1.1835,0.2995,0.0772,0.0826,10.6125,34.875,-24.2438,,0.016979000000000077,1.7609611324501175,1.5959659130435113,non_fall
4.509873,0.9915,-0.8469,-1.1835,0.2995,0.0772,0.0826,10.7625,34.7625,-24.4875,,0.02675499999999964,1.7609611324501175,1.6803124474620914,non_fall
4.523582,0.9915,-0.8469,-1.1835,0.2995,0.0772,0.0826,10.7625,34.7625,-24.4875,,0.013709000000000415,1.7609611324501175,1.7520969410965932,non_fall
4.524536,0.9915,-0.8469,-1.1835,0.1987,-0.1574,-0.0764,10.7625,34.7625,-24.4875,,0.0009540000000001214,1.7609611324501175,1.8107190905209738,non_fall
4.564185,1.2812,-0.9292,-0.9513,0.1987,-0.1574,-0.0764,10.7625,34.7625,-24.4875,,0.03964899999999982,1.846580019928733,1.856690264156696,non_fall
4.57123,1.2812,-0.9292,-0.9513,0.1987,-0.1574,-0.0764,10.7438,34.7063,-24.8813,,0.007044999999999746,1.846580019928733,1.8910759155758585,non_fall
4.586195,1.2812,-0.9292,-0.9513,0.1415,-0.2,-0.1983,10.7438,34.7063,-24.8813,,0.014965000000000117,1.846580019928733,1.915029959986214,non_fall
4.587762,1.2812,-0.9292,-0.9513,0.1415,-0.2,-0.1983,10.7438,34.7063,-24.8813,,0.001566999999999652,1.846580019928733,1.9296357467585197,non_fall
4.625679,1.4229,-0.4409,-1.3151,0.1415,-0.2,-0.1983,10.7438,34.7063,-24.8813,,0.0379170000000002,1.9870896381391556,1.9361526710090151,non_fall
4.631747,1.4229,-0.4409,-1.3151,0.1415,-0.2,-0.1983,10.7625,34.6875,-25.2375,,0.006067999999999962,1.9870896381391556,1.9366028112544629,non_fall
4.646071,1.4229,-0.4409,-1.3151,0.1415,-0.2,-0.1983,10.7625,34.6875,-25.2375,,0.014324000000000225,1.9870896381391556,1.9344657649449069,non_fall
4.646913,1.4229,-0.4409,-1.3151,0.084,-0.014,-0.1932,10.7625,34.6875,-25.2375,,0.0008419999999995653,1.9870896381391556,1.9351524457332134,non_fall
4.68734,0.3883,-0.2418,-1.98,0.084,-0.014,-0.1932,10.7625,34.6875,-25.2375,,0.04042700000000021,2.0321525853144,1.9459508360300357,non_fall
4.690037,0.3883,-0.2418,-1.98,0.084,-0.014,-0.1932,10.3125,34.5188,-25.7813,,0.0026970000000003935,2.0321525853144,1.9752702407296487,non_fall
4.706211,0.3883,-0.2418,-1.98,-0.0807,-0.1024,-0.1617,10.3125,34.5188,-25.7813,,0.016173999999999467,2.0321525853144,2.0312118085498216,non_fall
4.70742,0.3883,-0.2418,-1.98,-0.0807,-0.1024,-0.1617,10.3125,34.5188,-25.7813,,0.0012090000000002377,2.0321525853144,2.1197203187483646,non_fall
4.751384,0.3883,-0.2418,-1.98,-0.0807,-0.1024,-0.1617,9.7875,34.2563,-26.475,,0.04396399999999989,2.0321525853144,2.242776382312287,non_fall
4.76864,0.3883,-0.2418,-1.98,-0.0807,-0.1024,-0.1617,9.7875,34.2563,-26.475,,0.017256000000000604,2.0321525853144,2.397185629414016,non_fall
4.769557,-0.3243,0.808,-2.8241,-0.0807,-0.1024,-0.1617,9.7875,34.2563,-26.475,,0.0009169999999993905,2.955262306462829,2.574409740307366,non_fall
4.76991,-0.3243,0.808,-2.8241,-0.4365,0.1678,-0.0336,9.7875,34.2563,-26.475,,0.0003530000000004918,2.955262306462829,2.7615351577421747,non_fall
4.810452,-0.3243,0.808,-2.8241,-0.4365,0.1678,-0.0336,9.45,34.4438,-26.9438,,0.04054199999999941,2.955262306462829,2.943052248050167,non_fall
4.828,-0.3243,0.808,-2.8241,-0.9249,-0.0178,0.0712,9.45,34.4438,-26.9438,,0.017548000000000563,2.955262306462829,3.1029156794430763,non_fall
4.8293,-0.3243,0.808,-2.8241,-0.9249,-0.0178,0.0712,9.45,34.4438,-26.9438,,0.0012999999999996348,2.955262306462829,3.2265018441371165,non_fall
4.829739,-1.372,0.9089,-3.0831,-0.9249,-0.0178,0.0712,9.45,34.4438,-26.9438,,0.0004390000000000782,3.4948517593740656,3.3023498837318863,non_fall
4.871894,-1.372,0.9089,-3.0831,-0.9249,-0.0178,0.0712,9.225,34.65,-26.6063,,0.042155000000000165,3.4948517593740656,3.323651681718488,non_fall
4.890393,-1.372,0.9089,-3.0831,-0.9249,-0.0178,0.0712,9.225,34.65,-26.6063,,0.018499000000000265,3.4948517593740656,3.289304756430565,non_fall
4.892176,-1.5629,0.703,-2.456,-0.9249,-0.0178,0.0712,9.225,34.65,-26.6063,,0.001782999999999646,2.9947957209131975,3.2042183926294974,non_fall
4.893419,-1.5629,0.703,-2.456,-1.4237,-0.2475,0.2643,9.225,34.65,-26.6063,,0.001242999999999661,2.9947957209131975,3.078687749969279,non_fall
4.931022,-1.5629,0.703,-2.456,-1.4237,-0.2475,0.2643,9.3,35.1562,-25.7813,,0.03760299999999983,2.9947957209131975,2.9269458571620883,non_fall
4.950916,-1.5629,0.703,-2.456,-1.4237,-0.2475,0.2643,9.3,35.1562,-25.7813,,0.019894000000000744,2.9947957209131975,2.765216421059731,non_fall
4.951698,-1.9547,-0.0308,-1.289,-1.4237,-0.2475,0.2643,9.3,35.1562,-25.7813,,0.0007820000000000604,2.3416493610273936,2.609616479952105,non_fall
4.952108,-1.9547,-0.0308,-1.289,-1.8352,-0.4506,0.5377,9.3,35.1562,-25.7813,,0.00040999999999957737,2.3416493610273936,2.4742217981475716,non_fall
4.992228,-1.9547,-0.0308,-1.289,-1.8352,-0.4506,0.5377,9.4875,35.85,-24.225,,0.040119999999999933,2.3416493610273936,2.3696120542713652,non_fall
5.01329,-1.9547,-0.0308,-1.289,-1.8352,-0.4506,0.5377,9.4875,35.85,-24.225,,0.021061999999999692,2.3416493610273936,2.3021686855189234,non_fall
5.015387,-1.9547,-0.0308,-1.289,-2.0325,-0.6213,0.9818,9.4875,35.85,-24.225,,0.0020970000000000155,2.3416493610273936,2.274201317713305,non_fall
5.031406,-2.2001,-0.8154,0.2772,-2.0325,-0.6213,0.9818,9.4875,35.85,-24.225,,0.016019000000000005,2.362658885662507,2.2847114685777856,non_fall
5.051764,-2.2001,-0.8154,0.2772,-2.0325,-0.6213,0.9818,10.6688,36.0938,-21.5438,,0.020358000000000764,2.362658885662507,2.3304437327860192,non_fall
5.071693,-2.2001,-0.8154,0.2772,-2.0325,-0.6213,0.9818,10.6688,36.0938,-21.5438,,0.01992899999999942,2.362658885662507,2.4069016984809717,non_fall
5.073119,-2.2001,-0.8154,0.2772,-2.0406,-0.6611,1.5296,10.6688,36.0938,-21.5438,,0.0014260000000003714,2.362658885662507,2.509154445018623,non_fall
5.091816,-1.7106,-2.1324,0.7448,-2.0406,-0.6611,1.5296,10.6688,36.0938,-21.5438,,0.01869699999999952,2.833374165195977,2.632407907861484,non_fall
5.1117,-1.7106,-2.1324,0.7448,-2.0406,-0.6611,1.5296,12.0375,36.525,-19.1625,,0.019884000000000235,2.833374165195977,2.7723756244308277,non_fall
5.13351,-1.7106,-2.1324,0.7448,-2.0406,-0.6611,1.5296,12.0375,36.525,-19.1625,,0.02181000000000033,2.833374165195977,2.9254723365895385,non_fall
5.134738,-1.7106,-2.1324,0.7448,-1.9633,-1.0555,1.9562,12.0375,36.525,-19.1625,,0.0012279999999993407,2.833374165195977,3.088866798624837,non_fall
5.153244,-0.4265,-3.4715,0.4909,-1.9633,-1.0555,1.9562,12.0375,36.525,-19.1625,,0.018506000000000355,3.5318829694654377,3.260492530840273,non_fall
5.169635,-0.4265,-3.4715,0.4909,-1.9633,-1.0555,1.9562,14.2125,36.6,-16.4625,,0.01639100000000049,3.5318829694654377,3.4391315796492252,non_fall
5.193143,-0.4265,-3.4715,0.4909,-1.828,-1.4155,2.2484,14.2125,36.6,-16.4625,,0.02350799999999964,3.5318829694654377,3.6246138155278307,non_fall
5.195333,-0.4265,-3.4715,0.4909,-1.828,-1.4155,2.2484,14.2125,36.6,-16.4625,,0.002189999999999692,3.5318829694654377,3.818126159180349,non_fall
5.230243,-0.4265,-3.4715,0.4909,-1.828,-1.4155,2.2484,16.8,36.4875,-14.0813,,0.03491,3.5318829694654377,4.0226666858442375,non_fall
5.233392,1.0627,-4.7689,0.5383,-1.828,-1.4155,2.2484,16.8,36.4875,-14.0813,,0.0031490000000005125,4.915435422218463,4.243638238422425,non_fall
5.253493,1.0627,-4.7689,0.5383,-1.828,-1.4155,2.2484,16.8,36.4875,-14.0813,,0.02010099999999948,4.915435422218463,4.48926920964495,non_fall
5.25474,1.0627,-4.7689,0.5383,-1.7442,-1.0432,2.5839,16.8,36.4875,-14.0813,,0.0012470000000002202,4.915435422218463,4.77014870521853,non_fall
5.291066,1.0627,-4.7689,0.5383,-1.7442,-1.0432,2.5839,19.8375,35.7188,-11.925,,0.03632599999999986,4.915435422218463,5.0971410789860805,non_fall
5.294035,2.0116,-5.0078,2.0073,-1.7442,-1.0432,2.5839,19.8375,35.7188,-11.925,,0.0029690000000002215,5.7579378852155045,5.477528202391767,non_fall
5.314607,2.0116,-5.0078,2.0073,-1.2092,-1.2671,2.7011,19.8375,35.7188,-11.925,,0.02057199999999959,5.7579378852155045,5.910103040919746,non_fall
5.317237,2.0116,-5.0078,2.0073,-1.2092,-1.2671,2.7011,19.8375,35.7188,-11.925,,0.0026300000000007984,5.7579378852155045,6.380627358722201,non_fall
5.350594,2.0116,-5.0078,2.0073,-1.2092,-1.2671,2.7011,22.95,34.3688,-10.3313,,0.03335699999999964,5.7579378852155045,6.859339044353133,non_fall
5.355884,6.5204,-1.6432,4.3121,-1.2092,-1.2671,2.7011,22.95,34.3688,-10.3313,,0.005289999999999573,7.9881117174210825,7.3019391302777255,non_fall
5.375726,6.5204,-1.6432,4.3121,-0.4237,-0.5621,1.8635,22.95,34.3688,-10.3313,,0.01984200000000058,7.9881117174210825,7.654584418747589,non_fall
5.378122,6.5204,-1.6432,4.3121,-0.4237,-0.5621,1.8635,22.95,34.3688,-10.3313,,0.0023960000000000647,7.9881117174210825,7.862090484876311,non_fall
5.410513,6.5204,-1.6432,4.3121,-0.4237,-0.5621,1.8635,26.0813,32.2875,-9.3375,,0.032390999999999615,7.9881117174210825,7.877537950610962,non_fall
5.415935,7.0873,0.2537,0.4903,-0.4237,-0.5621,1.8635,26.0813,32.2875,-9.3375,,0.00542200000000026,7.1087677603083925,7.67132782626314,non_fall
5.436822,7.0873,0.2537,0.4903,-0.2614,-0.0835,0.4816,26.0813,32.2875,-9.3375,,0.0208870000000001,7.1087677603083925,7.238217206382997,non_fall
5.438296,7.0873,0.2537,0.4903,-0.2614,-0.0835,0.4816,26.0813,32.2875,-9.3375,,0.0014739999999999753,7.1087677603083925,6.601288042087049,non_fall
5.470638,7.0873,0.2537,0.4903,-0.2614,-0.0835,0.4816,29.2313,30.0375,-8.8688,,0.03234199999999987,7.1087677603083925,5.8117823836534885,non_fall
5.498548,7.0873,0.2537,0.4903,-0.2614,-0.0835,0.4816,29.2313,30.0375,-8.8688,,0.027910000000000323,7.1087677603083925,4.943632047213938,non_fall
5.50041,-1.8156,-0.5369,0.2236,-0.2614,-0.0835,0.4816,29.2313,30.0375,-8.8688,,0.0018619999999991421,1.9064789351052376,4.082188804682777,non_fall
5.501779,-1.8156,-0.5369,0.2236,-0.2983,-0.3534,0.1475,29.2313,30.0375,-8.8688,,0.0013690000000003977,1.9064789351052376,3.3086448273619937,non_fall
5.530818,-1.8156,-0.5369,0.2236,-0.2983,-0.3534,0.1475,32.025,27.9,-8.775,,0.029039000000000037,1.9064789351052376,2.68410568611519,non_fall
5.559103,-1.8156,-0.5369,0.2236,-0.3374,0.3694,0.3655,32.025,27.9,-8.775,,0.028285000000000338,1.9064789351052376,2.238349979750378,non_fall
5.560624,-1.8156,-0.5369,0.2236,-0.3374,0.3694,0.3655,32.025,27.9,-8.775,,0.0015209999999994395,1.9064789351052376,1.9668555591147452,non_fall
5.561396,-2.3629,0.221,-0.4812,-0.3374,0.3694,0.3655,32.025,27.9,-8.775,,0.000772000000000439,2.421505905423317,1.836553481197937,non_fall
5.590955,-2.3629,0.221,-0.4812,-0.3374,0.3694,0.3655,34.4062,25.8,-9.0188,,0.02955899999999989,2.421505905423317,1.7978223764593133,non_fall
5.620817,-2.3629,0.221,-0.4812,-0.3374,0.3694,0.3655,34.4062,25.8,-9.0188,,0.02986199999999961,2.421505905423317,1.7986445906491242,non_fall
5.622978,-2.3629,0.221,-0.4812,-0.4617,-0.2799,0.4305,34.4062,25.8,-9.0188,,0.0021610000000000795,2.421505905423317,1.7968121436285414,non_fall
5.624614,-1.3437,-0.5562,0.2344,-0.4617,-0.2799,0.4305,34.4062,25.8,-9.0188,,0.001636000000000415,1.4730347891343232,1.7672751631174102,non_fall
5.651275,-1.3437,-0.5562,0.2344,-0.4617,-0.2799,0.4305,36.15,23.9625,-9.2625,,0.026660999999999824,1.4730347891343232,1.7036021165337543,non_fall
5.682137,-1.3437,-0.5562,0.2344,-0.5188,-0.026,0.5424,36.15,23.9625,-9.2625,,0.030861999999999945,1.4730347891343232,1.6143632561105314,non_fall
5.685361,-1.3437,-0.5562,0.2344,-0.5188,-0.026,0.5424,36.15,23.9625,-9.2625,,0.0032240000000003377,1.4730347891343232,1.516435701880987,non_fall
5.700973,0.3365,1.0278,-0.2415,-0.5188,-0.026,0.5424,36.15,23.9625,-9.2625,,0.01561199999999996,1.1081188293680422,1.4275364838930074,non_fall
5.710699,0.3365,1.0278,-0.2415,-0.5188,-0.026,0.5424,37.6313,22.1813,-9.0938,,0.00972599999999968,1.1081188293680422,1.359957308498527,non_fall
5.741669,0.3365,1.0278,-0.2415,-0.6938,-0.572,0.6208,37.6313,22.1813,-9.0938,,0.030969999999999942,1.1081188293680422,1.3168700130753674,non_fall
5.742682,0.3365,1.0278,-0.2415,-0.6938,-0.572,0.6208,37.6313,22.1813,-9.0938,,0.0010130000000003747,1.1081188293680422,1.291859779331698,non_fall
5.762697,-0.8125,1.2964,0.0951,-0.6938,-0.572,0.6208,37.6313,22.1813,-9.0938,,0.020014999999999894,1.5329230965707314,1.271536548244763,non_fall
5.770556,-0.8125,1.2964,0.0951,-0.6938,-0.572,0.6208,38.55,20.8125,-9.0563,,0.007858999999999838,1.5329230965707314,1.240260681628375,non_fall
5.803857,-0.8125,1.2964,0.0951,-0.6938,-0.572,0.6208,38.55,20.8125,-9.0563,,0.0333009999999998,1.5329230965707314,1.1854232757745384,non_fall
5.805752,-0.8125,1.2964,0.0951,-0.933,-0.9618,0.9012,38.55,20.8125,-9.0563,,0.001895000000000202,1.5329230965707314,1.10159507804087,non_fall
5.823237,0.4028,0.2423,-0.4851,-0.933,-0.9618,0.9012,38.55,20.8125,-9.0563,,0.01748499999999975,0.6754843743566538,0.99230870233327,non_fall
5.831031,0.4028,0.2423,-0.4851,-0.933,-0.9618,0.9012,39.225,19.5563,-9.075,,0.007794000000000523,0.6754843743566538,0.869120238724548,non_fall
5.863341,0.4028,0.2423,-0.4851,-0.6931,-0.8337,0.947,39.225,19.5563,-9.075,,0.03230999999999984,0.6754843743566538,0.7485265599372649,non_fall
5.865239,0.4028,0.2423,-0.4851,-0.6931,-0.8337,0.947,39.225,19.5563,-9.075,,0.0018979999999997332,0.6754843743566538,0.6478731382499917,non_fall
5.883891,0.2224,-0.3643,-0.2289,-0.6931,-0.8337,0.947,39.225,19.5563,-9.075,,0.018652000000000335,0.4843257787894425,0.5814111231976177,non_fall
5.890401,0.2224,-0.3643,-0.2289,-0.6931,-0.8337,0.947,39.8813,18.5438,-9.1688,,0.006509999999999572,0.4843257787894425,0.5573475773421722,non_fall
5.925501,0.2224,-0.3643,-0.2289,-0.6931,-0.8337,0.947,39.8813,18.5438,-9.1688,,0.03509999999999991,0.4843257787894425,0.576378171666119,non_fall
5.927483,0.2224,-0.3643,-0.2289,-0.33,-1.4368,0.9534,39.8813,18.5438,-9.1688,,0.0019819999999999283,0.4843257787894425,0.6319119068165729,non_fall
5.94976,0.2224,-0.3643,-0.2289,-0.33,-1.4368,0.9534,40.2375,17.325,-9.5063,,0.02227700000000077,0.4843257787894425,0.7119302801426909,non_fall
5.964026,-0.1027,1.1543,-0.2507,-0.33,-1.4368,0.9534,40.2375,17.325,-9.5063,,0.014265999999999224,1.1856670148064339,0.8020935239912095,non_fall
5.985111,-0.1027,1.1543,-0.2507,-0.183,-1.4947,1.041,40.2375,17.325,-9.5063,,0.021085000000000242,1.1856670148064339,0.8893287213907242,non_fall
5.986548,-0.1027,1.1543,-0.2507,-0.183,-1.4947,1.041,40.2375,17.325,-9.5063,,0.0014370000000001326,1.1856670148064339,0.9648603585379077,non_fall
6.00984,-0.1027,1.1543,-0.2507,-0.183,-1.4947,1.041,40.4062,15.7875,-10.575,,0.023291999999999646,1.1856670148064339,1.0257097173702556,non_fall
6.025138,-0.6516,0.2689,0.5362,-0.183,-1.4947,1.041,40.4062,15.7875,-10.575,,0.015298000000000478,0.8856637115745456,1.0742014763638636,non_fall
6.045461,-0.6516,0.2689,0.5362,-0.183,-1.4947,1.041,40.4062,15.7875,-10.575,,0.020323000000000313,0.8856637115745456,1.1157859590948704,non_fall
6.046752,-0.6516,0.2689,0.5362,-0.0349,-1.9775,1.2605,40.4062,15.7875,-10.575,,0.001290999999999265,0.8856637115745456,1.156142495387295,non_fall
6.070122,-0.6516,0.2689,0.5362,-0.0349,-1.9775,1.2605,40.0875,13.95,-12.4313,,0.02336999999999989,0.8856637115745456,1.1987652956371042,non_fall
6.086432,1.0391,0.3223,-0.9487,-0.0349,-1.9775,1.2605,40.0875,13.95,-12.4313,,0.016310000000000713,1.4434811360042084,1.2439531833036626,lateral_fall
6.106445,1.0391,0.3223,-0.9487,0.2036,-2.056,1.302,40.0875,13.95,-12.4313,,0.020012999999999614,1.4434811360042084,1.289469080698915,lateral_fall
6.108138,1.0391,0.3223,-0.9487,0.2036,-2.056,1.302,40.0875,13.95,-12.4313,,0.0016930000000003886,1.4434811360042084,1.3324190252075536,lateral_fall
6.130805,1.0391,0.3223,-0.9487,0.2036,-2.056,1.302,39.4688,11.9438,-14.9625,,0.022666999999999327,1.4434811360042084,1.3714601640622757,lateral_fall
6.167428,1.0391,0.3223,-0.9487,0.2036,-2.056,1.302,39.4688,11.9438,-14.9625,,0.036623000000000516,1.4434811360042084,1.4084344038362826,lateral_fall
6.169472,0.9961,0.1413,-1.2151,0.2036,-2.056,1.302,39.4688,11.9438,-14.9625,,0.0020439999999997127,1.5775452164676613,1.4488256817287741,lateral_fall
6.170771,0.9961,0.1413,-1.2151,0.5579,-1.5891,1.2072,39.4688,11.9438,-14.9625,,0.0012990000000003832,1.5775452164676613,1.500831450375654,lateral_fall
6.189752,0.9961,0.1413,-1.2151,0.5579,-1.5891,1.2072,38.475,9.5438,-17.775,,0.018981000000000137,1.5775452164676613,1.5731960950680113,lateral_fall
6.228072,0.9961,0.1413,-1.2151,0.5579,-1.5891,1.2072,38.475,9.5438,-17.775,,0.03831999999999969,1.5775452164676613,1.6722690162093385,lateral_fall
6.229681,0.9961,0.1413,-1.2151,1.0776,-0.9111,1.2579,38.475,9.5438,-17.775,,0.0016090000000001936,1.5775452164676613,1.7990208945121584,lateral_fall
6.230527,0.7695,0.0657,-1.7312,1.0776,-0.9111,1.2579,38.475,9.5438,-17.775,,0.0008460000000001244,1.8956529692958046,1.9469068840882522,lateral_fall
6.250365,0.7695,0.0657,-1.7312,1.0776,-0.9111,1.2579,37.2,6.675,-20.7188,,0.019838000000000022,1.8956529692958046,2.1014102277459323,lateral_fall
6.289383,0.7695,0.0657,-1.7312,0.842,-0.8944,1.0695,37.2,6.675,-20.7188,,0.03901799999999955,1.8956529692958046,2.241805232210913,lateral_fall
6.291348,0.7695,0.0657,-1.7312,0.842,-0.8944,1.0695,37.2,6.675,-20.7188,,0.0019650000000002166,1.8956529692958046,2.34518575353029,lateral_fall
6.292177,-1.7037,0.8297,2.352,0.842,-0.8944,1.0695,37.2,6.675,-20.7188,,0.0008289999999995246,3.020413842505692,2.3921433005642,lateral_fall
6.310843,-1.7037,0.8297,2.352,0.842,-0.8944,1.0695,35.7188,3.8063,-23.8313,,0.018666000000000516,3.020413842505692,2.372695744541912,lateral_fall
6.350918,-1.7037,0.8297,2.352,0.341,-0.1932,0.3513,35.7188,3.8063,-23.8313,,0.04007499999999986,3.020413842505692,2.290436402437533,lateral_fall
6.353004,-1.7037,0.8297,2.352,0.341,-0.1932,0.3513,35.7188,3.8063,-23.8313,,0.0020860000000002543,3.020413842505692,2.1629162271456686,lateral_fall
6.353918,0.2505,0.887,-0.5352,0.341,-0.1932,0.3513,35.7188,3.8063,-23.8313,,0.0009139999999998594,1.0658134405232467,2.017357352221786,lateral_fall
6.370884,0.2505,0.887,-0.5352,0.341,-0.1932,0.3513,33.975,0.8063,-26.6625,,0.016966000000000037,1.0658134405232467,1.8826782013970973,lateral_fall
6.41301,0.2505,0.887,-0.5352,-0.2558,-0.2557,-0.1968,33.975,0.8063,-26.6625,,0.042125999999999664,1.0658134405232467,1.7805950879567516,lateral_fall
6.417091,0.2505,0.887,-0.5352,-0.2558,-0.2557,-0.1968,33.975,0.8063,-26.6625,,0.004081000000000223,1.0658134405232467,1.7192020407558128,lateral_fall
6.432177,-1.1508,0.4559,1.7196,-0.2558,-0.2557,-0.1968,33.975,0.8063,-26.6625,,0.015086000000000155,2.118775497781679,1.6914557237865162,lateral_fall
6.434785,-1.1508,0.4559,1.7196,-0.2558,-0.2557,-0.1968,32.2875,-1.9313,-29.2313,,0.0026079999999994996,2.118775497781679,1.678908662522981,lateral_fall
6.472745,-1.1508,0.4559,1.7196,-0.3981,0.0467,-0.4527,32.2875,-1.9313,-29.2313,,0.037959999999999994,2.118775497781679,1.658934144341612,lateral_fall
6.474443,-1.1508,0.4559,1.7196,-0.3981,0.0467,-0.4527,32.2875,-1.9313,-29.2313,,0.0016980000000001993,2.118775497781679,1.612524305382082,lateral_fall
6.4909,-1.1508,0.4559,1.7196,-0.3981,0.0467,-0.4527,30.7313,-4.2,-31.2563,,0.016456999999999944,2.118775497781679,1.529866436150477,lateral_fall
6.49221,-0.2261,0.8771,-0.0099,-0.3981,0.0467,-0.4527,30.7313,-4.2,-31.2563,,0.0013100000000001444,0.9058275939713915,1.412049837627363,lateral_fall
6.533754,-0.2261,0.8771,-0.0099,-0.4768,-0.129,-0.7566,30.7313,-4.2,-31.2563,,0.041544000000000025,0.9058275939713915,1.2688562101352523,lateral_fall
6.53729,-0.2261,0.8771,-0.0099,-0.4768,-0.129,-0.7566,30.7313,-4.2,-31.2563,,0.0035359999999995395,0.9058275939713915,1.1140119271047035,lateral_fall
6.550615,-0.2261,0.8771,-0.0099,-0.4768,-0.129,-0.7566,29.7375,-5.7375,-32.5125,,0.013325000000000031,0.9058275939713915,0.959996042700187,lateral_fall
6.553821,-0.181,0.3859,0.2489,-0.4768,-0.129,-0.7566,29.7375,-5.7375,-32.5125,,0.0032060000000004862,0.49358993101561544,0.8143262120601135,lateral_fall
6.594166,-0.181,0.3859,0.2489,-0.3455,0.0506,-0.7502,29.7375,-5.7375,-32.5125,,0.0403450000000003,0.49358993101561544,0.6784900799569014,lateral_fall
6.595654,-0.181,0.3859,0.2489,-0.3455,0.0506,-0.7502,29.7375,-5.7375,-32.5125,,0.0014879999999992677,0.49358993101561544,0.549799889023199,lateral_fall
6.61137,-0.181,0.3859,0.2489,-0.3455,0.0506,-0.7502,28.9688,-6.8438,-33.3375,,0.015716000000000285,0.49358993101561544,0.4256328487423971,lateral_fall
6.635342,0.0939,0.4812,-0.4111,-0.3455,0.0506,-0.7502,28.9688,-6.8438,-33.3375,,0.02397199999999966,0.6398233037331479,0.30881026790130245,lateral_fall
6.657241,0.0939,0.4812,-0.4111,-0.3455,0.0506,-0.7502,28.9688,-6.8438,-33.3375,,0.021899000000000335,0.6398233037331479,0.21236287777130686,lateral_fall
6.659926,0.0939,0.4812,-0.4111,-0.1623,-0.004,-0.7485,28.9688,-6.8438,-33.3375,,0.0026849999999996044,0.6398233037331479,0.16182221295862423,lateral_fall
6.670843,0.0939,0.4812,-0.4111,-0.1623,-0.004,-0.7485,28.6688,-6.8813,-33.8438,,0.010917000000000066,0.6398233037331479,0.19362101312663835,lateral_fall
6.696461,-0.2349,-0.095,-0.1077,-0.1623,-0.004,-0.7485,28.6688,-6.8813,-33.8438,,0.025618000000000585,0.27532217491513467,0.34918408960893205,lateral_fall
6.71666,-0.2349,-0.095,-0.1077,0.3041,0.1827,-0.7751,28.6688,-6.8813,-33.8438,,0.020198999999999856,0.27532217491513467,0.6656551744447798,lateral_fall
6.717887,-0.2349,-0.095,-0.1077,0.3041,0.1827,-0.7751,28.6688,-6.8813,-33.8438,,0.0012270000000000891,0.27532217491513467,1.165539154698902,lateral_fall
6.729909,-0.2349,-0.095,-0.1077,0.3041,0.1827,-0.7751,28.5,-6.4313,-33.975,,0.012021999999999977,0.27532217491513467,1.848297436180775,lateral_fall
6.756194,1.5553,-2.3618,-3.0814,0.3041,0.1827,-0.7751,28.5,-6.4313,-33.975,,0.02628499999999967,4.182353797803337,2.6866099150477796,lateral_fall
6.776996,1.5553,-2.3618,-3.0814,0.6772,0.2822,-0.477,28.5,-6.4313,-33.975,,0.020801999999999765,4.182353797803337,3.6285276884672677,lateral_fall
6.778856,1.5553,-2.3618,-3.0814,0.6772,0.2822,-0.477,28.5,-6.4313,-33.975,,0.001860000000000639,4.182353797803337,4.60481262396382,lateral_fall
6.789921,1.5553,-2.3618,-3.0814,0.6772,0.2822,-0.477,28.5,-5.55,-33.9938,,0.011064999999999436,4.182353797803337,5.539574157239687,lateral_fall
6.818232,0.7395,-6.0142,-4.5682,0.6772,0.2822,-0.477,28.5,-5.55,-33.9938,,0.02831100000000042,7.588538273607111,6.36228341408846,lateral_fall
6.837781,0.7395,-6.0142,-4.5682,0.0027,-0.255,-0.8695,28.5,-5.55,-33.9938,,0.019548999999999594,7.588538273607111,7.019549987563567,lateral_fall
6.839353,0.7395,-6.0142,-4.5682,0.0027,-0.255,-0.8695,28.5,-5.55,-33.9938,,0.001572000000000351,7.588538273607111,7.484935651774708,lateral_fall
6.850697,0.7395,-6.0142,-4.5682,0.0027,-0.255,-0.8695,28.8563,-4.3875,-33.8813,,0.011344000000000243,7.588538273607111,7.764962913145961,lateral_fall
6.899283,0.7395,-6.0142,-4.5682,0.0027,-0.255,-0.8695,28.8563,-4.3875,-33.8813,,0.04858599999999935,7.588538273607111,7.900049351755413,lateral_fall
6.900933,7.2159,0.1272,4.3402,0.0027,-0.255,-0.8695,28.8563,-4.3875,-33.8813,,0.0016500000000005954,8.421563316273293,7.9601294619459315,lateral_fall
6.901801,7.2159,0.1272,4.3402,0.0804,3.2194,-3.3439,28.8563,-4.3875,-33.8813,,0.0008679999999996468,8.421563316273293,8.03546418857841,lateral_fall
6.910557,7.2159,0.1272,4.3402,0.0804,3.2194,-3.3439,29.6438,-2.6063,-33.225,,0.008755999999999986,8.421563316273293,8.223395631238942,lateral_fall
6.962507,7.2159,0.1272,4.3402,0.0804,3.2194,-3.3439,29.6438,-2.6063,-33.225,,0.05194999999999972,8.421563316273293,8.612037491923003,lateral_fall
6.965656,3.6658,2.9206,8.976,0.0804,3.2194,-3.3439,29.6438,-2.6063,-33.225,,0.0031490000000005125,10.126034268162439,9.26247808919251,lateral_fall
6.967498,3.6658,2.9206,8.976,1.6734,0.368,-2.6197,29.6438,-2.6063,-33.225,,0.0018419999999998993,10.126034268162439,10.191932111991413,lateral_fall
6.970504,3.6658,2.9206,8.976,1.6734,0.368,-2.6197,30.6938,-0.5063,-31.9688,,0.003006000000000064,10.126034268162439,11.361168438814449,lateral_fall
7.02341,3.6658,2.9206,8.976,1.6734,0.368,-2.6197,30.6938,-0.5063,-31.9688,,0.05290600000000012,10.126034268162439,12.670255000652011,lateral_fall
7.02775,3.6658,2.9206,8.976,1.6038,1.5743,-1.308,30.6938,-0.5063,-31.9688,,0.0043400000000000105,10.126034268162439,13.966606068356201,lateral_fall
7.031214,-14.0632,-0.3915,-11.1316,1.6038,1.5743,-1.308,30.6938,-0.5063,-31.9688,,0.0034640000000001336,17.939882526092525,15.067335375574332,lateral_fall
7.034383,-14.0632,-0.3915,-11.1316,1.6038,1.5743,-1.308,31.6313,1.35,-30.6,,0.0031689999999997553,17.939882526092525,15.793389830302603,lateral_fall
7.082202,-14.0632,-0.3915,-11.1316,-0.0112,0.0389,4.1239,31.6313,1.35,-30.6,,0.04781899999999961,17.939882526092525,16.007390893820915,lateral_fall
7.084908,-14.0632,-0.3915,-11.1316,-0.0112,0.0389,4.1239,31.6313,1.35,-30.6,,0.0027060000000007634,17.939882526092525,15.64390473953049,lateral_fall
7.091348,-14.0632,-0.3915,-11.1316,-0.0112,0.0389,4.1239,32.9625,2.2313,-29.1188,,0.006439999999999557,17.939882526092525,14.722423408572217,lateral_fall
7.102041,-5.7428,6.0368,3.2259,-0.0112,0.0389,4.1239,32.9625,2.2313,-29.1188,,0.010692999999999842,8.934715266308155,13.339164417454148,lateral_fall
7.142861,-5.7428,6.0368,3.2259,0.2786,-0.8944,-0.5951,32.9625,2.2313,-29.1188,,0.04082000000000008,8.934715266308155,11.641288133899321,lateral_fall
7.145332,-5.7428,6.0368,3.2259,0.2786,-0.8944,-0.5951,32.9625,2.2313,-29.1188,,0.00247099999999989,8.934715266308155,9.793061127202023,lateral_fall
7.150506,-5.7428,6.0368,3.2259,0.2786,-0.8944,-0.5951,34.0312,2.2313,-27.8813,,0.005174000000000234,8.934715266308155,7.945038081346418,lateral_fall
7.162881,0.6531,-4.1471,-2.2951,0.2786,-0.8944,-0.5951,34.0312,2.2313,-27.8813,,0.01237499999999958,4.784606779036288,6.213996988577148,lateral_fall
7.203835,0.6531,-4.1471,-2.2951,0.2455,0.2189,0.5669,34.0312,2.2313,-27.8813,,0.04095400000000016,4.784606779036288,4.675822781851934,lateral_fall
7.205871,0.6531,-4.1471,-2.2951,0.2455,0.2189,0.5669,34.0312,2.2313,-27.8813,,0.002036000000000371,4.784606779036288,3.3690512399149433,lateral_fall
7.209261,0.6531,-4.1471,-2.2951,0.2455,0.2189,0.5669,35.2875,1.9875,-26.6063,,0.00338999999999956,4.784606779036288,2.3044633705873525,lateral_fall
7.224221,0.1556,-0.0372,0.152,0.2455,0.2189,0.5669,35.2875,1.9875,-26.6063,,0.014960000000000306,0.2206789523266775,1.4756491002554482,lateral_fall
7.264612,0.1556,-0.0372,0.152,0.0957,-0.196,0.0435,35.2875,1.9875,-26.6063,,0.04039099999999962,0.2206789523266775,0.866756961297044,lateral_fall
7.26645,0.1556,-0.0372,0.152,0.0957,-0.196,0.0435,35.2875,1.9875,-26.6063,,0.0018380000000002283,0.2206789523266775,0.4562900854156245,lateral_fall
7.270465,0.1556,-0.0372,0.152,0.0957,-0.196,0.0435,36.6938,1.725,-25.0125,,0.00401499999999988,0.2206789523266775,0.21821480682153488,lateral_fall
7.285182,0.1504,0.0682,-0.0571,0.0957,-0.196,0.0435,36.6938,1.725,-25.0125,,0.014717000000000091,0.17473353999733424,0.12238302739631313,lateral_fall
7.32684,0.1504,0.0682,-0.0571,0.2487,-0.0455,-0.106,36.6938,1.725,-25.0125,,0.04165799999999997,0.17473353999733424,0.1355364669454793,lateral_fall
7.329088,0.1504,0.0682,-0.0571,0.2487,-0.0455,-0.106,36.6938,1.725,-25.0125,,0.0022479999999998057,0.17473353999733424,0.2231583119653044,lateral_fall
7.335129,0.1504,0.0682,-0.0571,0.2487,-0.0455,-0.106,37.725,1.5375,-23.9062,,0.006041000000000629,0.17473353999733424,0.3518920868805345,lateral_fall
7.366959,0.5278,-0.3302,-0.4708,0.2487,-0.0455,-0.106,37.725,1.5375,-23.9062,,0.03182999999999936,0.7805494987507199,0.4921002048754187,lateral_fall
7.386209,0.5278,-0.3302,-0.4708,0.4024,0.1844,0.0758,37.725,1.5375,-23.9062,,0.019250000000000433,0.7805494987507199,0.6201038000965872,lateral_fall
7.387739,0.5278,-0.3302,-0.4708,0.4024,0.1844,0.0758,37.725,1.5375,-23.9062,,0.0015299999999998093,0.7805494987507199,0.7196385518828774,lateral_fall
7.39017,0.5278,-0.3302,-0.4708,0.4024,0.1844,0.0758,38.1562,0.4313,-23.1188,,0.002431000000000516,0.7805494987507199,0.7821780343820197,lateral_fall
7.428061,0.427,0.4463,-0.2883,0.4024,0.1844,0.0758,38.1562,0.4313,-23.1188,,0.03789099999999923,0.6816374256157007,0.8060835354191654,lateral_fall
7.447811,0.427,0.4463,-0.2883,0.4681,0.084,-0.0764,38.1562,0.4313,-23.1188,,0.019750000000000156,0.6816374256157007,0.7949164263345043,lateral_fall
7.450055,0.427,0.4463,-0.2883,0.4681,0.084,-0.0764,38.1562,0.4313,-23.1188,,0.0022440000000001348,0.6816374256157007,0.7554863661616511,lateral_fall
7.452211,0.427,0.4463,-0.2883,0.4681,0.084,-0.0764,38.4,-1.125,-23.0813,,0.002156000000000269,0.6816374256157007,0.6961958176407677,lateral_fall
7.48796,0.2503,-0.4624,-0.2239,0.4681,0.084,-0.0764,38.4,-1.125,-23.0813,,0.03574900000000003,0.571484960432031,0.6260226966415007,lateral_fall
7.507974,0.2503,-0.4624,-0.2239,0.3257,0.0229,-0.1198,38.4,-1.125,-23.0813,,0.020013999999999754,0.571484960432031,0.55418447891496,lateral_fall
7.50946,0.2503,-0.4624,-0.2239,0.3257,0.0229,-0.1198,38.4,-1.125,-23.0813,,0.0014859999999998763,0.571484960432031,0.49026247535412415,lateral_fall
7.509919,0.2503,-0.4624,-0.2239,0.3257,0.0229,-0.1198,38.475,-2.6438,-23.1188,,0.00045900000000020924,0.571484960432031,0.44439268747365057,lateral_fall
7.5685,0.2503,-0.4624,-0.2239,0.1049,0.165,-0.1712,38.475,-2.6438,-23.1188,,0.058581000000000216,0.571484960432031,0.4270780855842565,lateral_fall
7.570578,0.2503,-0.4624,-0.2239,0.1049,0.165,-0.1712,38.475,-2.6438,-23.1188,,0.0020780000000000243,0.571484960432031,0.4482768249898395,lateral_fall
7.571337,0.3105,0.2345,0.2784,0.1049,0.165,-0.1712,38.475,-2.6438,-23.1188,,0.0007589999999995101,0.4784423267228768,0.5156851198915582,lateral_fall
7.572199,0.3105,0.2345,0.2784,0.1049,0.165,-0.1712,38.25,-3.375,-23.2688,,0.0008620000000005845,0.4784423267228768,0.6325142095826183,lateral_fall
7.630829,0.3105,0.2345,0.2784,0.0559,-0.0726,-0.3438,38.25,-3.375,-23.2688,,0.05862999999999996,0.4784423267228768,0.7954311502632334,lateral_fall
7.633321,0.3105,0.2345,0.2784,0.0559,-0.0726,-0.3438,38.1562,-5.2875,-21.9,,0.0024919999999992726,0.4784423267228768,0.9935111995360402,lateral_fall
7.63429,-0.0412,1.621,0.4028,0.0559,-0.0726,-0.3438,38.1562,-5.2875,-21.9,,0.0009690000000004417,1.6708040818719592,1.2088677778332506,lateral_fall
7.635209,-0.0412,1.621,0.4028,0.0559,-0.0726,-0.3438,38.1562,-5.2875,-21.9,,0.0009189999999996701,1.6708040818719592,1.419062359692618,lateral_fall
7.692269,-0.0412,1.621,0.4028,-0.024,0.1763,-0.3977,38.1562,-5.2875,-21.9,,0.05705999999999989,1.6708040818719592,1.6007060593530895,lateral_fall
7.694458,-0.0412,1.621,0.4028,-0.024,0.1763,-0.3977,38.1562,-5.2875,-21.9,,0.0021890000000004406,1.6708040818719592,1.7332790567990652,lateral_fall
7.695273,-0.0412,1.621,0.4028,-0.024,0.1763,-0.3977,38.1188,-5.3063,-21.9563,,0.0008150000000002322,1.6708040818719592,1.802330020439946,lateral_fall
7.696212,0.373,-1.7145,-0.4512,-0.024,0.1763,-0.3977,38.1188,-5.3063,-21.9563,,0.0009389999999998011,1.8116900093559052,1.8016441117033115,lateral_fall
7.754942,0.373,-1.7145,-0.4512,-0.024,0.1763,-0.3977,38.1,-5.2125,-22.0125,,0.05872999999999973,1.8116900093559052,1.734285547827332,lateral_fall
7.757881,0.373,-1.7145,-0.4512,0.0077,0.3312,-0.2324,38.1,-5.2125,-22.0125,,0.002939000000000469,1.8116900093559052,1.6124751908874466,lateral_fall
7.759114,0.373,-1.7145,-0.4512,0.0077,0.3312,-0.2324,38.1,-5.2125,-22.0125,,0.0012330000000000396,1.8116900093559052,1.456208023535453,lateral_fall
7.760006,0.3013,-0.8071,0.3667,0.0077,0.3312,-0.2324,38.1,-5.2125,-22.0125,,0.0008919999999994488,0.936301762254029,1.2905898193502865,lateral_fall
7.810947,0.3013,-0.8071,0.3667,0.0077,0.3312,-0.2324,38.2125,-4.9688,-21.5813,,0.0509409999999999,0.936301762254029,1.1421813412394057,lateral_fall
7.813024,0.3013,-0.8071,0.3667,-0.0129,0.3361,-0.3995,38.2125,-4.9688,-21.5813,,0.0020770000000007727,0.936301762254029,1.0350365434448443,lateral_fall
7.814082,0.3013,-0.8071,0.3667,-0.0129,0.3361,-0.3995,38.2125,-4.9688,-21.5813,,0.0010579999999995593,0.936301762254029,0.9873027562535571,lateral_fall
7.833691,-0.6964,-0.8975,0.0703,-0.0129,0.3361,-0.3995,38.2125,-4.9688,-21.5813,,0.019608999999999988,1.1381657612140685,1.0090453311506682,lateral_fall
7.871993,-0.6964,-0.8975,0.0703,-0.0129,0.3361,-0.3995,38.5688,-4.275,-21.2812,,0.038301999999999836,1.1381657612140685,1.1015172618563036,lateral_fall
7.876209,-0.6964,-0.8975,0.0703,-0.1911,0.2832,-0.73,38.5688,-4.275,-21.2812,,0.004216000000000442,1.1381657612140685,1.2577163459312042,lateral_fall
7.880452,-0.6964,-0.8975,0.0703,-0.1911,0.2832,-0.73,38.5688,-4.275,-21.2812,,0.004242999999999775,1.1381657612140685,1.4639117542834257,lateral_fall
7.89254,-1.7388,-0.4972,1.252,-0.1911,0.2832,-0.73,38.5688,-4.275,-21.2812,,0.01208800000000032,2.199576613805484,1.7017910814269472,lateral_fall
7.931275,-1.7388,-0.4972,1.252,-0.1911,0.2832,-0.73,38.8688,-3.2813,-20.7563,,0.038734999999999964,2.199576613805484,1.9508136605591357,lateral_fall
7.93326,-1.7388,-0.4972,1.252,-0.37,-0.0664,-0.8497,38.8688,-3.2813,-20.7563,,0.0019849999999994594,2.199576613805484,2.1902704948881606,lateral_fall
7.934316,-1.7388,-0.4972,1.252,-0.37,-0.0664,-0.8497,38.8688,-3.2813,-20.7563,,0.001056000000000168,2.199576613805484,2.40066315254744,lateral_fall
7.954874,-1.5171,1.3241,1.4232,-0.37,-0.0664,-0.8497,38.8688,-3.2813,-20.7563,,0.020558000000000298,2.4658328126618803,2.5644194718049196,lateral_fall
7.991963,-1.5171,1.3241,1.4232,-0.37,-0.0664,-0.8497,39.0188,-2.1562,-20.4188,,0.03708899999999993,2.4658328126618803,2.6664157362569845,lateral_fall
7.994529,-1.5171,1.3241,1.4232,-0.1674,-0.802,-0.5416,39.0188,-2.1562,-20.4188,,0.002565999999999846,2.4658328126618803,2.6949290383299322,lateral_fall
7.996879,-1.5171,1.3241,1.4232,-0.1674,-0.802,-0.5416,39.0188,-2.1562,-20.4188,,0.002349999999999852,2.4658328126618803,2.643394309654294,lateral_fall
8.038623,0.8418,2.2084,1.3869,-0.1674,-0.802,-0.5416,39.0188,-2.1562,-20.4188,,0.04174399999999956,2.740282724464759,2.512809580533334,lateral_fall
8.051401,0.8418,2.2084,1.3869,-0.1674,-0.802,-0.5416,39.2438,-1.0312,-19.95,,0.012778000000000844,2.740282724464759,2.314006480877015,lateral_fall
8.054946,0.8418,2.2084,1.3869,-0.1674,-0.802,-0.5416,39.2438,-1.0312,-19.95,,0.003544999999999021,2.740282724464759,2.0685206290989666,non_fall
8.055808,0.8418,2.2084,1.3869,0.7145,1.2647,-0.0591,39.2438,-1.0312,-19.95,,0.0008620000000014727,2.740282724464759,1.806782869932188,non_fall
8.095592,0.4604,-0.0226,-0.3646,0.7145,1.2647,-0.0591,39.2438,-1.0312,-19.95,,0.03978399999999915,0.5877176873295545,1.5630813430455357,non_fall
8.110731,0.4604,-0.0226,-0.3646,0.7145,1.2647,-0.0591,39.4875,-0.0938,-19.6313,,0.01513899999999957,0.5877176873295545,1.3681508818601327,non_fall
8.116156,0.4604,-0.0226,-0.3646,0.5754,-1.1595,0.2025,39.4875,-0.0938,-19.6313,,0.005425000000000679,0.5877176873295545,1.2416982775933072,non_fall
8.116983,0.4604,-0.0226,-0.3646,0.5754,-1.1595,0.2025,39.4875,-0.0938,-19.6313,,0.000826999999999245,0.5877176873295545,1.1877026040536893,non_fall
8.157072,0.8596,-0.9401,-1.2332,0.5754,-1.1595,0.2025,39.4875,-0.0938,-19.6313,,0.04008900000000004,1.7729868612034327,1.1944030930644263,non_fall
8.170991,0.8596,-0.9401,-1.2332,0.5754,-1.1595,0.2025,39.4125,0.6938,-19.6688,,0.013919000000001347,1.7729868612034327,1.2389407477897942,non_fall
8.179192,0.8596,-0.9401,-1.2332,0.543,-1.2235,-0.682,39.4125,0.6938,-19.6688,,0.00820099999999968,1.7729868612034327,1.2947397703983605,non_fall
8.182214,0.8596,-0.9401,-1.2332,0.543,-1.2235,-0.682,39.4125,0.6938,-19.6688,,0.003021999999999636,1.7729868612034327,1.3388511051064134,non_fall
8.218473,1.1077,0.0781,-0.2571,0.543,-1.2235,-0.682,39.4125,0.6938,-19.6688,,0.036258999999999375,1.1398242452237974,1.3569132194934554,non_fall
8.230396,1.1077,0.0781,-0.2571,0.543,-1.2235,-0.682,39.1125,1.4625,-19.8375,,0.011923000000001238,1.1398242452237974,1.3446867095893669,non_fall
8.238085,1.1077,0.0781,-0.2571,0.7361,-0.5563,-0.363,39.1125,1.4625,-19.8375,,0.007688999999999169,1.1398242452237974,1.3065229145561073,non_fall
8.239028,1.1077,0.0781,-0.2571,0.7361,-0.5563,-0.363,39.1125,1.4625,-19.8375,,0.000942999999999472,1.1398242452237974,1.2520073208368918,non_fall
8.290898,1.1077,0.0781,-0.2571,0.7361,-0.5563,-0.363,38.7,1.8188,-20.4938,,0.05187000000000097,1.1398242452237974,1.192177677624916,non_fall
8.300524,1.1077,0.0781,-0.2571,0.7617,-0.2895,-0.2742,38.7,1.8188,-20.4938,,0.009625999999999024,1.1398242452237974,1.1363622235214028,non_fall
8.301669,1.1077,0.0781,-0.2571,0.7617,-0.2895,-0.2742,38.7,1.8188,-20.4938,,0.0011450000000010618,1.1398242452237974,1.0901728842256257,non_fall
8.302047,0.6549,-0.238,-0.6815,0.7617,-0.2895,-0.2742,38.7,1.8188,-20.4938,,0.00037799999999954537,0.9746693080219567,1.0547737764794942,non_fall
8.351243,0.6549,-0.238,-0.6815,0.7617,-0.2895,-0.2742,38.0438,2.1188,-21.2438,,0.04919600000000024,0.9746693080219567,1.02730387304043,non_fall
8.361329,0.6549,-0.238,-0.6815,0.7617,-0.2895,-0.2742,38.0438,2.1188,-21.2438,,0.010085999999999373,0.9746693080219567,1.0022198455950186,non_fall
8.362547,0.6549,-0.238,-0.6815,0.6626,-0.3771,-0.3952,38.0438,2.1188,-21.2438,,0.0012179999999997193,0.9746693080219567,0.9732469976688921,non_fall
8.363667,0.5304,-0.4049,-0.8544,0.6626,-0.3771,-0.3952,38.0438,2.1188,-21.2438,,0.001120000000000232,1.0840975647975601,0.9355204945730492,non_fall
8.410899,0.5304,-0.4049,-0.8544,0.6626,-0.3771,-0.3952,37.2938,1.7813,-22.0312,,0.04723200000000105,1.0840975647975601,0.8873918042355469,non_fall
8.422727,0.5304,-0.4049,-0.8544,0.6626,-0.3771,-0.3952,37.2938,1.7813,-22.0312,,0.011827999999999506,1.0840975647975601,0.8313651549399044,non_fall
8.424027,0.1625,-0.06,-0.5413,0.6626,-0.3771,-0.3952,37.2938,1.7813,-22.0312,,0.001300000000000523,0.5683413938822334,0.7738169214497497,non_fall
8.425157,0.1625,-0.06,-0.5413,0.6297,-0.2557,-0.2384,37.2938,1.7813,-22.0312,,0.0011299999999998533,0.5683413938822334,0.7235460951049053,non_fall
8.471371,0.1625,-0.06,-0.5413,0.6297,-0.2557,-0.2384,36.7125,1.3125,-22.8375,,0.04621399999999909,0.5683413938822334,0.6896518240374397,non_fall
8.482382,0.1625,-0.06,-0.5413,0.7358,0.1198,-0.1823,36.7125,1.3125,-22.8375,,0.011010999999999882,0.5683413938822334,0.6794807117312578,non_fall
8.48406,0.1625,-0.06,-0.5413,0.7358,0.1198,-0.1823,36.7125,1.3125,-22.8375,,0.0016780000000000683,0.5683413938822334,0.6972836659763937,non_fall
8.485063,0.0685,0.403,-0.9021,0.7358,0.1198,-0.1823,36.7125,1.3125,-22.8375,,0.0010030000000007533,0.9903967184921404,0.743846034042419,non_fall
8.530767,0.0685,0.403,-0.9021,0.7358,0.1198,-0.1823,36.3188,0.8063,-23.4188,,0.04570400000000063,0.9903967184921404,0.8169144778335186,non_fall
8.543513,0.0685,0.403,-0.9021,0.7553,0.296,-0.0764,36.3188,0.8063,-23.4188,,0.012745999999999924,0.9903967184921404,0.9119470574895404,non_fall
8.545178,0.0685,0.403,-0.9021,0.7553,0.296,-0.0764,36.3188,0.8063,-23.4188,,0.0016649999999991394,0.9903967184921404,1.0227000663972101,non_fall
8.564155,0.6241,0.3669,-0.852,0.7553,0.296,-0.0764,36.3188,0.8063,-23.4188,,0.018976999999999578,1.1180431208142196,1.1414353160876678,non_fall
8.591451,0.6241,0.3669,-0.852,0.7553,0.296,-0.0764,35.8875,0.3938,-23.925,,0.027295999999999765,1.1180431208142196,1.258911159106077,non_fall
8.604094,0.6241,0.3669,-0.852,0.7045,0.9069,-0.2224,35.8875,0.3938,-23.925,,0.012643000000000626,1.1180431208142196,1.3645860404844028,non_fall
8.605558,0.6241,0.3669,-0.852,0.7045,0.9069,-0.2224,35.8875,0.3938,-23.925,,0.001464000000000354,1.1180431208142196,1.4474831591376307,non_fall
8.626599,-0.42,-0.2923,-1.7396,0.7045,0.9069,-0.2224,35.8875,0.3938,-23.925,,0.02104100000000031,1.813297397009106,1.4979055547156668,non_fall
8.651991,-0.42,-0.2923,-1.7396,0.7045,0.9069,-0.2224,35.7375,0.1875,-23.9625,,0.02539200000000008,1.813297397009106,1.509703040603154,non_fall
8.666317,-0.42,-0.2923,-1.7396,0.7045,0.9069,-0.2224,35.7375,0.1875,-23.9625,,0.014325999999998729,1.813297397009106,1.4822834088598806,non_fall
8.667482,-0.42,-0.2923,-1.7396,0.2969,0.6318,-0.5405,35.7375,0.1875,-23.9625,,0.0011650000000003047,1.813297397009106,1.4213769998152423,non_fall
8.685524,-0.5501,0.2316,-0.6621,0.2969,0.6318,-0.5405,35.7375,0.1875,-23.9625,,0.018041999999999447,0.8914173994263294,1.337943989651483,non_fall
8.710539,-0.5501,0.2316,-0.6621,0.2969,0.6318,-0.5405,35.7188,-1.6125,-22.4438,,0.025015000000001564,0.8914173994263294,1.2454377070798113,non_fall
8.727591,-0.5501,0.2316,-0.6621,0.1003,0.2409,-0.4421,35.7188,-1.6125,-22.4438,,0.017051999999999623,0.8914173994263294,1.156450529106324,non_fall
8.729176,-0.5501,0.2316,-0.6621,0.1003,0.2409,-0.4421,35.7188,-1.6125,-22.4438,,0.0015850000000003917,0.8914173994263294,1.080070193716353,non_fall
8.767502,-0.1062,-1.0583,-0.5681,0.1003,0.2409,-0.4421,35.7188,-1.6125,-22.4438,,0.03832599999999964,1.2058254185411752,1.0208734403680626,non_fall
8.769262,-0.1062,-1.0583,-0.5681,0.1003,0.2409,-0.4421,36.0188,-1.2563,-22.0125,,0.0017599999999990956,1.2058254185411752,0.9796425808149055,non_fall
8.78674,-0.1062,-1.0583,-0.5681,-0.3129,0.2087,-0.6754,36.0188,-1.2563,-22.0125,,0.01747800000000055,1.2058254185411752,0.955104166099153,non_fall
8.788553,-0.1062,-1.0583,-0.5681,-0.3129,0.2087,-0.6754,36.0188,-1.2563,-22.0125,,0.0018130000000002866,1.2058254185411752,0.9456450745322789,non_fall
8.827642,-0.0198,-0.2873,0.7304,-0.3129,0.2087,-0.6754,36.0188,-1.2563,-22.0125,,0.039089000000000595,0.7851225955225083,0.9501672607259635,non_fall
8.83012,-0.0198,-0.2873,0.7304,-0.3129,0.2087,-0.6754,36.4125,-0.7875,-21.4875,,0.0024779999999999802,0.7851225955225083,0.9678353526703567,non_fall
8.848094,-0.0198,-0.2873,0.7304,-0.0101,0.0889,-0.5759,36.4125,-0.7875,-21.4875,,0.017973999999998824,0.7851225955225083,0.9971206544810522,non_fall
8.850125,-0.0198,-0.2873,0.7304,-0.0101,0.0889,-0.5759,36.4125,-0.7875,-21.4875,,0.00203100000000056,0.7851225955225083,1.0349104796831408,non_fall
8.888715,0.3642,0.5985,1.0478,-0.0101,0.0889,-0.5759,36.4125,-0.7875,-21.4875,,0.038589999999999236,1.2604478291464507,1.0763595103423753,non_fall
8.890905,0.3642,0.5985,1.0478,-0.0101,0.0889,-0.5759,36.8438,0.0938,-21.0375,,0.0021900000000005804,1.2604478291464507,1.1156985524615226,non_fall
8.908534,0.3642,0.5985,1.0478,0.1316,-0.2152,-0.2859,36.8438,0.0938,-21.0375,,0.01762899999999945,1.2604478291464507,1.1476747580267972,non_fall
8.910159,0.3642,0.5985,1.0478,0.1316,-0.2152,-0.2859,36.8438,0.0938,-21.0375,,0.0016250000000006537,1.2604478291464507,1.1689846416480305,non_fall
8.949993,0.9267,0.2722,0.6176,0.1316,-0.2152,-0.2859,36.8438,0.0938,-21.0375,,0.03983399999999904,1.1464272720063842,1.1791123369453822,non_fall
8.951494,0.9267,0.2722,0.6176,0.1316,-0.2152,-0.2859,37.275,0.7688,-20.3438,,0.0015010000000010848,1.1464272720063842,1.1802978454132218,non_fall
8.972134,0.9267,0.2722,0.6176,0.1316,-0.2152,-0.2859,37.275,0.7688,-20.3438,,0.020640000000000214,1.1464272720063842,1.1767141898381552,non_fall
8.974247,0.9267,0.2722,0.6176,0.0467,-0.382,-0.0296,37.275,0.7688,-20.3438,,0.0021129999999995874,1.1464272720063842,1.1731640371758765,non_fall
9.011277,0.9267,0.2722,0.6176,0.0467,-0.382,-0.0296,37.3688,1.6875,-20.1,,0.037029999999999674,1.1464272720063842,1.1736737442302085,non_fall
9.031661,0.9267,0.2722,0.6176,0.0467,-0.382,-0.0296,37.3688,1.6875,-20.1,,0.020383999999999958,1.1464272720063842,1.1803117868930026,non_fall
9.033123,-0.2843,-1.1316,0.2801,0.0467,-0.382,-0.0296,37.3688,1.6875,-20.1,,0.0014620000000000744,1.1999171054702071,1.19245606173939,non_fall
9.034042,-0.2843,-1.1316,0.2801,-0.1989,-0.4144,-0.588,37.3688,1.6875,-20.1,,0.0009189999999996701,1.1999171054702071,1.206624384300553,non_fall
9.074061,-0.2843,-1.1316,0.2801,-0.1989,-0.4144,-0.588,38.55,6.0563,-15.525,,0.040019000000000915,1.1999171054702071,1.2168846222063694,non_fall
9.092105,-0.2843,-1.1316,0.2801,-0.6554,-0.4851,-0.2774,38.55,6.0563,-15.525,,0.018043999999999727,1.1999171054702071,1.2157858202175518,non_fall
9.094033,-0.2843,-1.1316,0.2801,-0.6554,-0.4851,-0.2774,38.55,6.0563,-15.525,,0.0019279999999994857,1.1999171054702071,1.195699661427978,non_fall
9.094687,-0.6178,-0.8915,0.2668,-0.6554,-0.4851,-0.2774,38.55,6.0563,-15.525,,0.0006540000000008206,1.1169741850195105,1.1504206999229423,non_fall
9.132543,-0.6178,-0.8915,0.2668,-0.6554,-0.4851,-0.2774,38.2313,7.4625,-15.75,,0.03785599999999967,1.1169741850195105,1.0768327151184518,non_fall
9.153191,-0.6178,-0.8915,0.2668,-0.6554,-0.4851,-0.2774,38.2313,7.4625,-15.75,,0.020647999999999556,1.1169741850195105,0.9764103841535658,non_fall
9.155172,0.3683,-0.3865,-0.4341,-0.6554,-0.4851,-0.2774,38.2313,7.4625,-15.75,,0.0019810000000006767,0.6880915273421117,0.856311403426406,non_fall
9.156697,0.3683,-0.3865,-0.4341,-0.8787,-0.4808,-0.4506,38.2313,7.4625,-15.75,,0.0015249999999991104,0.6880915273421117,0.729846806607293,non_fall
9.192532,0.3683,-0.3865,-0.4341,-0.8787,-0.4808,-0.4506,37.5938,9.0,-16.2375,,0.035835000000000505,0.6880915273421117,0.6161762850526039,non_fall
9.214145,0.3683,-0.3865,-0.4341,-0.8787,-0.4808,-0.4506,37.5938,9.0,-16.2375,,0.021613000000000326,0.6880915273421117,0.5390955218844875,non_fall
9.216238,0.3683,-0.3865,-0.4341,-1.4834,-0.3977,-0.4344,37.5938,9.0,-16.2375,,0.0020930000000003446,0.6880915273421117,0.5247513571651315,non_fall
9.234299,0.1976,-0.803,-0.1668,-1.4834,-0.3977,-0.4344,37.5938,9.0,-16.2375,,0.01806099999999944,0.8436095068217285,0.5981458907958538,non_fall
9.251311,0.1976,-0.803,-0.1668,-1.4834,-0.3977,-0.4344,36.6938,10.6313,-16.5,,0.01701199999999936,0.8436095068217285,0.7785091163354229,non_fall
9.27507,0.1976,-0.803,-0.1668,-1.9765,0.1433,-0.9733,36.6938,10.6313,-16.5,,0.023759000000000086,0.8436095068217285,1.074059755994021,non_fall
9.277081,0.1976,-0.803,-0.1668,-1.9765,0.1433,-0.9733,36.6938,10.6313,-16.5,,0.0020110000000013173,0.8436095068217285,1.4772068474713393,non_fall
9.294508,-0.3358,-1.6094,1.5549,-1.9765,0.1433,-0.9733,36.6938,10.6313,-16.5,,0.017426999999999637,2.2628840027716843,1.9616082584661225,non_fall
9.313119,-0.3358,-1.6094,1.5549,-1.9765,0.1433,-0.9733,35.8313,12.7875,-16.5938,,0.018610999999999933,2.2628840027716843,2.482435426163246,non_fall
9.335232,-0.3358,-1.6094,1.5549,-0.6334,0.1388,-1.1156,35.8313,12.7875,-16.5938,,0.02211299999999916,2.2628840027716843,2.9806716409409617,non_fall
9.33731,-0.3358,-1.6094,1.5549,-0.6334,0.1388,-1.1156,35.8313,12.7875,-16.5938,,0.0020780000000009125,2.2628840027716843,3.391504680722405,non_fall
9.355878,-2.5547,-0.0532,4.0234,-0.6334,0.1388,-1.1156,35.8313,12.7875,-16.5938,,0.01856800000000014,4.766242743503524,3.6559385872817747,non_fall
9.371238,-2.5547,-0.0532,4.0234,-0.6334,0.1388,-1.1156,34.725,14.9813,-16.5,,0.015359999999999374,4.766242743503524,3.7335109871247085,non_fall
9.396457,-2.5547,-0.0532,4.0234,1.449,0.5246,0.1139,34.725,14.9813,-16.5,,0.02521899999999988,4.766242743503524,3.6127298148097116,non_fall
9.398433,-2.5547,-0.0532,4.0234,1.449,0.5246,0.1139,34.725,14.9813,-16.5,,0.001976000000000866,4.766242743503524,3.315505438466874,non_fall
9.417484,-0.0335,0.9759,-0.956,1.449,0.5246,0.1139,34.725,14.9813,-16.5,,0.019050999999999263,1.366542739909733,2.8932983644611365,non_fall
9.431006,-0.0335,0.9759,-0.956,1.449,0.5246,0.1139,33.6,17.025,-16.8375,,0.013522000000000034,1.366542739909733,2.4156299191472512,non_fall
9.456705,-0.0335,0.9759,-0.956,1.1582,0.4767,-0.2965,33.6,17.025,-16.8375,,0.025698999999999472,1.366542739909733,1.954539405133696,non_fall
9.458903,-0.0335,0.9759,-0.956,1.1582,0.4767,-0.2965,33.6,17.025,-16.8375,,0.0021979999999999222,1.366542739909733,1.569858284766375,non_fall
9.491589,-0.0335,0.9759,-0.956,1.1582,0.4767,-0.2965,32.5875,18.75,-16.9688,,0.03268599999999999,1.366542739909733,1.299230612086815,non_fall
9.496261,-0.8722,0.4026,-0.7851,1.1582,0.4767,-0.2965,32.5875,18.75,-16.9688,,0.00467200000000112,1.240645642397538,1.1545452506206195,non_fall
9.518319,-0.8722,0.4026,-0.7851,0.5232,0.5129,-0.6424,32.5875,18.75,-16.9688,,0.022057999999999467,1.240645642397538,1.1242972762312606,non_fall
9.520245,-0.8722,0.4026,-0.7851,0.5232,0.5129,-0.6424,32.5875,18.75,-16.9688,,0.0019259999999992061,1.240645642397538,1.180154051393846,non_fall
9.551355,-0.8722,0.4026,-0.7851,0.5232,0.5129,-0.6424,31.725,20.175,-17.1188,,0.03110999999999997,1.240645642397538,1.285621117775942,non_fall
9.558563,-1.7892,0.3383,0.2203,0.5232,0.5129,-0.6424,31.725,20.175,-17.1188,,0.007208000000000325,1.8341798221548509,1.4048058071270695,non_fall
9.579238,-1.7892,0.3383,0.2203,0.3627,0.8437,-0.1766,31.725,20.175,-17.1188,,0.020675000000000665,1.8341798221548509,1.5095635836907055,non_fall
9.58176,-1.7892,0.3383,0.2203,0.3627,0.8437,-0.1766,31.725,20.175,-17.1188,,0.002521999999999025,1.8341798221548509,1.583712748907643,non_fall
9.611161,-1.7892,0.3383,0.2203,0.3627,0.8437,-0.1766,31.1438,21.3,-16.8375,,0.02940100000000001,1.8341798221548509,1.623616943748731,non_fall
9.619861,0.3499,0.8708,-0.8438,0.3627,0.8437,-0.1766,31.1438,21.3,-16.8375,,0.00870000000000104,1.2620305424196356,1.6353144954033243,non_fall
9.639709,0.3499,0.8708,-0.8438,0.133,0.5669,0.2732,31.1438,21.3,-16.8375,,0.019847999999999644,1.2620305424196356,1.6293451220663295,non_fall
9.641724,0.3499,0.8708,-0.8438,0.133,0.5669,0.2732,31.1438,21.3,-16.8375,,0.0020150000000001,1.2620305424196356,1.6151294620312462,non_fall
9.671054,0.3499,0.8708,-0.8438,0.133,0.5669,0.2732,30.8438,21.9938,-16.4438,,0.029329999999999856,1.2620305424196356,1.5968637854029146,non_fall
9.701789,0.3499,0.8708,-0.8438,-0.2554,0.1919,-0.07,30.8438,21.9938,-16.4438,,0.030734999999999957,1.2620305424196356,1.5723072295502238,non_fall
9.705345,1.4553,0.4675,-1.154,-0.2554,0.1919,-0.07,30.8438,21.9938,-16.4438,,0.0035559999999996705,1.9152468091606367,1.5347594781093767,non_fall
9.706701,1.4553,0.4675,-1.154,-0.2554,0.1919,-0.07,30.8438,21.9938,-16.4438,,0.001356000000001245,1.9152468091606367,1.4773215618598037,non_fall
9.730557,1.4553,0.4675,-1.154,-0.2554,0.1919,-0.07,30.8438,22.6125,-16.2,,0.023855999999998545,1.9152468091606367,1.3976184056164398,non_fall
9.760831,1.4553,0.4675,-1.154,-0.2621,0.1028,-0.0395,30.8438,22.6125,-16.2,,0.030274000000000356,1.9152468091606367,1.30092392039351,non_fall
9.762648,0.2087,0.6997,-0.135,-0.2621,0.1028,-0.0395,30.8438,22.6125,-16.2,,0.0018170000000008457,0.7425367196307533,1.2002519839647012,non_fall
9.763847,0.2087,0.6997,-0.135,-0.2621,0.1028,-0.0395,30.8438,22.6125,-16.2,,0.001198999999999728,0.7425367196307533,1.1132537846287474,non_fall
9.78997,0.2087,0.6997,-0.135,-0.2621,0.1028,-0.0395,30.7313,22.6313,-16.3313,,0.02612300000000012,0.7425367196307533,1.0571089103761966,non_fall
9.821838,0.2087,0.6997,-0.135,-0.2621,0.1028,-0.0395,30.7313,22.6313,-16.3313,,0.03186799999999934,0.7425367196307533,1.0433439557493271,non_fall
9.823124,0.9496,0.4431,-0.6424,-0.2621,0.1028,-0.0395,30.7313,22.6313,-16.3313,,0.0012860000000003424,1.2291279550966205,1.0743406789891392,non_fall
9.823931,0.9496,0.4431,-0.6424,0.2147,0.3461,0.2803,30.7313,22.6313,-16.3313,,0.0008070000000000022,1.2291279550966205,1.1424507733674258,non_fall
9.850784,0.9496,0.4431,-0.6424,0.2147,0.3461,0.2803,30.9563,22.1063,-16.4813,,0.026853000000000904,1.2291279550966205,1.2316735917389154,non_fall
