
time,ax,ay,az,wx,wy,wz,Bx,By,Bz,
0.035816,0.0000,0.0000,0.0000,0.0000,0.0000,0.0000,0.0000,0.0000,0.0000,
0.061825,0.0000,0.0000,0.0000,0.0000,0.0000,0.0000,0.0000,0.0000,0.0000,
0.062833,-0.0016,-0.1445,0.0452,0.0000,0.0000,0.0000,0.0000,0.0000,0.0000,
0.063650,-0.0016,-0.1445,0.0452,0.0000,0.0000,0.0000,3.7500,0.3000,-42.4500,
0.082011,-0.0016,-0.1445,0.0452,0.0000,0.0000,0.0000,3.7500,0.3000,-42.4500,
0.083327,0.1145,-0.1748,0.0030,0.0000,0.0000,0.0000,3.7500,0.3000,-42.4500,
0.100250,0.1145,-0.1748,0.0030,0.0000,0.0000,0.0000,3.7500,0.3000,-42.4500,
0.102122,0.2509,-0.1242,-0.1197,0.0000,0.0000,0.0000,3.7500,0.3000,-42.4500,
0.105150,0.2509,-0.1242,-0.1197,0.0208,-0.0299,-0.0096,3.7500,0.3000,-42.4500,
0.120359,0.2509,-0.1242,-0.1197,0.0208,-0.0299,-0.0096,3.7500,0.3000,-42.4500,
0.121902,0.2510,0.0169,-0.1372,0.0208,-0.0299,-0.0096,3.7500,0.3000,-42.4500,
0.132278,0.2510,0.0169,-0.1372,0.0208,-0.0299,-0.0096,4.9500,1.2000,-42.1500,
0.140082,0.2510,0.0169,-0.1372,0.0208,-0.0299,-0.0096,4.9500,1.2000,-42.1500,
0.141526,0.2723,0.0891,-0.2424,0.0208,-0.0299,-0.0096,4.9500,1.2000,-42.1500,
0.159967,0.2723,0.0891,-0.2424,0.0208,-0.0299,-0.0096,4.9500,1.2000,-42.1500,
0.161619,0.2298,0.0914,-0.2996,0.0208,-0.0299,-0.0096,4.9500,1.2000,-42.1500,
0.173821,0.2298,0.0914,-0.2996,0.0538,0.0113,-0.0098,4.9500,1.2000,-42.1500,
0.185867,0.2298,0.0914,-0.2996,0.0538,0.0113,-0.0098,4.9500,1.2000,-42.1500,
0.188326,0.0826,0.0067,-0.2665,0.0538,0.0113,-0.0098,4.9500,1.2000,-42.1500,
0.197438,0.0826,0.0067,-0.2665,0.0538,0.0113,-0.0098,4.9500,1.2000,-42.1500,
0.200068,0.0202,-0.0937,-0.2295,0.0538,0.0113,-0.0098,4.9500,1.2000,-42.1500,
0.202541,0.0202,-0.0937,-0.2295,0.0538,0.0113,-0.0098,4.9500,0.6750,-42.4500,
0.216471,0.0202,-0.0937,-0.2295,0.0538,0.0113,-0.0098,4.9500,0.6750,-42.4500,
0.219023,-0.0236,-0.1179,-0.1346,0.0538,0.0113,-0.0098,4.9500,0.6750,-42.4500,
0.236453,-0.0236,-0.1179,-0.1346,0.0538,0.0113,-0.0098,4.9500,0.6750,-42.4500,
0.238624,0.0391,-0.0648,-0.1673,0.0538,0.0113,-0.0098,4.9500,0.6750,-42.4500,
0.241017,0.0391,-0.0648,-0.1673,0.0336,0.0171,-0.0153,4.9500,0.6750,-42.4500,
0.256017,0.0391,-0.0648,-0.1673,0.0336,0.0171,-0.0153,4.9500,0.6750,-42.4500,
0.258953,0.0702,0.0000,-0.1963,0.0336,0.0171,-0.0153,4.9500,0.6750,-42.4500,
0.271399,0.0702,0.0000,-0.1963,0.0336,0.0171,-0.0153,4.9500,0.6750,-42.4500,
0.273378,-0.0361,0.0257,-0.1678,0.0336,0.0171,-0.0153,4.9500,0.6750,-42.4500,
0.275513,-0.0361,0.0257,-0.1678,0.0336,0.0171,-0.0153,4.6500,-0.1500,-42.6000,
0.296841,-0.0361,0.0257,-0.1678,0.0336,0.0171,-0.0153,4.6500,-0.1500,-42.6000,
0.298663,-0.1395,-0.0392,-0.1646,0.0336,0.0171,-0.0153,4.6500,-0.1500,-42.6000,
0.310468,-0.1395,-0.0392,-0.1646,0.0455,0.0087,-0.0299,4.6500,-0.1500,-42.6000,
0.317572,-0.1395,-0.0392,-0.1646,0.0455,0.0087,-0.0299,4.6500,-0.1500,-42.6000,
0.319481,-0.0873,-0.1254,-0.1967,0.0455,0.0087,-0.0299,4.6500,-0.1500,-42.6000,
0.331717,-0.0873,-0.1254,-0.1967,0.0455,0.0087,-0.0299,4.6500,-0.1500,-42.6000,
0.333341,0.1249,-0.1465,-0.0958,0.0455,0.0087,-0.0299,4.6500,-0.1500,-42.6000,
0.342298,0.1249,-0.1465,-0.0958,0.0455,0.0087,-0.0299,4.3500,0.3750,-42.6000,
0.355290,0.1249,-0.1465,-0.0958,0.0455,0.0087,-0.0299,4.3500,0.3750,-42.6000,
0.357074,0.2296,-0.0145,-0.2727,0.0455,0.0087,-0.0299,4.3500,0.3750,-42.6000,
0.374029,0.2296,-0.0145,-0.2727,0.0455,0.0087,-0.0299,4.3500,0.3750,-42.6000,
0.375804,0.0344,0.1417,-0.1892,0.0455,0.0087,-0.0299,4.3500,0.3750,-42.6000,
0.381549,0.0344,0.1417,-0.1892,0.0383,0.0115,-0.0568,4.3500,0.3750,-42.6000,
0.393143,0.0344,0.1417,-0.1892,0.0383,0.0115,-0.0568,4.3500,0.3750,-42.6000,
0.394715,0.0517,0.1677,-0.2395,0.0383,0.0115,-0.0568,4.3500,0.3750,-42.6000,
0.413000,0.0517,0.1677,-0.2395,0.0383,0.0115,-0.0568,4.9500,0.3750,-42.9750,
0.414893,0.0517,0.1677,-0.2395,0.0383,0.0115,-0.0568,4.9500,0.3750,-42.9750,
0.416104,0.1779,0.1439,-0.3018,0.0383,0.0115,-0.0568,4.9500,0.3750,-42.9750,
0.437455,0.1779,0.1439,-0.3018,0.0383,0.0115,-0.0568,4.9500,0.3750,-42.9750,
0.440762,0.0469,-0.0263,-0.0082,0.0383,0.0115,-0.0568,4.9500,0.3750,-42.9750,
0.451967,0.0469,-0.0263,-0.0082,0.0183,-0.0428,-0.0704,4.9500,0.3750,-42.9750,
0.456282,0.0469,-0.0263,-0.0082,0.0183,-0.0428,-0.0704,4.9500,0.3750,-42.9750,
0.458134,-0.1051,-0.0453,-0.0005,0.0183,-0.0428,-0.0704,4.9500,0.3750,-42.9750,
0.475948,-0.1051,-0.0453,-0.0005,0.0183,-0.0428,-0.0704,4.9500,0.3750,-42.9750,
0.478338,-0.1496,0.0016,0.1366,0.0183,-0.0428,-0.0704,4.9500,0.3750,-42.9750,
0.484786,-0.1496,0.0016,0.1366,0.0183,-0.0428,-0.0704,5.1000,0.4500,-42.3000,
0.498559,-0.1496,0.0016,0.1366,0.0183,-0.0428,-0.0704,5.1000,0.4500,-42.3000,
0.501156,-0.2518,0.0437,0.0132,0.0183,-0.0428,-0.0704,5.1000,0.4500,-42.3000,
0.515324,-0.2518,0.0437,0.0132,0.0183,-0.0428,-0.0704,5.1000,0.4500,-42.3000,
0.517873,-0.3950,0.1366,0.0459,0.0183,-0.0428,-0.0704,5.1000,0.4500,-42.3000,
0.520462,-0.3950,0.1366,0.0459,0.0377,-0.0927,-0.0209,5.1000,0.4500,-42.3000,
0.530230,-0.3950,0.1366,0.0459,0.0377,-0.0927,-0.0209,5.1000,0.4500,-42.3000,
0.532448,-0.2906,-0.0126,0.0583,0.0377,-0.0927,-0.0209,5.1000,0.4500,-42.3000,
0.548255,-0.2906,-0.0126,0.0583,0.0377,-0.0927,-0.0209,4.3500,0.3000,-42.0750,
0.554293,-0.2906,-0.0126,0.0583,0.0377,-0.0927,-0.0209,4.3500,0.3000,-42.0750,
0.555898,-0.0249,-0.0387,0.0639,0.0377,-0.0927,-0.0209,4.3500,0.3000,-42.0750,
0.573810,-0.0249,-0.0387,0.0639,0.0377,-0.0927,-0.0209,4.3500,0.3000,-42.0750,
0.576544,-0.1709,0.1418,0.0031,0.0377,-0.0927,-0.0209,4.3500,0.3000,-42.0750,
0.588616,-0.1709,0.1418,0.0031,0.0541,-0.1023,0.0254,4.3500,0.3000,-42.0750,
0.594772,-0.1709,0.1418,0.0031,0.0541,-0.1023,0.0254,4.3500,0.3000,-42.0750,
0.596371,-0.3480,0.2622,0.0389,0.0541,-0.1023,0.0254,4.3500,0.3000,-42.0750,
0.613430,-0.3480,0.2622,0.0389,0.0541,-0.1023,0.0254,4.3500,0.3000,-42.0750,
0.615134,-0.2649,0.1712,-0.0371,0.0541,-0.1023,0.0254,4.3500,0.3000,-42.0750,
0.616710,-0.2649,0.1712,-0.0371,0.0541,-0.1023,0.0254,3.9000,-0.2250,-42.3000,
0.632513,-0.2649,0.1712,-0.0371,0.0541,-0.1023,0.0254,3.9000,-0.2250,-42.3000,
0.634251,-0.1702,0.1350,-0.1519,0.0541,-0.1023,0.0254,3.9000,-0.2250,-42.3000,
0.652312,-0.1702,0.1350,-0.1519,0.0541,-0.1023,0.0254,3.9000,-0.2250,-42.3000,
0.653851,-0.0766,0.1256,-0.1963,0.0541,-0.1023,0.0254,3.9000,-0.2250,-42.3000,
0.656840,-0.0766,0.1256,-0.1963,0.0194,-0.0200,0.0548,3.9000,-0.2250,-42.3000,
0.672897,-0.0766,0.1256,-0.1963,0.0194,-0.0200,0.0548,3.9000,-0.2250,-42.3000,
0.676878,-0.1576,0.1192,-0.2289,0.0194,-0.0200,0.0548,3.9000,-0.2250,-42.3000,
0.686754,-0.1576,0.1192,-0.2289,0.0194,-0.0200,0.0548,4.0500,-0.7500,-42.4500,
0.697042,-0.1576,0.1192,-0.2289,0.0194,-0.0200,0.0548,4.0500,-0.7500,-42.4500,
0.700918,-0.3233,0.1460,-0.2299,0.0194,-0.0200,0.0548,4.0500,-0.7500,-42.4500,
0.715912,-0.3233,0.1460,-0.2299,0.0194,-0.0200,0.0548,4.0500,-0.7500,-42.4500,
0.718880,-0.4248,0.1839,-0.2450,0.0194,-0.0200,0.0548,4.0500,-0.7500,-42.4500,
0.730386,-0.4248,0.1839,-0.2450,-0.0260,0.0252,0.0370,4.0500,-0.7500,-42.4500,
0.733500,-0.4248,0.1839,-0.2450,-0.0260,0.0252,0.0370,4.0500,-0.7500,-42.4500,
0.735765,-0.4028,0.1447,-0.2025,-0.0260,0.0252,0.0370,4.0500,-0.7500,-42.4500,
0.755280,-0.4028,0.1447,-0.2025,-0.0260,0.0252,0.0370,4.0500,-0.7500,-42.4500,
0.758124,-0.2796,0.0862,-0.2599,-0.0260,0.0252,0.0370,4.0500,-0.7500,-42.4500,
0.760424,-0.2796,0.0862,-0.2599,-0.0260,0.0252,0.0370,3.9000,-0.6000,-41.7750,
0.774485,-0.2796,0.0862,-0.2599,-0.0260,0.0252,0.0370,3.9000,-0.6000,-41.7750,
0.777130,-0.1545,0.1149,-0.2127,-0.0260,0.0252,0.0370,3.9000,-0.6000,-41.7750,
0.794066,-0.1545,0.1149,-0.2127,-0.0260,0.0252,0.0370,3.9000,-0.6000,-41.7750,
0.796729,-0.0941,0.1131,-0.1885,-0.0260,0.0252,0.0370,3.9000,-0.6000,-41.7750,
0.798512,-0.0941,0.1131,-0.1885,-0.0727,0.1165,-0.0063,3.9000,-0.6000,-41.7750,
0.816302,-0.0941,0.1131,-0.1885,-0.0727,0.1165,-0.0063,3.9000,-0.6000,-41.7750,
0.819116,-0.0575,0.0864,-0.2738,-0.0727,0.1165,-0.0063,3.9000,-0.6000,-41.7750,
0.823966,-0.0575,0.0864,-0.2738,-0.0727,0.1165,-0.0063,3.9000,0.3000,-42.7500,
0.830508,-0.0575,0.0864,-0.2738,-0.0727,0.1165,-0.0063,3.9000,0.3000,-42.7500,
0.832428,0.0224,0.0610,-0.3819,-0.0727,0.1165,-0.0063,3.9000,0.3000,-42.7500,
0.852961,0.0224,0.0610,-0.3819,-0.0727,0.1165,-0.0063,3.9000,0.3000,-42.7500,
0.855361,0.0360,0.0314,-0.3624,-0.0727,0.1165,-0.0063,3.9000,0.3000,-42.7500,
0.867529,0.0360,0.0314,-0.3624,-0.0872,0.2868,-0.0641,3.9000,0.3000,-42.7500,
0.872512,0.0360,0.0314,-0.3624,-0.0872,0.2868,-0.0641,3.9000,0.3000,-42.7500,
0.874991,0.0180,-0.0102,-0.3892,-0.0872,0.2868,-0.0641,3.9000,0.3000,-42.7500,
0.891559,0.0180,-0.0102,-0.3892,-0.0872,0.2868,-0.0641,3.9000,0.3000,-42.7500,
0.894365,-0.0339,-0.0093,-0.4405,-0.0872,0.2868,-0.0641,3.9000,0.3000,-42.7500,
0.897096,-0.0339,-0.0093,-0.4405,-0.0872,0.2868,-0.0641,4.6500,0.6750,-42.6000,
0.912563,-0.0339,-0.0093,-0.4405,-0.0872,0.2868,-0.0641,4.6500,0.6750,-42.6000,
0.914559,-0.1715,-0.0088,-0.4347,-0.0872,0.2868,-0.0641,4.6500,0.6750,-42.6000,
0.932009,-0.1715,-0.0088,-0.4347,-0.0872,0.2868,-0.0641,4.6500,0.6750,-42.6000,
0.933877,-0.2311,0.0382,-0.3989,-0.0872,0.2868,-0.0641,4.6500,0.6750,-42.6000,
0.937168,-0.2311,0.0382,-0.3989,-0.0953,0.4134,-0.1167,4.6500,0.6750,-42.6000,
0.955887,-0.2311,0.0382,-0.3989,-0.0953,0.4134,-0.1167,4.6500,0.6750,-42.6000,
0.957563,-0.2967,0.0861,-0.3907,-0.0953,0.4134,-0.1167,4.6500,0.6750,-42.6000,
0.966466,-0.2967,0.0861,-0.3907,-0.0953,0.4134,-0.1167,4.8000,0.3000,-41.8500,
0.976059,-0.2967,0.0861,-0.3907,-0.0953,0.4134,-0.1167,4.8000,0.3000,-41.8500,
0.977502,-0.3178,-0.0123,-0.3012,-0.0953,0.4134,-0.1167,4.8000,0.3000,-41.8500,
0.996079,-0.3178,-0.0123,-0.3012,-0.0953,0.4134,-0.1167,4.8000,0.3000,-41.8500,
1.002624,-0.4029,-0.2405,-0.1843,-0.0953,0.4134,-0.1167,4.8000,0.3000,-41.8500,
1.011944,-0.4029,-0.2405,-0.1843,-0.0634,0.4029,-0.0886,4.8000,0.3000,-41.8500,
1.015132,-0.4029,-0.2405,-0.1843,-0.0634,0.4029,-0.0886,4.8000,0.3000,-41.8500,
1.017148,-0.5030,-0.3643,-0.0396,-0.0634,0.4029,-0.0886,4.8000,0.3000,-41.8500,
1.033315,-0.5030,-0.3643,-0.0396,-0.0634,0.4029,-0.0886,4.8000,0.3000,-41.8500,
1.036168,-0.5632,-0.2711,-0.0485,-0.0634,0.4029,-0.0886,4.8000,0.3000,-41.8500,
1.037988,-0.5632,-0.2711,-0.0485,-0.0634,0.4029,-0.0886,7.1250,0.7500,-41.5500,
1.053709,-0.5632,-0.2711,-0.0485,-0.0634,0.4029,-0.0886,7.1250,0.7500,-41.5500,
1.056378,-0.5104,-0.0018,-0.4037,-0.0634,0.4029,-0.0886,7.1250,0.7500,-41.5500,
1.072627,-0.5104,-0.0018,-0.4037,-0.0634,0.4029,-0.0886,7.1250,0.7500,-41.5500,
1.074843,-0.5015,0.2156,-0.4157,-0.0634,0.4029,-0.0886,7.1250,0.7500,-41.5500,
1.082440,-0.5015,0.2156,-0.4157,0.0556,0.2646,0.0383,7.1250,0.7500,-41.5500,
1.092466,-0.5015,0.2156,-0.4157,0.0556,0.2646,0.0383,7.1250,0.7500,-41.5500,
1.094420,-0.3037,0.2924,-0.3627,0.0556,0.2646,0.0383,7.1250,0.7500,-41.5500,
1.102431,-0.3037,0.2924,-0.3627,0.0556,0.2646,0.0383,8.5500,0.0000,-42.1500,
1.111961,-0.3037,0.2924,-0.3627,0.0556,0.2646,0.0383,8.5500,0.0000,-42.1500,
1.113956,-0.2107,0.3715,-0.4008,0.0556,0.2646,0.0383,8.5500,0.0000,-42.1500,
1.131736,-0.2107,0.3715,-0.4008,0.0556,0.2646,0.0383,8.5500,0.0000,-42.1500,
1.135173,-0.2343,0.3958,-0.3344,0.0556,0.2646,0.0383,8.5500,0.0000,-42.1500,
1.146286,-0.2343,0.3958,-0.3344,0.0600,0.2619,0.1665,8.5500,0.0000,-42.1500,
1.150975,-0.2343,0.3958,-0.3344,0.0600,0.2619,0.1665,8.5500,0.0000,-42.1500,
1.152380,-0.2159,0.3224,-0.3125,0.0600,0.2619,0.1665,8.5500,0.0000,-42.1500,
1.170828,-0.2159,0.3224,-0.3125,0.0600,0.2619,0.1665,8.5500,0.0000,-42.1500,
1.172957,-0.1505,0.2202,-0.2973,0.0600,0.2619,0.1665,8.5500,0.0000,-42.1500,
1.174759,-0.1505,0.2202,-0.2973,0.0600,0.2619,0.1665,9.6000,-0.4500,-41.5500,
1.190592,-0.1505,0.2202,-0.2973,0.0600,0.2619,0.1665,9.6000,-0.4500,-41.5500,
1.192793,-0.2658,0.0527,-0.1504,0.0600,0.2619,0.1665,9.6000,-0.4500,-41.5500,
1.212873,-0.2658,0.0527,-0.1504,0.0600,0.2619,0.1665,9.6000,-0.4500,-41.5500,
1.215612,-0.4725,0.0497,0.0527,0.0600,0.2619,0.1665,9.6000,-0.4500,-41.5500,
1.217084,-0.4725,0.0497,0.0527,0.1238,0.2405,0.2188,9.6000,-0.4500,-41.5500,
1.232120,-0.4725,0.0497,0.0527,0.1238,0.2405,0.2188,9.6000,-0.4500,-41.5500,
1.234105,-0.5887,0.2184,0.0048,0.1238,0.2405,0.2188,9.6000,-0.4500,-41.5500,
1.241215,-0.5887,0.2184,0.0048,0.1238,0.2405,0.2188,10.0500,-0.1500,-40.9500,
1.248439,-0.5887,0.2184,0.0048,0.1238,0.2405,0.2188,10.0500,-0.1500,-40.9500,
1.250309,-0.7072,0.3585,-0.0711,0.1238,0.2405,0.2188,10.0500,-0.1500,-40.9500,
1.268316,-0.7072,0.3585,-0.0711,0.1238,0.2405,0.2188,10.0500,-0.1500,-40.9500,
1.270669,-0.7228,0.4190,-0.2942,0.1238,0.2405,0.2188,10.0500,-0.1500,-40.9500,
1.282805,-0.7228,0.4190,-0.2942,0.2283,0.1176,0.2572,10.0500,-0.1500,-40.9500,
1.287748,-0.7228,0.4190,-0.2942,0.2283,0.1176,0.2572,10.0500,-0.1500,-40.9500,
1.289320,-0.5426,0.4030,0.0410,0.2283,0.1176,0.2572,10.0500,-0.1500,-40.9500,
1.308094,-0.5426,0.4030,0.0410,0.2283,0.1176,0.2572,10.0500,-0.1500,-40.9500,
1.310497,-0.1156,0.2986,0.1797,0.2283,0.1176,0.2572,10.0500,-0.1500,-40.9500,
1.312161,-0.1156,0.2986,0.1797,0.2283,0.1176,0.2572,10.3500,-1.5000,-40.9500,
1.330693,-0.1156,0.2986,0.1797,0.2283,0.1176,0.2572,10.3500,-1.5000,-40.9500,
1.332858,-0.0648,0.4478,0.2066,0.2283,0.1176,0.2572,10.3500,-1.5000,-40.9500,
1.351612,-0.0648,0.4478,0.2066,0.2283,0.1176,0.2572,10.3500,-1.5000,-40.9500,
1.353709,-0.1705,0.7516,0.0212,0.2283,0.1176,0.2572,10.3500,-1.5000,-40.9500,
1.356151,-0.1705,0.7516,0.0212,0.3341,0.1607,0.2117,10.3500,-1.5000,-40.9500,
1.371007,-0.1705,0.7516,0.0212,0.3341,0.1607,0.2117,10.3500,-1.5000,-40.9500,
1.372861,-0.3733,1.0156,0.0167,0.3341,0.1607,0.2117,10.3500,-1.5000,-40.9500,
1.381350,-0.3733,1.0156,0.0167,0.3341,0.1607,0.2117,11.1000,-2.4000,-40.9500,
1.390782,-0.3733,1.0156,0.0167,0.3341,0.1607,0.2117,11.1000,-2.4000,-40.9500,
1.392493,-0.4571,1.1284,-0.0123,0.3341,0.1607,0.2117,11.1000,-2.4000,-40.9500,
1.411578,-0.4571,1.1284,-0.0123,0.3341,0.1607,0.2117,11.1000,-2.4000,-40.9500,
1.414716,-0.5495,1.0309,0.0854,0.3341,0.1607,0.2117,11.1000,-2.4000,-40.9500,
1.424278,-0.5495,1.0309,0.0854,0.4197,0.1506,0.1312,11.1000,-2.4000,-40.9500,
1.432363,-0.5495,1.0309,0.0854,0.4197,0.1506,0.1312,11.1000,-2.4000,-40.9500,
1.434155,-0.9412,0.7920,0.2064,0.4197,0.1506,0.1312,11.1000,-2.4000,-40.9500,
1.449320,-0.9412,0.7920,0.2064,0.4197,0.1506,0.1312,11.1000,-2.4000,-40.9500,
1.451752,-1.4283,0.4731,0.7317,0.4197,0.1506,0.1312,11.1000,-2.4000,-40.9500,
1.453151,-1.4283,0.4731,0.7317,0.4197,0.1506,0.1312,11.5500,-4.2000,-40.9500,
1.469099,-1.4283,0.4731,0.7317,0.4197,0.1506,0.1312,11.5500,-4.2000,-40.9500,
1.471913,-2.0682,0.1389,1.3901,0.4197,0.1506,0.1312,11.5500,-4.2000,-40.9500,
1.488272,-2.0682,0.1389,1.3901,0.4197,0.1506,0.1312,11.5500,-4.2000,-40.9500,
1.490892,-2.0130,0.5308,0.3903,0.4197,0.1506,0.1312,11.5500,-4.2000,-40.9500,
1.493063,-2.0130,0.5308,0.3903,0.6043,0.0234,0.1857,11.5500,-4.2000,-40.9500,
1.503059,-2.0130,0.5308,0.3903,0.6043,0.0234,0.1857,11.5500,-4.2000,-40.9500,
1.505188,-1.0832,1.9287,-1.2267,0.6043,0.0234,0.1857,11.5500,-4.2000,-40.9500,
1.520947,-1.0832,1.9287,-1.2267,0.6043,0.0234,0.1857,12.0000,-5.6250,-40.0500,
1.524091,-1.0832,1.9287,-1.2267,0.6043,0.0234,0.1857,12.0000,-5.6250,-40.0500,
1.525368,-0.0642,3.5638,-2.3378,0.6043,0.0234,0.1857,12.0000,-5.6250,-40.0500,
1.547384,-0.0642,3.5638,-2.3378,0.6043,0.0234,0.1857,12.0000,-5.6250,-40.0500,
1.551332,0.2577,4.4775,-2.4354,0.6043,0.0234,0.1857,12.0000,-5.6250,-40.0500,
1.565235,0.2577,4.4775,-2.4354,0.4003,0.2231,0.2172,12.0000,-5.6250,-40.0500,
1.568633,0.2577,4.4775,-2.4354,0.4003,0.2231,0.2172,12.0000,-5.6250,-40.0500,
1.570286,0.5165,4.4987,-2.3293,0.4003,0.2231,0.2172,12.0000,-5.6250,-40.0500,
1.590591,0.5165,4.4987,-2.3293,0.4003,0.2231,0.2172,12.0000,-5.6250,-40.0500,
1.592667,0.5095,3.7185,-1.6185,0.4003,0.2231,0.2172,12.0000,-5.6250,-40.0500,
1.594341,0.5095,3.7185,-1.6185,0.4003,0.2231,0.2172,12.7500,-7.4250,-39.0000,
1.611488,0.5095,3.7185,-1.6185,0.4003,0.2231,0.2172,12.7500,-7.4250,-39.0000,
1.613182,-0.0836,2.9096,-1.5195,0.4003,0.2231,0.2172,12.7500,-7.4250,-39.0000,
1.634704,-0.0836,2.9096,-1.5195,0.4003,0.2231,0.2172,12.7500,-7.4250,-39.0000,
1.636584,-1.0054,2.6448,-1.4138,0.4003,0.2231,0.2172,12.7500,-7.4250,-39.0000,
1.638247,-1.0054,2.6448,-1.4138,0.2300,0.4387,-0.0269,12.7500,-7.4250,-39.0000,
1.649548,-1.0054,2.6448,-1.4138,0.2300,0.4387,-0.0269,12.7500,-7.4250,-39.0000,
1.652201,-1.8961,2.8105,-1.5471,0.2300,0.4387,-0.0269,12.7500,-7.4250,-39.0000,
1.665307,-1.8961,2.8105,-1.5471,0.2300,0.4387,-0.0269,13.5000,-8.5500,-38.1750,
1.669067,-1.8961,2.8105,-1.5471,0.2300,0.4387,-0.0269,13.5000,-8.5500,-38.1750,
1.670546,-2.8615,2.9440,-1.4111,0.2300,0.4387,-0.0269,13.5000,-8.5500,-38.1750,
1.688545,-2.8615,2.9440,-1.4111,0.2300,0.4387,-0.0269,13.5000,-8.5500,-38.1750,
1.690995,-3.6890,2.8158,-1.0900,0.2300,0.4387,-0.0269,13.5000,-8.5500,-38.1750,
1.703103,-3.6890,2.8158,-1.0900,0.3380,0.3946,-0.0356,13.5000,-8.5500,-38.1750,
1.707979,-3.6890,2.8158,-1.0900,0.3380,0.3946,-0.0356,13.5000,-8.5500,-38.1750,
1.709434,-3.7032,3.1358,-1.5150,0.3380,0.3946,-0.0356,13.5000,-8.5500,-38.1750,
1.728127,-3.7032,3.1358,-1.5150,0.3380,0.3946,-0.0356,13.5000,-8.5500,-38.1750,
1.730250,-3.2912,4.3124,-3.0601,0.3380,0.3946,-0.0356,13.5000,-8.5500,-38.1750,
1.732067,-3.2912,4.3124,-3.0601,0.3380,0.3946,-0.0356,14.9250,-9.8250,-37.5000,
1.747783,-3.2912,4.3124,-3.0601,0.3380,0.3946,-0.0356,14.9250,-9.8250,-37.5000,
1.749642,-1.6281,6.1117,-2.6185,0.3380,0.3946,-0.0356,14.9250,-9.8250,-37.5000,
1.767385,-1.6281,6.1117,-2.6185,0.3380,0.3946,-0.0356,14.9250,-9.8250,-37.5000,
1.769451,-0.9641,7.8608,-2.2771,0.3380,0.3946,-0.0356,14.9250,-9.8250,-37.5000,
1.772153,-0.9641,7.8608,-2.2771,0.1619,-0.4178,-0.2566,14.9250,-9.8250,-37.5000,
1.786903,-0.9641,7.8608,-2.2771,0.1619,-0.4178,-0.2566,14.9250,-9.8250,-37.5000,
1.788991,-1.4236,9.4829,-2.8001,0.1619,-0.4178,-0.2566,14.9250,-9.8250,-37.5000,
1.801897,-1.4236,9.4829,-2.8001,0.1619,-0.4178,-0.2566,15.4500,-10.9500,-36.9750,
1.805118,-1.4236,9.4829,-2.8001,0.1619,-0.4178,-0.2566,15.4500,-10.9500,-36.9750,
1.806944,-1.1900,10.1658,-4.2331,0.1619,-0.4178,-0.2566,15.4500,-10.9500,-36.9750,
1.825401,-1.1900,10.1658,-4.2331,0.1619,-0.4178,-0.2566,15.4500,-10.9500,-36.9750,
1.827755,0.3944,9.1323,-3.8346,0.1619,-0.4178,-0.2566,15.4500,-10.9500,-36.9750,
1.840342,0.3944,9.1323,-3.8346,-0.8703,-0.8895,-1.1394,15.4500,-10.9500,-36.9750,
1.849051,0.3944,9.1323,-3.8346,-0.8703,-0.8895,-1.1394,15.4500,-10.9500,-36.9750,
1.851090,-0.4686,2.9489,-3.0284,-0.8703,-0.8895,-1.1394,15.4500,-10.9500,-36.9750,
1.865500,-0.4686,2.9489,-3.0284,-0.8703,-0.8895,-1.1394,15.4500,-10.9500,-36.9750,
1.867708,0.3888,-7.1236,-3.1742,-0.8703,-0.8895,-1.1394,15.4500,-10.9500,-36.9750,
1.871287,0.3888,-7.1236,-3.1742,-0.8703,-0.8895,-1.1394,14.5500,-8.2500,-38.5500,
1.880830,0.3888,-7.1236,-3.1742,-0.8703,-0.8895,-1.1394,14.5500,-8.2500,-38.5500,
1.882904,-0.8714,-6.9665,-6.4372,-0.8703,-0.8895,-1.1394,14.5500,-8.2500,-38.5500,
1.904715,-0.8714,-6.9665,-6.4372,-0.8703,-0.8895,-1.1394,14.5500,-8.2500,-38.5500,
1.906627,0.3490,2.6978,-3.6898,-0.8703,-0.8895,-1.1394,14.5500,-8.2500,-38.5500,
1.909493,0.3490,2.6978,-3.6898,-3.1985,-0.3013,-2.0685,14.5500,-8.2500,-38.5500,
1.924584,0.3490,2.6978,-3.6898,-3.1985,-0.3013,-2.0685,14.5500,-8.2500,-38.5500,
1.926235,2.0751,7.4279,-4.5607,-3.1985,-0.3013,-2.0685,14.5500,-8.2500,-38.5500,
1.942325,2.0751,7.4279,-4.5607,-3.1985,-0.3013,-2.0685,14.5500,0.3000,-39.3000,
1.943890,2.0751,7.4279,-4.5607,-3.1985,-0.3013,-2.0685,14.5500,0.3000,-39.3000,
1.945126,4.9508,1.6675,-3.6803,-3.1985,-0.3013,-2.0685,14.5500,0.3000,-39.3000,
1.963892,4.9508,1.6675,-3.6803,-3.1985,-0.3013,-2.0685,14.5500,0.3000,-39.3000,
1.965497,0.3362,-8.7337,-1.0719,-3.1985,-0.3013,-2.0685,14.5500,0.3000,-39.3000,
1.985413,0.3362,-8.7337,-1.0719,-2.3557,-0.0954,-3.3337,14.5500,0.3000,-39.3000,
1.989744,0.3362,-8.7337,-1.0719,-2.3557,-0.0954,-3.3337,14.5500,0.3000,-39.3000,
1.994991,-3.9357,-7.6494,-1.9137,-2.3557,-0.0954,-3.3337,14.5500,0.3000,-39.3000,
2.012053,-3.9357,-7.6494,-1.9137,-2.3557,-0.0954,-3.3337,14.5500,0.3000,-39.3000,
2.015207,-3.3489,-2.8428,-1.5593,-2.3557,-0.0954,-3.3337,14.5500,0.3000,-39.3000,
2.018356,-3.3489,-2.8428,-1.5593,-2.3557,-0.0954,-3.3337,13.9500,9.9000,-38.2500,
2.031386,-3.3489,-2.8428,-1.5593,-2.3557,-0.0954,-3.3337,13.9500,9.9000,-38.2500,
2.033585,-0.3854,-2.9376,-0.7670,-2.3557,-0.0954,-3.3337,13.9500,9.9000,-38.2500,
2.046226,-0.3854,-2.9376,-0.7670,-2.3557,-0.0954,-3.3337,13.9500,9.9000,-38.2500,
2.048635,4.4417,-2.6087,-0.6224,-2.3557,-0.0954,-3.3337,13.9500,9.9000,-38.2500,
2.051031,4.4417,-2.6087,-0.6224,-0.2692,0.5368,-2.3055,13.9500,9.9000,-38.2500,
2.065177,4.4417,-2.6087,-0.6224,-0.2692,0.5368,-2.3055,13.9500,9.9000,-38.2500,
2.067366,8.3449,-4.6739,-3.6364,-0.2692,0.5368,-2.3055,13.9500,9.9000,-38.2500,
2.077522,8.3449,-4.6739,-3.6364,-0.2692,0.5368,-2.3055,11.9250,14.7750,-37.6500,
2.080231,8.3449,-4.6739,-3.6364,-0.2692,0.5368,-2.3055,11.9250,14.7750,-37.6500,
2.081678,15.6739,-11.4624,-8.9564,-0.2692,0.5368,-2.3055,11.9250,14.7750,-37.6500,
2.104322,15.6739,-11.4624,-8.9564,-0.2692,0.5368,-2.3055,11.9250,14.7750,-37.6500,
2.106980,18.1629,-14.7707,-5.3446,-0.2692,0.5368,-2.3055,11.9250,14.7750,-37.6500,
2.120341,18.1629,-14.7707,-5.3446,0.1680,0.2979,-4.3161,11.9250,14.7750,-37.6500,
2.124680,18.1629,-14.7707,-5.3446,0.1680,0.2979,-4.3161,11.9250,14.7750,-37.6500,
2.126022,8.9491,-5.4605,6.2990,0.1680,0.2979,-4.3161,11.9250,14.7750,-37.6500,
2.144855,8.9491,-5.4605,6.2990,0.1680,0.2979,-4.3161,11.9250,14.7750,-37.6500,
2.146320,-0.6905,2.1372,2.6404,0.1680,0.2979,-4.3161,11.9250,14.7750,-37.6500,
2.147718,-0.6905,2.1372,2.6404,0.1680,0.2979,-4.3161,9.9000,15.7500,-36.7500,
2.164088,-0.6905,2.1372,2.6404,0.1680,0.2979,-4.3161,9.9000,15.7500,-36.7500,
2.165480,-4.9230,0.6277,4.2323,0.1680,0.2979,-4.3161,9.9000,15.7500,-36.7500,
2.182488,-4.9230,0.6277,4.2323,0.1680,0.2979,-4.3161,9.9000,15.7500,-36.7500,
2.183869,-3.5712,-2.4976,3.5320,0.1680,0.2979,-4.3161,9.9000,15.7500,-36.7500,
2.187811,-3.5712,-2.4976,3.5320,1.6244,0.2161,-4.3275,9.9000,15.7500,-36.7500,
2.203534,-3.5712,-2.4976,3.5320,1.6244,0.2161,-4.3275,9.9000,15.7500,-36.7500,
2.207285,-6.4805,-5.2311,0.3908,1.6244,0.2161,-4.3275,9.9000,15.7500,-36.7500,
2.218501,-6.4805,-5.2311,0.3908,1.6244,0.2161,-4.3275,5.8500,15.9000,-37.3500,
2.222252,-6.4805,-5.2311,0.3908,1.6244,0.2161,-4.3275,5.8500,15.9000,-37.3500,
2.224294,2.5768,-0.1328,0.9302,1.6244,0.2161,-4.3275,5.8500,15.9000,-37.3500,
2.241237,2.5768,-0.1328,0.9302,1.6244,0.2161,-4.3275,5.8500,15.9000,-37.3500,
2.243622,5.0114,-1.0819,1.6514,1.6244,0.2161,-4.3275,5.8500,15.9000,-37.3500,
2.260765,5.0114,-1.0819,1.6514,3.0022,-0.5078,-1.6673,5.8500,15.9000,-37.3500,
2.265900,5.0114,-1.0819,1.6514,3.0022,-0.5078,-1.6673,5.8500,15.9000,-37.3500,
2.267620,10.9882,0.4826,-4.7773,3.0022,-0.5078,-1.6673,5.8500,15.9000,-37.3500,
2.283998,10.9882,0.4826,-4.7773,3.0022,-0.5078,-1.6673,5.8500,15.9000,-37.3500,
2.286541,12.5145,6.7343,-5.2873,3.0022,-0.5078,-1.6673,5.8500,15.9000,-37.3500,
2.288293,12.5145,6.7343,-5.2873,3.0022,-0.5078,-1.6673,2.5500,8.7000,-39.7500,
2.305086,12.5145,6.7343,-5.2873,3.0022,-0.5078,-1.6673,2.5500,8.7000,-39.7500,
2.307597,18.3746,7.8207,-6.4830,3.0022,-0.5078,-1.6673,2.5500,8.7000,-39.7500,
2.324288,18.3746,7.8207,-6.4830,3.0022,-0.5078,-1.6673,2.5500,8.7000,-39.7500,
2.326661,17.2518,7.8952,-1.9702,3.0022,-0.5078,-1.6673,2.5500,8.7000,-39.7500,
2.334116,17.2518,7.8952,-1.9702,2.0677,0.7402,-1.7383,2.5500,8.7000,-39.7500,
2.348457,17.2518,7.8952,-1.9702,2.0677,0.7402,-1.7383,2.5500,8.7000,-39.7500,
2.350586,-2.0044,6.2070,2.9584,2.0677,0.7402,-1.7383,2.5500,8.7000,-39.7500,
2.354302,-2.0044,6.2070,2.9584,2.0677,0.7402,-1.7383,1.6500,1.0500,-40.6500,
2.364017,-2.0044,6.2070,2.9584,2.0677,0.7402,-1.7383,1.6500,1.0500,-40.6500,
2.365435,-10.6735,3.0177,1.2761,2.0677,0.7402,-1.7383,1.6500,1.0500,-40.6500,
2.380284,-10.6735,3.0177,1.2761,2.0677,0.7402,-1.7383,1.6500,1.0500,-40.6500,
2.382417,-7.3562,3.2436,-1.6771,2.0677,0.7402,-1.7383,1.6500,1.0500,-40.6500,
2.398840,-7.3562,3.2436,-1.6771,0.9807,0.6958,-0.3496,1.6500,1.0500,-40.6500,
2.403293,-7.3562,3.2436,-1.6771,0.9807,0.6958,-0.3496,1.6500,1.0500,-40.6500,
2.405526,-4.6011,4.1870,-1.1570,0.9807,0.6958,-0.3496,1.6500,1.0500,-40.6500,
2.422746,-4.6011,4.1870,-1.1570,0.9807,0.6958,-0.3496,1.6500,1.0500,-40.6500,
2.425801,-2.9275,4.6751,-0.7841,0.9807,0.6958,-0.3496,1.6500,1.0500,-40.6500,
2.428821,-2.9275,4.6751,-0.7841,0.9807,0.6958,-0.3496,3.8250,-2.8500,-40.8750,
2.442118,-2.9275,4.6751,-0.7841,0.9807,0.6958,-0.3496,3.8250,-2.8500,-40.8750,
2.444456,-1.0760,4.0018,-0.3290,0.9807,0.6958,-0.3496,3.8250,-2.8500,-40.8750,
2.461178,-1.0760,4.0018,-0.3290,0.9807,0.6958,-0.3496,3.8250,-2.8500,-40.8750,
2.463822,0.9127,2.4872,0.2032,0.9807,0.6958,-0.3496,3.8250,-2.8500,-40.8750,
2.466341,0.9127,2.4872,0.2032,0.6252,0.6447,0.5166,3.8250,-2.8500,-40.8750,
2.485414,0.9127,2.4872,0.2032,0.6252,0.6447,0.5166,3.8250,-2.8500,-40.8750,
2.487657,3.1375,0.9207,1.3250,0.6252,0.6447,0.5166,3.8250,-2.8500,-40.8750,
2.491868,3.1375,0.9207,1.3250,0.6252,0.6447,0.5166,6.3000,-5.2500,-40.3500,
2.501610,3.1375,0.9207,1.3250,0.6252,0.6447,0.5166,6.3000,-5.2500,-40.3500,
2.504270,3.5276,0.6384,1.9011,0.6252,0.6447,0.5166,6.3000,-5.2500,-40.3500,
2.520999,3.5276,0.6384,1.9011,0.6252,0.6447,0.5166,6.3000,-5.2500,-40.3500,
2.523577,2.9808,1.5534,1.1413,0.6252,0.6447,0.5166,6.3000,-5.2500,-40.3500,
2.534806,2.9808,1.5534,1.1413,0.7045,-0.0174,0.1037,6.3000,-5.2500,-40.3500,
2.539374,2.9808,1.5534,1.1413,0.7045,-0.0174,0.1037,6.3000,-5.2500,-40.3500,
2.540890,1.8882,2.7322,0.0011,0.7045,-0.0174,0.1037,6.3000,-5.2500,-40.3500,
2.560576,1.8882,2.7322,0.0011,0.7045,-0.0174,0.1037,6.3000,-5.2500,-40.3500,
2.562488,-1.0433,3.2740,-0.3968,0.7045,-0.0174,0.1037,6.3000,-5.2500,-40.3500,
2.564496,-1.0433,3.2740,-0.3968,0.7045,-0.0174,0.1037,6.5250,-6.9000,-39.6750,
2.584948,-1.0433,3.2740,-0.3968,0.7045,-0.0174,0.1037,6.5250,-6.9000,-39.6750,
2.588744,-3.6660,3.5668,-0.7172,0.7045,-0.0174,0.1037,6.5250,-6.9000,-39.6750,
2.598362,-3.6660,3.5668,-0.7172,0.7045,-0.0174,0.1037,6.5250,-6.9000,-39.6750,
2.600309,-2.7097,3.5357,-1.4357,0.7045,-0.0174,0.1037,6.5250,-6.9000,-39.6750,
2.603291,-2.7097,3.5357,-1.4357,0.5000,-0.4729,0.2045,6.5250,-6.9000,-39.6750,
2.618376,-2.7097,3.5357,-1.4357,0.5000,-0.4729,0.2045,6.5250,-6.9000,-39.6750,
2.620852,-0.5494,3.1607,-1.5356,0.5000,-0.4729,0.2045,6.5250,-6.9000,-39.6750,
2.630925,-0.5494,3.1607,-1.5356,0.5000,-0.4729,0.2045,5.4000,-8.3250,-39.9750,
2.637559,-0.5494,3.1607,-1.5356,0.5000,-0.4729,0.2045,5.4000,-8.3250,-39.9750,
2.639433,1.2583,2.1474,-1.6344,0.5000,-0.4729,0.2045,5.4000,-8.3250,-39.9750,
2.652671,1.2583,2.1474,-1.6344,0.5000,-0.4729,0.2045,5.4000,-8.3250,-39.9750,
2.654573,1.8302,1.6000,-1.2161,0.5000,-0.4729,0.2045,5.4000,-8.3250,-39.9750,
2.678156,1.8302,1.6000,-1.2161,0.1009,-0.1654,0.3770,5.4000,-8.3250,-39.9750,
2.680649,1.8302,1.6000,-1.2161,0.1009,-0.1654,0.3770,5.4000,-8.3250,-39.9750,
2.682695,1.3145,1.3843,-1.3269,0.1009,-0.1654,0.3770,5.4000,-8.3250,-39.9750,
2.700735,1.3145,1.3843,-1.3269,0.1009,-0.1654,0.3770,5.4000,-8.3250,-39.9750,
2.702425,1.5599,0.7916,-1.0609,0.1009,-0.1654,0.3770,5.4000,-8.3250,-39.9750,
2.703944,1.5599,0.7916,-1.0609,0.1009,-0.1654,0.3770,4.3500,-9.1500,-40.2000,
2.720491,1.5599,0.7916,-1.0609,0.1009,-0.1654,0.3770,4.3500,-9.1500,-40.2000,
2.722444,1.5892,0.3148,-0.8748,0.1009,-0.1654,0.3770,4.3500,-9.1500,-40.2000,
2.740145,1.5892,0.3148,-0.8748,0.1009,-0.1654,0.3770,4.3500,-9.1500,-40.2000,
2.742535,0.9319,-0.0137,-0.7839,0.1009,-0.1654,0.3770,4.3500,-9.1500,-40.2000,
2.745151,0.9319,-0.0137,-0.7839,-0.1177,-0.1721,0.2196,4.3500,-9.1500,-40.2000,
2.761375,0.9319,-0.0137,-0.7839,-0.1177,-0.1721,0.2196,4.3500,-9.1500,-40.2000,
2.764292,0.2109,-0.2751,-1.1250,-0.1177,-0.1721,0.2196,4.3500,-9.1500,-40.2000,
2.771230,0.2109,-0.2751,-1.1250,-0.1177,-0.1721,0.2196,4.3500,-10.0500,-39.4500,
2.781025,0.2109,-0.2751,-1.1250,-0.1177,-0.1721,0.2196,4.3500,-10.0500,-39.4500,
2.782722,-0.1476,-0.3003,-1.2717,-0.1177,-0.1721,0.2196,4.3500,-10.0500,-39.4500,
2.799093,-0.1476,-0.3003,-1.2717,-0.1177,-0.1721,0.2196,4.3500,-10.0500,-39.4500,
2.801402,-0.2694,-0.3134,-0.7747,-0.1177,-0.1721,0.2196,4.3500,-10.0500,-39.4500,
2.814541,-0.2694,-0.3134,-0.7747,-0.1055,-0.3004,0.1793,4.3500,-10.0500,-39.4500,
2.819098,-0.2694,-0.3134,-0.7747,-0.1055,-0.3004,0.1793,4.3500,-10.0500,-39.4500,
2.821651,-0.4844,-0.6019,-0.1471,-0.1055,-0.3004,0.1793,4.3500,-10.0500,-39.4500,
2.838207,-0.4844,-0.6019,-0.1471,-0.1055,-0.3004,0.1793,4.3500,-10.0500,-39.4500,
2.840106,-0.4435,-0.8209,-0.9420,-0.1055,-0.3004,0.1793,4.3500,-10.0500,-39.4500,
2.841808,-0.4435,-0.8209,-0.9420,-0.1055,-0.3004,0.1793,3.1500,-8.7000,-39.6000,
2.857804,-0.4435,-0.8209,-0.9420,-0.1055,-0.3004,0.1793,3.1500,-8.7000,-39.6000,
2.860388,0.1917,-0.2864,-1.5027,-0.1055,-0.3004,0.1793,3.1500,-8.7000,-39.6000,
2.877886,0.1917,-0.2864,-1.5027,-0.1055,-0.3004,0.1793,3.1500,-8.7000,-39.6000,
2.879914,1.3559,0.5655,-0.1356,-0.1055,-0.3004,0.1793,3.1500,-8.7000,-39.6000,
2.881522,1.3559,0.5655,-0.1356,-0.0790,-0.3549,0.1269,3.1500,-8.7000,-39.6000,
2.897050,1.3559,0.5655,-0.1356,-0.0790,-0.3549,0.1269,3.1500,-8.7000,-39.6000,
2.898749,1.2447,0.6099,0.6132,-0.0790,-0.3549,0.1269,3.1500,-8.7000,-39.6000,
2.916187,1.2447,0.6099,0.6132,-0.0790,-0.3549,0.1269,2.0250,-9.1500,-39.9000,
2.918997,1.2447,0.6099,0.6132,-0.0790,-0.3549,0.1269,2.0250,-9.1500,-39.9000,
2.920299,0.5484,0.0553,-0.7197,-0.0790,-0.3549,0.1269,2.0250,-9.1500,-39.9000,
2.940607,0.5484,0.0553,-0.7197,-0.0790,-0.3549,0.1269,2.0250,-9.1500,-39.9000,
2.942862,0.6790,0.1312,-1.8346,-0.0790,-0.3549,0.1269,2.0250,-9.1500,-39.9000,
2.955195,0.6790,0.1312,-1.8346,-0.4661,-0.0040,0.1284,2.0250,-9.1500,-39.9000,
2.961719,0.6790,0.1312,-1.8346,-0.4661,-0.0040,0.1284,2.0250,-9.1500,-39.9000,
2.964184,1.0542,0.3312,-1.1709,-0.4661,-0.0040,0.1284,2.0250,-9.1500,-39.9000,
2.982547,1.0542,0.3312,-1.1709,-0.4661,-0.0040,0.1284,2.0250,-9.1500,-39.9000,
2.984341,0.7397,-0.0509,-1.0722,-0.4661,-0.0040,0.1284,2.0250,-9.1500,-39.9000,
2.986092,0.7397,-0.0509,-1.0722,-0.4661,-0.0040,0.1284,2.0250,-8.5500,-40.0500,
2.999237,0.7397,-0.0509,-1.0722,-0.4661,-0.0040,0.1284,2.0250,-8.5500,-40.0500,
3.001148,0.0940,-0.3590,-1.3317,-0.4661,-0.0040,0.1284,2.0250,-8.5500,-40.0500,
3.019134,0.0940,-0.3590,-1.3317,-0.4661,-0.0040,0.1284,2.0250,-8.5500,-40.0500,
3.021195,0.2524,-0.2091,-0.9723,-0.4661,-0.0040,0.1284,2.0250,-8.5500,-40.0500,
3.023323,0.2524,-0.2091,-0.9723,-0.7365,0.1199,0.2213,2.0250,-8.5500,-40.0500,
3.038491,0.2524,-0.2091,-0.9723,-0.7365,0.1199,0.2213,2.0250,-8.5500,-40.0500,
3.040525,0.6646,0.3385,-0.7919,-0.7365,0.1199,0.2213,2.0250,-8.5500,-40.0500,
3.051810,0.6646,0.3385,-0.7919,-0.7365,0.1199,0.2213,1.9500,-6.2250,-41.1750,
3.058566,0.6646,0.3385,-0.7919,-0.7365,0.1199,0.2213,1.9500,-6.2250,-41.1750,
3.060597,1.4452,0.8790,-0.8966,-0.7365,0.1199,0.2213,1.9500,-6.2250,-41.1750,
3.080030,1.4452,0.8790,-0.8966,-0.7365,0.1199,0.2213,1.9500,-6.2250,-41.1750,
3.085419,1.8247,1.3591,-1.6084,-0.7365,0.1199,0.2213,1.9500,-6.2250,-41.1750,
3.093709,1.8247,1.3591,-1.6084,-0.7365,0.1199,0.2213,1.9500,-6.2250,-41.1750,
3.094616,2.6948,1.9318,-0.0689,-0.7365,0.1199,0.2213,1.9500,-6.2250,-41.1750,
3.096264,2.6948,1.9318,-0.0689,-0.9367,0.5160,0.2280,1.9500,-6.2250,-41.1750,
3.112445,2.6948,1.9318,-0.0689,-0.9367,0.5160,0.2280,1.9500,-6.2250,-41.1750,
3.113523,3.2210,0.8404,1.0696,-0.9367,0.5160,0.2280,1.9500,-6.2250,-41.1750,
3.122368,3.2210,0.8404,1.0696,-0.9367,0.5160,0.2280,3.1500,-3.9000,-40.8750,
3.136923,3.2210,0.8404,1.0696,-0.9367,0.5160,0.2280,3.1500,-3.9000,-40.8750,
3.138049,1.8937,-0.9194,-0.2786,-0.9367,0.5160,0.2280,3.1500,-3.9000,-40.8750,
3.157328,1.8937,-0.9194,-0.2786,-0.9367,0.5160,0.2280,3.1500,-3.9000,-40.8750,
3.159122,0.5904,-0.3422,-0.3688,-0.9367,0.5160,0.2280,3.1500,-3.9000,-40.8750,
3.160726,0.5904,-0.3422,-0.3688,-1.1091,1.3692,0.3992,3.1500,-3.9000,-40.8750,
3.176725,0.5904,-0.3422,-0.3688,-1.1091,1.3692,0.3992,3.1500,-3.9000,-40.8750,
3.178482,1.6368,0.8444,-0.1269,-1.1091,1.3692,0.3992,3.1500,-3.9000,-40.8750,
3.192669,1.6368,0.8444,-0.1269,-1.1091,1.3692,0.3992,3.1500,-3.9000,-40.8750,
3.194328,2.0882,0.3035,0.2199,-1.1091,1.3692,0.3992,3.1500,-3.9000,-40.8750,
3.195563,2.0882,0.3035,0.2199,-1.1091,1.3692,0.3992,5.8500,-0.3000,-40.6500,
3.214490,2.0882,0.3035,0.2199,-1.1091,1.3692,0.3992,5.8500,-0.3000,-40.6500,
3.216743,1.3030,-0.3543,-0.4017,-1.1091,1.3692,0.3992,5.8500,-0.3000,-40.6500,
3.233081,1.3030,-0.3543,-0.4017,-1.2883,1.8116,0.2700,5.8500,-0.3000,-40.6500,
3.235699,1.3030,-0.3543,-0.4017,-1.2883,1.8116,0.2700,5.8500,-0.3000,-40.6500,
3.237236,0.6170,0.0370,-0.8817,-1.2883,1.8116,0.2700,5.8500,-0.3000,-40.6500,
3.249122,0.6170,0.0370,-0.8817,-1.2883,1.8116,0.2700,5.8500,-0.3000,-40.6500,
3.252039,0.1622,0.5554,-1.1086,-1.2883,1.8116,0.2700,5.8500,-0.3000,-40.6500,
3.264502,0.1622,0.5554,-1.1086,-1.2883,1.8116,0.2700,10.1250,3.3750,-39.3000,
3.268393,0.1622,0.5554,-1.1086,-1.2883,1.8116,0.2700,10.1250,3.3750,-39.3000,
3.269769,-0.2613,0.6479,-0.1643,-1.2883,1.8116,0.2700,10.1250,3.3750,-39.3000,
3.294624,-0.2613,0.6479,-0.1643,-1.2883,1.8116,0.2700,10.1250,3.3750,-39.3000,
3.297408,-0.3803,0.2586,-0.2857,-1.2883,1.8116,0.2700,10.1250,3.3750,-39.3000,
3.299706,-0.3803,0.2586,-0.2857,-1.3214,1.4854,0.2761,10.1250,3.3750,-39.3000,
3.315309,-0.3803,0.2586,-0.2857,-1.3214,1.4854,0.2761,10.1250,3.3750,-39.3000,
3.316596,-0.7023,0.2774,-0.6108,-1.3214,1.4854,0.2761,10.1250,3.3750,-39.3000,
3.332858,-0.7023,0.2774,-0.6108,-1.3214,1.4854,0.2761,10.1250,3.3750,-39.3000,
3.334760,-0.4492,0.6422,-0.5721,-1.3214,1.4854,0.2761,10.1250,3.3750,-39.3000,
3.336324,-0.4492,0.6422,-0.5721,-1.3214,1.4854,0.2761,14.6250,6.7500,-36.6750,
3.357594,-0.4492,0.6422,-0.5721,-1.3214,1.4854,0.2761,14.6250,6.7500,-36.6750,
3.359318,-0.2053,0.4567,0.5387,-1.3214,1.4854,0.2761,14.6250,6.7500,-36.6750,
3.371621,-0.2053,0.4567,0.5387,-1.1559,0.7332,0.3126,14.6250,6.7500,-36.6750,
3.379722,-0.2053,0.4567,0.5387,-1.1559,0.7332,0.3126,14.6250,6.7500,-36.6750,
3.382742,0.2210,-0.2563,0.4591,-1.1559,0.7332,0.3126,14.6250,6.7500,-36.6750,
3.399522,0.2210,-0.2563,0.4591,-1.1559,0.7332,0.3126,14.6250,6.7500,-36.6750,
3.401413,0.7970,-0.0978,-0.1713,-1.1559,0.7332,0.3126,14.6250,6.7500,-36.6750,
3.403288,0.7970,-0.0978,-0.1713,-1.1559,0.7332,0.3126,17.5500,9.4500,-34.3500,
3.415418,0.7970,-0.0978,-0.1713,-1.1559,0.7332,0.3126,17.5500,9.4500,-34.3500,
3.418316,0.9305,0.7082,0.0739,-1.1559,0.7332,0.3126,17.5500,9.4500,-34.3500,
3.431939,0.9305,0.7082,0.0739,-1.1559,0.7332,0.3126,17.5500,9.4500,-34.3500,
3.433670,-0.4313,0.8416,0.0920,-1.1559,0.7332,0.3126,17.5500,9.4500,-34.3500,
3.439285,-0.4313,0.8416,0.0920,-0.9390,0.5362,0.3256,17.5500,9.4500,-34.3500,
3.454878,-0.4313,0.8416,0.0920,-0.9390,0.5362,0.3256,17.5500,9.4500,-34.3500,
3.457168,-0.7331,0.0931,0.2748,-0.9390,0.5362,0.3256,17.5500,9.4500,-34.3500,
3.464401,-0.7331,0.0931,0.2748,-0.9390,0.5362,0.3256,19.5000,11.2500,-34.3500,
3.474076,-0.7331,0.0931,0.2748,-0.9390,0.5362,0.3256,19.5000,11.2500,-34.3500,
3.475875,0.0512,0.7389,0.0303,-0.9390,0.5362,0.3256,19.5000,11.2500,-34.3500,
3.494511,0.0512,0.7389,0.0303,-0.9390,0.5362,0.3256,19.5000,11.2500,-34.3500,
3.497248,1.2511,1.4738,0.2895,-0.9390,0.5362,0.3256,19.5000,11.2500,-34.3500,
3.507734,1.2511,1.4738,0.2895,-0.8381,0.3024,0.5879,19.5000,11.2500,-34.3500,
3.515625,1.2511,1.4738,0.2895,-0.8381,0.3024,0.5879,19.5000,11.2500,-34.3500,
3.518380,1.7830,0.6740,-0.0740,-0.8381,0.3024,0.5879,19.5000,11.2500,-34.3500,
3.530666,1.7830,0.6740,-0.0740,-0.8381,0.3024,0.5879,19.5000,11.2500,-34.3500,
3.532580,0.1475,0.4755,0.3678,-0.8381,0.3024,0.5879,19.5000,11.2500,-34.3500,
3.534199,0.1475,0.4755,0.3678,-0.8381,0.3024,0.5879,20.4000,12.6750,-32.4000,
3.552526,0.1475,0.4755,0.3678,-0.8381,0.3024,0.5879,20.4000,12.6750,-32.4000,
3.554770,-0.3143,0.6447,0.6006,-0.8381,0.3024,0.5879,20.4000,12.6750,-32.4000,
3.571962,-0.3143,0.6447,0.6006,-0.8381,0.3024,0.5879,20.4000,12.6750,-32.4000,
3.574693,0.5196,0.5287,-0.8748,-0.8381,0.3024,0.5879,20.4000,12.6750,-32.4000,
3.576583,0.5196,0.5287,-0.8748,-1.0175,0.1825,0.6797,20.4000,12.6750,-32.4000,
3.591590,0.5196,0.5287,-0.8748,-1.0175,0.1825,0.6797,20.4000,12.6750,-32.4000,
3.594242,-0.3987,1.3060,-0.5318,-1.0175,0.1825,0.6797,20.4000,12.6750,-32.4000,
3.607074,-0.3987,1.3060,-0.5318,-1.0175,0.1825,0.6797,21.6000,14.2500,-31.3500,
3.616295,-0.3987,1.3060,-0.5318,-1.0175,0.1825,0.6797,21.6000,14.2500,-31.3500,
3.618253,-1.7096,1.1738,-0.8583,-1.0175,0.1825,0.6797,21.6000,14.2500,-31.3500,
3.631712,-1.7096,1.1738,-0.8583,-1.0175,0.1825,0.6797,21.6000,14.2500,-31.3500,
3.633464,-2.1952,0.4798,-0.7354,-1.0175,0.1825,0.6797,21.6000,14.2500,-31.3500,
3.651451,-2.1952,0.4798,-0.7354,-1.1889,-0.3958,0.6432,21.6000,14.2500,-31.3500,
3.656760,-2.1952,0.4798,-0.7354,-1.1889,-0.3958,0.6432,21.6000,14.2500,-31.3500,
3.658332,-2.8703,0.1992,-0.6427,-1.1889,-0.3958,0.6432,21.6000,14.2500,-31.3500,
3.675680,-2.8703,0.1992,-0.6427,-1.1889,-0.3958,0.6432,21.6000,14.2500,-31.3500,
3.677586,-2.4474,-1.1579,-0.1867,-1.1889,-0.3958,0.6432,21.6000,14.2500,-31.3500,
3.679275,-2.4474,-1.1579,-0.1867,-1.1889,-0.3958,0.6432,22.3500,15.1500,-29.4750,
3.695037,-2.4474,-1.1579,-0.1867,-1.1889,-0.3958,0.6432,22.3500,15.1500,-29.4750,
3.700708,-2.1045,-2.7519,-0.1293,-1.1889,-0.3958,0.6432,22.3500,15.1500,-29.4750,
3.717719,-2.1045,-2.7519,-0.1293,-1.1889,-0.3958,0.6432,22.3500,15.1500,-29.4750,
3.720682,-1.6374,-3.1260,0.0084,-1.1889,-0.3958,0.6432,22.3500,15.1500,-29.4750,
3.723140,-1.6374,-3.1260,0.0084,-1.1765,-0.5550,1.1270,22.3500,15.1500,-29.4750,
3.733594,-1.6374,-3.1260,0.0084,-1.1765,-0.5550,1.1270,22.3500,15.1500,-29.4750,
3.734900,-0.0679,-2.6528,0.0409,-1.1765,-0.5550,1.1270,22.3500,15.1500,-29.4750,
3.746075,-0.0679,-2.6528,0.0409,-1.1765,-0.5550,1.1270,22.6500,16.5750,-29.1000,
3.753326,-0.0679,-2.6528,0.0409,-1.1765,-0.5550,1.1270,22.6500,16.5750,-29.1000,
3.755367,0.8522,-2.1414,0.1685,-1.1765,-0.5550,1.1270,22.6500,16.5750,-29.1000,
3.772156,0.8522,-2.1414,0.1685,-1.1765,-0.5550,1.1270,22.6500,16.5750,-29.1000,
3.774634,0.6132,-2.1973,0.2523,-1.1765,-0.5550,1.1270,22.6500,16.5750,-29.1000,
3.786898,0.6132,-2.1973,0.2523,-1.0087,-0.7223,1.4485,22.6500,16.5750,-29.1000,
3.792069,0.6132,-2.1973,0.2523,-1.0087,-0.7223,1.4485,22.6500,16.5750,-29.1000,
3.793957,0.3726,-1.7161,0.3405,-1.0087,-0.7223,1.4485,22.6500,16.5750,-29.1000,
3.811658,0.3726,-1.7161,0.3405,-1.0087,-0.7223,1.4485,22.6500,16.5750,-29.1000,
3.814563,-0.0525,-0.7601,0.2704,-1.0087,-0.7223,1.4485,22.6500,16.5750,-29.1000,
3.817816,-0.0525,-0.7601,0.2704,-1.0087,-0.7223,1.4485,22.8000,17.2500,-28.8000,
3.833657,-0.0525,-0.7601,0.2704,-1.0087,-0.7223,1.4485,22.8000,17.2500,-28.8000,
3.836400,-0.2224,0.4697,0.1961,-1.0087,-0.7223,1.4485,22.8000,17.2500,-28.8000,
3.849890,-0.2224,0.4697,0.1961,-1.0087,-0.7223,1.4485,22.8000,17.2500,-28.8000,
3.851704,0.6986,1.1933,1.0499,-1.0087,-0.7223,1.4485,22.8000,17.2500,-28.8000,
3.854773,0.6986,1.1933,1.0499,-0.9309,-0.6063,1.5891,22.8000,17.2500,-28.8000,
3.870333,0.6986,1.1933,1.0499,-0.9309,-0.6063,1.5891,22.8000,17.2500,-28.8000,
3.872027,0.8603,1.4690,0.9231,-0.9309,-0.6063,1.5891,22.8000,17.2500,-28.8000,
3.880743,0.8603,1.4690,0.9231,-0.9309,-0.6063,1.5891,22.6500,16.8000,-28.9500,
3.888967,0.8603,1.4690,0.9231,-0.9309,-0.6063,1.5891,22.6500,16.8000,-28.9500,
3.890501,0.5651,1.8556,0.2378,-0.9309,-0.6063,1.5891,22.6500,16.8000,-28.9500,
3.908727,0.5651,1.8556,0.2378,-0.9309,-0.6063,1.5891,22.6500,16.8000,-28.9500,
3.911333,0.8124,2.0161,-0.0942,-0.9309,-0.6063,1.5891,22.6500,16.8000,-28.9500,
3.923681,0.8124,2.0161,-0.0942,-1.0384,-0.2570,1.3642,22.6500,16.8000,-28.9500,
3.930782,0.8124,2.0161,-0.0942,-1.0384,-0.2570,1.3642,22.6500,16.8000,-28.9500,
3.933172,0.7316,2.0167,0.8711,-1.0384,-0.2570,1.3642,22.6500,16.8000,-28.9500,
3.950726,0.7316,2.0167,0.8711,-1.0384,-0.2570,1.3642,22.6500,16.8000,-28.9500,
3.952611,1.0686,1.2335,1.7055,-1.0384,-0.2570,1.3642,22.6500,16.8000,-28.9500,
3.954055,1.0686,1.2335,1.7055,-1.0384,-0.2570,1.3642,23.7000,16.9500,-28.8000,
3.967493,1.0686,1.2335,1.7055,-1.0384,-0.2570,1.3642,23.7000,16.9500,-28.8000,
3.969168,0.5210,0.7448,2.0323,-1.0384,-0.2570,1.3642,23.7000,16.9500,-28.8000,
3.984095,0.5210,0.7448,2.0323,-1.0384,-0.2570,1.3642,23.7000,16.9500,-28.8000,
3.986275,-0.0423,0.5833,2.0062,-1.0384,-0.2570,1.3642,23.7000,16.9500,-28.8000,
3.998056,-0.0423,0.5833,2.0062,-1.1090,-0.1805,0.9801,23.7000,16.9500,-28.8000,
4.007646,-0.0423,0.5833,2.0062,-1.1090,-0.1805,0.9801,23.7000,16.9500,-28.8000,
4.009715,0.2049,0.4260,1.5130,-1.1090,-0.1805,0.9801,23.7000,16.9500,-28.8000,
4.022151,0.2049,0.4260,1.5130,-1.1090,-0.1805,0.9801,24.5250,16.9500,-26.4750,
4.031057,0.2049,0.4260,1.5130,-1.1090,-0.1805,0.9801,24.5250,16.9500,-26.4750,
4.033267,0.2305,0.1819,1.2349,-1.1090,-0.1805,0.9801,24.5250,16.9500,-26.4750,
4.051383,0.2305,0.1819,1.2349,-1.1090,-0.1805,0.9801,24.5250,16.9500,-26.4750,
4.053049,-0.1256,-0.2692,0.6731,-1.1090,-0.1805,0.9801,24.5250,16.9500,-26.4750,
4.066002,-0.1256,-0.2692,0.6731,-0.7663,-0.1810,0.6848,24.5250,16.9500,-26.4750,
4.072365,-0.1256,-0.2692,0.6731,-0.7663,-0.1810,0.6848,24.5250,16.9500,-26.4750,
4.073903,-0.0235,-0.6984,0.0820,-0.7663,-0.1810,0.6848,24.5250,16.9500,-26.4750,
4.092087,-0.0235,-0.6984,0.0820,-0.7663,-0.1810,0.6848,24.5250,16.9500,-26.4750,
4.094068,-1.3857,-1.3772,-0.9273,-0.7663,-0.1810,0.6848,24.5250,16.9500,-26.4750,
4.095768,-1.3857,-1.3772,-0.9273,-0.7663,-0.1810,0.6848,25.7250,19.2750,-25.3500,
4.107280,-1.3857,-1.3772,-0.9273,-0.7663,-0.1810,0.6848,25.7250,19.2750,-25.3500,
4.109243,-2.5408,-2.5714,0.0786,-0.7663,-0.1810,0.6848,25.7250,19.2750,-25.3500,
4.125134,-2.5408,-2.5714,0.0786,-0.7663,-0.1810,0.6848,25.7250,19.2750,-25.3500,
4.128670,-1.6365,-2.4795,0.4451,-0.7663,-0.1810,0.6848,25.7250,19.2750,-25.3500,
4.134703,-1.6365,-2.4795,0.4451,-0.7538,-0.4233,0.7324,25.7250,19.2750,-25.3500,
4.149335,-1.6365,-2.4795,0.4451,-0.7538,-0.4233,0.7324,25.7250,19.2750,-25.3500,
4.152039,-1.1008,-0.9295,0.0889,-0.7538,-0.4233,0.7324,25.7250,19.2750,-25.3500,
4.163484,-1.1008,-0.9295,0.0889,-0.7538,-0.4233,0.7324,26.1000,19.8000,-25.5000,
4.168066,-1.1008,-0.9295,0.0889,-0.7538,-0.4233,0.7324,26.1000,19.8000,-25.5000,
4.169554,-1.8111,0.5965,-2.0499,-0.7538,-0.4233,0.7324,26.1000,19.8000,-25.5000,
4.183224,-1.8111,0.5965,-2.0499,-0.7538,-0.4233,0.7324,26.1000,19.8000,-25.5000,
4.185077,-1.9059,1.0951,-2.9308,-0.7538,-0.4233,0.7324,26.1000,19.8000,-25.5000,
4.202901,-1.9059,1.0951,-2.9308,-0.3289,-1.0827,0.1051,26.1000,19.8000,-25.5000,
4.205795,-1.9059,1.0951,-2.9308,-0.3289,-1.0827,0.1051,26.1000,19.8000,-25.5000,
4.207618,-1.4548,0.4778,-1.0682,-0.3289,-1.0827,0.1051,26.1000,19.8000,-25.5000,
4.227131,-1.4548,0.4778,-1.0682,-0.3289,-1.0827,0.1051,26.1000,19.8000,-25.5000,
4.230100,0.6566,0.0141,-0.2300,-0.3289,-1.0827,0.1051,26.1000,19.8000,-25.5000,
4.232229,0.6566,0.0141,-0.2300,-0.3289,-1.0827,0.1051,24.6000,19.9500,-26.8500,
4.249569,0.6566,0.0141,-0.2300,-0.3289,-1.0827,0.1051,24.6000,19.9500,-26.8500,
4.251853,1.9622,0.6792,-1.8339,-0.3289,-1.0827,0.1051,24.6000,19.9500,-26.8500,
4.271155,1.9622,0.6792,-1.8339,-0.3289,-1.0827,0.1051,24.6000,19.9500,-26.8500,
4.273698,0.1695,1.1503,-2.9983,-0.3289,-1.0827,0.1051,24.6000,19.9500,-26.8500,
4.277625,0.1695,1.1503,-2.9983,-0.1254,-0.5269,-0.4062,24.6000,19.9500,-26.8500,
4.291083,0.1695,1.1503,-2.9983,-0.1254,-0.5269,-0.4062,24.6000,19.9500,-26.8500,
4.293707,-1.7899,0.9224,-2.3330,-0.1254,-0.5269,-0.4062,24.6000,19.9500,-26.8500,
4.302546,-1.7899,0.9224,-2.3330,-0.1254,-0.5269,-0.4062,22.6500,19.9500,-28.2000,
4.311252,-1.7899,0.9224,-2.3330,-0.1254,-0.5269,-0.4062,22.6500,19.9500,-28.2000,
4.313294,-1.1292,0.1520,-1.7013,-0.1254,-0.5269,-0.4062,22.6500,19.9500,-28.2000,
4.329668,-1.1292,0.1520,-1.7013,-0.1254,-0.5269,-0.4062,22.6500,19.9500,-28.2000,
4.331548,-0.3872,-0.6185,-1.5722,-0.1254,-0.5269,-0.4062,22.6500,19.9500,-28.2000,
4.349632,-0.3872,-0.6185,-1.5722,-0.3456,-0.4452,-0.9693,22.6500,19.9500,-28.2000,
4.355302,-0.3872,-0.6185,-1.5722,-0.3456,-0.4452,-0.9693,22.6500,19.9500,-28.2000,
4.357547,-0.5134,-1.4775,-1.2464,-0.3456,-0.4452,-0.9693,22.6500,19.9500,-28.2000,
4.364038,-0.5134,-1.4775,-1.2464,-0.3456,-0.4452,-0.9693,22.6500,19.9500,-28.2000,
4.366084,-0.1253,-2.2850,-0.2808,-0.3456,-0.4452,-0.9693,22.6500,19.9500,-28.2000,
4.371762,-0.1253,-2.2850,-0.2808,-0.3456,-0.4452,-0.9693,19.9500,21.9000,-28.2750,
4.383932,-0.1253,-2.2850,-0.2808,-0.3456,-0.4452,-0.9693,19.9500,21.9000,-28.2750,
4.385229,-0.1331,-1.5308,-0.7815,-0.3456,-0.4452,-0.9693,19.9500,21.9000,-28.2750,
4.408825,-0.1331,-1.5308,-0.7815,-0.3456,-0.4452,-0.9693,19.9500,21.9000,-28.2750,
4.410638,0.3428,-0.9004,-0.7366,-0.3456,-0.4452,-0.9693,19.9500,21.9000,-28.2750,
4.415838,0.3428,-0.9004,-0.7366,-0.0496,-0.7559,-0.9548,19.9500,21.9000,-28.2750,
4.424835,0.3428,-0.9004,-0.7366,-0.0496,-0.7559,-0.9548,19.9500,21.9000,-28.2750,
4.426455,-0.1043,-0.6985,-1.1095,-0.0496,-0.7559,-0.9548,19.9500,21.9000,-28.2750,
4.442500,-0.1043,-0.6985,-1.1095,-0.0496,-0.7559,-0.9548,17.3250,23.2500,-29.2500,
4.447224,-0.1043,-0.6985,-1.1095,-0.0496,-0.7559,-0.9548,17.3250,23.2500,-29.2500,
4.449070,0.3669,-0.1834,-0.6424,-0.0496,-0.7559,-0.9548,17.3250,23.2500,-29.2500,
4.466362,0.3669,-0.1834,-0.6424,-0.0496,-0.7559,-0.9548,17.3250,23.2500,-29.2500,
4.468424,-0.1011,-0.1285,-0.9389,-0.0496,-0.7559,-0.9548,17.3250,23.2500,-29.2500,
4.481448,-0.1011,-0.1285,-0.9389,0.0429,-0.7428,-1.1788,17.3250,23.2500,-29.2500,
4.486567,-0.1011,-0.1285,-0.9389,0.0429,-0.7428,-1.1788,17.3250,23.2500,-29.2500,
4.488154,-0.3053,0.1482,-1.2541,0.0429,-0.7428,-1.1788,17.3250,23.2500,-29.2500,
4.505886,-0.3053,0.1482,-1.2541,0.0429,-0.7428,-1.1788,17.3250,23.2500,-29.2500,
4.508346,0.2347,0.0959,-0.6710,0.0429,-0.7428,-1.1788,17.3250,23.2500,-29.2500,
4.515879,0.2347,0.0959,-0.6710,0.0429,-0.7428,-1.1788,13.0500,24.4500,-30.1500,
4.525226,0.2347,0.0959,-0.6710,0.0429,-0.7428,-1.1788,13.0500,24.4500,-30.1500,
4.527538,1.1213,0.1148,-0.8726,0.0429,-0.7428,-1.1788,13.0500,24.4500,-30.1500,
4.551120,1.1213,0.1148,-0.8726,0.0429,-0.7428,-1.1788,13.0500,24.4500,-30.1500,
4.555234,0.4240,0.1601,-0.3056,0.0429,-0.7428,-1.1788,13.0500,24.4500,-30.1500,
4.559709,0.4240,0.1601,-0.3056,-0.0869,-0.6528,-1.2703,13.0500,24.4500,-30.1500,
4.570333,0.4240,0.1601,-0.3056,-0.0869,-0.6528,-1.2703,13.0500,24.4500,-30.1500,
4.573222,1.5494,0.6448,0.0771,-0.0869,-0.6528,-1.2703,13.0500,24.4500,-30.1500,
4.581053,1.5494,0.6448,0.0771,-0.0869,-0.6528,-1.2703,8.7000,25.9500,-31.2000,
4.588805,1.5494,0.6448,0.0771,-0.0869,-0.6528,-1.2703,8.7000,25.9500,-31.2000,
4.590809,0.7399,0.7064,-0.2143,-0.0869,-0.6528,-1.2703,8.7000,25.9500,-31.2000,
4.608344,0.7399,0.7064,-0.2143,-0.0869,-0.6528,-1.2703,8.7000,25.9500,-31.2000,
4.611303,0.7808,-0.5226,0.4858,-0.0869,-0.6528,-1.2703,8.7000,25.9500,-31.2000,
4.622904,0.7808,-0.5226,0.4858,-0.2885,-0.3916,-1.3429,8.7000,25.9500,-31.2000,
4.628008,0.7808,-0.5226,0.4858,-0.2885,-0.3916,-1.3429,8.7000,25.9500,-31.2000,
4.629684,0.5657,-1.4732,0.9793,-0.2885,-0.3916,-1.3429,8.7000,25.9500,-31.2000,
4.648215,0.5657,-1.4732,0.9793,-0.2885,-0.3916,-1.3429,8.7000,25.9500,-31.2000,
4.652060,1.3921,-0.9658,0.5370,-0.2885,-0.3916,-1.3429,8.7000,25.9500,-31.2000,
4.653872,1.3921,-0.9658,0.5370,-0.2885,-0.3916,-1.3429,5.8500,27.0000,-31.6500,
4.667186,1.3921,-0.9658,0.5370,-0.2885,-0.3916,-1.3429,5.8500,27.0000,-31.6500,
4.669439,0.7628,0.3182,0.0682,-0.2885,-0.3916,-1.3429,5.8500,27.0000,-31.6500,
4.686783,0.7628,0.3182,0.0682,-0.2885,-0.3916,-1.3429,5.8500,27.0000,-31.6500,
4.688870,-1.2391,0.5490,0.2082,-0.2885,-0.3916,-1.3429,5.8500,27.0000,-31.6500,
4.691148,-1.2391,0.5490,0.2082,-0.3589,-0.1364,-1.3709,5.8500,27.0000,-31.6500,
4.706353,-1.2391,0.5490,0.2082,-0.3589,-0.1364,-1.3709,5.8500,27.0000,-31.6500,
4.709144,-2.6900,-1.1413,1.0206,-0.3589,-0.1364,-1.3709,5.8500,27.0000,-31.6500,
4.721157,-2.6900,-1.1413,1.0206,-0.3589,-0.1364,-1.3709,5.8500,27.0000,-31.6500,
4.723127,-1.4002,-1.4227,0.2257,-0.3589,-0.1364,-1.3709,5.8500,27.0000,-31.6500,
4.724805,-1.4002,-1.4227,0.2257,-0.3589,-0.1364,-1.3709,3.2250,28.5000,-30.7500,
4.745809,-1.4002,-1.4227,0.2257,-0.3589,-0.1364,-1.3709,3.2250,28.5000,-30.7500,
4.747153,-0.8328,0.0643,0.3389,-0.3589,-0.1364,-1.3709,3.2250,28.5000,-30.7500,
4.765213,-0.8328,0.0643,0.3389,-0.1697,-0.3297,-1.1832,3.2250,28.5000,-30.7500,
4.768209,-0.8328,0.0643,0.3389,-0.1697,-0.3297,-1.1832,3.2250,28.5000,-30.7500,
4.769859,-0.7380,0.5422,0.7369,-0.1697,-0.3297,-1.1832,3.2250,28.5000,-30.7500,
4.780449,-0.7380,0.5422,0.7369,-0.1697,-0.3297,-1.1832,3.2250,28.5000,-30.7500,
4.783026,-0.7880,-0.0032,1.8884,-0.1697,-0.3297,-1.1832,3.2250,28.5000,-30.7500,
4.791605,-0.7880,-0.0032,1.8884,-0.1697,-0.3297,-1.1832,0.8250,29.1750,-29.7750,
4.804426,-0.7880,-0.0032,1.8884,-0.1697,-0.3297,-1.1832,0.8250,29.1750,-29.7750,
4.808316,-0.5955,0.0672,2.0525,-0.1697,-0.3297,-1.1832,0.8250,29.1750,-29.7750,
4.819053,-0.5955,0.0672,2.0525,-0.1697,-0.3297,-1.1832,0.8250,29.1750,-29.7750,
4.820938,-0.8635,1.2158,1.0874,-0.1697,-0.3297,-1.1832,0.8250,29.1750,-29.7750,
4.828424,-0.8635,1.2158,1.0874,-0.0496,-0.6675,-1.0839,0.8250,29.1750,-29.7750,
4.838918,-0.8635,1.2158,1.0874,-0.0496,-0.6675,-1.0839,0.8250,29.1750,-29.7750,
4.840967,-1.4183,1.9559,0.5622,-0.0496,-0.6675,-1.0839,0.8250,29.1750,-29.7750,
4.861790,-1.4183,1.9559,0.5622,-0.0496,-0.6675,-1.0839,-2.4750,29.1750,-29.2500,
4.865344,-1.4183,1.9559,0.5622,-0.0496,-0.6675,-1.0839,-2.4750,29.1750,-29.2500,
4.867089,-1.8743,1.9072,0.7303,-0.0496,-0.6675,-1.0839,-2.4750,29.1750,-29.2500,
4.881388,-1.8743,1.9072,0.7303,-0.0496,-0.6675,-1.0839,-2.4750,29.1750,-29.2500,
4.883578,-1.6672,1.4959,1.6356,-0.0496,-0.6675,-1.0839,-2.4750,29.1750,-29.2500,
4.902889,-1.6672,1.4959,1.6356,-0.2584,-0.9645,-0.6840,-2.4750,29.1750,-29.2500,
4.909226,-1.6672,1.4959,1.6356,-0.2584,-0.9645,-0.6840,-2.4750,29.1750,-29.2500,
4.911744,-1.6264,1.7428,0.8451,-0.2584,-0.9645,-0.6840,-2.4750,29.1750,-29.2500,
4.926121,-1.6264,1.7428,0.8451,-0.2584,-0.9645,-0.6840,-2.4750,29.1750,-29.2500,
4.929577,-1.7456,2.3274,0.2173,-0.2584,-0.9645,-0.6840,-2.4750,29.1750,-29.2500,
4.937241,-1.7456,2.3274,0.2173,-0.2584,-0.9645,-0.6840,-6.3000,28.6500,-29.1750,
4.947225,-1.7456,2.3274,0.2173,-0.2584,-0.9645,-0.6840,-6.3000,28.6500,-29.1750,
4.949380,-1.1996,2.2282,0.7863,-0.2584,-0.9645,-0.6840,-6.3000,28.6500,-29.1750,
4.965895,-1.1996,2.2282,0.7863,-0.2584,-0.9645,-0.6840,-6.3000,28.6500,-29.1750,
4.967944,-0.1338,1.6305,1.3755,-0.2584,-0.9645,-0.6840,-6.3000,28.6500,-29.1750,
4.970127,-0.1338,1.6305,1.3755,-0.3157,-1.3239,-0.3137,-6.3000,28.6500,-29.1750,
4.980682,-0.1338,1.6305,1.3755,-0.3157,-1.3239,-0.3137,-6.3000,28.6500,-29.1750,
4.983053,1.5713,1.2726,0.9507,-0.3157,-1.3239,-0.3137,-6.3000,28.6500,-29.1750,
4.999671,1.5713,1.2726,0.9507,-0.3157,-1.3239,-0.3137,-9.1500,28.5000,-27.4500,
5.004702,1.5713,1.2726,0.9507,-0.3157,-1.3239,-0.3137,-9.1500,28.5000,-27.4500,
5.006220,3.8491,1.3008,0.6575,-0.3157,-1.3239,-0.3137,-9.1500,28.5000,-27.4500,
5.024531,3.8491,1.3008,0.6575,-0.3157,-1.3239,-0.3137,-9.1500,28.5000,-27.4500,
5.027540,5.6289,1.4222,-0.2554,-0.3157,-1.3239,-0.3137,-9.1500,28.5000,-27.4500,
5.038712,5.6289,1.4222,-0.2554,0.0362,-0.6535,-0.2561,-9.1500,28.5000,-27.4500,
5.048513,5.6289,1.4222,-0.2554,0.0362,-0.6535,-0.2561,-9.1500,28.5000,-27.4500,
5.050548,5.6300,1.2844,0.5276,0.0362,-0.6535,-0.2561,-9.1500,28.5000,-27.4500,
5.064434,5.6300,1.2844,0.5276,0.0362,-0.6535,-0.2561,-9.1500,28.5000,-27.4500,
5.067321,3.5850,0.8975,-0.1509,0.0362,-0.6535,-0.2561,-9.1500,28.5000,-27.4500,
5.069468,3.5850,0.8975,-0.1509,0.0362,-0.6535,-0.2561,-12.1500,28.9500,-27.1500,
5.080621,3.5850,0.8975,-0.1509,0.0362,-0.6535,-0.2561,-12.1500,28.9500,-27.1500,
5.083003,1.3278,-0.0924,-0.1980,0.0362,-0.6535,-0.2561,-12.1500,28.9500,-27.1500,
5.102878,1.3278,-0.0924,-0.1980,0.0362,-0.6535,-0.2561,-12.1500,28.9500,-27.1500,
5.105106,0.6357,-0.7230,-0.3194,0.0362,-0.6535,-0.2561,-12.1500,28.9500,-27.1500,
5.107232,0.6357,-0.7230,-0.3194,0.3912,0.1355,-0.1997,-12.1500,28.9500,-27.1500,
5.121689,0.6357,-0.7230,-0.3194,0.3912,0.1355,-0.1997,-12.1500,28.9500,-27.1500,
5.123548,0.9109,-0.5473,-0.4695,0.3912,0.1355,-0.1997,-12.1500,28.9500,-27.1500,
5.132044,0.9109,-0.5473,-0.4695,0.3912,0.1355,-0.1997,-13.0500,28.9500,-27.9750,
5.146816,0.9109,-0.5473,-0.4695,0.3912,0.1355,-0.1997,-13.0500,28.9500,-27.9750,
5.149016,0.8776,-0.2824,-0.9105,0.3912,0.1355,-0.1997,-13.0500,28.9500,-27.9750,
5.166233,0.8776,-0.2824,-0.9105,0.3912,0.1355,-0.1997,-13.0500,28.9500,-27.9750,
5.168557,0.6257,-0.4643,-0.9948,0.3912,0.1355,-0.1997,-13.0500,28.9500,-27.9750,
5.181190,0.6257,-0.4643,-0.9948,0.5472,0.2810,0.2355,-13.0500,28.9500,-27.9750,
5.184497,0.6257,-0.4643,-0.9948,0.5472,0.2810,0.2355,-13.0500,28.9500,-27.9750,
5.186714,-0.1025,-0.7194,-1.2156,0.5472,0.2810,0.2355,-13.0500,28.9500,-27.9750,
5.206458,-0.1025,-0.7194,-1.2156,0.5472,0.2810,0.2355,-13.0500,28.9500,-27.9750,
5.209379,-1.0675,-1.0028,-1.1312,0.5472,0.2810,0.2355,-13.0500,28.9500,-27.9750,
5.212057,-1.0675,-1.0028,-1.1312,0.5472,0.2810,0.2355,-12.3000,28.8750,-28.9500,
5.225170,-1.0675,-1.0028,-1.1312,0.5472,0.2810,0.2355,-12.3000,28.8750,-28.9500,
5.228247,-1.0767,-1.0930,-1.8708,0.5472,0.2810,0.2355,-12.3000,28.8750,-28.9500,
5.249707,-1.0767,-1.0930,-1.8708,0.5472,0.2810,0.2355,-12.3000,28.8750,-28.9500,
5.253222,-1.1507,-0.9476,-2.2496,0.5472,0.2810,0.2355,-12.3000,28.8750,-28.9500,
5.255937,-1.1507,-0.9476,-2.2496,0.4293,0.2205,0.7561,-12.3000,28.8750,-28.9500,
5.265283,-1.1507,-0.9476,-2.2496,0.4293,0.2205,0.7561,-12.3000,28.8750,-28.9500,
5.267991,-0.4547,-0.8784,-1.6785,0.4293,0.2205,0.7561,-12.3000,28.8750,-28.9500,
5.274176,-0.4547,-0.8784,-1.6785,0.4293,0.2205,0.7561,-10.5000,27.6000,-29.8500,
5.280954,-0.4547,-0.8784,-1.6785,0.4293,0.2205,0.7561,-10.5000,27.6000,-29.8500,
5.283224,0.1880,-1.1457,-1.0041,0.4293,0.2205,0.7561,-10.5000,27.6000,-29.8500,
5.303198,0.1880,-1.1457,-1.0041,0.4293,0.2205,0.7561,-10.5000,27.6000,-29.8500,
5.305285,0.4921,-0.8156,-0.1462,0.4293,0.2205,0.7561,-10.5000,27.6000,-29.8500,
5.317636,0.4921,-0.8156,-0.1462,0.4667,-0.3150,1.0919,-10.5000,27.6000,-29.8500,
5.322316,0.4921,-0.8156,-0.1462,0.4667,-0.3150,1.0919,-10.5000,27.6000,-29.8500,
5.323873,0.5622,-0.2207,0.1692,0.4667,-0.3150,1.0919,-10.5000,27.6000,-29.8500,
5.342106,0.5622,-0.2207,0.1692,0.4667,-0.3150,1.0919,-10.5000,27.6000,-29.8500,
5.344034,0.3603,0.1603,0.6963,0.4667,-0.3150,1.0919,-10.5000,27.6000,-29.8500,
5.345467,0.3603,0.1603,0.6963,0.4667,-0.3150,1.0919,-9.4500,28.0500,-30.0000,
5.361118,0.3603,0.1603,0.6963,0.4667,-0.3150,1.0919,-9.4500,28.0500,-30.0000,
5.363031,-0.1185,0.4185,0.5046,0.4667,-0.3150,1.0919,-9.4500,28.0500,-30.0000,
5.382526,-0.1185,0.4185,0.5046,0.4667,-0.3150,1.0919,-9.4500,28.0500,-30.0000,
5.386657,-0.2918,0.7802,0.6488,0.4667,-0.3150,1.0919,-9.4500,28.0500,-30.0000,
5.391058,-0.2918,0.7802,0.6488,0.7955,0.0768,1.4795,-9.4500,28.0500,-30.0000,
5.401069,-0.2918,0.7802,0.6488,0.7955,0.0768,1.4795,-9.4500,28.0500,-30.0000,
5.403694,-0.1918,1.0610,-0.1214,0.7955,0.0768,1.4795,-9.4500,28.0500,-30.0000,
5.415045,-0.1918,1.0610,-0.1214,0.7955,0.0768,1.4795,-7.9500,27.3000,-30.7500,
5.420502,-0.1918,1.0610,-0.1214,0.7955,0.0768,1.4795,-7.9500,27.3000,-30.7500,
5.422085,-0.0446,1.1215,-0.7866,0.7955,0.0768,1.4795,-7.9500,27.3000,-30.7500,
5.439711,-0.0446,1.1215,-0.7866,0.7955,0.0768,1.4795,-7.9500,27.3000,-30.7500,
5.441821,0.0599,1.1321,-0.8322,0.7955,0.0768,1.4795,-7.9500,27.3000,-30.7500,
5.454082,0.0599,1.1321,-0.8322,0.9578,0.2442,1.7168,-7.9500,27.3000,-30.7500,
5.460191,0.0599,1.1321,-0.8322,0.9578,0.2442,1.7168,-7.9500,27.3000,-30.7500,
5.461686,0.1000,0.9112,-1.0192,0.9578,0.2442,1.7168,-7.9500,27.3000,-30.7500,
5.482214,0.1000,0.9112,-1.0192,0.9578,0.2442,1.7168,-7.9500,27.3000,-30.7500,
5.483847,-0.0599,0.6537,-0.7376,0.9578,0.2442,1.7168,-7.9500,27.3000,-30.7500,
5.485665,-0.0599,0.6537,-0.7376,0.9578,0.2442,1.7168,-4.5750,25.9500,-32.2500,
5.498970,-0.0599,0.6537,-0.7376,0.9578,0.2442,1.7168,-4.5750,25.9500,-32.2500,
5.500839,0.1422,0.3159,-0.0412,0.9578,0.2442,1.7168,-4.5750,25.9500,-32.2500,
5.519079,0.1422,0.3159,-0.0412,0.9578,0.2442,1.7168,-4.5750,25.9500,-32.2500,
5.520837,0.4606,-0.0941,-0.1693,0.9578,0.2442,1.7168,-4.5750,25.9500,-32.2500,
5.522699,0.4606,-0.0941,-0.1693,0.9651,0.3659,1.6401,-4.5750,25.9500,-32.2500,
5.533783,0.4606,-0.0941,-0.1693,0.9651,0.3659,1.6401,-4.5750,25.9500,-32.2500,
5.536681,1.0340,-0.3914,-0.2765,0.9651,0.3659,1.6401,-4.5750,25.9500,-32.2500,
5.551259,1.0340,-0.3914,-0.2765,0.9651,0.3659,1.6401,-1.3500,24.7500,-34.2750,
5.557776,1.0340,-0.3914,-0.2765,0.9651,0.3659,1.6401,-1.3500,24.7500,-34.2750,
5.559753,1.5913,-0.8567,-0.5751,0.9651,0.3659,1.6401,-1.3500,24.7500,-34.2750,
5.578092,1.5913,-0.8567,-0.5751,0.9651,0.3659,1.6401,-1.3500,24.7500,-34.2750,
5.579829,1.9270,-2.9170,-0.8223,0.9651,0.3659,1.6401,-1.3500,24.7500,-34.2750,
5.597459,1.9270,-2.9170,-0.8223,1.1073,0.4277,1.4193,-1.3500,24.7500,-34.2750,
5.599527,1.9270,-2.9170,-0.8223,1.1073,0.4277,1.4193,-1.3500,24.7500,-34.2750,
5.600528,1.8223,-5.5856,-0.7056,1.1073,0.4277,1.4193,-1.3500,24.7500,-34.2750,
5.620993,1.8223,-5.5856,-0.7056,1.1073,0.4277,1.4193,-1.3500,24.7500,-34.2750,
5.623909,2.5013,-6.3055,0.2994,1.1073,0.4277,1.4193,-1.3500,24.7500,-34.2750,
5.626190,2.5013,-6.3055,0.2994,1.1073,0.4277,1.4193,2.2500,22.0500,-36.4500,
5.641818,2.5013,-6.3055,0.2994,1.1073,0.4277,1.4193,2.2500,22.0500,-36.4500,
5.644638,2.6059,-5.0723,0.2470,1.1073,0.4277,1.4193,2.2500,22.0500,-36.4500,
5.660336,2.6059,-5.0723,0.2470,1.1073,0.4277,1.4193,2.2500,22.0500,-36.4500,
5.662416,1.2721,-3.2460,0.5497,1.1073,0.4277,1.4193,2.2500,22.0500,-36.4500,
5.664760,1.2721,-3.2460,0.5497,1.3506,0.5696,1.4103,2.2500,22.0500,-36.4500,
5.681450,1.2721,-3.2460,0.5497,1.3506,0.5696,1.4103,2.2500,22.0500,-36.4500,
5.683337,-1.4010,-1.0896,0.4372,1.3506,0.5696,1.4103,2.2500,22.0500,-36.4500,
5.691128,-1.4010,-1.0896,0.4372,1.3506,0.5696,1.4103,4.6500,19.2000,-38.1750,
5.699083,-1.4010,-1.0896,0.4372,1.3506,0.5696,1.4103,4.6500,19.2000,-38.1750,
5.701413,-3.1620,1.0617,-0.2564,1.3506,0.5696,1.4103,4.6500,19.2000,-38.1750,
5.718886,-3.1620,1.0617,-0.2564,1.3506,0.5696,1.4103,4.6500,19.2000,-38.1750,
5.720845,-3.1290,2.8419,-1.1571,1.3506,0.5696,1.4103,4.6500,19.2000,-38.1750,
5.733253,-3.1290,2.8419,-1.1571,0.8619,0.8147,1.1262,4.6500,19.2000,-38.1750,
5.737990,-3.1290,2.8419,-1.1571,0.8619,0.8147,1.1262,4.6500,19.2000,-38.1750,
5.739256,-3.2817,3.3760,-0.7671,0.8619,0.8147,1.1262,4.6500,19.2000,-38.1750,
5.757810,-3.2817,3.3760,-0.7671,0.8619,0.8147,1.1262,4.6500,19.2000,-38.1750,
5.760499,-3.8983,1.8055,-0.2464,0.8619,0.8147,1.1262,4.6500,19.2000,-38.1750,
5.763180,-3.8983,1.8055,-0.2464,0.8619,0.8147,1.1262,8.2500,15.0750,-39.3000,
5.779113,-3.8983,1.8055,-0.2464,0.8619,0.8147,1.1262,8.2500,15.0750,-39.3000,
5.781382,-3.7352,-0.5460,0.4639,0.8619,0.8147,1.1262,8.2500,15.0750,-39.3000,
5.802502,-3.7352,-0.5460,0.4639,0.8619,0.8147,1.1262,8.2500,15.0750,-39.3000,
5.806224,-2.4893,-2.2414,0.8324,0.8619,0.8147,1.1262,8.2500,15.0750,-39.3000,
5.809874,-2.4893,-2.2414,0.8324,-0.1098,0.5521,0.3841,8.2500,15.0750,-39.3000,
5.821382,-2.4893,-2.2414,0.8324,-0.1098,0.5521,0.3841,8.2500,15.0750,-39.3000,
5.823794,-1.4026,-2.2742,0.3481,-0.1098,0.5521,0.3841,8.2500,15.0750,-39.3000,
5.831110,-1.4026,-2.2742,0.3481,-0.1098,0.5521,0.3841,10.6500,14.8500,-39.1500,
5.840798,-1.4026,-2.2742,0.3481,-0.1098,0.5521,0.3841,10.6500,14.8500,-39.1500,
5.842313,-1.3561,-1.3047,0.8288,-0.1098,0.5521,0.3841,10.6500,14.8500,-39.1500,
5.860468,-1.3561,-1.3047,0.8288,-0.1098,0.5521,0.3841,10.6500,14.8500,-39.1500,
5.862822,-1.3914,-0.9551,0.9100,-0.1098,0.5521,0.3841,10.6500,14.8500,-39.1500,
5.875185,-1.3914,-0.9551,0.9100,-0.1406,0.3599,-0.5638,10.6500,14.8500,-39.1500,
5.878097,-1.3914,-0.9551,0.9100,-0.1406,0.3599,-0.5638,10.6500,14.8500,-39.1500,
5.879752,-1.1895,-0.6007,1.0887,-0.1406,0.3599,-0.5638,10.6500,14.8500,-39.1500,
5.894932,-1.1895,-0.6007,1.0887,-0.1406,0.3599,-0.5638,10.6500,14.8500,-39.1500,
5.897408,-0.7024,-0.8512,0.9860,-0.1406,0.3599,-0.5638,10.6500,14.8500,-39.1500,
5.900964,-0.7024,-0.8512,0.9860,-0.1406,0.3599,-0.5638,11.0250,15.6000,-38.4000,
5.919340,-0.7024,-0.8512,0.9860,-0.1406,0.3599,-0.5638,11.0250,15.6000,-38.4000,
5.921651,-0.4516,-1.4947,0.9160,-0.1406,0.3599,-0.5638,11.0250,15.6000,-38.4000,
5.938500,-0.4516,-1.4947,0.9160,-0.1406,0.3599,-0.5638,11.0250,15.6000,-38.4000,
5.940854,-0.7114,-1.7925,0.9484,-0.1406,0.3599,-0.5638,11.0250,15.6000,-38.4000,
5.947055,-0.7114,-1.7925,0.9484,-0.0973,0.4259,-0.6446,11.0250,15.6000,-38.4000,
5.953390,-0.7114,-1.7925,0.9484,-0.0973,0.4259,-0.6446,11.0250,15.6000,-38.4000,
5.955087,-1.5187,-1.8853,0.5407,-0.0973,0.4259,-0.6446,11.0250,15.6000,-38.4000,
5.971335,-1.5187,-1.8853,0.5407,-0.0973,0.4259,-0.6446,10.4250,16.2750,-38.2500,
5.974764,-1.5187,-1.8853,0.5407,-0.0973,0.4259,-0.6446,10.4250,16.2750,-38.2500,
5.977427,-2.4876,-1.7791,0.3656,-0.0973,0.4259,-0.6446,10.4250,16.2750,-38.2500,
5.997237,-2.4876,-1.7791,0.3656,-0.0973,0.4259,-0.6446,10.4250,16.2750,-38.2500,
5.999884,-3.1984,-1.5560,-0.1504,-0.0973,0.4259,-0.6446,10.4250,16.2750,-38.2500,
6.015840,-3.1984,-1.5560,-0.1504,-0.0600,0.3957,-0.5056,10.4250,16.2750,-38.2500,
6.019616,-3.1984,-1.5560,-0.1504,-0.0600,0.3957,-0.5056,10.4250,16.2750,-38.2500,
6.022509,-3.3016,-0.7610,-0.1794,-0.0600,0.3957,-0.5056,10.4250,16.2750,-38.2500,
6.032495,-3.3016,-0.7610,-0.1794,-0.0600,0.3957,-0.5056,10.4250,16.2750,-38.2500,
6.034755,-2.9539,0.3047,-0.1430,-0.0600,0.3957,-0.5056,10.4250,16.2750,-38.2500,
6.041185,-2.9539,0.3047,-0.1430,-0.0600,0.3957,-0.5056,10.5000,16.2000,-37.6500,
6.055777,-2.9539,0.3047,-0.1430,-0.0600,0.3957,-0.5056,10.5000,16.2000,-37.6500,
6.057996,-2.5909,1.1871,-0.0140,-0.0600,0.3957,-0.5056,10.5000,16.2000,-37.6500,
6.071802,-2.5909,1.1871,-0.0140,-0.0600,0.3957,-0.5056,10.5000,16.2000,-37.6500,
6.075595,-2.0228,1.9257,0.0629,-0.0600,0.3957,-0.5056,10.5000,16.2000,-37.6500,
6.085592,-2.0228,1.9257,0.0629,0.1324,-0.2216,-0.2630,10.5000,16.2000,-37.6500,
6.090899,-2.0228,1.9257,0.0629,0.1324,-0.2216,-0.2630,10.5000,16.2000,-37.6500,
6.092662,-1.6596,2.4463,0.1321,0.1324,-0.2216,-0.2630,10.5000,16.2000,-37.6500,
6.112910,-1.6596,2.4463,0.1321,0.1324,-0.2216,-0.2630,9.9000,16.8750,-37.6500,
6.116582,-1.6596,2.4463,0.1321,0.1324,-0.2216,-0.2630,9.9000,16.8750,-37.6500,
6.118967,-1.4403,2.5829,-0.3461,0.1324,-0.2216,-0.2630,9.9000,16.8750,-37.6500,
6.130832,-1.4403,2.5829,-0.3461,0.1324,-0.2216,-0.2630,9.9000,16.8750,-37.6500,
6.133168,-1.0139,2.5315,-0.6943,0.1324,-0.2216,-0.2630,9.9000,16.8750,-37.6500,
6.149043,-1.0139,2.5315,-0.6943,0.2205,-0.3859,-0.1474,9.9000,16.8750,-37.6500,
6.153858,-1.0139,2.5315,-0.6943,0.2205,-0.3859,-0.1474,9.9000,16.8750,-37.6500,
6.155489,-0.8208,2.5762,-0.4709,0.2205,-0.3859,-0.1474,9.9000,16.8750,-37.6500,
6.173084,-0.8208,2.5762,-0.4709,0.2205,-0.3859,-0.1474,9.9000,16.8750,-37.6500,
6.175991,-0.5855,2.6297,-0.3801,0.2205,-0.3859,-0.1474,9.9000,16.8750,-37.6500,
6.182663,-0.5855,2.6297,-0.3801,0.2205,-0.3859,-0.1474,8.8500,16.0500,-38.5500,
6.193762,-0.5855,2.6297,-0.3801,0.2205,-0.3859,-0.1474,8.8500,16.0500,-38.5500,
6.196331,-0.4654,2.8264,-0.2335,0.2205,-0.3859,-0.1474,8.8500,16.0500,-38.5500,
6.217256,-0.4654,2.8264,-0.2335,0.2205,-0.3859,-0.1474,8.8500,16.0500,-38.5500,
6.220089,-0.6671,3.4846,-0.3909,0.2205,-0.3859,-0.1474,8.8500,16.0500,-38.5500,
6.222376,-0.6671,3.4846,-0.3909,0.2011,-0.0951,-0.1649,8.8500,16.0500,-38.5500,
6.236706,-0.6671,3.4846,-0.3909,0.2011,-0.0951,-0.1649,8.8500,16.0500,-38.5500,
6.238840,-1.1565,4.2766,-0.2649,0.2011,-0.0951,-0.1649,8.8500,16.0500,-38.5500,
6.251164,-1.1565,4.2766,-0.2649,0.2011,-0.0951,-0.1649,7.8000,15.3750,-38.8500,
6.256313,-1.1565,4.2766,-0.2649,0.2011,-0.0951,-0.1649,7.8000,15.3750,-38.8500,
6.257806,-1.3276,4.2130,0.4678,0.2011,-0.0951,-0.1649,7.8000,15.3750,-38.8500,
6.276822,-1.3276,4.2130,0.4678,0.2011,-0.0951,-0.1649,7.8000,15.3750,-38.8500,
6.279392,-0.1665,3.4151,-0.3742,0.2011,-0.0951,-0.1649,7.8000,15.3750,-38.8500,
6.290647,-0.1665,3.4151,-0.3742,0.4526,0.3126,-0.2242,7.8000,15.3750,-38.8500,
6.298788,-0.1665,3.4151,-0.3742,0.4526,0.3126,-0.2242,7.8000,15.3750,-38.8500,
6.300730,1.0512,1.9330,1.0379,0.4526,0.3126,-0.2242,7.8000,15.3750,-38.8500,
6.316202,1.0512,1.9330,1.0379,0.4526,0.3126,-0.2242,7.8000,15.3750,-38.8500,
6.320239,0.7914,0.1886,1.2051,0.4526,0.3126,-0.2242,7.8000,15.3750,-38.8500,
6.322028,0.7914,0.1886,1.2051,0.4526,0.3126,-0.2242,8.2500,14.7750,-38.7000,
6.330864,0.7914,0.1886,1.2051,0.4526,0.3126,-0.2242,8.2500,14.7750,-38.7000,
6.332601,-0.4978,-0.4588,-1.3526,0.4526,0.3126,-0.2242,8.2500,14.7750,-38.7000,
6.354463,-0.4978,-0.4588,-1.3526,0.4526,0.3126,-0.2242,8.2500,14.7750,-38.7000,
6.356951,-1.8867,0.3317,-1.6427,0.4526,0.3126,-0.2242,8.2500,14.7750,-38.7000,
6.363634,-1.8867,0.3317,-1.6427,0.4140,0.3993,-0.2813,8.2500,14.7750,-38.7000,
6.373729,-1.8867,0.3317,-1.6427,0.4140,0.3993,-0.2813,8.2500,14.7750,-38.7000,
6.375695,-0.9338,0.3445,-0.4785,0.4140,0.3993,-0.2813,8.2500,14.7750,-38.7000,
6.391382,-0.9338,0.3445,-0.4785,0.4140,0.3993,-0.2813,8.5500,13.3500,-39.3750,
6.393756,-0.9338,0.3445,-0.4785,0.4140,0.3993,-0.2813,8.5500,13.3500,-39.3750,
6.395400,0.7303,-0.8766,-0.1465,0.4140,0.3993,-0.2813,8.5500,13.3500,-39.3750,
6.413095,0.7303,-0.8766,-0.1465,0.4140,0.3993,-0.2813,8.5500,13.3500,-39.3750,
6.414625,1.4422,-1.9209,0.7961,0.4140,0.3993,-0.2813,8.5500,13.3500,-39.3750,
6.430192,1.4422,-1.9209,0.7961,0.2278,0.0930,-0.2691,8.5500,13.3500,-39.3750,
6.431776,1.4422,-1.9209,0.7961,0.2278,0.0930,-0.2691,8.5500,13.3500,-39.3750,
6.432791,0.4954,-1.3924,0.4059,0.2278,0.0930,-0.2691,8.5500,13.3500,-39.3750,
6.453428,0.4954,-1.3924,0.4059,0.2278,0.0930,-0.2691,8.5500,13.3500,-39.3750,
6.454962,-0.6800,-0.4064,-0.0872,0.2278,0.0930,-0.2691,8.5500,13.3500,-39.3750,
6.456197,-0.6800,-0.4064,-0.0872,0.2278,0.0930,-0.2691,8.6250,12.6750,-39.1500,
6.469526,-0.6800,-0.4064,-0.0872,0.2278,0.0930,-0.2691,8.6250,12.6750,-39.1500,
6.470681,-0.9490,-0.0061,0.0937,0.2278,0.0930,-0.2691,8.6250,12.6750,-39.1500,
6.492821,-0.9490,-0.0061,0.0937,0.2278,0.0930,-0.2691,8.6250,12.6750,-39.1500,
6.494611,0.4245,0.1066,-0.1040,0.2278,0.0930,-0.2691,8.6250,12.6750,-39.1500,
6.501774,0.4245,0.1066,-0.1040,0.3584,0.0244,-0.0374,8.6250,12.6750,-39.1500,
6.517466,0.4245,0.1066,-0.1040,0.3584,0.0244,-0.0374,8.6250,12.6750,-39.1500,
6.519066,1.2274,0.0815,0.1820,0.3584,0.0244,-0.0374,8.6250,12.6750,-39.1500,
6.529153,1.2274,0.0815,0.1820,0.3584,0.0244,-0.0374,9.8250,12.3750,-39.7500,
6.531317,1.2274,0.0815,0.1820,0.3584,0.0244,-0.0374,9.8250,12.3750,-39.7500,
6.532557,2.1605,2.2690,-1.1432,0.3584,0.0244,-0.0374,9.8250,12.3750,-39.7500,
6.552258,2.1605,2.2690,-1.1432,0.3584,0.0244,-0.0374,9.8250,12.3750,-39.7500,
6.554012,1.0693,-0.6567,1.0018,0.3584,0.0244,-0.0374,9.8250,12.3750,-39.7500,
6.570383,1.0693,-0.6567,1.0018,0.2225,-0.0464,-0.1611,9.8250,12.3750,-39.7500,
6.575523,1.0693,-0.6567,1.0018,0.2225,-0.0464,-0.1611,9.8250,12.3750,-39.7500,
6.576869,1.2196,-0.8326,-0.2376,0.2225,-0.0464,-0.1611,9.8250,12.3750,-39.7500,
6.590144,1.2196,-0.8326,-0.2376,0.2225,-0.0464,-0.1611,9.8250,12.3750,-39.7500,
6.592849,0.1666,0.8518,-0.4349,0.2225,-0.0464,-0.1611,9.8250,12.3750,-39.7500,
6.595116,0.1666,0.8518,-0.4349,0.2225,-0.0464,-0.1611,9.7500,11.1000,-39.4500,
6.608848,0.1666,0.8518,-0.4349,0.2225,-0.0464,-0.1611,9.7500,11.1000,-39.4500,
6.611473,-0.1214,1.4892,-0.6568,0.2225,-0.0464,-0.1611,9.7500,11.1000,-39.4500,
6.628343,-0.1214,1.4892,-0.6568,0.2225,-0.0464,-0.1611,9.7500,11.1000,-39.4500,
6.631630,-0.6308,0.9410,-0.0365,0.2225,-0.0464,-0.1611,9.7500,11.1000,-39.4500,
6.638193,-0.6308,0.9410,-0.0365,0.1666,-0.1457,-0.1863,9.7500,11.1000,-39.4500,
6.653102,-0.6308,0.9410,-0.0365,0.1666,-0.1457,-0.1863,9.7500,11.1000,-39.4500,
6.654547,-0.7869,0.0501,0.1342,0.1666,-0.1457,-0.1863,9.7500,11.1000,-39.4500,
6.664808,-0.7869,0.0501,0.1342,0.1666,-0.1457,-0.1863,8.5500,10.3500,-39.7500,
6.667941,-0.7869,0.0501,0.1342,0.1666,-0.1457,-0.1863,8.5500,10.3500,-39.7500,
6.668900,-0.4760,0.0004,-0.4178,0.1666,-0.1457,-0.1863,8.5500,10.3500,-39.7500,
6.687856,-0.4760,0.0004,-0.4178,0.1666,-0.1457,-0.1863,8.5500,10.3500,-39.7500,
6.689145,0.2206,0.2755,-0.1111,0.1666,-0.1457,-0.1863,8.5500,10.3500,-39.7500,
6.707551,0.2206,0.2755,-0.1111,0.2014,-0.2755,-0.0032,8.5500,10.3500,-39.7500,
6.711640,0.2206,0.2755,-0.1111,0.2014,-0.2755,-0.0032,8.5500,10.3500,-39.7500,
6.713123,0.5739,0.2402,-0.0522,0.2014,-0.2755,-0.0032,8.5500,10.3500,-39.7500,
6.733519,0.5739,0.2402,-0.0522,0.2014,-0.2755,-0.0032,8.5500,10.3500,-39.7500,
6.735226,0.6619,0.2268,-0.3333,0.2014,-0.2755,-0.0032,8.5500,10.3500,-39.7500,
6.736563,0.6619,0.2268,-0.3333,0.2014,-0.2755,-0.0032,8.2500,9.9000,-40.3500,
6.755318,0.6619,0.2268,-0.3333,0.2014,-0.2755,-0.0032,8.2500,9.9000,-40.3500,
6.759009,0.6148,0.4898,-0.4738,0.2014,-0.2755,-0.0032,8.2500,9.9000,-40.3500,
6.775191,0.6148,0.4898,-0.4738,0.2014,-0.2755,-0.0032,8.2500,9.9000,-40.3500,
6.778250,0.3564,0.3541,-0.3454,0.2014,-0.2755,-0.0032,8.2500,9.9000,-40.3500,
6.782802,0.3564,0.3541,-0.3454,0.1932,-0.2144,0.0498,8.2500,9.9000,-40.3500,
6.794658,0.3564,0.3541,-0.3454,0.1932,-0.2144,0.0498,8.2500,9.9000,-40.3500,
6.797365,0.1910,0.3954,-0.3236,0.1932,-0.2144,0.0498,8.2500,9.9000,-40.3500,
6.805300,0.1910,0.3954,-0.3236,0.1932,-0.2144,0.0498,7.3500,9.4500,-40.5750,
6.815890,0.1910,0.3954,-0.3236,0.1932,-0.2144,0.0498,7.3500,9.4500,-40.5750,
6.817706,-0.0475,0.0475,-0.1276,0.1932,-0.2144,0.0498,7.3500,9.4500,-40.5750,
6.830976,-0.0475,0.0475,-0.1276,0.1932,-0.2144,0.0498,7.3500,9.4500,-40.5750,
6.833096,0.4462,0.6965,-0.3881,0.1932,-0.2144,0.0498,7.3500,9.4500,-40.5750,
6.847889,0.4462,0.6965,-0.3881,0.2007,-0.1313,0.1567,7.3500,9.4500,-40.5750,
6.853007,0.4462,0.6965,-0.3881,0.2007,-0.1313,0.1567,7.3500,9.4500,-40.5750,
6.854614,0.2866,0.6418,-0.4429,0.2007,-0.1313,0.1567,7.3500,9.4500,-40.5750,
6.872490,0.2866,0.6418,-0.4429,0.2007,-0.1313,0.1567,7.3500,9.4500,-40.5750,
6.874811,0.0968,0.3578,-0.1599,0.2007,-0.1313,0.1567,7.3500,9.4500,-40.5750,
6.876582,0.0968,0.3578,-0.1599,0.2007,-0.1313,0.1567,6.9000,8.5500,-41.1000,
6.893362,0.0968,0.3578,-0.1599,0.2007,-0.1313,0.1567,6.9000,8.5500,-41.1000,
6.895276,-0.3294,0.0299,0.2101,0.2007,-0.1313,0.1567,6.9000,8.5500,-41.1000,
6.914409,-0.3294,0.0299,0.2101,0.2007,-0.1313,0.1567,6.9000,8.5500,-41.1000,
6.915926,0.2814,0.3260,-0.0404,0.2007,-0.1313,0.1567,6.9000,8.5500,-41.1000,
6.917625,0.2814,0.3260,-0.0404,0.2172,-0.0942,0.2585,6.9000,8.5500,-41.1000,
6.932639,0.2814,0.3260,-0.0404,0.2172,-0.0942,0.2585,6.9000,8.5500,-41.1000,
6.934162,0.2017,0.0262,0.1599,0.2172,-0.0942,0.2585,6.9000,8.5500,-41.1000,
6.942520,0.2017,0.0262,0.1599,0.2172,-0.0942,0.2585,7.0500,7.9500,-40.9500,
6.951373,0.2017,0.0262,0.1599,0.2172,-0.0942,0.2585,7.0500,7.9500,-40.9500,
6.952842,0.1036,-0.1526,-0.0739,0.2172,-0.0942,0.2585,7.0500,7.9500,-40.9500,
6.970983,0.1036,-0.1526,-0.0739,0.2172,-0.0942,0.2585,7.0500,7.9500,-40.9500,
6.974408,-0.3004,-0.1124,0.0299,0.2172,-0.0942,0.2585,7.0500,7.9500,-40.9500,
6.985888,-0.3004,-0.1124,0.0299,0.2388,-0.0591,0.3350,7.0500,7.9500,-40.9500,
6.990758,-0.3004,-0.1124,0.0299,0.2388,-0.0591,0.3350,7.0500,7.9500,-40.9500,
6.992966,-0.2307,0.1204,-0.2759,0.2388,-0.0591,0.3350,7.0500,7.9500,-40.9500,
7.010654,-0.2307,0.1204,-0.2759,0.2388,-0.0591,0.3350,7.0500,7.9500,-40.9500,
7.014128,-0.1015,0.2716,-0.3918,0.2388,-0.0591,0.3350,7.0500,7.9500,-40.9500,
7.016002,-0.1015,0.2716,-0.3918,0.2388,-0.0591,0.3350,6.1500,6.6750,-41.2500,
7.033564,-0.1015,0.2716,-0.3918,0.2388,-0.0591,0.3350,6.1500,6.6750,-41.2500,
7.036418,0.3722,0.7227,-0.3161,0.2388,-0.0591,0.3350,6.1500,6.6750,-41.2500,
7.048612,0.3722,0.7227,-0.3161,0.2388,-0.0591,0.3350,6.1500,6.6750,-41.2500,
7.051110,0.1829,0.1336,-0.0471,0.2388,-0.0591,0.3350,6.1500,6.6750,-41.2500,
7.053588,0.1829,0.1336,-0.0471,0.1739,0.0246,0.3633,6.1500,6.6750,-41.2500,
7.068259,0.1829,0.1336,-0.0471,0.1739,0.0246,0.3633,6.1500,6.6750,-41.2500,
7.070241,0.4116,-0.0934,0.3642,0.1739,0.0246,0.3633,6.1500,6.6750,-41.2500,
7.081652,0.4116,-0.0934,0.3642,0.1739,0.0246,0.3633,5.7000,6.0000,-41.7750,
7.087689,0.4116,-0.0934,0.3642,0.1739,0.0246,0.3633,5.7000,6.0000,-41.7750,
7.089275,0.3534,0.0089,0.3232,0.1739,0.0246,0.3633,5.7000,6.0000,-41.7750,
7.107491,0.3534,0.0089,0.3232,0.1739,0.0246,0.3633,5.7000,6.0000,-41.7750,
7.109838,0.0923,-0.0758,-0.0692,0.1739,0.0246,0.3633,5.7000,6.0000,-41.7750,
7.128804,0.0923,-0.0758,-0.0692,0.2503,0.0884,0.2570,5.7000,6.0000,-41.7750,
7.131285,0.0923,-0.0758,-0.0692,0.2503,0.0884,0.2570,5.7000,6.0000,-41.7750,
7.132629,-0.0330,0.1425,-0.2196,0.2503,0.0884,0.2570,5.7000,6.0000,-41.7750,
7.152762,-0.0330,0.1425,-0.2196,0.2503,0.0884,0.2570,5.7000,6.0000,-41.7750,
7.154638,-0.3484,-0.1377,0.0051,0.2503,0.0884,0.2570,5.7000,6.0000,-41.7750,
7.156201,-0.3484,-0.1377,0.0051,0.2503,0.0884,0.2570,6.2250,5.4000,-40.9500,
7.171834,-0.3484,-0.1377,0.0051,0.2503,0.0884,0.2570,6.2250,5.4000,-40.9500,
7.175287,-0.0118,0.0919,0.0583,0.2503,0.0884,0.2570,6.2250,5.4000,-40.9500,
7.191800,-0.0118,0.0919,0.0583,0.2503,0.0884,0.2570,6.2250,5.4000,-40.9500,
7.194594,-0.0634,-0.2274,-0.0856,0.2503,0.0884,0.2570,6.2250,5.4000,-40.9500,
7.197102,-0.0634,-0.2274,-0.0856,0.1863,0.0024,0.2535,6.2250,5.4000,-40.9500,
7.216386,-0.0634,-0.2274,-0.0856,0.1863,0.0024,0.2535,6.2250,5.4000,-40.9500,
7.218877,-0.1049,-0.1939,0.3410,0.1863,0.0024,0.2535,6.2250,5.4000,-40.9500,
7.220741,-0.1049,-0.1939,0.3410,0.1863,0.0024,0.2535,7.3500,4.9500,-41.2500,
7.238667,-0.1049,-0.1939,0.3410,0.1863,0.0024,0.2535,7.3500,4.9500,-41.2500,
7.240044,0.0959,0.0963,0.0080,0.1863,0.0024,0.2535,7.3500,4.9500,-41.2500,
