
time,ax,ay,az,wx,wy,wz,Bx,By,Bz,
0.081102,0.0000,0.0000,0.0000,0.0000,0.0000,0.0000,0.0000,0.0000,0.0000,
0.081461,0.0000,0.0000,0.0000,0.0000,0.0000,0.0000,0.0000,0.0000,0.0000,
0.081762,0.0000,0.0000,0.0000,0.0000,0.0000,0.0000,0.0000,0.0000,0.0000,
0.106710,0.0000,0.0000,0.0000,0.0000,0.0000,0.0000,0.0000,0.0000,0.0000,
0.108073,0.0000,0.0000,0.0000,0.0000,0.0000,0.0000,-0.6750,8.7750,-44.2500,
0.123821,0.0000,0.0000,0.0000,0.0000,0.0000,0.0000,-0.6750,8.7750,-44.2500,
0.127185,0.0766,0.2247,-0.0249,0.0000,0.0000,0.0000,-0.6750,8.7750,-44.2500,
0.145330,0.0766,0.2247,-0.0249,0.0000,0.0000,0.0000,-0.6750,8.7750,-44.2500,
0.147585,0.0567,0.2341,0.0124,0.0000,0.0000,0.0000,-0.6750,8.7750,-44.2500,
0.149350,0.0567,0.2341,0.0124,-0.0318,0.0484,-0.0342,-0.6750,8.7750,-44.2500,
0.165247,0.0567,0.2341,0.0124,-0.0318,0.0484,-0.0342,-0.6750,8.7750,-44.2500,
0.167048,0.0633,0.1977,-0.0330,-0.0318,0.0484,-0.0342,-0.6750,8.7750,-44.2500,
0.180758,0.0633,0.1977,-0.0330,-0.0318,0.0484,-0.0342,-0.1500,9.4500,-44.0250,
0.186520,0.0633,0.1977,-0.0330,-0.0318,0.0484,-0.0342,-0.1500,9.4500,-44.0250,
0.188383,0.0527,0.1499,-0.1441,-0.0318,0.0484,-0.0342,-0.1500,9.4500,-44.0250,
0.202953,0.0527,0.1499,-0.1441,-0.0318,0.0484,-0.0342,-0.1500,9.4500,-44.0250,
0.205578,-0.0090,0.1519,-0.1740,-0.0318,0.0484,-0.0342,-0.1500,9.4500,-44.0250,
0.217391,-0.0090,0.1519,-0.1740,-0.0469,0.1727,-0.0472,-0.1500,9.4500,-44.0250,
0.222580,-0.0090,0.1519,-0.1740,-0.0469,0.1727,-0.0472,-0.1500,9.4500,-44.0250,
0.224181,-0.1363,-0.0073,0.0787,-0.0469,0.1727,-0.0472,-0.1500,9.4500,-44.0250,
0.243119,-0.1363,-0.0073,0.0787,-0.0469,0.1727,-0.0472,-0.1500,9.4500,-44.0250,
0.245915,-0.1978,-0.4968,0.3547,-0.0469,0.1727,-0.0472,-0.1500,9.4500,-44.0250,
0.248165,-0.1978,-0.4968,0.3547,-0.0469,0.1727,-0.0472,0.7500,9.6750,-44.2500,
0.264529,-0.1978,-0.4968,0.3547,-0.0469,0.1727,-0.0472,0.7500,9.6750,-44.2500,
0.268819,-0.3469,-0.2849,0.5719,-0.0469,0.1727,-0.0472,0.7500,9.6750,-44.2500,
0.281192,-0.3469,-0.2849,0.5719,-0.0469,0.1727,-0.0472,0.7500,9.6750,-44.2500,
0.283455,0.0146,0.2027,-0.0169,-0.0469,0.1727,-0.0472,0.7500,9.6750,-44.2500,
0.285740,0.0146,0.2027,-0.0169,0.0483,0.5206,0.0493,0.7500,9.6750,-44.2500,
0.300842,0.0146,0.2027,-0.0169,0.0483,0.5206,0.0493,0.7500,9.6750,-44.2500,
0.302954,-1.3431,0.5251,-0.6834,0.0483,0.5206,0.0493,0.7500,9.6750,-44.2500,
0.316713,-1.3431,0.5251,-0.6834,0.0483,0.5206,0.0493,2.1000,9.1500,-43.8750,
0.318535,-1.3431,0.5251,-0.6834,0.0483,0.5206,0.0493,2.1000,9.1500,-43.8750,
0.319803,-1.6684,1.0245,-0.6620,0.0483,0.5206,0.0493,2.1000,9.1500,-43.8750,
0.340231,-1.6684,1.0245,-0.6620,0.0483,0.5206,0.0493,2.1000,9.1500,-43.8750,
0.341810,-2.0995,0.9960,-0.1144,0.0483,0.5206,0.0493,2.1000,9.1500,-43.8750,
0.355082,-2.0995,0.9960,-0.1144,-0.0790,0.5430,-0.1336,2.1000,9.1500,-43.8750,
0.363273,-2.0995,0.9960,-0.1144,-0.0790,0.5430,-0.1336,2.1000,9.1500,-43.8750,
0.364765,-2.1794,0.4956,0.2825,-0.0790,0.5430,-0.1336,2.1000,9.1500,-43.8750,
0.380949,-2.1794,0.4956,0.2825,-0.0790,0.5430,-0.1336,2.1000,9.1500,-43.8750,
0.381888,-2.1659,0.0495,0.5371,-0.0790,0.5430,-0.1336,2.1000,9.1500,-43.8750,
0.386464,-2.1659,0.0495,0.5371,-0.0790,0.5430,-0.1336,3.9000,9.6750,-43.6500,
0.399605,-2.1659,0.0495,0.5371,-0.0790,0.5430,-0.1336,3.9000,9.6750,-43.6500,
0.401555,-1.9557,0.2147,0.4967,-0.0790,0.5430,-0.1336,3.9000,9.6750,-43.6500,
0.419325,-1.9557,0.2147,0.4967,-0.0790,0.5430,-0.1336,3.9000,9.6750,-43.6500,
0.420924,-1.3362,0.7175,0.1800,-0.0790,0.5430,-0.1336,3.9000,9.6750,-43.6500,
0.423917,-1.3362,0.7175,0.1800,0.0790,0.6313,-0.2422,3.9000,9.6750,-43.6500,
0.438654,-1.3362,0.7175,0.1800,0.0790,0.6313,-0.2422,3.9000,9.6750,-43.6500,
0.440112,-1.0218,0.9079,-0.1711,0.0790,0.6313,-0.2422,3.9000,9.6750,-43.6500,
0.457708,-1.0218,0.9079,-0.1711,0.0790,0.6313,-0.2422,3.9000,9.6750,-43.6500,
0.459030,-0.9298,1.0424,0.1099,0.0790,0.6313,-0.2422,3.9000,9.6750,-43.6500,
0.460688,-0.9298,1.0424,0.1099,0.0790,0.6313,-0.2422,5.2500,9.5250,-44.1750,
0.482728,-0.9298,1.0424,0.1099,0.0790,0.6313,-0.2422,5.2500,9.5250,-44.1750,
0.485792,-0.3169,0.5180,0.6827,0.0790,0.6313,-0.2422,5.2500,9.5250,-44.1750,
0.496553,-0.3169,0.5180,0.6827,0.0783,0.4525,-0.3279,5.2500,9.5250,-44.1750,
0.501414,-0.3169,0.5180,0.6827,0.0783,0.4525,-0.3279,5.2500,9.5250,-44.1750,
0.503621,-0.2935,0.5190,0.5609,0.0783,0.4525,-0.3279,5.2500,9.5250,-44.1750,
0.520824,-0.2935,0.5190,0.5609,0.0783,0.4525,-0.3279,5.2500,9.5250,-44.1750,
0.523073,-0.7286,0.8661,0.1732,0.0783,0.4525,-0.3279,5.2500,9.5250,-44.1750,
0.525136,-0.7286,0.8661,0.1732,0.0783,0.4525,-0.3279,6.2250,8.5500,-43.3500,
0.540503,-0.7286,0.8661,0.1732,0.0783,0.4525,-0.3279,6.2250,8.5500,-43.3500,
0.542856,-1.0930,1.1016,-0.0767,0.0783,0.4525,-0.3279,6.2250,8.5500,-43.3500,
0.560284,-1.0930,1.1016,-0.0767,0.0783,0.4525,-0.3279,6.2250,8.5500,-43.3500,
0.562823,-1.1434,0.8986,-0.0410,0.0783,0.4525,-0.3279,6.2250,8.5500,-43.3500,
0.564809,-1.1434,0.8986,-0.0410,-0.0360,0.1619,-0.2538,6.2250,8.5500,-43.3500,
0.581024,-1.1434,0.8986,-0.0410,-0.0360,0.1619,-0.2538,6.2250,8.5500,-43.3500,
0.582790,-0.8793,0.5272,0.0552,-0.0360,0.1619,-0.2538,6.2250,8.5500,-43.3500,
0.589813,-0.8793,0.5272,0.0552,-0.0360,0.1619,-0.2538,6.8250,9.3750,-43.3500,
0.598721,-0.8793,0.5272,0.0552,-0.0360,0.1619,-0.2538,6.8250,9.3750,-43.3500,
0.600597,-0.5557,0.2005,-0.2850,-0.0360,0.1619,-0.2538,6.8250,9.3750,-43.3500,
0.619180,-0.5557,0.2005,-0.2850,-0.0360,0.1619,-0.2538,6.8250,9.3750,-43.3500,
0.621452,-0.2938,-0.1502,-0.4124,-0.0360,0.1619,-0.2538,6.8250,9.3750,-43.3500,
0.634681,-0.2938,-0.1502,-0.4124,-0.1814,0.1715,-0.0761,6.8250,9.3750,-43.3500,
0.639628,-0.2938,-0.1502,-0.4124,-0.1814,0.1715,-0.0761,6.8250,9.3750,-43.3500,
0.640609,-0.4795,-0.1226,0.2164,-0.1814,0.1715,-0.0761,6.8250,9.3750,-43.3500,
0.659017,-0.4795,-0.1226,0.2164,-0.1814,0.1715,-0.0761,7.3500,9.3750,-43.2000,
0.660940,-0.4795,-0.1226,0.2164,-0.1814,0.1715,-0.0761,7.3500,9.3750,-43.2000,
0.662323,-1.0264,0.3974,0.7939,-0.1814,0.1715,-0.0761,7.3500,9.3750,-43.2000,
0.674793,-1.0264,0.3974,0.7939,-0.1814,0.1715,-0.0761,7.3500,9.3750,-43.2000,
0.676306,-1.2573,0.8784,0.7365,-0.1814,0.1715,-0.0761,7.3500,9.3750,-43.2000,
0.694430,-1.2573,0.8784,0.7365,-0.1814,0.1715,-0.0761,7.3500,9.3750,-43.2000,
0.695988,-1.2476,1.3954,0.2966,-0.1814,0.1715,-0.0761,7.3500,9.3750,-43.2000,
0.702861,-1.2476,1.3954,0.2966,-0.2184,0.1451,-0.1419,7.3500,9.3750,-43.2000,
0.717878,-1.2476,1.3954,0.2966,-0.2184,0.1451,-0.1419,7.3500,9.3750,-43.2000,
0.722020,-1.2962,2.0529,0.3279,-0.2184,0.1451,-0.1419,7.3500,9.3750,-43.2000,
0.731751,-1.2962,2.0529,0.3279,-0.2184,0.1451,-0.1419,7.7250,9.8250,-42.9000,
0.741635,-1.2962,2.0529,0.3279,-0.2184,0.1451,-0.1419,7.7250,9.8250,-42.9000,
0.744446,-1.2243,2.3834,1.4775,-0.2184,0.1451,-0.1419,7.7250,9.8250,-42.9000,
0.760603,-1.2243,2.3834,1.4775,-0.2184,0.1451,-0.1419,7.7250,9.8250,-42.9000,
0.763625,-0.5732,2.3304,3.4174,-0.2184,0.1451,-0.1419,7.7250,9.8250,-42.9000,
0.775313,-0.5732,2.3304,3.4174,-0.3622,0.2216,-0.1222,7.7250,9.8250,-42.9000,
0.782680,-0.5732,2.3304,3.4174,-0.3622,0.2216,-0.1222,7.7250,9.8250,-42.9000,
0.785228,0.9086,2.8966,2.7202,-0.3622,0.2216,-0.1222,7.7250,9.8250,-42.9000,
0.799603,0.9086,2.8966,2.7202,-0.3622,0.2216,-0.1222,7.7250,9.8250,-42.9000,
0.802182,2.1352,5.1878,-1.0073,-0.3622,0.2216,-0.1222,7.7250,9.8250,-42.9000,
0.804865,2.1352,5.1878,-1.0073,-0.3622,0.2216,-0.1222,8.3250,10.8750,-42.6000,
0.818790,2.1352,5.1878,-1.0073,-0.3622,0.2216,-0.1222,8.3250,10.8750,-42.6000,
0.821024,1.6774,7.6581,-4.0645,-0.3622,0.2216,-0.1222,8.3250,10.8750,-42.6000,
0.838480,1.6774,7.6581,-4.0645,-0.3622,0.2216,-0.1222,8.3250,10.8750,-42.6000,
0.841080,-0.1066,7.6200,-4.2091,-0.3622,0.2216,-0.1222,8.3250,10.8750,-42.6000,
0.843041,-0.1066,7.6200,-4.2091,-0.4372,0.9054,-0.1029,8.3250,10.8750,-42.6000,
0.858308,-0.1066,7.6200,-4.2091,-0.4372,0.9054,-0.1029,8.3250,10.8750,-42.6000,
0.860436,-2.1100,5.7426,-2.5882,-0.4372,0.9054,-0.1029,8.3250,10.8750,-42.6000,
0.868358,-2.1100,5.7426,-2.5882,-0.4372,0.9054,-0.1029,10.1250,12.1500,-42.0000,
0.872861,-2.1100,5.7426,-2.5882,-0.4372,0.9054,-0.1029,10.1250,12.1500,-42.0000,
0.874928,-3.9459,3.6851,-1.2034,-0.4372,0.9054,-0.1029,10.1250,12.1500,-42.0000,
0.897711,-3.9459,3.6851,-1.2034,-0.4372,0.9054,-0.1029,10.1250,12.1500,-42.0000,
0.900678,-4.7051,2.2883,-2.1007,-0.4372,0.9054,-0.1029,10.1250,12.1500,-42.0000,
0.912530,-4.7051,2.2883,-2.1007,-0.7364,0.6811,-0.0192,10.1250,12.1500,-42.0000,
0.917203,-4.7051,2.2883,-2.1007,-0.7364,0.6811,-0.0192,10.1250,12.1500,-42.0000,
0.918991,-3.9710,2.2304,-3.2467,-0.7364,0.6811,-0.0192,10.1250,12.1500,-42.0000,
0.937345,-3.9710,2.2304,-3.2467,-0.7364,0.6811,-0.0192,10.1250,12.1500,-42.0000,
0.938993,-2.8182,2.3785,-1.8413,-0.7364,0.6811,-0.0192,10.1250,12.1500,-42.0000,
0.940529,-2.8182,2.3785,-1.8413,-0.7364,0.6811,-0.0192,12.6750,13.9500,-41.6250,
0.961912,-2.8182,2.3785,-1.8413,-0.7364,0.6811,-0.0192,12.6750,13.9500,-41.6250,
0.963571,-2.0249,2.1883,0.0150,-0.7364,0.6811,-0.0192,12.6750,13.9500,-41.6250,
0.983401,-2.0249,2.1883,0.0150,-0.7364,0.6811,-0.0192,12.6750,13.9500,-41.6250,
0.984836,-2.4856,1.3783,0.7695,-0.7364,0.6811,-0.0192,12.6750,13.9500,-41.6250,
0.986308,-2.4856,1.3783,0.7695,-0.6874,0.4421,-0.1941,12.6750,13.9500,-41.6250,
0.999974,-2.4856,1.3783,0.7695,-0.6874,0.4421,-0.1941,12.6750,13.9500,-41.6250,
1.002782,-3.4102,1.8541,-0.0008,-0.6874,0.4421,-0.1941,12.6750,13.9500,-41.6250,
1.014108,-3.4102,1.8541,-0.0008,-0.6874,0.4421,-0.1941,15.2250,16.8750,-40.6500,
1.019640,-3.4102,1.8541,-0.0008,-0.6874,0.4421,-0.1941,15.2250,16.8750,-40.6500,
1.021564,-3.1409,3.1060,0.6290,-0.6874,0.4421,-0.1941,15.2250,16.8750,-40.6500,
1.039052,-3.1409,3.1060,0.6290,-0.6874,0.4421,-0.1941,15.2250,16.8750,-40.6500,
1.041452,-2.5704,3.4944,1.1625,-0.6874,0.4421,-0.1941,15.2250,16.8750,-40.6500,
1.053802,-2.5704,3.4944,1.1625,-0.2828,0.2978,-0.8071,15.2250,16.8750,-40.6500,
1.058388,-2.5704,3.4944,1.1625,-0.2828,0.2978,-0.8071,15.2250,16.8750,-40.6500,
1.060043,-1.9697,2.6189,-0.6122,-0.2828,0.2978,-0.8071,15.2250,16.8750,-40.6500,
1.079236,-1.9697,2.6189,-0.6122,-0.2828,0.2978,-0.8071,15.6750,17.8500,-39.3000,
1.081807,-1.9697,2.6189,-0.6122,-0.2828,0.2978,-0.8071,15.6750,17.8500,-39.3000,
1.083383,-1.0289,-1.7601,-4.5807,-0.2828,0.2978,-0.8071,15.6750,17.8500,-39.3000,
1.098334,-1.0289,-1.7601,-4.5807,-0.2828,0.2978,-0.8071,15.6750,17.8500,-39.3000,
1.101860,-2.4956,-9.2082,-7.8927,-0.2828,0.2978,-0.8071,15.6750,17.8500,-39.3000,
1.117438,-2.4956,-9.2082,-7.8927,-0.2828,0.2978,-0.8071,15.6750,17.8500,-39.3000,
1.119410,0.8591,-13.1294,-10.8182,-0.2828,0.2978,-0.8071,15.6750,17.8500,-39.3000,
1.122486,0.8591,-13.1294,-10.8182,-1.4474,-0.5577,-1.7686,15.6750,17.8500,-39.3000,
1.136763,0.8591,-13.1294,-10.8182,-1.4474,-0.5577,-1.7686,15.6750,17.8500,-39.3000,
1.139320,4.0982,-8.9371,-5.6327,-1.4474,-0.5577,-1.7686,15.6750,17.8500,-39.3000,
1.147720,4.0982,-8.9371,-5.6327,-1.4474,-0.5577,-1.7686,14.2500,20.7750,-37.4250,
1.156134,4.0982,-8.9371,-5.6327,-1.4474,-0.5577,-1.7686,14.2500,20.7750,-37.4250,
1.157724,1.6169,-3.6177,-7.4633,-1.4474,-0.5577,-1.7686,14.2500,20.7750,-37.4250,
1.172973,1.6169,-3.6177,-7.4633,-1.4474,-0.5577,-1.7686,14.2500,20.7750,-37.4250,
1.174605,-1.2118,-2.0142,0.5910,-1.4474,-0.5577,-1.7686,14.2500,20.7750,-37.4250,
1.190924,-1.2118,-2.0142,0.5910,-2.4535,-2.5028,-1.9555,14.2500,20.7750,-37.4250,
1.195553,-1.2118,-2.0142,0.5910,-2.4535,-2.5028,-1.9555,14.2500,20.7750,-37.4250,
1.197373,-3.3752,-0.8279,3.4252,-2.4535,-2.5028,-1.9555,14.2500,20.7750,-37.4250,
1.214595,-3.3752,-0.8279,3.4252,-2.4535,-2.5028,-1.9555,14.2500,20.7750,-37.4250,
1.215607,-0.5204,0.2845,3.0098,-2.4535,-2.5028,-1.9555,14.2500,20.7750,-37.4250,
1.216582,-0.5204,0.2845,3.0098,-2.4535,-2.5028,-1.9555,7.5750,27.2250,-34.5750,
1.234901,-0.5204,0.2845,3.0098,-2.4535,-2.5028,-1.9555,7.5750,27.2250,-34.5750,
1.235953,3.4687,2.4042,3.3137,-2.4535,-2.5028,-1.9555,7.5750,27.2250,-34.5750,
1.255102,3.4687,2.4042,3.3137,-2.4535,-2.5028,-1.9555,7.5750,27.2250,-34.5750,
1.257370,3.0009,3.7509,1.8850,-2.4535,-2.5028,-1.9555,7.5750,27.2250,-34.5750,
1.259584,3.0009,3.7509,1.8850,-0.9444,-0.8549,-1.4376,7.5750,27.2250,-34.5750,
1.274036,3.0009,3.7509,1.8850,-0.9444,-0.8549,-1.4376,7.5750,27.2250,-34.5750,
1.276336,0.7310,3.5387,0.5247,-0.9444,-0.8549,-1.4376,7.5750,27.2250,-34.5750,
1.289225,0.7310,3.5387,0.5247,-0.9444,-0.8549,-1.4376,2.2500,30.7500,-32.5500,
1.298497,0.7310,3.5387,0.5247,-0.9444,-0.8549,-1.4376,2.2500,30.7500,-32.5500,
1.300628,-1.0826,1.0596,1.3442,-0.9444,-0.8549,-1.4376,2.2500,30.7500,-32.5500,
1.317958,-1.0826,1.0596,1.3442,-0.9444,-0.8549,-1.4376,2.2500,30.7500,-32.5500,
1.320234,-2.8624,-2.1826,1.8734,-0.9444,-0.8549,-1.4376,2.2500,30.7500,-32.5500,
1.332421,-2.8624,-2.1826,1.8734,0.1135,0.2636,-1.8970,2.2500,30.7500,-32.5500,
1.338187,-2.8624,-2.1826,1.8734,0.1135,0.2636,-1.8970,2.2500,30.7500,-32.5500,
1.339781,-4.2817,-3.6952,1.6311,0.1135,0.2636,-1.8970,2.2500,30.7500,-32.5500,
1.352021,-4.2817,-3.6952,1.6311,0.1135,0.2636,-1.8970,2.2500,30.7500,-32.5500,
1.354498,-4.5930,-2.5006,0.2101,0.1135,0.2636,-1.8970,2.2500,30.7500,-32.5500,
1.357336,-4.5930,-2.5006,0.2101,0.1135,0.2636,-1.8970,-0.6750,30.2250,-32.3250,
1.373204,-4.5930,-2.5006,0.2101,0.1135,0.2636,-1.8970,-0.6750,30.2250,-32.3250,
1.375507,-4.1138,0.1221,-0.6198,0.1135,0.2636,-1.8970,-0.6750,30.2250,-32.3250,
1.391225,-4.1138,0.1221,-0.6198,0.1135,0.2636,-1.8970,-0.6750,30.2250,-32.3250,
1.393867,-3.6886,2.4603,-0.0625,0.1135,0.2636,-1.8970,-0.6750,30.2250,-32.3250,
1.401974,-3.6886,2.4603,-0.0625,1.4031,0.7811,-1.5235,-0.6750,30.2250,-32.3250,
1.415502,-3.6886,2.4603,-0.0625,1.4031,0.7811,-1.5235,-0.6750,30.2250,-32.3250,
1.417517,-2.5572,3.6701,-0.9618,1.4031,0.7811,-1.5235,-0.6750,30.2250,-32.3250,
1.427227,-2.5572,3.6701,-0.9618,1.4031,0.7811,-1.5235,-2.2500,27.3750,-35.3250,
1.434885,-2.5572,3.6701,-0.9618,1.4031,0.7811,-1.5235,-2.2500,27.3750,-35.3250,
1.436369,-2.9031,1.3353,-0.0130,1.4031,0.7811,-1.5235,-2.2500,27.3750,-35.3250,
1.454542,-2.9031,1.3353,-0.0130,1.4031,0.7811,-1.5235,-2.2500,27.3750,-35.3250,
1.456573,-5.2343,-2.1476,-2.3490,1.4031,0.7811,-1.5235,-2.2500,27.3750,-35.3250,
1.469530,-5.2343,-2.1476,-2.3490,2.5407,1.1166,-0.5148,-2.2500,27.3750,-35.3250,
1.474254,-5.2343,-2.1476,-2.3490,2.5407,1.1166,-0.5148,-2.2500,27.3750,-35.3250,
1.475843,-3.5732,1.0125,-2.4885,2.5407,1.1166,-0.5148,-2.2500,27.3750,-35.3250,
1.496074,-3.5732,1.0125,-2.4885,2.5407,1.1166,-0.5148,-2.2500,27.3750,-35.3250,
1.498730,1.1205,6.6823,-1.4090,2.5407,1.1166,-0.5148,-2.2500,27.3750,-35.3250,
1.500364,1.1205,6.6823,-1.4090,2.5407,1.1166,-0.5148,-0.9750,20.9250,-38.3250,
1.514100,1.1205,6.6823,-1.4090,2.5407,1.1166,-0.5148,-0.9750,20.9250,-38.3250,
1.515738,16.9543,7.5945,-2.4197,2.5407,1.1166,-0.5148,-0.9750,20.9250,-38.3250,
1.537807,16.9543,7.5945,-2.4197,2.5407,1.1166,-0.5148,-0.9750,20.9250,-38.3250,
1.540387,18.9996,-0.6827,-8.0327,2.5407,1.1166,-0.5148,-0.9750,20.9250,-38.3250,
1.548326,18.9996,-0.6827,-8.0327,2.4631,1.7470,-1.6290,-0.9750,20.9250,-38.3250,
1.557295,18.9996,-0.6827,-8.0327,2.4631,1.7470,-1.6290,-0.9750,20.9250,-38.3250,
1.559084,11.3011,-7.2121,0.3619,2.4631,1.7470,-1.6290,-0.9750,20.9250,-38.3250,
1.567577,11.3011,-7.2121,0.3619,2.4631,1.7470,-1.6290,2.7000,12.7500,-41.0250,
1.572514,11.3011,-7.2121,0.3619,2.4631,1.7470,-1.6290,2.7000,12.7500,-41.0250,
1.574422,14.6026,-3.5540,0.6862,2.4631,1.7470,-1.6290,2.7000,12.7500,-41.0250,
1.596347,14.6026,-3.5540,0.6862,2.4631,1.7470,-1.6290,2.7000,12.7500,-41.0250,
1.598906,19.8025,-2.3328,6.3892,2.4631,1.7470,-1.6290,2.7000,12.7500,-41.0250,
1.612176,19.8025,-2.3328,6.3892,1.0311,-0.4227,-3.2851,2.7000,12.7500,-41.0250,
1.616112,19.8025,-2.3328,6.3892,1.0311,-0.4227,-3.2851,2.7000,12.7500,-41.0250,
1.618221,13.5782,-0.6282,5.3557,1.0311,-0.4227,-3.2851,2.7000,12.7500,-41.0250,
1.635797,13.5782,-0.6282,5.3557,1.0311,-0.4227,-3.2851,2.7000,12.7500,-41.0250,
1.638138,4.5330,1.1582,2.5550,1.0311,-0.4227,-3.2851,2.7000,12.7500,-41.0250,
1.639957,4.5330,1.1582,2.5550,1.0311,-0.4227,-3.2851,2.4750,8.0250,-41.1000,
1.655367,4.5330,1.1582,2.5550,1.0311,-0.4227,-3.2851,2.4750,8.0250,-41.1000,
1.657454,0.2674,3.7503,2.7204,1.0311,-0.4227,-3.2851,2.4750,8.0250,-41.1000,
1.674800,0.2674,3.7503,2.7204,1.0311,-0.4227,-3.2851,2.4750,8.0250,-41.1000,
1.677785,-4.5624,4.3863,1.0386,1.0311,-0.4227,-3.2851,2.4750,8.0250,-41.1000,
1.680668,-4.5624,4.3863,1.0386,0.3089,-0.0425,-0.2843,2.4750,8.0250,-41.1000,
1.694676,-4.5624,4.3863,1.0386,0.3089,-0.0425,-0.2843,2.4750,8.0250,-41.1000,
1.696859,-3.9040,4.3176,-0.1984,0.3089,-0.0425,-0.2843,2.4750,8.0250,-41.1000,
1.706492,-3.9040,4.3176,-0.1984,0.3089,-0.0425,-0.2843,1.2750,6.1500,-41.1750,
1.715936,-3.9040,4.3176,-0.1984,0.3089,-0.0425,-0.2843,1.2750,6.1500,-41.1750,
1.717954,-2.2878,3.1525,0.7257,0.3089,-0.0425,-0.2843,1.2750,6.1500,-41.1750,
1.733875,-2.2878,3.1525,0.7257,0.3089,-0.0425,-0.2843,1.2750,6.1500,-41.1750,
1.736008,0.2732,2.7013,-0.2456,0.3089,-0.0425,-0.2843,1.2750,6.1500,-41.1750,
1.748011,0.2732,2.7013,-0.2456,0.2779,0.1784,0.4589,1.2750,6.1500,-41.1750,
1.753545,0.2732,2.7013,-0.2456,0.2779,0.1784,0.4589,1.2750,6.1500,-41.1750,
1.754975,2.5739,2.1963,-0.2849,0.2779,0.1784,0.4589,1.2750,6.1500,-41.1750,
1.767914,2.5739,2.1963,-0.2849,0.2779,0.1784,0.4589,1.2750,6.1500,-41.1750,
1.769691,2.6888,1.9339,-0.3089,0.2779,0.1784,0.4589,1.2750,6.1500,-41.1750,
1.777820,2.6888,1.9339,-0.3089,0.2779,0.1784,0.4589,0.8250,5.9250,-41.3250,
1.793956,2.6888,1.9339,-0.3089,0.2779,0.1784,0.4589,0.8250,5.9250,-41.3250,
1.795667,3.9758,1.7115,-0.5909,0.2779,0.1784,0.4589,0.8250,5.9250,-41.3250,
1.813470,3.9758,1.7115,-0.5909,0.2779,0.1784,0.4589,0.8250,5.9250,-41.3250,
1.816181,3.0019,1.2930,-0.9758,0.2779,0.1784,0.4589,0.8250,5.9250,-41.3250,
1.821422,3.0019,1.2930,-0.9758,-0.0495,0.5690,-0.1990,0.8250,5.9250,-41.3250,
1.835846,3.0019,1.2930,-0.9758,-0.0495,0.5690,-0.1990,0.8250,5.9250,-41.3250,
1.838013,1.8851,0.5129,-0.3444,-0.0495,0.5690,-0.1990,0.8250,5.9250,-41.3250,
1.846148,1.8851,0.5129,-0.3444,-0.0495,0.5690,-0.1990,2.4000,5.5500,-41.0250,
1.855515,1.8851,0.5129,-0.3444,-0.0495,0.5690,-0.1990,2.4000,5.5500,-41.0250,
1.857466,1.2223,0.8946,0.3376,-0.0495,0.5690,-0.1990,2.4000,5.5500,-41.0250,
1.870650,1.2223,0.8946,0.3376,-0.0495,0.5690,-0.1990,2.4000,5.5500,-41.0250,
1.873228,-0.0127,2.4034,0.3607,-0.0495,0.5690,-0.1990,2.4000,5.5500,-41.0250,
1.889960,-0.0127,2.4034,0.3607,0.1174,0.2460,-0.2062,2.4000,5.5500,-41.0250,
1.892104,-0.0127,2.4034,0.3607,0.1174,0.2460,-0.2062,2.4000,5.5500,-41.0250,
1.893552,-0.1299,3.3419,0.4267,0.1174,0.2460,-0.2062,2.4000,5.5500,-41.0250,
1.914356,-0.1299,3.3419,0.4267,0.1174,0.2460,-0.2062,2.4000,5.5500,-41.0250,
1.916491,0.3278,2.7749,0.3898,0.1174,0.2460,-0.2062,2.4000,5.5500,-41.0250,
1.918579,0.3278,2.7749,0.3898,0.1174,0.2460,-0.2062,2.5500,5.3250,-41.4000,
1.934131,0.3278,2.7749,0.3898,0.1174,0.2460,-0.2062,2.5500,5.3250,-41.4000,
1.935990,0.1689,1.5935,-0.0430,0.1174,0.2460,-0.2062,2.5500,5.3250,-41.4000,
1.953765,0.1689,1.5935,-0.0430,0.1174,0.2460,-0.2062,2.5500,5.3250,-41.4000,
1.955820,0.0249,0.8914,-0.0272,0.1174,0.2460,-0.2062,2.5500,5.3250,-41.4000,
1.958031,0.0249,0.8914,-0.0272,0.1371,0.2701,0.0458,2.5500,5.3250,-41.4000,
1.972781,0.0249,0.8914,-0.0272,0.1371,0.2701,0.0458,2.5500,5.3250,-41.4000,
1.974642,0.4270,0.7568,-0.1800,0.1371,0.2701,0.0458,2.5500,5.3250,-41.4000,
1.986260,0.4270,0.7568,-0.1800,0.1371,0.2701,0.0458,3.5250,4.9500,-41.6250,
1.994081,0.4270,0.7568,-0.1800,0.1371,0.2701,0.0458,3.5250,4.9500,-41.6250,
1.995456,1.2720,0.6900,-0.7119,0.1371,0.2701,0.0458,3.5250,4.9500,-41.6250,
2.015302,1.2720,0.6900,-0.7119,0.1371,0.2701,0.0458,3.5250,4.9500,-41.6250,
2.018432,1.6389,0.4529,-0.7657,0.1371,0.2701,0.0458,3.5250,4.9500,-41.6250,
2.032517,1.6389,0.4529,-0.7657,-0.0111,0.2582,0.2837,3.5250,4.9500,-41.6250,
2.035672,1.6389,0.4529,-0.7657,-0.0111,0.2582,0.2837,3.5250,4.9500,-41.6250,
2.037972,1.2497,0.1699,-1.2934,-0.0111,0.2582,0.2837,3.5250,4.9500,-41.6250,
2.057189,1.2497,0.1699,-1.2934,-0.0111,0.2582,0.2837,3.5250,4.9500,-41.6250,
2.061258,0.7846,0.4386,-1.0476,-0.0111,0.2582,0.2837,3.5250,4.9500,-41.6250,
2.064350,0.7846,0.4386,-1.0476,-0.0111,0.2582,0.2837,4.2750,4.7250,-41.0250,
2.072828,0.7846,0.4386,-1.0476,-0.0111,0.2582,0.2837,4.2750,4.7250,-41.0250,
2.075850,0.6010,0.4745,-0.6600,-0.0111,0.2582,0.2837,4.2750,4.7250,-41.0250,
2.095116,0.6010,0.4745,-0.6600,-0.0111,0.2582,0.2837,4.2750,4.7250,-41.0250,
2.097397,0.8035,0.1370,-0.2519,-0.0111,0.2582,0.2837,4.2750,4.7250,-41.0250,
2.100435,0.8035,0.1370,-0.2519,-0.2834,0.2283,0.5038,4.2750,4.7250,-41.0250,
2.114899,0.8035,0.1370,-0.2519,-0.2834,0.2283,0.5038,4.2750,4.7250,-41.0250,
2.117055,0.7314,-0.1331,-0.6818,-0.2834,0.2283,0.5038,4.2750,4.7250,-41.0250,
2.127251,0.7314,-0.1331,-0.6818,-0.2834,0.2283,0.5038,5.6250,5.2500,-41.7000,
2.134366,0.7314,-0.1331,-0.6818,-0.2834,0.2283,0.5038,5.6250,5.2500,-41.7000,
2.136272,0.4421,0.0693,-0.2877,-0.2834,0.2283,0.5038,5.6250,5.2500,-41.7000,
2.154315,0.4421,0.0693,-0.2877,-0.2834,0.2283,0.5038,5.6250,5.2500,-41.7000,
2.156704,0.3504,0.2123,0.3139,-0.2834,0.2283,0.5038,5.6250,5.2500,-41.7000,
2.168703,0.3504,0.2123,0.3139,-0.5139,0.1472,0.4820,5.6250,5.2500,-41.7000,
2.172961,0.3504,0.2123,0.3139,-0.5139,0.1472,0.4820,5.6250,5.2500,-41.7000,
2.174316,0.3285,0.0909,0.3113,-0.5139,0.1472,0.4820,5.6250,5.2500,-41.7000,
2.193060,0.3285,0.0909,0.3113,-0.5139,0.1472,0.4820,5.6250,5.2500,-41.7000,
2.194934,0.2243,-0.0988,-0.0373,-0.5139,0.1472,0.4820,5.6250,5.2500,-41.7000,
2.197336,0.2243,-0.0988,-0.0373,-0.5139,0.1472,0.4820,5.3250,6.4500,-41.6250,
2.214890,0.2243,-0.0988,-0.0373,-0.5139,0.1472,0.4820,5.3250,6.4500,-41.6250,
2.217888,0.0246,-0.3242,-0.1739,-0.5139,0.1472,0.4820,5.3250,6.4500,-41.6250,
2.233088,0.0246,-0.3242,-0.1739,-0.5139,0.1472,0.4820,5.3250,6.4500,-41.6250,
2.235213,-0.4164,-0.3306,-0.2830,-0.5139,0.1472,0.4820,5.3250,6.4500,-41.6250,
2.237163,-0.4164,-0.3306,-0.2830,-0.5149,0.1678,0.3705,5.3250,6.4500,-41.6250,
2.251997,-0.4164,-0.3306,-0.2830,-0.5149,0.1678,0.3705,5.3250,6.4500,-41.6250,
2.255132,-0.6875,-0.2261,-0.0529,-0.5149,0.1678,0.3705,5.3250,6.4500,-41.6250,
2.265985,-0.6875,-0.2261,-0.0529,-0.5149,0.1678,0.3705,6.2250,7.9500,-41.0250,
2.271278,-0.6875,-0.2261,-0.0529,-0.5149,0.1678,0.3705,6.2250,7.9500,-41.0250,
2.272626,-0.9610,-0.3022,-0.3792,-0.5149,0.1678,0.3705,6.2250,7.9500,-41.0250,
2.291168,-0.9610,-0.3022,-0.3792,-0.5149,0.1678,0.3705,6.2250,7.9500,-41.0250,
2.293392,-1.2374,-0.3366,-0.0397,-0.5149,0.1678,0.3705,6.2250,7.9500,-41.0250,
2.310627,-1.2374,-0.3366,-0.0397,-0.3468,0.1584,0.2179,6.2250,7.9500,-41.0250,
2.315103,-1.2374,-0.3366,-0.0397,-0.3468,0.1584,0.2179,6.2250,7.9500,-41.0250,
2.316479,-1.3179,-0.2082,-0.5321,-0.3468,0.1584,0.2179,6.2250,7.9500,-41.0250,
2.335535,-1.3179,-0.2082,-0.5321,-0.3468,0.1584,0.2179,6.2250,7.9500,-41.0250,
2.337884,-1.0839,0.0292,-0.5635,-0.3468,0.1584,0.2179,6.2250,7.9500,-41.0250,
2.339911,-1.0839,0.0292,-0.5635,-0.3468,0.1584,0.2179,6.8250,9.0750,-41.4750,
2.355023,-1.0839,0.0292,-0.5635,-0.3468,0.1584,0.2179,6.8250,9.0750,-41.4750,
2.357715,-0.7436,-0.1460,-0.2973,-0.3468,0.1584,0.2179,6.8250,9.0750,-41.4750,
2.373330,-0.7436,-0.1460,-0.2973,-0.3468,0.1584,0.2179,6.8250,9.0750,-41.4750,
2.376480,-0.6522,-0.4325,-0.2801,-0.3468,0.1584,0.2179,6.8250,9.0750,-41.4750,
2.379735,-0.6522,-0.4325,-0.2801,-0.2150,0.1613,0.1223,6.8250,9.0750,-41.4750,
2.394431,-0.6522,-0.4325,-0.2801,-0.2150,0.1613,0.1223,6.8250,9.0750,-41.4750,
2.397468,-0.9482,-0.6837,-0.6939,-0.2150,0.1613,0.1223,6.8250,9.0750,-41.4750,
2.406141,-0.9482,-0.6837,-0.6939,-0.2150,0.1613,0.1223,7.5000,9.2250,-41.1750,
2.413944,-0.9482,-0.6837,-0.6939,-0.2150,0.1613,0.1223,7.5000,9.2250,-41.1750,
2.416568,-0.9934,-0.9081,-0.1467,-0.2150,0.1613,0.1223,7.5000,9.2250,-41.1750,
2.432818,-0.9934,-0.9081,-0.1467,-0.2150,0.1613,0.1223,7.5000,9.2250,-41.1750,
2.435180,-0.1495,-0.8082,0.0289,-0.2150,0.1613,0.1223,7.5000,9.2250,-41.1750,
2.447424,-0.1495,-0.8082,0.0289,-0.1069,0.0757,0.0370,7.5000,9.2250,-41.1750,
2.452995,-0.1495,-0.8082,0.0289,-0.1069,0.0757,0.0370,7.5000,9.2250,-41.1750,
2.454737,0.5590,-0.8222,-0.2448,-0.1069,0.0757,0.0370,7.5000,9.2250,-41.1750,
2.472165,0.5590,-0.8222,-0.2448,-0.1069,0.0757,0.0370,7.5000,9.2250,-41.1750,
2.478374,0.2100,-0.8385,-0.3831,-0.1069,0.0757,0.0370,7.5000,9.2250,-41.1750,
2.480586,0.2100,-0.8385,-0.3831,-0.1069,0.0757,0.0370,7.6500,10.0500,-40.5000,
2.492160,0.2100,-0.8385,-0.3831,-0.1069,0.0757,0.0370,7.6500,10.0500,-40.5000,
2.494285,0.0535,-0.6464,-0.0494,-0.1069,0.0757,0.0370,7.6500,10.0500,-40.5000,
2.512951,0.0535,-0.6464,-0.0494,-0.1069,0.0757,0.0370,7.6500,10.0500,-40.5000,
2.514322,0.5347,-0.3415,-0.3668,-0.1069,0.0757,0.0370,7.6500,10.0500,-40.5000,
2.515486,0.5347,-0.3415,-0.3668,0.0447,0.0591,-0.0348,7.6500,10.0500,-40.5000,
2.531076,0.5347,-0.3415,-0.3668,0.0447,0.0591,-0.0348,7.6500,10.0500,-40.5000,
2.533541,0.6108,-0.0865,-0.4169,0.0447,0.0591,-0.0348,7.6500,10.0500,-40.5000,
2.546370,0.6108,-0.0865,-0.4169,0.0447,0.0591,-0.0348,6.9750,10.3500,-40.8750,
2.549143,0.6108,-0.0865,-0.4169,0.0447,0.0591,-0.0348,6.9750,10.3500,-40.8750,
2.551214,-0.1006,-0.0153,-0.5212,0.0447,0.0591,-0.0348,6.9750,10.3500,-40.8750,
2.571877,-0.1006,-0.0153,-0.5212,0.0447,0.0591,-0.0348,6.9750,10.3500,-40.8750,
2.577881,-0.1721,0.1504,-0.1952,0.0447,0.0591,-0.0348,6.9750,10.3500,-40.8750,
2.587344,-0.1721,0.1504,-0.1952,0.0365,0.0875,-0.0449,6.9750,10.3500,-40.8750,
2.589756,-0.1721,0.1504,-0.1952,0.0365,0.0875,-0.0449,6.9750,10.3500,-40.8750,
2.591191,0.0859,0.2334,-0.0536,0.0365,0.0875,-0.0449,6.9750,10.3500,-40.8750,
2.609695,0.0859,0.2334,-0.0536,0.0365,0.0875,-0.0449,6.9750,10.3500,-40.8750,
2.610939,0.1506,0.1768,-0.0845,0.0365,0.0875,-0.0449,6.9750,10.3500,-40.8750,
2.617540,0.1506,0.1768,-0.0845,0.0365,0.0875,-0.0449,7.4250,10.3500,-40.8000,
2.634155,0.1506,0.1768,-0.0845,0.0365,0.0875,-0.0449,7.4250,10.3500,-40.8000,
2.636279,0.0537,0.1456,-0.2566,0.0365,0.0875,-0.0449,7.4250,10.3500,-40.8000,
2.653515,0.0537,0.1456,-0.2566,0.0365,0.0875,-0.0449,7.4250,10.3500,-40.8000,
2.656006,0.0152,0.2886,-0.2929,0.0365,0.0875,-0.0449,7.4250,10.3500,-40.8000,
2.658289,0.0152,0.2886,-0.2929,0.0026,0.1776,-0.0312,7.4250,10.3500,-40.8000,
2.673212,0.0152,0.2886,-0.2929,0.0026,0.1776,-0.0312,7.4250,10.3500,-40.8000,
2.675684,0.3306,0.3567,-0.2178,0.0026,0.1776,-0.0312,7.4250,10.3500,-40.8000,
2.686461,0.3306,0.3567,-0.2178,0.0026,0.1776,-0.0312,7.9500,10.5750,-40.2750,
2.691923,0.3306,0.3567,-0.2178,0.0026,0.1776,-0.0312,7.9500,10.5750,-40.2750,
2.693786,0.7800,0.4535,-0.2683,0.0026,0.1776,-0.0312,7.9500,10.5750,-40.2750,
2.711610,0.7800,0.4535,-0.2683,0.0026,0.1776,-0.0312,7.9500,10.5750,-40.2750,
2.714246,0.8831,0.4370,-0.4635,0.0026,0.1776,-0.0312,7.9500,10.5750,-40.2750,
2.728459,0.8831,0.4370,-0.4635,-0.1095,0.2439,0.0402,7.9500,10.5750,-40.2750,
2.732658,0.8831,0.4370,-0.4635,-0.1095,0.2439,0.0402,7.9500,10.5750,-40.2750,
2.734600,0.5562,0.1519,-0.2846,-0.1095,0.2439,0.0402,7.9500,10.5750,-40.2750,
2.751245,0.5562,0.1519,-0.2846,-0.1095,0.2439,0.0402,7.9500,10.5750,-40.2750,
2.753806,0.7352,0.0367,0.0109,-0.1095,0.2439,0.0402,7.9500,10.5750,-40.2750,
2.756833,0.7352,0.0367,0.0109,-0.1095,0.2439,0.0402,8.7750,10.2750,-40.5000,
2.769983,0.7352,0.0367,0.0109,-0.1095,0.2439,0.0402,8.7750,10.2750,-40.5000,
2.771723,1.2700,0.1180,-0.0942,-0.1095,0.2439,0.0402,8.7750,10.2750,-40.5000,
2.789878,1.2700,0.1180,-0.0942,-0.1095,0.2439,0.0402,8.7750,10.2750,-40.5000,
2.792213,1.1623,0.4138,-0.4814,-0.1095,0.2439,0.0402,8.7750,10.2750,-40.5000,
2.796446,1.1623,0.4138,-0.4814,-0.1981,0.2732,0.1518,8.7750,10.2750,-40.5000,
2.815671,1.1623,0.4138,-0.4814,-0.1981,0.2732,0.1518,8.7750,10.2750,-40.5000,
2.818539,0.6486,-0.1228,-0.3962,-0.1981,0.2732,0.1518,8.7750,10.2750,-40.5000,
2.831763,0.6486,-0.1228,-0.3962,-0.1981,0.2732,0.1518,9.0000,10.7250,-40.2750,
2.834249,0.6486,-0.1228,-0.3962,-0.1981,0.2732,0.1518,9.0000,10.7250,-40.2750,
2.835697,0.8840,0.0049,0.3500,-0.1981,0.2732,0.1518,9.0000,10.7250,-40.2750,
2.849034,0.8840,0.0049,0.3500,-0.1981,0.2732,0.1518,9.0000,10.7250,-40.2750,
2.850594,1.1470,-0.2854,0.2795,-0.1981,0.2732,0.1518,9.0000,10.7250,-40.2750,
2.864796,1.1470,-0.2854,0.2795,-0.2071,0.3268,0.2553,9.0000,10.7250,-40.2750,
2.867878,1.1470,-0.2854,0.2795,-0.2071,0.3268,0.2553,9.0000,10.7250,-40.2750,
2.869437,1.7178,-0.1774,-0.1606,-0.2071,0.3268,0.2553,9.0000,10.7250,-40.2750,
2.888317,1.7178,-0.1774,-0.1606,-0.2071,0.3268,0.2553,9.0000,10.7250,-40.2750,
2.890627,2.1399,0.1614,-0.1273,-0.2071,0.3268,0.2553,9.0000,10.7250,-40.2750,
2.899345,2.1399,0.1614,-0.1273,-0.2071,0.3268,0.2553,10.2000,11.1750,-40.3500,
2.915241,2.1399,0.1614,-0.1273,-0.2071,0.3268,0.2553,10.2000,11.1750,-40.3500,
2.917894,2.0595,0.2949,0.0281,-0.2071,0.3268,0.2553,10.2000,11.1750,-40.3500,
2.932105,2.0595,0.2949,0.0281,-0.2071,0.3268,0.2553,10.2000,11.1750,-40.3500,
2.934441,1.7923,0.2572,0.1860,-0.2071,0.3268,0.2553,10.2000,11.1750,-40.3500,
2.936563,1.7923,0.2572,0.1860,-0.1394,0.4737,0.4374,10.2000,11.1750,-40.3500,
2.951956,1.7923,0.2572,0.1860,-0.1394,0.4737,0.4374,10.2000,11.1750,-40.3500,
2.954220,1.9341,0.0027,0.2116,-0.1394,0.4737,0.4374,10.2000,11.1750,-40.3500,
2.966389,1.9341,0.0027,0.2116,-0.1394,0.4737,0.4374,10.2000,11.1750,-40.3500,
2.968520,2.1111,-0.2367,0.2422,-0.1394,0.4737,0.4374,10.2000,11.1750,-40.3500,
2.970749,2.1111,-0.2367,0.2422,-0.1394,0.4737,0.4374,12.0000,10.8750,-39.3750,
2.987243,2.1111,-0.2367,0.2422,-0.1394,0.4737,0.4374,12.0000,10.8750,-39.3750,
2.988814,2.2936,-0.2047,0.2612,-0.1394,0.4737,0.4374,12.0000,10.8750,-39.3750,
3.006431,2.2936,-0.2047,0.2612,-0.0715,0.4038,0.8214,12.0000,10.8750,-39.3750,
3.014649,2.2936,-0.2047,0.2612,-0.0715,0.4038,0.8214,12.0000,10.8750,-39.3750,
3.016152,2.2837,-0.0721,-0.4734,-0.0715,0.4038,0.8214,12.0000,10.8750,-39.3750,
3.031933,2.2837,-0.0721,-0.4734,-0.0715,0.4038,0.8214,12.0000,10.8750,-39.3750,
3.033709,1.9781,0.2706,-0.8779,-0.0715,0.4038,0.8214,12.0000,10.8750,-39.3750,
3.035162,1.9781,0.2706,-0.8779,-0.0715,0.4038,0.8214,13.5750,11.5500,-38.8500,
3.049933,1.9781,0.2706,-0.8779,-0.0715,0.4038,0.8214,13.5750,11.5500,-38.8500,
3.051803,1.9303,0.4066,-0.7131,-0.0715,0.4038,0.8214,13.5750,11.5500,-38.8500,
3.068675,1.9303,0.4066,-0.7131,-0.0715,0.4038,0.8214,13.5750,11.5500,-38.8500,
3.070602,1.7355,0.6336,-0.4972,-0.0715,0.4038,0.8214,13.5750,11.5500,-38.8500,
3.072752,1.7355,0.6336,-0.4972,-0.1993,0.2265,1.1217,13.5750,11.5500,-38.8500,
3.088315,1.7355,0.6336,-0.4972,-0.1993,0.2265,1.1217,13.5750,11.5500,-38.8500,
3.090604,1.0463,0.8547,-0.4498,-0.1993,0.2265,1.1217,13.5750,11.5500,-38.8500,
3.098696,1.0463,0.8547,-0.4498,-0.1993,0.2265,1.1217,15.2250,11.2500,-38.5500,
3.108036,1.0463,0.8547,-0.4498,-0.1993,0.2265,1.1217,15.2250,11.2500,-38.5500,
3.109593,0.3743,1.2760,-0.4958,-0.1993,0.2265,1.1217,15.2250,11.2500,-38.5500,
3.123102,0.3743,1.2760,-0.4958,-0.1993,0.2265,1.1217,15.2250,11.2500,-38.5500,
3.125017,-0.1195,1.4575,-0.3403,-0.1993,0.2265,1.1217,15.2250,11.2500,-38.5500,
3.141909,-0.1195,1.4575,-0.3403,-0.5143,0.3697,1.2472,15.2250,11.2500,-38.5500,
3.151046,-0.1195,1.4575,-0.3403,-0.5143,0.3697,1.2472,15.2250,11.2500,-38.5500,
3.152779,-0.2020,1.3856,0.0891,-0.5143,0.3697,1.2472,15.2250,11.2500,-38.5500,
3.166946,-0.2020,1.3856,0.0891,-0.5143,0.3697,1.2472,15.2250,11.2500,-38.5500,
3.169179,-0.4979,1.3044,-0.1505,-0.5143,0.3697,1.2472,15.2250,11.2500,-38.5500,
3.171355,-0.4979,1.3044,-0.1505,-0.5143,0.3697,1.2472,16.8750,10.9500,-37.5000,
3.191198,-0.4979,1.3044,-0.1505,-0.5143,0.3697,1.2472,16.8750,10.9500,-37.5000,
3.193322,-1.0679,1.2663,-0.0362,-0.5143,0.3697,1.2472,16.8750,10.9500,-37.5000,
3.211840,-1.0679,1.2663,-0.0362,-0.5143,0.3697,1.2472,16.8750,10.9500,-37.5000,
3.215068,-1.8306,1.1479,0.0038,-0.5143,0.3697,1.2472,16.8750,10.9500,-37.5000,
3.217218,-1.8306,1.1479,0.0038,-0.7255,0.3670,1.3689,16.8750,10.9500,-37.5000,
3.232259,-1.8306,1.1479,0.0038,-0.7255,0.3670,1.3689,16.8750,10.9500,-37.5000,
3.234540,-1.9106,1.1585,0.0038,-0.7255,0.3670,1.3689,16.8750,10.9500,-37.5000,
3.240147,-1.9106,1.1585,0.0038,-0.7255,0.3670,1.3689,18.4500,10.9500,-36.9750,
3.249787,-1.9106,1.1585,0.0038,-0.7255,0.3670,1.3689,18.4500,10.9500,-36.9750,
3.251588,-1.7663,0.8400,0.5318,-0.7255,0.3670,1.3689,18.4500,10.9500,-36.9750,
3.269629,-1.7663,0.8400,0.5318,-0.7255,0.3670,1.3689,18.4500,10.9500,-36.9750,
3.271871,-1.1514,0.5883,1.0655,-0.7255,0.3670,1.3689,18.4500,10.9500,-36.9750,
3.283570,-1.1514,0.5883,1.0655,-0.8705,0.1880,1.4297,18.4500,10.9500,-36.9750,
3.288537,-1.1514,0.5883,1.0655,-0.8705,0.1880,1.4297,18.4500,10.9500,-36.9750,
3.290016,-0.1715,0.9163,1.6426,-0.8705,0.1880,1.4297,18.4500,10.9500,-36.9750,
3.308485,-0.1715,0.9163,1.6426,-0.8705,0.1880,1.4297,18.4500,10.9500,-36.9750,
3.310360,0.7572,0.8813,1.6308,-0.8705,0.1880,1.4297,18.4500,10.9500,-36.9750,
3.311993,0.7572,0.8813,1.6308,-0.8705,0.1880,1.4297,20.0250,11.0250,-35.7750,
3.323208,0.7572,0.8813,1.6308,-0.8705,0.1880,1.4297,20.0250,11.0250,-35.7750,
3.325000,1.0144,0.6632,0.9081,-0.8705,0.1880,1.4297,20.0250,11.0250,-35.7750,
3.348242,1.0144,0.6632,0.9081,-0.8705,0.1880,1.4297,20.0250,11.0250,-35.7750,
3.350980,0.4476,0.5851,0.2113,-0.8705,0.1880,1.4297,20.0250,11.0250,-35.7750,
3.353558,0.4476,0.5851,0.2113,-0.8124,0.2107,1.0739,20.0250,11.0250,-35.7750,
3.367127,0.4476,0.5851,0.2113,-0.8124,0.2107,1.0739,20.0250,11.0250,-35.7750,
3.369232,-0.4746,0.4795,0.7150,-0.8124,0.2107,1.0739,20.0250,11.0250,-35.7750,
3.382357,-0.4746,0.4795,0.7150,-0.8124,0.2107,1.0739,21.9750,11.3250,-34.8750,
3.385897,-0.4746,0.4795,0.7150,-0.8124,0.2107,1.0739,21.9750,11.3250,-34.8750,
3.387394,-1.0772,-0.0697,1.1916,-0.8124,0.2107,1.0739,21.9750,11.3250,-34.8750,
3.401551,-1.0772,-0.0697,1.1916,-0.8124,0.2107,1.0739,21.9750,11.3250,-34.8750,
3.403471,-1.5125,-0.9298,1.0775,-0.8124,0.2107,1.0739,21.9750,11.3250,-34.8750,
3.421125,-1.5125,-0.9298,1.0775,-0.8674,-0.0368,1.0977,21.9750,11.3250,-34.8750,
3.423641,-1.5125,-0.9298,1.0775,-0.8674,-0.0368,1.0977,21.9750,11.3250,-34.8750,
3.425205,-1.7730,-1.6337,0.9693,-0.8674,-0.0368,1.0977,21.9750,11.3250,-34.8750,
3.446911,-1.7730,-1.6337,0.9693,-0.8674,-0.0368,1.0977,21.9750,11.3250,-34.8750,
3.448782,-0.6157,-1.4755,0.9159,-0.8674,-0.0368,1.0977,21.9750,11.3250,-34.8750,
3.450470,-0.6157,-1.4755,0.9159,-0.8674,-0.0368,1.0977,22.0500,12.3750,-33.6000,
3.466142,-0.6157,-1.4755,0.9159,-0.8674,-0.0368,1.0977,22.0500,12.3750,-33.6000,
3.467838,0.5776,-0.4462,0.8126,-0.8674,-0.0368,1.0977,22.0500,12.3750,-33.6000,
3.485570,0.5776,-0.4462,0.8126,-0.8674,-0.0368,1.0977,22.0500,12.3750,-33.6000,
3.487730,0.8066,0.1221,0.5540,-0.8674,-0.0368,1.0977,22.0500,12.3750,-33.6000,
3.490999,0.8066,0.1221,0.5540,-0.5467,-0.4948,0.7523,22.0500,12.3750,-33.6000,
3.504795,0.8066,0.1221,0.5540,-0.5467,-0.4948,0.7523,22.0500,12.3750,-33.6000,
3.506137,0.6355,0.5125,0.2980,-0.5467,-0.4948,0.7523,22.0500,12.3750,-33.6000,
3.517014,0.6355,0.5125,0.2980,-0.5467,-0.4948,0.7523,22.2000,12.8250,-33.3750,
3.524054,0.6355,0.5125,0.2980,-0.5467,-0.4948,0.7523,22.2000,12.8250,-33.3750,
3.526535,-0.2771,1.0265,0.2352,-0.5467,-0.4948,0.7523,22.2000,12.8250,-33.3750,
3.549262,-0.2771,1.0265,0.2352,-0.5467,-0.4948,0.7523,22.2000,12.8250,-33.3750,
3.552503,-2.6198,0.6260,-0.8328,-0.5467,-0.4948,0.7523,22.2000,12.8250,-33.3750,
3.565128,-2.6198,0.6260,-0.8328,-0.2552,-0.6709,0.0892,22.2000,12.8250,-33.3750,
3.568242,-2.6198,0.6260,-0.8328,-0.2552,-0.6709,0.0892,22.2000,12.8250,-33.3750,
3.569967,-5.4177,-2.2360,-2.0452,-0.2552,-0.6709,0.0892,22.2000,12.8250,-33.3750,
3.582710,-5.4177,-2.2360,-2.0452,-0.2552,-0.6709,0.0892,22.2000,12.8250,-33.3750,
3.585796,-5.7234,-3.2326,-1.8114,-0.2552,-0.6709,0.0892,22.2000,12.8250,-33.3750,
3.588715,-5.7234,-3.2326,-1.8114,-0.2552,-0.6709,0.0892,21.2250,13.9500,-34.6500,
3.607305,-5.7234,-3.2326,-1.8114,-0.2552,-0.6709,0.0892,21.2250,13.9500,-34.6500,
3.609613,-1.3576,-0.4786,-0.6429,-0.2552,-0.6709,0.0892,21.2250,13.9500,-34.6500,
3.622436,-1.3576,-0.4786,-0.6429,-0.2552,-0.6709,0.0892,21.2250,13.9500,-34.6500,
3.625200,1.3952,1.4603,-1.4210,-0.2552,-0.6709,0.0892,21.2250,13.9500,-34.6500,
3.633793,1.3952,1.4603,-1.4210,-0.7211,-0.7979,0.5272,21.2250,13.9500,-34.6500,
3.641320,1.3952,1.4603,-1.4210,-0.7211,-0.7979,0.5272,21.2250,13.9500,-34.6500,
3.642835,2.2278,1.0882,-1.1669,-0.7211,-0.7979,0.5272,21.2250,13.9500,-34.6500,
3.656644,2.2278,1.0882,-1.1669,-0.7211,-0.7979,0.5272,19.5000,14.8500,-35.1000,
3.661677,2.2278,1.0882,-1.1669,-0.7211,-0.7979,0.5272,19.5000,14.8500,-35.1000,
3.662882,2.1304,-0.3705,-0.2890,-0.7211,-0.7979,0.5272,19.5000,14.8500,-35.1000,
3.686339,2.1304,-0.3705,-0.2890,-0.7211,-0.7979,0.5272,19.5000,14.8500,-35.1000,
3.688085,0.2970,-1.5229,-0.8475,-0.7211,-0.7979,0.5272,19.5000,14.8500,-35.1000,
3.700237,0.2970,-1.5229,-0.8475,-0.9244,-0.5244,-0.2804,19.5000,14.8500,-35.1000,
3.706390,0.2970,-1.5229,-0.8475,-0.9244,-0.5244,-0.2804,19.5000,14.8500,-35.1000,
3.707799,-1.1350,-1.9450,-0.2101,-0.9244,-0.5244,-0.2804,19.5000,14.8500,-35.1000,
3.720075,-1.1350,-1.9450,-0.2101,-0.9244,-0.5244,-0.2804,19.5000,14.8500,-35.1000,
3.721717,-0.2514,-1.8681,-0.4688,-0.9244,-0.5244,-0.2804,19.5000,14.8500,-35.1000,
3.730318,-0.2514,-1.8681,-0.4688,-0.9244,-0.5244,-0.2804,17.5500,17.9250,-35.2500,
3.739590,-0.2514,-1.8681,-0.4688,-0.9244,-0.5244,-0.2804,17.5500,17.9250,-35.2500,
3.743038,1.2381,-1.0702,-0.1187,-0.9244,-0.5244,-0.2804,17.5500,17.9250,-35.2500,
3.763454,1.2381,-1.0702,-0.1187,-0.9244,-0.5244,-0.2804,17.5500,17.9250,-35.2500,
3.766611,1.9412,-0.9326,0.3466,-0.9244,-0.5244,-0.2804,17.5500,17.9250,-35.2500,
3.768779,1.9412,-0.9326,0.3466,-0.6773,0.1012,-0.7584,17.5500,17.9250,-35.2500,
3.781252,1.9412,-0.9326,0.3466,-0.6773,0.1012,-0.7584,17.5500,17.9250,-35.2500,
3.783742,1.3753,-0.8879,-0.4596,-0.6773,0.1012,-0.7584,17.5500,17.9250,-35.2500,
3.797397,1.3753,-0.8879,-0.4596,-0.6773,0.1012,-0.7584,15.9750,20.8500,-34.0500,
3.802535,1.3753,-0.8879,-0.4596,-0.6773,0.1012,-0.7584,15.9750,20.8500,-34.0500,
3.803935,-0.3032,-0.4457,-0.2459,-0.6773,0.1012,-0.7584,15.9750,20.8500,-34.0500,
3.823367,-0.3032,-0.4457,-0.2459,-0.6773,0.1012,-0.7584,15.9750,20.8500,-34.0500,
3.824705,-0.4917,0.3206,0.4453,-0.6773,0.1012,-0.7584,15.9750,20.8500,-34.0500,
3.843436,-0.4917,0.3206,0.4453,-0.4094,0.0209,-1.1908,15.9750,20.8500,-34.0500,
3.850188,-0.4917,0.3206,0.4453,-0.4094,0.0209,-1.1908,15.9750,20.8500,-34.0500,
3.851976,0.3142,0.4742,0.5399,-0.4094,0.0209,-1.1908,15.9750,20.8500,-34.0500,
3.866192,0.3142,0.4742,0.5399,-0.4094,0.0209,-1.1908,15.9750,20.8500,-34.0500,
3.867895,0.4132,0.5624,0.5544,-0.4094,0.0209,-1.1908,15.9750,20.8500,-34.0500,
3.869546,0.4132,0.5624,0.5544,-0.4094,0.0209,-1.1908,14.9250,23.0250,-33.9000,
3.886648,0.4132,0.5624,0.5544,-0.4094,0.0209,-1.1908,14.9250,23.0250,-33.9000,
3.888133,-0.3577,0.6562,0.4373,-0.4094,0.0209,-1.1908,14.9250,23.0250,-33.9000,
3.907077,-0.3577,0.6562,0.4373,-0.4094,0.0209,-1.1908,14.9250,23.0250,-33.9000,
3.908926,-0.5251,0.7699,0.2086,-0.4094,0.0209,-1.1908,14.9250,23.0250,-33.9000,
3.910525,-0.5251,0.7699,0.2086,-0.2347,-0.2449,-1.1511,14.9250,23.0250,-33.9000,
3.923434,-0.5251,0.7699,0.2086,-0.2347,-0.2449,-1.1511,14.9250,23.0250,-33.9000,
3.929884,-0.1885,0.3834,0.1495,-0.2347,-0.2449,-1.1511,14.9250,23.0250,-33.9000,
3.937185,-0.1885,0.3834,0.1495,-0.2347,-0.2449,-1.1511,13.0500,24.1500,-32.9250,
3.944760,-0.1885,0.3834,0.1495,-0.2347,-0.2449,-1.1511,13.0500,24.1500,-32.9250,
3.945951,0.0733,-0.0029,-0.0269,-0.2347,-0.2449,-1.1511,13.0500,24.1500,-32.9250,
3.964278,0.0733,-0.0029,-0.0269,-0.2347,-0.2449,-1.1511,13.0500,24.1500,-32.9250,
3.966082,-0.5821,-0.2709,0.1216,-0.2347,-0.2449,-1.1511,13.0500,24.1500,-32.9250,
3.980827,-0.5821,-0.2709,0.1216,0.0322,-0.1729,-0.7203,13.0500,24.1500,-32.9250,
3.984297,-0.5821,-0.2709,0.1216,0.0322,-0.1729,-0.7203,13.0500,24.1500,-32.9250,
3.985996,-1.8881,-0.0838,0.3159,0.0322,-0.1729,-0.7203,13.0500,24.1500,-32.9250,
4.003994,-1.8881,-0.0838,0.3159,0.0322,-0.1729,-0.7203,13.0500,24.1500,-32.9250,
4.005577,-2.5016,0.0528,0.2663,0.0322,-0.1729,-0.7203,13.0500,24.1500,-32.9250,
4.008404,-2.5016,0.0528,0.2663,0.0322,-0.1729,-0.7203,11.0250,25.3500,-33.8250,
4.023854,-2.5016,0.0528,0.2663,0.0322,-0.1729,-0.7203,11.0250,25.3500,-33.8250,
4.025590,-1.8543,0.0111,0.4135,0.0322,-0.1729,-0.7203,11.0250,25.3500,-33.8250,
4.043768,-1.8543,0.0111,0.4135,0.0322,-0.1729,-0.7203,11.0250,25.3500,-33.8250,
4.048124,-0.7659,0.1603,0.0770,0.0322,-0.1729,-0.7203,11.0250,25.3500,-33.8250,
4.051200,-0.7659,0.1603,0.0770,0.4592,-0.0095,-0.2541,11.0250,25.3500,-33.8250,
4.068367,-0.7659,0.1603,0.0770,0.4592,-0.0095,-0.2541,11.0250,25.3500,-33.8250,
4.073316,-0.1870,0.2173,-0.6512,0.4592,-0.0095,-0.2541,11.0250,25.3500,-33.8250,
4.088013,-0.1870,0.2173,-0.6512,0.4592,-0.0095,-0.2541,11.0250,25.3500,-33.8250,
4.091967,-0.2765,0.2154,-0.6852,0.4592,-0.0095,-0.2541,11.0250,25.3500,-33.8250,
4.095461,-0.2765,0.2154,-0.6852,0.4592,-0.0095,-0.2541,8.5500,25.6500,-34.9500,
4.106533,-0.2765,0.2154,-0.6852,0.4592,-0.0095,-0.2541,8.5500,25.6500,-34.9500,
4.109343,-0.3344,0.4006,-0.9793,0.4592,-0.0095,-0.2541,8.5500,25.6500,-34.9500,
4.120683,-0.3344,0.4006,-0.9793,0.6287,-0.0345,0.1587,8.5500,25.6500,-34.9500,
4.124492,-0.3344,0.4006,-0.9793,0.6287,-0.0345,0.1587,8.5500,25.6500,-34.9500,
4.125899,0.0876,0.4737,-0.6534,0.6287,-0.0345,0.1587,8.5500,25.6500,-34.9500,
4.144846,0.0876,0.4737,-0.6534,0.6287,-0.0345,0.1587,8.5500,25.6500,-34.9500,
4.147787,0.2917,0.3360,-0.4487,0.6287,-0.0345,0.1587,8.5500,25.6500,-34.9500,
4.149643,0.2917,0.3360,-0.4487,0.6287,-0.0345,0.1587,9.3000,24.3750,-35.7000,
4.165463,0.2917,0.3360,-0.4487,0.6287,-0.0345,0.1587,9.3000,24.3750,-35.7000,
4.168372,0.3462,0.5413,-0.5110,0.6287,-0.0345,0.1587,9.3000,24.3750,-35.7000,
4.184036,0.3462,0.5413,-0.5110,0.6287,-0.0345,0.1587,9.3000,24.3750,-35.7000,
4.186182,0.0355,1.0359,-0.8323,0.6287,-0.0345,0.1587,9.3000,24.3750,-35.7000,
4.188501,0.0355,1.0359,-0.8323,0.5264,0.2436,0.4027,9.3000,24.3750,-35.7000,
4.199420,0.0355,1.0359,-0.8323,0.5264,0.2436,0.4027,9.3000,24.3750,-35.7000,
4.201428,-0.7094,1.2449,-0.8659,0.5264,0.2436,0.4027,9.3000,24.3750,-35.7000,
4.216320,-0.7094,1.2449,-0.8659,0.5264,0.2436,0.4027,9.6750,22.3500,-36.9000,
4.219296,-0.7094,1.2449,-0.8659,0.5264,0.2436,0.4027,9.6750,22.3500,-36.9000,
4.220752,-0.7436,0.9465,-0.7357,0.5264,0.2436,0.4027,9.6750,22.3500,-36.9000,
4.243988,-0.7436,0.9465,-0.7357,0.5264,0.2436,0.4027,9.6750,22.3500,-36.9000,
4.246122,-0.6067,0.6646,-0.8530,0.5264,0.2436,0.4027,9.6750,22.3500,-36.9000,
4.259096,-0.6067,0.6646,-0.8530,0.5264,0.2436,0.4027,9.6750,22.3500,-36.9000,
4.260803,-0.2411,0.5106,-0.6210,0.5264,0.2436,0.4027,9.6750,22.3500,-36.9000,
4.262705,-0.2411,0.5106,-0.6210,0.3456,0.5333,0.6212,9.6750,22.3500,-36.9000,
4.279543,-0.2411,0.5106,-0.6210,0.3456,0.5333,0.6212,9.6750,22.3500,-36.9000,
4.281451,-0.1033,0.4293,-0.5114,0.3456,0.5333,0.6212,9.6750,22.3500,-36.9000,
4.287721,-0.1033,0.4293,-0.5114,0.3456,0.5333,0.6212,11.7750,21.3750,-37.0500,
4.303784,-0.1033,0.4293,-0.5114,0.3456,0.5333,0.6212,11.7750,21.3750,-37.0500,
4.305538,-0.2702,0.9940,-0.6448,0.3456,0.5333,0.6212,11.7750,21.3750,-37.0500,
4.321998,-0.2702,0.9940,-0.6448,0.3456,0.5333,0.6212,11.7750,21.3750,-37.0500,
4.323807,-0.7922,1.7906,-0.5164,0.3456,0.5333,0.6212,11.7750,21.3750,-37.0500,
4.331609,-0.7922,1.7906,-0.5164,0.1483,0.4891,0.4647,11.7750,21.3750,-37.0500,
4.341762,-0.7922,1.7906,-0.5164,0.1483,0.4891,0.4647,11.7750,21.3750,-37.0500,
4.344050,-1.4070,1.9163,-0.2546,0.1483,0.4891,0.4647,11.7750,21.3750,-37.0500,
4.356364,-1.4070,1.9163,-0.2546,0.1483,0.4891,0.4647,14.2500,20.8500,-37.2750,
4.365666,-1.4070,1.9163,-0.2546,0.1483,0.4891,0.4647,14.2500,20.8500,-37.2750,
4.369199,-1.2730,1.7291,-0.6664,0.1483,0.4891,0.4647,14.2500,20.8500,-37.2750,
4.384430,-1.2730,1.7291,-0.6664,0.1483,0.4891,0.4647,14.2500,20.8500,-37.2750,
4.387935,-0.8568,1.4060,-1.2148,0.1483,0.4891,0.4647,14.2500,20.8500,-37.2750,
4.398819,-0.8568,1.4060,-1.2148,-0.0425,0.3421,0.1587,14.2500,20.8500,-37.2750,
4.403708,-0.8568,1.4060,-1.2148,-0.0425,0.3421,0.1587,14.2500,20.8500,-37.2750,
4.405709,-0.4305,1.2633,-1.3173,-0.0425,0.3421,0.1587,14.2500,20.8500,-37.2750,
4.422680,-0.4305,1.2633,-1.3173,-0.0425,0.3421,0.1587,14.2500,20.8500,-37.2750,
4.424617,-0.5892,0.9020,-0.8968,-0.0425,0.3421,0.1587,14.2500,20.8500,-37.2750,
4.431689,-0.5892,0.9020,-0.8968,-0.0425,0.3421,0.1587,15.3750,20.1750,-36.4500,
4.438816,-0.5892,0.9020,-0.8968,-0.0425,0.3421,0.1587,15.3750,20.1750,-36.4500,
4.440723,-0.8803,0.5547,0.1416,-0.0425,0.3421,0.1587,15.3750,20.1750,-36.4500,
4.458468,-0.8803,0.5547,0.1416,-0.0425,0.3421,0.1587,15.3750,20.1750,-36.4500,
4.461247,-1.0919,0.0524,0.5013,-0.0425,0.3421,0.1587,15.3750,20.1750,-36.4500,
4.470957,-1.0919,0.0524,0.5013,-0.2419,-0.0318,-0.3975,15.3750,20.1750,-36.4500,
4.483001,-1.0919,0.0524,0.5013,-0.2419,-0.0318,-0.3975,15.3750,20.1750,-36.4500,
4.484440,-1.2709,-0.6660,-0.2715,-0.2419,-0.0318,-0.3975,15.3750,20.1750,-36.4500,
4.497617,-1.2709,-0.6660,-0.2715,-0.2419,-0.0318,-0.3975,14.8500,20.8500,-36.6750,
4.502898,-1.2709,-0.6660,-0.2715,-0.2419,-0.0318,-0.3975,14.8500,20.8500,-36.6750,
4.504641,-0.7183,-1.3477,0.2046,-0.2419,-0.0318,-0.3975,14.8500,20.8500,-36.6750,
4.523571,-0.7183,-1.3477,0.2046,-0.2419,-0.0318,-0.3975,14.8500,20.8500,-36.6750,
4.525506,0.2467,-1.5104,0.9048,-0.2419,-0.0318,-0.3975,14.8500,20.8500,-36.6750,
4.536793,0.2467,-1.5104,0.9048,-0.2083,-0.1991,-0.3969,14.8500,20.8500,-36.6750,
4.542508,0.2467,-1.5104,0.9048,-0.2083,-0.1991,-0.3969,14.8500,20.8500,-36.6750,
4.543834,0.4623,-1.4584,0.2558,-0.2083,-0.1991,-0.3969,14.8500,20.8500,-36.6750,
4.562893,0.4623,-1.4584,0.2558,-0.2083,-0.1991,-0.3969,14.8500,20.8500,-36.6750,
4.567742,-0.2993,-1.7301,-0.2492,-0.2083,-0.1991,-0.3969,14.8500,20.8500,-36.6750,
4.571861,-0.2993,-1.7301,-0.2492,-0.2083,-0.1991,-0.3969,13.7250,22.5750,-36.2250,
4.584131,-0.2993,-1.7301,-0.2492,-0.2083,-0.1991,-0.3969,13.7250,22.5750,-36.2250,
4.586797,0.1822,-1.8577,-0.7091,-0.2083,-0.1991,-0.3969,13.7250,22.5750,-36.2250,
4.600002,0.1822,-1.8577,-0.7091,-0.2083,-0.1991,-0.3969,13.7250,22.5750,-36.2250,
4.602743,2.9514,-1.4052,-0.6442,-0.2083,-0.1991,-0.3969,13.7250,22.5750,-36.2250,
4.605086,2.9514,-1.4052,-0.6442,-0.2744,-0.6008,-0.5583,13.7250,22.5750,-36.2250,
4.618841,2.9514,-1.4052,-0.6442,-0.2744,-0.6008,-0.5583,13.7250,22.5750,-36.2250,
4.621884,5.0790,-0.6558,-2.1628,-0.2744,-0.6008,-0.5583,13.7250,22.5750,-36.2250,
4.636472,5.0790,-0.6558,-2.1628,-0.2744,-0.6008,-0.5583,11.1000,24.0750,-36.0750,
4.645043,5.0790,-0.6558,-2.1628,-0.2744,-0.6008,-0.5583,11.1000,24.0750,-36.0750,
4.647821,3.7422,-2.1746,1.2378,-0.2744,-0.6008,-0.5583,11.1000,24.0750,-36.0750,
4.665836,3.7422,-2.1746,1.2378,-0.2744,-0.6008,-0.5583,11.1000,24.0750,-36.0750,
4.668450,2.9095,-3.7647,1.0717,-0.2744,-0.6008,-0.5583,11.1000,24.0750,-36.0750,
4.680066,2.9095,-3.7647,1.0717,-0.6829,-0.0614,-0.3989,11.1000,24.0750,-36.0750,
4.683223,2.9095,-3.7647,1.0717,-0.6829,-0.0614,-0.3989,11.1000,24.0750,-36.0750,
4.684629,0.8417,-3.9920,0.0485,-0.6829,-0.0614,-0.3989,11.1000,24.0750,-36.0750,
4.703268,0.8417,-3.9920,0.0485,-0.6829,-0.0614,-0.3989,11.1000,24.0750,-36.0750,
4.705753,-1.2398,-3.2876,-0.6499,-0.6829,-0.0614,-0.3989,11.1000,24.0750,-36.0750,
4.707777,-1.2398,-3.2876,-0.6499,-0.6829,-0.0614,-0.3989,9.3750,25.6500,-36.1500,
4.722152,-1.2398,-3.2876,-0.6499,-0.6829,-0.0614,-0.3989,9.3750,25.6500,-36.1500,
4.725451,-2.1229,-2.0837,-0.2758,-0.6829,-0.0614,-0.3989,9.3750,25.6500,-36.1500,
4.741583,-2.1229,-2.0837,-0.2758,-0.6829,-0.0614,-0.3989,9.3750,25.6500,-36.1500,
4.746223,-2.2642,-1.0695,0.5093,-0.6829,-0.0614,-0.3989,9.3750,25.6500,-36.1500,
4.749617,-2.2642,-1.0695,0.5093,-0.5931,0.4788,0.4053,9.3750,25.6500,-36.1500,
4.766550,-2.2642,-1.0695,0.5093,-0.5931,0.4788,0.4053,9.3750,25.6500,-36.1500,
4.768567,-1.4598,-1.2233,0.8666,-0.5931,0.4788,0.4053,9.3750,25.6500,-36.1500,
4.777373,-1.4598,-1.2233,0.8666,-0.5931,0.4788,0.4053,9.3750,25.6500,-36.1500,
4.780303,-1.2199,-1.3075,0.8639,-0.5931,0.4788,0.4053,9.3750,25.6500,-36.1500,
4.782209,-1.2199,-1.3075,0.8639,-0.5931,0.4788,0.4053,10.1250,27.6750,-34.5750,
4.802870,-1.2199,-1.3075,0.8639,-0.5931,0.4788,0.4053,10.1250,27.6750,-34.5750,
4.804198,-0.7096,-2.0870,0.7435,-0.5931,0.4788,0.4053,10.1250,27.6750,-34.5750,
4.815528,-0.7096,-2.0870,0.7435,-0.5931,0.4788,0.4053,10.1250,27.6750,-34.5750,
4.817172,0.1355,-1.8833,-0.3310,-0.5931,0.4788,0.4053,10.1250,27.6750,-34.5750,
4.818579,0.1355,-1.8833,-0.3310,-0.3662,0.4830,0.7691,10.1250,27.6750,-34.5750,
4.835324,0.1355,-1.8833,-0.3310,-0.3662,0.4830,0.7691,10.1250,27.6750,-34.5750,
4.837072,0.4391,-1.6039,-0.1139,-0.3662,0.4830,0.7691,10.1250,27.6750,-34.5750,
4.847979,0.4391,-1.6039,-0.1139,-0.3662,0.4830,0.7691,12.8250,27.9750,-33.9000,
4.859811,0.4391,-1.6039,-0.1139,-0.3662,0.4830,0.7691,12.8250,27.9750,-33.9000,
4.861280,0.2572,-1.3177,0.4986,-0.3662,0.4830,0.7691,12.8250,27.9750,-33.9000,
4.881050,0.2572,-1.3177,0.4986,-0.3662,0.4830,0.7691,12.8250,27.9750,-33.9000,
4.882777,-0.4589,-1.2506,0.4321,-0.3662,0.4830,0.7691,12.8250,27.9750,-33.9000,
4.888288,-0.4589,-1.2506,0.4321,-0.3296,0.4394,1.0849,12.8250,27.9750,-33.9000,
4.901166,-0.4589,-1.2506,0.4321,-0.3296,0.4394,1.0849,12.8250,27.9750,-33.9000,
4.903695,-0.9431,-1.3530,-0.0923,-0.3296,0.4394,1.0849,12.8250,27.9750,-33.9000,
4.916314,-0.9431,-1.3530,-0.0923,-0.3296,0.4394,1.0849,15.5250,28.0500,-32.9250,
4.922380,-0.9431,-1.3530,-0.0923,-0.3296,0.4394,1.0849,15.5250,28.0500,-32.9250,
4.923796,-0.5985,-1.6118,0.1328,-0.3296,0.4394,1.0849,15.5250,28.0500,-32.9250,
4.942196,-0.5985,-1.6118,0.1328,-0.3296,0.4394,1.0849,15.5250,28.0500,-32.9250,
4.944562,-0.7160,-1.9305,0.0428,-0.3296,0.4394,1.0849,15.5250,28.0500,-32.9250,
4.956746,-0.7160,-1.9305,0.0428,0.0374,0.3635,1.2330,15.5250,28.0500,-32.9250,
4.961846,-0.7160,-1.9305,0.0428,0.0374,0.3635,1.2330,15.5250,28.0500,-32.9250,
4.963802,-0.8419,-1.8910,-0.3673,0.0374,0.3635,1.2330,15.5250,28.0500,-32.9250,
4.982497,-0.8419,-1.8910,-0.3673,0.0374,0.3635,1.2330,15.5250,28.0500,-32.9250,
4.984293,-0.1808,-1.7065,-0.7458,0.0374,0.3635,1.2330,15.5250,28.0500,-32.9250,
4.986252,-0.1808,-1.7065,-0.7458,0.0374,0.3635,1.2330,17.9250,27.0750,-32.3250,
4.998851,-0.1808,-1.7065,-0.7458,0.0374,0.3635,1.2330,17.9250,27.0750,-32.3250,
5.000128,0.0562,-1.9741,-0.7535,0.0374,0.3635,1.2330,17.9250,27.0750,-32.3250,
5.017921,0.0562,-1.9741,-0.7535,0.0374,0.3635,1.2330,17.9250,27.0750,-32.3250,
5.019518,0.8389,-2.0338,-0.4387,0.0374,0.3635,1.2330,17.9250,27.0750,-32.3250,
5.025414,0.8389,-2.0338,-0.4387,0.1203,0.1141,1.4140,17.9250,27.0750,-32.3250,
5.041200,0.8389,-2.0338,-0.4387,0.1203,0.1141,1.4140,17.9250,27.0750,-32.3250,
5.042576,1.3267,-1.5630,-0.0459,0.1203,0.1141,1.4140,17.9250,27.0750,-32.3250,
5.058009,1.3267,-1.5630,-0.0459,0.1203,0.1141,1.4140,20.1750,25.4250,-32.4000,
5.059923,1.3267,-1.5630,-0.0459,0.1203,0.1141,1.4140,20.1750,25.4250,-32.4000,
5.061175,1.0789,-1.0345,-0.2306,0.1203,0.1141,1.4140,20.1750,25.4250,-32.4000,
5.075655,1.0789,-1.0345,-0.2306,0.1203,0.1141,1.4140,20.1750,25.4250,-32.4000,
5.079046,0.7635,-0.3888,-0.5711,0.1203,0.1141,1.4140,20.1750,25.4250,-32.4000,
5.093677,0.7635,-0.3888,-0.5711,0.3668,-0.0429,1.1001,20.1750,25.4250,-32.4000,
5.097948,0.7635,-0.3888,-0.5711,0.3668,-0.0429,1.1001,20.1750,25.4250,-32.4000,
5.099738,-0.1524,0.4427,-0.7650,0.3668,-0.0429,1.1001,20.1750,25.4250,-32.4000,
5.118154,-0.1524,0.4427,-0.7650,0.3668,-0.0429,1.1001,20.1750,25.4250,-32.4000,
5.120773,-0.8072,1.3567,-1.3747,0.3668,-0.0429,1.1001,20.1750,25.4250,-32.4000,
5.127646,-0.8072,1.3567,-1.3747,0.3668,-0.0429,1.1001,22.0500,23.5500,-32.7000,
5.138059,-0.8072,1.3567,-1.3747,0.3668,-0.0429,1.1001,22.0500,23.5500,-32.7000,
5.140118,-1.2089,2.4245,-1.7634,0.3668,-0.0429,1.1001,22.0500,23.5500,-32.7000,
5.157030,-1.2089,2.4245,-1.7634,0.3668,-0.0429,1.1001,22.0500,23.5500,-32.7000,
5.159515,-1.7988,3.2163,-2.1591,0.3668,-0.0429,1.1001,22.0500,23.5500,-32.7000,
5.167862,-1.7988,3.2163,-2.1591,0.3705,-0.1043,0.7599,22.0500,23.5500,-32.7000,
5.181976,-1.7988,3.2163,-2.1591,0.3705,-0.1043,0.7599,22.0500,23.5500,-32.7000,
5.183903,-2.1766,3.4879,-2.3504,0.3705,-0.1043,0.7599,22.0500,23.5500,-32.7000,
5.198041,-2.1766,3.4879,-2.3504,0.3705,-0.1043,0.7599,22.0500,23.5500,-32.7000,
5.199657,-2.4623,3.2337,-1.9793,0.3705,-0.1043,0.7599,22.0500,23.5500,-32.7000,
5.201245,-2.4623,3.2337,-1.9793,0.3705,-0.1043,0.7599,22.7250,21.4500,-34.0500,
5.221995,-2.4623,3.2337,-1.9793,0.3705,-0.1043,0.7599,22.7250,21.4500,-34.0500,
5.223812,-1.9494,2.1996,-1.0789,0.3705,-0.1043,0.7599,22.7250,21.4500,-34.0500,
5.235852,-1.9494,2.1996,-1.0789,-0.0435,-0.3971,0.5296,22.7250,21.4500,-34.0500,
5.242045,-1.9494,2.1996,-1.0789,-0.0435,-0.3971,0.5296,22.7250,21.4500,-34.0500,
5.243593,-0.9990,0.9635,-0.0204,-0.0435,-0.3971,0.5296,22.7250,21.4500,-34.0500,
5.261592,-0.9990,0.9635,-0.0204,-0.0435,-0.3971,0.5296,22.7250,21.4500,-34.0500,
5.267354,-0.4144,0.4443,0.3896,-0.0435,-0.3971,0.5296,22.7250,21.4500,-34.0500,
5.270734,-0.4144,0.4443,0.3896,-0.0435,-0.3971,0.5296,22.2000,20.0250,-33.9750,
5.282094,-0.4144,0.4443,0.3896,-0.0435,-0.3971,0.5296,22.2000,20.0250,-33.9750,
5.284350,-0.2186,0.5720,0.1430,-0.0435,-0.3971,0.5296,22.2000,20.0250,-33.9750,
5.295103,-0.2186,0.5720,0.1430,-0.0435,-0.3971,0.5296,22.2000,20.0250,-33.9750,
5.297811,0.0159,0.8508,-0.3701,-0.0435,-0.3971,0.5296,22.2000,20.0250,-33.9750,
5.303331,0.0159,0.8508,-0.3701,0.2083,-0.4881,0.3981,22.2000,20.0250,-33.9750,
5.319327,0.0159,0.8508,-0.3701,0.2083,-0.4881,0.3981,22.2000,20.0250,-33.9750,
5.321307,0.4076,0.9031,-0.6544,0.2083,-0.4881,0.3981,22.2000,20.0250,-33.9750,
5.336702,0.4076,0.9031,-0.6544,0.2083,-0.4881,0.3981,21.5250,19.3500,-35.4000,
5.339764,0.4076,0.9031,-0.6544,0.2083,-0.4881,0.3981,21.5250,19.3500,-35.4000,
5.341057,0.5864,0.9082,-0.3177,0.2083,-0.4881,0.3981,21.5250,19.3500,-35.4000,
5.358657,0.5864,0.9082,-0.3177,0.2083,-0.4881,0.3981,21.5250,19.3500,-35.4000,
5.360412,0.2723,0.9499,-0.0310,0.2083,-0.4881,0.3981,21.5250,19.3500,-35.4000,
5.372634,0.2723,0.9499,-0.0310,0.4603,-0.1900,0.1749,21.5250,19.3500,-35.4000,
5.374587,0.2723,0.9499,-0.0310,0.4603,-0.1900,0.1749,21.5250,19.3500,-35.4000,
5.375660,0.2836,1.0800,-0.0331,0.4603,-0.1900,0.1749,21.5250,19.3500,-35.4000,
5.398063,0.2836,1.0800,-0.0331,0.4603,-0.1900,0.1749,21.5250,19.3500,-35.4000,
5.400032,0.4152,1.6654,-0.2041,0.4603,-0.1900,0.1749,21.5250,19.3500,-35.4000,
5.402782,0.4152,1.6654,-0.2041,0.4603,-0.1900,0.1749,21.1500,18.1500,-36.8250,
5.418804,0.4152,1.6654,-0.2041,0.4603,-0.1900,0.1749,21.1500,18.1500,-36.8250,
5.420502,0.1693,2.2164,-0.7906,0.4603,-0.1900,0.1749,21.1500,18.1500,-36.8250,
5.441907,0.1693,2.2164,-0.7906,0.4603,-0.1900,0.1749,21.1500,18.1500,-36.8250,
5.443730,0.0958,2.3969,-1.1773,0.4603,-0.1900,0.1749,21.1500,18.1500,-36.8250,
5.446946,0.0958,2.3969,-1.1773,0.5314,0.0588,-0.0753,21.1500,18.1500,-36.8250,
5.465470,0.0958,2.3969,-1.1773,0.5314,0.0588,-0.0753,21.1500,18.1500,-36.8250,
5.466817,-0.0984,2.3755,-0.8531,0.5314,0.0588,-0.0753,21.1500,18.1500,-36.8250,
5.471355,-0.0984,2.3755,-0.8531,0.5314,0.0588,-0.0753,21.3000,17.3250,-36.6750,
5.480873,-0.0984,2.3755,-0.8531,0.5314,0.0588,-0.0753,21.3000,17.3250,-36.6750,
5.482586,-0.4812,2.1561,-0.9601,0.5314,0.0588,-0.0753,21.3000,17.3250,-36.6750,
5.501501,-0.4812,2.1561,-0.9601,0.5314,0.0588,-0.0753,21.3000,17.3250,-36.6750,
5.505322,-0.6983,2.2826,-0.9435,0.5314,0.0588,-0.0753,21.3000,17.3250,-36.6750,
5.514530,-0.6983,2.2826,-0.9435,0.4190,0.1260,-0.2654,21.3000,17.3250,-36.6750,
5.518654,-0.6983,2.2826,-0.9435,0.4190,0.1260,-0.2654,21.3000,17.3250,-36.6750,
5.520171,-0.4996,2.6070,-0.9571,0.4190,0.1260,-0.2654,21.3000,17.3250,-36.6750,
5.538918,-0.4996,2.6070,-0.9571,0.4190,0.1260,-0.2654,21.3000,17.3250,-36.6750,
5.541670,0.1245,2.6889,-1.2630,0.4190,0.1260,-0.2654,21.3000,17.3250,-36.6750,
5.543325,0.1245,2.6889,-1.2630,0.4190,0.1260,-0.2654,21.0000,16.6500,-36.7500,
5.558308,0.1245,2.6889,-1.2630,0.4190,0.1260,-0.2654,21.0000,16.6500,-36.7500,
5.560339,-0.0089,1.9959,-0.7698,0.4190,0.1260,-0.2654,21.0000,16.6500,-36.7500,
5.572975,-0.0089,1.9959,-0.7698,0.4190,0.1260,-0.2654,21.0000,16.6500,-36.7500,
5.575147,-0.9126,1.4516,-0.6819,0.4190,0.1260,-0.2654,21.0000,16.6500,-36.7500,
5.581929,-0.9126,1.4516,-0.6819,-0.0851,0.1533,-0.3008,21.0000,16.6500,-36.7500,
5.599017,-0.9126,1.4516,-0.6819,-0.0851,0.1533,-0.3008,21.0000,16.6500,-36.7500,
5.602017,-0.4239,0.9677,0.2910,-0.0851,0.1533,-0.3008,21.0000,16.6500,-36.7500,
5.607176,-0.4239,0.9677,0.2910,-0.0851,0.1533,-0.3008,20.6250,16.1250,-37.8000,
5.617308,-0.4239,0.9677,0.2910,-0.0851,0.1533,-0.3008,20.6250,16.1250,-37.8000,
5.619534,0.2012,0.7061,0.9970,-0.0851,0.1533,-0.3008,20.6250,16.1250,-37.8000,
5.642002,0.2012,0.7061,0.9970,-0.0851,0.1533,-0.3008,20.6250,16.1250,-37.8000,
5.644192,-0.0815,0.4911,0.7329,-0.0851,0.1533,-0.3008,20.6250,16.1250,-37.8000,
5.655538,-0.0815,0.4911,0.7329,-0.0534,-0.0924,-0.0603,20.6250,16.1250,-37.8000,
5.665167,-0.0815,0.4911,0.7329,-0.0534,-0.0924,-0.0603,20.6250,16.1250,-37.8000,
5.666822,-0.8687,0.3148,0.6335,-0.0534,-0.0924,-0.0603,20.6250,16.1250,-37.8000,
5.680413,-0.8687,0.3148,0.6335,-0.0534,-0.0924,-0.0603,20.6250,16.1250,-37.8000,
5.683046,-0.9314,-0.2507,0.8169,-0.0534,-0.0924,-0.0603,20.6250,16.1250,-37.8000,
5.685196,-0.9314,-0.2507,0.8169,-0.0534,-0.0924,-0.0603,21.1500,16.2750,-36.9750,
5.700189,-0.9314,-0.2507,0.8169,-0.0534,-0.0924,-0.0603,21.1500,16.2750,-36.9750,
5.702790,-0.1214,-0.7319,0.7959,-0.0534,-0.0924,-0.0603,21.1500,16.2750,-36.9750,
5.715932,-0.1214,-0.7319,0.7959,-0.0534,-0.0924,-0.0603,21.1500,16.2750,-36.9750,
5.719277,1.0016,-0.7865,0.5192,-0.0534,-0.0924,-0.0603,21.1500,16.2750,-36.9750,
5.724253,1.0016,-0.7865,0.5192,0.0910,-0.4464,0.0797,21.1500,16.2750,-36.9750,
5.734461,1.0016,-0.7865,0.5192,0.0910,-0.4464,0.0797,21.1500,16.2750,-36.9750,
5.736314,1.3826,-0.3843,0.6132,0.0910,-0.4464,0.0797,21.1500,16.2750,-36.9750,
5.750112,1.3826,-0.3843,0.6132,0.0910,-0.4464,0.0797,20.3250,16.6500,-37.7250,
5.759943,1.3826,-0.3843,0.6132,0.0910,-0.4464,0.0797,20.3250,16.6500,-37.7250,
5.761226,1.2018,0.0612,0.7436,0.0910,-0.4464,0.0797,20.3250,16.6500,-37.7250,
5.774893,1.2018,0.0612,0.7436,0.0910,-0.4464,0.0797,20.3250,16.6500,-37.7250,
5.776257,1.0658,0.5258,0.5004,0.0910,-0.4464,0.0797,20.3250,16.6500,-37.7250,
5.794284,1.0658,0.5258,0.5004,0.2859,-0.3740,0.1428,20.3250,16.6500,-37.7250,
5.799997,1.0658,0.5258,0.5004,0.2859,-0.3740,0.1428,20.3250,16.6500,-37.7250,
5.801302,0.8371,0.9817,0.3767,0.2859,-0.3740,0.1428,20.3250,16.6500,-37.7250,
5.821613,0.8371,0.9817,0.3767,0.2859,-0.3740,0.1428,20.3250,16.6500,-37.7250,
5.823045,0.6170,1.2216,0.5029,0.2859,-0.3740,0.1428,20.3250,16.6500,-37.7250,
5.824244,0.6170,1.2216,0.5029,0.2859,-0.3740,0.1428,18.9000,15.8250,-38.5500,
5.837653,0.6170,1.2216,0.5029,0.2859,-0.3740,0.1428,18.9000,15.8250,-38.5500,
5.840473,-0.2413,0.9258,0.6333,0.2859,-0.3740,0.1428,18.9000,15.8250,-38.5500,
5.857208,-0.2413,0.9258,0.6333,0.2859,-0.3740,0.1428,18.9000,15.8250,-38.5500,
5.859715,0.1152,0.3327,-0.5147,0.2859,-0.3740,0.1428,18.9000,15.8250,-38.5500,
5.869108,0.1152,0.3327,-0.5147,0.3253,-0.3454,0.1077,18.9000,15.8250,-38.5500,
5.872740,0.1152,0.3327,-0.5147,0.3253,-0.3454,0.1077,18.9000,15.8250,-38.5500,
5.874489,-0.8136,0.2089,-1.2217,0.3253,-0.3454,0.1077,18.9000,15.8250,-38.5500,
5.886651,-0.8136,0.2089,-1.2217,0.3253,-0.3454,0.1077,17.7000,15.1500,-39.6000,
5.895630,-0.8136,0.2089,-1.2217,0.3253,-0.3454,0.1077,17.7000,15.1500,-39.6000,
5.897857,-1.5756,-0.0179,-1.1576,0.3253,-0.3454,0.1077,17.7000,15.1500,-39.6000,
5.917242,-1.5756,-0.0179,-1.1576,0.3253,-0.3454,0.1077,17.7000,15.1500,-39.6000,
5.919720,-1.7964,-0.7305,-0.4309,0.3253,-0.3454,0.1077,17.7000,15.1500,-39.6000,
5.931693,-1.7964,-0.7305,-0.4309,0.0761,-0.2063,0.0967,17.7000,15.1500,-39.6000,
5.934229,-1.7964,-0.7305,-0.4309,0.0761,-0.2063,0.0967,17.7000,15.1500,-39.6000,
5.935708,-1.7014,-1.0880,0.1852,0.0761,-0.2063,0.0967,17.7000,15.1500,-39.6000,
5.954402,-1.7014,-1.0880,0.1852,0.0761,-0.2063,0.0967,17.7000,15.1500,-39.6000,
5.956180,-1.0890,-0.9672,-0.0107,0.0761,-0.2063,0.0967,17.7000,15.1500,-39.6000,
5.958405,-1.0890,-0.9672,-0.0107,0.0761,-0.2063,0.0967,17.9250,14.2500,-39.9000,
5.973312,-1.0890,-0.9672,-0.0107,0.0761,-0.2063,0.0967,17.9250,14.2500,-39.9000,
5.975624,-0.0347,-1.0459,-0.5765,0.0761,-0.2063,0.0967,17.9250,14.2500,-39.9000,
5.999190,-0.0347,-1.0459,-0.5765,0.0761,-0.2063,0.0967,17.9250,14.2500,-39.9000,
6.003271,-0.4416,-0.4530,-0.7542,0.0761,-0.2063,0.0967,17.9250,14.2500,-39.9000,
6.006689,-0.4416,-0.4530,-0.7542,0.1738,-0.0846,0.0510,17.9250,14.2500,-39.9000,
6.018451,-0.4416,-0.4530,-0.7542,0.1738,-0.0846,0.0510,17.9250,14.2500,-39.9000,
6.021225,-0.8802,0.3305,-0.6069,0.1738,-0.0846,0.0510,17.9250,14.2500,-39.9000,
6.037247,-0.8802,0.3305,-0.6069,0.1738,-0.0846,0.0510,17.9250,14.2500,-39.9000,
6.039724,-0.9078,-0.0744,-0.7275,0.1738,-0.0846,0.0510,17.9250,14.2500,-39.9000,
6.042009,-0.9078,-0.0744,-0.7275,0.1738,-0.0846,0.0510,18.3750,13.6500,-39.7500,
6.057382,-0.9078,-0.0744,-0.7275,0.1738,-0.0846,0.0510,18.3750,13.6500,-39.7500,
6.059563,-0.8962,0.1271,-0.2461,0.1738,-0.0846,0.0510,18.3750,13.6500,-39.7500,
6.071333,-0.8962,0.1271,-0.2461,-0.0310,-0.1229,0.1550,18.3750,13.6500,-39.7500,
6.073328,-0.8962,0.1271,-0.2461,-0.0310,-0.1229,0.1550,18.3750,13.6500,-39.7500,
6.074311,-0.5345,0.1394,-0.2670,-0.0310,-0.1229,0.1550,18.3750,13.6500,-39.7500,
6.096514,-0.5345,0.1394,-0.2670,-0.0310,-0.1229,0.1550,18.3750,13.6500,-39.7500,
6.098521,-0.3620,0.3044,-0.2129,-0.0310,-0.1229,0.1550,18.3750,13.6500,-39.7500,
6.100097,-0.3620,0.3044,-0.2129,-0.0310,-0.1229,0.1550,16.8750,13.4250,-39.9750,
6.116001,-0.3620,0.3044,-0.2129,-0.0310,-0.1229,0.1550,16.8750,13.4250,-39.9750,
6.119145,-0.3790,0.4164,-0.4978,-0.0310,-0.1229,0.1550,16.8750,13.4250,-39.9750,
6.135209,-0.3790,0.4164,-0.4978,-0.0310,-0.1229,0.1550,16.8750,13.4250,-39.9750,
6.137847,-0.4459,0.5619,-0.3931,-0.0310,-0.1229,0.1550,16.8750,13.4250,-39.9750,
6.139871,-0.4459,0.5619,-0.3931,0.0932,0.0070,-0.0110,16.8750,13.4250,-39.9750,
6.154868,-0.4459,0.5619,-0.3931,0.0932,0.0070,-0.0110,16.8750,13.4250,-39.9750,
6.157283,-0.5360,0.5483,-0.3649,0.0932,0.0070,-0.0110,16.8750,13.4250,-39.9750,
6.166062,-0.5360,0.5483,-0.3649,0.0932,0.0070,-0.0110,17.1750,13.2750,-40.7250,
6.173756,-0.5360,0.5483,-0.3649,0.0932,0.0070,-0.0110,17.1750,13.2750,-40.7250,
6.176058,-0.6140,0.5987,-0.4543,0.0932,0.0070,-0.0110,17.1750,13.2750,-40.7250,
6.193931,-0.6140,0.5987,-0.4543,0.0932,0.0070,-0.0110,17.1750,13.2750,-40.7250,
6.196287,-0.5595,0.6416,-0.4753,0.0932,0.0070,-0.0110,17.1750,13.2750,-40.7250,
6.208290,-0.5595,0.6416,-0.4753,0.0596,0.0060,-0.0170,17.1750,13.2750,-40.7250,
6.214002,-0.5595,0.6416,-0.4753,0.0596,0.0060,-0.0170,17.1750,13.2750,-40.7250,
6.215853,-0.5378,0.5843,-0.4828,0.0596,0.0060,-0.0170,17.1750,13.2750,-40.7250,
6.238724,-0.5378,0.5843,-0.4828,0.0596,0.0060,-0.0170,17.1750,13.2750,-40.7250,
6.242731,-0.6279,0.4731,-0.1468,0.0596,0.0060,-0.0170,17.1750,13.2750,-40.7250,
6.245716,-0.6279,0.4731,-0.1468,0.0596,0.0060,-0.0170,17.0250,13.5750,-40.5750,
6.257861,-0.6279,0.4731,-0.1468,0.0596,0.0060,-0.0170,17.0250,13.5750,-40.5750,
6.260625,-0.6628,0.4288,0.1301,0.0596,0.0060,-0.0170,17.0250,13.5750,-40.5750,
6.272804,-0.6628,0.4288,0.1301,0.0596,0.0060,-0.0170,17.0250,13.5750,-40.5750,
6.274954,-0.6618,0.4463,-1.0767,0.0596,0.0060,-0.0170,17.0250,13.5750,-40.5750,
6.283190,-0.6618,0.4463,-1.0767,0.2071,0.1038,-0.0235,17.0250,13.5750,-40.5750,
6.299149,-0.6618,0.4463,-1.0767,0.2071,0.1038,-0.0235,17.0250,13.5750,-40.5750,
6.301512,-0.1817,0.5551,-0.2246,0.2071,0.1038,-0.0235,17.0250,13.5750,-40.5750,
6.306355,-0.1817,0.5551,-0.2246,0.2071,0.1038,-0.0235,17.1750,12.7500,-40.1250,
6.316026,-0.1817,0.5551,-0.2246,0.2071,0.1038,-0.0235,17.1750,12.7500,-40.1250,
6.318121,-0.1652,0.0946,-0.4320,0.2071,0.1038,-0.0235,17.1750,12.7500,-40.1250,
6.337853,-0.1652,0.0946,-0.4320,0.2071,0.1038,-0.0235,17.1750,12.7500,-40.1250,
6.341211,-0.0350,-0.6971,-0.2865,0.2071,0.1038,-0.0235,17.1750,12.7500,-40.1250,
6.355108,-0.0350,-0.6971,-0.2865,0.1054,0.0964,-0.0614,17.1750,12.7500,-40.1250,
6.358244,-0.0350,-0.6971,-0.2865,0.1054,0.0964,-0.0614,17.1750,12.7500,-40.1250,
6.359030,0.0046,-0.8820,-0.1639,0.1054,0.0964,-0.0614,17.1750,12.7500,-40.1250,
