
time,ax,ay,az,wx,wy,wz,Bx,By,Bz,
0.056521,0.0000,0.0000,0.0000,0.0000,0.0000,0.0000,-5.1750,16.4250,41.7000,
0.073936,0.0000,0.0000,0.0000,0.0000,0.0000,0.0000,-5.1750,16.4250,41.7000,
0.075678,0.0347,0.0024,0.0206,0.0000,0.0000,0.0000,-5.1750,16.4250,41.7000,
0.095769,0.0347,0.0024,0.0206,0.0000,0.0000,0.0000,-5.1750,16.4250,41.7000,
0.097403,-0.0052,0.0226,-0.0104,0.0000,0.0000,0.0000,-5.1750,16.4250,41.7000,
0.100736,-0.0052,0.0226,-0.0104,0.0383,-0.0223,0.0078,-5.1750,16.4250,41.7000,
0.115185,-0.0052,0.0226,-0.0104,0.0383,-0.0223,0.0078,-5.1750,16.4250,41.7000,
0.116813,0.0462,0.0250,-0.0346,0.0383,-0.0223,0.0078,-5.1750,16.4250,41.7000,
0.124562,0.0462,0.0250,-0.0346,0.0383,-0.0223,0.0078,-5.4750,15.3750,43.0500,
0.134400,0.0462,0.0250,-0.0346,0.0383,-0.0223,0.0078,-5.4750,15.3750,43.0500,
0.135774,0.0665,0.0554,-0.2311,0.0383,-0.0223,0.0078,-5.4750,15.3750,43.0500,
0.154411,0.0665,0.0554,-0.2311,0.0383,-0.0223,0.0078,-5.4750,15.3750,43.0500,
0.158657,-0.0481,0.1035,-0.0971,0.0383,-0.0223,0.0078,-5.4750,15.3750,43.0500,
0.176190,-0.0481,0.1035,-0.0971,0.0299,-0.0302,0.0061,-5.4750,15.3750,43.0500,
0.178903,-0.0481,0.1035,-0.0971,0.0299,-0.0302,0.0061,-5.4750,15.3750,43.0500,
0.180386,0.0631,0.1870,0.1349,0.0299,-0.0302,0.0061,-5.4750,15.3750,43.0500,
0.191544,0.0631,0.1870,0.1349,0.0299,-0.0302,0.0061,-5.4750,15.3750,43.0500,
0.193011,0.1584,0.1244,-0.2802,0.0299,-0.0302,0.0061,-5.4750,15.3750,43.0500,
0.194587,0.1584,0.1244,-0.2802,0.0299,-0.0302,0.0061,-6.4500,15.1500,43.3500,
0.211307,0.1584,0.1244,-0.2802,0.0299,-0.0302,0.0061,-6.4500,15.1500,43.3500,
0.213089,-0.0072,0.0588,0.1728,0.0299,-0.0302,0.0061,-6.4500,15.1500,43.3500,
0.230585,-0.0072,0.0588,0.1728,0.0299,-0.0302,0.0061,-6.4500,15.1500,43.3500,
0.232457,0.1029,-0.0683,0.1583,0.0299,-0.0302,0.0061,-6.4500,15.1500,43.3500,
0.240843,0.1029,-0.0683,0.1583,0.0119,-0.0057,-0.0409,-6.4500,15.1500,43.3500,
0.251349,0.1029,-0.0683,0.1583,0.0119,-0.0057,-0.0409,-6.4500,15.1500,43.3500,
0.252321,0.0281,-0.0447,-0.0584,0.0119,-0.0057,-0.0409,-6.4500,15.1500,43.3500,
0.262095,0.0281,-0.0447,-0.0584,0.0119,-0.0057,-0.0409,-6.0000,14.9250,42.7500,
0.271470,0.0281,-0.0447,-0.0584,0.0119,-0.0057,-0.0409,-6.0000,14.9250,42.7500,
0.273100,0.0192,0.0212,-0.0226,0.0119,-0.0057,-0.0409,-6.0000,14.9250,42.7500,
0.290598,0.0192,0.0212,-0.0226,0.0119,-0.0057,-0.0409,-6.0000,14.9250,42.7500,
0.292071,-0.2381,-0.2998,0.0905,0.0119,-0.0057,-0.0409,-6.0000,14.9250,42.7500,
0.306796,-0.2381,-0.2998,0.0905,0.0588,-0.0301,-0.0125,-6.0000,14.9250,42.7500,
0.310677,-0.2381,-0.2998,0.0905,0.0588,-0.0301,-0.0125,-6.0000,14.9250,42.7500,
0.312144,0.2954,0.3150,-0.1509,0.0588,-0.0301,-0.0125,-6.0000,14.9250,42.7500,
0.335066,0.2954,0.3150,-0.1509,0.0588,-0.0301,-0.0125,-6.0000,14.9250,42.7500,
0.336701,-0.0189,0.3068,-0.0897,0.0588,-0.0301,-0.0125,-6.0000,14.9250,42.7500,
0.342902,-0.0189,0.3068,-0.0897,0.0588,-0.0301,-0.0125,-5.2500,15.6750,42.4500,
0.354560,-0.0189,0.3068,-0.0897,0.0588,-0.0301,-0.0125,-5.2500,15.6750,42.4500,
0.356267,0.1049,-0.0164,-0.0938,0.0588,-0.0301,-0.0125,-5.2500,15.6750,42.4500,
0.378217,0.1049,-0.0164,-0.0938,0.0588,-0.0301,-0.0125,-5.2500,15.6750,42.4500,
0.380040,0.0716,0.1137,-0.0528,0.0588,-0.0301,-0.0125,-5.2500,15.6750,42.4500,
0.381450,0.0716,0.1137,-0.0528,0.0093,-0.0082,-0.0101,-5.2500,15.6750,42.4500,
0.392728,0.0716,0.1137,-0.0528,0.0093,-0.0082,-0.0101,-5.2500,15.6750,42.4500,
0.394495,0.0276,0.0162,-0.0644,0.0093,-0.0082,-0.0101,-5.2500,15.6750,42.4500,
0.404779,0.0276,0.0162,-0.0644,0.0093,-0.0082,-0.0101,-5.5500,15.1500,42.6750,
0.413574,0.0276,0.0162,-0.0644,0.0093,-0.0082,-0.0101,-5.5500,15.1500,42.6750,
0.415278,0.0221,0.0472,0.0910,0.0093,-0.0082,-0.0101,-5.5500,15.1500,42.6750,
0.432709,0.0221,0.0472,0.0910,0.0093,-0.0082,-0.0101,-5.5500,15.1500,42.6750,
0.434444,-0.0233,0.0566,-0.0011,0.0093,-0.0082,-0.0101,-5.5500,15.1500,42.6750,
0.447154,-0.0233,0.0566,-0.0011,-0.0128,0.0050,-0.0156,-5.5500,15.1500,42.6750,
0.456789,-0.0233,0.0566,-0.0011,-0.0128,0.0050,-0.0156,-5.5500,15.1500,42.6750,
0.459562,0.0180,0.1116,0.0243,-0.0128,0.0050,-0.0156,-5.5500,15.1500,42.6750,
0.475089,0.0180,0.1116,0.0243,-0.0128,0.0050,-0.0156,-5.5500,15.1500,42.6750,
0.477365,0.0405,0.0954,-0.0097,-0.0128,0.0050,-0.0156,-5.5500,15.1500,42.6750,
0.479633,0.0405,0.0954,-0.0097,-0.0128,0.0050,-0.0156,-5.6250,15.8250,42.1500,
0.491625,0.0405,0.0954,-0.0097,-0.0128,0.0050,-0.0156,-5.6250,15.8250,42.1500,
0.493617,0.0496,0.0846,0.0223,-0.0128,0.0050,-0.0156,-5.6250,15.8250,42.1500,
0.509931,0.0496,0.0846,0.0223,-0.0128,0.0050,-0.0156,-5.6250,15.8250,42.1500,
0.511971,0.0226,0.0539,0.1055,-0.0128,0.0050,-0.0156,-5.6250,15.8250,42.1500,
0.514449,0.0226,0.0539,0.1055,-0.0098,-0.0000,-0.0099,-5.6250,15.8250,42.1500,
0.529298,0.0226,0.0539,0.1055,-0.0098,-0.0000,-0.0099,-5.6250,15.8250,42.1500,
0.531435,0.0300,0.0098,0.1752,-0.0098,-0.0000,-0.0099,-5.6250,15.8250,42.1500,
0.541649,0.0300,0.0098,0.1752,-0.0098,-0.0000,-0.0099,-6.0750,15.3750,42.3750,
0.548752,0.0300,0.0098,0.1752,-0.0098,-0.0000,-0.0099,-6.0750,15.3750,42.3750,
0.550407,0.0286,0.0021,0.1585,-0.0098,-0.0000,-0.0099,-6.0750,15.3750,42.3750,
0.569505,0.0286,0.0021,0.1585,-0.0098,-0.0000,-0.0099,-6.0750,15.3750,42.3750,
0.572372,0.0328,0.0903,0.0731,-0.0098,-0.0000,-0.0099,-6.0750,15.3750,42.3750,
0.583010,0.0328,0.0903,0.0731,0.0023,0.0053,-0.0052,-6.0750,15.3750,42.3750,
0.588302,0.0328,0.0903,0.0731,0.0023,0.0053,-0.0052,-6.0750,15.3750,42.3750,
0.589909,0.0151,0.1597,-0.0070,0.0023,0.0053,-0.0052,-6.0750,15.3750,42.3750,
0.608693,0.0151,0.1597,-0.0070,0.0023,0.0053,-0.0052,-6.0750,15.3750,42.3750,
0.610513,0.0179,0.1633,-0.1011,0.0023,0.0053,-0.0052,-6.0750,15.3750,42.3750,
0.611917,0.0179,0.1633,-0.1011,0.0023,0.0053,-0.0052,-6.3000,15.3750,42.6750,
0.633422,0.0179,0.1633,-0.1011,0.0023,0.0053,-0.0052,-6.3000,15.3750,42.6750,
0.635143,0.0154,0.1173,-0.0954,0.0023,0.0053,-0.0052,-6.3000,15.3750,42.6750,
0.653932,0.0154,0.1173,-0.0954,0.0023,0.0053,-0.0052,-6.3000,15.3750,42.6750,
0.655632,-0.0006,0.0900,0.0173,0.0023,0.0053,-0.0052,-6.3000,15.3750,42.6750,
0.656993,-0.0006,0.0900,0.0173,-0.0614,0.0214,-0.0055,-6.3000,15.3750,42.6750,
0.683462,-0.0006,0.0900,0.0173,-0.0614,0.0214,-0.0055,-6.3000,15.3750,42.6750,
0.687066,0.0061,0.0836,-0.0489,-0.0614,0.0214,-0.0055,-6.3000,15.3750,42.6750,
0.689270,0.0061,0.0836,-0.0489,-0.0614,0.0214,-0.0055,-6.3000,15.5250,42.1500,
0.691152,0.0061,0.0836,-0.0489,-0.0614,0.0214,-0.0055,-6.3000,15.5250,42.1500,
0.692751,0.0041,0.0927,-0.0109,-0.0614,0.0214,-0.0055,-6.3000,15.5250,42.1500,
0.710256,0.0041,0.0927,-0.0109,-0.0614,0.0214,-0.0055,-6.3000,15.5250,42.1500,
0.712356,0.0183,0.0527,0.1266,-0.0614,0.0214,-0.0055,-6.3000,15.5250,42.1500,
0.724543,0.0183,0.0527,0.1266,-0.0771,0.0261,-0.0218,-6.3000,15.5250,42.1500,
0.730614,0.0183,0.0527,0.1266,-0.0771,0.0261,-0.0218,-6.3000,15.5250,42.1500,
0.731518,0.0411,0.0292,0.1636,-0.0771,0.0261,-0.0218,-6.3000,15.5250,42.1500,
0.750563,0.0411,0.0292,0.1636,-0.0771,0.0261,-0.0218,-6.3000,15.5250,42.1500,
0.752052,0.0005,-0.0304,0.0302,-0.0771,0.0261,-0.0218,-6.3000,15.5250,42.1500,
0.753324,0.0005,-0.0304,0.0302,-0.0771,0.0261,-0.0218,-5.3250,15.0000,42.0000,
0.769872,0.0005,-0.0304,0.0302,-0.0771,0.0261,-0.0218,-5.3250,15.0000,42.0000,
0.771403,-0.1500,0.0261,0.1636,-0.0771,0.0261,-0.0218,-5.3250,15.0000,42.0000,
0.790264,-0.1500,0.0261,0.1636,-0.0771,0.0261,-0.0218,-5.3250,15.0000,42.0000,
0.791782,-0.1037,0.0516,0.2227,-0.0771,0.0261,-0.0218,-5.3250,15.0000,42.0000,
0.793229,-0.1037,0.0516,0.2227,-0.0394,0.0289,-0.0304,-5.3250,15.0000,42.0000,
0.809685,-0.1037,0.0516,0.2227,-0.0394,0.0289,-0.0304,-5.3250,15.0000,42.0000,
0.811269,-0.1115,-0.0298,-0.0816,-0.0394,0.0289,-0.0304,-5.3250,15.0000,42.0000,
0.825468,-0.1115,-0.0298,-0.0816,-0.0394,0.0289,-0.0304,-5.5500,14.9250,43.0500,
0.828513,-0.1115,-0.0298,-0.0816,-0.0394,0.0289,-0.0304,-5.5500,14.9250,43.0500,
0.830648,-0.1942,0.0722,0.2890,-0.0394,0.0289,-0.0304,-5.5500,14.9250,43.0500,
0.847819,-0.1942,0.0722,0.2890,-0.0394,0.0289,-0.0304,-5.5500,14.9250,43.0500,
0.851157,-0.0412,-0.0006,0.1579,-0.0394,0.0289,-0.0304,-5.5500,14.9250,43.0500,
0.861891,-0.0412,-0.0006,0.1579,0.0064,-0.0483,-0.0189,-5.5500,14.9250,43.0500,
0.875118,-0.0412,-0.0006,0.1579,0.0064,-0.0483,-0.0189,-5.5500,14.9250,43.0500,
0.884660,-0.0795,0.0595,-0.0287,0.0064,-0.0483,-0.0189,-5.5500,14.9250,43.0500,
0.893650,-0.0795,0.0595,-0.0287,0.0064,-0.0483,-0.0189,-5.5500,14.9250,43.0500,
0.894579,-0.1083,0.0651,-0.0063,0.0064,-0.0483,-0.0189,-5.5500,14.9250,43.0500,
0.895242,-0.1083,0.0651,-0.0063,0.0064,-0.0483,-0.0189,-6.5250,15.4500,43.6500,
0.912063,-0.1083,0.0651,-0.0063,0.0064,-0.0483,-0.0189,-6.5250,15.4500,43.6500,
0.913347,-0.1296,0.0706,0.0017,0.0064,-0.0483,-0.0189,-6.5250,15.4500,43.6500,
0.932051,-0.1296,0.0706,0.0017,0.0064,-0.0483,-0.0189,-6.5250,15.4500,43.6500,
0.933348,-0.0934,0.0868,-0.0263,0.0064,-0.0483,-0.0189,-6.5250,15.4500,43.6500,
0.938429,-0.0934,0.0868,-0.0263,-0.0147,-0.0628,-0.0084,-6.5250,15.4500,43.6500,
0.950767,-0.0934,0.0868,-0.0263,-0.0147,-0.0628,-0.0084,-6.5250,15.4500,43.6500,
0.952605,-0.0943,0.0948,-0.0890,-0.0147,-0.0628,-0.0084,-6.5250,15.4500,43.6500,
0.962902,-0.0943,0.0948,-0.0890,-0.0147,-0.0628,-0.0084,-6.3000,14.8500,43.0500,
0.971774,-0.0943,0.0948,-0.0890,-0.0147,-0.0628,-0.0084,-6.3000,14.8500,43.0500,
0.973447,-0.1254,0.0538,-0.0410,-0.0147,-0.0628,-0.0084,-6.3000,14.8500,43.0500,
0.991151,-0.1254,0.0538,-0.0410,-0.0147,-0.0628,-0.0084,-6.3000,14.8500,43.0500,
0.992974,-0.1007,0.0425,-0.0217,-0.0147,-0.0628,-0.0084,-6.3000,14.8500,43.0500,
1.004215,-0.1007,0.0425,-0.0217,-0.0192,-0.0690,-0.0137,-6.3000,14.8500,43.0500,
1.009231,-0.1007,0.0425,-0.0217,-0.0192,-0.0690,-0.0137,-6.3000,14.8500,43.0500,
1.011885,-0.1420,0.0015,-0.0273,-0.0192,-0.0690,-0.0137,-6.3000,14.8500,43.0500,
1.023994,-0.1420,0.0015,-0.0273,-0.0192,-0.0690,-0.0137,-6.3000,14.8500,43.0500,
1.027173,-0.1168,0.0409,0.1336,-0.0192,-0.0690,-0.0137,-6.3000,14.8500,43.0500,
1.031841,-0.1168,0.0409,0.1336,-0.0192,-0.0690,-0.0137,-5.7000,15.0750,42.6750,
1.048176,-0.1168,0.0409,0.1336,-0.0192,-0.0690,-0.0137,-5.7000,15.0750,42.6750,
1.050752,-0.1349,0.0317,-0.0079,-0.0192,-0.0690,-0.0137,-5.7000,15.0750,42.6750,
1.067518,-0.1349,0.0317,-0.0079,-0.0192,-0.0690,-0.0137,-5.7000,15.0750,42.6750,
1.070304,-0.1108,0.0682,0.0364,-0.0192,-0.0690,-0.0137,-5.7000,15.0750,42.6750,
1.072492,-0.1108,0.0682,0.0364,-0.0043,-0.0385,-0.0099,-5.7000,15.0750,42.6750,
1.086893,-0.1108,0.0682,0.0364,-0.0043,-0.0385,-0.0099,-5.7000,15.0750,42.6750,
1.089387,-0.1231,0.0154,0.0973,-0.0043,-0.0385,-0.0099,-5.7000,15.0750,42.6750,
1.103471,-0.1231,0.0154,0.0973,-0.0043,-0.0385,-0.0099,-5.7000,14.7000,42.7500,
1.106594,-0.1231,0.0154,0.0973,-0.0043,-0.0385,-0.0099,-5.7000,14.7000,42.7500,
1.108116,-0.1211,0.0006,0.1099,-0.0043,-0.0385,-0.0099,-5.7000,14.7000,42.7500,
1.123272,-0.1211,0.0006,0.1099,-0.0043,-0.0385,-0.0099,-5.7000,14.7000,42.7500,
1.125701,-0.1204,0.0110,0.0825,-0.0043,-0.0385,-0.0099,-5.7000,14.7000,42.7500,
1.140533,-0.1204,0.0110,0.0825,0.0228,-0.0296,0.0076,-5.7000,14.7000,42.7500,
1.145821,-0.1204,0.0110,0.0825,0.0228,-0.0296,0.0076,-5.7000,14.7000,42.7500,
1.147769,-0.0014,0.0339,0.0673,0.0228,-0.0296,0.0076,-5.7000,14.7000,42.7500,
1.165090,-0.0014,0.0339,0.0673,0.0228,-0.0296,0.0076,-5.7000,14.7000,42.7500,
1.167949,0.1044,0.0898,0.0223,0.0228,-0.0296,0.0076,-5.7000,14.7000,42.7500,
1.176482,0.1044,0.0898,0.0223,0.0228,-0.0296,0.0076,-5.8500,14.6250,42.4500,
1.187297,0.1044,0.0898,0.0223,0.0228,-0.0296,0.0076,-5.8500,14.6250,42.4500,
1.189323,0.0682,0.0768,0.0486,0.0228,-0.0296,0.0076,-5.8500,14.6250,42.4500,
1.204602,0.0682,0.0768,0.0486,0.0228,-0.0296,0.0076,-5.8500,14.6250,42.4500,
1.207042,-0.0246,0.0386,0.0890,0.0228,-0.0296,0.0076,-5.8500,14.6250,42.4500,
1.209199,-0.0246,0.0386,0.0890,0.0116,-0.0121,-0.0014,-5.8500,14.6250,42.4500,
1.226217,-0.0246,0.0386,0.0890,0.0116,-0.0121,-0.0014,-5.8500,14.6250,42.4500,
1.228310,-0.0796,0.0034,0.0768,0.0116,-0.0121,-0.0014,-5.8500,14.6250,42.4500,
1.241742,-0.0796,0.0034,0.0768,0.0116,-0.0121,-0.0014,-5.8500,14.6250,42.4500,
1.243893,-0.0772,0.0700,0.0490,0.0116,-0.0121,-0.0014,-5.8500,14.6250,42.4500,
1.245195,-0.0772,0.0700,0.0490,0.0116,-0.0121,-0.0014,-5.7000,15.0000,42.4500,
1.262846,-0.0772,0.0700,0.0490,0.0116,-0.0121,-0.0014,-5.7000,15.0000,42.4500,
1.265452,0.0021,0.1245,0.0672,0.0116,-0.0121,-0.0014,-5.7000,15.0000,42.4500,
1.277719,0.0021,0.1245,0.0672,-0.0067,0.0328,-0.0331,-5.7000,15.0000,42.4500,
1.290330,0.0021,0.1245,0.0672,-0.0067,0.0328,-0.0331,-5.7000,15.0000,42.4500,
1.292255,0.0157,0.1147,0.0934,-0.0067,0.0328,-0.0331,-5.7000,15.0000,42.4500,
1.307406,0.0157,0.1147,0.0934,-0.0067,0.0328,-0.0331,-5.7000,15.0000,42.4500,
1.309614,-0.0794,0.0312,0.0668,-0.0067,0.0328,-0.0331,-5.7000,15.0000,42.4500,
1.311626,-0.0794,0.0312,0.0668,-0.0067,0.0328,-0.0331,-6.0000,14.6250,42.4500,
1.323280,-0.0794,0.0312,0.0668,-0.0067,0.0328,-0.0331,-6.0000,14.6250,42.4500,
1.325236,-0.1567,-0.0199,0.0958,-0.0067,0.0328,-0.0331,-6.0000,14.6250,42.4500,
1.346538,-0.1567,-0.0199,0.0958,-0.0067,0.0328,-0.0331,-6.0000,14.6250,42.4500,
1.349236,-0.1109,0.0071,0.0756,-0.0067,0.0328,-0.0331,-6.0000,14.6250,42.4500,
1.350970,-0.1109,0.0071,0.0756,-0.0052,0.0841,-0.0709,-6.0000,14.6250,42.4500,
1.366103,-0.1109,0.0071,0.0756,-0.0052,0.0841,-0.0709,-6.0000,14.6250,42.4500,
1.367918,-0.1047,0.0540,-0.1354,-0.0052,0.0841,-0.0709,-6.0000,14.6250,42.4500,
1.376204,-0.1047,0.0540,-0.1354,-0.0052,0.0841,-0.0709,-5.7750,14.7000,42.4500,
1.387286,-0.1047,0.0540,-0.1354,-0.0052,0.0841,-0.0709,-5.7750,14.7000,42.4500,
1.389631,-0.2048,0.1368,0.1280,-0.0052,0.0841,-0.0709,-5.7750,14.7000,42.4500,
1.405887,-0.2048,0.1368,0.1280,-0.0052,0.0841,-0.0709,-5.7750,14.7000,42.4500,
1.407869,-0.0336,0.0808,0.1661,-0.0052,0.0841,-0.0709,-5.7750,14.7000,42.4500,
1.421716,-0.0336,0.0808,0.1661,-0.0047,0.0802,-0.0713,-5.7750,14.7000,42.4500,
1.425322,-0.0336,0.0808,0.1661,-0.0047,0.0802,-0.0713,-5.7750,14.7000,42.4500,
1.427217,0.0487,-0.0265,-0.2188,-0.0047,0.0802,-0.0713,-5.7750,14.7000,42.4500,
1.444072,0.0487,-0.0265,-0.2188,-0.0047,0.0802,-0.0713,-5.7750,14.7000,42.4500,
1.446587,-0.0730,0.0781,0.1553,-0.0047,0.0802,-0.0713,-5.7750,14.7000,42.4500,
1.448288,-0.0730,0.0781,0.1553,-0.0047,0.0802,-0.0713,-6.0750,15.0750,42.4500,
1.463597,-0.0730,0.0781,0.1553,-0.0047,0.0802,-0.0713,-6.0750,15.0750,42.4500,
1.466637,-0.0488,-0.0161,0.1799,-0.0047,0.0802,-0.0713,-6.0750,15.0750,42.4500,
1.483035,-0.0488,-0.0161,0.1799,-0.0047,0.0802,-0.0713,-6.0750,15.0750,42.4500,
1.486168,-0.0369,0.0643,-0.0737,-0.0047,0.0802,-0.0713,-6.0750,15.0750,42.4500,
1.489322,-0.0369,0.0643,-0.0737,0.0009,0.0353,-0.0747,-6.0750,15.0750,42.4500,
1.503451,-0.0369,0.0643,-0.0737,0.0009,0.0353,-0.0747,-6.0750,15.0750,42.4500,
1.506487,-0.0265,0.0895,-0.1174,0.0009,0.0353,-0.0747,-6.0750,15.0750,42.4500,
1.512414,-0.0265,0.0895,-0.1174,0.0009,0.0353,-0.0747,-6.6000,14.5500,42.9750,
1.524339,-0.0265,0.0895,-0.1174,0.0009,0.0353,-0.0747,-6.6000,14.5500,42.9750,
1.526778,-0.0335,0.0754,0.0162,0.0009,0.0353,-0.0747,-6.6000,14.5500,42.9750,
1.547403,-0.0335,0.0754,0.0162,0.0009,0.0353,-0.0747,-6.6000,14.5500,42.9750,
1.550382,-0.1112,0.0497,0.0100,0.0009,0.0353,-0.0747,-6.6000,14.5500,42.9750,
1.560886,-0.1112,0.0497,0.0100,-0.0182,0.0202,-0.0585,-6.6000,14.5500,42.9750,
1.566253,-0.1112,0.0497,0.0100,-0.0182,0.0202,-0.0585,-6.6000,14.5500,42.9750,
1.567770,-0.1304,0.0486,-0.0106,-0.0182,0.0202,-0.0585,-6.6000,14.5500,42.9750,
1.588682,-0.1304,0.0486,-0.0106,-0.0182,0.0202,-0.0585,-6.6000,14.5500,42.9750,
1.591821,-0.1245,0.0072,-0.0267,-0.0182,0.0202,-0.0585,-6.6000,14.5500,42.9750,
1.593927,-0.1245,0.0072,-0.0267,-0.0182,0.0202,-0.0585,-6.3750,14.4750,42.7500,
1.605122,-0.1245,0.0072,-0.0267,-0.0182,0.0202,-0.0585,-6.3750,14.4750,42.7500,
1.607817,-0.0759,0.0564,-0.0585,-0.0182,0.0202,-0.0585,-6.3750,14.4750,42.7500,
1.623960,-0.0759,0.0564,-0.0585,-0.0182,0.0202,-0.0585,-6.3750,14.4750,42.7500,
1.627300,-0.0655,0.0694,-0.0262,-0.0182,0.0202,-0.0585,-6.3750,14.4750,42.7500,
1.629392,-0.0655,0.0694,-0.0262,-0.0492,-0.0171,-0.0354,-6.3750,14.4750,42.7500,
1.644487,-0.0655,0.0694,-0.0262,-0.0492,-0.0171,-0.0354,-6.3750,14.4750,42.7500,
1.647384,-0.0053,0.0393,0.0418,-0.0492,-0.0171,-0.0354,-6.3750,14.4750,42.7500,
1.657492,-0.0053,0.0393,0.0418,-0.0492,-0.0171,-0.0354,-6.1500,14.7000,42.9000,
1.664335,-0.0053,0.0393,0.0418,-0.0492,-0.0171,-0.0354,-6.1500,14.7000,42.9000,
1.666537,-0.0623,0.0175,0.0163,-0.0492,-0.0171,-0.0354,-6.1500,14.7000,42.9000,
1.683358,-0.0623,0.0175,0.0163,-0.0492,-0.0171,-0.0354,-6.1500,14.7000,42.9000,
1.685588,-0.0642,0.1000,0.1270,-0.0492,-0.0171,-0.0354,-6.1500,14.7000,42.9000,
1.697964,-0.0642,0.1000,0.1270,-0.0848,-0.0290,-0.0260,-6.1500,14.7000,42.9000,
1.703510,-0.0642,0.1000,0.1270,-0.0848,-0.0290,-0.0260,-6.1500,14.7000,42.9000,
1.705170,-0.0509,0.0651,0.0908,-0.0848,-0.0290,-0.0260,-6.1500,14.7000,42.9000,
1.722947,-0.0509,0.0651,0.0908,-0.0848,-0.0290,-0.0260,-6.1500,14.7000,42.9000,
1.725260,-0.0896,0.0246,-0.0119,-0.0848,-0.0290,-0.0260,-6.1500,14.7000,42.9000,
1.727697,-0.0896,0.0246,-0.0119,-0.0848,-0.0290,-0.0260,-6.6750,14.5500,42.4500,
1.742330,-0.0896,0.0246,-0.0119,-0.0848,-0.0290,-0.0260,-6.6750,14.5500,42.4500,
1.744989,-0.1488,0.0440,-0.1556,-0.0848,-0.0290,-0.0260,-6.6750,14.5500,42.4500,
1.761933,-0.1488,0.0440,-0.1556,-0.0848,-0.0290,-0.0260,-6.6750,14.5500,42.4500,
1.765457,-0.1823,0.1541,-0.0780,-0.0848,-0.0290,-0.0260,-6.6750,14.5500,42.4500,
1.767283,-0.1823,0.1541,-0.0780,-0.1103,-0.0516,-0.0118,-6.6750,14.5500,42.4500,
1.781126,-0.1823,0.1541,-0.0780,-0.1103,-0.0516,-0.0118,-6.6750,14.5500,42.4500,
1.784419,-0.2103,0.0986,0.0748,-0.1103,-0.0516,-0.0118,-6.6750,14.5500,42.4500,
1.793454,-0.2103,0.0986,0.0748,-0.1103,-0.0516,-0.0118,-6.0750,14.4000,42.6000,
1.805559,-0.2103,0.0986,0.0748,-0.1103,-0.0516,-0.0118,-6.0750,14.4000,42.6000,
1.807627,-0.1996,0.0256,0.1172,-0.1103,-0.0516,-0.0118,-6.0750,14.4000,42.6000,
1.825959,-0.1996,0.0256,0.1172,-0.1103,-0.0516,-0.0118,-6.0750,14.4000,42.6000,
1.827379,-0.0876,0.0116,0.0514,-0.1103,-0.0516,-0.0118,-6.0750,14.4000,42.6000,
1.840234,-0.0876,0.0116,0.0514,-0.1268,-0.1139,0.0087,-6.0750,14.4000,42.6000,
1.845012,-0.0876,0.0116,0.0514,-0.1268,-0.1139,0.0087,-6.0750,14.4000,42.6000,
1.845815,0.0131,0.0195,0.0579,-0.1268,-0.1139,0.0087,-6.0750,14.4000,42.6000,
1.865609,0.0131,0.0195,0.0579,-0.1268,-0.1139,0.0087,-6.0750,14.4000,42.6000,
1.867901,0.1253,0.0492,0.0357,-0.1268,-0.1139,0.0087,-6.0750,14.4000,42.6000,
1.869347,0.1253,0.0492,0.0357,-0.1268,-0.1139,0.0087,-6.3750,14.3250,42.7500,
1.887106,0.1253,0.0492,0.0357,-0.1268,-0.1139,0.0087,-6.3750,14.3250,42.7500,
1.888675,0.2031,0.0397,0.0508,-0.1268,-0.1139,0.0087,-6.3750,14.3250,42.7500,
1.904558,0.2031,0.0397,0.0508,-0.1268,-0.1139,0.0087,-6.3750,14.3250,42.7500,
1.906328,0.2178,0.0913,-0.0068,-0.1268,-0.1139,0.0087,-6.3750,14.3250,42.7500,
1.908806,0.2178,0.0913,-0.0068,-0.1548,-0.1293,-0.0069,-6.3750,14.3250,42.7500,
1.924985,0.2178,0.0913,-0.0068,-0.1548,-0.1293,-0.0069,-6.3750,14.3250,42.7500,
1.926997,0.2277,0.1178,-0.0480,-0.1548,-0.1293,-0.0069,-6.3750,14.3250,42.7500,
1.934742,0.2277,0.1178,-0.0480,-0.1548,-0.1293,-0.0069,-5.5500,13.6500,43.2750,
1.943567,0.2277,0.1178,-0.0480,-0.1548,-0.1293,-0.0069,-5.5500,13.6500,43.2750,
1.945017,0.2833,0.1539,-0.0050,-0.1548,-0.1293,-0.0069,-5.5500,13.6500,43.2750,
1.963728,0.2833,0.1539,-0.0050,-0.1548,-0.1293,-0.0069,-5.5500,13.6500,43.2750,
1.968490,0.4099,0.1416,-0.0782,-0.1548,-0.1293,-0.0069,-5.5500,13.6500,43.2750,
1.977872,0.4099,0.1416,-0.0782,-0.2323,-0.0893,-0.0470,-5.5500,13.6500,43.2750,
1.982979,0.4099,0.1416,-0.0782,-0.2323,-0.0893,-0.0470,-5.5500,13.6500,43.2750,
1.987099,0.4574,0.1083,-0.2388,-0.2323,-0.0893,-0.0470,-5.5500,13.6500,43.2750,
2.001709,0.4574,0.1083,-0.2388,-0.2323,-0.0893,-0.0470,-5.5500,13.6500,43.2750,
2.004231,0.4407,0.1796,0.3591,-0.2323,-0.0893,-0.0470,-5.5500,13.6500,43.2750,
2.005847,0.4407,0.1796,0.3591,-0.2323,-0.0893,-0.0470,-4.8750,12.5250,44.1750,
2.022277,0.4407,0.1796,0.3591,-0.2323,-0.0893,-0.0470,-4.8750,12.5250,44.1750,
2.024745,0.8298,-0.0084,0.1158,-0.2323,-0.0893,-0.0470,-4.8750,12.5250,44.1750,
2.040930,0.8298,-0.0084,0.1158,-0.2323,-0.0893,-0.0470,-4.8750,12.5250,44.1750,
2.043266,1.0019,-0.0741,-0.0383,-0.2323,-0.0893,-0.0470,-4.8750,12.5250,44.1750,
2.045424,1.0019,-0.0741,-0.0383,-0.2966,0.0715,-0.1151,-4.8750,12.5250,44.1750,
2.060194,1.0019,-0.0741,-0.0383,-0.2966,0.0715,-0.1151,-4.8750,12.5250,44.1750,
2.062118,1.0798,0.1641,0.2939,-0.2966,0.0715,-0.1151,-4.8750,12.5250,44.1750,
2.075738,1.0798,0.1641,0.2939,-0.2966,0.0715,-0.1151,-5.3250,12.2250,43.9500,
2.079975,1.0798,0.1641,0.2939,-0.2966,0.0715,-0.1151,-5.3250,12.2250,43.9500,
2.082117,1.0990,0.2277,-0.3219,-0.2966,0.0715,-0.1151,-5.3250,12.2250,43.9500,
2.099670,1.0990,0.2277,-0.3219,-0.2966,0.0715,-0.1151,-5.3250,12.2250,43.9500,
2.101728,0.8753,0.4255,-0.4318,-0.2966,0.0715,-0.1151,-5.3250,12.2250,43.9500,
2.114084,0.8753,0.4255,-0.4318,-0.3447,0.1988,-0.1970,-5.3250,12.2250,43.9500,
2.120110,0.8753,0.4255,-0.4318,-0.3447,0.1988,-0.1970,-5.3250,12.2250,43.9500,
2.121892,0.5846,0.3984,-0.1908,-0.3447,0.1988,-0.1970,-5.3250,12.2250,43.9500,
2.138697,0.5846,0.3984,-0.1908,-0.3447,0.1988,-0.1970,-5.3250,12.2250,43.9500,
2.141107,0.3402,0.0936,-0.0032,-0.3447,0.1988,-0.1970,-5.3250,12.2250,43.9500,
2.143126,0.3402,0.0936,-0.0032,-0.3447,0.1988,-0.1970,-5.7000,11.3250,44.1750,
2.158848,0.3402,0.0936,-0.0032,-0.3447,0.1988,-0.1970,-5.7000,11.3250,44.1750,
2.161661,0.2777,-0.1519,0.2484,-0.3447,0.1988,-0.1970,-5.7000,11.3250,44.1750,
2.183892,0.2777,-0.1519,0.2484,-0.3447,0.1988,-0.1970,-5.7000,11.3250,44.1750,
2.187333,0.1849,0.0107,0.4698,-0.3447,0.1988,-0.1970,-5.7000,11.3250,44.1750,
2.189260,0.1849,0.0107,0.4698,-0.3525,0.1187,-0.1019,-5.7000,11.3250,44.1750,
2.203209,0.1849,0.0107,0.4698,-0.3525,0.1187,-0.1019,-5.7000,11.3250,44.1750,
2.205587,0.2324,0.2888,0.5081,-0.3525,0.1187,-0.1019,-5.7000,11.3250,44.1750,
2.211932,0.2324,0.2888,0.5081,-0.3525,0.1187,-0.1019,-6.3000,9.6750,44.5500,
2.221821,0.2324,0.2888,0.5081,-0.3525,0.1187,-0.1019,-6.3000,9.6750,44.5500,
2.223819,0.3306,0.3431,0.3503,-0.3525,0.1187,-0.1019,-6.3000,9.6750,44.5500,
2.241160,0.3306,0.3431,0.3503,-0.3525,0.1187,-0.1019,-6.3000,9.6750,44.5500,
2.243566,0.4568,0.6595,0.4649,-0.3525,0.1187,-0.1019,-6.3000,9.6750,44.5500,
2.255551,0.4568,0.6595,0.4649,-0.2489,-0.1188,0.0330,-6.3000,9.6750,44.5500,
2.261002,0.4568,0.6595,0.4649,-0.2489,-0.1188,0.0330,-6.3000,9.6750,44.5500,
2.262792,0.5986,0.9811,0.1946,-0.2489,-0.1188,0.0330,-6.3000,9.6750,44.5500,
2.279995,0.5986,0.9811,0.1946,-0.2489,-0.1188,0.0330,-6.3000,9.6750,44.5500,
2.281951,0.6718,0.5759,-0.3158,-0.2489,-0.1188,0.0330,-6.3000,9.6750,44.5500,
2.283798,0.6718,0.5759,-0.3158,-0.2489,-0.1188,0.0330,-6.4500,9.1500,44.7750,
2.300144,0.6718,0.5759,-0.3158,-0.2489,-0.1188,0.0330,-6.4500,9.1500,44.7750,
2.302573,0.6763,-0.4861,-0.7221,-0.2489,-0.1188,0.0330,-6.4500,9.1500,44.7750,
2.319091,0.6763,-0.4861,-0.7221,-0.2489,-0.1188,0.0330,-6.4500,9.1500,44.7750,
2.321097,0.4313,-0.6441,0.0005,-0.2489,-0.1188,0.0330,-6.4500,9.1500,44.7750,
2.323289,0.4313,-0.6441,0.0005,-0.3416,-0.2526,0.0896,-6.4500,9.1500,44.7750,
2.341412,0.4313,-0.6441,0.0005,-0.3416,-0.2526,0.0896,-6.4500,9.1500,44.7750,
2.343529,-0.1654,-0.0236,0.2648,-0.3416,-0.2526,0.0896,-6.4500,9.1500,44.7750,
2.357589,-0.1654,-0.0236,0.2648,-0.3416,-0.2526,0.0896,-5.9250,8.1750,45.0000,
2.360320,-0.1654,-0.0236,0.2648,-0.3416,-0.2526,0.0896,-5.9250,8.1750,45.0000,
2.361891,-1.0411,1.3652,0.2720,-0.3416,-0.2526,0.0896,-5.9250,8.1750,45.0000,
2.373838,-1.0411,1.3652,0.2720,-0.3416,-0.2526,0.0896,-5.9250,8.1750,45.0000,
2.376224,-1.7934,1.7491,-0.3472,-0.3416,-0.2526,0.0896,-5.9250,8.1750,45.0000,
2.392470,-1.7934,1.7491,-0.3472,-0.4035,-0.4783,0.1019,-5.9250,8.1750,45.0000,
2.397641,-1.7934,1.7491,-0.3472,-0.4035,-0.4783,0.1019,-5.9250,8.1750,45.0000,
2.399316,-1.8076,0.9326,-0.5478,-0.4035,-0.4783,0.1019,-5.9250,8.1750,45.0000,
2.417045,-1.8076,0.9326,-0.5478,-0.4035,-0.4783,0.1019,-5.9250,8.1750,45.0000,
2.419321,-1.2546,-0.0880,-0.2487,-0.4035,-0.4783,0.1019,-5.9250,8.1750,45.0000,
2.421223,-1.2546,-0.0880,-0.2487,-0.4035,-0.4783,0.1019,-4.5750,7.0500,45.1500,
2.436922,-1.2546,-0.0880,-0.2487,-0.4035,-0.4783,0.1019,-4.5750,7.0500,45.1500,
2.438711,-0.4500,-0.4276,-0.1724,-0.4035,-0.4783,0.1019,-4.5750,7.0500,45.1500,
2.457411,-0.4500,-0.4276,-0.1724,-0.4035,-0.4783,0.1019,-4.5750,7.0500,45.1500,
2.459313,0.3704,-0.5328,-0.7281,-0.4035,-0.4783,0.1019,-4.5750,7.0500,45.1500,
2.467232,0.3704,-0.5328,-0.7281,-0.4783,-0.3587,0.0762,-4.5750,7.0500,45.1500,
2.481930,0.3704,-0.5328,-0.7281,-0.4783,-0.3587,0.0762,-4.5750,7.0500,45.1500,
2.483847,0.6988,-0.8193,-0.6114,-0.4783,-0.3587,0.0762,-4.5750,7.0500,45.1500,
2.492233,0.6988,-0.8193,-0.6114,-0.4783,-0.3587,0.0762,-3.5250,5.8500,45.4500,
2.500588,0.6988,-0.8193,-0.6114,-0.4783,-0.3587,0.0762,-3.5250,5.8500,45.4500,
2.503047,0.8430,-0.6755,0.0471,-0.4783,-0.3587,0.0762,-3.5250,5.8500,45.4500,
2.521348,0.8430,-0.6755,0.0471,-0.4783,-0.3587,0.0762,-3.5250,5.8500,45.4500,
2.525920,0.5353,-0.1966,0.4208,-0.4783,-0.3587,0.0762,-3.5250,5.8500,45.4500,
2.536642,0.5353,-0.1966,0.4208,-0.4168,-0.3204,-0.3028,-3.5250,5.8500,45.4500,
2.539611,0.5353,-0.1966,0.4208,-0.4168,-0.3204,-0.3028,-3.5250,5.8500,45.4500,
2.541264,-0.0443,0.0422,0.4292,-0.4168,-0.3204,-0.3028,-3.5250,5.8500,45.4500,
2.559272,-0.0443,0.0422,0.4292,-0.4168,-0.3204,-0.3028,-3.5250,5.8500,45.4500,
2.561693,-0.5075,0.1822,0.3826,-0.4168,-0.3204,-0.3028,-3.5250,5.8500,45.4500,
2.563728,-0.5075,0.1822,0.3826,-0.4168,-0.3204,-0.3028,-2.7750,4.7250,45.1500,
2.573697,-0.5075,0.1822,0.3826,-0.4168,-0.3204,-0.3028,-2.7750,4.7250,45.1500,
2.576218,-0.9739,0.3240,0.2713,-0.4168,-0.3204,-0.3028,-2.7750,4.7250,45.1500,
2.598248,-0.9739,0.3240,0.2713,-0.4168,-0.3204,-0.3028,-2.7750,4.7250,45.1500,
2.601209,-1.1050,0.5036,0.2023,-0.4168,-0.3204,-0.3028,-2.7750,4.7250,45.1500,
2.603446,-1.1050,0.5036,0.2023,-0.2721,-0.3190,-0.2709,-2.7750,4.7250,45.1500,
2.619624,-1.1050,0.5036,0.2023,-0.2721,-0.3190,-0.2709,-2.7750,4.7250,45.1500,
2.621904,-0.7699,0.4485,-0.3192,-0.2721,-0.3190,-0.2709,-2.7750,4.7250,45.1500,
2.632272,-0.7699,0.4485,-0.3192,-0.2721,-0.3190,-0.2709,-1.6500,2.4750,45.1500,
2.642743,-0.7699,0.4485,-0.3192,-0.2721,-0.3190,-0.2709,-1.6500,2.4750,45.1500,
2.644976,-0.4596,0.5303,-0.0414,-0.2721,-0.3190,-0.2709,-1.6500,2.4750,45.1500,
2.657035,-0.4596,0.5303,-0.0414,-0.2721,-0.3190,-0.2709,-1.6500,2.4750,45.1500,
2.659706,-0.2208,0.3854,-0.1969,-0.2721,-0.3190,-0.2709,-1.6500,2.4750,45.1500,
2.674230,-0.2208,0.3854,-0.1969,-0.3128,-0.3529,-0.2929,-1.6500,2.4750,45.1500,
2.677013,-0.2208,0.3854,-0.1969,-0.3128,-0.3529,-0.2929,-1.6500,2.4750,45.1500,
2.678914,-0.1762,0.3405,-0.5659,-0.3128,-0.3529,-0.2929,-1.6500,2.4750,45.1500,
2.695907,-0.1762,0.3405,-0.5659,-0.3128,-0.3529,-0.2929,-1.6500,2.4750,45.1500,
2.698861,-0.1163,0.1930,-0.4258,-0.3128,-0.3529,-0.2929,-1.6500,2.4750,45.1500,
2.706991,-0.1163,0.1930,-0.4258,-0.3128,-0.3529,-0.2929,-1.3500,1.6500,45.4500,
2.715990,-0.1163,0.1930,-0.4258,-0.3128,-0.3529,-0.2929,-1.3500,1.6500,45.4500,
2.718369,-0.0122,0.2257,-0.0977,-0.3128,-0.3529,-0.2929,-1.3500,1.6500,45.4500,
2.736422,-0.0122,0.2257,-0.0977,-0.3128,-0.3529,-0.2929,-1.3500,1.6500,45.4500,
2.739267,0.0735,0.4495,0.0936,-0.3128,-0.3529,-0.2929,-1.3500,1.6500,45.4500,
2.740822,0.0735,0.4495,0.0936,-0.3493,-0.4925,-0.3775,-1.3500,1.6500,45.4500,
2.757763,0.0735,0.4495,0.0936,-0.3493,-0.4925,-0.3775,-1.3500,1.6500,45.4500,
2.759910,0.0810,0.6768,0.0994,-0.3493,-0.4925,-0.3775,-1.3500,1.6500,45.4500,
2.771902,0.0810,0.6768,0.0994,-0.3493,-0.4925,-0.3775,-1.3500,1.6500,45.4500,
2.774527,0.0169,0.6702,-0.0926,-0.3493,-0.4925,-0.3775,-1.3500,1.6500,45.4500,
2.776696,0.0169,0.6702,-0.0926,-0.3493,-0.4925,-0.3775,0.6000,0.5250,45.6750,
2.798858,0.0169,0.6702,-0.0926,-0.3493,-0.4925,-0.3775,0.6000,0.5250,45.6750,
2.801336,-0.0522,0.8811,0.3126,-0.3493,-0.4925,-0.3775,0.6000,0.5250,45.6750,
2.813249,-0.0522,0.8811,0.3126,-0.3828,-0.4394,-0.3341,0.6000,0.5250,45.6750,
2.819969,-0.0522,0.8811,0.3126,-0.3828,-0.4394,-0.3341,0.6000,0.5250,45.6750,
2.822048,-0.1721,0.6548,0.4109,-0.3828,-0.4394,-0.3341,0.6000,0.5250,45.6750,
2.843037,-0.1721,0.6548,0.4109,-0.3828,-0.4394,-0.3341,0.6000,0.5250,45.6750,
2.845162,-0.2679,0.8420,0.6226,-0.3828,-0.4394,-0.3341,0.6000,0.5250,45.6750,
2.847468,-0.2679,0.8420,0.6226,-0.3828,-0.4394,-0.3341,2.1750,-0.3000,45.6750,
2.857262,-0.2679,0.8420,0.6226,-0.3828,-0.4394,-0.3341,2.1750,-0.3000,45.6750,
2.859593,-0.7006,0.9966,0.1437,-0.3828,-0.4394,-0.3341,2.1750,-0.3000,45.6750,
2.873276,-0.7006,0.9966,0.1437,-0.3828,-0.4394,-0.3341,2.1750,-0.3000,45.6750,
2.876732,-0.9487,0.8272,-0.2577,-0.3828,-0.4394,-0.3341,2.1750,-0.3000,45.6750,
2.882789,-0.9487,0.8272,-0.2577,-0.4407,-0.4676,-0.1723,2.1750,-0.3000,45.6750,
2.896082,-0.9487,0.8272,-0.2577,-0.4407,-0.4676,-0.1723,2.1750,-0.3000,45.6750,
2.898571,-0.5174,0.8412,0.1071,-0.4407,-0.4676,-0.1723,2.1750,-0.3000,45.6750,
2.911426,-0.5174,0.8412,0.1071,-0.4407,-0.4676,-0.1723,2.1750,-0.3000,45.6750,
2.913437,-0.0550,0.8560,0.3192,-0.4407,-0.4676,-0.1723,2.1750,-0.3000,45.6750,
2.915185,-0.0550,0.8560,0.3192,-0.4407,-0.4676,-0.1723,3.0750,-1.2000,45.6750,
2.935901,-0.0550,0.8560,0.3192,-0.4407,-0.4676,-0.1723,3.0750,-1.2000,45.6750,
2.938369,0.7047,0.8228,-0.2353,-0.4407,-0.4676,-0.1723,3.0750,-1.2000,45.6750,
2.950446,0.7047,0.8228,-0.2353,-0.6867,-0.2599,0.0310,3.0750,-1.2000,45.6750,
2.959691,0.7047,0.8228,-0.2353,-0.6867,-0.2599,0.0310,3.0750,-1.2000,45.6750,
2.961810,1.0318,0.1003,-0.6416,-0.6867,-0.2599,0.0310,3.0750,-1.2000,45.6750,
2.973698,1.0318,0.1003,-0.6416,-0.6867,-0.2599,0.0310,3.0750,-1.2000,45.6750,
2.976096,0.9694,0.2301,-0.2901,-0.6867,-0.2599,0.0310,3.0750,-1.2000,45.6750,
2.981313,0.9694,0.2301,-0.2901,-0.6867,-0.2599,0.0310,4.3500,-3.3000,45.3000,
2.994883,0.9694,0.2301,-0.2901,-0.6867,-0.2599,0.0310,4.3500,-3.3000,45.3000,
2.997134,0.7731,-0.0954,-0.3572,-0.6867,-0.2599,0.0310,4.3500,-3.3000,45.3000,
3.013566,0.7731,-0.0954,-0.3572,-0.6867,-0.2599,0.0310,4.3500,-3.3000,45.3000,
3.016037,0.8644,0.0562,-0.2100,-0.6867,-0.2599,0.0310,4.3500,-3.3000,45.3000,
3.022989,0.8644,0.0562,-0.2100,-0.8555,-0.2434,-0.0269,4.3500,-3.3000,45.3000,
3.032885,0.8644,0.0562,-0.2100,-0.8555,-0.2434,-0.0269,4.3500,-3.3000,45.3000,
3.034305,1.0618,-0.0316,-0.0854,-0.8555,-0.2434,-0.0269,4.3500,-3.3000,45.3000,
3.052228,1.0618,-0.0316,-0.0854,-0.8555,-0.2434,-0.0269,4.4250,-5.7750,44.5500,
3.055316,1.0618,-0.0316,-0.0854,-0.8555,-0.2434,-0.0269,4.4250,-5.7750,44.5500,
3.057000,1.1867,0.1105,0.0395,-0.8555,-0.2434,-0.0269,4.4250,-5.7750,44.5500,
3.076187,1.1867,0.1105,0.0395,-0.8555,-0.2434,-0.0269,4.4250,-5.7750,44.5500,
3.077942,0.8185,0.4136,0.2233,-0.8555,-0.2434,-0.0269,4.4250,-5.7750,44.5500,
3.091818,0.8185,0.4136,0.2233,-0.8815,-0.0912,0.1457,4.4250,-5.7750,44.5500,
3.097209,0.8185,0.4136,0.2233,-0.8815,-0.0912,0.1457,4.4250,-5.7750,44.5500,
3.098863,0.6132,0.7560,0.2121,-0.8815,-0.0912,0.1457,4.4250,-5.7750,44.5500,
3.116559,0.6132,0.7560,0.2121,-0.8815,-0.0912,0.1457,4.4250,-5.7750,44.5500,
3.118626,0.8220,0.9984,0.4042,-0.8815,-0.0912,0.1457,4.4250,-5.7750,44.5500,
3.122837,0.8220,0.9984,0.4042,-0.8815,-0.0912,0.1457,4.3500,-8.6250,43.8750,
3.138251,0.8220,0.9984,0.4042,-0.8815,-0.0912,0.1457,4.3500,-8.6250,43.8750,
3.140191,0.8962,0.9643,0.5066,-0.8815,-0.0912,0.1457,4.3500,-8.6250,43.8750,
3.155890,0.8962,0.9643,0.5066,-0.8815,-0.0912,0.1457,4.3500,-8.6250,43.8750,
3.158723,0.8918,0.8719,0.9043,-0.8815,-0.0912,0.1457,4.3500,-8.6250,43.8750,
3.161192,0.8918,0.8719,0.9043,-0.8033,0.1138,0.3612,4.3500,-8.6250,43.8750,
3.174093,0.8918,0.8719,0.9043,-0.8033,0.1138,0.3612,4.3500,-8.6250,43.8750,
3.175920,0.7268,1.2814,1.0081,-0.8033,0.1138,0.3612,4.3500,-8.6250,43.8750,
3.186423,0.7268,1.2814,1.0081,-0.8033,0.1138,0.3612,4.5000,-11.7000,43.8000,
3.190404,0.7268,1.2814,1.0081,-0.8033,0.1138,0.3612,4.5000,-11.7000,43.8000,
3.192075,0.6181,1.7817,1.3605,-0.8033,0.1138,0.3612,4.5000,-11.7000,43.8000,
3.214363,0.6181,1.7817,1.3605,-0.8033,0.1138,0.3612,4.5000,-11.7000,43.8000,
3.216951,0.8193,2.6362,2.4513,-0.8033,0.1138,0.3612,4.5000,-11.7000,43.8000,
3.229302,0.8193,2.6362,2.4513,-0.6136,0.2139,0.6035,4.5000,-11.7000,43.8000,
3.234152,0.8193,2.6362,2.4513,-0.6136,0.2139,0.6035,4.5000,-11.7000,43.8000,
3.235798,0.2709,2.8914,1.8158,-0.6136,0.2139,0.6035,4.5000,-11.7000,43.8000,
3.253949,0.2709,2.8914,1.8158,-0.6136,0.2139,0.6035,4.5000,-11.7000,43.8000,
3.256222,0.5554,2.0398,0.8098,-0.6136,0.2139,0.6035,4.5000,-11.7000,43.8000,
3.258291,0.5554,2.0398,0.8098,-0.6136,0.2139,0.6035,3.6000,-13.8750,42.7500,
3.274389,0.5554,2.0398,0.8098,-0.6136,0.2139,0.6035,3.6000,-13.8750,42.7500,
3.276357,1.1652,2.2277,0.7955,-0.6136,0.2139,0.6035,3.6000,-13.8750,42.7500,
3.292768,1.1652,2.2277,0.7955,-0.6136,0.2139,0.6035,3.6000,-13.8750,42.7500,
3.295193,1.4182,3.2755,0.7458,-0.6136,0.2139,0.6035,3.6000,-13.8750,42.7500,
3.297361,1.4182,3.2755,0.7458,-0.6174,0.4955,0.7859,3.6000,-13.8750,42.7500,
3.312793,1.4182,3.2755,0.7458,-0.6174,0.4955,0.7859,3.6000,-13.8750,42.7500,
3.314870,0.5853,3.6034,0.5569,-0.6174,0.4955,0.7859,3.6000,-13.8750,42.7500,
3.327994,0.5853,3.6034,0.5569,-0.6174,0.4955,0.7859,0.9000,-16.1250,42.4500,
3.336300,0.5853,3.6034,0.5569,-0.6174,0.4955,0.7859,0.9000,-16.1250,42.4500,
3.338420,1.1385,1.6815,0.7023,-0.6174,0.4955,0.7859,0.9000,-16.1250,42.4500,
3.356647,1.1385,1.6815,0.7023,-0.6174,0.4955,0.7859,0.9000,-16.1250,42.4500,
3.359080,2.1271,1.5010,2.5512,-0.6174,0.4955,0.7859,0.9000,-16.1250,42.4500,
3.370941,2.1271,1.5010,2.5512,-0.8805,0.0108,0.7724,0.9000,-16.1250,42.4500,
3.373859,2.1271,1.5010,2.5512,-0.8805,0.0108,0.7724,0.9000,-16.1250,42.4500,
3.375422,3.3341,1.6465,2.9357,-0.8805,0.0108,0.7724,0.9000,-16.1250,42.4500,
3.395401,3.3341,1.6465,2.9357,-0.8805,0.0108,0.7724,0.9000,-16.1250,42.4500,
3.397070,3.2762,2.0668,2.3973,-0.8805,0.0108,0.7724,0.9000,-16.1250,42.4500,
3.398926,3.2762,2.0668,2.3973,-0.8805,0.0108,0.7724,-1.2000,-17.3250,41.8500,
3.414881,3.2762,2.0668,2.3973,-0.8805,0.0108,0.7724,-1.2000,-17.3250,41.8500,
3.416601,3.3469,1.8310,1.9876,-0.8805,0.0108,0.7724,-1.2000,-17.3250,41.8500,
3.434272,3.3469,1.8310,1.9876,-0.8805,0.0108,0.7724,-1.2000,-17.3250,41.8500,
3.436697,3.4528,1.8503,3.5135,-0.8805,0.0108,0.7724,-1.2000,-17.3250,41.8500,
3.439252,3.4528,1.8503,3.5135,-0.9599,-0.2784,0.5921,-1.2000,-17.3250,41.8500,
3.458725,3.4528,1.8503,3.5135,-0.9599,-0.2784,0.5921,-1.2000,-17.3250,41.8500,
3.460751,3.1975,1.9641,3.3706,-0.9599,-0.2784,0.5921,-1.2000,-17.3250,41.8500,
3.464313,3.1975,1.9641,3.3706,-0.9599,-0.2784,0.5921,-1.2750,-20.4000,40.0500,
3.473316,3.1975,1.9641,3.3706,-0.9599,-0.2784,0.5921,-1.2750,-20.4000,40.0500,
3.475402,3.3807,3.4545,4.7242,-0.9599,-0.2784,0.5921,-1.2750,-20.4000,40.0500,
3.493583,3.3807,3.4545,4.7242,-0.9599,-0.2784,0.5921,-1.2750,-20.4000,40.0500,
3.496293,2.8537,2.7042,5.4978,-0.9599,-0.2784,0.5921,-1.2750,-20.4000,40.0500,
3.507814,2.8537,2.7042,5.4978,-1.0061,-1.0206,0.4878,-1.2750,-20.4000,40.0500,
3.513399,2.8537,2.7042,5.4978,-1.0061,-1.0206,0.4878,-1.2750,-20.4000,40.0500,
3.515238,1.8362,1.8617,4.3993,-1.0061,-1.0206,0.4878,-1.2750,-20.4000,40.0500,
3.531949,1.8362,1.8617,4.3993,-1.0061,-1.0206,0.4878,-1.2750,-20.4000,40.0500,
3.534558,4.1916,2.4841,3.6676,-1.0061,-1.0206,0.4878,-1.2750,-20.4000,40.0500,
3.537436,4.1916,2.4841,3.6676,-1.0061,-1.0206,0.4878,-1.5750,-24.0000,38.1750,
3.552461,4.1916,2.4841,3.6676,-1.0061,-1.0206,0.4878,-1.5750,-24.0000,38.1750,
3.555668,5.1541,2.8581,5.3797,-1.0061,-1.0206,0.4878,-1.5750,-24.0000,38.1750,
3.575126,5.1541,2.8581,5.3797,-1.0061,-1.0206,0.4878,-1.5750,-24.0000,38.1750,
3.580338,2.4890,4.3889,10.2977,-1.0061,-1.0206,0.4878,-1.5750,-24.0000,38.1750,
3.585823,2.4890,4.3889,10.2977,-0.4340,-1.3785,0.5388,-1.5750,-24.0000,38.1750,
3.598567,2.4890,4.3889,10.2977,-0.4340,-1.3785,0.5388,-1.5750,-24.0000,38.1750,
3.601884,-0.1781,0.6234,5.6285,-0.4340,-1.3785,0.5388,-1.5750,-24.0000,38.1750,
3.612020,-0.1781,0.6234,5.6285,-0.4340,-1.3785,0.5388,0.0000,-26.2500,37.0500,
3.616133,-0.1781,0.6234,5.6285,-0.4340,-1.3785,0.5388,0.0000,-26.2500,37.0500,
3.617812,4.2638,6.8326,3.3689,-0.4340,-1.3785,0.5388,0.0000,-26.2500,37.0500,
3.635873,4.2638,6.8326,3.3689,-0.4340,-1.3785,0.5388,0.0000,-26.2500,37.0500,
3.638312,1.5389,3.1306,4.4654,-0.4340,-1.3785,0.5388,0.0000,-26.2500,37.0500,
3.650820,1.5389,3.1306,4.4654,1.1983,-1.2222,1.0575,0.0000,-26.2500,37.0500,
3.662406,1.5389,3.1306,4.4654,1.1983,-1.2222,1.0575,0.0000,-26.2500,37.0500,
3.664960,-2.0496,0.5612,1.1292,1.1983,-1.2222,1.0575,0.0000,-26.2500,37.0500,
3.674765,-2.0496,0.5612,1.1292,1.1983,-1.2222,1.0575,0.0000,-26.2500,37.0500,
3.676559,-8.2362,0.5601,-4.1550,1.1983,-1.2222,1.0575,0.0000,-26.2500,37.0500,
3.678565,-8.2362,0.5601,-4.1550,1.1983,-1.2222,1.0575,1.2000,-25.3500,36.1500,
3.693705,-8.2362,0.5601,-4.1550,1.1983,-1.2222,1.0575,1.2000,-25.3500,36.1500,
3.695778,-17.0381,-3.1453,-9.8255,1.1983,-1.2222,1.0575,1.2000,-25.3500,36.1500,
3.713040,-17.0381,-3.1453,-9.8255,1.1983,-1.2222,1.0575,1.2000,-25.3500,36.1500,
3.716113,-2.0804,4.3973,-11.2163,1.1983,-1.2222,1.0575,1.2000,-25.3500,36.1500,
3.718102,-2.0804,4.3973,-11.2163,2.9012,-2.2459,2.3973,1.2000,-25.3500,36.1500,
3.732963,-2.0804,4.3973,-11.2163,2.9012,-2.2459,2.3973,1.2000,-25.3500,36.1500,
3.735767,-1.7471,0.6301,-6.6550,2.9012,-2.2459,2.3973,1.2000,-25.3500,36.1500,
3.744439,-1.7471,0.6301,-6.6550,2.9012,-2.2459,2.3973,0.9000,-19.8000,39.6750,
3.754340,-1.7471,0.6301,-6.6550,2.9012,-2.2459,2.3973,0.9000,-19.8000,39.6750,
3.756591,-7.6185,-26.3581,-22.9337,2.9012,-2.2459,2.3973,0.9000,-19.8000,39.6750,
3.776509,-7.6185,-26.3581,-22.9337,2.9012,-2.2459,2.3973,0.9000,-19.8000,39.6750,
3.778973,-21.9395,-29.3043,-15.9363,2.9012,-2.2459,2.3973,0.9000,-19.8000,39.6750,
3.788749,-21.9395,-29.3043,-15.9363,2.1421,-6.2259,3.2468,0.9000,-19.8000,39.6750,
3.791955,-21.9395,-29.3043,-15.9363,2.1421,-6.2259,3.2468,0.9000,-19.8000,39.6750,
3.793493,-30.2338,-7.9939,13.7625,2.1421,-6.2259,3.2468,0.9000,-19.8000,39.6750,
3.811215,-30.2338,-7.9939,13.7625,2.1421,-6.2259,3.2468,0.9000,-19.8000,39.6750,
3.813710,8.0528,-10.1639,0.3046,2.1421,-6.2259,3.2468,0.9000,-19.8000,39.6750,
3.815524,8.0528,-10.1639,0.3046,2.1421,-6.2259,3.2468,10.2750,-15.1500,39.9000,
3.831127,8.0528,-10.1639,0.3046,2.1421,-6.2259,3.2468,10.2750,-15.1500,39.9000,
3.833191,10.8218,5.3146,-9.2438,2.1421,-6.2259,3.2468,10.2750,-15.1500,39.9000,
3.849819,10.8218,5.3146,-9.2438,2.1421,-6.2259,3.2468,10.2750,-15.1500,39.9000,
3.852681,-3.9584,8.1945,0.8202,2.1421,-6.2259,3.2468,10.2750,-15.1500,39.9000,
3.854994,-3.9584,8.1945,0.8202,2.7534,-0.5140,2.4135,10.2750,-15.1500,39.9000,
3.870839,-3.9584,8.1945,0.8202,2.7534,-0.5140,2.4135,10.2750,-15.1500,39.9000,
3.873258,0.5221,3.3916,1.7257,2.7534,-0.5140,2.4135,10.2750,-15.1500,39.9000,
3.892441,0.5221,3.3916,1.7257,2.7534,-0.5140,2.4135,10.2750,-15.1500,39.9000,
3.894312,5.1405,4.2915,2.0138,2.7534,-0.5140,2.4135,10.2750,-15.1500,39.9000,
3.895890,5.1405,4.2915,2.0138,2.7534,-0.5140,2.4135,13.6500,-12.5250,39.3000,
3.913945,5.1405,4.2915,2.0138,2.7534,-0.5140,2.4135,13.6500,-12.5250,39.3000,
3.916281,3.9722,1.9526,3.2414,2.7534,-0.5140,2.4135,13.6500,-12.5250,39.3000,
3.928546,3.9722,1.9526,3.2414,2.0773,-1.0704,1.7150,13.6500,-12.5250,39.3000,
3.933391,3.9722,1.9526,3.2414,2.0773,-1.0704,1.7150,13.6500,-12.5250,39.3000,
3.935251,-1.2777,-0.6476,2.6179,2.0773,-1.0704,1.7150,13.6500,-12.5250,39.3000,
3.953018,-1.2777,-0.6476,2.6179,2.0773,-1.0704,1.7150,13.6500,-12.5250,39.3000,
3.955572,-9.2645,1.8010,3.8966,2.0773,-1.0704,1.7150,13.6500,-12.5250,39.3000,
3.957156,-9.2645,1.8010,3.8966,2.0773,-1.0704,1.7150,14.2500,-7.2750,39.6000,
3.976234,-9.2645,1.8010,3.8966,2.0773,-1.0704,1.7150,14.2500,-7.2750,39.6000,
3.979040,-13.6522,2.7517,1.3452,2.0773,-1.0704,1.7150,14.2500,-7.2750,39.6000,
3.992257,-13.6522,2.7517,1.3452,2.0773,-1.0704,1.7150,14.2500,-7.2750,39.6000,
3.994884,-9.2674,3.6382,-1.4868,2.0773,-1.0704,1.7150,14.2500,-7.2750,39.6000,
3.997239,-9.2674,3.6382,-1.4868,2.6115,-2.7969,1.8475,14.2500,-7.2750,39.6000,
4.012023,-9.2674,3.6382,-1.4868,2.6115,-2.7969,1.8475,14.2500,-7.2750,39.6000,
4.014980,-2.8527,7.7985,2.8269,2.6115,-2.7969,1.8475,14.2500,-7.2750,39.6000,
4.022810,-2.8527,7.7985,2.8269,2.6115,-2.7969,1.8475,19.8750,-2.8500,38.8500,
4.031286,-2.8527,7.7985,2.8269,2.6115,-2.7969,1.8475,19.8750,-2.8500,38.8500,
4.032880,0.8712,6.1209,4.3719,2.6115,-2.7969,1.8475,19.8750,-2.8500,38.8500,
4.050860,0.8712,6.1209,4.3719,2.6115,-2.7969,1.8475,19.8750,-2.8500,38.8500,
4.052899,5.1363,2.7433,4.7649,2.6115,-2.7969,1.8475,19.8750,-2.8500,38.8500,
4.065696,5.1363,2.7433,4.7649,1.5042,-1.5725,0.0990,19.8750,-2.8500,38.8500,
4.071799,5.1363,2.7433,4.7649,1.5042,-1.5725,0.0990,19.8750,-2.8500,38.8500,
4.073823,7.4217,3.8683,0.2312,1.5042,-1.5725,0.0990,19.8750,-2.8500,38.8500,
4.094081,7.4217,3.8683,0.2312,1.5042,-1.5725,0.0990,19.8750,-2.8500,38.8500,
4.096816,4.3992,5.3310,-1.2620,1.5042,-1.5725,0.0990,19.8750,-2.8500,38.8500,
4.099901,4.3992,5.3310,-1.2620,1.5042,-1.5725,0.0990,26.0250,0.7500,34.3500,
4.110417,4.3992,5.3310,-1.2620,1.5042,-1.5725,0.0990,26.0250,0.7500,34.3500,
4.112346,1.1554,4.3716,0.5034,1.5042,-1.5725,0.0990,26.0250,0.7500,34.3500,
4.133627,1.1554,4.3716,0.5034,1.5042,-1.5725,0.0990,26.0250,0.7500,34.3500,
4.135884,-0.2986,2.8956,1.3413,1.5042,-1.5725,0.0990,26.0250,0.7500,34.3500,
4.144575,-0.2986,2.8956,1.3413,0.8810,-1.3127,-0.3376,26.0250,0.7500,34.3500,
4.148895,-0.2986,2.8956,1.3413,0.8810,-1.3127,-0.3376,26.0250,0.7500,34.3500,
4.151080,0.4382,2.2918,2.1854,0.8810,-1.3127,-0.3376,26.0250,0.7500,34.3500,
4.164087,0.4382,2.2918,2.1854,0.8810,-1.3127,-0.3376,28.6500,3.3000,30.4500,
4.170421,0.4382,2.2918,2.1854,0.8810,-1.3127,-0.3376,28.6500,3.3000,30.4500,
4.172812,0.2038,3.1132,1.3894,0.8810,-1.3127,-0.3376,28.6500,3.3000,30.4500,
4.193196,0.2038,3.1132,1.3894,0.8810,-1.3127,-0.3376,28.6500,3.3000,30.4500,
4.194983,-0.9363,4.0443,0.6033,0.8810,-1.3127,-0.3376,28.6500,3.3000,30.4500,
4.209313,-0.9363,4.0443,0.6033,0.2211,-0.8164,-0.2877,28.6500,3.3000,30.4500,
4.214383,-0.9363,4.0443,0.6033,0.2211,-0.8164,-0.2877,28.6500,3.3000,30.4500,
4.215877,-0.7223,3.4500,1.0870,0.2211,-0.8164,-0.2877,28.6500,3.3000,30.4500,
4.232149,-0.7223,3.4500,1.0870,0.2211,-0.8164,-0.2877,28.6500,3.3000,30.4500,
4.233783,0.4742,2.3244,2.4255,0.2211,-0.8164,-0.2877,28.6500,3.3000,30.4500,
4.242273,0.4742,2.3244,2.4255,0.2211,-0.8164,-0.2877,30.3750,5.6250,28.6500,
4.251764,0.4742,2.3244,2.4255,0.2211,-0.8164,-0.2877,30.3750,5.6250,28.6500,
4.252876,1.0752,1.7174,2.4811,0.2211,-0.8164,-0.2877,30.3750,5.6250,28.6500,
4.273058,1.0752,1.7174,2.4811,0.2211,-0.8164,-0.2877,30.3750,5.6250,28.6500,
4.277374,0.6219,1.8312,1.2556,0.2211,-0.8164,-0.2877,30.3750,5.6250,28.6500,
4.283161,0.6219,1.8312,1.2556,0.0805,-0.1924,-0.1936,30.3750,5.6250,28.6500,
4.295077,0.6219,1.8312,1.2556,0.0805,-0.1924,-0.1936,30.3750,5.6250,28.6500,
4.297033,0.7194,2.2193,0.2972,0.0805,-0.1924,-0.1936,30.3750,5.6250,28.6500,
4.302842,0.7194,2.2193,0.2972,0.0805,-0.1924,-0.1936,31.5000,6.3000,27.3000,
4.309636,0.7194,2.2193,0.2972,0.0805,-0.1924,-0.1936,31.5000,6.3000,27.3000,
4.312082,0.5016,2.2325,-0.1636,0.0805,-0.1924,-0.1936,31.5000,6.3000,27.3000,
4.328911,0.5016,2.2325,-0.1636,0.0805,-0.1924,-0.1936,31.5000,6.3000,27.3000,
4.331303,0.3476,1.5268,-0.0883,0.0805,-0.1924,-0.1936,31.5000,6.3000,27.3000,
4.344113,0.3476,1.5268,-0.0883,0.0476,-0.0568,-0.2266,31.5000,6.3000,27.3000,
4.348604,0.3476,1.5268,-0.0883,0.0476,-0.0568,-0.2266,31.5000,6.3000,27.3000,
4.350256,0.4096,0.5254,-0.1754,0.0476,-0.0568,-0.2266,31.5000,6.3000,27.3000,
4.368512,0.4096,0.5254,-0.1754,0.0476,-0.0568,-0.2266,31.5000,6.3000,27.3000,
4.372255,0.3632,0.2207,-0.2866,0.0476,-0.0568,-0.2266,31.5000,6.3000,27.3000,
4.374463,0.3632,0.2207,-0.2866,0.0476,-0.0568,-0.2266,30.8250,6.9000,27.7500,
4.388364,0.3632,0.2207,-0.2866,0.0476,-0.0568,-0.2266,30.8250,6.9000,27.7500,
4.391604,0.1769,0.0645,-0.1589,0.0476,-0.0568,-0.2266,30.8250,6.9000,27.7500,
4.407606,0.1769,0.0645,-0.1589,0.0476,-0.0568,-0.2266,30.8250,6.9000,27.7500,
4.411141,0.0444,-0.5616,0.0113,0.0476,-0.0568,-0.2266,30.8250,6.9000,27.7500,
4.417301,0.0444,-0.5616,0.0113,-0.1460,0.0686,-0.1921,30.8250,6.9000,27.7500,
4.431792,0.0444,-0.5616,0.0113,-0.1460,0.0686,-0.1921,30.8250,6.9000,27.7500,
4.434238,-0.3919,-0.7770,0.6114,-0.1460,0.0686,-0.1921,30.8250,6.9000,27.7500,
4.443354,-0.3919,-0.7770,0.6114,-0.1460,0.0686,-0.1921,31.2750,6.7500,27.1500,
4.453626,-0.3919,-0.7770,0.6114,-0.1460,0.0686,-0.1921,31.2750,6.7500,27.1500,
4.456358,-0.0620,-0.4771,0.4054,-0.1460,0.0686,-0.1921,31.2750,6.7500,27.1500,
4.470668,-0.0620,-0.4771,0.4054,-0.1460,0.0686,-0.1921,31.2750,6.7500,27.1500,
4.475308,0.2587,-0.2726,-0.3331,-0.1460,0.0686,-0.1921,31.2750,6.7500,27.1500,
4.490928,0.2587,-0.2726,-0.3331,-0.2627,0.2311,-0.1515,31.2750,6.7500,27.1500,
4.493645,0.2587,-0.2726,-0.3331,-0.2627,0.2311,-0.1515,31.2750,6.7500,27.1500,
4.495418,0.4545,-0.1417,-0.5061,-0.2627,0.2311,-0.1515,31.2750,6.7500,27.1500,
4.510636,0.4545,-0.1417,-0.5061,-0.2627,0.2311,-0.1515,31.2750,6.7500,27.1500,
4.512652,0.2959,-0.2361,0.0883,-0.2627,0.2311,-0.1515,31.2750,6.7500,27.1500,
4.514253,0.2959,-0.2361,0.0883,-0.2627,0.2311,-0.1515,30.3750,6.6000,27.4500,
4.529717,0.2959,-0.2361,0.0883,-0.2627,0.2311,-0.1515,30.3750,6.6000,27.4500,
4.532411,0.5038,-0.3410,0.5652,-0.2627,0.2311,-0.1515,30.3750,6.6000,27.4500,
4.550176,0.5038,-0.3410,0.5652,-0.2627,0.2311,-0.1515,30.3750,6.6000,27.4500,
4.553580,0.7456,0.0390,0.4969,-0.2627,0.2311,-0.1515,30.3750,6.6000,27.4500,
4.556016,0.7456,0.0390,0.4969,-0.4752,0.5328,-0.1924,30.3750,6.6000,27.4500,
4.578391,0.7456,0.0390,0.4969,-0.4752,0.5328,-0.1924,30.3750,6.6000,27.4500,
4.581534,1.0263,0.6803,0.2939,-0.4752,0.5328,-0.1924,30.3750,6.6000,27.4500,
4.584238,1.0263,0.6803,0.2939,-0.4752,0.5328,-0.1924,29.9250,7.0500,29.2500,
4.588858,1.0263,0.6803,0.2939,-0.4752,0.5328,-0.1924,29.9250,7.0500,29.2500,
4.590954,0.4640,0.5505,0.1304,-0.4752,0.5328,-0.1924,29.9250,7.0500,29.2500,
4.608750,0.4640,0.5505,0.1304,-0.4752,0.5328,-0.1924,29.9250,7.0500,29.2500,
4.612287,-0.1685,0.2183,1.3987,-0.4752,0.5328,-0.1924,29.9250,7.0500,29.2500,
4.626298,-0.1685,0.2183,1.3987,-0.7544,0.9335,-0.3034,29.9250,7.0500,29.2500,
4.629196,-0.1685,0.2183,1.3987,-0.7544,0.9335,-0.3034,29.9250,7.0500,29.2500,
4.631042,0.1126,0.4509,1.9786,-0.7544,0.9335,-0.3034,29.9250,7.0500,29.2500,
4.647567,0.1126,0.4509,1.9786,-0.7544,0.9335,-0.3034,29.9250,7.0500,29.2500,
4.649543,-0.1093,0.8310,1.2241,-0.7544,0.9335,-0.3034,29.9250,7.0500,29.2500,
4.656824,-0.1093,0.8310,1.2241,-0.7544,0.9335,-0.3034,28.2000,5.1750,31.9500,
4.671702,-0.1093,0.8310,1.2241,-0.7544,0.9335,-0.3034,28.2000,5.1750,31.9500,
4.674407,-0.8983,1.2429,0.3332,-0.7544,0.9335,-0.3034,28.2000,5.1750,31.9500,
4.691894,-0.8983,1.2429,0.3332,-0.7544,0.9335,-0.3034,28.2000,5.1750,31.9500,
4.694431,-0.8862,1.1293,0.2503,-0.7544,0.9335,-0.3034,28.2000,5.1750,31.9500,
4.696287,-0.8862,1.1293,0.2503,-0.8453,0.9427,-0.3143,28.2000,5.1750,31.9500,
4.711377,-0.8862,1.1293,0.2503,-0.8453,0.9427,-0.3143,28.2000,5.1750,31.9500,
4.714965,-1.1442,0.8096,-0.0699,-0.8453,0.9427,-0.3143,28.2000,5.1750,31.9500,
4.724441,-1.1442,0.8096,-0.0699,-0.8453,0.9427,-0.3143,26.7750,5.1000,34.2750,
4.732260,-1.1442,0.8096,-0.0699,-0.8453,0.9427,-0.3143,26.7750,5.1000,34.2750,
4.733386,-0.4986,0.7606,-0.0860,-0.8453,0.9427,-0.3143,26.7750,5.1000,34.2750,
4.750263,-0.4986,0.7606,-0.0860,-0.8453,0.9427,-0.3143,26.7750,5.1000,34.2750,
4.752989,-0.6772,0.1229,-0.5107,-0.8453,0.9427,-0.3143,26.7750,5.1000,34.2750,
4.764548,-0.6772,0.1229,-0.5107,-0.8395,0.4988,-0.4325,26.7750,5.1000,34.2750,
4.772175,-0.6772,0.1229,-0.5107,-0.8395,0.4988,-0.4325,26.7750,5.1000,34.2750,
4.774897,-1.2340,0.4494,-0.6476,-0.8395,0.4988,-0.4325,26.7750,5.1000,34.2750,
4.790261,-1.2340,0.4494,-0.6476,-0.8395,0.4988,-0.4325,26.7750,5.1000,34.2750,
4.794743,-1.5333,0.1818,0.7022,-0.8395,0.4988,-0.4325,26.7750,5.1000,34.2750,
4.796748,-1.5333,0.1818,0.7022,-0.8395,0.4988,-0.4325,24.4500,3.5250,36.1500,
4.809334,-1.5333,0.1818,0.7022,-0.8395,0.4988,-0.4325,24.4500,3.5250,36.1500,
4.811476,-0.8453,0.1733,0.3744,-0.8395,0.4988,-0.4325,24.4500,3.5250,36.1500,
4.823205,-0.8453,0.1733,0.3744,-0.8395,0.4988,-0.4325,24.4500,3.5250,36.1500,
4.825299,-0.9252,-0.2727,-0.1772,-0.8395,0.4988,-0.4325,24.4500,3.5250,36.1500,
4.832939,-0.9252,-0.2727,-0.1772,-0.7593,0.5310,-0.4959,24.4500,3.5250,36.1500,
4.847853,-0.9252,-0.2727,-0.1772,-0.7593,0.5310,-0.4959,24.4500,3.5250,36.1500,
4.850047,-1.1225,-0.5370,-0.0673,-0.7593,0.5310,-0.4959,24.4500,3.5250,36.1500,
4.861876,-1.1225,-0.5370,-0.0673,-0.7593,0.5310,-0.4959,23.5500,2.8500,36.9750,
4.869677,-1.1225,-0.5370,-0.0673,-0.7593,0.5310,-0.4959,23.5500,2.8500,36.9750,
4.872809,-0.5623,-0.6722,0.7579,-0.7593,0.5310,-0.4959,23.5500,2.8500,36.9750,
4.894159,-0.5623,-0.6722,0.7579,-0.7593,0.5310,-0.4959,23.5500,2.8500,36.9750,
4.896775,-0.2826,-0.1010,-0.0662,-0.7593,0.5310,-0.4959,23.5500,2.8500,36.9750,
4.906952,-0.2826,-0.1010,-0.0662,-0.7196,0.5453,-0.5742,23.5500,2.8500,36.9750,
4.909546,-0.2826,-0.1010,-0.0662,-0.7196,0.5453,-0.5742,23.5500,2.8500,36.9750,
4.911004,-0.0745,-0.2790,0.1905,-0.7196,0.5453,-0.5742,23.5500,2.8500,36.9750,
4.930775,-0.0745,-0.2790,0.1905,-0.7196,0.5453,-0.5742,23.5500,2.8500,36.9750,
4.933287,0.0180,-0.0265,0.0863,-0.7196,0.5453,-0.5742,23.5500,2.8500,36.9750,
4.935183,0.0180,-0.0265,0.0863,-0.7196,0.5453,-0.5742,21.9750,1.6500,38.5500,
4.952097,0.0180,-0.0265,0.0863,-0.7196,0.5453,-0.5742,21.9750,1.6500,38.5500,
4.954994,-0.4486,0.1697,-0.0349,-0.7196,0.5453,-0.5742,21.9750,1.6500,38.5500,
4.977057,-0.4486,0.1697,-0.0349,-0.7196,0.5453,-0.5742,21.9750,1.6500,38.5500,
4.980431,-0.7722,0.3748,-0.2289,-0.7196,0.5453,-0.5742,21.9750,1.6500,38.5500,
4.983376,-0.7722,0.3748,-0.2289,-0.7361,0.4317,-0.7078,21.9750,1.6500,38.5500,
4.993050,-0.7722,0.3748,-0.2289,-0.7361,0.4317,-0.7078,21.9750,1.6500,38.5500,
4.995224,-0.7615,0.5599,-0.3568,-0.7361,0.4317,-0.7078,21.9750,1.6500,38.5500,
5.002696,-0.7615,0.5599,-0.3568,-0.7361,0.4317,-0.7078,20.5500,0.7500,39.0750,
5.009415,-0.7615,0.5599,-0.3568,-0.7361,0.4317,-0.7078,20.5500,0.7500,39.0750,
5.011200,-0.7476,0.8731,-0.1447,-0.7361,0.4317,-0.7078,20.5500,0.7500,39.0750,
5.023961,-0.7476,0.8731,-0.1447,-0.7361,0.4317,-0.7078,20.5500,0.7500,39.0750,
5.027141,0.1262,0.6834,0.0581,-0.7361,0.4317,-0.7078,20.5500,0.7500,39.0750,
5.044665,0.1262,0.6834,0.0581,-0.9128,0.0501,-0.7303,20.5500,0.7500,39.0750,
5.047995,0.1262,0.6834,0.0581,-0.9128,0.0501,-0.7303,20.5500,0.7500,39.0750,
5.049310,0.2597,0.7575,-1.0846,-0.9128,0.0501,-0.7303,20.5500,0.7500,39.0750,
5.067882,0.2597,0.7575,-1.0846,-0.9128,0.0501,-0.7303,20.5500,0.7500,39.0750,
5.070533,0.0005,0.7280,-1.2878,-0.9128,0.0501,-0.7303,20.5500,0.7500,39.0750,
5.073913,0.0005,0.7280,-1.2878,-0.9128,0.0501,-0.7303,21.6000,0.0750,39.1500,
5.089194,0.0005,0.7280,-1.2878,-0.9128,0.0501,-0.7303,21.6000,0.0750,39.1500,
5.093192,-0.3587,1.1569,-0.0274,-0.9128,0.0501,-0.7303,21.6000,0.0750,39.1500,
5.108629,-0.3587,1.1569,-0.0274,-0.9128,0.0501,-0.7303,21.6000,0.0750,39.1500,
5.111471,-0.9056,-0.1501,0.0424,-0.9128,0.0501,-0.7303,21.6000,0.0750,39.1500,
5.113332,-0.9056,-0.1501,0.0424,-1.0296,0.1170,-0.6579,21.6000,0.0750,39.1500,
5.127610,-0.9056,-0.1501,0.0424,-1.0296,0.1170,-0.6579,21.6000,0.0750,39.1500,
5.129857,-0.0894,0.8388,-0.1493,-1.0296,0.1170,-0.6579,21.6000,0.0750,39.1500,
5.142403,-0.0894,0.8388,-0.1493,-1.0296,0.1170,-0.6579,21.6000,0.0750,39.1500,
5.145030,0.6403,0.4661,-0.9822,-1.0296,0.1170,-0.6579,21.6000,0.0750,39.1500,
5.147023,0.6403,0.4661,-0.9822,-1.0296,0.1170,-0.6579,21.0000,-1.4250,40.0500,
5.170837,0.6403,0.4661,-0.9822,-1.0296,0.1170,-0.6579,21.0000,-1.4250,40.0500,
5.173545,-0.0394,0.3305,-0.6172,-1.0296,0.1170,-0.6579,21.0000,-1.4250,40.0500,
5.192081,-0.0394,0.3305,-0.6172,-0.9077,0.2017,-0.6779,21.0000,-1.4250,40.0500,
5.194272,-0.0394,0.3305,-0.6172,-0.9077,0.2017,-0.6779,21.0000,-1.4250,40.0500,
5.195415,0.0229,0.1771,0.7468,-0.9077,0.2017,-0.6779,21.0000,-1.4250,40.0500,
5.210527,0.0229,0.1771,0.7468,-0.9077,0.2017,-0.6779,21.0000,-1.4250,40.0500,
5.211581,0.4068,-0.1703,1.1359,-0.9077,0.2017,-0.6779,21.0000,-1.4250,40.0500,
5.212602,0.4068,-0.1703,1.1359,-0.9077,0.2017,-0.6779,20.7000,-3.7500,39.9750,
5.230931,0.4068,-0.1703,1.1359,-0.9077,0.2017,-0.6779,20.7000,-3.7500,39.9750,
5.232658,0.8520,-0.0396,-0.0666,-0.9077,0.2017,-0.6779,20.7000,-3.7500,39.9750,
5.250250,0.8520,-0.0396,-0.0666,-0.9077,0.2017,-0.6779,20.7000,-3.7500,39.9750,
5.251907,0.3242,0.3415,-0.8322,-0.9077,0.2017,-0.6779,20.7000,-3.7500,39.9750,
5.257121,0.3242,0.3415,-0.8322,-0.5485,0.4212,-0.7174,20.7000,-3.7500,39.9750,
5.268294,0.3242,0.3415,-0.8322,-0.5485,0.4212,-0.7174,20.7000,-3.7500,39.9750,
5.269617,-0.5758,0.3011,-0.5229,-0.5485,0.4212,-0.7174,20.7000,-3.7500,39.9750,
5.282818,-0.5758,0.3011,-0.5229,-0.5485,0.4212,-0.7174,19.8000,-4.8000,39.9750,
5.289454,-0.5758,0.3011,-0.5229,-0.5485,0.4212,-0.7174,19.8000,-4.8000,39.9750,
5.291813,-0.7024,-0.3761,0.1928,-0.5485,0.4212,-0.7174,19.8000,-4.8000,39.9750,
5.307797,-0.7024,-0.3761,0.1928,-0.5485,0.4212,-0.7174,19.8000,-4.8000,39.9750,
5.311023,-0.1284,-0.3521,0.3735,-0.5485,0.4212,-0.7174,19.8000,-4.8000,39.9750,
5.322571,-0.1284,-0.3521,0.3735,-0.4329,0.2604,-0.7695,19.8000,-4.8000,39.9750,
5.326791,-0.1284,-0.3521,0.3735,-0.4329,0.2604,-0.7695,19.8000,-4.8000,39.9750,
5.328623,-0.0262,-0.3416,0.3366,-0.4329,0.2604,-0.7695,19.8000,-4.8000,39.9750,
5.346601,-0.0262,-0.3416,0.3366,-0.4329,0.2604,-0.7695,19.8000,-4.8000,39.9750,
5.349295,-0.1700,-0.0022,-0.3545,-0.4329,0.2604,-0.7695,19.8000,-4.8000,39.9750,
5.351799,-0.1700,-0.0022,-0.3545,-0.4329,0.2604,-0.7695,19.0500,-4.9500,39.7500,
5.366495,-0.1700,-0.0022,-0.3545,-0.4329,0.2604,-0.7695,19.0500,-4.9500,39.7500,
5.369132,-0.2942,-0.0762,-0.8189,-0.4329,0.2604,-0.7695,19.0500,-4.9500,39.7500,
5.385800,-0.2942,-0.0762,-0.8189,-0.4329,0.2604,-0.7695,19.0500,-4.9500,39.7500,
5.390294,-0.3083,-0.1230,-0.3419,-0.4329,0.2604,-0.7695,19.0500,-4.9500,39.7500,
5.392684,-0.3083,-0.1230,-0.3419,-0.3199,0.1646,-0.8088,19.0500,-4.9500,39.7500,
5.408011,-0.3083,-0.1230,-0.3419,-0.3199,0.1646,-0.8088,19.0500,-4.9500,39.7500,
5.410150,-0.3332,0.1495,0.1341,-0.3199,0.1646,-0.8088,19.0500,-4.9500,39.7500,
5.425112,-0.3332,0.1495,0.1341,-0.3199,0.1646,-0.8088,19.0500,-4.9500,39.7500,
5.427516,-0.4261,0.2926,-0.1402,-0.3199,0.1646,-0.8088,19.0500,-4.9500,39.7500,
5.429482,-0.4261,0.2926,-0.1402,-0.3199,0.1646,-0.8088,18.9750,-4.8000,40.2000,
5.444354,-0.4261,0.2926,-0.1402,-0.3199,0.1646,-0.8088,18.9750,-4.8000,40.2000,
5.446658,-0.3737,0.3452,-0.2135,-0.3199,0.1646,-0.8088,18.9750,-4.8000,40.2000,
5.458914,-0.3737,0.3452,-0.2135,-0.4120,0.1972,-0.8876,18.9750,-4.8000,40.2000,
5.464105,-0.3737,0.3452,-0.2135,-0.4120,0.1972,-0.8876,18.9750,-4.8000,40.2000,
5.466495,-0.1153,0.5318,-0.1261,-0.4120,0.1972,-0.8876,18.9750,-4.8000,40.2000,
5.483267,-0.1153,0.5318,-0.1261,-0.4120,0.1972,-0.8876,18.9750,-4.8000,40.2000,
5.485230,0.0938,0.6389,0.2894,-0.4120,0.1972,-0.8876,18.9750,-4.8000,40.2000,
5.491469,0.0938,0.6389,0.2894,-0.4120,0.1972,-0.8876,18.9000,-4.2000,40.0500,
5.503984,0.0938,0.6389,0.2894,-0.4120,0.1972,-0.8876,18.9000,-4.2000,40.0500,
5.506772,0.1141,0.6161,0.7551,-0.4120,0.1972,-0.8876,18.9000,-4.2000,40.0500,
5.523446,0.1141,0.6161,0.7551,-0.4120,0.1972,-0.8876,18.9000,-4.2000,40.0500,
5.527131,-0.0459,0.5561,0.6969,-0.4120,0.1972,-0.8876,18.9000,-4.2000,40.0500,
5.529105,-0.0459,0.5561,0.6969,-0.3667,0.2271,-0.9627,18.9000,-4.2000,40.0500,
5.547343,-0.0459,0.5561,0.6969,-0.3667,0.2271,-0.9627,18.9000,-4.2000,40.0500,
5.549924,0.0764,0.6671,0.4389,-0.3667,0.2271,-0.9627,18.9000,-4.2000,40.0500,
5.562019,0.0764,0.6671,0.4389,-0.3667,0.2271,-0.9627,18.9000,-4.2000,40.0500,
5.563581,0.1290,0.6716,-0.2848,-0.3667,0.2271,-0.9627,18.9000,-4.2000,40.0500,
5.565111,0.1290,0.6716,-0.2848,-0.3667,0.2271,-0.9627,18.2250,-4.5750,39.6750,
5.587776,0.1290,0.6716,-0.2848,-0.3667,0.2271,-0.9627,18.2250,-4.5750,39.6750,
5.589043,0.3215,0.7029,-0.4536,-0.3667,0.2271,-0.9627,18.2250,-4.5750,39.6750,
5.601691,0.3215,0.7029,-0.4536,-0.3569,0.4229,-0.8598,18.2250,-4.5750,39.6750,
5.606403,0.3215,0.7029,-0.4536,-0.3569,0.4229,-0.8598,18.2250,-4.5750,39.6750,
5.607687,0.7015,0.3738,0.0966,-0.3569,0.4229,-0.8598,18.2250,-4.5750,39.6750,
5.624173,0.7015,0.3738,0.0966,-0.3569,0.4229,-0.8598,18.2250,-4.5750,39.6750,
5.625410,0.6178,0.3916,0.2556,-0.3569,0.4229,-0.8598,18.2250,-4.5750,39.6750,
5.626898,0.6178,0.3916,0.2556,-0.3569,0.4229,-0.8598,18.3000,-3.3750,40.0500,
5.645718,0.6178,0.3916,0.2556,-0.3569,0.4229,-0.8598,18.3000,-3.3750,40.0500,
5.647597,0.3461,0.4232,-0.1879,-0.3569,0.4229,-0.8598,18.3000,-3.3750,40.0500,
5.665576,0.3461,0.4232,-0.1879,-0.3569,0.4229,-0.8598,18.3000,-3.3750,40.0500,
5.667352,0.3670,0.2241,-0.3759,-0.3569,0.4229,-0.8598,18.3000,-3.3750,40.0500,
5.673920,0.3670,0.2241,-0.3759,-0.6147,0.6802,-0.7168,18.3000,-3.3750,40.0500,
5.684932,0.3670,0.2241,-0.3759,-0.6147,0.6802,-0.7168,18.3000,-3.3750,40.0500,
5.686528,0.3000,0.2414,0.0285,-0.6147,0.6802,-0.7168,18.3000,-3.3750,40.0500,
5.695365,0.3000,0.2414,0.0285,-0.6147,0.6802,-0.7168,16.9500,-4.1250,41.1750,
5.704185,0.3000,0.2414,0.0285,-0.6147,0.6802,-0.7168,16.9500,-4.1250,41.1750,
5.706482,0.2641,0.3654,0.5162,-0.6147,0.6802,-0.7168,16.9500,-4.1250,41.1750,
5.723232,0.2641,0.3654,0.5162,-0.6147,0.6802,-0.7168,16.9500,-4.1250,41.1750,
5.725457,0.2956,0.6200,0.4734,-0.6147,0.6802,-0.7168,16.9500,-4.1250,41.1750,
5.738205,0.2956,0.6200,0.4734,-0.8405,0.9740,-0.5766,16.9500,-4.1250,41.1750,
5.743737,0.2956,0.6200,0.4734,-0.8405,0.9740,-0.5766,16.9500,-4.1250,41.1750,
5.745317,-0.2727,0.7841,0.5165,-0.8405,0.9740,-0.5766,16.9500,-4.1250,41.1750,
5.762455,-0.2727,0.7841,0.5165,-0.8405,0.9740,-0.5766,16.9500,-4.1250,41.1750,
5.764506,-1.1059,-0.1315,0.6509,-0.8405,0.9740,-0.5766,16.9500,-4.1250,41.1750,
5.765937,-1.1059,-0.1315,0.6509,-0.8405,0.9740,-0.5766,14.5500,-5.4750,42.0750,
5.787893,-1.1059,-0.1315,0.6509,-0.8405,0.9740,-0.5766,14.5500,-5.4750,42.0750,
5.790694,-0.2518,-0.0329,0.9080,-0.8405,0.9740,-0.5766,14.5500,-5.4750,42.0750,
5.808143,-0.2518,-0.0329,0.9080,-0.8405,0.9740,-0.5766,14.5500,-5.4750,42.0750,
5.810521,1.0373,0.2504,0.7184,-0.8405,0.9740,-0.5766,14.5500,-5.4750,42.0750,
5.812368,1.0373,0.2504,0.7184,-0.5792,0.8462,-0.4018,14.5500,-5.4750,42.0750,
5.824035,1.0373,0.2504,0.7184,-0.5792,0.8462,-0.4018,14.5500,-5.4750,42.0750,
5.826629,0.5654,0.6735,0.3629,-0.5792,0.8462,-0.4018,14.5500,-5.4750,42.0750,
5.836021,0.5654,0.6735,0.3629,-0.5792,0.8462,-0.4018,12.5250,-7.5750,42.4500,
5.845304,0.5654,0.6735,0.3629,-0.5792,0.8462,-0.4018,12.5250,-7.5750,42.4500,
5.847647,0.0831,0.4013,-0.1306,-0.5792,0.8462,-0.4018,12.5250,-7.5750,42.4500,
5.865534,0.0831,0.4013,-0.1306,-0.5792,0.8462,-0.4018,12.5250,-7.5750,42.4500,
5.868472,0.1000,-0.7145,0.5925,-0.5792,0.8462,-0.4018,12.5250,-7.5750,42.4500,
5.879507,0.1000,-0.7145,0.5925,-0.4978,0.6724,-0.4323,12.5250,-7.5750,42.4500,
5.881579,0.1000,-0.7145,0.5925,-0.4978,0.6724,-0.4323,12.5250,-7.5750,42.4500,
5.883649,0.8035,-0.6407,0.5310,-0.4978,0.6724,-0.4323,12.5250,-7.5750,42.4500,
5.900054,0.8035,-0.6407,0.5310,-0.4978,0.6724,-0.4323,12.5250,-7.5750,42.4500,
5.901563,0.2014,-0.0742,0.3510,-0.4978,0.6724,-0.4323,12.5250,-7.5750,42.4500,
5.905645,0.2014,-0.0742,0.3510,-0.4978,0.6724,-0.4323,10.9500,-8.0250,42.0000,
5.924455,0.2014,-0.0742,0.3510,-0.4978,0.6724,-0.4323,10.9500,-8.0250,42.0000,
5.926635,-0.5043,0.1383,0.8632,-0.4978,0.6724,-0.4323,10.9500,-8.0250,42.0000,
5.945875,-0.5043,0.1383,0.8632,-0.4978,0.6724,-0.4323,10.9500,-8.0250,42.0000,
5.947576,-0.2728,-0.1998,1.1352,-0.4978,0.6724,-0.4323,10.9500,-8.0250,42.0000,
5.949237,-0.2728,-0.1998,1.1352,-0.7633,0.6393,-0.4771,10.9500,-8.0250,42.0000,
5.964038,-0.2728,-0.1998,1.1352,-0.7633,0.6393,-0.4771,10.9500,-8.0250,42.0000,
5.965829,0.0668,0.1745,0.7113,-0.7633,0.6393,-0.4771,10.9500,-8.0250,42.0000,
5.974262,0.0668,0.1745,0.7113,-0.7633,0.6393,-0.4771,9.5250,-9.6000,42.4500,
5.983741,0.0668,0.1745,0.7113,-0.7633,0.6393,-0.4771,9.5250,-9.6000,42.4500,
5.984957,0.3290,0.0531,0.7530,-0.7633,0.6393,-0.4771,9.5250,-9.6000,42.4500,
6.002737,0.3290,0.0531,0.7530,-0.7633,0.6393,-0.4771,9.5250,-9.6000,42.4500,
6.006647,0.3842,0.3502,0.2446,-0.7633,0.6393,-0.4771,9.5250,-9.6000,42.4500,
6.017410,0.3842,0.3502,0.2446,-0.9529,0.5974,-0.2625,9.5250,-9.6000,42.4500,
6.023798,0.3842,0.3502,0.2446,-0.9529,0.5974,-0.2625,9.5250,-9.6000,42.4500,
6.026747,0.5521,0.4439,-0.1012,-0.9529,0.5974,-0.2625,9.5250,-9.6000,42.4500,
6.047671,0.5521,0.4439,-0.1012,-0.9529,0.5974,-0.2625,7.7250,-11.7000,41.7750,
6.050916,0.5521,0.4439,-0.1012,-0.9529,0.5974,-0.2625,7.7250,-11.7000,41.7750,
6.052454,0.2010,0.3025,0.8421,-0.9529,0.5974,-0.2625,7.7250,-11.7000,41.7750,
6.065862,0.2010,0.3025,0.8421,-0.9529,0.5974,-0.2625,7.7250,-11.7000,41.7750,
6.068432,-0.1526,0.1925,0.8678,-0.9529,0.5974,-0.2625,7.7250,-11.7000,41.7750,
6.090439,-0.1526,0.1925,0.8678,-0.9529,0.5974,-0.2625,7.7250,-11.7000,41.7750,
6.093206,-0.0644,0.4097,0.2808,-0.9529,0.5974,-0.2625,7.7250,-11.7000,41.7750,
6.095725,-0.0644,0.4097,0.2808,-1.0528,0.9441,0.0221,7.7250,-11.7000,41.7750,
6.106193,-0.0644,0.4097,0.2808,-1.0528,0.9441,0.0221,7.7250,-11.7000,41.7750,
6.107877,0.1890,0.3150,0.1880,-1.0528,0.9441,0.0221,7.7250,-11.7000,41.7750,
6.114960,0.1890,0.3150,0.1880,-1.0528,0.9441,0.0221,5.1000,-14.4750,41.2500,
6.123263,0.1890,0.3150,0.1880,-1.0528,0.9441,0.0221,5.1000,-14.4750,41.2500,
6.124609,0.0122,0.3753,0.6408,-1.0528,0.9441,0.0221,5.1000,-14.4750,41.2500,
6.143684,0.0122,0.3753,0.6408,-1.0528,0.9441,0.0221,5.1000,-14.4750,41.2500,
6.146673,0.2967,0.0471,0.1766,-1.0528,0.9441,0.0221,5.1000,-14.4750,41.2500,
6.158448,0.2967,0.0471,0.1766,-1.0148,0.9054,0.1286,5.1000,-14.4750,41.2500,
6.163270,0.2967,0.0471,0.1766,-1.0148,0.9054,0.1286,5.1000,-14.4750,41.2500,
6.164793,-0.1921,0.2020,0.0204,-1.0148,0.9054,0.1286,5.1000,-14.4750,41.2500,
6.182817,-0.1921,0.2020,0.0204,-1.0148,0.9054,0.1286,5.1000,-14.4750,41.2500,
6.184683,-0.0996,0.5403,-0.0273,-1.0148,0.9054,0.1286,5.1000,-14.4750,41.2500,
6.186720,-0.0996,0.5403,-0.0273,-1.0148,0.9054,0.1286,3.0000,-17.7750,40.6500,
6.202815,-0.0996,0.5403,-0.0273,-1.0148,0.9054,0.1286,3.0000,-17.7750,40.6500,
6.205176,-0.1497,0.3628,1.3364,-1.0148,0.9054,0.1286,3.0000,-17.7750,40.6500,
6.225281,-0.1497,0.3628,1.3364,-1.0148,0.9054,0.1286,3.0000,-17.7750,40.6500,
6.227920,-0.0086,0.1345,0.8755,-1.0148,0.9054,0.1286,3.0000,-17.7750,40.6500,
6.229485,-0.0086,0.1345,0.8755,-0.8204,0.8937,0.2121,3.0000,-17.7750,40.6500,
6.244631,-0.0086,0.1345,0.8755,-0.8204,0.8937,0.2121,3.0000,-17.7750,40.6500,
6.247049,0.1090,0.1741,0.2474,-0.8204,0.8937,0.2121,3.0000,-17.7750,40.6500,
6.255800,0.1090,0.1741,0.2474,-0.8204,0.8937,0.2121,0.2250,-20.1750,39.3000,
6.261274,0.1090,0.1741,0.2474,-0.8204,0.8937,0.2121,0.2250,-20.1750,39.3000,
6.262881,0.4410,0.2045,-0.1176,-0.8204,0.8937,0.2121,0.2250,-20.1750,39.3000,
6.280964,0.4410,0.2045,-0.1176,-0.8204,0.8937,0.2121,0.2250,-20.1750,39.3000,
6.282420,0.4359,0.8805,-0.6039,-0.8204,0.8937,0.2121,0.2250,-20.1750,39.3000,
6.296609,0.4359,0.8805,-0.6039,-0.6979,1.2029,0.1258,0.2250,-20.1750,39.3000,
6.300333,0.4359,0.8805,-0.6039,-0.6979,1.2029,0.1258,0.2250,-20.1750,39.3000,
6.301376,-0.2893,0.4231,-1.9556,-0.6979,1.2029,0.1258,0.2250,-20.1750,39.3000,
6.316683,-0.2893,0.4231,-1.9556,-0.6979,1.2029,0.1258,0.2250,-20.1750,39.3000,
6.318223,-2.3012,-0.0503,-2.6966,-0.6979,1.2029,0.1258,0.2250,-20.1750,39.3000,
6.323537,-2.3012,-0.0503,-2.6966,-0.6979,1.2029,0.1258,-2.7000,-22.1250,38.1000,
6.341132,-2.3012,-0.0503,-2.6966,-0.6979,1.2029,0.1258,-2.7000,-22.1250,38.1000,
6.342723,-1.8195,-0.7220,-2.5418,-0.6979,1.2029,0.1258,-2.7000,-22.1250,38.1000,
6.364411,-1.8195,-0.7220,-2.5418,-0.6979,1.2029,0.1258,-2.7000,-22.1250,38.1000,
6.368003,-1.1308,-0.7945,-2.9054,-0.6979,1.2029,0.1258,-2.7000,-22.1250,38.1000,
6.377060,-1.1308,-0.7945,-2.9054,-0.9099,0.6744,0.2810,-2.7000,-22.1250,38.1000,
6.392706,-1.1308,-0.7945,-2.9054,-0.9099,0.6744,0.2810,-2.7000,-22.1250,38.1000,
6.395380,-0.4101,0.2113,-2.6451,-0.9099,0.6744,0.2810,-2.7000,-22.1250,38.1000,
6.397113,-0.4101,0.2113,-2.6451,-0.9099,0.6744,0.2810,-4.7250,-24.2250,37.5750,
6.405174,-0.4101,0.2113,-2.6451,-0.9099,0.6744,0.2810,-4.7250,-24.2250,37.5750,
6.406989,-0.5354,-0.3775,-2.1087,-0.9099,0.6744,0.2810,-4.7250,-24.2250,37.5750,
6.422685,-0.5354,-0.3775,-2.1087,-0.9099,0.6744,0.2810,-4.7250,-24.2250,37.5750,
6.424609,-1.2695,-0.7117,-1.3943,-0.9099,0.6744,0.2810,-4.7250,-24.2250,37.5750,
6.440916,-1.2695,-0.7117,-1.3943,-0.8257,0.5576,0.5250,-4.7250,-24.2250,37.5750,
6.444222,-1.2695,-0.7117,-1.3943,-0.8257,0.5576,0.5250,-4.7250,-24.2250,37.5750,
6.446218,-1.9270,-0.5279,-2.4128,-0.8257,0.5576,0.5250,-4.7250,-24.2250,37.5750,
6.461198,-1.9270,-0.5279,-2.4128,-0.8257,0.5576,0.5250,-4.7250,-24.2250,37.5750,
6.463387,-1.1352,-0.6986,-2.2133,-0.8257,0.5576,0.5250,-4.7250,-24.2250,37.5750,
6.465109,-1.1352,-0.6986,-2.2133,-0.8257,0.5576,0.5250,-1.3500,-25.3500,36.3750,
6.482054,-1.1352,-0.6986,-2.2133,-0.8257,0.5576,0.5250,-1.3500,-25.3500,36.3750,
6.483898,-0.1847,-0.7056,-1.6802,-0.8257,0.5576,0.5250,-1.3500,-25.3500,36.3750,
6.500853,-0.1847,-0.7056,-1.6802,-0.8257,0.5576,0.5250,-1.3500,-25.3500,36.3750,
6.503457,0.7333,-1.0023,-1.5396,-0.8257,0.5576,0.5250,-1.3500,-25.3500,36.3750,
6.506248,0.7333,-1.0023,-1.5396,-0.2601,0.8544,0.1852,-1.3500,-25.3500,36.3750,
6.521097,0.7333,-1.0023,-1.5396,-0.2601,0.8544,0.1852,-1.3500,-25.3500,36.3750,
6.522869,-0.5328,-0.8768,-0.5324,-0.2601,0.8544,0.1852,-1.3500,-25.3500,36.3750,
6.532234,-0.5328,-0.8768,-0.5324,-0.2601,0.8544,0.1852,-4.6500,-26.1750,35.2500,
6.540178,-0.5328,-0.8768,-0.5324,-0.2601,0.8544,0.1852,-4.6500,-26.1750,35.2500,
6.542333,-0.6762,-0.6702,0.4277,-0.2601,0.8544,0.1852,-4.6500,-26.1750,35.2500,
6.559752,-0.6762,-0.6702,0.4277,-0.2601,0.8544,0.1852,-4.6500,-26.1750,35.2500,
6.562730,0.6298,-0.3251,0.4545,-0.2601,0.8544,0.1852,-4.6500,-26.1750,35.2500,
6.579247,0.6298,-0.3251,0.4545,0.6197,0.9198,-0.1842,-4.6500,-26.1750,35.2500,
6.589542,0.6298,-0.3251,0.4545,0.6197,0.9198,-0.1842,-4.6500,-26.1750,35.2500,
6.591079,1.3621,-1.0553,0.1311,0.6197,0.9198,-0.1842,-4.6500,-26.1750,35.2500,
6.603345,1.3621,-1.0553,0.1311,0.6197,0.9198,-0.1842,-4.6500,-26.1750,35.2500,
6.605551,1.0241,-0.8734,0.4240,0.6197,0.9198,-0.1842,-4.6500,-26.1750,35.2500,
6.607406,1.0241,-0.8734,0.4240,0.6197,0.9198,-0.1842,-6.0750,-25.3500,34.7250,
6.623373,1.0241,-0.8734,0.4240,0.6197,0.9198,-0.1842,-6.0750,-25.3500,34.7250,
6.625694,0.9646,0.2905,0.6127,0.6197,0.9198,-0.1842,-6.0750,-25.3500,34.7250,
6.643109,0.9646,0.2905,0.6127,0.6197,0.9198,-0.1842,-6.0750,-25.3500,34.7250,
6.645331,1.0655,0.8533,1.0783,0.6197,0.9198,-0.1842,-6.0750,-25.3500,34.7250,
6.647663,1.0655,0.8533,1.0783,1.0296,0.0102,-0.2089,-6.0750,-25.3500,34.7250,
6.662446,1.0655,0.8533,1.0783,1.0296,0.0102,-0.2089,-6.0750,-25.3500,34.7250,
6.664498,1.5889,1.0897,1.1833,1.0296,0.0102,-0.2089,-6.0750,-25.3500,34.7250,
6.672158,1.5889,1.0897,1.1833,1.0296,0.0102,-0.2089,-6.4500,-22.8750,36.2250,
6.681446,1.5889,1.0897,1.1833,1.0296,0.0102,-0.2089,-6.4500,-22.8750,36.2250,
6.683151,1.6278,1.2597,0.4444,1.0296,0.0102,-0.2089,-6.4500,-22.8750,36.2250,
6.701623,1.6278,1.2597,0.4444,1.0296,0.0102,-0.2089,-6.4500,-22.8750,36.2250,
6.704250,1.8516,1.2764,0.3121,1.0296,0.0102,-0.2089,-6.4500,-22.8750,36.2250,
6.716022,1.8516,1.2764,0.3121,0.8068,-0.3715,-0.3323,-6.4500,-22.8750,36.2250,
6.724797,1.8516,1.2764,0.3121,0.8068,-0.3715,-0.3323,-6.4500,-22.8750,36.2250,
6.726701,0.1159,0.8824,0.0779,0.8068,-0.3715,-0.3323,-6.4500,-22.8750,36.2250,
6.740213,0.1159,0.8824,0.0779,0.8068,-0.3715,-0.3323,-6.4500,-22.8750,36.2250,
6.742454,0.5314,1.4519,-0.4301,0.8068,-0.3715,-0.3323,-6.4500,-22.8750,36.2250,
6.744320,0.5314,1.4519,-0.4301,0.8068,-0.3715,-0.3323,-4.6500,-21.2250,37.1250,
6.759924,0.5314,1.4519,-0.4301,0.8068,-0.3715,-0.3323,-4.6500,-21.2250,37.1250,
6.762338,0.2343,0.5039,-0.4908,0.8068,-0.3715,-0.3323,-4.6500,-21.2250,37.1250,
6.780000,0.2343,0.5039,-0.4908,0.8068,-0.3715,-0.3323,-4.6500,-21.2250,37.1250,
6.783709,0.6946,0.8121,0.1652,0.8068,-0.3715,-0.3323,-4.6500,-21.2250,37.1250,
6.787279,0.6946,0.8121,0.1652,0.4810,-0.6415,-0.3523,-4.6500,-21.2250,37.1250,
6.799414,0.6946,0.8121,0.1652,0.4810,-0.6415,-0.3523,-4.6500,-21.2250,37.1250,
6.801172,0.4626,1.6594,0.1838,0.4810,-0.6415,-0.3523,-4.6500,-21.2250,37.1250,
6.811928,0.4626,1.6594,0.1838,0.4810,-0.6415,-0.3523,-2.8500,-19.8750,37.6500,
6.819597,0.4626,1.6594,0.1838,0.4810,-0.6415,-0.3523,-2.8500,-19.8750,37.6500,
6.821639,0.1013,2.2286,0.3238,0.4810,-0.6415,-0.3523,-2.8500,-19.8750,37.6500,
6.839341,0.1013,2.2286,0.3238,0.4810,-0.6415,-0.3523,-2.8500,-19.8750,37.6500,
6.843278,-0.5307,2.8825,-0.5214,0.4810,-0.6415,-0.3523,-2.8500,-19.8750,37.6500,
6.858618,-0.5307,2.8825,-0.5214,0.2729,-0.7831,-0.4754,-2.8500,-19.8750,37.6500,
6.863887,-0.5307,2.8825,-0.5214,0.2729,-0.7831,-0.4754,-2.8500,-19.8750,37.6500,
6.865284,1.0426,1.6104,0.4905,0.2729,-0.7831,-0.4754,-2.8500,-19.8750,37.6500,
6.883021,1.0426,1.6104,0.4905,0.2729,-0.7831,-0.4754,-2.8500,-19.8750,37.6500,
6.884294,1.7931,1.6031,0.9259,0.2729,-0.7831,-0.4754,-2.8500,-19.8750,37.6500,
6.892271,1.7931,1.6031,0.9259,0.2729,-0.7831,-0.4754,-0.6750,-19.1250,39.1500,
6.902918,1.7931,1.6031,0.9259,0.2729,-0.7831,-0.4754,-0.6750,-19.1250,39.1500,
6.904317,1.2294,1.8141,0.4927,0.2729,-0.7831,-0.4754,-0.6750,-19.1250,39.1500,
6.922244,1.2294,1.8141,0.4927,0.2729,-0.7831,-0.4754,-0.6750,-19.1250,39.1500,
6.923921,0.2537,1.5431,-0.5489,0.2729,-0.7831,-0.4754,-0.6750,-19.1250,39.1500,
6.927388,0.2537,1.5431,-0.5489,0.1814,-0.2060,-0.7507,-0.6750,-19.1250,39.1500,
6.943579,0.2537,1.5431,-0.5489,0.1814,-0.2060,-0.7507,-0.6750,-19.1250,39.1500,
6.945080,-0.1053,1.0777,-0.1808,0.1814,-0.2060,-0.7507,-0.6750,-19.1250,39.1500,
6.958348,-0.1053,1.0777,-0.1808,0.1814,-0.2060,-0.7507,1.4250,-18.4500,39.4500,
6.961227,-0.1053,1.0777,-0.1808,0.1814,-0.2060,-0.7507,1.4250,-18.4500,39.4500,
6.962950,-0.5893,-0.4108,-1.8722,0.1814,-0.2060,-0.7507,1.4250,-18.4500,39.4500,
6.980554,-0.5893,-0.4108,-1.8722,0.1814,-0.2060,-0.7507,1.4250,-18.4500,39.4500,
6.982824,-1.3176,-0.9799,-2.6073,0.1814,-0.2060,-0.7507,1.4250,-18.4500,39.4500,
6.994615,-1.3176,-0.9799,-2.6073,0.1194,-0.5467,-1.1795,1.4250,-18.4500,39.4500,
6.999673,-1.3176,-0.9799,-2.6073,0.1194,-0.5467,-1.1795,1.4250,-18.4500,39.4500,
7.001418,-0.2081,-0.5616,-0.4926,0.1194,-0.5467,-1.1795,1.4250,-18.4500,39.4500,
7.023005,-0.2081,-0.5616,-0.4926,0.1194,-0.5467,-1.1795,1.4250,-18.4500,39.4500,
7.025003,1.4566,-0.5558,-0.7589,0.1194,-0.5467,-1.1795,1.4250,-18.4500,39.4500,
7.026614,1.4566,-0.5558,-0.7589,0.1194,-0.5467,-1.1795,3.7500,-18.3000,39.5250,
7.038545,1.4566,-0.5558,-0.7589,0.1194,-0.5467,-1.1795,3.7500,-18.3000,39.5250,
7.040064,1.9221,-0.7008,-0.1412,0.1194,-0.5467,-1.1795,3.7500,-18.3000,39.5250,
7.058722,1.9221,-0.7008,-0.1412,0.1194,-0.5467,-1.1795,3.7500,-18.3000,39.5250,
7.060460,2.3283,-0.2538,1.1658,0.1194,-0.5467,-1.1795,3.7500,-18.3000,39.5250,
7.063373,2.3283,-0.2538,1.1658,0.3102,-0.3732,-1.4683,3.7500,-18.3000,39.5250,
7.074781,2.3283,-0.2538,1.1658,0.3102,-0.3732,-1.4683,3.7500,-18.3000,39.5250,
7.076569,-0.1236,-0.6883,0.2968,0.3102,-0.3732,-1.4683,3.7500,-18.3000,39.5250,
7.091838,-0.1236,-0.6883,0.2968,0.3102,-0.3732,-1.4683,6.1500,-17.8500,40.0500,
7.103313,-0.1236,-0.6883,0.2968,0.3102,-0.3732,-1.4683,6.1500,-17.8500,40.0500,
7.105580,-3.0702,-1.0426,-0.2096,0.3102,-0.3732,-1.4683,6.1500,-17.8500,40.0500,
7.122498,-3.0702,-1.0426,-0.2096,0.3102,-0.3732,-1.4683,6.1500,-17.8500,40.0500,
7.124636,-2.5728,0.4403,-0.4976,0.3102,-0.3732,-1.4683,6.1500,-17.8500,40.0500,
7.143083,-2.5728,0.4403,-0.4976,0.2651,-0.0234,-1.1322,6.1500,-17.8500,40.0500,
7.145378,-2.5728,0.4403,-0.4976,0.2651,-0.0234,-1.1322,6.1500,-17.8500,40.0500,
7.146945,-0.5800,0.6156,-0.7132,0.2651,-0.0234,-1.1322,6.1500,-17.8500,40.0500,
7.160786,-0.5800,0.6156,-0.7132,0.2651,-0.0234,-1.1322,6.1500,-17.8500,40.0500,
7.163168,1.6504,-0.8893,-1.7447,0.2651,-0.0234,-1.1322,6.1500,-17.8500,40.0500,
7.164983,1.6504,-0.8893,-1.7447,0.2651,-0.0234,-1.1322,7.3500,-17.0250,40.9500,
7.180422,1.6504,-0.8893,-1.7447,0.2651,-0.0234,-1.1322,7.3500,-17.0250,40.9500,
7.182794,0.1518,-2.9565,-0.9086,0.2651,-0.0234,-1.1322,7.3500,-17.0250,40.9500,
7.199725,0.1518,-2.9565,-0.9086,0.2651,-0.0234,-1.1322,7.3500,-17.0250,40.9500,
7.201858,0.4990,-0.1303,-0.5179,0.2651,-0.0234,-1.1322,7.3500,-17.0250,40.9500,
7.204605,0.4990,-0.1303,-0.5179,0.3493,0.0108,-0.8543,7.3500,-17.0250,40.9500,
7.226500,0.4990,-0.1303,-0.5179,0.3493,0.0108,-0.8543,7.3500,-17.0250,40.9500,
7.229316,0.9889,0.3259,0.0033,0.3493,0.0108,-0.8543,7.3500,-17.0250,40.9500,
7.231688,0.9889,0.3259,0.0033,0.3493,0.0108,-0.8543,6.9000,-14.6250,40.1250,
7.240086,0.9889,0.3259,0.0033,0.3493,0.0108,-0.8543,6.9000,-14.6250,40.1250,
7.242219,1.8697,1.9168,1.1482,0.3493,0.0108,-0.8543,6.9000,-14.6250,40.1250,
7.259286,1.8697,1.9168,1.1482,0.3493,0.0108,-0.8543,6.9000,-14.6250,40.1250,
7.262212,1.5704,0.5353,0.2429,0.3493,0.0108,-0.8543,6.9000,-14.6250,40.1250,
7.273253,1.5704,0.5353,0.2429,0.4613,0.6822,-0.5640,6.9000,-14.6250,40.1250,
7.275793,1.5704,0.5353,0.2429,0.4613,0.6822,-0.5640,6.9000,-14.6250,40.1250,
7.277111,1.1824,-0.8620,-1.0037,0.4613,0.6822,-0.5640,6.9000,-14.6250,40.1250,
7.298719,1.1824,-0.8620,-1.0037,0.4613,0.6822,-0.5640,6.9000,-14.6250,40.1250,
7.302163,-0.3532,-1.7555,0.9955,0.4613,0.6822,-0.5640,6.9000,-14.6250,40.1250,
7.304330,-0.3532,-1.7555,0.9955,0.4613,0.6822,-0.5640,6.6750,-12.8250,41.8500,
7.319183,-0.3532,-1.7555,0.9955,0.4613,0.6822,-0.5640,6.6750,-12.8250,41.8500,
7.321514,-2.1074,0.3648,0.8287,0.4613,0.6822,-0.5640,6.6750,-12.8250,41.8500,
7.342730,-2.1074,0.3648,0.8287,0.4613,0.6822,-0.5640,6.6750,-12.8250,41.8500,
7.344943,-2.5209,3.0156,1.0120,0.4613,0.6822,-0.5640,6.6750,-12.8250,41.8500,
7.346935,-2.5209,3.0156,1.0120,0.4365,0.8005,-0.2943,6.6750,-12.8250,41.8500,
7.356643,-2.5209,3.0156,1.0120,0.4365,0.8005,-0.2943,6.6750,-12.8250,41.8500,
7.359102,-0.4607,2.0687,-0.9507,0.4365,0.8005,-0.2943,6.6750,-12.8250,41.8500,
7.373471,-0.4607,2.0687,-0.9507,0.4365,0.8005,-0.2943,4.5000,-11.1000,42.2250,
7.380983,-0.4607,2.0687,-0.9507,0.4365,0.8005,-0.2943,4.5000,-11.1000,42.2250,
7.382848,0.8253,1.3696,-2.0016,0.4365,0.8005,-0.2943,4.5000,-11.1000,42.2250,
7.400485,0.8253,1.3696,-2.0016,0.4365,0.8005,-0.2943,4.5000,-11.1000,42.2250,
7.402322,0.5673,1.7670,-2.2394,0.4365,0.8005,-0.2943,4.5000,-11.1000,42.2250,
7.415628,0.5673,1.7670,-2.2394,0.5641,0.4444,-0.4534,4.5000,-11.1000,42.2250,
7.420664,0.5673,1.7670,-2.2394,0.5641,0.4444,-0.4534,4.5000,-11.1000,42.2250,
7.422501,0.5019,1.3216,-0.8601,0.5641,0.4444,-0.4534,4.5000,-11.1000,42.2250,
7.441273,0.5019,1.3216,-0.8601,0.5641,0.4444,-0.4534,4.5000,-11.1000,42.2250,
7.443929,0.3210,0.3421,-0.0885,0.5641,0.4444,-0.4534,4.5000,-11.1000,42.2250,
7.446424,0.3210,0.3421,-0.0885,0.5641,0.4444,-0.4534,3.3000,-9.6000,41.8500,
7.459591,0.3210,0.3421,-0.0885,0.5641,0.4444,-0.4534,3.3000,-9.6000,41.8500,
7.461892,0.4736,-0.3522,-0.8783,0.5641,0.4444,-0.4534,3.3000,-9.6000,41.8500,
7.479082,0.4736,-0.3522,-0.8783,0.5641,0.4444,-0.4534,3.3000,-9.6000,41.8500,
7.481007,-0.2292,-0.9987,-1.6921,0.5641,0.4444,-0.4534,3.3000,-9.6000,41.8500,
7.483250,-0.2292,-0.9987,-1.6921,0.4432,0.9752,-0.1973,3.3000,-9.6000,41.8500,
7.499120,-0.2292,-0.9987,-1.6921,0.4432,0.9752,-0.1973,3.3000,-9.6000,41.8500,
7.501749,-0.1954,-0.7965,-0.5890,0.4432,0.9752,-0.1973,3.3000,-9.6000,41.8500,
7.511370,-0.1954,-0.7965,-0.5890,0.4432,0.9752,-0.1973,1.9500,-8.8500,43.2000,
7.519233,-0.1954,-0.7965,-0.5890,0.4432,0.9752,-0.1973,1.9500,-8.8500,43.2000,
7.521277,-0.6334,-1.9058,-0.3660,0.4432,0.9752,-0.1973,1.9500,-8.8500,43.2000,
7.538180,-0.6334,-1.9058,-0.3660,0.4432,0.9752,-0.1973,1.9500,-8.8500,43.2000,
7.541362,-1.3672,-1.7480,-0.1804,0.4432,0.9752,-0.1973,1.9500,-8.8500,43.2000,
7.554488,-1.3672,-1.7480,-0.1804,0.2187,1.2031,0.3102,1.9500,-8.8500,43.2000,
7.557937,-1.3672,-1.7480,-0.1804,0.2187,1.2031,0.3102,1.9500,-8.8500,43.2000,
7.559548,-0.0888,-3.0332,-0.0864,0.2187,1.2031,0.3102,1.9500,-8.8500,43.2000,
7.573159,-0.0888,-3.0332,-0.0864,0.2187,1.2031,0.3102,1.9500,-8.8500,43.2000,
7.574958,1.0523,-2.1390,-0.0946,0.2187,1.2031,0.3102,1.9500,-8.8500,43.2000,
7.581638,1.0523,-2.1390,-0.0946,0.2187,1.2031,0.3102,-0.4500,-7.2000,42.3000,
7.596212,1.0523,-2.1390,-0.0946,0.2187,1.2031,0.3102,-0.4500,-7.2000,42.3000,
7.597799,0.8989,-1.3713,1.0548,0.2187,1.2031,0.3102,-0.4500,-7.2000,42.3000,
7.616298,0.8989,-1.3713,1.0548,0.2187,1.2031,0.3102,-0.4500,-7.2000,42.3000,
7.618020,0.2700,-1.6926,1.0542,0.2187,1.2031,0.3102,-0.4500,-7.2000,42.3000,
7.625864,0.2700,-1.6926,1.0542,0.3659,0.8975,0.6034,-0.4500,-7.2000,42.3000,
7.639431,0.2700,-1.6926,1.0542,0.3659,0.8975,0.6034,-0.4500,-7.2000,42.3000,
7.641084,-0.4707,-1.2697,0.9912,0.3659,0.8975,0.6034,-0.4500,-7.2000,42.3000,
7.658835,-0.4707,-1.2697,0.9912,0.3659,0.8975,0.6034,-0.4500,-7.2000,42.3000,
7.661446,-0.9157,-0.8184,-0.3987,0.3659,0.8975,0.6034,-0.4500,-7.2000,42.3000,
7.663603,-0.9157,-0.8184,-0.3987,0.3659,0.8975,0.6034,-3.9000,-6.9000,42.3750,
7.673647,-0.9157,-0.8184,-0.3987,0.3659,0.8975,0.6034,-3.9000,-6.9000,42.3750,
7.675778,-0.9536,-0.1717,-1.0557,0.3659,0.8975,0.6034,-3.9000,-6.9000,42.3750,
7.694696,-0.9536,-0.1717,-1.0557,0.1822,0.9213,0.6524,-3.9000,-6.9000,42.3750,
7.698674,-0.9536,-0.1717,-1.0557,0.1822,0.9213,0.6524,-3.9000,-6.9000,42.3750,
7.699824,-1.3742,-0.1694,-0.7024,0.1822,0.9213,0.6524,-3.9000,-6.9000,42.3750,
7.718772,-1.3742,-0.1694,-0.7024,0.1822,0.9213,0.6524,-3.9000,-6.9000,42.3750,
7.721342,-1.1908,-0.2007,-0.1327,0.1822,0.9213,0.6524,-3.9000,-6.9000,42.3750,
7.723085,-1.1908,-0.2007,-0.1327,0.1822,0.9213,0.6524,-8.9250,-4.3500,42.1500,
7.741294,-1.1908,-0.2007,-0.1327,0.1822,0.9213,0.6524,-8.9250,-4.3500,42.1500,
7.743445,-1.0784,-0.0700,-0.0693,0.1822,0.9213,0.6524,-8.9250,-4.3500,42.1500,
7.758262,-1.0784,-0.0700,-0.0693,0.1822,0.9213,0.6524,-8.9250,-4.3500,42.1500,
7.760497,-1.0112,0.0736,-0.2989,0.1822,0.9213,0.6524,-8.9250,-4.3500,42.1500,
7.762141,-1.0112,0.0736,-0.2989,-0.1373,0.9189,0.6023,-8.9250,-4.3500,42.1500,
7.774255,-1.0112,0.0736,-0.2989,-0.1373,0.9189,0.6023,-8.9250,-4.3500,42.1500,
7.776521,-0.9991,1.1224,-0.3992,-0.1373,0.9189,0.6023,-8.9250,-4.3500,42.1500,
7.791673,-0.9991,1.1224,-0.3992,-0.1373,0.9189,0.6023,-11.8500,-4.8000,41.2500,
7.796554,-0.9991,1.1224,-0.3992,-0.1373,0.9189,0.6023,-11.8500,-4.8000,41.2500,
7.798721,-1.2410,1.4400,-0.3900,-0.1373,0.9189,0.6023,-11.8500,-4.8000,41.2500,
7.816472,-1.2410,1.4400,-0.3900,-0.1373,0.9189,0.6023,-11.8500,-4.8000,41.2500,
7.819109,-1.2506,1.4936,-0.0624,-0.1373,0.9189,0.6023,-11.8500,-4.8000,41.2500,
7.830994,-1.2506,1.4936,-0.0624,-0.2785,0.9926,0.4004,-11.8500,-4.8000,41.2500,
7.839822,-1.2506,1.4936,-0.0624,-0.2785,0.9926,0.4004,-11.8500,-4.8000,41.2500,
7.842275,-0.7855,1.4075,-0.0813,-0.2785,0.9926,0.4004,-11.8500,-4.8000,41.2500,
7.855359,-0.7855,1.4075,-0.0813,-0.2785,0.9926,0.4004,-11.8500,-4.8000,41.2500,
7.857894,-0.5749,1.0756,-0.2873,-0.2785,0.9926,0.4004,-11.8500,-4.8000,41.2500,
7.861820,-0.5749,1.0756,-0.2873,-0.2785,0.9926,0.4004,-14.6250,-4.8000,40.0500,
7.873884,-0.5749,1.0756,-0.2873,-0.2785,0.9926,0.4004,-14.6250,-4.8000,40.0500,
7.876459,-0.4241,1.2644,-1.3674,-0.2785,0.9926,0.4004,-14.6250,-4.8000,40.0500,
7.895336,-0.4241,1.2644,-1.3674,-0.2785,0.9926,0.4004,-14.6250,-4.8000,40.0500,
7.898219,-1.3292,0.9132,-1.4711,-0.2785,0.9926,0.4004,-14.6250,-4.8000,40.0500,
7.905592,-1.3292,0.9132,-1.4711,-0.2711,1.0620,0.2559,-14.6250,-4.8000,40.0500,
7.914188,-1.3292,0.9132,-1.4711,-0.2711,1.0620,0.2559,-14.6250,-4.8000,40.0500,
7.915911,-1.9878,0.7954,-1.5723,-0.2711,1.0620,0.2559,-14.6250,-4.8000,40.0500,
7.931336,-1.9878,0.7954,-1.5723,-0.2711,1.0620,0.2559,-16.8000,-5.0250,38.6250,
7.939204,-1.9878,0.7954,-1.5723,-0.2711,1.0620,0.2559,-16.8000,-5.0250,38.6250,
7.941529,-1.5519,1.0873,-1.1201,-0.2711,1.0620,0.2559,-16.8000,-5.0250,38.6250,
7.958570,-1.5519,1.0873,-1.1201,-0.2711,1.0620,0.2559,-16.8000,-5.0250,38.6250,
7.960320,-0.5050,0.8970,-0.8906,-0.2711,1.0620,0.2559,-16.8000,-5.0250,38.6250,
7.974313,-0.5050,0.8970,-0.8906,-0.2407,0.8721,0.1869,-16.8000,-5.0250,38.6250,
7.976955,-0.5050,0.8970,-0.8906,-0.2407,0.8721,0.1869,-16.8000,-5.0250,38.6250,
7.978505,0.1807,0.4770,-1.2807,-0.2407,0.8721,0.1869,-16.8000,-5.0250,38.6250,
7.997275,0.1807,0.4770,-1.2807,-0.2407,0.8721,0.1869,-16.8000,-5.0250,38.6250,
7.999208,0.1163,0.1959,-1.1122,-0.2407,0.8721,0.1869,-16.8000,-5.0250,38.6250,
8.004673,0.1163,0.1959,-1.1122,-0.2407,0.8721,0.1869,-19.5750,-5.0250,37.1250,
8.016999,0.1163,0.1959,-1.1122,-0.2407,0.8721,0.1869,-19.5750,-5.0250,37.1250,
8.018772,0.3253,0.0809,-1.0378,-0.2407,0.8721,0.1869,-19.5750,-5.0250,37.1250,
8.038284,0.3253,0.0809,-1.0378,-0.2407,0.8721,0.1869,-19.5750,-5.0250,37.1250,
8.040520,1.3371,-0.9717,-0.5920,-0.2407,0.8721,0.1869,-19.5750,-5.0250,37.1250,
8.042965,1.3371,-0.9717,-0.5920,0.0176,0.9740,-0.0412,-19.5750,-5.0250,37.1250,
8.056293,1.3371,-0.9717,-0.5920,0.0176,0.9740,-0.0412,-19.5750,-5.0250,37.1250,
8.058418,1.7051,-2.1434,-0.5585,0.0176,0.9740,-0.0412,-19.5750,-5.0250,37.1250,
8.071414,1.7051,-2.1434,-0.5585,0.0176,0.9740,-0.0412,-19.5750,-5.0250,37.1250,
8.073449,2.5574,-1.3569,-0.4425,0.0176,0.9740,-0.0412,-19.5750,-5.0250,37.1250,
8.074936,2.5574,-1.3569,-0.4425,0.0176,0.9740,-0.0412,-22.0500,-4.0500,36.2250,
8.095336,2.5574,-1.3569,-0.4425,0.0176,0.9740,-0.0412,-22.0500,-4.0500,36.2250,
8.097580,1.4943,-1.5517,0.2104,0.0176,0.9740,-0.0412,-22.0500,-4.0500,36.2250,
8.109897,1.4943,-1.5517,0.2104,0.5991,1.6180,-0.0903,-22.0500,-4.0500,36.2250,
8.114790,1.4943,-1.5517,0.2104,0.5991,1.6180,-0.0903,-22.0500,-4.0500,36.2250,
8.116016,1.3061,-2.0502,0.6708,0.5991,1.6180,-0.0903,-22.0500,-4.0500,36.2250,
8.134768,1.3061,-2.0502,0.6708,0.5991,1.6180,-0.0903,-22.0500,-4.0500,36.2250,
8.137568,0.5913,-2.3380,-0.1993,0.5991,1.6180,-0.0903,-22.0500,-4.0500,36.2250,
8.141888,0.5913,-2.3380,-0.1993,0.5991,1.6180,-0.0903,-25.7250,-3.5250,33.4500,
8.159175,0.5913,-2.3380,-0.1993,0.5991,1.6180,-0.0903,-25.7250,-3.5250,33.4500,
8.161972,-0.9992,-1.8415,0.0162,0.5991,1.6180,-0.0903,-25.7250,-3.5250,33.4500,
8.173528,-0.9992,-1.8415,0.0162,0.5991,1.6180,-0.0903,-25.7250,-3.5250,33.4500,
8.175337,-2.4055,-1.3598,0.0803,0.5991,1.6180,-0.0903,-25.7250,-3.5250,33.4500,
8.178838,-2.4055,-1.3598,0.0803,0.6382,1.0737,-0.1223,-25.7250,-3.5250,33.4500,
8.189955,-2.4055,-1.3598,0.0803,0.6382,1.0737,-0.1223,-25.7250,-3.5250,33.4500,
8.192643,-0.8423,-0.9042,0.8841,0.6382,1.0737,-0.1223,-25.7250,-3.5250,33.4500,
8.208278,-0.8423,-0.9042,0.8841,0.6382,1.0737,-0.1223,-25.7250,-3.5250,33.4500,
8.211286,1.0232,-0.7103,1.1682,0.6382,1.0737,-0.1223,-25.7250,-3.5250,33.4500,
8.212938,1.0232,-0.7103,1.1682,0.6382,1.0737,-0.1223,-28.7250,-2.1750,31.0500,
8.239144,1.0232,-0.7103,1.1682,0.6382,1.0737,-0.1223,-28.7250,-2.1750,31.0500,
8.241968,-0.4041,-0.5956,0.5659,0.6382,1.0737,-0.1223,-28.7250,-2.1750,31.0500,
8.259372,-0.4041,-0.5956,0.5659,0.3378,0.1930,-0.1759,-28.7250,-2.1750,31.0500,
8.261966,-0.4041,-0.5956,0.5659,0.3378,0.1930,-0.1759,-28.7250,-2.1750,31.0500,
8.263477,-1.6387,-0.8358,0.2912,0.3378,0.1930,-0.1759,-28.7250,-2.1750,31.0500,
8.273701,-1.6387,-0.8358,0.2912,0.3378,0.1930,-0.1759,-28.7250,-2.1750,31.0500,
8.275287,-0.9897,-1.1130,0.7757,0.3378,0.1930,-0.1759,-28.7250,-2.1750,31.0500,
8.283132,-0.9897,-1.1130,0.7757,0.3378,0.1930,-0.1759,-28.7250,-1.3500,31.2000,
8.296230,-0.9897,-1.1130,0.7757,0.3378,0.1930,-0.1759,-28.7250,-1.3500,31.2000,
8.297775,0.5891,-1.2264,1.2466,0.3378,0.1930,-0.1759,-28.7250,-1.3500,31.2000,
8.316604,0.5891,-1.2264,1.2466,0.3378,0.1930,-0.1759,-28.7250,-1.3500,31.2000,
8.317964,1.1405,-1.0170,1.1323,0.3378,0.1930,-0.1759,-28.7250,-1.3500,31.2000,
8.322959,1.1405,-1.0170,1.1323,0.1116,-0.2370,-0.1984,-28.7250,-1.3500,31.2000,
8.346768,1.1405,-1.0170,1.1323,0.1116,-0.2370,-0.1984,-28.7250,-1.3500,31.2000,
8.349602,0.2794,-1.2308,1.0716,0.1116,-0.2370,-0.1984,-28.7250,-1.3500,31.2000,
8.352856,0.2794,-1.2308,1.0716,0.1116,-0.2370,-0.1984,-28.5750,-1.2750,31.2000,
8.355851,0.2794,-1.2308,1.0716,0.1116,-0.2370,-0.1984,-28.5750,-1.2750,31.2000,
8.357440,0.2758,-1.0014,1.8347,0.1116,-0.2370,-0.1984,-28.5750,-1.2750,31.2000,
8.373244,0.2758,-1.0014,1.8347,0.1116,-0.2370,-0.1984,-28.5750,-1.2750,31.2000,
8.375308,1.3449,-0.7065,1.5326,0.1116,-0.2370,-0.1984,-28.5750,-1.2750,31.2000,
8.388597,1.3449,-0.7065,1.5326,0.1927,-0.4962,-0.1437,-28.5750,-1.2750,31.2000,
8.393409,1.3449,-0.7065,1.5326,0.1927,-0.4962,-0.1437,-28.5750,-1.2750,31.2000,
8.395288,0.4918,-0.5889,0.4093,0.1927,-0.4962,-0.1437,-28.5750,-1.2750,31.2000,
8.413582,0.4918,-0.5889,0.4093,0.1927,-0.4962,-0.1437,-28.5750,-1.2750,31.2000,
8.416776,-0.4152,0.1930,0.8736,0.1927,-0.4962,-0.1437,-28.5750,-1.2750,31.2000,
8.420084,-0.4152,0.1930,0.8736,0.1927,-0.4962,-0.1437,-27.4500,-1.6500,32.4000,
8.432835,-0.4152,0.1930,0.8736,0.1927,-0.4962,-0.1437,-27.4500,-1.6500,32.4000,
8.434977,0.1586,0.1649,1.7363,0.1927,-0.4962,-0.1437,-27.4500,-1.6500,32.4000,
8.452721,0.1586,0.1649,1.7363,0.1927,-0.4962,-0.1437,-27.4500,-1.6500,32.4000,
8.455332,0.6607,-0.0999,1.2263,0.1927,-0.4962,-0.1437,-27.4500,-1.6500,32.4000,
8.457355,0.6607,-0.0999,1.2263,0.1098,-0.5831,-0.1083,-27.4500,-1.6500,32.4000,
8.473680,0.6607,-0.0999,1.2263,0.1098,-0.5831,-0.1083,-27.4500,-1.6500,32.4000,
8.475763,-0.2916,-0.0157,0.0472,0.1098,-0.5831,-0.1083,-27.4500,-1.6500,32.4000,
8.491200,-0.2916,-0.0157,0.0472,0.1098,-0.5831,-0.1083,-25.9500,-1.0500,33.4500,
8.496242,-0.2916,-0.0157,0.0472,0.1098,-0.5831,-0.1083,-25.9500,-1.0500,33.4500,
8.497860,-0.5054,-0.1160,-0.1813,0.1098,-0.5831,-0.1083,-25.9500,-1.0500,33.4500,
8.515770,-0.5054,-0.1160,-0.1813,0.1098,-0.5831,-0.1083,-25.9500,-1.0500,33.4500,
8.517752,0.8258,0.6028,0.0862,0.1098,-0.5831,-0.1083,-25.9500,-1.0500,33.4500,
8.530541,0.8258,0.6028,0.0862,0.0932,-0.7694,-0.1006,-25.9500,-1.0500,33.4500,
8.539848,0.8258,0.6028,0.0862,0.0932,-0.7694,-0.1006,-25.9500,-1.0500,33.4500,
8.541579,0.7614,0.5087,0.1030,0.0932,-0.7694,-0.1006,-25.9500,-1.0500,33.4500,
8.554909,0.7614,0.5087,0.1030,0.0932,-0.7694,-0.1006,-25.9500,-1.0500,33.4500,
8.557478,-0.0720,-0.3970,0.0572,0.0932,-0.7694,-0.1006,-25.9500,-1.0500,33.4500,
8.559487,-0.0720,-0.3970,0.0572,0.0932,-0.7694,-0.1006,-24.3750,-0.6750,34.8000,
8.573531,-0.0720,-0.3970,0.0572,0.0932,-0.7694,-0.1006,-24.3750,-0.6750,34.8000,
8.576274,0.6590,0.1330,-0.3078,0.0932,-0.7694,-0.1006,-24.3750,-0.6750,34.8000,
8.594255,0.6590,0.1330,-0.3078,0.0932,-0.7694,-0.1006,-24.3750,-0.6750,34.8000,
8.596359,0.6907,0.7638,-0.3229,0.0932,-0.7694,-0.1006,-24.3750,-0.6750,34.8000,
8.598515,0.6907,0.7638,-0.3229,0.0799,-0.9835,-0.0582,-24.3750,-0.6750,34.8000,
8.613936,0.6907,0.7638,-0.3229,0.0799,-0.9835,-0.0582,-24.3750,-0.6750,34.8000,
8.616079,1.0196,0.7641,0.0073,0.0799,-0.9835,-0.0582,-24.3750,-0.6750,34.8000,
8.623555,1.0196,0.7641,0.0073,0.0799,-0.9835,-0.0582,-21.9750,0.0750,37.0500,
8.633170,1.0196,0.7641,0.0073,0.0799,-0.9835,-0.0582,-21.9750,0.0750,37.0500,
8.634662,0.8153,1.1952,-0.7514,0.0799,-0.9835,-0.0582,-21.9750,0.0750,37.0500,
8.654525,0.8153,1.1952,-0.7514,0.0799,-0.9835,-0.0582,-21.9750,0.0750,37.0500,
8.656392,1.1128,1.3185,-1.9820,0.0799,-0.9835,-0.0582,-21.9750,0.0750,37.0500,
8.674675,1.1128,1.3185,-1.9820,0.0770,-1.1258,-0.1388,-21.9750,0.0750,37.0500,
8.680657,1.1128,1.3185,-1.9820,0.0770,-1.1258,-0.1388,-21.9750,0.0750,37.0500,
8.684488,0.8831,1.4521,0.0466,0.0770,-1.1258,-0.1388,-21.9750,0.0750,37.0500,
8.694953,0.8831,1.4521,0.0466,0.0770,-1.1258,-0.1388,-21.9750,0.0750,37.0500,
8.696942,1.0365,0.4702,0.4113,0.0770,-1.1258,-0.1388,-21.9750,0.0750,37.0500,
8.698979,1.0365,0.4702,0.4113,0.0770,-1.1258,-0.1388,-18.8250,0.1500,39.4500,
8.711653,1.0365,0.4702,0.4113,0.0770,-1.1258,-0.1388,-18.8250,0.1500,39.4500,
8.713851,1.1035,0.3614,-1.1119,0.0770,-1.1258,-0.1388,-18.8250,0.1500,39.4500,
8.730996,1.1035,0.3614,-1.1119,0.0770,-1.1258,-0.1388,-18.8250,0.1500,39.4500,
8.733459,0.1805,1.5078,-1.4289,0.0770,-1.1258,-0.1388,-18.8250,0.1500,39.4500,
8.735776,0.1805,1.5078,-1.4289,0.0956,-0.8579,-0.2376,-18.8250,0.1500,39.4500,
8.750621,0.1805,1.5078,-1.4289,0.0956,-0.8579,-0.2376,-18.8250,0.1500,39.4500,
8.752811,-0.1960,1.4883,-0.7805,0.0956,-0.8579,-0.2376,-18.8250,0.1500,39.4500,
8.761934,-0.1960,1.4883,-0.7805,0.0956,-0.8579,-0.2376,-15.7500,0.1500,40.9500,
8.770314,-0.1960,1.4883,-0.7805,0.0956,-0.8579,-0.2376,-15.7500,0.1500,40.9500,
8.772981,0.1085,0.4478,-0.4196,0.0956,-0.8579,-0.2376,-15.7500,0.1500,40.9500,
8.791061,0.1085,0.4478,-0.4196,0.0956,-0.8579,-0.2376,-15.7500,0.1500,40.9500,
8.793560,0.3062,0.2661,-0.4702,0.0956,-0.8579,-0.2376,-15.7500,0.1500,40.9500,
8.804322,0.3062,0.2661,-0.4702,0.1298,-0.8327,-0.1900,-15.7500,0.1500,40.9500,
8.809350,0.3062,0.2661,-0.4702,0.1298,-0.8327,-0.1900,-15.7500,0.1500,40.9500,
8.810949,0.2957,1.3485,-0.7657,0.1298,-0.8327,-0.1900,-15.7500,0.1500,40.9500,
8.824894,0.2957,1.3485,-0.7657,0.1298,-0.8327,-0.1900,-15.7500,0.1500,40.9500,
8.827174,0.1721,2.0349,-0.3833,0.1298,-0.8327,-0.1900,-15.7500,0.1500,40.9500,
8.831613,0.1721,2.0349,-0.3833,0.1298,-0.8327,-0.1900,-14.1000,0.3000,41.4000,
8.843961,0.1721,2.0349,-0.3833,0.1298,-0.8327,-0.1900,-14.1000,0.3000,41.4000,
8.846477,-0.1023,1.3281,-0.3717,0.1298,-0.8327,-0.1900,-14.1000,0.3000,41.4000,
8.872780,-0.1023,1.3281,-0.3717,0.1298,-0.8327,-0.1900,-14.1000,0.3000,41.4000,
8.877287,-0.0054,0.7397,0.0216,0.1298,-0.8327,-0.1900,-14.1000,0.3000,41.4000,
8.879515,-0.0054,0.7397,0.0216,0.1913,-0.6258,-0.1411,-14.1000,0.3000,41.4000,
8.890435,-0.0054,0.7397,0.0216,0.1913,-0.6258,-0.1411,-14.1000,0.3000,41.4000,
8.892432,-0.0895,0.8906,-0.3020,0.1913,-0.6258,-0.1411,-14.1000,0.3000,41.4000,
8.906753,-0.0895,0.8906,-0.3020,0.1913,-0.6258,-0.1411,-11.3250,0.6000,42.6000,
8.911848,-0.0895,0.8906,-0.3020,0.1913,-0.6258,-0.1411,-11.3250,0.6000,42.6000,
8.913303,-0.1225,1.1971,-0.6908,0.1913,-0.6258,-0.1411,-11.3250,0.6000,42.6000,
8.931878,-0.1225,1.1971,-0.6908,0.1913,-0.6258,-0.1411,-11.3250,0.6000,42.6000,
8.934825,-0.1633,1.1504,-0.4525,0.1913,-0.6258,-0.1411,-11.3250,0.6000,42.6000,
8.946629,-0.1633,1.1504,-0.4525,0.1874,-0.3616,-0.0183,-11.3250,0.6000,42.6000,
8.952598,-0.1633,1.1504,-0.4525,0.1874,-0.3616,-0.0183,-11.3250,0.6000,42.6000,
8.954597,-0.0223,0.6773,-0.1876,0.1874,-0.3616,-0.0183,-11.3250,0.6000,42.6000,
8.970482,-0.0223,0.6773,-0.1876,0.1874,-0.3616,-0.0183,-11.3250,0.6000,42.6000,
8.973645,0.0539,0.2848,-0.0490,0.1874,-0.3616,-0.0183,-11.3250,0.6000,42.6000,
8.975842,0.0539,0.2848,-0.0490,0.1874,-0.3616,-0.0183,-10.5750,1.4250,43.0500,
8.990577,0.0539,0.2848,-0.0490,0.1874,-0.3616,-0.0183,-10.5750,1.4250,43.0500,
8.992784,0.0017,0.2994,-0.1282,0.1874,-0.3616,-0.0183,-10.5750,1.4250,43.0500,
9.009881,0.0017,0.2994,-0.1282,0.1874,-0.3616,-0.0183,-10.5750,1.4250,43.0500,
9.012338,-0.2417,0.6616,0.0650,0.1874,-0.3616,-0.0183,-10.5750,1.4250,43.0500,
9.014231,-0.2417,0.6616,0.0650,0.2804,-0.0793,0.1258,-10.5750,1.4250,43.0500,
9.030422,-0.2417,0.6616,0.0650,0.2804,-0.0793,0.1258,-10.5750,1.4250,43.0500,
9.033157,-0.0840,0.8784,0.2235,0.2804,-0.0793,0.1258,-10.5750,1.4250,43.0500,
9.041736,-0.0840,0.8784,0.2235,0.2804,-0.0793,0.1258,-9.3000,1.9500,42.9750,
9.049278,-0.0840,0.8784,0.2235,0.2804,-0.0793,0.1258,-9.3000,1.9500,42.9750,
9.051304,-0.0442,0.9103,0.3017,0.2804,-0.0793,0.1258,-9.3000,1.9500,42.9750,
9.069282,-0.0442,0.9103,0.3017,0.2804,-0.0793,0.1258,-9.3000,1.9500,42.9750,
9.071756,-0.1575,1.0793,0.3364,0.2804,-0.0793,0.1258,-9.3000,1.9500,42.9750,
9.083146,-0.1575,1.0793,0.3364,0.2129,0.3569,0.2442,-9.3000,1.9500,42.9750,
9.089898,-0.1575,1.0793,0.3364,0.2129,0.3569,0.2442,-9.3000,1.9500,42.9750,
9.091405,-0.5044,1.1560,0.6603,0.2129,0.3569,0.2442,-9.3000,1.9500,42.9750,
9.107107,-0.5044,1.1560,0.6603,0.2129,0.3569,0.2442,-9.3000,1.9500,42.9750,
9.108610,-0.9780,0.9156,0.5074,0.2129,0.3569,0.2442,-9.3000,1.9500,42.9750,
9.112015,-0.9780,0.9156,0.5074,0.2129,0.3569,0.2442,-9.9750,3.0000,42.9750,
9.123243,-0.9780,0.9156,0.5074,0.2129,0.3569,0.2442,-9.9750,3.0000,42.9750,
9.124821,-1.3897,0.8409,0.0551,0.2129,0.3569,0.2442,-9.9750,3.0000,42.9750,
9.152628,-1.3897,0.8409,0.0551,0.2129,0.3569,0.2442,-9.9750,3.0000,42.9750,
9.154575,-1.4298,1.0169,0.1224,0.2129,0.3569,0.2442,-9.9750,3.0000,42.9750,
9.156231,-1.4298,1.0169,0.1224,0.0658,0.7199,0.3728,-9.9750,3.0000,42.9750,
9.175928,-1.4298,1.0169,0.1224,0.0658,0.7199,0.3728,-9.9750,3.0000,42.9750,
9.179932,-1.3710,0.8545,0.4831,0.0658,0.7199,0.3728,-9.9750,3.0000,42.9750,
9.183013,-1.3710,0.8545,0.4831,0.0658,0.7199,0.3728,-12.3000,4.1250,42.3000,
9.192735,-1.3710,0.8545,0.4831,0.0658,0.7199,0.3728,-12.3000,4.1250,42.3000,
9.194249,-1.1185,0.6488,0.0084,0.0658,0.7199,0.3728,-12.3000,4.1250,42.3000,
9.210201,-1.1185,0.6488,0.0084,0.0658,0.7199,0.3728,-12.3000,4.1250,42.3000,
9.211991,-1.2178,0.7278,-0.2488,0.0658,0.7199,0.3728,-12.3000,4.1250,42.3000,
9.226863,-1.2178,0.7278,-0.2488,-0.0573,0.6516,0.4102,-12.3000,4.1250,42.3000,
9.229076,-1.2178,0.7278,-0.2488,-0.0573,0.6516,0.4102,-12.3000,4.1250,42.3000,
9.230624,-1.0697,0.7114,-0.2695,-0.0573,0.6516,0.4102,-12.3000,4.1250,42.3000,
9.245048,-1.0697,0.7114,-0.2695,-0.0573,0.6516,0.4102,-12.3000,4.1250,42.3000,
9.250878,-0.8364,0.2246,-0.0670,-0.0573,0.6516,0.4102,-12.3000,4.1250,42.3000,
9.253787,-0.8364,0.2246,-0.0670,-0.0573,0.6516,0.4102,-13.2750,3.9750,40.9500,
9.270520,-0.8364,0.2246,-0.0670,-0.0573,0.6516,0.4102,-13.2750,3.9750,40.9500,
9.271518,-0.7282,-0.0971,0.4944,-0.0573,0.6516,0.4102,-13.2750,3.9750,40.9500,
9.288716,-0.7282,-0.0971,0.4944,-0.0573,0.6516,0.4102,-13.2750,3.9750,40.9500,
9.289308,-0.2932,-0.4611,0.0385,-0.0573,0.6516,0.4102,-13.2750,3.9750,40.9500,
9.292824,-0.2932,-0.4611,0.0385,-0.0832,0.4419,0.3633,-13.2750,3.9750,40.9500,
9.308301,-0.2932,-0.4611,0.0385,-0.0832,0.4419,0.3633,-13.2750,3.9750,40.9500,
9.309235,-0.0489,-1.1228,-0.2775,-0.0832,0.4419,0.3633,-13.2750,3.9750,40.9500,
9.322625,-0.0489,-1.1228,-0.2775,-0.0832,0.4419,0.3633,-14.5500,4.8000,40.8750,
9.323505,-0.0489,-1.1228,-0.2775,-0.0832,0.4419,0.3633,-14.5500,4.8000,40.8750,
9.324020,-0.1473,-1.0238,-0.1406,-0.0832,0.4419,0.3633,-14.5500,4.8000,40.8750,
9.347502,-0.1473,-1.0238,-0.1406,-0.0832,0.4419,0.3633,-14.5500,4.8000,40.8750,
9.348837,0.0510,-0.6588,0.0680,-0.0832,0.4419,0.3633,-14.5500,4.8000,40.8750,
9.363243,0.0510,-0.6588,0.0680,0.0440,0.1778,0.2984,-14.5500,4.8000,40.8750,
9.369325,0.0510,-0.6588,0.0680,0.0440,0.1778,0.2984,-14.5500,4.8000,40.8750,
9.370735,-0.4949,-0.2342,0.4169,0.0440,0.1778,0.2984,-14.5500,4.8000,40.8750,
9.388135,-0.4949,-0.2342,0.4169,0.0440,0.1778,0.2984,-14.5500,4.8000,40.8750,
9.389636,0.1033,0.0786,0.4077,0.0440,0.1778,0.2984,-14.5500,4.8000,40.8750,
9.392489,0.1033,0.0786,0.4077,0.0440,0.1778,0.2984,-15.5250,4.2000,40.3500,
9.412448,0.1033,0.0786,0.4077,0.0440,0.1778,0.2984,-15.5250,4.2000,40.3500,
9.413796,-0.4337,0.4077,0.5060,0.0440,0.1778,0.2984,-15.5250,4.2000,40.3500,
9.430683,-0.4337,0.4077,0.5060,0.0440,0.1778,0.2984,-15.5250,4.2000,40.3500,
9.432793,-0.4425,0.3311,0.1688,0.0440,0.1778,0.2984,-15.5250,4.2000,40.3500,
9.436350,-0.4425,0.3311,0.1688,0.2475,0.0600,0.2996,-15.5250,4.2000,40.3500,
9.450605,-0.4425,0.3311,0.1688,0.2475,0.0600,0.2996,-15.5250,4.2000,40.3500,
9.453174,-0.4459,0.3240,0.2128,0.2475,0.0600,0.2996,-15.5250,4.2000,40.3500,
9.461512,-0.4459,0.3240,0.2128,0.2475,0.0600,0.2996,-15.3000,5.0250,40.0500,
9.470948,-0.4459,0.3240,0.2128,0.2475,0.0600,0.2996,-15.3000,5.0250,40.0500,
9.473194,-0.2232,0.3536,0.0892,0.2475,0.0600,0.2996,-15.3000,5.0250,40.0500,
9.489347,-0.2232,0.3536,0.0892,0.2475,0.0600,0.2996,-15.3000,5.0250,40.0500,
9.492850,-0.3806,0.4787,-0.0172,0.2475,0.0600,0.2996,-15.3000,5.0250,40.0500,
9.506782,-0.3806,0.4787,-0.0172,0.3267,-0.0211,0.1729,-15.3000,5.0250,40.0500,
9.509249,-0.3806,0.4787,-0.0172,0.3267,-0.0211,0.1729,-15.3000,5.0250,40.0500,
9.510904,-0.5391,0.2038,-0.1992,0.3267,-0.0211,0.1729,-15.3000,5.0250,40.0500,
9.523519,-0.5391,0.2038,-0.1992,0.3267,-0.0211,0.1729,-15.3000,5.0250,40.0500,
9.525717,-0.4090,-0.1088,-0.3060,0.3267,-0.0211,0.1729,-15.3000,5.0250,40.0500,
9.531575,-0.4090,-0.1088,-0.3060,0.3267,-0.0211,0.1729,-15.6750,6.0750,39.9000,
9.547661,-0.4090,-0.1088,-0.3060,0.3267,-0.0211,0.1729,-15.6750,6.0750,39.9000,
9.549758,-0.2680,-0.3824,-0.3989,0.3267,-0.0211,0.1729,-15.6750,6.0750,39.9000,
9.568485,-0.2680,-0.3824,-0.3989,0.3267,-0.0211,0.1729,-15.6750,6.0750,39.9000,
9.574361,-0.3507,-0.4518,-0.1916,0.3267,-0.0211,0.1729,-15.6750,6.0750,39.9000,
9.577230,-0.3507,-0.4518,-0.1916,0.1704,0.0365,0.1324,-15.6750,6.0750,39.9000,
9.592109,-0.3507,-0.4518,-0.1916,0.1704,0.0365,0.1324,-15.6750,6.0750,39.9000,
9.594040,-0.3924,-0.0209,0.0525,0.1704,0.0365,0.1324,-15.6750,6.0750,39.9000,
9.603974,-0.3924,-0.0209,0.0525,0.1704,0.0365,0.1324,-15.6750,7.1250,40.1250,
9.606259,-0.3924,-0.0209,0.0525,0.1704,0.0365,0.1324,-15.6750,7.1250,40.1250,
9.607559,-0.5314,-0.2087,0.0277,0.1704,0.0365,0.1324,-15.6750,7.1250,40.1250,
9.623388,-0.5314,-0.2087,0.0277,0.1704,0.0365,0.1324,-15.6750,7.1250,40.1250,
9.625108,-0.6321,-0.0810,0.3081,0.1704,0.0365,0.1324,-15.6750,7.1250,40.1250,
9.640377,-0.6321,-0.0810,0.3081,0.0854,0.1403,0.1353,-15.6750,7.1250,40.1250,
9.645050,-0.6321,-0.0810,0.3081,0.0854,0.1403,0.1353,-15.6750,7.1250,40.1250,
9.646428,-0.5735,-0.0528,0.3626,0.0854,0.1403,0.1353,-15.6750,7.1250,40.1250,
9.664983,-0.5735,-0.0528,0.3626,0.0854,0.1403,0.1353,-15.6750,7.1250,40.1250,
9.666864,-0.4113,0.0051,0.4303,0.0854,0.1403,0.1353,-15.6750,7.1250,40.1250,
9.673576,-0.4113,0.0051,0.4303,0.0854,0.1403,0.1353,-15.8250,8.1000,40.2750,
9.685611,-0.4113,0.0051,0.4303,0.0854,0.1403,0.1353,-15.8250,8.1000,40.2750,
9.687365,-0.3831,-0.1126,0.2824,0.0854,0.1403,0.1353,-15.8250,8.1000,40.2750,
9.705541,-0.3831,-0.1126,0.2824,0.0854,0.1403,0.1353,-15.8250,8.1000,40.2750,
9.707594,-0.5417,-0.1221,0.2423,0.0854,0.1403,0.1353,-15.8250,8.1000,40.2750,
9.709187,-0.5417,-0.1221,0.2423,0.1023,0.2533,0.0848,-15.8250,8.1000,40.2750,
9.723323,-0.5417,-0.1221,0.2423,0.1023,0.2533,0.0848,-15.8250,8.1000,40.2750,
9.724652,-0.2186,-0.1702,0.0629,0.1023,0.2533,0.0848,-15.8250,8.1000,40.2750,
9.742177,-0.2186,-0.1702,0.0629,0.1023,0.2533,0.0848,-16.0500,8.1750,38.7000,
9.748095,-0.2186,-0.1702,0.0629,0.1023,0.2533,0.0848,-16.0500,8.1750,38.7000,
9.749726,-0.3777,-0.1135,-0.0133,0.1023,0.2533,0.0848,-16.0500,8.1750,38.7000,
9.768232,-0.3777,-0.1135,-0.0133,0.1023,0.2533,0.0848,-16.0500,8.1750,38.7000,
9.771201,-0.2737,-0.0800,-0.2793,0.1023,0.2533,0.0848,-16.0500,8.1750,38.7000,
9.782719,-0.2737,-0.0800,-0.2793,0.0832,0.1778,0.0388,-16.0500,8.1750,38.7000,
9.792759,-0.2737,-0.0800,-0.2793,0.0832,0.1778,0.0388,-16.0500,8.1750,38.7000,
9.795177,-0.3393,-0.1541,-0.0934,0.0832,0.1778,0.0388,-16.0500,8.1750,38.7000,
9.807220,-0.3393,-0.1541,-0.0934,0.0832,0.1778,0.0388,-16.0500,8.1750,38.7000,
9.809661,-0.4627,-0.0905,0.1764,0.0832,0.1778,0.0388,-16.0500,8.1750,38.7000,
9.811833,-0.4627,-0.0905,0.1764,0.0832,0.1778,0.0388,-16.9500,7.8750,38.5500,
9.823113,-0.4627,-0.0905,0.1764,0.0832,0.1778,0.0388,-16.9500,7.8750,38.5500,
9.825008,-0.2271,-0.1987,0.3416,0.0832,0.1778,0.0388,-16.9500,7.8750,38.5500,
9.846845,-0.2271,-0.1987,0.3416,0.0832,0.1778,0.0388,-16.9500,7.8750,38.5500,
9.849901,-0.1202,-0.4046,0.5533,0.0832,0.1778,0.0388,-16.9500,7.8750,38.5500,
9.854686,-0.1202,-0.4046,0.5533,0.0750,0.1970,0.0380,-16.9500,7.8750,38.5500,
9.865771,-0.1202,-0.4046,0.5533,0.0750,0.1970,0.0380,-16.9500,7.8750,38.5500,
9.868035,-0.2420,-0.2209,0.0866,0.0750,0.1970,0.0380,-16.9500,7.8750,38.5500,
9.882379,-0.2420,-0.2209,0.0866,0.0750,0.1970,0.0380,-16.9500,7.8750,38.5500,
9.884998,-0.4588,-0.0625,-0.0876,0.0750,0.1970,0.0380,-16.9500,7.8750,38.5500,
9.887104,-0.4588,-0.0625,-0.0876,0.0750,0.1970,0.0380,-17.0250,8.4000,38.5500,
9.910861,-0.4588,-0.0625,-0.0876,0.0750,0.1970,0.0380,-17.0250,8.4000,38.5500,
9.914269,-0.4624,0.0788,-0.0639,0.0750,0.1970,0.0380,-17.0250,8.4000,38.5500,
9.925446,-0.4624,0.0788,-0.0639,0.0727,0.0973,-0.0200,-17.0250,8.4000,38.5500,
9.928205,-0.4624,0.0788,-0.0639,0.0727,0.0973,-0.0200,-17.0250,8.4000,38.5500,
9.929811,-0.3883,-0.0340,-0.0088,0.0727,0.0973,-0.0200,-17.0250,8.4000,38.5500,
9.946255,-0.3883,-0.0340,-0.0088,0.0727,0.0973,-0.0200,-17.0250,8.4000,38.5500,
9.948338,-0.4317,0.0490,-0.0197,0.0727,0.0973,-0.0200,-17.0250,8.4000,38.5500,
9.955941,-0.4317,0.0490,-0.0197,0.0727,0.0973,-0.0200,-17.2500,8.7000,39.0000,
9.963721,-0.4317,0.0490,-0.0197,0.0727,0.0973,-0.0200,-17.2500,8.7000,39.0000,
9.965650,-0.3511,0.3780,0.0169,0.0727,0.0973,-0.0200,-17.2500,8.7000,39.0000,
9.984372,-0.3511,0.3780,0.0169,0.0727,0.0973,-0.0200,-17.2500,8.7000,39.0000,
9.985525,-0.1605,0.1715,0.0680,0.0727,0.0973,-0.0200,-17.2500,8.7000,39.0000,
9.992078,-0.1605,0.1715,0.0680,-0.0208,-0.0553,0.0014,-17.2500,8.7000,39.0000,
10.008664,-0.1605,0.1715,0.0680,-0.0208,-0.0553,0.0014,-17.2500,8.7000,39.0000,
10.010223,-0.1772,0.2036,0.1777,-0.0208,-0.0553,0.0014,-17.2500,8.7000,39.0000,
10.022492,-0.1772,0.2036,0.1777,-0.0208,-0.0553,0.0014,-18.3000,8.6250,39.4500,
10.024064,-0.1772,0.2036,0.1777,-0.0208,-0.0553,0.0014,-18.3000,8.6250,39.4500,
10.025106,-0.0327,-0.0489,0.4838,-0.0208,-0.0553,0.0014,-18.3000,8.6250,39.4500,
10.047117,-0.0327,-0.0489,0.4838,-0.0208,-0.0553,0.0014,-18.3000,8.6250,39.4500,
10.048817,-0.0082,-0.0735,0.5130,-0.0208,-0.0553,0.0014,-18.3000,8.6250,39.4500,
10.061662,-0.0082,-0.0735,0.5130,0.0168,0.0118,-0.0440,-18.3000,8.6250,39.4500,
10.066989,-0.0082,-0.0735,0.5130,0.0168,0.0118,-0.0440,-18.3000,8.6250,39.4500,
10.068230,-0.0210,-0.0106,0.3831,0.0168,0.0118,-0.0440,-18.3000,8.6250,39.4500,
10.085911,-0.0210,-0.0106,0.3831,0.0168,0.0118,-0.0440,-18.3000,8.6250,39.4500,
10.087897,-0.2657,0.0168,0.2118,0.0168,0.0118,-0.0440,-18.3000,8.6250,39.4500,
10.091578,-0.2657,0.0168,0.2118,0.0168,0.0118,-0.0440,-17.0250,8.8500,38.7000,
10.107167,-0.2657,0.0168,0.2118,0.0168,0.0118,-0.0440,-17.0250,8.8500,38.7000,
10.109603,-0.3938,0.0245,0.1956,0.0168,0.0118,-0.0440,-17.0250,8.8500,38.7000,
10.125539,-0.3938,0.0245,0.1956,0.0168,0.0118,-0.0440,-17.0250,8.8500,38.7000,
10.127822,-0.3091,-0.2054,0.1936,0.0168,0.0118,-0.0440,-17.0250,8.8500,38.7000,
10.129812,-0.3091,-0.2054,0.1936,0.0140,0.1002,-0.0892,-17.0250,8.8500,38.7000,
10.145325,-0.3091,-0.2054,0.1936,0.0140,0.1002,-0.0892,-17.0250,8.8500,38.7000,
10.147382,-0.4482,-0.1509,0.2367,0.0140,0.1002,-0.0892,-17.0250,8.8500,38.7000,
