
time,ax,ay,az,wx,wy,wz,Bx,By,Bz,
0.055731,0.0000,0.0000,0.0000,0.0000,0.0000,0.0000,0.0000,0.0000,0.0000,
0.072669,0.0000,0.0000,0.0000,0.0000,0.0000,0.0000,0.0000,0.0000,0.0000,
0.073994,0.5342,0.3899,-0.4520,0.0000,0.0000,0.0000,0.0000,0.0000,0.0000,
0.075240,0.5342,0.3899,-0.4520,0.0000,0.0000,0.0000,4.2000,13.9500,-42.1500,
0.092195,0.5342,0.3899,-0.4520,0.0000,0.0000,0.0000,4.2000,13.9500,-42.1500,
0.093457,0.4106,0.3278,-0.3977,0.0000,0.0000,0.0000,4.2000,13.9500,-42.1500,
0.110616,0.4106,0.3278,-0.3977,0.0000,0.0000,0.0000,4.2000,13.9500,-42.1500,
0.112416,0.2470,0.2925,-0.3785,0.0000,0.0000,0.0000,4.2000,13.9500,-42.1500,
0.114568,0.2470,0.2925,-0.3785,-0.2107,-0.1640,-0.1284,4.2000,13.9500,-42.1500,
0.130154,0.2470,0.2925,-0.3785,-0.2107,-0.1640,-0.1284,4.2000,13.9500,-42.1500,
0.131703,0.2206,0.3102,-0.4228,-0.2107,-0.1640,-0.1284,4.2000,13.9500,-42.1500,
0.146190,0.2206,0.3102,-0.4228,-0.2107,-0.1640,-0.1284,2.8500,13.8000,-41.8500,
0.147883,0.2206,0.3102,-0.4228,-0.2107,-0.1640,-0.1284,2.8500,13.8000,-41.8500,
0.149007,0.1660,0.3356,-0.4450,-0.2107,-0.1640,-0.1284,2.8500,13.8000,-41.8500,
0.173918,0.1660,0.3356,-0.4450,-0.2107,-0.1640,-0.1284,2.8500,13.8000,-41.8500,
0.176939,0.0605,0.3898,-0.4782,-0.2107,-0.1640,-0.1284,2.8500,13.8000,-41.8500,
0.183160,0.0605,0.3898,-0.4782,-0.2598,-0.1061,-0.1448,2.8500,13.8000,-41.8500,
0.189623,0.0605,0.3898,-0.4782,-0.2598,-0.1061,-0.1448,2.8500,13.8000,-41.8500,
0.191800,0.0622,0.3463,-0.3498,-0.2598,-0.1061,-0.1448,2.8500,13.8000,-41.8500,
0.208723,0.0622,0.3463,-0.3498,-0.2598,-0.1061,-0.1448,2.8500,13.8000,-41.8500,
0.211828,0.0530,0.3247,-0.2733,-0.2598,-0.1061,-0.1448,2.8500,13.8000,-41.8500,
0.214945,0.0530,0.3247,-0.2733,-0.2598,-0.1061,-0.1448,2.2500,14.5500,-41.1750,
0.227849,0.0530,0.3247,-0.2733,-0.2598,-0.1061,-0.1448,2.2500,14.5500,-41.1750,
0.230434,0.1160,0.3012,-0.2662,-0.2598,-0.1061,-0.1448,2.2500,14.5500,-41.1750,
0.243052,0.1160,0.3012,-0.2662,-0.2598,-0.1061,-0.1448,2.2500,14.5500,-41.1750,
0.246034,0.0774,0.1151,-0.2096,-0.2598,-0.1061,-0.1448,2.2500,14.5500,-41.1750,
0.251981,0.0774,0.1151,-0.2096,-0.2851,-0.0761,-0.1197,2.2500,14.5500,-41.1750,
0.266872,0.0774,0.1151,-0.2096,-0.2851,-0.0761,-0.1197,2.2500,14.5500,-41.1750,
0.269659,0.0548,-0.1577,-0.1459,-0.2851,-0.0761,-0.1197,2.2500,14.5500,-41.1750,
0.285341,0.0548,-0.1577,-0.1459,-0.2851,-0.0761,-0.1197,1.9500,15.0000,-42.0750,
0.291135,0.0548,-0.1577,-0.1459,-0.2851,-0.0761,-0.1197,1.9500,15.0000,-42.0750,
0.292871,0.0249,-0.1504,-0.2187,-0.2851,-0.0761,-0.1197,1.9500,15.0000,-42.0750,
0.311485,0.0249,-0.1504,-0.2187,-0.2851,-0.0761,-0.1197,1.9500,15.0000,-42.0750,
0.313460,-0.0380,-0.0152,-0.3282,-0.2851,-0.0761,-0.1197,1.9500,15.0000,-42.0750,
0.327491,-0.0380,-0.0152,-0.3282,-0.2130,-0.0623,-0.1465,1.9500,15.0000,-42.0750,
0.330592,-0.0380,-0.0152,-0.3282,-0.2130,-0.0623,-0.1465,1.9500,15.0000,-42.0750,
0.332305,-0.0534,-0.0490,-0.3469,-0.2130,-0.0623,-0.1465,1.9500,15.0000,-42.0750,
0.350393,-0.0534,-0.0490,-0.3469,-0.2130,-0.0623,-0.1465,1.9500,15.0000,-42.0750,
0.352473,-0.0144,-0.1795,-0.3135,-0.2130,-0.0623,-0.1465,1.9500,15.0000,-42.0750,
0.354129,-0.0144,-0.1795,-0.3135,-0.2130,-0.0623,-0.1465,1.9500,15.6000,-41.7000,
0.370448,-0.0144,-0.1795,-0.3135,-0.2130,-0.0623,-0.1465,1.9500,15.6000,-41.7000,
0.372468,0.0995,-0.2315,-0.3701,-0.2130,-0.0623,-0.1465,1.9500,15.6000,-41.7000,
0.389659,0.0995,-0.2315,-0.3701,-0.2130,-0.0623,-0.1465,1.9500,15.6000,-41.7000,
0.391521,0.1754,-0.2150,-0.3387,-0.2130,-0.0623,-0.1465,1.9500,15.6000,-41.7000,
0.393317,0.1754,-0.2150,-0.3387,-0.1871,-0.0544,-0.2285,1.9500,15.6000,-41.7000,
0.409104,0.1754,-0.2150,-0.3387,-0.1871,-0.0544,-0.2285,1.9500,15.6000,-41.7000,
0.410937,0.1732,-0.1565,-0.3571,-0.1871,-0.0544,-0.2285,1.9500,15.6000,-41.7000,
0.418940,0.1732,-0.1565,-0.3571,-0.1871,-0.0544,-0.2285,1.6500,16.1250,-41.2500,
0.428587,0.1732,-0.1565,-0.3571,-0.1871,-0.0544,-0.2285,1.6500,16.1250,-41.2500,
0.431752,0.0753,-0.0371,-0.4351,-0.1871,-0.0544,-0.2285,1.6500,16.1250,-41.2500,
0.443351,0.0753,-0.0371,-0.4351,-0.1871,-0.0544,-0.2285,1.6500,16.1250,-41.2500,
0.446135,-0.0213,0.1793,-0.5451,-0.1871,-0.0544,-0.2285,1.6500,16.1250,-41.2500,
0.462165,-0.0213,0.1793,-0.5451,-0.1716,-0.0647,-0.2763,1.6500,16.1250,-41.2500,
0.466908,-0.0213,0.1793,-0.5451,-0.1716,-0.0647,-0.2763,1.6500,16.1250,-41.2500,
0.468857,-0.0863,0.2970,-0.5016,-0.1716,-0.0647,-0.2763,1.6500,16.1250,-41.2500,
0.488107,-0.0863,0.2970,-0.5016,-0.1716,-0.0647,-0.2763,1.6500,16.1250,-41.2500,
0.491261,-0.1288,0.3182,-0.3568,-0.1716,-0.0647,-0.2763,1.6500,16.1250,-41.2500,
0.493809,-0.1288,0.3182,-0.3568,-0.1716,-0.0647,-0.2763,1.2750,16.7250,-40.8750,
0.506486,-0.1288,0.3182,-0.3568,-0.1716,-0.0647,-0.2763,1.2750,16.7250,-40.8750,
0.509796,-0.0752,0.2649,-0.2009,-0.1716,-0.0647,-0.2763,1.2750,16.7250,-40.8750,
0.525743,-0.0752,0.2649,-0.2009,-0.1716,-0.0647,-0.2763,1.2750,16.7250,-40.8750,
0.528523,-0.0474,0.2213,-0.1329,-0.1716,-0.0647,-0.2763,1.2750,16.7250,-40.8750,
0.530772,-0.0474,0.2213,-0.1329,-0.1865,-0.1057,-0.2975,1.2750,16.7250,-40.8750,
0.543488,-0.0474,0.2213,-0.1329,-0.1865,-0.1057,-0.2975,1.2750,16.7250,-40.8750,
0.545999,-0.0504,0.2264,-0.2417,-0.1865,-0.1057,-0.2975,1.2750,16.7250,-40.8750,
0.560421,-0.0504,0.2264,-0.2417,-0.1865,-0.1057,-0.2975,0.4500,17.3250,-40.3500,
0.569248,-0.0504,0.2264,-0.2417,-0.1865,-0.1057,-0.2975,0.4500,17.3250,-40.3500,
0.571885,-0.1786,0.2184,-0.4500,-0.1865,-0.1057,-0.2975,0.4500,17.3250,-40.3500,
0.589607,-0.1786,0.2184,-0.4500,-0.1865,-0.1057,-0.2975,0.4500,17.3250,-40.3500,
0.592811,-0.3871,0.2281,-0.5364,-0.1865,-0.1057,-0.2975,0.4500,17.3250,-40.3500,
0.604153,-0.3871,0.2281,-0.5364,-0.1590,-0.2695,-0.2843,0.4500,17.3250,-40.3500,
0.609314,-0.3871,0.2281,-0.5364,-0.1590,-0.2695,-0.2843,0.4500,17.3250,-40.3500,
0.611055,-0.5121,0.2887,-0.4636,-0.1590,-0.2695,-0.2843,0.4500,17.3250,-40.3500,
0.629381,-0.5121,0.2887,-0.4636,-0.1590,-0.2695,-0.2843,0.4500,17.3250,-40.3500,
0.631171,-0.6284,0.4115,-0.4384,-0.1590,-0.2695,-0.2843,0.4500,17.3250,-40.3500,
0.633021,-0.6284,0.4115,-0.4384,-0.1590,-0.2695,-0.2843,0.0750,17.9250,-40.5000,
0.643612,-0.6284,0.4115,-0.4384,-0.1590,-0.2695,-0.2843,0.0750,17.9250,-40.5000,
0.645464,-0.7900,0.6366,-0.2939,-0.1590,-0.2695,-0.2843,0.0750,17.9250,-40.5000,
0.669013,-0.7900,0.6366,-0.2939,-0.1590,-0.2695,-0.2843,0.0750,17.9250,-40.5000,
0.670907,-0.9588,0.8610,-0.1739,-0.1590,-0.2695,-0.2843,0.0750,17.9250,-40.5000,
0.675958,-0.9588,0.8610,-0.1739,-0.2346,-0.4482,-0.2112,0.0750,17.9250,-40.5000,
0.690560,-0.9588,0.8610,-0.1739,-0.2346,-0.4482,-0.2112,0.0750,17.9250,-40.5000,
0.694007,-0.9655,0.8805,-0.3889,-0.2346,-0.4482,-0.2112,0.0750,17.9250,-40.5000,
0.696998,-0.9655,0.8805,-0.3889,-0.2346,-0.4482,-0.2112,-0.8250,18.1500,-39.9750,
0.710481,-0.9655,0.8805,-0.3889,-0.2346,-0.4482,-0.2112,-0.8250,18.1500,-39.9750,
0.713054,-0.9446,0.7420,-0.7008,-0.2346,-0.4482,-0.2112,-0.8250,18.1500,-39.9750,
0.726270,-0.9446,0.7420,-0.7008,-0.2346,-0.4482,-0.2112,-0.8250,18.1500,-39.9750,
0.728710,-0.9803,0.6389,-0.6723,-0.2346,-0.4482,-0.2112,-0.8250,18.1500,-39.9750,
0.740551,-0.9803,0.6389,-0.6723,-0.2717,-0.5527,-0.1417,-0.8250,18.1500,-39.9750,
0.743737,-0.9803,0.6389,-0.6723,-0.2717,-0.5527,-0.1417,-0.8250,18.1500,-39.9750,
0.745369,-0.8797,0.5409,-0.4427,-0.2717,-0.5527,-0.1417,-0.8250,18.1500,-39.9750,
0.765466,-0.8797,0.5409,-0.4427,-0.2717,-0.5527,-0.1417,-0.8250,18.1500,-39.9750,
0.769010,-0.6342,0.4695,-0.3571,-0.2717,-0.5527,-0.1417,-0.8250,18.1500,-39.9750,
0.771160,-0.6342,0.4695,-0.3571,-0.2717,-0.5527,-0.1417,-2.8500,18.7500,-39.3750,
0.784817,-0.6342,0.4695,-0.3571,-0.2717,-0.5527,-0.1417,-2.8500,18.7500,-39.3750,
0.787576,-0.4002,0.2889,-0.3178,-0.2717,-0.5527,-0.1417,-2.8500,18.7500,-39.3750,
0.804654,-0.4002,0.2889,-0.3178,-0.2717,-0.5527,-0.1417,-2.8500,18.7500,-39.3750,
0.807064,-0.3931,0.2291,-0.2289,-0.2717,-0.5527,-0.1417,-2.8500,18.7500,-39.3750,
0.809496,-0.3931,0.2291,-0.2289,-0.3065,-0.6217,-0.0904,-2.8500,18.7500,-39.3750,
0.824043,-0.3931,0.2291,-0.2289,-0.3065,-0.6217,-0.0904,-2.8500,18.7500,-39.3750,
0.826342,-0.4893,0.2789,-0.1079,-0.3065,-0.6217,-0.0904,-2.8500,18.7500,-39.3750,
0.835155,-0.4893,0.2789,-0.1079,-0.3065,-0.6217,-0.0904,-4.0500,19.9500,-39.0750,
0.843509,-0.4893,0.2789,-0.1079,-0.3065,-0.6217,-0.0904,-4.0500,19.9500,-39.0750,
0.846171,-0.7514,0.5500,-0.2117,-0.3065,-0.6217,-0.0904,-4.0500,19.9500,-39.0750,
0.862843,-0.7514,0.5500,-0.2117,-0.3065,-0.6217,-0.0904,-4.0500,19.9500,-39.0750,
0.864919,-0.9853,0.8288,-0.4269,-0.3065,-0.6217,-0.0904,-4.0500,19.9500,-39.0750,
0.877369,-0.9853,0.8288,-0.4269,-0.3604,-0.5898,-0.1136,-4.0500,19.9500,-39.0750,
0.882396,-0.9853,0.8288,-0.4269,-0.3604,-0.5898,-0.1136,-4.0500,19.9500,-39.0750,
0.885105,-1.1045,0.9878,-0.3445,-0.3604,-0.5898,-0.1136,-4.0500,19.9500,-39.0750,
0.902183,-1.1045,0.9878,-0.3445,-0.3604,-0.5898,-0.1136,-4.0500,19.9500,-39.0750,
0.904952,-1.0797,0.9347,-0.1253,-0.3604,-0.5898,-0.1136,-4.0500,19.9500,-39.0750,
0.906901,-1.0797,0.9347,-0.1253,-0.3604,-0.5898,-0.1136,-5.7000,20.5500,-38.4000,
0.921878,-1.0797,0.9347,-0.1253,-0.3604,-0.5898,-0.1136,-5.7000,20.5500,-38.4000,
0.924653,-0.8864,0.7897,-0.0162,-0.3604,-0.5898,-0.1136,-5.7000,20.5500,-38.4000,
0.942476,-0.8864,0.7897,-0.0162,-0.3604,-0.5898,-0.1136,-5.7000,20.5500,-38.4000,
0.944606,-0.6895,0.5309,-0.0834,-0.3604,-0.5898,-0.1136,-5.7000,20.5500,-38.4000,
0.952104,-0.6895,0.5309,-0.0834,-0.3835,-0.5269,-0.1535,-5.7000,20.5500,-38.4000,
0.966512,-0.6895,0.5309,-0.0834,-0.3835,-0.5269,-0.1535,-5.7000,20.5500,-38.4000,
0.968550,-0.6294,0.2206,-0.2944,-0.3835,-0.5269,-0.1535,-5.7000,20.5500,-38.4000,
0.977017,-0.6294,0.2206,-0.2944,-0.3835,-0.5269,-0.1535,-7.0500,20.5500,-38.4000,
0.987172,-0.6294,0.2206,-0.2944,-0.3835,-0.5269,-0.1535,-7.0500,20.5500,-38.4000,
0.988853,-0.8030,0.1731,-0.4087,-0.3835,-0.5269,-0.1535,-7.0500,20.5500,-38.4000,
1.006025,-0.8030,0.1731,-0.4087,-0.3835,-0.5269,-0.1535,-7.0500,20.5500,-38.4000,
1.010291,-0.9836,0.2221,-0.2860,-0.3835,-0.5269,-0.1535,-7.0500,20.5500,-38.4000,
1.019106,-0.9836,0.2221,-0.2860,-0.3300,-0.3899,-0.2413,-7.0500,20.5500,-38.4000,
1.024402,-0.9836,0.2221,-0.2860,-0.3300,-0.3899,-0.2413,-7.0500,20.5500,-38.4000,
1.026528,-1.1701,0.1640,0.0251,-0.3300,-0.3899,-0.2413,-7.0500,20.5500,-38.4000,
1.043552,-1.1701,0.1640,0.0251,-0.3300,-0.3899,-0.2413,-7.0500,20.5500,-38.4000,
1.045993,-1.0586,0.0236,0.2509,-0.3300,-0.3899,-0.2413,-7.0500,20.5500,-38.4000,
1.048406,-1.0586,0.0236,0.2509,-0.3300,-0.3899,-0.2413,-8.5500,21.7500,-37.8000,
1.063830,-1.0586,0.0236,0.2509,-0.3300,-0.3899,-0.2413,-8.5500,21.7500,-37.8000,
1.066031,-0.7891,-0.0151,0.5307,-0.3300,-0.3899,-0.2413,-8.5500,21.7500,-37.8000,
1.082950,-0.7891,-0.0151,0.5307,-0.3300,-0.3899,-0.2413,-8.5500,21.7500,-37.8000,
1.085446,-0.3132,-0.0759,0.5578,-0.3300,-0.3899,-0.2413,-8.5500,21.7500,-37.8000,
1.093115,-0.3132,-0.0759,0.5578,-0.3181,-0.1399,-0.2889,-8.5500,21.7500,-37.8000,
1.102224,-0.3132,-0.0759,0.5578,-0.3181,-0.1399,-0.2889,-8.5500,21.7500,-37.8000,
1.104402,0.0319,0.0138,0.7135,-0.3181,-0.1399,-0.2889,-8.5500,21.7500,-37.8000,
1.115540,0.0319,0.0138,0.7135,-0.3181,-0.1399,-0.2889,-9.0000,22.5000,-37.0500,
1.122182,0.0319,0.0138,0.7135,-0.3181,-0.1399,-0.2889,-9.0000,22.5000,-37.0500,
1.124490,0.0303,0.2353,0.7361,-0.3181,-0.1399,-0.2889,-9.0000,22.5000,-37.0500,
1.142376,0.0303,0.2353,0.7361,-0.3181,-0.1399,-0.2889,-9.0000,22.5000,-37.0500,
1.145054,-0.5792,0.4271,0.5762,-0.3181,-0.1399,-0.2889,-9.0000,22.5000,-37.0500,
1.160306,-0.5792,0.4271,0.5762,-0.1402,0.0647,-0.4928,-9.0000,22.5000,-37.0500,
1.163096,-0.5792,0.4271,0.5762,-0.1402,0.0647,-0.4928,-9.0000,22.5000,-37.0500,
1.164774,-1.5490,0.5523,0.5661,-0.1402,0.0647,-0.4928,-9.0000,22.5000,-37.0500,
1.176643,-1.5490,0.5523,0.5661,-0.1402,0.0647,-0.4928,-9.0000,22.5000,-37.0500,
1.179090,-2.9978,1.0270,0.2720,-0.1402,0.0647,-0.4928,-9.0000,22.5000,-37.0500,
1.185157,-2.9978,1.0270,0.2720,-0.1402,0.0647,-0.4928,-9.1500,22.6500,-36.4500,
1.196441,-2.9978,1.0270,0.2720,-0.1402,0.0647,-0.4928,-9.1500,22.6500,-36.4500,
1.198844,-4.5201,1.7236,0.0628,-0.1402,0.0647,-0.4928,-9.1500,22.6500,-36.4500,
1.220510,-4.5201,1.7236,0.0628,-0.1402,0.0647,-0.4928,-9.1500,22.6500,-36.4500,
1.223632,-5.3143,2.5384,0.1703,-0.1402,0.0647,-0.4928,-9.1500,22.6500,-36.4500,
1.230266,-5.3143,2.5384,0.1703,-0.3625,-0.1487,-0.5884,-9.1500,22.6500,-36.4500,
1.243051,-5.3143,2.5384,0.1703,-0.3625,-0.1487,-0.5884,-9.1500,22.6500,-36.4500,
1.245073,-5.7458,3.5912,0.9326,-0.3625,-0.1487,-0.5884,-9.1500,22.6500,-36.4500,
1.256923,-5.7458,3.5912,0.9326,-0.3625,-0.1487,-0.5884,-9.7500,23.0250,-36.3750,
1.265453,-5.7458,3.5912,0.9326,-0.3625,-0.1487,-0.5884,-9.7500,23.0250,-36.3750,
1.266406,-5.3293,4.8321,1.2041,-0.3625,-0.1487,-0.5884,-9.7500,23.0250,-36.3750,
1.285535,-5.3293,4.8321,1.2041,-0.3625,-0.1487,-0.5884,-9.7500,23.0250,-36.3750,
1.287244,-4.2309,5.2183,0.8918,-0.3625,-0.1487,-0.5884,-9.7500,23.0250,-36.3750,
1.299608,-4.2309,5.2183,0.8918,-0.6076,-0.3667,-0.4508,-9.7500,23.0250,-36.3750,
1.305503,-4.2309,5.2183,0.8918,-0.6076,-0.3667,-0.4508,-9.7500,23.0250,-36.3750,
1.306979,-3.3061,4.8308,1.6444,-0.6076,-0.3667,-0.4508,-9.7500,23.0250,-36.3750,
1.324046,-3.3061,4.8308,1.6444,-0.6076,-0.3667,-0.4508,-9.7500,23.0250,-36.3750,
1.325692,-2.8202,4.1204,2.7164,-0.6076,-0.3667,-0.4508,-9.7500,23.0250,-36.3750,
1.327391,-2.8202,4.1204,2.7164,-0.6076,-0.3667,-0.4508,-10.6500,24.1500,-35.1000,
1.347272,-2.8202,4.1204,2.7164,-0.6076,-0.3667,-0.4508,-10.6500,24.1500,-35.1000,
1.349103,-2.5739,3.3831,3.0602,-0.6076,-0.3667,-0.4508,-10.6500,24.1500,-35.1000,
1.362756,-2.5739,3.3831,3.0602,-0.6076,-0.3667,-0.4508,-10.6500,24.1500,-35.1000,
1.365846,-2.3163,2.9960,2.9634,-0.6076,-0.3667,-0.4508,-10.6500,24.1500,-35.1000,
1.368615,-2.3163,2.9960,2.9634,-0.5472,0.0362,-1.0673,-10.6500,24.1500,-35.1000,
1.381702,-2.3163,2.9960,2.9634,-0.5472,0.0362,-1.0673,-10.6500,24.1500,-35.1000,
1.384971,-2.8243,3.2551,2.7030,-0.5472,0.0362,-1.0673,-10.6500,24.1500,-35.1000,
1.395257,-2.8243,3.2551,2.7030,-0.5472,0.0362,-1.0673,-12.0000,25.0500,-35.1000,
1.402005,-2.8243,3.2551,2.7030,-0.5472,0.0362,-1.0673,-12.0000,25.0500,-35.1000,
1.405612,-4.0299,3.7793,3.3162,-0.5472,0.0362,-1.0673,-12.0000,25.0500,-35.1000,
1.423454,-4.0299,3.7793,3.3162,-0.5472,0.0362,-1.0673,-12.0000,25.0500,-35.1000,
1.426788,-4.5833,3.2076,4.0149,-0.5472,0.0362,-1.0673,-12.0000,25.0500,-35.1000,
1.435543,-4.5833,3.2076,4.0149,-0.5640,0.9972,-1.7440,-12.0000,25.0500,-35.1000,
1.444903,-4.5833,3.2076,4.0149,-0.5640,0.9972,-1.7440,-12.0000,25.0500,-35.1000,
1.446873,-2.9135,2.0910,2.0976,-0.5640,0.9972,-1.7440,-12.0000,25.0500,-35.1000,
1.459502,-2.9135,2.0910,2.0976,-0.5640,0.9972,-1.7440,-12.0000,25.0500,-35.1000,
1.461572,0.9003,1.5049,-3.8792,-0.5640,0.9972,-1.7440,-12.0000,25.0500,-35.1000,
1.464650,0.9003,1.5049,-3.8792,-0.5640,0.9972,-1.7440,-11.8500,25.3500,-34.0500,
1.479667,0.9003,1.5049,-3.8792,-0.5640,0.9972,-1.7440,-11.8500,25.3500,-34.0500,
1.482123,3.5945,0.3129,-9.1688,-0.5640,0.9972,-1.7440,-11.8500,25.3500,-34.0500,
1.504703,3.5945,0.3129,-9.1688,-0.5640,0.9972,-1.7440,-11.8500,25.3500,-34.0500,
1.507162,5.1844,-3.1119,-7.1047,-0.5640,0.9972,-1.7440,-11.8500,25.3500,-34.0500,
1.509155,5.1844,-3.1119,-7.1047,-1.6391,1.0073,-2.2328,-11.8500,25.3500,-34.0500,
1.524472,5.1844,-3.1119,-7.1047,-1.6391,1.0073,-2.2328,-11.8500,25.3500,-34.0500,
1.526967,4.1172,-5.4152,-6.5211,-1.6391,1.0073,-2.2328,-11.8500,25.3500,-34.0500,
1.535629,4.1172,-5.4152,-6.5211,-1.6391,1.0073,-2.2328,-12.7500,26.7000,-32.1000,
1.543913,4.1172,-5.4152,-6.5211,-1.6391,1.0073,-2.2328,-12.7500,26.7000,-32.1000,
1.545930,0.8181,-5.1375,-7.9167,-1.6391,1.0073,-2.2328,-12.7500,26.7000,-32.1000,
1.562395,0.8181,-5.1375,-7.9167,-1.6391,1.0073,-2.2328,-12.7500,26.7000,-32.1000,
1.564738,-9.1974,-4.2962,-10.4132,-1.6391,1.0073,-2.2328,-12.7500,26.7000,-32.1000,
1.576739,-9.1974,-4.2962,-10.4132,-1.2470,-1.9049,-0.7523,-12.7500,26.7000,-32.1000,
1.581670,-9.1974,-4.2962,-10.4132,-1.2470,-1.9049,-0.7523,-12.7500,26.7000,-32.1000,
1.583079,-9.1804,-2.0458,-5.8371,-1.2470,-1.9049,-0.7523,-12.7500,26.7000,-32.1000,
1.601063,-9.1804,-2.0458,-5.8371,-1.2470,-1.9049,-0.7523,-12.7500,26.7000,-32.1000,
1.603538,3.5666,-0.8580,-1.2052,-1.2470,-1.9049,-0.7523,-12.7500,26.7000,-32.1000,
1.605418,3.5666,-0.8580,-1.2052,-1.2470,-1.9049,-0.7523,-16.9500,28.2000,-29.1000,
1.621995,3.5666,-0.8580,-1.2052,-1.2470,-1.9049,-0.7523,-16.9500,28.2000,-29.1000,
1.624139,10.3823,0.7345,0.3885,-1.2470,-1.9049,-0.7523,-16.9500,28.2000,-29.1000,
1.645630,10.3823,0.7345,0.3885,-1.2470,-1.9049,-0.7523,-16.9500,28.2000,-29.1000,
1.648081,9.9853,3.9273,2.2769,-1.2470,-1.9049,-0.7523,-16.9500,28.2000,-29.1000,
1.650128,9.9853,3.9273,2.2769,0.1342,-1.3483,-1.0061,-16.9500,28.2000,-29.1000,
1.660941,9.9853,3.9273,2.2769,0.1342,-1.3483,-1.0061,-16.9500,28.2000,-29.1000,
1.661939,8.1668,7.1345,0.0274,0.1342,-1.3483,-1.0061,-16.9500,28.2000,-29.1000,
1.676753,8.1668,7.1345,0.0274,0.1342,-1.3483,-1.0061,-21.1500,27.8250,-26.2500,
1.678245,8.1668,7.1345,0.0274,0.1342,-1.3483,-1.0061,-21.1500,27.8250,-26.2500,
1.679200,5.7852,5.3031,1.6685,0.1342,-1.3483,-1.0061,-21.1500,27.8250,-26.2500,
1.700666,5.7852,5.3031,1.6685,0.1342,-1.3483,-1.0061,-21.1500,27.8250,-26.2500,
1.702151,3.3356,1.7519,1.1451,0.1342,-1.3483,-1.0061,-21.1500,27.8250,-26.2500,
1.714057,3.3356,1.7519,1.1451,-0.0350,2.5912,-1.5474,-21.1500,27.8250,-26.2500,
1.719163,3.3356,1.7519,1.1451,-0.0350,2.5912,-1.5474,-21.1500,27.8250,-26.2500,
1.720711,3.4690,0.0832,0.3990,-0.0350,2.5912,-1.5474,-21.1500,27.8250,-26.2500,
1.739517,3.4690,0.0832,0.3990,-0.0350,2.5912,-1.5474,-21.1500,27.8250,-26.2500,
1.741715,6.2013,-2.6535,-1.8659,-0.0350,2.5912,-1.5474,-21.1500,27.8250,-26.2500,
1.745235,6.2013,-2.6535,-1.8659,-0.0350,2.5912,-1.5474,-20.9250,25.4250,-28.3500,
1.760614,6.2013,-2.6535,-1.8659,-0.0350,2.5912,-1.5474,-20.9250,25.4250,-28.3500,
1.763132,5.2098,-4.8148,-2.9208,-0.0350,2.5912,-1.5474,-20.9250,25.4250,-28.3500,
1.777981,5.2098,-4.8148,-2.9208,-0.0350,2.5912,-1.5474,-20.9250,25.4250,-28.3500,
1.780424,-1.1063,-4.9063,-0.7347,-0.0350,2.5912,-1.5474,-20.9250,25.4250,-28.3500,
1.782344,-1.1063,-4.9063,-0.7347,0.8885,3.3539,0.6669,-20.9250,25.4250,-28.3500,
1.792839,-1.1063,-4.9063,-0.7347,0.8885,3.3539,0.6669,-20.9250,25.4250,-28.3500,
1.795117,1.9637,-3.0474,1.3447,0.8885,3.3539,0.6669,-20.9250,25.4250,-28.3500,
1.816261,1.9637,-3.0474,1.3447,0.8885,3.3539,0.6669,-13.6500,23.2500,-34.2750,
1.817972,1.9637,-3.0474,1.3447,0.8885,3.3539,0.6669,-13.6500,23.2500,-34.2750,
1.819125,9.1758,2.0502,-1.7127,0.8885,3.3539,0.6669,-13.6500,23.2500,-34.2750,
1.842303,9.1758,2.0502,-1.7127,0.8885,3.3539,0.6669,-13.6500,23.2500,-34.2750,
1.844012,24.6921,7.8796,-5.4399,0.8885,3.3539,0.6669,-13.6500,23.2500,-34.2750,
1.857611,24.6921,7.8796,-5.4399,1.4621,2.0425,1.9775,-13.6500,23.2500,-34.2750,
1.861643,24.6921,7.8796,-5.4399,1.4621,2.0425,1.9775,-13.6500,23.2500,-34.2750,
1.863110,17.8252,8.2927,-7.8681,1.4621,2.0425,1.9775,-13.6500,23.2500,-34.2750,
1.881218,17.8252,8.2927,-7.8681,1.4621,2.0425,1.9775,-13.6500,23.2500,-34.2750,
1.883908,10.1985,4.4159,0.1423,1.4621,2.0425,1.9775,-13.6500,23.2500,-34.2750,
1.885553,10.1985,4.4159,0.1423,1.4621,2.0425,1.9775,-5.5500,20.9250,-37.3500,
1.899999,10.1985,4.4159,0.1423,1.4621,2.0425,1.9775,-5.5500,20.9250,-37.3500,
1.901674,3.0945,-2.3223,0.9147,1.4621,2.0425,1.9775,-5.5500,20.9250,-37.3500,
1.918944,3.0945,-2.3223,0.9147,1.4621,2.0425,1.9775,-5.5500,20.9250,-37.3500,
1.921430,-0.6069,-6.3799,3.8559,1.4621,2.0425,1.9775,-5.5500,20.9250,-37.3500,
1.929715,-0.6069,-6.3799,3.8559,-0.0912,2.0752,-1.6778,-5.5500,20.9250,-37.3500,
1.942956,-0.6069,-6.3799,3.8559,-0.0912,2.0752,-1.6778,-5.5500,20.9250,-37.3500,
1.944933,-3.5850,-3.6493,0.8582,-0.0912,2.0752,-1.6778,-5.5500,20.9250,-37.3500,
1.948733,-3.5850,-3.6493,0.8582,-0.0912,2.0752,-1.6778,-1.6500,21.1500,-37.5750,
1.958109,-3.5850,-3.6493,0.8582,-0.0912,2.0752,-1.6778,-1.6500,21.1500,-37.5750,
1.960083,-5.0151,0.9682,-0.8556,-0.0912,2.0752,-1.6778,-1.6500,21.1500,-37.5750,
1.977754,-5.0151,0.9682,-0.8556,-0.0912,2.0752,-1.6778,-1.6500,21.1500,-37.5750,
1.979927,-6.5667,3.9102,0.6127,-0.0912,2.0752,-1.6778,-1.6500,21.1500,-37.5750,
1.993499,-6.5667,3.9102,0.6127,0.5360,1.0742,-0.7767,-1.6500,21.1500,-37.5750,
1.996272,-6.5667,3.9102,0.6127,0.5360,1.0742,-0.7767,-1.6500,21.1500,-37.5750,
1.997867,-6.5407,5.5250,1.6287,0.5360,1.0742,-0.7767,-1.6500,21.1500,-37.5750,
2.018970,-6.5407,5.5250,1.6287,0.5360,1.0742,-0.7767,-1.6500,21.1500,-37.5750,
2.020291,-3.8794,6.1506,0.6859,0.5360,1.0742,-0.7767,-1.6500,21.1500,-37.5750,
2.021354,-3.8794,6.1506,0.6859,0.5360,1.0742,-0.7767,0.0750,20.8500,-38.5500,
2.041161,-3.8794,6.1506,0.6859,0.5360,1.0742,-0.7767,0.0750,20.8500,-38.5500,
2.042705,-0.8519,5.2072,0.4205,0.5360,1.0742,-0.7767,0.0750,20.8500,-38.5500,
2.058338,-0.8519,5.2072,0.4205,0.5360,1.0742,-0.7767,0.0750,20.8500,-38.5500,
2.061872,1.1565,3.3529,0.3682,0.5360,1.0742,-0.7767,0.0750,20.8500,-38.5500,
2.064938,1.1565,3.3529,0.3682,0.5458,1.1143,0.0759,0.0750,20.8500,-38.5500,
2.077958,1.1565,3.3529,0.3682,0.5458,1.1143,0.0759,0.0750,20.8500,-38.5500,
2.080122,3.0623,2.2844,1.0939,0.5458,1.1143,0.0759,0.0750,20.8500,-38.5500,
2.085741,3.0623,2.2844,1.0939,0.5458,1.1143,0.0759,2.4750,19.4250,-38.5500,
2.100199,3.0623,2.2844,1.0939,0.5458,1.1143,0.0759,2.4750,19.4250,-38.5500,
2.102284,3.8547,1.0426,1.0016,0.5458,1.1143,0.0759,2.4750,19.4250,-38.5500,
2.119936,3.8547,1.0426,1.0016,0.5458,1.1143,0.0759,2.4750,19.4250,-38.5500,
2.122312,2.9994,0.4052,-0.6473,0.5458,1.1143,0.0759,2.4750,19.4250,-38.5500,
2.134001,2.9994,0.4052,-0.6473,0.3709,1.2017,-0.2839,2.4750,19.4250,-38.5500,
2.141880,2.9994,0.4052,-0.6473,0.3709,1.2017,-0.2839,2.4750,19.4250,-38.5500,
2.143366,1.5947,0.7794,-0.5299,0.3709,1.2017,-0.2839,2.4750,19.4250,-38.5500,
2.158514,1.5947,0.7794,-0.5299,0.3709,1.2017,-0.2839,2.4750,19.4250,-38.5500,
2.160074,0.3342,1.1009,1.1964,0.3709,1.2017,-0.2839,2.4750,19.4250,-38.5500,
2.161250,0.3342,1.1009,1.1964,0.3709,1.2017,-0.2839,5.7000,18.0000,-39.4500,
2.175989,0.3342,1.1009,1.1964,0.3709,1.2017,-0.2839,5.7000,18.0000,-39.4500,
2.177519,-0.3200,1.0946,1.5189,0.3709,1.2017,-0.2839,5.7000,18.0000,-39.4500,
2.193869,-0.3200,1.0946,1.5189,0.3709,1.2017,-0.2839,5.7000,18.0000,-39.4500,
2.194950,-0.1151,1.2995,-0.1649,0.3709,1.2017,-0.2839,5.7000,18.0000,-39.4500,
2.203686,-0.1151,1.2995,-0.1649,-0.1484,0.7565,-0.0718,5.7000,18.0000,-39.4500,
2.218937,-0.1151,1.2995,-0.1649,-0.1484,0.7565,-0.0718,5.7000,18.0000,-39.4500,
2.220582,0.2687,1.6408,-0.9714,-0.1484,0.7565,-0.0718,5.7000,18.0000,-39.4500,
2.228589,0.2687,1.6408,-0.9714,-0.1484,0.7565,-0.0718,8.2500,17.8500,-38.4750,
2.240726,0.2687,1.6408,-0.9714,-0.1484,0.7565,-0.0718,8.2500,17.8500,-38.4750,
2.242373,0.1325,1.7666,-0.2926,-0.1484,0.7565,-0.0718,8.2500,17.8500,-38.4750,
2.257656,0.1325,1.7666,-0.2926,-0.1484,0.7565,-0.0718,8.2500,17.8500,-38.4750,
2.259196,-0.1414,1.4443,0.4681,-0.1484,0.7565,-0.0718,8.2500,17.8500,-38.4750,
2.274537,-0.1414,1.4443,0.4681,-0.3415,0.3265,0.3042,8.2500,17.8500,-38.4750,
2.277248,-0.1414,1.4443,0.4681,-0.3415,0.3265,0.3042,8.2500,17.8500,-38.4750,
2.278832,0.0564,1.0612,0.3778,-0.3415,0.3265,0.3042,8.2500,17.8500,-38.4750,
2.293983,0.0564,1.0612,0.3778,-0.3415,0.3265,0.3042,8.2500,17.8500,-38.4750,
2.297350,0.4617,0.7785,0.1385,-0.3415,0.3265,0.3042,8.2500,17.8500,-38.4750,
2.299551,0.4617,0.7785,0.1385,-0.3415,0.3265,0.3042,9.4500,19.4250,-37.6500,
2.315884,0.4617,0.7785,0.1385,-0.3415,0.3265,0.3042,9.4500,19.4250,-37.6500,
2.318164,0.5460,0.5090,-0.1937,-0.3415,0.3265,0.3042,9.4500,19.4250,-37.6500,
2.334550,0.5460,0.5090,-0.1937,-0.3415,0.3265,0.3042,9.4500,19.4250,-37.6500,
2.336894,0.5262,0.2643,0.0027,-0.3415,0.3265,0.3042,9.4500,19.4250,-37.6500,
2.344617,0.5262,0.2643,0.0027,-0.4734,0.2014,0.2822,9.4500,19.4250,-37.6500,
2.359072,0.5262,0.2643,0.0027,-0.4734,0.2014,0.2822,9.4500,19.4250,-37.6500,
2.360849,0.2074,-0.0738,0.4227,-0.4734,0.2014,0.2822,9.4500,19.4250,-37.6500,
2.365131,0.2074,-0.0738,0.4227,-0.4734,0.2014,0.2822,10.8750,19.8000,-36.1500,
2.375043,0.2074,-0.0738,0.4227,-0.4734,0.2014,0.2822,10.8750,19.8000,-36.1500,
2.377034,-0.5256,-0.4611,0.3531,-0.4734,0.2014,0.2822,10.8750,19.8000,-36.1500,
2.399216,-0.5256,-0.4611,0.3531,-0.4734,0.2014,0.2822,10.8750,19.8000,-36.1500,
2.402214,-0.6210,-0.5560,0.4246,-0.4734,0.2014,0.2822,10.8750,19.8000,-36.1500,
2.412947,-0.6210,-0.5560,0.4246,-0.2753,0.1258,0.2631,10.8750,19.8000,-36.1500,
2.418138,-0.6210,-0.5560,0.4246,-0.2753,0.1258,0.2631,10.8750,19.8000,-36.1500,
2.419811,-0.0360,-0.4627,0.4547,-0.2753,0.1258,0.2631,10.8750,19.8000,-36.1500,
2.440057,-0.0360,-0.4627,0.4547,-0.2753,0.1258,0.2631,10.8750,19.8000,-36.1500,
2.441525,0.4570,-0.3587,0.3970,-0.2753,0.1258,0.2631,10.8750,19.8000,-36.1500,
2.442797,0.4570,-0.3587,0.3970,-0.2753,0.1258,0.2631,11.4750,20.3250,-36.1500,
2.458820,0.4570,-0.3587,0.3970,-0.2753,0.1258,0.2631,11.4750,20.3250,-36.1500,
2.460333,0.7028,-0.2062,0.5261,-0.2753,0.1258,0.2631,11.4750,20.3250,-36.1500,
2.478735,0.7028,-0.2062,0.5261,-0.2753,0.1258,0.2631,11.4750,20.3250,-36.1500,
2.480067,0.6177,-0.0182,0.0258,-0.2753,0.1258,0.2631,11.4750,20.3250,-36.1500,
2.483513,0.6177,-0.0182,0.0258,-0.1700,0.0405,0.2043,11.4750,20.3250,-36.1500,
2.494479,0.6177,-0.0182,0.0258,-0.1700,0.0405,0.2043,11.4750,20.3250,-36.1500,
2.497183,0.4443,0.3583,-0.3875,-0.1700,0.0405,0.2043,11.4750,20.3250,-36.1500,
2.509439,0.4443,0.3583,-0.3875,-0.1700,0.0405,0.2043,11.8500,20.5500,-35.7750,
2.516348,0.4443,0.3583,-0.3875,-0.1700,0.0405,0.2043,11.8500,20.5500,-35.7750,
2.518655,0.2855,0.5577,-0.3012,-0.1700,0.0405,0.2043,11.8500,20.5500,-35.7750,
2.535062,0.2855,0.5577,-0.3012,-0.1700,0.0405,0.2043,11.8500,20.5500,-35.7750,
2.538023,0.1027,0.4560,0.0084,-0.1700,0.0405,0.2043,11.8500,20.5500,-35.7750,
2.549913,0.1027,0.4560,0.0084,-0.1869,0.1249,0.1096,11.8500,20.5500,-35.7750,
2.558437,0.1027,0.4560,0.0084,-0.1869,0.1249,0.1096,11.8500,20.5500,-35.7750,
2.560001,-0.0915,0.3473,-0.0319,-0.1869,0.1249,0.1096,11.8500,20.5500,-35.7750,
2.574979,-0.0915,0.3473,-0.0319,-0.1869,0.1249,0.1096,11.8500,20.5500,-35.7750,
2.577555,-0.1853,0.5104,-0.2428,-0.1869,0.1249,0.1096,11.8500,20.5500,-35.7750,
2.579430,-0.1853,0.5104,-0.2428,-0.1869,0.1249,0.1096,12.0750,21.2250,-35.5500,
2.592967,-0.1853,0.5104,-0.2428,-0.1869,0.1249,0.1096,12.0750,21.2250,-35.5500,
2.595014,-0.5823,0.7923,-0.5215,-0.1869,0.1249,0.1096,12.0750,21.2250,-35.5500,
2.613926,-0.5823,0.7923,-0.5215,-0.1869,0.1249,0.1096,12.0750,21.2250,-35.5500,
2.616509,-0.7655,0.8818,-0.5801,-0.1869,0.1249,0.1096,12.0750,21.2250,-35.5500,
2.618343,-0.7655,0.8818,-0.5801,-0.2399,0.1419,0.2266,12.0750,21.2250,-35.5500,
2.633257,-0.7655,0.8818,-0.5801,-0.2399,0.1419,0.2266,12.0750,21.2250,-35.5500,
2.635123,-0.7849,0.6204,-0.4449,-0.2399,0.1419,0.2266,12.0750,21.2250,-35.5500,
2.644959,-0.7849,0.6204,-0.4449,-0.2399,0.1419,0.2266,12.9750,21.0000,-34.8000,
2.652972,-0.7849,0.6204,-0.4449,-0.2399,0.1419,0.2266,12.9750,21.0000,-34.8000,
2.654820,-0.9801,0.1041,-0.3537,-0.2399,0.1419,0.2266,12.9750,21.0000,-34.8000,
2.672593,-0.9801,0.1041,-0.3537,-0.2399,0.1419,0.2266,12.9750,21.0000,-34.8000,
2.675035,-0.8612,-0.2843,-0.4938,-0.2399,0.1419,0.2266,12.9750,21.0000,-34.8000,
2.693534,-0.8612,-0.2843,-0.4938,-0.4239,-0.0837,0.2547,12.9750,21.0000,-34.8000,
2.697608,-0.8612,-0.2843,-0.4938,-0.4239,-0.0837,0.2547,12.9750,21.0000,-34.8000,
2.700084,-0.2648,-0.5596,-0.3921,-0.4239,-0.0837,0.2547,12.9750,21.0000,-34.8000,
2.711886,-0.2648,-0.5596,-0.3921,-0.4239,-0.0837,0.2547,12.9750,21.0000,-34.8000,
2.714484,0.2316,-0.9432,-0.2192,-0.4239,-0.0837,0.2547,12.9750,21.0000,-34.8000,
2.716763,0.2316,-0.9432,-0.2192,-0.4239,-0.0837,0.2547,13.3500,21.7500,-33.9750,
2.736419,0.2316,-0.9432,-0.2192,-0.4239,-0.0837,0.2547,13.3500,21.7500,-33.9750,
2.738945,0.3191,-1.1774,-0.2074,-0.4239,-0.0837,0.2547,13.3500,21.7500,-33.9750,
2.755418,0.3191,-1.1774,-0.2074,-0.4239,-0.0837,0.2547,13.3500,21.7500,-33.9750,
2.757594,0.1891,-1.1143,-0.2838,-0.4239,-0.0837,0.2547,13.3500,21.7500,-33.9750,
2.760471,0.1891,-1.1143,-0.2838,-0.4001,-0.1037,0.0921,13.3500,21.7500,-33.9750,
2.776589,0.1891,-1.1143,-0.2838,-0.4001,-0.1037,0.0921,13.3500,21.7500,-33.9750,
2.779248,0.1496,-0.8491,-0.3983,-0.4001,-0.1037,0.0921,13.3500,21.7500,-33.9750,
2.785152,0.1496,-0.8491,-0.3983,-0.4001,-0.1037,0.0921,13.5750,22.5000,-33.4500,
2.793794,0.1496,-0.8491,-0.3983,-0.4001,-0.1037,0.0921,13.5750,22.5000,-33.4500,
2.796338,-0.0079,-0.6818,-0.2691,-0.4001,-0.1037,0.0921,13.5750,22.5000,-33.4500,
2.815676,-0.0079,-0.6818,-0.2691,-0.4001,-0.1037,0.0921,13.5750,22.5000,-33.4500,
2.817086,-0.2055,-0.7527,-0.0971,-0.4001,-0.1037,0.0921,13.5750,22.5000,-33.4500,
2.829603,-0.2055,-0.7527,-0.0971,-0.1329,-0.0693,0.0489,13.5750,22.5000,-33.4500,
2.834306,-0.2055,-0.7527,-0.0971,-0.1329,-0.0693,0.0489,13.5750,22.5000,-33.4500,
2.835845,-0.1977,-0.9814,-0.0298,-0.1329,-0.0693,0.0489,13.5750,22.5000,-33.4500,
2.855596,-0.1977,-0.9814,-0.0298,-0.1329,-0.0693,0.0489,13.5750,22.5000,-33.4500,
2.858854,-0.0865,-1.0976,-0.2058,-0.1329,-0.0693,0.0489,13.5750,22.5000,-33.4500,
2.861134,-0.0865,-1.0976,-0.2058,-0.1329,-0.0693,0.0489,13.6500,22.9500,-33.4500,
2.874626,-0.0865,-1.0976,-0.2058,-0.1329,-0.0693,0.0489,13.6500,22.9500,-33.4500,
2.877935,-0.1002,-0.9307,-0.4273,-0.1329,-0.0693,0.0489,13.6500,22.9500,-33.4500,
2.892437,-0.1002,-0.9307,-0.4273,-0.1329,-0.0693,0.0489,13.6500,22.9500,-33.4500,
2.895006,0.0781,-0.6937,-0.4915,-0.1329,-0.0693,0.0489,13.6500,22.9500,-33.4500,
2.897856,0.0781,-0.6937,-0.4915,0.0315,-0.1156,0.0018,13.6500,22.9500,-33.4500,
2.912500,0.0781,-0.6937,-0.4915,0.0315,-0.1156,0.0018,13.6500,22.9500,-33.4500,
2.914551,0.2068,-0.3239,-0.3152,0.0315,-0.1156,0.0018,13.6500,22.9500,-33.4500,
2.925195,0.2068,-0.3239,-0.3152,0.0315,-0.1156,0.0018,13.0500,22.7250,-32.8500,
2.931885,0.2068,-0.3239,-0.3152,0.0315,-0.1156,0.0018,13.0500,22.7250,-32.8500,
2.933370,0.2056,0.0328,-0.2434,0.0315,-0.1156,0.0018,13.0500,22.7250,-32.8500,
2.951610,0.2056,0.0328,-0.2434,0.0315,-0.1156,0.0018,13.0500,22.7250,-32.8500,
2.953890,0.1807,0.3163,-0.6468,0.0315,-0.1156,0.0018,13.0500,22.7250,-32.8500,
2.965426,0.1807,0.3163,-0.6468,0.0895,-0.1495,-0.1272,13.0500,22.7250,-32.8500,
2.977285,0.1807,0.3163,-0.6468,0.0895,-0.1495,-0.1272,13.0500,22.7250,-32.8500,
2.979602,0.1110,0.5162,-0.7341,0.0895,-0.1495,-0.1272,13.0500,22.7250,-32.8500,
2.990274,0.1110,0.5162,-0.7341,0.0895,-0.1495,-0.1272,13.0500,22.7250,-32.8500,
2.992997,0.1043,0.6784,-0.4134,0.0895,-0.1495,-0.1272,13.0500,22.7250,-32.8500,
2.995808,0.1043,0.6784,-0.4134,0.0895,-0.1495,-0.1272,12.4500,23.0250,-33.7500,
3.014672,0.1043,0.6784,-0.4134,0.0895,-0.1495,-0.1272,12.4500,23.0250,-33.7500,
3.017784,0.1750,0.5586,-0.1160,0.0895,-0.1495,-0.1272,12.4500,23.0250,-33.7500,
3.034815,0.1750,0.5586,-0.1160,0.0895,-0.1495,-0.1272,12.4500,23.0250,-33.7500,
3.037105,0.4332,0.1863,0.0159,0.0895,-0.1495,-0.1272,12.4500,23.0250,-33.7500,
3.041122,0.4332,0.1863,0.0159,-0.0116,-0.1359,-0.1258,12.4500,23.0250,-33.7500,
3.057994,0.4332,0.1863,0.0159,-0.0116,-0.1359,-0.1258,12.4500,23.0250,-33.7500,
3.060665,0.4341,-0.1809,0.0123,-0.0116,-0.1359,-0.1258,12.4500,23.0250,-33.7500,
3.065315,0.4341,-0.1809,0.0123,-0.0116,-0.1359,-0.1258,12.3750,22.8000,-33.6000,
3.076117,0.4341,-0.1809,0.0123,-0.0116,-0.1359,-0.1258,12.3750,22.8000,-33.6000,
3.078213,0.4209,-0.2995,-0.1544,-0.0116,-0.1359,-0.1258,12.3750,22.8000,-33.6000,
3.093196,0.4209,-0.2995,-0.1544,-0.0116,-0.1359,-0.1258,12.3750,22.8000,-33.6000,
3.095671,0.3109,-0.0025,-0.4551,-0.0116,-0.1359,-0.1258,12.3750,22.8000,-33.6000,
3.107523,0.3109,-0.0025,-0.4551,-0.0105,-0.1489,-0.1012,12.3750,22.8000,-33.6000,
3.112873,0.3109,-0.0025,-0.4551,-0.0105,-0.1489,-0.1012,12.3750,22.8000,-33.6000,
3.114661,0.2490,0.4276,-0.5324,-0.0105,-0.1489,-0.1012,12.3750,22.8000,-33.6000,
3.132639,0.2490,0.4276,-0.5324,-0.0105,-0.1489,-0.1012,12.3750,22.8000,-33.6000,
3.134871,0.2745,0.6534,-0.1660,-0.0105,-0.1489,-0.1012,12.3750,22.8000,-33.6000,
3.136815,0.2745,0.6534,-0.1660,-0.0105,-0.1489,-0.1012,11.4000,22.9500,-33.7500,
3.151917,0.2745,0.6534,-0.1660,-0.0105,-0.1489,-0.1012,11.4000,22.9500,-33.7500,
3.154055,0.3669,0.4929,0.4197,-0.0105,-0.1489,-0.1012,11.4000,22.9500,-33.7500,
3.172324,0.3669,0.4929,0.4197,-0.0105,-0.1489,-0.1012,11.4000,22.9500,-33.7500,
3.174752,0.4152,0.2719,0.2236,-0.0105,-0.1489,-0.1012,11.4000,22.9500,-33.7500,
3.177199,0.4152,0.2719,0.2236,-0.0302,-0.1362,-0.0748,11.4000,22.9500,-33.7500,
3.191178,0.4152,0.2719,0.2236,-0.0302,-0.1362,-0.0748,11.4000,22.9500,-33.7500,
3.194753,0.5922,0.2009,-0.2724,-0.0302,-0.1362,-0.0748,11.4000,22.9500,-33.7500,
3.210524,0.5922,0.2009,-0.2724,-0.0302,-0.1362,-0.0748,10.0500,23.8500,-33.9750,
3.213084,0.5922,0.2009,-0.2724,-0.0302,-0.1362,-0.0748,10.0500,23.8500,-33.9750,
3.214713,0.7569,0.2259,-0.4829,-0.0302,-0.1362,-0.0748,10.0500,23.8500,-33.9750,
3.229779,0.7569,0.2259,-0.4829,-0.0302,-0.1362,-0.0748,10.0500,23.8500,-33.9750,
3.232135,0.7404,0.3793,-0.3700,-0.0302,-0.1362,-0.0748,10.0500,23.8500,-33.9750,
3.244296,0.7404,0.3793,-0.3700,-0.1240,-0.0136,-0.0101,10.0500,23.8500,-33.9750,
3.249774,0.7404,0.3793,-0.3700,-0.1240,-0.0136,-0.0101,10.0500,23.8500,-33.9750,
3.251239,0.6065,0.4313,-0.3639,-0.1240,-0.0136,-0.0101,10.0500,23.8500,-33.9750,
3.269447,0.6065,0.4313,-0.3639,-0.1240,-0.0136,-0.0101,10.0500,23.8500,-33.9750,
3.272245,0.5219,0.5558,-0.3823,-0.1240,-0.0136,-0.0101,10.0500,23.8500,-33.9750,
3.277370,0.5219,0.5558,-0.3823,-0.1240,-0.0136,-0.0101,10.8000,23.2500,-33.7500,
3.289709,0.5219,0.5558,-0.3823,-0.1240,-0.0136,-0.0101,10.8000,23.2500,-33.7500,
3.291993,0.5627,0.7518,-0.3837,-0.1240,-0.0136,-0.0101,10.8000,23.2500,-33.7500,
3.313515,0.5627,0.7518,-0.3837,-0.1240,-0.0136,-0.0101,10.8000,23.2500,-33.7500,
3.316323,0.6443,0.6938,-0.4477,-0.1240,-0.0136,-0.0101,10.8000,23.2500,-33.7500,
3.318429,0.6443,0.6938,-0.4477,-0.1970,0.1155,0.0157,10.8000,23.2500,-33.7500,
3.333124,0.6443,0.6938,-0.4477,-0.1970,0.1155,0.0157,10.8000,23.2500,-33.7500,
3.335137,0.4766,0.5158,-0.4881,-0.1970,0.1155,0.0157,10.8000,23.2500,-33.7500,
3.345421,0.4766,0.5158,-0.4881,-0.1970,0.1155,0.0157,10.6500,23.4000,-33.6000,
3.352188,0.4766,0.5158,-0.4881,-0.1970,0.1155,0.0157,10.6500,23.4000,-33.6000,
3.353733,0.2241,0.3068,-0.3868,-0.1970,0.1155,0.0157,10.6500,23.4000,-33.6000,
3.374807,0.2241,0.3068,-0.3868,-0.1970,0.1155,0.0157,10.6500,23.4000,-33.6000,
3.377812,0.2120,0.0522,-0.0117,-0.1970,0.1155,0.0157,10.6500,23.4000,-33.6000,
3.386268,0.2120,0.0522,-0.0117,-0.3262,0.0148,0.0505,10.6500,23.4000,-33.6000,
3.396715,0.2120,0.0522,-0.0117,-0.3262,0.0148,0.0505,10.6500,23.4000,-33.6000,
3.398551,0.6017,-0.2445,0.2359,-0.3262,0.0148,0.0505,10.6500,23.4000,-33.6000,
3.411178,0.6017,-0.2445,0.2359,-0.3262,0.0148,0.0505,10.6500,23.4000,-33.6000,
3.413526,0.8840,-0.1799,0.1010,-0.3262,0.0148,0.0505,10.6500,23.4000,-33.6000,
3.415824,0.8840,-0.1799,0.1010,-0.3262,0.0148,0.0505,11.5500,24.7500,-33.4500,
3.430256,0.8840,-0.1799,0.1010,-0.3262,0.0148,0.0505,11.5500,24.7500,-33.4500,
3.432690,0.8547,0.3584,-0.0669,-0.3262,0.0148,0.0505,11.5500,24.7500,-33.4500,
3.450431,0.8547,0.3584,-0.0669,-0.3262,0.0148,0.0505,11.5500,24.7500,-33.4500,
3.453505,0.8338,0.9427,0.0733,-0.3262,0.0148,0.0505,11.5500,24.7500,-33.4500,
3.455514,0.8338,0.9427,0.0733,-0.3810,-0.0647,0.0677,11.5500,24.7500,-33.4500,
3.469861,0.8338,0.9427,0.0733,-0.3810,-0.0647,0.0677,11.5500,24.7500,-33.4500,
3.472212,0.9917,1.1230,0.3581,-0.3810,-0.0647,0.0677,11.5500,24.7500,-33.4500,
3.485494,0.9917,1.1230,0.3581,-0.3810,-0.0647,0.0677,10.5000,25.0500,-32.7750,
3.487392,0.9917,1.1230,0.3581,-0.3810,-0.0647,0.0677,10.5000,25.0500,-32.7750,
3.489507,1.2147,0.9406,0.4787,-0.3810,-0.0647,0.0677,10.5000,25.0500,-32.7750,
3.508752,1.2147,0.9406,0.4787,-0.3810,-0.0647,0.0677,10.5000,25.0500,-32.7750,
3.511419,1.6325,0.9011,0.4670,-0.3810,-0.0647,0.0677,10.5000,25.0500,-32.7750,
3.523358,1.6325,0.9011,0.4670,-0.4775,-0.0463,0.2112,10.5000,25.0500,-32.7750,
3.528621,1.6325,0.9011,0.4670,-0.4775,-0.0463,0.2112,10.5000,25.0500,-32.7750,
3.531036,1.6983,0.9192,0.4080,-0.4775,-0.0463,0.2112,10.5000,25.0500,-32.7750,
3.543541,1.6983,0.9192,0.4080,-0.4775,-0.0463,0.2112,10.5000,25.0500,-32.7750,
3.546307,1.3971,0.9829,0.4110,-0.4775,-0.0463,0.2112,10.5000,25.0500,-32.7750,
3.557779,1.3971,0.9829,0.4110,-0.4775,-0.0463,0.2112,10.8750,26.1000,-31.9500,
3.568287,1.3971,0.9829,0.4110,-0.4775,-0.0463,0.2112,10.8750,26.1000,-31.9500,
3.571168,1.3068,1.0323,-0.0398,-0.4775,-0.0463,0.2112,10.8750,26.1000,-31.9500,
3.588505,1.3068,1.0323,-0.0398,-0.4775,-0.0463,0.2112,10.8750,26.1000,-31.9500,
3.592358,1.4889,1.1221,0.0554,-0.4775,-0.0463,0.2112,10.8750,26.1000,-31.9500,
3.594946,1.4889,1.1221,0.0554,-0.6396,-0.0736,0.3109,10.8750,26.1000,-31.9500,
3.610074,1.4889,1.1221,0.0554,-0.6396,-0.0736,0.3109,10.8750,26.1000,-31.9500,
3.612226,1.7084,1.0381,0.6245,-0.6396,-0.0736,0.3109,10.8750,26.1000,-31.9500,
3.625566,1.7084,1.0381,0.6245,-0.6396,-0.0736,0.3109,10.8750,26.1000,-31.9500,
3.628257,1.6517,0.6842,0.8261,-0.6396,-0.0736,0.3109,10.8750,26.1000,-31.9500,
3.629943,1.6517,0.6842,0.8261,-0.6396,-0.0736,0.3109,11.7000,26.8500,-30.4500,
3.650537,1.6517,0.6842,0.8261,-0.6396,-0.0736,0.3109,11.7000,26.8500,-30.4500,
3.652871,1.0156,0.5127,0.0925,-0.6396,-0.0736,0.3109,11.7000,26.8500,-30.4500,
3.665326,1.0156,0.5127,0.0925,-0.8046,-0.0221,0.6730,11.7000,26.8500,-30.4500,
3.676577,1.0156,0.5127,0.0925,-0.8046,-0.0221,0.6730,11.7000,26.8500,-30.4500,
3.678755,0.7734,0.4242,-0.2872,-0.8046,-0.0221,0.6730,11.7000,26.8500,-30.4500,
3.692837,0.7734,0.4242,-0.2872,-0.8046,-0.0221,0.6730,11.7000,26.8500,-30.4500,
3.695165,0.4938,0.7302,-0.2115,-0.8046,-0.0221,0.6730,11.7000,26.8500,-30.4500,
3.697163,0.4938,0.7302,-0.2115,-0.8046,-0.0221,0.6730,12.1500,27.8250,-29.4750,
3.709255,0.4938,0.7302,-0.2115,-0.8046,-0.0221,0.6730,12.1500,27.8250,-29.4750,
3.711661,0.2433,1.0518,-0.2434,-0.8046,-0.0221,0.6730,12.1500,27.8250,-29.4750,
3.728852,0.2433,1.0518,-0.2434,-0.8046,-0.0221,0.6730,12.1500,27.8250,-29.4750,
3.731174,0.0264,1.4472,-0.6544,-0.8046,-0.0221,0.6730,12.1500,27.8250,-29.4750,
3.733701,0.0264,1.4472,-0.6544,-0.9363,0.3796,0.9696,12.1500,27.8250,-29.4750,
3.742972,0.0264,1.4472,-0.6544,-0.9363,0.3796,0.9696,12.1500,27.8250,-29.4750,
3.745028,-0.1755,1.5154,-0.6980,-0.9363,0.3796,0.9696,12.1500,27.8250,-29.4750,
3.758826,-0.1755,1.5154,-0.6980,-0.9363,0.3796,0.9696,13.8750,29.5500,-27.6750,
3.768082,-0.1755,1.5154,-0.6980,-0.9363,0.3796,0.9696,13.8750,29.5500,-27.6750,
3.770311,0.1373,1.1623,-0.8409,-0.9363,0.3796,0.9696,13.8750,29.5500,-27.6750,
3.787157,0.1373,1.1623,-0.8409,-0.9363,0.3796,0.9696,13.8750,29.5500,-27.6750,
3.789164,0.1963,0.7237,-0.4174,-0.9363,0.3796,0.9696,13.8750,29.5500,-27.6750,
3.802354,0.1963,0.7237,-0.4174,-1.1211,0.6026,1.0785,13.8750,29.5500,-27.6750,
3.810336,0.1963,0.7237,-0.4174,-1.1211,0.6026,1.0785,13.8750,29.5500,-27.6750,
3.811968,0.2195,-0.0605,0.1036,-1.1211,0.6026,1.0785,13.8750,29.5500,-27.6750,
3.826395,0.2195,-0.0605,0.1036,-1.1211,0.6026,1.0785,13.8750,29.5500,-27.6750,
3.828264,0.4871,-0.7804,-0.3300,-1.1211,0.6026,1.0785,13.8750,29.5500,-27.6750,
3.830214,0.4871,-0.7804,-0.3300,-1.1211,0.6026,1.0785,17.8500,30.1500,-25.0500,
3.842914,0.4871,-0.7804,-0.3300,-1.1211,0.6026,1.0785,17.8500,30.1500,-25.0500,
3.845020,-0.1412,-1.0229,-0.5231,-1.1211,0.6026,1.0785,17.8500,30.1500,-25.0500,
3.865389,-0.1412,-1.0229,-0.5231,-1.1211,0.6026,1.0785,17.8500,30.1500,-25.0500,
3.869099,-1.0429,-0.9637,-0.1522,-1.1211,0.6026,1.0785,17.8500,30.1500,-25.0500,
3.878724,-1.0429,-0.9637,-0.1522,-1.0047,0.6194,1.1543,17.8500,30.1500,-25.0500,
3.892249,-1.0429,-0.9637,-0.1522,-1.0047,0.6194,1.1543,17.8500,30.1500,-25.0500,
3.893762,-1.3442,-0.8205,-0.0038,-1.0047,0.6194,1.1543,17.8500,30.1500,-25.0500,
3.900136,-1.3442,-0.8205,-0.0038,-1.0047,0.6194,1.1543,21.0000,30.6000,-22.2000,
3.910136,-1.3442,-0.8205,-0.0038,-1.0047,0.6194,1.1543,21.0000,30.6000,-22.2000,
3.912225,-1.1529,-0.5272,0.3104,-1.0047,0.6194,1.1543,21.0000,30.6000,-22.2000,
3.929187,-1.1529,-0.5272,0.3104,-1.0047,0.6194,1.1543,21.0000,30.6000,-22.2000,
3.929780,-0.3065,-0.2890,0.4787,-1.0047,0.6194,1.1543,21.0000,30.6000,-22.2000,
3.944097,-0.3065,-0.2890,0.4787,-0.9364,0.5986,1.3636,21.0000,30.6000,-22.2000,
3.949094,-0.3065,-0.2890,0.4787,-0.9364,0.5986,1.3636,21.0000,30.6000,-22.2000,
3.949601,0.3220,0.0626,-0.3200,-0.9364,0.5986,1.3636,21.0000,30.6000,-22.2000,
3.970183,0.3220,0.0626,-0.3200,-0.9364,0.5986,1.3636,21.0000,30.6000,-22.2000,
3.971348,0.2574,0.6079,-0.5334,-0.9364,0.5986,1.3636,21.0000,30.6000,-22.2000,
3.972188,0.2574,0.6079,-0.5334,-0.9364,0.5986,1.3636,24.3000,30.0000,-18.3000,
3.989188,0.2574,0.6079,-0.5334,-0.9364,0.5986,1.3636,24.3000,30.0000,-18.3000,
3.991008,-0.2036,0.9352,-0.7313,-0.9364,0.5986,1.3636,24.3000,30.0000,-18.3000,
4.008854,-0.2036,0.9352,-0.7313,-0.9364,0.5986,1.3636,24.3000,30.0000,-18.3000,
4.010525,-0.5402,1.0201,-0.6531,-0.9364,0.5986,1.3636,24.3000,30.0000,-18.3000,
4.014895,-0.5402,1.0201,-0.6531,-0.7820,0.1747,1.1424,24.3000,30.0000,-18.3000,
4.025047,-0.5402,1.0201,-0.6531,-0.7820,0.1747,1.1424,24.3000,30.0000,-18.3000,
4.028419,-1.0204,0.9225,-0.5143,-0.7820,0.1747,1.1424,24.3000,30.0000,-18.3000,
4.039608,-1.0204,0.9225,-0.5143,-0.7820,0.1747,1.1424,27.4500,28.6500,-15.7500,
4.043883,-1.0204,0.9225,-0.5143,-0.7820,0.1747,1.1424,27.4500,28.6500,-15.7500,
4.045757,-1.3232,0.7069,0.0263,-0.7820,0.1747,1.1424,27.4500,28.6500,-15.7500,
4.066035,-1.3232,0.7069,0.0263,-0.7820,0.1747,1.1424,27.4500,28.6500,-15.7500,
4.068044,-1.1789,0.3450,0.4474,-0.7820,0.1747,1.1424,27.4500,28.6500,-15.7500,
4.080819,-1.1789,0.3450,0.4474,-0.7310,0.1069,0.9775,27.4500,28.6500,-15.7500,
4.085456,-1.1789,0.3450,0.4474,-0.7310,0.1069,0.9775,27.4500,28.6500,-15.7500,
4.086502,-1.0281,-0.1207,0.2761,-0.7310,0.1069,0.9775,27.4500,28.6500,-15.7500,
4.105841,-1.0281,-0.1207,0.2761,-0.7310,0.1069,0.9775,27.4500,28.6500,-15.7500,
4.108147,-0.1946,-0.0451,0.1951,-0.7310,0.1069,0.9775,27.4500,28.6500,-15.7500,
4.109806,-0.1946,-0.0451,0.1951,-0.7310,0.1069,0.9775,29.2500,27.5250,-14.1750,
4.129892,-0.1946,-0.0451,0.1951,-0.7310,0.1069,0.9775,29.2500,27.5250,-14.1750,
4.132355,0.9114,0.3421,0.0899,-0.7310,0.1069,0.9775,29.2500,27.5250,-14.1750,
4.149701,0.9114,0.3421,0.0899,-0.7310,0.1069,0.9775,29.2500,27.5250,-14.1750,
4.151780,2.3465,1.3520,0.0423,-0.7310,0.1069,0.9775,29.2500,27.5250,-14.1750,
4.156540,2.3465,1.3520,0.0423,-0.7694,0.0189,0.7133,29.2500,27.5250,-14.1750,
4.169152,2.3465,1.3520,0.0423,-0.7694,0.0189,0.7133,29.2500,27.5250,-14.1750,
4.171260,2.2704,1.9315,-0.3163,-0.7694,0.0189,0.7133,29.2500,27.5250,-14.1750,
4.182026,2.2704,1.9315,-0.3163,-0.7694,0.0189,0.7133,31.0500,26.7000,-12.4500,
4.191254,2.2704,1.9315,-0.3163,-0.7694,0.0189,0.7133,31.0500,26.7000,-12.4500,
4.194000,1.1882,1.5692,-0.7488,-0.7694,0.0189,0.7133,31.0500,26.7000,-12.4500,
4.209222,1.1882,1.5692,-0.7488,-0.7694,0.0189,0.7133,31.0500,26.7000,-12.4500,
4.211699,0.3243,0.4700,-1.1322,-0.7694,0.0189,0.7133,31.0500,26.7000,-12.4500,
4.225499,0.3243,0.4700,-1.1322,-0.5200,-0.0182,-0.0531,31.0500,26.7000,-12.4500,
4.228042,0.3243,0.4700,-1.1322,-0.5200,-0.0182,-0.0531,31.0500,26.7000,-12.4500,
4.229507,-0.5109,-0.3263,-1.1488,-0.5200,-0.0182,-0.0531,31.0500,26.7000,-12.4500,
4.243242,-0.5109,-0.3263,-1.1488,-0.5200,-0.0182,-0.0531,31.0500,26.7000,-12.4500,
4.247257,-1.4849,-1.2029,-1.4378,-0.5200,-0.0182,-0.0531,31.0500,26.7000,-12.4500,
4.249890,-1.4849,-1.2029,-1.4378,-0.5200,-0.0182,-0.0531,31.6500,26.6250,-10.9500,
4.261713,-1.4849,-1.2029,-1.4378,-0.5200,-0.0182,-0.0531,31.6500,26.6250,-10.9500,
4.263083,-1.6339,-1.3353,-1.6174,-0.5200,-0.0182,-0.0531,31.6500,26.6250,-10.9500,
4.287477,-1.6339,-1.3353,-1.6174,-0.5200,-0.0182,-0.0531,31.6500,26.6250,-10.9500,
4.289363,-1.4103,-0.9376,-0.2461,-0.5200,-0.0182,-0.0531,31.6500,26.6250,-10.9500,
4.291036,-1.4103,-0.9376,-0.2461,-0.7194,-0.2530,0.2743,31.6500,26.6250,-10.9500,
4.307977,-1.4103,-0.9376,-0.2461,-0.7194,-0.2530,0.2743,31.6500,26.6250,-10.9500,
4.310430,-1.0827,-0.8873,0.1437,-0.7194,-0.2530,0.2743,31.6500,26.6250,-10.9500,
4.317826,-1.0827,-0.8873,0.1437,-0.7194,-0.2530,0.2743,31.6500,26.5500,-10.5000,
4.326598,-1.0827,-0.8873,0.1437,-0.7194,-0.2530,0.2743,31.6500,26.5500,-10.5000,
4.328552,-0.5745,-0.8080,-0.2492,-0.7194,-0.2530,0.2743,31.6500,26.5500,-10.5000,
4.344551,-0.5745,-0.8080,-0.2492,-0.7194,-0.2530,0.2743,31.6500,26.5500,-10.5000,
4.346477,-0.1899,-0.6851,-1.0828,-0.7194,-0.2530,0.2743,31.6500,26.5500,-10.5000,
4.361615,-0.1899,-0.6851,-1.0828,-0.5469,-0.4479,0.0663,31.6500,26.5500,-10.5000,
4.365597,-0.1899,-0.6851,-1.0828,-0.5469,-0.4479,0.0663,31.6500,26.5500,-10.5000,
4.368070,-0.3411,-0.4720,-1.6157,-0.5469,-0.4479,0.0663,31.6500,26.5500,-10.5000,
4.384979,-0.3411,-0.4720,-1.6157,-0.5469,-0.4479,0.0663,31.6500,26.5500,-10.5000,
4.387821,-0.0452,0.1052,-0.9962,-0.5469,-0.4479,0.0663,31.6500,26.5500,-10.5000,
4.390294,-0.0452,0.1052,-0.9962,-0.5469,-0.4479,0.0663,31.5000,27.5250,-10.0500,
4.408513,-0.0452,0.1052,-0.9962,-0.5469,-0.4479,0.0663,31.5000,27.5250,-10.0500,
4.411193,1.3727,-0.2638,-1.0401,-0.5469,-0.4479,0.0663,31.5000,27.5250,-10.0500,
4.430328,1.3727,-0.2638,-1.0401,-0.5469,-0.4479,0.0663,31.5000,27.5250,-10.0500,
4.432552,2.5781,0.0000,-0.9166,-0.5469,-0.4479,0.0663,31.5000,27.5250,-10.0500,
4.433995,2.5781,0.0000,-0.9166,-0.6104,-0.4499,-0.1819,31.5000,27.5250,-10.0500,
4.442732,2.5781,0.0000,-0.9166,-0.6104,-0.4499,-0.1819,31.5000,27.5250,-10.0500,
4.444647,1.8444,0.1147,-0.1901,-0.6104,-0.4499,-0.1819,31.5000,27.5250,-10.0500,
4.460304,1.8444,0.1147,-0.1901,-0.6104,-0.4499,-0.1819,30.3750,27.8250,-10.0500,
4.467483,1.8444,0.1147,-0.1901,-0.6104,-0.4499,-0.1819,30.3750,27.8250,-10.0500,
4.469167,1.2537,-0.3940,-0.1889,-0.6104,-0.4499,-0.1819,30.3750,27.8250,-10.0500,
4.487379,1.2537,-0.3940,-0.1889,-0.6104,-0.4499,-0.1819,30.3750,27.8250,-10.0500,
4.490654,0.9419,-0.4898,-0.1232,-0.6104,-0.4499,-0.1819,30.3750,27.8250,-10.0500,
4.502261,0.9419,-0.4898,-0.1232,-0.8379,0.0884,-0.4836,30.3750,27.8250,-10.0500,
4.509050,0.9419,-0.4898,-0.1232,-0.8379,0.0884,-0.4836,30.3750,27.8250,-10.0500,
4.512911,0.3945,-0.5850,0.0468,-0.8379,0.0884,-0.4836,30.3750,27.8250,-10.0500,
4.528856,0.3945,-0.5850,0.0468,-0.8379,0.0884,-0.4836,30.3750,27.8250,-10.0500,
4.532351,-0.2774,-0.7035,0.0936,-0.8379,0.0884,-0.4836,30.3750,27.8250,-10.0500,
4.535899,-0.2774,-0.7035,0.0936,-0.8379,0.0884,-0.4836,29.8500,29.5500,-8.8500,
4.546552,-0.2774,-0.7035,0.0936,-0.8379,0.0884,-0.4836,29.8500,29.5500,-8.8500,
4.548896,-0.6876,-0.6337,0.7542,-0.8379,0.0884,-0.4836,29.8500,29.5500,-8.8500,
4.564772,-0.6876,-0.6337,0.7542,-0.8379,0.0884,-0.4836,29.8500,29.5500,-8.8500,
4.567569,-0.1723,-0.8931,0.2908,-0.8379,0.0884,-0.4836,29.8500,29.5500,-8.8500,
4.570000,-0.1723,-0.8931,0.2908,-0.9470,0.0667,-0.7672,29.8500,29.5500,-8.8500,
4.585087,-0.1723,-0.8931,0.2908,-0.9470,0.0667,-0.7672,29.8500,29.5500,-8.8500,
4.590104,0.5058,-0.8781,0.4712,-0.9470,0.0667,-0.7672,29.8500,29.5500,-8.8500,
4.594667,0.5058,-0.8781,0.4712,-0.9470,0.0667,-0.7672,28.5750,31.1250,-6.3750,
4.611476,0.5058,-0.8781,0.4712,-0.9470,0.0667,-0.7672,28.5750,31.1250,-6.3750,
4.614148,1.3262,-1.2721,0.5253,-0.9470,0.0667,-0.7672,28.5750,31.1250,-6.3750,
4.619055,1.3262,-1.2721,0.5253,-0.9470,0.0667,-0.7672,28.5750,31.1250,-6.3750,
4.620853,2.3286,-1.5786,0.3180,-0.9470,0.0667,-0.7672,28.5750,31.1250,-6.3750,
4.638801,2.3286,-1.5786,0.3180,-0.8291,-0.1826,-1.1209,28.5750,31.1250,-6.3750,
4.643207,2.3286,-1.5786,0.3180,-0.8291,-0.1826,-1.1209,28.5750,31.1250,-6.3750,
4.644711,2.0236,-1.8033,0.0738,-0.8291,-0.1826,-1.1209,28.5750,31.1250,-6.3750,
4.664059,2.0236,-1.8033,0.0738,-0.8291,-0.1826,-1.1209,28.5750,31.1250,-6.3750,
4.665812,0.9235,-2.5308,-0.1926,-0.8291,-0.1826,-1.1209,28.5750,31.1250,-6.3750,
4.667226,0.9235,-2.5308,-0.1926,-0.8291,-0.1826,-1.1209,26.1000,33.7500,-4.5000,
4.683414,0.9235,-2.5308,-0.1926,-0.8291,-0.1826,-1.1209,26.1000,33.7500,-4.5000,
4.685508,0.2728,-3.0381,-0.2213,-0.8291,-0.1826,-1.1209,26.1000,33.7500,-4.5000,
4.702536,0.2728,-3.0381,-0.2213,-0.8291,-0.1826,-1.1209,26.1000,33.7500,-4.5000,
4.703720,-0.3725,-2.7937,-0.4643,-0.8291,-0.1826,-1.1209,26.1000,33.7500,-4.5000,
4.707120,-0.3725,-2.7937,-0.4643,-0.6296,-0.0844,-0.9761,26.1000,33.7500,-4.5000,
4.725635,-0.3725,-2.7937,-0.4643,-0.6296,-0.0844,-0.9761,26.1000,33.7500,-4.5000,
4.726910,-0.3918,-2.0392,-0.6704,-0.6296,-0.0844,-0.9761,26.1000,33.7500,-4.5000,
4.737735,-0.3918,-2.0392,-0.6704,-0.6296,-0.0844,-0.9761,24.0750,35.7000,-3.9750,
4.744543,-0.3918,-2.0392,-0.6704,-0.6296,-0.0844,-0.9761,24.0750,35.7000,-3.9750,
4.746650,-0.6721,-0.8362,-1.1461,-0.6296,-0.0844,-0.9761,24.0750,35.7000,-3.9750,
4.765716,-0.6721,-0.8362,-1.1461,-0.6296,-0.0844,-0.9761,24.0750,35.7000,-3.9750,
4.767771,-1.5445,0.1295,-1.0711,-0.6296,-0.0844,-0.9761,24.0750,35.7000,-3.9750,
4.781065,-1.5445,0.1295,-1.0711,-0.5149,-0.2228,-0.6632,24.0750,35.7000,-3.9750,
4.786189,-1.5445,0.1295,-1.0711,-0.5149,-0.2228,-0.6632,24.0750,35.7000,-3.9750,
4.787655,-2.0957,0.5555,-0.6527,-0.5149,-0.2228,-0.6632,24.0750,35.7000,-3.9750,
4.805167,-2.0957,0.5555,-0.6527,-0.5149,-0.2228,-0.6632,24.0750,35.7000,-3.9750,
4.807283,-1.3127,0.2743,-1.4353,-0.5149,-0.2228,-0.6632,24.0750,35.7000,-3.9750,
4.808907,-1.3127,0.2743,-1.4353,-0.5149,-0.2228,-0.6632,21.4500,37.8000,-3.6000,
4.828284,-1.3127,0.2743,-1.4353,-0.5149,-0.2228,-0.6632,21.4500,37.8000,-3.6000,
4.829954,-0.6417,-0.5028,-1.1858,-0.5149,-0.2228,-0.6632,21.4500,37.8000,-3.6000,
4.845887,-0.6417,-0.5028,-1.1858,-0.5149,-0.2228,-0.6632,21.4500,37.8000,-3.6000,
4.848781,-0.8196,-1.5204,-0.9854,-0.5149,-0.2228,-0.6632,21.4500,37.8000,-3.6000,
4.851009,-0.8196,-1.5204,-0.9854,-0.6139,-0.6513,0.2346,21.4500,37.8000,-3.6000,
4.863421,-0.8196,-1.5204,-0.9854,-0.6139,-0.6513,0.2346,21.4500,37.8000,-3.6000,
4.865840,-1.4888,-2.1432,-0.6093,-0.6139,-0.6513,0.2346,21.4500,37.8000,-3.6000,
4.874907,-1.4888,-2.1432,-0.6093,-0.6139,-0.6513,0.2346,20.7000,38.1000,-2.7000,
4.878255,-1.4888,-2.1432,-0.6093,-0.6139,-0.6513,0.2346,20.7000,38.1000,-2.7000,
4.879977,-2.7065,-2.7595,-0.5113,-0.6139,-0.6513,0.2346,20.7000,38.1000,-2.7000,
4.897862,-2.7065,-2.7595,-0.5113,-0.6139,-0.6513,0.2346,20.7000,38.1000,-2.7000,
4.900396,-3.0758,-2.3498,0.1532,-0.6139,-0.6513,0.2346,20.7000,38.1000,-2.7000,
4.917036,-3.0758,-2.3498,0.1532,-0.0507,-0.8776,0.8176,20.7000,38.1000,-2.7000,
4.922136,-3.0758,-2.3498,0.1532,-0.0507,-0.8776,0.8176,20.7000,38.1000,-2.7000,
4.923713,-2.4151,-1.4932,-0.2051,-0.0507,-0.8776,0.8176,20.7000,38.1000,-2.7000,
4.943091,-2.4151,-1.4932,-0.2051,-0.0507,-0.8776,0.8176,20.7000,38.1000,-2.7000,
4.944581,-1.7083,-0.8117,-0.8897,-0.0507,-0.8776,0.8176,20.7000,38.1000,-2.7000,
4.945652,-1.7083,-0.8117,-0.8897,-0.0507,-0.8776,0.8176,21.1500,38.3250,-3.6000,
4.961917,-1.7083,-0.8117,-0.8897,-0.0507,-0.8776,0.8176,21.1500,38.3250,-3.6000,
4.963452,-1.1422,-0.3486,-0.8987,-0.0507,-0.8776,0.8176,21.1500,38.3250,-3.6000,
4.981733,-1.1422,-0.3486,-0.8987,-0.0507,-0.8776,0.8176,21.1500,38.3250,-3.6000,
4.983170,-0.6574,-0.2793,-0.6495,-0.0507,-0.8776,0.8176,21.1500,38.3250,-3.6000,
4.985456,-0.6574,-0.2793,-0.6495,0.4299,-1.2052,1.1114,21.1500,38.3250,-3.6000,
5.001638,-0.6574,-0.2793,-0.6495,0.4299,-1.2052,1.1114,21.1500,38.3250,-3.6000,
5.003494,-0.2802,-0.4472,-0.8425,0.4299,-1.2052,1.1114,21.1500,38.3250,-3.6000,
5.016891,-0.2802,-0.4472,-0.8425,0.4299,-1.2052,1.1114,23.7750,36.0000,-6.1500,
5.026027,-0.2802,-0.4472,-0.8425,0.4299,-1.2052,1.1114,23.7750,36.0000,-6.1500,
5.029250,0.2467,-0.7873,-0.9616,0.4299,-1.2052,1.1114,23.7750,36.0000,-6.1500,
5.046795,0.2467,-0.7873,-0.9616,0.4299,-1.2052,1.1114,23.7750,36.0000,-6.1500,
5.050302,0.8373,-1.2348,-0.7581,0.4299,-1.2052,1.1114,23.7750,36.0000,-6.1500,
5.060363,0.8373,-1.2348,-0.7581,0.4931,-1.3400,1.0691,23.7750,36.0000,-6.1500,
5.064027,0.8373,-1.2348,-0.7581,0.4931,-1.3400,1.0691,23.7750,36.0000,-6.1500,
5.065504,1.1776,-1.4220,-0.9556,0.4931,-1.3400,1.0691,23.7750,36.0000,-6.1500,
5.079168,1.1776,-1.4220,-0.9556,0.4931,-1.3400,1.0691,23.7750,36.0000,-6.1500,
5.081922,1.3039,-1.0610,-1.0138,0.4931,-1.3400,1.0691,23.7750,36.0000,-6.1500,
5.085205,1.3039,-1.0610,-1.0138,0.4931,-1.3400,1.0691,25.3500,33.5250,-9.9000,
5.103214,1.3039,-1.0610,-1.0138,0.4931,-1.3400,1.0691,25.3500,33.5250,-9.9000,
5.106512,1.2294,-0.7288,-0.9066,0.4931,-1.3400,1.0691,25.3500,33.5250,-9.9000,
5.119947,1.2294,-0.7288,-0.9066,0.4931,-1.3400,1.0691,25.3500,33.5250,-9.9000,
5.122223,0.8893,-1.1500,-0.4402,0.4931,-1.3400,1.0691,25.3500,33.5250,-9.9000,
5.130836,0.8893,-1.1500,-0.4402,0.4146,-1.1218,0.6495,25.3500,33.5250,-9.9000,
5.144601,0.8893,-1.1500,-0.4402,0.4146,-1.1218,0.6495,25.3500,33.5250,-9.9000,
5.146097,0.6667,-1.6831,0.0177,0.4146,-1.1218,0.6495,25.3500,33.5250,-9.9000,
5.158991,0.6667,-1.6831,0.0177,0.4146,-1.1218,0.6495,25.8750,32.2500,-13.2750,
5.162595,0.6667,-1.6831,0.0177,0.4146,-1.1218,0.6495,25.8750,32.2500,-13.2750,
5.163883,0.5185,-1.4932,-0.1079,0.4146,-1.1218,0.6495,25.8750,32.2500,-13.2750,
5.182262,0.5185,-1.4932,-0.1079,0.4146,-1.1218,0.6495,25.8750,32.2500,-13.2750,
5.184109,0.1871,-1.2614,-0.2229,0.4146,-1.1218,0.6495,25.8750,32.2500,-13.2750,
5.196559,0.1871,-1.2614,-0.2229,0.3922,-0.8665,0.1075,25.8750,32.2500,-13.2750,
5.201999,0.1871,-1.2614,-0.2229,0.3922,-0.8665,0.1075,25.8750,32.2500,-13.2750,
5.203242,0.1117,-1.0609,-0.1700,0.3922,-0.8665,0.1075,25.8750,32.2500,-13.2750,
5.223529,0.1117,-1.0609,-0.1700,0.3922,-0.8665,0.1075,25.8750,32.2500,-13.2750,
5.225552,0.4441,-0.8408,0.1280,0.3922,-0.8665,0.1075,25.8750,32.2500,-13.2750,
5.227076,0.4441,-0.8408,0.1280,0.3922,-0.8665,0.1075,25.6500,31.7250,-16.0500,
5.245612,0.4441,-0.8408,0.1280,0.3922,-0.8665,0.1075,25.6500,31.7250,-16.0500,
5.248271,0.4594,-0.3568,0.4924,0.3922,-0.8665,0.1075,25.6500,31.7250,-16.0500,
5.259744,0.4594,-0.3568,0.4924,0.3922,-0.8665,0.1075,25.6500,31.7250,-16.0500,
5.262399,0.3969,0.6456,0.4499,0.3922,-0.8665,0.1075,25.6500,31.7250,-16.0500,
5.264127,0.3969,0.6456,0.4499,0.3497,-0.5368,-0.0455,25.6500,31.7250,-16.0500,
5.275949,0.3969,0.6456,0.4499,0.3497,-0.5368,-0.0455,25.6500,31.7250,-16.0500,
5.277570,1.0629,1.9753,0.3068,0.3497,-0.5368,-0.0455,25.6500,31.7250,-16.0500,
5.295016,1.0629,1.9753,0.3068,0.3497,-0.5368,-0.0455,24.1500,31.0500,-18.9000,
5.298862,1.0629,1.9753,0.3068,0.3497,-0.5368,-0.0455,24.1500,31.0500,-18.9000,
5.300451,1.5344,3.0817,0.5275,0.3497,-0.5368,-0.0455,24.1500,31.0500,-18.9000,
5.324652,1.5344,3.0817,0.5275,0.3497,-0.5368,-0.0455,24.1500,31.0500,-18.9000,
5.327888,1.3645,4.2324,0.3124,0.3497,-0.5368,-0.0455,24.1500,31.0500,-18.9000,
5.339629,1.3645,4.2324,0.3124,0.3529,-0.0922,0.1268,24.1500,31.0500,-18.9000,
5.344397,1.3645,4.2324,0.3124,0.3529,-0.0922,0.1268,24.1500,31.0500,-18.9000,
5.345880,0.7774,4.9907,0.0840,0.3529,-0.0922,0.1268,24.1500,31.0500,-18.9000,
5.362227,0.7774,4.9907,0.0840,0.3529,-0.0922,0.1268,24.1500,31.0500,-18.9000,
5.364183,0.0037,5.4438,0.0538,0.3529,-0.0922,0.1268,24.1500,31.0500,-18.9000,
5.365985,0.0037,5.4438,0.0538,0.3529,-0.0922,0.1268,23.5500,30.1500,-20.4750,
5.381610,0.0037,5.4438,0.0538,0.3529,-0.0922,0.1268,23.5500,30.1500,-20.4750,
5.383891,-0.5668,5.3701,0.4640,0.3529,-0.0922,0.1268,23.5500,30.1500,-20.4750,
5.401542,-0.5668,5.3701,0.4640,0.3529,-0.0922,0.1268,23.5500,30.1500,-20.4750,
5.404122,-1.0013,4.7231,1.1897,0.3529,-0.0922,0.1268,23.5500,30.1500,-20.4750,
5.405778,-1.0013,4.7231,1.1897,-0.0977,0.2792,0.4937,23.5500,30.1500,-20.4750,
5.421379,-1.0013,4.7231,1.1897,-0.0977,0.2792,0.4937,23.5500,30.1500,-20.4750,
5.423437,-0.9239,3.9032,1.7015,-0.0977,0.2792,0.4937,23.5500,30.1500,-20.4750,
5.436023,-0.9239,3.9032,1.7015,-0.0977,0.2792,0.4937,24.3000,30.1500,-21.1500,
5.446016,-0.9239,3.9032,1.7015,-0.0977,0.2792,0.4937,24.3000,30.1500,-21.1500,
5.448030,-0.5730,3.1810,1.8837,-0.0977,0.2792,0.4937,24.3000,30.1500,-21.1500,
5.460812,-0.5730,3.1810,1.8837,-0.0977,0.2792,0.4937,24.3000,30.1500,-21.1500,
5.462226,-0.3244,2.2562,1.4088,-0.0977,0.2792,0.4937,24.3000,30.1500,-21.1500,
5.476543,-0.3244,2.2562,1.4088,-0.2323,0.1797,0.6838,24.3000,30.1500,-21.1500,
5.481450,-0.3244,2.2562,1.4088,-0.2323,0.1797,0.6838,24.3000,30.1500,-21.1500,
5.482726,-0.0345,1.7000,0.7277,-0.2323,0.1797,0.6838,24.3000,30.1500,-21.1500,
5.500197,-0.0345,1.7000,0.7277,-0.2323,0.1797,0.6838,24.3000,30.1500,-21.1500,
5.502169,0.0888,1.8613,0.6329,-0.2323,0.1797,0.6838,24.3000,30.1500,-21.1500,
5.508400,0.0888,1.8613,0.6329,-0.2323,0.1797,0.6838,25.9500,29.5500,-19.2750,
5.525007,0.0888,1.8613,0.6329,-0.2323,0.1797,0.6838,25.9500,29.5500,-19.2750,
5.528214,-0.0314,2.4006,1.0963,-0.2323,0.1797,0.6838,25.9500,29.5500,-19.2750,
5.547955,-0.0314,2.4006,1.0963,-0.2323,0.1797,0.6838,25.9500,29.5500,-19.2750,
5.551598,-0.3427,2.4107,0.9881,-0.2323,0.1797,0.6838,25.9500,29.5500,-19.2750,
5.554652,-0.3427,2.4107,0.9881,-0.1778,-0.2240,0.1519,25.9500,29.5500,-19.2750,
5.563079,-0.3427,2.4107,0.9881,-0.1778,-0.2240,0.1519,25.9500,29.5500,-19.2750,
5.565003,-0.4819,1.3834,0.7269,-0.1778,-0.2240,0.1519,25.9500,29.5500,-19.2750,
5.575583,-0.4819,1.3834,0.7269,-0.1778,-0.2240,0.1519,26.4000,29.7000,-19.0500,
5.578422,-0.4819,1.3834,0.7269,-0.1778,-0.2240,0.1519,26.4000,29.7000,-19.0500,
5.580009,-0.5624,-0.3086,0.5215,-0.1778,-0.2240,0.1519,26.4000,29.7000,-19.0500,
5.593111,-0.5624,-0.3086,0.5215,-0.1778,-0.2240,0.1519,26.4000,29.7000,-19.0500,
5.595694,-0.6317,-1.4285,0.5475,-0.1778,-0.2240,0.1519,26.4000,29.7000,-19.0500,
5.612128,-0.6317,-1.4285,0.5475,-0.1981,-0.1749,0.1092,26.4000,29.7000,-19.0500,
5.616760,-0.6317,-1.4285,0.5475,-0.1981,-0.1749,0.1092,26.4000,29.7000,-19.0500,
5.618618,-0.1665,-1.8722,0.1449,-0.1981,-0.1749,0.1092,26.4000,29.7000,-19.0500,
5.641688,-0.1665,-1.8722,0.1449,-0.1981,-0.1749,0.1092,26.4000,29.7000,-19.0500,
5.645875,-0.0056,-1.9080,-0.3658,-0.1981,-0.1749,0.1092,26.4000,29.7000,-19.0500,
5.648659,-0.0056,-1.9080,-0.3658,-0.1981,-0.1749,0.1092,25.2750,29.5500,-19.6500,
5.660556,-0.0056,-1.9080,-0.3658,-0.1981,-0.1749,0.1092,25.2750,29.5500,-19.6500,
5.663210,-0.3836,-1.7347,-0.1817,-0.1981,-0.1749,0.1092,25.2750,29.5500,-19.6500,
5.681119,-0.3836,-1.7347,-0.1817,-0.1981,-0.1749,0.1092,25.2750,29.5500,-19.6500,
5.683635,-0.8920,-1.4064,0.1609,-0.1981,-0.1749,0.1092,25.2750,29.5500,-19.6500,
5.685894,-0.8920,-1.4064,0.1609,0.0893,0.0444,0.3790,25.2750,29.5500,-19.6500,
5.700175,-0.8920,-1.4064,0.1609,0.0893,0.0444,0.3790,25.2750,29.5500,-19.6500,
5.702635,-1.2342,-1.4175,0.1996,0.0893,0.0444,0.3790,25.2750,29.5500,-19.6500,
5.710422,-1.2342,-1.4175,0.1996,0.0893,0.0444,0.3790,26.1000,28.8000,-18.9750,
5.719387,-1.2342,-1.4175,0.1996,0.0893,0.0444,0.3790,26.1000,28.8000,-18.9750,
5.721352,-1.4919,-1.3050,0.0751,0.0893,0.0444,0.3790,26.1000,28.8000,-18.9750,
5.739962,-1.4919,-1.3050,0.0751,0.0893,0.0444,0.3790,26.1000,28.8000,-18.9750,
5.742615,-1.8138,-0.9893,0.1106,0.0893,0.0444,0.3790,26.1000,28.8000,-18.9750,
5.753383,-1.8138,-0.9893,0.1106,0.1394,-0.1999,0.2740,26.1000,28.8000,-18.9750,
5.763066,-1.8138,-0.9893,0.1106,0.1394,-0.1999,0.2740,26.1000,28.8000,-18.9750,
5.764716,-1.8277,-0.6145,0.1162,0.1394,-0.1999,0.2740,26.1000,28.8000,-18.9750,
5.777820,-1.8277,-0.6145,0.1162,0.1394,-0.1999,0.2740,26.1000,28.8000,-18.9750,
5.780249,-1.4599,-0.2942,0.0180,0.1394,-0.1999,0.2740,26.1000,28.8000,-18.9750,
5.782026,-1.4599,-0.2942,0.0180,0.1394,-0.1999,0.2740,26.7750,27.5250,-19.5750,
5.792916,-1.4599,-0.2942,0.0180,0.1394,-0.1999,0.2740,26.7750,27.5250,-19.5750,
5.794981,-1.2233,-0.1687,-0.1334,0.1394,-0.1999,0.2740,26.7750,27.5250,-19.5750,
5.817353,-1.2233,-0.1687,-0.1334,0.1394,-0.1999,0.2740,26.7750,27.5250,-19.5750,
5.820422,-0.9574,-0.2124,-0.0260,0.1394,-0.1999,0.2740,26.7750,27.5250,-19.5750,
5.824922,-0.9574,-0.2124,-0.0260,0.0834,-0.4320,0.3622,26.7750,27.5250,-19.5750,
5.843692,-0.9574,-0.2124,-0.0260,0.0834,-0.4320,0.3622,26.7750,27.5250,-19.5750,
5.846777,-0.7909,-0.3821,0.4426,0.0834,-0.4320,0.3622,26.7750,27.5250,-19.5750,
5.849113,-0.7909,-0.3821,0.4426,0.0834,-0.4320,0.3622,27.4500,27.4500,-20.7750,
5.858924,-0.7909,-0.3821,0.4426,0.0834,-0.4320,0.3622,27.4500,27.4500,-20.7750,
5.861115,-0.6523,-0.4532,0.6611,0.0834,-0.4320,0.3622,27.4500,27.4500,-20.7750,
5.876065,-0.6523,-0.4532,0.6611,0.0834,-0.4320,0.3622,27.4500,27.4500,-20.7750,
5.878918,-0.5850,-0.3582,0.5561,0.0834,-0.4320,0.3622,27.4500,27.4500,-20.7750,
5.891090,-0.5850,-0.3582,0.5561,-0.0568,-0.3781,0.2616,27.4500,27.4500,-20.7750,
5.895235,-0.5850,-0.3582,0.5561,-0.0568,-0.3781,0.2616,27.4500,27.4500,-20.7750,
5.897030,-0.5745,-0.4445,0.3149,-0.0568,-0.3781,0.2616,27.4500,27.4500,-20.7750,
5.920320,-0.5745,-0.4445,0.3149,-0.0568,-0.3781,0.2616,27.4500,27.4500,-20.7750,
5.923919,-0.5460,-0.7250,0.3327,-0.0568,-0.3781,0.2616,27.4500,27.4500,-20.7750,
5.926153,-0.5460,-0.7250,0.3327,-0.0568,-0.3781,0.2616,27.0000,26.9250,-21.4500,
5.940813,-0.5460,-0.7250,0.3327,-0.0568,-0.3781,0.2616,27.0000,26.9250,-21.4500,
5.944797,-0.3676,-0.6736,0.3935,-0.0568,-0.3781,0.2616,27.0000,26.9250,-21.4500,
5.960650,-0.3676,-0.6736,0.3935,-0.0568,-0.3781,0.2616,27.0000,26.9250,-21.4500,
5.965058,-0.4772,-0.4510,0.3211,-0.0568,-0.3781,0.2616,27.0000,26.9250,-21.4500,
5.969027,-0.4772,-0.4510,0.3211,0.0386,-0.1335,-0.0834,27.0000,26.9250,-21.4500,
5.979373,-0.4772,-0.4510,0.3211,0.0386,-0.1335,-0.0834,27.0000,26.9250,-21.4500,
5.981789,-0.7042,-0.2113,0.3071,0.0386,-0.1335,-0.0834,27.0000,26.9250,-21.4500,
5.990637,-0.7042,-0.2113,0.3071,0.0386,-0.1335,-0.0834,26.8500,27.1500,-22.5750,
5.993213,-0.7042,-0.2113,0.3071,0.0386,-0.1335,-0.0834,26.8500,27.1500,-22.5750,
5.994431,-0.9280,0.1219,0.4790,0.0386,-0.1335,-0.0834,26.8500,27.1500,-22.5750,
6.018213,-0.9280,0.1219,0.4790,0.0386,-0.1335,-0.0834,26.8500,27.1500,-22.5750,
6.021958,-0.9713,0.4577,0.7446,0.0386,-0.1335,-0.0834,26.8500,27.1500,-22.5750,
6.033046,-0.9713,0.4577,0.7446,0.2359,-0.0269,-0.3653,26.8500,27.1500,-22.5750,
6.040622,-0.9713,0.4577,0.7446,0.2359,-0.0269,-0.3653,26.8500,27.1500,-22.5750,
6.044516,-0.8824,0.5982,0.8851,0.2359,-0.0269,-0.3653,26.8500,27.1500,-22.5750,
6.057468,-0.8824,0.5982,0.8851,0.2359,-0.0269,-0.3653,26.1000,26.8500,-23.4000,
6.061007,-0.8824,0.5982,0.8851,0.2359,-0.0269,-0.3653,26.1000,26.8500,-23.4000,
6.062863,-0.8659,0.6415,1.0055,0.2359,-0.0269,-0.3653,26.1000,26.8500,-23.4000,
6.077819,-0.8659,0.6415,1.0055,0.2359,-0.0269,-0.3653,26.1000,26.8500,-23.4000,
6.080782,-0.6133,0.4168,0.9651,0.2359,-0.0269,-0.3653,26.1000,26.8500,-23.4000,
6.092819,-0.6133,0.4168,0.9651,0.2359,-0.0269,-0.3653,26.1000,26.8500,-23.4000,
6.095761,-0.4678,0.1603,0.9265,0.2359,-0.0269,-0.3653,26.1000,26.8500,-23.4000,
6.100410,-0.4678,0.1603,0.9265,0.3349,0.2039,-0.6577,26.1000,26.8500,-23.4000,
6.115204,-0.4678,0.1603,0.9265,0.3349,0.2039,-0.6577,26.1000,26.8500,-23.4000,
6.118576,-0.3405,-0.1866,0.6778,0.3349,0.2039,-0.6577,26.1000,26.8500,-23.4000,
6.127069,-0.3405,-0.1866,0.6778,0.3349,0.2039,-0.6577,25.5750,27.4500,-22.6500,
6.134564,-0.3405,-0.1866,0.6778,0.3349,0.2039,-0.6577,25.5750,27.4500,-22.6500,
6.136455,-0.5490,-0.4500,0.1976,0.3349,0.2039,-0.6577,25.5750,27.4500,-22.6500,
6.154174,-0.5490,-0.4500,0.1976,0.3349,0.2039,-0.6577,25.5750,27.4500,-22.6500,
6.157348,-0.9108,-0.4662,-0.0333,0.3349,0.2039,-0.6577,25.5750,27.4500,-22.6500,
6.169169,-0.9108,-0.4662,-0.0333,0.5440,0.3137,-0.9099,25.5750,27.4500,-22.6500,
6.179102,-0.9108,-0.4662,-0.0333,0.5440,0.3137,-0.9099,25.5750,27.4500,-22.6500,
6.181170,-1.3399,-0.3710,-0.0977,0.5440,0.3137,-0.9099,25.5750,27.4500,-22.6500,
6.193787,-1.3399,-0.3710,-0.0977,0.5440,0.3137,-0.9099,25.5750,27.4500,-22.6500,
6.196767,-1.4720,-0.4412,-0.2016,0.5440,0.3137,-0.9099,25.5750,27.4500,-22.6500,
6.198737,-1.4720,-0.4412,-0.2016,0.5440,0.3137,-0.9099,23.2500,28.3500,-23.2500,
6.218349,-1.4720,-0.4412,-0.2016,0.5440,0.3137,-0.9099,23.2500,28.3500,-23.2500,
6.222293,-1.1455,-0.9432,0.0695,0.5440,0.3137,-0.9099,23.2500,28.3500,-23.2500,
6.247164,-1.1455,-0.9432,0.0695,0.5440,0.3137,-0.9099,23.2500,28.3500,-23.2500,
6.250202,-0.6626,-1.3325,0.3449,0.5440,0.3137,-0.9099,23.2500,28.3500,-23.2500,
6.253799,-0.6626,-1.3325,0.3449,0.7107,0.2825,-0.9540,23.2500,28.3500,-23.2500,
6.262805,-0.6626,-1.3325,0.3449,0.7107,0.2825,-0.9540,23.2500,28.3500,-23.2500,
6.264913,-0.2226,-1.5265,0.2039,0.7107,0.2825,-0.9540,23.2500,28.3500,-23.2500,
6.268153,-0.2226,-1.5265,0.2039,0.7107,0.2825,-0.9540,22.8000,29.1000,-23.8500,
6.277889,-0.2226,-1.5265,0.2039,0.7107,0.2825,-0.9540,22.8000,29.1000,-23.8500,
6.279562,-0.1710,-1.4908,-0.4985,0.7107,0.2825,-0.9540,22.8000,29.1000,-23.8500,
6.293854,-0.1710,-1.4908,-0.4985,0.7107,0.2825,-0.9540,22.8000,29.1000,-23.8500,
6.295731,-0.2181,-1.3056,-1.0764,0.7107,0.2825,-0.9540,22.8000,29.1000,-23.8500,
6.311679,-0.2181,-1.3056,-1.0764,0.9612,0.0267,-0.8509,22.8000,29.1000,-23.8500,
6.317840,-0.2181,-1.3056,-1.0764,0.9612,0.0267,-0.8509,22.8000,29.1000,-23.8500,
6.319119,-0.2962,-0.8750,-1.1171,0.9612,0.0267,-0.8509,22.8000,29.1000,-23.8500,
6.337160,-0.2962,-0.8750,-1.1171,0.9612,0.0267,-0.8509,22.8000,29.1000,-23.8500,
6.338845,-0.2435,-0.2842,-0.6040,0.9612,0.0267,-0.8509,22.8000,29.1000,-23.8500,
6.340602,-0.2435,-0.2842,-0.6040,0.9612,0.0267,-0.8509,21.6000,29.1000,-25.6500,
6.355632,-0.2435,-0.2842,-0.6040,0.9612,0.0267,-0.8509,21.6000,29.1000,-25.6500,
6.357624,-0.0092,0.4359,-0.3398,0.9612,0.0267,-0.8509,21.6000,29.1000,-25.6500,
6.378664,-0.0092,0.4359,-0.3398,0.9612,0.0267,-0.8509,21.6000,29.1000,-25.6500,
6.382050,0.4112,0.9711,-0.5564,0.9612,0.0267,-0.8509,21.6000,29.1000,-25.6500,
6.384581,0.4112,0.9711,-0.5564,0.7691,-0.1536,-0.4123,21.6000,29.1000,-25.6500,
6.394924,0.4112,0.9711,-0.5564,0.7691,-0.1536,-0.4123,21.6000,29.1000,-25.6500,
6.397362,0.9553,1.3082,-0.9589,0.7691,-0.1536,-0.4123,21.6000,29.1000,-25.6500,
6.406037,0.9553,1.3082,-0.9589,0.7691,-0.1536,-0.4123,19.9500,28.2000,-27.4500,
6.414561,0.9553,1.3082,-0.9589,0.7691,-0.1536,-0.4123,19.9500,28.2000,-27.4500,
6.416325,1.3520,1.3898,-1.0776,0.7691,-0.1536,-0.4123,19.9500,28.2000,-27.4500,
6.433421,1.3520,1.3898,-1.0776,0.7691,-0.1536,-0.4123,19.9500,28.2000,-27.4500,
6.436470,1.5194,1.1388,-0.4753,0.7691,-0.1536,-0.4123,19.9500,28.2000,-27.4500,
6.448375,1.5194,1.1388,-0.4753,0.5576,-0.3126,-0.2283,19.9500,28.2000,-27.4500,
6.452386,1.5194,1.1388,-0.4753,0.5576,-0.3126,-0.2283,19.9500,28.2000,-27.4500,
6.453862,1.5043,0.6846,0.1148,0.5576,-0.3126,-0.2283,19.9500,28.2000,-27.4500,
6.472629,1.5043,0.6846,0.1148,0.5576,-0.3126,-0.2283,19.9500,28.2000,-27.4500,
6.475328,1.2051,0.3305,0.1524,0.5576,-0.3126,-0.2283,19.9500,28.2000,-27.4500,
6.477542,1.2051,0.3305,0.1524,0.5576,-0.3126,-0.2283,18.7500,26.5500,-28.8000,
6.492522,1.2051,0.3305,0.1524,0.5576,-0.3126,-0.2283,18.7500,26.5500,-28.8000,
6.494517,0.8770,0.4235,-0.0101,0.5576,-0.3126,-0.2283,18.7500,26.5500,-28.8000,
6.511203,0.8770,0.4235,-0.0101,0.5576,-0.3126,-0.2283,18.7500,26.5500,-28.8000,
6.513202,0.6338,0.8049,-0.2493,0.5576,-0.3126,-0.2283,18.7500,26.5500,-28.8000,
6.516300,0.6338,0.8049,-0.2493,0.4817,-0.2564,-0.2210,18.7500,26.5500,-28.8000,
6.536156,0.6338,0.8049,-0.2493,0.4817,-0.2564,-0.2210,18.7500,26.5500,-28.8000,
6.539392,0.5643,1.1419,-0.4293,0.4817,-0.2564,-0.2210,18.7500,26.5500,-28.8000,
6.556655,0.5643,1.1419,-0.4293,0.4817,-0.2564,-0.2210,18.0000,25.9500,-30.7500,
6.559646,0.5643,1.1419,-0.4293,0.4817,-0.2564,-0.2210,18.0000,25.9500,-30.7500,
6.561789,0.6684,1.3048,-0.4828,0.4817,-0.2564,-0.2210,18.0000,25.9500,-30.7500,
6.576174,0.6684,1.3048,-0.4828,0.4817,-0.2564,-0.2210,18.0000,25.9500,-30.7500,
6.579188,0.6129,1.3432,-0.5241,0.4817,-0.2564,-0.2210,18.0000,25.9500,-30.7500,
6.589795,0.6129,1.3432,-0.5241,0.3806,-0.2198,-0.1446,18.0000,25.9500,-30.7500,
6.593777,0.6129,1.3432,-0.5241,0.3806,-0.2198,-0.1446,18.0000,25.9500,-30.7500,
6.596463,0.5451,1.2878,-0.5882,0.3806,-0.2198,-0.1446,18.0000,25.9500,-30.7500,
6.614366,0.5451,1.2878,-0.5882,0.3806,-0.2198,-0.1446,18.0000,25.9500,-30.7500,
6.616803,0.4599,1.1850,-0.6085,0.3806,-0.2198,-0.1446,18.0000,25.9500,-30.7500,
6.618919,0.4599,1.1850,-0.6085,0.3806,-0.2198,-0.1446,17.8500,25.1250,-31.6500,
6.633515,0.4599,1.1850,-0.6085,0.3806,-0.2198,-0.1446,17.8500,25.1250,-31.6500,
6.636336,0.6857,1.0760,-0.7253,0.3806,-0.2198,-0.1446,17.8500,25.1250,-31.6500,
6.653246,0.6857,1.0760,-0.7253,0.3806,-0.2198,-0.1446,17.8500,25.1250,-31.6500,
6.656826,0.9864,0.9123,-0.6536,0.3806,-0.2198,-0.1446,17.8500,25.1250,-31.6500,
6.659421,0.9864,0.9123,-0.6536,0.2091,-0.2126,-0.2210,17.8500,25.1250,-31.6500,
6.677623,0.9864,0.9123,-0.6536,0.2091,-0.2126,-0.2210,17.8500,25.1250,-31.6500,
6.679733,1.1352,0.8451,-0.4109,0.2091,-0.2126,-0.2210,17.8500,25.1250,-31.6500,
6.684957,1.1352,0.8451,-0.4109,0.2091,-0.2126,-0.2210,16.5000,24.8250,-31.5750,
6.693080,1.1352,0.8451,-0.4109,0.2091,-0.2126,-0.2210,16.5000,24.8250,-31.5750,
6.695692,1.2384,0.6101,-0.2221,0.2091,-0.2126,-0.2210,16.5000,24.8250,-31.5750,
6.712049,1.2384,0.6101,-0.2221,0.2091,-0.2126,-0.2210,16.5000,24.8250,-31.5750,
6.714375,1.1196,0.5109,-0.2798,0.2091,-0.2126,-0.2210,16.5000,24.8250,-31.5750,
6.726645,1.1196,0.5109,-0.2798,0.2482,-0.0899,-0.3551,16.5000,24.8250,-31.5750,
6.731581,1.1196,0.5109,-0.2798,0.2482,-0.0899,-0.3551,16.5000,24.8250,-31.5750,
6.733468,0.7825,0.6349,-0.3354,0.2482,-0.0899,-0.3551,16.5000,24.8250,-31.5750,
6.751134,0.7825,0.6349,-0.3354,0.2482,-0.0899,-0.3551,16.5000,24.8250,-31.5750,
6.753472,0.4314,0.8798,-0.4459,0.2482,-0.0899,-0.3551,16.5000,24.8250,-31.5750,
6.757909,0.4314,0.8798,-0.4459,0.2482,-0.0899,-0.3551,15.3000,24.4500,-32.7000,
6.774329,0.4314,0.8798,-0.4459,0.2482,-0.0899,-0.3551,15.3000,24.4500,-32.7000,
6.777368,0.2717,0.9851,-0.4671,0.2482,-0.0899,-0.3551,15.3000,24.4500,-32.7000,
6.793229,0.2717,0.9851,-0.4671,0.2482,-0.0899,-0.3551,15.3000,24.4500,-32.7000,
6.796778,0.1729,0.7578,-0.3890,0.2482,-0.0899,-0.3551,15.3000,24.4500,-32.7000,
6.800228,0.1729,0.7578,-0.3890,0.1996,-0.0586,-0.3874,15.3000,24.4500,-32.7000,
6.815087,0.1729,0.7578,-0.3890,0.1996,-0.0586,-0.3874,15.3000,24.4500,-32.7000,
6.817897,0.2151,0.3326,-0.3104,0.1996,-0.0586,-0.3874,15.3000,24.4500,-32.7000,
6.825197,0.2151,0.3326,-0.3104,0.1996,-0.0586,-0.3874,14.7000,23.8500,-33.1500,
6.834105,0.2151,0.3326,-0.3104,0.1996,-0.0586,-0.3874,14.7000,23.8500,-33.1500,
6.836323,0.3231,-0.0074,-0.2483,0.1996,-0.0586,-0.3874,14.7000,23.8500,-33.1500,
6.854098,0.3231,-0.0074,-0.2483,0.1996,-0.0586,-0.3874,14.7000,23.8500,-33.1500,
6.857143,0.3239,-0.2227,-0.2943,0.1996,-0.0586,-0.3874,14.7000,23.8500,-33.1500,
6.868397,0.3239,-0.2227,-0.2943,0.1712,-0.0466,-0.3018,14.7000,23.8500,-33.1500,
6.873789,0.3239,-0.2227,-0.2943,0.1712,-0.0466,-0.3018,14.7000,23.8500,-33.1500,
6.876667,0.2510,-0.3478,-0.3294,0.1712,-0.0466,-0.3018,14.7000,23.8500,-33.1500,
6.893284,0.2510,-0.3478,-0.3294,0.1712,-0.0466,-0.3018,14.7000,23.8500,-33.1500,
6.896314,0.1350,-0.2821,-0.2442,0.1712,-0.0466,-0.3018,14.7000,23.8500,-33.1500,
6.898031,0.1350,-0.2821,-0.2442,0.1712,-0.0466,-0.3018,13.9500,24.1500,-33.3750,
6.913065,0.1350,-0.2821,-0.2442,0.1712,-0.0466,-0.3018,13.9500,24.1500,-33.3750,
6.915975,-0.1493,0.0410,-0.0641,0.1712,-0.0466,-0.3018,13.9500,24.1500,-33.3750,
6.927770,-0.1493,0.0410,-0.0641,0.1712,-0.0466,-0.3018,13.9500,24.1500,-33.3750,
6.930210,-0.1850,0.2664,0.0514,0.1712,-0.0466,-0.3018,13.9500,24.1500,-33.3750,
6.942235,-0.1850,0.2664,0.0514,0.2691,-0.0812,-0.1439,13.9500,24.1500,-33.3750,
6.947677,-0.1850,0.2664,0.0514,0.2691,-0.0812,-0.1439,13.9500,24.1500,-33.3750,
6.948707,-0.1003,0.3279,-0.0868,0.2691,-0.0812,-0.1439,13.9500,24.1500,-33.3750,
6.966098,-0.1003,0.3279,-0.0868,0.2691,-0.0812,-0.1439,13.0500,24.4500,-33.7500,
6.972382,-0.1003,0.3279,-0.0868,0.2691,-0.0812,-0.1439,13.0500,24.4500,-33.7500,
6.973918,0.2087,0.3049,-0.3501,0.2691,-0.0812,-0.1439,13.0500,24.4500,-33.7500,
6.992533,0.2087,0.3049,-0.3501,0.2691,-0.0812,-0.1439,13.0500,24.4500,-33.7500,
6.994127,0.5325,0.2547,-0.3731,0.2691,-0.0812,-0.1439,13.0500,24.4500,-33.7500,
7.006805,0.5325,0.2547,-0.3731,0.3248,-0.0287,-0.0298,13.0500,24.4500,-33.7500,
7.010956,0.5325,0.2547,-0.3731,0.3248,-0.0287,-0.0298,13.0500,24.4500,-33.7500,
7.012462,0.4963,0.0784,-0.0078,0.3248,-0.0287,-0.0298,13.0500,24.4500,-33.7500,
7.031146,0.4963,0.0784,-0.0078,0.3248,-0.0287,-0.0298,13.0500,24.4500,-33.7500,
7.032852,0.1078,0.0559,0.2250,0.3248,-0.0287,-0.0298,13.0500,24.4500,-33.7500,
7.035819,0.1078,0.0559,0.2250,0.3248,-0.0287,-0.0298,15.1500,23.8500,-34.2750,
7.055350,0.1078,0.0559,0.2250,0.3248,-0.0287,-0.0298,15.1500,23.8500,-34.2750,
7.059252,-0.1932,0.2102,0.2162,0.3248,-0.0287,-0.0298,15.1500,23.8500,-34.2750,
7.079067,-0.1932,0.2102,0.2162,0.3248,-0.0287,-0.0298,15.1500,23.8500,-34.2750,
7.081944,-0.3419,0.3473,0.0656,0.3248,-0.0287,-0.0298,15.1500,23.8500,-34.2750,
7.085215,-0.3419,0.3473,0.0656,0.3412,0.0342,0.0076,15.1500,23.8500,-34.2750,
7.096841,-0.3419,0.3473,0.0656,0.3412,0.0342,0.0076,15.1500,23.8500,-34.2750,
7.099234,-0.1353,0.2586,-0.2458,0.3412,0.0342,0.0076,15.1500,23.8500,-34.2750,
7.109058,-0.1353,0.2586,-0.2458,0.3412,0.0342,0.0076,15.1500,22.5000,-34.8750,
7.113035,-0.1353,0.2586,-0.2458,0.3412,0.0342,0.0076,15.1500,22.5000,-34.8750,
7.114639,0.1872,0.3181,-0.4668,0.3412,0.0342,0.0076,15.1500,22.5000,-34.8750,
7.133019,0.1872,0.3181,-0.4668,0.3412,0.0342,0.0076,15.1500,22.5000,-34.8750,
7.135124,0.3885,0.4331,-0.2887,0.3412,0.0342,0.0076,15.1500,22.5000,-34.8750,
7.146972,0.3885,0.4331,-0.2887,0.3260,0.1194,0.0889,15.1500,22.5000,-34.8750,
7.152670,0.3885,0.4331,-0.2887,0.3260,0.1194,0.0889,15.1500,22.5000,-34.8750,
7.154127,0.3655,0.4642,-0.2121,0.3260,0.1194,0.0889,15.1500,22.5000,-34.8750,
7.172584,0.3655,0.4642,-0.2121,0.3260,0.1194,0.0889,15.1500,22.5000,-34.8750,
7.175139,0.1461,0.4379,-0.3814,0.3260,0.1194,0.0889,15.1500,22.5000,-34.8750,
7.177143,0.1461,0.4379,-0.3814,0.3260,0.1194,0.0889,15.6000,21.4500,-35.2500,
7.193101,0.1461,0.4379,-0.3814,0.3260,0.1194,0.0889,15.6000,21.4500,-35.2500,
7.195685,-0.0828,0.4014,-0.4247,0.3260,0.1194,0.0889,15.6000,21.4500,-35.2500,
7.210984,-0.0828,0.4014,-0.4247,0.3260,0.1194,0.0889,15.6000,21.4500,-35.2500,
7.213471,-0.1197,0.1582,-0.3022,0.3260,0.1194,0.0889,15.6000,21.4500,-35.2500,
7.215511,-0.1197,0.1582,-0.3022,0.2347,0.1092,-0.0582,15.6000,21.4500,-35.2500,
7.230574,-0.1197,0.1582,-0.3022,0.2347,0.1092,-0.0582,15.6000,21.4500,-35.2500,
7.233042,-0.0670,-0.0570,-0.2323,0.2347,0.1092,-0.0582,15.6000,21.4500,-35.2500,
7.245266,-0.0670,-0.0570,-0.2323,0.2347,0.1092,-0.0582,15.4500,20.8500,-35.4750,
7.247735,-0.0670,-0.0570,-0.2323,0.2347,0.1092,-0.0582,15.4500,20.8500,-35.4750,
7.248852,-0.0874,-0.1414,-0.0831,0.2347,0.1092,-0.0582,15.4500,20.8500,-35.4750,
7.269406,-0.0874,-0.1414,-0.0831,0.2347,0.1092,-0.0582,15.4500,20.8500,-35.4750,
7.272800,-0.0690,-0.2333,-0.1393,0.2347,0.1092,-0.0582,15.4500,20.8500,-35.4750,
7.284345,-0.0690,-0.2333,-0.1393,0.2356,0.0947,-0.0994,15.4500,20.8500,-35.4750,
7.293833,-0.0690,-0.2333,-0.1393,0.2356,0.0947,-0.0994,15.4500,20.8500,-35.4750,
7.297066,0.0248,-0.2300,-0.2177,0.2356,0.0947,-0.0994,15.4500,20.8500,-35.4750,
7.309634,0.0248,-0.2300,-0.2177,0.2356,0.0947,-0.0994,15.4500,20.8500,-35.4750,
7.312175,0.1178,-0.2631,-0.0412,0.2356,0.0947,-0.0994,15.4500,20.8500,-35.4750,
7.314996,0.1178,-0.2631,-0.0412,0.2356,0.0947,-0.0994,15.9000,20.8500,-35.9250,
7.328632,0.1178,-0.2631,-0.0412,0.2356,0.0947,-0.0994,15.9000,20.8500,-35.9250,
7.331208,0.0788,-0.3081,0.1745,0.2356,0.0947,-0.0994,15.9000,20.8500,-35.9250,
7.343648,0.0788,-0.3081,0.1745,0.2356,0.0947,-0.0994,15.9000,20.8500,-35.9250,
7.346067,0.0641,-0.1599,0.2356,0.2356,0.0947,-0.0994,15.9000,20.8500,-35.9250,
7.352738,0.0641,-0.1599,0.2356,0.2205,0.1026,-0.1220,15.9000,20.8500,-35.9250,
7.367900,0.0641,-0.1599,0.2356,0.2205,0.1026,-0.1220,15.9000,20.8500,-35.9250,
7.370089,-0.0509,0.1044,0.1414,0.2205,0.1026,-0.1220,15.9000,20.8500,-35.9250,
7.385406,-0.0509,0.1044,0.1414,0.2205,0.1026,-0.1220,16.1250,20.1000,-35.8500,
7.388198,-0.0509,0.1044,0.1414,0.2205,0.1026,-0.1220,16.1250,20.1000,-35.8500,
7.389585,-0.0220,0.2483,-0.0023,0.2205,0.1026,-0.1220,16.1250,20.1000,-35.8500,
7.406342,-0.0220,0.2483,-0.0023,0.2205,0.1026,-0.1220,16.1250,20.1000,-35.8500,
7.409479,0.1110,0.1203,-0.0943,0.2205,0.1026,-0.1220,16.1250,20.1000,-35.8500,
7.426589,0.1110,0.1203,-0.0943,0.2401,-0.0032,-0.2645,16.1250,20.1000,-35.8500,
7.431085,0.1110,0.1203,-0.0943,0.2401,-0.0032,-0.2645,16.1250,20.1000,-35.8500,
7.432952,0.1497,-0.0665,-0.0564,0.2401,-0.0032,-0.2645,16.1250,20.1000,-35.8500,
7.450254,0.1497,-0.0665,-0.0564,0.2401,-0.0032,-0.2645,16.1250,20.1000,-35.8500,
7.452714,0.0424,-0.1336,0.0511,0.2401,-0.0032,-0.2645,16.1250,20.1000,-35.8500,
7.458963,0.0424,-0.1336,0.0511,0.2401,-0.0032,-0.2645,15.4500,20.1000,-35.8500,
7.472276,0.0424,-0.1336,0.0511,0.2401,-0.0032,-0.2645,15.4500,20.1000,-35.8500,
7.474569,-0.2274,-0.1400,0.2027,0.2401,-0.0032,-0.2645,15.4500,20.1000,-35.8500,
7.496149,-0.2274,-0.1400,0.2027,0.2401,-0.0032,-0.2645,15.4500,20.1000,-35.8500,
7.498459,-0.4748,0.0238,0.1539,0.2401,-0.0032,-0.2645,15.4500,20.1000,-35.8500,
7.500372,-0.4748,0.0238,0.1539,0.2346,-0.1483,-0.3668,15.4500,20.1000,-35.8500,
7.509461,-0.4748,0.0238,0.1539,0.2346,-0.1483,-0.3668,15.4500,20.1000,-35.8500,
7.511439,-0.5674,0.2753,-0.0348,0.2346,-0.1483,-0.3668,15.4500,20.1000,-35.8500,
7.519098,-0.5674,0.2753,-0.0348,0.2346,-0.1483,-0.3668,15.5250,19.9500,-36.1500,
7.528805,-0.5674,0.2753,-0.0348,0.2346,-0.1483,-0.3668,15.5250,19.9500,-36.1500,
7.530651,-0.5655,0.5568,-0.2118,0.2346,-0.1483,-0.3668,15.5250,19.9500,-36.1500,
7.543980,-0.5655,0.5568,-0.2118,0.2346,-0.1483,-0.3668,15.5250,19.9500,-36.1500,
7.545462,-0.4575,0.7570,-0.3034,0.2346,-0.1483,-0.3668,15.5250,19.9500,-36.1500,
7.563606,-0.4575,0.7570,-0.3034,0.1906,-0.2721,-0.2610,15.5250,19.9500,-36.1500,
7.569904,-0.4575,0.7570,-0.3034,0.1906,-0.2721,-0.2610,15.5250,19.9500,-36.1500,
7.571344,-0.2973,0.7456,-0.0616,0.1906,-0.2721,-0.2610,15.5250,19.9500,-36.1500,
7.590012,-0.2973,0.7456,-0.0616,0.1906,-0.2721,-0.2610,15.5250,19.9500,-36.1500,
7.592018,-0.2229,0.5898,0.2173,0.1906,-0.2721,-0.2610,15.5250,19.9500,-36.1500,
7.593341,-0.2229,0.5898,0.2173,0.1906,-0.2721,-0.2610,14.1000,19.5000,-37.4250,
7.613099,-0.2229,0.5898,0.2173,0.1906,-0.2721,-0.2610,14.1000,19.5000,-37.4250,
7.617269,-0.1147,0.3420,0.1994,0.1906,-0.2721,-0.2610,14.1000,19.5000,-37.4250,
7.628010,-0.1147,0.3420,0.1994,0.1906,-0.2721,-0.2610,14.1000,19.5000,-37.4250,
7.630602,0.0326,0.0539,-0.0348,0.1906,-0.2721,-0.2610,14.1000,19.5000,-37.4250,
7.633034,0.0326,0.0539,-0.0348,0.0794,-0.4058,-0.2408,14.1000,19.5000,-37.4250,
7.643728,0.0326,0.0539,-0.0348,0.0794,-0.4058,-0.2408,14.1000,19.5000,-37.4250,
7.646541,0.1172,-0.1202,-0.1322,0.0794,-0.4058,-0.2408,14.1000,19.5000,-37.4250,
7.658800,0.1172,-0.1202,-0.1322,0.0794,-0.4058,-0.2408,12.6000,19.3500,-37.5750,
7.665150,0.1172,-0.1202,-0.1322,0.0794,-0.4058,-0.2408,12.6000,19.3500,-37.5750,
7.666568,0.2430,-0.0590,0.0216,0.0794,-0.4058,-0.2408,12.6000,19.3500,-37.5750,
7.690436,0.2430,-0.0590,0.0216,0.0794,-0.4058,-0.2408,12.6000,19.3500,-37.5750,
7.694613,0.2713,0.0711,0.1102,0.0794,-0.4058,-0.2408,12.6000,19.3500,-37.5750,
7.710591,0.2713,0.0711,0.1102,0.0735,-0.4164,-0.1049,12.6000,19.3500,-37.5750,
7.713426,0.2713,0.0711,0.1102,0.0735,-0.4164,-0.1049,12.6000,19.3500,-37.5750,
7.715504,0.2236,0.1659,0.1508,0.0735,-0.4164,-0.1049,12.6000,19.3500,-37.5750,
7.729438,0.2236,0.1659,0.1508,0.0735,-0.4164,-0.1049,12.6000,19.3500,-37.5750,
7.731376,0.3049,0.1946,0.2335,0.0735,-0.4164,-0.1049,12.6000,19.3500,-37.5750,
7.732934,0.3049,0.1946,0.2335,0.0735,-0.4164,-0.1049,11.4750,18.6000,-38.4750,
7.748749,0.3049,0.1946,0.2335,0.0735,-0.4164,-0.1049,11.4750,18.6000,-38.4750,
7.751627,0.3566,0.3033,0.1000,0.0735,-0.4164,-0.1049,11.4750,18.6000,-38.4750,
7.769214,0.3566,0.3033,0.1000,0.0735,-0.4164,-0.1049,11.4750,18.6000,-38.4750,
7.771684,0.3505,0.4072,0.0837,0.0735,-0.4164,-0.1049,11.4750,18.6000,-38.4750,
7.773896,0.3505,0.4072,0.0837,0.0814,-0.3044,-0.0137,11.4750,18.6000,-38.4750,
7.790927,0.3505,0.4072,0.0837,0.0814,-0.3044,-0.0137,11.4750,18.6000,-38.4750,
7.796718,0.3386,0.2937,0.2669,0.0814,-0.3044,-0.0137,11.4750,18.6000,-38.4750,
7.800422,0.3386,0.2937,0.2669,0.0814,-0.3044,-0.0137,9.9000,18.9750,-38.5500,
7.808567,0.3386,0.2937,0.2669,0.0814,-0.3044,-0.0137,9.9000,18.9750,-38.5500,
7.812655,0.2651,-0.0446,0.3725,0.0814,-0.3044,-0.0137,9.9000,18.9750,-38.5500,
7.827571,0.2651,-0.0446,0.3725,0.0814,-0.3044,-0.0137,9.9000,18.9750,-38.5500,
7.829665,0.0136,-0.2953,0.3566,0.0814,-0.3044,-0.0137,9.9000,18.9750,-38.5500,
7.841356,0.0136,-0.2953,0.3566,0.0156,-0.2443,-0.0067,9.9000,18.9750,-38.5500,
7.843972,0.0136,-0.2953,0.3566,0.0156,-0.2443,-0.0067,9.9000,18.9750,-38.5500,
7.845642,-0.0220,-0.3419,0.2768,0.0156,-0.2443,-0.0067,9.9000,18.9750,-38.5500,
7.866123,-0.0220,-0.3419,0.2768,0.0156,-0.2443,-0.0067,9.9000,18.9750,-38.5500,
7.868911,0.0353,-0.2125,0.0364,0.0156,-0.2443,-0.0067,9.9000,18.9750,-38.5500,
7.870501,0.0353,-0.2125,0.0364,0.0156,-0.2443,-0.0067,9.2250,18.7500,-39.0750,
7.885520,0.0353,-0.2125,0.0364,0.0156,-0.2443,-0.0067,9.2250,18.7500,-39.0750,
7.887589,0.0355,0.0048,-0.1398,0.0156,-0.2443,-0.0067,9.2250,18.7500,-39.0750,
7.906822,0.0355,0.0048,-0.1398,0.0156,-0.2443,-0.0067,9.2250,18.7500,-39.0750,
7.909796,0.0082,0.2004,-0.2077,0.0156,-0.2443,-0.0067,9.2250,18.7500,-39.0750,
7.911553,0.0082,0.2004,-0.2077,0.0437,-0.1776,0.0832,9.2250,18.7500,-39.0750,
7.928540,0.0082,0.2004,-0.2077,0.0437,-0.1776,0.0832,9.2250,18.7500,-39.0750,
7.931476,0.0862,0.1315,-0.1923,0.0437,-0.1776,0.0832,9.2250,18.7500,-39.0750,
7.935880,0.0862,0.1315,-0.1923,0.0437,-0.1776,0.0832,8.7750,18.6000,-38.5500,
7.944474,0.0862,0.1315,-0.1923,0.0437,-0.1776,0.0832,8.7750,18.6000,-38.5500,
7.948601,0.0439,0.1702,-0.3665,0.0437,-0.1776,0.0832,8.7750,18.6000,-38.5500,
7.964893,0.0439,0.1702,-0.3665,0.0437,-0.1776,0.0832,8.7750,18.6000,-38.5500,
7.967596,0.0291,0.0761,-0.3105,0.0437,-0.1776,0.0832,8.7750,18.6000,-38.5500,
7.978789,0.0291,0.0761,-0.3105,-0.0466,-0.1263,0.0965,8.7750,18.6000,-38.5500,
7.988580,0.0291,0.0761,-0.3105,-0.0466,-0.1263,0.0965,8.7750,18.6000,-38.5500,
7.991064,0.0351,-0.1760,0.1901,-0.0466,-0.1263,0.0965,8.7750,18.6000,-38.5500,
8.010670,0.0351,-0.1760,0.1901,-0.0466,-0.1263,0.0965,8.7750,18.6000,-38.5500,
8.013519,0.0324,-0.1721,-0.0299,-0.0466,-0.1263,0.0965,8.7750,18.6000,-38.5500,
8.015385,0.0324,-0.1721,-0.0299,-0.0466,-0.1263,0.0965,8.7000,17.5500,-39.1500,
8.027826,0.0324,-0.1721,-0.0299,-0.0466,-0.1263,0.0965,8.7000,17.5500,-39.1500,
8.029657,0.0996,-0.2014,-0.0756,-0.0466,-0.1263,0.0965,8.7000,17.5500,-39.1500,
8.043167,0.0996,-0.2014,-0.0756,-0.0466,-0.1263,0.0965,8.7000,17.5500,-39.1500,
8.046394,0.0492,-0.0759,-0.0768,-0.0466,-0.1263,0.0965,8.7000,17.5500,-39.1500,
8.051944,0.0492,-0.0759,-0.0768,0.0808,-0.0176,0.1471,8.7000,17.5500,-39.1500,
8.066509,0.0492,-0.0759,-0.0768,0.0808,-0.0176,0.1471,8.7000,17.5500,-39.1500,
8.068867,0.0009,-0.0630,-0.3090,0.0808,-0.0176,0.1471,8.7000,17.5500,-39.1500,
8.077548,0.0009,-0.0630,-0.3090,0.0808,-0.0176,0.1471,8.6250,18.1500,-39.1500,
8.086406,0.0009,-0.0630,-0.3090,0.0808,-0.0176,0.1471,8.6250,18.1500,-39.1500,
8.088238,-0.0781,-0.0560,-0.1141,0.0808,-0.0176,0.1471,8.6250,18.1500,-39.1500,
8.105711,-0.0781,-0.0560,-0.1141,0.0808,-0.0176,0.1471,8.6250,18.1500,-39.1500,
8.109020,-0.2000,-0.1275,0.1513,0.0808,-0.0176,0.1471,8.6250,18.1500,-39.1500,
8.122397,-0.2000,-0.1275,0.1513,0.0738,-0.0124,0.1264,8.6250,18.1500,-39.1500,
8.125691,-0.2000,-0.1275,0.1513,0.0738,-0.0124,0.1264,8.6250,18.1500,-39.1500,
8.127094,-0.2397,-0.1957,-0.0255,0.0738,-0.0124,0.1264,8.6250,18.1500,-39.1500,
8.143576,-0.2397,-0.1957,-0.0255,0.0738,-0.0124,0.1264,8.6250,18.1500,-39.1500,
8.146282,-0.3617,-0.1517,-0.1186,0.0738,-0.0124,0.1264,8.6250,18.1500,-39.1500,
8.149583,-0.3617,-0.1517,-0.1186,0.0738,-0.0124,0.1264,8.1000,18.0750,-39.3750,
8.164554,-0.3617,-0.1517,-0.1186,0.0738,-0.0124,0.1264,8.1000,18.0750,-39.3750,
8.166247,-0.3912,-0.1347,-0.0662,0.0738,-0.0124,0.1264,8.1000,18.0750,-39.3750,
8.184187,-0.3912,-0.1347,-0.0662,0.0738,-0.0124,0.1264,8.1000,18.0750,-39.3750,
8.186186,-0.3293,-0.0598,0.0032,0.0738,-0.0124,0.1264,8.1000,18.0750,-39.3750,
8.193058,-0.3293,-0.0598,0.0032,0.1023,0.0055,0.1513,8.1000,18.0750,-39.3750,
8.205605,-0.3293,-0.0598,0.0032,0.1023,0.0055,0.1513,8.1000,18.0750,-39.3750,
8.208448,-0.2802,0.1752,-0.0047,0.1023,0.0055,0.1513,8.1000,18.0750,-39.3750,
8.215927,-0.2802,0.1752,-0.0047,0.1023,0.0055,0.1513,9.0000,17.5500,-39.4500,
8.227852,-0.2802,0.1752,-0.0047,0.1023,0.0055,0.1513,9.0000,17.5500,-39.4500,
8.229438,-0.1809,0.0315,-0.5462,0.1023,0.0055,0.1513,9.0000,17.5500,-39.4500,
8.244860,-0.1809,0.0315,-0.5462,0.1023,0.0055,0.1513,9.0000,17.5500,-39.4500,
8.246077,-0.2794,0.0852,-0.0789,0.1023,0.0055,0.1513,9.0000,17.5500,-39.4500,
8.258105,-0.2794,0.0852,-0.0789,0.0747,-0.0725,0.1752,9.0000,17.5500,-39.4500,
8.262912,-0.2794,0.0852,-0.0789,0.0747,-0.0725,0.1752,9.0000,17.5500,-39.4500,
8.264081,-0.4239,0.1316,-0.0072,0.0747,-0.0725,0.1752,9.0000,17.5500,-39.4500,
8.283028,-0.4239,0.1316,-0.0072,0.0747,-0.0725,0.1752,9.0000,17.5500,-39.4500,
8.284776,-0.4152,0.0832,0.0015,0.0747,-0.0725,0.1752,9.0000,17.5500,-39.4500,
8.285824,-0.4152,0.0832,0.0015,0.0747,-0.0725,0.1752,9.0750,17.4750,-39.5250,
8.302995,-0.4152,0.0832,0.0015,0.0747,-0.0725,0.1752,9.0750,17.4750,-39.5250,
8.304630,-0.3056,0.0155,-0.0796,0.0747,-0.0725,0.1752,9.0750,17.4750,-39.5250,
8.327838,-0.3056,0.0155,-0.0796,0.0747,-0.0725,0.1752,9.0750,17.4750,-39.5250,
8.329789,-0.0464,0.1036,-0.1739,0.0747,-0.0725,0.1752,9.0750,17.4750,-39.5250,
8.331111,-0.0464,0.1036,-0.1739,0.0655,-0.0472,0.2052,9.0750,17.4750,-39.5250,
8.345288,-0.0464,0.1036,-0.1739,0.0655,-0.0472,0.2052,9.0750,17.4750,-39.5250,
8.350641,0.1354,-0.1307,-0.1543,0.0655,-0.0472,0.2052,9.0750,17.4750,-39.5250,
8.362936,0.1354,-0.1307,-0.1543,0.0655,-0.0472,0.2052,9.8250,17.1000,-39.5250,
8.365556,0.1354,-0.1307,-0.1543,0.0655,-0.0472,0.2052,9.8250,17.1000,-39.5250,
8.367162,0.0179,-0.2489,0.3135,0.0655,-0.0472,0.2052,9.8250,17.1000,-39.5250,
8.385428,0.0179,-0.2489,0.3135,0.0655,-0.0472,0.2052,9.8250,17.1000,-39.5250,
8.386727,-0.0810,-0.2665,0.6914,0.0655,-0.0472,0.2052,9.8250,17.1000,-39.5250,
8.399533,-0.0810,-0.2665,0.6914,0.0591,-0.0047,0.1649,9.8250,17.1000,-39.5250,
8.409955,-0.0810,-0.2665,0.6914,0.0591,-0.0047,0.1649,9.8250,17.1000,-39.5250,
8.411596,-0.1190,-0.0420,-0.2487,0.0591,-0.0047,0.1649,9.8250,17.1000,-39.5250,
8.426953,-0.1190,-0.0420,-0.2487,0.0591,-0.0047,0.1649,9.8250,17.1000,-39.5250,
8.429326,-0.1389,0.1100,-0.1578,0.0591,-0.0047,0.1649,9.8250,17.1000,-39.5250,
8.430094,-0.1389,0.1100,-0.1578,0.0591,-0.0047,0.1649,9.6750,17.5500,-39.7500,
8.442907,-0.1389,0.1100,-0.1578,0.0591,-0.0047,0.1649,9.6750,17.5500,-39.7500,
8.444074,-0.3090,0.1260,0.3104,0.0591,-0.0047,0.1649,9.6750,17.5500,-39.7500,
