
time,ax,ay,az,wx,wy,wz,Bx,By,Bz,
0.084211,0.0000,0.0000,0.0000,0.0000,0.0000,0.0000,0.0000,0.0000,0.0000,
0.084676,0.0000,0.0000,0.0000,0.0000,0.0000,0.0000,0.0000,0.0000,0.0000,
0.085087,0.0000,0.0000,0.0000,0.0000,0.0000,0.0000,0.0000,0.0000,0.0000,
0.109268,0.0000,0.0000,0.0000,0.0000,0.0000,0.0000,16.5000,9.2250,-39.1500,
0.122054,0.0000,0.0000,0.0000,0.0000,0.0000,0.0000,16.5000,9.2250,-39.1500,
0.123453,0.0258,-0.0008,-0.0609,0.0000,0.0000,0.0000,16.5000,9.2250,-39.1500,
0.141674,0.0258,-0.0008,-0.0609,0.0000,0.0000,0.0000,16.5000,9.2250,-39.1500,
0.143253,-0.0023,-0.0012,-0.0070,0.0000,0.0000,0.0000,16.5000,9.2250,-39.1500,
0.145679,-0.0023,-0.0012,-0.0070,-0.0418,-0.1410,0.0234,16.5000,9.2250,-39.1500,
0.161590,-0.0023,-0.0012,-0.0070,-0.0418,-0.1410,0.0234,16.5000,9.2250,-39.1500,
0.163813,-0.0206,0.0435,-0.0284,-0.0418,-0.1410,0.0234,16.5000,9.2250,-39.1500,
0.180564,-0.0206,0.0435,-0.0284,-0.0418,-0.1410,0.0234,15.9750,9.3000,-40.3500,
0.188978,-0.0206,0.0435,-0.0284,-0.0418,-0.1410,0.0234,15.9750,9.3000,-40.3500,
0.191188,0.0160,0.0518,-0.0289,-0.0418,-0.1410,0.0234,15.9750,9.3000,-40.3500,
0.205491,0.0160,0.0518,-0.0289,-0.0418,-0.1410,0.0234,15.9750,9.3000,-40.3500,
0.207417,0.0240,0.0660,-0.0218,-0.0418,-0.1410,0.0234,15.9750,9.3000,-40.3500,
0.223851,0.0240,0.0660,-0.0218,-0.0405,-0.1765,0.0232,15.9750,9.3000,-40.3500,
0.227337,0.0240,0.0660,-0.0218,-0.0405,-0.1765,0.0232,15.9750,9.3000,-40.3500,
0.228785,0.0267,0.0510,0.0195,-0.0405,-0.1765,0.0232,15.9750,9.3000,-40.3500,
0.243875,0.0267,0.0510,0.0195,-0.0405,-0.1765,0.0232,15.9750,9.3000,-40.3500,
0.246268,0.0438,0.0011,0.0443,-0.0405,-0.1765,0.0232,15.9750,9.3000,-40.3500,
0.248170,0.0438,0.0011,0.0443,-0.0405,-0.1765,0.0232,15.3750,10.0500,-40.2000,
0.262706,0.0438,0.0011,0.0443,-0.0405,-0.1765,0.0232,15.3750,10.0500,-40.2000,
0.264683,0.0938,0.0116,0.0139,-0.0405,-0.1765,0.0232,15.3750,10.0500,-40.2000,
0.282757,0.0938,0.0116,0.0139,-0.0405,-0.1765,0.0232,15.3750,10.0500,-40.2000,
0.285688,0.1323,0.0470,-0.0032,-0.0405,-0.1765,0.0232,15.3750,10.0500,-40.2000,
0.288506,0.1323,0.0470,-0.0032,-0.0185,-0.2285,0.0133,15.3750,10.0500,-40.2000,
0.302712,0.1323,0.0470,-0.0032,-0.0185,-0.2285,0.0133,15.3750,10.0500,-40.2000,
0.304589,0.1178,0.0638,-0.0085,-0.0185,-0.2285,0.0133,15.3750,10.0500,-40.2000,
0.311904,0.1178,0.0638,-0.0085,-0.0185,-0.2285,0.0133,14.8500,9.9000,-40.2000,
0.324277,0.1178,0.0638,-0.0085,-0.0185,-0.2285,0.0133,14.8500,9.9000,-40.2000,
0.325167,0.1461,0.0580,0.0113,-0.0185,-0.2285,0.0133,14.8500,9.9000,-40.2000,
0.342081,0.1461,0.0580,0.0113,-0.0185,-0.2285,0.0133,14.8500,9.9000,-40.2000,
0.343217,0.1716,0.0241,0.0271,-0.0185,-0.2285,0.0133,14.8500,9.9000,-40.2000,
0.356607,0.1716,0.0241,0.0271,-0.0075,-0.2492,0.0015,14.8500,9.9000,-40.2000,
0.361624,0.1716,0.0241,0.0271,-0.0075,-0.2492,0.0015,14.8500,9.9000,-40.2000,
0.363094,0.1741,-0.0194,0.0463,-0.0075,-0.2492,0.0015,14.8500,9.9000,-40.2000,
0.381371,0.1741,-0.0194,0.0463,-0.0075,-0.2492,0.0015,14.8500,9.9000,-40.2000,
0.383293,0.2356,-0.0345,0.0349,-0.0075,-0.2492,0.0015,14.8500,9.9000,-40.2000,
0.384924,0.2356,-0.0345,0.0349,-0.0075,-0.2492,0.0015,14.7750,9.4500,-40.1250,
0.402131,0.2356,-0.0345,0.0349,-0.0075,-0.2492,0.0015,14.7750,9.4500,-40.1250,
0.403929,0.2687,0.0045,0.0114,-0.0075,-0.2492,0.0015,14.7750,9.4500,-40.1250,
0.425540,0.2687,0.0045,0.0114,-0.0075,-0.2492,0.0015,14.7750,9.4500,-40.1250,
0.428818,0.1243,0.0632,-0.0481,-0.0075,-0.2492,0.0015,14.7750,9.4500,-40.1250,
0.431797,0.1243,0.0632,-0.0481,-0.0093,-0.2404,0.0063,14.7750,9.4500,-40.1250,
0.443886,0.1243,0.0632,-0.0481,-0.0093,-0.2404,0.0063,14.7750,9.4500,-40.1250,
0.445907,0.1499,0.0759,-0.0572,-0.0093,-0.2404,0.0063,14.7750,9.4500,-40.1250,
0.454368,0.1499,0.0759,-0.0572,-0.0093,-0.2404,0.0063,13.8750,9.3000,-41.2500,
0.463081,0.1499,0.0759,-0.0572,-0.0093,-0.2404,0.0063,13.8750,9.3000,-41.2500,
0.465411,0.1486,0.1148,-0.0377,-0.0093,-0.2404,0.0063,13.8750,9.3000,-41.2500,
0.485625,0.1486,0.1148,-0.0377,-0.0093,-0.2404,0.0063,13.8750,9.3000,-41.2500,
0.488460,0.1556,0.0827,-0.0748,-0.0093,-0.2404,0.0063,13.8750,9.3000,-41.2500,
0.497311,0.1556,0.0827,-0.0748,-0.0176,-0.2309,0.0263,13.8750,9.3000,-41.2500,
0.503317,0.1556,0.0827,-0.0748,-0.0176,-0.2309,0.0263,13.8750,9.3000,-41.2500,
0.504888,0.1853,0.1078,-0.1029,-0.0176,-0.2309,0.0263,13.8750,9.3000,-41.2500,
0.522451,0.1853,0.1078,-0.1029,-0.0176,-0.2309,0.0263,13.8750,9.3000,-41.2500,
0.523595,0.2108,0.1359,-0.0486,-0.0176,-0.2309,0.0263,13.8750,9.3000,-41.2500,
0.524680,0.2108,0.1359,-0.0486,-0.0176,-0.2309,0.0263,12.6000,9.9750,-40.9500,
0.542000,0.2108,0.1359,-0.0486,-0.0176,-0.2309,0.0263,12.6000,9.9750,-40.9500,
0.542972,0.2505,0.1297,-0.0876,-0.0176,-0.2309,0.0263,12.6000,9.9750,-40.9500,
0.561085,0.2505,0.1297,-0.0876,-0.0176,-0.2309,0.0263,12.6000,9.9750,-40.9500,
0.561816,0.2983,0.1126,-0.2072,-0.0176,-0.2309,0.0263,12.6000,9.9750,-40.9500,
0.566313,0.2983,0.1126,-0.2072,-0.0585,-0.2225,0.0651,12.6000,9.9750,-40.9500,
0.581926,0.2983,0.1126,-0.2072,-0.0585,-0.2225,0.0651,12.6000,9.9750,-40.9500,
0.583177,0.3062,0.0633,-0.1728,-0.0585,-0.2225,0.0651,12.6000,9.9750,-40.9500,
0.592712,0.3062,0.0633,-0.1728,-0.0585,-0.2225,0.0651,12.3000,9.9750,-41.7000,
0.605686,0.3062,0.0633,-0.1728,-0.0585,-0.2225,0.0651,12.3000,9.9750,-41.7000,
0.607462,0.1894,-0.0531,-0.0716,-0.0585,-0.2225,0.0651,12.3000,9.9750,-41.7000,
0.622576,0.1894,-0.0531,-0.0716,-0.0585,-0.2225,0.0651,12.3000,9.9750,-41.7000,
0.624388,-0.0548,-0.0666,-0.0803,-0.0585,-0.2225,0.0651,12.3000,9.9750,-41.7000,
0.639312,-0.0548,-0.0666,-0.0803,-0.1139,-0.2750,0.0990,12.3000,9.9750,-41.7000,
0.641683,-0.0548,-0.0666,-0.0803,-0.1139,-0.2750,0.0990,12.3000,9.9750,-41.7000,
0.643600,-0.3954,-0.0409,-0.2267,-0.1139,-0.2750,0.0990,12.3000,9.9750,-41.7000,
0.660222,-0.3954,-0.0409,-0.2267,-0.1139,-0.2750,0.0990,12.3000,9.9750,-41.7000,
0.662332,-0.6612,0.0647,-0.2920,-0.1139,-0.2750,0.0990,12.3000,9.9750,-41.7000,
0.664138,-0.6612,0.0647,-0.2920,-0.1139,-0.2750,0.0990,11.2500,9.9000,-41.0250,
0.675593,-0.6612,0.0647,-0.2920,-0.1139,-0.2750,0.0990,11.2500,9.9000,-41.0250,
0.677742,-0.9108,0.1961,-0.3321,-0.1139,-0.2750,0.0990,11.2500,9.9000,-41.0250,
0.707881,-0.9108,0.1961,-0.3321,-0.1738,-0.3858,0.1429,11.2500,9.9000,-41.0250,
0.709727,-0.9108,0.1961,-0.3321,-0.1738,-0.3858,0.1429,11.2500,9.9000,-41.0250,
0.711098,-1.0342,0.3078,-0.3291,-0.1738,-0.3858,0.1429,11.2500,9.9000,-41.0250,
0.721567,-1.0342,0.3078,-0.3291,-0.1738,-0.3858,0.1429,11.2500,9.9000,-41.0250,
0.723201,-1.0287,0.2606,-0.2511,-0.1738,-0.3858,0.1429,11.2500,9.9000,-41.0250,
0.729045,-1.0287,0.2606,-0.2511,-0.1738,-0.3858,0.1429,10.6500,10.2750,-41.1750,
0.741309,-1.0287,0.2606,-0.2511,-0.1738,-0.3858,0.1429,10.6500,10.2750,-41.1750,
0.742684,-0.9077,0.1633,-0.1995,-0.1738,-0.3858,0.1429,10.6500,10.2750,-41.1750,
0.756853,-0.9077,0.1633,-0.1995,-0.1738,-0.3858,0.1429,10.6500,10.2750,-41.1750,
0.759454,-0.8372,0.1427,-0.1675,-0.1738,-0.3858,0.1429,10.6500,10.2750,-41.1750,
0.771924,-0.8372,0.1427,-0.1675,-0.2613,-0.4326,0.1193,10.6500,10.2750,-41.1750,
0.775170,-0.8372,0.1427,-0.1675,-0.2613,-0.4326,0.1193,10.6500,10.2750,-41.1750,
0.776869,-0.8790,0.1247,-0.0696,-0.2613,-0.4326,0.1193,10.6500,10.2750,-41.1750,
0.796137,-0.8790,0.1247,-0.0696,-0.2613,-0.4326,0.1193,10.6500,10.2750,-41.1750,
0.799007,-0.9251,0.0777,0.0395,-0.2613,-0.4326,0.1193,10.6500,10.2750,-41.1750,
0.801019,-0.9251,0.0777,0.0395,-0.2613,-0.4326,0.1193,9.6750,11.1000,-41.3250,
0.820258,-0.9251,0.0777,0.0395,-0.2613,-0.4326,0.1193,9.6750,11.1000,-41.3250,
0.822894,-0.9616,0.0659,0.1375,-0.2613,-0.4326,0.1193,9.6750,11.1000,-41.3250,
0.839898,-0.9616,0.0659,0.1375,-0.2613,-0.4326,0.1193,9.6750,11.1000,-41.3250,
0.842209,-0.9905,0.0980,0.1562,-0.2613,-0.4326,0.1193,9.6750,11.1000,-41.3250,
0.844556,-0.9905,0.0980,0.1562,-0.1831,-0.3890,0.0012,9.6750,11.1000,-41.3250,
0.859877,-0.9905,0.0980,0.1562,-0.1831,-0.3890,0.0012,9.6750,11.1000,-41.3250,
0.863463,-0.9768,0.3049,0.1186,-0.1831,-0.3890,0.0012,9.6750,11.1000,-41.3250,
0.869543,-0.9768,0.3049,0.1186,-0.1831,-0.3890,0.0012,8.5500,11.5500,-41.4000,
0.874809,-0.9768,0.3049,0.1186,-0.1831,-0.3890,0.0012,8.5500,11.5500,-41.4000,
0.876566,-0.9903,0.4567,0.0358,-0.1831,-0.3890,0.0012,8.5500,11.5500,-41.4000,
0.898738,-0.9903,0.4567,0.0358,-0.1831,-0.3890,0.0012,8.5500,11.5500,-41.4000,
0.901291,-1.0548,0.4950,-0.1419,-0.1831,-0.3890,0.0012,8.5500,11.5500,-41.4000,
0.914188,-1.0548,0.4950,-0.1419,-0.0599,-0.2840,-0.1110,8.5500,11.5500,-41.4000,
0.923160,-1.0548,0.4950,-0.1419,-0.0599,-0.2840,-0.1110,8.5500,11.5500,-41.4000,
0.925776,-1.0404,0.3177,-0.3392,-0.0599,-0.2840,-0.1110,8.5500,11.5500,-41.4000,
0.939310,-1.0404,0.3177,-0.3392,-0.0599,-0.2840,-0.1110,8.5500,11.5500,-41.4000,
0.941960,-0.8178,-0.2226,-0.4627,-0.0599,-0.2840,-0.1110,8.5500,11.5500,-41.4000,
0.944205,-0.8178,-0.2226,-0.4627,-0.0599,-0.2840,-0.1110,6.7500,11.6250,-42.2250,
0.957455,-0.8178,-0.2226,-0.4627,-0.0599,-0.2840,-0.1110,6.7500,11.6250,-42.2250,
0.960402,-0.5934,-0.4376,-0.2732,-0.0599,-0.2840,-0.1110,6.7500,11.6250,-42.2250,
0.974630,-0.5934,-0.4376,-0.2732,-0.0599,-0.2840,-0.1110,6.7500,11.6250,-42.2250,
0.977225,-0.4108,-0.4452,-0.1926,-0.0599,-0.2840,-0.1110,6.7500,11.6250,-42.2250,
0.981448,-0.4108,-0.4452,-0.1926,-0.0614,-0.1843,-0.1762,6.7500,11.6250,-42.2250,
0.997122,-0.4108,-0.4452,-0.1926,-0.0614,-0.1843,-0.1762,6.7500,11.6250,-42.2250,
0.999014,-0.2465,-0.2645,-0.1381,-0.0614,-0.1843,-0.1762,6.7500,11.6250,-42.2250,
1.009843,-0.2465,-0.2645,-0.1381,-0.0614,-0.1843,-0.1762,6.7500,11.2500,-41.3250,
1.016364,-0.2465,-0.2645,-0.1381,-0.0614,-0.1843,-0.1762,6.7500,11.2500,-41.3250,
1.017814,-0.1868,0.1029,-0.1240,-0.0614,-0.1843,-0.1762,6.7500,11.2500,-41.3250,
1.038569,-0.1868,0.1029,-0.1240,-0.0614,-0.1843,-0.1762,6.7500,11.2500,-41.3250,
1.041718,-0.3784,0.3564,0.0954,-0.0614,-0.1843,-0.1762,6.7500,11.2500,-41.3250,
1.056503,-0.3784,0.3564,0.0954,-0.1129,-0.1810,-0.3004,6.7500,11.2500,-41.3250,
1.059276,-0.3784,0.3564,0.0954,-0.1129,-0.1810,-0.3004,6.7500,11.2500,-41.3250,
1.060934,-0.4879,0.4757,0.2708,-0.1129,-0.1810,-0.3004,6.7500,11.2500,-41.3250,
1.075014,-0.4879,0.4757,0.2708,-0.1129,-0.1810,-0.3004,6.7500,11.2500,-41.3250,
1.077572,-0.5787,0.3606,0.3378,-0.1129,-0.1810,-0.3004,6.7500,11.2500,-41.3250,
1.089365,-0.5787,0.3606,0.3378,-0.1129,-0.1810,-0.3004,5.7750,11.8500,-41.5500,
1.098867,-0.5787,0.3606,0.3378,-0.1129,-0.1810,-0.3004,5.7750,11.8500,-41.5500,
1.100588,-0.5534,0.1278,0.3647,-0.1129,-0.1810,-0.3004,5.7750,11.8500,-41.5500,
1.118140,-0.5534,0.1278,0.3647,-0.1129,-0.1810,-0.3004,5.7750,11.8500,-41.5500,
1.120820,-0.3450,-0.0639,0.2452,-0.1129,-0.1810,-0.3004,5.7750,11.8500,-41.5500,
1.123630,-0.3450,-0.0639,0.2452,-0.0831,-0.0953,-0.3210,5.7750,11.8500,-41.5500,
1.140774,-0.3450,-0.0639,0.2452,-0.0831,-0.0953,-0.3210,5.7750,11.8500,-41.5500,
1.143897,-0.1721,-0.1094,0.0915,-0.0831,-0.0953,-0.3210,5.7750,11.8500,-41.5500,
1.148368,-0.1721,-0.1094,0.0915,-0.0831,-0.0953,-0.3210,5.1750,12.0750,-42.0750,
1.158220,-0.1721,-0.1094,0.0915,-0.0831,-0.0953,-0.3210,5.1750,12.0750,-42.0750,
1.160330,-0.2250,0.0112,0.1424,-0.0831,-0.0953,-0.3210,5.1750,12.0750,-42.0750,
1.174521,-0.2250,0.0112,0.1424,-0.0831,-0.0953,-0.3210,5.1750,12.0750,-42.0750,
1.176778,-0.2867,0.2283,0.2218,-0.0831,-0.0953,-0.3210,5.1750,12.0750,-42.0750,
1.192801,-0.2867,0.2283,0.2218,-0.0812,-0.0771,-0.3489,5.1750,12.0750,-42.0750,
1.199046,-0.2867,0.2283,0.2218,-0.0812,-0.0771,-0.3489,5.1750,12.0750,-42.0750,
1.200025,-0.2990,0.4130,0.2139,-0.0812,-0.0771,-0.3489,5.1750,12.0750,-42.0750,
1.217605,-0.2990,0.4130,0.2139,-0.0812,-0.0771,-0.3489,5.1750,12.0750,-42.0750,
1.219423,-0.3034,0.3721,0.2402,-0.0812,-0.0771,-0.3489,5.1750,12.0750,-42.0750,
1.221079,-0.3034,0.3721,0.2402,-0.0812,-0.0771,-0.3489,4.8750,12.2250,-42.0750,
1.236394,-0.3034,0.3721,0.2402,-0.0812,-0.0771,-0.3489,4.8750,12.2250,-42.0750,
1.238203,-0.2596,0.1489,0.2591,-0.0812,-0.0771,-0.3489,4.8750,12.2250,-42.0750,
1.257308,-0.2596,0.1489,0.2591,-0.0812,-0.0771,-0.3489,4.8750,12.2250,-42.0750,
1.258947,0.0401,0.0345,0.2868,-0.0812,-0.0771,-0.3489,4.8750,12.2250,-42.0750,
1.261479,0.0401,0.0345,0.2868,-0.0565,-0.0661,-0.3256,4.8750,12.2250,-42.0750,
1.275497,0.0401,0.0345,0.2868,-0.0565,-0.0661,-0.3256,4.8750,12.2250,-42.0750,
1.276880,0.2442,-0.0434,0.1643,-0.0565,-0.0661,-0.3256,4.8750,12.2250,-42.0750,
1.290075,0.2442,-0.0434,0.1643,-0.0565,-0.0661,-0.3256,4.3500,12.7500,-41.6250,
1.297000,0.2442,-0.0434,0.1643,-0.0565,-0.0661,-0.3256,4.3500,12.7500,-41.6250,
1.298604,0.2928,-0.0572,0.1402,-0.0565,-0.0661,-0.3256,4.3500,12.7500,-41.6250,
1.315759,0.2928,-0.0572,0.1402,-0.0565,-0.0661,-0.3256,4.3500,12.7500,-41.6250,
1.319994,0.1484,0.0667,0.1260,-0.0565,-0.0661,-0.3256,4.3500,12.7500,-41.6250,
1.331513,0.1484,0.0667,0.1260,-0.0800,-0.0890,-0.3561,4.3500,12.7500,-41.6250,
1.340854,0.1484,0.0667,0.1260,-0.0800,-0.0890,-0.3561,4.3500,12.7500,-41.6250,
1.343261,0.0254,0.3049,0.0015,-0.0800,-0.0890,-0.3561,4.3500,12.7500,-41.6250,
1.358592,0.0254,0.3049,0.0015,-0.0800,-0.0890,-0.3561,4.3500,12.7500,-41.6250,
1.360796,0.1064,0.5884,-0.1046,-0.0800,-0.0890,-0.3561,4.3500,12.7500,-41.6250,
1.362729,0.1064,0.5884,-0.1046,-0.0800,-0.0890,-0.3561,4.5000,12.6750,-41.1750,
1.374411,0.1064,0.5884,-0.1046,-0.0800,-0.0890,-0.3561,4.5000,12.6750,-41.1750,
1.376351,0.1678,0.6668,-0.2241,-0.0800,-0.0890,-0.3561,4.5000,12.6750,-41.1750,
1.397773,0.1678,0.6668,-0.2241,-0.0800,-0.0890,-0.3561,4.5000,12.6750,-41.1750,
1.400620,0.2038,0.5650,-0.2494,-0.0800,-0.0890,-0.3561,4.5000,12.6750,-41.1750,
1.402976,0.2038,0.5650,-0.2494,-0.1564,-0.1171,-0.3040,4.5000,12.6750,-41.1750,
1.417558,0.2038,0.5650,-0.2494,-0.1564,-0.1171,-0.3040,4.5000,12.6750,-41.1750,
1.419820,0.1976,0.4782,-0.2248,-0.1564,-0.1171,-0.3040,4.5000,12.6750,-41.1750,
1.428893,0.1976,0.4782,-0.2248,-0.1564,-0.1171,-0.3040,3.4500,12.6000,-40.8000,
1.437724,0.1976,0.4782,-0.2248,-0.1564,-0.1171,-0.3040,3.4500,12.6000,-40.8000,
1.439728,0.1440,0.5091,-0.2515,-0.1564,-0.1171,-0.3040,3.4500,12.6000,-40.8000,
1.456159,0.1440,0.5091,-0.2515,-0.1564,-0.1171,-0.3040,3.4500,12.6000,-40.8000,
1.459164,0.1125,0.5235,-0.2720,-0.1564,-0.1171,-0.3040,3.4500,12.6000,-40.8000,
1.471844,0.1125,0.5235,-0.2720,-0.2547,-0.1202,-0.2535,3.4500,12.6000,-40.8000,
1.475601,0.1125,0.5235,-0.2720,-0.2547,-0.1202,-0.2535,3.4500,12.6000,-40.8000,
1.477259,0.1072,0.3969,-0.1307,-0.2547,-0.1202,-0.2535,3.4500,12.6000,-40.8000,
1.495342,0.1072,0.3969,-0.1307,-0.2547,-0.1202,-0.2535,3.4500,12.6000,-40.8000,
1.498150,0.1287,0.1818,-0.0172,-0.2547,-0.1202,-0.2535,3.4500,12.6000,-40.8000,
1.500540,0.1287,0.1818,-0.0172,-0.2547,-0.1202,-0.2535,3.0750,13.5750,-41.3250,
1.514566,0.1287,0.1818,-0.0172,-0.2547,-0.1202,-0.2535,3.0750,13.5750,-41.3250,
1.516813,0.1031,0.0638,-0.0628,-0.2547,-0.1202,-0.2535,3.0750,13.5750,-41.3250,
1.534518,0.1031,0.0638,-0.0628,-0.2547,-0.1202,-0.2535,3.0750,13.5750,-41.3250,
1.536731,0.0443,0.1430,-0.1875,-0.2547,-0.1202,-0.2535,3.0750,13.5750,-41.3250,
1.539058,0.0443,0.1430,-0.1875,-0.2804,-0.1278,-0.1886,3.0750,13.5750,-41.3250,
1.554451,0.0443,0.1430,-0.1875,-0.2804,-0.1278,-0.1886,3.0750,13.5750,-41.3250,
1.556614,0.0252,0.3259,-0.2115,-0.2804,-0.1278,-0.1886,3.0750,13.5750,-41.3250,
1.573241,0.0252,0.3259,-0.2115,-0.2804,-0.1278,-0.1886,1.8750,14.3250,-40.7250,
1.575787,0.0252,0.3259,-0.2115,-0.2804,-0.1278,-0.1886,1.8750,14.3250,-40.7250,
1.577394,0.0783,0.4926,-0.2154,-0.2804,-0.1278,-0.1886,1.8750,14.3250,-40.7250,
1.593389,0.0783,0.4926,-0.2154,-0.2804,-0.1278,-0.1886,1.8750,14.3250,-40.7250,
1.595636,0.0872,0.4607,-0.2008,-0.2804,-0.1278,-0.1886,1.8750,14.3250,-40.7250,
1.607679,0.0872,0.4607,-0.2008,-0.3047,-0.1208,-0.1483,1.8750,14.3250,-40.7250,
1.613359,0.0872,0.4607,-0.2008,-0.3047,-0.1208,-0.1483,1.8750,14.3250,-40.7250,
1.615167,0.0873,0.0820,-0.2812,-0.3047,-0.1208,-0.1483,1.8750,14.3250,-40.7250,
1.632351,0.0873,0.0820,-0.2812,-0.3047,-0.1208,-0.1483,1.8750,14.3250,-40.7250,
1.636361,0.0725,-0.1866,-0.2857,-0.3047,-0.1208,-0.1483,1.8750,14.3250,-40.7250,
1.640072,0.0725,-0.1866,-0.2857,-0.3047,-0.1208,-0.1483,1.9500,15.5250,-40.5000,
1.657403,0.0725,-0.1866,-0.2857,-0.3047,-0.1208,-0.1483,1.9500,15.5250,-40.5000,
1.659889,0.0592,-0.2091,-0.2120,-0.3047,-0.1208,-0.1483,1.9500,15.5250,-40.5000,
1.671575,0.0592,-0.2091,-0.2120,-0.3047,-0.1208,-0.1483,1.9500,15.5250,-40.5000,
1.674195,0.0177,0.1067,-0.3218,-0.3047,-0.1208,-0.1483,1.9500,15.5250,-40.5000,
1.676024,0.0177,0.1067,-0.3218,-0.3176,-0.0890,-0.1420,1.9500,15.5250,-40.5000,
1.691252,0.0177,0.1067,-0.3218,-0.3176,-0.0890,-0.1420,1.9500,15.5250,-40.5000,
1.693276,-0.0177,0.3489,-0.3416,-0.3176,-0.0890,-0.1420,1.9500,15.5250,-40.5000,
1.709047,-0.0177,0.3489,-0.3416,-0.3176,-0.0890,-0.1420,1.8750,15.5250,-40.2000,
1.712152,-0.0177,0.3489,-0.3416,-0.3176,-0.0890,-0.1420,1.8750,15.5250,-40.2000,
1.714014,-0.0389,0.2727,-0.2325,-0.3176,-0.0890,-0.1420,1.8750,15.5250,-40.2000,
1.735572,-0.0389,0.2727,-0.2325,-0.3176,-0.0890,-0.1420,1.8750,15.5250,-40.2000,
1.738875,-0.0439,0.0181,-0.2360,-0.3176,-0.0890,-0.1420,1.8750,15.5250,-40.2000,
1.748870,-0.0439,0.0181,-0.2360,-0.2975,-0.0273,-0.1504,1.8750,15.5250,-40.2000,
1.755132,-0.0439,0.0181,-0.2360,-0.2975,-0.0273,-0.1504,1.8750,15.5250,-40.2000,
1.757465,-0.0969,-0.0176,-0.2115,-0.2975,-0.0273,-0.1504,1.8750,15.5250,-40.2000,
1.774474,-0.0969,-0.0176,-0.2115,-0.2975,-0.0273,-0.1504,1.8750,15.5250,-40.2000,
1.777103,-0.2029,0.2709,-0.1433,-0.2975,-0.0273,-0.1504,1.8750,15.5250,-40.2000,
1.779586,-0.2029,0.2709,-0.1433,-0.2975,-0.0273,-0.1504,2.1750,15.6000,-40.2000,
1.793777,-0.2029,0.2709,-0.1433,-0.2975,-0.0273,-0.1504,2.1750,15.6000,-40.2000,
1.796263,-0.3471,0.4924,-0.1024,-0.2975,-0.0273,-0.1504,2.1750,15.6000,-40.2000,
1.813312,-0.3471,0.4924,-0.1024,-0.2975,-0.0273,-0.1504,2.1750,15.6000,-40.2000,
1.816268,-0.5411,0.4463,-0.1239,-0.2975,-0.0273,-0.1504,2.1750,15.6000,-40.2000,
1.818704,-0.5411,0.4463,-0.1239,-0.2529,0.0211,-0.1526,2.1750,15.6000,-40.2000,
1.832639,-0.5411,0.4463,-0.1239,-0.2529,0.0211,-0.1526,2.1750,15.6000,-40.2000,
1.835053,-0.5442,0.1754,-0.0897,-0.2529,0.0211,-0.1526,2.1750,15.6000,-40.2000,
1.849032,-0.5442,0.1754,-0.0897,-0.2529,0.0211,-0.1526,1.0500,17.0250,-39.4500,
1.851771,-0.5442,0.1754,-0.0897,-0.2529,0.0211,-0.1526,1.0500,17.0250,-39.4500,
1.853142,-0.5061,0.0170,-0.1711,-0.2529,0.0211,-0.1526,1.0500,17.0250,-39.4500,
1.871619,-0.5061,0.0170,-0.1711,-0.2529,0.0211,-0.1526,1.0500,17.0250,-39.4500,
1.873803,-0.5000,0.2252,-0.2509,-0.2529,0.0211,-0.1526,1.0500,17.0250,-39.4500,
1.888907,-0.5000,0.2252,-0.2509,-0.1860,0.0353,-0.1260,1.0500,17.0250,-39.4500,
1.893167,-0.5000,0.2252,-0.2509,-0.1860,0.0353,-0.1260,1.0500,17.0250,-39.4500,
1.894935,-0.5839,0.3814,-0.2266,-0.1860,0.0353,-0.1260,1.0500,17.0250,-39.4500,
1.912085,-0.5839,0.3814,-0.2266,-0.1860,0.0353,-0.1260,1.0500,17.0250,-39.4500,
1.913685,-0.6117,0.2912,-0.1877,-0.1860,0.0353,-0.1260,1.0500,17.0250,-39.4500,
1.915115,-0.6117,0.2912,-0.1877,-0.1860,0.0353,-0.1260,1.6500,17.1000,-39.2250,
1.931215,-0.6117,0.2912,-0.1877,-0.1860,0.0353,-0.1260,1.6500,17.1000,-39.2250,
1.933026,-0.6088,0.1037,-0.1085,-0.1860,0.0353,-0.1260,1.6500,17.1000,-39.2250,
1.952753,-0.6088,0.1037,-0.1085,-0.1860,0.0353,-0.1260,1.6500,17.1000,-39.2250,
1.956731,-0.6556,0.0216,-0.0317,-0.1860,0.0353,-0.1260,1.6500,17.1000,-39.2250,
1.959158,-0.6556,0.0216,-0.0317,-0.1802,0.0249,-0.1151,1.6500,17.1000,-39.2250,
1.970277,-0.6556,0.0216,-0.0317,-0.1802,0.0249,-0.1151,1.6500,17.1000,-39.2250,
1.973065,-0.7939,0.2480,-0.0648,-0.1802,0.0249,-0.1151,1.6500,17.1000,-39.2250,
1.979413,-0.7939,0.2480,-0.0648,-0.1802,0.0249,-0.1151,2.2500,17.4750,-39.4500,
1.989592,-0.7939,0.2480,-0.0648,-0.1802,0.0249,-0.1151,2.2500,17.4750,-39.4500,
1.992608,-0.9371,0.5107,-0.0231,-0.1802,0.0249,-0.1151,2.2500,17.4750,-39.4500,
2.013485,-0.9371,0.5107,-0.0231,-0.1802,0.0249,-0.1151,2.2500,17.4750,-39.4500,
2.015925,-0.9995,0.6892,0.0922,-0.1802,0.0249,-0.1151,2.2500,17.4750,-39.4500,
2.027848,-0.9995,0.6892,0.0922,-0.1767,-0.0191,-0.1248,2.2500,17.4750,-39.4500,
2.032882,-0.9995,0.6892,0.0922,-0.1767,-0.0191,-0.1248,2.2500,17.4750,-39.4500,
2.034553,-1.0098,0.8573,0.2063,-0.1767,-0.0191,-0.1248,2.2500,17.4750,-39.4500,
2.048080,-1.0098,0.8573,0.2063,-0.1767,-0.0191,-0.1248,2.2500,17.4750,-39.4500,
2.050076,-1.0695,1.1126,0.1858,-0.1767,-0.0191,-0.1248,2.2500,17.4750,-39.4500,
2.052820,-1.0695,1.1126,0.1858,-0.1767,-0.0191,-0.1248,1.6500,18.0750,-39.4500,
2.069137,-1.0695,1.1126,0.1858,-0.1767,-0.0191,-0.1248,1.6500,18.0750,-39.4500,
2.072335,-1.1714,1.4579,0.0576,-0.1767,-0.0191,-0.1248,1.6500,18.0750,-39.4500,
2.092666,-1.1714,1.4579,0.0576,-0.1767,-0.0191,-0.1248,1.6500,18.0750,-39.4500,
2.094649,-1.2313,1.6778,0.0640,-0.1767,-0.0191,-0.1248,1.6500,18.0750,-39.4500,
2.096810,-1.2313,1.6778,0.0640,-0.1591,-0.0786,-0.0958,1.6500,18.0750,-39.4500,
2.111444,-1.2313,1.6778,0.0640,-0.1591,-0.0786,-0.0958,1.6500,18.0750,-39.4500,
2.113472,-1.2141,1.6663,0.2108,-0.1591,-0.0786,-0.0958,1.6500,18.0750,-39.4500,
2.121469,-1.2141,1.6663,0.2108,-0.1591,-0.0786,-0.0958,2.1000,18.3000,-38.9250,
2.131549,-1.2141,1.6663,0.2108,-0.1591,-0.0786,-0.0958,2.1000,18.3000,-38.9250,
2.133147,-1.3178,1.5107,0.2159,-0.1591,-0.0786,-0.0958,2.1000,18.3000,-38.9250,
2.151467,-1.3178,1.5107,0.2159,-0.1591,-0.0786,-0.0958,2.1000,18.3000,-38.9250,
2.153737,-1.4225,1.4839,0.3104,-0.1591,-0.0786,-0.0958,2.1000,18.3000,-38.9250,
2.165072,-1.4225,1.4839,0.3104,-0.0556,-0.0620,-0.0360,2.1000,18.3000,-38.9250,
2.174730,-1.4225,1.4839,0.3104,-0.0556,-0.0620,-0.0360,2.1000,18.3000,-38.9250,
2.176905,-1.7842,1.7143,0.2269,-0.0556,-0.0620,-0.0360,2.1000,18.3000,-38.9250,
2.190371,-1.7842,1.7143,0.2269,-0.0556,-0.0620,-0.0360,2.1000,18.3000,-38.9250,
2.192572,-2.0499,1.9534,0.2132,-0.0556,-0.0620,-0.0360,2.1000,18.3000,-38.9250,
2.195015,-2.0499,1.9534,0.2132,-0.0556,-0.0620,-0.0360,1.2750,18.7500,-39.1500,
2.208919,-2.0499,1.9534,0.2132,-0.0556,-0.0620,-0.0360,1.2750,18.7500,-39.1500,
2.211313,-1.9735,2.0869,0.4463,-0.0556,-0.0620,-0.0360,1.2750,18.7500,-39.1500,
2.224602,-1.9735,2.0869,0.4463,-0.0556,-0.0620,-0.0360,1.2750,18.7500,-39.1500,
2.227245,-1.8372,2.0585,0.7386,-0.0556,-0.0620,-0.0360,1.2750,18.7500,-39.1500,
2.235677,-1.8372,2.0585,0.7386,-0.0489,-0.0618,0.0576,1.2750,18.7500,-39.1500,
2.248530,-1.8372,2.0585,0.7386,-0.0489,-0.0618,0.0576,1.2750,18.7500,-39.1500,
2.250435,-1.6091,2.1096,0.6924,-0.0489,-0.0618,0.0576,1.2750,18.7500,-39.1500,
2.259733,-1.6091,2.1096,0.6924,-0.0489,-0.0618,0.0576,1.2750,18.8250,-38.7000,
2.269317,-1.6091,2.1096,0.6924,-0.0489,-0.0618,0.0576,1.2750,18.8250,-38.7000,
2.271737,-1.7673,2.2715,0.5230,-0.0489,-0.0618,0.0576,1.2750,18.8250,-38.7000,
2.288978,-1.7673,2.2715,0.5230,-0.0489,-0.0618,0.0576,1.2750,18.8250,-38.7000,
2.291758,-2.3102,2.6856,0.8842,-0.0489,-0.0618,0.0576,1.2750,18.8250,-38.7000,
2.306853,-2.3102,2.6856,0.8842,-0.1003,0.0446,0.1478,1.2750,18.8250,-38.7000,
2.309000,-2.3102,2.6856,0.8842,-0.1003,0.0446,0.1478,1.2750,18.8250,-38.7000,
2.310470,-2.8330,3.3711,1.2496,-0.1003,0.0446,0.1478,1.2750,18.8250,-38.7000,
2.325204,-2.8330,3.3711,1.2496,-0.1003,0.0446,0.1478,1.2750,18.8250,-38.7000,
2.327221,-3.1570,4.0817,1.6231,-0.1003,0.0446,0.1478,1.2750,18.8250,-38.7000,
2.328823,-3.1570,4.0817,1.6231,-0.1003,0.0446,0.1478,2.1750,18.9000,-39.4500,
2.346423,-3.1570,4.0817,1.6231,-0.1003,0.0446,0.1478,2.1750,18.9000,-39.4500,
2.348780,-3.2123,4.8428,1.9921,-0.1003,0.0446,0.1478,2.1750,18.9000,-39.4500,
2.365796,-3.2123,4.8428,1.9921,-0.1003,0.0446,0.1478,2.1750,18.9000,-39.4500,
2.368908,-3.0479,5.7751,2.2772,-0.1003,0.0446,0.1478,2.1750,18.9000,-39.4500,
2.372592,-3.0479,5.7751,2.2772,-0.1996,0.0562,0.1611,2.1750,18.9000,-39.4500,
2.390846,-3.0479,5.7751,2.2772,-0.1996,0.0562,0.1611,2.1750,18.9000,-39.4500,
2.393656,-2.2529,7.3399,2.0440,-0.1996,0.0562,0.1611,2.1750,18.9000,-39.4500,
2.402049,-2.2529,7.3399,2.0440,-0.1996,0.0562,0.1611,3.6000,19.5000,-39.0750,
2.410052,-2.2529,7.3399,2.0440,-0.1996,0.0562,0.1611,3.6000,19.5000,-39.0750,
2.411748,-2.1562,9.2395,1.6981,-0.1996,0.0562,0.1611,3.6000,19.5000,-39.0750,
2.425412,-2.1562,9.2395,1.6981,-0.1996,0.0562,0.1611,3.6000,19.5000,-39.0750,
2.427587,-3.0728,9.2341,1.4841,-0.1996,0.0562,0.1611,3.6000,19.5000,-39.0750,
2.444061,-3.0728,9.2341,1.4841,-0.1900,-0.0215,-0.3231,3.6000,19.5000,-39.0750,
2.448455,-3.0728,9.2341,1.4841,-0.1900,-0.0215,-0.3231,3.6000,19.5000,-39.0750,
2.450059,-5.0720,7.3152,2.3152,-0.1900,-0.0215,-0.3231,3.6000,19.5000,-39.0750,
2.468272,-5.0720,7.3152,2.3152,-0.1900,-0.0215,-0.3231,3.6000,19.5000,-39.0750,
2.470413,-5.3050,5.0054,0.7047,-0.1900,-0.0215,-0.3231,3.6000,19.5000,-39.0750,
2.472190,-5.3050,5.0054,0.7047,-0.1900,-0.0215,-0.3231,3.9750,19.2000,-38.2500,
2.488163,-5.3050,5.0054,0.7047,-0.1900,-0.0215,-0.3231,3.9750,19.2000,-38.2500,
2.491392,-3.7726,2.8998,-4.7804,-0.1900,-0.0215,-0.3231,3.9750,19.2000,-38.2500,
2.507594,-3.7726,2.8998,-4.7804,-0.1900,-0.0215,-0.3231,3.9750,19.2000,-38.2500,
2.509805,-4.6945,2.9729,-7.9104,-0.1900,-0.0215,-0.3231,3.9750,19.2000,-38.2500,
2.512105,-4.6945,2.9729,-7.9104,-0.9719,-0.2436,-0.6148,3.9750,19.2000,-38.2500,
2.524561,-4.6945,2.9729,-7.9104,-0.9719,-0.2436,-0.6148,3.9750,19.2000,-38.2500,
2.527029,-5.2654,0.8547,-7.0775,-0.9719,-0.2436,-0.6148,3.9750,19.2000,-38.2500,
2.539114,-5.2654,0.8547,-7.0775,-0.9719,-0.2436,-0.6148,3.3750,21.0000,-37.1250,
2.547298,-5.2654,0.8547,-7.0775,-0.9719,-0.2436,-0.6148,3.3750,21.0000,-37.1250,
2.549753,-1.2521,-3.2436,-2.0716,-0.9719,-0.2436,-0.6148,3.3750,21.0000,-37.1250,
2.575134,-1.2521,-3.2436,-2.0716,-0.9719,-0.2436,-0.6148,3.3750,21.0000,-37.1250,
2.580200,1.6648,-4.4016,1.9244,-0.9719,-0.2436,-0.6148,3.3750,21.0000,-37.1250,
2.584060,1.6648,-4.4016,1.9244,-1.6940,0.8593,-1.2237,3.3750,21.0000,-37.1250,
2.596422,1.6648,-4.4016,1.9244,-1.6940,0.8593,-1.2237,3.3750,21.0000,-37.1250,
2.597477,3.8648,-1.9857,0.9005,-1.6940,0.8593,-1.2237,3.3750,21.0000,-37.1250,
2.604942,3.8648,-1.9857,0.9005,-1.6940,0.8593,-1.2237,3.3750,21.0000,-37.1250,
2.605718,2.4347,1.4572,-0.4649,-1.6940,0.8593,-1.2237,3.3750,21.0000,-37.1250,
2.608347,2.4347,1.4572,-0.4649,-1.6940,0.8593,-1.2237,3.1500,24.6750,-33.9750,
2.624897,2.4347,1.4572,-0.4649,-1.6940,0.8593,-1.2237,3.1500,24.6750,-33.9750,
2.625809,0.7744,3.3981,0.0533,-1.6940,0.8593,-1.2237,3.1500,24.6750,-33.9750,
2.644760,0.7744,3.3981,0.0533,-1.6940,0.8593,-1.2237,3.1500,24.6750,-33.9750,
2.646185,1.0710,0.7726,0.5829,-1.6940,0.8593,-1.2237,3.1500,24.6750,-33.9750,
2.648728,1.0710,0.7726,0.5829,-0.1949,3.1698,-2.1323,3.1500,24.6750,-33.9750,
2.666082,1.0710,0.7726,0.5829,-0.1949,3.1698,-2.1323,3.1500,24.6750,-33.9750,
2.667675,2.7919,-8.8947,-6.6933,-0.1949,3.1698,-2.1323,3.1500,24.6750,-33.9750,
2.680200,2.7919,-8.8947,-6.6933,-0.1949,3.1698,-2.1323,5.5500,26.4750,-32.2500,
2.693715,2.7919,-8.8947,-6.6933,-0.1949,3.1698,-2.1323,5.5500,26.4750,-32.2500,
2.695475,9.7738,-20.7617,-10.0216,-0.1949,3.1698,-2.1323,5.5500,26.4750,-32.2500,
2.708752,9.7738,-20.7617,-10.0216,-0.1949,3.1698,-2.1323,5.5500,26.4750,-32.2500,
2.710317,13.1836,-7.2006,-3.3643,-0.1949,3.1698,-2.1323,5.5500,26.4750,-32.2500,
2.729546,13.1836,-7.2006,-3.3643,-0.1907,3.7847,-3.7016,5.5500,26.4750,-32.2500,
2.732795,13.1836,-7.2006,-3.3643,-0.1907,3.7847,-3.7016,5.5500,26.4750,-32.2500,
2.734388,11.8465,-9.5178,4.4490,-0.1907,3.7847,-3.7016,5.5500,26.4750,-32.2500,
2.746957,11.8465,-9.5178,4.4490,-0.1907,3.7847,-3.7016,5.5500,26.4750,-32.2500,
2.749176,5.9539,-19.4313,7.7856,-0.1907,3.7847,-3.7016,5.5500,26.4750,-32.2500,
2.750961,5.9539,-19.4313,7.7856,-0.1907,3.7847,-3.7016,7.3500,26.6250,-29.5500,
2.767928,5.9539,-19.4313,7.7856,-0.1907,3.7847,-3.7016,7.3500,26.6250,-29.5500,
2.770624,8.6269,-9.2875,3.4117,-0.1907,3.7847,-3.7016,7.3500,26.6250,-29.5500,
2.786446,8.6269,-9.2875,3.4117,-0.1907,3.7847,-3.7016,7.3500,26.6250,-29.5500,
2.789489,8.7821,6.6383,1.4966,-0.1907,3.7847,-3.7016,7.3500,26.6250,-29.5500,
2.793990,8.7821,6.6383,1.4966,2.6080,0.4774,-2.8942,7.3500,26.6250,-29.5500,
2.806921,8.7821,6.6383,1.4966,2.6080,0.4774,-2.8942,7.3500,26.6250,-29.5500,
2.808553,3.7479,6.5625,-1.9102,2.6080,0.4774,-2.8942,7.3500,26.6250,-29.5500,
2.820736,3.7479,6.5625,-1.9102,2.6080,0.4774,-2.8942,4.9500,25.2000,-31.2000,
2.825573,3.7479,6.5625,-1.9102,2.6080,0.4774,-2.8942,4.9500,25.2000,-31.2000,
2.826898,-9.7370,5.6992,-1.6334,2.6080,0.4774,-2.8942,4.9500,25.2000,-31.2000,
2.847169,-9.7370,5.6992,-1.6334,2.6080,0.4774,-2.8942,4.9500,25.2000,-31.2000,
2.848867,-10.6844,3.5722,0.6085,2.6080,0.4774,-2.8942,4.9500,25.2000,-31.2000,
2.859420,-10.6844,3.5722,0.6085,1.4805,1.0358,-2.8476,4.9500,25.2000,-31.2000,
2.865162,-10.6844,3.5722,0.6085,1.4805,1.0358,-2.8476,4.9500,25.2000,-31.2000,
2.867567,-5.3032,0.7130,3.3671,1.4805,1.0358,-2.8476,4.9500,25.2000,-31.2000,
2.884820,-5.3032,0.7130,3.3671,1.4805,1.0358,-2.8476,4.9500,25.2000,-31.2000,
2.887020,6.9878,2.1650,-0.4000,1.4805,1.0358,-2.8476,4.9500,25.2000,-31.2000,
2.890853,6.9878,2.1650,-0.4000,1.4805,1.0358,-2.8476,3.4500,20.7750,-35.7000,
2.906876,6.9878,2.1650,-0.4000,1.4805,1.0358,-2.8476,3.4500,20.7750,-35.7000,
2.909258,27.0929,3.7654,-4.1568,1.4805,1.0358,-2.8476,3.4500,20.7750,-35.7000,
2.923309,27.0929,3.7654,-4.1568,1.4805,1.0358,-2.8476,3.4500,20.7750,-35.7000,
2.925476,22.1112,2.3565,3.2102,1.4805,1.0358,-2.8476,3.4500,20.7750,-35.7000,
2.927546,22.1112,2.3565,3.2102,0.0628,2.3551,-1.1624,3.4500,20.7750,-35.7000,
2.943037,22.1112,2.3565,3.2102,0.0628,2.3551,-1.1624,3.4500,20.7750,-35.7000,
2.944809,8.6989,0.2983,4.7249,0.0628,2.3551,-1.1624,3.4500,20.7750,-35.7000,
2.958795,8.6989,0.2983,4.7249,0.0628,2.3551,-1.1624,4.8750,19.4250,-36.6000,
2.960758,8.6989,0.2983,4.7249,0.0628,2.3551,-1.1624,4.8750,19.4250,-36.6000,
2.962214,-2.2781,-0.3079,3.5742,0.0628,2.3551,-1.1624,4.8750,19.4250,-36.6000,
2.987476,-2.2781,-0.3079,3.5742,0.0628,2.3551,-1.1624,4.8750,19.4250,-36.6000,
2.989658,-9.1382,3.0181,-1.5954,0.0628,2.3551,-1.1624,4.8750,19.4250,-36.6000,
3.007134,-9.1382,3.0181,-1.5954,1.4291,1.9272,-0.8628,4.8750,19.4250,-36.6000,
3.010207,-9.1382,3.0181,-1.5954,1.4291,1.9272,-0.8628,4.8750,19.4250,-36.6000,
3.011951,-15.5673,7.1454,-1.9320,1.4291,1.9272,-0.8628,4.8750,19.4250,-36.6000,
3.024349,-15.5673,7.1454,-1.9320,1.4291,1.9272,-0.8628,4.8750,19.4250,-36.6000,
3.027987,-7.3767,6.0963,-1.1297,1.4291,1.9272,-0.8628,4.8750,19.4250,-36.6000,
3.030461,-7.3767,6.0963,-1.1297,1.4291,1.9272,-0.8628,9.0000,18.1500,-37.1250,
3.045730,-7.3767,6.0963,-1.1297,1.4291,1.9272,-0.8628,9.0000,18.1500,-37.1250,
3.046927,-0.9269,3.4338,1.1053,1.4291,1.9272,-0.8628,9.0000,18.1500,-37.1250,
3.065797,-0.9269,3.4338,1.1053,1.4291,1.9272,-0.8628,9.0000,18.1500,-37.1250,
3.066721,0.3767,1.5117,2.7818,1.4291,1.9272,-0.8628,9.0000,18.1500,-37.1250,
3.070387,0.3767,1.5117,2.7818,0.2445,1.6067,0.5168,9.0000,18.1500,-37.1250,
3.085044,0.3767,1.5117,2.7818,0.2445,1.6067,0.5168,9.0000,18.1500,-37.1250,
3.085510,2.1389,0.3189,3.2606,0.2445,1.6067,0.5168,9.0000,18.1500,-37.1250,
3.100649,2.1389,0.3189,3.2606,0.2445,1.6067,0.5168,14.1000,17.4000,-36.0000,
3.101460,2.1389,0.3189,3.2606,0.2445,1.6067,0.5168,14.1000,17.4000,-36.0000,
3.102020,2.9840,-0.3952,4.0838,0.2445,1.6067,0.5168,14.1000,17.4000,-36.0000,
3.124592,2.9840,-0.3952,4.0838,0.2445,1.6067,0.5168,14.1000,17.4000,-36.0000,
3.125709,2.4750,0.6622,1.6234,0.2445,1.6067,0.5168,14.1000,17.4000,-36.0000,
3.138414,2.4750,0.6622,1.6234,0.2395,0.6226,-0.0121,14.1000,17.4000,-36.0000,
3.144456,2.4750,0.6622,1.6234,0.2395,0.6226,-0.0121,14.1000,17.4000,-36.0000,
3.145998,0.6272,3.1252,-0.6891,0.2395,0.6226,-0.0121,14.1000,17.4000,-36.0000,
3.163684,0.6272,3.1252,-0.6891,0.2395,0.6226,-0.0121,14.1000,17.4000,-36.0000,
3.165398,-1.8998,3.5101,-0.1209,0.2395,0.6226,-0.0121,14.1000,17.4000,-36.0000,
3.171733,-1.8998,3.5101,-0.1209,0.2395,0.6226,-0.0121,15.9000,16.4250,-34.9500,
3.183594,-1.8998,3.5101,-0.1209,0.2395,0.6226,-0.0121,15.9000,16.4250,-34.9500,
3.185069,-3.5060,2.1448,0.5354,0.2395,0.6226,-0.0121,15.9000,16.4250,-34.9500,
3.202011,-3.5060,2.1448,0.5354,0.2395,0.6226,-0.0121,15.9000,16.4250,-34.9500,
3.204690,-2.3436,1.0955,1.3381,0.2395,0.6226,-0.0121,15.9000,16.4250,-34.9500,
3.208770,-2.3436,1.0955,1.3381,0.3097,0.3471,0.1932,15.9000,16.4250,-34.9500,
3.224146,-2.3436,1.0955,1.3381,0.3097,0.3471,0.1932,15.9000,16.4250,-34.9500,
3.225689,0.4672,1.1763,-0.3246,0.3097,0.3471,0.1932,15.9000,16.4250,-34.9500,
3.240297,0.4672,1.1763,-0.3246,0.3097,0.3471,0.1932,15.9000,16.4250,-34.9500,
3.241749,0.1936,1.8947,2.2239,0.3097,0.3471,0.1932,15.9000,16.4250,-34.9500,
3.242984,0.1936,1.8947,2.2239,0.3097,0.3471,0.1932,17.5500,16.7250,-34.5000,
3.256094,0.1936,1.8947,2.2239,0.3097,0.3471,0.1932,17.5500,16.7250,-34.5000,
3.257840,0.2155,1.5295,1.8037,0.3097,0.3471,0.1932,17.5500,16.7250,-34.5000,
3.280275,0.2155,1.5295,1.8037,0.1474,0.0669,0.0797,17.5500,16.7250,-34.5000,
3.290305,0.2155,1.5295,1.8037,0.1474,0.0669,0.0797,17.5500,16.7250,-34.5000,
3.291410,-0.4615,1.7122,0.4851,0.1474,0.0669,0.0797,17.5500,16.7250,-34.5000,
3.306102,-0.4615,1.7122,0.4851,0.1474,0.0669,0.0797,17.5500,16.7250,-34.5000,
3.307605,-0.9960,1.6195,0.4328,0.1474,0.0669,0.0797,17.5500,16.7250,-34.5000,
3.309984,-0.9960,1.6195,0.4328,0.1474,0.0669,0.0797,18.3750,15.6750,-34.9500,
3.325089,-0.9960,1.6195,0.4328,0.1474,0.0669,0.0797,18.3750,15.6750,-34.9500,
3.326544,-0.5538,0.8725,0.1006,0.1474,0.0669,0.0797,18.3750,15.6750,-34.9500,
3.344296,-0.5538,0.8725,0.1006,0.1474,0.0669,0.0797,18.3750,15.6750,-34.9500,
3.345613,0.0574,-0.4733,0.0032,0.1474,0.0669,0.0797,18.3750,15.6750,-34.9500,
3.349117,0.0574,-0.4733,0.0032,0.0667,-0.1035,0.1761,18.3750,15.6750,-34.9500,
3.364269,0.0574,-0.4733,0.0032,0.0667,-0.1035,0.1761,18.3750,15.6750,-34.9500,
3.365617,0.0433,-0.9942,0.1813,0.0667,-0.1035,0.1761,18.3750,15.6750,-34.9500,
3.379002,0.0433,-0.9942,0.1813,0.0667,-0.1035,0.1761,18.3750,15.5250,-35.2500,
3.381715,0.0433,-0.9942,0.1813,0.0667,-0.1035,0.1761,18.3750,15.5250,-35.2500,
3.383471,-0.3515,-0.7961,0.3472,0.0667,-0.1035,0.1761,18.3750,15.5250,-35.2500,
3.403113,-0.3515,-0.7961,0.3472,0.0667,-0.1035,0.1761,18.3750,15.5250,-35.2500,
3.405222,-0.4159,-0.6018,0.2890,0.0667,-0.1035,0.1761,18.3750,15.5250,-35.2500,
3.419201,-0.4159,-0.6018,0.2890,-0.0632,-0.2876,0.1544,18.3750,15.5250,-35.2500,
3.423187,-0.4159,-0.6018,0.2890,-0.0632,-0.2876,0.1544,18.3750,15.5250,-35.2500,
3.425010,-0.2231,-0.6446,-0.0541,-0.0632,-0.2876,0.1544,18.3750,15.5250,-35.2500,
3.441533,-0.2231,-0.6446,-0.0541,-0.0632,-0.2876,0.1544,18.3750,15.5250,-35.2500,
3.443802,-0.1773,-0.7781,-0.0545,-0.0632,-0.2876,0.1544,18.3750,15.5250,-35.2500,
3.448473,-0.1773,-0.7781,-0.0545,-0.0632,-0.2876,0.1544,17.5500,14.9250,-36.2250,
3.461056,-0.1773,-0.7781,-0.0545,-0.0632,-0.2876,0.1544,17.5500,14.9250,-36.2250,
3.464308,-0.5495,-1.0311,0.0529,-0.0632,-0.2876,0.1544,17.5500,14.9250,-36.2250,
3.480502,-0.5495,-1.0311,0.0529,-0.0632,-0.2876,0.1544,17.5500,14.9250,-36.2250,
3.482915,-0.1818,-1.0648,-0.0725,-0.0632,-0.2876,0.1544,17.5500,14.9250,-36.2250,
3.490892,-0.1818,-1.0648,-0.0725,-0.1052,-0.4928,0.2503,17.5500,14.9250,-36.2250,
3.505624,-0.1818,-1.0648,-0.0725,-0.1052,-0.4928,0.2503,17.5500,14.9250,-36.2250,
3.508745,0.3868,-0.8076,-0.1668,-0.1052,-0.4928,0.2503,17.5500,14.9250,-36.2250,
3.519382,0.3868,-0.8076,-0.1668,-0.1052,-0.4928,0.2503,16.5750,14.2500,-36.4500,
3.522373,0.3868,-0.8076,-0.1668,-0.1052,-0.4928,0.2503,16.5750,14.2500,-36.4500,
3.524133,0.3108,-0.5454,-0.4357,-0.1052,-0.4928,0.2503,16.5750,14.2500,-36.4500,
3.539702,0.3108,-0.5454,-0.4357,-0.1052,-0.4928,0.2503,16.5750,14.2500,-36.4500,
3.543258,-0.2792,-0.2569,-0.1352,-0.1052,-0.4928,0.2503,16.5750,14.2500,-36.4500,
3.556048,-0.2792,-0.2569,-0.1352,-0.1953,-0.5073,0.1191,16.5750,14.2500,-36.4500,
3.564221,-0.2792,-0.2569,-0.1352,-0.1953,-0.5073,0.1191,16.5750,14.2500,-36.4500,
3.566515,-0.5035,-0.1917,0.0052,-0.1953,-0.5073,0.1191,16.5750,14.2500,-36.4500,
3.583579,-0.5035,-0.1917,0.0052,-0.1953,-0.5073,0.1191,16.5750,14.2500,-36.4500,
3.585821,-0.1629,-0.1847,0.0533,-0.1953,-0.5073,0.1191,16.5750,14.2500,-36.4500,
3.587947,-0.1629,-0.1847,0.0533,-0.1953,-0.5073,0.1191,15.1500,14.7000,-36.2250,
3.602919,-0.1629,-0.1847,0.0533,-0.1953,-0.5073,0.1191,15.1500,14.7000,-36.2250,
3.605051,-0.0696,0.0839,-0.0013,-0.1953,-0.5073,0.1191,15.1500,14.7000,-36.2250,
3.622746,-0.0696,0.0839,-0.0013,-0.1953,-0.5073,0.1191,15.1500,14.7000,-36.2250,
3.624843,-0.3569,0.3836,0.0478,-0.1953,-0.5073,0.1191,15.1500,14.7000,-36.2250,
3.628561,-0.3569,0.3836,0.0478,-0.4201,-0.4914,0.0580,15.1500,14.7000,-36.2250,
3.642496,-0.3569,0.3836,0.0478,-0.4201,-0.4914,0.0580,15.1500,14.7000,-36.2250,
3.644624,-0.6296,0.4453,0.2970,-0.4201,-0.4914,0.0580,15.1500,14.7000,-36.2250,
3.652545,-0.6296,0.4453,0.2970,-0.4201,-0.4914,0.0580,14.1000,15.6750,-36.3000,
3.662063,-0.6296,0.4453,0.2970,-0.4201,-0.4914,0.0580,14.1000,15.6750,-36.3000,
3.663833,-0.3471,0.1491,0.2280,-0.4201,-0.4914,0.0580,14.1000,15.6750,-36.3000,
3.681121,-0.3471,0.1491,0.2280,-0.4201,-0.4914,0.0580,14.1000,15.6750,-36.3000,
3.683691,-0.1318,-0.5300,0.3955,-0.4201,-0.4914,0.0580,14.1000,15.6750,-36.3000,
3.695840,-0.1318,-0.5300,0.3955,-0.5178,-0.5850,0.0394,14.1000,15.6750,-36.3000,
3.701987,-0.1318,-0.5300,0.3955,-0.5178,-0.5850,0.0394,14.1000,15.6750,-36.3000,
3.704055,-0.1104,-0.4696,0.1674,-0.5178,-0.5850,0.0394,14.1000,15.6750,-36.3000,
3.721158,-0.1104,-0.4696,0.1674,-0.5178,-0.5850,0.0394,14.1000,15.6750,-36.3000,
3.724639,-0.4354,0.1506,-0.3427,-0.5178,-0.5850,0.0394,14.1000,15.6750,-36.3000,
3.727533,-0.4354,0.1506,-0.3427,-0.5178,-0.5850,0.0394,12.9000,17.0250,-36.5250,
3.740304,-0.4354,0.1506,-0.3427,-0.5178,-0.5850,0.0394,12.9000,17.0250,-36.5250,
3.742595,-0.8647,0.1062,0.0612,-0.5178,-0.5850,0.0394,12.9000,17.0250,-36.5250,
3.759741,-0.8647,0.1062,0.0612,-0.5178,-0.5850,0.0394,12.9000,17.0250,-36.5250,
3.762106,0.0895,-0.0050,0.5900,-0.5178,-0.5850,0.0394,12.9000,17.0250,-36.5250,
3.764001,0.0895,-0.0050,0.5900,-0.5200,-0.7648,0.2214,12.9000,17.0250,-36.5250,
3.774846,0.0895,-0.0050,0.5900,-0.5200,-0.7648,0.2214,12.9000,17.0250,-36.5250,
3.777035,0.8688,-0.0067,0.9055,-0.5200,-0.7648,0.2214,12.9000,17.0250,-36.5250,
3.789704,0.8688,-0.0067,0.9055,-0.5200,-0.7648,0.2214,11.2500,17.7000,-36.3750,
3.798636,0.8688,-0.0067,0.9055,-0.5200,-0.7648,0.2214,11.2500,17.7000,-36.3750,
3.799988,0.6329,-0.5340,0.4659,-0.5200,-0.7648,0.2214,11.2500,17.7000,-36.3750,
3.818264,0.6329,-0.5340,0.4659,-0.5200,-0.7648,0.2214,11.2500,17.7000,-36.3750,
3.823228,0.6121,-0.8935,0.5184,-0.5200,-0.7648,0.2214,11.2500,17.7000,-36.3750,
3.833312,0.6121,-0.8935,0.5184,-0.2198,-0.8940,0.3853,11.2500,17.7000,-36.3750,
3.844845,0.6121,-0.8935,0.5184,-0.2198,-0.8940,0.3853,11.2500,17.7000,-36.3750,
3.847636,1.4028,-0.4315,0.5372,-0.2198,-0.8940,0.3853,11.2500,17.7000,-36.3750,
3.857206,1.4028,-0.4315,0.5372,-0.2198,-0.8940,0.3853,11.2500,17.7000,-36.3750,
3.859489,1.8711,0.3244,0.3545,-0.2198,-0.8940,0.3853,11.2500,17.7000,-36.3750,
3.861029,1.8711,0.3244,0.3545,-0.2198,-0.8940,0.3853,9.3000,18.5250,-36.3000,
3.874678,1.8711,0.3244,0.3545,-0.2198,-0.8940,0.3853,9.3000,18.5250,-36.3000,
3.876895,1.3041,0.9229,-0.1103,-0.2198,-0.8940,0.3853,9.3000,18.5250,-36.3000,
3.896205,1.3041,0.9229,-0.1103,-0.2198,-0.8940,0.3853,9.3000,18.5250,-36.3000,
3.898650,0.9893,1.3584,-0.3258,-0.2198,-0.8940,0.3853,9.3000,18.5250,-36.3000,
3.900944,0.9893,1.3584,-0.3258,-0.2124,-0.6985,0.3543,9.3000,18.5250,-36.3000,
3.915769,0.9893,1.3584,-0.3258,-0.2124,-0.6985,0.3543,9.3000,18.5250,-36.3000,
3.918525,1.5519,1.2750,-0.1229,-0.2124,-0.6985,0.3543,9.3000,18.5250,-36.3000,
3.939249,1.5519,1.2750,-0.1229,-0.2124,-0.6985,0.3543,7.5000,18.7500,-36.9750,
3.943152,1.5519,1.2750,-0.1229,-0.2124,-0.6985,0.3543,7.5000,18.7500,-36.9750,
3.945353,1.3364,0.4751,0.0447,-0.2124,-0.6985,0.3543,7.5000,18.7500,-36.9750,
3.960012,1.3364,0.4751,0.0447,-0.2124,-0.6985,0.3543,7.5000,18.7500,-36.9750,
3.962350,0.6399,-0.1462,-0.7745,-0.2124,-0.6985,0.3543,7.5000,18.7500,-36.9750,
3.974445,0.6399,-0.1462,-0.7745,-0.3803,-0.3361,0.3714,7.5000,18.7500,-36.9750,
3.976980,0.6399,-0.1462,-0.7745,-0.3803,-0.3361,0.3714,7.5000,18.7500,-36.9750,
3.978611,0.1689,0.0468,-1.5103,-0.3803,-0.3361,0.3714,7.5000,18.7500,-36.9750,
3.998940,0.1689,0.0468,-1.5103,-0.3803,-0.3361,0.3714,7.5000,18.7500,-36.9750,
4.001091,0.2519,0.3680,-0.9448,-0.3803,-0.3361,0.3714,7.5000,18.7500,-36.9750,
4.003365,0.2519,0.3680,-0.9448,-0.3803,-0.3361,0.3714,5.7000,18.5250,-36.4500,
4.018111,0.2519,0.3680,-0.9448,-0.3803,-0.3361,0.3714,5.7000,18.5250,-36.4500,
4.020676,0.4385,0.4015,-0.2252,-0.3803,-0.3361,0.3714,5.7000,18.5250,-36.4500,
4.038603,0.4385,0.4015,-0.2252,-0.3803,-0.3361,0.3714,5.7000,18.5250,-36.4500,
4.042455,-0.0144,0.1965,-0.7464,-0.3803,-0.3361,0.3714,5.7000,18.5250,-36.4500,
4.045246,-0.0144,0.1965,-0.7464,-0.5171,-0.2530,0.3952,5.7000,18.5250,-36.4500,
4.057743,-0.0144,0.1965,-0.7464,-0.5171,-0.2530,0.3952,5.7000,18.5250,-36.4500,
4.060036,-0.3900,0.1586,-1.2417,-0.5171,-0.2530,0.3952,5.7000,18.5250,-36.4500,
4.071368,-0.3900,0.1586,-1.2417,-0.5171,-0.2530,0.3952,6.1500,20.5500,-35.6250,
4.074317,-0.3900,0.1586,-1.2417,-0.5171,-0.2530,0.3952,6.1500,20.5500,-35.6250,
4.075636,0.2786,0.1413,-0.5868,-0.5171,-0.2530,0.3952,6.1500,20.5500,-35.6250,
4.096802,0.2786,0.1413,-0.5868,-0.5171,-0.2530,0.3952,6.1500,20.5500,-35.6250,
4.099595,0.7952,-0.3473,-0.2139,-0.5171,-0.2530,0.3952,6.1500,20.5500,-35.6250,
4.111105,0.7952,-0.3473,-0.2139,-0.6782,-0.2987,0.5456,6.1500,20.5500,-35.6250,
4.116251,0.7952,-0.3473,-0.2139,-0.6782,-0.2987,0.5456,6.1500,20.5500,-35.6250,
4.118050,1.1851,-0.5323,-0.6085,-0.6782,-0.2987,0.5456,6.1500,20.5500,-35.6250,
4.136772,1.1851,-0.5323,-0.6085,-0.6782,-0.2987,0.5456,6.1500,20.5500,-35.6250,
4.139787,0.5280,-0.4673,-0.7701,-0.6782,-0.2987,0.5456,6.1500,20.5500,-35.6250,
4.141919,0.5280,-0.4673,-0.7701,-0.6782,-0.2987,0.5456,6.3750,21.6000,-35.4750,
4.155501,0.5280,-0.4673,-0.7701,-0.6782,-0.2987,0.5456,6.3750,21.6000,-35.4750,
4.158095,0.5403,-0.4274,-0.5498,-0.6782,-0.2987,0.5456,6.3750,21.6000,-35.4750,
4.174403,0.5403,-0.4274,-0.5498,-0.6782,-0.2987,0.5456,6.3750,21.6000,-35.4750,
4.177316,0.4014,-0.4165,0.1711,-0.6782,-0.2987,0.5456,6.3750,21.6000,-35.4750,
4.179652,0.4014,-0.4165,0.1711,-0.6083,-0.3013,0.5605,6.3750,21.6000,-35.4750,
4.199217,0.4014,-0.4165,0.1711,-0.6083,-0.3013,0.5605,6.3750,21.6000,-35.4750,
4.201450,0.7755,-0.5635,0.4746,-0.6083,-0.3013,0.5605,6.3750,21.6000,-35.4750,
4.210341,0.7755,-0.5635,0.4746,-0.6083,-0.3013,0.5605,5.8500,22.9500,-34.3500,
4.220515,0.7755,-0.5635,0.4746,-0.6083,-0.3013,0.5605,5.8500,22.9500,-34.3500,
4.222826,1.3356,-0.4954,-0.0418,-0.6083,-0.3013,0.5605,5.8500,22.9500,-34.3500,
4.239534,1.3356,-0.4954,-0.0418,-0.6083,-0.3013,0.5605,5.8500,22.9500,-34.3500,
4.242669,1.2116,0.0854,0.1292,-0.6083,-0.3013,0.5605,5.8500,22.9500,-34.3500,
4.255124,1.2116,0.0854,0.1292,-0.3916,-0.1080,0.5546,5.8500,22.9500,-34.3500,
4.258359,1.2116,0.0854,0.1292,-0.3916,-0.1080,0.5546,5.8500,22.9500,-34.3500,
4.259721,0.5713,0.1673,0.1960,-0.3916,-0.1080,0.5546,5.8500,22.9500,-34.3500,
4.274234,0.5713,0.1673,0.1960,-0.3916,-0.1080,0.5546,5.8500,22.9500,-34.3500,
4.276059,0.4172,-0.1260,-0.3104,-0.3916,-0.1080,0.5546,5.8500,22.9500,-34.3500,
4.278287,0.4172,-0.1260,-0.3104,-0.3916,-0.1080,0.5546,7.0500,23.4000,-33.3000,
4.297118,0.4172,-0.1260,-0.3104,-0.3916,-0.1080,0.5546,7.0500,23.4000,-33.3000,
4.300741,0.0097,-0.0504,-0.3707,-0.3916,-0.1080,0.5546,7.0500,23.4000,-33.3000,
4.316854,0.0097,-0.0504,-0.3707,-0.3916,-0.1080,0.5546,7.0500,23.4000,-33.3000,
4.319281,-0.5248,0.2760,0.0386,-0.3916,-0.1080,0.5546,7.0500,23.4000,-33.3000,
4.321599,-0.5248,0.2760,0.0386,-0.3448,0.0585,0.6388,7.0500,23.4000,-33.3000,
4.340656,-0.5248,0.2760,0.0386,-0.3448,0.0585,0.6388,7.0500,23.4000,-33.3000,
4.343587,-0.4524,-0.0983,0.1801,-0.3448,0.0585,0.6388,7.0500,23.4000,-33.3000,
4.348494,-0.4524,-0.0983,0.1801,-0.3448,0.0585,0.6388,7.9500,24.6750,-33.0750,
4.355637,-0.4524,-0.0983,0.1801,-0.3448,0.0585,0.6388,7.9500,24.6750,-33.0750,
4.357452,0.1257,-0.5673,0.0488,-0.3448,0.0585,0.6388,7.9500,24.6750,-33.0750,
4.374225,0.1257,-0.5673,0.0488,-0.3448,0.0585,0.6388,7.9500,24.6750,-33.0750,
4.376180,0.2837,-0.1570,-0.2727,-0.3448,0.0585,0.6388,7.9500,24.6750,-33.0750,
4.390267,0.2837,-0.1570,-0.2727,-0.2857,0.1530,0.6922,7.9500,24.6750,-33.0750,
4.395066,0.2837,-0.1570,-0.2727,-0.2857,0.1530,0.6922,7.9500,24.6750,-33.0750,
4.396405,-0.1106,0.4185,-0.2593,-0.2857,0.1530,0.6922,7.9500,24.6750,-33.0750,
4.414528,-0.1106,0.4185,-0.2593,-0.2857,0.1530,0.6922,7.9500,24.6750,-33.0750,
4.416755,-0.3592,0.1242,-0.0554,-0.2857,0.1530,0.6922,7.9500,24.6750,-33.0750,
4.425206,-0.3592,0.1242,-0.0554,-0.2857,0.1530,0.6922,9.4500,24.6000,-33.1500,
4.435126,-0.3592,0.1242,-0.0554,-0.2857,0.1530,0.6922,9.4500,24.6000,-33.1500,
4.437786,-0.5575,-0.4360,-0.1880,-0.2857,0.1530,0.6922,9.4500,24.6000,-33.1500,
4.458921,-0.5575,-0.4360,-0.1880,-0.2857,0.1530,0.6922,9.4500,24.6000,-33.1500,
4.461446,-0.5267,-0.6266,-0.2754,-0.2857,0.1530,0.6922,9.4500,24.6000,-33.1500,
4.463527,-0.5267,-0.6266,-0.2754,-0.2219,0.1371,0.6568,9.4500,24.6000,-33.1500,
4.474460,-0.5267,-0.6266,-0.2754,-0.2219,0.1371,0.6568,9.4500,24.6000,-33.1500,
4.476734,-0.2518,-0.4489,-0.0898,-0.2219,0.1371,0.6568,9.4500,24.6000,-33.1500,
4.488664,-0.2518,-0.4489,-0.0898,-0.2219,0.1371,0.6568,11.2500,24.5250,-31.5000,
4.498078,-0.2518,-0.4489,-0.0898,-0.2219,0.1371,0.6568,11.2500,24.5250,-31.5000,
4.500436,-0.0332,-0.4060,0.0121,-0.2219,0.1371,0.6568,11.2500,24.5250,-31.5000,
4.517253,-0.0332,-0.4060,0.0121,-0.2219,0.1371,0.6568,11.2500,24.5250,-31.5000,
4.519758,0.4468,-0.3725,-0.1820,-0.2219,0.1371,0.6568,11.2500,24.5250,-31.5000,
4.533027,0.4468,-0.3725,-0.1820,-0.1110,-0.0547,0.7126,11.2500,24.5250,-31.5000,
4.545318,0.4468,-0.3725,-0.1820,-0.1110,-0.0547,0.7126,11.2500,24.5250,-31.5000,
4.548294,0.5392,-0.0222,-0.3187,-0.1110,-0.0547,0.7126,11.2500,24.5250,-31.5000,
4.556609,0.5392,-0.0222,-0.3187,-0.1110,-0.0547,0.7126,11.2500,24.5250,-31.5000,
4.558817,0.1594,0.3838,-0.2146,-0.1110,-0.0547,0.7126,11.2500,24.5250,-31.5000,
4.560601,0.1594,0.3838,-0.2146,-0.1110,-0.0547,0.7126,12.4500,24.0000,-31.9500,
4.574661,0.1594,0.3838,-0.2146,-0.1110,-0.0547,0.7126,12.4500,24.0000,-31.9500,
4.576953,-0.0787,0.3521,0.0975,-0.1110,-0.0547,0.7126,12.4500,24.0000,-31.9500,
4.595692,-0.0787,0.3521,0.0975,-0.1110,-0.0547,0.7126,12.4500,24.0000,-31.9500,
4.597470,-0.0285,0.1240,0.1413,-0.1110,-0.0547,0.7126,12.4500,24.0000,-31.9500,
4.601355,-0.0285,0.1240,0.1413,-0.1390,-0.1266,0.7605,12.4500,24.0000,-31.9500,
4.615113,-0.0285,0.1240,0.1413,-0.1390,-0.1266,0.7605,12.4500,24.0000,-31.9500,
4.616785,0.2303,-0.0919,-0.1976,-0.1390,-0.1266,0.7605,12.4500,24.0000,-31.9500,
4.628911,0.2303,-0.0919,-0.1976,-0.1390,-0.1266,0.7605,14.4000,24.4500,-31.1250,
4.637030,0.2303,-0.0919,-0.1976,-0.1390,-0.1266,0.7605,14.4000,24.4500,-31.1250,
4.639167,0.2375,0.1977,-0.5136,-0.1390,-0.1266,0.7605,14.4000,24.4500,-31.1250,
4.656109,0.2375,0.1977,-0.5136,-0.1390,-0.1266,0.7605,14.4000,24.4500,-31.1250,
4.658701,-0.1988,0.5878,-0.3092,-0.1390,-0.1266,0.7605,14.4000,24.4500,-31.1250,
4.671482,-0.1988,0.5878,-0.3092,-0.1913,-0.1973,0.7814,14.4000,24.4500,-31.1250,
4.674368,-0.1988,0.5878,-0.3092,-0.1913,-0.1973,0.7814,14.4000,24.4500,-31.1250,
4.675737,-0.3912,0.3623,0.2280,-0.1913,-0.1973,0.7814,14.4000,24.4500,-31.1250,
4.698707,-0.3912,0.3623,0.2280,-0.1913,-0.1973,0.7814,14.4000,24.4500,-31.1250,
4.700399,0.4639,-0.1369,0.3218,-0.1913,-0.1973,0.7814,14.4000,24.4500,-31.1250,
4.701757,0.4639,-0.1369,0.3218,-0.1913,-0.1973,0.7814,15.1500,24.0750,-31.3500,
4.717795,0.4639,-0.1369,0.3218,-0.1913,-0.1973,0.7814,15.1500,24.0750,-31.3500,
4.720301,1.0906,-0.1867,0.0341,-0.1913,-0.1973,0.7814,15.1500,24.0750,-31.3500,
4.737572,1.0906,-0.1867,0.0341,-0.1913,-0.1973,0.7814,15.1500,24.0750,-31.3500,
4.740509,0.4043,0.2563,-0.2777,-0.1913,-0.1973,0.7814,15.1500,24.0750,-31.3500,
4.743443,0.4043,0.2563,-0.2777,-0.2164,-0.0692,0.8416,15.1500,24.0750,-31.3500,
4.757071,0.4043,0.2563,-0.2777,-0.2164,-0.0692,0.8416,15.1500,24.0750,-31.3500,
4.758942,-0.4276,0.5109,0.2663,-0.2164,-0.0692,0.8416,15.1500,24.0750,-31.3500,
4.772512,-0.4276,0.5109,0.2663,-0.2164,-0.0692,0.8416,16.2750,23.0250,-31.0500,
4.775025,-0.4276,0.5109,0.2663,-0.2164,-0.0692,0.8416,16.2750,23.0250,-31.0500,
4.776542,-0.2438,0.1568,0.7252,-0.2164,-0.0692,0.8416,16.2750,23.0250,-31.0500,
4.795948,-0.2438,0.1568,0.7252,-0.2164,-0.0692,0.8416,16.2750,23.0250,-31.0500,
4.798417,0.4341,-0.1473,0.5640,-0.2164,-0.0692,0.8416,16.2750,23.0250,-31.0500,
4.811058,0.4341,-0.1473,0.5640,-0.2431,0.0212,0.8753,16.2750,23.0250,-31.0500,
4.818720,0.4341,-0.1473,0.5640,-0.2431,0.0212,0.8753,16.2750,23.0250,-31.0500,
4.822227,0.5870,-0.0515,-0.0272,-0.2431,0.0212,0.8753,16.2750,23.0250,-31.0500,
4.836031,0.5870,-0.0515,-0.0272,-0.2431,0.0212,0.8753,16.2750,23.0250,-31.0500,
4.837978,0.2712,0.9055,-0.2189,-0.2431,0.0212,0.8753,16.2750,23.0250,-31.0500,
4.839073,0.2712,0.9055,-0.2189,-0.2431,0.0212,0.8753,17.4750,22.8000,-32.1000,
4.855059,0.2712,0.9055,-0.2189,-0.2431,0.0212,0.8753,17.4750,22.8000,-32.1000,
4.857285,0.0403,1.5245,0.4863,-0.2431,0.0212,0.8753,17.4750,22.8000,-32.1000,
4.874860,0.0403,1.5245,0.4863,-0.2431,0.0212,0.8753,17.4750,22.8000,-32.1000,
4.876496,-0.8363,0.6920,0.6879,-0.2431,0.0212,0.8753,17.4750,22.8000,-32.1000,
4.878940,-0.8363,0.6920,0.6879,-0.4085,0.1174,0.9380,17.4750,22.8000,-32.1000,
4.893834,-0.8363,0.6920,0.6879,-0.4085,0.1174,0.9380,17.4750,22.8000,-32.1000,
4.895808,-0.8608,-0.1794,0.6574,-0.4085,0.1174,0.9380,17.4750,22.8000,-32.1000,
4.909127,-0.8608,-0.1794,0.6574,-0.4085,0.1174,0.9380,19.5750,21.9750,-30.7500,
4.911912,-0.8608,-0.1794,0.6574,-0.4085,0.1174,0.9380,19.5750,21.9750,-30.7500,
4.913478,-0.5918,-0.0554,0.5990,-0.4085,0.1174,0.9380,19.5750,21.9750,-30.7500,
4.936960,-0.5918,-0.0554,0.5990,-0.4085,0.1174,0.9380,19.5750,21.9750,-30.7500,
4.940612,-0.6025,0.5188,0.7681,-0.4085,0.1174,0.9380,19.5750,21.9750,-30.7500,
4.947537,-0.6025,0.5188,0.7681,-0.4442,-0.1761,0.9876,19.5750,21.9750,-30.7500,
4.955573,-0.6025,0.5188,0.7681,-0.4442,-0.1761,0.9876,19.5750,21.9750,-30.7500,
4.957118,-1.2673,0.5874,1.1982,-0.4442,-0.1761,0.9876,19.5750,21.9750,-30.7500,
4.972035,-1.2673,0.5874,1.1982,-0.4442,-0.1761,0.9876,19.5750,21.9750,-30.7500,
4.974176,-1.2854,0.0871,0.9215,-0.4442,-0.1761,0.9876,19.5750,21.9750,-30.7500,
4.978617,-1.2854,0.0871,0.9215,-0.4442,-0.1761,0.9876,20.7750,22.0500,-30.3750,
4.994335,-1.2854,0.0871,0.9215,-0.4442,-0.1761,0.9876,20.7750,22.0500,-30.3750,
4.996463,-1.2500,-0.2630,0.5812,-0.4442,-0.1761,0.9876,20.7750,22.0500,-30.3750,
5.012206,-1.2500,-0.2630,0.5812,-0.4442,-0.1761,0.9876,20.7750,22.0500,-30.3750,
5.014533,-0.9752,-0.2782,0.6097,-0.4442,-0.1761,0.9876,20.7750,22.0500,-30.3750,
5.016309,-0.9752,-0.2782,0.6097,-0.5073,-0.2537,0.9668,20.7750,22.0500,-30.3750,
5.036548,-0.9752,-0.2782,0.6097,-0.5073,-0.2537,0.9668,20.7750,22.0500,-30.3750,
5.038645,-0.5096,-0.0634,0.5683,-0.5073,-0.2537,0.9668,20.7750,22.0500,-30.3750,
5.049605,-0.5096,-0.0634,0.5683,-0.5073,-0.2537,0.9668,21.3000,21.7500,-28.8750,
5.056284,-0.5096,-0.0634,0.5683,-0.5073,-0.2537,0.9668,21.3000,21.7500,-28.8750,
5.058382,-0.1998,-0.0463,0.7731,-0.5073,-0.2537,0.9668,21.3000,21.7500,-28.8750,
5.076160,-0.1998,-0.0463,0.7731,-0.5073,-0.2537,0.9668,21.3000,21.7500,-28.8750,
5.078171,-0.2938,-0.0230,0.7109,-0.5073,-0.2537,0.9668,21.3000,21.7500,-28.8750,
5.090636,-0.2938,-0.0230,0.7109,-0.5614,-0.5012,0.7648,21.3000,21.7500,-28.8750,
5.096380,-0.2938,-0.0230,0.7109,-0.5614,-0.5012,0.7648,21.3000,21.7500,-28.8750,
5.098010,0.1891,0.2870,0.0914,-0.5614,-0.5012,0.7648,21.3000,21.7500,-28.8750,
5.115557,0.1891,0.2870,0.0914,-0.5614,-0.5012,0.7648,21.3000,21.7500,-28.8750,
5.117558,0.0417,0.7947,0.0014,-0.5614,-0.5012,0.7648,21.3000,21.7500,-28.8750,
5.123060,0.0417,0.7947,0.0014,-0.5614,-0.5012,0.7648,22.0500,21.2250,-28.6500,
5.135672,0.0417,0.7947,0.0014,-0.5614,-0.5012,0.7648,22.0500,21.2250,-28.6500,
5.138010,-0.6511,1.0037,0.0834,-0.5614,-0.5012,0.7648,22.0500,21.2250,-28.6500,
5.154720,-0.6511,1.0037,0.0834,-0.5614,-0.5012,0.7648,22.0500,21.2250,-28.6500,
5.157351,-1.3151,0.6658,0.4362,-0.5614,-0.5012,0.7648,22.0500,21.2250,-28.6500,
5.159567,-1.3151,0.6658,0.4362,-0.7749,-0.5391,0.6709,22.0500,21.2250,-28.6500,
5.173914,-1.3151,0.6658,0.4362,-0.7749,-0.5391,0.6709,22.0500,21.2250,-28.6500,
5.176764,-1.9766,-0.1845,0.6933,-0.7749,-0.5391,0.6709,22.0500,21.2250,-28.6500,
5.190553,-1.9766,-0.1845,0.6933,-0.7749,-0.5391,0.6709,21.4500,21.2250,-28.4250,
5.192996,-1.9766,-0.1845,0.6933,-0.7749,-0.5391,0.6709,21.4500,21.2250,-28.4250,
5.194482,-1.1712,-0.7492,0.8354,-0.7749,-0.5391,0.6709,21.4500,21.2250,-28.4250,
5.211801,-1.1712,-0.7492,0.8354,-0.7749,-0.5391,0.6709,21.4500,21.2250,-28.4250,
5.213918,-0.1855,-0.2008,0.7965,-0.7749,-0.5391,0.6709,21.4500,21.2250,-28.4250,
5.226667,-0.1855,-0.2008,0.7965,-0.8350,-0.6867,0.8706,21.4500,21.2250,-28.4250,
5.231525,-0.1855,-0.2008,0.7965,-0.8350,-0.6867,0.8706,21.4500,21.2250,-28.4250,
5.233227,0.7351,0.7658,0.1395,-0.8350,-0.6867,0.8706,21.4500,21.2250,-28.4250,
5.252067,0.7351,0.7658,0.1395,-0.8350,-0.6867,0.8706,21.4500,21.2250,-28.4250,
5.253655,0.8936,1.2543,0.1604,-0.8350,-0.6867,0.8706,21.4500,21.2250,-28.4250,
5.260371,0.8936,1.2543,0.1604,-0.8350,-0.6867,0.8706,21.4500,21.9750,-27.9000,
5.270745,0.8936,1.2543,0.1604,-0.8350,-0.6867,0.8706,21.4500,21.9750,-27.9000,
5.272444,0.7941,0.7106,0.3107,-0.8350,-0.6867,0.8706,21.4500,21.9750,-27.9000,
5.296643,0.7941,0.7106,0.3107,-0.8350,-0.6867,0.8706,21.4500,21.9750,-27.9000,
5.298679,0.4539,-0.3738,0.4128,-0.8350,-0.6867,0.8706,21.4500,21.9750,-27.9000,
5.300317,0.4539,-0.3738,0.4128,-0.8366,-0.5702,0.7984,21.4500,21.9750,-27.9000,
5.311555,0.4539,-0.3738,0.4128,-0.8366,-0.5702,0.7984,21.4500,21.9750,-27.9000,
5.313339,-0.7475,-1.5211,0.9694,-0.8366,-0.5702,0.7984,21.4500,21.9750,-27.9000,
5.330611,-0.7475,-1.5211,0.9694,-0.8366,-0.5702,0.7984,21.6750,22.2750,-27.6000,
5.333606,-0.7475,-1.5211,0.9694,-0.8366,-0.5702,0.7984,21.6750,22.2750,-27.6000,
5.335925,-1.2288,-2.6631,1.2897,-0.8366,-0.5702,0.7984,21.6750,22.2750,-27.6000,
5.349660,-1.2288,-2.6631,1.2897,-0.8366,-0.5702,0.7984,21.6750,22.2750,-27.6000,
5.352153,-0.9717,-2.7546,0.0825,-0.8366,-0.5702,0.7984,21.6750,22.2750,-27.6000,
5.368635,-0.9717,-2.7546,0.0825,-0.6446,-0.5565,0.9517,21.6750,22.2750,-27.6000,
5.373299,-0.9717,-2.7546,0.0825,-0.6446,-0.5565,0.9517,21.6750,22.2750,-27.6000,
5.375448,-1.8508,-2.4930,-1.2835,-0.6446,-0.5565,0.9517,21.6750,22.2750,-27.6000,
5.393301,-1.8508,-2.4930,-1.2835,-0.6446,-0.5565,0.9517,21.6750,22.2750,-27.6000,
5.395853,-1.7454,-2.4122,-0.3634,-0.6446,-0.5565,0.9517,21.6750,22.2750,-27.6000,
5.398648,-1.7454,-2.4122,-0.3634,-0.6446,-0.5565,0.9517,21.6750,21.9000,-27.6000,
5.412184,-1.7454,-2.4122,-0.3634,-0.6446,-0.5565,0.9517,21.6750,21.9000,-27.6000,
5.414800,-0.1616,-1.5769,-0.7162,-0.6446,-0.5565,0.9517,21.6750,21.9000,-27.6000,
5.432085,-0.1616,-1.5769,-0.7162,-0.6446,-0.5565,0.9517,21.6750,21.9000,-27.6000,
5.434865,0.4217,-1.4756,-1.1647,-0.6446,-0.5565,0.9517,21.6750,21.9000,-27.6000,
5.443330,0.4217,-1.4756,-1.1647,-0.4116,-0.9778,0.7385,21.6750,21.9000,-27.6000,
5.451456,0.4217,-1.4756,-1.1647,-0.4116,-0.9778,0.7385,21.6750,21.9000,-27.6000,
5.453021,0.0560,-1.9827,-0.8897,-0.4116,-0.9778,0.7385,21.6750,21.9000,-27.6000,
5.474718,0.0560,-1.9827,-0.8897,-0.4116,-0.9778,0.7385,22.2750,22.2000,-27.3000,
5.477459,0.0560,-1.9827,-0.8897,-0.4116,-0.9778,0.7385,22.2750,22.2000,-27.3000,
5.479265,0.4863,-1.5514,-1.0400,-0.4116,-0.9778,0.7385,22.2750,22.2000,-27.3000,
5.490741,0.4863,-1.5514,-1.0400,-0.4116,-0.9778,0.7385,22.2750,22.2000,-27.3000,
5.492558,1.5418,0.4168,-1.9709,-0.4116,-0.9778,0.7385,22.2750,22.2000,-27.3000,
5.505565,1.5418,0.4168,-1.9709,0.0768,-0.6519,-0.2940,22.2750,22.2000,-27.3000,
5.510563,1.5418,0.4168,-1.9709,0.0768,-0.6519,-0.2940,22.2750,22.2000,-27.3000,
5.512223,1.3985,1.3611,-1.8364,0.0768,-0.6519,-0.2940,22.2750,22.2000,-27.3000,
5.525510,1.3985,1.3611,-1.8364,0.0768,-0.6519,-0.2940,22.2750,22.2000,-27.3000,
5.527795,0.5751,0.3819,-1.1217,0.0768,-0.6519,-0.2940,22.2750,22.2000,-27.3000,
5.530232,0.5751,0.3819,-1.1217,0.0768,-0.6519,-0.2940,20.5500,22.5000,-28.5000,
5.545071,0.5751,0.3819,-1.1217,0.0768,-0.6519,-0.2940,20.5500,22.5000,-28.5000,
5.546365,0.0062,-0.4103,-0.8244,0.0768,-0.6519,-0.2940,20.5500,22.5000,-28.5000,
5.575250,0.0062,-0.4103,-0.8244,0.0768,-0.6519,-0.2940,20.5500,22.5000,-28.5000,
5.577552,0.2983,-0.2822,-1.1869,0.0768,-0.6519,-0.2940,20.5500,22.5000,-28.5000,
5.579276,0.2983,-0.2822,-1.1869,-0.0513,-0.1107,-0.5611,20.5500,22.5000,-28.5000,
5.594810,0.2983,-0.2822,-1.1869,-0.0513,-0.1107,-0.5611,20.5500,22.5000,-28.5000,
5.596686,0.4988,0.3876,-1.4942,-0.0513,-0.1107,-0.5611,20.5500,22.5000,-28.5000,
5.605288,0.4988,0.3876,-1.4942,-0.0513,-0.1107,-0.5611,18.4500,23.6250,-29.2500,
5.614328,0.4988,0.3876,-1.4942,-0.0513,-0.1107,-0.5611,18.4500,23.6250,-29.2500,
5.615989,0.3791,0.4185,-1.4322,-0.0513,-0.1107,-0.5611,18.4500,23.6250,-29.2500,
5.633423,0.3791,0.4185,-1.4322,-0.0513,-0.1107,-0.5611,18.4500,23.6250,-29.2500,
5.635570,-0.1307,0.1366,-1.2136,-0.0513,-0.1107,-0.5611,18.4500,23.6250,-29.2500,
5.648095,-0.1307,0.1366,-1.2136,-0.3073,-0.0423,-0.9938,18.4500,23.6250,-29.2500,
5.654168,-0.1307,0.1366,-1.2136,-0.3073,-0.0423,-0.9938,18.4500,23.6250,-29.2500,
5.657691,-0.2065,-0.5803,-0.9057,-0.3073,-0.0423,-0.9938,18.4500,23.6250,-29.2500,
5.674562,-0.2065,-0.5803,-0.9057,-0.3073,-0.0423,-0.9938,18.4500,23.6250,-29.2500,
5.677209,-0.3318,-0.8786,-0.5282,-0.3073,-0.0423,-0.9938,18.4500,23.6250,-29.2500,
5.679752,-0.3318,-0.8786,-0.5282,-0.3073,-0.0423,-0.9938,17.5500,24.8250,-29.4750,
5.691485,-0.3318,-0.8786,-0.5282,-0.3073,-0.0423,-0.9938,17.5500,24.8250,-29.4750,
5.694531,-0.0283,-0.4072,-0.2110,-0.3073,-0.0423,-0.9938,17.5500,24.8250,-29.4750,
5.711029,-0.0283,-0.4072,-0.2110,-0.3073,-0.0423,-0.9938,17.5500,24.8250,-29.4750,
5.713690,0.6734,0.3274,-0.4443,-0.3073,-0.0423,-0.9938,17.5500,24.8250,-29.4750,
5.716109,0.6734,0.3274,-0.4443,-0.0646,-0.1358,-0.9118,17.5500,24.8250,-29.4750,
5.731106,0.6734,0.3274,-0.4443,-0.0646,-0.1358,-0.9118,17.5500,24.8250,-29.4750,
5.733635,1.0568,1.0285,-0.3239,-0.0646,-0.1358,-0.9118,17.5500,24.8250,-29.4750,
5.740685,1.0568,1.0285,-0.3239,-0.0646,-0.1358,-0.9118,15.6000,26.3250,-28.6500,
5.752465,1.0568,1.0285,-0.3239,-0.0646,-0.1358,-0.9118,15.6000,26.3250,-28.6500,
5.756663,0.8378,1.3837,0.3101,-0.0646,-0.1358,-0.9118,15.6000,26.3250,-28.6500,
5.765201,0.8378,1.3837,0.3101,-0.0646,-0.1358,-0.9118,15.6000,26.3250,-28.6500,
5.767240,0.4958,1.2560,0.7569,-0.0646,-0.1358,-0.9118,15.6000,26.3250,-28.6500,
5.785263,0.4958,1.2560,0.7569,0.1022,0.0438,-1.0841,15.6000,26.3250,-28.6500,
5.787140,0.4958,1.2560,0.7569,0.1022,0.0438,-1.0841,15.6000,26.3250,-28.6500,
5.788039,0.6309,1.0644,0.8926,0.1022,0.0438,-1.0841,15.6000,26.3250,-28.6500,
5.810504,0.6309,1.0644,0.8926,0.1022,0.0438,-1.0841,15.6000,26.3250,-28.6500,
5.812057,0.7431,1.3446,0.7147,0.1022,0.0438,-1.0841,15.6000,26.3250,-28.6500,
5.813629,0.7431,1.3446,0.7147,0.1022,0.0438,-1.0841,12.7500,27.6000,-28.8750,
5.825568,0.7431,1.3446,0.7147,0.1022,0.0438,-1.0841,12.7500,27.6000,-28.8750,
5.827563,0.3031,1.9538,-0.0218,0.1022,0.0438,-1.0841,12.7500,27.6000,-28.8750,
5.846163,0.3031,1.9538,-0.0218,0.1022,0.0438,-1.0841,12.7500,27.6000,-28.8750,
5.850161,-0.4016,1.7722,-0.0530,0.1022,0.0438,-1.0841,12.7500,27.6000,-28.8750,
5.859174,-0.4016,1.7722,-0.0530,0.2266,0.1460,-1.0166,12.7500,27.6000,-28.8750,
5.873535,-0.4016,1.7722,-0.0530,0.2266,0.1460,-1.0166,12.7500,27.6000,-28.8750,
5.875690,-0.9469,1.1249,1.7188,0.2266,0.1460,-1.0166,12.7500,27.6000,-28.8750,
5.882419,-0.9469,1.1249,1.7188,0.2266,0.1460,-1.0166,10.6500,27.9750,-29.3250,
5.891735,-0.9469,1.1249,1.7188,0.2266,0.1460,-1.0166,10.6500,27.9750,-29.3250,
5.893428,-0.0501,0.6433,2.8489,0.2266,0.1460,-1.0166,10.6500,27.9750,-29.3250,
5.911898,-0.0501,0.6433,2.8489,0.2266,0.1460,-1.0166,10.6500,27.9750,-29.3250,
5.914631,0.2801,1.1652,1.8381,0.2266,0.1460,-1.0166,10.6500,27.9750,-29.3250,
5.925973,0.2801,1.1652,1.8381,0.2515,0.0400,-0.7744,10.6500,27.9750,-29.3250,
5.931409,0.2801,1.1652,1.8381,0.2515,0.0400,-0.7744,10.6500,27.9750,-29.3250,
5.932660,-0.4639,1.9863,0.1359,0.2515,0.0400,-0.7744,10.6500,27.9750,-29.3250,
5.950940,-0.4639,1.9863,0.1359,0.2515,0.0400,-0.7744,10.6500,27.9750,-29.3250,
5.953469,-2.2463,2.4500,0.1773,0.2515,0.0400,-0.7744,10.6500,27.9750,-29.3250,
5.955164,-2.2463,2.4500,0.1773,0.2515,0.0400,-0.7744,9.3000,28.4250,-30.3750,
5.965650,-2.2463,2.4500,0.1773,0.2515,0.0400,-0.7744,9.3000,28.4250,-30.3750,
5.967426,-3.3676,2.1584,1.7514,0.2515,0.0400,-0.7744,9.3000,28.4250,-30.3750,
5.989470,-3.3676,2.1584,1.7514,0.2515,0.0400,-0.7744,9.3000,28.4250,-30.3750,
5.994584,-2.7163,1.1502,2.5976,0.2515,0.0400,-0.7744,9.3000,28.4250,-30.3750,
5.997090,-2.7163,1.1502,2.5976,-0.3468,-0.4293,-0.5012,9.3000,28.4250,-30.3750,
6.005905,-2.7163,1.1502,2.5976,-0.3468,-0.4293,-0.5012,9.3000,28.4250,-30.3750,
6.007671,-0.7003,0.3047,1.5048,-0.3468,-0.4293,-0.5012,9.3000,28.4250,-30.3750,
6.020717,-0.7003,0.3047,1.5048,-0.3468,-0.4293,-0.5012,6.6000,29.6250,-30.0000,
6.024437,-0.7003,0.3047,1.5048,-0.3468,-0.4293,-0.5012,6.6000,29.6250,-30.0000,
6.026806,0.7384,0.2082,0.7552,-0.3468,-0.4293,-0.5012,6.6000,29.6250,-30.0000,
6.047764,0.7384,0.2082,0.7552,-0.3468,-0.4293,-0.5012,6.6000,29.6250,-30.0000,
6.050208,0.6113,0.3718,0.8710,-0.3468,-0.4293,-0.5012,6.6000,29.6250,-30.0000,
6.063174,0.6113,0.3718,0.8710,-0.5240,-0.5149,-0.2590,6.6000,29.6250,-30.0000,
6.068137,0.6113,0.3718,0.8710,-0.5240,-0.5149,-0.2590,6.6000,29.6250,-30.0000,
6.070396,0.4617,0.5160,1.0771,-0.5240,-0.5149,-0.2590,6.6000,29.6250,-30.0000,
6.087209,0.4617,0.5160,1.0771,-0.5240,-0.5149,-0.2590,6.6000,29.6250,-30.0000,
6.092130,1.1185,0.2648,0.2898,-0.5240,-0.5149,-0.2590,6.6000,29.6250,-30.0000,
6.094581,1.1185,0.2648,0.2898,-0.5240,-0.5149,-0.2590,4.6500,30.0000,-28.8000,
6.107281,1.1185,0.2648,0.2898,-0.5240,-0.5149,-0.2590,4.6500,30.0000,-28.8000,
6.109749,1.3536,-0.3863,-0.4900,-0.5240,-0.5149,-0.2590,4.6500,30.0000,-28.8000,
6.124133,1.3536,-0.3863,-0.4900,-0.5240,-0.5149,-0.2590,4.6500,30.0000,-28.8000,
6.125917,1.3045,-1.5499,-1.1809,-0.5240,-0.5149,-0.2590,4.6500,30.0000,-28.8000,
6.131233,1.3045,-1.5499,-1.1809,-0.4916,-0.2311,0.0057,4.6500,30.0000,-28.8000,
6.146221,1.3045,-1.5499,-1.1809,-0.4916,-0.2311,0.0057,4.6500,30.0000,-28.8000,
6.149391,1.5237,-2.5398,-1.0660,-0.4916,-0.2311,0.0057,4.6500,30.0000,-28.8000,
6.158988,1.5237,-2.5398,-1.0660,-0.4916,-0.2311,0.0057,3.9750,31.8000,-27.6000,
6.166074,1.5237,-2.5398,-1.0660,-0.4916,-0.2311,0.0057,3.9750,31.8000,-27.6000,
6.168023,1.6045,-3.3321,-0.7123,-0.4916,-0.2311,0.0057,3.9750,31.8000,-27.6000,
6.190769,1.6045,-3.3321,-0.7123,-0.4916,-0.2311,0.0057,3.9750,31.8000,-27.6000,
6.194828,0.6705,-4.0235,-0.1751,-0.4916,-0.2311,0.0057,3.9750,31.8000,-27.6000,
6.205270,0.6705,-4.0235,-0.1751,-0.0192,0.2277,0.7628,3.9750,31.8000,-27.6000,
6.208238,0.6705,-4.0235,-0.1751,-0.0192,0.2277,0.7628,3.9750,31.8000,-27.6000,
6.209561,-0.2317,-3.9401,0.0210,-0.0192,0.2277,0.7628,3.9750,31.8000,-27.6000,
6.224749,-0.2317,-3.9401,0.0210,-0.0192,0.2277,0.7628,3.9750,31.8000,-27.6000,
6.227109,-0.5643,-3.2781,0.7915,-0.0192,0.2277,0.7628,3.9750,31.8000,-27.6000,
6.239460,-0.5643,-3.2781,0.7915,-0.0192,0.2277,0.7628,4.3500,31.8750,-26.7000,
6.248509,-0.5643,-3.2781,0.7915,-0.0192,0.2277,0.7628,4.3500,31.8750,-26.7000,
6.250837,-0.3549,-2.5680,0.1505,-0.0192,0.2277,0.7628,4.3500,31.8750,-26.7000,
6.267697,-0.3549,-2.5680,0.1505,-0.0192,0.2277,0.7628,4.3500,31.8750,-26.7000,
6.269597,0.0879,-1.8051,-0.3167,-0.0192,0.2277,0.7628,4.3500,31.8750,-26.7000,
6.273013,0.0879,-1.8051,-0.3167,0.4019,0.5240,1.3697,4.3500,31.8750,-26.7000,
6.288883,0.0879,-1.8051,-0.3167,0.4019,0.5240,1.3697,4.3500,31.8750,-26.7000,
6.291330,0.7331,-0.9095,0.2733,0.4019,0.5240,1.3697,4.3500,31.8750,-26.7000,
6.299456,0.7331,-0.9095,0.2733,0.4019,0.5240,1.3697,8.5500,30.8250,-27.0000,
6.310201,0.7331,-0.9095,0.2733,0.4019,0.5240,1.3697,8.5500,30.8250,-27.0000,
6.312318,1.1079,-0.4407,0.4990,0.4019,0.5240,1.3697,8.5500,30.8250,-27.0000,
6.322732,1.1079,-0.4407,0.4990,0.4019,0.5240,1.3697,8.5500,30.8250,-27.0000,
6.325172,1.2714,-0.4569,0.1195,0.4019,0.5240,1.3697,8.5500,30.8250,-27.0000,
6.341802,1.2714,-0.4569,0.1195,0.5400,0.6689,1.5018,8.5500,30.8250,-27.0000,
6.346602,1.2714,-0.4569,0.1195,0.5400,0.6689,1.5018,8.5500,30.8250,-27.0000,
6.348476,1.3152,-0.9939,-0.6597,0.5400,0.6689,1.5018,8.5500,30.8250,-27.0000,
6.361441,1.3152,-0.9939,-0.6597,0.5400,0.6689,1.5018,8.5500,30.8250,-27.0000,
6.364052,1.4804,-1.8558,-0.6515,0.5400,0.6689,1.5018,8.5500,30.8250,-27.0000,
6.369595,1.4804,-1.8558,-0.6515,0.5400,0.6689,1.5018,12.7500,29.1750,-27.9000,
6.381123,1.4804,-1.8558,-0.6515,0.5400,0.6689,1.5018,12.7500,29.1750,-27.9000,
6.383139,1.1593,-2.5708,-0.8970,0.5400,0.6689,1.5018,12.7500,29.1750,-27.9000,
6.405936,1.1593,-2.5708,-0.8970,0.5400,0.6689,1.5018,12.7500,29.1750,-27.9000,
6.408039,0.4087,-3.1044,-1.8686,0.5400,0.6689,1.5018,12.7500,29.1750,-27.9000,
6.411571,0.4087,-3.1044,-1.8686,0.7124,1.1395,1.6113,12.7500,29.1750,-27.9000,
6.426377,0.4087,-3.1044,-1.8686,0.7124,1.1395,1.6113,12.7500,29.1750,-27.9000,
6.427861,-0.0507,-3.4146,-3.3949,0.7124,1.1395,1.6113,12.7500,29.1750,-27.9000,
6.440177,-0.0507,-3.4146,-3.3949,0.7124,1.1395,1.6113,18.4500,26.5500,-28.4250,
6.445148,-0.0507,-3.4146,-3.3949,0.7124,1.1395,1.6113,18.4500,26.5500,-28.4250,
6.448180,-0.7651,-3.0489,-4.7000,0.7124,1.1395,1.6113,18.4500,26.5500,-28.4250,
6.472915,-0.7651,-3.0489,-4.7000,0.7124,1.1395,1.6113,18.4500,26.5500,-28.4250,
6.477114,-1.4139,-1.9104,-4.3697,0.7124,1.1395,1.6113,18.4500,26.5500,-28.4250,
6.493436,-1.4139,-1.9104,-4.3697,0.4604,0.3964,1.9860,18.4500,26.5500,-28.4250,
6.496237,-1.4139,-1.9104,-4.3697,0.4604,0.3964,1.9860,18.4500,26.5500,-28.4250,
6.498245,-0.2140,0.3930,-3.5703,0.4604,0.3964,1.9860,18.4500,26.5500,-28.4250,
6.506426,-0.2140,0.3930,-3.5703,0.4604,0.3964,1.9860,18.4500,26.5500,-28.4250,
6.508228,-2.7933,2.1634,0.2651,0.4604,0.3964,1.9860,18.4500,26.5500,-28.4250,
6.510142,-2.7933,2.1634,0.2651,0.4604,0.3964,1.9860,23.7750,23.4000,-28.2000,
6.524471,-2.7933,2.1634,0.2651,0.4604,0.3964,1.9860,23.7750,23.4000,-28.2000,
6.526261,-5.4278,2.6543,2.1806,0.4604,0.3964,1.9860,23.7750,23.4000,-28.2000,
6.546990,-5.4278,2.6543,2.1806,0.4604,0.3964,1.9860,23.7750,23.4000,-28.2000,
6.549557,-8.3256,2.7961,1.9427,0.4604,0.3964,1.9860,23.7750,23.4000,-28.2000,
6.554142,-8.3256,2.7961,1.9427,0.5206,-0.3468,1.1447,23.7750,23.4000,-28.2000,
6.565824,-8.3256,2.7961,1.9427,0.5206,-0.3468,1.1447,23.7750,23.4000,-28.2000,
6.568252,-4.9866,2.6613,-0.0032,0.5206,-0.3468,1.1447,23.7750,23.4000,-28.2000,
6.578859,-4.9866,2.6613,-0.0032,0.5206,-0.3468,1.1447,25.2750,20.7000,-29.5500,
6.582047,-4.9866,2.6613,-0.0032,0.5206,-0.3468,1.1447,25.2750,20.7000,-29.5500,
6.583667,-0.6869,1.9051,-1.3075,0.5206,-0.3468,1.1447,25.2750,20.7000,-29.5500,
6.601094,-0.6869,1.9051,-1.3075,0.5206,-0.3468,1.1447,25.2750,20.7000,-29.5500,
6.604455,1.3334,0.5967,-1.9130,0.5206,-0.3468,1.1447,25.2750,20.7000,-29.5500,
6.623023,1.3334,0.5967,-1.9130,0.2804,-0.8262,0.6287,25.2750,20.7000,-29.5500,
6.624987,1.3334,0.5967,-1.9130,0.2804,-0.8262,0.6287,25.2750,20.7000,-29.5500,
6.626057,1.8122,-0.4822,-1.9295,0.2804,-0.8262,0.6287,25.2750,20.7000,-29.5500,
6.646050,1.8122,-0.4822,-1.9295,0.2804,-0.8262,0.6287,25.2750,20.7000,-29.5500,
6.647768,0.8962,-0.5159,-1.5936,0.2804,-0.8262,0.6287,25.2750,20.7000,-29.5500,
6.649292,0.8962,-0.5159,-1.5936,0.2804,-0.8262,0.6287,24.9750,18.1500,-31.3500,
6.666100,0.8962,-0.5159,-1.5936,0.2804,-0.8262,0.6287,24.9750,18.1500,-31.3500,
6.668158,0.4714,0.1901,-1.2249,0.2804,-0.8262,0.6287,24.9750,18.1500,-31.3500,
6.689173,0.4714,0.1901,-1.2249,0.2804,-0.8262,0.6287,24.9750,18.1500,-31.3500,
6.691098,-0.1271,0.4332,-0.8173,0.2804,-0.8262,0.6287,24.9750,18.1500,-31.3500,
6.692701,-0.1271,0.4332,-0.8173,-0.0255,-0.5388,0.1987,24.9750,18.1500,-31.3500,
6.708469,-0.1271,0.4332,-0.8173,-0.0255,-0.5388,0.1987,24.9750,18.1500,-31.3500,
6.711371,-1.1746,-0.0760,0.4831,-0.0255,-0.5388,0.1987,24.9750,18.1500,-31.3500,
6.722695,-1.1746,-0.0760,0.4831,-0.0255,-0.5388,0.1987,23.7000,17.8500,-32.7750,
6.725123,-1.1746,-0.0760,0.4831,-0.0255,-0.5388,0.1987,23.7000,17.8500,-32.7750,
6.727672,-2.0494,-0.8502,0.5678,-0.0255,-0.5388,0.1987,23.7000,17.8500,-32.7750,
6.748980,-2.0494,-0.8502,0.5678,-0.0255,-0.5388,0.1987,23.7000,17.8500,-32.7750,
6.750800,-1.8537,-1.2059,0.0016,-0.0255,-0.5388,0.1987,23.7000,17.8500,-32.7750,
6.762612,-1.8537,-1.2059,0.0016,0.1695,-0.4262,0.2944,23.7000,17.8500,-32.7750,
6.770348,-1.8537,-1.2059,0.0016,0.1695,-0.4262,0.2944,23.7000,17.8500,-32.7750,
6.771485,-1.5939,-0.9918,-0.5562,0.1695,-0.4262,0.2944,23.7000,17.8500,-32.7750,
6.792236,-1.5939,-0.9918,-0.5562,0.1695,-0.4262,0.2944,23.7000,17.8500,-32.7750,
6.794218,-0.2097,-1.0811,-0.7382,0.1695,-0.4262,0.2944,23.7000,17.8500,-32.7750,
6.795479,-0.2097,-1.0811,-0.7382,0.1695,-0.4262,0.2944,22.5750,17.7750,-33.5250,
6.805044,-0.2097,-1.0811,-0.7382,0.1695,-0.4262,0.2944,22.5750,17.7750,-33.5250,
6.806178,-1.5936,-1.3788,-0.1964,0.1695,-0.4262,0.2944,22.5750,17.7750,-33.5250,
6.824963,-1.5936,-1.3788,-0.1964,0.1695,-0.4262,0.2944,22.5750,17.7750,-33.5250,
6.826431,-0.4885,-1.3427,0.1816,0.1695,-0.4262,0.2944,22.5750,17.7750,-33.5250,
6.831674,-0.4885,-1.3427,0.1816,0.3219,-0.3980,0.0611,22.5750,17.7750,-33.5250,
6.846151,-0.4885,-1.3427,0.1816,0.3219,-0.3980,0.0611,22.5750,17.7750,-33.5250,
6.847991,-1.4471,-1.6222,0.7162,0.3219,-0.3980,0.0611,22.5750,17.7750,-33.5250,
6.860018,-1.4471,-1.6222,0.7162,0.3219,-0.3980,0.0611,21.7500,16.5750,-34.5000,
6.866579,-1.4471,-1.6222,0.7162,0.3219,-0.3980,0.0611,21.7500,16.5750,-34.5000,
6.867983,-1.3189,-0.8492,0.3961,0.3219,-0.3980,0.0611,21.7500,16.5750,-34.5000,
6.884260,-1.3189,-0.8492,0.3961,0.3219,-0.3980,0.0611,21.7500,16.5750,-34.5000,
6.886668,-0.4242,-0.5950,0.1126,0.3219,-0.3980,0.0611,21.7500,16.5750,-34.5000,
6.899913,-0.4242,-0.5950,0.1126,0.5076,-0.5658,0.0516,21.7500,16.5750,-34.5000,
6.913154,-0.4242,-0.5950,0.1126,0.5076,-0.5658,0.0516,21.7500,16.5750,-34.5000,
6.918408,-0.8575,0.4728,-0.1870,0.5076,-0.5658,0.0516,21.7500,16.5750,-34.5000,
6.935183,-0.8575,0.4728,-0.1870,0.5076,-0.5658,0.0516,21.7500,16.5750,-34.5000,
6.938751,-0.1703,0.8742,-0.2789,0.5076,-0.5658,0.0516,21.7500,16.5750,-34.5000,
6.940778,-0.1703,0.8742,-0.2789,0.5076,-0.5658,0.0516,19.8750,15.5250,-36.1500,
6.948599,-0.1703,0.8742,-0.2789,0.5076,-0.5658,0.0516,19.8750,15.5250,-36.1500,
6.950468,0.4353,0.7856,-0.6137,0.5076,-0.5658,0.0516,19.8750,15.5250,-36.1500,
6.963751,0.4353,0.7856,-0.6137,0.5076,-0.5658,0.0516,19.8750,15.5250,-36.1500,
6.966024,0.6385,1.3094,-0.8002,0.5076,-0.5658,0.0516,19.8750,15.5250,-36.1500,
6.970195,0.6385,1.3094,-0.8002,0.4629,-0.5921,-0.1640,19.8750,15.5250,-36.1500,
6.983234,0.6385,1.3094,-0.8002,0.4629,-0.5921,-0.1640,19.8750,15.5250,-36.1500,
6.985221,-0.0086,2.5001,-0.1506,0.4629,-0.5921,-0.1640,19.8750,15.5250,-36.1500,
6.999100,-0.0086,2.5001,-0.1506,0.4629,-0.5921,-0.1640,17.5500,13.8750,-37.1250,
7.004662,-0.0086,2.5001,-0.1506,0.4629,-0.5921,-0.1640,17.5500,13.8750,-37.1250,
7.007106,-0.2415,3.3930,-0.0979,0.4629,-0.5921,-0.1640,17.5500,13.8750,-37.1250,
7.025660,-0.2415,3.3930,-0.0979,0.4629,-0.5921,-0.1640,17.5500,13.8750,-37.1250,
7.028588,-0.0227,3.5240,-0.1058,0.4629,-0.5921,-0.1640,17.5500,13.8750,-37.1250,
7.041249,-0.0227,3.5240,-0.1058,0.7616,-0.3415,-0.1643,17.5500,13.8750,-37.1250,
7.047168,-0.0227,3.5240,-0.1058,0.7616,-0.3415,-0.1643,17.5500,13.8750,-37.1250,
7.048458,-0.0628,3.3679,0.0139,0.7616,-0.3415,-0.1643,17.5500,13.8750,-37.1250,
7.066411,-0.0628,3.3679,0.0139,0.7616,-0.3415,-0.1643,17.5500,13.8750,-37.1250,
7.068147,-0.6432,2.9870,0.1259,0.7616,-0.3415,-0.1643,17.5500,13.8750,-37.1250,
7.069774,-0.6432,2.9870,0.1259,0.7616,-0.3415,-0.1643,15.6750,12.6750,-38.6250,
7.086151,-0.6432,2.9870,0.1259,0.7616,-0.3415,-0.1643,15.6750,12.6750,-38.6250,
7.088215,-0.7088,2.3314,-0.1149,0.7616,-0.3415,-0.1643,15.6750,12.6750,-38.6250,
7.106225,-0.7088,2.3314,-0.1149,0.7616,-0.3415,-0.1643,15.6750,12.6750,-38.6250,
7.109034,-0.1672,1.2746,-0.3403,0.7616,-0.3415,-0.1643,15.6750,12.6750,-38.6250,
7.111305,-0.1672,1.2746,-0.3403,0.8610,-0.2222,0.0739,15.6750,12.6750,-38.6250,
7.123919,-0.1672,1.2746,-0.3403,0.8610,-0.2222,0.0739,15.6750,12.6750,-38.6250,
7.125940,0.6170,0.8982,-0.3398,0.8610,-0.2222,0.0739,15.6750,12.6750,-38.6250,
7.139762,0.6170,0.8982,-0.3398,0.8610,-0.2222,0.0739,15.6750,12.6750,-38.6250,
7.141639,0.7183,1.3812,-0.0609,0.8610,-0.2222,0.0739,15.6750,12.6750,-38.6250,
7.143498,0.7183,1.3812,-0.0609,0.8610,-0.2222,0.0739,14.1750,10.6500,-40.3500,
7.163073,0.7183,1.3812,-0.0609,0.8610,-0.2222,0.0739,14.1750,10.6500,-40.3500,
7.164948,-0.0210,2.0024,-0.7580,0.8610,-0.2222,0.0739,14.1750,10.6500,-40.3500,
7.177534,-0.0210,2.0024,-0.7580,0.6739,-0.4481,-0.2398,14.1750,10.6500,-40.3500,
7.184933,-0.0210,2.0024,-0.7580,0.6739,-0.4481,-0.2398,14.1750,10.6500,-40.3500,
7.187246,-0.7325,2.2311,-1.0168,0.6739,-0.4481,-0.2398,14.1750,10.6500,-40.3500,
7.206526,-0.7325,2.2311,-1.0168,0.6739,-0.4481,-0.2398,14.1750,10.6500,-40.3500,
7.209493,-0.6756,2.7651,-0.4917,0.6739,-0.4481,-0.2398,14.1750,10.6500,-40.3500,
7.212025,-0.6756,2.7651,-0.4917,0.6739,-0.4481,-0.2398,13.1250,9.4500,-41.4000,
7.222853,-0.6756,2.7651,-0.4917,0.6739,-0.4481,-0.2398,13.1250,9.4500,-41.4000,
7.225362,-0.1894,3.6907,-0.6693,0.6739,-0.4481,-0.2398,13.1250,9.4500,-41.4000,
7.241686,-0.1894,3.6907,-0.6693,0.6739,-0.4481,-0.2398,13.1250,9.4500,-41.4000,
7.244537,0.2111,3.4222,-1.1174,0.6739,-0.4481,-0.2398,13.1250,9.4500,-41.4000,
7.246568,0.2111,3.4222,-1.1174,0.3835,-0.6124,-0.3496,13.1250,9.4500,-41.4000,
7.261292,0.2111,3.4222,-1.1174,0.3835,-0.6124,-0.3496,13.1250,9.4500,-41.4000,
7.263863,0.7476,1.9374,0.1596,0.3835,-0.6124,-0.3496,13.1250,9.4500,-41.4000,
7.278816,0.7476,1.9374,0.1596,0.3835,-0.6124,-0.3496,11.1000,7.9500,-42.2250,
7.285456,0.7476,1.9374,0.1596,0.3835,-0.6124,-0.3496,11.1000,7.9500,-42.2250,
7.287640,0.9294,-0.0910,0.3294,0.3835,-0.6124,-0.3496,11.1000,7.9500,-42.2250,
7.308245,0.9294,-0.0910,0.3294,0.3835,-0.6124,-0.3496,11.1000,7.9500,-42.2250,
7.311211,0.4182,-2.0502,1.1981,0.3835,-0.6124,-0.3496,11.1000,7.9500,-42.2250,
7.321366,0.4182,-2.0502,1.1981,0.1403,-0.7694,-0.2990,11.1000,7.9500,-42.2250,
7.324226,0.4182,-2.0502,1.1981,0.1403,-0.7694,-0.2990,11.1000,7.9500,-42.2250,
7.325489,-1.0568,-2.3563,1.6133,0.1403,-0.7694,-0.2990,11.1000,7.9500,-42.2250,
7.344364,-1.0568,-2.3563,1.6133,0.1403,-0.7694,-0.2990,11.1000,7.9500,-42.2250,
7.347038,-1.6253,-2.5924,2.5077,0.1403,-0.7694,-0.2990,11.1000,7.9500,-42.2250,
7.349221,-1.6253,-2.5924,2.5077,0.1403,-0.7694,-0.2990,9.1500,7.3500,-43.0500,
7.363426,-1.6253,-2.5924,2.5077,0.1403,-0.7694,-0.2990,9.1500,7.3500,-43.0500,
7.365765,-1.0358,-0.8828,2.2022,0.1403,-0.7694,-0.2990,9.1500,7.3500,-43.0500,
7.383307,-1.0358,-0.8828,2.2022,0.1403,-0.7694,-0.2990,9.1500,7.3500,-43.0500,
7.386122,0.1782,-0.6094,1.8444,0.1403,-0.7694,-0.2990,9.1500,7.3500,-43.0500,
7.388060,0.1782,-0.6094,1.8444,0.2428,-0.7507,-0.1339,9.1500,7.3500,-43.0500,
7.398288,0.1782,-0.6094,1.8444,0.2428,-0.7507,-0.1339,9.1500,7.3500,-43.0500,
7.400024,-0.1173,0.2483,2.0102,0.2428,-0.7507,-0.1339,9.1500,7.3500,-43.0500,
7.418100,-0.1173,0.2483,2.0102,0.2428,-0.7507,-0.1339,9.1500,7.3500,-43.0500,
7.421551,-0.5140,1.4996,1.1709,0.2428,-0.7507,-0.1339,9.1500,7.3500,-43.0500,
7.423938,-0.5140,1.4996,1.1709,0.2428,-0.7507,-0.1339,6.4500,6.5250,-43.5000,
7.442165,-0.5140,1.4996,1.1709,0.2428,-0.7507,-0.1339,6.4500,6.5250,-43.5000,
7.444540,-0.2533,2.3350,0.4682,0.2428,-0.7507,-0.1339,6.4500,6.5250,-43.5000,
7.456605,-0.2533,2.3350,0.4682,0.0615,-0.6292,-0.1484,6.4500,6.5250,-43.5000,
7.461790,-0.2533,2.3350,0.4682,0.0615,-0.6292,-0.1484,6.4500,6.5250,-43.5000,
7.464089,-0.1476,2.4090,0.9019,0.0615,-0.6292,-0.1484,6.4500,6.5250,-43.5000,
7.481021,-0.1476,2.4090,0.9019,0.0615,-0.6292,-0.1484,6.4500,6.5250,-43.5000,
7.483319,-0.5114,1.4720,1.3960,0.0615,-0.6292,-0.1484,6.4500,6.5250,-43.5000,
7.491150,-0.5114,1.4720,1.3960,0.0615,-0.6292,-0.1484,4.4250,6.7500,-43.6500,
7.506480,-0.5114,1.4720,1.3960,0.0615,-0.6292,-0.1484,4.4250,6.7500,-43.6500,
7.508585,-0.8931,0.3754,1.5487,0.0615,-0.6292,-0.1484,4.4250,6.7500,-43.6500,
7.516512,-0.8931,0.3754,1.5487,0.0615,-0.6292,-0.1484,4.4250,6.7500,-43.6500,
7.518644,-0.7441,0.2457,1.6383,0.0615,-0.6292,-0.1484,4.4250,6.7500,-43.6500,
7.529950,-0.7441,0.2457,1.6383,-0.2428,-0.4781,-0.0087,4.4250,6.7500,-43.6500,
7.539688,-0.7441,0.2457,1.6383,-0.2428,-0.4781,-0.0087,4.4250,6.7500,-43.6500,
7.541576,-0.0274,0.9975,1.4298,-0.2428,-0.4781,-0.0087,4.4250,6.7500,-43.6500,
7.560001,-0.0274,0.9975,1.4298,-0.2428,-0.4781,-0.0087,3.1500,7.2000,-43.8000,
7.564839,-0.0274,0.9975,1.4298,-0.2428,-0.4781,-0.0087,3.1500,7.2000,-43.8000,
7.566513,0.4189,1.1532,1.5195,-0.2428,-0.4781,-0.0087,3.1500,7.2000,-43.8000,
7.586024,0.4189,1.1532,1.5195,-0.2428,-0.4781,-0.0087,3.1500,7.2000,-43.8000,
7.588106,-0.1149,1.4475,1.7620,-0.2428,-0.4781,-0.0087,3.1500,7.2000,-43.8000,
7.599606,-0.1149,1.4475,1.7620,-0.1263,-0.3575,0.0400,3.1500,7.2000,-43.8000,
7.604173,-0.1149,1.4475,1.7620,-0.1263,-0.3575,0.0400,3.1500,7.2000,-43.8000,
7.606083,0.9709,0.8892,1.7868,-0.1263,-0.3575,0.0400,3.1500,7.2000,-43.8000,
7.624513,0.9709,0.8892,1.7868,-0.1263,-0.3575,0.0400,3.1500,7.2000,-43.8000,
7.629033,-0.1966,0.4325,2.1036,-0.1263,-0.3575,0.0400,3.1500,7.2000,-43.8000,
7.632661,-0.1966,0.4325,2.1036,-0.1263,-0.3575,0.0400,1.8750,7.6500,-43.4250,
7.644220,-0.1966,0.4325,2.1036,-0.1263,-0.3575,0.0400,1.8750,7.6500,-43.4250,
7.647466,0.3549,0.8611,1.8302,-0.1263,-0.3575,0.0400,1.8750,7.6500,-43.4250,
7.663200,0.3549,0.8611,1.8302,-0.1263,-0.3575,0.0400,1.8750,7.6500,-43.4250,
7.667102,0.4471,0.5906,1.5099,-0.1263,-0.3575,0.0400,1.8750,7.6500,-43.4250,
7.669351,0.4471,0.5906,1.5099,-0.0327,-0.1865,-0.0505,1.8750,7.6500,-43.4250,
7.681532,0.4471,0.5906,1.5099,-0.0327,-0.1865,-0.0505,1.8750,7.6500,-43.4250,
7.684519,0.8295,0.1690,2.0634,-0.0327,-0.1865,-0.0505,1.8750,7.6500,-43.4250,
7.691925,0.8295,0.1690,2.0634,-0.0327,-0.1865,-0.0505,1.4250,8.1000,-43.0500,
7.708102,0.8295,0.1690,2.0634,-0.0327,-0.1865,-0.0505,1.4250,8.1000,-43.0500,
7.710458,0.5932,-0.2217,2.3254,-0.0327,-0.1865,-0.0505,1.4250,8.1000,-43.0500,
7.723084,0.5932,-0.2217,2.3254,-0.0327,-0.1865,-0.0505,1.4250,8.1000,-43.0500,
7.725745,0.5337,-0.1128,1.8760,-0.0327,-0.1865,-0.0505,1.4250,8.1000,-43.0500,
7.738662,0.5337,-0.1128,1.8760,0.1591,-0.0854,-0.0867,1.4250,8.1000,-43.0500,
7.741113,0.5337,-0.1128,1.8760,0.1591,-0.0854,-0.0867,1.4250,8.1000,-43.0500,
7.742898,0.7368,-0.0540,1.0795,0.1591,-0.0854,-0.0867,1.4250,8.1000,-43.0500,
7.760445,0.7368,-0.0540,1.0795,0.1591,-0.0854,-0.0867,1.4250,8.1000,-43.0500,
7.762905,0.4602,-0.0735,0.3413,0.1591,-0.0854,-0.0867,1.4250,8.1000,-43.0500,
7.764465,0.4602,-0.0735,0.3413,0.1591,-0.0854,-0.0867,1.5000,7.6500,-43.3500,
7.778184,0.4602,-0.0735,0.3413,0.1591,-0.0854,-0.0867,1.5000,7.6500,-43.3500,
7.780375,0.2488,0.0954,0.1723,0.1591,-0.0854,-0.0867,1.5000,7.6500,-43.3500,
7.804198,0.2488,0.0954,0.1723,0.1591,-0.0854,-0.0867,1.5000,7.6500,-43.3500,
7.807023,0.3826,0.0736,0.9165,0.1591,-0.0854,-0.0867,1.5000,7.6500,-43.3500,
7.808968,0.3826,0.0736,0.9165,0.1576,0.1921,0.0867,1.5000,7.6500,-43.3500,
7.824567,0.3826,0.0736,0.9165,0.1576,0.1921,0.0867,1.5000,7.6500,-43.3500,
7.827153,0.8062,-0.1614,-0.6784,0.1576,0.1921,0.0867,1.5000,7.6500,-43.3500,
7.839279,0.8062,-0.1614,-0.6784,0.1576,0.1921,0.0867,1.4250,7.0500,-43.0500,
7.843141,0.8062,-0.1614,-0.6784,0.1576,0.1921,0.0867,1.4250,7.0500,-43.0500,
7.844575,-0.4853,0.2235,-0.8000,0.1576,0.1921,0.0867,1.4250,7.0500,-43.0500,
7.864633,-0.4853,0.2235,-0.8000,0.1576,0.1921,0.0867,1.4250,7.0500,-43.0500,
7.866875,-0.8880,-0.2364,-0.2510,0.1576,0.1921,0.0867,1.4250,7.0500,-43.0500,
7.877222,-0.8880,-0.2364,-0.2510,-0.1698,0.0913,0.0154,1.4250,7.0500,-43.0500,
7.882713,-0.8880,-0.2364,-0.2510,-0.1698,0.0913,0.0154,1.4250,7.0500,-43.0500,
7.884430,-0.5217,-0.2729,-0.0184,-0.1698,0.0913,0.0154,1.4250,7.0500,-43.0500,
7.901472,-0.5217,-0.2729,-0.0184,-0.1698,0.0913,0.0154,1.4250,7.0500,-43.0500,
7.904759,-0.1168,-0.6228,-0.1098,-0.1698,0.0913,0.0154,1.4250,7.0500,-43.0500,
7.907068,-0.1168,-0.6228,-0.1098,-0.1698,0.0913,0.0154,1.6500,7.5750,-43.2000,
7.924467,-0.1168,-0.6228,-0.1098,-0.1698,0.0913,0.0154,1.6500,7.5750,-43.2000,
7.926398,0.0947,-0.9541,-0.1516,-0.1698,0.0913,0.0154,1.6500,7.5750,-43.2000,
7.940724,0.0947,-0.9541,-0.1516,-0.1698,0.0913,0.0154,1.6500,7.5750,-43.2000,
7.942814,-0.0262,-1.0440,-0.2495,-0.1698,0.0913,0.0154,1.6500,7.5750,-43.2000,
7.945451,-0.0262,-1.0440,-0.2495,0.0437,-0.1324,0.0440,1.6500,7.5750,-43.2000,
7.960141,-0.0262,-1.0440,-0.2495,0.0437,-0.1324,0.0440,1.6500,7.5750,-43.2000,
7.962525,-0.2188,-0.5084,-0.5991,0.0437,-0.1324,0.0440,1.6500,7.5750,-43.2000,
7.970775,-0.2188,-0.5084,-0.5991,0.0437,-0.1324,0.0440,0.6750,7.0500,-43.0500,
7.974780,-0.2188,-0.5084,-0.5991,0.0437,-0.1324,0.0440,0.6750,7.0500,-43.0500,
7.976253,-0.4276,0.3453,-1.0904,0.0437,-0.1324,0.0440,0.6750,7.0500,-43.0500,
7.999452,-0.4276,0.3453,-1.0904,0.0437,-0.1324,0.0440,0.6750,7.0500,-43.0500,
8.002787,-0.4678,0.9861,-1.4612,0.0437,-0.1324,0.0440,0.6750,7.0500,-43.0500,
8.014535,-0.4678,0.9861,-1.4612,0.0435,-0.1629,-0.0342,0.6750,7.0500,-43.0500,
8.017566,-0.4678,0.9861,-1.4612,0.0435,-0.1629,-0.0342,0.6750,7.0500,-43.0500,
8.019100,-0.6899,1.3755,-1.5804,0.0435,-0.1629,-0.0342,0.6750,7.0500,-43.0500,
8.034742,-0.6899,1.3755,-1.5804,0.0435,-0.1629,-0.0342,0.6750,7.0500,-43.0500,
8.037642,-1.0409,1.3220,-1.6285,0.0435,-0.1629,-0.0342,0.6750,7.0500,-43.0500,
8.043711,-1.0409,1.3220,-1.6285,0.0435,-0.1629,-0.0342,1.0500,7.2000,-43.2000,
8.063378,-1.0409,1.3220,-1.6285,0.0435,-0.1629,-0.0342,1.0500,7.2000,-43.2000,
8.066592,-1.3646,0.0521,-1.2405,0.0435,-0.1629,-0.0342,1.0500,7.2000,-43.2000,
8.082437,-1.3646,0.0521,-1.2405,0.0435,-0.1629,-0.0342,1.0500,7.2000,-43.2000,
8.085495,-1.2773,-0.6377,-0.8703,0.0435,-0.1629,-0.0342,1.0500,7.2000,-43.2000,
8.088531,-1.2773,-0.6377,-0.8703,-0.1379,-0.0605,0.0519,1.0500,7.2000,-43.2000,
8.097565,-1.2773,-0.6377,-0.8703,-0.1379,-0.0605,0.0519,1.0500,7.2000,-43.2000,
8.099430,-1.2213,-0.2444,-0.7721,-0.1379,-0.0605,0.0519,1.0500,7.2000,-43.2000,
8.112552,-1.2213,-0.2444,-0.7721,-0.1379,-0.0605,0.0519,0.8250,7.8750,-43.3500,
8.123153,-1.2213,-0.2444,-0.7721,-0.1379,-0.0605,0.0519,0.8250,7.8750,-43.3500,
8.125141,-0.9966,0.1267,-0.7893,-0.1379,-0.0605,0.0519,0.8250,7.8750,-43.3500,
8.141797,-0.9966,0.1267,-0.7893,-0.1379,-0.0605,0.0519,0.8250,7.8750,-43.3500,
8.143874,-0.9267,0.0773,-0.4242,-0.1379,-0.0605,0.0519,0.8250,7.8750,-43.3500,
8.155852,-0.9267,0.0773,-0.4242,-0.1171,-0.1043,0.0954,0.8250,7.8750,-43.3500,
8.160734,-0.9267,0.0773,-0.4242,-0.1171,-0.1043,0.0954,0.8250,7.8750,-43.3500,
8.162361,-0.9714,-0.0396,0.0013,-0.1171,-0.1043,0.0954,0.8250,7.8750,-43.3500,
8.181582,-0.9714,-0.0396,0.0013,-0.1171,-0.1043,0.0954,0.8250,7.8750,-43.3500,
8.183542,-0.6978,-0.2882,-0.0079,-0.1171,-0.1043,0.0954,0.8250,7.8750,-43.3500,
8.185334,-0.6978,-0.2882,-0.0079,-0.1171,-0.1043,0.0954,0.7500,8.2500,-43.4250,
8.200774,-0.6978,-0.2882,-0.0079,-0.1171,-0.1043,0.0954,0.7500,8.2500,-43.4250,
8.202936,-0.3973,-0.1840,-0.2306,-0.1171,-0.1043,0.0954,0.7500,8.2500,-43.4250,
8.220527,-0.3973,-0.1840,-0.2306,-0.1171,-0.1043,0.0954,0.7500,8.2500,-43.4250,
8.222942,-0.1421,0.3776,-0.6300,-0.1171,-0.1043,0.0954,0.7500,8.2500,-43.4250,
8.226019,-0.1421,0.3776,-0.6300,0.0857,0.0258,0.1103,0.7500,8.2500,-43.4250,
8.245758,-0.1421,0.3776,-0.6300,0.0857,0.0258,0.1103,0.7500,8.2500,-43.4250,
8.249838,-0.0572,0.5158,-0.7250,0.0857,0.0258,0.1103,0.7500,8.2500,-43.4250,
8.252887,-0.0572,0.5158,-0.7250,0.0857,0.0258,0.1103,0.9750,8.2500,-43.3500,
8.262451,-0.0572,0.5158,-0.7250,0.0857,0.0258,0.1103,0.9750,8.2500,-43.3500,
8.264354,-0.5283,0.3107,-0.3213,0.0857,0.0258,0.1103,0.9750,8.2500,-43.3500,
8.274380,-0.5283,0.3107,-0.3213,0.0857,0.0258,0.1103,0.9750,8.2500,-43.3500,
8.276218,-0.8410,-0.1129,-0.5360,0.0857,0.0258,0.1103,0.9750,8.2500,-43.3500,
8.293225,-0.8410,-0.1129,-0.5360,0.1455,0.1136,0.0165,0.9750,8.2500,-43.3500,
8.298106,-0.8410,-0.1129,-0.5360,0.1455,0.1136,0.0165,0.9750,8.2500,-43.3500,
8.299542,-0.5853,0.0666,-1.1923,0.1455,0.1136,0.0165,0.9750,8.2500,-43.3500,
8.319463,-0.5853,0.0666,-1.1923,0.1455,0.1136,0.0165,0.9750,8.2500,-43.3500,
8.321670,-0.3349,0.5500,-1.2942,0.1455,0.1136,0.0165,0.9750,8.2500,-43.3500,
8.323724,-0.3349,0.5500,-1.2942,0.1455,0.1136,0.0165,0.3750,7.8750,-43.1250,
8.342360,-0.3349,0.5500,-1.2942,0.1455,0.1136,0.0165,0.3750,7.8750,-43.1250,
8.344844,-0.3358,0.6772,-0.9016,0.1455,0.1136,0.0165,0.3750,7.8750,-43.1250,
8.356861,-0.3358,0.6772,-0.9016,0.1455,0.1136,0.0165,0.3750,7.8750,-43.1250,
8.359347,-0.5284,0.7305,-0.5113,0.1455,0.1136,0.0165,0.3750,7.8750,-43.1250,
8.361011,-0.5284,0.7305,-0.5113,-0.1406,0.1268,-0.0023,0.3750,7.8750,-43.1250,
8.374846,-0.5284,0.7305,-0.5113,-0.1406,0.1268,-0.0023,0.3750,7.8750,-43.1250,
8.376943,-0.6052,0.6263,-0.1194,-0.1406,0.1268,-0.0023,0.3750,7.8750,-43.1250,
8.388993,-0.6052,0.6263,-0.1194,-0.1406,0.1268,-0.0023,1.3500,7.5750,-43.2000,
8.395410,-0.6052,0.6263,-0.1194,-0.1406,0.1268,-0.0023,1.3500,7.5750,-43.2000,
8.397202,-0.4669,-0.0387,0.0503,-0.1406,0.1268,-0.0023,1.3500,7.5750,-43.2000,
8.415330,-0.4669,-0.0387,0.0503,-0.1406,0.1268,-0.0023,1.3500,7.5750,-43.2000,
8.418098,-0.5739,0.0973,-0.0110,-0.1406,0.1268,-0.0023,1.3500,7.5750,-43.2000,
8.438384,-0.5739,0.0973,-0.0110,0.2225,0.2989,0.0909,1.3500,7.5750,-43.2000,
8.442017,-0.5739,0.0973,-0.0110,0.2225,0.2989,0.0909,1.3500,7.5750,-43.2000,
8.443322,-0.8247,-0.4719,-0.1160,0.2225,0.2989,0.0909,1.3500,7.5750,-43.2000,
8.459334,-0.8247,-0.4719,-0.1160,0.2225,0.2989,0.0909,1.3500,7.5750,-43.2000,
8.461367,-0.2275,-1.2437,-1.6340,0.2225,0.2989,0.0909,1.3500,7.5750,-43.2000,
8.463511,-0.2275,-1.2437,-1.6340,0.2225,0.2989,0.0909,1.2750,7.9500,-43.4250,
8.474534,-0.2275,-1.2437,-1.6340,0.2225,0.2989,0.0909,1.2750,7.9500,-43.4250,
8.476230,-0.2287,-1.0315,-0.2073,0.2225,0.2989,0.0909,1.2750,7.9500,-43.4250,
8.500492,-0.2287,-1.0315,-0.2073,0.2225,0.2989,0.0909,1.2750,7.9500,-43.4250,
8.502603,-0.1269,-0.7073,1.1728,0.2225,0.2989,0.0909,1.2750,7.9500,-43.4250,
8.504291,-0.1269,-0.7073,1.1728,-0.2259,0.0742,0.0223,1.2750,7.9500,-43.4250,
