time,ax,ay,az,wx,wy,wz,Bx,By,Bz,Unnamed: 10,time_diff,acc_mag,acc_mag_filtered,label
0.115688,0.0,0.0,0.0,0.0,0.0,0.0,0.0,0.0,0.0,,0.0,0.0,0.004002534107785571,non_fall
0.1162,0.0,0.0,0.0,0.0,0.0,0.0,0.0,0.0,0.0,,0.0005119999999999986,0.0,0.004140256544103776,non_fall
0.116627,0.0,0.0,0.0,0.0,0.0,0.0,0.0,0.0,0.0,,0.0004269999999999968,0.0,0.0038210350608309084,non_fall
0.117042,0.0,0.0,0.0,0.0,0.0,0.0,0.0,0.0,0.0,,0.0004149999999999987,0.0,0.0029598147195834612,non_fall
0.117425,0.0,0.0,0.0,0.0,0.0,0.0,0.0,0.0,0.0,,0.00038300000000000833,0.0,0.0015154955113132161,non_fall
0.129048,0.0,0.0,0.0,0.0088,0.0266,-0.0644,0.0,0.0,0.0,,0.011622999999999994,0.0,-0.0004901667949489211,non_fall
0.165289,0.0,0.0,0.0,0.0088,0.0266,-0.0644,0.0,0.0,0.0,,0.036240999999999995,0.0,-0.002955075042587175,non_fall
0.166997,0.0,0.0,0.0,0.0088,0.0266,-0.0644,0.0,0.0,0.0,,0.001708000000000015,0.0,-0.00568292622429388,non_fall
0.167912,0.0,0.0,0.0,0.0088,0.0266,-0.0644,0.0,0.0,0.0,,0.0009149999999999991,0.0,-0.00837530006946282,non_fall
0.178018,0.0,0.0,0.0,0.0088,0.0266,-0.0644,14.5313,-29.85,-31.3688,,0.010106000000000004,0.0,-0.010631915500284639,non_fall
0.183782,0.0,0.0,0.0,0.0088,0.0266,-0.0644,14.5313,-29.85,-31.3688,,0.005763999999999991,0.0,-0.0119608625818762,non_fall
0.185231,0.0,0.0,0.0,0.0088,0.0266,-0.0644,14.5313,-29.85,-31.3688,,0.0014490000000000058,0.0,-0.011799899311119823,non_fall
0.201831,0.0,0.0,0.0,-0.0086,-0.0162,-0.0263,14.5313,-29.85,-31.3688,,0.016600000000000004,0.0,-0.009548890331813943,non_fall
0.233169,0.0,0.0,0.0,-0.0086,-0.0162,-0.0263,14.5313,-29.85,-31.3688,,0.03133799999999998,0.0,-0.0046122254330158065,non_fall
0.236148,0.0,0.0,0.0,-0.0086,-0.0162,-0.0263,14.5313,-29.85,-31.3688,,0.0029790000000000094,0.0,0.0035512832593606256,non_fall
0.238146,0.0,0.0,0.0,-0.0086,-0.0162,-0.0263,14.475,-29.9813,-31.6688,,0.0019979999999999998,0.0,0.01537477000110768,non_fall
0.246076,0.0,0.0,0.0,-0.0086,-0.0162,-0.0263,14.475,-29.9813,-31.6688,,0.007929999999999993,0.0,0.031130576063942234,non_fall
0.248451,0.0228,0.0361,0.0726,-0.0086,-0.0162,-0.0263,14.475,-29.9813,-31.6688,,0.002375000000000016,0.08422475883016822,0.05088325297933214,non_fall
0.264484,0.0228,0.0361,0.0726,-0.008,-0.0295,-0.0122,14.475,-29.9813,-31.6688,,0.01603299999999999,0.08422475883016822,0.07445262256609952,non_fall
0.298789,0.0228,0.0361,0.0726,-0.008,-0.0295,-0.0122,14.475,-29.9813,-31.6688,,0.03430500000000003,0.08422475883016822,0.1013903043874235,non_fall
0.301261,0.0228,0.0361,0.0726,-0.008,-0.0295,-0.0122,14.475,-29.9813,-31.6688,,0.0024719999999999742,0.08422475883016822,0.1309725528887414,non_fall
0.304351,0.0755,0.0022,0.1597,-0.008,-0.0295,-0.0122,14.475,-29.9813,-31.6688,,0.0030899999999999817,0.17666120117331932,0.16221216813066555,non_fall
0.306428,0.0755,0.0022,0.1597,-0.008,-0.0295,-0.0122,14.475,-29.9813,-31.6688,,0.0020769999999999955,0.17666120117331932,0.19389193449800787,non_fall
0.317848,0.0755,0.0022,0.1597,-0.008,-0.0295,-0.0122,14.3063,-29.925,-31.725,,0.011420000000000041,0.17666120117331932,0.22462084924819853,non_fall
0.323598,0.0755,0.0022,0.1597,0.041,0.0001,-0.0095,14.3063,-29.925,-31.725,,0.005749999999999977,0.17666120117331932,0.25291247336030337,non_fall
0.362714,0.254,-0.0084,0.2097,0.041,0.0001,-0.0095,14.3063,-29.925,-31.725,,0.039115999999999984,0.3294854321514079,0.27728231583454505,non_fall
0.364639,0.254,-0.0084,0.2097,0.041,0.0001,-0.0095,14.3063,-29.925,-31.725,,0.00192500000000001,0.3294854321514079,0.29635805989478653,non_fall
0.36569,0.254,-0.0084,0.2097,0.041,0.0001,-0.0095,14.3063,-29.925,-31.725,,0.0010510000000000241,0.3294854321514079,0.3089930227418383,non_fall
0.366589,0.254,-0.0084,0.2097,0.041,0.0001,-0.0095,14.3063,-29.925,-31.725,,0.0008989999999999831,0.3294854321514079,0.31437103636393565,non_fall
0.377591,0.254,-0.0084,0.2097,0.041,0.0001,-0.0095,14.3063,-29.8125,-31.4625,,0.011002000000000012,0.3294854321514079,0.3120911795388812,non_fall
0.403661,0.254,-0.0084,0.2097,0.041,0.0001,-0.0095,14.3063,-29.8125,-31.4625,,0.026069999999999982,0.3294854321514079,0.302223013604735,non_fall
0.404938,0.254,-0.0084,0.2097,0.067,-0.03,-0.0096,14.3063,-29.8125,-31.4625,,0.0012770000000000281,0.3294854321514079,0.28532581994740297,non_fall
0.424488,0.254,-0.0084,0.2097,0.067,-0.03,-0.0096,14.3063,-29.8125,-31.4625,,0.019549999999999956,0.3294854321514079,0.262428154146179,non_fall
0.42774,0.254,-0.0084,0.2097,0.067,-0.03,-0.0096,14.3063,-29.8125,-31.4625,,0.0032520000000000326,0.3294854321514079,0.23496720725519496,non_fall
0.4302,0.0976,-0.0144,-0.0075,0.067,-0.03,-0.0096,14.3063,-29.8125,-31.4625,,0.0024600000000000177,0.09894124519127502,0.2046917178113522,non_fall
0.438572,0.0976,-0.0144,-0.0075,0.067,-0.03,-0.0096,14.1,-29.775,-31.3875,,0.00837199999999999,0.09894124519127502,0.17353754349713693,non_fall
0.464335,0.0976,-0.0144,-0.0075,0.0824,-0.0138,-0.005,14.1,-29.775,-31.3875,,0.02576299999999998,0.09894124519127502,0.14348989049036684,non_fall
0.467535,0.0976,-0.0144,-0.0075,0.0824,-0.0138,-0.005,14.1,-29.775,-31.3875,,0.0031999999999999806,0.09894124519127502,0.11644792846941553,non_fall
0.485312,0.0976,-0.0144,-0.0075,0.0824,-0.0138,-0.005,14.1,-29.775,-31.3875,,0.017777000000000043,0.09894124519127502,0.09410481275393363,non_fall
0.487636,0.0976,-0.0144,-0.0075,0.0824,-0.0138,-0.005,14.1,-29.775,-31.3875,,0.0023239999999999927,0.09894124519127502,0.07785071253809425,non_fall
0.489284,-0.0651,-0.0217,0.0113,0.0824,-0.0138,-0.005,14.1,-29.775,-31.3875,,0.0016479999999999828,0.06954559655362803,0.06870138814854505,non_fall
0.518515,-0.0651,-0.0217,0.0113,0.0824,-0.0138,-0.005,14.1,-29.775,-31.3875,,0.02923099999999995,0.06954559655362803,0.06725201442346014,non_fall
0.520567,-0.0651,-0.0217,0.0113,0.0824,-0.0138,-0.005,14.1375,-29.8688,-31.2375,,0.0020520000000000538,0.06954559655362803,0.07365526072145855,non_fall
0.523274,-0.0651,-0.0217,0.0113,0.0692,-0.0128,0.0224,14.1375,-29.8688,-31.2375,,0.002707000000000015,0.06954559655362803,0.08762308147619927,non_fall
0.543901,-0.0651,-0.0217,0.0113,0.0692,-0.0128,0.0224,14.1375,-29.8688,-31.2375,,0.02062699999999995,0.06954559655362803,0.10845218177973778,non_fall
0.545804,-0.0651,-0.0217,0.0113,0.0692,-0.0128,0.0224,14.1375,-29.8688,-31.2375,,0.001902999999999988,0.06954559655362803,0.1350729756609988,non_fall
0.5469,-0.1349,0.0514,-0.1749,0.0692,-0.0128,0.0224,14.1375,-29.8688,-31.2375,,0.001096000000000097,0.2267817893923584,0.16612059068434232,non_fall
0.56542,-0.1349,0.0514,-0.1749,0.0692,-0.0128,0.0224,14.1375,-29.8688,-31.2375,,0.01851999999999998,0.2267817893923584,0.20002401925747315,non_fall
0.583151,-0.1349,0.0514,-0.1749,0.0692,-0.0128,0.0224,13.9875,-30.0563,-31.125,,0.01773099999999994,0.2267817893923584,0.2351067177118136,non_fall
0.604698,-0.1349,0.0514,-0.1749,0.002,-0.0521,0.0237,13.9875,-30.0563,-31.125,,0.021546999999999983,0.2267817893923584,0.2696903208739018,non_fall
0.608132,-0.0771,0.0366,-0.3664,0.002,-0.0521,0.0237,13.9875,-30.0563,-31.125,,0.003434000000000048,0.37620862563210855,0.30219330725744714,non_fall
0.611012,-0.0771,0.0366,-0.3664,0.002,-0.0521,0.0237,13.9875,-30.0563,-31.125,,0.0028799999999999937,0.37620862563210855,0.33121748804591733,non_fall
0.613259,-0.0771,0.0366,-0.3664,0.002,-0.0521,0.0237,13.9875,-30.0563,-31.125,,0.002246999999999999,0.37620862563210855,0.35561624392848573,non_fall
0.632221,-0.0771,0.0366,-0.3664,0.002,-0.0521,0.0237,13.9875,-30.0563,-31.125,,0.018962000000000034,0.37620862563210855,0.37454006944839957,non_fall
0.63821,-0.0771,0.0366,-0.3664,0.002,-0.0521,0.0237,13.9313,-30.075,-31.1063,,0.005989000000000022,0.37620862563210855,0.38745794442205206,non_fall
0.664947,-0.0771,0.0366,-0.3664,0.002,-0.0521,0.0237,13.9313,-30.075,-31.1063,,0.0267369999999999,0.37620862563210855,0.39415662552066016,non_fall
0.666259,-0.0771,0.0366,-0.3664,0.002,-0.0521,0.0237,13.9313,-30.075,-31.1063,,0.0013120000000000909,0.37620862563210855,0.39472260099047723,non_fall
0.66733,-0.0771,0.0366,-0.3664,-0.0677,-0.042,-0.0122,13.9313,-30.075,-31.1063,,0.0010709999999999331,0.37620862563210855,0.38951234426567904,non_fall
0.668505,0.2129,-0.0335,-0.286,-0.0677,-0.042,-0.0122,13.9313,-30.075,-31.1063,,0.0011750000000000371,0.3581126359122224,0.3791158348292096,non_fall
0.69931,0.2129,-0.0335,-0.286,-0.0677,-0.042,-0.0122,13.9313,-30.075,-31.1063,,0.03080499999999997,0.3581126359122224,0.3643167074969239,non_fall
0.720056,0.2129,-0.0335,-0.286,-0.0677,-0.042,-0.0122,13.9313,-30.075,-31.1063,,0.020746000000000042,0.3581126359122224,0.34605041431563416,non_fall
0.721287,0.2129,-0.0335,-0.286,-0.0677,-0.042,-0.0122,13.725,-30.0375,-31.1063,,0.0012309999999999821,0.3581126359122224,0.3253598929166098,non_fall
0.724664,0.2129,-0.0335,-0.286,-0.0616,-0.0633,0.0242,13.725,-30.0375,-31.1063,,0.0033769999999999634,0.3581126359122224,0.30334694409842583,non_fall
0.726189,0.2129,-0.0335,-0.286,-0.0616,-0.0633,0.0242,13.725,-30.0375,-31.1063,,0.0015249999999999986,0.3581126359122224,0.28111750073370745,non_fall
0.727163,-0.112,-0.1312,-0.0651,-0.0616,-0.0633,0.0242,13.725,-30.0375,-31.1063,,0.0009740000000000304,0.1843785508132657,0.2597208167053886,non_fall
0.765226,-0.112,-0.1312,-0.0651,-0.0616,-0.0633,0.0242,13.725,-30.0375,-31.1063,,0.03806299999999996,0.1843785508132657,0.2400861943779065,non_fall
0.768634,-0.112,-0.1312,-0.0651,-0.0616,-0.0633,0.0242,13.725,-30.0375,-31.1063,,0.0034080000000000776,0.1843785508132657,0.2229646966431266,non_fall
0.778775,-0.112,-0.1312,-0.0651,-0.0616,-0.0633,0.0242,13.6688,-30.0188,-30.975,,0.010140999999999956,0.1843785508132657,0.20888496595352105,non_fall
0.784609,-0.112,-0.1312,-0.0651,-0.0385,-0.0311,0.0349,13.6688,-30.0188,-30.975,,0.005834000000000006,0.1843785508132657,0.19813048994089097,non_fall
0.787695,-0.112,-0.1312,-0.0651,-0.0385,-0.0311,0.0349,13.6688,-30.0188,-30.975,,0.003086000000000033,0.1843785508132657,0.19074142426986274,non_fall
0.789758,-0.0638,-0.0756,0.1724,-0.0385,-0.0311,0.0349,13.6688,-30.0188,-30.975,,0.002062999999999926,0.1987650874776554,0.18653955420366478,non_fall
0.831357,-0.0638,-0.0756,0.1724,-0.0385,-0.0311,0.0349,13.6688,-30.0188,-30.975,,0.04159900000000005,0.1987650874776554,0.18517157598130543,non_fall
0.833947,-0.0638,-0.0756,0.1724,-0.0385,-0.0311,0.0349,13.6688,-30.0188,-30.975,,0.002589999999999981,0.1987650874776554,0.1861639639928794,non_fall
0.837839,-0.0638,-0.0756,0.1724,-0.0385,-0.0311,0.0349,13.5,-29.9625,-30.975,,0.0038920000000000066,0.1987650874776554,0.18898214445191264,non_fall
0.846,-0.0638,-0.0756,0.1724,-0.0385,-0.0311,0.0349,13.5,-29.9625,-30.975,,0.008160999999999974,0.1987650874776554,0.19308723531863972,non_fall
0.847875,0.1323,0.1313,0.1183,-0.0385,-0.0311,0.0349,13.5,-29.9625,-30.975,,0.001875000000000071,0.22076655090842,0.19798479822811624,non_fall
0.863009,0.1323,0.1313,0.1183,-0.0533,-0.049,0.0037,13.5,-29.9625,-30.975,,0.01513399999999998,0.22076655090842,0.20326146238399279,non_fall
0.900184,0.1323,0.1313,0.1183,-0.0533,-0.049,0.0037,13.5,-29.9625,-30.975,,0.03717499999999996,0.22076655090842,0.2086067661167499,non_fall
0.902845,0.1323,0.1313,0.1183,-0.0533,-0.049,0.0037,13.5,-29.9625,-30.975,,0.0026610000000000245,0.22076655090842,0.21381920692526293,non_fall
0.904856,0.1323,0.1313,0.1183,-0.0533,-0.049,0.0037,13.5,-29.9625,-30.975,,0.002010999999999985,0.22076655090842,0.21879733103380677,non_fall
0.906487,0.0571,0.1971,0.0758,-0.0533,-0.049,0.0037,13.5,-29.9625,-30.975,,0.001631000000000049,0.21875662275688937,0.2235185127685753,non_fall
0.916065,0.0571,0.1971,0.0758,-0.0533,-0.049,0.0037,13.4813,-30.0375,-30.9938,,0.009577999999999975,0.21875662275688937,0.22800953520242256,non_fall
0.923857,0.0571,0.1971,0.0758,-0.0799,-0.1009,0.0247,13.4813,-30.0375,-30.9938,,0.007792000000000021,0.21875662275688937,0.23231395112830652,non_fall
0.966107,0.0571,0.1971,0.0758,-0.0799,-0.1009,0.0247,13.4813,-30.0375,-30.9938,,0.04225000000000001,0.21875662275688937,0.23646139262024457,non_fall
0.967486,0.0571,0.1971,0.0758,-0.0799,-0.1009,0.0247,13.4813,-30.0375,-30.9938,,0.001378999999999908,0.21875662275688937,0.24044350987308005,non_fall
0.968683,0.0571,0.1971,0.0758,-0.0799,-0.1009,0.0247,13.4813,-30.0375,-30.9938,,0.0011970000000000036,0.21875662275688937,0.24420009698519954,non_fall
0.969692,-0.1212,0.1272,0.1891,-0.0799,-0.1009,0.0247,13.4813,-30.0375,-30.9938,,0.0010090000000000376,0.25812417554347755,0.24761727706465586,non_fall
0.978141,-0.1212,0.1272,0.1891,-0.0799,-0.1009,0.0247,13.4625,-30.075,-31.0875,,0.00844900000000004,0.25812417554347755,0.2505375539186125,non_fall
0.985351,-0.1212,0.1272,0.1891,-0.0694,-0.1314,0.0549,13.4625,-30.075,-31.0875,,0.007209999999999939,0.25812417554347755,0.25277952070481896,non_fall
1.024776,-0.1212,0.1272,0.1891,-0.0694,-0.1314,0.0549,13.4625,-30.075,-31.0875,,0.03942499999999993,0.25812417554347755,0.2541636347941986,non_fall
1.026091,-0.1212,0.1272,0.1891,-0.0694,-0.1314,0.0549,13.4625,-30.075,-31.0875,,0.0013150000000001771,0.25812417554347755,0.2545400469611648,non_fall
1.027165,-0.1212,0.1272,0.1891,-0.0694,-0.1314,0.0549,13.4625,-30.075,-31.0875,,0.0010740000000000194,0.25812417554347755,0.2538148026233407,non_fall
1.028167,-0.0658,0.1351,0.2066,-0.0694,-0.1314,0.0549,13.4625,-30.075,-31.0875,,0.0010019999999999474,0.25547056581923483,0.2519713470655862,non_fall
1.039167,-0.0658,0.1351,0.2066,-0.0694,-0.1314,0.0549,13.275,-29.9063,-31.2188,,0.010999999999999899,0.25547056581923483,0.24908486842948285,non_fall
1.047499,-0.0658,0.1351,0.2066,-0.0694,-0.1314,0.0549,13.275,-29.9063,-31.2188,,0.008332000000000006,0.25547056581923483,0.2453275594453415,non_fall
1.064045,-0.0658,0.1351,0.2066,-0.0871,-0.17,0.0917,13.275,-29.9063,-31.2188,,0.01654599999999995,0.25547056581923483,0.24096344606183073,non_fall
1.085207,-0.0658,0.1351,0.2066,-0.0871,-0.17,0.0917,13.275,-29.9063,-31.2188,,0.021162000000000125,0.25547056581923483,0.23633213156670457,non_fall
1.08844,-0.0658,0.1351,0.2066,-0.0871,-0.17,0.0917,13.275,-29.9063,-31.2188,,0.0032330000000000414,0.25547056581923483,0.2318217786939572,non_fall
1.091317,-0.1403,0.1158,0.1003,-0.0871,-0.17,0.0917,13.275,-29.9063,-31.2188,,0.0028770000000000184,0.20773497538931668,0.227833013130948,non_fall
1.117007,-0.1403,0.1158,0.1003,-0.0871,-0.17,0.0917,13.275,-29.9063,-31.2188,,0.02568999999999999,0.20773497538931668,0.22473710771616448,non_fall
1.119625,-0.1403,0.1158,0.1003,-0.0871,-0.17,0.0917,13.125,-29.7,-31.425,,0.002618000000000009,0.20773497538931668,0.2228333576618642,non_fall
1.128681,-0.1403,0.1158,0.1003,-0.1325,-0.2369,0.1196,13.125,-29.7,-31.425,,0.009055999999999953,0.20773497538931668,0.2223112993518015,non_fall
1.145399,-0.1403,0.1158,0.1003,-0.1325,-0.2369,0.1196,13.125,-29.7,-31.425,,0.01671800000000001,0.20773497538931668,0.2232229614104969,non_fall
1.147555,-0.1403,0.1158,0.1003,-0.1325,-0.2369,0.1196,13.125,-29.7,-31.425,,0.0021560000000000468,0.20773497538931668,0.2254688957335052,non_fall
1.14896,-0.1245,0.1979,0.0261,-0.1325,-0.2369,0.1196,13.125,-29.7,-31.425,,0.0014049999999998786,0.2352570296505505,0.2287998612142862,non_fall
1.165866,-0.1245,0.1979,0.0261,-0.1325,-0.2369,0.1196,13.125,-29.7,-31.425,,0.016906000000000088,0.2352570296505505,0.2328341379085684,non_fall
1.177377,-0.1245,0.1979,0.0261,-0.1325,-0.2369,0.1196,12.825,-29.5688,-31.5563,,0.011510999999999827,0.2352570296505505,0.2370888118570017,non_fall
1.183153,-0.1245,0.1979,0.0261,-0.1917,-0.3252,0.1716,12.825,-29.5688,-31.5563,,0.005776000000000003,0.2352570296505505,0.2410222476449805,non_fall
1.204845,-0.1245,0.1979,0.0261,-0.1917,-0.3252,0.1716,12.825,-29.5688,-31.5563,,0.021692000000000045,0.2352570296505505,0.24408442710200792,non_fall
1.206702,-0.1245,0.1979,0.0261,-0.1917,-0.3252,0.1716,12.825,-29.5688,-31.5563,,0.0018569999999999975,0.2352570296505505,0.24577160799221215,non_fall
1.207782,-0.2151,0.1329,0.0476,-0.1917,-0.3252,0.1716,12.825,-29.5688,-31.5563,,0.0010799999999999699,0.2572861830724689,0.24568145063883745,non_fall
1.231892,-0.2151,0.1329,0.0476,-0.1917,-0.3252,0.1716,12.825,-29.5688,-31.5563,,0.024110000000000076,0.2572861830724689,0.24356421697965097,non_fall
1.235259,-0.2151,0.1329,0.0476,-0.1917,-0.3252,0.1716,12.45,-29.5125,-31.7438,,0.00336700000000012,0.2572861830724689,0.2393650951802308,non_fall
1.265538,-0.2151,0.1329,0.0476,-0.1917,-0.3252,0.1716,12.45,-29.5125,-31.7438,,0.030278999999999945,0.2572861830724689,0.23325260163655812,non_fall
1.266899,-0.2151,0.1329,0.0476,-0.1917,-0.3252,0.1716,12.45,-29.5125,-31.7438,,0.0013609999999999456,0.2572861830724689,0.2256287236838064,non_fall
1.267991,-0.2151,0.1329,0.0476,-0.2034,-0.3076,0.1812,12.45,-29.5125,-31.7438,,0.001092000000000093,0.2572861830724689,0.2171180715928684,non_fall
1.269419,-0.0544,0.1582,0.0591,-0.2034,-0.3076,0.1812,12.45,-29.5125,-31.7438,,0.0014279999999999848,0.1774243782573297,0.2085356978671409,non_fall
1.298786,-0.0544,0.1582,0.0591,-0.2034,-0.3076,0.1812,12.45,-29.5125,-31.7438,,0.02936699999999992,0.1774243782573297,0.20083613157163754,non_fall
1.31762,-0.0544,0.1582,0.0591,-0.2034,-0.3076,0.1812,12.45,-29.5125,-31.7438,,0.018834000000000017,0.1774243782573297,0.19504885546265033,non_fall
1.318876,-0.0544,0.1582,0.0591,-0.2034,-0.3076,0.1812,11.925,-29.4563,-32.1375,,0.0012559999999999238,0.1774243782573297,0.19220688465621782,non_fall
1.324957,-0.0544,0.1582,0.0591,-0.2401,-0.3351,0.188,11.925,-29.4563,-32.1375,,0.006081000000000003,0.1774243782573297,0.193274720240472,non_fall
1.327873,-0.0544,0.1582,0.0591,-0.2401,-0.3351,0.188,11.925,-29.4563,-32.1375,,0.0029160000000001407,0.1774243782573297,0.19908018650576492,non_fall
1.329606,-0.2126,0.1763,0.0471,-0.2401,-0.3351,0.188,11.925,-29.4563,-32.1375,,0.0017329999999999846,0.28017648009781265,0.2102524408764181,non_fall
1.365957,-0.2126,0.1763,0.0471,-0.2401,-0.3351,0.188,11.925,-29.4563,-32.1375,,0.03635100000000002,0.28017648009781265,0.22716656126983437,non_fall
1.368823,-0.2126,0.1763,0.0471,-0.2401,-0.3351,0.188,11.925,-29.4563,-32.1375,,0.002865999999999813,0.28017648009781265,0.2498943905267204,non_fall
1.379038,-0.2126,0.1763,0.0471,-0.2401,-0.3351,0.188,11.3625,-29.3063,-32.5125,,0.010215000000000085,0.28017648009781265,0.2781626491840959,non_fall
1.384603,-0.2126,0.1763,0.0471,-0.2401,-0.3351,0.188,11.3625,-29.3063,-32.5125,,0.005565000000000042,0.28017648009781265,0.3113227807471097,non_fall
1.387248,-0.2126,0.1763,0.0471,-0.2613,-0.3238,0.3076,11.3625,-29.3063,-32.5125,,0.0026450000000000085,0.28017648009781265,0.3483411515431775,non_fall
1.390931,-0.3093,0.0866,0.0864,-0.2613,-0.3238,0.3076,11.3625,-29.3063,-32.5125,,0.003682999999999881,0.332612402053802,0.38782097668795795,non_fall
1.433098,-0.3093,0.0866,0.0864,-0.2613,-0.3238,0.3076,11.3625,-29.3063,-32.5125,,0.042167000000000066,0.332612402053802,0.4280671780688325,non_fall
1.43537,-0.3093,0.0866,0.0864,-0.2613,-0.3238,0.3076,11.3625,-29.3063,-32.5125,,0.0022720000000000518,0.332612402053802,0.46720188576848465,non_fall
1.436985,-0.3093,0.0866,0.0864,-0.2613,-0.3238,0.3076,10.4813,-29.1188,-33.0563,,0.001614999999999922,0.332612402053802,0.5033317044021104,non_fall
1.445034,-0.6475,0.1309,0.1561,-0.2613,-0.3238,0.3076,10.4813,-29.1188,-33.0563,,0.008048999999999973,0.6787917721952734,0.5347584413838208,non_fall
1.448509,-0.6475,0.1309,0.1561,-0.2613,-0.3238,0.3076,10.4813,-29.1188,-33.0563,,0.003475000000000117,0.6787917721952734,0.5602135028707557,non_fall
1.466325,-0.6475,0.1309,0.1561,-0.2863,-0.5902,0.4353,10.4813,-29.1188,-33.0563,,0.017816000000000054,0.6787917721952734,0.5790854758784724,non_fall
1.500469,-0.6475,0.1309,0.1561,-0.2863,-0.5902,0.4353,10.4813,-29.1188,-33.0563,,0.03414399999999995,0.6787917721952734,0.5916052139722222,non_fall
1.503264,-0.6475,0.1309,0.1561,-0.2863,-0.5902,0.4353,10.4813,-29.1188,-33.0563,,0.002794999999999881,0.6787917721952734,0.598955816961277,non_fall
1.505396,-0.6475,0.1309,0.1561,-0.2863,-0.5902,0.4353,10.4813,-29.1188,-33.0563,,0.0021320000000000228,0.6787917721952734,0.6032844744211813,non_fall
1.506996,-0.5609,0.4085,0.0786,-0.2863,-0.5902,0.4353,10.4813,-29.1188,-33.0563,,0.0016000000000000458,0.6983258694907414,0.6076051290143077,non_fall
1.518395,-0.5609,0.4085,0.0786,-0.2863,-0.5902,0.4353,9.3375,-28.8188,-33.6,,0.011398999999999937,0.6983258694907414,0.6155926100470712,non_fall
1.523318,-0.5609,0.4085,0.0786,-0.482,-0.8928,0.3024,9.3375,-28.8188,-33.6,,0.004923000000000011,0.6983258694907414,0.6312798174559737,non_fall
1.565122,-0.5609,0.4085,0.0786,-0.482,-0.8928,0.3024,9.3375,-28.8188,-33.6,,0.04180399999999995,0.6983258694907414,0.6586800829436935,non_fall
1.566376,-0.5609,0.4085,0.0786,-0.482,-0.8928,0.3024,9.3375,-28.8188,-33.6,,0.0012540000000000884,0.6983258694907414,0.7013670560469073,non_fall
1.567345,-0.5609,0.4085,0.0786,-0.482,-0.8928,0.3024,9.3375,-28.8188,-33.6,,0.0009689999999999976,0.6983258694907414,0.7620537098979555,non_fall
1.568362,-0.5282,0.1872,0.2538,-0.482,-0.8928,0.3024,9.3375,-28.8188,-33.6,,0.0010170000000000456,0.6151857605634252,0.8422190378088256,non_fall
1.578337,-0.5282,0.1872,0.2538,-0.482,-0.8928,0.3024,8.0813,-28.425,-34.3125,,0.009975000000000067,0.6151857605634252,0.9418337876389353,non_fall
1.58626,-0.5282,0.1872,0.2538,-0.5259,-0.8614,-0.037,8.0813,-28.425,-34.3125,,0.007922999999999902,0.6151857605634252,1.0592324067645096,lateral_fall
1.628141,-0.5282,0.1872,0.2538,-0.5259,-0.8614,-0.037,8.0813,-28.425,-34.3125,,0.04188100000000006,0.6151857605634252,1.1911639208849298,lateral_fall
1.629368,-1.1166,-0.3086,1.5168,-0.5259,-0.8614,-0.037,8.0813,-28.425,-34.3125,,0.001226999999999867,1.9085889447442579,1.333027501806984,lateral_fall
1.630759,-1.1166,-0.3086,1.5168,-0.5259,-0.8614,-0.037,8.0813,-28.425,-34.3125,,0.0013910000000001421,1.9085889447442579,1.479261814031955,lateral_fall
1.632175,-1.1166,-0.3086,1.5168,-0.5259,-0.8614,-0.037,8.0813,-28.425,-34.3125,,0.0014159999999998618,1.9085889447442579,1.6238228870797455,lateral_fall
1.640533,-1.1166,-0.3086,1.5168,-0.5259,-0.8614,-0.037,6.675,-27.8813,-34.95,,0.008358000000000088,1.9085889447442579,1.7606704897329306,lateral_fall
1.664625,-1.1166,-0.3086,1.5168,-0.5259,-0.8614,-0.037,6.675,-27.8813,-34.95,,0.024092000000000002,1.9085889447442579,1.8841959785662068,lateral_fall
1.666653,-1.1166,-0.3086,1.5168,-0.1574,-0.8387,-0.0496,6.675,-27.8813,-34.95,,0.0020279999999999188,1.9085889447442579,1.9895558429322744,lateral_fall
1.684235,-1.1166,-0.3086,1.5168,-0.1574,-0.8387,-0.0496,6.675,-27.8813,-34.95,,0.017581999999999987,1.9085889447442579,2.0729067752147348,lateral_fall
1.686446,-1.1166,-0.3086,1.5168,-0.1574,-0.8387,-0.0496,6.675,-27.8813,-34.95,,0.002210999999999963,1.9085889447442579,2.131558057334029,lateral_fall
1.688168,-1.503,-0.0699,1.6263,-0.1574,-0.8387,-0.0496,6.675,-27.8813,-34.95,,0.0017220000000000013,2.215569159380948,2.1640626098099864,lateral_fall
1.71806,-1.503,-0.0699,1.6263,-0.1574,-0.8387,-0.0496,6.675,-27.8813,-34.95,,0.02989200000000003,2.215569159380948,2.1702618277650227,lateral_fall
1.720417,-1.503,-0.0699,1.6263,-0.1574,-0.8387,-0.0496,5.0625,-27.4125,-35.7188,,0.0023570000000001645,2.215569159380948,2.1512870732365235,lateral_fall
1.724661,-1.503,-0.0699,1.6263,0.0114,-0.8447,-0.1815,5.0625,-27.4125,-35.7188,,0.0042439999999999145,2.215569159380948,2.1095097096680084,lateral_fall
1.744629,-1.503,-0.0699,1.6263,0.0114,-0.8447,-0.1815,5.0625,-27.4125,-35.7188,,0.019967999999999986,2.215569159380948,2.048427186962398,lateral_fall
1.746591,-1.503,-0.0699,1.6263,0.0114,-0.8447,-0.1815,5.0625,-27.4125,-35.7188,,0.0019620000000000193,2.215569159380948,1.9724759699361165,lateral_fall
1.747829,-1.4131,-0.3018,0.7928,0.0114,-0.8447,-0.1815,5.0625,-27.4125,-35.7188,,0.0012380000000000724,1.6481707102117789,1.8867715341221614,lateral_fall
1.765529,-1.4131,-0.3018,0.7928,0.0114,-0.8447,-0.1815,5.0625,-27.4125,-35.7188,,0.017699999999999827,1.6481707102117789,1.796788952280359,lateral_fall
1.777666,-1.4131,-0.3018,0.7928,0.0114,-0.8447,-0.1815,3.6375,-27.0,-36.3,,0.012137000000000064,1.6481707102117789,1.7080103672033724,lateral_fall
1.78526,-1.4131,-0.3018,0.7928,0.1274,-0.6652,-0.3304,3.6375,-27.0,-36.3,,0.007594000000000101,1.6481707102117789,1.6255716115233587,lateral_fall
1.806588,-1.4131,-0.3018,0.7928,0.1274,-0.6652,-0.3304,3.6375,-27.0,-36.3,,0.021328000000000014,1.6481707102117789,1.5539366245273727,lateral_fall
1.808667,-1.4131,-0.3018,0.7928,0.1274,-0.6652,-0.3304,3.6375,-27.0,-36.3,,0.002078999999999942,1.6481707102117789,1.4966196494000623,lateral_fall
1.810233,-1.2192,-0.3294,0.1983,0.1274,-0.6652,-0.3304,3.6375,-27.0,-36.3,,0.0015659999999999563,1.2783880044806428,1.455969121776093,lateral_fall
1.831553,-1.2192,-0.3294,0.1983,0.1274,-0.6652,-0.3304,3.6375,-27.0,-36.3,,0.021320000000000006,1.2783880044806428,1.4330273351085974,lateral_fall
1.837477,-1.2192,-0.3294,0.1983,0.1274,-0.6652,-0.3304,2.0438,-26.55,-36.675,,0.00592400000000004,1.2783880044806428,1.4274834130291845,lateral_fall
1.864452,-1.2192,-0.3294,0.1983,0.1274,-0.6652,-0.3304,2.0438,-26.55,-36.675,,0.02697499999999997,1.2783880044806428,1.437737251198023,lateral_fall
1.865671,-1.2192,-0.3294,0.1983,0.1274,-0.6652,-0.3304,2.0438,-26.55,-36.675,,0.0012190000000000811,1.2783880044806428,1.461084350665473,lateral_fall
1.866654,-1.2192,-0.3294,0.1983,0.2018,-0.7465,-0.148,2.0438,-26.55,-36.675,,0.0009829999999999561,1.2783880044806428,1.4940163413387255,lateral_fall
1.867909,-1.8074,0.0053,-0.2631,0.2018,-0.7465,-0.148,2.0438,-26.55,-36.675,,0.0012550000000000061,1.826456804854689,1.532612872194001,lateral_fall
1.897852,-1.8074,0.0053,-0.2631,0.2018,-0.7465,-0.148,2.0438,-26.55,-36.675,,0.029943000000000053,1.826456804854689,1.572981155439649,lateral_fall
1.906563,-1.8074,0.0053,-0.2631,0.2018,-0.7465,-0.148,2.0438,-26.55,-36.675,,0.008710999999999913,1.826456804854689,1.6116849941417366,lateral_fall
1.916996,-1.8074,0.0053,-0.2631,0.2018,-0.7465,-0.148,0.45,-26.3438,-36.7313,,0.010432999999999915,1.826456804854689,1.6461022804381846,lateral_fall
1.926075,-1.8074,0.0053,-0.2631,0.0631,-0.8011,-0.1632,0.45,-26.3438,-36.7313,,0.00907900000000006,1.826456804854689,1.6746618337482442,lateral_fall
1.927721,-1.8074,0.0053,-0.2631,0.0631,-0.8011,-0.1632,0.45,-26.3438,-36.7313,,0.0016460000000000363,1.826456804854689,1.696932935717023,lateral_fall
1.928655,-1.2411,0.5227,-0.8961,0.0631,-0.8011,-0.1632,0.45,-26.3438,-36.7313,,0.0009339999999999904,1.617572165314426,1.7135663457588683,lateral_fall
1.967859,-1.2411,0.5227,-0.8961,0.0631,-0.8011,-0.1632,0.45,-26.3438,-36.7313,,0.03920400000000002,1.617572165314426,1.7261081554740059,lateral_fall
1.970718,-1.2411,0.5227,-0.8961,0.0631,-0.8011,-0.1632,0.45,-26.3438,-36.7313,,0.002858999999999945,1.617572165314426,1.7367241645566613,lateral_fall
1.979371,-1.2411,0.5227,-0.8961,0.0631,-0.8011,-0.1632,-1.0875,-26.1,-36.825,,0.008653000000000022,1.617572165314426,1.7478800083740351,lateral_fall
1.985701,-1.2411,0.5227,-0.8961,0.1034,-0.8734,-0.1913,-1.0875,-26.1,-36.825,,0.006329999999999947,1.617572165314426,1.7620201869812973,lateral_fall
1.988825,-1.6672,0.5903,-0.6555,0.1034,-0.8734,-0.1913,-1.0875,-26.1,-36.825,,0.0031240000000001267,1.8861840260165497,1.7812794806059926,lateral_fall
1.991675,-1.6672,0.5903,-0.6555,0.1034,-0.8734,-0.1913,-1.0875,-26.1,-36.825,,0.002850000000000019,1.8861840260165497,1.807247061595101,lateral_fall
2.033042,-1.6672,0.5903,-0.6555,0.1034,-0.8734,-0.1913,-1.0875,-26.1,-36.825,,0.04136699999999993,1.8861840260165497,1.8407916360124223,lateral_fall
2.035704,-1.6672,0.5903,-0.6555,0.1034,-0.8734,-0.1913,-1.0875,-26.1,-36.825,,0.002661999999999942,1.8861840260165497,1.8819493176324447,lateral_fall
2.037694,-1.6672,0.5903,-0.6555,0.1034,-0.8734,-0.1913,-2.3438,-26.1,-36.5438,,0.0019900000000001583,1.8861840260165497,1.9298760498609173,lateral_fall
2.047268,-1.3132,1.215,-0.6914,0.1034,-0.8734,-0.1913,-2.3438,-26.1,-36.5438,,0.00957399999999975,1.9180076120808278,1.9828706125026876,lateral_fall
2.050449,-1.3132,1.215,-0.6914,0.1034,-0.8734,-0.1913,-2.3438,-26.1,-36.5438,,0.0031810000000001004,1.9180076120808278,2.0384780633322603,lateral_fall
2.064717,-1.3132,1.215,-0.6914,0.3077,-0.9495,-0.2324,-2.3438,-26.1,-36.5438,,0.014267999999999947,1.9180076120808278,2.0936836350089867,lateral_fall
2.098289,-1.3132,1.215,-0.6914,0.3077,-0.9495,-0.2324,-2.3438,-26.1,-36.5438,,0.033571999999999935,1.9180076120808278,2.1452023804428917,lateral_fall
2.100042,-1.3132,1.215,-0.6914,0.3077,-0.9495,-0.2324,-2.3438,-26.1,-36.5438,,0.0017530000000003376,1.9180076120808278,2.189859766066908,lateral_fall
2.105947,-1.2888,1.5534,-1.4041,0.3077,-0.9495,-0.2324,-2.3438,-26.1,-36.5438,,0.005904999999999827,2.458770792489613,2.2250427328496425,lateral_fall
2.108405,-1.2888,1.5534,-1.4041,0.3077,-0.9495,-0.2324,-2.3438,-26.1,-36.5438,,0.002457999999999849,2.458770792489613,2.2491810086755732,lateral_fall
2.117009,-1.2888,1.5534,-1.4041,0.3077,-0.9495,-0.2324,-3.525,-26.3438,-36.0563,,0.008604000000000056,2.458770792489613,2.2622002085521644,lateral_fall
2.127336,-1.2888,1.5534,-1.4041,0.5288,-1.3944,-0.6657,-3.525,-26.3438,-36.0563,,0.010327000000000197,2.458770792489613,2.26587976785121,lateral_fall
2.148464,-1.2888,1.5534,-1.4041,0.5288,-1.3944,-0.6657,-3.525,-26.3438,-36.0563,,0.021128000000000036,2.458770792489613,2.2640548700199807,lateral_fall
2.149539,-1.2888,1.5534,-1.4041,0.5288,-1.3944,-0.6657,-3.525,-26.3438,-36.0563,,0.001074999999999715,2.458770792489613,2.2626196945580204,lateral_fall
2.165237,-1.982,-0.1247,-1.2836,0.5288,-1.3944,-0.6657,-3.525,-26.3438,-36.0563,,0.01569799999999999,2.3646359233505696,2.269313097152476,lateral_fall
2.16705,-1.982,-0.1247,-1.2836,0.5288,-1.3944,-0.6657,-3.525,-26.3438,-36.0563,,0.0018130000000002866,2.3646359233505696,2.293292444832151,lateral_fall
2.177923,-1.982,-0.1247,-1.2836,0.5288,-1.3944,-0.6657,-4.4813,-26.8688,-35.2313,,0.010872999999999688,2.3646359233505696,2.3445243813644443,lateral_fall
2.18477,-1.982,-0.1247,-1.2836,0.1312,-1.5931,-1.4354,-4.4813,-26.8688,-35.2313,,0.0068470000000000475,2.3646359233505696,2.4330409270287534,lateral_fall
2.227735,-1.982,-0.1247,-1.2836,0.1312,-1.5931,-1.4354,-4.4813,-26.8688,-35.2313,,0.04296500000000014,2.3646359233505696,2.568123649448421,lateral_fall
2.228964,-1.982,-0.1247,-1.2836,0.1312,-1.5931,-1.4354,-4.4813,-26.8688,-35.2313,,0.0012289999999999246,2.3646359233505696,2.7574860269577175,lateral_fall
2.229938,-1.982,-0.1247,-1.2836,0.1312,-1.5931,-1.4354,-4.4813,-26.8688,-35.2313,,0.0009740000000002524,2.3646359233505696,3.006522386946146,lateral_fall
2.230845,-2.1903,-3.3801,-1.3868,0.1312,-1.5931,-1.4354,-4.4813,-26.8688,-35.2313,,0.0009069999999997691,4.259777498884185,3.317678150566524,lateral_fall
2.237215,-2.1903,-3.3801,-1.3868,0.1312,-1.5931,-1.4354,-4.9688,-27.45,-34.2938,,0.006369999999999987,4.259777498884185,3.689971752103753,lateral_fall
2.248311,-2.1903,-3.3801,-1.3868,0.1312,-1.5931,-1.4354,-4.9688,-27.45,-34.2938,,0.011096000000000217,4.259777498884185,4.118675871813701,lateral_fall
2.26698,-2.1903,-3.3801,-1.3868,-1.0079,-2.2333,-2.3103,-4.9688,-27.45,-34.2938,,0.018669000000000047,4.259777498884185,4.595163795043812,lateral_fall
2.286123,-2.1903,-3.3801,-1.3868,-1.0079,-2.2333,-2.3103,-4.9688,-27.45,-34.2938,,0.019142999999999688,4.259777498884185,5.106951535402261,lateral_fall
2.28875,-2.1903,-3.3801,-1.3868,-1.0079,-2.2333,-2.3103,-4.9688,-27.45,-34.2938,,0.002626999999999935,4.259777498884185,5.637997209125044,lateral_fall
2.290269,-4.5837,-5.306,0.3611,-1.0079,-2.2333,-2.3103,-4.9688,-27.45,-34.2938,,0.001519000000000048,7.020992444092217,6.169324129536255,lateral_fall
2.319411,-4.5837,-5.306,0.3611,-1.0079,-2.2333,-2.3103,-5.2688,-27.825,-33.75,,0.029142000000000223,7.020992444092217,6.679998277955045,lateral_fall
2.322739,-4.5837,-5.306,0.3611,-1.0079,-2.2333,-2.3103,-5.2688,-27.825,-33.75,,0.0033279999999997756,7.020992444092217,7.148431106610273,lateral_fall
2.32487,-4.5837,-5.306,0.3611,-2.4937,-2.6857,-2.5969,-5.2688,-27.825,-33.75,,0.002131000000000327,7.020992444092217,7.553930654371056,lateral_fall
2.344553,-4.5837,-5.306,0.3611,-2.4937,-2.6857,-2.5969,-5.2688,-27.825,-33.75,,0.019682999999999673,7.020992444092217,7.878407241093396,lateral_fall
2.346812,-4.5837,-5.306,0.3611,-2.4937,-2.6857,-2.5969,-5.2688,-27.825,-33.75,,0.002259000000000011,7.020992444092217,8.108137933150408,lateral_fall
2.348322,-6.7234,-6.0119,2.1761,-2.4937,-2.6857,-2.5969,-5.2688,-27.825,-33.75,,0.0015100000000001224,9.278063395989488,8.235474287774284,lateral_fall
2.365622,-6.7234,-6.0119,2.1761,-2.4937,-2.6857,-2.5969,-5.2688,-27.825,-33.75,,0.017300000000000093,9.278063395989488,8.260328590875725,lateral_fall
2.378352,-6.7234,-6.0119,2.1761,-2.4937,-2.6857,-2.5969,-5.2125,-27.8625,-33.675,,0.012729999999999908,9.278063395989488,8.191217630448273,lateral_fall
2.385455,-6.7234,-6.0119,2.1761,1.0939,1.2377,-1.6301,-5.2125,-27.8625,-33.675,,0.007102999999999859,9.278063395989488,8.045621587466886,lateral_fall
2.405398,-6.7234,-6.0119,2.1761,1.0939,1.2377,-1.6301,-5.2125,-27.8625,-33.675,,0.019943000000000044,9.278063395989488,7.849456846398723,lateral_fall
2.407106,-6.7234,-6.0119,2.1761,1.0939,1.2377,-1.6301,-5.2125,-27.8625,-33.675,,0.0017080000000002649,9.278063395989488,7.6355616763021095,lateral_fall
2.408165,-2.637,1.3426,5.9756,1.0939,1.2377,-1.6301,-5.2125,-27.8625,-33.675,,0.001058999999999699,6.668143603732601,7.441230822379529,lateral_fall
2.432308,-2.637,1.3426,5.9756,1.0939,1.2377,-1.6301,-5.2125,-27.8625,-33.675,,0.024143000000000026,6.668143603732601,7.304986120959404,lateral_fall
2.438819,-2.637,1.3426,5.9756,1.0939,1.2377,-1.6301,-3.975,-28.1813,-33.4313,,0.0065110000000001556,6.668143603732601,7.262906931937692,lateral_fall
2.466297,-2.637,1.3426,5.9756,1.0939,1.2377,-1.6301,-3.975,-28.1813,-33.4313,,0.02747799999999989,6.668143603732601,7.344930528100064,lateral_fall
2.467698,-2.637,1.3426,5.9756,1.0939,1.2377,-1.6301,-3.975,-28.1813,-33.4313,,0.0014009999999999856,6.668143603732601,7.571547673857189,lateral_fall
2.468925,-2.637,1.3426,5.9756,1.6549,0.1926,-2.9809,-3.975,-28.1813,-33.4313,,0.0012270000000000891,6.668143603732601,7.9512736184935155,lateral_fall
2.470347,1.6564,-6.0448,-5.377,1.6549,0.1926,-2.9809,-3.975,-28.1813,-33.4313,,0.0014219999999998123,8.258050435786886,8.47919567713812,lateral_fall
2.499489,1.6564,-6.0448,-5.377,1.6549,0.1926,-2.9809,-3.975,-28.1813,-33.4313,,0.029142000000000223,8.258050435786886,9.136802432711765,lateral_fall
2.516611,1.6564,-6.0448,-5.377,1.6549,0.1926,-2.9809,-3.975,-28.1813,-33.4313,,0.01712200000000008,8.258050435786886,9.893194374275899,lateral_fall
2.517896,1.6564,-6.0448,-5.377,1.6549,0.1926,-2.9809,-1.1813,-28.4063,-32.625,,0.0012849999999997586,8.258050435786886,10.707667117033358,lateral_fall
2.52481,1.6564,-6.0448,-5.377,-1.5068,4.5165,-3.777,-1.1813,-28.4063,-32.625,,0.006914000000000087,8.258050435786886,11.533540060289356,lateral_fall
2.526683,1.6564,-6.0448,-5.377,-1.5068,4.5165,-3.777,-1.1813,-28.4063,-32.625,,0.0018729999999997915,8.258050435786886,12.32294921581529,lateral_fall
2.527776,12.9706,-14.0876,-6.5906,-1.5068,4.5165,-3.777,-1.1813,-28.4063,-32.625,,0.0010930000000000106,20.251739344560015,13.032105262024283,lateral_fall
2.566183,12.9706,-14.0876,-6.5906,-1.5068,4.5165,-3.777,-1.1813,-28.4063,-32.625,,0.0384070000000003,20.251739344560015,13.62625601992819,lateral_fall
2.569531,12.9706,-14.0876,-6.5906,-1.5068,4.5165,-3.777,-1.1813,-28.4063,-32.625,,0.0033479999999999066,20.251739344560015,14.083399583344946,lateral_fall
2.5779,12.9706,-14.0876,-6.5906,-1.5068,4.5165,-3.777,2.85,-27.9188,-31.9125,,0.00836900000000007,20.251739344560015,14.395841598185008,lateral_fall
2.587524,12.9706,-14.0876,-6.5906,0.9103,-1.2145,-0.1659,2.85,-27.9188,-31.9125,,0.009624000000000077,20.251739344560015,14.569070833030024,lateral_fall
2.59059,-2.4619,-1.719,7.252,0.9103,-1.2145,-0.1659,2.85,-27.9188,-31.9125,,0.003066000000000013,7.849039215725705,14.618064224301852,lateral_fall
2.592541,-2.4619,-1.719,7.252,0.9103,-1.2145,-0.1659,2.85,-27.9188,-31.9125,,0.001951000000000036,7.849039215725705,14.561830463190528,lateral_fall
2.631658,-2.4619,-1.719,7.252,0.9103,-1.2145,-0.1659,2.85,-27.9188,-31.9125,,0.039116999999999624,7.849039215725705,14.41753283792339,lateral_fall
2.633475,-2.4619,-1.719,7.252,0.9103,-1.2145,-0.1659,2.85,-27.9188,-31.9125,,0.0018169999999999575,7.849039215725705,14.195698463210993,lateral_fall
2.637784,-2.4619,-1.719,7.252,0.9103,-1.2145,-0.1659,6.75,-27.675,-31.1438,,0.004309000000000118,7.849039215725705,13.897744784678265,lateral_fall
2.643724,-2.4619,-1.719,7.252,0.9103,-1.2145,-0.1659,6.75,-27.675,-31.1438,,0.005940000000000278,7.849039215725705,13.516435844356284,lateral_fall
2.645439,10.3603,16.8525,6.0688,0.9103,-1.2145,-0.1659,6.75,-27.675,-31.1438,,0.001714999999999911,20.692339301780258,13.039112366614214,lateral_fall
2.664398,10.3603,16.8525,6.0688,1.0039,0.2071,-0.172,6.75,-27.675,-31.1438,,0.018958999999999726,20.692339301780258,12.45280126136929,lateral_fall
2.697403,10.3603,16.8525,6.0688,1.0039,0.2071,-0.172,6.75,-27.675,-31.1438,,0.03300500000000017,20.692339301780258,11.749784264246042,lateral_fall
2.699166,10.3603,16.8525,6.0688,1.0039,0.2071,-0.172,6.75,-27.675,-31.1438,,0.001762999999999959,20.692339301780258,10.932089486309797,lateral_fall
2.704832,2.0937,4.1387,-0.6597,1.0039,0.2071,-0.172,6.75,-27.675,-31.1438,,0.005666000000000171,4.684828862402553,10.013757865769469,lateral_fall
2.707897,2.0937,4.1387,-0.6597,1.0039,0.2071,-0.172,6.75,-27.675,-31.1438,,0.0030649999999998734,4.684828862402553,9.02049625761715,lateral_fall
2.716438,2.0937,4.1387,-0.6597,1.0039,0.2071,-0.172,10.6313,-27.15,-30.6938,,0.008541000000000132,4.684828862402553,7.987133976371575,lateral_fall
2.727733,2.0937,4.1387,-0.6597,0.6801,-2.4157,-0.5839,10.6313,-27.15,-30.6938,,0.011295000000000055,4.684828862402553,6.953810641492273,lateral_fall
2.759553,2.0937,4.1387,-0.6597,0.6801,-2.4157,-0.5839,10.6313,-27.15,-30.6938,,0.03181999999999974,4.684828862402553,5.961894606215787,lateral_fall
2.760785,2.0937,4.1387,-0.6597,0.6801,-2.4157,-0.5839,10.6313,-27.15,-30.6938,,0.0012319999999998998,4.684828862402553,5.050377227587191,lateral_fall
2.769181,2.0937,4.1387,-0.6597,0.6801,-2.4157,-0.5839,10.6313,-27.15,-30.6938,,0.008396000000000292,4.684828862402553,4.253137400580737,lateral_fall
2.770453,-2.9627,-0.9816,-0.4238,0.6801,-2.4157,-0.5839,10.6313,-27.15,-30.6938,,0.0012719999999997178,3.1497200335902873,3.597182305700318,lateral_fall
2.778199,-2.9627,-0.9816,-0.4238,0.6801,-2.4157,-0.5839,14.2313,-26.4938,-30.4125,,0.007746000000000031,3.1497200335902873,3.1017898391530423,lateral_fall
2.786537,-2.9627,-0.9816,-0.4238,0.4464,-0.999,-1.4129,14.2313,-26.4938,-30.4125,,0.008338000000000179,3.1497200335902873,2.778388673077703,lateral_fall
2.825901,-2.9627,-0.9816,-0.4238,0.4464,-0.999,-1.4129,14.2313,-26.4938,-30.4125,,0.039363999999999955,3.1497200335902873,2.6309780377008107,lateral_fall
2.827237,-2.9627,-0.9816,-0.4238,0.4464,-0.999,-1.4129,14.2313,-26.4938,-30.4125,,0.0013359999999997818,3.1497200335902873,2.656883243278509,lateral_fall
2.828321,-2.9627,-0.9816,-0.4238,0.4464,-0.999,-1.4129,14.2313,-26.4938,-30.4125,,0.001084000000000085,3.1497200335902873,2.8476558371870344,lateral_fall
2.829256,-2.1108,-2.4365,-2.7801,0.4464,-0.999,-1.4129,14.2313,-26.4938,-30.4125,,0.0009350000000001302,4.256872666641557,3.1899600858021135,lateral_fall
2.836892,-2.1108,-2.4365,-2.7801,0.4464,-0.999,-1.4129,17.7,-25.9875,-29.7188,,0.007636000000000198,4.256872666641557,3.6663377275097977,lateral_fall
2.865263,-2.1108,-2.4365,-2.7801,0.4464,-0.999,-1.4129,17.7,-25.9875,-29.7188,,0.028370999999999924,4.256872666641557,4.25580566008409,lateral_fall
2.867822,-2.1108,-2.4365,-2.7801,0.4464,-0.999,-1.4129,17.7,-25.9875,-29.7188,,0.002558999999999756,4.256872666641557,4.934312197060205,lateral_fall
2.869857,-2.1108,-2.4365,-2.7801,0.6233,-1.0716,0.1799,17.7,-25.9875,-29.7188,,0.002035000000000231,4.256872666641557,5.675145639424722,lateral_fall
2.886012,-2.1108,-2.4365,-2.7801,0.6233,-1.0716,0.1799,17.7,-25.9875,-29.7188,,0.01615499999999992,4.256872666641557,6.449429699515671,lateral_fall
2.888343,-8.2173,1.9435,-3.084,0.6233,-1.0716,0.1799,17.7,-25.9875,-29.7188,,0.002330999999999861,8.989564368755584,7.226826560656275,lateral_fall
2.920052,-8.2173,1.9435,-3.084,0.6233,-1.0716,0.1799,17.7,-25.9875,-29.7188,,0.03170900000000021,8.989564368755584,7.976494489431459,lateral_fall
2.923068,-8.2173,1.9435,-3.084,0.6233,-1.0716,0.1799,20.7938,-25.8188,-28.7625,,0.0030160000000001297,8.989564368755584,8.668248690173845,lateral_fall
2.929908,-8.2173,1.9435,-3.084,0.4146,-1.5438,0.4845,20.7938,-25.8188,-28.7625,,0.006839999999999957,8.989564368755584,9.273813119817707,lateral_fall
2.946387,-8.2173,1.9435,-3.084,0.4146,-1.5438,0.4845,20.7938,-25.8188,-28.7625,,0.01647899999999991,8.989564368755584,9.768060061336794,lateral_fall
2.948436,-8.2173,1.9435,-3.084,0.4146,-1.5438,0.4845,20.7938,-25.8188,-28.7625,,0.0020489999999999675,8.989564368755584,10.130183708486031,lateral_fall
2.94976,-0.3535,7.8301,-7.4938,0.4146,-1.5438,0.4845,20.7938,-25.8188,-28.7625,,0.0013239999999998808,10.844006026372357,10.344785664330116,lateral_fall
2.964542,-0.3535,7.8301,-7.4938,0.4146,-1.5438,0.4845,20.7938,-25.8188,-28.7625,,0.01478199999999985,10.844006026372357,10.402833887796492,lateral_fall
2.977144,-0.3535,7.8301,-7.4938,0.4146,-1.5438,0.4845,22.4438,-25.5375,-28.3875,,0.012602000000000224,10.844006026372357,10.302407920756778,lateral_fall
2.985012,-0.3535,7.8301,-7.4938,0.2074,-0.2101,-0.3636,22.4438,-25.5375,-28.3875,,0.007868000000000208,10.844006026372357,10.04910202687265,lateral_fall
3.005665,-0.3535,7.8301,-7.4938,0.2074,-0.2101,-0.3636,22.4438,-25.5375,-28.3875,,0.02065299999999981,10.844006026372357,9.655955241575846,lateral_fall
3.007568,-0.3535,7.8301,-7.4938,0.2074,-0.2101,-0.3636,22.4438,-25.5375,-28.3875,,0.001902999999999988,10.844006026372357,9.142819435892498,lateral_fall
3.008801,0.3661,5.2044,-4.1887,0.2074,-0.2101,-0.3636,22.4438,-25.5375,-28.3875,,0.0012330000000000396,6.690666353959073,8.535154639076062,lateral_fall
3.031964,0.3661,5.2044,-4.1887,0.2074,-0.2101,-0.3636,22.4438,-25.5375,-28.3875,,0.023162999999999823,6.690666353959073,7.862340602767604,lateral_fall
3.036361,0.3661,5.2044,-4.1887,0.2074,-0.2101,-0.3636,22.7812,-25.3125,-28.35,,0.004396999999999984,6.690666353959073,7.155683943652655,lateral_fall
3.046556,0.3661,5.2044,-4.1887,0.2074,-0.2101,-0.3636,22.7812,-25.3125,-28.35,,0.010194999999999954,6.690666353959073,6.446336748198724,lateral_fall
3.067269,0.3661,5.2044,-4.1887,0.4109,1.0572,-0.0554,22.7812,-25.3125,-28.35,,0.020713000000000203,6.690666353959073,5.763307795695685,lateral_fall
3.069159,0.3661,5.2044,-4.1887,0.4109,1.0572,-0.0554,22.7812,-25.3125,-28.35,,0.0018899999999999473,6.690666353959073,5.131678736069827,lateral_fall
3.07016,-1.5445,1.7812,-1.4411,0.4109,1.0572,-0.0554,22.7812,-25.3125,-28.35,,0.0010010000000000296,2.763136424427864,4.571095195800856,lateral_fall
3.099437,-1.5445,1.7812,-1.4411,0.4109,1.0572,-0.0554,22.7812,-25.3125,-28.35,,0.029276999999999997,2.763136424427864,4.094615283584316,lateral_fall
3.120176,-1.5445,1.7812,-1.4411,0.4109,1.0572,-0.0554,22.7812,-25.3125,-28.35,,0.02073899999999984,2.763136424427864,3.708037700845384,lateral_fall
3.12155,-1.5445,1.7812,-1.4411,0.4109,1.0572,-0.0554,22.2563,-25.8375,-28.2375,,0.0013740000000002084,2.763136424427864,3.4098398034771553,lateral_fall
3.124864,-1.5445,1.7812,-1.4411,0.2357,0.5317,0.2624,22.2563,-25.8375,-28.2375,,0.003314000000000039,2.763136424427864,3.1917967330333252,lateral_fall
3.126828,-2.3613,1.9181,-1.6578,0.2357,0.5317,0.2624,22.2563,-25.8375,-28.2375,,0.001964000000000077,3.464555691571431,3.040244122032467,lateral_fall
3.12843,-2.3613,1.9181,-1.6578,0.2357,0.5317,0.2624,22.2563,-25.8375,-28.2375,,0.0016019999999996593,3.464555691571431,2.937835731362948,lateral_fall
3.166074,-2.3613,1.9181,-1.6578,0.2357,0.5317,0.2624,22.2563,-25.8375,-28.2375,,0.03764400000000023,3.464555691571431,2.8655695135930386,lateral_fall
3.168539,-2.3613,1.9181,-1.6578,0.2357,0.5317,0.2624,22.2563,-25.8375,-28.2375,,0.0024649999999999395,3.464555691571431,2.8048249980391025,lateral_fall
3.178255,-2.3613,1.9181,-1.6578,0.2357,0.5317,0.2624,21.9188,-26.025,-28.0688,,0.009716000000000058,3.464555691571431,2.7391703829310936,lateral_fall
3.186152,-2.3613,1.9181,-1.6578,-0.0057,0.4875,0.0938,21.9188,-26.025,-28.0688,,0.00789699999999982,3.464555691571431,2.6557483045034673,lateral_fall
3.189099,-2.3613,1.9181,-1.6578,-0.0057,0.4875,0.0938,21.9188,-26.025,-28.0688,,0.002947000000000255,3.464555691571431,2.5461212119311334,lateral_fall
3.190731,-0.3956,1.4056,-0.8029,-0.0057,0.4875,0.0938,21.9188,-26.025,-28.0688,,0.0016319999999998558,1.6663910495438936,2.406540959257605,lateral_fall
3.231858,-0.3956,1.4056,-0.8029,-0.0057,0.4875,0.0938,21.9188,-26.025,-28.0688,,0.041126999999999914,1.6663910495438936,2.2376940759353987,lateral_fall
3.234411,-0.3956,1.4056,-0.8029,-0.0057,0.4875,0.0938,21.9188,-26.025,-28.0688,,0.0025530000000002495,1.6663910495438936,2.044047594393996,lateral_fall
3.238329,-0.3956,1.4056,-0.8029,-0.0057,0.4875,0.0938,21.675,-26.2875,-28.0125,,0.003917999999999644,1.6663910495438936,1.8329578936823183,lateral_fall
3.245667,-0.0913,0.8677,-0.8477,-0.0057,0.4875,0.0938,21.675,-26.2875,-28.0125,,0.007338000000000289,1.216484389542258,1.613697232958311,lateral_fall
3.2481,-0.0913,0.8677,-0.8477,-0.0057,0.4875,0.0938,21.675,-26.2875,-28.0125,,0.0024329999999999075,1.216484389542258,1.396513787870458,lateral_fall
3.270013,-0.0913,0.8677,-0.8477,-0.3317,0.5101,0.0369,21.675,-26.2875,-28.0125,,0.02191300000000007,1.216484389542258,1.191794557794793,lateral_fall
3.299553,-0.0913,0.8677,-0.8477,-0.3317,0.5101,0.0369,21.675,-26.2875,-28.0125,,0.0295399999999999,1.216484389542258,1.0093601557975986,lateral_fall
3.302405,-0.0913,0.8677,-0.8477,-0.3317,0.5101,0.0369,21.675,-26.2875,-28.0125,,0.0028519999999998547,1.216484389542258,0.8578902878942587,lateral_fall
3.306222,-0.1605,0.479,-0.3891,-0.3317,0.5101,0.0369,21.675,-26.2875,-28.0125,,0.0038170000000001814,0.6376519897248027,0.7444621439866177,lateral_fall
3.309377,-0.1605,0.479,-0.3891,-0.3317,0.5101,0.0369,21.675,-26.2875,-28.0125,,0.003155000000000019,0.6376519897248027,0.6741837043301611,lateral_fall
3.316652,-0.1605,0.479,-0.3891,-0.3317,0.5101,0.0369,21.7125,-26.5125,-27.7313,,0.00727499999999992,0.6376519897248027,0.649916110203488,lateral_fall
3.328439,-0.1605,0.479,-0.3891,-0.4132,-0.1376,0.1028,21.7125,-26.5125,-27.7313,,0.011786999999999992,0.6376519897248027,0.6720934605480984,lateral_fall
3.367199,-0.1605,0.479,-0.3891,-0.4132,-0.1376,0.1028,21.7125,-26.5125,-27.7313,,0.038759999999999906,0.6376519897248027,0.7386562266225513,lateral_fall
3.368458,0.5652,-0.0608,0.6647,-0.4132,-0.1376,0.1028,21.7125,-26.5125,-27.7313,,0.0012590000000001211,0.874627789405299,0.8451148538575349,lateral_fall
3.369634,0.5652,-0.0608,0.6647,-0.4132,-0.1376,0.1028,21.7125,-26.5125,-27.7313,,0.0011760000000000659,0.874627789405299,0.9847563940033964,lateral_fall
3.370512,0.5652,-0.0608,0.6647,-0.4132,-0.1376,0.1028,21.7125,-26.5125,-27.7313,,0.0008780000000001564,0.874627789405299,1.1490017081858777,lateral_fall
3.377777,0.5652,-0.0608,0.6647,-0.4132,-0.1376,0.1028,21.3375,-26.8875,-27.7313,,0.007264999999999855,0.874627789405299,1.3279138690807197,lateral_fall
3.387704,0.5652,-0.0608,0.6647,-0.4326,-0.2052,-0.0313,21.3375,-26.8875,-27.7313,,0.009926999999999797,0.874627789405299,1.5108469862127956,lateral_fall
3.430648,2.2328,0.7336,-0.3079,-0.4326,-0.2052,-0.0313,21.3375,-26.8875,-27.7313,,0.042944000000000315,2.3703095177634506,1.6872038541971084,lateral_fall
3.434598,2.2328,0.7336,-0.3079,-0.4326,-0.2052,-0.0313,21.3375,-26.8875,-27.7313,,0.003949999999999676,2.3703095177634506,1.847239514410975,lateral_fall
3.436941,2.2328,0.7336,-0.3079,-0.4326,-0.2052,-0.0313,21.3375,-26.8875,-27.7313,,0.002343000000000206,2.3703095177634506,1.9828168248542497,lateral_fall
3.43916,2.2328,0.7336,-0.3079,-0.4326,-0.2052,-0.0313,21.3375,-26.8875,-27.7313,,0.002219000000000193,2.3703095177634506,2.0880090439879373,lateral_fall
3.441227,2.2328,0.7336,-0.3079,-0.4326,-0.2052,-0.0313,21.3188,-26.9813,-27.6375,,0.002066999999999819,2.3703095177634506,2.1594643418357107,lateral_fall
3.466403,2.2328,0.7336,-0.3079,-0.4326,-0.2052,-0.0313,21.3188,-26.9813,-27.6375,,0.025176000000000087,2.3703095177634506,2.196489473724459,lateral_fall
3.469024,2.2328,0.7336,-0.3079,-0.3505,-0.0105,-0.2815,21.3188,-26.9813,-27.6375,,0.0026209999999999845,2.3703095177634506,2.200856502554513,lateral_fall
3.485864,1.3887,0.4388,1.0939,-0.3505,-0.0105,-0.2815,21.3188,-26.9813,-27.6375,,0.016839999999999744,1.8214418299797555,2.176375772467938,lateral_fall
3.489347,1.3887,0.4388,1.0939,-0.3505,-0.0105,-0.2815,21.3188,-26.9813,-27.6375,,0.003483000000000125,1.8214418299797555,2.128307154352237,lateral_fall
3.490973,1.3887,0.4388,1.0939,-0.3505,-0.0105,-0.2815,21.3188,-26.9813,-27.6375,,0.0016259999999999053,1.8214418299797555,2.0626977671064877,lateral_fall
3.517122,1.3887,0.4388,1.0939,-0.3505,-0.0105,-0.2815,21.7125,-26.8125,-27.5813,,0.0261490000000002,1.8214418299797555,1.9857341696964061,lateral_fall
3.520328,1.3887,0.4388,1.0939,-0.3505,-0.0105,-0.2815,21.7125,-26.8125,-27.5813,,0.003206000000000042,1.8214418299797555,1.9031800860648338,lateral_fall
3.528699,1.3887,0.4388,1.0939,-0.3124,-0.3266,-0.234,21.7125,-26.8125,-27.5813,,0.008370999999999906,1.8214418299797555,1.8199438299813844,lateral_fall
3.54647,1.3887,0.4388,1.0939,-0.3124,-0.3266,-0.234,21.7125,-26.8125,-27.5813,,0.01777099999999976,1.8214418299797555,1.7397926505270054,lateral_fall
3.549546,1.3887,0.4388,1.0939,-0.3124,-0.3266,-0.234,21.7125,-26.8125,-27.5813,,0.0030760000000000787,1.8214418299797555,1.6652112133542247,lateral_fall
3.550896,1.2143,0.1002,0.6718,-0.3124,-0.3266,-0.234,21.7125,-26.8125,-27.5813,,0.0013499999999999623,1.3913589651847578,1.5973908930817777,lateral_fall
3.56685,1.2143,0.1002,0.6718,-0.3124,-0.3266,-0.234,21.7125,-26.8125,-27.5813,,0.015954000000000246,1.3913589651847578,1.5363344735539768,lateral_fall
3.577777,1.2143,0.1002,0.6718,-0.3124,-0.3266,-0.234,21.9375,-26.5313,-27.7313,,0.010927000000000131,1.3913589651847578,1.4810626960410058,lateral_fall
3.58789,1.2143,0.1002,0.6718,-0.1087,-0.2872,-0.2075,21.9375,-26.5313,-27.7313,,0.010112999999999595,1.3913589651847578,1.4299082846920337,lateral_fall
3.605771,1.2143,0.1002,0.6718,-0.1087,-0.2872,-0.2075,21.9375,-26.5313,-27.7313,,0.017881000000000036,1.3913589651847578,1.3808758838076785,lateral_fall
3.608943,1.2143,0.1002,0.6718,-0.1087,-0.2872,-0.2075,21.9375,-26.5313,-27.7313,,0.0031720000000001747,1.3913589651847578,1.3320350298167742,non_fall
3.610891,1.221,-0.3586,0.5743,-0.1087,-0.2872,-0.2075,21.9375,-26.5313,-27.7313,,0.0019480000000000608,1.3961573872597604,1.281903221962761,non_fall
3.633641,1.221,-0.3586,0.5743,-0.1087,-0.2872,-0.2075,21.9375,-26.5313,-27.7313,,0.022749999999999826,1.3961573872597604,1.229771181872837,non_fall
3.637527,1.221,-0.3586,0.5743,-0.1087,-0.2872,-0.2075,22.0312,-26.025,-28.1813,,0.003886000000000056,1.3961573872597604,1.1759237776485225,non_fall
3.667828,1.221,-0.3586,0.5743,-0.1087,-0.2872,-0.2075,22.0312,-26.025,-28.1813,,0.030301000000000133,1.3961573872597604,1.1217180360667252,non_fall
3.670693,1.221,-0.3586,0.5743,-0.1087,-0.2872,-0.2075,22.0312,-26.025,-28.1813,,0.0028649999999998954,1.3961573872597604,1.0694942817505018,non_fall
3.672722,1.221,-0.3586,0.5743,-0.0349,-0.1001,-0.2423,22.0312,-26.025,-28.1813,,0.0020289999999998365,1.3961573872597604,1.0223178267221276,non_fall
3.674789,0.2546,-0.5133,0.0575,-0.0349,-0.1001,-0.2423,22.0312,-26.025,-28.1813,,0.002067000000000263,0.57585093557274,0.9835764003089384,non_fall
3.698769,0.2546,-0.5133,0.0575,-0.0349,-0.1001,-0.2423,22.0312,-26.025,-28.1813,,0.02397999999999989,0.57585093557274,0.9564896658916971,non_fall
3.719056,0.2546,-0.5133,0.0575,-0.0349,-0.1001,-0.2423,22.0312,-26.025,-28.1813,,0.020287000000000166,0.57585093557274,0.9436131552060687,non_fall
3.722974,0.2546,-0.5133,0.0575,-0.0349,-0.1001,-0.2423,22.1438,-25.5375,-28.6875,,0.003917999999999644,0.57585093557274,0.9464275891559566,non_fall
3.729987,0.2546,-0.5133,0.0575,-0.0874,0.3276,-0.3066,22.1438,-25.5375,-28.6875,,0.007013000000000158,0.57585093557274,0.9650890442031119,non_fall
3.734561,-0.0011,-0.6972,-1.0059,-0.0874,0.3276,-0.3066,22.1438,-25.5375,-28.6875,,0.004573999999999856,1.223896997300018,0.9983804221675998,non_fall
3.737736,-0.0011,-0.6972,-1.0059,-0.0874,0.3276,-0.3066,22.1438,-25.5375,-28.6875,,0.00317500000000015,1.223896997300018,1.04386225602734,non_fall
3.768072,-0.0011,-0.6972,-1.0059,-0.0874,0.3276,-0.3066,22.1438,-25.5375,-28.6875,,0.03033600000000014,1.223896997300018,1.0981838742312982,non_fall
3.771068,-0.0011,-0.6972,-1.0059,-0.0874,0.3276,-0.3066,22.1438,-25.5375,-28.6875,,0.0029959999999999987,1.223896997300018,1.1574944359757504,non_fall
3.776661,-0.0011,-0.6972,-1.0059,-0.0874,0.3276,-0.3066,22.2563,-25.05,-29.1,,0.005592999999999737,1.223896997300018,1.2178905635926363,non_fall
3.787639,-0.0011,-0.6972,-1.0059,0.0706,0.3992,-0.2152,22.2563,-25.05,-29.1,,0.010978000000000154,1.223896997300018,1.275847249018966,non_fall
3.790095,-0.1613,-0.7973,-1.2881,0.0706,0.3992,-0.2152,22.2563,-25.05,-29.1,,0.0024560000000000137,1.5234521948522046,1.328591404066677,non_fall
3.79192,-0.1613,-0.7973,-1.2881,0.0706,0.3992,-0.2152,22.2563,-25.05,-29.1,,0.0018250000000001876,1.5234521948522046,1.3743867938871464,non_fall
3.834647,-0.1613,-0.7973,-1.2881,0.0706,0.3992,-0.2152,22.2563,-25.05,-29.1,,0.04272699999999974,1.5234521948522046,1.4127056824727267,non_fall
3.838273,-0.1613,-0.7973,-1.2881,0.0706,0.3992,-0.2152,22.2563,-25.05,-29.1,,0.003626000000000129,1.5234521948522046,1.4442704194470073,non_fall
3.84065,-0.1613,-0.7973,-1.2881,0.0706,0.3992,-0.2152,22.425,-24.6188,-29.5875,,0.0023770000000000735,1.5234521948522046,1.470960046309462,non_fall
3.847831,-0.3945,-0.5401,-1.3686,0.0706,0.3992,-0.2152,22.425,-24.6188,-29.5875,,0.00718099999999966,1.5232873071092008,1.49559144124275,non_fall
3.851644,-0.3945,-0.5401,-1.3686,0.0706,0.3992,-0.2152,22.425,-24.6188,-29.5875,,0.0038130000000000663,1.5232873071092008,1.52159816253364,non_fall
3.867687,-0.3945,-0.5401,-1.3686,0.0867,0.3715,-0.1058,22.425,-24.6188,-29.5875,,0.01604300000000025,1.5232873071092008,1.5526407161018265,non_fall
3.899917,-0.3945,-0.5401,-1.3686,0.0867,0.3715,-0.1058,22.425,-24.6188,-29.5875,,0.03222999999999976,1.5232873071092008,1.5921889204565058,non_fall
3.904076,-0.3945,-0.5401,-1.3686,0.0867,0.3715,-0.1058,22.425,-24.6188,-29.5875,,0.004159000000000024,1.5232873071092008,1.643120409442537,non_fall
3.913124,-0.3945,-0.5401,-1.3686,0.0867,0.3715,-0.1058,22.425,-24.6188,-29.5875,,0.009047999999999945,1.5232873071092008,1.7073788967106565,non_fall
3.917806,0.7843,-0.4001,-1.3438,0.0867,0.3715,-0.1058,22.425,-24.6188,-29.5875,,0.004682000000000297,1.6065506341226847,1.7857310487657003,non_fall
3.922468,0.7843,-0.4001,-1.3438,0.0867,0.3715,-0.1058,23.0625,-24.15,-29.7,,0.004661999999999722,1.6065506341226847,1.877650952811494,non_fall
3.929504,0.7843,-0.4001,-1.3438,-0.1891,1.0152,-0.0799,23.0625,-24.15,-29.7,,0.007036000000000264,1.6065506341226847,1.981345712304822,non_fall
3.966033,0.9857,0.1605,-2.3556,-0.1891,1.0152,-0.0799,23.0625,-24.15,-29.7,,0.03652899999999981,2.5585574255818453,2.093914737755728,non_fall
3.969257,0.9857,0.1605,-2.3556,-0.1891,1.0152,-0.0799,23.0625,-24.15,-29.7,,0.0032239999999998936,2.5585574255818453,2.21161109327406,non_fall
3.970512,0.9857,0.1605,-2.3556,-0.1891,1.0152,-0.0799,23.0625,-24.15,-29.7,,0.0012550000000000061,2.5585574255818453,2.330153169385416,non_fall
3.97189,0.9857,0.1605,-2.3556,-0.1891,1.0152,-0.0799,23.0625,-24.15,-29.7,,0.0013780000000003234,2.5585574255818453,2.44502977525438,non_fall
3.977937,0.9857,0.1605,-2.3556,-0.1891,1.0152,-0.0799,23.7375,-23.6438,-29.6063,,0.0060469999999996915,2.5585574255818453,2.551756281574554,non_fall
3.985963,0.9857,0.1605,-2.3556,-0.2236,0.7298,-0.2422,23.7375,-23.6438,-29.6063,,0.008026000000000089,2.5585574255818453,2.646066153607199,non_fall
4.028949,0.9857,0.1605,-2.3556,-0.2236,0.7298,-0.2422,23.7375,-23.6438,-29.6063,,0.04298599999999997,2.5585574255818453,2.724047641658514,non_fall
4.032942,0.9857,0.1605,-2.3556,-0.2236,0.7298,-0.2422,23.7375,-23.6438,-29.6063,,0.003993000000000357,2.5585574255818453,2.7822504895581464,non_fall
4.035146,0.9857,0.1605,-2.3556,-0.2236,0.7298,-0.2422,23.7375,-23.6438,-29.6063,,0.0022039999999998727,2.5585574255818453,2.81778996552468,non_fall
4.037224,1.3619,0.5746,-2.5007,-0.2236,0.7298,-0.2422,23.7375,-23.6438,-29.6063,,0.0020780000000000243,2.9048988381697565,2.8284665570560645,non_fall
4.040261,1.3619,0.5746,-2.5007,-0.2236,0.7298,-0.2422,24.6375,-23.1938,-29.25,,0.0030369999999999564,2.9048988381697565,2.8129025465003243,non_fall
4.069831,1.3619,0.5746,-2.5007,-0.2236,0.7298,-0.2422,24.6375,-23.1938,-29.25,,0.029569999999999652,2.9048988381697565,2.7706773206097384,non_fall
4.074025,1.3619,0.5746,-2.5007,-0.3848,0.6739,-0.2392,24.6375,-23.1938,-29.25,,0.004194000000000031,2.9048988381697565,2.702429329300147,non_fall
4.083206,1.3619,0.5746,-2.5007,-0.3848,0.6739,-0.2392,24.6375,-23.1938,-29.25,,0.009180999999999884,2.9048988381697565,2.6098895995082776,non_fall
4.087249,1.3619,0.5746,-2.5007,-0.3848,0.6739,-0.2392,24.6375,-23.1938,-29.25,,0.004043000000000241,2.9048988381697565,2.4958204432321507,non_fall
4.089825,1.0419,0.2174,-1.6375,-0.3848,0.6739,-0.2392,24.6375,-23.1938,-29.25,,0.0025760000000003558,1.9530039989718404,2.363851429499567,non_fall
4.117618,1.0419,0.2174,-1.6375,-0.3848,0.6739,-0.2392,25.6313,-22.6125,-28.8563,,0.027792999999999957,1.9530039989718404,2.21822921747225,non_fall
4.121237,1.0419,0.2174,-1.6375,-0.3848,0.6739,-0.2392,25.6313,-22.6125,-28.8563,,0.0036189999999995948,1.9530039989718404,2.0635207207496125,non_fall
4.127742,1.0419,0.2174,-1.6375,-0.4138,0.2906,-0.3044,25.6313,-22.6125,-28.8563,,0.006504999999999761,1.9530039989718404,1.9043194369223293,non_fall
4.147798,1.0774,0.4141,-0.8849,-0.4138,0.2906,-0.3044,25.6313,-22.6125,-28.8563,,0.020056000000000296,1.4544131393795918,1.7449979319161883,non_fall
4.152487,1.0774,0.4141,-0.8849,-0.4138,0.2906,-0.3044,25.6313,-22.6125,-28.8563,,0.004688999999999943,1.4544131393795918,1.589532042375839,non_fall
4.155197,1.0774,0.4141,-0.8849,-0.4138,0.2906,-0.3044,25.6313,-22.6125,-28.8563,,0.0027100000000004343,1.4544131393795918,1.4414038523175017,non_fall
4.176886,1.0774,0.4141,-0.8849,-0.4138,0.2906,-0.3044,26.6438,-21.975,-28.2938,,0.021688999999999403,1.4544131393795918,1.3035740522146508,non_fall
4.180878,1.0774,0.4141,-0.8849,-0.4138,0.2906,-0.3044,26.6438,-21.975,-28.2938,,0.003992000000000218,1.4544131393795918,1.1784998035581853,non_fall
4.188561,1.0774,0.4141,-0.8849,-0.4716,0.1354,-0.2771,26.6438,-21.975,-28.2938,,0.007683000000000106,1.4544131393795918,1.0681652433692788,non_fall
4.208801,0.478,0.531,-0.2719,-0.4716,0.1354,-0.2771,26.6438,-21.975,-28.2938,,0.020240000000000258,0.7644439874837136,0.9740940335655083,non_fall
4.214867,0.478,0.531,-0.2719,-0.4716,0.1354,-0.2771,26.6438,-21.975,-28.2938,,0.006065999999999683,0.7644439874837136,0.8973282065358313,non_fall
4.218972,0.478,0.531,-0.2719,-0.4716,0.1354,-0.2771,26.6438,-21.975,-28.2938,,0.004105000000000025,0.7644439874837136,0.8383782526937008,non_fall
4.233391,0.478,0.531,-0.2719,-0.4716,0.1354,-0.2771,26.6438,-21.975,-28.2938,,0.014419000000000182,0.7644439874837136,0.7971646981990662,non_fall
4.239544,0.478,0.531,-0.2719,-0.4716,0.1354,-0.2771,27.7125,-21.3,-27.9375,,0.006153000000000297,0.7644439874837136,0.7729744808159442,non_fall
4.269482,0.478,0.531,-0.2719,-0.4716,0.1354,-0.2771,27.7125,-21.3,-27.9375,,0.029937999999999576,0.7644439874837136,0.7644489329288436,non_fall
4.272262,0.478,0.531,-0.2719,-0.4716,0.1354,-0.2771,27.7125,-21.3,-27.9375,,0.0027799999999995606,0.7644439874837136,0.76961157932169,non_fall
4.273541,0.478,0.531,-0.2719,-0.5438,0.0609,-0.4245,27.7125,-21.3,-27.9375,,0.0012790000000002522,0.7644439874837136,0.7859379639316222,non_fall
4.275234,0.1897,0.7678,-0.1605,-0.5438,0.0609,-0.4245,27.7125,-21.3,-27.9375,,0.0016930000000003886,0.8070087855779514,0.8104666724907171,non_fall
4.299088,0.1897,0.7678,-0.1605,-0.5438,0.0609,-0.4245,27.7125,-21.3,-27.9375,,0.023854000000000042,0.8070087855779514,0.8399491822985901,non_fall
4.318095,0.1897,0.7678,-0.1605,-0.5438,0.0609,-0.4245,28.8,-20.3625,-27.6938,,0.01900699999999933,0.8070087855779514,0.8710348876837153,non_fall
4.322706,0.1897,0.7678,-0.1605,-0.5438,0.0609,-0.4245,28.8,-20.3625,-27.6938,,0.004611000000000587,0.8070087855779514,0.9004858408020003,non_fall
4.330593,0.1897,0.7678,-0.1605,-0.35,0.2819,-0.1612,28.8,-20.3625,-27.6938,,0.0078870000000002,0.8070087855779514,0.9254126952033263,non_fall
4.335851,0.1897,0.7678,-0.1605,-0.35,0.2819,-0.1612,28.8,-20.3625,-27.6938,,0.005257999999999541,0.8070087855779514,0.94351812341721,non_fall
4.338261,-1.0206,0.4462,0.4651,-0.35,0.2819,-0.1612,28.8,-20.3625,-27.6938,,0.0024100000000002453,1.20707779782415,0.9533259830035007,non_fall
4.369155,-1.0206,0.4462,0.4651,-0.35,0.2819,-0.1612,28.8,-20.3625,-27.6938,,0.030893999999999977,1.20707779782415,0.9543648673529035,non_fall
4.379567,-1.0206,0.4462,0.4651,-0.35,0.2819,-0.1612,29.9063,-19.5,-27.3563,,0.010411999999999644,1.20707779782415,0.9472677551004457,non_fall
4.384857,-1.0206,0.4462,0.4651,-0.35,0.2819,-0.1612,29.9063,-19.5,-27.3563,,0.005290000000000461,1.20707779782415,0.9337516172087269,non_fall
4.389503,-1.0206,0.4462,0.4651,-0.3182,0.5607,-0.0919,29.9063,-19.5,-27.3563,,0.00464600000000015,1.20707779782415,0.9164557926908555,non_fall
4.392195,-0.485,0.409,0.0764,-0.3182,0.5607,-0.0919,29.9063,-19.5,-27.3563,,0.0026919999999996946,0.6390171828675658,0.898643604138788,non_fall
4.395375,-0.485,0.409,0.0764,-0.3182,0.5607,-0.0919,29.9063,-19.5,-27.3563,,0.0031799999999995165,0.6390171828675658,0.8838013707373702,non_fall
4.434286,-0.485,0.409,0.0764,-0.3182,0.5607,-0.0919,29.9063,-19.5,-27.3563,,0.038911000000000584,0.6390171828675658,0.8751937151730601,non_fall
4.437872,-0.485,0.409,0.0764,-0.3182,0.5607,-0.0919,29.9063,-19.5,-27.3563,,0.003585999999999423,0.6390171828675658,0.8754449046564743,non_fall
4.440031,-0.485,0.409,0.0764,-0.3182,0.5607,-0.0919,30.8813,-18.3375,-27.2438,,0.002159000000000688,0.6390171828675658,0.8862087770243999,non_fall
4.44841,-0.1754,0.763,-0.652,-0.3182,0.5607,-0.0919,30.8813,-18.3375,-27.2438,,0.008378999999999692,1.0188415774790505,0.9079683950878907,non_fall
4.453073,-0.1754,0.763,-0.652,-0.3182,0.5607,-0.0919,30.8813,-18.3375,-27.2438,,0.004662999999999862,1.0188415774790505,0.939979510725295,non_fall
4.466451,-0.1754,0.763,-0.652,-0.4439,0.5314,-0.0465,30.8813,-18.3375,-27.2438,,0.013378000000000334,1.0188415774790505,0.9803476703591449,non_fall
4.498651,-0.1754,0.763,-0.652,-0.4439,0.5314,-0.0465,30.8813,-18.3375,-27.2438,,0.03219999999999956,1.0188415774790505,1.0262134605263733,non_fall
4.501216,-0.1754,0.763,-0.652,-0.4439,0.5314,-0.0465,30.8813,-18.3375,-27.2438,,0.0025650000000005946,1.0188415774790505,1.0740156629104691,non_fall
4.507516,-0.1754,0.763,-0.652,-0.4439,0.5314,-0.0465,30.8813,-18.3375,-27.2438,,0.006299999999999528,1.0188415774790505,1.119804132407364,non_fall
4.509927,-1.0255,0.4817,-0.6169,-0.4439,0.5314,-0.0465,30.8813,-18.3375,-27.2438,,0.002411000000000385,1.2900584289093266,1.1595768958175325,non_fall
4.519989,-1.0255,0.4817,-0.6169,-0.4439,0.5314,-0.0465,31.7625,-17.5312,-27.3563,,0.010061999999999571,1.2900584289093266,1.1896158262903733,non_fall
4.527677,-1.0255,0.4817,-0.6169,-0.4946,0.0155,0.1498,31.7625,-17.5312,-27.3563,,0.007687999999999917,1.2900584289093266,1.2067934635941333,non_fall
4.565604,-1.0255,0.4817,-0.6169,-0.4946,0.0155,0.1498,31.7625,-17.5312,-27.3563,,0.03792700000000071,1.2900584289093266,1.208823995412084,non_fall
4.568706,-1.0255,0.4817,-0.6169,-0.4946,0.0155,0.1498,31.7625,-17.5312,-27.3563,,0.003101999999999272,1.2900584289093266,1.1944367245456275,non_fall
4.572454,-1.0255,0.4817,-0.6169,-0.4946,0.0155,0.1498,31.7625,-17.5312,-27.3563,,0.0037479999999998626,1.2900584289093266,1.1634597953636243,non_fall
4.574415,-0.918,0.178,0.1635,-0.4946,0.0155,0.1498,31.7625,-17.5312,-27.3563,,0.0019610000000005456,0.9492840723408352,1.1168131140791682,non_fall
4.576637,-0.918,0.178,0.1635,-0.4946,0.0155,0.1498,32.4563,-16.6688,-27.45,,0.002221999999999724,0.9492840723408352,1.0564201790632175,non_fall
4.59065,-0.918,0.178,0.1635,-0.5001,0.1716,0.081,32.4563,-16.6688,-27.45,,0.014013000000000275,0.9492840723408352,0.9850565467939898,non_fall
4.62756,-0.918,0.178,0.1635,-0.5001,0.1716,0.081,32.4563,-16.6688,-27.45,,0.036909999999999776,0.9492840723408352,0.9061549764204775,non_fall
4.631595,-0.918,0.178,0.1635,-0.5001,0.1716,0.081,32.4563,-16.6688,-27.45,,0.004035000000000011,0.9492840723408352,0.8235834160063339,non_fall
4.634476,-0.918,0.178,0.1635,-0.5001,0.1716,0.081,32.4563,-16.6688,-27.45,,0.0028810000000003555,0.9492840723408352,0.7414059555233661,non_fall
4.63691,-0.3831,0.1523,0.1884,-0.5001,0.1716,0.081,32.4563,-16.6688,-27.45,,0.0024340000000000472,0.45327194927548736,0.6636345216599413,non_fall
4.639713,-0.3831,0.1523,0.1884,-0.5001,0.1716,0.081,33.0563,-15.9375,-27.4875,,0.002803000000000111,0.45327194927548736,0.5939830099673392,non_fall
4.667897,-0.3831,0.1523,0.1884,-0.5001,0.1716,0.081,33.0563,-15.9375,-27.4875,,0.028183999999999543,0.45327194927548736,0.5356424174383848,non_fall
4.671214,-0.3831,0.1523,0.1884,-0.3959,0.3818,0.0861,33.0563,-15.9375,-27.4875,,0.0033170000000000144,0.45327194927548736,0.4910985335176058,non_fall
4.689085,-0.3831,0.1523,0.1884,-0.3959,0.3818,0.0861,33.0563,-15.9375,-27.4875,,0.017871000000000414,0.45327194927548736,0.4620088696335236,non_fall
4.692926,-0.3831,0.1523,0.1884,-0.3959,0.3818,0.0861,33.0563,-15.9375,-27.4875,,0.0038409999999995392,0.45327194927548736,0.449145255037363,non_fall
4.695365,-0.5115,0.0039,0.0496,-0.3959,0.3818,0.0861,33.0563,-15.9375,-27.4875,,0.002438999999999858,0.5139140200461552,0.45239851592107355,non_fall
4.720913,-0.5115,0.0039,0.0496,-0.3959,0.3818,0.0861,33.6188,-15.3188,-27.75,,0.02554800000000057,0.5139140200461552,0.4708353958676797,non_fall
4.725646,-0.5115,0.0039,0.0496,-0.3959,0.3818,0.0861,33.6188,-15.3188,-27.75,,0.004732999999999876,0.5139140200461552,0.5027958435622747,non_fall
4.727787,-0.5115,0.0039,0.0496,-0.514,0.3577,0.0213,33.6188,-15.3188,-27.75,,0.0021409999999999485,0.5139140200461552,0.5460201184377823,non_fall
4.7497,-0.5115,0.0039,0.0496,-0.514,0.3577,0.0213,33.6188,-15.3188,-27.75,,0.021912999999999627,0.5139140200461552,0.5977983111514682,non_fall
4.753212,-0.5115,0.0039,0.0496,-0.514,0.3577,0.0213,33.6188,-15.3188,-27.75,,0.0035120000000006257,0.5139140200461552,0.6551375663746422,non_fall
4.755071,-0.5671,0.4587,-0.4874,-0.514,0.3577,0.0213,33.6188,-15.3188,-27.75,,0.001858999999999611,0.8772495996009346,0.7149422069529762,non_fall
4.777716,-0.5671,0.4587,-0.4874,-0.514,0.3577,0.0213,33.6188,-15.3188,-27.75,,0.022644999999999804,0.8772495996009346,0.7741983710977026,non_fall
4.781441,-0.5671,0.4587,-0.4874,-0.514,0.3577,0.0213,34.0312,-14.55,-27.9375,,0.0037250000000002004,0.8772495996009346,0.8301500504450245,non_fall
4.789319,-0.5671,0.4587,-0.4874,-0.515,0.1897,0.1324,34.0312,-14.55,-27.9375,,0.00787799999999983,0.8772495996009346,0.8804519154309369,non_fall
4.809006,-0.5671,0.4587,-0.4874,-0.515,0.1897,0.1324,34.0312,-14.55,-27.9375,,0.019687000000000232,0.8772495996009346,0.9232882538727637,non_fall
4.813952,-0.5671,0.4587,-0.4874,-0.515,0.1897,0.1324,34.0312,-14.55,-27.9375,,0.004945999999999451,0.8772495996009346,0.9574542231044012,non_fall
4.816418,-0.8909,0.4653,-0.2525,-0.515,0.1897,0.1324,34.0312,-14.55,-27.9375,,0.0024660000000000792,1.0363219335708378,0.9824007888974227,non_fall
4.833543,-0.8909,0.4653,-0.2525,-0.515,0.1897,0.1324,34.0312,-14.55,-27.9375,,0.017125000000000057,1.0363219335708378,0.9982457755347925,non_fall
4.839275,-0.8909,0.4653,-0.2525,-0.515,0.1897,0.1324,34.4625,-13.9875,-28.0125,,0.00573200000000007,1.0363219335708378,1.005751579329109,non_fall
4.871718,-0.8909,0.4653,-0.2525,-0.515,0.1897,0.1324,34.4625,-13.9875,-28.0125,,0.032443000000000666,1.0363219335708378,1.0062683763707394,non_fall
4.874956,-0.8909,0.4653,-0.2525,-0.515,0.1897,0.1324,34.4625,-13.9875,-28.0125,,0.00323799999999963,1.0363219335708378,1.0016422948658918,non_fall
4.876626,-0.8909,0.4653,-0.2525,-0.5736,0.098,0.1441,34.4625,-13.9875,-28.0125,,0.0016699999999998383,1.0363219335708378,0.994090993713441,non_fall
4.878603,-0.0362,0.8763,-0.3214,-0.5736,0.098,0.1441,34.4625,-13.9875,-28.0125,,0.0019770000000001176,0.9340824856510265,0.9860531072897317,non_fall
4.900022,-0.0362,0.8763,-0.3214,-0.5736,0.098,0.1441,34.4625,-13.9875,-28.0125,,0.021418999999999855,0.9340824856510265,0.980021965507754,non_fall
4.91817,-0.0362,0.8763,-0.3214,-0.5736,0.098,0.1441,34.6125,-13.4063,-28.275,,0.018148000000000053,0.9340824856510265,0.9783769106068427,non_fall
4.923173,-0.0362,0.8763,-0.3214,-0.5736,0.098,0.1441,34.6125,-13.4063,-28.275,,0.005003000000000313,0.9340824856510265,0.9832262434463989,non_fall
4.930272,-0.0362,0.8763,-0.3214,-0.5927,0.0788,0.1992,34.6125,-13.4063,-28.275,,0.0070990000000001885,0.9340824856510265,0.9962736818381901,non_fall
4.934694,0.447,1.0197,-0.0603,-0.5927,0.0788,0.1992,34.6125,-13.4063,-28.275,,0.004421999999999926,1.1150036681554012,1.0187157651494134,non_fall
4.938136,0.447,1.0197,-0.0603,-0.5927,0.0788,0.1992,34.6125,-13.4063,-28.275,,0.003441999999999723,1.1150036681554012,1.0511724302642778,non_fall
4.967411,0.447,1.0197,-0.0603,-0.5927,0.0788,0.1992,34.6125,-13.4063,-28.275,,0.029275000000000162,1.1150036681554012,1.0936490652918354,non_fall
4.979176,0.447,1.0197,-0.0603,-0.5927,0.0788,0.1992,34.6125,-13.4063,-28.275,,0.011764999999999581,1.1150036681554012,1.14552762446209,non_fall
4.982623,0.447,1.0197,-0.0603,-0.5927,0.0788,0.1992,34.7625,-12.9938,-28.5188,,0.003447000000000422,1.1150036681554012,1.2055870478710136,non_fall
4.989632,0.447,1.0197,-0.0603,-0.6994,-0.4202,0.3238,34.7625,-12.9938,-28.5188,,0.007009000000000043,1.1150036681554012,1.2720568013034834,non_fall
4.993485,-0.1432,1.435,-0.115,-0.6994,-0.4202,0.3238,34.7625,-12.9938,-28.5188,,0.00385299999999944,1.446705305167573,1.3427082619659914,non_fall
4.995743,-0.1432,1.435,-0.115,-0.6994,-0.4202,0.3238,34.7625,-12.9938,-28.5188,,0.0022580000000003153,1.446705305167573,1.4149851489485812,non_fall
5.033367,-0.1432,1.435,-0.115,-0.6994,-0.4202,0.3238,34.7625,-12.9938,-28.5188,,0.0376240000000001,1.446705305167573,1.4861679383084192,non_fall
5.037288,-0.1432,1.435,-0.115,-0.6994,-0.4202,0.3238,34.7625,-12.9938,-28.5188,,0.003921000000000063,1.446705305167573,1.5535620026207526,non_fall
5.039687,-0.1432,1.435,-0.115,-0.6994,-0.4202,0.3238,34.725,-12.5813,-29.0813,,0.002398999999999596,1.446705305167573,1.6146969012316779,non_fall
5.047891,-0.0988,1.7993,0.5211,-0.6994,-0.4202,0.3238,34.725,-12.5813,-29.0813,,0.0082040000000001,1.8758430478054393,1.6675225239559908,non_fall
5.051932,-0.0988,1.7993,0.5211,-0.6994,-0.4202,0.3238,34.725,-12.5813,-29.0813,,0.004040999999999961,1.8758430478054393,1.7105836511808135,non_fall
5.069754,-0.0988,1.7993,0.5211,-0.5442,-0.2353,0.3087,34.725,-12.5813,-29.0813,,0.017821999999999782,1.8758430478054393,1.7431493684996409,non_fall
5.09906,-0.0988,1.7993,0.5211,-0.5442,-0.2353,0.3087,34.725,-12.5813,-29.0813,,0.029306000000000054,1.8758430478054393,1.765273261221204,non_fall
5.101846,-0.0988,1.7993,0.5211,-0.5442,-0.2353,0.3087,34.725,-12.5813,-29.0813,,0.0027860000000003993,1.8758430478054393,1.777768242254109,non_fall
5.108097,0.432,1.4066,0.8617,-0.5442,-0.2353,0.3087,34.725,-12.5813,-29.0813,,0.0062509999999997845,1.7051904439094188,1.7820943064924475,non_fall
5.111501,0.432,1.4066,0.8617,-0.5442,-0.2353,0.3087,34.725,-12.5813,-29.0813,,0.0034039999999997406,1.7051904439094188,1.780173096068429,non_fall
5.119861,0.432,1.4066,0.8617,-0.5442,-0.2353,0.3087,34.4813,-12.075,-29.7563,,0.00836000000000059,1.7051904439094188,1.7741551477715827,non_fall
5.127512,0.432,1.4066,0.8617,-0.4328,-0.1828,0.3017,34.4813,-12.075,-29.7563,,0.007651000000000074,1.7051904439094188,1.7661713377067152,non_fall
5.16912,0.432,1.4066,0.8617,-0.4328,-0.1828,0.3017,34.4813,-12.075,-29.7563,,0.04160800000000009,1.7051904439094188,1.7580989183672406,non_fall
5.172717,0.432,1.4066,0.8617,-0.4328,-0.1828,0.3017,34.4813,-12.075,-29.7563,,0.003596999999999184,1.7051904439094188,1.7513666260182967,non_fall
5.174759,0.432,1.4066,0.8617,-0.4328,-0.1828,0.3017,34.4813,-12.075,-29.7563,,0.0020420000000003213,1.7051904439094188,1.7468155378775083,non_fall
5.176382,0.4785,1.4154,0.8774,-0.4328,-0.1828,0.3017,34.4813,-12.075,-29.7563,,0.0016230000000003741,1.732671397005214,1.744624682202345,non_fall
5.178676,0.4785,1.4154,0.8774,-0.4328,-0.1828,0.3017,34.2,-11.85,-30.4875,,0.0022940000000000182,1.732671397005214,1.7443036098759594,non_fall
5.190457,0.4785,1.4154,0.8774,-0.1858,-0.1857,0.3799,34.2,-11.85,-30.4875,,0.011781000000000041,1.732671397005214,1.744748484273013,non_fall
5.230754,0.4785,1.4154,0.8774,-0.1858,-0.1857,0.3799,34.2,-11.85,-30.4875,,0.040296999999999805,1.732671397005214,1.7443539242523394,non_fall
5.234683,0.4785,1.4154,0.8774,-0.1858,-0.1857,0.3799,34.2,-11.85,-30.4875,,0.003929000000000293,1.732671397005214,1.741169815991859,non_fall
5.236961,0.4785,1.4154,0.8774,-0.1858,-0.1857,0.3799,34.2,-11.85,-30.4875,,0.002277999999999558,1.732671397005214,1.7330902371082608,non_fall
5.239135,1.1385,0.9307,0.8651,-0.1858,-0.1857,0.3799,34.2,-11.85,-30.4875,,0.0021740000000001203,1.7061016235851838,1.7180600769549728,non_fall
5.242622,1.1385,0.9307,0.8651,-0.1858,-0.1857,0.3799,33.8063,-11.5688,-31.3688,,0.003486999999999796,1.7061016235851838,1.6942836723418424,non_fall
5.268972,1.1385,0.9307,0.8651,-0.2928,-0.3392,0.0767,33.8063,-11.5688,-31.3688,,0.026349999999999874,1.7061016235851838,1.6604188224583991,non_fall
5.27388,1.1385,0.9307,0.8651,-0.2928,-0.3392,0.0767,33.8063,-11.5688,-31.3688,,0.0049080000000003565,1.7061016235851838,1.6157391348901864,non_fall
5.288926,1.1385,0.9307,0.8651,-0.2928,-0.3392,0.0767,33.8063,-11.5688,-31.3688,,0.015045999999999893,1.7061016235851838,1.5602484576788311,non_fall
5.292755,1.1385,0.9307,0.8651,-0.2928,-0.3392,0.0767,33.8063,-11.5688,-31.3688,,0.0038289999999996382,1.7061016235851838,1.4947344197463797,non_fall
5.295301,0.7657,0.9029,-0.0909,-0.2928,-0.3392,0.0767,33.8063,-11.5688,-31.3688,,0.0025460000000006033,1.1873448151232227,1.420755161453288,non_fall
5.319614,0.7657,0.9029,-0.0909,-0.2928,-0.3392,0.0767,33.2625,-11.4375,-32.4188,,0.024312999999999363,1.1873448151232227,1.3405639322536045,non_fall
5.325004,0.7657,0.9029,-0.0909,-0.2928,-0.3392,0.0767,33.2625,-11.4375,-32.4188,,0.005390000000000228,1.1873448151232227,1.2569865542320564,non_fall
5.331883,0.7657,0.9029,-0.0909,-0.4306,-0.601,-0.0035,33.2625,-11.4375,-32.4188,,0.006879000000000524,1.1873448151232227,1.1732707348804872,non_fall
5.351352,0.7657,0.9029,-0.0909,-0.4306,-0.601,-0.0035,33.2625,-11.4375,-32.4188,,0.01946899999999996,1.1873448151232227,1.0929212245074182,non_fall
5.355113,0.7657,0.9029,-0.0909,-0.4306,-0.601,-0.0035,33.2625,-11.4375,-32.4188,,0.0037609999999999033,1.1873448151232227,1.019525209020443,non_fall
5.356871,0.3981,0.1475,0.7889,-0.4306,-0.601,-0.0035,33.2625,-11.4375,-32.4188,,0.0017579999999997042,0.8958811695755191,0.9565656067848072,non_fall
5.378179,0.3981,0.1475,0.7889,-0.4306,-0.601,-0.0035,32.6063,-11.3813,-33.5625,,0.021308000000000327,0.8958811695755191,0.907220252883038,non_fall
5.383018,0.3981,0.1475,0.7889,-0.4306,-0.601,-0.0035,32.6063,-11.3813,-33.5625,,0.004838999999999594,0.8958811695755191,0.8741507650662677,non_fall
5.39167,0.3981,0.1475,0.7889,-0.3249,-0.3488,-0.0865,32.6063,-11.3813,-33.5625,,0.008652000000000548,0.8958811695755191,0.8592914943975254,non_fall
5.396222,0.3981,0.1475,0.7889,-0.3249,-0.3488,-0.0865,32.6063,-11.3813,-33.5625,,0.004551999999999445,0.8958811695755191,0.86365303242041,non_fall
5.408687,0.3981,0.1475,0.7889,-0.3249,-0.3488,-0.0865,32.6063,-11.3813,-33.5625,,0.012464999999999726,0.8958811695755191,0.8871566394138781,non_fall
5.413613,0.193,-0.7434,0.451,-0.3249,-0.3488,-0.0865,32.6063,-11.3813,-33.5625,,0.004926000000000208,0.8906702869187901,0.9285177624962662,non_fall
5.434103,0.193,-0.7434,0.451,-0.3249,-0.3488,-0.0865,32.6063,-11.3813,-33.5625,,0.020490000000000563,0.8906702869187901,0.9851992104581443,non_fall
5.43778,0.193,-0.7434,0.451,-0.3249,-0.3488,-0.0865,31.8375,-11.1562,-34.7438,,0.0036769999999997083,0.8906702869187901,1.0534561886345075,non_fall
5.468553,0.193,-0.7434,0.451,-0.3249,-0.3488,-0.0865,31.8375,-11.1562,-34.7438,,0.03077299999999994,0.8906702869187901,1.1284940447823064,non_fall
5.471417,0.193,-0.7434,0.451,-0.3249,-0.3488,-0.0865,31.8375,-11.1562,-34.7438,,0.0028639999999997556,0.8906702869187901,1.204753068856627,non_fall
5.47311,0.193,-0.7434,0.451,-0.274,0.129,-0.0667,31.8375,-11.1562,-34.7438,,0.0016930000000003886,0.8906702869187901,1.2763212499319267,non_fall
5.475732,0.1648,-1.6649,0.0024,-0.274,0.129,-0.0667,31.8375,-11.1562,-34.7438,,0.00262199999999968,1.6730381974121213,1.3374546328844077,non_fall
5.501487,0.1648,-1.6649,0.0024,-0.274,0.129,-0.0667,31.8375,-11.1562,-34.7438,,0.025755000000000194,1.6730381974121213,1.3831578508455071,non_fall
5.521301,0.1648,-1.6649,0.0024,-0.274,0.129,-0.0667,31.8375,-11.1562,-34.7438,,0.01981400000000022,1.6730381974121213,1.4097522649401866,non_fall
5.525322,0.1648,-1.6649,0.0024,-0.274,0.129,-0.0667,31.125,-10.875,-35.7938,,0.00402099999999983,1.6730381974121213,1.4153474559032713,non_fall
5.532682,0.1648,-1.6649,0.0024,-0.5911,0.3774,-0.139,31.125,-10.875,-35.7938,,0.007360000000000255,1.6730381974121213,1.4001403019483274,non_fall
5.537142,0.1648,-1.6649,0.0024,-0.5911,0.3774,-0.139,31.125,-10.875,-35.7938,,0.0044599999999999085,1.6730381974121213,1.3664908771559916,non_fall
5.539675,0.7222,-0.8526,-0.438,-0.5911,0.3774,-0.139,31.125,-10.875,-35.7938,,0.0025329999999996744,1.200143158127396,1.318756947459139,non_fall
5.566511,0.7222,-0.8526,-0.438,-0.5911,0.3774,-0.139,31.125,-10.875,-35.7938,,0.026836000000000304,1.200143158127396,1.2629018772708362,non_fall
5.579623,0.7222,-0.8526,-0.438,-0.5911,0.3774,-0.139,30.6188,-10.2188,-36.5438,,0.013111999999999568,1.200143158127396,1.2059192172935342,non_fall
5.583967,0.7222,-0.8526,-0.438,-0.5911,0.3774,-0.139,30.6188,-10.2188,-36.5438,,0.00434400000000057,1.200143158127396,1.1551362254269524,non_fall
5.589716,0.7222,-0.8526,-0.438,-0.9361,0.0318,-0.1123,30.6188,-10.2188,-36.5438,,0.005748999999999782,1.200143158127396,1.117466373125453,non_fall
5.594537,0.7222,-0.8526,-0.438,-0.9361,0.0318,-0.1123,30.6188,-10.2188,-36.5438,,0.004820999999999742,1.200143158127396,1.098681733974319,non_fall
5.597149,0.4651,-0.3869,0.0768,-0.9361,0.0318,-0.1123,30.6188,-10.2188,-36.5438,,0.0026120000000000587,0.609842487860595,1.102776471037764,non_fall
5.633477,0.4651,-0.3869,0.0768,-0.9361,0.0318,-0.1123,30.6188,-10.2188,-36.5438,,0.03632800000000014,0.609842487860595,1.131494356607911,non_fall
5.637638,0.4651,-0.3869,0.0768,-0.9361,0.0318,-0.1123,30.6188,-10.2188,-36.5438,,0.004160999999999859,0.609842487860595,1.184090585964018,non_fall
5.640241,0.4651,-0.3869,0.0768,-0.9361,0.0318,-0.1123,30.3938,-9.5063,-37.3875,,0.002602999999999689,0.609842487860595,1.257380857200187,non_fall
5.649104,0.6196,-0.3682,1.6628,-0.9361,0.0318,-0.1123,30.3938,-9.5063,-37.3875,,0.008863000000000731,1.8122856397378422,1.3460925977306137,non_fall
5.654944,0.6196,-0.3682,1.6628,-0.9361,0.0318,-0.1123,30.3938,-9.5063,-37.3875,,0.005840000000000067,1.8122856397378422,1.4434798203388486,non_fall
5.67105,0.6196,-0.3682,1.6628,-0.8028,0.0816,-0.129,30.3938,-9.5063,-37.3875,,0.01610599999999973,1.8122856397378422,1.5421119232848401,non_fall
5.701853,0.6196,-0.3682,1.6628,-0.8028,0.0816,-0.129,30.3938,-9.5063,-37.3875,,0.030802999999999692,1.8122856397378422,1.63471815958771,non_fall
5.706478,0.6196,-0.3682,1.6628,-0.8028,0.0816,-0.129,30.3938,-9.5063,-37.3875,,0.004624999999999879,1.8122856397378422,1.7149721824686073,non_fall
5.71383,1.5902,-0.0238,1.2305,-0.8028,0.0816,-0.129,30.3938,-9.5063,-37.3875,,0.007352000000000025,2.010828866413052,1.7781259761311163,non_fall
5.718806,1.5902,-0.0238,1.2305,-0.8028,0.0816,-0.129,30.3938,-9.5063,-37.3875,,0.0049760000000000915,2.010828866413052,1.821433282220421,non_fall
5.723062,1.5902,-0.0238,1.2305,-0.8028,0.0816,-0.129,30.225,-8.3625,-38.0813,,0.0042559999999998155,2.010828866413052,1.8443299480169195,non_fall
5.730303,1.5902,-0.0238,1.2305,-0.5789,0.4751,-0.3289,30.225,-8.3625,-38.0813,,0.007241000000000497,2.010828866413052,1.8483624126699398,non_fall
5.765446,1.5902,-0.0238,1.2305,-0.5789,0.4751,-0.3289,30.225,-8.3625,-38.0813,,0.0351429999999997,2.010828866413052,1.836878546050188,non_fall
5.768295,1.5902,-0.0238,1.2305,-0.5789,0.4751,-0.3289,30.225,-8.3625,-38.0813,,0.0028490000000003235,2.010828866413052,1.814518144505785,non_fall
5.769598,0.4302,-0.5035,1.2833,-0.5789,0.4751,-0.3289,30.225,-8.3625,-38.0813,,0.0013030000000000541,1.4441063603488493,1.7865628593942675,non_fall
5.772569,0.4302,-0.5035,1.2833,-0.5789,0.4751,-0.3289,30.225,-8.3625,-38.0813,,0.002970999999999613,1.4441063603488493,1.7582254117061713,non_fall
5.777689,0.4302,-0.5035,1.2833,-0.5789,0.4751,-0.3289,30.2438,-7.2375,-38.4563,,0.005119999999999791,1.4441063603488493,1.7339710932102326,non_fall
5.787988,0.4302,-0.5035,1.2833,-0.2311,1.0857,-0.4662,30.2438,-7.2375,-38.4563,,0.010299000000000724,1.4441063603488493,1.7169640487689715,non_fall
5.831778,0.4302,-0.5035,1.2833,-0.2311,1.0857,-0.4662,30.2438,-7.2375,-38.4563,,0.04378999999999955,1.4441063603488493,1.7087134311824776,non_fall
5.835588,0.4302,-0.5035,1.2833,-0.2311,1.0857,-0.4662,30.2438,-7.2375,-38.4563,,0.003810000000000535,1.4441063603488493,1.7089643261517533,non_fall
5.837781,0.4302,-0.5035,1.2833,-0.2311,1.0857,-0.4662,30.2438,-7.2375,-38.4563,,0.0021929999999992233,1.4441063603488493,1.7158429316642472,non_fall
5.839902,1.4572,-0.6617,-1.1545,-0.2311,1.0857,-0.4662,30.2438,-7.2375,-38.4563,,0.0021210000000007057,1.9733598202051243,1.7262300494380112,non_fall
5.843667,1.4572,-0.6617,-1.1545,-0.2311,1.0857,-0.4662,30.8625,-5.85,-38.3813,,0.0037649999999995742,1.9733598202051243,1.736304435874246,non_fall
5.872326,1.4572,-0.6617,-1.1545,-0.2311,1.0857,-0.4662,30.8625,-5.85,-38.3813,,0.028659000000000212,1.9733598202051243,1.7421726518955445,non_fall
5.876413,1.4572,-0.6617,-1.1545,-0.1187,1.0039,-0.5595,30.8625,-5.85,-38.3813,,0.004087000000000174,1.9733598202051243,1.740491459773008,non_fall
5.889353,1.4572,-0.6617,-1.1545,-0.1187,1.0039,-0.5595,30.8625,-5.85,-38.3813,,0.012939999999999507,1.9733598202051243,1.7289958830573002,non_fall
5.892496,1.4572,-0.6617,-1.1545,-0.1187,1.0039,-0.5595,30.8625,-5.85,-38.3813,,0.003143000000000562,1.9733598202051243,1.7068671167210836,non_fall
5.895101,0.2524,-0.5499,-1.4834,-0.1187,1.0039,-0.5595,30.8625,-5.85,-38.3813,,0.0026049999999999685,1.6020522244920732,1.6749024235648557,non_fall
5.917683,0.2524,-0.5499,-1.4834,-0.1187,1.0039,-0.5595,31.6875,-4.4625,-38.0063,,0.02258199999999988,1.6020522244920732,1.635478221756918,non_fall
5.922804,0.2524,-0.5499,-1.4834,-0.1187,1.0039,-0.5595,31.6875,-4.4625,-38.0063,,0.005120999999999931,1.6020522244920732,1.5923232706577932,non_fall
5.928324,0.2524,-0.5499,-1.4834,0.0761,0.9794,-0.5389,31.6875,-4.4625,-38.0063,,0.005519999999999747,1.6020522244920732,1.550136897502118,non_fall
5.949582,0.2524,-0.5499,-1.4834,0.0761,0.9794,-0.5389,31.6875,-4.4625,-38.0063,,0.021258000000000443,1.6020522244920732,1.5140960422987144,non_fall
5.95336,0.2524,-0.5499,-1.4834,0.0761,0.9794,-0.5389,31.6875,-4.4625,-38.0063,,0.003777999999999615,1.6020522244920732,1.4892979217227176,non_fall
5.955372,0.5301,0.0318,-1.1874,0.0761,0.9794,-0.5389,31.6875,-4.4625,-38.0063,,0.0020119999999996807,1.3007444060998303,1.4801877327121225,non_fall
5.979597,0.5301,0.0318,-1.1874,0.0761,0.9794,-0.5389,31.6875,-4.4625,-38.0063,,0.024225000000000385,1.3007444060998303,1.4900255101478153,non_fall
5.982974,0.5301,0.0318,-1.1874,0.0761,0.9794,-0.5389,32.9438,-2.9813,-37.05,,0.0033769999999995193,1.3007444060998303,1.5204505303970555,non_fall
5.991028,0.5301,0.0318,-1.1874,-0.045,1.091,-0.4239,32.9438,-2.9813,-37.05,,0.00805400000000045,1.3007444060998303,1.5712001218279263,non_fall
6.009446,0.5301,0.0318,-1.1874,-0.045,1.091,-0.4239,32.9438,-2.9813,-37.05,,0.0184179999999996,1.3007444060998303,1.6400284332790824,non_fall
6.012954,0.5301,0.0318,-1.1874,-0.045,1.091,-0.4239,32.9438,-2.9813,-37.05,,0.0035080000000000666,1.3007444060998303,1.722849505811223,non_fall
6.014985,0.8427,0.8994,-1.7479,-0.045,1.091,-0.4239,32.9438,-2.9813,-37.05,,0.00203100000000056,2.1387421677238234,1.8141001287112695,non_fall
6.033989,0.8427,0.8994,-1.7479,-0.045,1.091,-0.4239,32.9438,-2.9813,-37.05,,0.0190039999999998,2.1387421677238234,1.9072850265865913,non_fall
6.037077,0.8427,0.8994,-1.7479,-0.045,1.091,-0.4239,34.3313,-1.4625,-36.0,,0.0030879999999999797,2.1387421677238234,1.9956372684182266,non_fall
6.069966,0.8427,0.8994,-1.7479,-0.045,1.091,-0.4239,34.3313,-1.4625,-36.0,,0.032888999999999946,2.1387421677238234,2.0728106868617644,non_fall
6.073152,0.8427,0.8994,-1.7479,-0.045,1.091,-0.4239,34.3313,-1.4625,-36.0,,0.003186000000000355,2.1387421677238234,2.1335234492757924,non_fall
6.074743,0.8427,0.8994,-1.7479,-0.137,0.9079,-0.3211,34.3313,-1.4625,-36.0,,0.001590999999999454,2.1387421677238234,2.174086648730632,non_fall
6.07708,0.8559,1.3347,-1.9122,-0.137,0.9079,-0.3211,34.3313,-1.4625,-36.0,,0.0023369999999998115,2.484048658943701,2.192767887920627,non_fall
6.099521,0.8559,1.3347,-1.9122,-0.137,0.9079,-0.3211,34.3313,-1.4625,-36.0,,0.0224410000000006,2.484048658943701,2.1899514383394276,non_fall
6.119104,0.8559,1.3347,-1.9122,-0.137,0.9079,-0.3211,34.3313,-1.4625,-36.0,,0.019582999999999906,2.484048658943701,2.1680661029828543,non_fall
6.123129,0.8559,1.3347,-1.9122,-0.137,0.9079,-0.3211,35.7188,-0.2438,-34.575,,0.004024999999999501,2.484048658943701,2.131266148947175,non_fall
6.131163,0.8559,1.3347,-1.9122,0.0483,0.3161,0.3498,35.7188,-0.2438,-34.575,,0.008034000000000319,2.484048658943701,2.0848745662274157,non_fall
6.134903,0.8559,1.3347,-1.9122,0.0483,0.3161,0.3498,35.7188,-0.2438,-34.575,,0.0037400000000005207,2.484048658943701,2.0346315353364095,non_fall
6.136323,0.1243,1.1262,-0.2161,0.0483,0.3161,0.3498,35.7188,-0.2438,-34.575,,0.0014199999999995327,1.1534626738650888,1.985831079587615,non_fall
6.166913,0.1243,1.1262,-0.2161,0.0483,0.3161,0.3498,35.7188,-0.2438,-34.575,,0.030590000000000117,1.1534626738650888,1.942469094487482,non_fall
6.179346,0.1243,1.1262,-0.2161,0.0483,0.3161,0.3498,37.0875,0.5813,-33.0563,,0.012432999999999694,1.1534626738650888,1.9065529475826462,non_fall
6.184152,0.1243,1.1262,-0.2161,0.0483,0.3161,0.3498,37.0875,0.5813,-33.0563,,0.00480600000000031,1.1534626738650888,1.8777183702694944,non_fall
6.196268,0.1243,1.1262,-0.2161,0.1589,-0.3412,0.6913,37.0875,0.5813,-33.0563,,0.012115999999999794,1.1534626738650888,1.853254075368992,non_fall
6.200404,0.4552,1.6925,1.2726,0.1589,-0.3412,0.6913,37.0875,0.5813,-33.0563,,0.0041359999999999175,2.16593491361121,1.8285577978819032,non_fall
6.204092,0.4552,1.6925,1.2726,0.1589,-0.3412,0.6913,37.0875,0.5813,-33.0563,,0.0036880000000003577,2.16593491361121,1.7979607811602616,non_fall
6.215922,0.4552,1.6925,1.2726,0.1589,-0.3412,0.6913,37.0875,0.5813,-33.0563,,0.011829999999999785,2.16593491361121,1.7557839281874263,non_fall
6.234414,0.4552,1.6925,1.2726,0.1589,-0.3412,0.6913,37.0875,0.5813,-33.0563,,0.018492000000000175,2.16593491361121,1.6974464105501534,non_fall
6.23801,0.4552,1.6925,1.2726,0.1589,-0.3412,0.6913,38.2875,0.8813,-31.7625,,0.0035959999999999326,2.16593491361121,1.6204443864213085,non_fall
6.248786,0.4552,1.6925,1.2726,0.1589,-0.3412,0.6913,38.2875,0.8813,-31.7625,,0.010775999999999897,2.16593491361121,1.5250472883594992,non_fall
6.252951,0.0486,1.4171,0.3164,0.1589,-0.3412,0.6913,38.2875,0.8813,-31.7625,,0.004165000000000418,1.4528053310750206,1.4146087144539514,non_fall
6.269476,0.0486,1.4171,0.3164,0.3403,-0.2992,0.8322,38.2875,0.8813,-31.7625,,0.01652499999999968,1.4528053310750206,1.2954474842334496,non_fall
6.300373,0.0486,1.4171,0.3164,0.3403,-0.2992,0.8322,38.2875,0.8813,-31.7625,,0.030896999999999508,1.4528053310750206,1.176313278374542,non_fall
6.304807,0.0486,1.4171,0.3164,0.3403,-0.2992,0.8322,38.2875,0.8813,-31.7625,,0.004434000000000715,1.4528053310750206,1.0675019559253718,non_fall
6.312573,-0.1323,0.0278,0.4833,0.3403,-0.2992,0.8322,38.2875,0.8813,-31.7625,,0.007766000000000162,0.5018515916085153,0.9797242312409548,non_fall
6.317463,-0.1323,0.0278,0.4833,0.3403,-0.2992,0.8322,38.2875,0.8813,-31.7625,,0.004889999999999617,0.5018515916085153,0.9228603812791449,non_fall
6.319883,-0.1323,0.0278,0.4833,0.3403,-0.2992,0.8322,39.3188,0.75,-30.5625,,0.0024199999999998667,0.5018515916085153,0.9047533269334074,non_fall
6.329362,-0.1323,0.0278,0.4833,0.6634,0.1361,0.8692,39.3188,0.75,-30.5625,,0.009478999999999793,0.5018515916085153,0.9301952362259774,non_fall
6.364855,-0.1323,0.0278,0.4833,0.6634,0.1361,0.8692,39.3188,0.75,-30.5625,,0.03549300000000066,0.5018515916085153,1.000241981824724,non_fall
6.367982,-0.1323,0.0278,0.4833,0.6634,0.1361,0.8692,39.3188,0.75,-30.5625,,0.0031269999999992137,0.5018515916085153,1.1119486594014594,non_fall
6.369605,-0.1323,0.0278,0.4833,0.6634,0.1361,0.8692,39.3188,0.75,-30.5625,,0.0016230000000003741,0.5018515916085153,1.2585666670234146,non_fall
6.371026,-0.8912,-0.4716,-1.8566,0.6634,0.1361,0.8692,39.3188,0.75,-30.5625,,0.0014209999999996725,2.1127251501319333,1.4301837597956113,non_fall
6.376774,-0.8912,-0.4716,-1.8566,0.6634,0.1361,0.8692,39.8813,-0.0375,-29.4375,,0.0057480000000005305,2.1127251501319333,1.614726776874607,non_fall
6.389038,-0.8912,-0.4716,-1.8566,0.7109,0.4674,0.5834,39.8813,-0.0375,-29.4375,,0.012264000000000053,2.1127251501319333,1.7991941111353833,non_fall
6.430669,-0.8912,-0.4716,-1.8566,0.7109,0.4674,0.5834,39.8813,-0.0375,-29.4375,,0.04163099999999975,2.1127251501319333,1.9709599323063791,non_fall
6.434645,-0.8912,-0.4716,-1.8566,0.7109,0.4674,0.5834,39.8813,-0.0375,-29.4375,,0.0039759999999997575,2.1127251501319333,2.1190030268125413,non_fall
6.436778,-0.8912,-0.4716,-1.8566,0.7109,0.4674,0.5834,39.8813,-0.0375,-29.4375,,0.0021330000000006066,2.1127251501319333,2.2349470626920005,non_fall
6.438834,-1.0007,-1.7596,-1.8185,0.7109,0.4674,0.5834,39.8813,-0.0375,-29.4375,,0.0020559999999996137,2.721127505281588,2.313833835959662,non_fall
6.441969,-1.0007,-1.7596,-1.8185,0.7109,0.4674,0.5834,40.3125,-1.125,-28.35,,0.003135000000000332,2.721127505281588,2.3545740517419715,non_fall
6.472925,-1.0007,-1.7596,-1.8185,-0.2712,0.3515,-0.3743,40.3125,-1.125,-28.35,,0.03095599999999976,2.721127505281588,2.3600345969172256,non_fall
6.47757,-1.0007,-1.7596,-1.8185,-0.2712,0.3515,-0.3743,40.3125,-1.125,-28.35,,0.00464500000000001,2.721127505281588,2.336738473023608,non_fall
6.491282,-1.0007,-1.7596,-1.8185,-0.2712,0.3515,-0.3743,40.3125,-1.125,-28.35,,0.013711999999999946,2.721127505281588,2.2941821056517107,non_fall
6.494278,-1.0007,-1.7596,-1.8185,-0.2712,0.3515,-0.3743,40.3125,-1.125,-28.35,,0.0029960000000004428,2.721127505281588,2.2438147653762353,non_fall
6.496718,-0.9071,-0.3021,-1.2321,-0.2712,0.3515,-0.3743,40.3125,-1.125,-28.35,,0.0024399999999999977,1.5595400700206454,2.197771291418225,non_fall
6.517199,-0.9071,-0.3021,-1.2321,-0.2712,0.3515,-0.3743,40.3125,-1.125,-28.35,,0.020480999999999305,1.5595400700206454,2.1674953671250434,non_fall
6.520621,-0.9071,-0.3021,-1.2321,-0.2712,0.3515,-0.3743,40.6125,-2.2125,-27.675,,0.00342200000000048,1.5595400700206454,2.1624247340714424,non_fall
6.528958,-0.9071,-0.3021,-1.2321,-0.5875,0.4256,0.285,40.6125,-2.2125,-27.675,,0.008337000000000039,1.5595400700206454,2.188916295005381,non_fall
6.55006,-0.9071,-0.3021,-1.2321,-0.5875,0.4256,0.285,40.6125,-2.2125,-27.675,,0.021101999999999954,1.5595400700206454,2.249559443266942,non_fall
6.553891,-0.9071,-0.3021,-1.2321,-0.5875,0.4256,0.285,40.6125,-2.2125,-27.675,,0.003830999999999918,1.5595400700206454,2.342966527965223,non_fall
6.556229,-2.1027,-1.3824,1.7773,-0.5875,0.4256,0.285,40.6125,-2.2125,-27.675,,0.0023379999999999512,3.080774633107719,2.4640542971357906,non_fall
6.578077,-2.1027,-1.3824,1.7773,-0.5875,0.4256,0.285,40.5938,-3.4688,-27.225,,0.02184800000000031,3.080774633107719,2.6047528195260785,non_fall
6.582381,-2.1027,-1.3824,1.7773,-0.5875,0.4256,0.285,40.5938,-3.4688,-27.225,,0.004303999999999419,3.080774633107719,2.755014166825393,non_fall
6.589792,-2.1027,-1.3824,1.7773,-0.8988,0.4328,-0.0664,40.5938,-3.4688,-27.225,,0.0074110000000002785,3.080774633107719,2.903960184869279,non_fall
6.610404,-2.1027,-1.3824,1.7773,-0.8988,0.4328,-0.0664,40.5938,-3.4688,-27.225,,0.020611999999999853,3.080774633107719,3.0410144705449382,non_fall
6.61503,-2.1027,-1.3824,1.7773,-0.8988,0.4328,-0.0664,40.5938,-3.4688,-27.225,,0.004626000000000019,3.080774633107719,3.156895284550828,non_fall
6.616974,0.6661,-1.1773,3.7342,-0.8988,0.4328,-0.0664,40.5938,-3.4688,-27.225,,0.0019439999999999458,3.971646275790431,3.2443815930736917,non_fall
6.635092,0.6661,-1.1773,3.7342,-0.8988,0.4328,-0.0664,40.5938,-3.4688,-27.225,,0.0181180000000003,3.971646275790431,3.2987917820655905,non_fall
6.639066,0.6661,-1.1773,3.7342,-0.8988,0.4328,-0.0664,40.6875,-4.425,-27.0563,,0.003973999999999478,3.971646275790431,3.318138779117609,non_fall
6.673035,0.8159,-0.9055,2.4715,-0.8988,0.4328,-0.0664,40.6875,-4.425,-27.0563,,0.033968999999999916,2.755709583755153,3.3029599176789874,non_fall
6.676895,0.8159,-0.9055,2.4715,-1.464,1.2044,-0.298,40.6875,-4.425,-27.0563,,0.0038600000000004187,2.755709583755153,3.255870193191199,non_fall
6.679543,0.8159,-0.9055,2.4715,-1.464,1.2044,-0.298,40.6875,-4.425,-27.0563,,0.0026479999999997617,2.755709583755153,3.1809390948058556,non_fall
6.68124,0.8159,-0.9055,2.4715,-1.464,1.2044,-0.298,40.6875,-4.425,-27.0563,,0.0016970000000000596,2.755709583755153,3.083018624605239,non_fall
6.699668,0.8159,-0.9055,2.4715,-1.464,1.2044,-0.298,40.6875,-4.425,-27.0563,,0.01842800000000011,2.755709583755153,2.967140175988047,non_fall
6.717426,0.8159,-0.9055,2.4715,-1.464,1.2044,-0.298,40.8938,-4.9875,-26.5313,,0.01775799999999972,2.755709583755153,2.8380599312695916,non_fall
6.720674,0.8159,-0.9055,2.4715,-1.464,1.2044,-0.298,40.8938,-4.9875,-26.5313,,0.0032480000000001397,2.755709583755153,2.6999863998336733,non_fall
6.729632,0.8159,-0.9055,2.4715,-1.1137,0.5546,0.1161,40.8938,-4.9875,-26.5313,,0.0089579999999998,2.755709583755153,2.5564847291952963,non_fall
6.73281,-1.0124,-0.3298,1.9153,-1.1137,0.5546,0.1161,40.8938,-4.9875,-26.5313,,0.003178000000000125,2.1913684970812186,2.410526783015721,non_fall
6.734648,-1.0124,-0.3298,1.9153,-1.1137,0.5546,0.1161,40.8938,-4.9875,-26.5313,,0.0018380000000002283,2.1913684970812186,2.264644076996587,non_fall
6.7671,-1.0124,-0.3298,1.9153,-1.1137,0.5546,0.1161,40.8938,-4.9875,-26.5313,,0.03245200000000015,2.1913684970812186,2.1211380775136437,non_fall
6.778994,-1.0124,-0.3298,1.9153,-1.1137,0.5546,0.1161,41.4,-5.1188,-25.65,,0.01189399999999985,2.1913684970812186,1.9823019617299904,non_fall
6.784209,-1.0124,-0.3298,1.9153,-1.1137,0.5546,0.1161,41.4,-5.1188,-25.65,,0.005214999999999748,2.1913684970812186,1.85060612830263,non_fall
6.792552,-1.0124,-0.3298,1.9153,-1.3263,0.7752,-0.0745,41.4,-5.1188,-25.65,,0.00834299999999999,2.1913684970812186,1.7288005055300637,non_fall
6.796604,-1.0124,-0.3298,1.9153,-1.3263,0.7752,-0.0745,41.4,-5.1188,-25.65,,0.004052000000000611,2.1913684970812186,1.619897630527836,non_fall
6.800303,-0.2024,0.807,-0.4706,-1.3263,0.7752,-0.0745,41.4,-5.1188,-25.65,,0.003699000000000119,0.955865639093696,1.5270259792303567,non_fall
6.828234,-0.2024,0.807,-0.4706,-1.3263,0.7752,-0.0745,41.4,-5.1188,-25.65,,0.027930999999999706,0.955865639093696,1.4531798184238343,non_fall
6.832496,-0.2024,0.807,-0.4706,-1.3263,0.7752,-0.0745,41.4,-5.1188,-25.65,,0.004261999999999766,0.955865639093696,1.4009265570974625,non_fall
6.83785,-0.2024,0.807,-0.4706,-1.3263,0.7752,-0.0745,42.0,-4.7812,-24.6563,,0.005354000000000525,0.955865639093696,1.372146230693674,non_fall
6.850854,-1.5398,0.6292,0.3296,-1.3263,0.7752,-0.0745,42.0,-4.7812,-24.6563,,0.013003999999999571,1.6957337173035159,1.3678600437582864,non_fall
6.855107,-1.5398,0.6292,0.3296,-1.3263,0.7752,-0.0745,42.0,-4.7812,-24.6563,,0.004253000000000284,1.6957337173035159,1.38816468274304,non_fall
6.869543,-1.5398,0.6292,0.3296,-1.1919,0.0379,0.2846,42.0,-4.7812,-24.6563,,0.014435999999999893,1.6957337173035159,1.4322484138011833,non_fall
6.899693,-1.5398,0.6292,0.3296,-1.1919,0.0379,0.2846,42.0,-4.7812,-24.6563,,0.0301499999999999,1.6957337173035159,1.4984436201462057,non_fall
6.904095,-1.5398,0.6292,0.3296,-1.1919,0.0379,0.2846,42.0,-4.7812,-24.6563,,0.004401999999999795,1.6957337173035159,1.5842748945412748,non_fall
6.912551,-1.5398,0.6292,0.3296,-1.1919,0.0379,0.2846,42.0,-4.7812,-24.6563,,0.008455999999999797,1.6957337173035159,1.6864844880025267,non_fall
6.916149,-1.1807,1.1774,-0.0362,-1.1919,0.0379,0.2846,42.0,-4.7812,-24.6563,,0.003598000000000212,1.6678230391741207,1.8010445155699264,non_fall
6.919152,-1.1807,1.1774,-0.0362,-1.1919,0.0379,0.2846,42.6938,-4.1625,-23.7188,,0.003003000000000533,1.6678230391741207,1.9231876085660988,non_fall
6.931182,-1.1807,1.1774,-0.0362,-0.4311,0.0423,0.6333,42.6938,-4.1625,-23.7188,,0.012029999999999319,1.6678230391741207,2.0474993970677127,non_fall
6.965568,-1.1807,1.1774,-0.0362,-0.4311,0.0423,0.6333,42.6938,-4.1625,-23.7188,,0.03438600000000047,1.6678230391741207,2.168114546012897,non_fall
6.968589,-1.1807,1.1774,-0.0362,-0.4311,0.0423,0.6333,42.6938,-4.1625,-23.7188,,0.0030209999999994963,1.6678230391741207,2.279041368422428,non_fall
6.970142,-0.7308,2.8126,0.3502,-0.4311,0.0423,0.6333,42.6938,-4.1625,-23.7188,,0.0015530000000003596,2.9270168158041048,2.374608231920044,non_fall
6.972621,-0.7308,2.8126,0.3502,-0.4311,0.0423,0.6333,42.6938,-4.1625,-23.7188,,0.00247900000000012,2.9270168158041048,2.449982633619137,non_fall
6.977286,-0.7308,2.8126,0.3502,-0.4311,0.0423,0.6333,43.1063,-3.3938,-23.025,,0.004665000000000141,2.9270168158041048,2.50167430240978,non_fall
6.994667,-0.7308,2.8126,0.3502,0.296,-0.4583,0.882,43.1063,-3.3938,-23.025,,0.017380999999999425,2.9270168158041048,2.527915924809599,non_fall
7.03536,-0.7308,2.8126,0.3502,0.296,-0.4583,0.882,43.1063,-3.3938,-23.025,,0.04069300000000009,2.9270168158041048,2.528829771946651,non_fall
7.038656,-0.7308,2.8126,0.3502,0.296,-0.4583,0.882,43.1063,-3.3938,-23.025,,0.0032959999999997436,2.9270168158041048,2.5063292332216256,non_fall
7.040533,-0.7308,2.8126,0.3502,0.296,-0.4583,0.882,43.1063,-3.3938,-23.025,,0.0018770000000003506,2.9270168158041048,2.463756224370599,non_fall
7.042676,0.2488,0.8748,-1.3838,0.296,-0.4583,0.882,43.1063,-3.3938,-23.025,,0.002143000000000228,1.65592237740783,2.4053084315028785,non_fall
7.046058,0.2488,0.8748,-1.3838,0.296,-0.4583,0.882,43.2938,-3.3,-22.5188,,0.003382000000000218,1.65592237740783,2.33535854539883,non_fall
7.071287,0.2488,0.8748,-1.3838,0.296,-0.4583,0.882,43.2938,-3.3,-22.5188,,0.025228999999999502,1.65592237740783,2.257800512097077,non_fall
7.075509,0.2488,0.8748,-1.3838,0.2571,-0.1716,0.2975,43.2938,-3.3,-22.5188,,0.004222000000000392,1.65592237740783,2.175560041289217,non_fall
7.090227,0.2488,0.8748,-1.3838,0.2571,-0.1716,0.2975,43.2938,-3.3,-22.5188,,0.014717999999999343,1.65592237740783,2.0903712817901456,non_fall
7.093744,0.2488,0.8748,-1.3838,0.2571,-0.1716,0.2975,43.2938,-3.3,-22.5188,,0.0035170000000004364,1.65592237740783,2.002859120115737,non_fall
7.096285,1.5159,0.5687,-1.6697,0.2571,-0.1716,0.2975,43.2938,-3.3,-22.5188,,0.0025409999999999044,2.3257838657106555,1.9128962055298546,non_fall
7.119751,1.5159,0.5687,-1.6697,0.2571,-0.1716,0.2975,43.2938,-3.3,-22.5188,,0.023465999999999987,2.3257838657106555,1.8201413508102717,non_fall
7.124439,1.5159,0.5687,-1.6697,0.2571,-0.1716,0.2975,43.4813,-3.2625,-21.9938,,0.0046879999999998034,2.3257838657106555,1.7246230600699186,non_fall
7.132855,1.5159,0.5687,-1.6697,0.3612,-0.0908,0.5127,43.4813,-3.2625,-21.9938,,0.008416000000000423,2.3257838657106555,1.6272189953215173,non_fall
7.153402,1.5159,0.5687,-1.6697,0.3612,-0.0908,0.5127,43.4813,-3.2625,-21.9938,,0.02054699999999965,2.3257838657106555,1.5299042416427624,non_fall
7.157077,1.5159,0.5687,-1.6697,0.3612,-0.0908,0.5127,43.4813,-3.2625,-21.9938,,0.003675000000000317,2.3257838657106555,1.4356938913016732,non_fall
7.15915,0.2831,0.3528,-0.2245,0.3612,-0.0908,0.5127,43.4813,-3.2625,-21.9938,,0.0020730000000002136,0.5049888117572507,1.3482787042552689,non_fall
7.177154,0.2831,0.3528,-0.2245,0.3612,-0.0908,0.5127,43.3313,-3.8438,-21.4688,,0.018003999999999465,0.5049888117572507,1.2714334557271907,non_fall
7.18175,0.2831,0.3528,-0.2245,0.3612,-0.0908,0.5127,43.3313,-3.8438,-21.4688,,0.0045960000000002665,0.5049888117572507,1.2083453619261744,non_fall
7.191354,0.2831,0.3528,-0.2245,0.3525,0.2307,0.4901,43.3313,-3.8438,-21.4688,,0.009603999999999502,0.5049888117572507,1.161038374908301,non_fall
7.210689,0.2831,0.3528,-0.2245,0.3525,0.2307,0.4901,43.3313,-3.8438,-21.4688,,0.019335000000000768,0.5049888117572507,1.1300445305092544,non_fall
7.214747,0.2831,0.3528,-0.2245,0.3525,0.2307,0.4901,43.3313,-3.8438,-21.4688,,0.004057999999999673,0.5049888117572507,1.114407386053992,non_fall
7.217109,1.1379,0.7341,-0.9711,0.3525,0.2307,0.4901,43.3313,-3.8438,-21.4688,,0.002361999999999753,1.6663596340526254,1.1120193530377107,non_fall
7.234485,1.1379,0.7341,-0.9711,0.3525,0.2307,0.4901,43.3313,-3.8438,-21.4688,,0.017376000000000502,1.6663596340526254,1.1202148487866628,non_fall
7.239556,1.1379,0.7341,-0.9711,0.3525,0.2307,0.4901,43.05,-4.7438,-21.0375,,0.005071000000000048,1.6663596340526254,1.1364807386472737,non_fall
7.272217,1.1379,0.7341,-0.9711,0.3525,0.2307,0.4901,43.05,-4.7438,-21.0375,,0.03266100000000005,1.6663596340526254,1.159119860629059,non_fall
7.275398,1.1379,0.7341,-0.9711,0.3525,0.2307,0.4901,43.05,-4.7438,-21.0375,,0.0031809999999996563,1.6663596340526254,1.1877190193108602,non_fall
7.277075,1.1379,0.7341,-0.9711,-0.0486,0.0184,0.5487,43.05,-4.7438,-21.0375,,0.0016769999999999285,1.6663596340526254,1.2233202006698338,non_fall
7.278942,-1.0761,0.4788,-0.5054,-0.0486,0.0184,0.5487,43.05,-4.7438,-21.0375,,0.001866999999999841,1.2816668092761083,1.2682553090164075,non_fall
7.303222,-1.0761,0.4788,-0.5054,-0.0486,0.0184,0.5487,43.05,-4.7438,-21.0375,,0.02428000000000008,1.2816668092761083,1.3256665307115005,non_fall
7.318487,-1.0761,0.4788,-0.5054,-0.0486,0.0184,0.5487,42.525,-6.1313,-21.0188,,0.015265000000000306,1.2816668092761083,1.3987876389176435,non_fall
7.320762,-1.0761,0.4788,-0.5054,-0.0486,0.0184,0.5487,42.525,-6.1313,-21.0188,,0.002275000000000027,1.2816668092761083,1.490099154087503,non_fall
7.333257,-1.0761,0.4788,-0.5054,0.3454,-0.3081,0.8306,42.525,-6.1313,-21.0188,,0.012494999999999479,1.2816668092761083,1.6004882848859883,non_fall
7.335454,-0.7628,-0.6143,1.1497,0.3454,-0.3081,0.8306,42.525,-6.1313,-21.0188,,0.0021970000000006706,1.51031070313363,1.728544198556042,non_fall
7.336856,-0.7628,-0.6143,1.1497,0.3454,-0.3081,0.8306,42.525,-6.1313,-21.0188,,0.0014019999999996813,1.51031070313363,1.870104680940073,non_fall
7.366442,-0.7628,-0.6143,1.1497,0.3454,-0.3081,0.8306,42.525,-6.1313,-21.0188,,0.029586000000000112,1.51031070313363,2.0181456482258384,non_fall
7.379327,-0.7628,-0.6143,1.1497,0.3454,-0.3081,0.8306,41.85,-7.8375,-20.9625,,0.012884999999999813,1.51031070313363,2.16307265350207,non_fall
7.384104,-0.7628,-0.6143,1.1497,0.3454,-0.3081,0.8306,41.85,-7.8375,-20.9625,,0.004776999999999809,1.51031070313363,2.2934333588292035,non_fall
7.391448,-0.7628,-0.6143,1.1497,-0.0804,0.4439,0.1947,41.85,-7.8375,-20.9625,,0.007343999999999795,1.51031070313363,2.3970189351072158,non_fall
7.39565,3.2584,0.0273,-1.063,-0.0804,0.4439,0.1947,41.85,-7.8375,-20.9625,,0.004202000000000261,3.4275187599778354,2.4622577440176534,non_fall
7.39892,3.2584,0.0273,-1.063,-0.0804,0.4439,0.1947,41.85,-7.8375,-20.9625,,0.0032700000000005502,3.4275187599778354,2.479731492286931,non_fall
7.433904,3.2584,0.0273,-1.063,-0.0804,0.4439,0.1947,41.85,-7.8375,-20.9625,,0.03498399999999968,3.4275187599778354,2.44358265429537,non_fall
7.43769,3.2584,0.0273,-1.063,-0.0804,0.4439,0.1947,41.85,-7.8375,-20.9625,,0.003785999999999845,3.4275187599778354,2.352562410574925,non_fall
7.439992,3.2584,0.0273,-1.063,-0.0804,0.4439,0.1947,41.025,-9.525,-21.0375,,0.0023020000000002483,3.4275187599778354,2.2105087110381754,non_fall
7.453886,3.2584,0.0273,-1.063,-0.0804,0.4439,0.1947,41.025,-9.525,-21.0375,,0.013893999999999629,3.4275187599778354,2.026136595149838,non_fall
7.457494,0.2332,-0.4462,-0.0819,-0.0804,0.4439,0.1947,41.025,-9.525,-21.0375,,0.0036079999999998336,0.5100826305609709,1.812145580809954,non_fall
7.473478,0.2332,-0.4462,-0.0819,-0.0515,-0.0948,0.2839,41.025,-9.525,-21.0375,,0.015984000000000442,0.5100826305609709,1.5837787838867377,non_fall
7.499393,0.2332,-0.4462,-0.0819,-0.0515,-0.0948,0.2839,41.025,-9.525,-21.0375,,0.025915000000000354,0.5100826305609709,1.357075497246665,non_fall
7.50339,0.2332,-0.4462,-0.0819,-0.0515,-0.0948,0.2839,41.025,-9.525,-21.0375,,0.00399699999999914,0.5100826305609709,1.1471063601468028,non_fall
7.512769,0.3362,-0.4167,-0.2782,-0.0515,-0.0948,0.2839,41.025,-9.525,-21.0375,,0.009379000000000026,0.6033776346534565,0.9664510854482915,non_fall
7.517857,0.3362,-0.4167,-0.2782,-0.0515,-0.0948,0.2839,41.025,-9.525,-21.0375,,0.0050880000000006476,0.6033776346534565,0.8240954779111178,non_fall
7.520293,0.3362,-0.4167,-0.2782,-0.0515,-0.0948,0.2839,40.3875,-11.1562,-21.1313,,0.0024359999999994386,0.6033776346534565,0.7248288615543599,non_fall
7.530615,0.3362,-0.4167,-0.2782,-0.0578,-0.1346,0.2191,40.3875,-11.1562,-21.1313,,0.010322000000000386,0.6033776346534565,0.6691436843537137,non_fall
7.567867,0.3362,-0.4167,-0.2782,-0.0578,-0.1346,0.2191,40.3875,-11.1562,-21.1313,,0.03725199999999962,0.6033776346534565,0.6535835352299683,non_fall
7.571062,0.3362,-0.4167,-0.2782,-0.0578,-0.1346,0.2191,40.3875,-11.1562,-21.1313,,0.003195000000000725,0.6033776346534565,0.6714505070617082,non_fall
7.573189,0.2138,-0.8344,0.6913,-0.0578,-0.1346,0.2191,40.3875,-11.1562,-21.1313,,0.002126999999999768,1.1044589127713174,0.7137617262877747,non_fall
7.575591,0.2138,-0.8344,0.6913,-0.0578,-0.1346,0.2191,40.3875,-11.1562,-21.1313,,0.0024020000000000152,1.1044589127713174,0.7703336740459525,non_fall
7.584937,0.2138,-0.8344,0.6913,-0.0578,-0.1346,0.2191,39.8438,-12.3563,-21.0,,0.009345999999999854,1.1044589127713174,0.8308715970269921,non_fall
7.590843,0.2138,-0.8344,0.6913,0.1569,0.1134,0.1175,39.8438,-12.3563,-21.0,,0.005905999999999523,1.1044589127713174,0.8859528253768872,non_fall
7.63487,0.2138,-0.8344,0.6913,0.1569,0.1134,0.1175,39.8438,-12.3563,-21.0,,0.044027000000000704,1.1044589127713174,0.9278177122672937,non_fall
7.639003,0.2138,-0.8344,0.6913,0.1569,0.1134,0.1175,39.8438,-12.3563,-21.0,,0.004132999999999498,1.1044589127713174,0.950914869759468,non_fall
7.641609,0.2138,-0.8344,0.6913,0.1569,0.1134,0.1175,39.8438,-12.3563,-21.0,,0.0026060000000001082,1.1044589127713174,0.9521807705708408,non_fall
7.645151,-0.0254,-0.5278,0.5588,0.1569,0.1134,0.1175,39.8438,-12.3563,-21.0,,0.003542000000000378,0.7690744047229761,0.9310629325139982,non_fall
7.64853,-0.0254,-0.5278,0.5588,0.1569,0.1134,0.1175,39.4313,-13.575,-20.7188,,0.003378999999999799,0.7690744047229761,0.8893192951824784,non_fall
7.651772,-0.0254,-0.5278,0.5588,0.2231,0.0803,-0.0095,39.4313,-13.575,-20.7188,,0.003242000000000189,0.7690744047229761,0.8306425280095115,non_fall
7.690691,-0.0254,-0.5278,0.5588,0.2231,0.0803,-0.0095,39.4313,-13.575,-20.7188,,0.038918999999999926,0.7690744047229761,0.7601646626748225,non_fall
7.694566,-0.0254,-0.5278,0.5588,0.2231,0.0803,-0.0095,39.4313,-13.575,-20.7188,,0.003874999999999851,0.7690744047229761,0.6838948510934129,non_fall
7.696884,-0.0254,-0.5278,0.5588,0.2231,0.0803,-0.0095,39.4313,-13.575,-20.7188,,0.00231799999999982,0.7690744047229761,0.6081359602347532,non_fall
7.699071,0.0968,-0.2219,-0.0835,0.2231,0.0803,-0.0095,39.4313,-13.575,-20.7188,,0.002187000000000161,0.25609002323401825,0.5389205540901263,non_fall
7.719194,0.0968,-0.2219,-0.0835,0.2231,0.0803,-0.0095,39.2063,-14.4563,-20.5875,,0.02012299999999989,0.25609002323401825,0.4815065398486339,non_fall
7.723178,0.0968,-0.2219,-0.0835,0.2231,0.0803,-0.0095,39.2063,-14.4563,-20.5875,,0.0039839999999999876,0.25609002323401825,0.43997411562397704,non_fall
7.729059,0.0968,-0.2219,-0.0835,0.1542,-0.0334,0.0078,39.2063,-14.4563,-20.5875,,0.005881000000000469,0.25609002323401825,0.41696160100458246,non_fall
7.750683,0.0968,-0.2219,-0.0835,0.1542,-0.0334,0.0078,39.2063,-14.4563,-20.5875,,0.021624000000000088,0.25609002323401825,0.41356392384026874,non_fall
7.753646,0.0968,-0.2219,-0.0835,0.1542,-0.0334,0.0078,39.2063,-14.4563,-20.5875,,0.002962999999999383,0.25609002323401825,0.42939620220412866,non_fall
7.75512,-0.3535,-0.4483,-0.4871,0.1542,-0.0334,0.0078,39.2063,-14.4563,-20.5875,,0.0014739999999999753,0.7504675542620081,0.4628015741108254,non_fall
7.776316,-0.3535,-0.4483,-0.4871,0.1542,-0.0334,0.0078,38.8313,-15.2625,-20.5125,,0.02119599999999977,0.7504675542620081,0.5111618701769299,non_fall
7.779872,-0.3535,-0.4483,-0.4871,0.1542,-0.0334,0.0078,38.8313,-15.2625,-20.5125,,0.0035560000000005587,0.7504675542620081,0.571256308484234,non_fall
7.792926,-0.3535,-0.4483,-0.4871,-0.0215,-0.0508,-0.0081,38.8313,-15.2625,-20.5125,,0.013053999999999455,0.7504675542620081,0.6396119922518715,non_fall
7.820065,-0.3535,-0.4483,-0.4871,-0.0215,-0.0508,-0.0081,38.8313,-15.2625,-20.5125,,0.027139000000000024,0.7504675542620081,0.7128019419797978,non_fall
7.822281,-0.3535,-0.4483,-0.4871,-0.0215,-0.0508,-0.0081,38.8313,-15.2625,-20.5125,,0.002216000000000662,0.7504675542620081,0.7876663954551899,non_fall
7.823719,-0.0551,-0.2719,-0.816,-0.0215,-0.0508,-0.0081,38.8313,-15.2625,-20.5125,,0.0014379999999993842,0.8618709996281345,0.861452825974847,non_fall
