time,ax,ay,az,wx,wy,wz,Bx,By,Bz,Unnamed: 10,time_diff,acc_mag,acc_mag_filtered,label
0.104554,0.0,0.0,0.0,0.0,0.0,0.0,0.0,0.0,0.0,,0.0,0.0,0.0013341924996581932,non_fall
0.105431,0.0,0.0,0.0,0.0,0.0,0.0,0.0,0.0,0.0,,0.0008770000000000028,0.0,-0.0033689780452612816,non_fall
0.105966,0.0,0.0,0.0,0.0,0.0,0.0,0.0,0.0,0.0,,0.0005350000000000077,0.0,-0.007885884137593453,non_fall
0.106404,0.0,0.0,0.0,0.0,0.0,0.0,0.0,0.0,0.0,,0.00043799999999999395,0.0,-0.011852868932131166,non_fall
0.157649,0.0,0.0,0.0,0.0,0.0,0.0,0.0,0.0,0.0,,0.05124500000000001,0.0,-0.014881926264298287,non_fall
0.158552,0.0,0.0,0.0,0.0,0.0,0.0,0.0,0.0,0.0,,0.0009029999999999871,0.0,-0.016561948666813882,non_fall
0.159194,0.0,0.0,0.0,0.0,0.0,0.0,0.0,0.0,0.0,,0.0006420000000000037,0.0,-0.016469639880921764,non_fall
0.166372,0.0,0.0,0.0,0.0,0.0,0.0,-18.4313,28.575,27.1125,,0.00717799999999999,0.0,-0.014191222990618537,non_fall
0.194561,0.0,0.0,0.0,0.0,0.0,0.0,-18.4313,28.575,27.1125,,0.02818900000000002,0.0,-0.009354277283840327,non_fall
0.195668,0.0,0.0,0.0,0.0,0.0,0.0,-18.4313,28.575,27.1125,,0.0011069999999999969,0.0,-0.0016670708228876292,non_fall
0.196583,0.0,0.0,0.0,0.0,0.0,0.0,-18.4313,28.575,27.1125,,0.0009149999999999991,0.0,0.00903914472055489,non_fall
0.224763,0.0,0.0,0.0,0.0,0.0,0.0,-18.4313,28.575,27.1125,,0.028179999999999983,0.0,0.02277096045954046,non_fall
0.226976,0.0,0.0,0.0,0.0,0.0,0.0,-18.6562,28.8375,26.8875,,0.0022130000000000205,0.0,0.03934371190609579,non_fall
0.255146,0.0,0.0,0.0,0.0,0.0,0.0,-18.6562,28.8375,26.8875,,0.028169999999999973,0.0,0.05836923811976466,non_fall
0.257733,0.0,0.0,0.0,0.0,0.0,0.0,-18.6562,28.8375,26.8875,,0.002587000000000006,0.0,0.07926568667311334,non_fall
0.25973,0.1075,0.1013,-0.0867,0.0,0.0,0.0,-18.6562,28.8375,26.8875,,0.0019970000000000265,0.17127413698512686,0.10129124773124507,non_fall
0.277873,0.1075,0.1013,-0.0867,-0.009,-0.4271,-0.005,-18.6562,28.8375,26.8875,,0.018142999999999965,0.17127413698512686,0.1235989554264661,non_fall
0.286272,0.1075,0.1013,-0.0867,-0.009,-0.4271,-0.005,-18.6562,28.8375,26.8875,,0.008399000000000045,0.17127413698512686,0.14530498640222445,non_fall
0.289795,0.1075,0.1013,-0.0867,-0.009,-0.4271,-0.005,-18.1688,28.6688,26.9625,,0.0035229999999999984,0.17127413698512686,0.16556047516079583,non_fall
0.315497,0.1075,0.1013,-0.0867,-0.009,-0.4271,-0.005,-18.1688,28.6688,26.9625,,0.025702000000000003,0.17127413698512686,0.18361786176847683,non_fall
0.317787,0.1075,0.1013,-0.0867,-0.009,-0.4271,-0.005,-18.1688,28.6688,26.9625,,0.0022899999999999587,0.17127413698512686,0.1988859119377972,non_fall
0.319727,-0.241,0.0471,-0.0102,-0.009,-0.4271,-0.005,-18.1688,28.6688,26.9625,,0.0019399999999999973,0.24577113337412104,0.21097042709847758,non_fall
0.336463,-0.241,0.0471,-0.0102,-0.0599,-0.4043,0.0728,-18.1688,28.6688,26.9625,,0.01673600000000003,0.24577113337412104,0.21969896503988665,non_fall
0.357639,-0.241,0.0471,-0.0102,-0.0599,-0.4043,0.0728,-18.1688,28.6688,26.9625,,0.021175999999999973,0.24577113337412104,0.22512804319779373,non_fall
0.361088,-0.241,0.0471,-0.0102,-0.0599,-0.4043,0.0728,-18.1688,28.6688,26.9625,,0.0034490000000000354,0.24577113337412104,0.22753163596361428,non_fall
0.36927,-0.241,0.0471,-0.0102,-0.0599,-0.4043,0.0728,-17.7563,28.6688,27.3,,0.008181999999999967,0.24577113337412104,0.22737124045846696,non_fall
0.375742,-0.241,0.0471,-0.0102,-0.0599,-0.4043,0.0728,-17.7563,28.6688,27.3,,0.006472000000000033,0.24577113337412104,0.22525024709464053,non_fall
0.378579,0.1131,-0.0041,0.1189,-0.0599,-0.4043,0.0728,-17.7563,28.6688,27.3,,0.0028369999999999784,0.1641512412380729,0.22185809717558486,non_fall
0.393544,0.1131,-0.0041,0.1189,-0.0176,-0.5819,0.0416,-17.7563,28.6688,27.3,,0.014965000000000006,0.1641512412380729,0.21791204758508417,non_fall
0.427068,0.1131,-0.0041,0.1189,-0.0176,-0.5819,0.0416,-17.7563,28.6688,27.3,,0.033524,0.1641512412380729,0.2141054964985882,non_fall
0.429323,0.1131,-0.0041,0.1189,-0.0176,-0.5819,0.0416,-17.7563,28.6688,27.3,,0.002255000000000007,0.1641512412380729,0.2110707781444263,non_fall
0.430845,0.1131,-0.0041,0.1189,-0.0176,-0.5819,0.0416,-17.2875,28.6125,27.675,,0.0015219999999999678,0.1641512412380729,0.20936068065570496,non_fall
0.435484,0.0545,0.019,0.2798,-0.0176,-0.5819,0.0416,-17.2875,28.6125,27.675,,0.004639000000000004,0.28569089940003334,0.20944741139398018,non_fall
0.437947,0.0545,0.019,0.2798,-0.0176,-0.5819,0.0416,-17.2875,28.6125,27.675,,0.002462999999999993,0.28569089940003334,0.2117319455959255,non_fall
0.47821,0.0545,0.019,0.2798,0.0191,-0.514,0.0954,-17.2875,28.6125,27.675,,0.04026300000000005,0.28569089940003334,0.2165526633589082,non_fall
0.481403,0.0545,0.019,0.2798,0.0191,-0.514,0.0954,-17.2875,28.6125,27.675,,0.0031930000000000014,0.28569089940003334,0.22418180434416016,non_fall
0.487793,0.0545,0.019,0.2798,0.0191,-0.514,0.0954,-17.2875,28.6125,27.675,,0.006389999999999951,0.28569089940003334,0.23480224557073265,non_fall
0.490311,0.0545,0.019,0.2798,0.0191,-0.514,0.0954,-16.9688,28.6875,27.9563,,0.0025180000000000202,0.28569089940003334,0.24846426874450941,non_fall
0.496863,0.0631,0.0429,0.1439,0.0191,-0.514,0.0954,-16.9688,28.6875,27.9563,,0.006552000000000002,0.16287796044892017,0.2650301718913922,non_fall
0.499438,0.0631,0.0429,0.1439,0.0191,-0.514,0.0954,-16.9688,28.6875,27.9563,,0.002574999999999994,0.16287796044892017,0.2841217269605256,non_fall
0.53665,0.0631,0.0429,0.1439,0.0191,-0.514,0.0954,-16.9688,28.6875,27.9563,,0.03721199999999997,0.16287796044892017,0.3050894943152316,non_fall
0.539167,0.0631,0.0429,0.1439,-0.0193,-0.2476,0.108,-16.9688,28.6875,27.9563,,0.0025169999999999915,0.16287796044892017,0.32702164889443164,non_fall
0.557408,0.3953,-0.2141,0.0121,-0.0193,-0.2476,0.108,-16.9688,28.6875,27.9563,,0.018241000000000063,0.4497191456898405,0.34880215256545866,non_fall
0.561907,0.3953,-0.2141,0.0121,-0.0193,-0.2476,0.108,-16.9688,28.6875,27.9563,,0.004499000000000031,0.4497191456898405,0.3692154562770464,non_fall
0.564273,0.3953,-0.2141,0.0121,-0.0193,-0.2476,0.108,-16.9688,28.6875,27.9563,,0.0023659999999999792,0.4497191456898405,0.38708198069968447,non_fall
0.565913,0.3953,-0.2141,0.0121,-0.0193,-0.2476,0.108,-16.4625,28.725,28.2,,0.0016399999999999748,0.4497191456898405,0.4014007465824647,non_fall
0.594023,0.3953,-0.2141,0.0121,-0.0193,-0.2476,0.108,-16.4625,28.725,28.2,,0.02810999999999997,0.4497191456898405,0.4114752690549417,non_fall
0.596413,0.3953,-0.2141,0.0121,0.0184,-0.1522,0.1037,-16.4625,28.725,28.2,,0.0023900000000000032,0.4497191456898405,0.4170043491085682,non_fall
0.617617,0.3953,-0.2141,0.0121,0.0184,-0.1522,0.1037,-16.4625,28.725,28.2,,0.021204,0.4497191456898405,0.4181268364736473,non_fall
0.620406,0.3953,-0.2141,0.0121,0.0184,-0.1522,0.1037,-16.4625,28.725,28.2,,0.0027890000000000414,0.4497191456898405,0.4154162555339155,non_fall
0.623803,0.3897,-0.0627,0.0767,0.0184,-0.1522,0.1037,-16.4625,28.725,28.2,,0.0033969999999999834,0.40209485199390455,0.4098268264490787,non_fall
0.627141,0.3897,-0.0627,0.0767,0.0184,-0.1522,0.1037,-16.0688,28.7813,28.5,,0.003337999999999952,0.40209485199390455,0.40259710337031057,non_fall
0.677985,0.3897,-0.0627,0.0767,0.0184,-0.1522,0.1037,-16.0688,28.7813,28.5,,0.050844,0.40209485199390455,0.3951212263124958,non_fall
0.681721,0.3897,-0.0627,0.0767,0.0184,-0.1522,0.1037,-16.0688,28.7813,28.5,,0.0037360000000000726,0.40209485199390455,0.388800411524616,non_fall
0.684126,0.3897,-0.0627,0.0767,0.0184,-0.1522,0.1037,-16.0688,28.7813,28.5,,0.0024049999999999905,0.40209485199390455,0.38488878734740833,non_fall
0.685845,0.3897,-0.0627,0.0767,0.036,-0.2676,0.2229,-16.0688,28.7813,28.5,,0.001719000000000026,0.40209485199390455,0.3843485629937814,non_fall
0.688535,0.0929,0.1542,-0.1472,0.036,-0.2676,0.2229,-16.0688,28.7813,28.5,,0.00268999999999997,0.23254223272343458,0.3877304327299061,non_fall
0.690837,0.0929,0.1542,-0.1472,0.036,-0.2676,0.2229,-15.45,28.6875,28.875,,0.0023020000000000262,0.23254223272343458,0.3950958114604478,non_fall
0.737531,0.0929,0.1542,-0.1472,-0.0313,-0.3312,0.1333,-15.45,28.6875,28.875,,0.04669400000000001,0.23254223272343458,0.40599609969229244,non_fall
0.740932,0.4178,0.2403,-0.168,-0.0313,-0.3312,0.1333,-15.45,28.6875,28.875,,0.0034009999999999874,0.510416428027155,0.4195179951672656,non_fall
0.744936,0.4178,0.2403,-0.168,-0.0313,-0.3312,0.1333,-15.45,28.6875,28.875,,0.0040040000000000076,0.510416428027155,0.43439222358319585,non_fall
0.748022,0.4178,0.2403,-0.168,-0.0313,-0.3312,0.1333,-15.45,28.6875,28.875,,0.003085999999999922,0.510416428027155,0.44914960440338964,non_fall
0.750715,0.4178,0.2403,-0.168,-0.0313,-0.3312,0.1333,-15.45,28.6875,28.875,,0.0026930000000000565,0.510416428027155,0.46229919254720414,non_fall
0.760022,0.4178,0.2403,-0.168,-0.0313,-0.3312,0.1333,-15.45,28.6875,28.875,,0.009306999999999954,0.510416428027155,0.47250181942777925,non_fall
0.76733,0.4178,0.2403,-0.168,-0.0313,-0.3312,0.1333,-14.5875,28.6875,29.3063,,0.007307999999999981,0.510416428027155,0.4787171396635933,non_fall
0.794546,0.4178,0.2403,-0.168,-0.0313,-0.3312,0.1333,-14.5875,28.6875,29.3063,,0.027216000000000018,0.510416428027155,0.48030934026322386,non_fall
0.796203,0.4178,0.2403,-0.168,-0.0313,-0.3312,0.1333,-14.5875,28.6875,29.3063,,0.0016570000000000196,0.510416428027155,0.47710329678683516,non_fall
0.797342,0.4178,0.2403,-0.168,-0.0264,-0.2157,0.1293,-14.5875,28.6875,29.3063,,0.0011390000000000011,0.510416428027155,0.469388510067984,non_fall
0.798831,0.4326,0.0992,0.0171,-0.0264,-0.2157,0.1293,-14.5875,28.6875,29.3063,,0.0014889999999999626,0.4441574157885918,0.4578729274595165,non_fall
0.827235,0.4326,0.0992,0.0171,-0.0264,-0.2157,0.1293,-14.5875,28.6875,29.3063,,0.028404000000000096,0.4441574157885918,0.44359305921704106,non_fall
0.829799,0.4326,0.0992,0.0171,-0.0264,-0.2157,0.1293,-13.8563,28.8188,29.7,,0.0025639999999998997,0.4441574157885918,0.42779053399631806,non_fall
0.855829,0.4326,0.0992,0.0171,-0.0264,-0.2157,0.1293,-13.8563,28.8188,29.7,,0.026029999999999998,0.4441574157885918,0.41176798012273846,non_fall
0.858015,0.4326,0.0992,0.0171,-0.0264,-0.2157,0.1293,-13.8563,28.8188,29.7,,0.0021860000000000213,0.4441574157885918,0.39673885283279614,non_fall
0.859623,0.0521,0.2246,-0.0695,-0.0264,-0.2157,0.1293,-13.8563,28.8188,29.7,,0.0016080000000000538,0.24081075557374923,0.3836872692296682,non_fall
0.877131,0.0521,0.2246,-0.0695,-0.0499,-0.3599,0.1978,-13.8563,28.8188,29.7,,0.017507999999999968,0.24081075557374923,0.3732554809648649,non_fall
0.885855,0.0521,0.2246,-0.0695,-0.0499,-0.3599,0.1978,-13.8563,28.8188,29.7,,0.008723999999999954,0.24081075557374923,0.36567692686502956,non_fall
0.887384,0.0521,0.2246,-0.0695,-0.0499,-0.3599,0.1978,-12.975,28.875,29.9438,,0.0015290000000000026,0.24081075557374923,0.3607690458569684,non_fall
0.915566,0.0953,0.1148,0.4029,-0.0499,-0.3599,0.1978,-12.975,28.875,29.9438,,0.02818200000000004,0.4296388483366,0.35799062947351107,non_fall
0.918413,0.0953,0.1148,0.4029,-0.0499,-0.3599,0.1978,-12.975,28.875,29.9438,,0.002847000000000044,0.4296388483366,0.3565553203453862,non_fall
0.919878,0.0953,0.1148,0.4029,-0.0499,-0.3599,0.1978,-12.975,28.875,29.9438,,0.0014649999999999386,0.4296388483366,0.35558050783905315,non_fall
0.935421,0.0953,0.1148,0.4029,0.0488,-0.5248,0.2345,-12.975,28.875,29.9438,,0.015542999999999974,0.4296388483366,0.3542438805803161,non_fall
0.957812,0.0953,0.1148,0.4029,0.0488,-0.5248,0.2345,-12.975,28.875,29.9438,,0.02239100000000005,0.4296388483366,0.3519201272539348,non_fall
0.960111,0.0953,0.1148,0.4029,0.0488,-0.5248,0.2345,-12.975,28.875,29.9438,,0.002299000000000051,0.4296388483366,0.3482762988520227,non_fall
0.965801,0.0953,0.1148,0.4029,0.0488,-0.5248,0.2345,-12.1313,28.9125,30.2063,,0.005689999999999973,0.4296388483366,0.34331334435813887,non_fall
0.975042,0.2111,0.1562,0.0961,0.0488,-0.5248,0.2345,-12.1313,28.9125,30.2063,,0.009240999999999944,0.27963701471729385,0.3373512931267175,non_fall
0.977853,0.2111,0.1562,0.0961,0.0488,-0.5248,0.2345,-12.1313,28.9125,30.2063,,0.002811000000000008,0.27963701471729385,0.330965344566843,non_fall
0.994351,0.2111,0.1562,0.0961,0.0622,-0.4697,0.2963,-12.1313,28.9125,30.2063,,0.016498000000000013,0.27963701471729385,0.3248882174685008,non_fall
1.025054,0.2111,0.1562,0.0961,0.0622,-0.4697,0.2963,-12.1313,28.9125,30.2063,,0.030702999999999925,0.27963701471729385,0.31989846226266283,non_fall
1.027473,0.2111,0.1562,0.0961,0.0622,-0.4697,0.2963,-12.1313,28.9125,30.2063,,0.002419000000000171,0.27963701471729385,0.31671405997695845,non_fall
1.029119,0.2111,0.1562,0.0961,0.0622,-0.4697,0.2963,-11.0438,29.0813,30.4875,,0.0016459999999998143,0.27963701471729385,0.31590664796237955,non_fall
1.035066,0.2111,0.1562,0.0961,0.0622,-0.4697,0.2963,-11.0438,29.0813,30.4875,,0.005947000000000147,0.27963701471729385,0.3178462577018929,non_fall
1.037123,0.2677,0.1291,0.1465,0.0622,-0.4697,0.2963,-11.0438,29.0813,30.4875,,0.0020569999999999755,0.33134928700692867,0.3226809710279996,non_fall
1.077543,0.2677,0.1291,0.1465,0.0622,-0.4697,0.2963,-11.0438,29.0813,30.4875,,0.0404199999999999,0.33134928700692867,0.33035090894761077,non_fall
1.079707,0.2677,0.1291,0.1465,0.1978,-0.5832,0.3964,-11.0438,29.0813,30.4875,,0.0021640000000000548,0.33134928700692867,0.34063178598638977,non_fall
1.086865,0.2677,0.1291,0.1465,0.1978,-0.5832,0.3964,-11.0438,29.0813,30.4875,,0.007157999999999998,0.33134928700692867,0.3532003069537375,non_fall
1.088858,0.2677,0.1291,0.1465,0.1978,-0.5832,0.3964,-9.975,29.2313,30.7125,,0.0019930000000001336,0.33134928700692867,0.367711969567064,non_fall
1.094865,0.2635,0.2017,0.3351,0.1978,-0.5832,0.3964,-9.975,29.2313,30.7125,,0.0060069999999998736,0.4716006255296954,0.38388070639310934,non_fall
1.09762,0.2635,0.2017,0.3351,0.1978,-0.5832,0.3964,-9.975,29.2313,30.7125,,0.002755000000000063,0.4716006255296954,0.4015486765986373,non_fall
1.136715,0.2635,0.2017,0.3351,0.1978,-0.5832,0.3964,-9.975,29.2313,30.7125,,0.03909499999999988,0.4716006255296954,0.42073402005275934,non_fall
1.139111,0.2635,0.2017,0.3351,0.1475,-0.6794,0.4439,-9.975,29.2313,30.7125,,0.0023960000000000647,0.4716006255296954,0.4416460986556123,lateral_fall
1.156661,0.2635,0.2017,0.3351,0.1475,-0.6794,0.4439,-9.975,29.2313,30.7125,,0.017549999999999955,0.4716006255296954,0.4646624287059433,lateral_fall
1.159053,0.2635,0.2017,0.3351,0.1475,-0.6794,0.4439,-9.975,29.2313,30.7125,,0.0023920000000001718,0.4716006255296954,0.49026791325205854,lateral_fall
1.160788,0.4635,0.3069,-0.0794,0.1475,-0.6794,0.4439,-9.975,29.2313,30.7125,,0.00173499999999982,0.5615373718640639,0.5189628974594999,lateral_fall
1.167097,0.4635,0.3069,-0.0794,0.1475,-0.6794,0.4439,-8.6813,29.4,30.9188,,0.00630900000000012,0.5615373718640639,0.5511506136829308,lateral_fall
1.196018,0.4635,0.3069,-0.0794,0.1475,-0.6794,0.4439,-8.6813,29.4,30.9188,,0.028920999999999975,0.5615373718640639,0.5870168878692504,lateral_fall
1.198019,0.4635,0.3069,-0.0794,0.2195,-0.6796,0.4852,-8.6813,29.4,30.9188,,0.0020009999999999195,0.5615373718640639,0.626416434516191,lateral_fall
1.21679,0.5339,0.4335,0.1217,0.2195,-0.6796,0.4852,-8.6813,29.4,30.9188,,0.018771000000000093,0.6984141679548032,0.668781001070558,lateral_fall
1.22038,0.5339,0.4335,0.1217,0.2195,-0.6796,0.4852,-8.6813,29.4,30.9188,,0.003589999999999982,0.6984141679548032,0.7130644424897108,lateral_fall
1.221285,0.5339,0.4335,0.1217,0.2195,-0.6796,0.4852,-8.6813,29.4,30.9188,,0.0009049999999999336,0.6984141679548032,0.757738180593106,lateral_fall
1.226937,0.5339,0.4335,0.1217,0.2195,-0.6796,0.4852,-7.0875,29.9063,31.0313,,0.00565199999999999,0.6984141679548032,0.800848071454802,lateral_fall
1.271929,0.5339,0.4335,0.1217,0.2195,-0.6796,0.4852,-7.0875,29.9063,31.0313,,0.04499200000000014,0.6984141679548032,0.8401408023941158,lateral_fall
1.274664,0.5339,0.4335,0.1217,0.2195,-0.6796,0.4852,-7.0875,29.9063,31.0313,,0.002734999999999932,0.6984141679548032,0.8732633326501978,lateral_fall
1.280499,0.5339,0.4335,0.1217,0.0844,-0.4289,0.4109,-7.0875,29.9063,31.0313,,0.005835000000000035,0.6984141679548032,0.8980305901816855,lateral_fall
1.283317,1.062,0.0767,-0.2211,0.0844,-0.4289,0.4109,-7.0875,29.9063,31.0313,,0.002817999999999987,1.0874797009599766,0.9127436660405328,lateral_fall
1.285736,1.062,0.0767,-0.2211,0.0844,-0.4289,0.4109,-7.0875,29.9063,31.0313,,0.002418999999999949,1.0874797009599766,0.9165245411566899,lateral_fall
1.287482,1.062,0.0767,-0.2211,0.0844,-0.4289,0.4109,-5.4188,30.1688,31.125,,0.0017460000000000253,1.0874797009599766,0.9096187020439177,lateral_fall
1.338144,1.062,0.0767,-0.2211,0.0844,-0.4289,0.4109,-5.4188,30.1688,31.125,,0.050661999999999985,1.0874797009599766,0.8936105525098744,lateral_fall
1.341526,1.062,0.0767,-0.2211,0.0844,-0.4289,0.4109,-5.4188,30.1688,31.125,,0.003381999999999996,1.0874797009599766,0.8715023644475975,lateral_fall
1.344648,1.062,0.0767,-0.2211,0.0844,-0.4289,0.4109,-5.4188,30.1688,31.125,,0.003122000000000069,1.0874797009599766,0.8476241123398821,lateral_fall
1.347504,1.062,0.0767,-0.2211,0.4904,-0.3934,0.596,-5.4188,30.1688,31.125,,0.0028559999999999697,1.0874797009599766,0.8273644967242747,lateral_fall
1.351117,0.6489,-0.0876,0.0745,0.4904,-0.3934,0.596,-5.4188,30.1688,31.125,,0.0036129999999998663,0.6590107889860377,0.8167395489765946,lateral_fall
1.359632,0.6489,-0.0876,0.0745,0.4904,-0.3934,0.596,-5.4188,30.1688,31.125,,0.00851500000000005,0.6590107889860377,0.8218420953787383,lateral_fall
1.365745,0.6489,-0.0876,0.0745,0.4904,-0.3934,0.596,-3.5625,30.4875,31.0313,,0.006113000000000035,0.6590107889860377,0.8482384942048204,lateral_fall
1.397076,0.6489,-0.0876,0.0745,0.4904,-0.3934,0.596,-3.5625,30.4875,31.0313,,0.031331,0.6590107889860377,0.900391658668309,lateral_fall
1.39917,0.6489,-0.0876,0.0745,0.4904,-0.3934,0.596,-3.5625,30.4875,31.0313,,0.0020940000000000403,0.6590107889860377,0.9811870387413641,lateral_fall
1.400799,0.6489,-0.0876,0.0745,1.0828,-0.2854,1.0882,-3.5625,30.4875,31.0313,,0.0016289999999998805,0.6590107889860377,1.091622048690551,lateral_fall
1.402885,1.4726,0.1251,-0.6366,1.0828,-0.2854,1.0882,-3.5625,30.4875,31.0313,,0.0020860000000000323,1.609180017897314,1.2306934278844435,lateral_fall
1.427947,1.4726,0.1251,-0.6366,1.0828,-0.2854,1.0882,-3.5625,30.4875,31.0313,,0.02506200000000014,1.609180017897314,1.3954858903264984,lateral_fall
1.43085,1.4726,0.1251,-0.6366,1.0828,-0.2854,1.0882,-1.7438,31.1625,30.675,,0.002902999999999878,1.609180017897314,1.5814370107845879,lateral_fall
1.456499,1.4726,0.1251,-0.6366,1.0828,-0.2854,1.0882,-1.7438,31.1625,30.675,,0.025649000000000033,1.609180017897314,1.7827379634708977,lateral_fall
1.459104,1.4726,0.1251,-0.6366,1.0828,-0.2854,1.0882,-1.7438,31.1625,30.675,,0.0026049999999999685,1.609180017897314,1.9928308184907504,lateral_fall
1.461253,1.612,0.4925,-1.9947,1.0828,-0.2854,1.0882,-1.7438,31.1625,30.675,,0.0021489999999999565,2.611499251387984,2.2049710199518433,lateral_fall
1.476915,1.612,0.4925,-1.9947,1.0649,-0.162,0.8777,-1.7438,31.1625,30.675,,0.015662000000000065,2.611499251387984,2.412825597151589,lateral_fall
1.486996,1.612,0.4925,-1.9947,1.0649,-0.162,0.8777,-1.7438,31.1625,30.675,,0.010081000000000007,2.611499251387984,2.6110721943857604,lateral_fall
1.489653,1.612,0.4925,-1.9947,1.0649,-0.162,0.8777,0.2625,32.025,29.9063,,0.0026569999999999094,2.611499251387984,2.7959611171358962,lateral_fall
1.516107,1.612,0.4925,-1.9947,1.0649,-0.162,0.8777,0.2625,32.025,29.9063,,0.0264540000000002,2.611499251387984,2.965808747515999,lateral_fall
1.51927,1.612,0.4925,-1.9947,1.0649,-0.162,0.8777,0.2625,32.025,29.9063,,0.003162999999999805,2.611499251387984,3.121399032026935,lateral_fall
1.521069,2.2378,2.026,-2.4214,1.0649,-0.162,0.8777,0.2625,32.025,29.9063,,0.001799000000000106,3.8698323994715844,3.2662674445765045,lateral_fall
1.536276,2.2378,2.026,-2.4214,1.8337,0.326,1.1996,0.2625,32.025,29.9063,,0.01520699999999997,3.8698323994715844,3.406824548448151,lateral_fall
1.557799,2.2378,2.026,-2.4214,1.8337,0.326,1.1996,0.2625,32.025,29.9063,,0.02152299999999996,3.8698323994715844,3.552255122245164,lateral_fall
1.559858,2.2378,2.026,-2.4214,1.8337,0.326,1.1996,0.2625,32.025,29.9063,,0.002059000000000033,3.8698323994715844,3.7141230850258613,lateral_fall
1.566275,2.2378,2.026,-2.4214,1.8337,0.326,1.1996,2.4,33.0,28.6688,,0.006417000000000117,3.8698323994715844,3.9056323545941845,lateral_fall
1.575724,3.2014,3.1657,-2.4434,1.8337,0.326,1.1996,2.4,33.0,28.6688,,0.009448999999999819,5.122579624564171,4.140531023725246,lateral_fall
1.579634,3.2014,3.1657,-2.4434,1.8337,0.326,1.1996,2.4,33.0,28.6688,,0.00391000000000008,5.122579624564171,4.431686156193122,lateral_fall
1.596723,3.2014,3.1657,-2.4434,2.6662,0.6422,0.9816,2.4,33.0,28.6688,,0.01708899999999991,5.122579624564171,4.789396644762173,lateral_fall
1.624815,3.2014,3.1657,-2.4434,2.6662,0.6422,0.9816,2.4,33.0,28.6688,,0.028092000000000006,5.122579624564171,5.219561578439955,lateral_fall
1.626888,3.2014,3.1657,-2.4434,2.6662,0.6422,0.9816,2.4,33.0,28.6688,,0.0020729999999999915,5.122579624564171,5.72188425125453,lateral_fall
1.628305,3.2014,3.1657,-2.4434,2.6662,0.6422,0.9816,4.35,34.275,26.7563,,0.0014170000000000016,5.122579624564171,6.2883510760008665,lateral_fall
1.635774,1.2253,3.5936,-5.8329,2.6662,0.6422,0.9816,4.35,34.275,26.7563,,0.00746900000000017,6.959744496746989,6.902254724652957,lateral_fall
1.638368,1.2253,3.5936,-5.8329,2.6662,0.6422,0.9816,4.35,34.275,26.7563,,0.002593999999999985,6.959744496746989,7.538016651747544,lateral_fall
1.677799,1.2253,3.5936,-5.8329,2.6662,0.6422,0.9816,4.35,34.275,26.7563,,0.039430999999999994,6.959744496746989,8.162011699360377,lateral_fall
1.680561,1.2253,3.5936,-5.8329,1.948,1.0603,1.2063,4.35,34.275,26.7563,,0.002761999999999931,6.959744496746989,8.734525378333212,lateral_fall
1.682684,1.2253,3.5936,-5.8329,1.948,1.0603,1.2063,4.35,34.275,26.7563,,0.002123000000000097,6.959744496746989,9.212890848010286,lateral_fall
1.686507,1.2253,3.5936,-5.8329,1.948,1.0603,1.2063,6.225,35.55,24.3563,,0.00382299999999991,6.959744496746989,9.555742331945801,lateral_fall
1.696358,1.7443,6.1521,-8.9828,1.948,1.0603,1.2063,6.225,35.55,24.3563,,0.009851000000000054,11.026405250125718,9.7281624310571,lateral_fall
1.700056,1.7443,6.1521,-8.9828,1.948,1.0603,1.2063,6.225,35.55,24.3563,,0.003697999999999979,11.026405250125718,9.707295411722601,lateral_fall
1.736512,1.7443,6.1521,-8.9828,1.948,1.0603,1.2063,6.225,35.55,24.3563,,0.036456000000000044,11.026405250125718,9.48779489860772,lateral_fall
1.738742,1.7443,6.1521,-8.9828,1.6885,0.4069,2.2967,6.225,35.55,24.3563,,0.0022299999999999542,11.026405250125718,9.08634778169286,lateral_fall
1.758353,1.7443,6.1521,-8.9828,1.6885,0.4069,2.2967,6.225,35.55,24.3563,,0.019611000000000045,11.026405250125718,8.544517167669737,lateral_fall
1.761446,1.7443,6.1521,-8.9828,1.6885,0.4069,2.2967,6.225,35.55,24.3563,,0.0030930000000000124,11.026405250125718,7.929269718026117,lateral_fall
1.764198,-6.2898,3.4001,-5.131,1.6885,0.4069,2.2967,6.225,35.55,24.3563,,0.0027519999999998657,8.800535497911477,7.330760003986552,lateral_fall
1.767727,-6.2898,3.4001,-5.131,1.6885,0.4069,2.2967,8.2125,36.525,21.75,,0.0035290000000001154,8.800535497911477,6.857207247860716,lateral_fall
1.786989,-6.2898,3.4001,-5.131,1.6885,0.4069,2.2967,8.2125,36.525,21.75,,0.01926199999999989,8.800535497911477,6.626995537394421,lateral_fall
1.795268,-6.2898,3.4001,-5.131,3.4338,-2.5633,1.2668,8.2125,36.525,21.75,,0.008279000000000147,8.800535497911477,6.758429645701911,lateral_fall
1.81737,-6.2898,3.4001,-5.131,3.4338,-2.5633,1.2668,8.2125,36.525,21.75,,0.022101999999999844,8.800535497911477,7.357864297125917,lateral_fall
1.819457,-6.2898,3.4001,-5.131,3.4338,-2.5633,1.2668,8.2125,36.525,21.75,,0.002087000000000172,8.800535497911477,8.507193423231884,lateral_fall
1.820684,-7.3843,1.1436,-2.8105,3.4338,-2.5633,1.2668,8.2125,36.525,21.75,,0.001226999999999867,7.983396376229856,10.251937333331727,lateral_fall
1.828485,-7.3843,1.1436,-2.8105,3.4338,-2.5633,1.2668,10.1625,37.5563,17.9625,,0.007800999999999947,7.983396376229856,12.591373476701527,lateral_fall
1.879189,-7.3843,1.1436,-2.8105,3.4338,-2.5633,1.2668,10.1625,37.5563,17.9625,,0.05070400000000008,7.983396376229856,15.472261224929643,lateral_fall
1.881621,-7.3843,1.1436,-2.8105,3.4338,-2.5633,1.2668,10.1625,37.5563,17.9625,,0.0024319999999999897,7.983396376229856,18.7876337797005,lateral_fall
1.883662,-7.3843,1.1436,-2.8105,3.4338,-2.5633,1.2668,10.1625,37.5563,17.9625,,0.0020409999999999595,7.983396376229856,22.381791810495876,lateral_fall
1.885577,-7.3843,1.1436,-2.8105,4.5718,-0.5056,0.9597,10.1625,37.5563,17.9625,,0.001915000000000111,7.983396376229856,26.061967381679782,lateral_fall
1.887611,-29.7367,-12.1401,33.2541,4.5718,-0.5056,0.9597,10.1625,37.5563,17.9625,,0.0020339999999998692,46.232980887132946,29.616099751374637,lateral_fall
1.891139,-29.7367,-12.1401,33.2541,4.5718,-0.5056,0.9597,12.2438,38.2875,12.825,,0.0035279999999999756,46.232980887132946,32.83487260877281,lateral_fall
1.935884,-29.7367,-12.1401,33.2541,4.5718,-0.5056,0.9597,12.2438,38.2875,12.825,,0.044745000000000035,46.232980887132946,35.53497295604813,lateral_fall
1.937062,-29.7367,-12.1401,33.2541,4.5718,-0.5056,0.9597,12.2438,38.2875,12.825,,0.0011780000000001234,46.232980887132946,37.579992489792176,lateral_fall
1.937661,-29.7367,-12.1401,33.2541,4.5718,-0.5056,0.9597,12.2438,38.2875,12.825,,0.0005990000000000162,46.232980887132946,38.89579732512646,lateral_fall
1.938233,-29.7367,-12.1401,33.2541,4.6206,1.4762,-0.5161,12.2438,38.2875,12.825,,0.0005720000000000169,46.232980887132946,39.47830446134962,lateral_fall
1.93896,-3.254,-26.4878,27.7278,4.6206,1.4762,-0.5161,12.2438,38.2875,12.825,,0.0007269999999999222,38.4840610861172,39.39292645339981,lateral_fall
1.956453,-3.254,-26.4878,27.7278,4.6206,1.4762,-0.5161,12.2438,38.2875,12.825,,0.01749299999999998,38.4840610861172,38.76613317819396,lateral_fall
1.964825,-3.254,-26.4878,27.7278,4.6206,1.4762,-0.5161,14.5125,37.6875,6.5063,,0.008372000000000046,38.4840610861172,37.77049992178276,lateral_fall
1.995725,-3.254,-26.4878,27.7278,4.6206,1.4762,-0.5161,14.5125,37.6875,6.5063,,0.030899999999999928,38.4840610861172,36.60522037151682,lateral_fall
1.996706,13.0582,-16.7204,-17.2719,4.6206,1.4762,-0.5161,14.5125,37.6875,6.5063,,0.0009810000000001207,27.35702639195276,35.474380348856464,lateral_fall
1.997917,13.0582,-16.7204,-17.2719,4.5838,-2.5301,2.6159,14.5125,37.6875,6.5063,,0.001210999999999851,27.35702639195276,34.56539519752929,lateral_fall
1.99921,13.0582,-16.7204,-17.2719,4.5838,-2.5301,2.6159,14.5125,37.6875,6.5063,,0.0012929999999999886,27.35702639195276,34.02995334880393,lateral_fall
2.026058,13.0582,-16.7204,-17.2719,4.5838,-2.5301,2.6159,14.5125,37.6875,6.5063,,0.026847999999999983,27.35702639195276,33.96952132188294,lateral_fall
2.027062,13.0582,-16.7204,-17.2719,4.5838,-2.5301,2.6159,16.7812,35.4188,-0.3188,,0.0010040000000000049,27.35702639195276,34.42689608667053,lateral_fall
2.048381,13.0582,-16.7204,-17.2719,4.5838,-2.5301,2.6159,16.7812,35.4188,-0.3188,,0.021319000000000088,27.35702639195276,35.38449925385287,lateral_fall
2.056305,-4.7212,-33.753,28.7563,4.5838,-2.5301,2.6159,16.7812,35.4188,-0.3188,,0.007924000000000042,44.592370739062524,36.769221390053026,lateral_fall
2.057525,-4.7212,-33.753,28.7563,4.5838,-2.5301,2.6159,16.7812,35.4188,-0.3188,,0.0012199999999999989,44.592370739062524,38.46276638785025,lateral_fall
2.077672,-4.7212,-33.753,28.7563,9.6905,-2.5876,2.1496,16.7812,35.4188,-0.3188,,0.020147000000000137,44.592370739062524,40.31577352840202,lateral_fall
2.084281,-4.7212,-33.753,28.7563,9.6905,-2.5876,2.1496,16.7812,35.4188,-0.3188,,0.006608999999999643,44.592370739062524,42.1637056001579,lateral_fall
2.084919,-4.7212,-33.753,28.7563,9.6905,-2.5876,2.1496,17.8875,29.6438,-7.9688,,0.0006380000000003605,44.592370739062524,43.842659502849216,lateral_fall
2.119414,-4.7212,-33.753,28.7563,9.6905,-2.5876,2.1496,17.8875,29.6438,-7.9688,,0.03449499999999972,44.592370739062524,45.20371890025517,lateral_fall
2.120266,-4.7212,-33.753,28.7563,9.6905,-2.5876,2.1496,17.8875,29.6438,-7.9688,,0.0008520000000000749,44.592370739062524,46.12495697759841,lateral_fall
2.12099,2.6656,-3.2326,-48.9789,9.6905,-2.5876,2.1496,17.8875,29.6438,-7.9688,,0.0007239999999999469,49.157784442853,46.52053528530638,lateral_fall
2.135679,2.6656,-3.2326,-48.9789,-1.3813,-3.929,-0.6719,17.8875,29.6438,-7.9688,,0.014689000000000174,49.157784442853,46.346506547424454,lateral_fall
2.159631,2.6656,-3.2326,-48.9789,-1.3813,-3.929,-0.6719,17.8875,29.6438,-7.9688,,0.023951999999999973,49.157784442853,45.60299244000499,lateral_fall
2.163673,2.6656,-3.2326,-48.9789,-1.3813,-3.929,-0.6719,17.8875,29.6438,-7.9688,,0.004042000000000101,49.157784442853,44.33249188614532,lateral_fall
2.167,2.6656,-3.2326,-48.9789,-1.3813,-3.929,-0.6719,17.7563,23.8125,-15.1875,,0.003326999999999636,49.157784442853,42.61427902523977,lateral_fall
2.175402,2.6656,-3.2326,-48.9789,-1.3813,-3.929,-0.6719,17.7563,23.8125,-15.1875,,0.008402000000000243,49.157784442853,40.55520954875857,lateral_fall
2.176378,0.5861,-15.86,20.6285,-1.3813,-3.929,-0.6719,17.7563,23.8125,-15.1875,,0.0009760000000000879,26.027257355703078,38.277761427374806,lateral_fall
2.195511,0.5861,-15.86,20.6285,-2.2404,-0.878,-2.8423,17.7563,23.8125,-15.1875,,0.019133000000000067,26.027257355703078,35.90672504980506,lateral_fall
2.229318,0.5861,-15.86,20.6285,-2.2404,-0.878,-2.8423,17.7563,23.8125,-15.1875,,0.03380699999999992,26.027257355703078,33.5564276677121,lateral_fall
2.230093,0.5861,-15.86,20.6285,-2.2404,-0.878,-2.8423,17.7563,23.8125,-15.1875,,0.0007749999999999702,26.027257355703078,31.32043248305299,lateral_fall
2.230689,0.5861,-15.86,20.6285,-2.2404,-0.878,-2.8423,17.4563,18.5438,-22.05,,0.0005959999999998189,26.027257355703078,29.265154298878777,lateral_fall
2.235821,0.5861,-15.86,20.6285,-2.2404,-0.878,-2.8423,17.4563,18.5438,-22.05,,0.0051320000000001365,26.027257355703078,27.427963205114136,lateral_fall
2.236561,-4.5447,-6.6732,-27.4634,-2.2404,-0.878,-2.8423,17.4563,18.5438,-22.05,,0.0007399999999999629,28.625587083761268,25.81944267937159,lateral_fall
2.279446,-4.5447,-6.6732,-27.4634,-2.2404,-0.878,-2.8423,17.4563,18.5438,-22.05,,0.04288500000000006,28.625587083761268,24.428766555483175,lateral_fall
2.280816,-4.5447,-6.6732,-27.4634,-0.3453,3.753,-0.4228,17.4563,18.5438,-22.05,,0.0013700000000000934,28.625587083761268,23.230751225704505,lateral_fall
2.287483,-4.5447,-6.6732,-27.4634,-0.3453,3.753,-0.4228,17.4563,18.5438,-22.05,,0.0066669999999997565,28.625587083761268,22.1930493980191,lateral_fall
2.289904,-4.5447,-6.6732,-27.4634,-0.3453,3.753,-0.4228,17.775,13.875,-28.2938,,0.0024210000000000065,28.625587083761268,21.282170984402978,lateral_fall
2.299752,-15.3537,4.1465,4.4671,-0.3453,3.753,-0.4228,17.775,13.875,-28.2938,,0.009847999999999857,16.51921754654257,20.467493026911196,lateral_fall
2.302977,-15.3537,4.1465,4.4671,-0.3453,3.753,-0.4228,17.775,13.875,-28.2938,,0.0032250000000000334,16.51921754654257,19.72304761318995,lateral_fall
2.33689,-15.3537,4.1465,4.4671,-0.3453,3.753,-0.4228,17.775,13.875,-28.2938,,0.03391300000000008,16.51921754654257,19.027480754562514,lateral_fall
2.338319,-15.3537,4.1465,4.4671,-1.0842,-0.4408,2.2984,17.775,13.875,-28.2938,,0.0014289999999999026,16.51921754654257,18.362953645946256,lateral_fall
2.358298,-12.1064,4.9834,-8.8184,-1.0842,-0.4408,2.2984,17.775,13.875,-28.2938,,0.01997900000000019,15.784909726697839,17.713807561820197,lateral_fall
2.362137,-12.1064,4.9834,-8.8184,-1.0842,-0.4408,2.2984,17.775,13.875,-28.2938,,0.003839000000000148,15.784909726697839,17.06561029261072,lateral_fall
2.364319,-12.1064,4.9834,-8.8184,-1.0842,-0.4408,2.2984,17.775,13.875,-28.2938,,0.0021819999999999062,15.784909726697839,16.40490689667426,lateral_fall
2.366078,-12.1064,4.9834,-8.8184,-1.0842,-0.4408,2.2984,17.9062,9.3188,-33.3,,0.001758999999999844,15.784909726697839,15.719721228655002,lateral_fall
2.389706,-12.1064,4.9834,-8.8184,-1.0842,-0.4408,2.2984,17.9062,9.3188,-33.3,,0.023627999999999982,15.784909726697839,15.000633623291693,lateral_fall
2.39788,-12.1064,4.9834,-8.8184,-2.5063,0.6798,0.4087,17.9062,9.3188,-33.3,,0.008173999999999904,15.784909726697839,14.242105595150226,lateral_fall
2.417843,-12.1064,4.9834,-8.8184,-2.5063,0.6798,0.4087,17.9062,9.3188,-33.3,,0.019963000000000175,15.784909726697839,13.443646571363821,lateral_fall
2.419921,-12.1064,4.9834,-8.8184,-2.5063,0.6798,0.4087,17.9062,9.3188,-33.3,,0.0020780000000000243,15.784909726697839,12.610431032830197,lateral_fall
2.421476,2.1337,3.0672,-10.5409,-2.5063,0.6798,0.4087,17.9062,9.3188,-33.3,,0.0015550000000001951,11.183513058963182,11.75308127670729,lateral_fall
2.431501,2.1337,3.0672,-10.5409,-2.5063,0.6798,0.4087,17.85,5.6625,-36.6375,,0.010024999999999729,11.183513058963182,10.88651958640105,lateral_fall
2.485236,2.1337,3.0672,-10.5409,-3.68,1.2041,1.8687,17.85,5.6625,-36.6375,,0.05373500000000009,11.183513058963182,10.028020722568405,lateral_fall
2.488729,-1.6581,-0.2766,-5.7084,-3.68,1.2041,1.8687,17.85,5.6625,-36.6375,,0.0034930000000001904,5.950767490836792,9.194795666671101,lateral_fall
2.491275,-1.6581,-0.2766,-5.7084,-3.68,1.2041,1.8687,17.85,5.6625,-36.6375,,0.002545999999999715,5.950767490836792,8.401560672369616,lateral_fall
2.493235,-1.6581,-0.2766,-5.7084,-3.68,1.2041,1.8687,17.85,5.6625,-36.6375,,0.0019599999999999618,5.950767490836792,7.658571955458728,lateral_fall
2.495176,-1.6581,-0.2766,-5.7084,-3.68,1.2041,1.8687,17.85,5.6625,-36.6375,,0.0019409999999999705,5.950767490836792,6.9705255401908275,lateral_fall
2.496956,-1.6581,-0.2766,-5.7084,-3.68,1.2041,1.8687,17.625,3.975,-38.0625,,0.0017800000000001148,5.950767490836792,6.3365405729202795,lateral_fall
2.53752,-1.6581,-0.2766,-5.7084,-3.68,1.2041,1.8687,17.625,3.975,-38.0625,,0.040564000000000267,5.950767490836792,5.7512128028990235,lateral_fall
2.538873,-1.6581,-0.2766,-5.7084,-3.68,1.2041,1.8687,17.625,3.975,-38.0625,,0.0013529999999999376,5.950767490836792,5.206515376386327,lateral_fall
2.539828,-1.6581,-0.2766,-5.7084,-3.68,1.2041,1.8687,17.625,3.975,-38.0625,,0.0009549999999998171,5.950767490836792,4.694184312919391,lateral_fall
2.540714,-1.6581,-0.2766,-5.7084,-2.1761,-2.2165,0.0841,17.625,3.975,-38.0625,,0.0008859999999999424,5.950767490836792,4.208168422812496,lateral_fall
2.542104,2.26,0.8694,2.6388,-2.1761,-2.2165,0.0841,17.625,3.975,-38.0625,,0.0013900000000002244,3.5814413020458673,3.746743327499317,lateral_fall
2.565955,2.26,0.8694,2.6388,-2.1761,-2.2165,0.0841,17.625,3.975,-38.0625,,0.023851000000000067,3.5814413020458673,3.313972677312708,lateral_fall
2.567605,2.26,0.8694,2.6388,-2.1761,-2.2165,0.0841,16.7063,4.4813,-38.7563,,0.0016499999999997073,3.5814413020458673,2.920317444576076,lateral_fall
2.600015,2.26,0.8694,2.6388,-2.1761,-2.2165,0.0841,16.7063,4.4813,-38.7563,,0.03241000000000005,3.5814413020458673,2.582307821869426,lateral_fall
2.601512,2.26,0.8694,2.6388,-2.7994,-0.2398,2.19,16.7063,4.4813,-38.7563,,0.0014970000000000816,3.5814413020458673,2.3212805597628856,lateral_fall
2.602896,2.26,0.8694,2.6388,-2.7994,-0.2398,2.19,16.7063,4.4813,-38.7563,,0.0013839999999998298,3.5814413020458673,2.16126014312105,lateral_fall
2.604191,0.2222,1.0702,0.1323,-2.7994,-0.2398,2.19,16.7063,4.4813,-38.7563,,0.0012950000000002682,1.101001439599422,2.1261522241809345,lateral_fall
2.623585,0.2222,1.0702,0.1323,-2.7994,-0.2398,2.19,16.7063,4.4813,-38.7563,,0.01939399999999969,1.101001439599422,2.236529798301334,lateral_fall
2.626445,0.2222,1.0702,0.1323,-2.7994,-0.2398,2.19,16.6688,8.7,-37.8188,,0.0028600000000000847,1.101001439599422,2.506399025589703,lateral_fall
2.655508,0.2222,1.0702,0.1323,-2.7994,-0.2398,2.19,16.6688,8.7,-37.8188,,0.029063000000000283,1.101001439599422,2.9403841538615985,lateral_fall
2.655976,0.2222,1.0702,0.1323,-2.7994,-0.2398,2.19,16.6688,8.7,-37.8188,,0.0004679999999996909,1.101001439599422,3.53173550003563,lateral_fall
2.656344,2.2948,2.549,4.867,-2.7994,-0.2398,2.19,16.6688,8.7,-37.8188,,0.00036799999999992394,5.954090781975028,4.261442962451306,lateral_fall
2.676886,2.2948,2.549,4.867,-2.6311,-3.196,0.0692,16.6688,8.7,-37.8188,,0.020542000000000282,5.954090781975028,5.0985637680868905,lateral_fall
2.686551,2.2948,2.549,4.867,-2.6311,-3.196,0.0692,16.6688,8.7,-37.8188,,0.009665000000000035,5.954090781975028,6.001702896498339,lateral_fall
2.689149,2.2948,2.549,4.867,-2.6311,-3.196,0.0692,17.1,13.2563,-36.15,,0.002597999999999878,5.954090781975028,6.921478081624095,lateral_fall
2.716207,2.2948,2.549,4.867,-2.6311,-3.196,0.0692,17.1,13.2563,-36.15,,0.027057999999999804,5.954090781975028,7.803778175195563,lateral_fall
2.718167,2.2948,2.549,4.867,-2.6311,-3.196,0.0692,17.1,13.2563,-36.15,,0.001960000000000406,5.954090781975028,8.593635753688044,lateral_fall
2.720167,8.3874,0.4274,8.216,-2.6311,-3.196,0.0692,17.1,13.2563,-36.15,,0.0019999999999997797,11.748778894846902,9.23950687574728,lateral_fall
2.737336,8.3874,0.4274,8.216,-1.3188,2.1276,1.379,17.1,13.2563,-36.15,,0.01716899999999999,11.748778894846902,9.697651904716993,lateral_fall
2.757707,8.3874,0.4274,8.216,-1.3188,2.1276,1.379,17.1,13.2563,-36.15,,0.020370999999999917,11.748778894846902,9.93618890570776,lateral_fall
2.760221,8.3874,0.4274,8.216,-1.3188,2.1276,1.379,17.1,13.2563,-36.15,,0.0025140000000001272,11.748778894846902,9.9383388480776,lateral_fall
2.766871,8.3874,0.4274,8.216,-1.3188,2.1276,1.379,18.1688,17.325,-34.0312,,0.006650000000000045,11.748778894846902,9.704459923915957,lateral_fall
2.788192,6.397,-1.8456,2.6405,-1.3188,2.1276,1.379,18.1688,17.325,-34.0312,,0.021320999999999923,7.162408017559458,9.252655646844195,lateral_fall
2.790491,6.397,-1.8456,2.6405,-1.3188,2.1276,1.379,18.1688,17.325,-34.0312,,0.002298999999999829,7.162408017559458,8.617964361804917,lateral_fall
2.801853,6.397,-1.8456,2.6405,-1.0566,0.5295,0.74,18.1688,17.325,-34.0312,,0.011362000000000094,7.162408017559458,7.8503177975328775,lateral_fall
2.824845,6.397,-1.8456,2.6405,-1.0566,0.5295,0.74,18.1688,17.325,-34.0312,,0.0229919999999999,7.162408017559458,7.011534682477158,lateral_fall
2.827522,6.397,-1.8456,2.6405,-1.0566,0.5295,0.74,18.1688,17.325,-34.0312,,0.0026770000000002625,7.162408017559458,6.171582652445021,lateral_fall
2.829868,6.397,-1.8456,2.6405,-1.0566,0.5295,0.74,18.5438,21.1313,-31.7438,,0.002345999999999737,7.162408017559458,5.404253413128079,lateral_fall
2.836693,6.397,-1.8456,2.6405,-1.0566,0.5295,0.74,18.5438,21.1313,-31.7438,,0.006825000000000081,7.162408017559458,4.782335178292881,lateral_fall
2.838109,1.2832,1.9713,2.9089,-1.0566,0.5295,0.74,18.5438,21.1313,-31.7438,,0.001416000000000306,3.740898974845485,4.372387029394723,lateral_fall
2.877999,1.2832,1.9713,2.9089,-1.5002,2.7761,1.4691,18.5438,21.1313,-31.7438,,0.03988999999999976,3.740898974845485,4.229325939853962,lateral_fall
2.879707,1.2832,1.9713,2.9089,-1.5002,2.7761,1.4691,18.5438,21.1313,-31.7438,,0.0017079999999998208,3.740898974845485,4.391186133557824,lateral_fall
2.885834,1.2832,1.9713,2.9089,-1.5002,2.7761,1.4691,19.425,24.8063,-28.4813,,0.006127000000000216,3.740898974845485,4.8745339775077845,lateral_fall
2.887337,1.2832,1.9713,2.9089,-1.5002,2.7761,1.4691,19.425,24.8063,-28.4813,,0.001503000000000032,3.740898974845485,5.6710682416975695,lateral_fall
2.89578,2.6585,2.3214,-5.7816,-1.5002,2.7761,1.4691,19.425,24.8063,-28.4813,,0.008442999999999756,6.773730048503557,6.7458984784563505,lateral_fall
2.897874,2.6585,2.3214,-5.7816,-1.5002,2.7761,1.4691,19.425,24.8063,-28.4813,,0.0020940000000000403,6.773730048503557,8.037896505269032,lateral_fall
2.936039,2.6585,2.3214,-5.7816,-1.5002,2.7761,1.4691,19.425,24.8063,-28.4813,,0.038165000000000227,6.773730048503557,9.462385030388969,lateral_fall
2.936553,2.6585,2.3214,-5.7816,-1.028,4.4386,0.602,19.425,24.8063,-28.4813,,0.0005139999999999034,6.773730048503557,10.916281667356543,lateral_fall
2.958723,2.6585,2.3214,-5.7816,-1.028,4.4386,0.602,19.425,24.8063,-28.4813,,0.022170000000000023,6.773730048503557,12.285646147675005,lateral_fall
2.959243,2.6585,2.3214,-5.7816,-1.028,4.4386,0.602,19.425,24.8063,-28.4813,,0.0005199999999998539,6.773730048503557,13.455335564414604,lateral_fall
2.959568,10.0119,-2.5282,18.8216,-1.028,4.4386,0.602,19.425,24.8063,-28.4813,,0.00032500000000013074,21.468175595751028,14.320105226552124,lateral_fall
2.96548,10.0119,-2.5282,18.8216,-1.028,4.4386,0.602,20.5688,27.6938,-24.2813,,0.005911999999999917,21.468175595751028,14.79602051736685,lateral_fall
2.996719,10.0119,-2.5282,18.8216,-1.028,4.4386,0.602,20.5688,27.6938,-24.2813,,0.03123900000000024,21.468175595751028,14.830620906434074,lateral_fall
2.997912,10.0119,-2.5282,18.8216,0.9728,1.7602,-0.1994,20.5688,27.6938,-24.2813,,0.0011929999999997776,21.468175595751028,14.410138198898354,lateral_fall
3.01813,10.0119,-2.5282,18.8216,0.9728,1.7602,-0.1994,20.5688,27.6938,-24.2813,,0.02021800000000029,21.468175595751028,13.56236177330133,lateral_fall
3.019923,10.0119,-2.5282,18.8216,0.9728,1.7602,-0.1994,20.5688,27.6938,-24.2813,,0.0017929999999997115,21.468175595751028,12.354404801056244,lateral_fall
3.020764,1.414,1.6536,-0.441,0.9728,1.7602,-0.1994,20.5688,27.6938,-24.2813,,0.0008409999999998696,2.21997071151851,10.8854873846414,lateral_fall
3.032559,1.414,1.6536,-0.441,0.9728,1.7602,-0.1994,21.4125,29.7563,-20.2313,,0.011795000000000222,2.21997071151851,9.275747882929691,lateral_fall
3.050195,1.414,1.6536,-0.441,0.9728,1.7602,-0.1994,21.4125,29.7563,-20.2313,,0.017635999999999985,2.21997071151851,7.65282096065056,lateral_fall
3.087079,1.414,1.6536,-0.441,0.9728,1.7602,-0.1994,21.4125,29.7563,-20.2313,,0.03688400000000014,2.21997071151851,6.138236475649541,lateral_fall
3.090384,-1.0628,1.3549,-1.5996,0.9728,1.7602,-0.1994,21.4125,29.7563,-20.2313,,0.0033049999999996693,2.3503229586590857,4.835489383715406,lateral_fall
3.094572,-1.0628,1.3549,-1.5996,0.9728,1.7602,-0.1994,21.4125,29.7563,-20.2313,,0.0041880000000000805,2.3503229586590857,3.821065496801402,lateral_fall
3.097208,-1.0628,1.3549,-1.5996,-1.4776,0.0971,0.0983,21.4125,29.7563,-20.2313,,0.0026360000000003048,2.3503229586590857,3.139064809267705,lateral_fall
3.099846,-1.0628,1.3549,-1.5996,-1.4776,0.0971,0.0983,22.7063,31.0688,-15.7313,,0.002637999999999696,2.3503229586590857,2.7995328119843372,lateral_fall
3.138626,-1.0628,1.3549,-1.5996,-1.4776,0.0971,0.0983,22.7063,31.0688,-15.7313,,0.03878000000000004,2.3503229586590857,2.7802369028134706,lateral_fall
3.141876,-1.0628,1.3549,-1.5996,-1.4776,0.0971,0.0983,22.7063,31.0688,-15.7313,,0.003249999999999975,2.3503229586590857,3.0313845231975547,lateral_fall
3.144727,-1.0628,1.3549,-1.5996,-1.4776,0.0971,0.0983,22.7063,31.0688,-15.7313,,0.002851000000000159,2.3503229586590857,3.482630286138566,non_fall
3.146937,-1.0628,1.3549,-1.5996,1.0655,0.1598,0.5638,22.7063,31.0688,-15.7313,,0.0022099999999998232,2.3503229586590857,4.0516183871438525,non_fall
3.150647,-2.1064,-3.0099,8.1586,1.0655,0.1598,0.5638,22.7063,31.0688,-15.7313,,0.003710000000000324,8.947579165897332,4.653217947623237,non_fall
3.158325,-2.1064,-3.0099,8.1586,1.0655,0.1598,0.5638,22.7063,31.0688,-15.7313,,0.007677999999999852,8.947579165897332,5.208523250042946,non_fall
3.167596,-2.1064,-3.0099,8.1586,1.0655,0.1598,0.5638,24.0375,31.7625,-11.8313,,0.00927100000000003,8.947579165897332,5.652651553775586,non_fall
3.199348,-2.1064,-3.0099,8.1586,1.0655,0.1598,0.5638,24.0375,31.7625,-11.8313,,0.031752,8.947579165897332,5.940458961171575,non_fall
3.201541,-2.1064,-3.0099,8.1586,1.0655,0.1598,0.5638,24.0375,31.7625,-11.8313,,0.0021930000000001115,8.947579165897332,6.049552481878081,non_fall
3.203446,-2.1064,-3.0099,8.1586,-0.4942,0.3941,0.0633,24.0375,31.7625,-11.8313,,0.0019049999999998235,8.947579165897332,5.980360461158099,non_fall
3.206466,2.4221,1.1889,0.1421,-0.4942,0.3941,0.0633,24.0375,31.7625,-11.8313,,0.0030199999999998006,2.7018963766214275,5.75344703790043,non_fall
3.224924,2.4221,1.1889,0.1421,-0.4942,0.3941,0.0633,24.0375,31.7625,-11.8313,,0.018458000000000307,2.7018963766214275,5.404645979054584,non_fall
3.228063,2.4221,1.1889,0.1421,-0.4942,0.3941,0.0633,26.025,31.8938,-8.2313,,0.003139000000000003,2.7018963766214275,4.978877128733779,non_fall
3.25611,2.4221,1.1889,0.1421,-0.4942,0.3941,0.0633,26.025,31.8938,-8.2313,,0.028046999999999933,2.7018963766214275,4.523621723978896,non_fall
3.257767,2.4221,1.1889,0.1421,-0.4942,0.3941,0.0633,26.025,31.8938,-8.2313,,0.0016569999999997975,2.7018963766214275,4.082944567988436,non_fall
3.259121,1.7336,1.7105,0.6649,-0.4942,0.3941,0.0633,26.025,31.8938,-8.2313,,0.0013540000000000774,2.5245338619238207,3.6927218266110953,non_fall
3.280277,1.7336,1.7105,0.6649,-0.4017,0.1835,-0.3176,26.025,31.8938,-8.2313,,0.021155999999999953,2.5245338619238207,3.377463031819319,non_fall
3.284989,1.7336,1.7105,0.6649,-0.4017,0.1835,-0.3176,26.025,31.8938,-8.2313,,0.0047120000000000495,2.5245338619238207,3.1488720587180934,non_fall
3.286532,1.7336,1.7105,0.6649,-0.4017,0.1835,-0.3176,27.4125,31.95,-4.9125,,0.00154299999999985,2.5245338619238207,3.006093582595235,non_fall
3.316465,1.7336,1.7105,0.6649,-0.4017,0.1835,-0.3176,27.4125,31.95,-4.9125,,0.02993300000000021,2.5245338619238207,2.9374354930858813,non_fall
3.317809,1.7336,1.7105,0.6649,-0.4017,0.1835,-0.3176,27.4125,31.95,-4.9125,,0.0013440000000000119,2.5245338619238207,2.9232368891466933,non_fall
3.318637,-1.4082,0.0888,4.5005,-0.4017,0.1835,-0.3176,27.4125,31.95,-4.9125,,0.0008279999999998289,4.716504312517905,2.9394593956233215,non_fall
3.337083,-1.4082,0.0888,4.5005,0.0408,0.014,0.2855,27.4125,31.95,-4.9125,,0.018445999999999962,4.716504312517905,2.9615164162518695,non_fall
3.358029,-1.4082,0.0888,4.5005,0.0408,0.014,0.2855,27.4125,31.95,-4.9125,,0.020946000000000353,4.716504312517905,2.967835145411142,non_fall
3.360478,-1.4082,0.0888,4.5005,0.0408,0.014,0.2855,27.4125,31.95,-4.9125,,0.0024489999999999235,4.716504312517905,2.942694988961266,non_fall
3.366793,-1.4082,0.0888,4.5005,0.0408,0.014,0.2855,28.5375,31.7438,-2.0438,,0.0063149999999998485,4.716504312517905,2.878015467184495,non_fall
3.384648,-0.1367,1.1828,0.8962,0.0408,0.014,0.2855,28.5375,31.7438,-2.0438,,0.017854999999999954,1.490260772482454,2.7739579429670638,non_fall
3.387685,-0.1367,1.1828,0.8962,0.0408,0.014,0.2855,28.5375,31.7438,-2.0438,,0.0030369999999999564,1.490260772482454,2.6384164135960826,non_fall
3.401696,-0.1367,1.1828,0.8962,-0.1345,0.0622,0.0539,28.5375,31.7438,-2.0438,,0.014010999999999996,1.490260772482454,2.4856500908521064,non_fall
3.435161,-0.1367,1.1828,0.8962,-0.1345,0.0622,0.0539,28.5375,31.7438,-2.0438,,0.03346500000000008,1.490260772482454,2.3344039221366053,non_fall
3.438601,-0.1367,1.1828,0.8962,-0.1345,0.0622,0.0539,28.5375,31.7438,-2.0438,,0.0034399999999998876,1.490260772482454,2.2058522364328317,non_fall
3.441248,-0.1367,1.1828,0.8962,-0.1345,0.0622,0.0539,29.025,31.5563,-0.075,,0.002647000000000066,1.490260772482454,2.121612145407101,non_fall
3.444527,1.3349,-0.4219,2.8906,-0.1345,0.0622,0.0539,29.025,31.5563,-0.075,,0.003279000000000032,3.2117792545565766,2.1019566852493963,non_fall
3.447066,1.3349,-0.4219,2.8906,-0.1345,0.0622,0.0539,29.025,31.5563,-0.075,,0.002539000000000069,3.2117792545565766,2.164252175437814,non_fall
3.478374,1.3349,-0.4219,2.8906,0.2097,0.9933,-1.1382,29.025,31.5563,-0.075,,0.031308000000000114,3.2117792545565766,2.321576411101876,non_fall
3.481682,1.3349,-0.4219,2.8906,0.2097,0.9933,-1.1382,29.025,31.5563,-0.075,,0.0033080000000000886,3.2117792545565766,2.581465074065257,non_fall
3.485247,1.3349,-0.4219,2.8906,0.2097,0.9933,-1.1382,29.025,31.5563,-0.075,,0.0035650000000000404,3.2117792545565766,2.9447874500314213,non_fall
3.487036,1.3349,-0.4219,2.8906,0.2097,0.9933,-1.1382,28.7625,31.7625,1.0875,,0.0017889999999995965,3.2117792545565766,3.4048463353541534,non_fall
3.496507,0.9202,-0.5938,2.0283,0.2097,0.9933,-1.1382,28.7625,31.7625,1.0875,,0.009471000000000007,2.305074265614885,3.9468935113829247,non_fall
3.499114,0.9202,-0.5938,2.0283,0.2097,0.9933,-1.1382,28.7625,31.7625,1.0875,,0.002607000000000248,2.305074265614885,4.548317431115911,non_fall
3.537066,0.9202,-0.5938,2.0283,0.2097,0.9933,-1.1382,28.7625,31.7625,1.0875,,0.037951999999999764,2.305074265614885,5.179765369372991,non_fall
3.538977,0.9202,-0.5938,2.0283,-0.0449,0.0011,-2.347,28.7625,31.7625,1.0875,,0.001911000000000218,2.305074265614885,5.807382340247341,non_fall
3.557392,0.9202,-0.5938,2.0283,-0.0449,0.0011,-2.347,28.7625,31.7625,1.0875,,0.01841500000000007,2.305074265614885,6.396167096996551,non_fall
3.559052,-7.9608,-9.3698,-2.2623,-0.0449,0.0011,-2.347,28.7625,31.7625,1.0875,,0.0016599999999997728,12.501419518198723,6.914166333677436,non_fall
3.560486,-7.9608,-9.3698,-2.2623,-0.0449,0.0011,-2.347,28.7625,31.7625,1.0875,,0.0014340000000001574,12.501419518198723,7.336898593230922,non_fall
3.565347,-7.9608,-9.3698,-2.2623,-0.0449,0.0011,-2.347,28.0688,32.325,1.7813,,0.004861000000000004,12.501419518198723,7.651135258064654,non_fall
3.597413,-7.9608,-9.3698,-2.2623,-0.6083,0.6486,0.4418,28.0688,32.325,1.7813,,0.03206599999999993,12.501419518198723,7.857123613151558,non_fall
3.599573,-7.9608,-9.3698,-2.2623,-0.6083,0.6486,0.4418,28.0688,32.325,1.7813,,0.0021599999999999397,12.501419518198723,7.968599353438661,non_fall
3.618216,3.1305,-1.8218,2.1929,-0.6083,0.6486,0.4418,28.0688,32.325,1.7813,,0.018642999999999965,4.234122801714659,8.01043589849205,non_fall
3.620832,3.1305,-1.8218,2.1929,-0.6083,0.6486,0.4418,28.0688,32.325,1.7813,,0.0026160000000001737,4.234122801714659,8.014349953325588,non_fall
3.621785,3.1305,-1.8218,2.1929,-0.6083,0.6486,0.4418,28.0688,32.325,1.7813,,0.0009529999999999816,4.234122801714659,8.013547915264112,non_fall
3.626772,3.1305,-1.8218,2.1929,-0.6083,0.6486,0.4418,27.4313,32.775,2.2313,,0.004986999999999853,4.234122801714659,8.037409918033266,non_fall
3.678771,3.1305,-1.8218,2.1929,-1.37,0.3028,3.1774,27.4313,32.775,2.2313,,0.051998999999999906,4.234122801714659,8.107210542190789,non_fall
3.680912,-0.3504,8.4735,4.5003,-1.37,0.3028,3.1774,27.4313,32.775,2.2313,,0.0021410000000003926,9.600816762130188,8.233535219687,non_fall
3.682133,-0.3504,8.4735,4.5003,-1.37,0.3028,3.1774,27.4313,32.775,2.2313,,0.0012209999999996946,9.600816762130188,8.415609883238396,non_fall
3.683208,-0.3504,8.4735,4.5003,-1.37,0.3028,3.1774,27.4313,32.775,2.2313,,0.0010750000000001592,9.600816762130188,8.642357737648338,non_fall
3.68417,-0.3504,8.4735,4.5003,-1.37,0.3028,3.1774,27.4313,32.775,2.2313,,0.0009619999999999074,9.600816762130188,8.894734437920981,non_fall
3.685674,-0.3504,8.4735,4.5003,-1.37,0.3028,3.1774,27.45,32.8125,3.45,,0.0015040000000001719,9.600816762130188,9.14880865901346,non_fall
3.737909,-0.3504,8.4735,4.5003,-1.37,0.3028,3.1774,27.45,32.8125,3.45,,0.05223500000000003,9.600816762130188,9.37910392591318,non_fall
3.739549,-0.3504,8.4735,4.5003,-1.37,0.3028,3.1774,27.45,32.8125,3.45,,0.0016399999999996417,9.600816762130188,9.56181671378087,non_fall
3.740981,-0.3504,8.4735,4.5003,-1.37,0.3028,3.1774,27.45,32.8125,3.45,,0.001432000000000322,9.600816762130188,9.677616733667588,non_fall
3.74187,-0.3504,8.4735,4.5003,-0.5029,1.6655,1.6507,27.45,32.8125,3.45,,0.0008889999999999176,9.600816762130188,9.713798472246278,non_fall
3.742977,5.2891,8.7627,7.1597,-0.5029,1.6655,1.6507,27.45,32.8125,3.45,,0.0011070000000001912,12.490828402872244,9.665590126555104,non_fall
3.757548,5.2891,8.7627,7.1597,-0.5029,1.6655,1.6507,27.45,32.8125,3.45,,0.014570999999999668,12.490828402872244,9.53645333062013,non_fall
3.765461,5.2891,8.7627,7.1597,-0.5029,1.6655,1.6507,27.8063,32.325,4.9313,,0.007913000000000281,12.490828402872244,9.337262570943663,non_fall
3.797363,5.0019,-0.7095,4.1252,-0.5029,1.6655,1.6507,27.8063,32.325,4.9313,,0.03190199999999965,6.522244161329749,9.084385419986935,non_fall
3.799361,5.0019,-0.7095,4.1252,-0.5029,1.6655,1.6507,27.8063,32.325,4.9313,,0.0019980000000003884,6.522244161329749,8.796903171778792,non_fall
3.800092,5.0019,-0.7095,4.1252,-0.5029,1.6655,1.6507,27.8063,32.325,4.9313,,0.0007309999999995931,6.522244161329749,8.493442988774607,non_fall
3.800765,5.0019,-0.7095,4.1252,1.4286,-0.5019,-1.5826,27.8063,32.325,4.9313,,0.0006730000000003677,6.522244161329749,8.189217115729946,non_fall
3.823664,5.0019,-0.7095,4.1252,1.4286,-0.5019,-1.5826,27.8063,32.325,4.9313,,0.02289899999999978,6.522244161329749,7.8938154905265865,non_fall
3.825624,5.0019,-0.7095,4.1252,1.4286,-0.5019,-1.5826,27.8813,32.1562,5.9813,,0.0019599999999999618,6.522244161329749,7.610112710719733,non_fall
3.85695,5.0019,-0.7095,4.1252,-0.1591,-0.1632,0.4445,27.8813,32.1562,5.9813,,0.031325999999999965,6.522244161329749,7.33441659903795,non_fall
3.858953,-4.4655,-5.9224,-0.8898,-0.1591,-0.1632,0.4445,27.8813,32.1562,5.9813,,0.002003000000000199,7.470425426306054,7.057766810200095,non_fall
3.860175,-4.4655,-5.9224,-0.8898,-0.1591,-0.1632,0.4445,27.8813,32.1562,5.9813,,0.0012219999999998343,7.470425426306054,6.768112830589248,non_fall
3.86104,-4.4655,-5.9224,-0.8898,-0.1591,-0.1632,0.4445,27.8813,32.1562,5.9813,,0.0008650000000001157,7.470425426306054,6.452973547127913,non_fall
3.885921,-4.4655,-5.9224,-0.8898,-0.1591,-0.1632,0.4445,27.8813,32.1562,5.9813,,0.024881000000000153,7.470425426306054,6.102118678274417,non_fall
3.887907,-4.4655,-5.9224,-0.8898,-0.1591,-0.1632,0.4445,27.9188,31.9688,6.9,,0.001985999999999599,7.470425426306054,5.709823173786667,non_fall
3.920244,-4.4655,-5.9224,-0.8898,-0.1591,-0.1632,0.4445,27.9188,31.9688,6.9,,0.03233700000000006,7.470425426306054,5.276324093668937,non_fall
3.923454,-4.4655,-5.9224,-0.8898,-0.1591,-0.1632,0.4445,27.9188,31.9688,6.9,,0.003210000000000157,7.470425426306054,4.808244796194276,non_fall
3.924885,-0.7011,0.706,1.7225,-0.1591,-0.1632,0.4445,27.9188,31.9688,6.9,,0.0014310000000001821,1.9892167956258564,4.317934996152145,non_fall
3.937187,-0.7011,0.706,1.7225,0.186,-0.7238,0.2645,27.9188,31.9688,6.9,,0.012302000000000035,1.9892167956258564,3.8218887980250877,non_fall
3.957863,-0.7011,0.706,1.7225,0.186,-0.7238,0.2645,27.9188,31.9688,6.9,,0.020675999999999917,1.9892167956258564,3.3385934409054636,non_fall
3.959745,-0.7011,0.706,1.7225,0.186,-0.7238,0.2645,27.9188,31.9688,6.9,,0.0018819999999997172,1.9892167956258564,2.8862534162782962,non_fall
3.966098,-0.7011,0.706,1.7225,0.186,-0.7238,0.2645,28.2188,31.7813,7.5375,,0.006353000000000275,1.9892167956258564,2.480790429881814,non_fall
3.976515,-0.7011,0.706,1.7225,0.186,-0.7238,0.2645,28.2188,31.7813,7.5375,,0.010416999999999899,1.9892167956258564,2.1343797164954497,non_fall
3.978014,-0.1174,-0.0688,1.7304,0.186,-0.7238,0.2645,28.2188,31.7813,7.5375,,0.001498999999999917,1.7357420200018203,1.8546253559281531,non_fall
3.996613,-0.1174,-0.0688,1.7304,0.0648,0.0954,0.3994,28.2188,31.7813,7.5375,,0.018599000000000032,1.7357420200018203,1.6443536335344404,non_fall
4.024216,-0.1174,-0.0688,1.7304,0.0648,0.0954,0.3994,28.2188,31.7813,7.5375,,0.027603000000000044,1.7357420200018203,1.5019256633797877,non_fall
4.027139,-0.1174,-0.0688,1.7304,0.0648,0.0954,0.3994,28.2188,31.7813,7.5375,,0.002923000000000009,1.7357420200018203,1.4219303369447038,non_fall
4.028138,-0.1174,-0.0688,1.7304,0.0648,0.0954,0.3994,28.8563,31.1438,7.8563,,0.0009990000000001942,1.7357420200018203,1.3961060834278118,non_fall
4.038104,-0.1174,-0.0688,1.7304,0.0648,0.0954,0.3994,28.8563,31.1438,7.8563,,0.009965999999999475,1.7357420200018203,1.4143481117783032,non_fall
4.039311,0.0864,0.0425,1.6348,0.0648,0.0954,0.3994,28.8563,31.1438,7.8563,,0.001206999999999958,1.6376331243596658,1.4656818564835805,non_fall
4.05615,0.0864,0.0425,1.6348,0.0241,0.0577,0.166,28.8563,31.1438,7.8563,,0.01683900000000005,1.6376331243596658,1.539117621115744,non_fall
4.086241,0.0864,0.0425,1.6348,0.0241,0.0577,0.166,30.1125,30.1688,8.3813,,0.030091000000000534,1.6376331243596658,1.6243388551236335,non_fall
4.089251,0.0864,0.0425,1.6348,0.0241,0.0577,0.166,30.1125,30.1688,8.3813,,0.003009999999999735,1.6376331243596658,1.71221008054151,non_fall
4.091012,0.0864,0.0425,1.6348,0.0241,0.0577,0.166,30.1125,30.1688,8.3813,,0.0017610000000001236,1.6376331243596658,1.7951151051933705,non_fall
4.098351,0.0864,0.0425,1.6348,0.0241,0.0577,0.166,30.1125,30.1688,8.3813,,0.007338999999999984,1.6376331243596658,1.8671495125929394,non_fall
4.101213,-0.0094,0.6367,2.0643,0.0241,0.0577,0.166,30.1125,30.1688,8.3813,,0.0028620000000003643,2.160280014257411,1.9241934885991425,non_fall
4.139673,-0.0094,0.6367,2.0643,-0.0286,-0.1963,-0.0089,30.1125,30.1688,8.3813,,0.03845999999999972,2.160280014257411,1.9638842020983005,non_fall
4.143743,-0.0094,0.6367,2.0643,-0.0286,-0.1963,-0.0089,30.1125,30.1688,8.3813,,0.004069999999999574,2.160280014257411,1.985497423224513,non_fall
4.162055,-0.0955,0.4774,1.7879,-0.0286,-0.1963,-0.0089,30.1125,30.1688,8.3813,,0.018311999999999884,1.8530022719899726,1.9897445391914759,non_fall
4.166901,-0.0955,0.4774,1.7879,-0.0286,-0.1963,-0.0089,30.1125,30.1688,8.3813,,0.004846000000000572,1.8530022719899726,1.9784980599608006,non_fall
4.169995,-0.0955,0.4774,1.7879,-0.0286,-0.1963,-0.0089,30.1125,30.1688,8.3813,,0.00309399999999993,1.8530022719899726,1.954471197305502,non_fall
4.172726,-0.0955,0.4774,1.7879,-0.0286,-0.1963,-0.0089,31.1813,29.25,8.7,,0.002730999999999817,1.8530022719899726,1.9208853026603736,non_fall
4.198961,-0.0955,0.4774,1.7879,0.0208,-0.0757,0.0592,31.1813,29.25,8.7,,0.026234999999999786,1.8530022719899726,1.8811573574524023,non_fall
4.202505,-0.0955,0.4774,1.7879,0.0208,-0.0757,0.0592,31.1813,29.25,8.7,,0.0035440000000006577,1.8530022719899726,1.838630606383099,non_fall
4.219131,-0.0169,0.1899,1.7165,0.0208,-0.0757,0.0592,31.1813,29.25,8.7,,0.016625999999999586,1.727055259683372,1.7963605693739568,non_fall
4.223897,-0.0169,0.1899,1.7165,0.0208,-0.0757,0.0592,31.1813,29.25,8.7,,0.004766000000000048,1.727055259683372,1.7569600366865066,non_fall
4.22547,-0.0169,0.1899,1.7165,0.0208,-0.0757,0.0592,31.1813,29.25,8.7,,0.0015729999999996025,1.727055259683372,1.722500876445181,non_fall
4.226932,-0.0169,0.1899,1.7165,0.0208,-0.0757,0.0592,31.4063,28.8188,8.4375,,0.0014620000000000744,1.727055259683372,1.6944663004804366,non_fall
4.257677,-0.0169,0.1899,1.7165,0.0208,-0.0757,0.0592,31.4063,28.8188,8.4375,,0.030745000000000466,1.727055259683372,1.6737437496067813,non_fall
4.260985,-0.0169,0.1899,1.7165,-0.0179,-0.1158,0.0826,31.4063,28.8188,8.4375,,0.0033079999999996446,1.727055259683372,1.660646376587156,non_fall
4.283486,-0.1292,0.3715,1.6128,-0.0179,-0.1158,0.0826,31.4063,28.8188,8.4375,,0.022501000000000104,1.660068893148715,1.6549514396260492,non_fall
4.286037,-0.1292,0.3715,1.6128,-0.0179,-0.1158,0.0826,31.4063,28.8188,8.4375,,0.002551000000000414,1.660068893148715,1.6559470594616894,non_fall
4.287424,-0.1292,0.3715,1.6128,-0.0179,-0.1158,0.0826,31.4063,28.8188,8.4375,,0.001386999999999361,1.660068893148715,1.662483604847853,non_fall
4.288614,-0.1292,0.3715,1.6128,-0.0179,-0.1158,0.0826,31.4813,28.9125,7.7438,,0.0011900000000002464,1.660068893148715,1.6730306034586795,non_fall
4.340388,-0.1292,0.3715,1.6128,-0.0179,-0.1158,0.0826,31.4813,28.9125,7.7438,,0.05177399999999999,1.660068893148715,1.6857431220976256,non_fall
4.342806,-0.1292,0.3715,1.6128,-0.0179,-0.1158,0.0826,31.4813,28.9125,7.7438,,0.0024180000000004753,1.660068893148715,1.698542677096681,non_fall
4.345088,-0.1292,0.3715,1.6128,-0.0179,-0.1158,0.0826,31.4813,28.9125,7.7438,,0.002281999999999229,1.660068893148715,1.7092172104107646,non_fall
4.346811,-0.1292,0.3715,1.6128,0.0081,-0.28,-0.0467,31.4813,28.9125,7.7438,,0.001723000000000141,1.660068893148715,1.7155427027369081,non_fall
4.348771,-0.3633,0.0836,1.6592,0.0081,-0.28,-0.0467,31.4813,28.9125,7.7438,,0.001960000000000406,1.700564756191307,1.7154255987763525,non_fall
4.362368,-0.3633,0.0836,1.6592,0.0081,-0.28,-0.0467,31.4813,28.9125,7.7438,,0.01359699999999986,1.700564756191307,1.7070605785836321,non_fall
4.366168,-0.3633,0.0836,1.6592,0.0081,-0.28,-0.0467,31.7813,28.7438,7.275,,0.0038000000000000256,1.700564756191307,1.6890930262856698,non_fall
4.400162,-0.3633,0.0836,1.6592,0.0081,-0.28,-0.0467,31.7813,28.7438,7.275,,0.03399399999999986,1.700564756191307,1.660770971891696,non_fall
4.401928,-0.3633,0.0836,1.6592,0.0081,-0.28,-0.0467,31.7813,28.7438,7.275,,0.0017659999999999343,1.700564756191307,1.6220684255055675,non_fall
4.402744,-0.3633,0.0836,1.6592,0.0609,-0.2207,-0.2553,31.7813,28.7438,7.275,,0.000816000000000372,1.700564756191307,1.5737616284796645,non_fall
4.404624,0.1361,0.091,1.4851,0.0609,-0.2207,-0.2553,31.7813,28.7438,7.275,,0.0018799999999998818,1.494097125356983,1.5174423146026768,non_fall
4.42633,0.1361,0.091,1.4851,0.0609,-0.2207,-0.2553,32.1188,28.7625,6.9375,,0.021706000000000003,1.494097125356983,1.4554577174881602,non_fall
4.43012,0.1361,0.091,1.4851,0.0609,-0.2207,-0.2553,32.1188,28.7625,6.9375,,0.003789999999999516,1.494097125356983,1.3907747630821548,non_fall
4.458342,0.1361,0.091,1.4851,0.0609,-0.2207,-0.2553,32.1188,28.7625,6.9375,,0.028222000000000413,1.494097125356983,1.3267737980038965,non_fall
4.461297,0.1361,0.091,1.4851,0.0609,-0.2207,-0.2553,32.1188,28.7625,6.9375,,0.002955000000000041,1.494097125356983,1.2669847928375166,non_fall
4.462673,0.1205,0.6907,0.593,0.0609,-0.2207,-0.2553,32.1188,28.7625,6.9375,,0.0013759999999995998,0.9182786831893681,1.214788100203781,non_fall
4.465182,0.1205,0.6907,0.593,0.0082,-0.3347,-0.1924,32.1188,28.7625,6.9375,,0.0025090000000007606,0.9182786831893681,1.1731137556180242,non_fall
4.4873,0.1205,0.6907,0.593,0.0082,-0.3347,-0.1924,32.1188,28.7625,6.9375,,0.02211799999999986,0.9182786831893681,1.1441840409833492,non_fall
4.490495,0.1205,0.6907,0.593,0.0082,-0.3347,-0.1924,32.1562,28.725,6.6375,,0.003194999999999837,0.9182786831893681,1.129345426319071,non_fall
4.520455,0.1205,0.6907,0.593,0.0082,-0.3347,-0.1924,32.1562,28.725,6.6375,,0.029959999999999987,0.9182786831893681,1.1290230357409599,non_fall
4.524472,0.1205,0.6907,0.593,0.0082,-0.3347,-0.1924,32.1562,28.725,6.6375,,0.004017000000000159,0.9182786831893681,1.1428063251498601,non_fall
4.527091,-0.1722,-0.0111,1.5473,0.0082,-0.3347,-0.1924,32.1562,28.725,6.6375,,0.002619000000000149,1.5568922056455932,1.169645829953905,non_fall
4.540178,-0.1722,-0.0111,1.5473,0.0247,-0.6005,-0.4479,32.1562,28.725,6.6375,,0.013086999999999627,1.5568922056455932,1.208114184289633,non_fall
4.561969,-0.1722,-0.0111,1.5473,0.0247,-0.6005,-0.4479,32.1562,28.725,6.6375,,0.021791000000000338,1.5568922056455932,1.2566670283591783,non_fall
4.565534,-0.1722,-0.0111,1.5473,0.0247,-0.6005,-0.4479,32.1562,28.725,6.6375,,0.0035650000000000404,1.5568922056455932,1.3138386967429552,non_fall
4.567406,-0.1722,-0.0111,1.5473,0.0247,-0.6005,-0.4479,32.1,29.0813,6.2063,,0.0018719999999996517,1.5568922056455932,1.378326674401168,non_fall
4.579623,-0.1722,-0.0111,1.5473,0.0247,-0.6005,-0.4479,32.1,29.0813,6.2063,,0.0122169999999997,1.5568922056455932,1.4489515502140322,non_fall
4.583367,-0.3889,0.4601,1.204,0.0247,-0.6005,-0.4479,32.1,29.0813,6.2063,,0.0037440000000001916,1.3463102242796792,1.5245148526208478,non_fall
4.600018,-0.3889,0.4601,1.204,0.2429,-0.9265,-1.5585,32.1,29.0813,6.2063,,0.016651000000000415,1.3463102242796792,1.6036071610302718,non_fall
4.626897,-0.3889,0.4601,1.204,0.2429,-0.9265,-1.5585,32.1,29.0813,6.2063,,0.02687899999999921,1.3463102242796792,1.6844377591214006,non_fall
4.63171,-0.3889,0.4601,1.204,0.2429,-0.9265,-1.5585,32.1,29.0813,6.2063,,0.0048130000000004,1.3463102242796792,1.7647606286124742,non_fall
4.634063,-0.3889,0.4601,1.204,0.2429,-0.9265,-1.5585,31.4813,29.5875,5.3063,,0.0023530000000002715,1.3463102242796792,1.8419576146279646,non_fall
4.639339,-0.3889,0.4601,1.204,0.2429,-0.9265,-1.5585,31.4813,29.5875,5.3063,,0.005275999999999392,1.3463102242796792,1.91330923394567,non_fall
4.642124,0.0351,1.7751,1.7351,0.2429,-0.9265,-1.5585,31.4813,29.5875,5.3063,,0.0027850000000002595,2.482495524668675,1.9764403179503025,non_fall
4.659481,0.0351,1.7751,1.7351,0.0906,-1.5362,-2.6726,31.4813,29.5875,5.3063,,0.01735700000000051,2.482495524668675,2.029877906388721,non_fall
4.686813,0.0351,1.7751,1.7351,0.0906,-1.5362,-2.6726,31.4813,29.5875,5.3063,,0.027331999999999468,2.482495524668675,2.0736155188132477,non_fall
4.689529,0.0351,1.7751,1.7351,0.0906,-1.5362,-2.6726,31.4813,29.5875,5.3063,,0.0027160000000003848,2.482495524668675,2.109558478811335,non_fall
4.691225,0.0351,1.7751,1.7351,0.0906,-1.5362,-2.6726,30.1313,30.8438,4.275,,0.0016959999999999198,2.482495524668675,2.141738582068676,non_fall
4.698931,0.0351,1.7751,1.7351,0.0906,-1.5362,-2.6726,30.1313,30.8438,4.275,,0.007705999999999769,2.482495524668675,2.176225924341138,non_fall
4.701805,-2.0705,0.0331,1.1334,0.0906,-1.5362,-2.6726,30.1313,30.8438,4.275,,0.0028740000000002652,2.3606485168275264,2.220715606778019,non_fall
4.741174,-2.0705,0.0331,1.1334,0.0906,-1.5362,-2.6726,30.1313,30.8438,4.275,,0.039368999999999765,2.3606485168275264,2.283815842001532,non_fall
4.745376,-2.0705,0.0331,1.1334,-0.1778,-1.1754,-4.4729,30.1313,30.8438,4.275,,0.004202000000000261,2.3606485168275264,2.374106545842114,non_fall
4.764507,-2.0705,0.0331,1.1334,-0.1778,-1.1754,-4.4729,30.1313,30.8438,4.275,,0.019130999999999787,2.3606485168275264,2.4990709475549004,non_fall
4.768533,-1.1433,-0.4031,2.1147,-0.1778,-1.1754,-4.4729,30.1313,30.8438,4.275,,0.004025999999999641,2.4375357617889426,2.664024800504861,non_fall
4.77431,-1.1433,-0.4031,2.1147,-0.1778,-1.1754,-4.4729,30.1313,30.8438,4.275,,0.005777000000000143,2.4375357617889426,2.871177127242291,non_fall
4.777054,-1.1433,-0.4031,2.1147,-0.1778,-1.1754,-4.4729,27.4313,32.6063,3.1875,,0.0027439999999998577,2.4375357617889426,3.1189521892307153,non_fall
4.799487,-1.1433,-0.4031,2.1147,-0.1778,-1.1754,-4.4729,27.4313,32.6063,3.1875,,0.02243300000000037,2.4375357617889426,3.4016825883588893,non_fall
4.80186,-1.1433,-0.4031,2.1147,-0.091,-2.3754,-3.1317,27.4313,32.6063,3.1875,,0.0023729999999995144,2.4375357617889426,3.7097441717579773,non_fall
4.818631,-4.2822,-1.5127,2.7054,-0.091,-2.3754,-3.1317,27.4313,32.6063,3.1875,,0.016771000000000313,5.286273478548003,4.030140583290162,non_fall
4.821879,-4.2822,-1.5127,2.7054,-0.091,-2.3754,-3.1317,27.4313,32.6063,3.1875,,0.0032480000000001397,5.286273478548003,4.347463242590412,non_fall
4.823616,-4.2822,-1.5127,2.7054,-0.091,-2.3754,-3.1317,27.4313,32.6063,3.1875,,0.0017370000000003216,5.286273478548003,4.64507587418128,non_fall
4.829221,-4.2822,-1.5127,2.7054,-0.091,-2.3754,-3.1317,23.625,34.5375,2.0438,,0.005605000000000082,5.286273478548003,4.906339648631675,non_fall
4.859479,-4.2822,-1.5127,2.7054,-0.091,-2.3754,-3.1317,23.625,34.5375,2.0438,,0.030257999999999896,5.286273478548003,5.115724870211319,non_fall
4.862946,-4.2822,-1.5127,2.7054,-0.3354,-3.4825,-1.9142,23.625,34.5375,2.0438,,0.003466999999999665,5.286273478548003,5.259727815621429,non_fall
4.880101,-4.2822,-1.5127,2.7054,-0.3354,-3.4825,-1.9142,23.625,34.5375,2.0438,,0.01715499999999981,5.286273478548003,5.327588011485343,non_fall
4.88257,-4.2822,-1.5127,2.7054,-0.3354,-3.4825,-1.9142,23.625,34.5375,2.0438,,0.0024690000000004986,5.286273478548003,5.311857048593091,non_fall
4.88459,-2.2502,1.0367,3.091,-0.3354,-3.4825,-1.9142,23.625,34.5375,2.0438,,0.0020199999999999108,3.9613669269584206,5.20890056316876,non_fall
4.886172,-2.2502,1.0367,3.091,-0.3354,-3.4825,-1.9142,19.0312,36.3938,1.275,,0.0015819999999999723,3.9613669269584206,5.019422307979482,non_fall
4.940407,-2.2502,1.0367,3.091,-0.9632,-0.8145,-2.593,19.0312,36.3938,1.275,,0.054235000000000255,3.9613669269584206,4.749079215094464,non_fall
4.944629,-3.8303,1.4715,1.1439,-0.9632,-0.8145,-2.593,19.0312,36.3938,1.275,,0.004221999999999504,4.2596968847560035,4.409200514992426,non_fall
4.946788,-3.8303,1.4715,1.1439,-0.9632,-0.8145,-2.593,19.0312,36.3938,1.275,,0.0021589999999998,4.2596968847560035,4.017534789947249,non_fall
4.948386,-3.8303,1.4715,1.1439,-0.9632,-0.8145,-2.593,19.0312,36.3938,1.275,,0.0015980000000004324,4.2596968847560035,3.5988498663737087,non_fall
4.94973,-3.8303,1.4715,1.1439,-0.9632,-0.8145,-2.593,19.0312,36.3938,1.275,,0.0013439999999995678,4.2596968847560035,3.1851352792631333,non_fall
4.960371,-3.8303,1.4715,1.1439,-0.9632,-0.8145,-2.593,19.0312,36.3938,1.275,,0.010641000000000567,4.2596968847560035,2.8151299928847506,non_fall
4.967871,-3.8303,1.4715,1.1439,-0.9632,-0.8145,-2.593,13.5563,37.6875,0.8625,,0.007499999999999396,4.2596968847560035,2.532927751779403,non_fall
4.997801,-3.8303,1.4715,1.1439,-0.9632,-0.8145,-2.593,13.5563,37.6875,0.8625,,0.029930000000000234,4.2596968847560035,2.385497880491367,non_fall
4.998336,-3.8303,1.4715,1.1439,-0.9632,-0.8145,-2.593,13.5563,37.6875,0.8625,,0.0005350000000001742,4.2596968847560035,2.4190959396152634,non_fall
4.998613,-3.8303,1.4715,1.1439,-1.5286,1.5344,-1.1784,13.5563,37.6875,0.8625,,0.00027699999999963865,4.2596968847560035,2.6747188276643485,non_fall
4.999031,0.8801,0.9433,-1.5013,-1.5286,1.5344,-1.1784,13.5563,37.6875,0.8625,,0.0004179999999998074,1.979467754220816,3.182969356844076,non_fall
5.023487,0.8801,0.9433,-1.5013,-1.5286,1.5344,-1.1784,13.5563,37.6875,0.8625,,0.0244560000000007,1.979467754220816,3.9589099689051417,non_fall
5.025038,0.8801,0.9433,-1.5013,-1.5286,1.5344,-1.1784,7.7625,39.0,0.675,,0.00155100000000008,1.979467754220816,4.997657087024338,non_fall
5.038663,0.8801,0.9433,-1.5013,-1.5286,1.5344,-1.1784,7.7625,39.0,0.675,,0.013624999999999332,1.979467754220816,6.2715353485239325,non_fall
5.057222,0.8801,0.9433,-1.5013,2.3948,-1.9711,1.3475,7.7625,39.0,0.675,,0.01855900000000066,1.979467754220816,7.729526511622303,non_fall
5.058164,0.8801,0.9433,-1.5013,2.3948,-1.9711,1.3475,7.7625,39.0,0.675,,0.0009419999999993323,1.979467754220816,9.299494747527214,non_fall
5.058516,-10.2124,-0.1125,12.9058,2.3948,-1.9711,1.3475,7.7625,39.0,0.675,,0.00035200000000035203,16.45799026764811,10.893256968581744,non_fall
5.085993,-10.2124,-0.1125,12.9058,2.3948,-1.9711,1.3475,7.7625,39.0,0.675,,0.027477000000000196,16.45799026764811,12.41404181273094,non_fall
5.088103,-10.2124,-0.1125,12.9058,2.3948,-1.9711,1.3475,2.4,40.35,0.3375,,0.0021100000000000563,16.45799026764811,13.765380720488839,non_fall
5.106773,-10.2124,-0.1125,12.9058,2.3948,-1.9711,1.3475,2.4,40.35,0.3375,,0.0186699999999993,16.45799026764811,14.860197983867906,non_fall
5.118783,-10.2124,-0.1125,12.9058,2.3948,-1.9711,1.3475,2.4,40.35,0.3375,,0.012010000000000076,16.45799026764811,15.62891685812655,non_fall
5.120146,12.0334,-0.9128,-13.4965,2.3948,-1.9711,1.3475,2.4,40.35,0.3375,,0.0013630000000004472,18.105011230319633,16.025681079292653,non_fall
5.138344,12.0334,-0.9128,-13.4965,-0.9602,-1.1343,-0.4239,2.4,40.35,0.3375,,0.018197999999999936,18.105011230319633,16.032122265190047,non_fall
5.141528,12.0334,-0.9128,-13.4965,-0.9602,-1.1343,-0.4239,2.4,40.35,0.3375,,0.0031840000000000757,18.105011230319633,15.658382324159014,non_fall
5.158202,12.0334,-0.9128,-13.4965,-0.9602,-1.1343,-0.4239,2.4,40.35,0.3375,,0.016674000000000078,18.105011230319633,14.941337786243153,non_fall
5.166902,12.0334,-0.9128,-13.4965,-0.9602,-1.1343,-0.4239,0.0,37.9313,-1.5,,0.008700000000000152,18.105011230319633,13.940220275471255,non_fall
5.179081,0.0137,-2.4265,6.4038,-0.9602,-1.1343,-0.4239,0.0,37.9313,-1.5,,0.012178999999999718,6.848119769688612,12.730114567251805,non_fall
5.181959,0.0137,-2.4265,6.4038,-0.9602,-1.1343,-0.4239,0.0,37.9313,-1.5,,0.002877999999999936,6.848119769688612,11.394125073675175,non_fall
5.198441,0.0137,-2.4265,6.4038,-0.3047,-2.5142,-0.1157,0.0,37.9313,-1.5,,0.016481999999999886,6.848119769688612,10.015241949110539,non_fall
5.225395,0.0137,-2.4265,6.4038,-0.3047,-2.5142,-0.1157,0.0,37.9313,-1.5,,0.026953999999999922,6.848119769688612,8.668975403387961,non_fall
5.228192,0.0137,-2.4265,6.4038,-0.3047,-2.5142,-0.1157,0.0,37.9313,-1.5,,0.0027970000000001605,6.848119769688612,7.417605303027723,non_fall
5.229632,0.0137,-2.4265,6.4038,-0.3047,-2.5142,-0.1157,-5.175,37.8563,0.0375,,0.0014399999999996638,6.848119769688612,6.306511256999428,non_fall
5.239321,-1.0011,3.7078,1.0777,-0.3047,-2.5142,-0.1157,-5.175,37.8563,0.0375,,0.009689000000000725,3.9889120496696844,5.362674886792021,non_fall
5.24189,-1.0011,3.7078,1.0777,-0.3047,-2.5142,-0.1157,-5.175,37.8563,0.0375,,0.0025689999999993773,3.9889120496696844,4.595184683228014,non_fall
5.259164,-1.0011,3.7078,1.0777,0.0307,-4.1593,0.6477,-5.175,37.8563,0.0375,,0.017274000000000456,3.9889120496696844,3.997425503440426,non_fall
5.287262,-1.0011,3.7078,1.0777,0.0307,-4.1593,0.6477,-5.175,37.8563,0.0375,,0.028097999999999956,3.9889120496696844,3.550547346619847,non_fall
5.290649,-1.0011,3.7078,1.0777,0.0307,-4.1593,0.6477,-5.175,37.8563,0.0375,,0.003387000000000029,3.9889120496696844,3.2277408516434676,non_fall
5.292512,-1.0011,3.7078,1.0777,0.0307,-4.1593,0.6477,-7.2375,37.8188,1.4438,,0.00186300000000017,3.9889120496696844,2.9987993515523246,non_fall
5.302986,-0.9725,-0.0838,4.2424,0.0307,-4.1593,0.6477,-7.2375,37.8188,1.4438,,0.010473999999999428,4.353244359095869,2.8344400786445196,non_fall
5.307038,-0.9725,-0.0838,4.2424,0.0307,-4.1593,0.6477,-7.2375,37.8188,1.4438,,0.004052000000000611,4.353244359095869,2.7099022419264793,non_fall
5.355088,-0.9725,-0.0838,4.2424,0.0307,-4.1593,0.6477,-7.2375,37.8188,1.4438,,0.048049999999999926,4.353244359095869,2.607435342906565,non_fall
5.360749,-0.9725,-0.0838,4.2424,-0.9286,-2.6386,0.2079,-7.2375,37.8188,1.4438,,0.005660999999999916,4.353244359095869,2.5174314742009645,non_fall
5.365061,-0.9725,-0.0838,4.2424,-0.9286,-2.6386,0.2079,-7.2375,37.8188,1.4438,,0.0043119999999996494,4.353244359095869,2.4381339762239596,non_fall
5.366937,0.0773,0.495,0.2996,-0.9286,-2.6386,0.2079,-7.2375,37.8188,1.4438,,0.0018760000000002108,0.583746905773384,2.374060947532531,non_fall
5.369297,0.0773,0.495,0.2996,-0.9286,-2.6386,0.2079,-7.2375,37.8188,1.4438,,0.002360000000000362,0.583746905773384,2.3334927735750592,non_fall
5.370794,0.0773,0.495,0.2996,-0.9286,-2.6386,0.2079,-8.2688,37.6688,3.2813,,0.0014969999999996375,0.583746905773384,2.325542497875125,non_fall
5.398639,0.0773,0.495,0.2996,-0.9286,-2.6386,0.2079,-8.2688,37.6688,3.2813,,0.02784500000000012,0.583746905773384,2.357398179671244,non_fall
5.400558,0.0773,0.495,0.2996,-1.4756,-3.5502,0.9396,-8.2688,37.6688,3.2813,,0.001919000000000004,0.583746905773384,2.4322672735169557,non_fall
5.423216,0.0773,0.495,0.2996,-1.4756,-3.5502,0.9396,-8.2688,37.6688,3.2813,,0.022657999999999845,0.583746905773384,2.5483886836590632,non_fall
5.425578,0.0773,0.495,0.2996,-1.4756,-3.5502,0.9396,-8.2688,37.6688,3.2813,,0.002361999999999753,0.583746905773384,2.699259170216454,non_fall
5.426996,0.9065,0.7391,4.9718,-1.4756,-3.5502,0.9396,-8.2688,37.6688,3.2813,,0.0014180000000001414,5.107524478649124,2.8749838895874475,non_fall
5.431794,0.9065,0.7391,4.9718,-1.4756,-3.5502,0.9396,-8.3625,37.8188,6.0375,,0.00479800000000008,5.107524478649124,3.0644310613294974,non_fall
5.445414,0.9065,0.7391,4.9718,-1.4756,-3.5502,0.9396,-8.3625,37.8188,6.0375,,0.01362000000000041,5.107524478649124,3.2576920886118717,non_fall
5.459781,0.9065,0.7391,4.9718,-0.7658,-4.6726,3.1611,-8.3625,37.8188,6.0375,,0.014367000000000019,5.107524478649124,3.4482824713069657,non_fall
5.48301,0.9065,0.7391,4.9718,-0.7658,-4.6726,3.1611,-8.3625,37.8188,6.0375,,0.023228999999999722,5.107524478649124,3.634595265466839,non_fall
5.488072,0.9065,0.7391,4.9718,-0.7658,-4.6726,3.1611,-8.3625,37.8188,6.0375,,0.005061999999999678,5.107524478649124,3.820302807255777,non_fall
5.492957,1.7925,0.3707,3.3343,-0.7658,-4.6726,3.1611,-8.3625,37.8188,6.0375,,0.004884999999999806,3.803686531511239,4.013626572166348,non_fall
5.495406,1.7925,0.3707,3.3343,-0.7658,-4.6726,3.1611,-5.0625,37.5563,7.8938,,0.0024490000000003675,3.803686531511239,4.225607430523089,non_fall
5.549943,2.4556,-3.1268,0.3034,-0.7658,-4.6726,3.1611,-5.0625,37.5563,7.8938,,0.054536999999999836,3.987342618837764,4.467679227546379,non_fall
5.554687,2.4556,-3.1268,0.3034,0.8954,-2.9398,3.465,-5.0625,37.5563,7.8938,,0.004744000000000526,3.987342618837764,4.748956451039989,non_fall
5.557082,2.4556,-3.1268,0.3034,0.8954,-2.9398,3.465,-5.0625,37.5563,7.8938,,0.002394999999999925,3.987342618837764,5.073682829519474,non_fall
5.558908,2.4556,-3.1268,0.3034,0.8954,-2.9398,3.465,-5.0625,37.5563,7.8938,,0.0018259999999994392,3.987342618837764,5.439261656489676,non_fall
5.56082,2.4556,-3.1268,0.3034,0.8954,-2.9398,3.465,-5.0625,37.5563,7.8938,,0.0019119999999999138,3.987342618837764,5.835217051468486,non_fall
5.562925,2.4556,-3.1268,0.3034,0.8954,-2.9398,3.465,-5.0625,37.5563,7.8938,,0.0021050000000002456,3.987342618837764,6.243325856553212,non_fall
5.5662,2.4556,-3.1268,0.3034,0.8954,-2.9398,3.465,-0.0563,36.9375,8.8313,,0.003275000000000361,3.987342618837764,6.639009586530827,non_fall
5.59865,8.7285,-2.7662,-1.3612,0.8954,-2.9398,3.465,-0.0563,36.9375,8.8313,,0.03244999999999987,9.256967112937152,6.993881867152919,non_fall
5.60086,8.7285,-2.7662,-1.3612,0.8954,-2.9398,3.465,-0.0563,36.9375,8.8313,,0.0022099999999998232,9.256967112937152,7.279124524120805,non_fall
5.601826,8.7285,-2.7662,-1.3612,0.8954,-2.9398,3.465,-0.0563,36.9375,8.8313,,0.0009660000000000224,9.256967112937152,7.469168717058399,non_fall
5.602664,8.7285,-2.7662,-1.3612,1.3378,-1.2299,0.5423,-0.0563,36.9375,8.8313,,0.0008379999999998944,9.256967112937152,7.545064965839354,non_fall
5.626772,8.7285,-2.7662,-1.3612,1.3378,-1.2299,0.5423,-0.0563,36.9375,8.8313,,0.02410800000000002,9.256967112937152,7.4969813578519,non_fall
5.62871,8.7285,-2.7662,-1.3612,1.3378,-1.2299,0.5423,4.35,36.225,9.9,,0.0019379999999999953,9.256967112937152,7.325443191304342,non_fall
5.660157,8.7285,-2.7662,-1.3612,1.3378,-1.2299,0.5423,4.35,36.225,9.9,,0.031447,9.256967112937152,7.04115501597435,non_fall
5.662751,0.3977,1.3846,-3.8938,1.3378,-1.2299,0.5423,4.35,36.225,9.9,,0.0025940000000002073,4.151741910331133,6.663484133896159,non_fall
5.665116,0.3977,1.3846,-3.8938,1.3378,-1.2299,0.5423,4.35,36.225,9.9,,0.0023650000000001725,4.151741910331133,6.217910585178533,non_fall
5.666383,0.3977,1.3846,-3.8938,-0.1938,0.1776,1.1569,4.35,36.225,9.9,,0.001266999999999463,4.151741910331133,5.73292184482683,non_fall
5.686774,0.3977,1.3846,-3.8938,-0.1938,0.1776,1.1569,9.5438,35.2125,10.2188,,0.020391000000000048,4.151741910331133,5.236890568431225,non_fall
5.689954,0.3977,1.3846,-3.8938,-0.1938,0.1776,1.1569,9.5438,35.2125,10.2188,,0.0031800000000004047,4.151741910331133,4.755395268318999,non_fall
5.718424,0.3977,1.3846,-3.8938,-0.1938,0.1776,1.1569,9.5438,35.2125,10.2188,,0.02846999999999955,4.151741910331133,4.30927250847596,non_fall
5.720249,0.3977,1.3846,-3.8938,-0.1938,0.1776,1.1569,9.5438,35.2125,10.2188,,0.0018250000000001876,4.151741910331133,3.913504519269637,non_fall
5.721398,3.004,-0.0844,-1.5208,-0.1938,0.1776,1.1569,9.5438,35.2125,10.2188,,0.0011489999999998446,3.368081352936713,3.576902456128203,non_fall
5.739626,3.004,-0.0844,-1.5208,0.8033,-0.3073,0.4549,9.5438,35.2125,10.2188,,0.018228000000000577,3.368081352936713,3.302457222441922,non_fall
5.752837,3.004,-0.0844,-1.5208,0.8033,-0.3073,0.4549,9.5438,35.2125,10.2188,,0.013211000000000084,3.368081352936713,3.0881873977882637,non_fall
5.76713,3.004,-0.0844,-1.5208,0.8033,-0.3073,0.4549,9.5438,35.2125,10.2188,,0.014292999999999445,3.368081352936713,2.928300061763664,non_fall
5.769542,3.004,-0.0844,-1.5208,0.8033,-0.3073,0.4549,15.2063,34.2188,9.7125,,0.002412000000000525,3.368081352936713,2.8144823711639666,non_fall
5.783799,3.004,-0.0844,-1.5208,0.8033,-0.3073,0.4549,15.2063,34.2188,9.7125,,0.014256999999999742,3.368081352936713,2.7371577141578722,non_fall
5.785841,1.6541,0.4835,-2.0013,0.8033,-0.3073,0.4549,15.2063,34.2188,9.7125,,0.002041999999999433,2.641026457648617,2.686573645868983,non_fall
5.798281,1.6541,0.4835,-2.0013,0.4109,-1.1543,0.4581,15.2063,34.2188,9.7125,,0.012440000000000673,2.641026457648617,2.653638208853528,non_fall
5.823989,1.6541,0.4835,-2.0013,0.4109,-1.1543,0.4581,15.2063,34.2188,9.7125,,0.025707999999999842,2.641026457648617,2.6304760114160812,non_fall
5.824977,1.6541,0.4835,-2.0013,0.4109,-1.1543,0.4581,15.2063,34.2188,9.7125,,0.0009879999999995448,2.641026457648617,2.6107206003040417,non_fall
5.825905,1.6541,0.4835,-2.0013,0.4109,-1.1543,0.4581,19.9313,33.225,8.5125,,0.0009280000000000399,2.641026457648617,2.589586309735437,non_fall
5.839515,1.6541,0.4835,-2.0013,0.4109,-1.1543,0.4581,19.9313,33.225,8.5125,,0.0136099999999999,2.641026457648617,2.563773685924973,non_fall
5.840802,0.7884,0.7019,-1.9178,0.4109,-1.1543,0.4581,19.9313,33.225,8.5125,,0.0012870000000004822,2.189108268222474,2.531266620697149,non_fall
5.858675,0.7884,0.7019,-1.9178,-0.2837,-0.3434,0.3241,19.9313,33.225,8.5125,,0.017872999999999806,2.189108268222474,2.4910817314971747,non_fall
5.886806,0.7884,0.7019,-1.9178,-0.2837,-0.3434,0.3241,19.9313,33.225,8.5125,,0.028131000000000128,2.189108268222474,2.4430292391430815,non_fall
5.889126,0.7884,0.7019,-1.9178,-0.2837,-0.3434,0.3241,19.9313,33.225,8.5125,,0.0023200000000000998,2.189108268222474,2.387533880912436,non_fall
5.890253,0.7884,0.7019,-1.9178,-0.2837,-0.3434,0.3241,24.2438,32.25,6.6938,,0.0011270000000003222,2.189108268222474,2.3255417224256165,non_fall
5.898991,0.7884,0.7019,-1.9178,-0.2837,-0.3434,0.3241,24.2438,32.25,6.6938,,0.008737999999999246,2.189108268222474,2.2585082939601495,non_fall
5.900864,2.4398,-0.2817,-0.7376,-0.2837,-0.3434,0.3241,24.2438,32.25,6.6938,,0.0018730000000006797,2.5643776418460678,2.1884329991766607,non_fall
5.938989,2.4398,-0.2817,-0.7376,0.4207,-0.1239,0.1293,24.2438,32.25,6.6938,,0.038124999999999964,2.5643776418460678,2.1178811988152684,non_fall
5.939869,2.4398,-0.2817,-0.7376,0.4207,-0.1239,0.1293,24.2438,32.25,6.6938,,0.0008799999999995478,2.5643776418460678,2.049925091027327,non_fall
5.953708,2.4398,-0.2817,-0.7376,0.4207,-0.1239,0.1293,24.2438,32.25,6.6938,,0.013838999999999935,2.5643776418460678,1.9879437816196206,non_fall
5.959624,2.4398,-0.2817,-0.7376,0.4207,-0.1239,0.1293,24.2438,32.25,6.6938,,0.005916000000000032,2.5643776418460678,1.9352548221065644,non_fall
5.960291,0.4817,0.5601,0.9006,0.4207,-0.1239,0.1293,24.2438,32.25,6.6938,,0.0006669999999999732,1.1648292836291505,1.8946005397635661,non_fall
5.966283,0.4817,0.5601,0.9006,0.4207,-0.1239,0.1293,27.8813,31.7063,4.4625,,0.005991999999999997,1.1648292836291505,1.8675717731145098,non_fall
5.998051,0.4817,0.5601,0.9006,0.4207,-0.1239,0.1293,27.8813,31.7063,4.4625,,0.03176800000000046,1.1648292836291505,1.8540999515184644,non_fall
5.998682,0.4817,0.5601,0.9006,-0.4872,0.3042,-0.3986,27.8813,31.7063,4.4625,,0.0006309999999993821,1.1648292836291505,1.85216295521977,non_fall
6.018835,0.4817,0.5601,0.9006,-0.4872,0.3042,-0.3986,27.8813,31.7063,4.4625,,0.02015300000000053,1.1648292836291505,1.8578190456600359,non_fall
6.019433,0.4817,0.5601,0.9006,-0.4872,0.3042,-0.3986,27.8813,31.7063,4.4625,,0.0005980000000000985,1.1648292836291505,1.865614936302985,non_fall
6.019718,2.1,-0.0805,-1.8027,-0.4872,0.3042,-0.3986,27.8813,31.7063,4.4625,,0.0002849999999998687,2.768791711198226,1.8693284004773463,non_fall
6.025722,2.1,-0.0805,-1.8027,-0.4872,0.3042,-0.3986,29.6438,31.1063,2.1375,,0.006003999999999898,2.768791711198226,1.862921749248822,non_fall
6.045997,2.1,-0.0805,-1.8027,-0.4872,0.3042,-0.3986,29.6438,31.1063,2.1375,,0.02027499999999982,2.768791711198226,1.8415209747011674,non_fall
6.058356,2.1,-0.0805,-1.8027,-0.1605,1.5325,-0.2398,29.6438,31.1063,2.1375,,0.012359000000000009,2.768791711198226,1.80222019199178,non_fall
6.078661,0.5747,-0.6316,1.1952,-0.1605,1.5325,-0.2398,29.6438,31.1063,2.1375,,0.02030500000000046,1.4689117366268132,1.7445537268877969,non_fall
6.079427,0.5747,-0.6316,1.1952,-0.1605,1.5325,-0.2398,29.6438,31.1063,2.1375,,0.0007659999999996003,1.4689117366268132,1.6705636013768874,non_fall
6.079735,0.5747,-0.6316,1.1952,-0.1605,1.5325,-0.2398,29.6438,31.1063,2.1375,,0.00030800000000041905,1.4689117366268132,1.584483203475225,non_fall
6.084786,0.5747,-0.6316,1.1952,-0.1605,1.5325,-0.2398,30.4125,30.975,0.75,,0.005050999999999917,1.4689117366268132,1.4921251135159814,non_fall
6.139939,0.5747,-0.6316,1.1952,0.6703,1.565,0.1234,30.4125,30.975,0.75,,0.055152999999999786,1.4689117366268132,1.400089247676781,non_fall
6.142755,-0.5733,-0.5668,0.5227,0.6703,1.565,0.1234,30.4125,30.975,0.75,,0.0028160000000001517,0.9608071710806493,1.3149069141326892,non_fall
6.145175,-0.5733,-0.5668,0.5227,0.6703,1.565,0.1234,30.4125,30.975,0.75,,0.0024199999999998667,0.9608071710806493,1.2422255126302268,non_fall
6.14636,-0.5733,-0.5668,0.5227,0.6703,1.565,0.1234,30.4125,30.975,0.75,,0.0011849999999995475,0.9608071710806493,1.1861263983803692,non_fall
6.147451,-0.5733,-0.5668,0.5227,0.6703,1.565,0.1234,30.4125,30.975,0.75,,0.0010910000000006193,0.9608071710806493,1.148652178270547,non_fall
6.166831,-0.5733,-0.5668,0.5227,0.6703,1.565,0.1234,30.675,30.75,0.2063,,0.019379999999999953,0.9608071710806493,1.1295955935205502,non_fall
6.17017,-0.5733,-0.5668,0.5227,0.6703,1.565,0.1234,30.675,30.75,0.2063,,0.0033389999999995368,0.9608071710806493,1.1265723974852326,non_fall
6.200175,-0.5733,-0.5668,0.5227,0.6703,1.565,0.1234,30.675,30.75,0.2063,,0.03000500000000006,0.9608071710806493,1.1353707005517353,non_fall
6.202686,-0.5733,-0.5668,0.5227,0.6703,1.565,0.1234,30.675,30.75,0.2063,,0.002511000000000152,0.9608071710806493,1.150542211434822,non_fall
6.204552,-0.5733,-0.5668,0.5227,0.5021,1.372,0.356,30.675,30.75,0.2063,,0.0018659999999997012,0.9608071710806493,1.1661763301452488,non_fall
6.206611,-0.7349,0.3856,-1.3734,0.5021,1.372,0.356,30.675,30.75,0.2063,,0.002059000000000033,1.6046784506560807,1.176774840719278,non_fall
6.224835,-0.7349,0.3856,-1.3734,0.5021,1.372,0.356,30.675,30.75,0.2063,,0.018224000000000018,1.6046784506560807,1.178123935601934,non_fall
6.227029,-0.7349,0.3856,-1.3734,0.5021,1.372,0.356,30.6938,30.7875,-0.2625,,0.0021940000000002513,1.6046784506560807,1.1680473732384162,non_fall
6.261542,-0.7349,0.3856,-1.3734,0.5021,1.372,0.356,30.6938,30.7875,-0.2625,,0.03451300000000046,1.6046784506560807,1.1469289692818585,non_fall
6.264234,-0.7349,0.3856,-1.3734,1.01,0.9289,-0.0168,30.6938,30.7875,-0.2625,,0.0026919999999996946,1.6046784506560807,1.117919533990185,non_fall
6.265794,-0.0806,0.8578,-0.4408,1.01,0.9289,-0.0168,30.6938,30.7875,-0.2625,,0.0015599999999995617,0.9677922504339451,1.0867887532702363,non_fall
6.266909,-0.0806,0.8578,-0.4408,1.01,0.9289,-0.0168,30.6938,30.7875,-0.2625,,0.0011150000000004212,0.9677922504339451,1.061435888191709,non_fall
6.286019,-0.0806,0.8578,-0.4408,1.01,0.9289,-0.0168,30.6938,30.7875,-0.2625,,0.019109999999999516,0.9677922504339451,1.051122356608647,non_fall
6.288025,-0.0806,0.8578,-0.4408,1.01,0.9289,-0.0168,30.4688,30.75,-0.225,,0.0020060000000006184,0.9677922504339451,1.065523380373501,non_fall
6.320512,-0.0806,0.8578,-0.4408,1.01,0.9289,-0.0168,30.4688,30.75,-0.225,,0.03248699999999971,0.9677922504339451,1.1137099818051701,non_fall
6.323687,-0.0806,0.8578,-0.4408,1.01,0.9289,-0.0168,30.4688,30.75,-0.225,,0.003174999999999706,0.9677922504339451,1.2031703824745787,non_fall
6.325535,1.3839,0.0745,-0.0498,1.01,0.9289,-0.0168,30.4688,30.75,-0.225,,0.001848000000000738,1.3867982910286556,1.3389687211148187,non_fall
6.34059,1.3839,0.0745,-0.0498,1.8545,1.6424,-0.5098,30.4688,30.75,-0.225,,0.015054999999999374,1.3867982910286556,1.5231238947991577,non_fall
6.361195,1.3839,0.0745,-0.0498,1.8545,1.6424,-0.5098,30.4688,30.75,-0.225,,0.02060500000000065,1.3867982910286556,1.7542746169155736,non_fall
6.363809,1.3839,0.0745,-0.0498,1.8545,1.6424,-0.5098,30.4688,30.75,-0.225,,0.00261399999999945,1.3867982910286556,2.0276797242357003,non_fall
6.366256,1.3839,0.0745,-0.0498,1.8545,1.6424,-0.5098,29.8875,31.0688,0.0188,,0.002447000000000088,1.3867982910286556,2.3355826310982146,non_fall
6.3804,1.3839,0.0745,-0.0498,1.8545,1.6424,-0.5098,29.8875,31.0688,0.0188,,0.014143999999999934,1.3867982910286556,2.667936582035669,non_fall
6.382678,3.4881,-2.4712,-1.7183,1.8545,1.6424,-0.5098,29.8875,31.0688,0.0188,,0.0022780000000004463,4.60719284814517,3.0134327617389416,non_fall
6.399456,3.4881,-2.4712,-1.7183,2.1348,3.432,-1.2861,29.8875,31.0688,0.0188,,0.016777999999999516,4.60719284814517,3.360698503115964,non_fall
6.425423,3.4881,-2.4712,-1.7183,2.1348,3.432,-1.2861,29.8875,31.0688,0.0188,,0.025967000000000517,4.60719284814517,3.6994654099091004,non_fall
6.429408,3.4881,-2.4712,-1.7183,2.1348,3.432,-1.2861,29.8875,31.0688,0.0188,,0.003984999999999239,4.60719284814517,4.02149068459435,non_fall
6.431553,3.4881,-2.4712,-1.7183,2.1348,3.432,-1.2861,29.1563,32.3063,0.375,,0.0021450000000005076,4.60719284814517,4.321070994595942,non_fall
6.440602,3.4881,-2.4712,-1.7183,2.1348,3.432,-1.2861,29.1563,32.3063,0.375,,0.009049000000000085,4.60719284814517,4.595093044108904,non_fall
6.443645,1.1769,-2.9289,-3.3057,2.1348,3.432,-1.2861,29.1563,32.3063,0.375,,0.003042999999999907,4.57068936923086,4.842672693817801,non_fall
6.460114,1.1769,-2.9289,-3.3057,1.4809,4.5269,-0.8999,29.1563,32.3063,0.375,,0.016468999999999845,4.57068936923086,5.064513326419346,non_fall
6.463222,1.1769,-2.9289,-3.3057,1.4809,4.5269,-0.8999,29.1563,32.3063,0.375,,0.0031080000000001107,4.57068936923086,5.262154768688325,non_fall
6.488114,1.1769,-2.9289,-3.3057,1.4809,4.5269,-0.8999,27.6188,33.5625,1.1813,,0.02489200000000036,4.57068936923086,5.4372873625236195,non_fall
6.493008,1.1769,-2.9289,-3.3057,1.4809,4.5269,-0.8999,27.6188,33.5625,1.1813,,0.004893999999999288,4.57068936923086,5.591274771343857,non_fall
6.501886,4.845,-3.1869,-2.5254,1.4809,4.5269,-0.8999,27.6188,33.5625,1.1813,,0.008878000000000164,6.325187884165971,5.72496829712298,non_fall
6.507111,4.845,-3.1869,-2.5254,1.4809,4.5269,-0.8999,27.6188,33.5625,1.1813,,0.005225000000000257,6.325187884165971,5.838814959986347,non_fall
6.540069,4.845,-3.1869,-2.5254,1.4809,4.5269,-0.8999,27.6188,33.5625,1.1813,,0.03295799999999982,6.325187884165971,5.933182973500454,non_fall
6.542514,4.845,-3.1869,-2.5254,3.2228,3.4521,-1.1942,27.6188,33.5625,1.1813,,0.0024449999999998084,6.325187884165971,6.0087800351513545,non_fall
6.56006,4.845,-3.1869,-2.5254,3.2228,3.4521,-1.1942,27.6188,33.5625,1.1813,,0.017546000000000284,6.325187884165971,6.0670375541424075,non_fall
6.562066,2.5726,-4.7895,2.905,3.2228,3.4521,-1.1942,27.6188,33.5625,1.1813,,0.0020059999999997302,6.164138707881256,6.1103673656994575,non_fall
6.564308,2.5726,-4.7895,2.905,3.2228,3.4521,-1.1942,27.6188,33.5625,1.1813,,0.0022419999999998552,6.164138707881256,6.142243088759935,non_fall
6.566911,2.5726,-4.7895,2.905,3.2228,3.4521,-1.1942,25.8,34.8,1.1063,,0.002603000000000577,6.164138707881256,6.16709858771934,non_fall
6.601261,2.5726,-4.7895,2.905,3.2228,3.4521,-1.1942,25.8,34.8,1.1063,,0.03434999999999988,6.164138707881256,6.190064464447968,non_fall
6.604395,2.5726,-4.7895,2.905,3.8846,1.1181,-2.2719,25.8,34.8,1.1063,,0.003134000000000192,6.164138707881256,6.216579904397948,non_fall
6.622576,2.5726,-4.7895,2.905,3.8846,1.1181,-2.2719,25.8,34.8,1.1063,,0.018180999999999337,6.164138707881256,6.251924103393851,non_fall
6.627002,2.5726,-4.7895,2.905,3.8846,1.1181,-2.2719,25.8,34.8,1.1063,,0.004426000000000485,6.164138707881256,6.3007120972232995,non_fall
6.629574,3.1565,-5.2972,-2.2527,3.8846,1.1181,-2.2719,25.8,34.8,1.1063,,0.0025719999999997967,6.564943059920626,6.366396198781938,non_fall
6.632934,3.1565,-5.2972,-2.2527,3.8846,1.1181,-2.2719,22.8938,36.1125,-0.15,,0.0033599999999998076,6.564943059920626,6.450808010395033,non_fall
6.661036,3.1565,-5.2972,-2.2527,3.8846,1.1181,-2.2719,22.8938,36.1125,-0.15,,0.028102000000000515,6.564943059920626,6.553770281853654,non_fall
6.664565,3.1565,-5.2972,-2.2527,2.1406,2.295,-1.9462,22.8938,36.1125,-0.15,,0.0035289999999994492,6.564943059920626,6.672806919653371,non_fall
6.667608,3.1565,-5.2972,-2.2527,2.1406,2.295,-1.9462,22.8938,36.1125,-0.15,,0.003043000000000795,6.564943059920626,6.802984099378309,non_fall
6.682275,0.3297,-3.5343,-5.8972,2.1406,2.295,-1.9462,22.8938,36.1125,-0.15,,0.01466699999999932,6.883091341831808,6.936920716339088,non_fall
6.686737,0.3297,-3.5343,-5.8972,2.1406,2.295,-1.9462,22.8938,36.1125,-0.15,,0.004462000000000188,6.883091341831808,7.065005493030775,non_fall
6.688784,0.3297,-3.5343,-5.8972,2.1406,2.295,-1.9462,20.325,37.2,-2.4938,,0.002047000000000132,6.883091341831808,7.175848269410441,non_fall
6.743339,0.3297,-3.5343,-5.8972,2.1406,2.295,-1.9462,20.325,37.2,-2.4938,,0.05455499999999969,6.883091341831808,7.256976335940893,non_fall
6.747288,0.3297,-3.5343,-5.8972,2.1406,2.295,-1.9462,20.325,37.2,-2.4938,,0.003949000000000424,6.883091341831808,7.295765019275638,non_fall
6.749764,0.3297,-3.5343,-5.8972,2.1406,2.295,-1.9462,20.325,37.2,-2.4938,,0.0024759999999997007,6.883091341831808,7.280563786153933,non_fall
6.75191,0.3297,-3.5343,-5.8972,1.8478,2.4142,-1.2767,20.325,37.2,-2.4938,,0.002145999999999759,6.883091341831808,7.201942691814533,non_fall
6.755422,0.0113,-1.5231,-7.4356,1.8478,2.4142,-1.2767,20.325,37.2,-2.4938,,0.0035120000000006257,7.5900005704874625,7.05394008858547,non_fall
6.769244,0.0113,-1.5231,-7.4356,1.8478,2.4142,-1.2767,17.3813,38.0438,-5.4188,,0.013821999999999335,7.5900005704874625,6.835148032904443,non_fall
6.772381,0.0113,-1.5231,-7.4356,1.8478,2.4142,-1.2767,17.3813,38.0438,-5.4188,,0.0031370000000006115,7.5900005704874625,6.549440840027056,non_fall
6.801566,0.0113,-1.5231,-7.4356,1.8478,2.4142,-1.2767,17.3813,38.0438,-5.4188,,0.029185000000000016,7.5900005704874625,6.206152986798711,non_fall
6.803822,0.0113,-1.5231,-7.4356,1.8478,2.4142,-1.2767,17.3813,38.0438,-5.4188,,0.0022560000000000358,7.5900005704874625,5.819558825449088,non_fall
6.805113,0.0113,-1.5231,-7.4356,0.8169,0.1596,-1.4286,17.3813,38.0438,-5.4188,,0.0012910000000001531,7.5900005704874625,5.407601940628595,non_fall
6.806883,1.5091,-1.3517,1.5527,0.8169,0.1596,-1.4286,17.3813,38.0438,-5.4188,,0.0017699999999996052,2.5525189499786287,4.989961768409489,non_fall
6.825707,1.5091,-1.3517,1.5527,0.8169,0.1596,-1.4286,17.3813,38.0438,-5.4188,,0.018824000000000396,2.5525189499786287,4.585710685862821,non_fall
6.829622,1.5091,-1.3517,1.5527,0.8169,0.1596,-1.4286,13.9313,39.0375,-7.9125,,0.003914999999999225,2.5525189499786287,4.21095659981371,non_fall
6.861439,1.5091,-1.3517,1.5527,0.8169,0.1596,-1.4286,13.9313,39.0375,-7.9125,,0.031817000000000206,2.5525189499786287,3.8769136803890425,non_fall
6.865247,1.5091,-1.3517,1.5527,0.8169,0.1596,-1.4286,13.9313,39.0375,-7.9125,,0.0038080000000002556,2.5525189499786287,3.5887615226407426,non_fall
6.867322,1.5091,-1.3517,1.5527,-1.9669,0.742,-0.3801,13.9313,39.0375,-7.9125,,0.002074999999999605,2.5525189499786287,3.345475884439061,non_fall
6.870092,-0.1215,0.3883,-3.8057,-1.9669,0.742,-0.3801,13.9313,39.0375,-7.9125,,0.002769999999999939,3.827387049933675,3.1406128205669877,non_fall
6.88695,-0.1215,0.3883,-3.8057,-1.9669,0.742,-0.3801,13.9313,39.0375,-7.9125,,0.01685800000000004,3.827387049933675,2.9638547929297467,non_fall
6.889573,-0.1215,0.3883,-3.8057,-1.9669,0.742,-0.3801,11.175,39.7125,-9.975,,0.002623000000000708,3.827387049933675,2.8030084077065,non_fall
6.92107,-0.1215,0.3883,-3.8057,-1.9669,0.742,-0.3801,11.175,39.7125,-9.975,,0.031496999999999886,3.827387049933675,2.64609467939555,non_fall
6.924186,-0.1215,0.3883,-3.8057,-1.9669,0.742,-0.3801,11.175,39.7125,-9.975,,0.0031159999999994525,3.827387049933675,2.4831988011326698,non_fall
6.925959,0.218,0.7261,-1.7573,-1.9669,0.742,-0.3801,11.175,39.7125,-9.975,,0.0017730000000000246,1.913856969577403,2.307833560455352,non_fall
6.941043,0.218,0.7261,-1.7573,-0.8395,0.0482,-0.9479,11.175,39.7125,-9.975,,0.015083999999999875,1.913856969577403,2.1176911624892742,non_fall
6.961132,0.218,0.7261,-1.7573,-0.8395,0.0482,-0.9479,11.175,39.7125,-9.975,,0.020089000000000468,1.913856969577403,1.914778429668159,non_fall
6.966916,0.218,0.7261,-1.7573,-0.8395,0.0482,-0.9479,8.3813,40.0688,-11.9062,,0.005784000000000233,1.913856969577403,1.7050180593676192,non_fall
6.969587,0.218,0.7261,-1.7573,-0.8395,0.0482,-0.9479,8.3813,40.0688,-11.9062,,0.002670999999999424,1.913856969577403,1.4974404005039794,non_fall
6.987754,-0.3139,0.4353,0.3015,-0.8395,0.0482,-0.9479,8.3813,40.0688,-11.9062,,0.018167000000000044,0.6155660403238633,1.3031007076076657,non_fall
6.992133,-0.3139,0.4353,0.3015,-0.8395,0.0482,-0.9479,8.3813,40.0688,-11.9062,,0.004379000000000133,0.6155660403238633,1.1338603404741494,non_fall
7.001796,-0.3139,0.4353,0.3015,0.2957,-0.6794,-0.225,8.3813,40.0688,-11.9062,,0.009662999999999755,0.6155660403238633,1.0011737979133757,non_fall
7.026215,-0.3139,0.4353,0.3015,0.2957,-0.6794,-0.225,8.3813,40.0688,-11.9062,,0.02441899999999997,0.6155660403238633,0.9150143346379848,non_fall
7.028915,-0.3139,0.4353,0.3015,0.2957,-0.6794,-0.225,8.3813,40.0688,-11.9062,,0.0026999999999999247,0.6155660403238633,0.883038901612391,non_fall
7.030644,-0.3139,0.4353,0.3015,0.2957,-0.6794,-0.225,5.5875,40.4062,-14.1563,,0.0017290000000000916,0.6155660403238633,0.910044419969309,non_fall
7.039744,0.5809,0.1156,1.491,0.2957,-0.6794,-0.225,5.5875,40.4062,-14.1563,,0.009100000000000108,1.6043344944244018,0.9977166595766752,non_fall
7.041862,0.5809,0.1156,1.491,0.2957,-0.6794,-0.225,5.5875,40.4062,-14.1563,,0.0021180000000002863,1.6043344944244018,1.1446314290071864,non_fall
7.059889,0.5809,0.1156,1.491,-0.0848,0.863,-0.3331,5.5875,40.4062,-14.1563,,0.018027000000000015,1.6043344944244018,1.346443543089375,non_fall
7.086131,0.5809,0.1156,1.491,-0.0848,0.863,-0.3331,5.5875,40.4062,-14.1563,,0.026241999999999877,1.6043344944244018,1.5961997266944983,non_fall
7.088504,0.5809,0.1156,1.491,-0.0848,0.863,-0.3331,5.5875,40.4062,-14.1563,,0.0023730000000004026,1.6043344944244018,1.8847367666127377,non_fall
7.094481,0.5809,0.1156,1.491,-0.0848,0.863,-0.3331,3.45,40.35,-15.75,,0.005976999999999677,1.6043344944244018,2.2011611592678544,non_fall
7.112442,0.5809,0.1156,1.491,-0.0848,0.863,-0.3331,3.45,40.35,-15.75,,0.01796099999999967,1.6043344944244018,2.5334298939052746,non_fall
7.113936,0.8998,0.9998,-2.5273,-0.0848,0.863,-0.3331,3.45,40.35,-15.75,,0.0014940000000001064,2.86295046586559,2.8690481634605693,non_fall
