time,ax,ay,az,wx,wy,wz,Bx,By,Bz,Unnamed: 10,time_diff,acc_mag,acc_mag_filtered,label
0.144817,0.0,0.0,0.0,0.0,0.0,0.0,0.0,0.0,0.0,,0.0,0.0,0.0014447720370793604,non_fall
0.145409,0.0,0.0,0.0,0.0,0.0,0.0,0.0,0.0,0.0,,0.0005920000000000092,0.0,0.0010593364365578722,non_fall
0.145979,0.0,0.0,0.0,0.0,0.0,0.0,0.0,0.0,0.0,,0.0005699999999999872,0.0,0.00043879770990338553,non_fall
0.14649,0.0,0.0,0.0,0.0,0.0,0.0,0.0,0.0,0.0,,0.0005110000000000114,0.0,-0.00040534803710275905,non_fall
0.146864,0.0,0.0,0.0,0.0,0.0,0.0,0.0,0.0,0.0,,0.00037399999999998546,0.0,-0.0014292674879328683,non_fall
0.147487,0.0,0.0,0.0,0.0,0.0,0.0,0.0,0.0,0.0,,0.0006230000000000124,0.0,-0.0025516254801085728,non_fall
0.171314,0.0,0.0,0.0,0.0669,-0.0344,-0.0974,0.0,0.0,0.0,,0.023826999999999987,0.0,-0.003650873630601308,non_fall
0.185859,0.0,0.0,0.0,0.0669,-0.0344,-0.0974,0.0,0.0,0.0,,0.014545000000000002,0.0,-0.0045658212170779,non_fall
0.188158,0.0,0.0,0.0,0.0669,-0.0344,-0.0974,0.0,0.0,0.0,,0.0022989999999999955,0.0,-0.0051001223923139265,non_fall
0.212202,0.0,0.0,0.0,0.0669,-0.0344,-0.0974,0.0,0.0,0.0,,0.02404400000000001,0.0,-0.005030989911042505,non_fall
0.213683,0.0,0.0,0.0,0.0669,-0.0344,-0.0974,0.0,0.0,0.0,,0.00148100000000001,0.0,-0.004122000568887563,non_fall
0.214521,0.0,0.0,0.0,0.014,-0.0155,-0.0557,0.0,0.0,0.0,,0.0008379999999999777,0.0,-0.0021393195665819734,non_fall
0.215264,0.0,0.0,0.0,0.014,-0.0155,-0.0557,0.0,0.0,0.0,,0.0007430000000000214,0.0,0.0011299077235014249,non_fall
0.239442,0.0,0.0,0.0,0.014,-0.0155,-0.0557,0.0,0.0,0.0,,0.024177999999999977,0.0,0.005858788252718676,non_fall
0.241673,0.0,0.0,0.0,0.014,-0.0155,-0.0557,-24.6375,38.475,6.7688,,0.0022310000000000108,0.0,0.012163723488022748,non_fall
0.27411,0.0,0.0,0.0,0.014,-0.0155,-0.0557,-24.6375,38.475,6.7688,,0.03243700000000002,0.0,0.02009155851479641,non_fall
0.276622,0.0,0.0,0.0,0.014,-0.0155,-0.0557,-24.6375,38.475,6.7688,,0.0025119999999999587,0.0,0.02961280432468079,non_fall
0.278694,-0.0508,0.0259,0.045,0.014,-0.0155,-0.0557,-24.6375,38.475,6.7688,,0.0020720000000000183,0.07263917675744956,0.04062198150456659,non_fall
0.294782,-0.0508,0.0259,0.045,-0.0019,-0.0153,-0.0008,-24.6375,38.475,6.7688,,0.01608799999999999,0.07263917675744956,0.052944689891391575,non_fall
0.296327,-0.0508,0.0259,0.045,-0.0019,-0.0153,-0.0008,-24.8813,37.5375,7.0875,,0.0015450000000000186,0.07263917675744956,0.0663495710918872,non_fall
0.298314,-0.0508,0.0259,0.045,-0.0019,-0.0153,-0.0008,-24.8813,37.5375,7.0875,,0.0019870000000000165,0.07263917675744956,0.0805627269114571,non_fall
0.31816,-0.0508,0.0259,0.045,-0.0019,-0.0153,-0.0008,-24.8813,37.5375,7.0875,,0.019845999999999975,0.07263917675744956,0.0952827154541876,non_fall
0.335745,0.0288,0.1013,0.0861,-0.0019,-0.0153,-0.0008,-24.8813,37.5375,7.0875,,0.017585000000000017,0.13603065830907385,0.11019532600358592,non_fall
0.337566,0.0288,0.1013,0.0861,-0.0019,-0.0153,-0.0008,-24.8813,37.5375,7.0875,,0.0018209999999999615,0.13603065830907385,0.12498799946936773,non_fall
0.355603,0.0288,0.1013,0.0861,-0.0113,0.0155,-0.0058,-24.8813,37.5375,7.0875,,0.018037000000000025,0.13603065830907385,0.1393638195168794,non_fall
0.357213,0.0288,0.1013,0.0861,-0.0113,0.0155,-0.0058,-24.4875,37.5563,6.9938,,0.0016100000000000003,0.13603065830907385,0.1530550242572563,non_fall
0.358693,0.0288,0.1013,0.0861,-0.0113,0.0155,-0.0058,-24.4875,37.5563,6.9938,,0.0014799999999999813,0.13603065830907385,0.16583636466236698,non_fall
0.386907,0.0288,0.1013,0.0861,-0.0113,0.0155,-0.0058,-24.4875,37.5563,6.9938,,0.028214000000000017,0.13603065830907385,0.17753893047342909,non_fall
0.393816,0.1454,0.1249,0.1271,-0.0113,0.0155,-0.0058,-24.4875,37.5563,6.9938,,0.0069089999999999985,0.22999039110362848,0.18806448121603772,non_fall
0.397626,0.1454,0.1249,0.1271,-0.0113,0.0155,-0.0058,-24.4875,37.5563,6.9938,,0.00380999999999998,0.22999039110362848,0.19739863466466673,non_fall
0.413243,0.1454,0.1249,0.1271,0.0027,0.0273,0.0053,-24.4875,37.5563,6.9938,,0.015617000000000048,0.22999039110362848,0.20561931013137796,non_fall
0.437596,0.1454,0.1249,0.1271,0.0027,0.0273,0.0053,-24.4875,37.5563,6.9938,,0.024352999999999958,0.22999039110362848,0.21289602144135114,non_fall
0.44027,0.1454,0.1249,0.1271,0.0027,0.0273,0.0053,-24.4875,37.5563,6.9938,,0.0026740000000000097,0.22999039110362848,0.21947676753392845,non_fall
0.44207,0.1454,0.1249,0.1271,0.0027,0.0273,0.0053,-24.4875,37.4062,7.0125,,0.0018000000000000238,0.22999039110362848,0.22566185728540264,non_fall
0.45426,0.079,0.0978,0.1921,0.0027,0.0273,0.0053,-24.4875,37.4062,7.0125,,0.012189999999999979,0.2295827737440246,0.231766837323638,non_fall
0.456789,0.079,0.0978,0.1921,0.0027,0.0273,0.0053,-24.4875,37.4062,7.0125,,0.0025290000000000035,0.2295827737440246,0.23807893219180046,non_fall
0.495271,0.079,0.0978,0.1921,0.0027,0.0273,0.0053,-24.4875,37.4062,7.0125,,0.038482000000000016,0.2295827737440246,0.24481280352972695,non_fall
0.49886,0.079,0.0978,0.1921,0.0444,0.0463,0.0121,-24.4875,37.4062,7.0125,,0.003589000000000009,0.2295827737440246,0.25207198525976354,non_fall
0.500838,0.079,0.0978,0.1921,0.0444,0.0463,0.0121,-24.45,37.4062,6.9938,,0.0019779999999999798,0.2295827737440246,0.2598220662162892,non_fall
0.502648,0.079,0.0978,0.1921,0.0444,0.0463,0.0121,-24.45,37.4062,6.9938,,0.0018099999999999783,0.2295827737440246,0.26788055550870327,non_fall
0.516433,0.079,0.0978,0.1921,0.0444,0.0463,0.0121,-24.45,37.4062,6.9938,,0.013785000000000047,0.2295827737440246,0.27592634431721413,non_fall
0.51933,0.2466,0.0403,0.1992,0.0444,0.0463,0.0121,-24.45,37.4062,6.9938,,0.0028969999999999274,0.319556395648718,0.2835287694763679,non_fall
0.555239,0.2466,0.0403,0.1992,0.0444,0.0463,0.0121,-24.45,37.4062,6.9938,,0.03590900000000008,0.319556395648718,0.29019276242757847,non_fall
0.558552,0.2466,0.0403,0.1992,0.0283,0.0483,-0.005,-24.45,37.4062,6.9938,,0.0033130000000000104,0.319556395648718,0.29541331499185,non_fall
0.560782,0.2466,0.0403,0.1992,0.0283,0.0483,-0.005,-24.45,37.4062,6.9938,,0.0022299999999999542,0.319556395648718,0.29873079385600987,non_fall
0.562838,0.2466,0.0403,0.1992,0.0283,0.0483,-0.005,-24.5063,37.3313,6.9188,,0.0020559999999999468,0.319556395648718,0.29977918763013406,non_fall
0.573668,0.2466,0.0403,0.1992,0.0283,0.0483,-0.005,-24.5063,37.3313,6.9188,,0.010830000000000006,0.319556395648718,0.2983216620022457,non_fall
0.576556,0.2695,0.0571,-0.0377,0.0283,0.0483,-0.005,-24.5063,37.3313,6.9188,,0.0028880000000000017,0.27805026523993825,0.2942707215253108,non_fall
0.613742,0.2695,0.0571,-0.0377,-0.0088,0.0325,-0.0177,-24.5063,37.3313,6.9188,,0.03718600000000005,0.27805026523993825,0.2876930127550215,non_fall
0.61541,0.2695,0.0571,-0.0377,-0.0088,0.0325,-0.0177,-24.5063,37.3313,6.9188,,0.0016680000000000028,0.27805026523993825,0.2788008944717411,non_fall
0.634639,0.2695,0.0571,-0.0377,-0.0088,0.0325,-0.0177,-24.5063,37.3313,6.9188,,0.01922899999999994,0.27805026523993825,0.2679340207241654,non_fall
0.635926,0.2043,0.0565,-0.0785,-0.0088,0.0325,-0.0177,-24.5063,37.3313,6.9188,,0.0012870000000000381,0.22603758537022112,0.25553432770527834,non_fall
0.637312,0.2043,0.0565,-0.0785,-0.0088,0.0325,-0.0177,-24.5063,37.3313,6.9188,,0.0013859999999999983,0.22603758537022112,0.2421174024903614,non_fall
0.638454,0.2043,0.0565,-0.0785,-0.0088,0.0325,-0.0177,-24.5063,37.35,6.9188,,0.0011419999999999764,0.22603758537022112,0.22824258390940771,non_fall
0.694722,0.2043,0.0565,-0.0785,0.0161,0.0037,0.0331,-24.5063,37.35,6.9188,,0.056267999999999985,0.22603758537022112,0.21448322954878438,non_fall
0.698084,0.2043,0.0565,-0.0785,0.0161,0.0037,0.0331,-24.5063,37.35,6.9188,,0.003362000000000087,0.22603758537022112,0.20139734589319608,non_fall
0.70072,0.2043,0.0565,-0.0785,0.0161,0.0037,0.0331,-24.5063,37.35,6.9188,,0.0026359999999999717,0.22603758537022112,0.18949773373391748,non_fall
0.702958,0.2043,0.0565,-0.0785,0.0161,0.0037,0.0331,-24.5063,37.35,6.9188,,0.0022379999999999622,0.22603758537022112,0.1792207383379653,non_fall
0.705083,0.0365,0.0065,0.1125,0.0161,0.0037,0.0331,-24.5063,37.35,6.9188,,0.0021250000000000435,0.11845146685457299,0.17089407002589344,non_fall
0.707733,0.0365,0.0065,0.1125,0.0161,0.0037,0.0331,-24.4313,37.3875,6.8813,,0.00264999999999993,0.11845146685457299,0.16470669906365676,non_fall
0.724962,0.0365,0.0065,0.1125,0.0161,0.0037,0.0331,-24.4313,37.3875,6.8813,,0.01722900000000005,0.11845146685457299,0.16068632939856886,non_fall
0.753366,0.0365,0.0065,0.1125,-0.0079,-0.0021,0.016,-24.4313,37.3875,6.8813,,0.028403999999999985,0.11845146685457299,0.1586907074472142,non_fall
0.755716,0.1614,0.0601,-0.0367,-0.0079,-0.0021,0.016,-24.4313,37.3875,6.8813,,0.0023500000000000743,0.17609332752833082,0.15841706203873468,non_fall
0.758294,0.1614,0.0601,-0.0367,-0.0079,-0.0021,0.016,-24.4313,37.3875,6.8813,,0.002577999999999969,0.17609332752833082,0.1594300053607344,non_fall
0.760051,0.1614,0.0601,-0.0367,-0.0079,-0.0021,0.016,-24.4313,37.3875,6.8813,,0.0017570000000000086,0.17609332752833082,0.16120409054017773,non_fall
0.761615,0.1614,0.0601,-0.0367,-0.0079,-0.0021,0.016,-24.3563,37.2563,6.8438,,0.0015640000000000098,0.17609332752833082,0.16317457351571085,non_fall
0.784292,0.1614,0.0601,-0.0367,-0.0079,-0.0021,0.016,-24.3563,37.2563,6.8438,,0.022676999999999947,0.17609332752833082,0.1647893448384681,non_fall
0.816987,0.1614,0.0601,-0.0367,0.013,0.0048,0.0129,-24.3563,37.2563,6.8438,,0.03269500000000003,0.17609332752833082,0.16555597441584272,non_fall
0.81995,0.1246,0.0166,0.116,0.013,0.0048,0.0129,-24.3563,37.2563,6.8438,,0.002962999999999938,0.1710459587362414,0.16507944107580458,non_fall
0.822835,0.1246,0.0166,0.116,0.013,0.0048,0.0129,-24.3563,37.2563,6.8438,,0.0028850000000000264,0.1710459587362414,0.16308777447112233,non_fall
0.824655,0.1246,0.0166,0.116,0.013,0.0048,0.0129,-24.3563,37.2563,6.8438,,0.0018200000000000438,0.1710459587362414,0.1594443039601865,non_fall
0.841078,0.1246,0.0166,0.116,0.013,0.0048,0.0129,-24.3563,37.2563,6.8438,,0.016422999999999965,0.1710459587362414,0.15414648485362914,non_fall
0.843523,0.1246,0.0166,0.116,0.013,0.0048,0.0129,-24.1875,37.3688,6.75,,0.0024450000000000305,0.1710459587362414,0.14731246619486155,non_fall
0.873963,0.0868,0.0494,0.0004,0.013,0.0048,0.0129,-24.1875,37.3688,6.75,,0.030440000000000023,0.09987372026714536,0.13915785421279275,non_fall
0.87637,0.0868,0.0494,0.0004,0.013,0.0048,0.0129,-24.1875,37.3688,6.75,,0.002406999999999937,0.09987372026714536,0.1299665282555747,non_fall
0.878341,0.0868,0.0494,0.0004,0.013,0.0048,0.0129,-24.1875,37.3688,6.75,,0.001971000000000056,0.09987372026714536,0.12006041384421591,non_fall
0.897876,0.0868,0.0494,0.0004,0.0027,0.0119,0.0073,-24.1875,37.3688,6.75,,0.01953499999999997,0.09987372026714536,0.10977301093277629,non_fall
0.898986,0.0868,0.0494,0.0004,0.0027,0.0119,0.0073,-24.1875,37.3688,6.75,,0.0011099999999999444,0.09987372026714536,0.0994298769846616,non_fall
0.899694,0.0868,0.0494,0.0004,0.0027,0.0119,0.0073,-24.1125,37.4062,6.675,,0.0007080000000000419,0.09987372026714536,0.08933680406255924,non_fall
0.920337,0.0868,0.0494,0.0004,0.0027,0.0119,0.0073,-24.1125,37.4062,6.675,,0.020642999999999967,0.09987372026714536,0.07977420004557538,non_fall
0.933466,0.0868,0.0494,0.0004,0.0027,0.0119,0.0073,-24.1125,37.4062,6.675,,0.013129000000000057,0.09987372026714536,0.07099495253759522,non_fall
0.934577,0.0302,0.0142,0.031,0.0027,0.0119,0.0073,-24.1125,37.4062,6.675,,0.0011109999999999731,0.04554865530397138,0.06322305285537147,non_fall
0.953647,0.0302,0.0142,0.031,0.0108,-0.0002,0.0215,-24.1125,37.4062,6.675,,0.01907000000000003,0.04554865530397138,0.05665130199738128,non_fall
0.95687,0.0302,0.0142,0.031,0.0108,-0.0002,0.0215,-24.0188,37.5,6.6,,0.003222999999999976,0.04554865530397138,0.05143789901942329,non_fall
0.958573,0.0302,0.0142,0.031,0.0108,-0.0002,0.0215,-24.0188,37.5,6.6,,0.00170300000000001,0.04554865530397138,0.0477027620450242,non_fall
0.987329,0.0302,0.0142,0.031,0.0108,-0.0002,0.0215,-24.0188,37.5,6.6,,0.028756000000000004,0.04554865530397138,0.04552454471200902,non_fall
0.997908,0.0302,0.0142,0.031,0.0108,-0.0002,0.0215,-24.0188,37.5,6.6,,0.010579000000000005,0.04554865530397138,0.04493871882068589,non_fall
1.000935,0.0432,0.0371,0.0115,0.0108,-0.0002,0.0215,-24.0188,37.5,6.6,,0.003026999999999891,0.05809388952377006,0.045936399068199664,non_fall
1.015825,0.0432,0.0371,0.0115,-0.0063,-0.0017,0.0232,-24.0188,37.5,6.6,,0.01489000000000007,0.05809388952377006,0.04846319386060295,non_fall
1.039765,0.0432,0.0371,0.0115,-0.0063,-0.0017,0.0232,-24.0188,37.5,6.6,,0.023940000000000072,0.05809388952377006,0.05241739989051492,non_fall
1.042417,0.0432,0.0371,0.0115,-0.0063,-0.0017,0.0232,-24.0188,37.5,6.6,,0.0026519999999998767,0.05809388952377006,0.05764732213038512,non_fall
1.044235,0.0432,0.0371,0.0115,-0.0063,-0.0017,0.0232,-23.9813,37.4438,6.4313,,0.0018180000000000973,0.05809388952377006,0.06394828538168607,non_fall
1.054187,0.0474,0.0516,0.0145,-0.0063,-0.0017,0.0232,-23.9813,37.4438,6.4313,,0.009951999999999961,0.07155117050055855,0.07106073603251477,non_fall
1.057585,0.0474,0.0516,0.0145,-0.0063,-0.0017,0.0232,-23.9813,37.4438,6.4313,,0.003398000000000012,0.07155117050055855,0.0786714063677967,non_fall
1.09384,0.0474,0.0516,0.0145,-0.0063,-0.0017,0.0232,-23.9813,37.4438,6.4313,,0.036254999999999926,0.07155117050055855,0.08641968022966082,non_fall
1.095809,0.0474,0.0516,0.0145,0.0119,-0.0027,0.0212,-23.9813,37.4438,6.4313,,0.0019690000000001096,0.07155117050055855,0.09391107241109592,non_fall
1.097666,0.0474,0.0516,0.0145,0.0119,-0.0027,0.0212,-23.8313,37.5375,6.4875,,0.0018569999999999975,0.07155117050055855,0.10073910550786826,non_fall
1.100179,0.0474,0.0516,0.0145,0.0119,-0.0027,0.0212,-23.8313,37.5375,6.4875,,0.0025129999999999875,0.07155117050055855,0.10651568380009781,non_fall
1.11695,0.1068,0.0457,0.0878,0.0119,-0.0027,0.0212,-23.8313,37.5375,6.4875,,0.01677100000000009,0.1456144566998758,0.11090815795681593,non_fall
1.120712,0.1068,0.0457,0.0878,0.0119,-0.0027,0.0212,-23.8313,37.5375,6.4875,,0.003761999999999821,0.1456144566998758,0.11367880667137076,non_fall
1.156364,0.1068,0.0457,0.0878,0.0119,-0.0027,0.0212,-23.8313,37.5375,6.4875,,0.03565200000000002,0.1456144566998758,0.11472021264089108,non_fall
1.158451,0.1068,0.0457,0.0878,0.0173,0.0044,0.0176,-23.8313,37.5375,6.4875,,0.00208699999999995,0.1456144566998758,0.11407914577235707,non_fall
1.159615,0.1068,0.0457,0.0878,0.0173,0.0044,0.0176,-23.7188,37.4813,6.4313,,0.001164000000000165,0.1456144566998758,0.11196277429596756,non_fall
1.161327,0.1068,0.0457,0.0878,0.0173,0.0044,0.0176,-23.7188,37.4813,6.4313,,0.0017119999999999358,0.1456144566998758,0.10872397545331343,non_fall
1.175286,0.0506,0.0273,0.0438,0.0173,0.0044,0.0176,-23.7188,37.4813,6.4313,,0.013959000000000055,0.07227786659828858,0.10482633474273877,non_fall
1.178058,0.0506,0.0273,0.0438,0.0173,0.0044,0.0176,-23.7188,37.4813,6.4313,,0.0027719999999999967,0.07227786659828858,0.10079329955492429,non_fall
1.214181,0.0506,0.0273,0.0438,0.0173,0.0044,0.0176,-23.7188,37.4813,6.4313,,0.036122999999999905,0.07227786659828858,0.0971490625520048,non_fall
1.215076,0.0506,0.0273,0.0438,-0.0048,-0.0089,0.0034,-23.7188,37.4813,6.4313,,0.0008950000000000902,0.07227786659828858,0.09436015267626985,non_fall
1.234235,0.0506,0.0273,0.0438,-0.0048,-0.0089,0.0034,-23.7188,37.4813,6.4313,,0.019158999999999926,0.07227786659828858,0.09278596804483831,non_fall
1.234949,0.0506,0.0273,0.0438,-0.0048,-0.0089,0.0034,-23.7188,37.4813,6.4313,,0.0007140000000001034,0.07227786659828858,0.09264412925267539,non_fall
1.235473,0.0645,0.0529,-0.0615,-0.0048,-0.0089,0.0034,-23.7188,37.4813,6.4313,,0.0005239999999999689,0.1036383616234838,0.09399356994921186,non_fall
1.238522,0.0645,0.0529,-0.0615,-0.0048,-0.0089,0.0034,-23.6813,37.5188,6.4688,,0.0030489999999998574,0.1036383616234838,0.0967354655627716,non_fall
1.297895,0.0645,0.0529,-0.0615,-0.0048,-0.0089,0.0034,-23.6813,37.5188,6.4688,,0.05937300000000012,0.1036383616234838,0.10062986568521337,non_fall
1.299261,0.0645,0.0529,-0.0615,-0.0048,-0.0089,0.0034,-23.6813,37.5188,6.4688,,0.0013659999999999783,0.1036383616234838,0.10532455479933289,non_fall
1.300191,0.0645,0.0529,-0.0615,-0.0048,-0.0089,0.0034,-23.6813,37.5188,6.4688,,0.0009300000000000974,0.1036383616234838,0.11039226814011051,non_fall
1.301067,0.0645,0.0529,-0.0615,0.0242,-0.0262,0.0376,-23.6813,37.5188,6.4688,,0.0008759999999998769,0.1036383616234838,0.1153725517455781,non_fall
1.302228,-0.0539,0.0035,0.1294,0.0242,-0.0262,0.0376,-23.6813,37.5188,6.4688,,0.0011609999999999676,0.14022061189425752,0.11981472021389002,non_fall
1.303399,-0.0539,0.0035,0.1294,0.0242,-0.0262,0.0376,-23.6813,37.4438,6.4125,,0.0011710000000000331,0.14022061189425752,0.1233182518828362,non_fall
1.318559,-0.0539,0.0035,0.1294,0.0242,-0.0262,0.0376,-23.6813,37.4438,6.4125,,0.015160000000000062,0.14022061189425752,0.12556678299644225,non_fall
1.355942,-0.0539,0.0035,0.1294,0.0242,-0.0262,0.0376,-23.6813,37.4438,6.4125,,0.037382999999999944,0.14022061189425752,0.12635212979333066,non_fall
1.359159,-0.0539,0.0035,0.1294,0.0242,-0.0262,0.0376,-23.6813,37.4438,6.4125,,0.0032170000000000254,0.14022061189425752,0.12558580128200048,non_fall
1.361043,-0.0539,0.0035,0.1294,0.012,-0.0069,0.0231,-23.6813,37.4438,6.4125,,0.0018839999999999968,0.14022061189425752,0.12329711856382515,non_fall
1.36269,0.0734,0.0539,-0.0379,0.012,-0.0069,0.0231,-23.6813,37.4438,6.4125,,0.001646999999999954,0.09863660578101825,0.11961894082241031,non_fall
1.365137,0.0734,0.0539,-0.0379,0.012,-0.0069,0.0231,-23.6438,37.3688,6.3375,,0.002447000000000088,0.09863660578101825,0.11476377251471245,non_fall
1.388132,0.0734,0.0539,-0.0379,0.012,-0.0069,0.0231,-23.6438,37.3688,6.3375,,0.022994999999999877,0.09863660578101825,0.1089943287424781,non_fall
1.414512,0.0734,0.0539,-0.0379,0.012,-0.0069,0.0231,-23.6438,37.3688,6.3375,,0.02638000000000007,0.09863660578101825,0.1025930450886038,non_fall
1.416924,0.0734,0.0539,-0.0379,0.012,-0.0069,0.0231,-23.6438,37.3688,6.3375,,0.0024120000000000807,0.09863660578101825,0.09583441039611883,non_fall
1.418895,-0.0206,0.0174,0.0703,0.012,-0.0069,0.0231,-23.6438,37.3688,6.3375,,0.001970999999999945,0.0752941564797694,0.08896280253873864,non_fall
1.420315,-0.0206,0.0174,0.0703,0.0208,-0.013,0.0253,-23.6438,37.3688,6.3375,,0.0014199999999999768,0.0752941564797694,0.08217733708601674,non_fall
1.436762,-0.0206,0.0174,0.0703,0.0208,-0.013,0.0253,-23.7,37.3313,6.3563,,0.0164470000000001,0.0752941564797694,0.0756243626958258,non_fall
1.439212,-0.0206,0.0174,0.0703,0.0208,-0.013,0.0253,-23.7,37.3313,6.3563,,0.002449999999999841,0.0752941564797694,0.06939752221810236,non_fall
1.478007,-0.0045,-0.005,0.0534,0.0208,-0.013,0.0253,-23.7,37.3313,6.3563,,0.038795000000000135,0.05382202151536117,0.06354461053907318,non_fall
1.479411,-0.0045,-0.005,0.0534,0.0208,-0.013,0.0253,-23.7,37.3313,6.3563,,0.0014039999999999608,0.05382202151536117,0.05807988330027788,non_fall
1.48032,-0.0045,-0.005,0.0534,0.0208,-0.013,0.0253,-23.7,37.3313,6.3563,,0.0009090000000000487,0.05382202151536117,0.0530000941149328,non_fall
1.495563,-0.0045,-0.005,0.0534,0.035,-0.0068,0.0354,-23.7,37.3313,6.3563,,0.015242999999999896,0.05382202151536117,0.04830225777434419,non_fall
1.498076,-0.0045,-0.005,0.0534,0.035,-0.0068,0.0354,-23.7,37.3313,6.3563,,0.0025129999999999875,0.05382202151536117,0.04400084009614525,non_fall
1.498869,-0.0045,-0.005,0.0534,0.035,-0.0068,0.0354,-23.6813,37.3125,6.3188,,0.0007930000000000437,0.05382202151536117,0.040141876716318727,non_fall
1.520059,-0.0045,-0.005,0.0534,0.035,-0.0068,0.0354,-23.6813,37.3125,6.3188,,0.021190000000000042,0.05382202151536117,0.03681167625730529,non_fall
1.53433,-0.017,-0.0132,-0.0215,0.035,-0.0068,0.0354,-23.6813,37.3125,6.3188,,0.014270999999999923,0.030421867135335397,0.03413842096026264,non_fall
1.535837,-0.017,-0.0132,-0.0215,0.035,-0.0068,0.0354,-23.6813,37.3125,6.3188,,0.001506999999999925,0.030421867135335397,0.03228607837120118,non_fall
1.566826,-0.017,-0.0132,-0.0215,0.0218,-0.0218,0.032,-23.6813,37.3125,6.3188,,0.030989000000000155,0.030421867135335397,0.03144129442036229,non_fall
1.568458,-0.017,-0.0132,-0.0215,0.0218,-0.0218,0.032,-23.6813,37.425,6.3375,,0.0016319999999998558,0.030421867135335397,0.031794948310526865,non_fall
1.56954,-0.017,-0.0132,-0.0215,0.0218,-0.0218,0.032,-23.6813,37.425,6.3375,,0.0010820000000000274,0.030421867135335397,0.03352055923031854,non_fall
1.586306,-0.017,-0.0132,-0.0215,0.0218,-0.0218,0.032,-23.6813,37.425,6.3375,,0.01676600000000006,0.030421867135335397,0.036751800475932586,non_fall
1.596532,0.0032,-0.0462,-0.02,0.0218,-0.0218,0.032,-23.6813,37.425,6.3375,,0.010226000000000068,0.050444821339756966,0.04156120772571374,non_fall
1.599973,0.0032,-0.0462,-0.02,0.0218,-0.0218,0.032,-23.6813,37.425,6.3375,,0.0034410000000000274,0.050444821339756966,0.04794191892221041,non_fall
1.616608,0.0032,-0.0462,-0.02,0.0271,-0.0044,0.0363,-23.6813,37.425,6.3375,,0.016634999999999955,0.050444821339756966,0.05579406577515631,non_fall
1.638299,0.0032,-0.0462,-0.02,0.0271,-0.0044,0.0363,-23.6813,37.425,6.3375,,0.021690999999999905,0.050444821339756966,0.06491735899355919,non_fall
1.640396,0.0032,-0.0462,-0.02,0.0271,-0.0044,0.0363,-23.6813,37.425,6.3375,,0.0020970000000000155,0.050444821339756966,0.07501141873950336,non_fall
1.641664,0.0032,-0.0462,-0.02,0.0271,-0.0044,0.0363,-23.6063,37.5,6.2063,,0.0012680000000000469,0.050444821339756966,0.08568516661863389,non_fall
1.666337,0.0857,-0.0606,-0.0736,0.0271,-0.0044,0.0363,-23.6063,37.5,6.2063,,0.024672999999999945,0.1281944226555898,0.0964756957274653,non_fall
1.669695,0.0857,-0.0606,-0.0736,0.0271,-0.0044,0.0363,-23.6063,37.5,6.2063,,0.003357999999999972,0.1281944226555898,0.10687539192019878,non_fall
1.694501,0.0857,-0.0606,-0.0736,0.0271,-0.0044,0.0363,-23.6063,37.5,6.2063,,0.024806000000000106,0.1281944226555898,0.11636429077763152,non_fall
1.696733,0.0857,-0.0606,-0.0736,0.0152,-0.0008,0.0149,-23.6063,37.5,6.2063,,0.0022320000000000118,0.1281944226555898,0.12444374052641839,non_fall
1.699582,0.0857,-0.0606,-0.0736,0.0152,-0.0008,0.0149,-23.6063,37.5,6.2063,,0.0028489999999998794,0.1281944226555898,0.1306679396687193,non_fall
1.700916,0.0857,-0.0606,-0.0736,0.0152,-0.0008,0.0149,-23.5312,37.5938,6.1688,,0.0013340000000001684,0.1281944226555898,0.13467133338824364,non_fall
1.71501,0.0944,-0.0379,-0.0791,0.0152,-0.0008,0.0149,-23.5312,37.5938,6.1688,,0.014093999999999829,0.12885875988849188,0.1361912042641969,non_fall
1.718332,0.0944,-0.0379,-0.0791,0.0152,-0.0008,0.0149,-23.5312,37.5938,6.1688,,0.003322000000000047,0.12885875988849188,0.13508547515041566,non_fall
1.75469,0.0944,-0.0379,-0.0791,0.0152,-0.0008,0.0149,-23.5312,37.5938,6.1688,,0.03635800000000011,0.12885875988849188,0.13134571695786204,non_fall
1.756833,0.0944,-0.0379,-0.0791,-0.0015,0.0043,0.014,-23.5312,37.5938,6.1688,,0.002143000000000006,0.12885875988849188,0.12510486486293265,non_fall
1.758974,0.0944,-0.0379,-0.0791,-0.0015,0.0043,0.014,-23.5312,37.5938,6.1688,,0.0021409999999999485,0.12885875988849188,0.11663850250952847,non_fall
1.760544,0.0944,-0.0379,-0.0791,-0.0015,0.0043,0.014,-23.4938,37.5,6.0563,,0.0015700000000000713,0.12885875988849188,0.1063580917302979,non_fall
1.776688,0.0944,-0.0379,-0.0791,-0.0015,0.0043,0.014,-23.4938,37.5,6.0563,,0.016143999999999936,0.12885875988849188,0.09479451729732126,non_fall
1.779443,-0.0165,-0.0515,-0.0389,-0.0015,0.0043,0.014,-23.4938,37.5,6.0563,,0.002755000000000063,0.06661613918563579,0.08257104847004579,non_fall
1.821578,-0.0165,-0.0515,-0.0389,-0.0107,0.0019,0.0069,-23.4938,37.5,6.0563,,0.04213499999999981,0.06661613918563579,0.0703663397106569,non_fall
1.822946,-0.0165,-0.0515,-0.0389,-0.0107,0.0019,0.0069,-23.4938,37.5,6.0563,,0.0013680000000000359,0.06661613918563579,0.05886999386375672,non_fall
1.841418,0.0204,-0.0049,-0.0166,-0.0107,0.0019,0.0069,-23.4938,37.5,6.0563,,0.018472000000000044,0.026753130657924878,0.048734749038525364,non_fall
1.842927,0.0204,-0.0049,-0.0166,-0.0107,0.0019,0.0069,-23.4188,37.5938,5.9625,,0.0015089999999999826,0.026753130657924878,0.0405300246134514,non_fall
1.844358,0.0204,-0.0049,-0.0166,-0.0107,0.0019,0.0069,-23.4188,37.5938,5.9625,,0.00143099999999996,0.026753130657924878,0.03470140584863482,non_fall
1.845404,0.0204,-0.0049,-0.0166,-0.0107,0.0019,0.0069,-23.4188,37.5938,5.9625,,0.0010460000000001024,0.026753130657924878,0.031539889334618536,non_fall
1.897946,0.0204,-0.0049,-0.0166,-0.0107,0.0019,0.0069,-23.4188,37.5938,5.9625,,0.05254199999999987,0.026753130657924878,0.031163533662409072,non_fall
1.901489,0.0204,-0.0049,-0.0166,-0.0107,0.0019,0.0069,-23.4188,37.5938,5.9625,,0.003543000000000074,0.026753130657924878,0.03351282818880296,non_fall
1.904011,0.0204,-0.0049,-0.0166,-0.0107,0.0019,0.0069,-23.4188,37.5938,5.9625,,0.002521999999999913,0.026753130657924878,0.038359913862989044,non_fall
1.906517,0.0204,-0.0049,-0.0166,-0.0107,0.0019,0.0069,-23.475,37.725,5.9625,,0.0025060000000001192,0.026753130657924878,0.04533084302125391,non_fall
1.90975,0.0204,-0.0049,-0.0166,-0.0029,-0.0184,0.0128,-23.475,37.725,5.9625,,0.0032330000000000414,0.026753130657924878,0.05393915365409678,non_fall
1.912252,-0.0554,0.0698,0.0554,-0.0029,-0.0184,0.0128,-23.475,37.725,5.9625,,0.0025020000000000042,0.10493026255566122,0.06362788719956115,non_fall
1.919129,-0.0554,0.0698,0.0554,-0.0029,-0.0184,0.0128,-23.475,37.725,5.9625,,0.006877000000000022,0.10493026255566122,0.0738157693022397,non_fall
1.957333,-0.0554,0.0698,0.0554,-0.0029,-0.0184,0.0128,-23.475,37.725,5.9625,,0.038203999999999905,0.10493026255566122,0.08394212757749141,non_fall
1.95997,-0.0554,0.0698,0.0554,-0.0029,-0.0184,0.0128,-23.475,37.725,5.9625,,0.0026370000000000005,0.10493026255566122,0.09350513884982932,non_fall
1.961857,-0.0554,0.0698,0.0554,-0.018,0.021,-0.0055,-23.475,37.725,5.9625,,0.001886999999999972,0.10493026255566122,0.1020895954265067,non_fall
1.963578,-0.0554,0.0698,0.0554,-0.018,0.021,-0.0055,-23.5125,37.7812,5.925,,0.0017210000000000836,0.10493026255566122,0.10938293822060292,non_fall
1.967782,0.066,0.0823,-0.0151,-0.018,0.021,-0.0055,-23.5125,37.7812,5.925,,0.0042039999999998745,0.10657063385379671,0.11518072391919526,non_fall
1.988066,0.066,0.0823,-0.0151,-0.018,0.021,-0.0055,-23.5125,37.7812,5.925,,0.02028400000000019,0.10657063385379671,0.11938425473077385,non_fall
2.014985,0.066,0.0823,-0.0151,-0.018,0.021,-0.0055,-23.5125,37.7812,5.925,,0.026918999999999693,0.10657063385379671,0.12199365698380213,non_fall
2.017554,0.066,0.0823,-0.0151,-0.018,0.021,-0.0055,-23.5125,37.7812,5.925,,0.0025690000000002655,0.10657063385379671,0.12309938555102846,non_fall
2.01942,0.066,0.0823,-0.0151,-0.004,0.0081,0.0205,-23.5125,37.7812,5.925,,0.0018660000000001453,0.10657063385379671,0.12287414559011847,non_fall
2.021078,-0.103,0.03,0.0929,-0.004,0.0081,0.0205,-23.5125,37.7812,5.925,,0.0016579999999999373,0.14191338907939588,0.12156576040992735,non_fall
2.039069,-0.103,0.03,0.0929,-0.004,0.0081,0.0205,-23.5125,37.7812,5.925,,0.017990999999999868,0.14191338907939588,0.11948986953717752,non_fall
2.041424,-0.103,0.03,0.0929,-0.004,0.0081,0.0205,-23.4938,37.875,5.8688,,0.002355000000000107,0.14191338907939588,0.11702003662244288,non_fall
2.056484,-0.103,0.03,0.0929,-0.004,0.0081,0.0205,-23.4938,37.875,5.8688,,0.015060000000000073,0.14191338907939588,0.1145725367922698,non_fall
2.076261,0.0416,0.089,0.018,-0.004,0.0081,0.0205,-23.4938,37.875,5.8688,,0.019776999999999934,0.09987772524442073,0.11258413541884497,non_fall
2.080313,0.0416,0.089,0.018,-0.004,0.0081,0.0205,-23.4938,37.875,5.8688,,0.0040519999999997225,0.09987772524442073,0.11148325959039906,non_fall
2.094536,0.0416,0.089,0.018,0.0005,0.0069,0.0285,-23.4938,37.875,5.8688,,0.014223000000000319,0.09987772524442073,0.11165722421662523,non_fall
2.097576,0.0416,0.089,0.018,0.0005,0.0069,0.0285,-23.4563,37.9313,5.9438,,0.0030399999999999316,0.09987772524442073,0.11341965334601939,non_fall
2.100731,0.0416,0.089,0.018,0.0005,0.0069,0.0285,-23.4563,37.9313,5.9438,,0.003155000000000019,0.09987772524442073,0.1169824553052543,non_fall
2.124184,0.0416,0.089,0.018,0.0005,0.0069,0.0285,-23.4563,37.9313,5.9438,,0.023452999999999946,0.09987772524442073,0.12243583702883346,non_fall
2.138877,0.0422,0.147,0.0079,0.0005,0.0069,0.0285,-23.4563,37.9313,5.9438,,0.014692999999999845,0.15314127464534175,0.12973834264039852,non_fall
2.141199,0.0422,0.147,0.0079,0.0005,0.0069,0.0285,-23.4563,37.9313,5.9438,,0.0023219999999999352,0.15314127464534175,0.1387171928173825,non_fall
2.159626,0.0422,0.147,0.0079,0.0014,-0.0037,0.0263,-23.4563,37.9313,5.9438,,0.01842699999999997,0.15314127464534175,0.149077752200242,non_fall
2.161409,0.0422,0.147,0.0079,0.0014,-0.0037,0.0263,-23.4563,37.9313,5.9438,,0.00178300000000009,0.15314127464534175,0.16042030674369012,non_fall
2.162805,0.0422,0.147,0.0079,0.0014,-0.0037,0.0263,-23.475,37.8375,5.9438,,0.0013960000000001749,0.15314127464534175,0.17226264498833382,non_fall
2.187398,0.0422,0.147,0.0079,0.0014,-0.0037,0.0263,-23.475,37.8375,5.9438,,0.024592999999999865,0.15314127464534175,0.18406763081523678,non_fall
2.195393,0.1847,0.1125,0.0548,0.0014,-0.0037,0.0263,-23.475,37.8375,5.9438,,0.007995000000000196,0.223099484535487,0.19527515017006197,non_fall
2.199483,0.1847,0.1125,0.0548,0.0014,-0.0037,0.0263,-23.475,37.8375,5.9438,,0.004089999999999705,0.223099484535487,0.2053371046933662,non_fall
2.21536,0.1847,0.1125,0.0548,0.0104,0.025,-0.0017,-23.475,37.8375,5.9438,,0.01587700000000014,0.223099484535487,0.21375297018652706,non_fall
2.238065,0.1847,0.1125,0.0548,0.0104,0.025,-0.0017,-23.4188,37.8188,5.8688,,0.022705000000000197,0.223099484535487,0.2201028040730676,non_fall
2.240671,0.1847,0.1125,0.0548,0.0104,0.025,-0.0017,-23.4188,37.8188,5.8688,,0.002605999999999664,0.223099484535487,0.224075041825101,non_fall
2.242058,0.1847,0.1125,0.0548,0.0104,0.025,-0.0017,-23.4188,37.8188,5.8688,,0.0013870000000002491,0.223099484535487,0.22548761636922499,non_fall
2.254627,0.1973,0.0506,0.0705,0.0104,0.025,-0.0017,-23.4188,37.8188,5.8688,,0.012569000000000052,0.21554094738587376,0.22430207904198657,non_fall
2.256895,0.1973,0.0506,0.0705,0.0104,0.025,-0.0017,-23.4188,37.8188,5.8688,,0.0022679999999999367,0.21554094738587376,0.2206310174562475,non_fall
2.299199,0.1973,0.0506,0.0705,0.0104,0.025,-0.0017,-23.4188,37.8188,5.8688,,0.04230400000000012,0.21554094738587376,0.21473912210182317,non_fall
2.301372,0.1973,0.0506,0.0705,0.0104,0.025,-0.0017,-23.4188,37.8188,5.8688,,0.0021729999999999805,0.21554094738587376,0.20703791952478154,non_fall
2.302686,0.1973,0.0506,0.0705,0.0082,0.0166,0.0081,-23.4188,37.8188,5.8688,,0.0013139999999998153,0.21554094738587376,0.1980737278499451,non_fall
2.304249,0.1973,0.0506,0.0705,0.0082,0.0166,0.0081,-23.4,37.95,5.8688,,0.001562999999999981,0.21554094738587376,0.1885081544437752,non_fall
2.320463,0.0827,0.095,-0.101,0.0082,0.0166,0.0081,-23.4,37.95,5.8688,,0.016214000000000173,0.1614474837214876,0.17909079250133583,non_fall
2.32329,0.0827,0.095,-0.101,0.0082,0.0166,0.0081,-23.4,37.95,5.8688,,0.002826999999999913,0.1614474837214876,0.1706247848979344,non_fall
2.355666,0.0827,0.095,-0.101,0.0082,0.0166,0.0081,-23.4,37.95,5.8688,,0.03237599999999974,0.1614474837214876,0.1639272401467046,non_fall
2.358498,0.0827,0.095,-0.101,-0.0006,0.0099,0.0305,-23.4,37.95,5.8688,,0.0028320000000001677,0.1614474837214876,0.15978741473667932,non_fall
2.360027,0.0827,0.095,-0.101,-0.0006,0.0099,0.0305,-23.25,37.95,5.9813,,0.0015290000000001136,0.1614474837214876,0.15892571158905663,non_fall
2.361932,0.0827,0.095,-0.101,-0.0006,0.0099,0.0305,-23.25,37.95,5.9813,,0.0019049999999998235,0.1614474837214876,0.161956142742811,non_fall
2.374696,0.0827,0.095,-0.101,-0.0006,0.0099,0.0305,-23.25,37.95,5.9813,,0.01276400000000022,0.1614474837214876,0.16935450365946897,non_fall
2.376667,0.1193,0.1012,-0.0653,-0.0006,0.0099,0.0305,-23.25,37.95,5.9813,,0.001970999999999723,0.16952291880450854,0.18143433444541912,non_fall
2.416756,0.1193,0.1012,-0.0653,0.0373,0.0618,0.0559,-23.25,37.95,5.9813,,0.04008900000000004,0.16952291880450854,0.19833260992258386,non_fall
2.419562,0.1193,0.1012,-0.0653,0.0373,0.0618,0.0559,-23.25,37.95,5.9813,,0.002806000000000086,0.16952291880450854,0.2200066303041211,non_fall
2.437289,0.2867,0.1198,0.0149,0.0373,0.0618,0.0559,-23.25,37.95,5.9813,,0.017726999999999826,0.31108027902777763,0.24624241995818383,non_fall
2.439828,0.2867,0.1198,0.0149,0.0373,0.0618,0.0559,-23.1375,38.0063,5.9625,,0.002539000000000069,0.31108027902777763,0.2766730580265083,non_fall
2.441944,0.2867,0.1198,0.0149,0.0373,0.0618,0.0559,-23.1375,38.0063,5.9625,,0.0021160000000000068,0.31108027902777763,0.31080353128877114,non_fall
2.443359,0.2867,0.1198,0.0149,0.0373,0.0618,0.0559,-23.1375,38.0063,5.9625,,0.0014150000000001661,0.31108027902777763,0.34803820396530516,non_fall
2.495668,0.2867,0.1198,0.0149,0.0667,0.0632,0.0954,-23.1375,38.0063,5.9625,,0.05230900000000016,0.31108027902777763,0.38770818891434583,non_fall
2.499713,0.3806,0.27,-0.2635,0.0667,0.0632,0.0954,-23.1375,38.0063,5.9625,,0.004044999999999632,0.5358998133979895,0.4290973430672925,non_fall
2.502344,0.3806,0.27,-0.2635,0.0667,0.0632,0.0954,-23.1375,38.0063,5.9625,,0.00263100000000005,0.5358998133979895,0.47146562634583417,non_fall
2.504,0.3806,0.27,-0.2635,0.0667,0.0632,0.0954,-23.1375,38.0063,5.9625,,0.0016560000000001018,0.5358998133979895,0.5140676053739075,non_fall
2.505526,0.3806,0.27,-0.2635,0.0667,0.0632,0.0954,-23.1375,38.0063,5.9625,,0.0015260000000001384,0.5358998133979895,0.5561643129773589,non_fall
2.506951,0.3806,0.27,-0.2635,0.0667,0.0632,0.0954,-22.95,37.95,5.925,,0.0014249999999997875,0.5358998133979895,0.5970297864198517,non_fall
2.521672,0.3806,0.27,-0.2635,0.0667,0.0632,0.0954,-22.95,37.95,5.925,,0.014721000000000206,0.5358998133979895,0.6359576922888374,non_fall
2.555937,0.3806,0.27,-0.2635,0.0025,0.0367,0.0821,-22.95,37.95,5.925,,0.03426499999999999,0.5358998133979895,0.6722753049953969,non_fall
2.558351,0.5307,0.41,-0.4694,0.0025,0.0367,0.0821,-22.95,37.95,5.925,,0.002413999999999916,0.8185834410736634,0.7053696816611464,non_fall
2.560173,0.5307,0.41,-0.4694,0.0025,0.0367,0.0821,-22.95,37.95,5.925,,0.0018219999999997682,0.8185834410736634,0.7347245283637311,non_fall
2.561516,0.5307,0.41,-0.4694,0.0025,0.0367,0.0821,-22.95,37.95,5.925,,0.0013430000000003162,0.8185834410736634,0.7599589583801246,non_fall
2.563764,0.5307,0.41,-0.4694,0.0025,0.0367,0.0821,-22.8563,37.9313,5.9625,,0.0022479999999998057,0.8185834410736634,0.7808554140012481,non_fall
2.586382,0.5307,0.41,-0.4694,0.0025,0.0367,0.0821,-22.8563,37.9313,5.9625,,0.022618000000000027,0.8185834410736634,0.7973658542914831,non_fall
2.622668,0.5307,0.41,-0.4694,0.0025,0.0367,0.0821,-22.8563,37.9313,5.9625,,0.03628600000000004,0.8185834410736634,0.8095913748881404,non_fall
2.625016,0.5307,0.41,-0.4694,-0.0089,0.0191,0.0602,-22.8563,37.9313,5.9625,,0.0023480000000000167,0.8185834410736634,0.8177372497844232,non_fall
2.626688,0.5307,0.41,-0.4694,-0.0089,0.0191,0.0602,-22.8563,37.9313,5.9625,,0.0016720000000001178,0.8185834410736634,0.8220506618640857,non_fall
2.628472,0.4963,0.5141,-0.3006,-0.0089,0.0191,0.0602,-22.8563,37.9313,5.9625,,0.0017839999999997858,0.7752243933210564,0.8227516480624765,non_fall
2.6407,0.4963,0.5141,-0.3006,-0.0089,0.0191,0.0602,-22.6875,37.8563,5.9625,,0.012227999999999906,0.7752243933210564,0.8199692708578296,non_fall
2.643581,0.4963,0.5141,-0.3006,-0.0089,0.0191,0.0602,-22.6875,37.8563,5.9625,,0.0028810000000003555,0.7752243933210564,0.8136948244525398,non_fall
2.675198,0.4963,0.5141,-0.3006,-0.0089,0.0191,0.0602,-22.6875,37.8563,5.9625,,0.031616999999999784,0.7752243933210564,0.803761877494799,non_fall
2.677958,0.4963,0.5141,-0.3006,-0.0089,0.0191,0.0602,-22.6875,37.8563,5.9625,,0.0027599999999998737,0.7752243933210564,0.7898593153546224,non_fall
2.679807,0.4336,0.5593,0.1224,-0.0089,0.0191,0.0602,-22.6875,37.8563,5.9625,,0.0018489999999999895,0.7181971943693458,0.7715790159067354,non_fall
2.694323,0.4336,0.5593,0.1224,0.0115,0.0834,-0.022,-22.6875,37.8563,5.9625,,0.014515999999999973,0.7181971943693458,0.7484952522943114,non_fall
2.696302,0.4336,0.5593,0.1224,0.0115,0.0834,-0.022,-22.6875,37.8563,5.9625,,0.001979000000000397,0.7181971943693458,0.7202687150476491,non_fall
2.698091,0.4336,0.5593,0.1224,0.0115,0.0834,-0.022,-22.4813,37.875,5.8875,,0.0017889999999995965,0.7181971943693458,0.6867640557844499,non_fall
2.717519,0.4336,0.5593,0.1224,0.0115,0.0834,-0.022,-22.4813,37.875,5.8875,,0.019428,0.7181971943693458,0.6481662606781303,lateral_fall
2.735527,0.4336,0.5593,0.1224,0.0115,0.0834,-0.022,-22.4813,37.875,5.8875,,0.018008000000000024,0.7181971943693458,0.6050789729021856,lateral_fall
2.737684,0.4111,0.2793,0.1108,0.0115,0.0834,-0.022,-22.4813,37.875,5.8875,,0.0021569999999999645,0.5092036331370781,0.5585884342028706,lateral_fall
2.757289,0.4111,0.2793,0.1108,0.0977,0.1408,-0.0334,-22.4813,37.875,5.8875,,0.019605000000000317,0.5092036331370781,0.5102804839966767,lateral_fall
2.759781,0.4111,0.2793,0.1108,0.0977,0.1408,-0.0334,-22.5375,37.8375,5.7938,,0.0024919999999997167,0.5092036331370781,0.46220374104646933,lateral_fall
2.761169,0.4111,0.2793,0.1108,0.0977,0.1408,-0.0334,-22.5375,37.8375,5.7938,,0.001388000000000389,0.5092036331370781,0.41677729984240697,lateral_fall
2.78683,0.4111,0.2793,0.1108,0.0977,0.1408,-0.0334,-22.5375,37.8375,5.7938,,0.025660999999999934,0.5092036331370781,0.37664490538358325,lateral_fall
2.801222,0.4111,0.2793,0.1108,0.0977,0.1408,-0.0334,-22.5375,37.8375,5.7938,,0.01439199999999996,0.5092036331370781,0.34448127590177724,lateral_fall
2.803577,0.0974,-0.12,-0.0334,0.0977,0.1408,-0.0334,-22.5375,37.8375,5.7938,,0.002355000000000107,0.15812121932239204,0.32276271670849394,lateral_fall
2.816213,0.0974,-0.12,-0.0334,0.0883,0.1496,0.0349,-22.5375,37.8375,5.7938,,0.012635999999999648,0.15812121932239204,0.31352390844219424,lateral_fall
2.839251,0.0974,-0.12,-0.0334,0.0883,0.1496,0.0349,-22.5375,37.8375,5.7938,,0.023038000000000114,0.15812121932239204,0.3181322774446347,lateral_fall
2.841143,0.0974,-0.12,-0.0334,0.0883,0.1496,0.0349,-22.4625,37.6688,5.775,,0.0018920000000002268,0.15812121932239204,0.33711482189352465,lateral_fall
2.842961,0.0974,-0.12,-0.0334,0.0883,0.1496,0.0349,-22.4625,37.6688,5.775,,0.0018179999999996532,0.15812121932239204,0.37006591114559917,lateral_fall
2.854709,0.1916,-0.2693,-0.533,0.0883,0.1496,0.0349,-22.4625,37.6688,5.775,,0.011748000000000314,0.6271539284737042,0.4156495828833725,lateral_fall
2.857637,0.1916,-0.2693,-0.533,0.0883,0.1496,0.0349,-22.4625,37.6688,5.775,,0.0029279999999998196,0.6271539284737042,0.47169115344606954,lateral_fall
2.895571,0.1916,-0.2693,-0.533,0.0883,0.1496,0.0349,-22.4625,37.6688,5.775,,0.03793399999999991,0.6271539284737042,0.5353370500666008,lateral_fall
2.89787,0.1916,-0.2693,-0.533,0.0043,0.1606,0.016,-22.4625,37.6688,5.775,,0.002299000000000273,0.6271539284737042,0.6032548321541763,lateral_fall
2.899419,0.1916,-0.2693,-0.533,0.0043,0.1606,0.016,-22.4625,37.6688,5.775,,0.0015489999999998005,0.6271539284737042,0.6718493510109438,lateral_fall
2.900344,0.1916,-0.2693,-0.533,0.0043,0.1606,0.016,-22.5563,37.7438,5.7188,,0.0009250000000000647,0.6271539284737042,0.7374813366631819,lateral_fall
2.918835,0.1916,-0.2693,-0.533,0.0043,0.1606,0.016,-22.5563,37.7438,5.7188,,0.018491000000000035,0.6271539284737042,0.7966838681824864,lateral_fall
2.92017,0.4238,-0.1593,-0.8492,0.0043,0.1606,0.016,-22.5563,37.7438,5.7188,,0.0013350000000000861,0.9623531420429821,0.8463751107053065,lateral_fall
2.959267,0.4238,-0.1593,-0.8492,0.0043,0.1606,0.016,-22.5563,37.7438,5.7188,,0.03909699999999994,0.9623531420429821,0.8840618353979359,lateral_fall
2.961812,0.4238,-0.1593,-0.8492,0.0043,0.1606,0.016,-22.5563,37.7438,5.7188,,0.0025450000000000195,0.9623531420429821,0.9080210755768363,lateral_fall
2.963633,0.4238,-0.1593,-0.8492,-0.1262,0.149,0.0518,-22.5563,37.7438,5.7188,,0.0018210000000000726,0.9623531420429821,0.9174423160597103,lateral_fall
2.965513,0.4238,-0.1593,-0.8492,-0.1262,0.149,0.0518,-22.575,37.65,5.5125,,0.0018799999999998818,0.9623531420429821,0.9125133761639743,lateral_fall
2.979145,0.2617,0.0802,-0.8605,-0.1262,0.149,0.0518,-22.575,37.65,5.5125,,0.013631999999999866,0.9029834882211303,0.8944386872131388,lateral_fall
2.982082,0.2617,0.0802,-0.8605,-0.1262,0.149,0.0518,-22.575,37.65,5.5125,,0.0029370000000001895,0.9029834882211303,0.8653857039000861,lateral_fall
3.016115,0.2617,0.0802,-0.8605,-0.139,0.1542,0.1348,-22.575,37.65,5.5125,,0.03403299999999998,0.9029834882211303,0.8283615014131097,lateral_fall
3.017107,0.2617,0.0802,-0.8605,-0.139,0.1542,0.1348,-22.575,37.65,5.5125,,0.000992000000000104,0.9029834882211303,0.7870269006408757,lateral_fall
3.035214,0.2867,0.3973,-0.3828,-0.139,0.1542,0.1348,-22.575,37.65,5.5125,,0.01810699999999965,0.6217555950693165,0.7454605764584957,lateral_fall
3.036664,0.2867,0.3973,-0.3828,-0.139,0.1542,0.1348,-22.575,37.65,5.5125,,0.0014500000000001734,0.6217555950693165,0.7078912758783156,lateral_fall
3.037843,0.2867,0.3973,-0.3828,-0.139,0.1542,0.1348,-22.575,37.65,5.5125,,0.0011790000000000411,0.6217555950693165,0.6784214547496753,lateral_fall
3.038814,0.2867,0.3973,-0.3828,-0.139,0.1542,0.1348,-22.6688,37.6125,5.5312,,0.0009709999999998331,0.6217555950693165,0.6607674712209373,lateral_fall
3.055419,0.2867,0.3973,-0.3828,-0.139,0.1542,0.1348,-22.6688,37.6125,5.5312,,0.016605000000000203,0.6217555950693165,0.6580381898547284,lateral_fall
3.100873,0.2867,0.3973,-0.3828,-0.0983,0.1461,0.2267,-22.6688,37.6125,5.5312,,0.04545399999999988,0.6217555950693165,0.672566964065546,lateral_fall
3.102782,0.2867,0.3973,-0.3828,-0.0983,0.1461,0.2267,-22.6688,37.6125,5.5312,,0.0019089999999999385,0.6217555950693165,0.7058044439357047,lateral_fall
3.103875,0.2867,0.3973,-0.3828,-0.0983,0.1461,0.2267,-22.6313,37.575,5.4375,,0.0010930000000000106,0.6217555950693165,0.7582728856278033,lateral_fall
3.105115,0.4793,0.8499,-0.4271,-0.0983,0.1461,0.2267,-22.6313,37.575,5.4375,,0.0012400000000001299,1.065116383312171,0.8295760055607934,lateral_fall
3.106248,0.4793,0.8499,-0.4271,-0.0983,0.1461,0.2267,-22.6313,37.575,5.4375,,0.0011329999999998286,1.065116383312171,0.9184515180068884,lateral_fall
3.121233,0.4793,0.8499,-0.4271,-0.0983,0.1461,0.2267,-22.6313,37.575,5.4375,,0.014985000000000248,1.065116383312171,1.0228484881107698,lateral_fall
3.155529,0.4793,0.8499,-0.4271,0.1081,0.1244,0.244,-22.6313,37.575,5.4375,,0.03429599999999988,1.065116383312171,1.1400124100158557,lateral_fall
3.1586,0.9585,1.0822,-0.2715,0.1081,0.1244,0.244,-22.6313,37.575,5.4375,,0.003070999999999824,1.4709151369130715,1.2665684936632708,lateral_fall
3.160505,0.9585,1.0822,-0.2715,0.1081,0.1244,0.244,-22.6313,37.575,5.4375,,0.0019050000000002676,1.4709151369130715,1.3986041566859133,lateral_fall
3.161567,0.9585,1.0822,-0.2715,0.1081,0.1244,0.244,-22.6313,37.575,5.4375,,0.0010619999999996743,1.4709151369130715,1.5317610972521896,lateral_fall
3.162663,0.9585,1.0822,-0.2715,0.1081,0.1244,0.244,-22.6313,37.65,5.325,,0.0010959999999999859,1.4709151369130715,1.6613552604621413,lateral_fall
3.183453,0.9585,1.0822,-0.2715,0.1081,0.1244,0.244,-22.6313,37.65,5.325,,0.020790000000000308,1.4709151369130715,1.7825496609293165,lateral_fall
3.21519,0.9585,1.0822,-0.2715,0.3716,0.1433,0.2059,-22.6313,37.65,5.325,,0.031737000000000126,1.4709151369130715,1.8906066550724088,lateral_fall
3.217274,1.6031,1.0524,-0.891,0.3716,0.1433,0.2059,-22.6313,37.65,5.325,,0.0020839999999999748,2.1145581973547096,1.9812373686634883,lateral_fall
3.218488,1.6031,1.0524,-0.891,0.3716,0.1433,0.2059,-22.6313,37.65,5.325,,0.0012139999999996043,2.1145581973547096,2.0510452361829445,lateral_fall
3.219305,1.6031,1.0524,-0.891,0.3716,0.1433,0.2059,-22.6313,37.65,5.325,,0.0008170000000000677,2.1145581973547096,2.0980341126165056,lateral_fall
3.235789,1.6031,1.0524,-0.891,0.3716,0.1433,0.2059,-22.65,37.6125,5.2688,,0.016484000000000165,2.1145581973547096,2.1221296721293434,lateral_fall
3.237754,1.6031,1.0524,-0.891,0.3716,0.1433,0.2059,-22.65,37.6125,5.2688,,0.0019649999999997725,2.1145581973547096,2.1256524740894798,lateral_fall
3.279562,1.6883,0.9038,-1.333,0.3716,0.1433,0.2059,-22.65,37.6125,5.2688,,0.04180800000000007,2.333259593358613,2.1136802319667933,lateral_fall
3.282082,1.6883,0.9038,-1.333,0.3716,0.1433,0.2059,-22.65,37.6125,5.2688,,0.0025200000000000777,2.333259593358613,2.0942398596426717,lateral_fall
3.283397,1.6883,0.9038,-1.333,0.3716,0.1433,0.2059,-22.65,37.6125,5.2688,,0.001314999999999955,2.333259593358613,2.078275161632323,lateral_fall
3.301758,1.6883,0.9038,-1.333,0.9828,0.0158,0.314,-22.65,37.6125,5.2688,,0.01836100000000007,2.333259593358613,2.079346696645175,lateral_fall
3.304175,1.6883,0.9038,-1.333,0.9828,0.0158,0.314,-22.65,37.6125,5.2688,,0.0024169999999998915,2.333259593358613,2.113039222041164,lateral_fall
3.305467,1.6883,0.9038,-1.333,0.9828,0.0158,0.314,-22.425,37.7625,4.9125,,0.001292000000000293,2.333259593358613,2.1960782782725596,lateral_fall
3.32026,1.6883,0.9038,-1.333,0.9828,0.0158,0.314,-22.425,37.7625,4.9125,,0.014793000000000056,2.333259593358613,2.345187044294813,lateral_fall
3.336068,1.6883,0.9038,-1.333,0.9828,0.0158,0.314,-22.425,37.7625,4.9125,,0.015807999999999822,2.333259593358613,2.5757429437753525,lateral_fall
3.337729,1.5543,0.6952,-3.3188,0.9828,0.0158,0.314,-22.425,37.7625,4.9125,,0.0016609999999999125,3.730091817904755,2.900316202593954,lateral_fall
3.35515,1.5543,0.6952,-3.3188,1.4195,-0.455,0.4629,-22.425,37.7625,4.9125,,0.01742100000000013,3.730091817904755,3.3271881134920873,lateral_fall
3.357738,1.5543,0.6952,-3.3188,1.4195,-0.455,0.4629,-22.425,37.7625,4.9125,,0.0025879999999998127,3.730091817904755,3.858960880464295,lateral_fall
3.358748,1.5543,0.6952,-3.3188,1.4195,-0.455,0.4629,-22.0688,37.875,4.1625,,0.0010099999999999554,3.730091817904755,4.491393146707174,lateral_fall
3.385822,1.5543,0.6952,-3.3188,1.4195,-0.455,0.4629,-22.0688,37.875,4.1625,,0.027074000000000265,3.730091817904755,5.212623932387465,lateral_fall
3.398436,1.5543,0.6952,-3.3188,1.4195,-0.455,0.4629,-22.0688,37.875,4.1625,,0.012613999999999681,3.730091817904755,6.002960420025789,lateral_fall
3.400231,2.318,1.6893,-8.0913,1.4195,-0.455,0.4629,-22.0688,37.875,4.1625,,0.001794999999999991,8.584637102405669,6.835371931835295,lateral_fall
3.420411,2.318,1.6893,-8.0913,1.7137,1.2848,0.647,-22.0688,37.875,4.1625,,0.02018000000000031,8.584637102405669,7.676744572875019,lateral_fall
3.423106,2.318,1.6893,-8.0913,1.7137,1.2848,0.647,-22.0688,37.875,4.1625,,0.002695000000000114,8.584637102405669,8.48984184506778,lateral_fall
3.440054,2.318,1.6893,-8.0913,1.7137,1.2848,0.647,-22.0688,37.875,4.1625,,0.01694799999999974,8.584637102405669,9.235845784049847,lateral_fall
3.441808,2.318,1.6893,-8.0913,1.7137,1.2848,0.647,-21.4875,37.9875,2.9062,,0.0017540000000000333,8.584637102405669,9.877350368282489,lateral_fall
3.459041,3.3982,3.3578,-8.8892,1.7137,1.2848,0.647,-21.4875,37.9875,2.9062,,0.017233000000000054,10.091603476157792,10.381709999217872,lateral_fall
3.462118,3.3982,3.3578,-8.8892,1.7137,1.2848,0.647,-21.4875,37.9875,2.9062,,0.0030769999999997744,10.091603476157792,10.72465147513414,lateral_fall
3.497252,3.3982,3.3578,-8.8892,1.7137,1.2848,0.647,-21.4875,37.9875,2.9062,,0.03513400000000022,10.091603476157792,10.894012828638118,lateral_fall
3.499363,3.3982,3.3578,-8.8892,1.1338,-0.2924,0.7591,-21.4875,37.9875,2.9062,,0.002110999999999752,10.091603476157792,10.893393640758436,lateral_fall
3.501143,3.3982,3.3578,-8.8892,1.1338,-0.2924,0.7591,-20.5688,38.0813,1.3688,,0.0017800000000001148,10.091603476157792,10.745413743969904,lateral_fall
3.502671,3.3982,3.3578,-8.8892,1.1338,-0.2924,0.7591,-20.5688,38.0813,1.3688,,0.0015279999999999738,10.091603476157792,10.494189206307517,lateral_fall
3.518631,3.3982,3.3578,-8.8892,1.1338,-0.2924,0.7591,-20.5688,38.0813,1.3688,,0.015960000000000196,10.091603476157792,10.206545265917066,lateral_fall
3.521074,1.4606,3.862,-16.3011,1.1338,-0.2924,0.7591,-20.5688,38.0813,1.3688,,0.002442999999999973,16.81589300542793,9.971403164045709,lateral_fall
3.558416,1.4606,3.862,-16.3011,1.1338,-0.2924,0.7591,-20.5688,38.0813,1.3688,,0.037341999999999764,16.81589300542793,9.896736263979701,lateral_fall
3.56141,1.4606,3.862,-16.3011,1.1338,-0.2924,0.7591,-20.5688,38.0813,1.3688,,0.002994000000000163,16.81589300542793,10.103567836172818,lateral_fall
3.562931,1.4606,3.862,-16.3011,0.1409,-1.3365,-1.5516,-20.5688,38.0813,1.3688,,0.0015209999999998836,16.81589300542793,10.716775158226339,lateral_fall
3.564861,1.4606,3.862,-16.3011,0.1409,-1.3365,-1.5516,-20.0625,38.0438,-0.1313,,0.0019300000000002093,16.81589300542793,11.853010423902077,lateral_fall
3.578127,-1.2445,-4.0734,2.9437,0.1409,-1.3365,-1.5516,-20.0625,38.0438,-0.1313,,0.013265999999999778,5.177522332158501,13.6067729327723,lateral_fall
3.580548,-1.2445,-4.0734,2.9437,0.1409,-1.3365,-1.5516,-20.0625,38.0438,-0.1313,,0.0024210000000000065,5.177522332158501,16.036396746432928,lateral_fall
3.621393,-1.2445,-4.0734,2.9437,0.1409,-1.3365,-1.5516,-20.0625,38.0438,-0.1313,,0.04084500000000002,5.177522332158501,19.152217396745293,lateral_fall
3.625351,-1.2445,-4.0734,2.9437,1.87,6.4087,1.0109,-20.0625,38.0438,-0.1313,,0.00395800000000035,5.177522332158501,22.909198081582403,lateral_fall
3.640984,-23.3696,-12.0439,23.7557,1.87,6.4087,1.0109,-20.0625,38.0438,-0.1313,,0.015632999999999786,35.433416626963876,27.205684912190634,lateral_fall
3.646724,-23.3696,-12.0439,23.7557,1.87,6.4087,1.0109,-19.6125,37.8,-2.2688,,0.005739999999999856,35.433416626963876,31.888829675574637,lateral_fall
3.651514,-23.3696,-12.0439,23.7557,1.87,6.4087,1.0109,-19.6125,37.8,-2.2688,,0.004790000000000294,35.433416626963876,36.76595424319615,lateral_fall
3.655225,-23.3696,-12.0439,23.7557,1.87,6.4087,1.0109,-19.6125,37.8,-2.2688,,0.00371100000000002,35.433416626963876,41.62020109041686,lateral_fall
3.698745,-27.3264,-13.2173,50.2513,1.87,6.4087,1.0109,-19.6125,37.8,-2.2688,,0.04352,58.707940757107124,46.22842209715343,lateral_fall
3.704821,-27.3264,-13.2173,50.2513,1.87,6.4087,1.0109,-18.1313,36.8438,-6.2438,,0.006075999999999748,58.707940757107124,50.3792326574146,lateral_fall
3.708831,-27.3264,-13.2173,50.2513,1.87,6.4087,1.0109,-18.1313,36.8438,-6.2438,,0.004010000000000069,58.707940757107124,53.889286053872546,lateral_fall
3.711585,-27.3264,-13.2173,50.2513,1.87,6.4087,1.0109,-18.1313,36.8438,-6.2438,,0.002753999999999923,58.707940757107124,56.61613124027196,lateral_fall
3.713829,-27.3264,-13.2173,50.2513,1.87,6.4087,1.0109,-18.1313,36.8438,-6.2438,,0.0022440000000001348,58.707940757107124,58.466593287571854,lateral_fall
3.71631,-27.3264,-13.2173,50.2513,7.0065,-1.4812,3.591,-18.1313,36.8438,-6.2438,,0.0024809999999999555,58.707940757107124,59.4003360489615,lateral_fall
3.72138,-27.3264,-13.2173,50.2513,7.0065,-1.4812,3.591,-18.1313,36.8438,-6.2438,,0.005069999999999908,58.707940757107124,59.428880593189334,lateral_fall
3.76241,-27.3264,-13.2173,50.2513,7.0065,-1.4812,3.591,-18.1313,36.8438,-6.2438,,0.04103000000000012,58.707940757107124,58.610721156602125,lateral_fall
3.76752,-27.3264,-13.2173,50.2513,7.0065,-1.4812,3.591,-18.1313,36.8438,-6.2438,,0.00511000000000017,58.707940757107124,57.04332709912746,lateral_fall
3.77081,-27.3264,-13.2173,50.2513,1.4754,0.1003,1.3094,-18.1313,36.8438,-6.2438,,0.003289999999999793,58.707940757107124,54.85284452314094,lateral_fall
3.774643,-27.3264,-13.2173,50.2513,1.4754,0.1003,1.3094,-15.9,35.1188,-11.3063,,0.0038330000000001974,58.707940757107124,52.18232555340139,lateral_fall
3.778086,15.0929,-26.0888,-22.9487,1.4754,0.1003,1.3094,-15.9,35.1188,-11.3063,,0.003442999999999863,37.88223788980793,49.17941048091848,lateral_fall
3.793349,15.0929,-26.0888,-22.9487,1.4754,0.1003,1.3094,-15.9,35.1188,-11.3063,,0.015263000000000027,37.88223788980793,45.984587582943504,lateral_fall
3.811099,15.0929,-26.0888,-22.9487,1.4754,0.1003,1.3094,-15.9,35.1188,-11.3063,,0.017749999999999932,37.88223788980793,42.721325943709424,lateral_fall
3.821355,3.7751,15.7902,-29.9637,1.4754,0.1003,1.3094,-15.9,35.1188,-11.3063,,0.010256000000000043,34.07939426897139,39.48928385075603,lateral_fall
3.826262,3.7751,15.7902,-29.9637,-3.0818,-0.9968,0.1737,-15.9,35.1188,-11.3063,,0.004906999999999773,34.07939426897139,36.36132285055754,lateral_fall
3.829476,3.7751,15.7902,-29.9637,-3.0818,-0.9968,0.1737,-15.9,35.1188,-11.3063,,0.003214000000000272,34.07939426897139,33.38434054998271,lateral_fall
3.843418,3.7751,15.7902,-29.9637,-3.0818,-0.9968,0.1737,-14.1563,33.9563,-15.3,,0.013941999999999677,34.07939426897139,30.583225344323587,lateral_fall
3.846409,3.7751,15.7902,-29.9637,-3.0818,-0.9968,0.1737,-14.1563,33.9563,-15.3,,0.002991000000000188,34.07939426897139,27.96671552315744,lateral_fall
3.876555,3.7751,15.7902,-29.9637,-3.0818,-0.9968,0.1737,-14.1563,33.9563,-15.3,,0.030146000000000228,34.07939426897139,25.53370360598753,lateral_fall
3.87899,3.7751,15.7902,-29.9637,-3.0818,-0.9968,0.1737,-14.1563,33.9563,-15.3,,0.002434999999999743,34.07939426897139,23.27861165548578,lateral_fall
3.880269,-5.2844,-1.3691,13.268,-3.0818,-0.9968,0.1737,-14.1563,33.9563,-15.3,,0.0012790000000002522,14.347095252001361,21.194882454391564,lateral_fall
3.898752,-5.2844,-1.3691,13.268,0.0189,1.4711,-0.5044,-14.1563,33.9563,-15.3,,0.018482999999999805,14.347095252001361,19.276306217301492,lateral_fall
3.900067,-5.2844,-1.3691,13.268,0.0189,1.4711,-0.5044,-12.5063,33.0188,-18.8813,,0.001314999999999955,14.347095252001361,17.516613251047705,lateral_fall
3.900745,-5.2844,-1.3691,13.268,0.0189,1.4711,-0.5044,-12.5063,33.0188,-18.8813,,0.0006780000000001785,14.347095252001361,15.908208906509783,lateral_fall
3.920543,-5.2844,-1.3691,13.268,0.0189,1.4711,-0.5044,-12.5063,33.0188,-18.8813,,0.01979799999999976,14.347095252001361,14.44094720112187,lateral_fall
3.941169,10.094,2.8607,-2.4772,0.0189,1.4711,-0.5044,-12.5063,33.0188,-18.8813,,0.020626000000000033,10.780025989300768,13.101549645841493,lateral_fall
3.943248,10.094,2.8607,-2.4772,0.0189,1.4711,-0.5044,-12.5063,33.0188,-18.8813,,0.002079000000000164,10.780025989300768,11.87392128797814,lateral_fall
3.959235,10.094,2.8607,-2.4772,-0.9241,0.6097,-1.1324,-12.5063,33.0188,-18.8813,,0.015986999999999973,10.780025989300768,10.74034030704157,lateral_fall
3.961186,10.094,2.8607,-2.4772,-0.9241,0.6097,-1.1324,-10.9125,31.9688,-21.8813,,0.001951000000000036,10.780025989300768,9.683302101920575,lateral_fall
3.962319,10.094,2.8607,-2.4772,-0.9241,0.6097,-1.1324,-10.9125,31.9688,-21.8813,,0.0011329999999998286,10.780025989300768,8.687652329252485,lateral_fall
3.985177,10.094,2.8607,-2.4772,-0.9241,0.6097,-1.1324,-10.9125,31.9688,-21.8813,,0.022858000000000267,10.780025989300768,7.742556707224556,lateral_fall
3.998065,10.094,2.8607,-2.4772,-0.9241,0.6097,-1.1324,-10.9125,31.9688,-21.8813,,0.012887999999999789,10.780025989300768,6.842866695568842,lateral_fall
4.000816,-1.1222,-1.2989,-3.1271,-0.9241,0.6097,-1.1324,-10.9125,31.9688,-21.8813,,0.002751000000000392,3.5672438184121926,5.989571519651344,lateral_fall
4.017676,-1.1222,-1.2989,-3.1271,-1.687,-0.4775,-0.5629,-10.9125,31.9688,-21.8813,,0.01685999999999943,3.5672438184121926,5.189257142311549,lateral_fall
4.039136,-1.1222,-1.2989,-3.1271,-1.687,-0.4775,-0.5629,-10.9125,31.9688,-21.8813,,0.021460000000000257,3.5672438184121926,4.4527436900022055,lateral_fall
4.042363,-1.1222,-1.2989,-3.1271,-1.687,-0.4775,-0.5629,-10.9125,31.9688,-21.8813,,0.003226999999999869,3.5672438184121926,3.7932362706623746,lateral_fall
4.044517,-1.1222,-1.2989,-3.1271,-1.687,-0.4775,-0.5629,-9.7875,31.275,-23.925,,0.0021539999999999893,3.5672438184121926,3.2243425972007076,lateral_fall
4.061605,1.7522,0.7529,-0.2381,-1.687,-0.4775,-0.5629,-9.7875,31.275,-23.925,,0.017088000000000214,1.9219143737430135,2.7582269980433267,lateral_fall
4.066175,1.7522,0.7529,-0.2381,-1.687,-0.4775,-0.5629,-9.7875,31.275,-23.925,,0.004570000000000185,1.9219143737430135,2.4040715819358502,lateral_fall
4.102438,1.7522,0.7529,-0.2381,-0.8443,0.2046,-1.6458,-9.7875,31.275,-23.925,,0.036262999999999934,1.9219143737430135,2.1669475899717,lateral_fall
4.108051,1.7522,0.7529,-0.2381,-0.8443,0.2046,-1.6458,-8.6813,30.9375,-25.9313,,0.005612999999999424,1.9219143737430135,2.047154035048272,lateral_fall
4.111105,1.7522,0.7529,-0.2381,-0.8443,0.2046,-1.6458,-8.6813,30.9375,-25.9313,,0.0030540000000005563,1.9219143737430135,2.040035757144945,lateral_fall
4.113418,1.7522,0.7529,-0.2381,-0.8443,0.2046,-1.6458,-8.6813,30.9375,-25.9313,,0.0023130000000000095,1.9219143737430135,2.1362466872834243,lateral_fall
4.121444,1.7522,0.7529,-0.2381,-0.8443,0.2046,-1.6458,-8.6813,30.9375,-25.9313,,0.008026000000000089,1.9219143737430135,2.322385113495586,lateral_fall
4.124446,1.0272,1.5396,3.1042,-0.8443,0.2046,-1.6458,-8.6813,30.9375,-25.9313,,0.003001999999999505,3.6140788093233387,2.5818989918073574,lateral_fall
4.157628,1.0272,1.5396,3.1042,-0.8443,0.2046,-1.6458,-8.6813,30.9375,-25.9313,,0.033182000000000045,3.6140788093233387,2.8961386715353337,lateral_fall
4.160412,1.0272,1.5396,3.1042,-1.0799,0.5876,-1.2006,-8.6813,30.9375,-25.9313,,0.0027840000000001197,3.6140788093233387,3.2454268646780853,lateral_fall
4.162498,1.0272,1.5396,3.1042,-1.0799,0.5876,-1.2006,-7.9313,30.825,-26.9438,,0.0020860000000002543,3.6140788093233387,3.6100339425128514,lateral_fall
4.164159,1.0272,1.5396,3.1042,-1.0799,0.5876,-1.2006,-7.9313,30.825,-26.9438,,0.0016609999999994685,3.6140788093233387,3.9709934272142933,lateral_fall
4.1776,1.0272,1.5396,3.1042,-1.0799,0.5876,-1.2006,-7.9313,30.825,-26.9438,,0.013441000000000258,3.6140788093233387,4.3107490247778095,lateral_fall
4.179679,-4.7004,0.1034,-1.8609,-1.0799,0.5876,-1.2006,-7.9313,30.825,-26.9438,,0.002079000000000164,5.056421712041036,4.613663095576964,lateral_fall
4.2165,-4.7004,0.1034,-1.8609,-1.0799,0.5876,-1.2006,-7.9313,30.825,-26.9438,,0.03682099999999977,5.056421712041036,4.866423064627276,lateral_fall
4.220727,-4.7004,0.1034,-1.8609,-0.4762,-0.0768,-0.2855,-7.9313,30.825,-26.9438,,0.004227000000000203,5.056421712041036,5.058365786831969,lateral_fall
4.242199,-4.7004,0.1034,-1.8609,-0.4762,-0.0768,-0.2855,-7.9313,30.825,-26.9438,,0.021472000000000158,5.056421712041036,5.18172226713837,lateral_fall
4.24579,-4.7004,0.1034,-1.8609,-0.4762,-0.0768,-0.2855,-7.9313,30.825,-26.9438,,0.003591000000000122,5.056421712041036,5.231781005856992,lateral_fall
4.249622,-4.7004,0.1034,-1.8609,-0.4762,-0.0768,-0.2855,-8.4,31.3125,-26.0063,,0.0038319999999991694,5.056421712041036,5.2069735570158056,lateral_fall
4.253204,-4.7901,0.6864,0.956,-0.4762,-0.0768,-0.2855,-8.4,31.3125,-26.0063,,0.0035820000000006402,4.932559069083714,5.10888773127241,lateral_fall
4.299948,-4.7901,0.6864,0.956,-0.4762,-0.0768,-0.2855,-8.4,31.3125,-26.0063,,0.04674399999999945,4.932559069083714,4.942205736448374,lateral_fall
4.303598,-4.7901,0.6864,0.956,-0.4762,-0.0768,-0.2855,-8.4,31.3125,-26.0063,,0.003650000000000375,4.932559069083714,4.714549142456543,lateral_fall
4.305773,-4.7901,0.6864,0.956,-0.4762,-0.0768,-0.2855,-8.4,31.3125,-26.0063,,0.00217500000000026,4.932559069083714,4.43619665492556,lateral_fall
4.308815,-4.7901,0.6864,0.956,0.0279,-0.1981,-0.1532,-8.4,31.3125,-26.0063,,0.003041999999999767,4.932559069083714,4.119632457790539,lateral_fall
4.311386,-4.7901,0.6864,0.956,0.0279,-0.1981,-0.1532,-9.6188,32.7563,-23.85,,0.002570999999999657,4.932559069083714,3.778891677905028,lateral_fall
4.313854,-0.4684,0.8559,2.1078,0.0279,-0.1981,-0.1532,-9.6188,32.7563,-23.85,,0.002468000000000359,2.322667477276935,3.4287032882152286,lateral_fall
4.322901,-0.4684,0.8559,2.1078,0.0279,-0.1981,-0.1532,-9.6188,32.7563,-23.85,,0.009046999999999805,2.322667477276935,3.08348780940551,lateral_fall
4.359706,-0.4684,0.8559,2.1078,0.0279,-0.1981,-0.1532,-9.6188,32.7563,-23.85,,0.0368050000000002,2.322667477276935,2.7563263915356506,lateral_fall
4.363638,-0.4684,0.8559,2.1078,0.0279,-0.1981,-0.1532,-9.6188,32.7563,-23.85,,0.0039319999999998245,2.322667477276935,2.458045572351126,lateral_fall
4.365684,-0.4684,0.8559,2.1078,-0.1848,-0.3428,-0.1532,-9.6188,32.7563,-23.85,,0.0020459999999999923,2.322667477276935,2.196541086238745,lateral_fall
4.368715,-1.0581,1.0462,-0.2698,-0.1848,-0.3428,-0.1532,-9.6188,32.7563,-23.85,,0.003031000000000006,1.5122506703585885,1.9764120453468705,lateral_fall
4.371667,-1.0581,1.0462,-0.2698,-0.1848,-0.3428,-0.1532,-10.6688,33.5063,-22.275,,0.0029520000000005098,1.5122506703585885,1.7989255094296315,lateral_fall
4.38597,-1.0581,1.0462,-0.2698,-0.1848,-0.3428,-0.1532,-10.6688,33.5063,-22.275,,0.014302999999999955,1.5122506703585885,1.6622956587513606,lateral_fall
4.423489,-1.0581,1.0462,-0.2698,-0.0087,-0.1166,0.218,-10.6688,33.5063,-22.275,,0.037518999999999636,1.5122506703585885,1.5622349298152272,lateral_fall
4.428765,-1.7752,0.1604,0.1667,-0.0087,-0.1166,0.218,-10.6688,33.5063,-22.275,,0.0052760000000002805,1.790210068679092,1.4927073932959294,lateral_fall
4.43182,-1.7752,0.1604,0.1667,-0.0087,-0.1166,0.218,-10.6688,33.5063,-22.275,,0.003054999999999808,1.790210068679092,1.4467889231380298,lateral_fall
4.434386,-1.7752,0.1604,0.1667,-0.0087,-0.1166,0.218,-10.6688,33.5063,-22.275,,0.002565999999999846,1.790210068679092,1.4175235924672023,lateral_fall
4.442241,-1.7752,0.1604,0.1667,-0.0087,-0.1166,0.218,-11.8313,34.1063,-20.8875,,0.007855000000000167,1.790210068679092,1.3986688189125578,lateral_fall
4.446455,-1.7752,0.1604,0.1667,-0.0087,-0.1166,0.218,-11.8313,34.1063,-20.8875,,0.004214000000000162,1.790210068679092,1.3852440634323535,lateral_fall
4.479174,0.149,0.5527,1.1028,-0.0087,-0.1166,0.218,-11.8313,34.1063,-20.8875,,0.032719000000000165,1.2425160481860988,1.3738345038941717,lateral_fall
4.483406,0.149,0.5527,1.1028,-0.0087,-0.1166,0.218,-11.8313,34.1063,-20.8875,,0.004231999999999125,1.2425160481860988,1.3626439825081735,lateral_fall
4.485428,0.149,0.5527,1.1028,-0.0087,-0.1166,0.218,-11.8313,34.1063,-20.8875,,0.0020220000000001903,1.2425160481860988,1.3513308613872725,lateral_fall
4.501036,0.149,0.5527,1.1028,0.1015,0.0819,0.0967,-11.8313,34.1063,-20.8875,,0.015608000000000288,1.2425160481860988,1.3406866259663317,lateral_fall
4.504826,0.149,0.5527,1.1028,0.1015,0.0819,0.0967,-12.975,34.7063,-19.5563,,0.003790000000000404,1.2425160481860988,1.3322256948269013,lateral_fall
4.507307,0.149,0.5527,1.1028,0.1015,0.0819,0.0967,-12.975,34.7063,-19.5563,,0.0024809999999995114,1.2425160481860988,1.3277495776583192,lateral_fall
4.522135,0.149,0.5527,1.1028,0.1015,0.0819,0.0967,-12.975,34.7063,-19.5563,,0.01482799999999962,1.2425160481860988,1.3289368629976477,lateral_fall
4.539192,0.149,0.5527,1.1028,0.1015,0.0819,0.0967,-12.975,34.7063,-19.5563,,0.017057000000000322,1.2425160481860988,1.3369978490537524,lateral_fall
4.5411,-1.2398,0.421,0.2439,0.1015,0.0819,0.0967,-12.975,34.7063,-19.5563,,0.0019080000000002428,1.3318529385784303,1.352420609413898,lateral_fall
4.559962,-1.2398,0.421,0.2439,0.1015,0.0819,0.0967,-13.9875,35.0813,-18.6562,,0.01886199999999949,1.3318529385784303,1.3748240005392645,lateral_fall
4.562447,-1.2398,0.421,0.2439,0.1695,-0.1502,0.1919,-13.9875,35.0813,-18.6562,,0.0024850000000000705,1.3318529385784303,1.402922795250814,lateral_fall
4.584087,-1.2398,0.421,0.2439,0.1695,-0.1502,0.1919,-13.9875,35.0813,-18.6562,,0.021640000000000548,1.3318529385784303,1.4346012271845572,lateral_fall
4.586607,-1.2398,0.421,0.2439,0.1695,-0.1502,0.1919,-13.9875,35.0813,-18.6562,,0.0025199999999996336,1.3318529385784303,1.4670835430656712,lateral_fall
4.600646,0.863,0.9044,1.0683,0.1695,-0.1502,0.1919,-13.9875,35.0813,-18.6562,,0.014039000000000357,1.6443762495244207,1.497182422330126,lateral_fall
4.604427,0.863,0.9044,1.0683,0.1695,-0.1502,0.1919,-13.9875,35.0813,-18.6562,,0.0037810000000000343,1.6443762495244207,1.5215975477630401,lateral_fall
4.617993,0.863,0.9044,1.0683,-0.0528,0.1735,0.0951,-13.9875,35.0813,-18.6562,,0.013565999999999967,1.6443762495244207,1.5372290631203724,lateral_fall
4.638632,0.863,0.9044,1.0683,-0.0528,0.1735,0.0951,-14.5688,35.2125,-18.15,,0.020639000000000074,1.6443762495244207,1.5414681706529563,lateral_fall
4.643414,0.863,0.9044,1.0683,-0.0528,0.1735,0.0951,-14.5688,35.2125,-18.15,,0.00478199999999962,1.6443762495244207,1.5324321811189836,lateral_fall
4.64595,0.863,0.9044,1.0683,-0.0528,0.1735,0.0951,-14.5688,35.2125,-18.15,,0.0025360000000000937,1.6443762495244207,1.5091224367279363,lateral_fall
4.657512,-0.8676,0.938,-0.1984,-0.0528,0.1735,0.0951,-14.5688,35.2125,-18.15,,0.011561999999999628,1.2930337659937579,1.4714971735633615,lateral_fall
4.660821,-0.8676,0.938,-0.1984,-0.0528,0.1735,0.0951,-14.5688,35.2125,-18.15,,0.0033090000000006725,1.2930337659937579,1.420464568662129,lateral_fall
4.700664,-0.8676,0.938,-0.1984,-0.0528,0.1735,0.0951,-14.5688,35.2125,-18.15,,0.03984299999999941,1.2930337659937579,1.3578108909868862,lateral_fall
4.704136,-0.8676,0.938,-0.1984,-0.0528,0.1735,0.0951,-14.5688,35.2125,-18.15,,0.0034720000000003637,1.2930337659937579,1.2860814560951221,lateral_fall
4.706197,-0.8676,0.938,-0.1984,-0.0647,0.1477,0.0674,-14.5688,35.2125,-18.15,,0.0020610000000003126,1.2930337659937579,1.2084272209612295,lateral_fall
4.709356,-0.8676,0.938,-0.1984,-0.0647,0.1477,0.0674,-14.7,35.3438,-17.9062,,0.0031589999999992457,1.2930337659937579,1.1284214403720167,lateral_fall
4.722774,-0.8676,0.938,-0.1984,-0.0647,0.1477,0.0674,-14.7,35.3438,-17.9062,,0.013418000000000596,1.2930337659937579,1.0498451920115028,lateral_fall
4.726272,-0.2692,0.503,0.5588,-0.0647,0.1477,0.0674,-14.7,35.3438,-17.9062,,0.003497999999999557,0.7985831703711267,0.9764421442995854,lateral_fall
4.76201,-0.2692,0.503,0.5588,0.0137,0.0712,-0.0331,-14.7,35.3438,-17.9062,,0.03573800000000027,0.7985831703711267,0.9116518955247808,non_fall
4.765855,-0.2692,0.503,0.5588,0.0137,0.0712,-0.0331,-14.6625,35.5688,-17.85,,0.0038450000000000983,0.7985831703711267,0.8583430321845815,non_fall
4.771938,-0.2692,0.503,0.5588,0.0137,0.0712,-0.0331,-14.6625,35.5688,-17.85,,0.0060829999999993944,0.7985831703711267,0.8185745923871734,non_fall
4.774259,-0.2692,0.503,0.5588,0.0137,0.0712,-0.0331,-14.6625,35.5688,-17.85,,0.0023210000000002395,0.7985831703711267,0.7934137653213198,non_fall
4.780771,-0.2692,0.503,0.5588,0.0137,0.0712,-0.0331,-14.6625,35.5688,-17.85,,0.006511999999999851,0.7985831703711267,0.7828308566253355,non_fall
4.78418,-0.0654,0.3289,0.5275,0.0137,0.0712,-0.0331,-14.6625,35.5688,-17.85,,0.0034090000000004395,0.6250668924203233,0.7856853049019115,non_fall
4.818851,-0.0654,0.3289,0.5275,0.0282,-0.0512,-0.0166,-14.6625,35.5688,-17.85,,0.03467100000000034,0.6250668924203233,0.7998115919286614,non_fall
4.822866,-0.0654,0.3289,0.5275,0.0282,-0.0512,-0.0166,-14.6625,35.5688,-17.85,,0.00401499999999988,0.6250668924203233,0.8222094985645846,non_fall
4.839314,-0.0654,0.3289,0.5275,0.0282,-0.0512,-0.0166,-14.7,35.4375,-17.7563,,0.016447999999999574,0.6250668924203233,0.8493353836464838,non_fall
4.843545,-0.9763,0.4996,0.1282,0.0282,-0.0512,-0.0166,-14.7,35.4375,-17.7563,,0.004230999999999874,1.104172581619377,0.877477418591368,non_fall
4.846336,-0.9763,0.4996,0.1282,0.0282,-0.0512,-0.0166,-14.7,35.4375,-17.7563,,0.00279100000000021,1.104172581619377,0.9031795569771495,non_fall
4.849037,-0.9763,0.4996,0.1282,0.0282,-0.0512,-0.0166,-14.7,35.4375,-17.7563,,0.0027010000000000645,1.104172581619377,0.9236627242738474,non_fall
4.902038,-0.9763,0.4996,0.1282,0.0282,-0.0512,-0.0166,-14.7,35.4375,-17.7563,,0.053001000000000076,1.104172581619377,0.9371851866739116,non_fall
4.905798,-0.9763,0.4996,0.1282,0.0282,-0.0512,-0.0166,-14.7,35.4375,-17.7563,,0.0037599999999997635,1.104172581619377,0.9432911230685377,non_fall
4.908468,-0.9763,0.4996,0.1282,0.0282,-0.0512,-0.0166,-14.7,35.4375,-17.7563,,0.0026700000000001722,1.104172581619377,0.9429140221581517,non_fall
4.910688,0.0591,0.0046,0.8887,0.0282,-0.0512,-0.0166,-14.7,35.4375,-17.7563,,0.002220000000000333,0.8906748340443891,0.9383233423900081,non_fall
4.913344,0.0591,0.0046,0.8887,0.0282,-0.0512,-0.0166,-14.4375,35.4563,-17.8875,,0.0026559999999999917,0.8906748340443891,0.9329240691009304,non_fall
4.916152,0.0591,0.0046,0.8887,0.2918,-0.1716,-0.0346,-14.4375,35.4563,-17.8875,,0.0028079999999999217,0.8906748340443891,0.9309363279202864,non_fall
4.925558,0.0591,0.0046,0.8887,0.2918,-0.1716,-0.0346,-14.4375,35.4563,-17.8875,,0.00940599999999936,0.8906748340443891,0.9369934865004036,non_fall
4.960678,0.0591,0.0046,0.8887,0.2918,-0.1716,-0.0346,-14.4375,35.4563,-17.8875,,0.03512000000000004,0.8906748340443891,0.9557010959506967,non_fall
4.964659,0.0591,0.0046,0.8887,0.2918,-0.1716,-0.0346,-14.4375,35.4563,-17.8875,,0.003981000000000456,0.8906748340443891,0.9911970963494826,non_fall
4.966941,0.0591,0.0046,0.8887,0.6489,0.1123,0.1082,-14.4375,35.4563,-17.8875,,0.0022820000000001173,0.8906748340443891,1.0467484551622777,non_fall
4.970931,0.0591,0.0046,0.8887,0.6489,0.1123,0.1082,-14.2875,35.3625,-18.15,,0.003989999999999938,0.8906748340443891,1.1244119393829994,non_fall
4.97333,0.678,-0.9283,1.1053,0.6489,0.1123,0.1082,-14.2875,35.3625,-18.15,,0.002398999999999596,1.5947140746854904,1.2247765768620384,non_fall
4.986791,0.678,-0.9283,1.1053,0.6489,0.1123,0.1082,-14.2875,35.3625,-18.15,,0.01346100000000039,1.5947140746854904,1.3467930735461908,non_fall
5.021081,0.678,-0.9283,1.1053,0.6489,0.1123,0.1082,-14.2875,35.3625,-18.15,,0.03428999999999949,1.5947140746854904,1.487685676080201,non_fall
5.025507,0.678,-0.9283,1.1053,0.6489,0.1123,0.1082,-14.2875,35.3625,-18.15,,0.004426000000000485,1.5947140746854904,1.6429419608725246,non_fall
5.02843,0.678,-0.9283,1.1053,0.6928,0.038,-0.0978,-14.2875,35.3625,-18.15,,0.002923000000000009,1.5947140746854904,1.8063880342614684,non_fall
5.03176,-0.99,0.638,1.3385,0.6928,0.038,-0.0978,-14.2875,35.3625,-18.15,,0.003330000000000055,1.7828982724765874,1.9703732066940007,non_fall
5.040522,-0.99,0.638,1.3385,0.6928,0.038,-0.0978,-14.2875,35.3625,-18.15,,0.008761999999999937,1.7828982724765874,2.1260978857980772,non_fall
5.043963,-0.99,0.638,1.3385,0.6928,0.038,-0.0978,-14.175,35.0625,-18.5813,,0.0034409999999995833,1.7828982724765874,2.2641143844003317,non_fall
5.06282,-0.99,0.638,1.3385,0.6928,0.038,-0.0978,-14.175,35.0625,-18.5813,,0.018857000000000568,1.7828982724765874,2.3750118596683487,non_fall
5.081994,-0.99,0.638,1.3385,0.6928,0.038,-0.0978,-14.175,35.0625,-18.5813,,0.01917399999999958,1.7828982724765874,2.4502647306316927,non_fall
5.084579,-3.244,0.1308,-0.8017,0.6928,0.038,-0.0978,-14.175,35.0625,-18.5813,,0.0025849999999998374,3.3441542323882136,2.4831792623326043,non_fall
5.098597,-3.244,0.1308,-0.8017,0.4377,-0.3536,0.0557,-14.175,35.0625,-18.5813,,0.014018000000000086,3.3441542323882136,2.469820673524202,non_fall
5.101546,-3.244,0.1308,-0.8017,0.4377,-0.3536,0.0557,-14.175,35.0625,-18.5813,,0.0029490000000000904,3.3441542323882136,2.409760318051476,non_fall
5.102982,-3.244,0.1308,-0.8017,0.4377,-0.3536,0.0557,-14.0063,34.7063,-19.2,,0.0014359999999999928,3.3441542323882136,2.306474904222059,non_fall
5.120581,-3.244,0.1308,-0.8017,0.4377,-0.3536,0.0557,-14.0063,34.7063,-19.2,,0.017598999999999698,3.3441542323882136,2.1672733659540424,non_fall
5.1405,-0.87,0.5318,-0.1272,0.4377,-0.3536,0.0557,-14.0063,34.7063,-19.2,,0.019919000000000686,1.027565608610954,2.0027152442665517,non_fall
5.142638,-0.87,0.5318,-0.1272,0.4377,-0.3536,0.0557,-14.0063,34.7063,-19.2,,0.002137999999999529,1.027565608610954,1.8255926508635056,non_fall
5.162554,-0.87,0.5318,-0.1272,0.3849,0.0123,-0.0728,-14.0063,34.7063,-19.2,,0.019916000000000267,1.027565608610954,1.6496421324654538,non_fall
5.164479,-0.87,0.5318,-0.1272,0.3849,0.0123,-0.0728,-13.8938,34.3125,-19.8,,0.0019249999999999545,1.027565608610954,1.4881991179617111,non_fall
5.165792,-0.87,0.5318,-0.1272,0.3849,0.0123,-0.0728,-13.8938,34.3125,-19.8,,0.0013129999999996755,1.027565608610954,1.3529919937263775,non_fall
5.186722,-0.87,0.5318,-0.1272,0.3849,0.0123,-0.0728,-13.8938,34.3125,-19.8,,0.020929999999999893,1.027565608610954,1.2532130385652438,non_fall
5.200146,0.965,0.5442,-0.6282,0.3849,0.0123,-0.0728,-13.8938,34.3125,-19.8,,0.013424000000000547,1.2735830871992608,1.194932122829797,non_fall
5.203903,0.965,0.5442,-0.6282,0.3849,0.0123,-0.0728,-13.8938,34.3125,-19.8,,0.0037570000000002324,1.2735830871992608,1.180858746524089,non_fall
5.220071,0.965,0.5442,-0.6282,0.2392,0.432,0.1206,-13.8938,34.3125,-19.8,,0.016167999999999516,1.2735830871992608,1.2104162269585406,non_fall
5.23181,0.965,0.5442,-0.6282,0.2392,0.432,0.1206,-13.8938,34.3125,-19.8,,0.011739000000000388,1.2735830871992608,1.2800691016581098,non_fall
5.239782,0.965,0.5442,-0.6282,0.2392,0.432,0.1206,-13.8188,33.825,-20.5312,,0.007971999999999646,1.2735830871992608,1.3838378916010476,non_fall
5.253794,0.965,0.5442,-0.6282,0.2392,0.432,0.1206,-13.8188,33.825,-20.5312,,0.014012000000000135,1.2735830871992608,1.513937255368151,non_fall
5.25848,-1.8014,1.2212,-0.2007,0.2392,0.432,0.1206,-13.8188,33.825,-20.5312,,0.004685999999999524,2.185555281844868,1.6614759990930446,non_fall
5.260731,-1.8014,1.2212,-0.2007,0.2392,0.432,0.1206,-13.8188,33.825,-20.5312,,0.002251000000000225,2.185555281844868,1.8171562696664352,non_fall
5.299363,-1.8014,1.2212,-0.2007,0.2392,0.432,0.1206,-13.8188,33.825,-20.5312,,0.03863199999999978,2.185555281844868,1.971908696614037,non_fall
5.301903,-1.8014,1.2212,-0.2007,0.9162,0.343,1.0679,-13.8188,33.825,-20.5312,,0.002540000000000653,2.185555281844868,2.1174097393427167,non_fall
5.303825,-1.8014,1.2212,-0.2007,0.9162,0.343,1.0679,-13.7063,33.2625,-21.375,,0.0019219999999995352,2.185555281844868,2.2464512753569825,non_fall
5.320051,-1.8014,1.2212,-0.2007,0.9162,0.343,1.0679,-13.7063,33.2625,-21.375,,0.016226000000000518,2.185555281844868,2.3531630328143756,non_fall
5.323262,-1.8014,1.2212,-0.2007,0.9162,0.343,1.0679,-13.7063,33.2625,-21.375,,0.0032109999999994088,2.185555281844868,2.4331130060468844,non_fall
5.325522,-1.0262,-0.0093,2.2974,0.9162,0.343,1.0679,-13.7063,33.2625,-21.375,,0.002260000000000595,2.5161915050329537,2.4833215372154718,non_fall
5.361762,-1.0262,-0.0093,2.2974,0.9162,0.343,1.0679,-13.7063,33.2625,-21.375,,0.036239999999999384,2.5161915050329537,2.50222120713999,non_fall
5.365282,-1.0262,-0.0093,2.2974,0.8973,0.4415,0.9745,-13.7063,33.2625,-21.375,,0.0035199999999999676,2.5161915050329537,2.489582618636499,non_fall
5.368867,-1.0262,-0.0093,2.2974,0.8973,0.4415,0.9745,-13.1438,32.8313,-22.6313,,0.0035850000000001714,2.5161915050329537,2.446413499458586,non_fall
5.381155,-1.0262,-0.0093,2.2974,0.8973,0.4415,0.9745,-13.1438,32.8313,-22.6313,,0.012287999999999855,2.5161915050329537,2.374831280650879,non_fall
5.3852,-1.0262,-0.0093,2.2974,0.8973,0.4415,0.9745,-13.1438,32.8313,-22.6313,,0.00404500000000052,2.5161915050329537,2.2779089529671865,non_fall
5.387702,1.5855,0.2601,-0.7687,0.8973,0.4415,0.9745,-13.1438,32.8313,-22.6313,,0.002501999999999782,1.7811125596098636,2.1594994450019604,non_fall
5.419879,1.5855,0.2601,-0.7687,0.8973,0.4415,0.9745,-13.1438,32.8313,-22.6313,,0.0321769999999999,1.7811125596098636,2.0240528758864857,non_fall
5.423484,1.5855,0.2601,-0.7687,0.2691,-0.1716,0.1589,-13.1438,32.8313,-22.6313,,0.0036050000000003024,1.7811125596098636,1.8764487874318396,non_fall
5.43678,1.5855,0.2601,-0.7687,0.2691,-0.1716,0.1589,-13.1438,32.8313,-22.6313,,0.01329599999999953,1.7811125596098636,1.721864494850694,non_fall
5.439869,1.5855,0.2601,-0.7687,0.2691,-0.1716,0.1589,-12.4688,32.0813,-23.85,,0.0030890000000001194,1.7811125596098636,1.5656885230289053,non_fall
5.442194,-0.1692,1.177,-0.1615,0.2691,-0.1716,0.1589,-12.4688,32.0813,-23.85,,0.0023249999999999105,1.20001662071823,1.4134717418632488,non_fall
5.444467,-0.1692,1.177,-0.1615,0.2691,-0.1716,0.1589,-12.4688,32.0813,-23.85,,0.0022730000000006356,1.20001662071823,1.2708981170938798,non_fall
5.501668,-0.1692,1.177,-0.1615,0.2691,-0.1716,0.1589,-12.4688,32.0813,-23.85,,0.05720099999999917,1.20001662071823,1.143754372715186,non_fall
5.505448,-0.1692,1.177,-0.1615,0.2691,-0.1716,0.1589,-12.4688,32.0813,-23.85,,0.0037800000000007827,1.20001662071823,1.0378779014724513,non_fall
5.507734,-0.1692,1.177,-0.1615,0.2691,-0.1716,0.1589,-12.4688,32.0813,-23.85,,0.002285999999999788,1.20001662071823,0.9590607094285487,non_fall
5.509949,-0.1692,1.177,-0.1615,0.2691,-0.1716,0.1589,-11.8125,31.4438,-24.9938,,0.002214999999999634,1.20001662071823,0.9128868789492709,non_fall
5.512657,-0.1692,1.177,-0.1615,0.3054,-0.7223,-0.5364,-11.8125,31.4438,-24.9938,,0.0027080000000001547,1.20001662071823,0.9044881782027624,non_fall
5.515421,0.4686,-0.1668,0.5039,0.3054,-0.7223,-0.5364,-11.8125,31.4438,-24.9938,,0.0027639999999999887,0.7080419549715963,0.9382199048865567,non_fall
5.52264,0.4686,-0.1668,0.5039,0.3054,-0.7223,-0.5364,-11.8125,31.4438,-24.9938,,0.0072190000000000865,0.7080419549715963,1.0172836855654481,non_fall
5.56316,0.4686,-0.1668,0.5039,0.3054,-0.7223,-0.5364,-11.8688,30.8063,-25.8,,0.04051999999999989,0.7080419549715963,1.1433469560937481,non_fall
5.566887,0.4686,-0.1668,0.5039,-0.6003,-1.0047,-1.9003,-11.8688,30.8063,-25.8,,0.00372700000000048,0.7080419549715963,1.3162185254465122,non_fall
5.569231,1.9974,0.7275,-1.1006,-0.6003,-1.0047,-1.9003,-11.8688,30.8063,-25.8,,0.0023439999999999017,2.3937801423689686,1.533628077318683,non_fall
5.571155,1.9974,0.7275,-1.1006,-0.6003,-1.0047,-1.9003,-11.8688,30.8063,-25.8,,0.0019239999999998147,2.3937801423689686,1.7911284508526109,non_fall
5.572485,1.9974,0.7275,-1.1006,-0.6003,-1.0047,-1.9003,-11.8688,30.8063,-25.8,,0.0013300000000002754,2.3937801423689686,2.082111144380164,non_fall
5.585888,1.9974,0.7275,-1.1006,-0.6003,-1.0047,-1.9003,-11.8688,30.8063,-25.8,,0.013402999999999388,2.3937801423689686,2.3979206433081597,non_fall
5.619475,1.9974,0.7275,-1.1006,-0.6003,-1.0047,-1.9003,-11.8688,30.8063,-25.8,,0.0335870000000007,2.3937801423689686,2.7280800330103467,non_fall
5.622945,1.9974,0.7275,-1.1006,-0.6003,-1.0047,-1.9003,-11.8688,30.8063,-25.8,,0.003469999999999196,2.3937801423689686,3.060682397583915,non_fall
5.62506,1.9974,0.7275,-1.1006,-1.7689,-1.7717,-2.2827,-11.8688,30.8063,-25.8,,0.002115000000000755,2.3937801423689686,3.3830319138545297,non_fall
5.628232,-2.6518,0.6272,-0.9437,-1.7689,-1.7717,-2.2827,-11.8688,30.8063,-25.8,,0.0031719999999992865,2.8837463081900947,3.682615632911038,non_fall
5.639721,-2.6518,0.6272,-0.9437,-1.7689,-1.7717,-2.2827,-12.75,30.1688,-25.9125,,0.011489000000000082,2.8837463081900947,3.948445809269315,non_fall
5.64381,-2.6518,0.6272,-0.9437,-1.7689,-1.7717,-2.2827,-12.75,30.1688,-25.9125,,0.004089000000000453,2.8837463081900947,4.172737145257296,non_fall
5.681211,-5.4988,0.5927,2.1056,-1.7689,-1.7717,-2.2827,-12.75,30.1688,-25.9125,,0.03740100000000002,5.917908928836266,4.352783177315938,non_fall
5.686131,-5.4988,0.5927,2.1056,-1.7689,-1.7717,-2.2827,-12.75,30.1688,-25.9125,,0.004919999999999369,5.917908928836266,4.4927881048282385,non_fall
5.68886,-5.4988,0.5927,2.1056,-1.7689,-1.7717,-2.2827,-12.75,30.1688,-25.9125,,0.0027290000000004255,5.917908928836266,4.605325667498183,non_fall
5.701112,-5.4988,0.5927,2.1056,-1.7689,-1.7717,-2.2827,-14.55,29.6625,-24.9563,,0.012252000000000152,5.917908928836266,4.712075768031061,non_fall
5.703905,-5.4988,0.5927,2.1056,-2.0181,-2.4929,-2.2975,-14.55,29.6625,-24.9563,,0.0027929999999996014,5.917908928836266,4.843553688521083,non_fall
5.72502,-5.4988,0.5927,2.1056,-2.0181,-2.4929,-2.2975,-14.55,29.6625,-24.9563,,0.021114999999999995,5.917908928836266,5.037676971357048,non_fall
5.728301,-5.4988,0.5927,2.1056,-2.0181,-2.4929,-2.2975,-14.55,29.6625,-24.9563,,0.0032810000000003114,5.917908928836266,5.337170737274527,non_fall
5.741727,-5.4988,0.5927,2.1056,-2.0181,-2.4929,-2.2975,-14.55,29.6625,-24.9563,,0.013425999999999938,5.917908928836266,5.785962515129481,non_fall
5.744489,0.9321,-6.305,2.6037,-2.0181,-2.4929,-2.2975,-14.55,29.6625,-24.9563,,0.002761999999999709,6.884844885689146,6.424848272347591,non_fall
5.75972,0.9321,-6.305,2.6037,-2.0181,-2.4929,-2.2975,-16.9875,28.6875,-23.2313,,0.015230999999999995,6.884844885689146,7.286815498232139,non_fall
5.762975,0.9321,-6.305,2.6037,-2.611,0.2039,-2.8793,-16.9875,28.6875,-23.2313,,0.00325500000000023,6.884844885689146,8.392482940631247,non_fall
5.785066,0.9321,-6.305,2.6037,-2.611,0.2039,-2.8793,-16.9875,28.6875,-23.2313,,0.02209099999999964,6.884844885689146,9.746154739577133,non_fall
5.787718,0.9321,-6.305,2.6037,-2.611,0.2039,-2.8793,-16.9875,28.6875,-23.2313,,0.0026520000000003208,6.884844885689146,11.33297256037287,non_fall
5.801709,12.8508,-4.4275,-9.7931,-2.611,0.2039,-2.8793,-16.9875,28.6875,-23.2313,,0.013990999999999865,16.752630375555952,13.117553878012078,non_fall
5.806096,12.8508,-4.4275,-9.7931,-2.611,0.2039,-2.8793,-16.9875,28.6875,-23.2313,,0.004387000000000363,16.752630375555952,15.044319593890409,non_fall
5.820979,12.8508,-4.4275,-9.7931,-1.5797,-1.9268,-3.0516,-16.9875,28.6875,-23.2313,,0.014883000000000202,16.752630375555952,17.039499714277607,non_fall
5.84501,12.8508,-4.4275,-9.7931,-1.5797,-1.9268,-3.0516,-16.9875,28.6875,-23.2313,,0.024030999999999914,16.752630375555952,19.014670065622767,non_fall
5.849271,12.8508,-4.4275,-9.7931,-1.5797,-1.9268,-3.0516,-20.2125,26.8875,-20.6063,,0.004260999999999626,16.752630375555952,20.871662049039088,non_fall
5.852553,12.8508,-4.4275,-9.7931,-1.5797,-1.9268,-3.0516,-20.2125,26.8875,-20.6063,,0.0032820000000004512,16.752630375555952,22.508715666168726,non_fall
5.86097,-22.4012,1.3806,16.0025,-1.5797,-1.9268,-3.0516,-20.2125,26.8875,-20.6063,,0.008416999999999675,27.564466692646167,23.827672870402427,non_fall
5.867541,-22.4012,1.3806,16.0025,-1.5797,-1.9268,-3.0516,-20.2125,26.8875,-20.6063,,0.0065710000000001045,27.564466692646167,24.741776248108287,non_fall
5.902073,-22.4012,1.3806,16.0025,-1.5797,-1.9268,-3.0516,-20.2125,26.8875,-20.6063,,0.03453199999999956,27.564466692646167,25.183336820704472,non_fall
5.906049,-22.4012,1.3806,16.0025,-1.5797,-1.9268,-3.0516,-23.925,25.0875,-16.9313,,0.003976000000000646,27.564466692646167,25.11033962309475,non_fall
5.90898,-22.4012,1.3806,16.0025,-0.7245,-1.4787,0.4736,-23.925,25.0875,-16.9313,,0.002930999999999351,27.564466692646167,24.511082362091372,non_fall
5.923489,-22.4012,1.3806,16.0025,-0.7245,-1.4787,0.4736,-23.925,25.0875,-16.9313,,0.014509000000000327,27.564466692646167,23.406164465507498,non_fall
5.927286,-22.4012,1.3806,16.0025,-0.7245,-1.4787,0.4736,-23.925,25.0875,-16.9313,,0.0037969999999996062,27.564466692646167,21.84746650507955,non_fall
5.929662,-12.0801,-2.7723,9.1382,-0.7245,-1.4787,0.4736,-23.925,25.0875,-16.9313,,0.002376000000000822,15.398738991878522,19.914130877885984,non_fall
5.960114,-12.0801,-2.7723,9.1382,-0.7245,-1.4787,0.4736,-23.925,25.0875,-16.9313,,0.03045199999999948,15.398738991878522,17.70595659582109,non_fall
5.963547,-12.0801,-2.7723,9.1382,-0.7245,-1.4787,0.4736,-27.6188,23.925,-13.3125,,0.0034330000000002414,15.398738991878522,15.334987422992459,non_fall
5.966367,-12.0801,-2.7723,9.1382,0.221,0.5333,1.4708,-27.6188,23.925,-13.3125,,0.0028199999999998226,15.398738991878522,12.916287050489355,non_fall
5.979984,-2.8075,-2.1119,1.6081,0.221,0.5333,1.4708,-27.6188,23.925,-13.3125,,0.01361699999999999,3.863698159794577,10.55891167385407,non_fall
5.984401,-2.8075,-2.1119,1.6081,0.221,0.5333,1.4708,-27.6188,23.925,-13.3125,,0.004417000000000115,3.863698159794577,8.357988195812544,non_fall
5.986245,-2.8075,-2.1119,1.6081,0.221,0.5333,1.4708,-27.6188,23.925,-13.3125,,0.0018440000000001788,3.863698159794577,6.388661224441297,non_fall
6.021011,-2.8075,-2.1119,1.6081,0.1206,0.6843,1.0352,-27.6188,23.925,-13.3125,,0.03476599999999941,3.863698159794577,4.702450850899339,non_fall
6.023962,-2.8075,-2.1119,1.6081,0.1206,0.6843,1.0352,-27.6188,23.925,-13.3125,,0.00295100000000037,3.863698159794577,3.326221259379761,non_fall
6.042971,-2.8075,-2.1119,1.6081,0.1206,0.6843,1.0352,-31.1813,23.1188,-9.7688,,0.01900899999999961,3.863698159794577,2.2635672482250317,non_fall
6.046794,0.411,-1.8258,-0.3235,0.1206,0.6843,1.0352,-31.1813,23.1188,-9.7688,,0.003823000000000576,1.899241661821897,1.4981163720701425,non_fall
6.049785,0.411,-1.8258,-0.3235,0.1206,0.6843,1.0352,-31.1813,23.1188,-9.7688,,0.002990999999999744,1.899241661821897,0.9980944245438924,non_fall
6.051457,0.411,-1.8258,-0.3235,0.1206,0.6843,1.0352,-31.1813,23.1188,-9.7688,,0.0016720000000001178,1.899241661821897,0.721495201941489,non_fall
6.100945,0.411,-1.8258,-0.3235,0.1206,0.6843,1.0352,-33.8813,22.6313,-6.45,,0.0494880000000002,1.899241661821897,0.6212721519391196,non_fall
6.105512,0.411,-1.8258,-0.3235,-0.2031,0.0319,1.1351,-33.8813,22.6313,-6.45,,0.004566999999999766,1.899241661821897,0.6500794380919186,non_fall
6.109457,-1.0447,-0.4792,-0.4267,-0.2031,0.0319,1.1351,-33.8813,22.6313,-6.45,,0.003944999999999865,1.2260112642223153,0.764213761167457,non_fall
6.112385,-1.0447,-0.4792,-0.4267,-0.2031,0.0319,1.1351,-33.8813,22.6313,-6.45,,0.0029279999999998196,1.2260112642223153,0.9265431677426199,non_fall
6.114474,-1.0447,-0.4792,-0.4267,-0.2031,0.0319,1.1351,-33.8813,22.6313,-6.45,,0.0020890000000006737,1.2260112642223153,1.1083453934782546,non_fall
6.116419,-1.0447,-0.4792,-0.4267,-0.2031,0.0319,1.1351,-33.8813,22.6313,-6.45,,0.0019449999999991974,1.2260112642223153,1.2900964205191572,non_fall
6.122718,-1.0447,-0.4792,-0.4267,-0.2031,0.0319,1.1351,-33.8813,22.6313,-6.45,,0.006299000000000277,1.2260112642223153,1.4613343318502656,non_fall
6.161358,-1.0447,-0.4792,-0.4267,-0.2031,0.0319,1.1351,-35.5312,22.5563,-3.7688,,0.03864000000000001,1.2260112642223153,1.6197717207336368,non_fall
6.165698,-1.0447,-0.4792,-0.4267,-0.0913,-1.1778,2.0592,-35.5312,22.5563,-3.7688,,0.0043400000000000105,1.2260112642223153,1.7698476980846192,non_fall
6.168969,-0.341,-0.7253,2.3045,-0.0913,-1.1778,2.0592,-35.5312,22.5563,-3.7688,,0.003270999999999802,2.439889616355625,1.920904197577164,non_fall
6.172059,-0.341,-0.7253,2.3045,-0.0913,-1.1778,2.0592,-35.5312,22.5563,-3.7688,,0.003090000000000259,2.439889616355625,2.0851477842252315,non_fall
6.174115,-0.341,-0.7253,2.3045,-0.0913,-1.1778,2.0592,-35.5312,22.5563,-3.7688,,0.0020559999999996137,2.439889616355625,2.2755308856794425,non_fall
6.185795,-0.341,-0.7253,2.3045,-0.0913,-1.1778,2.0592,-35.5312,22.5563,-3.7688,,0.011680000000000135,2.439889616355625,2.5036728489426427,non_fall
6.221064,-0.341,-0.7253,2.3045,-0.0913,-1.1778,2.0592,-35.5312,22.5563,-3.7688,,0.03526900000000044,2.439889616355625,2.7779495403445136,non_fall
6.225058,-0.341,-0.7253,2.3045,-0.0913,-1.1778,2.0592,-35.5312,22.5563,-3.7688,,0.003993999999999609,2.439889616355625,3.101900003148408,non_fall
6.22765,-0.341,-0.7253,2.3045,0.3454,-1.7877,1.9618,-35.5312,22.5563,-3.7688,,0.0025919999999999277,2.439889616355625,3.4731096544133764,non_fall
6.230951,2.8014,0.1868,2.4862,0.3454,-1.7877,1.9618,-35.5312,22.5563,-3.7688,,0.0033010000000004425,3.750190213842493,3.8827156189476417,non_fall
6.239094,2.8014,0.1868,2.4862,0.3454,-1.7877,1.9618,-35.5688,23.0813,-1.7813,,0.008142999999999567,3.750190213842493,4.315636059203073,non_fall
6.255886,2.8014,0.1868,2.4862,0.3454,-1.7877,1.9618,-35.5688,23.0813,-1.7813,,0.016792000000000584,3.750190213842493,4.751558681404226,non_fall
6.282035,2.8014,0.1868,2.4862,0.3454,-1.7877,1.9618,-35.5688,23.0813,-1.7813,,0.02614899999999931,3.750190213842493,5.166647152474241,non_fall
6.285837,2.8014,0.1868,2.4862,0.3454,-1.7877,1.9618,-35.5688,23.0813,-1.7813,,0.003802000000000305,3.750190213842493,5.535843000038528,non_fall
6.288381,7.0347,2.5566,-3.684,0.3454,-1.7877,1.9618,-35.5688,23.0813,-1.7813,,0.0025440000000003238,8.342365590766207,5.835545403611943,non_fall
6.299668,7.0347,2.5566,-3.684,0.3454,-1.7877,1.9618,-34.875,24.3188,-0.0938,,0.01128699999999938,8.342365590766207,6.046339871681131,non_fall
6.302202,7.0347,2.5566,-3.684,-0.2336,-1.0062,0.2377,-34.875,24.3188,-0.0938,,0.0025340000000007024,8.342365590766207,6.155354996146393,non_fall
6.322485,7.0347,2.5566,-3.684,-0.2336,-1.0062,0.2377,-34.875,24.3188,-0.0938,,0.02028300000000005,8.342365590766207,6.157820103681075,non_fall
6.324278,7.0347,2.5566,-3.684,-0.2336,-1.0062,0.2377,-34.875,24.3188,-0.0938,,0.0017929999999992674,8.342365590766207,6.057515812898575,non_fall
6.34148,0.1597,3.59,-1.4422,-0.2336,-1.0062,0.2377,-34.875,24.3188,-0.0938,,0.01720200000000016,3.8721499105793926,5.866030299784127,non_fall
6.343624,0.1597,3.59,-1.4422,-0.2336,-1.0062,0.2377,-34.875,24.3188,-0.0938,,0.002144000000000368,3.8721499105793926,5.600988130459244,non_fall
6.360736,0.1597,3.59,-1.4422,0.0748,-0.3682,0.0303,-34.875,24.3188,-0.0938,,0.017112000000000016,3.8721499105793926,5.283627301271422,non_fall
6.364145,0.1597,3.59,-1.4422,0.0748,-0.3682,0.0303,-33.3375,26.475,0.8813,,0.0034089999999995513,3.8721499105793926,4.936196740844319,non_fall
6.385694,0.1597,3.59,-1.4422,0.0748,-0.3682,0.0303,-33.3375,26.475,0.8813,,0.021549000000000262,3.8721499105793926,4.579608169286472,non_fall
6.389979,0.1597,3.59,-1.4422,0.0748,-0.3682,0.0303,-33.3375,26.475,0.8813,,0.004285000000000316,3.8721499105793926,4.231643394554606,non_fall
6.400507,1.3741,2.87,-1.5587,0.0748,-0.3682,0.0303,-33.3375,26.475,0.8813,,0.01052799999999987,3.543246604457556,3.905860284148317,non_fall
6.404068,1.3741,2.87,-1.5587,0.0748,-0.3682,0.0303,-33.3375,26.475,0.8813,,0.0035609999999994812,3.543246604457556,3.6112056407449415,non_fall
6.419177,1.3741,2.87,-1.5587,0.0756,-0.2025,-0.1141,-33.3375,26.475,0.8813,,0.015109000000000705,3.543246604457556,3.352245021726767,non_fall
6.440188,1.3741,2.87,-1.5587,0.0756,-0.2025,-0.1141,-33.3375,26.475,0.8813,,0.02101099999999967,3.543246604457556,3.1298551894053492,non_fall
6.443774,1.3741,2.87,-1.5587,0.0756,-0.2025,-0.1141,-31.8938,28.8375,1.0688,,0.003586000000000311,3.543246604457556,2.9421897504796743,non_fall
6.451432,1.3741,2.87,-1.5587,0.0756,-0.2025,-0.1141,-31.8938,28.8375,1.0688,,0.0076579999999992765,3.543246604457556,2.785721489099244,non_fall
6.45991,1.3741,2.87,-1.5587,0.0756,-0.2025,-0.1141,-31.8938,28.8375,1.0688,,0.008478000000000208,3.543246604457556,2.656186416020136,non_fall
6.463427,-0.6675,-1.1928,1.8298,0.0756,-0.2025,-0.1141,-31.8938,28.8375,1.0688,,0.0035170000000004364,2.283965001921002,2.549302958737689,non_fall
6.501466,-0.6675,-1.1928,1.8298,0.0756,-0.2025,-0.1141,-31.8938,28.8375,1.0688,,0.03803899999999949,2.283965001921002,2.4612074733018168,non_fall
6.504241,-0.6675,-1.1928,1.8298,0.0756,-0.2025,-0.1141,-30.3938,30.8625,1.3125,,0.002775000000000638,2.283965001921002,2.388617943244817,non_fall
6.506515,-0.6675,-1.1928,1.8298,0.0489,0.2772,0.1326,-30.3938,30.8625,1.3125,,0.0022739999999998872,2.283965001921002,2.3287901438521397,non_fall
6.524209,1.1354,-1.5948,0.5034,0.0489,0.2772,0.1326,-30.3938,30.8625,1.3125,,0.017693999999999654,2.021368783770047,2.279352726043928,non_fall
6.529046,1.1354,-1.5948,0.5034,0.0489,0.2772,0.1326,-30.3938,30.8625,1.3125,,0.004837000000000202,2.021368783770047,2.2381050755127108,non_fall
6.531342,1.1354,-1.5948,0.5034,0.0489,0.2772,0.1326,-30.3938,30.8625,1.3125,,0.002296000000000298,2.021368783770047,2.2028474710362493,non_fall
6.558651,1.1354,-1.5948,0.5034,0.0489,0.2772,0.1326,-30.3938,30.8625,1.3125,,0.027308999999999806,2.021368783770047,2.171294285866046,non_fall
6.562936,1.1354,-1.5948,0.5034,0.0489,0.2772,0.1326,-28.9313,32.475,1.6875,,0.004284999999999428,2.021368783770047,2.1410989718808806,non_fall
6.566324,1.1354,-1.5948,0.5034,-0.1034,0.7124,0.1426,-28.9313,32.475,1.6875,,0.0033880000000001687,2.021368783770047,2.1099957627152706,non_fall
6.583184,1.1354,-1.5948,0.5034,-0.1034,0.7124,0.1426,-28.9313,32.475,1.6875,,0.01686000000000032,2.021368783770047,2.0760403639708795,non_fall
6.58718,1.1354,-1.5948,0.5034,-0.1034,0.7124,0.1426,-28.9313,32.475,1.6875,,0.0039959999999998885,2.021368783770047,2.037912534257458,non_fall
6.589613,1.4469,-1.7003,0.5027,-0.1034,0.7124,0.1426,-28.9313,32.475,1.6875,,0.0024329999999999075,2.2885032204478106,1.9952282697893962,non_fall
6.619786,1.4469,-1.7003,0.5027,-0.1034,0.7124,0.1426,-28.9313,32.475,1.6875,,0.03017300000000045,2.2885032204478106,1.94879943356516,non_fall
6.622505,1.4469,-1.7003,0.5027,-0.5403,0.3361,0.3575,-28.9313,32.475,1.6875,,0.002718999999999916,2.2885032204478106,1.9007770934158714,non_fall
6.641318,1.4469,-1.7003,0.5027,-0.5403,0.3361,0.3575,-27.6563,34.05,2.025,,0.018812999999999747,2.2885032204478106,1.8546257354560616,non_fall
6.645149,1.0519,-0.9878,-0.8318,-0.5403,0.3361,0.3575,-27.6563,34.05,2.025,,0.003830999999999918,1.6655730815548142,1.814900907962931,non_fall
6.647396,1.0519,-0.9878,-0.8318,-0.5403,0.3361,0.3575,-27.6563,34.05,2.025,,0.002246999999999666,1.6655730815548142,1.7868389664571054,non_fall
6.649098,1.0519,-0.9878,-0.8318,-0.5403,0.3361,0.3575,-27.6563,34.05,2.025,,0.0017020000000007585,1.6655730815548142,1.7758044442011587,non_fall
6.683104,1.0519,-0.9878,-0.8318,-0.3505,-0.0417,0.3935,-27.6563,34.05,2.025,,0.03400599999999976,1.6655730815548142,1.786666323206951,non_fall
6.688717,1.0519,-0.9878,-0.8318,-0.3505,-0.0417,0.3935,-27.6563,34.05,2.025,,0.005612999999999424,1.6655730815548142,1.8231828897262161,non_fall
6.699542,1.0519,-0.9878,-0.8318,-0.3505,-0.0417,0.3935,-27.6563,34.05,2.025,,0.010825000000000529,1.6655730815548142,1.8874686640473788,non_fall
6.702437,1.0519,-0.9878,-0.8318,-0.3505,-0.0417,0.3935,-26.3625,35.3813,2.5312,,0.002894999999999648,1.6655730815548142,1.9796027453199925,non_fall
6.705681,2.1492,-0.0982,-0.5652,-0.3505,-0.0417,0.3935,-26.3625,35.3813,2.5312,,0.0032440000000004687,2.224444856587818,2.09741967773973,non_fall
6.709278,2.1492,-0.0982,-0.5652,-0.3505,-0.0417,0.3935,-26.3625,35.3813,2.5312,,0.0035970000000000724,2.224444856587818,2.2365026879758543,non_fall
6.762749,2.1492,-0.0982,-0.5652,-0.3505,-0.0417,0.3935,-25.7625,36.1313,2.7188,,0.053471000000000046,2.224444856587818,2.390377479987549,non_fall
6.76851,2.1492,-0.0982,-0.5652,0.3183,0.0746,-0.1658,-25.7625,36.1313,2.7188,,0.005760999999999683,2.224444856587818,2.5508872696272005,non_fall
6.77139,2.8024,0.7878,-0.845,0.3183,0.0746,-0.1658,-25.7625,36.1313,2.7188,,0.0028800000000002157,3.0311878199808073,2.708717713026169,non_fall
6.773879,2.8024,0.7878,-0.845,0.3183,0.0746,-0.1658,-25.7625,36.1313,2.7188,,0.0024889999999997414,3.0311878199808073,2.854030250479298,non_fall
6.775735,2.8024,0.7878,-0.845,0.3183,0.0746,-0.1658,-25.7625,36.1313,2.7188,,0.0018560000000000798,3.0311878199808073,2.977152700012106,non_fall
6.778245,2.8024,0.7878,-0.845,0.3183,0.0746,-0.1658,-25.7625,36.1313,2.7188,,0.0025100000000000122,3.0311878199808073,3.0692717244058514,non_fall
6.786282,2.8024,0.7878,-0.845,0.3183,0.0746,-0.1658,-25.7625,36.1313,2.7188,,0.00803699999999985,3.0311878199808073,3.1230771876584122,non_fall
6.823306,2.8024,0.7878,-0.845,0.14,-0.2203,-0.6182,-25.7625,36.1313,2.7188,,0.037023999999999724,3.0311878199808073,3.133319037273454,non_fall
6.828564,0.341,0.6926,-3.0829,0.14,-0.2203,-0.6182,-25.7625,36.1313,2.7188,,0.005258000000000429,3.1780887605603465,3.097244653156548,non_fall
6.831394,0.341,0.6926,-3.0829,0.14,-0.2203,-0.6182,-25.7625,36.1313,2.7188,,0.0028300000000003322,3.1780887605603465,3.0148847942939088,non_fall
6.834602,0.341,0.6926,-3.0829,0.14,-0.2203,-0.6182,-25.7625,36.1313,2.7188,,0.0032079999999998776,3.1780887605603465,2.88915266406921,non_fall
6.842167,0.341,0.6926,-3.0829,0.14,-0.2203,-0.6182,-25.4813,36.5063,2.5125,,0.0075649999999996,3.1780887605603465,2.7257201666079136,non_fall
6.854838,0.341,0.6926,-3.0829,0.14,-0.2203,-0.6182,-25.4813,36.5063,2.5125,,0.012671000000000099,3.1780887605603465,2.5326447929492826,non_fall
6.882457,0.341,0.6926,-3.0829,0.1641,-0.0308,-0.4484,-25.4813,36.5063,2.5125,,0.027618999999999616,3.1780887605603465,2.3197443249260705,non_fall
6.886189,-0.8575,0.0552,-0.6782,0.1641,-0.0308,-0.4484,-25.4813,36.5063,2.5125,,0.0037320000000002906,1.0946727958618503,2.0977568022882083,non_fall
6.888927,-0.8575,0.0552,-0.6782,0.1641,-0.0308,-0.4484,-25.4813,36.5063,2.5125,,0.002737999999999907,1.0946727958618503,1.8773757080931646,non_fall
6.890817,-0.8575,0.0552,-0.6782,0.1641,-0.0308,-0.4484,-25.4813,36.5063,2.5125,,0.0018900000000003914,1.0946727958618503,1.6682972022000027,non_fall
6.898016,-0.8575,0.0552,-0.6782,0.1641,-0.0308,-0.4484,-25.5,36.75,2.2313,,0.0071989999999999554,1.0946727958618503,1.478430480370112,non_fall
6.920483,-0.8575,0.0552,-0.6782,0.1641,-0.0308,-0.4484,-25.5,36.75,2.2313,,0.022466999999999793,1.0946727958618503,1.313390452867801,non_fall
6.940467,-0.8575,0.0552,-0.6782,0.1641,-0.0308,-0.4484,-25.5,36.75,2.2313,,0.019984000000000002,1.0946727958618503,1.1763285154404692,non_fall
6.943461,-0.8575,0.0552,-0.6782,0.1641,-0.0308,-0.4484,-25.5,36.75,2.2313,,0.002994000000000163,1.0946727958618503,1.0680903479401485,non_fall
6.944848,-0.6151,-0.0153,-1.0037,0.1641,-0.0308,-0.4484,-25.5,36.75,2.2313,,0.0013870000000002491,1.1772832242073272,0.987638239096677,non_fall
6.961358,-0.6151,-0.0153,-1.0037,0.1641,-0.0308,-0.4484,-25.425,36.7688,2.1,,0.01650999999999936,1.1772832242073272,0.932644134367929,non_fall
6.964414,-0.6151,-0.0153,-1.0037,-0.5648,-0.0438,-0.5986,-25.425,36.7688,2.1,,0.0030559999999999476,1.1772832242073272,0.9001469972519016,non_fall
6.985134,-0.6151,-0.0153,-1.0037,-0.5648,-0.0438,-0.5986,-25.425,36.7688,2.1,,0.020720000000000738,1.1772832242073272,0.8871718478831607,non_fall
6.988187,-0.6151,-0.0153,-1.0037,-0.5648,-0.0438,-0.5986,-25.425,36.7688,2.1,,0.0030529999999995283,1.1772832242073272,0.8912251613054082,non_fall
7.006044,-0.6151,-0.0153,-1.0037,-0.5648,-0.0438,-0.5986,-25.425,36.7688,2.1,,0.017857000000000234,1.1772832242073272,0.9106083926091306,non_fall
7.010107,0.7508,0.2234,0.4652,-0.5648,-0.0438,-0.5986,-25.425,36.7688,2.1,,0.004062999999999484,0.9110539171750485,0.9445240579651492,non_fall
7.023075,0.7508,0.2234,0.4652,-0.4542,-0.0078,-0.1938,-25.425,36.7688,2.1,,0.012968000000000757,0.9110539171750485,0.9929827012033288,non_fall
7.040247,0.7508,0.2234,0.4652,-0.4542,-0.0078,-0.1938,-25.425,36.7688,2.1,,0.01717199999999952,0.9110539171750485,1.0565489574317404,non_fall
7.044489,0.7508,0.2234,0.4652,-0.4542,-0.0078,-0.1938,-25.5938,36.675,2.2875,,0.004241999999999635,0.9110539171750485,1.135984913056062,non_fall
7.056953,0.7508,0.2234,0.4652,-0.4542,-0.0078,-0.1938,-25.5938,36.675,2.2875,,0.012464000000000475,0.9110539171750485,1.2318552106613125,non_fall
7.061272,-0.7751,1.4421,0.0665,-0.4542,-0.0078,-0.1938,-25.5938,36.675,2.2875,,0.00431899999999974,1.638552614352069,1.3441511593423938,non_fall
7.064688,-0.7751,1.4421,0.0665,-0.4542,-0.0078,-0.1938,-25.5938,36.675,2.2875,,0.0034160000000005297,1.638552614352069,1.4719748309491214,non_fall
7.079323,-0.7751,1.4421,0.0665,-0.0212,-0.402,0.3184,-25.5938,36.675,2.2875,,0.014634999999999287,1.638552614352069,1.6133067330326047,non_fall
7.100363,-0.7751,1.4421,0.0665,-0.0212,-0.402,0.3184,-25.5938,36.675,2.2875,,0.02104000000000017,1.638552614352069,1.7648712937132893,non_fall
7.103317,-0.7751,1.4421,0.0665,-0.0212,-0.402,0.3184,-25.6125,36.8063,2.4563,,0.002953999999999901,1.638552614352069,1.9221163265402093,non_fall
7.123987,-0.7751,1.4421,0.0665,-0.0212,-0.402,0.3184,-25.6125,36.8063,2.4563,,0.020669999999999966,1.638552614352069,2.0793288777648087,non_fall
7.127215,-0.7751,1.4421,0.0665,-0.0212,-0.402,0.3184,-25.6125,36.8063,2.4563,,0.0032280000000000086,1.638552614352069,2.229908558077988,non_fall
7.129277,-1.103,2.1107,-1.4171,-0.0212,-0.402,0.3184,-25.6125,36.8063,2.4563,,0.0020620000000004524,2.771251684708554,2.366802712424776,non_fall
7.162767,-1.103,2.1107,-1.4171,-0.0212,-0.402,0.3184,-25.6688,36.75,2.9062,,0.033489999999999576,2.771251684708554,2.4830764227531095,non_fall
7.167335,-1.103,2.1107,-1.4171,0.0683,-0.3935,0.228,-25.6688,36.75,2.9062,,0.0045679999999999055,2.771251684708554,2.572555515885978,non_fall
7.170065,-1.103,2.1107,-1.4171,0.0683,-0.3935,0.228,-25.6688,36.75,2.9062,,0.0027300000000005653,2.771251684708554,2.630459331008894,non_fall
7.183057,-1.103,2.1107,-1.4171,0.0683,-0.3935,0.228,-25.6688,36.75,2.9062,,0.01299199999999967,2.771251684708554,2.6539417144200637,non_fall
7.186748,-1.103,2.1107,-1.4171,0.0683,-0.3935,0.228,-25.6688,36.75,2.9062,,0.003690999999999889,2.771251684708554,2.6424781313444634,non_fall
7.189155,-0.7097,1.6986,-1.7966,0.0683,-0.3935,0.228,-25.6688,36.75,2.9062,,0.002407000000000714,2.5722922870467113,2.598061130423887,non_fall
7.219789,-0.7097,1.6986,-1.7966,0.0683,-0.3935,0.228,-25.6688,36.75,2.9062,,0.030633999999999162,2.5722922870467113,2.525187389665296,non_fall
7.223288,-0.7097,1.6986,-1.7966,-0.0961,-0.2246,0.3491,-25.6688,36.75,2.9062,,0.003499000000000585,2.5722922870467113,2.4306353648307124,non_fall
7.238739,-0.7097,1.6986,-1.7966,-0.0961,-0.2246,0.3491,-25.6688,36.75,2.9062,,0.01545099999999966,2.5722922870467113,2.3230439668059453,non_fall
7.241045,-0.7097,1.6986,-1.7966,-0.0961,-0.2246,0.3491,-25.9688,36.6562,3.2625,,0.0023059999999999192,2.5722922870467113,2.2123122447102697,non_fall
7.243175,-1.3994,1.1957,-0.1561,-0.0961,-0.2246,0.3491,-25.9688,36.6562,3.2625,,0.0021300000000001873,1.8472644802518128,2.1088521653934724,non_fall
7.24476,-1.3994,1.1957,-0.1561,-0.0961,-0.2246,0.3491,-25.9688,36.6562,3.2625,,0.0015850000000003917,1.8472644802518128,2.022744068919106,non_fall
7.281565,-1.3994,1.1957,-0.1561,-0.0961,-0.2246,0.3491,-25.9688,36.6562,3.2625,,0.03680499999999931,1.8472644802518128,1.9628634729477248,non_fall
7.284142,-1.3994,1.1957,-0.1561,-0.2398,-0.0648,0.224,-25.9688,36.6562,3.2625,,0.0025770000000004956,1.8472644802518128,1.9360594233780606,non_fall
7.301247,-1.3994,1.1957,-0.1561,-0.2398,-0.0648,0.224,-25.9688,36.6562,3.2625,,0.017104999999999926,1.8472644802518128,1.946462642805612,non_fall
7.302691,-1.3994,1.1957,-0.1561,-0.2398,-0.0648,0.224,-25.9688,36.6562,3.2625,,0.0014440000000002229,1.8472644802518128,1.9949893380162973,non_fall
7.303781,-1.3994,1.1957,-0.1561,-0.2398,-0.0648,0.224,-26.1563,36.4875,3.8625,,0.0010899999999995913,1.8472644802518128,2.0790907857895684,non_fall
7.305212,-0.0203,1.2513,1.72,-0.2398,-0.0648,0.224,-26.1563,36.4875,3.8625,,0.0014310000000001821,2.1271022025281248,2.1927832408414556,non_fall
7.359635,-0.0203,1.2513,1.72,-0.2398,-0.0648,0.224,-26.1563,36.4875,3.8625,,0.05442299999999989,2.1271022025281248,2.3269764495068634,non_fall
7.36157,-0.0203,1.2513,1.72,-0.2398,-0.0648,0.224,-26.1563,36.4875,3.8625,,0.0019350000000004641,2.1271022025281248,2.4701008105251256,non_fall
7.36292,-0.0203,1.2513,1.72,-0.2398,-0.0648,0.224,-26.1,36.6188,4.4625,,0.0013499999999995183,2.1271022025281248,2.6090127883232572,non_fall
7.364355,-0.0203,1.2513,1.72,0.2225,0.3115,0.1574,-26.1,36.6188,4.4625,,0.001434999999999853,2.1271022025281248,2.730134099643789,non_fall
7.365493,0.4441,0.8636,3.2307,0.2225,0.3115,0.1574,-26.1,36.6188,4.4625,,0.0011380000000000834,3.3734925907729516,2.8207487815870342,non_fall
7.366796,0.4441,0.8636,3.2307,0.2225,0.3115,0.1574,-26.1,36.6188,4.4625,,0.0013030000000000541,3.3734925907729516,2.870342996729057,non_fall
7.387175,0.4441,0.8636,3.2307,0.2225,0.3115,0.1574,-26.1,36.6188,4.4625,,0.020379000000000147,3.3734925907729516,2.8718356595687426,non_fall
7.421282,0.4441,0.8636,3.2307,0.2225,0.3115,0.1574,-26.1,36.6188,4.4625,,0.034106999999999665,3.3734925907729516,2.8225324360041584,non_fall
7.423105,0.4441,0.8636,3.2307,0.2225,0.3115,0.1574,-26.1,36.6188,4.4625,,0.001822999999999908,3.3734925907729516,2.724653667443085,non_fall
7.424167,0.4441,0.8636,3.2307,0.593,0.6371,0.1694,-26.1,36.6188,4.4625,,0.0010620000000001184,3.3734925907729516,2.5853343774523156,non_fall
7.425598,0.5584,0.8503,2.068,0.593,0.6371,0.1694,-26.1,36.6188,4.4625,,0.0014310000000001821,2.304657165393586,2.4160592817571027,non_fall
7.441049,0.5584,0.8503,2.068,0.593,0.6371,0.1694,-25.8188,36.8438,4.5563,,0.01545099999999966,2.304657165393586,2.231567266811432,non_fall
7.455747,0.5584,0.8503,2.068,0.593,0.6371,0.1694,-25.8188,36.8438,4.5563,,0.0146980000000001,2.304657165393586,2.048328630336782,non_fall
7.483498,0.5584,0.8503,2.068,-0.0174,0.5243,0.0805,-25.8188,36.8438,4.5563,,0.027751000000000303,2.304657165393586,1.8827536035873824,non_fall
7.486761,0.1644,0.7644,-0.149,-0.0174,0.5243,0.0805,-25.8188,36.8438,4.5563,,0.00326300000000046,0.7959495712669239,1.7493274697103367,non_fall
7.48926,0.1644,0.7644,-0.149,-0.0174,0.5243,0.0805,-25.8188,36.8438,4.5563,,0.002498999999999363,0.7959495712669239,1.658889921503353,non_fall
7.490713,0.1644,0.7644,-0.149,-0.0174,0.5243,0.0805,-25.8188,36.8438,4.5563,,0.0014530000000005927,0.7959495712669239,1.6172838905553446,non_fall
7.4975,0.1644,0.7644,-0.149,-0.0174,0.5243,0.0805,-25.4813,37.1063,4.5938,,0.00678699999999921,0.7959495712669239,1.6245793910591677,non_fall
7.519127,0.1644,0.7644,-0.149,-0.0174,0.5243,0.0805,-25.4813,37.1063,4.5938,,0.021627000000000507,0.7959495712669239,1.6750204004108025,non_fall
7.541395,0.1644,0.7644,-0.149,-0.0174,0.5243,0.0805,-25.4813,37.1063,4.5938,,0.02226799999999951,0.7959495712669239,1.757753691206323,non_fall
7.545206,0.1644,0.7644,-0.149,-0.0174,0.5243,0.0805,-25.4813,37.1063,4.5938,,0.003811000000000675,0.7959495712669239,1.8582935144314854,non_fall
7.547876,-1.2977,-0.4161,2.9672,-0.0174,0.5243,0.0805,-25.4813,37.1063,4.5938,,0.002669999999999284,3.2651861110815723,1.960565953796839,non_fall
7.55951,-1.2977,-0.4161,2.9672,-0.0174,0.5243,0.0805,-24.8438,37.425,4.125,,0.01163400000000081,3.2651861110815723,2.049270703888023,non_fall
7.563364,-1.2977,-0.4161,2.9672,0.7013,0.6221,0.2258,-24.8438,37.425,4.125,,0.00385399999999958,3.2651861110815723,2.1122178646463885,non_fall
7.576076,-1.2977,-0.4161,2.9672,0.7013,0.6221,0.2258,-24.8438,37.425,4.125,,0.012711999999999612,3.2651861110815723,2.14227578437265,non_fall
7.587844,-1.2977,-0.4161,2.9672,0.7013,0.6221,0.2258,-24.8438,37.425,4.125,,0.011768,3.2651861110815723,2.1386200999363263,non_fall
7.601643,-1.2977,-0.4161,2.9672,0.7013,0.6221,0.2258,-24.8438,37.425,4.125,,0.01379900000000056,3.2651861110815723,2.107087883372573,non_fall
7.60426,0.9847,-0.362,1.3602,0.7013,0.6221,0.2258,-24.8438,37.425,4.125,,0.0026169999999998694,1.7177957183553578,2.059581332559932,non_fall
7.62093,0.9847,-0.362,1.3602,-0.7992,1.3169,-0.3317,-24.8438,37.425,4.125,,0.016670000000000407,1.7177957183553578,2.0126059006511436,non_fall
7.643234,0.9847,-0.362,1.3602,-0.7992,1.3169,-0.3317,-24.8438,37.425,4.125,,0.022303999999999213,1.7177957183553578,1.985147399566661,non_fall
7.647323,0.9847,-0.362,1.3602,-0.7992,1.3169,-0.3317,-24.5625,37.4813,3.5625,,0.004089000000000453,1.7177957183553578,1.9961712393506719,non_fall
7.655847,0.9847,-0.362,1.3602,-0.7992,1.3169,-0.3317,-24.5625,37.4813,3.5625,,0.008523999999999532,1.7177957183553578,2.062055170841345,non_fall
7.66254,0.9847,-0.362,1.3602,-0.7992,1.3169,-0.3317,-24.5625,37.4813,3.5625,,0.006693000000000282,1.7177957183553578,2.194255217023763,non_fall
7.664631,1.0607,-0.1607,-1.1746,-0.7992,1.3169,-0.3317,-24.5625,37.4813,3.5625,,0.002091000000000065,1.590784127403841,2.397472142167122,non_fall
7.682078,1.0607,-0.1607,-1.1746,1.0678,0.2193,-0.7952,-24.5625,37.4813,3.5625,,0.017446999999999768,1.590784127403841,2.668543309969383,non_fall
7.700023,1.0607,-0.1607,-1.1746,1.0678,0.2193,-0.7952,-24.4875,37.5563,2.5312,,0.0179450000000001,1.590784127403841,2.9962298374438467,non_fall
7.703072,1.0607,-0.1607,-1.1746,1.0678,0.2193,-0.7952,-24.4875,37.5563,2.5312,,0.0030489999999998574,1.590784127403841,3.3619928404866055,non_fall
7.720145,1.0607,-0.1607,-1.1746,1.0678,0.2193,-0.7952,-24.4875,37.5563,2.5312,,0.017072999999999894,1.590784127403841,3.7417462154874,non_fall
7.72378,1.771,-3.5523,5.0351,1.0678,0.2193,-0.7952,-24.4875,37.5563,2.5312,,0.003635000000000055,6.411513729221828,4.10843238125128,non_fall
7.726888,1.771,-3.5523,5.0351,1.0678,0.2193,-0.7952,-24.4875,37.5563,2.5312,,0.0031080000000001107,6.411513729221828,4.435104090460436,non_fall
7.762681,1.771,-3.5523,5.0351,1.0678,0.2193,-0.7952,-24.4875,37.5563,2.5312,,0.035792999999999964,6.411513729221828,4.698055383625755,non_fall
7.76614,1.771,-3.5523,5.0351,1.0678,0.2193,-0.7952,-24.4313,37.2,0.7875,,0.003459000000000323,6.411513729221828,4.879494940164654,non_fall
7.769616,1.771,-3.5523,5.0351,2.5458,0.0492,-1.1062,-24.4313,37.2,0.7875,,0.0034760000000000346,6.411513729221828,4.969331179637189,non_fall
7.785458,1.771,-3.5523,5.0351,2.5458,0.0492,-1.1062,-24.4313,37.2,0.7875,,0.015842000000000134,6.411513729221828,4.965811273357218,non_fall
7.790271,1.771,-3.5523,5.0351,2.5458,0.0492,-1.1062,-24.4313,37.2,0.7875,,0.004812999999999512,6.411513729221828,4.874965297200049,non_fall
7.792979,0.2288,-2.3046,-0.847,2.5458,0.0492,-1.1062,-24.4313,37.2,0.7875,,0.0027080000000001547,2.4659561228862126,4.709011143701662,non_fall
7.821413,0.2288,-2.3046,-0.847,0.6243,-1.0328,-1.4692,-24.4313,37.2,0.7875,,0.02843399999999985,2.4659561228862126,4.484055415532522,non_fall
7.825546,0.2288,-2.3046,-0.847,0.6243,-1.0328,-1.4692,-24.4313,37.2,0.7875,,0.004133000000000386,2.4659561228862126,4.217549275710049,non_fall
7.838553,0.2288,-2.3046,-0.847,0.6243,-1.0328,-1.4692,-24.4313,37.2,0.7875,,0.01300699999999999,2.4659561228862126,3.9259810179559196,non_fall
7.841784,0.2288,-2.3046,-0.847,0.6243,-1.0328,-1.4692,-25.05,36.5625,-1.2375,,0.00323099999999954,2.4659561228862126,3.6231903303741952,non_fall
7.844614,-0.7003,-0.3038,-3.3389,0.6243,-1.0328,-1.4692,-25.05,36.5625,-1.2375,,0.0028300000000003322,3.4250500346710266,3.319508558710994,non_fall
7.847646,-0.7003,-0.3038,-3.3389,0.6243,-1.0328,-1.4692,-25.05,36.5625,-1.2375,,0.0030320000000001457,3.4250500346710266,3.021729161415562,non_fall
7.881109,-0.7003,-0.3038,-3.3389,0.005,-0.4826,-1.104,-25.05,36.5625,-1.2375,,0.03346300000000024,3.4250500346710266,2.7337458891795374,non_fall
7.885629,-0.7003,-0.3038,-3.3389,0.005,-0.4826,-1.104,-25.05,36.5625,-1.2375,,0.004519999999999413,3.4250500346710266,2.457592291950162,non_fall
7.900259,-0.7003,-0.3038,-3.3389,0.005,-0.4826,-1.104,-26.0438,35.4,-3.15,,0.014630000000000365,3.4250500346710266,2.1945842394654926,non_fall
7.9041,-0.7003,-0.3038,-3.3389,0.005,-0.4826,-1.104,-26.0438,35.4,-3.15,,0.0038409999999995392,3.4250500346710266,1.9463000732584954,non_fall
7.906236,0.4146,-0.4999,-0.7528,0.005,-0.4826,-1.104,-26.0438,35.4,-3.15,,0.002136000000000138,0.9942338809354668,1.7152150219159867,non_fall
7.909117,0.4146,-0.4999,-0.7528,0.005,-0.4826,-1.104,-26.0438,35.4,-3.15,,0.0028810000000003555,0.9942338809354668,1.5049179646257254,non_fall
7.959579,0.4146,-0.4999,-0.7528,0.005,-0.4826,-1.104,-27.3375,33.9,-4.425,,0.05046199999999956,0.9942338809354668,1.3199499617572132,non_fall
7.964545,0.4146,-0.4999,-0.7528,0.005,-0.4826,-1.104,-27.3375,33.9,-4.425,,0.00496600000000047,0.9942338809354668,1.1653784537555063,non_fall
7.966834,0.4146,-0.4999,-0.7528,0.005,-0.4826,-1.104,-27.3375,33.9,-4.425,,0.0022890000000002075,0.9942338809354668,1.0462391913878126,non_fall
7.96953,0.0101,-0.711,-0.584,0.005,-0.4826,-1.104,-27.3375,33.9,-4.425,,0.0026959999999993656,0.9201516233751913,0.966954103433227,non_fall
7.97228,0.0101,-0.711,-0.584,0.1459,-0.2148,-0.6796,-27.3375,33.9,-4.425,,0.002749999999999808,0.9201516233751913,0.9307981021294854,non_fall
7.974761,0.0101,-0.711,-0.584,0.1459,-0.2148,-0.6796,-27.3375,33.9,-4.425,,0.0024810000000003996,0.9201516233751913,0.9394610838135424,non_fall
7.984587,0.0101,-0.711,-0.584,0.1459,-0.2148,-0.6796,-27.3375,33.9,-4.425,,0.009826000000000334,0.9201516233751913,0.9927361338655123,non_fall
8.020256,0.0101,-0.711,-0.584,0.1459,-0.2148,-0.6796,-27.3375,33.9,-4.425,,0.03566899999999951,0.9201516233751913,1.0883569010821028,non_fall
8.023842,0.0101,-0.711,-0.584,0.1459,-0.2148,-0.6796,-27.3375,33.9,-4.425,,0.003586000000000311,0.9201516233751913,1.2220014302564592,non_fall
8.025449,0.0101,-0.711,-0.584,-0.1167,0.8143,-0.605,-27.3375,33.9,-4.425,,0.001606999999999914,0.9201516233751913,1.3874719396208481,non_fall
8.027693,1.199,-0.2244,-1.6099,-0.1167,0.8143,-0.605,-27.3375,33.9,-4.425,,0.0022439999999992466,2.0198352333791982,1.5770459104884826,non_fall
8.03656,1.199,-0.2244,-1.6099,-0.1167,0.8143,-0.605,-28.7625,32.2688,-5.9062,,0.008867000000000402,2.0198352333791982,1.7819723556603488,non_fall
8.064761,1.199,-0.2244,-1.6099,-0.1167,0.8143,-0.605,-28.7625,32.2688,-5.9062,,0.02820100000000103,2.0198352333791982,1.9930646919821418,non_fall
