time,ax,ay,az,wx,wy,wz,Bx,By,Bz,Unnamed: 10,time_diff,acc_mag,acc_mag_filtered,label
0.079829,0.0,0.0,0.0,0.0,0.0,0.0,0.0,0.0,0.0,,0.0,0.0,-0.0076861603665329585,non_fall
0.080138,0.0,0.0,0.0,0.0,0.0,0.0,0.0,0.0,0.0,,0.0003090000000000037,0.0,-0.05001065813950784,non_fall
0.080416,0.0,0.0,0.0,0.0,0.0,0.0,0.0,0.0,0.0,,0.00027800000000000047,0.0,-0.08832350656472143,non_fall
0.131121,0.0,0.0,0.0,0.0,0.0,0.0,0.0,0.0,0.0,,0.050704999999999986,0.0,-0.1189696804425814,non_fall
0.132763,0.0,0.0,0.0,0.0,0.0,0.0,0.0,0.0,0.0,,0.0016420000000000046,0.0,-0.1382986343619456,non_fall
0.133291,0.0,0.0,0.0,0.5336,0.5392,0.5849,0.0,0.0,0.0,,0.0005280000000000007,0.0,-0.1427613513743247,non_fall
0.135242,0.0,0.0,0.0,0.5336,0.5392,0.5849,0.0,0.0,0.0,,0.0019510000000000083,0.0,-0.1290823853542835,non_fall
0.150936,0.0,0.0,0.0,0.5336,0.5392,0.5849,9.7313,-7.4063,-43.1438,,0.015693999999999986,0.0,-0.09450562135927808,non_fall
0.171983,0.0,0.0,0.0,0.5336,0.5392,0.5849,9.7313,-7.4063,-43.1438,,0.02104700000000001,0.0,-0.03709612822717812,non_fall
0.172658,0.0,0.0,0.0,0.5336,0.5392,0.5849,9.7313,-7.4063,-43.1438,,0.0006750000000000089,0.0,0.0439360416081232,non_fall
0.173047,0.0,0.0,0.0,0.5336,0.5392,0.5849,9.7313,-7.4063,-43.1438,,0.00038900000000000046,0.0,0.14793860892793806,non_fall
0.190267,0.0,0.0,0.0,1.5663,0.4373,0.5058,9.7313,-7.4063,-43.1438,,0.017219999999999985,0.0,0.2726044272985898,non_fall
0.20408,0.0,0.0,0.0,1.5663,0.4373,0.5058,9.7313,-7.4063,-43.1438,,0.01381300000000002,0.0,0.4139033455782838,non_fall
0.228643,0.0,0.0,0.0,1.5663,0.4373,0.5058,9.7313,-7.4063,-43.1438,,0.024563,0.0,0.5662096996195619,non_fall
0.229377,0.0,0.0,0.0,1.5663,0.4373,0.5058,10.1438,-10.0688,-42.5438,,0.0007339999999999847,0.0,0.7226543293969616,non_fall
0.230257,-0.1803,-0.5676,1.4135,1.5663,0.4373,0.5058,10.1438,-10.0688,-42.5438,,0.0008799999999999919,1.5338383552382566,0.8756926084082111,non_fall
0.231,-0.1803,-0.5676,1.4135,1.5663,0.4373,0.5058,10.1438,-10.0688,-42.5438,,0.0007430000000000214,1.5338383552382566,1.0178309331973538,non_fall
0.249379,-0.1803,-0.5676,1.4135,1.5696,0.3031,0.2914,10.1438,-10.0688,-42.5438,,0.01837899999999998,1.5338383552382566,1.142408008958314,non_fall
0.272487,-0.1803,-0.5676,1.4135,1.5696,0.3031,0.2914,10.1438,-10.0688,-42.5438,,0.02310799999999999,1.5338383552382566,1.2443058196013055,non_fall
0.273255,-0.1803,-0.5676,1.4135,1.5696,0.3031,0.2914,10.1438,-10.0688,-42.5438,,0.0007680000000000464,1.5338383552382566,1.320479930416315,non_fall
0.292339,-0.1803,-0.5676,1.4135,1.5696,0.3031,0.2914,10.725,-12.4688,-41.6813,,0.01908399999999999,1.5338383552382566,1.3702399728471364,non_fall
0.29332,-0.1803,-0.5676,1.4135,1.5696,0.3031,0.2914,10.725,-12.4688,-41.6813,,0.0009810000000000096,1.5338383552382566,1.3952587294710928,non_fall
0.293755,-0.054,-0.3363,-1.1694,1.5696,0.3031,0.2914,10.725,-12.4688,-41.6813,,0.0004349999999999632,1.2179942733855524,1.3993288896103813,non_fall
0.331136,-0.054,-0.3363,-1.1694,1.5696,0.3031,0.2914,10.725,-12.4688,-41.6813,,0.037381,1.2179942733855524,1.387916694371608,non_fall
0.331891,-0.054,-0.3363,-1.1694,1.5535,-0.3125,0.6458,10.725,-12.4688,-41.6813,,0.0007550000000000057,1.2179942733855524,1.3675804709932313,non_fall
0.335314,-0.054,-0.3363,-1.1694,1.5535,-0.3125,0.6458,10.725,-12.4688,-41.6813,,0.0034230000000000094,1.2179942733855524,1.3453279019886402,non_fall
0.347582,-0.054,-0.3363,-1.1694,1.5535,-0.3125,0.6458,10.575,-14.6063,-41.1562,,0.012268000000000001,1.2179942733855524,1.3279790563636156,non_fall
0.351209,-0.054,-0.3363,-1.1694,1.5535,-0.3125,0.6458,10.575,-14.6063,-41.1562,,0.0036269999999999913,1.2179942733855524,1.3215869217549698,non_fall
0.351871,-0.0887,0.5463,1.3713,1.5535,-0.3125,0.6458,10.575,-14.6063,-41.1562,,0.0006619999999999959,1.4787748543980588,1.3309492459179155,non_fall
0.391261,-0.0887,0.5463,1.3713,1.5535,-0.3125,0.6458,10.575,-14.6063,-41.1562,,0.039390000000000036,1.4787748543980588,1.359229408758707,non_fall
0.391897,-0.0887,0.5463,1.3713,1.1224,-1.3203,0.6614,10.575,-14.6063,-41.1562,,0.0006359999999999699,1.4787748543980588,1.4076930895574806,non_fall
0.402632,-0.0887,0.5463,1.3713,1.1224,-1.3203,0.6614,10.575,-14.6063,-41.1562,,0.010734999999999995,1.4787748543980588,1.475564317071939,non_fall
0.410455,-0.0886,-0.1453,-1.3764,1.1224,-1.3203,0.6614,10.575,-14.6063,-41.1562,,0.007823000000000024,1.3868810367151179,1.5600090583345272,non_fall
0.411429,-0.0886,-0.1453,-1.3764,1.1224,-1.3203,0.6614,10.575,-14.6063,-41.1562,,0.0009739999999999749,1.3868810367151179,1.656262336622726,non_fall
0.428617,-0.0886,-0.1453,-1.3764,1.1224,-1.3203,0.6614,9.5063,-16.5375,-40.575,,0.017188000000000037,1.3868810367151179,1.7579188378230706,non_fall
0.451442,-0.0886,-0.1453,-1.3764,1.1224,-1.3203,0.6614,9.5063,-16.5375,-40.575,,0.022824999999999984,1.3868810367151179,1.8574007373495933,non_fall
0.452146,-0.0886,-0.1453,-1.3764,-0.2091,-0.01,0.491,9.5063,-16.5375,-40.575,,0.0007039999999999824,1.3868810367151179,1.9465965021266372,non_fall
0.475388,-1.6931,1.3652,-1.5895,-0.2091,-0.01,0.491,9.5063,-16.5375,-40.575,,0.023241999999999985,2.6938576243001413,2.017630545508834,non_fall
0.476771,-1.6931,1.3652,-1.5895,-0.2091,-0.01,0.491,9.5063,-16.5375,-40.575,,0.001383000000000023,2.6938576243001413,2.0636813292277387,non_fall
0.477205,-1.6931,1.3652,-1.5895,-0.2091,-0.01,0.491,9.5063,-16.5375,-40.575,,0.00043399999999998995,2.6938576243001413,2.0797296315731364,non_fall
0.488378,-1.6931,1.3652,-1.5895,-0.2091,-0.01,0.491,8.6625,-17.7563,-40.0875,,0.011172999999999988,2.6938576243001413,2.063109814646752,non_fall
0.529961,-1.6931,1.3652,-1.5895,-0.81,-1.3168,0.557,8.6625,-17.7563,-40.0875,,0.04158300000000004,2.6938576243001413,2.0137668003878884,non_fall
0.531017,-0.723,0.9336,-0.5124,-0.81,-1.3168,0.557,8.6625,-17.7563,-40.0875,,0.0010559999999999459,1.2872030609037566,1.934182995879158,non_fall
0.531913,-0.723,0.9336,-0.5124,-0.81,-1.3168,0.557,8.6625,-17.7563,-40.0875,,0.0008960000000000079,1.2872030609037566,1.8290122569969063,non_fall
0.532373,-0.723,0.9336,-0.5124,-0.81,-1.3168,0.557,8.6625,-17.7563,-40.0875,,0.00046000000000001595,1.2872030609037566,1.7045180817236667,non_fall
0.532752,-0.723,0.9336,-0.5124,-0.81,-1.3168,0.557,8.6625,-17.7563,-40.0875,,0.0003790000000000182,1.2872030609037566,1.5679394977136358,non_fall
0.547555,-0.723,0.9336,-0.5124,-0.81,-1.3168,0.557,7.5,-18.3938,-40.0875,,0.01480300000000001,1.2872030609037566,1.4268934207347088,non_fall
0.591654,-0.723,0.9336,-0.5124,-0.81,-1.3168,0.557,7.5,-18.3938,-40.0875,,0.044099,1.2872030609037566,1.2888799693998687,non_fall
0.592358,-0.723,0.9336,-0.5124,-0.81,-1.3168,0.557,7.5,-18.3938,-40.0875,,0.0007040000000000379,1.2872030609037566,1.1609101159116662,non_fall
0.592748,-0.723,0.9336,-0.5124,-0.81,-1.3168,0.557,7.5,-18.3938,-40.0875,,0.00039000000000000146,1.2872030609037566,1.049239221218339,non_fall
0.593229,-0.723,0.9336,-0.5124,-1.1275,-0.8246,0.4024,7.5,-18.3938,-40.0875,,0.0004809999999999537,1.2872030609037566,0.9591711374443779,non_fall
0.59391,0.509,0.5227,0.4081,-1.1275,-0.8246,0.4024,7.5,-18.3938,-40.0875,,0.0006810000000000427,0.8359676429144851,0.8948958129240683,non_fall
0.630933,0.509,0.5227,0.4081,-1.1275,-0.8246,0.4024,6.3375,-18.3563,-40.2938,,0.03702299999999992,0.8359676429144851,0.8593358399528999,non_fall
0.632061,0.509,0.5227,0.4081,-1.1275,-0.8246,0.4024,6.3375,-18.3563,-40.2938,,0.0011280000000000179,0.8359676429144851,0.8539974439337008,non_fall
0.653241,0.509,0.5227,0.4081,-0.7097,0.0075,0.6413,6.3375,-18.3563,-40.2938,,0.021179999999999977,0.8359676429144851,0.8788397808507461,non_fall
0.654156,-0.107,-0.0704,0.9761,-0.7097,0.0075,0.6413,6.3375,-18.3563,-40.2938,,0.0009149999999999991,0.9844675566010289,0.9321866525807195,non_fall
0.654704,-0.107,-0.0704,0.9761,-0.7097,0.0075,0.6413,6.3375,-18.3563,-40.2938,,0.0005479999999999929,0.9844675566010289,1.010707055831417,non_fall
0.65507,-0.107,-0.0704,0.9761,-0.7097,0.0075,0.6413,6.3375,-18.3563,-40.2938,,0.0003660000000000885,0.9844675566010289,1.1094896206412521,non_fall
0.688714,-0.107,-0.0704,0.9761,-0.7097,0.0075,0.6413,6.3375,-18.3563,-40.2938,,0.03364400000000001,0.9844675566010289,1.2222340022725846,non_fall
0.689354,-0.107,-0.0704,0.9761,-0.7097,0.0075,0.6413,4.7438,-19.5375,-40.05,,0.0006399999999999739,0.9844675566010289,1.3415788156272712,non_fall
0.711738,-0.107,-0.0704,0.9761,-0.7097,0.0075,0.6413,4.7438,-19.5375,-40.05,,0.02238399999999996,0.9844675566010289,1.4595767742262864,non_fall
0.712521,-0.107,-0.0704,0.9761,-0.7097,0.0075,0.6413,4.7438,-19.5375,-40.05,,0.0007829999999999782,0.9844675566010289,1.5683086622163913,non_fall
0.713137,0.1523,0.1419,2.3335,-0.7097,0.0075,0.6413,4.7438,-19.5375,-40.05,,0.0006160000000000609,2.342766132160869,1.6605960800540318,non_fall
0.730602,0.1523,0.1419,2.3335,-0.3942,-0.6782,0.636,4.7438,-19.5375,-40.05,,0.017464999999999953,2.342766132160869,1.7307321379283513,non_fall
0.736894,0.1523,0.1419,2.3335,-0.3942,-0.6782,0.636,4.7438,-19.5375,-40.05,,0.006292000000000075,2.342766132160869,1.775113563081732,non_fall
0.747966,0.1523,0.1419,2.3335,-0.3942,-0.6782,0.636,2.775,-19.8375,-40.1063,,0.01107199999999997,2.342766132160869,1.7926478276264632,non_fall
0.772233,0.1523,0.1419,2.3335,-0.3942,-0.6782,0.636,2.775,-19.8375,-40.1063,,0.024266999999999928,2.342766132160869,1.7848367098202453,non_fall
0.772901,0.1523,0.1419,2.3335,-0.3942,-0.6782,0.636,2.775,-19.8375,-40.1063,,0.0006680000000000019,2.342766132160869,1.7554960072605819,non_fall
0.773261,-0.0036,0.4099,0.921,-0.3942,-0.6782,0.636,2.775,-19.8375,-40.1063,,0.00036000000000002697,1.0081031544440282,1.7101426649625764,non_fall
0.792324,-0.0036,0.4099,0.921,-0.4104,-1.0332,0.4104,2.775,-19.8375,-40.1063,,0.019063000000000052,1.0081031544440282,1.6551497178340637,non_fall
0.803404,-0.0036,0.4099,0.921,-0.4104,-1.0332,0.4104,2.775,-19.8375,-40.1063,,0.011079999999999979,1.0081031544440282,1.5968205243506526,non_fall
0.828468,-0.0036,0.4099,0.921,-0.4104,-1.0332,0.4104,2.775,-19.8375,-40.1063,,0.025063999999999975,1.0081031544440282,1.5405493995519448,non_fall
0.829217,-0.0036,0.4099,0.921,-0.4104,-1.0332,0.4104,0.2063,-19.3688,-40.4062,,0.0007489999999999997,1.0081031544440282,1.49020829071259,non_fall
0.831969,0.5504,0.0305,1.4625,-0.4104,-1.0332,0.4104,0.2063,-19.3688,-40.4062,,0.0027519999999999767,1.5629384696781892,1.4478398058726059,non_fall
0.833078,0.5504,0.0305,1.4625,-0.4104,-1.0332,0.4104,0.2063,-19.3688,-40.4062,,0.0011090000000000266,1.5629384696781892,1.4136675826623795,non_fall
0.849694,0.5504,0.0305,1.4625,-0.1529,-1.1768,0.097,0.2063,-19.3688,-40.4062,,0.016615999999999964,1.5629384696781892,1.3863751236505355,non_fall
0.868422,0.5504,0.0305,1.4625,-0.1529,-1.1768,0.097,0.2063,-19.3688,-40.4062,,0.018728000000000078,1.5629384696781892,1.3635661282513443,non_fall
0.889153,0.5504,0.0305,1.4625,-0.1529,-1.1768,0.097,-2.6438,-18.3375,-40.6875,,0.020730999999999944,1.5629384696781892,1.342306898362346,non_fall
0.890032,0.5504,0.0305,1.4625,-0.1529,-1.1768,0.097,-2.6438,-18.3375,-40.6875,,0.0008790000000000742,1.5629384696781892,1.3196596797989324,non_fall
0.890456,0.406,-0.1387,1.2257,-0.1529,-1.1768,0.097,-2.6438,-18.3375,-40.6875,,0.00042399999999997995,1.2986201061126383,1.2931358843721557,non_fall
0.891115,0.406,-0.1387,1.2257,-0.1529,-1.1768,0.097,-2.6438,-18.3375,-40.6875,,0.0006589999999999652,1.2986201061126383,1.2610228028489774,non_fall
0.930623,0.406,-0.1387,1.2257,-0.3487,-0.6944,-0.1051,-2.6438,-18.3375,-40.6875,,0.03950799999999999,1.2986201061126383,1.2225617254269838,non_fall
0.931569,0.406,-0.1387,1.2257,-0.3487,-0.6944,-0.1051,-2.6438,-18.3375,-40.6875,,0.0009460000000000024,1.2986201061126383,1.1779753511139377,non_fall
0.935104,0.406,-0.1387,1.2257,-0.3487,-0.6944,-0.1051,-2.6438,-18.3375,-40.6875,,0.003535000000000066,1.2986201061126383,1.1283564950417653,non_fall
0.94797,0.406,-0.1387,1.2257,-0.3487,-0.6944,-0.1051,-5.0063,-16.8188,-41.0063,,0.012865999999999933,1.2986201061126383,1.0754409271548953,non_fall
0.953233,0.3644,-0.0894,0.549,-0.3487,-0.6944,-0.1051,-5.0063,-16.8188,-41.0063,,0.005263000000000018,0.6649667059334625,1.021298912476854,non_fall
0.95413,0.3644,-0.0894,0.549,-0.3487,-0.6944,-0.1051,-5.0063,-16.8188,-41.0063,,0.0008970000000000367,0.6649667059334625,0.9679938132797967,non_fall
0.993499,0.3644,-0.0894,0.549,-0.3707,-0.6376,-0.2233,-5.0063,-16.8188,-41.0063,,0.03936899999999999,0.6649667059334625,0.9172669466301355,non_fall
0.995185,0.3644,-0.0894,0.549,-0.3707,-0.6376,-0.2233,-5.0063,-16.8188,-41.0063,,0.0016859999999999653,0.6649667059334625,0.8703071247829394,non_fall
1.005099,0.3644,-0.0894,0.549,-0.3707,-0.6376,-0.2233,-5.0063,-16.8188,-41.0063,,0.009913999999999978,0.6649667059334625,0.8276465164770007,non_fall
1.011141,-0.0321,-0.0763,0.8427,-0.3707,-0.6376,-0.2233,-5.0063,-16.8188,-41.0063,,0.006042000000000103,0.8467558030506789,0.7891962623218174,non_fall
1.012808,-0.0321,-0.0763,0.8427,-0.3707,-0.6376,-0.2233,-5.0063,-16.8188,-41.0063,,0.001666999999999863,0.8467558030506789,0.7544052133107231,non_fall
1.028974,-0.0321,-0.0763,0.8427,-0.3707,-0.6376,-0.2233,-7.6125,-15.2813,-41.4375,,0.016166000000000125,0.8467558030506789,0.7225012510486702,non_fall
1.036092,-0.0321,-0.0763,0.8427,-0.3707,-0.6376,-0.2233,-7.6125,-15.2813,-41.4375,,0.007117999999999958,0.8467558030506789,0.6927613234183284,non_fall
1.052163,-0.0321,-0.0763,0.8427,-0.3909,-0.41,-0.1601,-7.6125,-15.2813,-41.4375,,0.016070999999999946,0.8467558030506789,0.6647547334156287,non_fall
1.072571,-0.0321,-0.0763,0.8427,-0.3909,-0.41,-0.1601,-7.6125,-15.2813,-41.4375,,0.02040799999999998,0.8467558030506789,0.638512579575878,non_fall
1.075325,-0.0321,-0.0763,0.8427,-0.3909,-0.41,-0.1601,-7.6125,-15.2813,-41.4375,,0.0027540000000001452,0.8467558030506789,0.6145915449754064,non_fall
1.078154,-0.2663,0.0971,0.4018,-0.3909,-0.41,-0.1601,-7.6125,-15.2813,-41.4375,,0.0028289999999999704,0.4917187610819827,0.594020083501534,non_fall
1.089914,-0.2663,0.0971,0.4018,-0.3909,-0.41,-0.1601,-9.6938,-13.8563,-41.6438,,0.011759999999999993,0.4917187610819827,0.5781372287977301,non_fall
1.133181,-0.2663,0.0971,0.4018,-0.3909,-0.41,-0.1601,-9.6938,-13.8563,-41.6438,,0.043266999999999944,0.4917187610819827,0.5683546906661483,non_fall
1.136455,-0.2663,0.0971,0.4018,-0.3909,-0.41,-0.1601,-9.6938,-13.8563,-41.6438,,0.003273999999999999,0.4917187610819827,0.5658861019602794,non_fall
1.138754,-0.2663,0.0971,0.4018,-0.3909,-0.41,-0.1601,-9.6938,-13.8563,-41.6438,,0.002299000000000051,0.4917187610819827,0.5714901857567303,non_fall
1.140441,-0.2663,0.0971,0.4018,-0.4721,0.0108,-0.2324,-9.6938,-13.8563,-41.6438,,0.001686999999999994,0.4917187610819827,0.5852691689805791,non_fall
1.14268,0.2675,0.2551,0.2245,-0.4721,0.0108,-0.2324,-9.6938,-13.8563,-41.6438,,0.00223899999999988,0.4324725540424502,0.6065543015715597,non_fall
1.149818,0.2675,0.2551,0.2245,-0.4721,0.0108,-0.2324,-11.4,-12.7125,-41.55,,0.007138000000000089,0.4324725540424502,0.6338993958189284,non_fall
1.19263,0.2675,0.2551,0.2245,-0.2887,-0.1505,-0.3395,-11.4,-12.7125,-41.55,,0.04281200000000007,0.4324725540424502,0.6651905651683124,non_fall
1.195475,0.2738,0.2241,0.8178,-0.2887,-0.1505,-0.3395,-11.4,-12.7125,-41.55,,0.0028449999999999864,0.891057848851577,0.6978643934843489,lateral_fall
1.198256,0.2738,0.2241,0.8178,-0.2887,-0.1505,-0.3395,-11.4,-12.7125,-41.55,,0.0027809999999999224,0.891057848851577,0.7292079390278664,lateral_fall
1.201225,0.2738,0.2241,0.8178,-0.2887,-0.1505,-0.3395,-11.4,-12.7125,-41.55,,0.0029689999999999994,0.891057848851577,0.7566967237955436,lateral_fall
1.203276,0.2738,0.2241,0.8178,-0.2887,-0.1505,-0.3395,-11.4,-12.7125,-41.55,,0.002051000000000025,0.891057848851577,0.7783182075345304,lateral_fall
1.232292,0.2738,0.2241,0.8178,-0.2887,-0.1505,-0.3395,-11.4,-12.7125,-41.55,,0.02901599999999993,0.891057848851577,0.792831963362357,lateral_fall
1.234563,0.2738,0.2241,0.8178,-0.2887,-0.1505,-0.3395,-12.9938,-11.7563,-41.625,,0.002271000000000134,0.891057848851577,0.7999309055920647,lateral_fall
1.252122,0.2738,0.2241,0.8178,-0.2887,-0.1505,-0.3395,-12.9938,-11.7563,-41.625,,0.01755899999999988,0.891057848851577,0.8002843079359228,lateral_fall
1.254097,0.2738,0.2241,0.8178,-0.2887,-0.1505,-0.3395,-12.9938,-11.7563,-41.625,,0.00197500000000006,0.891057848851577,0.7954589292584637,lateral_fall
1.255545,0.2738,0.2241,0.8178,-0.1419,-0.0383,-0.1978,-12.9938,-11.7563,-41.625,,0.0014479999999998938,0.891057848851577,0.7877284978138538,lateral_fall
1.257788,-0.123,0.5338,0.346,-0.1419,-0.0383,-0.1978,-12.9938,-11.7563,-41.625,,0.002242999999999995,0.6479100554860991,0.7797945886952777,lateral_fall
1.288052,-0.123,0.5338,0.346,-0.1419,-0.0383,-0.1978,-14.475,-11.0438,-41.475,,0.03026400000000007,0.6479100554860991,0.7744534625341236,lateral_fall
1.289898,-0.123,0.5338,0.346,-0.1419,-0.0383,-0.1978,-14.475,-11.0438,-41.475,,0.0018460000000000143,0.6479100554860991,0.7742517983964021,lateral_fall
1.314708,-0.123,0.5338,0.346,-0.1419,-0.0383,-0.1978,-14.475,-11.0438,-41.475,,0.02481,0.6479100554860991,0.7811762611259193,lateral_fall
1.316239,-0.123,0.5338,0.346,-0.1419,-0.0383,-0.1978,-14.475,-11.0438,-41.475,,0.001530999999999949,0.6479100554860991,0.7964157481759712,lateral_fall
1.317267,0.1013,0.857,-0.1224,-0.1419,-0.0383,-0.1978,-14.475,-11.0438,-41.475,,0.0010280000000000289,0.871603378836957,0.8202225269897402,lateral_fall
1.333974,0.1013,0.857,-0.1224,-0.2215,-0.099,-0.3005,-14.475,-11.0438,-41.475,,0.016707000000000027,0.871603378836957,0.8518830208409338,lateral_fall
1.33758,0.1013,0.857,-0.1224,-0.2215,-0.099,-0.3005,-14.475,-11.0438,-41.475,,0.003605999999999998,0.871603378836957,0.8897947133610085,lateral_fall
1.349479,0.1013,0.857,-0.1224,-0.2215,-0.099,-0.3005,-15.45,-10.4438,-41.3438,,0.011899000000000104,0.871603378836957,0.931635655902592,lateral_fall
1.372347,0.1013,0.857,-0.1224,-0.2215,-0.099,-0.3005,-15.45,-10.4438,-41.3438,,0.02286799999999989,0.871603378836957,0.9746081109404879,lateral_fall
1.375026,0.1013,0.857,-0.1224,-0.2215,-0.099,-0.3005,-15.45,-10.4438,-41.3438,,0.002679000000000098,0.871603378836957,1.0157354035417823,lateral_fall
1.377647,0.6955,0.9344,-0.4517,-0.2215,-0.099,-0.3005,-15.45,-10.4438,-41.3438,,0.0026209999999999845,1.2493424270391205,1.0521873029994175,lateral_fall
1.392326,0.6955,0.9344,-0.4517,-0.3995,0.0288,-0.6448,-15.45,-10.4438,-41.3438,,0.014678999999999887,1.2493424270391205,1.0816028124402883,lateral_fall
1.402867,0.6955,0.9344,-0.4517,-0.3995,0.0288,-0.6448,-15.45,-10.4438,-41.3438,,0.010541000000000134,1.2493424270391205,1.102373074311433,lateral_fall
1.432914,0.6955,0.9344,-0.4517,-0.3995,0.0288,-0.6448,-15.45,-10.4438,-41.3438,,0.030046999999999935,1.2493424270391205,1.113846781408287,lateral_fall
1.435549,0.6955,0.9344,-0.4517,-0.3995,0.0288,-0.6448,-15.9,-9.8438,-41.3813,,0.002634999999999943,1.2493424270391205,1.1164293091598592,lateral_fall
1.438365,0.6955,0.9344,-0.4517,-0.3995,0.0288,-0.6448,-15.9,-9.8438,-41.3813,,0.0028159999999999297,1.2493424270391205,1.1115628567322209,lateral_fall
1.440205,0.4492,0.5297,-0.6723,-0.3995,0.0288,-0.6448,-15.9,-9.8438,-41.3813,,0.0018400000000000638,0.9666178252029082,1.1015936106377346,lateral_fall
1.453355,0.4492,0.5297,-0.6723,-0.5727,0.1145,-0.9919,-15.9,-9.8438,-41.3813,,0.013149999999999995,0.9666178252029082,1.08954949240473,lateral_fall
1.469129,0.4492,0.5297,-0.6723,-0.5727,0.1145,-0.9919,-15.9,-9.8438,-41.3813,,0.015773999999999955,0.9666178252029082,1.0788651761891785,lateral_fall
1.489227,0.4492,0.5297,-0.6723,-0.5727,0.1145,-0.9919,-16.0312,-9.375,-41.55,,0.02009800000000017,0.9666178252029082,1.0730963456893259,lateral_fall
1.492236,0.4492,0.5297,-0.6723,-0.5727,0.1145,-0.9919,-16.0312,-9.375,-41.55,,0.0030089999999998174,0.9666178252029082,1.0756611437617605,lateral_fall
1.493988,0.4492,0.5297,-0.6723,-0.5727,0.1145,-0.9919,-16.0312,-9.375,-41.55,,0.0017520000000001978,0.9666178252029082,1.0896357203515405,lateral_fall
1.495358,-0.3031,0.4497,-1.1258,-0.5727,0.1145,-0.9919,-16.0312,-9.375,-41.55,,0.0013699999999998713,1.249610075183455,1.1176167463639448,lateral_fall
1.53353,-0.3031,0.4497,-1.1258,-0.5727,0.1145,-0.9919,-16.0312,-9.375,-41.55,,0.038172000000000095,1.249610075183455,1.1616500453739245,lateral_fall
1.536193,-0.3031,0.4497,-1.1258,-0.6792,0.2206,-1.3788,-16.0312,-9.375,-41.55,,0.00266299999999986,1.249610075183455,1.2232139898798517,lateral_fall
1.538687,-0.3031,0.4497,-1.1258,-0.6792,0.2206,-1.3788,-16.0312,-9.375,-41.55,,0.0024939999999999962,1.249610075183455,1.3032418069746161,lateral_fall
1.550599,-0.3031,0.4497,-1.1258,-0.6792,0.2206,-1.3788,-15.6938,-8.85,-41.7563,,0.011912000000000145,1.249610075183455,1.402168704560385,lateral_fall
1.553245,-0.3031,0.4497,-1.1258,-0.6792,0.2206,-1.3788,-15.6938,-8.85,-41.7563,,0.002645999999999926,1.249610075183455,1.5199936640424307,lateral_fall
1.554641,-0.4738,-0.282,-2.0556,-0.6792,0.2206,-1.3788,-15.6938,-8.85,-41.7563,,0.0013959999999999528,2.1282626247716703,1.656345957370177,lateral_fall
1.595745,-0.4738,-0.282,-2.0556,-0.6792,0.2206,-1.3788,-15.6938,-8.85,-41.7563,,0.04110400000000003,2.1282626247716703,1.8105408105902663,lateral_fall
1.5986,-0.4738,-0.282,-2.0556,-0.8483,-0.2595,-1.5646,-15.6938,-8.85,-41.7563,,0.002855000000000052,2.1282626247716703,1.9816027698529437,lateral_fall
1.605057,-0.4738,-0.282,-2.0556,-0.8483,-0.2595,-1.5646,-15.6938,-8.85,-41.7563,,0.006456999999999935,2.1282626247716703,2.168239350064869,lateral_fall
1.618321,-0.4738,-0.282,-2.0556,-0.8483,-0.2595,-1.5646,-15.6938,-8.85,-41.7563,,0.013263999999999943,2.1282626247716703,2.3687654116463843,lateral_fall
1.620338,-0.4986,-2.4094,-1.2047,-0.8483,-0.2595,-1.5646,-15.6938,-8.85,-41.7563,,0.0020170000000001576,2.739546022610316,2.581002053095067,lateral_fall
1.628341,-0.4986,-2.4094,-1.2047,-0.8483,-0.2595,-1.5646,-15.4313,-8.2688,-41.8875,,0.008002999999999982,2.739546022610316,2.8021899314521,lateral_fall
1.651664,-0.4986,-2.4094,-1.2047,-0.8483,-0.2595,-1.5646,-15.4313,-8.2688,-41.8875,,0.023322999999999983,2.739546022610316,3.028961056670465,lateral_fall
1.653812,-0.4986,-2.4094,-1.2047,-1.3398,-0.4746,-1.7318,-15.4313,-8.2688,-41.8875,,0.0021480000000000388,2.739546022610316,3.2574091445366826,lateral_fall
1.669446,-0.4986,-2.4094,-1.2047,-1.3398,-0.4746,-1.7318,-15.4313,-8.2688,-41.8875,,0.015633999999999926,2.739546022610316,3.4832890503439886,lateral_fall
1.671435,-1.3366,-3.8144,-1.2213,-1.3398,-0.4746,-1.7318,-15.4313,-8.2688,-41.8875,,0.0019890000000000185,4.222288551248008,3.702355875277824,lateral_fall
1.673343,-1.3366,-3.8144,-1.2213,-1.3398,-0.4746,-1.7318,-15.4313,-8.2688,-41.8875,,0.0019080000000000208,4.222288551248008,3.9108198827719525,lateral_fall
1.688182,-1.3366,-3.8144,-1.2213,-1.3398,-0.4746,-1.7318,-15.3563,-7.65,-42.1125,,0.014839000000000047,4.222288551248008,4.105853209720954,lateral_fall
1.73245,-1.3366,-3.8144,-1.2213,-1.5481,-0.6821,-1.484,-15.3563,-7.65,-42.1125,,0.044267999999999974,4.222288551248008,4.286058093030772,lateral_fall
1.735771,-2.6086,-4.2423,0.7583,-1.5481,-0.6821,-1.484,-15.3563,-7.65,-42.1125,,0.0033209999999999074,5.037551204702539,4.451805631775843,lateral_fall
1.738928,-2.6086,-4.2423,0.7583,-1.5481,-0.6821,-1.484,-15.3563,-7.65,-42.1125,,0.0031570000000000764,5.037551204702539,4.605372465721756,lateral_fall
1.740695,-2.6086,-4.2423,0.7583,-1.5481,-0.6821,-1.484,-15.3563,-7.65,-42.1125,,0.001767000000000074,5.037551204702539,4.750828732821866,lateral_fall
1.743528,-2.6086,-4.2423,0.7583,-1.5481,-0.6821,-1.484,-15.3563,-7.65,-42.1125,,0.0028329999999998634,5.037551204702539,4.893662480035689,lateral_fall
1.750589,-2.6086,-4.2423,0.7583,-1.5481,-0.6821,-1.484,-15.4125,-6.6,-42.3375,,0.007060999999999984,5.037551204702539,5.040165551523758,lateral_fall
1.798896,-2.6086,-4.2423,0.7583,-1.5481,-0.6821,-1.484,-15.4125,-6.6,-42.3375,,0.0483070000000001,5.037551204702539,5.196648586222992,lateral_fall
1.80087,-2.6086,-4.2423,0.7583,-1.5481,-0.6821,-1.484,-15.4125,-6.6,-42.3375,,0.0019739999999999203,5.037551204702539,5.368587218954078,lateral_fall
1.802282,-2.6086,-4.2423,0.7583,-1.5481,-0.6821,-1.484,-15.4125,-6.6,-42.3375,,0.0014119999999999688,5.037551204702539,5.559819714968928,lateral_fall
1.803546,-2.6086,-4.2423,0.7583,-1.4095,-0.5478,-1.2451,-15.4125,-6.6,-42.3375,,0.0012640000000001539,5.037551204702539,5.771914642044993,lateral_fall
1.805367,-1.2208,-5.681,2.5217,-1.4095,-0.5478,-1.2451,-15.4125,-6.6,-42.3375,,0.0018209999999998505,6.3342785327138875,6.003804832935977,lateral_fall
1.827839,-1.2208,-5.681,2.5217,-1.4095,-0.5478,-1.2451,-15.4125,-6.6,-42.3375,,0.022472000000000047,6.3342785327138875,6.251743669815505,lateral_fall
1.829503,-1.2208,-5.681,2.5217,-1.4095,-0.5478,-1.2451,-15.4875,-5.1938,-42.3938,,0.0016640000000001098,6.3342785327138875,6.50959277296172,lateral_fall
1.851969,-1.2208,-5.681,2.5217,-1.4095,-0.5478,-1.2451,-15.4875,-5.1938,-42.3938,,0.022465999999999875,6.3342785327138875,6.769412841165466,lateral_fall
1.85364,-1.2208,-5.681,2.5217,-1.4095,-0.5478,-1.2451,-15.4875,-5.1938,-42.3938,,0.001670999999999978,6.3342785327138875,7.022308775186687,lateral_fall
1.854628,-1.2208,-5.681,2.5217,-1.543,1.5784,-1.7307,-15.4875,-5.1938,-42.3938,,0.0009879999999999889,6.3342785327138875,7.259465110365947,lateral_fall
1.856705,3.3467,-8.0646,0.5901,-1.543,1.5784,-1.7307,-15.4875,-5.1938,-42.3938,,0.0020770000000001065,8.75136515407739,7.473279583371239,lateral_fall
1.87448,3.3467,-8.0646,0.5901,-1.543,1.5784,-1.7307,-15.4875,-5.1938,-42.3938,,0.017774999999999874,8.75136515407739,7.658456556916175,lateral_fall
1.890623,3.3467,-8.0646,0.5901,-1.543,1.5784,-1.7307,-15.0938,-3.3563,-42.5625,,0.01614300000000002,8.75136515407739,7.812879225511233,lateral_fall
1.914693,3.3467,-8.0646,0.5901,-1.543,1.5784,-1.7307,-15.0938,-3.3563,-42.5625,,0.024070000000000036,8.75136515407739,7.938076267774237,lateral_fall
1.916151,3.3467,-8.0646,0.5901,-1.543,1.5784,-1.7307,-15.0938,-3.3563,-42.5625,,0.0014579999999999593,8.75136515407739,8.039155185673774,lateral_fall
1.917288,6.0241,-0.8937,-4.8944,-1.543,1.5784,-1.7307,-15.0938,-3.3563,-42.5625,,0.0011370000000001657,7.81304242020994,8.124176388058837,lateral_fall
1.933422,6.0241,-0.8937,-4.8944,-2.1747,1.509,-2.7247,-15.0938,-3.3563,-42.5625,,0.01613399999999987,7.81304242020994,8.203054364292846,lateral_fall
1.937687,6.0241,-0.8937,-4.8944,-2.1747,1.509,-2.7247,-15.0938,-3.3563,-42.5625,,0.004264999999999963,7.81304242020994,8.286163781280477,lateral_fall
1.950115,6.0241,-0.8937,-4.8944,-2.1747,1.509,-2.7247,-14.4938,-1.2188,-42.6188,,0.012428000000000106,7.81304242020994,8.38287951778892,lateral_fall
1.973859,6.0241,-0.8937,-4.8944,-2.1747,1.509,-2.7247,-14.4938,-1.2188,-42.6188,,0.023743999999999987,7.81304242020994,8.500284376848638,lateral_fall
1.976929,6.0241,-0.8937,-4.8944,-2.1747,1.509,-2.7247,-14.4938,-1.2188,-42.6188,,0.003069999999999906,7.81304242020994,8.642244036860578,lateral_fall
1.979028,6.9613,-3.9935,3.0892,-2.1747,1.509,-2.7247,-14.4938,-1.2188,-42.6188,,0.002099000000000073,8.599470715107994,8.808989268297132,lateral_fall
1.992911,6.9613,-3.9935,3.0892,-0.2739,0.8304,-3.0568,-14.4938,-1.2188,-42.6188,,0.01388300000000009,8.599470715107994,8.997271588276726,lateral_fall
2.002131,6.9613,-3.9935,3.0892,-0.2739,0.8304,-3.0568,-14.4938,-1.2188,-42.6188,,0.009219999999999784,8.599470715107994,9.20107953989749,lateral_fall
2.030984,6.9613,-3.9935,3.0892,-0.2739,0.8304,-3.0568,-14.4938,-1.2188,-42.6188,,0.02885300000000024,8.599470715107994,9.412827739532135,lateral_fall
2.033198,6.9613,-3.9935,3.0892,-0.2739,0.8304,-3.0568,-13.9875,0.975,-42.6375,,0.0022139999999999382,8.599470715107994,9.62486257823287,lateral_fall
2.034809,5.5993,-10.4301,-2.603,-0.2739,0.8304,-3.0568,-13.9875,0.975,-42.6375,,0.001611000000000029,12.120839719260378,9.83106061390923,lateral_fall
2.03855,5.5993,-10.4301,-2.603,-0.2739,0.8304,-3.0568,-13.9875,0.975,-42.6375,,0.0037409999999997723,12.120839719260378,10.028227746849833,lateral_fall
2.052905,5.5993,-10.4301,-2.603,1.0899,-0.695,-0.7294,-13.9875,0.975,-42.6375,,0.014355000000000118,12.120839719260378,10.216966464770536,lateral_fall
2.074008,5.5993,-10.4301,-2.603,1.0899,-0.695,-0.7294,-13.9875,0.975,-42.6375,,0.021103000000000094,12.120839719260378,10.40171267204,lateral_fall
2.087797,5.5993,-10.4301,-2.603,1.0899,-0.695,-0.7294,-13.9875,0.975,-42.6375,,0.013789000000000051,12.120839719260378,10.589778372076879,lateral_fall
2.089822,5.5993,-10.4301,-2.603,1.0899,-0.695,-0.7294,-13.8,2.8313,-42.4875,,0.0020249999999997215,12.120839719260378,10.789446998299425,lateral_fall
2.093488,-6.8959,-2.8471,4.0979,1.0899,-0.695,-0.7294,-13.8,2.8313,-42.4875,,0.003665999999999947,8.511885785770389,11.00740230406285,lateral_fall
2.096701,-6.8959,-2.8471,4.0979,1.0899,-0.695,-0.7294,-13.8,2.8313,-42.4875,,0.0032130000000001324,8.511885785770389,11.24598014874479,lateral_fall
2.131781,-6.8959,-2.8471,4.0979,1.0899,-0.695,-0.7294,-13.8,2.8313,-42.4875,,0.03508000000000022,8.511885785770389,11.500864660529743,lateral_fall
2.133515,-6.8959,-2.8471,4.0979,1.6866,-3.04,0.7619,-13.8,2.8313,-42.4875,,0.0017339999999999023,8.511885785770389,11.75985073863995,lateral_fall
2.13675,-6.8959,-2.8471,4.0979,1.6866,-3.04,0.7619,-13.8,2.8313,-42.4875,,0.003235000000000099,8.511885785770389,12.003135691360246,lateral_fall
2.149467,-6.8959,-2.8471,4.0979,1.6866,-3.04,0.7619,-14.25,4.05,-42.075,,0.012716999999999867,8.511885785770389,12.205308211199872,lateral_fall
2.153046,0.6388,16.7058,1.127,1.6866,-3.04,0.7619,-14.25,4.05,-42.075,,0.003578999999999777,16.755952616309226,12.338828180646637,lateral_fall
2.154259,0.6388,16.7058,1.127,1.6866,-3.04,0.7619,-14.25,4.05,-42.075,,0.0012130000000003527,16.755952616309226,12.378403511990557,lateral_fall
2.193919,0.6388,16.7058,1.127,1.6866,-3.04,0.7619,-14.25,4.05,-42.075,,0.03966000000000003,16.755952616309226,12.305371402738885,lateral_fall
2.195271,0.6388,16.7058,1.127,-0.2318,1.0552,-2.8782,-14.25,4.05,-42.075,,0.0013519999999997978,16.755952616309226,12.111107917222215,lateral_fall
2.20377,0.6388,16.7058,1.127,-0.2318,1.0552,-2.8782,-14.25,4.05,-42.075,,0.008499000000000034,16.755952616309226,11.79869014223188,lateral_fall
2.213029,5.9311,3.6799,3.1126,-0.2318,1.0552,-2.8782,-14.25,4.05,-42.075,,0.009259000000000128,7.642505477917565,11.38246653271174,lateral_fall
2.214692,5.9311,3.6799,3.1126,-0.2318,1.0552,-2.8782,-14.25,4.05,-42.075,,0.001662999999999748,7.642505477917565,10.88571480369727,lateral_fall
2.231118,5.9311,3.6799,3.1126,-0.2318,1.0552,-2.8782,-14.4188,4.6875,-41.8313,,0.01642600000000005,7.642505477917565,10.337017962633665,lateral_fall
2.253494,5.9311,3.6799,3.1126,-0.2318,1.0552,-2.8782,-14.4188,4.6875,-41.8313,,0.02237599999999995,7.642505477917565,9.766220293479016,lateral_fall
2.255756,5.9311,3.6799,3.1126,1.2987,-1.0704,-1.6267,-14.4188,4.6875,-41.8313,,0.0022619999999999862,7.642505477917565,9.200778696354043,lateral_fall
2.269658,5.9311,3.6799,3.1126,1.2987,-1.0704,-1.6267,-14.4188,4.6875,-41.8313,,0.013902000000000303,7.642505477917565,8.66307669122985,lateral_fall
2.277111,5.9311,3.6799,3.1126,1.2987,-1.0704,-1.6267,-14.4188,4.6875,-41.8313,,0.007452999999999932,7.642505477917565,8.16895722264448,lateral_fall
2.279747,-4.8656,-3.1183,5.9898,1.2987,-1.0704,-1.6267,-14.4188,4.6875,-41.8313,,0.0026359999999998607,8.32319423598897,7.727453931714251,lateral_fall
2.288805,-4.8656,-3.1183,5.9898,1.2987,-1.0704,-1.6267,-14.6438,4.2,-41.2875,,0.00905800000000001,8.32319423598897,7.3414941397379545,lateral_fall
2.33269,-4.8656,-3.1183,5.9898,1.2987,-1.0704,-1.6267,-14.6438,4.2,-41.2875,,0.04388499999999995,8.32319423598897,7.009219300600969,lateral_fall
2.33564,-4.8656,-3.1183,5.9898,1.2987,-1.0704,-1.6267,-14.6438,4.2,-41.2875,,0.00295000000000023,8.32319423598897,6.725525066246151,lateral_fall
2.338624,-4.8656,-3.1183,5.9898,1.2987,-1.0704,-1.6267,-14.6438,4.2,-41.2875,,0.0029839999999996536,8.32319423598897,6.483462111604946,lateral_fall
2.341078,-4.8656,-3.1183,5.9898,1.3686,-2.7834,-1.9174,-14.6438,4.2,-41.2875,,0.0024540000000001783,8.32319423598897,6.275248827108173,lateral_fall
2.345009,1.9165,1.6028,3.1509,1.3686,-2.7834,-1.9174,-14.6438,4.2,-41.2875,,0.003931000000000129,4.021207641990152,6.0928091614533475,lateral_fall
2.354464,1.9165,1.6028,3.1509,1.3686,-2.7834,-1.9174,-15.2813,2.6063,-40.3688,,0.009454999999999991,4.021207641990152,5.927934510972979,lateral_fall
2.395162,1.9165,1.6028,3.1509,1.3686,-2.7834,-1.9174,-15.2813,2.6063,-40.3688,,0.0406979999999999,4.021207641990152,5.772325283015436,lateral_fall
2.397869,1.9165,1.6028,3.1509,1.3686,-2.7834,-1.9174,-15.2813,2.6063,-40.3688,,0.002707000000000015,4.021207641990152,5.617828560617381,lateral_fall
2.399333,1.9165,1.6028,3.1509,1.3686,-2.7834,-1.9174,-15.2813,2.6063,-40.3688,,0.0014639999999999098,4.021207641990152,5.457118639804122,lateral_fall
2.400988,1.9165,1.6028,3.1509,1.0397,0.5197,-3.1343,-15.2813,2.6063,-40.3688,,0.001654999999999962,4.021207641990152,5.28489591387809,lateral_fall
2.403333,4.6444,4.9138,2.2466,1.0397,0.5197,-3.1343,-15.2813,2.6063,-40.3688,,0.0023450000000000415,7.12482233883765,5.099469252458455,lateral_fall
2.42902,4.6444,4.9138,2.2466,1.0397,0.5197,-3.1343,-15.2813,2.6063,-40.3688,,0.025687000000000015,7.12482233883765,4.9043930984663975,lateral_fall
2.430257,4.6444,4.9138,2.2466,1.0397,0.5197,-3.1343,-15.8813,-0.4875,-39.4125,,0.0012370000000001546,7.12482233883765,4.709701178839302,lateral_fall
2.454536,4.6444,4.9138,2.2466,1.0397,0.5197,-3.1343,-15.8813,-0.4875,-39.4125,,0.02427899999999994,7.12482233883765,4.532262189185562,lateral_fall
2.456069,4.6444,4.9138,2.2466,1.0397,0.5197,-3.1343,-15.8813,-0.4875,-39.4125,,0.0015329999999997845,7.12482233883765,4.394902605368332,lateral_fall
2.457402,4.6444,4.9138,2.2466,0.9759,0.1379,-3.2586,-15.8813,-0.4875,-39.4125,,0.0013330000000002507,7.12482233883765,4.324175895196615,lateral_fall
2.458956,-0.4349,1.1704,0.259,0.9759,0.1379,-3.2586,-15.8813,-0.4875,-39.4125,,0.0015540000000000553,1.275168682959239,4.346957004489543,lateral_fall
2.48854,-0.4349,1.1704,0.259,0.9759,0.1379,-3.2586,-16.0125,-4.4625,-38.475,,0.029583999999999833,1.275168682959239,4.486349807405238,lateral_fall
2.490413,-0.4349,1.1704,0.259,0.9759,0.1379,-3.2586,-16.0125,-4.4625,-38.475,,0.0018730000000002356,1.275168682959239,4.75763578459305,lateral_fall
2.513927,-0.4349,1.1704,0.259,0.9759,0.1379,-3.2586,-16.0125,-4.4625,-38.475,,0.02351399999999959,1.275168682959239,5.1650694145563225,lateral_fall
2.517178,-0.4349,1.1704,0.259,0.9759,0.1379,-3.2586,-16.0125,-4.4625,-38.475,,0.003251000000000115,1.275168682959239,5.700185416399407,lateral_fall
2.519378,-6.6199,-6.5034,-2.0092,0.9759,0.1379,-3.2586,-16.0125,-4.4625,-38.475,,0.002200000000000202,9.49495509257416,6.341957214702247,lateral_fall
2.539701,-6.6199,-6.5034,-2.0092,-0.1462,1.031,-1.9546,-16.0125,-4.4625,-38.475,,0.02032299999999987,9.49495509257416,7.058733163557017,lateral_fall
2.543677,-6.6199,-6.5034,-2.0092,-0.1462,1.031,-1.9546,-16.0125,-4.4625,-38.475,,0.003976000000000202,9.49495509257416,7.8115062154002315,lateral_fall
2.552037,-6.6199,-6.5034,-2.0092,-0.1462,1.031,-1.9546,-15.7875,-8.625,-37.4625,,0.008359999999999701,9.49495509257416,8.557868684168216,lateral_fall
2.57519,-6.6199,-6.5034,-2.0092,-0.1462,1.031,-1.9546,-15.7875,-8.625,-37.4625,,0.0231530000000002,9.49495509257416,9.256016274287358,lateral_fall
2.577768,-6.6199,-6.5034,-2.0092,-0.1462,1.031,-1.9546,-15.7875,-8.625,-37.4625,,0.002577999999999747,9.49495509257416,9.868326147385071,lateral_fall
2.57922,-8.0451,-7.0424,4.3323,-0.1462,1.031,-1.9546,-15.7875,-8.625,-37.4625,,0.0014520000000000088,11.536370965776023,10.364220229941353,lateral_fall
2.594758,-8.0451,-7.0424,4.3323,1.2407,0.128,-0.9092,-15.7875,-8.625,-37.4625,,0.015538000000000274,11.536370965776023,10.722160413873702,lateral_fall
2.603912,-8.0451,-7.0424,4.3323,1.2407,0.128,-0.9092,-15.7875,-8.625,-37.4625,,0.009153999999999662,11.536370965776023,10.930703991467315,lateral_fall
2.628808,-8.0451,-7.0424,4.3323,1.2407,0.128,-0.9092,-15.7875,-8.625,-37.4625,,0.02489600000000003,11.536370965776023,10.988611367454904,lateral_fall
2.631113,-8.0451,-7.0424,4.3323,1.2407,0.128,-0.9092,-15.0,-12.975,-36.3188,,0.0023050000000002235,11.536370965776023,10.904072836573528,lateral_fall
2.633634,-7.7836,-3.8469,3.1351,1.2407,0.128,-0.9092,-15.0,-12.975,-36.3188,,0.0025209999999997734,9.231030309775827,10.693208005658054,lateral_fall
2.635474,-7.7836,-3.8469,3.1351,1.2407,0.128,-0.9092,-15.0,-12.975,-36.3188,,0.0018400000000000638,9.231030309775827,10.378070847007702,lateral_fall
2.652284,-7.7836,-3.8469,3.1351,1.2588,-0.027,-0.1106,-15.0,-12.975,-36.3188,,0.01680999999999999,9.231030309775827,9.984439174323988,lateral_fall
2.6709,-7.7836,-3.8469,3.1351,1.2588,-0.027,-0.1106,-15.0,-12.975,-36.3188,,0.018616000000000188,9.231030309775827,9.539656602561866,lateral_fall
2.690641,-7.7836,-3.8469,3.1351,1.2588,-0.027,-0.1106,-15.0,-12.975,-36.3188,,0.019740999999999786,9.231030309775827,9.070725992064922,lateral_fall
2.693554,-7.7836,-3.8469,3.1351,1.2588,-0.027,-0.1106,-13.6313,-17.1375,-35.1188,,0.0029129999999999434,9.231030309775827,8.602755976016237,lateral_fall
2.697372,-6.919,-1.5054,-2.4141,1.2588,-0.027,-0.1106,-13.6313,-17.1375,-35.1188,,0.003818000000000321,7.481087418951874,8.15777906425111,lateral_fall
2.700004,-6.919,-1.5054,-2.4141,1.2588,-0.027,-0.1106,-13.6313,-17.1375,-35.1188,,0.0026319999999997457,7.481087418951874,7.753915307264433,lateral_fall
2.733557,-6.919,-1.5054,-2.4141,-0.004,0.2518,0.297,-13.6313,-17.1375,-35.1188,,0.033552999999999944,7.481087418951874,7.4048432693409545,lateral_fall
2.736576,-6.919,-1.5054,-2.4141,-0.004,0.2518,0.297,-13.6313,-17.1375,-35.1188,,0.003019000000000105,7.481087418951874,7.119536222704618,lateral_fall
2.738299,-6.919,-1.5054,-2.4141,-0.004,0.2518,0.297,-13.6313,-17.1375,-35.1188,,0.001723000000000141,7.481087418951874,6.902210829347173,lateral_fall
2.747887,-6.919,-1.5054,-2.4141,-0.004,0.2518,0.297,-12.4313,-21.0,-33.6938,,0.00958799999999993,7.481087418951874,6.752425922895314,lateral_fall
2.756918,-6.919,-1.5054,-2.4141,-0.004,0.2518,0.297,-12.4313,-21.0,-33.6938,,0.009031000000000233,7.481087418951874,6.665279031448935,lateral_fall
2.758993,-5.0215,-1.8459,-1.1376,-0.004,0.2518,0.297,-12.4313,-21.0,-33.6938,,0.002074999999999605,5.469638271403329,6.6316872304911,lateral_fall
2.79293,-5.0215,-1.8459,-1.1376,-0.004,0.2518,0.297,-12.4313,-21.0,-33.6938,,0.03393700000000033,5.469638271403329,6.6387974504974405,lateral_fall
2.794569,-5.0215,-1.8459,-1.1376,0.9783,0.2907,0.8198,-12.4313,-21.0,-33.6938,,0.001638999999999946,5.469638271403329,6.670621240870884,lateral_fall
2.802087,-5.0215,-1.8459,-1.1376,0.9783,0.2907,0.8198,-12.4313,-21.0,-33.6938,,0.007518000000000136,5.469638271403329,6.708993350182724,lateral_fall
2.814421,-4.8291,-2.4877,5.1512,0.9783,0.2907,0.8198,-12.4313,-21.0,-33.6938,,0.012333999999999623,7.486235338272502,6.734892206595705,lateral_fall
2.817252,-4.8291,-2.4877,5.1512,0.9783,0.2907,0.8198,-12.4313,-21.0,-33.6938,,0.002831000000000028,7.486235338272502,6.73005034047047,lateral_fall
2.831986,-4.8291,-2.4877,5.1512,0.9783,0.2907,0.8198,-11.0625,-24.3,-32.25,,0.014734000000000247,7.486235338272502,6.67867095119591,lateral_fall
2.852608,-4.8291,-2.4877,5.1512,0.9783,0.2907,0.8198,-11.0625,-24.3,-32.25,,0.020621999999999918,7.486235338272502,6.569002404148711,lateral_fall
2.85499,-4.8291,-2.4877,5.1512,1.6583,0.2591,1.3816,-11.0625,-24.3,-32.25,,0.002381999999999884,7.486235338272502,6.394528872346458,lateral_fall
2.871624,-4.8291,-2.4877,5.1512,1.6583,0.2591,1.3816,-11.0625,-24.3,-32.25,,0.01663400000000026,7.486235338272502,6.154602803580114,lateral_fall
2.873676,-3.3359,-2.3068,2.1279,1.6583,0.2591,1.3816,-11.0625,-24.3,-32.25,,0.0020519999999999428,4.580121555155496,5.8544483462940295,lateral_fall
2.876353,-3.3359,-2.3068,2.1279,1.6583,0.2591,1.3816,-11.0625,-24.3,-32.25,,0.0026769999999998184,4.580121555155496,5.504579986897899,lateral_fall
2.88869,-3.3359,-2.3068,2.1279,1.6583,0.2591,1.3816,-9.4313,-27.1125,-31.125,,0.012337000000000042,4.580121555155496,5.119777922074278,lateral_fall
2.916898,-3.3359,-2.3068,2.1279,1.6583,0.2591,1.3816,-9.4313,-27.1125,-31.125,,0.028208000000000233,4.580121555155496,4.717805915738036,lateral_fall
2.919608,-3.3359,-2.3068,2.1279,1.6583,0.2591,1.3816,-9.4313,-27.1125,-31.125,,0.00270999999999999,4.580121555155496,4.318034830489679,lateral_fall
2.935509,-3.3359,-2.3068,2.1279,1.6008,0.0454,1.6381,-9.4313,-27.1125,-31.125,,0.015900999999999943,4.580121555155496,3.940072739206198,lateral_fall
2.939106,-3.3359,-2.3068,2.1279,1.6008,0.0454,1.6381,-9.4313,-27.1125,-31.125,,0.0035970000000000724,4.580121555155496,3.6024468147907642,lateral_fall
2.9409,-1.3793,-1.2429,-1.5862,1.6008,0.0454,1.6381,-9.4313,-27.1125,-31.125,,0.0017939999999998513,2.441986760815873,3.32136406755605,lateral_fall
2.950577,-1.3793,-1.2429,-1.5862,1.6008,0.0454,1.6381,-8.925,-29.175,-29.4375,,0.009676999999999936,2.441986760815873,3.1095999043541136,lateral_fall
2.994163,-1.3793,-1.2429,-1.5862,1.6008,0.0454,1.6381,-8.925,-29.175,-29.4375,,0.0435859999999999,2.441986760815873,2.975602068946706,lateral_fall
2.99565,-1.3793,-1.2429,-1.5862,1.6008,0.0454,1.6381,-8.925,-29.175,-29.4375,,0.001487000000000016,2.441986760815873,2.922916800839711,lateral_fall
2.997077,-1.3793,-1.2429,-1.5862,1.6008,0.0454,1.6381,-8.925,-29.175,-29.4375,,0.001427000000000067,2.441986760815873,2.9500215046699467,lateral_fall
2.998197,-1.3793,-1.2429,-1.5862,1.1944,-0.0325,1.6032,-8.925,-29.175,-29.4375,,0.0011199999999997878,2.441986760815873,3.050590712299849,lateral_fall
2.99984,-0.2297,-0.455,-4.2121,1.1944,-0.0325,1.6032,-8.925,-29.175,-29.4375,,0.001643000000000061,4.24282612182022,3.2141518633474284,lateral_fall
3.018697,-0.2297,-0.455,-4.2121,1.1944,-0.0325,1.6032,-8.925,-29.175,-29.4375,,0.018857000000000124,4.24282612182022,3.427022939850576,lateral_fall
3.031967,-0.2297,-0.455,-4.2121,1.1944,-0.0325,1.6032,-9.675,-30.7875,-27.3938,,0.013269999999999893,4.24282612182022,3.6733816815787677,lateral_fall
3.035661,-0.2297,-0.455,-4.2121,1.1944,-0.0325,1.6032,-9.675,-30.7875,-27.3938,,0.003694000000000308,4.24282612182022,3.9363139658895197,lateral_fall
3.054008,-0.2297,-0.455,-4.2121,0.7331,-0.1,1.2673,-9.675,-30.7875,-27.3938,,0.01834699999999989,4.24282612182022,4.198732075413074,lateral_fall
3.057926,-0.2297,-0.455,-4.2121,0.7331,-0.1,1.2673,-9.675,-30.7875,-27.3938,,0.003918000000000088,4.24282612182022,4.444122722188182,lateral_fall
3.059063,-0.0567,-0.5173,-4.1873,0.7331,-0.1,1.2673,-9.675,-30.7875,-27.3938,,0.0011369999999999436,4.2195136532543644,4.6571494865813525,lateral_fall
3.088527,-0.0567,-0.5173,-4.1873,0.7331,-0.1,1.2673,-11.2875,-32.1562,-25.0688,,0.029463999999999935,4.2195136532543644,4.824173896515793,lateral_fall
3.090586,-0.0567,-0.5173,-4.1873,0.7331,-0.1,1.2673,-11.2875,-32.1562,-25.0688,,0.002059000000000033,4.2195136532543644,4.933766958113062,lateral_fall
3.115945,-1.1741,-1.2612,-4.7281,0.7331,-0.1,1.2673,-11.2875,-32.1562,-25.0688,,0.02535899999999991,5.0323022425128645,4.977259806300813,lateral_fall
3.118028,-1.1741,-1.2612,-4.7281,0.7331,-0.1,1.2673,-11.2875,-32.1562,-25.0688,,0.002082999999999835,5.0323022425128645,4.9493351051071075,lateral_fall
3.119128,-1.1741,-1.2612,-4.7281,0.7331,-0.1,1.2673,-11.2875,-32.1562,-25.0688,,0.001100000000000101,5.0323022425128645,4.848604259177533,lateral_fall
3.132994,-1.1741,-1.2612,-4.7281,-0.1483,0.0129,1.1753,-11.2875,-32.1562,-25.0688,,0.013866000000000156,5.0323022425128645,4.678068737451511,lateral_fall
3.138584,-1.1741,-1.2612,-4.7281,-0.1483,0.0129,1.1753,-11.2875,-32.1562,-25.0688,,0.005589999999999762,5.0323022425128645,4.445341286375935,lateral_fall
3.151207,-1.1741,-1.2612,-4.7281,-0.1483,0.0129,1.1753,-13.575,-32.8875,-23.1188,,0.01262300000000005,5.0323022425128645,4.1625076630161555,lateral_fall
3.173674,-1.1741,-1.2612,-4.7281,-0.1483,0.0129,1.1753,-13.575,-32.8875,-23.1188,,0.022467000000000237,5.0323022425128645,3.845539061058049,lateral_fall
3.17651,-1.1741,-1.2612,-4.7281,-0.1483,0.0129,1.1753,-13.575,-32.8875,-23.1188,,0.0028359999999998386,5.0323022425128645,3.513219876811059,non_fall
3.179772,-0.4174,-1.3911,-0.7298,-0.1483,0.0129,1.1753,-13.575,-32.8875,-23.1188,,0.003261999999999876,1.625419948813229,3.1856378260290197,non_fall
3.194359,-0.4174,-1.3911,-0.7298,0.4054,-0.7104,1.1404,-13.575,-32.8875,-23.1188,,0.014587000000000128,1.625419948813229,2.8823870669823206,non_fall
3.203449,-0.4174,-1.3911,-0.7298,0.4054,-0.7104,1.1404,-13.575,-32.8875,-23.1188,,0.009090000000000042,1.625419948813229,2.6207288511531206,non_fall
3.222032,-0.4174,-1.3911,-0.7298,0.4054,-0.7104,1.1404,-13.575,-32.8875,-23.1188,,0.018583000000000016,1.625419948813229,2.41399086665708,non_fall
3.228034,-0.4174,-1.3911,-0.7298,0.4054,-0.7104,1.1404,-16.1438,-33.1125,-21.0375,,0.006002000000000063,1.625419948813229,2.2704406431485995,non_fall
3.236513,1.8726,0.2033,1.5857,0.4054,-0.7104,1.1404,-16.1438,-33.1125,-21.0375,,0.008478999999999903,2.4621953902970413,2.192762318306394,non_fall
3.239054,1.8726,0.2033,1.5857,0.4054,-0.7104,1.1404,-16.1438,-33.1125,-21.0375,,0.0025409999999999044,2.4621953902970413,2.178147062603008,non_fall
3.253961,1.8726,0.2033,1.5857,0.7789,-0.9002,0.7825,-16.1438,-33.1125,-21.0375,,0.014907000000000004,2.4621953902970413,2.2189127708625764,non_fall
3.269609,1.8726,0.2033,1.5857,0.7789,-0.9002,0.7825,-16.1438,-33.1125,-21.0375,,0.015648000000000106,2.4621953902970413,2.303515044392292,non_fall
3.290346,1.8726,0.2033,1.5857,0.7789,-0.9002,0.7825,-16.1438,-33.1125,-21.0375,,0.020737000000000005,2.4621953902970413,2.417798807083625,non_fall
3.292456,1.8726,0.2033,1.5857,0.7789,-0.9002,0.7825,-19.2375,-33.1125,-18.7688,,0.0021100000000000563,2.4621953902970413,2.5463543459245033,non_fall
3.294633,1.8726,0.2033,1.5857,0.7789,-0.9002,0.7825,-19.2375,-33.1125,-18.7688,,0.0021770000000000955,2.4621953902970413,2.673864197758841,non_fall
3.296057,1.8041,1.0442,-2.6111,0.7789,-0.9002,0.7825,-19.2375,-33.1125,-18.7688,,0.0014239999999996478,3.3411036589725853,2.7863444608462378,non_fall
3.332625,1.8041,1.0442,-2.6111,0.7789,-0.9002,0.7825,-19.2375,-33.1125,-18.7688,,0.03656800000000038,3.3411036589725853,2.8721921823934067,non_fall
3.334653,1.8041,1.0442,-2.6111,-0.6324,0.5434,0.8705,-19.2375,-33.1125,-18.7688,,0.0020279999999996967,3.3411036589725853,2.9229562208505926,non_fall
3.33676,1.8041,1.0442,-2.6111,-0.6324,0.5434,0.8705,-19.2375,-33.1125,-18.7688,,0.002107000000000081,3.3411036589725853,2.9337650984487613,non_fall
3.350574,1.8041,1.0442,-2.6111,-0.6324,0.5434,0.8705,-22.3125,-32.7,-16.875,,0.013813999999999993,3.3411036589725853,2.9033798940848823,non_fall
3.354022,0.6988,0.7975,-2.0512,-0.6324,0.5434,0.8705,-22.3125,-32.7,-16.875,,0.0034480000000001176,2.30905806120158,2.833889408744775,non_fall
3.356188,0.6988,0.7975,-2.0512,-0.6324,0.5434,0.8705,-22.3125,-32.7,-16.875,,0.0021659999999998902,2.30905806120158,2.730116395438056,non_fall
3.396037,0.6988,0.7975,-2.0512,-0.6324,0.5434,0.8705,-22.3125,-32.7,-16.875,,0.039849000000000245,2.30905806120158,2.598842649124371,non_fall
3.397391,0.6988,0.7975,-2.0512,-0.3082,0.5742,0.8016,-22.3125,-32.7,-16.875,,0.0013539999999996333,2.30905806120158,2.4479741048899775,non_fall
3.404165,0.6988,0.7975,-2.0512,-0.3082,0.5742,0.8016,-22.3125,-32.7,-16.875,,0.006774000000000058,2.30905806120158,2.285751693166119,non_fall
3.416883,0.5448,0.7744,1.5227,-0.3082,0.5742,0.8016,-22.3125,-32.7,-16.875,,0.012718000000000007,1.7930749259303136,2.120081032983564,non_fall
3.418771,0.5448,0.7744,1.5227,-0.3082,0.5742,0.8016,-22.3125,-32.7,-16.875,,0.0018880000000001118,1.7930749259303136,1.9580206690287012,non_fall
3.428788,0.5448,0.7744,1.5227,-0.3082,0.5742,0.8016,-25.3125,-31.875,-15.5438,,0.010016999999999943,1.7930749259303136,1.8054423548357748,non_fall
3.453943,0.5448,0.7744,1.5227,-0.3082,0.5742,0.8016,-25.3125,-31.875,-15.5438,,0.02515500000000026,1.7930749259303136,1.6668556579379645,non_fall
3.457466,0.5448,0.7744,1.5227,0.0473,0.4445,0.6067,-25.3125,-31.875,-15.5438,,0.003522999999999943,1.7930749259303136,1.5453702723228582,non_fall
3.471086,0.5448,0.7744,1.5227,0.0473,0.4445,0.6067,-25.3125,-31.875,-15.5438,,0.013619999999999965,1.7930749259303136,1.4427562748934586,non_fall
3.474352,0.4717,0.9968,0.3899,0.0473,0.4445,0.6067,-25.3125,-31.875,-15.5438,,0.003265999999999991,1.1696722361413903,1.3595612212543533,non_fall
3.477633,0.4717,0.9968,0.3899,0.0473,0.4445,0.6067,-25.3125,-31.875,-15.5438,,0.0032809999999998674,1.1696722361413903,1.2952548497478948,non_fall
3.489864,0.4717,0.9968,0.3899,0.0473,0.4445,0.6067,-27.8438,-30.5438,-14.7375,,0.01223099999999988,1.1696722361413903,1.248390583865257,non_fall
3.526836,0.4717,0.9968,0.3899,0.0473,0.4445,0.6067,-27.8438,-30.5438,-14.7375,,0.036972000000000005,1.1696722361413903,1.2167868973849982,non_fall
3.529871,0.4717,0.9968,0.3899,0.0473,0.4445,0.6067,-27.8438,-30.5438,-14.7375,,0.003035000000000121,1.1696722361413903,1.1977339934958657,non_fall
3.534969,0.4717,0.9968,0.3899,-0.1113,0.5611,0.5217,-27.8438,-30.5438,-14.7375,,0.005097999999999825,1.1696722361413903,1.1882242811622283,non_fall
3.53819,0.4717,0.9968,0.3899,-0.1113,0.5611,0.5217,-27.8438,-30.5438,-14.7375,,0.0032210000000003625,1.1696722361413903,1.1851956207773244,non_fall
3.539779,-0.105,1.089,-0.6982,-0.1113,0.5611,0.5217,-27.8438,-30.5438,-14.7375,,0.0015889999999996185,1.2978556314166843,1.1857688178452699,non_fall
3.550143,-0.105,1.089,-0.6982,-0.1113,0.5611,0.5217,-29.8875,-29.0063,-14.4188,,0.01036400000000004,1.2978556314166843,1.1874564657055076,non_fall
3.598298,-0.105,1.089,-0.6982,-0.1113,0.5611,0.5217,-29.8875,-29.0063,-14.4188,,0.04815500000000039,1.2978556314166843,1.1883193683440738,non_fall
3.6023,-0.105,1.089,-0.6982,-0.1113,0.5611,0.5217,-29.8875,-29.0063,-14.4188,,0.004001999999999839,1.2978556314166843,1.187050387105418,non_fall
3.604417,-0.105,1.089,-0.6982,-0.1113,0.5611,0.5217,-29.8875,-29.0063,-14.4188,,0.0021170000000001465,1.2978556314166843,1.182974052407168,non_fall
3.606644,-0.105,1.089,-0.6982,-0.19,0.6309,0.2962,-29.8875,-29.0063,-14.4188,,0.002226999999999979,1.2978556314166843,1.1759625190966163,non_fall
3.609923,0.2705,0.908,-0.3129,-0.19,0.6309,0.2962,-29.8875,-29.0063,-14.4188,,0.003279000000000032,0.997767838728028,1.1662824408029624,non_fall
3.631233,0.2705,0.908,-0.3129,-0.19,0.6309,0.2962,-29.8875,-29.0063,-14.4188,,0.021309999999999718,0.997767838728028,1.154400885778224,non_fall
3.635115,0.2705,0.908,-0.3129,-0.19,0.6309,0.2962,-31.5,-27.4688,-14.6063,,0.003881999999999941,0.997767838728028,1.1407882500022426,non_fall
3.655503,0.2705,0.908,-0.3129,-0.19,0.6309,0.2962,-31.5,-27.4688,-14.6063,,0.020388000000000073,0.997767838728028,1.1257581707885518,non_fall
3.659368,0.2705,0.908,-0.3129,-0.19,0.6309,0.2962,-31.5,-27.4688,-14.6063,,0.0038650000000002294,0.997767838728028,1.1093768605986627,non_fall
3.661252,0.2705,0.908,-0.3129,0.0403,0.605,0.1803,-31.5,-27.4688,-14.6063,,0.0018839999999999968,0.997767838728028,1.0914595273477663,non_fall
3.663678,0.1426,0.8493,0.6652,0.0403,0.605,0.1803,-31.5,-27.4688,-14.6063,,0.002425999999999817,1.0881802653972366,1.0716542613342186,non_fall
3.689118,0.1426,0.8493,0.6652,0.0403,0.605,0.1803,-31.5,-27.4688,-14.6063,,0.02544000000000013,1.0881802653972366,1.0495975961860466,non_fall
3.692594,0.1426,0.8493,0.6652,0.0403,0.605,0.1803,-32.7375,-26.1938,-14.6813,,0.0034760000000000346,1.0881802653972366,1.0251131205371276,non_fall
3.717863,0.1426,0.8493,0.6652,0.0403,0.605,0.1803,-32.7375,-26.1938,-14.6813,,0.025268999999999764,1.0881802653972366,0.9984167143765071,non_fall
3.720923,0.1426,0.8493,0.6652,0.0403,0.605,0.1803,-32.7375,-26.1938,-14.6813,,0.0030600000000000627,1.0881802653972366,0.9702901128555365,non_fall
3.722491,0.8193,0.4866,0.446,0.0403,0.605,0.1803,-32.7375,-26.1938,-14.6813,,0.0015680000000002359,1.0521159869520091,0.942188160661083,non_fall
3.733996,0.8193,0.4866,0.446,0.2495,0.5889,0.0097,-32.7375,-26.1938,-14.6813,,0.011504999999999654,1.0521159869520091,0.916253143534368,non_fall
3.737227,0.8193,0.4866,0.446,0.2495,0.5889,0.0097,-32.7375,-26.1938,-14.6813,,0.003230999999999984,1.0521159869520091,0.8952208834932968,non_fall
3.75058,0.8193,0.4866,0.446,0.2495,0.5889,0.0097,-33.525,-25.1625,-15.375,,0.013352999999999948,1.0521159869520091,0.8822171162817355,non_fall
3.773306,0.5023,0.6042,0.1757,0.2495,0.5889,0.0097,-33.525,-25.1625,-15.375,,0.022726000000000024,0.8051294430090107,0.8804585090849394,non_fall
3.778286,0.5023,0.6042,0.1757,0.2495,0.5889,0.0097,-33.525,-25.1625,-15.375,,0.0049800000000002065,0.8051294430090107,0.8928895308045,non_fall
3.780156,0.5023,0.6042,0.1757,0.2495,0.5889,0.0097,-33.525,-25.1625,-15.375,,0.0018699999999998163,0.8051294430090107,0.9218015286086089,non_fall
3.794394,0.5023,0.6042,0.1757,0.4051,0.3145,-0.0191,-33.525,-25.1625,-15.375,,0.014238000000000195,0.8051294430090107,0.9684895191946348,non_fall
3.802344,0.5023,0.6042,0.1757,0.4051,0.3145,-0.0191,-33.525,-25.1625,-15.375,,0.007950000000000124,0.8051294430090107,1.0330022626841526,non_fall
3.831616,0.5023,0.6042,0.1757,0.4051,0.3145,-0.0191,-33.525,-25.1625,-15.375,,0.029271999999999743,0.8051294430090107,1.1140321641928395,non_fall
3.835043,0.5023,0.6042,0.1757,0.4051,0.3145,-0.0191,-33.9188,-24.3563,-16.3313,,0.003427000000000291,0.8051294430090107,1.208974964217975,non_fall
3.838254,0.3736,1.354,-0.8237,0.4051,0.3145,-0.0191,-33.9188,-24.3563,-16.3313,,0.003210999999999853,1.6283042252601325,1.3141658189099141,non_fall
3.841255,0.3736,1.354,-0.8237,0.4051,0.3145,-0.0191,-33.9188,-24.3563,-16.3313,,0.0030009999999998094,1.6283042252601325,1.4252699200298502,non_fall
3.854722,0.3736,1.354,-0.8237,0.2761,0.3457,0.0098,-33.9188,-24.3563,-16.3313,,0.01346700000000034,1.6283042252601325,1.5377788780238888,non_fall
3.870142,0.3736,1.354,-0.8237,0.2761,0.3457,0.0098,-33.9188,-24.3563,-16.3313,,0.015419999999999767,1.6283042252601325,1.6475488975662798,non_fall
3.889124,0.3736,1.354,-0.8237,0.2761,0.3457,0.0098,-34.05,-23.8313,-17.1938,,0.018981999999999832,1.6283042252601325,1.751317998296112,non_fall
3.893561,0.3736,1.354,-0.8237,0.2761,0.3457,0.0098,-34.05,-23.8313,-17.1938,,0.004437000000000246,1.6283042252601325,1.8471504546741895,non_fall
3.900272,0.2375,1.608,-1.8001,0.2761,0.3457,0.0098,-34.05,-23.8313,-17.1938,,0.0067110000000001335,2.4253721899947647,1.9347655109429918,non_fall
3.90496,0.2375,1.608,-1.8001,0.2761,0.3457,0.0098,-34.05,-23.8313,-17.1938,,0.0046879999999998034,2.4253721899947647,2.015708892586722,non_fall
3.934719,0.2375,1.608,-1.8001,0.2761,0.3457,0.0098,-34.05,-23.8313,-17.1938,,0.02975899999999987,2.4253721899947647,2.0933255712768304,non_fall
3.937861,0.2375,1.608,-1.8001,-0.4529,1.1776,0.1038,-34.05,-23.8313,-17.1938,,0.003141999999999978,2.4253721899947647,2.172502597554785,non_fall
3.940527,0.2375,1.608,-1.8001,-0.4529,1.1776,0.1038,-34.05,-23.8313,-17.1938,,0.002666000000000057,2.4253721899947647,2.25917821899731,non_fall
3.953172,0.2375,1.608,-1.8001,-0.4529,1.1776,0.1038,-33.7875,-23.4375,-18.1688,,0.012645000000000017,2.4253721899947647,2.359652838412179,non_fall
3.959923,0.2375,1.608,-1.8001,-0.4529,1.1776,0.1038,-33.7875,-23.4375,-18.1688,,0.0067509999999999515,2.4253721899947647,2.479777346282092,non_fall
3.961909,-0.0118,2.0293,0.7752,-0.4529,1.1776,0.1038,-33.7875,-23.4375,-18.1688,,0.0019860000000000433,2.172356501589921,2.6241262759189614,non_fall
3.99569,-0.0118,2.0293,0.7752,-0.4529,1.1776,0.1038,-33.7875,-23.4375,-18.1688,,0.03378100000000028,2.172356501589921,2.7952822439829634,non_fall
3.999874,-0.0118,2.0293,0.7752,0.3429,0.9165,-0.0316,-33.7875,-23.4375,-18.1688,,0.0041839999999999655,2.172356501589921,2.9933594588453394,non_fall
4.005299,-0.0118,2.0293,0.7752,0.3429,0.9165,-0.0316,-33.7875,-23.4375,-18.1688,,0.005424999999999791,2.172356501589921,3.2158716050060274,non_fall
4.01807,-0.0118,2.0293,0.7752,0.3429,0.9165,-0.0316,-33.7875,-23.4375,-18.1688,,0.012770999999999866,2.172356501589921,3.457998358079663,non_fall
4.021687,0.5054,2.7516,4.4027,0.3429,0.9165,-0.0316,-33.7875,-23.4375,-18.1688,,0.0036170000000002034,5.216368373686812,3.7132253188754234,non_fall
4.028914,0.5054,2.7516,4.4027,0.3429,0.9165,-0.0316,-33.3,-23.3063,-19.275,,0.0072270000000003165,5.216368373686812,3.9742357172818514,non_fall
4.037137,0.5054,2.7516,4.4027,0.3429,0.9165,-0.0316,-33.3,-23.3063,-19.275,,0.008223000000000091,5.216368373686812,4.233849974240932,non_fall
4.05573,0.5054,2.7516,4.4027,1.0623,0.5969,-0.2827,-33.3,-23.3063,-19.275,,0.018592999999999194,5.216368373686812,4.485783718541918,non_fall
4.070299,0.5054,2.7516,4.4027,1.0623,0.5969,-0.2827,-33.3,-23.3063,-19.275,,0.01456900000000072,5.216368373686812,4.725046667243633,non_fall
4.077834,2.2655,2.8678,3.2363,1.0623,0.5969,-0.2827,-33.3,-23.3063,-19.275,,0.007534999999999847,4.881639558590945,4.947910914502033,non_fall
4.082126,2.2655,2.8678,3.2363,1.0623,0.5969,-0.2827,-33.3,-23.3063,-19.275,,0.004291999999999518,4.881639558590945,5.15149244194624,non_fall
4.089554,2.2655,2.8678,3.2363,1.0623,0.5969,-0.2827,-32.5312,-23.7563,-20.0813,,0.00742799999999999,4.881639558590945,5.333079995333911,non_fall
4.114589,2.2655,2.8678,3.2363,1.0623,0.5969,-0.2827,-32.5312,-23.7563,-20.0813,,0.02503499999999992,4.881639558590945,5.48939653414761,non_fall
4.117887,2.2655,2.8678,3.2363,1.7035,0.0735,-1.109,-32.5312,-23.7563,-20.0813,,0.003298000000000023,4.881639558590945,5.615988327448546,non_fall
4.134077,2.2655,2.8678,3.2363,1.7035,0.0735,-1.109,-32.5312,-23.7563,-20.0813,,0.016189999999999927,4.881639558590945,5.70691039576248,non_fall
4.137496,2.2655,2.8678,3.2363,1.7035,0.0735,-1.109,-32.5312,-23.7563,-20.0813,,0.003419000000000061,4.881639558590945,5.754822209976244,non_fall
4.139392,4.3998,2.5079,3.14,1.7035,0.0735,-1.109,-32.5312,-23.7563,-20.0813,,0.0018960000000003419,5.958808811331338,5.75153185802379,non_fall
4.150447,4.3998,2.5079,3.14,1.7035,0.0735,-1.109,-31.5188,-24.975,-20.325,,0.011054999999999815,5.958808811331338,5.688939499601172,non_fall
4.197994,4.3998,2.5079,3.14,1.7035,0.0735,-1.109,-31.5188,-24.975,-20.325,,0.047546999999999784,5.958808811331338,5.560248042751738,non_fall
4.202321,4.3998,2.5079,3.14,1.7035,0.0735,-1.109,-31.5188,-24.975,-20.325,,0.004327000000000858,5.958808811331338,5.361251972218351,non_fall
4.204663,4.3998,2.5079,3.14,1.7035,0.0735,-1.109,-31.5188,-24.975,-20.325,,0.002341999999999622,5.958808811331338,5.0914986856847415,non_fall
4.207253,4.3998,2.5079,3.14,1.39,0.4351,-1.6754,-31.5188,-24.975,-20.325,,0.002589999999999648,5.958808811331338,4.755140426452764,non_fall
4.210702,2.9772,1.1134,1.2444,1.39,0.4351,-1.6754,-31.5188,-24.975,-20.325,,0.0034490000000007015,3.4134895283272804,4.361350442504634,non_fall
4.229111,2.9772,1.1134,1.2444,1.39,0.4351,-1.6754,-30.0938,-26.6625,-20.325,,0.01840899999999923,3.4134895283272804,3.924252826435169,non_fall
4.233199,2.9772,1.1134,1.2444,1.39,0.4351,-1.6754,-30.0938,-26.6625,-20.325,,0.004088000000000314,3.4134895283272804,3.4623901587673025,non_fall
4.254823,2.9772,1.1134,1.2444,0.714,1.1004,-1.5096,-30.0938,-26.6625,-20.325,,0.021624000000000088,3.4134895283272804,2.9977973611661257,non_fall
4.258862,2.9772,1.1134,1.2444,0.714,1.1004,-1.5096,-30.0938,-26.6625,-20.325,,0.004038999999999682,3.4134895283272804,2.5547526119908617,non_fall
4.260562,2.9772,1.1134,1.2444,0.714,1.1004,-1.5096,-30.0938,-26.6625,-20.325,,0.001700000000000479,3.4134895283272804,2.1582603731523364,non_fall
4.262009,0.7354,-0.4915,-0.3104,0.714,1.1004,-1.5096,-30.0938,-26.6625,-20.325,,0.001446999999999754,0.9374078994759966,1.8323259204311904,non_fall
4.290811,0.7354,-0.4915,-0.3104,0.714,1.1004,-1.5096,-28.05,-28.5938,-20.0625,,0.028801999999999772,0.9374078994759966,1.598122693940253,non_fall
4.294873,0.7354,-0.4915,-0.3104,0.714,1.1004,-1.5096,-28.05,-28.5938,-20.0625,,0.004062000000000232,0.9374078994759966,1.4722139628119435,non_fall
4.316472,0.7354,-0.4915,-0.3104,0.714,1.1004,-1.5096,-28.05,-28.5938,-20.0625,,0.021599000000000146,0.9374078994759966,1.4650281779595937,non_fall
4.320238,0.7354,-0.4915,-0.3104,0.714,1.1004,-1.5096,-28.05,-28.5938,-20.0625,,0.003765999999999714,0.9374078994759966,1.5797760813954207,non_fall
4.322488,0.7354,-0.4915,-0.3104,0.2517,1.6488,-0.9935,-28.05,-28.5938,-20.0625,,0.0022500000000000853,0.9374078994759966,1.8119435285742453,non_fall
4.325373,0.3914,-2.7754,-0.597,0.2517,1.6488,-0.9935,-28.05,-28.5938,-20.0625,,0.0028850000000000264,2.8657369244227566,2.149420358851375,non_fall
4.338758,0.3914,-2.7754,-0.597,0.2517,1.6488,-0.9935,-28.05,-28.5938,-20.0625,,0.013385000000000424,2.8657369244227566,2.57325031310246,non_fall
4.350831,0.3914,-2.7754,-0.597,0.2517,1.6488,-0.9935,-25.3125,-30.4875,-19.9875,,0.012073,2.8657369244227566,3.058923699469586,non_fall
4.376944,0.3914,-2.7754,-0.597,0.2517,1.6488,-0.9935,-25.3125,-30.4875,-19.9875,,0.02611299999999961,2.8657369244227566,3.578097876462536,non_fall
4.381138,0.3914,-2.7754,-0.597,0.2517,1.6488,-0.9935,-25.3125,-30.4875,-19.9875,,0.004194000000000031,2.8657369244227566,4.100621556020242,non_fall
4.383542,2.6108,-3.7972,-3.7692,0.2517,1.6488,-0.9935,-25.3125,-30.4875,-19.9875,,0.002404000000000295,5.953307746118959,4.5967343523938355,non_fall
4.401213,2.6108,-3.7972,-3.7692,-0.2584,1.7301,-0.9092,-25.3125,-30.4875,-19.9875,,0.017670999999999992,5.953307746118959,5.039288483385028,non_fall
4.405574,2.6108,-3.7972,-3.7692,-0.2584,1.7301,-0.9092,-25.3125,-30.4875,-19.9875,,0.004360999999999393,5.953307746118959,5.40580285180484,non_fall
4.431066,2.6108,-3.7972,-3.7692,-0.2584,1.7301,-0.9092,-25.3125,-30.4875,-19.9875,,0.025492000000000736,5.953307746118959,5.680148116763553,non_fall
4.435332,2.6108,-3.7972,-3.7692,-0.2584,1.7301,-0.9092,-22.2563,-32.4,-20.1,,0.004265999999999437,5.953307746118959,5.853699314664543,non_fall
4.4393,2.6108,-3.7972,-3.7692,-0.2584,1.7301,-0.9092,-22.2563,-32.4,-20.1,,0.003968000000000416,5.953307746118959,5.925864250285227,non_fall
4.441648,2.6117,-3.5876,-4.1977,-0.2584,1.7301,-0.9092,-22.2563,-32.4,-20.1,,0.0023479999999995727,6.10839880328716,5.903965884153756,non_fall
4.455117,2.6117,-3.5876,-4.1977,0.9089,1.2276,-0.6342,-22.2563,-32.4,-20.1,,0.01346900000000062,6.10839880328716,5.80250516609595,non_fall
4.471827,2.6117,-3.5876,-4.1977,0.9089,1.2276,-0.6342,-22.2563,-32.4,-20.1,,0.01670999999999978,6.10839880328716,5.641859944755932,non_fall
4.488942,2.6117,-3.5876,-4.1977,0.9089,1.2276,-0.6342,-18.9,-34.5375,-19.5375,,0.017114999999999547,6.10839880328716,5.446498768997711,non_fall
4.493717,2.6117,-3.5876,-4.1977,0.9089,1.2276,-0.6342,-18.9,-34.5375,-19.5375,,0.004775000000000418,6.10839880328716,5.242818238671299,non_fall
4.496662,1.5884,-3.3478,-1.3969,0.9089,1.2276,-0.6342,-18.9,-34.5375,-19.5375,,0.0029449999999995313,3.960064268417875,5.056756601990841,non_fall
4.500276,1.5884,-3.3478,-1.3969,0.9089,1.2276,-0.6342,-18.9,-34.5375,-19.5375,,0.0036140000000006722,3.960064268417875,4.911391825003277,non_fall
4.516275,1.5884,-3.3478,-1.3969,1.5658,0.3594,-0.4209,-18.9,-34.5375,-19.5375,,0.015998999999999874,3.960064268417875,4.824779908853028,non_fall
4.540138,1.5884,-3.3478,-1.3969,1.5658,0.3594,-0.4209,-18.9,-34.5375,-19.5375,,0.023862999999999523,3.960064268417875,4.808298305518923,non_fall
4.54322,1.5884,-3.3478,-1.3969,1.5658,0.3594,-0.4209,-18.9,-34.5375,-19.5375,,0.003082000000000029,3.960064268417875,4.8657122879417685,non_fall
4.548586,1.5884,-3.3478,-1.3969,1.5658,0.3594,-0.4209,-15.5063,-36.8813,-18.3938,,0.005366000000000426,3.960064268417875,4.993089868874776,non_fall
4.558166,1.5884,-3.3478,-1.3969,1.5658,0.3594,-0.4209,-15.5063,-36.8813,-18.3938,,0.0095799999999997,3.960064268417875,5.179577505465301,non_fall
4.560621,0.5141,-3.593,-5.8721,1.5658,0.3594,-0.4209,-15.5063,-36.8813,-18.3938,,0.002455000000000318,6.90329676459009,5.4089297927667435,non_fall
4.595021,0.5141,-3.593,-5.8721,1.1513,-0.021,-0.2318,-15.5063,-36.8813,-18.3938,,0.034399999999999764,6.90329676459009,5.661571261871247,non_fall
4.599613,0.5141,-3.593,-5.8721,1.1513,-0.021,-0.2318,-15.5063,-36.8813,-18.3938,,0.004591999999999707,6.90329676459009,5.916880419746726,non_fall
4.603945,0.5141,-3.593,-5.8721,1.1513,-0.021,-0.2318,-15.5063,-36.8813,-18.3938,,0.004332000000000669,6.90329676459009,6.1553607676146935,non_fall
4.617847,0.5141,-3.593,-5.8721,1.1513,-0.021,-0.2318,-15.5063,-36.8813,-18.3938,,0.013901999999999859,6.90329676459009,6.3604167720073,non_fall
4.621168,-0.8616,-3.2241,-5.7263,1.1513,-0.021,-0.2318,-15.5063,-36.8813,-18.3938,,0.0033209999999996853,6.627796546364411,6.519560254135745,non_fall
4.634508,-0.8616,-3.2241,-5.7263,1.1513,-0.021,-0.2318,-12.225,-38.9813,-16.875,,0.013340000000000352,6.627796546364411,6.624990324085957,non_fall
4.657374,-0.8616,-3.2241,-5.7263,1.1513,-0.021,-0.2318,-12.225,-38.9813,-16.875,,0.02286599999999961,6.627796546364411,6.673586406833612,non_fall
4.661198,-0.8616,-3.2241,-5.7263,0.1223,0.8482,-0.1379,-12.225,-38.9813,-16.875,,0.0038239999999998275,6.627796546364411,6.66641835831449,non_fall
4.670558,-0.8616,-3.2241,-5.7263,0.1223,0.8482,-0.1379,-12.225,-38.9813,-16.875,,0.009360000000000035,6.627796546364411,6.607912120837713,non_fall
4.678199,-0.4682,-3.8685,-4.3267,0.1223,0.8482,-0.1379,-12.225,-38.9813,-16.875,,0.007641000000000453,5.822785963780568,6.5048219088646855,non_fall
4.681748,-0.4682,-3.8685,-4.3267,0.1223,0.8482,-0.1379,-12.225,-38.9813,-16.875,,0.0035489999999995803,5.822785963780568,6.365158607561594,non_fall
4.688357,-0.4682,-3.8685,-4.3267,0.1223,0.8482,-0.1379,-9.1125,-40.2563,-15.7125,,0.006609000000000087,5.822785963780568,6.197210378296449,non_fall
4.717942,-0.4682,-3.8685,-4.3267,0.1223,0.8482,-0.1379,-9.1125,-40.2563,-15.7125,,0.029584999999999972,5.822785963780568,6.008761230104274,non_fall
4.721041,-0.4682,-3.8685,-4.3267,0.4806,0.8705,0.2188,-9.1125,-40.2563,-15.7125,,0.003098999999999741,5.822785963780568,5.806566579980444,non_fall
4.736209,-0.4682,-3.8685,-4.3267,0.4806,0.8705,0.2188,-9.1125,-40.2563,-15.7125,,0.01516800000000007,5.822785963780568,5.596092208319613,non_fall
4.740753,-0.4682,-3.8685,-4.3267,0.4806,0.8705,0.2188,-9.1125,-40.2563,-15.7125,,0.0045440000000001035,5.822785963780568,5.381479969599637,non_fall
4.742587,-2.0936,-4.0972,-1.3698,0.4806,0.8705,0.2188,-9.1125,-40.2563,-15.7125,,0.0018340000000005574,4.8006833721877555,5.165680774241605,non_fall
4.752764,-2.0936,-4.0972,-1.3698,0.4806,0.8705,0.2188,-6.375,-41.25,-14.5688,,0.010176999999999659,4.8006833721877555,4.9506939086211945,non_fall
4.796833,-2.0936,-4.0972,-1.3698,0.4806,0.8705,0.2188,-6.375,-41.25,-14.5688,,0.04406900000000036,4.8006833721877555,4.737862817231308,non_fall
4.800486,-2.0936,-4.0972,-1.3698,0.4806,0.8705,0.2188,-6.375,-41.25,-14.5688,,0.0036529999999999063,4.8006833721877555,4.528186938503167,non_fall
4.803276,-2.0936,-4.0972,-1.3698,0.4806,0.8705,0.2188,-6.375,-41.25,-14.5688,,0.00279000000000007,4.8006833721877555,4.322609946246415,non_fall
4.805335,-2.0936,-4.0972,-1.3698,0.5564,0.0458,0.6334,-6.375,-41.25,-14.5688,,0.002059000000000033,4.8006833721877555,4.122244178244845,non_fall
4.808353,-0.7472,-2.2761,-2.1919,0.5564,0.0458,0.6334,-6.375,-41.25,-14.5688,,0.003017999999999965,3.2470547670157957,3.92850288582264,non_fall
4.830205,-0.7472,-2.2761,-2.1919,0.5564,0.0458,0.6334,-4.6313,-42.0,-13.2938,,0.021851999999999983,3.2470547670157957,3.743140751809569,non_fall
4.834798,-0.7472,-2.2761,-2.1919,0.5564,0.0458,0.6334,-4.6313,-42.0,-13.2938,,0.004592999999999847,3.2470547670157957,3.568235973773407,non_fall
4.851969,-0.7472,-2.2761,-2.1919,0.5564,0.0458,0.6334,-4.6313,-42.0,-13.2938,,0.01717100000000027,3.2470547670157957,3.4061614083764895,non_fall
4.858401,-0.7472,-2.2761,-2.1919,-0.4177,0.1694,0.4578,-4.6313,-42.0,-13.2938,,0.006431999999999327,3.2470547670157957,3.2595756573919403,non_fall
4.861307,-0.7472,-2.2761,-2.1919,-0.4177,0.1694,0.4578,-4.6313,-42.0,-13.2938,,0.0029060000000002972,3.2470547670157957,3.131427639918384,non_fall
4.862948,0.4179,0.1364,-3.8657,-0.4177,0.1694,0.4578,-4.6313,-42.0,-13.2938,,0.0016410000000002256,3.890614586411766,3.024931537142235,non_fall
4.919867,0.4179,0.1364,-3.8657,-1.1085,0.7613,0.2126,-4.6313,-42.0,-13.2938,,0.05691899999999972,3.890614586411766,2.9434496722379984,non_fall
4.923448,-0.8179,1.3907,-2.1399,-1.1085,0.7613,0.2126,-4.6313,-42.0,-13.2938,,0.0035809999999996123,2.6799587515482397,2.890228462608774,non_fall
4.926411,-0.8179,1.3907,-2.1399,-1.1085,0.7613,0.2126,-0.5438,-45.15,-11.85,,0.002963000000000271,2.6799587515482397,2.867970321686204,non_fall
4.928865,-0.8179,1.3907,-2.1399,-1.1085,0.7613,0.2126,-0.5438,-45.15,-11.85,,0.0024540000000001783,2.6799587515482397,2.878281554953687,non_fall
4.930998,-0.8179,1.3907,-2.1399,-1.1085,0.7613,0.2126,-0.5438,-45.15,-11.85,,0.0021329999999997185,2.6799587515482397,2.921087419507083,non_fall
4.933102,-0.8179,1.3907,-2.1399,-1.1085,0.7613,0.2126,-0.5438,-45.15,-11.85,,0.002104000000000106,2.6799587515482397,2.9941288576494074,non_fall
4.939861,-0.8179,1.3907,-2.1399,-1.1085,0.7613,0.2126,-0.5438,-45.15,-11.85,,0.0067589999999997374,2.6799587515482397,3.092649129605089,non_fall
4.976902,-0.8179,1.3907,-2.1399,-1.1085,0.7613,0.2126,-0.5438,-45.15,-11.85,,0.037041000000000324,2.6799587515482397,3.2093537622799926,non_fall
4.98079,-0.8179,1.3907,-2.1399,-1.1085,0.7613,0.2126,-0.5438,-45.15,-11.85,,0.0038879999999998915,2.6799587515482397,3.334692064377263,non_fall
4.983355,-3.5764,1.3626,0.1689,-1.1085,0.7613,0.2126,-0.5438,-45.15,-11.85,,0.0025650000000005946,3.8309062805033482,3.4574642250194856,non_fall
4.987298,-3.5764,1.3626,0.1689,-1.1085,0.7613,0.2126,-0.0938,-45.6375,-10.725,,0.003942999999999586,3.8309062805033482,3.5657064525503377,non_fall
5.001162,-3.5764,1.3626,0.1689,-1.0008,1.6843,0.3195,-0.0938,-45.6375,-10.725,,0.013863999999999876,3.8309062805033482,3.647757498955893,non_fall
5.006725,-3.5764,1.3626,0.1689,-1.0008,1.6843,0.3195,-0.0938,-45.6375,-10.725,,0.005563000000000429,3.8309062805033482,3.6933789760479194,non_fall
5.040504,-3.5764,1.3626,0.1689,-1.0008,1.6843,0.3195,-0.0938,-45.6375,-10.725,,0.033779,3.8309062805033482,3.694797864407312,non_fall
5.044262,-3.5764,1.3626,0.1689,-1.0008,1.6843,0.3195,-0.0938,-45.6375,-10.725,,0.003757999999999484,3.8309062805033482,3.647556095175245,non_fall
5.047021,-3.5927,0.9677,0.2569,-1.0008,1.6843,0.3195,-0.0938,-45.6375,-10.725,,0.002759000000000178,3.7296024171485085,3.551075616997956,non_fall
5.0503,-3.5927,0.9677,0.2569,-1.0008,1.6843,0.3195,0.0563,-45.825,-10.3688,,0.003279000000000032,3.7296024171485085,3.4088701832753823,non_fall
5.057766,-3.5927,0.9677,0.2569,-1.2095,2.1542,-0.2194,0.0563,-45.825,-10.3688,,0.007465999999999973,3.7296024171485085,3.228357421057705,non_fall
5.071276,-3.5927,0.9677,0.2569,-1.2095,2.1542,-0.2194,0.0563,-45.825,-10.3688,,0.013510000000000133,3.7296024171485085,3.0202504549678713,non_fall
5.098395,-3.5927,0.9677,0.2569,-1.2095,2.1542,-0.2194,0.0563,-45.825,-10.3688,,0.027118999999999893,3.7296024171485085,2.7975427188691,non_fall
5.102298,-3.5927,0.9677,0.2569,-1.2095,2.1542,-0.2194,0.0563,-45.825,-10.3688,,0.003903000000000212,3.7296024171485085,2.574148883323561,non_fall
5.104104,0.0403,0.4832,-0.2376,-1.2095,2.1542,-0.2194,0.0563,-45.825,-10.3688,,0.0018060000000001963,0.5399630450317874,2.363333529127753,non_fall
5.116747,0.0403,0.4832,-0.2376,-1.1642,2.702,-0.9993,0.0563,-45.825,-10.3688,,0.012642999999999738,0.5399630450317874,2.1761401776604674,non_fall
5.120183,0.0403,0.4832,-0.2376,-1.1642,2.702,-0.9993,0.0563,-45.825,-10.3688,,0.0034359999999997726,0.5399630450317874,2.020095754766802,non_fall
5.121867,0.0403,0.4832,-0.2376,-1.1642,2.702,-0.9993,0.5063,-45.675,-10.5938,,0.0016840000000000188,0.5399630450317874,1.8984635736848432,non_fall
5.138392,0.0403,0.4832,-0.2376,-1.1642,2.702,-0.9993,0.5063,-45.675,-10.5938,,0.01652499999999968,0.5399630450317874,1.8102270039650836,non_fall
5.158164,2.7571,-0.2209,-0.4861,-1.1642,2.702,-0.9993,0.5063,-45.675,-10.5938,,0.019772000000000567,2.808325200186047,1.750827718485682,non_fall
5.161641,2.7571,-0.2209,-0.4861,-1.1642,2.702,-0.9993,0.5063,-45.675,-10.5938,,0.0034770000000001744,2.808325200186047,1.713507566690234,non_fall
5.178172,2.7571,-0.2209,-0.4861,-1.1642,2.702,-0.9993,1.4813,-44.9813,-11.5875,,0.01653099999999963,2.808325200186047,1.6909641186868134,non_fall
5.181783,2.7571,-0.2209,-0.4861,-1.1642,2.702,-0.9993,1.4813,-44.9813,-11.5875,,0.003611000000000253,2.808325200186047,1.6769671603536673,non_fall
5.200859,2.7571,-0.2209,-0.4861,-0.8944,2.9913,-0.966,1.4813,-44.9813,-11.5875,,0.019076000000000093,2.808325200186047,1.6676114204105454,non_fall
5.208741,2.7571,-0.2209,-0.4861,-0.8944,2.9913,-0.966,1.4813,-44.9813,-11.5875,,0.0078819999999995,2.808325200186047,1.6619803104063724,non_fall
5.220039,0.9436,0.1782,-0.6697,-0.8944,2.9913,-0.966,1.4813,-44.9813,-11.5875,,0.01129800000000003,1.1707409149764947,1.6621306952915162,non_fall
5.223563,0.9436,0.1782,-0.6697,-0.8944,2.9913,-0.966,1.4813,-44.9813,-11.5875,,0.0035240000000005267,1.1707409149764947,1.6724488948624157,non_fall
5.238461,0.9436,0.1782,-0.6697,-0.8944,2.9913,-0.966,3.2063,-44.4375,-12.75,,0.014897999999999634,1.1707409149764947,1.698547126788091,non_fall
5.24166,0.9436,0.1782,-0.6697,-0.8944,2.9913,-0.966,3.2063,-44.4375,-12.75,,0.003199000000000396,1.1707409149764947,1.7459417064597362,non_fall
5.258847,0.9436,0.1782,-0.6697,-0.647,2.8049,-0.4881,3.2063,-44.4375,-12.75,,0.01718699999999984,1.1707409149764947,1.818766613926072,non_fall
5.272192,0.9436,0.1782,-0.6697,-0.647,2.8049,-0.4881,3.2063,-44.4375,-12.75,,0.013345000000000162,1.1707409149764947,1.9187388788693005,non_fall
5.277365,0.9436,0.1782,-0.6697,-0.647,2.8049,-0.4881,3.2063,-44.4375,-12.75,,0.005172999999999206,1.1707409149764947,2.0445272484924817,non_fall
5.279471,2.5262,0.8818,0.2409,-0.647,2.8049,-0.4881,3.2063,-44.4375,-12.75,,0.0021060000000003853,2.6865015335934577,2.191597858391255,non_fall
5.31904,2.5262,0.8818,0.2409,-0.647,2.8049,-0.4881,3.2063,-44.4375,-12.75,,0.03956900000000019,2.6865015335934577,2.352528469361782,non_fall
5.32223,2.5262,0.8818,0.2409,-0.647,2.8049,-0.4881,3.2063,-44.4375,-12.75,,0.003190000000000026,2.6865015335934577,2.517709570173961,non_fall
5.323987,2.5262,0.8818,0.2409,0.0031,3.1238,0.1696,3.2063,-44.4375,-12.75,,0.0017569999999995645,2.6865015335934577,2.6763052034364656,non_fall
5.326481,2.5262,0.8818,0.2409,0.0031,3.1238,0.1696,5.4188,-43.5375,-13.875,,0.0024940000000004403,2.6865015335934577,2.817337266251402,non_fall
5.340578,2.5262,0.8818,0.2409,0.0031,3.1238,0.1696,5.4188,-43.5375,-13.875,,0.014096999999999582,2.6865015335934577,2.9307717410901075,non_fall
5.343714,3.1584,1.1956,1.3785,0.0031,3.1238,0.1696,5.4188,-43.5375,-13.875,,0.0031360000000004717,3.64763103534335,3.008501974334639,non_fall
5.380149,3.1584,1.1956,1.3785,0.0031,3.1238,0.1696,5.4188,-43.5375,-13.875,,0.036434999999999995,3.64763103534335,3.045131436204779,non_fall
5.383829,3.1584,1.1956,1.3785,0.0031,3.1238,0.1696,5.4188,-43.5375,-13.875,,0.0036800000000001276,3.64763103534335,3.0384630232810896,non_fall
5.386541,3.1584,1.1956,1.3785,0.0031,3.1238,0.1696,8.1938,-42.7125,-14.6625,,0.0027119999999998257,3.64763103534335,2.989620439977818,non_fall
5.402828,3.1584,1.1956,1.3785,0.5298,2.7731,0.8531,8.1938,-42.7125,-14.6625,,0.016287000000000162,3.64763103534335,2.90277085557826,non_fall
5.407627,1.1254,0.656,1.29,0.5298,2.7731,0.8531,8.1938,-42.7125,-14.6625,,0.004798999999999332,1.833292437119621,2.784484018480916,non_fall
5.411341,1.1254,0.656,1.29,0.5298,2.7731,0.8531,8.1938,-42.7125,-14.6625,,0.003714000000000439,1.833292437119621,2.642836150595089,non_fall
5.437827,1.1254,0.656,1.29,0.5298,2.7731,0.8531,8.1938,-42.7125,-14.6625,,0.02648600000000023,1.833292437119621,2.4864237414108823,non_fall
5.441433,1.1254,0.656,1.29,0.5298,2.7731,0.8531,8.1938,-42.7125,-14.6625,,0.003605999999999554,1.833292437119621,2.323467795946563,non_fall
5.443677,1.1254,0.656,1.29,0.5298,2.7731,0.8531,11.1562,-42.0,-14.7188,,0.0022440000000001348,1.833292437119621,2.161153500578538,non_fall
5.460933,1.1254,0.656,1.29,0.6618,1.4199,1.035,11.1562,-42.0,-14.7188,,0.017255999999999716,1.833292437119621,2.0052798060647095,non_fall
5.465417,1.1254,0.656,1.29,0.6618,1.4199,1.035,11.1562,-42.0,-14.7188,,0.004484000000000599,1.833292437119621,1.8602163438560957,non_fall
5.467821,0.4349,0.3304,2.2453,0.6618,1.4199,1.035,11.1562,-42.0,-14.7188,,0.0024039999999994066,2.3107735198413537,1.729101384792356,non_fall
5.521266,0.4349,0.3304,2.2453,0.1058,1.0859,0.3535,11.1562,-42.0,-14.7188,,0.053444999999999965,2.3107735198413537,1.6141725960839215,non_fall
5.525521,0.4349,0.3304,2.2453,0.1058,1.0859,0.3535,13.875,-41.6813,-13.8938,,0.004255000000000564,2.3107735198413537,1.517107353192011,non_fall
5.528568,0.7095,0.9135,0.3811,0.1058,1.0859,0.3535,13.875,-41.6813,-13.8938,,0.003046999999999578,1.2178299183383532,1.4392663903446927,non_fall
5.53134,0.7095,0.9135,0.3811,0.1058,1.0859,0.3535,13.875,-41.6813,-13.8938,,0.0027720000000002187,1.2178299183383532,1.3817814001736815,non_fall
5.533418,0.7095,0.9135,0.3811,0.1058,1.0859,0.3535,13.875,-41.6813,-13.8938,,0.0020780000000000243,1.2178299183383532,1.3454869992272882,non_fall
5.535501,0.7095,0.9135,0.3811,0.1058,1.0859,0.3535,13.875,-41.6813,-13.8938,,0.002082999999999835,1.2178299183383532,1.3307452143010547,non_fall
5.5424,0.7095,0.9135,0.3811,0.1058,1.0859,0.3535,13.875,-41.6813,-13.8938,,0.006898999999999766,1.2178299183383532,1.3372309606191568,non_fall
5.579183,0.7095,0.9135,0.3811,0.1058,1.0859,0.3535,13.875,-41.6813,-13.8938,,0.03678299999999979,1.2178299183383532,1.3637434098119543,non_fall
5.583473,0.7095,0.9135,0.3811,0.1058,1.0859,0.3535,13.875,-41.6813,-13.8938,,0.004290000000000127,1.2178299183383532,1.4080935173586286,non_fall
5.586319,0.7095,0.9135,0.3811,0.1058,1.0859,0.3535,16.275,-41.6063,-12.5063,,0.002845999999999904,1.2178299183383532,1.4671008336474858,non_fall
5.589804,0.6909,1.1894,-0.9384,0.1058,1.0859,0.3535,16.275,-41.6063,-12.5063,,0.0034850000000004044,1.6651155305263357,1.5367145493638077,non_fall
5.600465,0.6909,1.1894,-0.9384,-0.5445,0.9267,0.0974,16.275,-41.6063,-12.5063,,0.01066099999999981,1.6651155305263357,1.6122541832824473,non_fall
5.607062,0.6909,1.1894,-0.9384,-0.5445,0.9267,0.0974,16.275,-41.6063,-12.5063,,0.006597000000000186,1.6651155305263357,1.6887467979201327,non_fall
5.639541,0.6909,1.1894,-0.9384,-0.5445,0.9267,0.0974,16.275,-41.6063,-12.5063,,0.03247900000000037,1.6651155305263357,1.7613247701142376,non_fall
5.642733,0.6909,1.1894,-0.9384,-0.5445,0.9267,0.0974,16.275,-41.6063,-12.5063,,0.0031919999999994175,1.6651155305263357,1.8256428616949563,non_fall
5.644598,-0.7545,1.4257,-1.5448,-0.5445,0.9267,0.0974,16.275,-41.6063,-12.5063,,0.0018650000000004496,2.2334497487071427,1.8782719379641315,non_fall
5.647278,-0.7545,1.4257,-1.5448,-0.5445,0.9267,0.0974,19.0125,-41.1562,-10.8375,,0.0026799999999997937,2.2334497487071427,1.917024609745323,non_fall
5.659584,-0.7545,1.4257,-1.5448,-2.1372,0.6308,-1.0733,19.0125,-41.1562,-10.8375,,0.012305999999999706,2.2334497487071427,1.9411670300505477,non_fall
5.66751,-0.7545,1.4257,-1.5448,-2.1372,0.6308,-1.0733,19.0125,-41.1562,-10.8375,,0.007926000000000322,2.2334497487071427,1.9514786424543757,non_fall
5.706534,1.1205,-1.1124,-0.8261,-2.1372,0.6308,-1.0733,19.0125,-41.1562,-10.8375,,0.03902400000000039,1.7819638660758528,1.950142892122404,non_fall
5.711807,1.1205,-1.1124,-0.8261,-2.1372,0.6308,-1.0733,19.0125,-41.1562,-10.8375,,0.005272999999999861,1.7819638660758528,1.9404826762994198,non_fall
5.714518,1.1205,-1.1124,-0.8261,-2.1372,0.6308,-1.0733,19.0125,-41.1562,-10.8375,,0.002710999999999686,1.7819638660758528,1.9265834753315176,non_fall
5.723655,1.1205,-1.1124,-0.8261,-1.2964,0.7886,-1.2301,19.0125,-41.1562,-10.8375,,0.00913699999999995,1.7819638660758528,1.9128639082873462,non_fall
5.729102,1.1205,-1.1124,-0.8261,-1.2964,0.7886,-1.2301,19.0125,-41.1562,-10.8375,,0.005447000000000202,1.7819638660758528,1.903653970631963,non_fall
5.731926,1.1205,-1.1124,-0.8261,-1.2964,0.7886,-1.2301,20.9625,-40.8,-9.7313,,0.0028239999999994936,1.7819638660758528,1.9028294124988498,non_fall
5.739758,1.1205,-1.1124,-0.8261,-1.2964,0.7886,-1.2301,20.9625,-40.8,-9.7313,,0.007832000000000505,1.7819638660758528,1.9135336569991823,non_fall
5.757675,1.1205,-1.1124,-0.8261,-1.2964,0.7886,-1.2301,20.9625,-40.8,-9.7313,,0.01791699999999974,1.7819638660758528,1.9380009921943946,non_fall
5.760245,-1.743,0.3784,1.3429,-1.2964,0.7886,-1.2301,20.9625,-40.8,-9.7313,,0.0025700000000004053,2.232625353703572,1.9774778237693116,non_fall
5.777696,-1.743,0.3784,1.3429,-1.2964,0.7886,-1.2301,20.9625,-40.8,-9.7313,,0.01745099999999944,2.232625353703572,2.032223394624732,non_fall
5.780782,-1.743,0.3784,1.3429,-1.2964,0.7886,-1.2301,22.0312,-40.5375,-8.8875,,0.0030860000000005883,2.232625353703572,2.1015608119994815,non_fall
5.800411,-1.743,0.3784,1.3429,-0.3237,-0.1374,0.2453,22.0312,-40.5375,-8.8875,,0.01962900000000012,2.232625353703572,2.183948301238999,non_fall
5.806116,-1.743,0.3784,1.3429,-0.3237,-0.1374,0.2453,22.0312,-40.5375,-8.8875,,0.005704999999999849,2.232625353703572,2.277050731410483,non_fall
5.82073,-1.743,0.3784,1.3429,-0.3237,-0.1374,0.2453,22.0312,-40.5375,-8.8875,,0.014613999999999905,2.232625353703572,2.3778074719003657,non_fall
5.823363,-1.0274,2.2152,-0.7785,-0.3237,-0.1374,0.2453,22.0312,-40.5375,-8.8875,,0.0026329999999994413,2.5629522137566276,2.4825063713030064,non_fall
5.837652,-1.0274,2.2152,-0.7785,-0.3237,-0.1374,0.2453,22.0312,-40.5375,-8.8875,,0.014289000000000662,2.5629522137566276,2.586880013999038,non_fall
5.839229,-1.0274,2.2152,-0.7785,-0.3237,-0.1374,0.2453,22.5938,-40.3688,-8.0813,,0.0015769999999992734,2.5629522137566276,2.686239867966569,non_fall
5.859806,-1.0274,2.2152,-0.7785,-0.4132,1.0759,0.0786,22.5938,-40.3688,-8.0813,,0.02057700000000029,2.5629522137566276,2.7756601103124883,non_fall
5.872175,-1.0274,2.2152,-0.7785,-0.4132,1.0759,0.0786,22.5938,-40.3688,-8.0813,,0.012369000000000518,2.5629522137566276,2.8502177454733957,non_fall
5.879083,0.818,0.6999,-2.8585,-0.4132,1.0759,0.0786,22.5938,-40.3688,-8.0813,,0.006907999999999248,3.0545058945760766,2.9052870746842596,non_fall
5.880548,0.818,0.6999,-2.8585,-0.4132,1.0759,0.0786,22.5938,-40.3688,-8.0813,,0.0014650000000004937,3.0545058945760766,2.93687232362682,non_fall
5.916828,0.818,0.6999,-2.8585,-0.4132,1.0759,0.0786,22.5938,-40.3688,-8.0813,,0.036279999999999646,3.0545058945760766,2.9419452676916973,non_fall
5.918474,0.818,0.6999,-2.8585,-0.4132,1.0759,0.0786,23.0063,-40.1625,-7.7625,,0.0016460000000000363,3.0545058945760766,2.918742856984999,non_fall
5.919811,0.818,0.6999,-2.8585,-0.4132,1.0759,0.0786,23.0063,-40.1625,-7.7625,,0.0013370000000003657,3.0545058945760766,2.8669790187335256,non_fall
5.920771,0.818,0.6999,-2.8585,0.5188,1.6658,0.6557,23.0063,-40.1625,-7.7625,,0.0009600000000000719,3.0545058945760766,2.7879344273493407,non_fall
5.937536,0.818,0.6999,-2.8585,0.5188,1.6658,0.6557,23.0063,-40.1625,-7.7625,,0.016764999999999475,3.0545058945760766,2.6844043122085433,non_fall
5.939062,0.367,-0.289,-2.059,0.5188,1.6658,0.6557,23.0063,-40.1625,-7.7625,,0.0015260000000001384,2.111324465827079,2.560505302710323,non_fall
5.968635,0.367,-0.289,-2.059,0.5188,1.6658,0.6557,23.0063,-40.1625,-7.7625,,0.02957300000000007,2.111324465827079,2.42136627683989,non_fall
5.977427,0.367,-0.289,-2.059,0.5188,1.6658,0.6557,23.4,-39.9,-7.5938,,0.008791999999999689,2.111324465827079,2.2727485938962197,non_fall
5.979979,0.367,-0.289,-2.059,0.5188,1.6658,0.6557,23.4,-39.9,-7.5938,,0.002552000000000554,2.111324465827079,2.1206473725871997,non_fall
