time,ax,ay,az,wx,wy,wz,Bx,By,Bz,Unnamed: 10,time_diff,acc_mag,acc_mag_filtered,label
0.106786,0.0,0.0,0.0,0.0,0.0,0.0,0.0,0.0,0.0,,0.0,0.0,0.0023132876037828803,non_fall
0.107125,0.0,0.0,0.0,0.0,0.0,0.0,0.0,0.0,0.0,,0.0003389999999999921,0.0,-0.002870978829801636,non_fall
0.107437,0.0,0.0,0.0,0.0,0.0,0.0,0.0,0.0,0.0,,0.0003120000000000067,0.0,-0.0077324783200644525,non_fall
0.107739,0.0,0.0,0.0,0.0,0.0,0.0,0.0,0.0,0.0,,0.0003019999999999967,0.0,-0.011894965850087064,non_fall
0.10795,0.0,0.0,0.0,0.0,0.0,0.0,0.0,0.0,0.0,,0.00021100000000000285,0.0,-0.014977652332214953,non_fall
0.133269,0.0,0.0,0.0,-0.1202,0.2102,-0.17,0.0,0.0,0.0,,0.025318999999999994,0.0,-0.01658965405317464,non_fall
0.153005,0.0,0.0,0.0,-0.1202,0.2102,-0.17,0.0,0.0,0.0,,0.019736000000000004,0.0,-0.01633235801495858,non_fall
0.156132,0.0,0.0,0.0,-0.1202,0.2102,-0.17,0.0,0.0,0.0,,0.003126999999999991,0.0,-0.013811329513385094,non_fall
0.185079,0.0,0.0,0.0,-0.1202,0.2102,-0.17,0.0,0.0,0.0,,0.028947,0.0,-0.008657639775150624,non_fall
0.188006,0.0,0.0,0.0,-0.1202,0.2102,-0.17,0.0,0.0,0.0,,0.002927000000000013,0.0,-0.0005565852720271547,non_fall
0.190579,0.0,0.0,0.0,-0.1202,0.2102,-0.17,0.0,0.0,0.0,,0.002572999999999992,0.0,0.010720052507362701,non_fall
0.193432,0.0,0.0,0.0,-0.1202,0.2102,-0.17,-4.275,36.075,27.8813,,0.0028529999999999944,0.0,0.02528350807104471,non_fall
0.203785,0.0,0.0,0.0,-0.0497,0.1631,-0.227,-4.275,36.075,27.8813,,0.010353000000000001,0.0,0.04310533848996927,non_fall
0.226371,0.0,0.0,0.0,-0.0497,0.1631,-0.227,-4.275,36.075,27.8813,,0.022585999999999995,0.0,0.0640082468057128,non_fall
0.246268,0.0,0.0,0.0,-0.0497,0.1631,-0.227,-4.95,36.4875,27.675,,0.019896999999999998,0.0,0.0876743266964386,non_fall
0.24891,-0.204,0.0433,0.0767,-0.0497,0.1631,-0.227,-4.95,36.4875,27.675,,0.0026420000000000055,0.22220211520145344,0.11367105681607675,non_fall
0.250676,-0.204,0.0433,0.0767,-0.0497,0.1631,-0.227,-4.95,36.4875,27.675,,0.0017660000000000176,0.22220211520145344,0.14149041133787837,non_fall
0.251869,-0.204,0.0433,0.0767,-0.0497,0.1631,-0.227,-4.95,36.4875,27.675,,0.0011929999999999996,0.22220211520145344,0.1705919715602565,non_fall
0.265079,-0.204,0.0433,0.0767,-0.1039,0.2378,-0.1409,-4.95,36.4875,27.675,,0.01321,0.22220211520145344,0.2004397251320411,non_fall
0.28784,-0.204,0.0433,0.0767,-0.1039,0.2378,-0.1409,-4.95,36.4875,27.675,,0.022760999999999976,0.22220211520145344,0.23052560569823352,non_fall
0.289935,-0.204,0.0433,0.0767,-0.1039,0.2378,-0.1409,-4.95,36.4875,27.675,,0.0020950000000000135,0.22220211520145344,0.2603789517018607,non_fall
0.309248,-0.204,0.0433,0.0767,-0.1039,0.2378,-0.1409,-5.3813,36.2438,27.5625,,0.019313000000000025,0.22220211520145344,0.2895666360270891,non_fall
0.311129,-0.204,0.0433,0.0767,-0.1039,0.2378,-0.1409,-5.3813,36.2438,27.5625,,0.001880999999999966,0.22220211520145344,0.3176912909076883,non_fall
0.312262,-0.3271,0.2141,0.1395,-0.1039,0.2378,-0.1409,-5.3813,36.2438,27.5625,,0.0011329999999999951,0.4150824857784294,0.34439410069045817,non_fall
0.327345,-0.3271,0.2141,0.1395,-0.0944,0.0615,-0.0329,-5.3813,36.2438,27.5625,,0.015083000000000013,0.4150824857784294,0.3693646544639448,non_fall
0.354543,-0.3271,0.2141,0.1395,-0.0944,0.0615,-0.0329,-5.3813,36.2438,27.5625,,0.027198,0.4150824857784294,0.3923553736411183,non_fall
0.35599,-0.3271,0.2141,0.1395,-0.0944,0.0615,-0.0329,-5.3813,36.2438,27.5625,,0.001446999999999976,0.4150824857784294,0.4131949201120029,non_fall
0.364019,-0.3271,0.2141,0.1395,-0.0944,0.0615,-0.0329,-5.3813,36.2438,27.5625,,0.008029000000000008,0.4150824857784294,0.43179529191285787,non_fall
0.365494,-0.1581,0.1652,0.416,-0.0944,0.0615,-0.0329,-5.3813,36.2438,27.5625,,0.001475000000000004,0.4747026964321985,0.44814990611771954,non_fall
0.384011,-0.1581,0.1652,0.416,-0.0944,0.0615,-0.0329,-5.4563,36.0563,27.675,,0.018517000000000006,0.4747026964321985,0.4623225792265159,non_fall
0.405426,-0.1581,0.1652,0.416,-0.0944,0.0615,-0.0329,-5.4563,36.0563,27.675,,0.021415000000000017,0.4747026964321985,0.47442886389063277,non_fall
0.407512,-0.1581,0.1652,0.416,-0.0522,-0.0108,-0.0069,-5.4563,36.0563,27.675,,0.0020859999999999768,0.4747026964321985,0.48461212862852326,non_fall
0.421027,-0.1581,0.1652,0.416,-0.0522,-0.0108,-0.0069,-5.4563,36.0563,27.675,,0.013515,0.4747026964321985,0.4930176808595758,non_fall
0.426291,-0.1581,0.1652,0.416,-0.0522,-0.0108,-0.0069,-5.4563,36.0563,27.675,,0.005263999999999991,0.4747026964321985,0.49976898702906575,non_fall
0.428127,0.3119,0.0576,0.3874,-0.0522,-0.0108,-0.0069,-5.4563,36.0563,27.675,,0.0018360000000000043,0.5006776707623378,0.5049500696780121,non_fall
0.446949,0.3119,0.0576,0.3874,-0.0522,-0.0108,-0.0069,-5.5875,35.7563,27.8625,,0.018822000000000005,0.5006776707623378,0.5085971975460304,non_fall
0.465018,0.3119,0.0576,0.3874,-0.0522,-0.0108,-0.0069,-5.5875,35.7563,27.8625,,0.018069,0.5006776707623378,0.5107013155562361,non_fall
0.466739,0.3119,0.0576,0.3874,0.0264,-0.0005,-0.0,-5.5875,35.7563,27.8625,,0.001721000000000028,0.5006776707623378,0.5112208433596851,non_fall
0.48484,0.3119,0.0576,0.3874,0.0264,-0.0005,-0.0,-5.5875,35.7563,27.8625,,0.018100999999999978,0.5006776707623378,0.5101028969146786,non_fall
0.486712,0.3119,0.0576,0.3874,0.0264,-0.0005,-0.0,-5.5875,35.7563,27.8625,,0.0018719999999999848,0.5006776707623378,0.5073096774099226,non_fall
0.488144,0.4103,0.0281,0.3513,0.0264,-0.0005,-0.0,-5.5875,35.7563,27.8625,,0.0014320000000000443,0.5408765016156646,0.5028455817945711,non_fall
0.503045,0.4103,0.0281,0.3513,0.0264,-0.0005,-0.0,-5.9062,35.7563,27.8813,,0.014900999999999942,0.5408765016156646,0.49677960521418707,non_fall
0.523664,0.4103,0.0281,0.3513,0.0862,-0.0262,-0.014,-5.9062,35.7563,27.8813,,0.020619000000000054,0.5408765016156646,0.489257352463289,non_fall
0.525599,0.4103,0.0281,0.3513,0.0862,-0.0262,-0.014,-5.9062,35.7563,27.8813,,0.00193500000000002,0.5408765016156646,0.48049822095940786,non_fall
0.543363,0.3911,-0.0809,0.1024,0.0862,-0.0262,-0.014,-5.9062,35.7563,27.8813,,0.017764000000000002,0.41229816880505304,0.4707764897932663,non_fall
0.546129,0.3911,-0.0809,0.1024,0.0862,-0.0262,-0.014,-5.9062,35.7563,27.8813,,0.002765999999999935,0.41229816880505304,0.4603896064477874,non_fall
0.547442,0.3911,-0.0809,0.1024,0.0862,-0.0262,-0.014,-5.9062,35.7563,27.8813,,0.0013130000000000086,0.41229816880505304,0.449621214673572,non_fall
0.584935,0.3911,-0.0809,0.1024,0.0862,-0.0262,-0.014,-5.9062,35.7563,27.8813,,0.037493,0.41229816880505304,0.43870833992056757,non_fall
0.586662,0.3911,-0.0809,0.1024,0.0862,-0.0262,-0.014,-6.0375,35.6813,27.825,,0.001727000000000034,0.41229816880505304,0.42782071178834086,non_fall
0.608379,0.3911,-0.0809,0.1024,0.0862,-0.0262,-0.014,-6.0375,35.6813,27.825,,0.021716999999999986,0.41229816880505304,0.41705643397972014,non_fall
0.61056,0.314,-0.0894,-0.231,0.0862,-0.0262,-0.014,-6.0375,35.6813,27.825,,0.0021809999999999885,0.39993669499059475,0.4064539806903518,non_fall
0.612697,0.314,-0.0894,-0.231,0.0862,-0.0262,-0.014,-6.0375,35.6813,27.825,,0.0021370000000000555,0.39993669499059475,0.3960170877400746,non_fall
0.613976,0.314,-0.0894,-0.231,0.0625,0.0666,-0.0195,-6.0375,35.6813,27.825,,0.001278999999999919,0.39993669499059475,0.38574685246246665,non_fall
0.64251,0.314,-0.0894,-0.231,0.0625,0.0666,-0.0195,-6.0188,35.6625,27.6938,,0.02853400000000006,0.39993669499059475,0.37567413953317524,non_fall
0.64433,0.314,-0.0894,-0.231,0.0625,0.0666,-0.0195,-6.0188,35.6625,27.6938,,0.0018199999999999328,0.39993669499059475,0.36588510621334747,non_fall
0.665071,0.314,-0.0894,-0.231,0.0625,0.0666,-0.0195,-6.0188,35.6625,27.6938,,0.02074100000000001,0.39993669499059475,0.35653337633239146,non_fall
0.668246,0.314,-0.0894,-0.231,0.0625,0.0666,-0.0195,-6.0188,35.6625,27.6938,,0.003175000000000039,0.39993669499059475,0.3478342576858373,non_fall
0.670868,0.314,-0.0894,-0.231,0.0484,-0.0043,-0.0247,-6.0188,35.6625,27.6938,,0.002622000000000013,0.39993669499059475,0.340039505318619,non_fall
0.674883,0.0385,-0.0883,-0.2368,0.0484,-0.0043,-0.0247,-6.0188,35.6625,27.6938,,0.004014999999999991,0.25564307148835463,0.3333954095690505,non_fall
0.687846,0.0385,-0.0883,-0.2368,0.0484,-0.0043,-0.0247,-6.0188,35.6625,27.6938,,0.012962999999999947,0.25564307148835463,0.3280918644708307,non_fall
0.70413,0.0385,-0.0883,-0.2368,0.0484,-0.0043,-0.0247,-6.2625,35.7,27.6938,,0.016284000000000076,0.25564307148835463,0.3242140011360804,non_fall
0.725339,0.0385,-0.0883,-0.2368,-0.0079,0.0167,-0.012,-6.2625,35.7,27.6938,,0.021208999999999922,0.25564307148835463,0.3217087926976043,non_fall
0.728645,0.0851,-0.0361,-0.3293,-0.0079,0.0167,-0.012,-6.2625,35.7,27.6938,,0.003306000000000031,0.34202881457561435,0.32037563245576933,non_fall
0.730846,0.0851,-0.0361,-0.3293,-0.0079,0.0167,-0.012,-6.2625,35.7,27.6938,,0.0022010000000000085,0.34202881457561435,0.3198834218835249,non_fall
0.732342,0.0851,-0.0361,-0.3293,-0.0079,0.0167,-0.012,-6.2625,35.7,27.6938,,0.0014960000000000528,0.34202881457561435,0.319809929486868,non_fall
0.754138,0.0851,-0.0361,-0.3293,-0.0079,0.0167,-0.012,-6.2625,35.7,27.6938,,0.021795999999999927,0.34202881457561435,0.31969461825578366,non_fall
0.787231,0.0851,-0.0361,-0.3293,-0.0079,0.0167,-0.012,-6.2625,35.7,27.6938,,0.03309300000000004,0.34202881457561435,0.31909477519077667,non_fall
0.789412,0.0851,-0.0361,-0.3293,-0.0079,0.0167,-0.012,-6.2625,35.7,27.6938,,0.0021809999999999885,0.34202881457561435,0.3176359747352574,non_fall
0.790884,0.0851,-0.0361,-0.3293,-0.0079,0.0167,-0.012,-6.3938,35.625,27.675,,0.0014720000000000288,0.34202881457561435,0.31505039612015123,non_fall
0.792496,0.0509,-0.0696,-0.284,-0.0079,0.0167,-0.012,-6.3938,35.625,27.675,,0.0016119999999999468,0.2968012297818188,0.31119939930713364,non_fall
0.808262,0.0509,-0.0696,-0.284,-0.0326,0.0023,0.0086,-6.3938,35.625,27.675,,0.015766000000000058,0.2968012297818188,0.3060796339045358,non_fall
0.820414,0.0509,-0.0696,-0.284,-0.0326,0.0023,0.0086,-6.3938,35.625,27.675,,0.01215199999999994,0.2968012297818188,0.2998144070978853,non_fall
0.84228,0.0509,-0.0696,-0.284,-0.0326,0.0023,0.0086,-6.3938,35.625,27.675,,0.021866000000000052,0.2968012297818188,0.2926335597448539,non_fall
0.843787,0.0509,-0.0696,-0.284,-0.0326,0.0023,0.0086,-6.4313,35.7375,27.7125,,0.001506999999999925,0.2968012297818188,0.2848455211170992,non_fall
0.845582,0.2232,-0.1015,-0.0695,-0.0326,0.0023,0.0086,-6.4313,35.7375,27.7125,,0.001794999999999991,0.2548543505612569,0.27680497978584706,non_fall
0.846927,0.2232,-0.1015,-0.0695,-0.0326,0.0023,0.0086,-6.4313,35.7375,27.7125,,0.0013450000000000406,0.2548543505612569,0.2688793477192812,non_fall
0.863666,0.2232,-0.1015,-0.0695,-0.0578,0.0152,-0.021,-6.4313,35.7375,27.7125,,0.01673900000000006,0.2548543505612569,0.26141704856306014,non_fall
0.88693,0.2232,-0.1015,-0.0695,-0.0578,0.0152,-0.021,-6.4313,35.7375,27.7125,,0.02326399999999995,0.2548543505612569,0.2547202680932147,non_fall
0.88868,0.2232,-0.1015,-0.0695,-0.0578,0.0152,-0.021,-6.4313,35.7375,27.7125,,0.0017500000000000293,0.2548543505612569,0.24902392178532323,non_fall
0.905106,0.2232,-0.1015,-0.0695,-0.0578,0.0152,-0.021,-6.6375,35.7,27.75,,0.01642599999999994,0.2548543505612569,0.24448150571884422,non_fall
0.907464,0.2232,-0.1015,-0.0695,-0.0578,0.0152,-0.021,-6.6375,35.7,27.75,,0.0023580000000000823,0.2548543505612569,0.24115774235928703,non_fall
0.908719,0.1751,0.0709,-0.1037,-0.0578,0.0152,-0.021,-6.6375,35.7,27.75,,0.0012550000000000061,0.21550060324741555,0.2390278257994307,non_fall
0.927514,0.1751,0.0709,-0.1037,-0.0591,0.0266,-0.0434,-6.6375,35.7,27.75,,0.018794999999999895,0.21550060324741555,0.2379835016558218,non_fall
0.954876,0.1751,0.0709,-0.1037,-0.0591,0.0266,-0.0434,-6.6375,35.7,27.75,,0.027361999999999997,0.21550060324741555,0.2378466699146607,non_fall
0.957459,0.1751,0.0709,-0.1037,-0.0591,0.0266,-0.0434,-6.6375,35.7,27.75,,0.002583000000000002,0.21550060324741555,0.23839097076987756,non_fall
0.967431,0.1751,0.0709,-0.1037,-0.0591,0.0266,-0.0434,-6.6375,35.7,27.75,,0.009972000000000092,0.21550060324741555,0.23937048111171247,non_fall
0.96966,0.2313,-0.0643,0.1664,-0.0591,0.0266,-0.0434,-6.6375,35.7,27.75,,0.0022289999999999255,0.2921012495693916,0.2405523983086307,non_fall
0.982984,0.2313,-0.0643,0.1664,-0.0591,0.0266,-0.0434,-6.75,35.8313,27.6563,,0.013324000000000003,0.2921012495693916,0.24174813519766447,non_fall
1.005829,0.2313,-0.0643,0.1664,-0.0591,0.0266,-0.0434,-6.75,35.8313,27.6563,,0.022845000000000115,0.2921012495693916,0.24283568283652487,non_fall
1.008557,0.2313,-0.0643,0.1664,-0.0604,0.1148,-0.0593,-6.75,35.8313,27.6563,,0.0027279999999998417,0.2921012495693916,0.24376658171261245,non_fall
1.02278,0.2313,-0.0643,0.1664,-0.0604,0.1148,-0.0593,-6.75,35.8313,27.6563,,0.014223000000000097,0.2921012495693916,0.24455390852644546,non_fall
1.026043,0.1559,0.0472,0.095,-0.0604,0.1148,-0.0593,-6.75,35.8313,27.6563,,0.003263000000000016,0.18856736196913823,0.2452427299345062,non_fall
1.02857,0.1559,0.0472,0.095,-0.0604,0.1148,-0.0593,-6.75,35.8313,27.6563,,0.002526999999999946,0.18856736196913823,0.2458700508000368,non_fall
1.048124,0.1559,0.0472,0.095,-0.0604,0.1148,-0.0593,-6.6938,35.85,27.6563,,0.01955400000000007,0.18856736196913823,0.24642558357303748,non_fall
1.052771,0.1559,0.0472,0.095,-0.0604,0.1148,-0.0593,-6.6938,35.85,27.6563,,0.004646999999999846,0.18856736196913823,0.2468259649514798,non_fall
1.065007,0.1559,0.0472,0.095,-0.0247,-0.0505,-0.0398,-6.6938,35.85,27.6563,,0.012236000000000136,0.18856736196913823,0.2469125878796299,non_fall
1.086857,0.1559,0.0472,0.095,-0.0247,-0.0505,-0.0398,-6.6938,35.85,27.6563,,0.021849999999999925,0.18856736196913823,0.24647774775994818,non_fall
1.088706,0.1559,0.0472,0.095,-0.0247,-0.0505,-0.0398,-6.6938,35.85,27.6563,,0.0018489999999999895,0.18856736196913823,0.24531680532738842,non_fall
1.090055,-0.0674,0.1993,0.3119,-0.0247,-0.0505,-0.0398,-6.6938,35.85,27.6563,,0.0013490000000000446,0.3762244808621576,0.24329671565370947,non_fall
1.10786,-0.0674,0.1993,0.3119,-0.0247,-0.0505,-0.0398,-6.6563,35.925,27.7313,,0.01780500000000007,0.3762244808621576,0.24042463990735607,non_fall
1.125046,-0.0674,0.1993,0.3119,-0.0247,-0.0505,-0.0398,-6.6563,35.925,27.7313,,0.017185999999999924,0.3762244808621576,0.23689646073459575,non_fall
1.126832,-0.0674,0.1993,0.3119,-0.0625,-0.0141,-0.0171,-6.6563,35.925,27.7313,,0.0017860000000000653,0.3762244808621576,0.2331066057009787,non_fall
1.143823,0.0393,0.1511,-0.0298,-0.0625,-0.0141,-0.0171,-6.6563,35.925,27.7313,,0.01699099999999998,0.15894571400324076,0.22960895903578213,non_fall
1.148136,0.0393,0.1511,-0.0298,-0.0625,-0.0141,-0.0171,-6.6563,35.925,27.7313,,0.004313000000000011,0.15894571400324076,0.22703179966172976,non_fall
1.150541,0.0393,0.1511,-0.0298,-0.0625,-0.0141,-0.0171,-6.6563,35.925,27.7313,,0.0024049999999999905,0.15894571400324076,0.22596284936657188,non_fall
1.182973,0.0393,0.1511,-0.0298,-0.0625,-0.0141,-0.0171,-6.6563,35.925,27.7313,,0.032432000000000016,0.15894571400324076,0.22682868917819501,non_fall
1.185626,0.0393,0.1511,-0.0298,-0.0625,-0.0141,-0.0171,-6.8438,35.9625,27.9188,,0.0026530000000000165,0.15894571400324076,0.22979375560768545,non_fall
1.204937,0.0393,0.1511,-0.0298,-0.0625,-0.0141,-0.0171,-6.8438,35.9625,27.9188,,0.019310999999999856,0.15894571400324076,0.23469919133357559,non_fall
1.20756,0.0393,0.1511,-0.0298,-0.0625,-0.0141,-0.0171,-6.8438,35.9625,27.9188,,0.002623000000000042,0.15894571400324076,0.2410538987564008,non_fall
1.210029,0.0393,0.1511,-0.0298,0.0308,0.0001,-0.0024,-6.8438,35.9625,27.9188,,0.0024690000000000545,0.15894571400324076,0.24808120904975473,non_fall
1.213018,-0.0709,-0.0937,0.3247,0.0308,0.0001,-0.0024,-6.8438,35.9625,27.9188,,0.0029889999999999084,0.34530651601149953,0.254815264965826,non_fall
1.243163,-0.0709,-0.0937,0.3247,0.0308,0.0001,-0.0024,-6.8438,35.9625,27.9188,,0.03014500000000009,0.34530651601149953,0.26023208155433925,non_fall
1.245187,-0.0709,-0.0937,0.3247,0.0308,0.0001,-0.0024,-6.9188,35.9813,27.9938,,0.0020240000000000258,0.34530651601149953,0.26339302720161933,non_fall
1.26636,-0.0709,-0.0937,0.3247,0.0308,0.0001,-0.0024,-6.9188,35.9813,27.9938,,0.021172999999999886,0.34530651601149953,0.26357573289891884,non_fall
1.268309,-0.0709,-0.0937,0.3247,0.0308,0.0001,-0.0024,-6.9188,35.9813,27.9938,,0.0019489999999999785,0.34530651601149953,0.2603705548822347,non_fall
1.270448,-0.0709,-0.0937,0.3247,0.0027,-0.0938,0.0452,-6.9188,35.9813,27.9938,,0.002139000000000113,0.34530651601149953,0.2537285252719719,non_fall
1.272221,-0.1411,0.0768,0.042,0.0027,-0.0938,0.0452,-6.9188,35.9813,27.9938,,0.0017730000000000246,0.16604652962347632,0.24395676298188698,non_fall
1.287193,-0.1411,0.0768,0.042,0.0027,-0.0938,0.0452,-6.9188,35.9813,27.9938,,0.014971999999999985,0.16604652962347632,0.23166741062577434,non_fall
1.304045,-0.1411,0.0768,0.042,0.0027,-0.0938,0.0452,-6.825,35.8688,28.1063,,0.016851999999999867,0.16604652962347632,0.21769423380309533,non_fall
1.326537,-0.1411,0.0768,0.042,0.0443,-0.0311,0.045,-6.825,35.8688,28.1063,,0.02249200000000018,0.16604652962347632,0.202994835244937,non_fall
1.329657,0.0813,-0.1418,0.0125,0.0443,-0.0311,0.045,-6.825,35.8688,28.1063,,0.0031200000000000117,0.16393041206560788,0.18855509476540236,non_fall
1.333108,0.0813,-0.1418,0.0125,0.0443,-0.0311,0.045,-6.825,35.8688,28.1063,,0.003450999999999871,0.16393041206560788,0.17530750656243357,non_fall
1.33669,0.0813,-0.1418,0.0125,0.0443,-0.0311,0.045,-6.825,35.8688,28.1063,,0.003581999999999974,0.16393041206560788,0.16406926721891946,non_fall
1.352897,0.0813,-0.1418,0.0125,0.0443,-0.0311,0.045,-6.825,35.8688,28.1063,,0.016207000000000082,0.16393041206560788,0.15550114380303273,non_fall
1.384195,0.0813,-0.1418,0.0125,0.0443,-0.0311,0.045,-6.675,35.7188,28.2938,,0.03129800000000005,0.16393041206560788,0.15008491378692188,non_fall
1.387217,0.0813,-0.1418,0.0125,0.0512,-0.0568,0.0334,-6.675,35.7188,28.2938,,0.003021999999999858,0.16393041206560788,0.14811548233291416,non_fall
1.388344,0.0044,-0.0312,-0.1583,0.0512,-0.0568,0.0334,-6.675,35.7188,28.2938,,0.0011270000000001001,0.16140535926666127,0.14970343573087683,non_fall
1.390182,0.0044,-0.0312,-0.1583,0.0512,-0.0568,0.0334,-6.675,35.7188,28.2938,,0.0018380000000000063,0.16140535926666127,0.154784471625618,non_fall
1.39123,0.0044,-0.0312,-0.1583,0.0512,-0.0568,0.0334,-6.675,35.7188,28.2938,,0.0010479999999999379,0.16140535926666127,0.16313345469007393,non_fall
1.419447,0.0044,-0.0312,-0.1583,0.0512,-0.0568,0.0334,-6.675,35.7188,28.2938,,0.028216999999999937,0.16140535926666127,0.1743823231354568,non_fall
1.442982,0.0044,-0.0312,-0.1583,0.0512,-0.0568,0.0334,-6.675,35.7188,28.2938,,0.023535000000000084,0.16140535926666127,0.188042260838071,non_fall
1.445311,0.0044,-0.0312,-0.1583,0.0512,-0.0568,0.0334,-6.3188,35.6438,28.4063,,0.0023290000000000255,0.16140535926666127,0.2035310381425223,non_fall
1.447771,-0.1267,-0.0786,-0.2202,0.0512,-0.0568,0.0334,-6.3188,35.6438,28.4063,,0.0024599999999999067,0.2659302352121699,0.22020589537139135,non_fall
1.449579,-0.1267,-0.0786,-0.2202,0.0512,-0.0568,0.0334,-6.3188,35.6438,28.4063,,0.0018080000000000318,0.2659302352121699,0.23740083225181086,non_fall
1.465229,-0.1267,-0.0786,-0.2202,0.0124,-0.0641,0.0592,-6.3188,35.6438,28.4063,,0.015649999999999942,0.2659302352121699,0.2544654397595392,non_fall
1.488066,-0.1267,-0.0786,-0.2202,0.0124,-0.0641,0.0592,-6.3188,35.6438,28.4063,,0.022837000000000218,0.2659302352121699,0.2708017206206125,non_fall
1.490015,-0.1267,-0.0786,-0.2202,0.0124,-0.0641,0.0592,-6.3188,35.6438,28.4063,,0.0019489999999999785,0.2659302352121699,0.28589628037861464,non_fall
1.503987,-0.1267,-0.0786,-0.2202,0.0124,-0.0641,0.0592,-6.0,35.5875,28.5375,,0.013971999999999873,0.2659302352121699,0.29934702315850054,non_fall
1.506156,-0.1267,-0.0786,-0.2202,0.0124,-0.0641,0.0592,-6.0,35.5875,28.5375,,0.0021690000000000875,0.2659302352121699,0.31088458511984407,non_fall
1.509779,-0.0384,-0.0941,-0.3638,0.0124,-0.0641,0.0592,-6.0,35.5875,28.5375,,0.003622999999999932,0.377729810843677,0.320388266945385,non_fall
1.524501,-0.0384,-0.0941,-0.3638,-0.0192,-0.091,0.0376,-6.0,35.5875,28.5375,,0.014722000000000124,0.377729810843677,0.327894356930881,non_fall
1.555622,-0.0384,-0.0941,-0.3638,-0.0192,-0.091,0.0376,-6.0,35.5875,28.5375,,0.031120999999999954,0.377729810843677,0.33359274227700914,non_fall
1.556897,-0.0384,-0.0941,-0.3638,-0.0192,-0.091,0.0376,-6.0,35.5875,28.5375,,0.001274999999999915,0.377729810843677,0.3378074001149169,non_fall
1.568506,-0.0384,-0.0941,-0.3638,-0.0192,-0.091,0.0376,-6.0,35.5875,28.5375,,0.01160899999999998,0.377729810843677,0.3409587768236826,non_fall
1.569752,0.0298,-0.0348,-0.2849,-0.0192,-0.091,0.0376,-6.0,35.5875,28.5375,,0.0012460000000000804,0.28856037496510156,0.34351060711927245,non_fall
1.588528,0.0298,-0.0348,-0.2849,-0.0192,-0.091,0.0376,-5.7563,35.4188,28.6688,,0.018775999999999904,0.28856037496510156,0.3459087118202015,non_fall
1.590356,0.0298,-0.0348,-0.2849,-0.0519,-0.0712,0.0335,-5.7563,35.4188,28.6688,,0.0018280000000001628,0.28856037496510156,0.34852289260198244,non_fall
1.621317,0.0298,-0.0348,-0.2849,-0.0519,-0.0712,0.0335,-5.7563,35.4188,28.6688,,0.030960999999999794,0.28856037496510156,0.351603687295429,non_fall
1.622624,0.0298,-0.0348,-0.2849,-0.0519,-0.0712,0.0335,-5.7563,35.4188,28.6688,,0.0013070000000001691,0.28856037496510156,0.35526285222870924,non_fall
1.626939,0.3739,-0.1702,-0.0441,-0.0519,-0.0712,0.0335,-5.7563,35.4188,28.6688,,0.004314999999999847,0.4131755801109257,0.3594807222141354,non_fall
1.629157,0.3739,-0.1702,-0.0441,-0.0519,-0.0712,0.0335,-5.7563,35.4188,28.6688,,0.0022180000000000533,0.4131755801109257,0.36413675433871334,non_fall
1.643142,0.3739,-0.1702,-0.0441,-0.0519,-0.0712,0.0335,-5.5688,35.2125,28.7625,,0.013985000000000136,0.4131755801109257,0.3690537075239818,non_fall
1.664631,0.3739,-0.1702,-0.0441,-0.0519,-0.0712,0.0335,-5.5688,35.2125,28.7625,,0.02148899999999987,0.4131755801109257,0.3740430673401526,non_fall
1.666704,0.3739,-0.1702,-0.0441,-0.0469,-0.0195,0.012,-5.5688,35.2125,28.7625,,0.0020729999999999915,0.4131755801109257,0.37894036233489214,non_fall
1.684963,0.3739,-0.1702,-0.0441,-0.0469,-0.0195,0.012,-5.5688,35.2125,28.7625,,0.018259000000000025,0.4131755801109257,0.3836230023485588,non_fall
1.686536,0.3739,-0.1702,-0.0441,-0.0469,-0.0195,0.012,-5.5688,35.2125,28.7625,,0.0015730000000000466,0.4131755801109257,0.38800840434927825,non_fall
1.687525,0.2998,-0.0285,-0.1865,-0.0469,-0.0195,0.012,-5.5688,35.2125,28.7625,,0.0009889999999999066,0.3542238557748476,0.3920351552212531,non_fall
1.70575,0.2998,-0.0285,-0.1865,-0.0469,-0.0195,0.012,-5.175,35.0625,28.8563,,0.018225000000000158,0.3542238557748476,0.39563415120289136,non_fall
1.727998,0.2998,-0.0285,-0.1865,-0.0833,0.0475,-0.0649,-5.175,35.0625,28.8563,,0.022247999999999823,0.3542238557748476,0.3986994143621923,non_fall
1.731291,0.2998,-0.0285,-0.1865,-0.0833,0.0475,-0.0649,-5.175,35.0625,28.8563,,0.0032929999999999904,0.3542238557748476,0.40106881898679386,non_fall
1.747196,0.2998,-0.0285,-0.1865,-0.0833,0.0475,-0.0649,-5.175,35.0625,28.8563,,0.015905000000000058,0.3542238557748476,0.4025228950803358,non_fall
1.749827,0.2998,-0.0285,-0.1865,-0.0833,0.0475,-0.0649,-5.175,35.0625,28.8563,,0.00263100000000005,0.3542238557748476,0.402805689407317,non_fall
1.752182,0.4235,-0.0837,-0.097,-0.0833,0.0475,-0.0649,-5.175,35.0625,28.8563,,0.002354999999999885,0.4424555796913403,0.4016663117078094,non_fall
1.782897,0.4235,-0.0837,-0.097,-0.0833,0.0475,-0.0649,-5.175,35.0625,28.8563,,0.030715000000000048,0.4424555796913403,0.3989142799872339,non_fall
1.785116,0.4235,-0.0837,-0.097,-0.0833,0.0475,-0.0649,-4.8938,34.725,28.8938,,0.002218999999999971,0.4424555796913403,0.3944773276474304,non_fall
1.787022,0.4235,-0.0837,-0.097,-0.0919,0.143,-0.0766,-4.8938,34.725,28.8938,,0.0019060000000001853,0.4424555796913403,0.3884483763233026,non_fall
1.80594,0.4235,-0.0837,-0.097,-0.0919,0.143,-0.0766,-4.8938,34.725,28.8938,,0.01891799999999999,0.4424555796913403,0.3811097125763321,non_fall
1.808189,0.4235,-0.0837,-0.097,-0.0919,0.143,-0.0766,-4.8938,34.725,28.8938,,0.0022489999999999455,0.4424555796913403,0.37292660333961775,non_fall
1.80976,0.1991,0.2378,-0.0597,-0.0919,0.143,-0.0766,-4.8938,34.725,28.8938,,0.001570999999999989,0.3158381547565145,0.3645085285294825,non_fall
1.845661,0.1991,0.2378,-0.0597,-0.0919,0.143,-0.0766,-4.8938,34.725,28.8938,,0.03590099999999996,0.3158381547565145,0.3565427418226065,non_fall
1.848282,0.1991,0.2378,-0.0597,-0.0919,0.143,-0.0766,-4.8375,34.5375,29.0063,,0.0026209999999999845,0.3158381547565145,0.34971054650988265,non_fall
1.866152,0.1991,0.2378,-0.0597,-0.0919,0.143,-0.0766,-4.8375,34.5375,29.0063,,0.017870000000000053,0.3158381547565145,0.3445997468393206,non_fall
1.868475,0.1991,0.2378,-0.0597,-0.0919,0.143,-0.0766,-4.8375,34.5375,29.0063,,0.002323000000000075,0.3158381547565145,0.3416263309794118,non_fall
1.870098,0.0318,0.3348,0.0057,-0.0919,0.143,-0.0766,-4.8375,34.5375,29.0063,,0.00162299999999993,0.33635512483088464,0.3409754089851439,non_fall
1.872429,0.0318,0.3348,0.0057,-0.1592,0.0798,-0.0899,-4.8375,34.5375,29.0063,,0.002330999999999861,0.33635512483088464,0.3425674985539456,non_fall
1.888232,0.0318,0.3348,0.0057,-0.1592,0.0798,-0.0899,-4.8375,34.5375,29.0063,,0.01580300000000001,0.33635512483088464,0.34605270968558016,non_fall
1.908947,0.0318,0.3348,0.0057,-0.1592,0.0798,-0.0899,-4.8563,34.4625,29.1938,,0.02071500000000004,0.33635512483088464,0.350832717378044,non_fall
1.929179,0.0318,0.3348,0.0057,-0.1592,0.0798,-0.0899,-4.8563,34.4625,29.1938,,0.020232000000000028,0.33635512483088464,0.3561085707329026,non_fall
1.931977,0.0318,0.3348,0.0057,-0.1592,0.0798,-0.0899,-4.8563,34.4625,29.1938,,0.002798000000000078,0.33635512483088464,0.36095096529620785,non_fall
1.93395,0.0318,0.3348,0.0057,-0.1302,0.0132,-0.0128,-4.8563,34.4625,29.1938,,0.0019730000000000025,0.33635512483088464,0.36438809838761166,non_fall
1.936795,-0.1728,0.1942,0.3049,-0.1302,0.0132,-0.0128,-4.8563,34.4625,29.1938,,0.0028449999999999864,0.4006712991967356,0.3655043168181799,non_fall
1.95437,-0.1728,0.1942,0.3049,-0.1302,0.0132,-0.0128,-4.8563,34.4625,29.1938,,0.017574999999999896,0.4006712991967356,0.3635405596703834,non_fall
1.984786,-0.1728,0.1942,0.3049,-0.1302,0.0132,-0.0128,-4.8563,34.4625,29.1938,,0.030416,0.4006712991967356,0.3579857970284838,non_fall
1.987293,-0.1728,0.1942,0.3049,-0.1302,0.0132,-0.0128,-4.9875,34.3125,29.3438,,0.002507000000000037,0.4006712991967356,0.34864835411299433,non_fall
1.989608,-0.1728,0.1942,0.3049,-0.1569,0.066,0.0653,-4.9875,34.3125,29.3438,,0.002315000000000067,0.4006712991967356,0.33569792525754955,non_fall
1.991719,-0.1343,0.201,0.1277,-0.1569,0.066,0.0653,-4.9875,34.3125,29.3438,,0.002110999999999974,0.2733949158269042,0.3196730714243744,non_fall
1.99388,-0.1343,0.201,0.1277,-0.1569,0.066,0.0653,-4.9875,34.3125,29.3438,,0.0021610000000000795,0.2733949158269042,0.30145412206782257,non_fall
2.022282,-0.1343,0.201,0.1277,-0.1569,0.066,0.0653,-4.9875,34.3125,29.3438,,0.02840200000000004,0.2733949158269042,0.28220617372531426,non_fall
2.047897,-0.1343,0.201,0.1277,-0.1569,0.066,0.0653,-4.9875,34.3125,29.3438,,0.02561499999999972,0.2733949158269042,0.26329968530750936,non_fall
2.050408,-0.1343,0.201,0.1277,-0.1569,0.066,0.0653,-4.9875,34.3125,29.3438,,0.002511000000000152,0.2733949158269042,0.24621643518310318,non_fall
2.052308,-0.1343,0.201,0.1277,-0.1569,0.066,0.0653,-5.1938,34.1438,29.6063,,0.0019000000000000128,0.2733949158269042,0.23244747730842769,non_fall
2.054428,-0.0885,0.0842,0.1477,-0.1569,0.066,0.0653,-5.1938,34.1438,29.6063,,0.002120000000000122,0.19166945505218091,0.22338908127214094,non_fall
2.067046,-0.0885,0.0842,0.1477,-0.1136,-0.0295,0.1694,-5.1938,34.1438,29.6063,,0.012617999999999796,0.19166945505218091,0.2202434040784501,non_fall
2.088988,-0.0885,0.0842,0.1477,-0.1136,-0.0295,0.1694,-5.1938,34.1438,29.6063,,0.021942000000000128,0.19166945505218091,0.22393220653239143,non_fall
2.090779,-0.0885,0.0842,0.1477,-0.1136,-0.0295,0.1694,-5.1938,34.1438,29.6063,,0.001790999999999876,0.19166945505218091,0.23503278415604806,non_fall
2.102969,-0.0885,0.0842,0.1477,-0.1136,-0.0295,0.1694,-5.0813,33.8813,29.7938,,0.012189999999999923,0.19166945505218091,0.25374426757411295,non_fall
2.105418,-0.0885,0.0842,0.1477,-0.1136,-0.0295,0.1694,-5.0813,33.8813,29.7938,,0.0024489999999999235,0.19166945505218091,0.2798894086156966,non_fall
2.106678,0.0996,0.3893,-0.0436,-0.1136,-0.0295,0.1694,-5.0813,33.8813,29.7938,,0.001260000000000261,0.4041974888590972,0.3129523290728893,non_fall
2.124832,0.0996,0.3893,-0.0436,-0.1809,-0.0214,0.2502,-5.0813,33.8813,29.7938,,0.018154000000000003,0.4041974888590972,0.352147135866948,non_fall
2.153769,0.0996,0.3893,-0.0436,-0.1809,-0.0214,0.2502,-5.0813,33.8813,29.7938,,0.02893699999999999,0.4041974888590972,0.3965073000187293,non_fall
2.157583,0.0996,0.3893,-0.0436,-0.1809,-0.0214,0.2502,-5.0813,33.8813,29.7938,,0.003813999999999762,0.4041974888590972,0.4449833882326366,non_fall
2.166013,0.0996,0.3893,-0.0436,-0.1809,-0.0214,0.2502,-5.0813,33.8813,29.7938,,0.00843000000000016,0.4041974888590972,0.4965377682153889,lateral_fall
2.168044,0.5781,0.2626,-0.3253,-0.1809,-0.0214,0.2502,-5.0813,33.8813,29.7938,,0.002031000000000116,0.713427263286174,0.5502271626617825,lateral_fall
2.184953,0.5781,0.2626,-0.3253,-0.1809,-0.0214,0.2502,-4.875,33.7125,30.1125,,0.016909000000000063,0.713427263286174,0.6052648293175885,lateral_fall
2.188394,0.5781,0.2626,-0.3253,-0.1899,0.033,0.3476,-4.875,33.7125,30.1125,,0.0034410000000000274,0.713427263286174,0.6610541399822062,lateral_fall
2.221321,0.5781,0.2626,-0.3253,-0.1899,0.033,0.3476,-4.875,33.7125,30.1125,,0.03292699999999993,0.713427263286174,0.7171876366443186,lateral_fall
2.223952,0.5781,0.2626,-0.3253,-0.1899,0.033,0.3476,-4.875,33.7125,30.1125,,0.00263100000000005,0.713427263286174,0.7734120448924438,lateral_fall
2.231034,0.7372,0.4073,-0.1202,-0.1899,0.033,0.3476,-4.875,33.7125,30.1125,,0.007082000000000033,0.850767400644853,0.8295679056540051,lateral_fall
2.234057,0.7372,0.4073,-0.1202,-0.1899,0.033,0.3476,-4.875,33.7125,30.1125,,0.003022999999999776,0.850767400644853,0.8855184330811123,lateral_fall
2.243401,0.7372,0.4073,-0.1202,-0.1899,0.033,0.3476,-4.6688,33.4875,30.45,,0.009344000000000019,0.850767400644853,0.9410841169678505,lateral_fall
2.265544,0.7372,0.4073,-0.1202,-0.1975,-0.1771,0.3957,-4.6688,33.4875,30.45,,0.0221429999999998,0.850767400644853,0.9959982891874639,lateral_fall
2.269006,0.7372,0.4073,-0.1202,-0.1975,-0.1771,0.3957,-4.6688,33.4875,30.45,,0.003462000000000298,0.850767400644853,1.0498951870144742,lateral_fall
2.286573,1.1116,0.6393,0.0505,-0.1975,-0.1771,0.3957,-4.6688,33.4875,30.45,,0.01756700000000011,1.2833196406195924,1.1023352492828464,lateral_fall
2.289877,1.1116,0.6393,0.0505,-0.1975,-0.1771,0.3957,-4.6688,33.4875,30.45,,0.0033039999999999736,1.2833196406195924,1.1528621201752558,lateral_fall
2.291597,1.1116,0.6393,0.0505,-0.1975,-0.1771,0.3957,-4.6688,33.4875,30.45,,0.0017199999999997218,1.2833196406195924,1.2010751916479192,lateral_fall
2.30343,1.1116,0.6393,0.0505,-0.1975,-0.1771,0.3957,-4.2188,33.4125,30.7125,,0.011833000000000204,1.2833196406195924,1.2466962681830867,lateral_fall
2.326129,1.1116,0.6393,0.0505,-0.1975,-0.1771,0.3957,-4.2188,33.4125,30.7125,,0.022698999999999803,1.2833196406195924,1.289612270117388,lateral_fall
2.328229,1.1116,0.6393,0.0505,-0.0829,-0.0163,0.4926,-4.2188,33.4125,30.7125,,0.0020999999999999908,1.2833196406195924,1.32988498220532,lateral_fall
2.346007,1.367,0.4476,0.0416,-0.0829,-0.0163,0.4926,-4.2188,33.4125,30.7125,,0.017778000000000294,1.4390153995006447,1.3677279403787077,lateral_fall
2.348464,1.367,0.4476,0.0416,-0.0829,-0.0163,0.4926,-4.2188,33.4125,30.7125,,0.0024569999999997094,1.4390153995006447,1.4034561234400333,lateral_fall
2.349796,1.367,0.4476,0.0416,-0.0829,-0.0163,0.4926,-4.2188,33.4125,30.7125,,0.0013320000000001109,1.4390153995006447,1.4374165503509688,lateral_fall
2.38842,1.367,0.4476,0.0416,-0.0829,-0.0163,0.4926,-3.4125,33.2625,31.1063,,0.03862399999999999,1.4390153995006447,1.4699094878363075,lateral_fall
2.391584,1.367,0.4476,0.0416,-0.0829,-0.0163,0.4926,-3.4125,33.2625,31.1063,,0.0031639999999999446,1.4390153995006447,1.501112152022969,lateral_fall
2.39359,1.367,0.4476,0.0416,-0.0396,0.2038,0.4851,-3.4125,33.2625,31.1063,,0.0020060000000001743,1.4390153995006447,1.5310187094426873,lateral_fall
2.410579,1.367,0.4476,0.0416,-0.0396,0.2038,0.4851,-3.4125,33.2625,31.1063,,0.0169889999999997,1.4390153995006447,1.5594100768783823,lateral_fall
2.413103,1.367,0.4476,0.0416,-0.0396,0.2038,0.4851,-3.4125,33.2625,31.1063,,0.0025240000000001928,1.4390153995006447,1.5858631164717045,lateral_fall
2.414932,1.4197,0.9839,-0.3405,-0.0396,0.2038,0.4851,-3.4125,33.2625,31.1063,,0.0018289999999998585,1.7605531943113788,1.6098011229823457,lateral_fall
2.443094,1.4197,0.9839,-0.3405,-0.0396,0.2038,0.4851,-3.4125,33.2625,31.1063,,0.02816200000000002,1.7605531943113788,1.6305772572807786,lateral_fall
2.44603,1.4197,0.9839,-0.3405,-0.0396,0.2038,0.4851,-2.4938,33.075,31.125,,0.0029360000000000497,1.7605531943113788,1.6475732671814798,lateral_fall
2.466163,1.4197,0.9839,-0.3405,0.0277,-0.0807,0.5664,-2.4938,33.075,31.125,,0.020132999999999956,1.7605531943113788,1.660292276321952,lateral_fall
2.470106,0.7889,1.394,-0.1763,0.0277,-0.0807,0.5664,-2.4938,33.075,31.125,,0.00394300000000003,1.6114220117647642,1.668429149247898,lateral_fall
2.472533,0.7889,1.394,-0.1763,0.0277,-0.0807,0.5664,-2.4938,33.075,31.125,,0.002426999999999957,1.6114220117647642,1.6719125574273392,lateral_fall
2.474674,0.7889,1.394,-0.1763,0.0277,-0.0807,0.5664,-2.4938,33.075,31.125,,0.0021409999999999485,1.6114220117647642,1.6709237893921003,lateral_fall
2.487443,0.7889,1.394,-0.1763,0.0277,-0.0807,0.5664,-2.4938,33.075,31.125,,0.01276900000000003,1.6114220117647642,1.665903734480265,lateral_fall
2.50691,0.7889,1.394,-0.1763,0.0277,-0.0807,0.5664,-1.4813,33.1875,31.0313,,0.019467000000000123,1.6114220117647642,1.6575596935027794,lateral_fall
2.528228,0.7889,1.394,-0.1763,0.0277,-0.0807,0.5664,-1.4813,33.1875,31.0313,,0.021317999999999948,1.6114220117647642,1.6468791947835775,lateral_fall
2.530257,0.7889,1.394,-0.1763,0.0277,-0.0807,0.5664,-1.4813,33.1875,31.0313,,0.0020290000000002806,1.6114220117647642,1.6351514777957308,lateral_fall
2.531484,0.7889,1.394,-0.1763,0.2126,-0.339,0.553,-1.4813,33.1875,31.0313,,0.001226999999999645,1.6114220117647642,1.6239907447080673,lateral_fall
2.533013,0.9854,1.4081,0.1416,0.2126,-0.339,0.553,-1.4813,33.1875,31.0313,,0.0015290000000001136,1.724473638534379,1.6153496514925005,lateral_fall
2.554463,0.9854,1.4081,0.1416,0.2126,-0.339,0.553,-1.4813,33.1875,31.0313,,0.02145000000000019,1.724473638534379,1.6115075538975858,lateral_fall
2.584077,0.9854,1.4081,0.1416,0.2126,-0.339,0.553,-0.1875,33.2438,30.6188,,0.02961400000000003,1.724473638534379,1.6150169771353975,lateral_fall
2.589058,0.9854,1.4081,0.1416,0.2126,-0.339,0.553,-0.1875,33.2438,30.6188,,0.004980999999999902,1.724473638534379,1.6285951265243963,lateral_fall
2.591656,0.9854,1.4081,0.1416,0.75,-1.0,0.5405,-0.1875,33.2438,30.6188,,0.002597999999999878,1.724473638534379,1.6549554335336911,lateral_fall
2.595627,1.1941,1.1347,0.456,0.75,-1.0,0.5405,-0.1875,33.2438,30.6188,,0.003970999999999947,1.7091971507114092,1.6965856753570354,lateral_fall
2.598965,1.1941,1.1347,0.456,0.75,-1.0,0.5405,-0.1875,33.2438,30.6188,,0.003338000000000285,1.7091971507114092,1.7554914909141563,lateral_fall
2.62712,1.1941,1.1347,0.456,0.75,-1.0,0.5405,-0.1875,33.2438,30.6188,,0.02815499999999993,1.7091971507114092,1.8329345432918345,lateral_fall
2.645326,1.1941,1.1347,0.456,0.75,-1.0,0.5405,1.1063,33.7875,29.8313,,0.018205999999999722,1.7091971507114092,1.9292009073585201,lateral_fall
2.647988,1.1941,1.1347,0.456,0.75,-1.0,0.5405,1.1063,33.7875,29.8313,,0.002661999999999942,1.7091971507114092,2.0434354118227285,lateral_fall
2.649187,1.9761,0.9588,1.1779,0.75,-1.0,0.5405,1.1063,33.7875,29.8313,,0.0011990000000001722,2.492331651285599,2.17356999970248,lateral_fall
2.650859,1.9761,0.9588,1.1779,0.75,-1.0,0.5405,1.1063,33.7875,29.8313,,0.0016720000000001178,2.492331651285599,2.316359401989318,lateral_fall
2.665821,1.9761,0.9588,1.1779,1.9434,-1.3599,0.6489,1.1063,33.7875,29.8313,,0.014962000000000142,2.492331651285599,2.4675213285243345,lateral_fall
2.689082,1.9761,0.9588,1.1779,1.9434,-1.3599,0.6489,1.1063,33.7875,29.8313,,0.023260999999999754,2.492331651285599,2.621969937620124,lateral_fall
2.691677,1.9761,0.9588,1.1779,1.9434,-1.3599,0.6489,1.1063,33.7875,29.8313,,0.002594999999999903,2.492331651285599,2.7741341933595502,lateral_fall
2.710353,1.9761,0.9588,1.1779,1.9434,-1.3599,0.6489,2.475,34.7625,28.3875,,0.018676000000000137,2.492331651285599,2.918359802883246,lateral_fall
2.712814,1.9761,0.9588,1.1779,1.9434,-1.3599,0.6489,2.475,34.7625,28.3875,,0.0024609999999998244,2.492331651285599,3.0493926709154535,lateral_fall
2.714094,3.6245,0.3583,-0.112,1.9434,-1.3599,0.6489,2.475,34.7625,28.3875,,0.0012799999999999478,3.643888464264514,3.162925509301756,lateral_fall
2.729317,3.6245,0.3583,-0.112,1.9587,-1.5758,0.0526,2.475,34.7625,28.3875,,0.015223000000000209,3.643888464264514,3.2561590025043103,lateral_fall
2.753194,3.6245,0.3583,-0.112,1.9587,-1.5758,0.0526,2.475,34.7625,28.3875,,0.023877000000000148,3.643888464264514,3.328296981258603,lateral_fall
2.755586,3.6245,0.3583,-0.112,1.9587,-1.5758,0.0526,2.475,34.7625,28.3875,,0.0023919999999999497,3.643888464264514,3.3808792886547874,lateral_fall
2.766861,3.6245,0.3583,-0.112,1.9587,-1.5758,0.0526,2.475,34.7625,28.3875,,0.011274999999999924,3.643888464264514,3.417866663483123,lateral_fall
2.769491,2.2644,-1.1201,-2.8278,1.9587,-1.5758,0.0526,2.475,34.7625,28.3875,,0.00262999999999991,3.791910364183204,3.4454233125337614,lateral_fall
2.783669,2.2644,-1.1201,-2.8278,1.9587,-1.5758,0.0526,3.8813,35.775,26.55,,0.014178000000000246,3.791910364183204,3.471381553777558,lateral_fall
2.787583,2.2644,-1.1201,-2.8278,1.8834,-2.1286,0.2381,3.8813,35.775,26.55,,0.003913999999999973,3.791910364183204,3.5044110678554405,lateral_fall
2.821518,2.2644,-1.1201,-2.8278,1.8834,-2.1286,0.2381,3.8813,35.775,26.55,,0.03393500000000005,3.791910364183204,3.5529526643491938,lateral_fall
2.823772,2.2644,-1.1201,-2.8278,1.8834,-2.1286,0.2381,3.8813,35.775,26.55,,0.002253999999999756,3.791910364183204,3.6240145366845957,lateral_fall
2.826072,-1.5293,-2.0729,-1.6507,1.8834,-2.1286,0.2381,3.8813,35.775,26.55,,0.0022999999999999687,3.059490707617855,3.7219664363638483,lateral_fall
2.828242,-1.5293,-2.0729,-1.6507,1.8834,-2.1286,0.2381,3.8813,35.775,26.55,,0.0021700000000000053,3.059490707617855,3.847498474781855,lateral_fall
2.847971,-1.5293,-2.0729,-1.6507,1.8834,-2.1286,0.2381,5.5688,36.9,24.1875,,0.019728999999999886,3.059490707617855,3.996925630158674,lateral_fall
2.868645,-1.5293,-2.0729,-1.6507,1.8228,-2.6623,-0.2947,5.5688,36.9,24.1875,,0.02067400000000008,3.059490707617855,4.1620030196918245,lateral_fall
2.872185,-1.5293,-2.0729,-1.6507,1.8228,-2.6623,-0.2947,5.5688,36.9,24.1875,,0.0035400000000000986,3.059490707617855,4.3303623101739435,lateral_fall
2.893158,-1.2141,-0.4919,-5.116,1.8228,-2.6623,-0.2947,5.5688,36.9,24.1875,,0.02097300000000013,5.2810472843935035,4.486589564813067,lateral_fall
2.89679,-1.2141,-0.4919,-5.116,1.8228,-2.6623,-0.2947,5.5688,36.9,24.1875,,0.0036320000000000796,5.2810472843935035,4.613855064096617,lateral_fall
2.898788,-1.2141,-0.4919,-5.116,1.8228,-2.6623,-0.2947,5.5688,36.9,24.1875,,0.0019979999999999443,5.2810472843935035,4.69590455180554,lateral_fall
2.904122,-1.2141,-0.4919,-5.116,1.8228,-2.6623,-0.2947,6.825,38.0625,21.0188,,0.00533399999999995,5.2810472843935035,4.719162940423697,lateral_fall
2.926709,-1.2141,-0.4919,-5.116,1.8228,-2.6623,-0.2947,6.825,38.0625,21.0188,,0.02258699999999969,5.2810472843935035,4.674703600799609,lateral_fall
2.928955,-1.2141,-0.4919,-5.116,2.4167,0.9235,-0.4106,6.825,38.0625,21.0188,,0.0022460000000004143,5.2810472843935035,4.559886898713933,lateral_fall
2.947569,-1.4082,-0.4656,-3.2063,2.4167,0.9235,-0.4106,6.825,38.0625,21.0188,,0.01861399999999991,3.5327284483809396,4.379543795067869,lateral_fall
2.950739,-1.4082,-0.4656,-3.2063,2.4167,0.9235,-0.4106,6.825,38.0625,21.0188,,0.003169999999999895,3.5327284483809396,4.146652461078008,lateral_fall
2.952494,-1.4082,-0.4656,-3.2063,2.4167,0.9235,-0.4106,6.825,38.0625,21.0188,,0.001755000000000173,3.5327284483809396,3.8825104006427806,lateral_fall
2.967872,-1.4082,-0.4656,-3.2063,2.4167,0.9235,-0.4106,6.825,38.0625,21.0188,,0.01537799999999967,3.5327284483809396,3.6164238032324247,lateral_fall
2.984883,-1.4082,-0.4656,-3.2063,2.4167,0.9235,-0.4106,7.8,39.2063,17.5312,,0.01701100000000011,3.5327284483809396,3.3849148464869327,lateral_fall
2.987928,-1.4082,-0.4656,-3.2063,1.963,3.3516,-0.1297,7.8,39.2063,17.5312,,0.0030450000000001864,3.5327284483809396,3.2304045576365765,lateral_fall
3.007424,-3.8367,-1.4289,-3.2053,1.963,3.3516,-0.1297,7.8,39.2063,17.5312,,0.019495999999999736,5.199612503831415,3.1992922615414545,lateral_fall
3.009804,-3.8367,-1.4289,-3.2053,1.963,3.3516,-0.1297,7.8,39.2063,17.5312,,0.0023800000000000487,5.199612503831415,3.339345519855367,lateral_fall
3.010901,-3.8367,-1.4289,-3.2053,1.963,3.3516,-0.1297,7.8,39.2063,17.5312,,0.0010970000000001257,5.199612503831415,3.696354639815132,lateral_fall
3.044471,-3.8367,-1.4289,-3.2053,1.963,3.3516,-0.1297,7.8,39.2063,17.5312,,0.0335700000000001,5.199612503831415,4.310107340660441,lateral_fall
3.045824,-3.8367,-1.4289,-3.2053,1.963,3.3516,-0.1297,8.9625,40.125,13.6875,,0.0013529999999999376,5.199612503831415,5.209897694114828,lateral_fall
3.052141,-3.8367,-1.4289,-3.2053,1.963,3.3516,-0.1297,8.9625,40.125,13.6875,,0.006317000000000128,5.199612503831415,6.4099653260425455,lateral_fall
3.070344,-3.8367,-1.4289,-3.2053,4.2017,0.2424,1.6115,8.9625,40.125,13.6875,,0.018202999999999747,5.199612503831415,7.905415181880908,lateral_fall
3.073909,-3.8367,-1.4289,-3.2053,4.2017,0.2424,1.6115,8.9625,40.125,13.6875,,0.0035650000000000404,5.199612503831415,9.669246176610997,lateral_fall
3.077414,-10.217,-2.4218,7.8888,4.2017,0.2424,1.6115,8.9625,40.125,13.6875,,0.0035050000000000914,13.133368557989987,11.65108177252801,lateral_fall
3.094823,-10.217,-2.4218,7.8888,4.2017,0.2424,1.6115,8.9625,40.125,13.6875,,0.017408999999999786,13.133368557989987,13.778037745474286,lateral_fall
3.10405,-10.217,-2.4218,7.8888,4.2017,0.2424,1.6115,10.5,40.5,8.4375,,0.009227000000000096,13.133368557989987,15.957926900629122,lateral_fall
3.1339,-10.217,-2.4218,7.8888,4.2017,0.2424,1.6115,10.5,40.5,8.4375,,0.029850000000000154,13.133368557989987,18.08476781116798,lateral_fall
3.138043,-10.217,-2.4218,7.8888,4.2017,0.2424,1.6115,10.5,40.5,8.4375,,0.004143000000000008,13.133368557989987,20.046365529904815,lateral_fall
3.140102,-7.3882,-8.195,25.4359,4.2017,0.2424,1.6115,10.5,40.5,8.4375,,0.002059000000000033,27.72595414138168,21.733501468890882,lateral_fall
3.142808,-7.3882,-8.195,25.4359,2.7371,1.3639,0.6866,10.5,40.5,8.4375,,0.002705999999999875,27.72595414138168,23.04994139851712,lateral_fall
3.155848,-7.3882,-8.195,25.4359,2.7371,1.3639,0.6866,10.5,40.5,8.4375,,0.013040000000000163,27.72595414138168,23.92211973921434,lateral_fall
3.185733,-7.3882,-8.195,25.4359,2.7371,1.3639,0.6866,11.7563,40.6125,3.7688,,0.029884999999999717,27.72595414138168,24.30718454075815,lateral_fall
3.18868,-7.3882,-8.195,25.4359,2.7371,1.3639,0.6866,11.7563,40.6125,3.7688,,0.002947000000000255,27.72595414138168,24.198223951327684,lateral_fall
3.190836,-7.3882,-8.195,25.4359,-0.2692,2.3327,-1.6207,11.7563,40.6125,3.7688,,0.0021559999999998247,27.72595414138168,23.625883384824096,lateral_fall
3.192959,-7.3882,-8.195,25.4359,-0.2692,2.3327,-1.6207,11.7563,40.6125,3.7688,,0.002123000000000097,27.72595414138168,22.65607002756392,lateral_fall
3.194629,11.9425,11.1765,6.4773,-0.2692,2.3327,-1.6207,11.7563,40.6125,3.7688,,0.0016699999999998383,17.592409550428275,21.383933638477924,lateral_fall
3.219917,11.9425,11.1765,6.4773,-0.2692,2.3327,-1.6207,11.7563,40.6125,3.7688,,0.0252880000000002,17.592409550428275,19.924781538782376,lateral_fall
3.249895,11.9425,11.1765,6.4773,-0.2692,2.3327,-1.6207,12.3188,40.1438,-1.0875,,0.029977999999999838,17.592409550428275,18.402976981663954,lateral_fall
3.252181,11.9425,11.1765,6.4773,-0.2692,2.3327,-1.6207,12.3188,40.1438,-1.0875,,0.0022860000000002323,17.592409550428275,16.940088057429808,lateral_fall
3.253152,-4.7006,-9.3886,2.5949,-0.2692,2.3327,-1.6207,12.3188,40.1438,-1.0875,,0.0009709999999998331,10.815496120382088,15.643560374515946,lateral_fall
3.254793,-4.7006,-9.3886,2.5949,-0.2692,2.3327,-1.6207,12.3188,40.1438,-1.0875,,0.0016409999999997815,10.815496120382088,14.597051799286808,lateral_fall
3.266673,-4.7006,-9.3886,2.5949,3.76,-2.5264,-2.0326,12.3188,40.1438,-1.0875,,0.011880000000000113,10.815496120382088,13.853374941786491,lateral_fall
3.287553,-4.7006,-9.3886,2.5949,3.76,-2.5264,-2.0326,12.3188,40.1438,-1.0875,,0.02088000000000001,10.815496120382088,13.430743494870633,lateral_fall
3.289553,-4.7006,-9.3886,2.5949,3.76,-2.5264,-2.0326,12.3188,40.1438,-1.0875,,0.002000000000000224,10.815496120382088,13.312681277144469,lateral_fall
3.305858,-4.7006,-9.3886,2.5949,3.76,-2.5264,-2.0326,12.1688,39.4313,-6.2063,,0.016305000000000014,10.815496120382088,13.45155247090924,lateral_fall
3.30906,-4.7006,-9.3886,2.5949,3.76,-2.5264,-2.0326,12.1688,39.4313,-6.2063,,0.003201999999999927,10.815496120382088,13.775269151091264,lateral_fall
3.310831,8.3903,0.7519,-17.7325,3.76,-2.5264,-2.0326,12.1688,39.4313,-6.2063,,0.001770999999999745,19.631710163661243,14.196363530512219,lateral_fall
3.333484,8.3903,0.7519,-17.7325,-1.4164,-0.1338,-0.9715,12.1688,39.4313,-6.2063,,0.022653000000000034,19.631710163661243,14.622297054763763,lateral_fall
3.354047,8.3903,0.7519,-17.7325,-1.4164,-0.1338,-0.9715,12.1688,39.4313,-6.2063,,0.02056300000000011,19.631710163661243,14.965678959331294,lateral_fall
3.357275,8.3903,0.7519,-17.7325,-1.4164,-0.1338,-0.9715,12.1688,39.4313,-6.2063,,0.0032280000000000086,19.631710163661243,15.153086002036398,lateral_fall
3.369475,8.3903,0.7519,-17.7325,-1.4164,-0.1338,-0.9715,12.1688,39.4313,-6.2063,,0.012199999999999989,19.631710163661243,15.131463282917174,lateral_fall
3.372251,-9.602,6.2194,-3.6241,-1.4164,-0.1338,-0.9715,12.1688,39.4313,-6.2063,,0.0027759999999998897,12.00056003568167,14.87157584949881,lateral_fall
3.387284,-9.602,6.2194,-3.6241,-1.4164,-0.1338,-0.9715,11.2125,38.9062,-10.1063,,0.015033000000000296,12.00056003568167,14.368529284956661,lateral_fall
3.390473,-9.602,6.2194,-3.6241,-1.1942,-1.6839,0.2696,11.2125,38.9062,-10.1063,,0.0031889999999998864,12.00056003568167,13.6398360170215,lateral_fall
3.436417,-9.602,6.2194,-3.6241,-1.1942,-1.6839,0.2696,11.2125,38.9062,-10.1063,,0.045943999999999985,12.00056003568167,12.721757505417711,lateral_fall
3.438844,-9.602,6.2194,-3.6241,-1.1942,-1.6839,0.2696,11.2125,38.9062,-10.1063,,0.002426999999999957,12.00056003568167,11.664670087511633,lateral_fall
3.440398,-9.602,6.2194,-3.6241,-1.1942,-1.6839,0.2696,11.2125,38.9062,-10.1063,,0.0015540000000000553,12.00056003568167,10.528066784974866,lateral_fall
3.443702,-3.2202,-2.3305,-4.4625,-1.1942,-1.6839,0.2696,11.2125,38.9062,-10.1063,,0.0033039999999999736,5.976188127895574,9.375650655878644,lateral_fall
3.44614,-3.2202,-2.3305,-4.4625,-1.1942,-1.6839,0.2696,10.5375,38.4188,-13.3313,,0.0024380000000001623,5.976188127895574,8.270875891602762,lateral_fall
3.466787,-3.2202,-2.3305,-4.4625,-1.1942,-1.6839,0.2696,10.5375,38.4188,-13.3313,,0.02064699999999986,5.976188127895574,7.273233699248481,lateral_fall
3.468934,-3.2202,-2.3305,-4.4625,-0.0443,-0.1348,0.8556,10.5375,38.4188,-13.3313,,0.002146999999999899,5.976188127895574,6.4354893531035335,lateral_fall
3.488292,-3.2202,-2.3305,-4.4625,-0.0443,-0.1348,0.8556,10.5375,38.4188,-13.3313,,0.019357999999999986,5.976188127895574,5.801914030619851,lateral_fall
3.491168,-3.2202,-2.3305,-4.4625,-0.0443,-0.1348,0.8556,10.5375,38.4188,-13.3313,,0.0028760000000001007,5.976188127895574,5.407357125856884,lateral_fall
3.492734,-2.0263,-2.1073,-7.4558,-0.0443,-0.1348,0.8556,10.5375,38.4188,-13.3313,,0.0015659999999999563,8.008467932132836,5.276844950713894,lateral_fall
3.505394,-2.0263,-2.1073,-7.4558,-0.0443,-0.1348,0.8556,10.65,38.0438,-15.375,,0.012659999999999894,8.008467932132836,5.425318582012771,lateral_fall
3.530286,-2.0263,-2.1073,-7.4558,-0.0443,-0.1348,0.8556,10.65,38.0438,-15.375,,0.024891999999999914,8.008467932132836,5.857153736040449,lateral_fall
3.534101,-2.0263,-2.1073,-7.4558,-3.3361,2.2452,1.8797,10.65,38.0438,-15.375,,0.003815000000000346,8.008467932132836,6.5652410961344945,lateral_fall
3.549767,-2.0263,-2.1073,-7.4558,-3.3361,2.2452,1.8797,10.65,38.0438,-15.375,,0.015665999999999958,8.008467932132836,7.529628001220452,lateral_fall
3.553038,-2.0263,-2.1073,-7.4558,-3.3361,2.2452,1.8797,10.65,38.0438,-15.375,,0.003270999999999802,8.008467932132836,8.715982699671132,lateral_fall
3.556187,-0.1247,1.0095,-7.6605,-3.3361,2.2452,1.8797,10.65,38.0438,-15.375,,0.0031490000000000684,7.727735799702264,10.074376379507825,lateral_fall
3.583553,-0.1247,1.0095,-7.6605,-3.3361,2.2452,1.8797,10.65,38.0438,-15.375,,0.027366000000000223,7.727735799702264,11.539030253645052,lateral_fall
3.587953,-0.1247,1.0095,-7.6605,-3.3361,2.2452,1.8797,10.875,37.9125,-15.7875,,0.0043999999999999595,7.727735799702264,13.029703733559558,lateral_fall
3.590749,-0.1247,1.0095,-7.6605,-0.181,0.752,0.0352,10.875,37.9125,-15.7875,,0.0027960000000000207,7.727735799702264,14.455273396029746,lateral_fall
3.607648,-0.1247,1.0095,-7.6605,-0.181,0.752,0.0352,10.875,37.9125,-15.7875,,0.016898999999999997,7.727735799702264,15.719748746386724,lateral_fall
3.611428,1.6936,-2.1019,23.0745,-0.181,0.752,0.0352,10.875,37.9125,-15.7875,,0.0037799999999998946,23.23184914766795,16.730487547684678,lateral_fall
3.614681,1.6936,-2.1019,23.0745,-0.181,0.752,0.0352,10.875,37.9125,-15.7875,,0.0032529999999999504,23.23184914766795,17.40776750949537,lateral_fall
3.649238,1.6936,-2.1019,23.0745,-0.181,0.752,0.0352,10.875,37.9125,-15.7875,,0.03455699999999995,23.23184914766795,17.694311038096064,lateral_fall
3.653316,1.6936,-2.1019,23.0745,-0.181,0.752,0.0352,10.7438,38.3063,-14.8125,,0.004077999999999804,23.23184914766795,17.563086457844445,lateral_fall
3.671116,1.6936,-2.1019,23.0745,-0.181,0.752,0.0352,10.7438,38.3063,-14.8125,,0.01780000000000026,23.23184914766795,17.021863727505323,lateral_fall
3.675731,1.6936,-2.1019,23.0745,-0.181,0.752,0.0352,10.7438,38.3063,-14.8125,,0.004614999999999814,23.23184914766795,16.11351576660212,lateral_fall
3.678152,1.6936,-2.1019,23.0745,1.8679,2.0627,0.6729,10.7438,38.3063,-14.8125,,0.0024210000000000065,23.23184914766795,14.911755344164078,lateral_fall
3.681137,-0.5832,-1.6027,3.578,1.8679,2.0627,0.6729,10.7438,38.3063,-14.8125,,0.0029850000000002375,3.963691906543696,13.512765277882242,lateral_fall
3.694,-0.5832,-1.6027,3.578,1.8679,2.0627,0.6729,10.7438,38.3063,-14.8125,,0.012862999999999847,3.963691906543696,12.023942095056785,lateral_fall
3.704501,-0.5832,-1.6027,3.578,1.8679,2.0627,0.6729,10.6875,38.5125,-14.325,,0.010501000000000094,3.963691906543696,10.551571307862872,lateral_fall
3.733358,-0.5832,-1.6027,3.578,1.8679,2.0627,0.6729,10.6875,38.5125,-14.325,,0.02885699999999991,3.963691906543696,9.189448406649758,lateral_fall
3.737668,-0.5832,-1.6027,3.578,1.8679,2.0627,0.6729,10.6875,38.5125,-14.325,,0.004310000000000258,3.963691906543696,8.010141279279898,lateral_fall
3.740231,-0.5832,-1.6027,3.578,-1.0588,-1.0882,-1.236,10.6875,38.5125,-14.325,,0.002562999999999871,3.963691906543696,7.059905185293989,lateral_fall
3.743922,-0.2329,4.1557,-7.27,-1.0588,-1.0882,-1.236,10.6875,38.5125,-14.325,,0.003690999999999889,8.377170459051195,6.3574851107921635,lateral_fall
3.755008,-0.2329,4.1557,-7.27,-1.0588,-1.0882,-1.236,10.6875,38.5125,-14.325,,0.011086000000000151,8.377170459051195,5.896371134009511,lateral_fall
3.786653,-0.2329,4.1557,-7.27,-1.0588,-1.0882,-1.236,10.6875,38.5125,-14.325,,0.0316449999999997,8.377170459051195,5.649602755345297,lateral_fall
3.79109,-0.2329,4.1557,-7.27,-1.0588,-1.0882,-1.236,10.65,39.075,-12.7313,,0.004437000000000246,8.377170459051195,5.575993974079825,lateral_fall
3.795181,-0.2329,4.1557,-7.27,-0.7575,-1.8875,-0.7232,10.65,39.075,-12.7313,,0.004090999999999845,8.377170459051195,5.626674539499727,lateral_fall
3.799241,-0.2329,4.1557,-7.27,-0.7575,-1.8875,-0.7232,10.65,39.075,-12.7313,,0.0040599999999999525,8.377170459051195,5.751054351696014,lateral_fall
3.801841,-4.9481,0.8362,-1.7471,-0.7575,-1.8875,-0.7232,10.65,39.075,-12.7313,,0.0026000000000001577,5.313688216295721,5.901627458943829,lateral_fall
3.822019,-4.9481,0.8362,-1.7471,-0.7575,-1.8875,-0.7232,10.65,39.075,-12.7313,,0.02017800000000003,5.313688216295721,6.037362605588106,lateral_fall
3.843843,-4.9481,0.8362,-1.7471,-0.7575,-1.8875,-0.7232,10.65,39.075,-12.7313,,0.021824000000000066,5.313688216295721,6.125716397544333,lateral_fall
3.848012,-4.9481,0.8362,-1.7471,-0.7575,-1.8875,-0.7232,10.9313,39.7875,-10.575,,0.004169000000000089,5.313688216295721,6.143497381346576,lateral_fall
3.85174,-0.1155,-2.7844,4.9992,-0.7575,-1.8875,-0.7232,10.9313,39.7875,-10.575,,0.0037279999999997315,5.7234800820829275,6.0768790284704535,lateral_fall
3.855114,-0.1155,-2.7844,4.9992,-0.7575,-1.8875,-0.7232,10.9313,39.7875,-10.575,,0.003373999999999988,5.7234800820829275,5.920830799183806,lateral_fall
3.870665,-0.1155,-2.7844,4.9992,1.2884,-0.9388,-0.1673,10.9313,39.7875,-10.575,,0.01555099999999987,5.7234800820829275,5.678161623100992,lateral_fall
3.893353,-0.1155,-2.7844,4.9992,1.2884,-0.9388,-0.1673,10.9313,39.7875,-10.575,,0.02268800000000004,5.7234800820829275,5.3582940218425135,lateral_fall
3.897399,-0.1155,-2.7844,4.9992,1.2884,-0.9388,-0.1673,10.9313,39.7875,-10.575,,0.004046000000000216,5.7234800820829275,4.975833268311298,lateral_fall
3.905996,-0.1155,-2.7844,4.9992,1.2884,-0.9388,-0.1673,11.625,40.2375,-9.3,,0.008596999999999966,5.7234800820829275,4.548973652339796,lateral_fall
3.910212,1.3772,0.7975,-2.1127,1.2884,-0.9388,-0.1673,11.625,40.2375,-9.3,,0.0042159999999999975,2.6450306954740617,4.097796112771369,lateral_fall
3.915368,1.3772,0.7975,-2.1127,1.2884,-0.9388,-0.1673,11.625,40.2375,-9.3,,0.005155999999999938,2.6450306954740617,3.642552489566549,lateral_fall
3.928282,1.3772,0.7975,-2.1127,-0.3724,0.5869,0.105,11.625,40.2375,-9.3,,0.01291399999999987,2.6450306954740617,3.202076500671745,lateral_fall
3.956297,1.3772,0.7975,-2.1127,-0.3724,0.5869,0.105,11.625,40.2375,-9.3,,0.028015000000000345,2.6450306954740617,2.792471959422552,lateral_fall
3.959886,1.3772,0.7975,-2.1127,-0.3724,0.5869,0.105,11.625,40.2375,-9.3,,0.0035889999999998423,2.6450306954740617,2.4261860418600842,lateral_fall
3.969111,1.3772,0.7975,-2.1127,-0.3724,0.5869,0.105,11.625,40.2375,-9.3,,0.009224999999999817,2.6450306954740617,2.111502083993216,lateral_fall
3.972088,-0.7414,1.1845,-0.016,-0.3724,0.5869,0.105,11.625,40.2375,-9.3,,0.0029770000000000074,1.3974871054861295,1.8524238241344724,lateral_fall
3.985779,-0.7414,1.1845,-0.016,-0.3724,0.5869,0.105,12.2813,40.5188,-7.9688,,0.01369100000000012,1.3974871054861295,1.6488943840502837,lateral_fall
3.990055,-0.7414,1.1845,-0.016,0.0106,-0.2868,-0.0344,12.2813,40.5188,-7.9688,,0.0042759999999999465,1.3974871054861295,1.4972917959771035,lateral_fall
4.022413,-0.7414,1.1845,-0.016,0.0106,-0.2868,-0.0344,12.2813,40.5188,-7.9688,,0.03235800000000033,1.3974871054861295,1.3911462772901606,lateral_fall
4.026852,-0.7414,1.1845,-0.016,0.0106,-0.2868,-0.0344,12.2813,40.5188,-7.9688,,0.004438999999999638,1.3974871054861295,1.3220172100400855,lateral_fall
4.03025,-0.7414,1.1845,-0.016,0.0106,-0.2868,-0.0344,12.2813,40.5188,-7.9688,,0.00339799999999979,1.3974871054861295,1.2804519908353995,lateral_fall
4.03253,-1.4104,0.2788,0.7621,0.0106,-0.2868,-0.0344,12.2813,40.5188,-7.9688,,0.002280000000000726,1.6271920630337404,1.2569359985908382,lateral_fall
4.045094,-1.4104,0.2788,0.7621,0.0106,-0.2868,-0.0344,12.3188,40.7625,-7.4438,,0.012563999999999353,1.6271920630337404,1.2427406816798394,lateral_fall
4.054114,-1.4104,0.2788,0.7621,0.0106,-0.2868,-0.0344,12.3188,40.7625,-7.4438,,0.009020000000000472,1.6271920630337404,1.2305872710388388,lateral_fall
4.068248,-1.4104,0.2788,0.7621,0.0818,-0.2964,-0.0073,12.3188,40.7625,-7.4438,,0.014133999999999425,1.6271920630337404,1.2150672097213426,lateral_fall
4.08815,-0.2336,0.8949,0.039,0.0818,-0.2964,-0.0073,12.3188,40.7625,-7.4438,,0.019902000000000086,0.9257083612023821,1.192795894029202,lateral_fall
4.091668,-0.2336,0.8949,0.039,0.0818,-0.2964,-0.0073,12.3188,40.7625,-7.4438,,0.0035180000000005762,0.9257083612023821,1.1623182537138455,lateral_fall
4.093179,-0.2336,0.8949,0.039,0.0818,-0.2964,-0.0073,12.3188,40.7625,-7.4438,,0.001510999999999818,0.9257083612023821,1.1238222163017366,lateral_fall
4.105912,-0.2336,0.8949,0.039,0.0818,-0.2964,-0.0073,11.85,40.725,-7.9875,,0.012732999999999883,0.9257083612023821,1.078737131455562,lateral_fall
4.129912,-0.2336,0.8949,0.039,0.0818,-0.2964,-0.0073,11.85,40.725,-7.9875,,0.02400000000000002,0.9257083612023821,1.0292936286699526,lateral_fall
4.133185,-0.2336,0.8949,0.039,-0.1526,0.1072,-0.0324,11.85,40.725,-7.9875,,0.0032730000000000814,0.9257083612023821,0.9781048517043416,lateral_fall
4.149134,-0.2336,0.8949,0.039,-0.1526,0.1072,-0.0324,11.85,40.725,-7.9875,,0.01594899999999999,0.9257083612023821,0.9278073693998614,lateral_fall
4.153335,-0.2336,0.8949,0.039,-0.1526,0.1072,-0.0324,11.85,40.725,-7.9875,,0.004201000000000121,0.9257083612023821,0.8807811491127655,lateral_fall
4.155952,0.0961,0.7373,-0.0834,-0.1526,0.1072,-0.0324,11.85,40.725,-7.9875,,0.0026169999999998694,0.7481992114403757,0.8389547016748783,lateral_fall
4.183309,0.0961,0.7373,-0.0834,-0.1526,0.1072,-0.0324,11.85,40.725,-7.9875,,0.027357000000000298,0.7481992114403757,0.8036938111092516,lateral_fall
4.186522,0.0961,0.7373,-0.0834,-0.1526,0.1072,-0.0324,11.1375,40.8375,-8.3063,,0.0032129999999996883,0.7481992114403757,0.7757682664850555,non_fall
4.193174,0.0961,0.7373,-0.0834,0.011,-0.0951,-0.0447,11.1375,40.8375,-8.3063,,0.00665199999999988,0.7481992114403757,0.7553878343966971,non_fall
4.212911,0.0961,0.7373,-0.0834,0.011,-0.0951,-0.0447,11.1375,40.8375,-8.3063,,0.019737000000000116,0.7481992114403757,0.742294487567702,non_fall
4.216934,0.0961,0.7373,-0.0834,0.011,-0.0951,-0.0447,11.1375,40.8375,-8.3063,,0.00402300000000011,0.7481992114403757,0.7358931186572034,non_fall
4.219666,-0.5704,0.4529,0.4029,0.011,-0.0951,-0.0447,11.1375,40.8375,-8.3063,,0.0027319999999999567,0.8323478719862266,0.7353992948871234,non_fall
4.246148,-0.5704,0.4529,0.4029,0.011,-0.0951,-0.0447,11.1375,40.8375,-8.3063,,0.026481999999999672,0.8323478719862266,0.7399812239004836,non_fall
4.249771,-0.5704,0.4529,0.4029,0.011,-0.0951,-0.0447,10.4062,41.0625,-8.2125,,0.003623000000000154,0.8323478719862266,0.7488745832639228,non_fall
4.268621,-0.5704,0.4529,0.4029,0.011,-0.0951,-0.0447,10.4062,41.0625,-8.2125,,0.018850000000000477,0.8323478719862266,0.7614536550138243,non_fall
4.272528,-0.5704,0.4529,0.4029,0.011,-0.0951,-0.0447,10.4062,41.0625,-8.2125,,0.003906999999999883,0.8323478719862266,0.7772501409747152,non_fall
4.275606,-0.5704,0.4529,0.4029,-0.193,0.0321,-0.1345,10.4062,41.0625,-8.2125,,0.00307799999999947,0.8323478719862266,0.7959208545577036,non_fall
4.279107,-0.2553,0.6862,0.0034,-0.193,0.0321,-0.1345,10.4062,41.0625,-8.2125,,0.0035009999999999764,0.732161245901475,0.8171753743361517,non_fall
4.314404,-0.2553,0.6862,0.0034,-0.193,0.0321,-0.1345,10.4062,41.0625,-8.2125,,0.03529699999999991,0.732161245901475,0.8406830028264234,non_fall
4.317743,-0.2553,0.6862,0.0034,-0.193,0.0321,-0.1345,10.0875,41.1188,-8.4188,,0.003339000000000425,0.732161245901475,0.8659832583471148,non_fall
4.331123,-0.2553,0.6862,0.0034,-0.193,0.0321,-0.1345,10.0875,41.1188,-8.4188,,0.013379999999999725,0.732161245901475,0.8924237992439458,non_fall
4.334093,-0.6961,0.6356,0.3241,-0.193,0.0321,-0.1345,10.0875,41.1188,-8.4188,,0.0029700000000003612,0.9967865267949804,0.9191432331041393,non_fall
4.337243,-0.6961,0.6356,0.3241,-0.193,0.0321,-0.1345,10.0875,41.1188,-8.4188,,0.003149999999999764,0.9967865267949804,0.9451050688992166,non_fall
4.338927,-0.6961,0.6356,0.3241,-0.1907,-0.0419,-0.0947,10.0875,41.1188,-8.4188,,0.0016840000000000188,0.9967865267949804,0.9691770134731281,non_fall
4.354963,-0.6961,0.6356,0.3241,-0.1907,-0.0419,-0.0947,10.0875,41.1188,-8.4188,,0.016035999999999717,0.9967865267949804,0.9902415333449777,non_fall
4.385802,-0.6961,0.6356,0.3241,-0.1907,-0.0419,-0.0947,10.05,41.2125,-8.5125,,0.030839000000000283,0.9967865267949804,1.0073213112712862,non_fall
4.391113,-0.6961,0.6356,0.3241,-0.1907,-0.0419,-0.0947,10.05,41.2125,-8.5125,,0.005310999999999844,0.9967865267949804,1.0197052103496753,non_fall
4.39378,-0.6961,0.6356,0.3241,0.076,-0.4193,-0.0692,10.05,41.2125,-8.5125,,0.002666999999999753,0.9967865267949804,1.027063111232954,non_fall
4.397297,-0.8474,0.243,0.642,0.076,-0.4193,-0.0692,10.05,41.2125,-8.5125,,0.0035170000000004364,1.0905502097565247,1.0295392521142557,non_fall
4.400657,-0.8474,0.243,0.642,0.076,-0.4193,-0.0692,10.05,41.2125,-8.5125,,0.0033599999999998076,1.0905502097565247,1.0278133536237624,non_fall
4.423303,-0.8474,0.243,0.642,0.076,-0.4193,-0.0692,10.05,41.2125,-8.5125,,0.022645999999999944,1.0905502097565247,1.023118225966767,non_fall
4.44736,-0.8474,0.243,0.642,0.076,-0.4193,-0.0692,10.05,41.2125,-8.5125,,0.024056999999999995,1.0905502097565247,1.0172036522471548,non_fall
4.451331,-0.8474,0.243,0.642,0.076,-0.4193,-0.0692,9.7875,41.2313,-8.3625,,0.003970999999999947,1.0905502097565247,1.0122403487104847,non_fall
4.454921,-0.8474,0.243,0.642,0.076,-0.4193,-0.0692,9.7875,41.2313,-8.3625,,0.003589999999999982,1.0905502097565247,1.010664530720913,non_fall
4.457629,-0.9277,0.2036,0.2373,0.076,-0.4193,-0.0692,9.7875,41.2313,-8.3625,,0.0027080000000001547,0.978974739204235,1.0149719987654644,non_fall
4.470803,-0.9277,0.2036,0.2373,0.1377,-0.4729,0.2868,9.7875,41.2313,-8.3625,,0.013174000000000241,0.978974739204235,1.0274794644019696,non_fall
4.493848,-0.9277,0.2036,0.2373,0.1377,-0.4729,0.2868,9.7875,41.2313,-8.3625,,0.02304499999999976,0.978974739204235,1.0500784461010442,non_fall
4.505855,-0.9277,0.2036,0.2373,0.1377,-0.4729,0.2868,9.7875,41.2313,-8.3625,,0.012007000000000545,0.978974739204235,1.0840114071130542,non_fall
4.509396,-0.9277,0.2036,0.2373,0.1377,-0.4729,0.2868,9.4688,41.2688,-8.475,,0.0035409999999993502,0.978974739204235,1.1296993535603956,non_fall
4.513071,-0.6635,-0.187,1.0441,0.1377,-0.4729,0.2868,9.4688,41.2688,-8.475,,0.003675000000000317,1.2511379060679122,1.1866447808724896,non_fall
4.517251,-0.6635,-0.187,1.0441,0.1377,-0.4729,0.2868,9.4688,41.2688,-8.475,,0.0041799999999998505,1.2511379060679122,1.253424969035853,non_fall
4.532511,-0.6635,-0.187,1.0441,0.3444,0.0608,0.768,9.4688,41.2688,-8.475,,0.015260000000000495,1.2511379060679122,1.3277806988419407,non_fall
4.555923,-0.6635,-0.187,1.0441,0.3444,0.0608,0.768,9.4688,41.2688,-8.475,,0.023411999999999544,1.2511379060679122,1.4067973342356992,non_fall
4.559454,-0.6635,-0.187,1.0441,0.3444,0.0608,0.768,9.4688,41.2688,-8.475,,0.003530999999999729,1.2511379060679122,1.487169531188853,non_fall
4.569302,-0.6635,-0.187,1.0441,0.3444,0.0608,0.768,9.4688,41.2688,-8.475,,0.009848000000000745,1.2511379060679122,1.5655344946513128,non_fall
4.572231,-1.3787,0.3294,1.4705,0.3444,0.0608,0.768,9.4688,41.2688,-8.475,,0.0029289999999999594,2.0424711258668995,1.6388473581024006,non_fall
4.585413,-1.3787,0.3294,1.4705,0.3444,0.0608,0.768,9.6,41.1375,-8.6063,,0.013181999999999583,2.0424711258668995,1.7047553974974414,non_fall
4.588774,-1.3787,0.3294,1.4705,0.058,0.0811,0.5484,9.6,41.1375,-8.6063,,0.0033609999999999474,2.0424711258668995,1.7619122839938401,non_fall
4.622332,-1.3787,0.3294,1.4705,0.058,0.0811,0.5484,9.6,41.1375,-8.6063,,0.0335580000000002,2.0424711258668995,1.8101707153578193,non_fall
4.625943,-1.3787,0.3294,1.4705,0.058,0.0811,0.5484,9.6,41.1375,-8.6063,,0.003611000000000253,2.0424711258668995,1.8506077150191735,non_fall
4.629694,-1.3933,-0.4222,1.1691,0.058,0.0811,0.5484,9.6,41.1375,-8.6063,,0.0037509999999993937,1.8671723380555958,1.8853667927326234,non_fall
4.632827,-1.3933,-0.4222,1.1691,0.058,0.0811,0.5484,9.6,41.1375,-8.6063,,0.0031330000000000524,1.8671723380555958,1.9173341804413406,non_fall
4.644583,-1.3933,-0.4222,1.1691,0.058,0.0811,0.5484,9.8063,41.025,-8.8313,,0.0117560000000001,1.8671723380555958,1.9496937157215646,non_fall
4.671171,-1.3933,-0.4222,1.1691,0.058,0.0811,0.5484,9.8063,41.025,-8.8313,,0.026588000000000278,1.8671723380555958,1.9854222414908937,non_fall
4.675154,-1.3933,-0.4222,1.1691,0.4907,0.8138,0.355,9.8063,41.025,-8.8313,,0.003982999999999848,1.8671723380555958,2.026793627763406,non_fall
4.694916,-1.3933,-0.4222,1.1691,0.4907,0.8138,0.355,9.8063,41.025,-8.8313,,0.019762000000000057,1.8671723380555958,2.07495626612735,non_fall
4.698418,-1.3933,-0.4222,1.1691,0.4907,0.8138,0.355,9.8063,41.025,-8.8313,,0.003502000000000116,1.8671723380555958,2.129638598410813,non_fall
4.70089,-2.2032,-0.0517,0.2952,0.4907,0.8138,0.355,9.8063,41.025,-8.8313,,0.0024720000000000297,2.223489637934029,2.189021522424953,non_fall
4.70457,-2.2032,-0.0517,0.2952,0.4907,0.8138,0.355,10.4438,40.6875,-9.0938,,0.0036800000000001276,2.223489637934029,2.2497966608565725,non_fall
4.730684,-2.2032,-0.0517,0.2952,0.4907,0.8138,0.355,10.4438,40.6875,-9.0938,,0.02611399999999975,2.223489637934029,2.3074084738310607,non_fall
4.733923,-2.2032,-0.0517,0.2952,0.772,1.0683,1.5946,10.4438,40.6875,-9.0938,,0.00323899999999977,2.223489637934029,2.356460434697316,non_fall
4.750955,-2.2032,-0.0517,0.2952,0.772,1.0683,1.5946,10.4438,40.6875,-9.0938,,0.01703200000000038,2.223489637934029,2.391253070598941,non_fall
4.754996,-2.2032,-0.0517,0.2952,0.772,1.0683,1.5946,10.4438,40.6875,-9.0938,,0.004040999999999961,2.223489637934029,2.4064120447752724,non_fall
4.757513,-2.473,-0.3775,-0.8075,0.772,1.0683,1.5946,10.4438,40.6875,-9.0938,,0.0025170000000001025,2.6287433309473176,2.397553297439791,non_fall
4.78585,-2.473,-0.3775,-0.8075,0.772,1.0683,1.5946,10.4438,40.6875,-9.0938,,0.028336999999999612,2.6287433309473176,2.3619185402384564,non_fall
4.788854,-2.473,-0.3775,-0.8075,0.772,1.0683,1.5946,11.7188,40.0125,-9.675,,0.0030039999999997846,2.6287433309473176,2.2989027559038844,non_fall
4.791492,-2.473,-0.3775,-0.8075,0.4486,-0.4776,1.1528,11.7188,40.0125,-9.675,,0.0026380000000001402,2.6287433309473176,2.2103937639184768,non_fall
4.810673,-2.473,-0.3775,-0.8075,0.4486,-0.4776,1.1528,11.7188,40.0125,-9.675,,0.01918100000000056,2.6287433309473176,2.1008581487148814,non_fall
4.813912,-2.473,-0.3775,-0.8075,0.4486,-0.4776,1.1528,11.7188,40.0125,-9.675,,0.00323899999999977,2.6287433309473176,1.9771382367498167,non_fall
4.816962,-0.7941,-0.5391,-0.6911,0.4486,-0.4776,1.1528,11.7188,40.0125,-9.675,,0.003049999999999997,1.1827268619592608,1.8479681168760782,non_fall
4.846142,-0.7941,-0.5391,-0.6911,0.4486,-0.4776,1.1528,11.7188,40.0125,-9.675,,0.029180000000000206,1.1827268619592608,1.7232666867032738,non_fall
4.849847,-0.7941,-0.5391,-0.6911,0.4486,-0.4776,1.1528,13.125,39.2625,-10.4062,,0.003704999999999181,1.1827268619592608,1.61330874257675,non_fall
4.871928,-0.7941,-0.5391,-0.6911,-0.3525,-0.191,0.8074,13.125,39.2625,-10.4062,,0.022081000000000017,1.1827268619592608,1.5278921319451122,non_fall
4.878152,0.7721,0.218,-1.4506,-0.3525,-0.191,0.8074,13.125,39.2625,-10.4062,,0.006224000000000451,1.6576799359345578,1.4756005137078279,non_fall
4.881894,0.7721,0.218,-1.4506,-0.3525,-0.191,0.8074,13.125,39.2625,-10.4062,,0.003741999999999912,1.6576799359345578,1.4632186205904107,non_fall
4.885023,0.7721,0.218,-1.4506,-0.3525,-0.191,0.8074,13.125,39.2625,-10.4062,,0.0031290000000003815,1.6576799359345578,1.4953135180647847,non_fall
4.906308,0.7721,0.218,-1.4506,-0.3525,-0.191,0.8074,13.125,39.2625,-10.4062,,0.021284999999999776,1.6576799359345578,1.573969532290561,non_fall
4.90977,0.7721,0.218,-1.4506,-0.3525,-0.191,0.8074,14.7938,38.3813,-11.025,,0.003461999999999854,1.6576799359345578,1.6986606935790205,non_fall
4.930688,0.7721,0.218,-1.4506,-0.3525,-0.191,0.8074,14.7938,38.3813,-11.025,,0.020917999999999992,1.6576799359345578,1.8662551927033988,non_fall
4.934851,0.7721,0.218,-1.4506,-0.3525,-0.191,0.8074,14.7938,38.3813,-11.025,,0.004163000000000139,1.6576799359345578,2.0711593050559713,non_fall
4.937706,0.7721,0.218,-1.4506,-0.6404,0.5075,0.7292,14.7938,38.3813,-11.025,,0.002855000000000274,1.6576799359345578,2.3056130008485947,non_fall
4.940899,2.7047,1.0129,-1.4635,-0.6404,0.5075,0.7292,14.7938,38.3813,-11.025,,0.0031929999999995573,3.2377771309958936,2.5601395160932303,non_fall
4.956031,2.7047,1.0129,-1.4635,-0.6404,0.5075,0.7292,14.7938,38.3813,-11.025,,0.015132000000000367,3.2377771309958936,2.824126619400976,non_fall
4.985597,2.7047,1.0129,-1.4635,-0.6404,0.5075,0.7292,14.7938,38.3813,-11.025,,0.02956599999999998,3.2377771309958936,3.0864895993287527,non_fall
4.989252,2.7047,1.0129,-1.4635,-0.6404,0.5075,0.7292,16.6313,37.4625,-11.3625,,0.0036549999999992977,3.2377771309958936,3.336353882577357,non_fall
4.996721,2.7047,1.0129,-1.4635,-0.5007,-0.1338,-0.018,16.6313,37.4625,-11.3625,,0.007469000000000392,3.2377771309958936,3.5637074071796784,non_fall
5.001642,2.7047,1.0129,-1.4635,-0.5007,-0.1338,-0.018,16.6313,37.4625,-11.3625,,0.004921000000000397,3.2377771309958936,3.759997063956848,non_fall
5.004101,3.6883,1.6869,-1.5212,-0.5007,-0.1338,-0.018,16.6313,37.4625,-11.3625,,0.002458999999999989,4.331655334857565,3.9186580452222657,non_fall
5.02257,3.6883,1.6869,-1.5212,-0.5007,-0.1338,-0.018,16.6313,37.4625,-11.3625,,0.018468999999999625,4.331655334857565,4.035559200783177,non_fall
5.044639,3.6883,1.6869,-1.5212,-0.5007,-0.1338,-0.018,16.6313,37.4625,-11.3625,,0.022069000000000116,4.331655334857565,4.109329697500243,non_fall
5.047346,3.6883,1.6869,-1.5212,-0.5007,-0.1338,-0.018,18.3563,36.8625,-11.3813,,0.002707000000000015,4.331655334857565,4.141520870461796,non_fall
5.04932,3.6883,1.6869,-1.5212,-0.5007,-0.1338,-0.018,18.3563,36.8625,-11.3813,,0.0019739999999996982,4.331655334857565,4.136564449357507,non_fall
5.05083,1.6145,1.9912,-3.191,-0.5007,-0.1338,-0.018,18.3563,36.8625,-11.3813,,0.0015100000000005664,4.093161209871901,4.101511534287771,non_fall
5.068445,1.6145,1.9912,-3.191,-1.0115,-0.0979,-0.0358,18.3563,36.8625,-11.3813,,0.01761499999999927,4.093161209871901,4.045564661568126,non_fall
5.087333,1.6145,1.9912,-3.191,-1.0115,-0.0979,-0.0358,18.3563,36.8625,-11.3813,,0.01888800000000046,4.093161209871901,3.979439585765097,non_fall
5.104853,1.6145,1.9912,-3.191,-1.0115,-0.0979,-0.0358,18.3563,36.8625,-11.3813,,0.017520000000000202,4.093161209871901,3.9146112395295485,non_fall
5.107266,1.6145,1.9912,-3.191,-1.0115,-0.0979,-0.0358,19.8563,36.3,-11.1,,0.0024129999999997764,4.093161209871901,3.862511102150839,non_fall
5.10898,1.6145,1.9912,-3.191,-1.0115,-0.0979,-0.0358,19.8563,36.3,-11.1,,0.0017139999999997713,4.093161209871901,3.8337551146889144,non_fall
5.110035,1.7191,1.0425,-1.6332,-1.0115,-0.0979,-0.0358,19.8563,36.3,-11.1,,0.0010550000000000281,2.5902612416511195,3.8374961631373754,non_fall
5.131353,1.7191,1.0425,-1.6332,1.1839,0.2371,0.2568,19.8563,36.3,-11.1,,0.021317999999999948,2.5902612416511195,3.881009939108053,non_fall
5.153911,1.7191,1.0425,-1.6332,1.1839,0.2371,0.2568,19.8563,36.3,-11.1,,0.022558000000000078,2.5902612416511195,3.969621773567715,non_fall
5.155919,1.7191,1.0425,-1.6332,1.1839,0.2371,0.2568,19.8563,36.3,-11.1,,0.0020080000000000098,2.5902612416511195,4.107040816323466,non_fall
5.171253,1.7191,1.0425,-1.6332,1.1839,0.2371,0.2568,19.8563,36.3,-11.1,,0.01533400000000018,2.5902612416511195,4.296072079951878,non_fall
5.17316,8.2389,-0.9316,1.2752,1.1839,0.2371,0.2568,19.8563,36.3,-11.1,,0.001907000000000103,8.388890678152862,4.539535039921679,non_fall
5.182832,8.2389,-0.9316,1.2752,1.1839,0.2371,0.2568,20.9625,35.9062,-11.1562,,0.009672000000000125,8.388890678152862,4.841065847982827,non_fall
5.191962,8.2389,-0.9316,1.2752,0.2636,0.2585,-2.0153,20.9625,35.9062,-11.1562,,0.00912999999999986,8.388890678152862,5.2053864192903045,non_fall
5.223869,8.2389,-0.9316,1.2752,0.2636,0.2585,-2.0153,20.9625,35.9062,-11.1562,,0.031906999999999464,8.388890678152862,5.637668454512322,non_fall
5.228041,8.2389,-0.9316,1.2752,0.2636,0.2585,-2.0153,20.9625,35.9062,-11.1562,,0.004172000000000509,8.388890678152862,6.141838546925056,non_fall
5.230468,-1.6636,-2.792,1.0609,0.2636,0.2585,-2.0153,20.9625,35.9062,-11.1562,,0.002426999999999957,3.418821108218445,6.7180107125344595,non_fall
5.23357,-1.6636,-2.792,1.0609,0.2636,0.2585,-2.0153,20.9625,35.9062,-11.1562,,0.00310200000000016,3.418821108218445,7.359587117040089,non_fall
5.246732,-1.6636,-2.792,1.0609,0.2636,0.2585,-2.0153,21.5063,35.6813,-11.1938,,0.013161999999999452,3.418821108218445,8.050818930145857,non_fall
5.269794,-1.6636,-2.792,1.0609,1.6437,0.0718,0.3898,21.5063,35.6813,-11.1938,,0.02306200000000036,3.418821108218445,8.765667403215064,non_fall
5.27521,-1.6636,-2.792,1.0609,1.6437,0.0718,0.3898,21.5063,35.6813,-11.1938,,0.0054160000000003095,3.418821108218445,9.468603840141894,non_fall
5.293679,-11.0718,-3.179,7.9404,1.6437,0.0718,0.3898,21.5063,35.6813,-11.1938,,0.018468999999999625,13.99073795051569,10.117569307029685,non_fall
5.298484,-11.0718,-3.179,7.9404,1.6437,0.0718,0.3898,21.5063,35.6813,-11.1938,,0.00480500000000017,13.99073795051569,10.668783327370384,non_fall
5.300448,-11.0718,-3.179,7.9404,1.6437,0.0718,0.3898,21.5063,35.6813,-11.1938,,0.001964000000000077,13.99073795051569,11.082600717530408,non_fall
5.303794,-11.0718,-3.179,7.9404,1.6437,0.0718,0.3898,21.6375,35.5312,-11.7188,,0.003345999999999627,13.99073795051569,11.329336742989918,non_fall
5.331063,-11.0718,-3.179,7.9404,1.6437,0.0718,0.3898,21.6375,35.5312,-11.7188,,0.027269000000000432,13.99073795051569,11.393997451191916,non_fall
5.333331,-11.0718,-3.179,7.9404,0.978,-0.4202,2.246,21.6375,35.5312,-11.7188,,0.0022679999999999367,13.99073795051569,11.279101628035034,non_fall
5.335942,-11.0718,-3.179,7.9404,0.978,-0.4202,2.246,21.6375,35.5312,-11.7188,,0.002610999999999919,13.99073795051569,11.005130170198408,non_fall
5.350309,-11.0718,-3.179,7.9404,0.978,-0.4202,2.246,21.6375,35.5312,-11.7188,,0.014367000000000019,13.99073795051569,10.608500647577602,non_fall
5.352601,-5.8295,3.3227,-1.4549,0.978,-0.4202,2.246,21.6375,35.5312,-11.7188,,0.0022919999999997387,6.865867720106469,10.13731983651116,non_fall
5.385661,-5.8295,3.3227,-1.4549,0.978,-0.4202,2.246,21.6375,35.5312,-11.7188,,0.03305999999999987,6.865867720106469,9.645505503610655,non_fall
5.388269,-5.8295,3.3227,-1.4549,0.978,-0.4202,2.246,22.3125,35.175,-11.9438,,0.002608000000000388,6.865867720106469,9.186137280066824,non_fall
5.390169,-5.8295,3.3227,-1.4549,-2.4739,7.1659,-1.2241,22.3125,35.175,-11.9438,,0.0019000000000000128,6.865867720106469,8.805008634139257,non_fall
5.410124,-5.8295,3.3227,-1.4549,-2.4739,7.1659,-1.2241,22.3125,35.175,-11.9438,,0.0199549999999995,6.865867720106469,8.53526621289937,non_fall
5.413016,-5.8295,3.3227,-1.4549,-2.4739,7.1659,-1.2241,22.3125,35.175,-11.9438,,0.0028920000000001167,6.865867720106469,8.393792403109268,non_fall
5.414771,5.1118,2.3074,-2.7598,-2.4739,7.1659,-1.2241,22.3125,35.175,-11.9438,,0.001755000000000173,6.250687165424294,8.379709133610293,non_fall
5.443275,5.1118,2.3074,-2.7598,-2.4739,7.1659,-1.2241,22.3125,35.175,-11.9438,,0.028503999999999863,6.250687165424294,8.475117024699168,non_fall
5.44698,5.1118,2.3074,-2.7598,-2.4739,7.1659,-1.2241,22.425,35.3063,-9.6,,0.0037050000000000693,6.250687165424294,8.647940568641426,non_fall
5.473818,-10.6108,-1.97,-4.1511,-2.4739,7.1659,-1.2241,22.425,35.3063,-9.6,,0.026837999999999695,11.56294114185487,8.85651026350842,non_fall
5.481461,-10.6108,-1.97,-4.1511,-4.8914,3.2405,-0.6332,22.425,35.3063,-9.6,,0.0076430000000007325,11.56294114185487,9.055276580811718,non_fall
5.486127,-10.6108,-1.97,-4.1511,-4.8914,3.2405,-0.6332,22.425,35.3063,-9.6,,0.004665999999999393,11.56294114185487,9.200863993307703,non_fall
5.489296,-10.6108,-1.97,-4.1511,-4.8914,3.2405,-0.6332,22.425,35.3063,-9.6,,0.0031690000000006435,11.56294114185487,9.257611128742875,non_fall
5.504951,-10.6108,-1.97,-4.1511,-4.8914,3.2405,-0.6332,22.5188,35.325,-6.5625,,0.015654999999999752,11.56294114185487,9.201845143416046,non_fall
5.508567,-10.6108,-1.97,-4.1511,-4.8914,3.2405,-0.6332,22.5188,35.325,-6.5625,,0.0036160000000000636,11.56294114185487,9.024370201754143,non_fall
5.530228,-10.6108,-1.97,-4.1511,-0.9291,-2.4138,-2.0309,22.5188,35.325,-6.5625,,0.02166099999999993,11.56294114185487,8.73094253314852,non_fall
5.535172,4.9683,-1.8279,-1.4798,-0.9291,-2.4138,-2.0309,22.5188,35.325,-6.5625,,0.0049440000000000595,5.496820111664562,8.340811146974735,non_fall
5.537799,4.9683,-1.8279,-1.4798,-0.9291,-2.4138,-2.0309,22.5188,35.325,-6.5625,,0.002626999999999491,5.496820111664562,7.883696426226636,non_fall
5.539719,4.9683,-1.8279,-1.4798,-0.9291,-2.4138,-2.0309,22.5188,35.325,-6.5625,,0.0019200000000001438,5.496820111664562,7.395808356329432,non_fall
5.556895,4.9683,-1.8279,-1.4798,-0.9291,-2.4138,-2.0309,22.5188,35.325,-6.5625,,0.01717600000000008,5.496820111664562,6.915599513928202,non_fall
5.5857,4.9683,-1.8279,-1.4798,-0.9291,-2.4138,-2.0309,22.5188,35.325,-6.5625,,0.02880500000000019,5.496820111664562,6.479873399336351,non_fall
5.588514,4.9683,-1.8279,-1.4798,-0.9291,-2.4138,-2.0309,22.7625,35.475,-4.6688,,0.002813999999999872,5.496820111664562,6.120677044077135,non_fall
5.590603,4.9683,-1.8279,-1.4798,1.7798,-8.4102,2.2651,22.7625,35.475,-4.6688,,0.0020889999999997855,5.496820111664562,5.8631876444404,non_fall
5.593083,4.9683,-1.8279,-1.4798,1.7798,-8.4102,2.2651,22.7625,35.475,-4.6688,,0.0024800000000002598,5.496820111664562,5.724616806539813,non_fall
5.59529,0.0068,5.5114,3.5881,1.7798,-8.4102,2.2651,22.7625,35.475,-4.6688,,0.002207000000000292,6.576476093623393,5.714019669853842,non_fall
5.62241,0.0068,5.5114,3.5881,1.7798,-8.4102,2.2651,22.7625,35.475,-4.6688,,0.027120000000000033,6.576476093623393,5.832807527489639,non_fall
5.644922,0.0068,5.5114,3.5881,1.7798,-8.4102,2.2651,22.7625,35.475,-4.6688,,0.022511999999999865,6.576476093623393,6.075720323012278,non_fall
5.648974,0.0068,5.5114,3.5881,1.7798,-8.4102,2.2651,23.6063,35.0813,-4.6688,,0.0040519999999997225,6.576476093623393,6.432020490260007,non_fall
5.652435,0.0068,5.5114,3.5881,1.7798,-8.4102,2.2651,23.6063,35.0813,-4.6688,,0.0034609999999997143,6.576476093623393,6.88671405670246,non_fall
5.655711,6.1198,5.9094,1.5524,1.7798,-8.4102,2.2651,23.6063,35.0813,-4.6688,,0.0032760000000005007,8.64771103587533,7.421666255949132,non_fall
5.670587,6.1198,5.9094,1.5524,0.7699,-0.5915,2.0164,23.6063,35.0813,-4.6688,,0.014876000000000111,8.64771103587533,8.016533770720557,non_fall
5.688248,6.1198,5.9094,1.5524,0.7699,-0.5915,2.0164,23.6063,35.0813,-4.6688,,0.017660999999999483,8.64771103587533,8.64948005894357,non_fall
5.705716,6.1198,5.9094,1.5524,0.7699,-0.5915,2.0164,23.6063,35.0813,-4.6688,,0.01746800000000004,8.64771103587533,9.297687187469307,non_fall
5.70946,6.1198,5.9094,1.5524,0.7699,-0.5915,2.0164,25.35,34.2563,-3.75,,0.0037440000000001916,8.64771103587533,9.93773123453624,non_fall
5.712626,4.2843,-3.9559,-9.5336,0.7699,-0.5915,2.0164,25.35,34.2563,-3.75,,0.003166000000000224,11.175593955580169,10.545927681490017,non_fall
5.716245,4.2843,-3.9559,-9.5336,0.7699,-0.5915,2.0164,25.35,34.2563,-3.75,,0.0036189999999995948,11.175593955580169,11.098753117591112,non_fall
5.73123,4.2843,-3.9559,-9.5336,0.5901,1.5424,-0.2874,25.35,34.2563,-3.75,,0.014985000000000248,11.175593955580169,11.573412752119763,non_fall
5.747454,4.2843,-3.9559,-9.5336,0.5901,1.5424,-0.2874,25.35,34.2563,-3.75,,0.016224000000000238,11.175593955580169,11.948579218070522,non_fall
5.755984,4.2843,-3.9559,-9.5336,0.5901,1.5424,-0.2874,25.35,34.2563,-3.75,,0.008529999999999482,11.175593955580169,12.20529790899387,non_fall
5.771066,-6.6929,-5.9358,9.0774,0.5901,1.5424,-0.2874,25.35,34.2563,-3.75,,0.015082000000000484,12.74471744724064,12.328027576228106,non_fall
5.777807,-6.6929,-5.9358,9.0774,0.5901,1.5424,-0.2874,25.35,34.2563,-3.75,,0.006740999999999886,12.74471744724064,12.305741807508594,non_fall
5.784865,-6.6929,-5.9358,9.0774,0.5901,1.5424,-0.2874,26.8313,33.5813,-3.5813,,0.007057999999999787,12.74471744724064,12.132960180120937,non_fall
5.794876,-6.6929,-5.9358,9.0774,0.0338,-2.0866,-0.5991,26.8313,33.5813,-3.5813,,0.010011000000000436,12.74471744724064,11.81053549536516,non_fall
5.822859,-6.6929,-5.9358,9.0774,0.0338,-2.0866,-0.5991,26.8313,33.5813,-3.5813,,0.02798299999999987,12.74471744724064,11.346022155546706,non_fall
5.827244,-6.6929,-5.9358,9.0774,0.0338,-2.0866,-0.5991,26.8313,33.5813,-3.5813,,0.004385000000000083,12.74471744724064,10.753497399248714,non_fall
5.832179,-4.9177,2.4424,-5.5627,0.0338,-2.0866,-0.5991,26.8313,33.5813,-3.5813,,0.00493499999999969,7.816183361462294,10.052795737133204,non_fall
5.836875,-4.9177,2.4424,-5.5627,0.0338,-2.0866,-0.5991,26.8313,33.5813,-3.5813,,0.0046960000000000335,7.816183361462294,9.268232741422482,non_fall
5.846185,-4.9177,2.4424,-5.5627,0.0338,-2.0866,-0.5991,28.05,33.2812,-2.7375,,0.009310000000000151,7.816183361462294,8.426999508870828,non_fall
5.871904,-4.9177,2.4424,-5.5627,-0.4642,-0.029,-0.1175,28.05,33.2812,-2.7375,,0.025718999999999603,7.816183361462294,7.557448903915751,non_fall
5.877169,-4.9177,2.4424,-5.5627,-0.4642,-0.029,-0.1175,28.05,33.2812,-2.7375,,0.005265000000000519,7.816183361462294,6.687447640134951,non_fall
5.888588,-4.9177,2.4424,-5.5627,-0.4642,-0.029,-0.1175,28.05,33.2812,-2.7375,,0.011419000000000068,7.816183361462294,5.84287976281451,non_fall
5.891356,0.4282,-0.1333,2.9003,-0.4642,-0.029,-0.1175,28.05,33.2812,-2.7375,,0.0027679999999996596,2.934768171423426,5.046331663782243,non_fall
5.894752,0.4282,-0.1333,2.9003,-0.4642,-0.029,-0.1175,28.05,33.2812,-2.7375,,0.0033960000000003987,2.934768171423426,4.316002685652352,non_fall
5.907099,0.4282,-0.1333,2.9003,-0.4642,-0.029,-0.1175,28.6688,33.2063,-1.9875,,0.01234699999999922,2.934768171423426,3.664937034298308,non_fall
5.931557,0.4282,-0.1333,2.9003,-0.2424,-0.0909,-0.1288,28.6688,33.2063,-1.9875,,0.02445800000000009,2.934768171423426,3.100692603486773,non_fall
5.937046,0.4282,-0.1333,2.9003,-0.2424,-0.0909,-0.1288,28.6688,33.2063,-1.9875,,0.005488999999999855,2.934768171423426,2.6255101952921023,non_fall
5.947081,0.4282,-0.1333,2.9003,-0.2424,-0.0909,-0.1288,28.6688,33.2063,-1.9875,,0.010035000000000238,2.934768171423426,2.236949130847541,non_fall
5.952707,0.2856,1.2495,-1.1883,-0.2424,-0.0909,-0.1288,28.6688,33.2063,-1.9875,,0.005626000000000353,1.747819927795767,1.9288713395516925,non_fall
5.95673,0.2856,1.2495,-1.1883,-0.2424,-0.0909,-0.1288,28.6688,33.2063,-1.9875,,0.00402300000000011,1.747819927795767,1.692620290881778,non_fall
5.984628,0.2856,1.2495,-1.1883,-0.2424,-0.0909,-0.1288,29.3625,32.8125,-3.9938,,0.027897999999999534,1.747819927795767,1.518247925223591,non_fall
5.988406,0.2856,1.2495,-1.1883,-0.2424,-0.0909,-0.1288,29.3625,32.8125,-3.9938,,0.003778000000000503,1.747819927795767,1.3956669625224534,non_fall
5.993532,0.2856,1.2495,-1.1883,-0.3068,-0.5175,-0.436,29.3625,32.8125,-3.9938,,0.005125999999999742,1.747819927795767,1.3156291186394837,non_fall
6.012125,0.2856,1.2495,-1.1883,-0.3068,-0.5175,-0.436,29.3625,32.8125,-3.9938,,0.01859300000000008,1.747819927795767,1.2704511143320707,non_fall
6.015417,0.2856,1.2495,-1.1883,-0.3068,-0.5175,-0.436,29.3625,32.8125,-3.9938,,0.0032920000000000726,1.747819927795767,1.2544387441159468,non_fall
6.017694,0.0108,0.5371,0.7847,-0.3068,-0.5175,-0.436,29.3625,32.8125,-3.9938,,0.0022769999999994184,0.9509716820179241,1.2639994828603605,non_fall
6.046107,0.0108,0.5371,0.7847,-0.3068,-0.5175,-0.436,29.3625,32.8125,-3.9938,,0.028413000000000466,0.9509716820179241,1.2974818313253074,non_fall
6.049497,0.0108,0.5371,0.7847,-0.3068,-0.5175,-0.436,29.7375,33.0,-7.0125,,0.00338999999999956,0.9509716820179241,1.3548226216684174,non_fall
6.052344,0.0108,0.5371,0.7847,-0.3068,-0.5175,-0.436,29.7375,33.0,-7.0125,,0.002847000000000044,0.9509716820179241,1.4371065003437984,non_fall
6.072056,0.0108,0.5371,0.7847,-0.5714,-1.8064,-2.5371,29.7375,33.0,-7.0125,,0.019712000000000174,0.9509716820179241,1.5461355832927801,non_fall
6.077364,0.0108,0.5371,0.7847,-0.5714,-1.8064,-2.5371,29.7375,33.0,-7.0125,,0.0053080000000003125,0.9509716820179241,1.6840741805227033,non_fall
6.079802,0.0812,-1.4514,2.6171,-0.5714,-1.8064,-2.5371,29.7375,33.0,-7.0125,,0.002437999999999718,2.9937213981932254,1.8531825937711492,non_fall
6.104772,0.0812,-1.4514,2.6171,-0.5714,-1.8064,-2.5371,29.0438,33.2812,-9.2625,,0.024969999999999715,2.9937213981932254,2.0555972686755757,non_fall
6.109113,0.0812,-1.4514,2.6171,-0.5714,-1.8064,-2.5371,29.0438,33.2812,-9.2625,,0.00434100000000015,2.9937213981932254,2.293072002167275,non_fall
6.135613,0.0812,-1.4514,2.6171,-0.5714,-1.8064,-2.5371,29.0438,33.2812,-9.2625,,0.026500000000000412,2.9937213981932254,2.566592040420465,non_fall
6.139471,0.0812,-1.4514,2.6171,-0.5714,-1.8064,-2.5371,29.0438,33.2812,-9.2625,,0.003858000000000139,2.9937213981932254,2.8758201989021495,non_fall
6.141961,-0.3328,-1.7678,2.529,-0.5714,-1.8064,-2.5371,29.0438,33.2812,-9.2625,,0.002489999999999881,3.1035002303850407,3.21841292833925,non_fall
6.145652,-0.3328,-1.7678,2.529,-0.9386,-2.208,-3.1877,29.0438,33.2812,-9.2625,,0.003690999999999889,3.1035002303850407,3.589321566890916,non_fall
6.156064,-0.3328,-1.7678,2.529,-0.9386,-2.208,-3.1877,29.0438,33.2812,-9.2625,,0.010411999999999644,3.1035002303850407,3.9802458169147075,non_fall
6.18575,-0.3328,-1.7678,2.529,-0.9386,-2.208,-3.1877,29.0438,33.2812,-9.2625,,0.02968599999999988,3.1035002303850407,4.379422723786784,non_fall
6.188972,-0.3328,-1.7678,2.529,-0.9386,-2.208,-3.1877,26.5688,34.5188,-9.6,,0.003222000000000058,3.1035002303850407,4.771910881273887,non_fall
6.191433,-0.3328,-1.7678,2.529,-0.8862,-1.7481,-1.9722,26.5688,34.5188,-9.6,,0.0024610000000002685,3.1035002303850407,5.140462204345537,non_fall
6.193862,-6.8823,2.5955,-0.7549,-0.8862,-1.7481,-1.9722,26.5688,34.5188,-9.6,,0.0024290000000002365,7.394088689622271,5.466960844762422,non_fall
6.196482,-6.8823,2.5955,-0.7549,-0.8862,-1.7481,-1.9722,26.5688,34.5188,-9.6,,0.0026199999999994006,7.394088689622271,5.734264072386784,non_fall
6.221961,-6.8823,2.5955,-0.7549,-0.8862,-1.7481,-1.9722,26.5688,34.5188,-9.6,,0.025479000000000696,7.394088689622271,5.928147356019405,non_fall
6.245365,-6.8823,2.5955,-0.7549,-0.8862,-1.7481,-1.9722,22.8563,36.3188,-10.275,,0.023403999999999314,7.394088689622271,6.038999349881371,non_fall
6.249932,-6.8823,2.5955,-0.7549,-0.8862,-1.7481,-1.9722,22.8563,36.3188,-10.275,,0.004567000000000654,7.394088689622271,6.0629677201101275,non_fall
6.252662,-6.8823,2.5955,-0.7549,-0.8862,-1.7481,-1.9722,22.8563,36.3188,-10.275,,0.002729999999999677,7.394088689622271,6.002400647741226,non_fall
6.255627,1.2399,2.6524,-1.5666,-0.8862,-1.7481,-1.9722,22.8563,36.3188,-10.275,,0.0029649999999996624,3.3206645916141544,5.8656075341012,non_fall
6.272963,1.2399,2.6524,-1.5666,-1.1439,-1.0191,-0.4364,22.8563,36.3188,-10.275,,0.01733600000000024,3.3206645916141544,5.666128127217039,non_fall
6.290192,1.2399,2.6524,-1.5666,-1.1439,-1.0191,-0.4364,22.8563,36.3188,-10.275,,0.017229000000000383,3.3206645916141544,5.421806068047211,non_fall
6.306033,1.2399,2.6524,-1.5666,-1.1439,-1.0191,-0.4364,22.8563,36.3188,-10.275,,0.015840999999999994,3.3206645916141544,5.153961064219988,non_fall
6.310468,1.2399,2.6524,-1.5666,-1.1439,-1.0191,-0.4364,19.3313,37.9688,-9.5438,,0.004434999999999967,3.3206645916141544,4.886823895606484,non_fall
6.314141,-2.7205,1.6197,7.3995,-1.1439,-1.0191,-0.4364,19.3313,37.9688,-9.5438,,0.0036730000000000373,8.04842522422865,4.647179029551421,non_fall
6.318106,-2.7205,1.6197,7.3995,-1.1439,-1.0191,-0.4364,19.3313,37.9688,-9.5438,,0.003964999999999996,8.04842522422865,4.463930542031318,non_fall
6.33319,-2.7205,1.6197,7.3995,-1.828,0.5925,0.3787,19.3313,37.9688,-9.5438,,0.015083999999999875,8.04842522422865,4.367159991187071,non_fall
6.358574,-2.7205,1.6197,7.3995,-1.828,0.5925,0.3787,19.3313,37.9688,-9.5438,,0.02538399999999985,8.04842522422865,4.386260827067005,non_fall
6.363063,-2.7205,1.6197,7.3995,-1.828,0.5925,0.3787,19.3313,37.9688,-9.5438,,0.004489000000000409,8.04842522422865,4.5469445725022,non_fall
6.373201,1.5464,0.0013,0.9324,-1.828,0.5925,0.3787,19.3313,37.9688,-9.5438,,0.010137999999999536,1.8057476041794989,4.867275330469116,non_fall
6.377913,1.5464,0.0013,0.9324,-1.828,0.5925,0.3787,19.3313,37.9688,-9.5438,,0.004712000000000494,1.8057476041794989,5.353301054511823,non_fall
6.386901,1.5464,0.0013,0.9324,-1.828,0.5925,0.3787,16.3125,39.5063,-8.4188,,0.008987999999999552,1.8057476041794989,5.995187010033191,non_fall
6.391329,1.5464,0.0013,0.9324,1.677,4.2904,0.9665,16.3125,39.5063,-8.4188,,0.0044279999999998765,1.8057476041794989,6.764896488309391,non_fall
6.423553,1.5464,0.0013,0.9324,1.677,4.2904,0.9665,16.3125,39.5063,-8.4188,,0.03222400000000025,1.8057476041794989,7.616340378322541,non_fall
6.428047,1.5464,0.0013,0.9324,1.677,4.2904,0.9665,16.3125,39.5063,-8.4188,,0.00449400000000022,1.8057476041794989,8.488555385239808,non_fall
6.432986,1.5464,0.0013,0.9324,1.677,4.2904,0.9665,16.3125,39.5063,-8.4188,,0.004938999999999361,1.8057476041794989,9.311940973136593,non_fall
6.435937,4.0263,-4.3796,18.8281,1.677,4.2904,0.9665,16.3125,39.5063,-8.4188,,0.00295100000000037,19.745615651582,10.016945367582561,non_fall
6.453237,4.0263,-4.3796,18.8281,1.677,4.2904,0.9665,13.6875,40.9313,-8.1375,,0.01729999999999965,19.745615651582,10.543917995360427,non_fall
6.465281,4.0263,-4.3796,18.8281,1.677,4.2904,0.9665,13.6875,40.9313,-8.1375,,0.012044000000000388,19.745615651582,10.852322503122199,non_fall
6.487668,4.0263,-4.3796,18.8281,2.246,1.9381,1.9262,13.6875,40.9313,-8.1375,,0.022387000000000157,19.745615651582,10.927391300713419,non_fall
6.492392,4.0263,-4.3796,18.8281,2.246,1.9381,1.9262,13.6875,40.9313,-8.1375,,0.004723999999999506,19.745615651582,10.782740522166053,non_fall
6.495152,2.8525,-3.4749,1.7558,2.246,1.9381,1.9262,13.6875,40.9313,-8.1375,,0.0027600000000003178,4.826439671227643,10.458339512480665,non_fall
6.497529,2.8525,-3.4749,1.7558,2.246,1.9381,1.9262,13.6875,40.9313,-8.1375,,0.0023770000000000735,4.826439671227643,10.014259711112908,non_fall
6.530782,2.8525,-3.4749,1.7558,2.246,1.9381,1.9262,13.6875,40.9313,-8.1375,,0.0332530000000002,4.826439671227643,9.521508489194941,non_fall
6.534994,2.8525,-3.4749,1.7558,2.246,1.9381,1.9262,10.6313,39.0,-7.4625,,0.0042119999999998825,4.826439671227643,9.051734551783989,non_fall
6.538691,2.8525,-3.4749,1.7558,0.2364,0.9722,1.3165,10.6313,39.0,-7.4625,,0.0036969999999998393,4.826439671227643,8.667579035707455,non_fall
6.5534,2.8525,-3.4749,1.7558,0.2364,0.9722,1.3165,10.6313,39.0,-7.4625,,0.014708999999999861,4.826439671227643,8.415060190221778,non_fall
6.557801,2.8525,-3.4749,1.7558,0.2364,0.9722,1.3165,10.6313,39.0,-7.4625,,0.004401000000000543,4.826439671227643,8.318836988100719,non_fall
6.560441,8.8527,-3.5133,-3.7378,0.2364,0.9722,1.3165,10.6313,39.0,-7.4625,,0.0026399999999995316,10.231555259099176,8.380649920897472,non_fall
6.592486,8.8527,-3.5133,-3.7378,0.2364,0.9722,1.3165,10.6313,39.0,-7.4625,,0.0320450000000001,10.231555259099176,8.580748470336607,non_fall
6.59567,8.8527,-3.5133,-3.7378,1.7612,0.3081,-1.0284,10.6313,39.0,-7.4625,,0.0031840000000000757,10.231555259099176,8.881732109296564,non_fall
6.615596,8.8527,-3.5133,-3.7378,1.7612,0.3081,-1.0284,10.6313,39.0,-7.4625,,0.019925999999999888,10.231555259099176,9.234014303485532,non_fall
6.618811,8.8527,-3.5133,-3.7378,1.7612,0.3081,-1.0284,10.6313,39.0,-7.4625,,0.003214999999999968,10.231555259099176,9.58208733594831,non_fall
6.620799,8.8527,-3.5133,-3.7378,1.7612,0.3081,-1.0284,9.3375,39.525,-7.95,,0.0019879999999998788,10.231555259099176,9.870865891181051,non_fall
6.622827,10.237,-2.7191,2.8676,1.7612,0.3081,-1.0284,9.3375,39.525,-7.95,,0.002028000000000141,10.973276792736069,10.051531521159854,non_fall
6.660293,10.237,-2.7191,2.8676,1.7612,0.3081,-1.0284,9.3375,39.525,-7.95,,0.03746600000000022,10.973276792736069,10.086430443561852,non_fall
6.664326,10.237,-2.7191,2.8676,1.7612,0.3081,-1.0284,9.3375,39.525,-7.95,,0.004032999999999731,10.973276792736069,9.95268247309775,non_fall
6.669962,10.237,-2.7191,2.8676,1.7612,0.3081,-1.0284,8.9813,39.4688,-8.4188,,0.005635999999999974,10.973276792736069,9.64425394114347,non_fall
6.673993,10.237,-2.7191,2.8676,0.9715,2.2072,-2.4749,8.9813,39.4688,-8.4188,,0.00403100000000034,10.973276792736069,9.172350082867801,non_fall
6.67782,5.3344,2.2371,-6.9425,0.9715,2.2072,-2.4749,8.9813,39.4688,-8.4188,,0.0038269999999993587,9.03652289434382,8.564103367494749,non_fall
6.68066,5.3344,2.2371,-6.9425,0.9715,2.2072,-2.4749,8.9813,39.4688,-8.4188,,0.0028399999999999537,9.03652289434382,7.85967599067529,non_fall
6.73325,5.3344,2.2371,-6.9425,1.4611,0.8307,-1.4327,8.9813,39.4688,-8.4188,,0.05259000000000036,9.03652289434382,7.108050611098663,non_fall
6.738249,-0.3425,2.9841,-0.4678,1.4611,0.8307,-1.4327,8.9813,39.4688,-8.4188,,0.004998999999999754,3.0399006398236113,6.361939490127443,non_fall
6.741457,-0.3425,2.9841,-0.4678,1.4611,0.8307,-1.4327,8.9813,39.4688,-8.4188,,0.0032079999999998776,3.0399006398236113,5.672379193066181,non_fall
6.744067,-0.3425,2.9841,-0.4678,1.4611,0.8307,-1.4327,8.9813,39.4688,-8.4188,,0.0026100000000006673,3.0399006398236113,5.08366034249943,non_fall
6.746675,-0.3425,2.9841,-0.4678,1.4611,0.8307,-1.4327,8.9813,39.4688,-8.4188,,0.0026079999999994996,3.0399006398236113,4.629217727371519,non_fall
6.748861,-0.3425,2.9841,-0.4678,1.4611,0.8307,-1.4327,9.375,39.225,-9.2812,,0.0021860000000000213,3.0399006398236113,4.32895198364853,non_fall
6.757311,-0.3425,2.9841,-0.4678,1.4611,0.8307,-1.4327,9.375,39.225,-9.2812,,0.008449999999999847,3.0399006398236113,4.188212896564898,non_fall
6.794133,1.7722,4.5917,-1.9483,1.4611,0.8307,-1.4327,9.375,39.225,-9.2812,,0.0368220000000008,5.293418046971163,4.198421451779069,non_fall
6.798901,1.7722,4.5917,-1.9483,1.4611,0.8307,-1.4327,9.375,39.225,-9.2812,,0.004767999999999439,5.293418046971163,4.3390960071097515,non_fall
6.800935,1.7722,4.5917,-1.9483,1.4611,0.8307,-1.4327,9.375,39.225,-9.2812,,0.0020340000000000913,5.293418046971163,4.580903236922335,non_fall
6.802826,1.7722,4.5917,-1.9483,-0.0215,1.835,-0.4501,9.375,39.225,-9.2812,,0.001890999999999643,5.293418046971163,4.8892928451009645,non_fall
6.809877,1.7722,4.5917,-1.9483,-0.0215,1.835,-0.4501,10.2938,38.625,-10.2,,0.007051000000000585,5.293418046971163,5.228294354159619,non_fall
6.823981,1.7722,4.5917,-1.9483,-0.0215,1.835,-0.4501,10.2938,38.625,-10.2,,0.014103999999999672,5.293418046971163,5.564122826419825,non_fall
6.852355,-4.1575,1.6264,5.4846,-0.0215,1.835,-0.4501,10.2938,38.625,-10.2,,0.028374000000000343,7.071832886175974,5.8683147177457045,non_fall
6.858143,-4.1575,1.6264,5.4846,-0.0215,1.835,-0.4501,10.2938,38.625,-10.2,,0.005787999999999904,7.071832886175974,6.120170278136587,non_fall
6.861114,-4.1575,1.6264,5.4846,-0.0215,1.835,-0.4501,10.2938,38.625,-10.2,,0.002970999999999613,7.071832886175974,6.3083207833495685,non_fall
6.870069,-4.1575,1.6264,5.4846,-0.0215,1.835,-0.4501,11.4563,37.7063,-11.925,,0.008955000000000268,7.071832886175974,6.4312912078659625,non_fall
6.874062,-4.1575,1.6264,5.4846,1.9478,-1.4429,1.2608,11.4563,37.7063,-11.925,,0.003993000000000357,7.071832886175974,6.4970074573232495,non_fall
6.891841,-4.1575,1.6264,5.4846,1.9478,-1.4429,1.2608,11.4563,37.7063,-11.925,,0.01777899999999999,7.071832886175974,6.521294991882721,non_fall
6.914558,-4.1575,1.6264,5.4846,1.9478,-1.4429,1.2608,11.4563,37.7063,-11.925,,0.022717000000000098,7.071832886175974,6.5255144238091045,non_fall
6.917878,-4.1575,1.6264,5.4846,1.9478,-1.4429,1.2608,11.4563,37.7063,-11.925,,0.0033199999999995455,7.071832886175974,6.533568743868777,non_fall
6.919566,-2.3788,-4.3981,1.3493,1.9478,-1.4429,1.2608,11.4563,37.7063,-11.925,,0.0016879999999996897,5.179052378572744,6.568595399901863,non_fall
6.935185,-2.3788,-4.3981,1.3493,1.9478,-1.4429,1.2608,12.3,36.2063,-14.85,,0.01561900000000005,5.179052378572744,6.649721593750149,non_fall
6.939142,-2.3788,-4.3981,1.3493,1.4924,-2.0528,0.3825,12.3,36.2063,-14.85,,0.0039570000000006544,5.179052378572744,6.789296017582541,non_fall
6.955929,-2.3788,-4.3981,1.3493,1.4924,-2.0528,0.3825,12.3,36.2063,-14.85,,0.016786999999999885,5.179052378572744,6.990987612441519,non_fall
6.959761,-2.3788,-4.3981,1.3493,1.4924,-2.0528,0.3825,12.3,36.2063,-14.85,,0.0038320000000000576,5.179052378572744,7.249045402386343,non_fall
6.973106,-2.3788,-4.3981,1.3493,1.4924,-2.0528,0.3825,12.3,36.2063,-14.85,,0.013344999999999274,5.179052378572744,7.548851306690236,non_fall
6.975994,0.1168,-2.1107,-10.049,1.4924,-2.0528,0.3825,12.3,36.2063,-14.85,,0.0028880000000004458,10.268938490905475,7.868692939938702,non_fall
6.992449,0.1168,-2.1107,-10.049,-0.3016,0.5039,0.0067,12.3,36.2063,-14.85,,0.016454999999999664,10.268938490905475,8.18246605736097,non_fall
7.010539,0.1168,-2.1107,-10.049,-0.3016,0.5039,0.0067,12.3,36.2063,-14.85,,0.01808999999999994,10.268938490905475,8.462838469483401,non_fall
7.013525,0.1168,-2.1107,-10.049,-0.3016,0.5039,0.0067,12.7688,34.8563,-17.1188,,0.002985999999999933,10.268938490905475,8.684337442742926,non_fall
7.021716,0.1168,-2.1107,-10.049,-0.3016,0.5039,0.0067,12.7688,34.8563,-17.1188,,0.00819100000000006,10.268938490905475,8.825894813571066,non_fall
7.031589,1.681,-4.229,-6.7399,-0.3016,0.5039,0.0067,12.7688,34.8563,-17.1188,,0.009873000000000687,8.132432232118507,8.87256210006423,non_fall
7.035289,1.681,-4.229,-6.7399,-0.3016,0.5039,0.0067,12.7688,34.8563,-17.1188,,0.0036999999999993705,8.132432232118507,8.816316262701505,non_fall
7.052171,1.681,-4.229,-6.7399,-0.3016,0.5039,0.0067,12.7688,34.8563,-17.1188,,0.01688200000000073,8.132432232118507,8.656049437803468,non_fall
7.072062,1.681,-4.229,-6.7399,-0.3016,0.5039,0.0067,11.8688,34.1063,-19.0125,,0.019890999999999437,8.132432232118507,8.396934269639136,non_fall
7.076044,1.681,-4.229,-6.7399,0.0876,-0.7817,-0.8257,11.8688,34.1063,-19.0125,,0.003981999999999708,8.132432232118507,8.049374125161652,non_fall
7.094954,1.681,-4.229,-6.7399,0.0876,-0.7817,-0.8257,11.8688,34.1063,-19.0125,,0.01891000000000087,8.132432232118507,7.62771207674885,non_fall
7.098112,1.681,-4.229,-6.7399,0.0876,-0.7817,-0.8257,11.8688,34.1063,-19.0125,,0.003157999999999994,8.132432232118507,7.148827014310441,non_fall
7.099989,-3.3427,-3.2717,-1.6494,0.0876,-0.7817,-0.8257,11.8688,34.1063,-19.0125,,0.0018769999999994624,4.959655687646069,6.6307217385971535,non_fall
7.130331,-3.3427,-3.2717,-1.6494,0.0876,-0.7817,-0.8257,11.8688,34.1063,-19.0125,,0.03034200000000009,4.959655687646069,6.091213670777365,non_fall
7.133753,-3.3427,-3.2717,-1.6494,0.0876,-0.7817,-0.8257,10.8,33.4125,-20.6438,,0.003421999999999592,4.959655687646069,5.546852142823341,non_fall
7.137176,-3.3427,-3.2717,-1.6494,-0.078,0.1384,0.449,10.8,33.4125,-20.6438,,0.00342300000000062,4.959655687646069,5.012169436486225,non_fall
7.155606,-3.3427,-3.2717,-1.6494,-0.078,0.1384,0.449,10.8,33.4125,-20.6438,,0.018429999999999502,4.959655687646069,4.4993084414003555,non_fall
7.159533,-3.3427,-3.2717,-1.6494,-0.078,0.1384,0.449,10.8,33.4125,-20.6438,,0.003927000000000014,4.959655687646069,4.017983390202055,non_fall
7.162117,-2.6433,0.8852,-1.5511,-0.078,0.1384,0.449,10.8,33.4125,-20.6438,,0.002584000000000586,3.190066635667663,3.5756665083038386,non_fall
7.191824,-2.6433,0.8852,-1.5511,-0.078,0.1384,0.449,10.8,33.4125,-20.6438,,0.02970700000000015,3.190066635667663,3.1778774571860464,non_fall
7.195084,-2.6433,0.8852,-1.5511,-0.3301,0.1513,-0.8947,10.8,33.4125,-20.6438,,0.0032599999999991525,3.190066635667663,2.8284749638493683,non_fall
7.211205,-2.6433,0.8852,-1.5511,-0.3301,0.1513,-0.8947,10.275,32.7563,-21.7313,,0.016121000000000052,3.190066635667663,2.529883762275232,non_fall
7.216189,-2.6433,0.8852,-1.5511,-0.3301,0.1513,-0.8947,10.275,32.7563,-21.7313,,0.0049840000000003215,3.190066635667663,2.283217597302392,non_fall
7.218496,0.5057,-1.2629,-0.2223,-0.3301,0.1513,-0.8947,10.275,32.7563,-21.7313,,0.002307000000000059,1.378428884636418,2.0882866235975066,non_fall
7.221485,0.5057,-1.2629,-0.2223,-0.3301,0.1513,-0.8947,10.275,32.7563,-21.7313,,0.0029890000000003525,1.378428884636418,1.9435176439795723,non_fall
7.276281,0.5057,-1.2629,-0.2223,-0.3301,0.1513,-0.8947,10.275,32.7563,-21.7313,,0.05479599999999962,1.378428884636418,1.8458614431393516,non_fall
7.280118,0.5057,-1.2629,-0.2223,-0.3301,0.1513,-0.8947,10.275,32.7563,-21.7313,,0.0038369999999998683,1.378428884636418,1.7907870440938751,non_fall
7.282463,0.5057,-1.2629,-0.2223,-0.3301,0.1513,-0.8947,10.275,32.7563,-21.7313,,0.0023450000000000415,1.378428884636418,1.7724495939921907,non_fall
7.284849,0.5057,-1.2629,-0.2223,-0.3301,0.1513,-0.8947,9.6938,32.3063,-22.6313,,0.0023860000000004433,1.378428884636418,1.7840732930260839,non_fall
7.288771,0.5057,-1.2629,-0.2223,-0.6573,-1.0302,-0.4482,9.6938,32.3063,-22.6313,,0.003921999999999315,1.378428884636418,1.8185330543065525,non_fall
7.29184,-2.7237,-0.7681,-0.3185,-0.6573,-1.0302,-0.4482,9.6938,32.3063,-22.6313,,0.0030689999999999884,2.8477994223610623,1.8690621388321305,non_fall
7.330397,-2.7237,-0.7681,-0.3185,-0.6573,-1.0302,-0.4482,9.6938,32.3063,-22.6313,,0.03855699999999995,2.8477994223610623,1.9299648188011367,non_fall
7.334006,-2.7237,-0.7681,-0.3185,-0.6573,-1.0302,-0.4482,9.6938,32.3063,-22.6313,,0.0036089999999999733,2.8477994223610623,1.9971851240995482,non_fall
7.336852,-2.7237,-0.7681,-0.3185,-0.6573,-1.0302,-0.4482,9.4313,32.7,-23.2313,,0.0028460000000007923,2.8477994223610623,2.0685927260000274,non_fall
7.340474,-2.7237,-0.7681,-0.3185,-0.9063,0.0935,-0.9358,9.4313,32.7,-23.2313,,0.003622000000000014,2.8477994223610623,2.1439032007379675,non_fall
7.343829,-0.3468,-0.7608,-1.2103,-0.9063,0.0935,-0.9358,9.4313,32.7,-23.2313,,0.003354999999999997,1.471024462746966,2.2242396510655427,non_fall
7.347821,-0.3468,-0.7608,-1.2103,-0.9063,0.0935,-0.9358,9.4313,32.7,-23.2313,,0.003991999999999329,1.471024462746966,2.3114392133055675,non_fall
7.35932,-0.3468,-0.7608,-1.2103,-0.9063,0.0935,-0.9358,9.4313,32.7,-23.2313,,0.011499000000000592,1.471024462746966,2.4072817868112795,non_fall
7.393649,-0.3468,-0.7608,-1.2103,-0.9063,0.0935,-0.9358,9.4313,32.7,-23.2313,,0.03432899999999961,1.471024462746966,2.512844017224124,non_fall
7.398773,-0.3468,-0.7608,-1.2103,-0.9063,0.0935,-0.9358,9.4313,32.7,-23.2313,,0.0051240000000003505,1.471024462746966,2.6281479132285184,non_fall
7.400605,-0.3468,-0.7608,-1.2103,-3.0212,-1.6552,-0.9136,9.4313,32.7,-23.2313,,0.0018319999999993897,1.471024462746966,2.7521893401345556,non_fall
7.403113,-2.8877,3.0319,-2.1436,-3.0212,-1.6552,-0.9136,9.4313,32.7,-23.2313,,0.002508000000000621,4.703854787299455,2.8833171030078164,non_fall
7.414791,-2.8877,3.0319,-2.1436,-3.0212,-1.6552,-0.9136,7.9125,33.0,-22.7625,,0.011677999999999855,4.703854787299455,3.0198126395458886,non_fall
7.423343,-2.8877,3.0319,-2.1436,-3.0212,-1.6552,-0.9136,7.9125,33.0,-22.7625,,0.008551999999999893,4.703854787299455,3.1604299191573455,non_fall
7.453746,-2.8877,3.0319,-2.1436,-3.0212,-1.6552,-0.9136,7.9125,33.0,-22.7625,,0.030402999999999736,4.703854787299455,3.3046404108172323,non_fall
7.458373,-2.8877,3.0319,-2.1436,-3.0212,-1.6552,-0.9136,7.9125,33.0,-22.7625,,0.004627000000000159,4.703854787299455,3.4524109221663934,non_fall
7.460819,-1.554,1.7804,-0.4005,-3.0212,-1.6552,-0.9136,7.9125,33.0,-22.7625,,0.002445999999999948,2.39690225290895,3.60349792604735,non_fall
7.470286,-1.554,1.7804,-0.4005,-3.0212,-1.6552,-0.9136,6.3375,34.0312,-20.7,,0.009466999999999892,2.39690225290895,3.756416124395481,non_fall
7.476627,-1.554,1.7804,-0.4005,-2.2714,-0.9677,-0.1713,6.3375,34.0312,-20.7,,0.00634099999999993,2.39690225290895,3.90737490948439,non_fall
7.492386,-1.554,1.7804,-0.4005,-2.2714,-0.9677,-0.1713,6.3375,34.0312,-20.7,,0.01575900000000008,2.39690225290895,4.0495295350552265,non_fall
7.514375,-1.554,1.7804,-0.4005,-2.2714,-0.9677,-0.1713,6.3375,34.0312,-20.7,,0.02198900000000048,2.39690225290895,4.172845967500413,non_fall
7.516475,-1.554,1.7804,-0.4005,-2.2714,-0.9677,-0.1713,6.3375,34.0312,-20.7,,0.0020999999999995467,2.39690225290895,4.2647459313140885,non_fall
7.517533,-0.205,-2.8966,5.0788,-2.2714,-0.9677,-0.1713,6.3375,34.0312,-20.7,,0.0010580000000004475,5.8503440924444785,4.311516630091205,non_fall
7.530661,-0.205,-2.8966,5.0788,-2.2714,-0.9677,-0.1713,4.5563,35.3625,-18.525,,0.013128000000000029,5.8503440924444785,4.3002750926906685,non_fall
7.533225,-0.205,-2.8966,5.0788,-0.1086,-1.1054,-0.7442,4.5563,35.3625,-18.525,,0.0025639999999995666,5.8503440924444785,4.221115896582984,non_fall
7.555732,-0.205,-2.8966,5.0788,-0.1086,-1.1054,-0.7442,4.5563,35.3625,-18.525,,0.022507000000000055,5.8503440924444785,4.068997418026348,non_fall
7.559042,-0.205,-2.8966,5.0788,-0.1086,-1.1054,-0.7442,4.5563,35.3625,-18.525,,0.003309999999999924,5.8503440924444785,3.844965931658816,non_fall
7.578533,-0.205,-2.8966,5.0788,-0.1086,-1.1054,-0.7442,4.5563,35.3625,-18.525,,0.01949100000000037,5.8503440924444785,3.556461515605674,non_fall
7.581632,0.6546,-0.1023,0.7611,-0.1086,-1.1054,-0.7442,4.5563,35.3625,-18.525,,0.003098999999999741,1.0090786193354806,3.216651653196549,non_fall
7.594651,0.6546,-0.1023,0.7611,0.2727,-1.1552,-1.1572,4.5563,35.3625,-18.525,,0.013018999999999892,1.0090786193354806,2.842954287812569,non_fall
7.61202,0.6546,-0.1023,0.7611,0.2727,-1.1552,-1.1572,4.5563,35.3625,-18.525,,0.017369000000000412,1.0090786193354806,2.45508921479845,non_fall
7.616287,0.6546,-0.1023,0.7611,0.2727,-1.1552,-1.1572,2.7,36.6375,-16.1813,,0.004266999999999577,1.0090786193354806,2.073072422246011,non_fall
7.628575,0.6546,-0.1023,0.7611,0.2727,-1.1552,-1.1572,2.7,36.6375,-16.1813,,0.012287999999999855,1.0090786193354806,1.7155141560690836,non_fall
7.635608,-0.9784,-0.1347,0.9875,0.2727,-1.1552,-1.1572,2.7,36.6375,-16.1813,,0.007033000000000733,1.3966269723874016,1.3984366523844782,non_fall
7.639129,-0.9784,-0.1347,0.9875,0.2727,-1.1552,-1.1572,2.7,36.6375,-16.1813,,0.003520999999999219,1.3966269723874016,1.1346633652135205,non_fall
7.670606,-0.9784,-0.1347,0.9875,0.2727,-1.1552,-1.1572,2.7,36.6375,-16.1813,,0.03147700000000064,1.3966269723874016,0.9337004116354538,non_fall
7.673726,-0.9784,-0.1347,0.9875,0.2727,-1.1552,-1.1572,0.1875,37.725,-14.2313,,0.0031200000000000117,1.3966269723874016,0.8019526293233875,non_fall
7.677505,-0.9784,-0.1347,0.9875,1.2793,-0.0129,-1.639,0.1875,37.725,-14.2313,,0.0037789999999997548,1.3966269723874016,0.7430914351535188,non_fall
7.693569,-0.9784,-0.1347,0.9875,1.2793,-0.0129,-1.639,0.1875,37.725,-14.2313,,0.016064000000000078,1.3966269723874016,0.7584103560817462,non_fall
7.698531,-0.2314,-0.5176,-0.9486,1.2793,-0.0129,-1.639,0.1875,37.725,-14.2313,,0.004961999999999911,1.105123377727573,0.84705330071175,non_fall
7.702001,-0.2314,-0.5176,-0.9486,1.2793,-0.0129,-1.639,0.1875,37.725,-14.2313,,0.003470000000000084,1.105123377727573,1.0060667922138935,non_fall
7.734767,-0.2314,-0.5176,-0.9486,1.2793,-0.0129,-1.639,0.1875,37.725,-14.2313,,0.03276599999999963,1.105123377727573,1.230297046312886,non_fall
7.738477,-0.2314,-0.5176,-0.9486,1.2793,-0.0129,-1.639,-2.7,38.4375,-12.675,,0.00370999999999988,1.105123377727573,1.5122123096584696,non_fall
7.741455,-0.2314,-0.5176,-0.9486,0.7688,-0.1988,-1.0324,-2.7,38.4375,-12.675,,0.0029780000000005913,1.105123377727573,1.8417689949417584,non_fall
7.758584,-0.2314,-0.5176,-0.9486,0.7688,-0.1988,-1.0324,-2.7,38.4375,-12.675,,0.017128999999999728,1.105123377727573,2.2064501006203927,non_fall
7.762058,-0.2314,-0.5176,-0.9486,0.7688,-0.1988,-1.0324,-2.7,38.4375,-12.675,,0.003473999999999755,1.105123377727573,2.591582174876283,non_fall
7.763933,-3.6641,0.9745,-1.8493,0.7688,-0.1988,-1.0324,-2.7,38.4375,-12.675,,0.001875000000000071,4.218434490424143,2.980980046932362,non_fall
7.793737,-3.6641,0.9745,-1.8493,0.7688,-0.1988,-1.0324,-2.7,38.4375,-12.675,,0.029804000000000386,4.218434490424143,3.3578828970996573,non_fall
7.798037,-3.6641,0.9745,-1.8493,-0.6622,1.6384,-1.5431,-2.7,38.4375,-12.675,,0.0042999999999997485,4.218434490424143,3.7060583255379203,non_fall
7.811514,-3.6641,0.9745,-1.8493,-0.6622,1.6384,-1.5431,-2.7,38.4375,-12.675,,0.013476999999999961,4.218434490424143,4.010904531818554,non_fall
7.815481,-3.6641,0.9745,-1.8493,-0.6622,1.6384,-1.5431,-5.8875,39.2438,-11.0625,,0.003967000000000276,4.218434490424143,4.260396091781402,non_fall
7.818528,3.1347,0.5799,-3.3261,-0.6622,1.6384,-1.5431,-5.8875,39.2438,-11.0625,,0.003046999999999578,4.607121586196744,4.445775816440562,non_fall
7.8212,3.1347,0.5799,-3.3261,-0.6622,1.6384,-1.5431,-5.8875,39.2438,-11.0625,,0.002672000000000452,4.607121586196744,4.561954602672107,non_fall
7.876428,3.1347,0.5799,-3.3261,-0.6622,1.6384,-1.5431,-5.8875,39.2438,-11.0625,,0.05522799999999961,4.607121586196744,4.6076207651627055,non_fall
7.88149,3.1347,0.5799,-3.3261,-0.6622,1.6384,-1.5431,-5.8875,39.2438,-11.0625,,0.005062000000000566,4.607121586196744,4.585081313531793,non_fall
7.88383,3.1347,0.5799,-3.3261,-0.6622,1.6384,-1.5431,-5.8875,39.2438,-11.0625,,0.0023399999999993426,4.607121586196744,4.499869025144261,non_fall
7.886866,3.1347,0.5799,-3.3261,-0.6622,1.6384,-1.5431,-8.775,39.2625,-9.9,,0.003036000000000705,4.607121586196744,4.360156694390519,non_fall
7.889636,3.1347,0.5799,-3.3261,-0.2403,0.2607,-1.0742,-8.775,39.2625,-9.9,,0.002769999999999939,4.607121586196744,4.176026781210996,non_fall
7.8921,-2.2885,1.789,1.3732,-0.2403,0.2607,-1.0742,-8.775,39.2625,-9.9,,0.0024639999999997997,3.2130097245417732,3.958654621215309,non_fall
7.930757,-2.2885,1.789,1.3732,-0.2403,0.2607,-1.0742,-8.775,39.2625,-9.9,,0.03865699999999972,3.2130097245417732,3.719477864885769,non_fall
7.935044,-2.2885,1.789,1.3732,-0.2403,0.2607,-1.0742,-8.775,39.2625,-9.9,,0.004287000000000596,3.2130097245417732,3.4694363989083974,non_fall
7.937858,-2.2885,1.789,1.3732,-0.2403,0.2607,-1.0742,-11.475,38.775,-9.6938,,0.002813999999999872,3.2130097245417732,3.2183615361714812,non_fall
7.940996,-2.2885,1.789,1.3732,0.1662,-0.2517,-0.3303,-11.475,38.775,-9.6938,,0.003137999999999863,3.2130097245417732,2.9745651378583036,non_fall
7.944051,-1.8135,1.5389,-0.0276,0.1662,-0.2517,-0.3303,-11.475,38.775,-9.6938,,0.003054999999999808,2.378604048596571,2.744640881174551,non_fall
7.947874,-1.8135,1.5389,-0.0276,0.1662,-0.2517,-0.3303,-11.475,38.775,-9.6938,,0.0038229999999996878,2.378604048596571,2.533459438886531,non_fall
7.958038,-1.8135,1.5389,-0.0276,0.1662,-0.2517,-0.3303,-11.475,38.775,-9.6938,,0.010164000000000506,2.378604048596571,2.344322874054543,non_fall
7.995574,-1.8135,1.5389,-0.0276,0.1662,-0.2517,-0.3303,-11.475,38.775,-9.6938,,0.037536000000000236,2.378604048596571,2.179233465234071,non_fall
8.000096,-1.8135,1.5389,-0.0276,0.1662,-0.2517,-0.3303,-11.475,38.775,-9.6938,,0.004521999999998805,2.378604048596571,2.039221680252139,non_fall
8.002888,-1.8135,1.5389,-0.0276,-0.2821,1.4301,0.1471,-11.475,38.775,-9.6938,,0.002792000000001238,2.378604048596571,1.9246707895018642,non_fall
8.007116,0.0853,1.198,-1.2157,-0.2821,1.4301,0.1471,-11.475,38.775,-9.6938,,0.004227999999999454,1.7089197113966472,1.8355804413652657,non_fall
8.010541,0.0853,1.198,-1.2157,-0.2821,1.4301,0.1471,-13.6125,38.1938,-10.1813,,0.0034250000000000114,1.7089197113966472,1.7717314946285736,non_fall
8.023103,0.0853,1.198,-1.2157,-0.2821,1.4301,0.1471,-13.6125,38.1938,-10.1813,,0.01256200000000085,1.7089197113966472,1.7327425353091122,non_fall
8.055558,0.0853,1.198,-1.2157,-0.2821,1.4301,0.1471,-13.6125,38.1938,-10.1813,,0.03245499999999879,1.7089197113966472,1.7180324942141003,non_fall
8.060069,0.0853,1.198,-1.2157,-0.2821,1.4301,0.1471,-13.6125,38.1938,-10.1813,,0.00451100000000082,1.7089197113966472,1.7267156218578492,non_fall
8.062926,1.2777,1.3374,0.0167,-0.2821,1.4301,0.1471,-13.6125,38.1938,-10.1813,,0.002856999999998777,1.849712123547878,1.7574563394392182,non_fall
8.066976,1.2777,1.3374,0.0167,-0.5297,0.9471,0.2467,-13.6125,38.1938,-10.1813,,0.004050000000001219,1.849712123547878,1.808308960892487,non_fall
8.070988,1.2777,1.3374,0.0167,-0.5297,0.9471,0.2467,-15.5438,37.3688,-10.9125,,0.0040119999999994604,1.849712123547878,1.8765660676515925,non_fall
8.090617,1.2777,1.3374,0.0167,-0.5297,0.9471,0.2467,-15.5438,37.3688,-10.9125,,0.01962900000000012,1.849712123547878,1.9586408095815184,non_fall
8.116732,1.2777,1.3374,0.0167,-0.5297,0.9471,0.2467,-15.5438,37.3688,-10.9125,,0.026115000000000776,1.849712123547878,2.050011160787255,non_fall
8.119912,1.2777,1.3374,0.0167,-0.5297,0.9471,0.2467,-15.5438,37.3688,-10.9125,,0.0031799999999986284,1.849712123547878,2.1452546737643816,non_fall
8.12124,-0.8069,2.1652,0.1451,-0.5297,0.9471,0.2467,-15.5438,37.3688,-10.9125,,0.001328000000000884,2.3152176269197677,2.2381966486295473,non_fall
8.130564,-0.8069,2.1652,0.1451,-0.5297,0.9471,0.2467,-16.35,36.8063,-11.25,,0.009323999999999444,2.3152176269197677,2.3221814175511506,non_fall
8.134795,-0.8069,2.1652,0.1451,-0.9085,0.2641,0.42,-16.35,36.8063,-11.25,,0.004231000000000762,2.3152176269197677,2.3904587558771238,non_fall
8.156049,-0.8069,2.1652,0.1451,-0.9085,0.2641,0.42,-16.35,36.8063,-11.25,,0.021253999999998996,2.3152176269197677,2.4366613818983094,non_fall
8.159224,-0.8069,2.1652,0.1451,-0.9085,0.2641,0.42,-16.35,36.8063,-11.25,,0.003175000000000594,2.3152176269197677,2.4553387475950874,non_fall
8.173279,-0.8069,2.1652,0.1451,-0.9085,0.2641,0.42,-16.35,36.8063,-11.25,,0.014055000000000817,2.3152176269197677,2.442504724639475,non_fall
8.176069,0.2275,0.0625,2.6528,-0.9085,0.2641,0.42,-16.35,36.8063,-11.25,,0.002789999999999182,2.663270609607668,2.396147918675542,non_fall
8.193017,0.2275,0.0625,2.6528,-0.2469,-0.4852,-0.1704,-16.35,36.8063,-11.25,,0.016947999999999297,2.663270609607668,2.316642462827975,non_fall
8.213879,0.2275,0.0625,2.6528,-0.2469,-0.4852,-0.1704,-16.35,36.8063,-11.25,,0.020862000000001046,2.663270609607668,2.206989497228994,non_fall
8.217829,0.2275,0.0625,2.6528,-0.2469,-0.4852,-0.1704,-17.2688,36.3375,-11.2688,,0.003949999999999676,2.663270609607668,2.0728236577394874,non_fall
8.223318,0.2275,0.0625,2.6528,-0.2469,-0.4852,-0.1704,-17.2688,36.3375,-11.2688,,0.005489000000000743,2.663270609607668,1.9221412781178637,non_fall
8.236107,-0.3071,0.6242,0.8786,-0.2469,-0.4852,-0.1704,-17.2688,36.3375,-11.2688,,0.012788999999999717,1.1206578469809596,1.7647483740390073,non_fall
8.240694,-0.3071,0.6242,0.8786,-0.2469,-0.4852,-0.1704,-17.2688,36.3375,-11.2688,,0.0045869999999990085,1.1206578469809596,1.611480009868227,non_fall
8.254103,-0.3071,0.6242,0.8786,-0.3161,-0.6875,-0.0082,-17.2688,36.3375,-11.2688,,0.013409000000001114,1.1206578469809596,1.473292106577866,non_fall
8.269798,-0.3071,0.6242,0.8786,-0.3161,-0.6875,-0.0082,-17.6063,36.2438,-10.7812,,0.015694999999999126,1.1206578469809596,1.360350968804142,non_fall
8.272589,-0.3071,0.6242,0.8786,-0.3161,-0.6875,-0.0082,-17.6063,36.2438,-10.7812,,0.00279100000000021,1.1206578469809596,1.2812344336038757,non_fall
8.290133,-0.3071,0.6242,0.8786,-0.3161,-0.6875,-0.0082,-17.6063,36.2438,-10.7812,,0.017544000000000892,1.1206578469809596,1.2423219462647224,non_fall
8.293329,-0.3071,0.6242,0.8786,-0.3161,-0.6875,-0.0082,-17.6063,36.2438,-10.7812,,0.0031959999999990885,1.1206578469809596,1.2474090396150646,non_fall
8.295318,-0.8585,0.3684,1.2524,-0.3161,-0.6875,-0.0082,-17.6063,36.2438,-10.7812,,0.0019890000000000185,1.562448901564464,1.297547388041906,non_fall
8.331591,-0.8585,0.3684,1.2524,-0.3161,-0.6875,-0.0082,-17.6063,36.2438,-10.7812,,0.036272999999999556,1.562448901564464,1.3910877458913373,non_fall
8.33622,-0.8585,0.3684,1.2524,-0.3161,-0.6875,-0.0082,-17.9813,36.3188,-10.05,,0.0046290000000013265,1.562448901564464,1.5238900294856244,non_fall
8.339212,-0.8585,0.3684,1.2524,-0.7808,-1.976,-0.9196,-17.9813,36.3188,-10.05,,0.0029919999999989955,1.562448901564464,1.6896634676644373,non_fall
8.356606,-0.8585,0.3684,1.2524,-0.7808,-1.976,-0.9196,-17.9813,36.3188,-10.05,,0.017393999999999465,1.562448901564464,1.8804077642989432,non_fall
8.360376,-0.8585,0.3684,1.2524,-0.7808,-1.976,-0.9196,-17.9813,36.3188,-10.05,,0.0037700000000011613,1.562448901564464,2.086935156086494,non_fall
8.363089,-1.7387,2.3391,0.2525,-0.7808,-1.976,-0.9196,-17.9813,36.3188,-10.05,,0.0027129999999999654,2.9254440261266326,2.29945273313192,non_fall
8.393825,-1.7387,2.3391,0.2525,-1.8233,0.1721,-1.0066,-17.9813,36.3188,-10.05,,0.03073599999999921,2.9254440261266326,2.508170723461605,non_fall
8.400466,-1.7387,2.3391,0.2525,-1.8233,0.1721,-1.0066,-17.9813,36.3188,-10.05,,0.006641000000000119,2.9254440261266326,2.7038847664804093,non_fall
8.411796,-1.7387,2.3391,0.2525,-1.8233,0.1721,-1.0066,-18.375,36.2812,-8.625,,0.01133000000000095,2.9254440261266326,2.8784756266111478,non_fall
8.416945,-1.7387,2.3391,0.2525,-1.8233,0.1721,-1.0066,-18.375,36.2812,-8.625,,0.005148999999999404,2.9254440261266326,3.0252872031996962,non_fall
8.419622,-1.6409,1.0716,-2.3859,-1.8233,0.1721,-1.0066,-18.375,36.2812,-8.625,,0.0026770000000002625,3.0876201482695373,3.1393739273371173,non_fall
8.423216,-1.6409,1.0716,-2.3859,-1.8233,0.1721,-1.0066,-18.375,36.2812,-8.625,,0.003593999999999653,3.0876201482695373,3.2176345216890962,non_fall
8.453472,-1.6409,1.0716,-2.3859,-1.8233,0.1721,-1.0066,-18.375,36.2812,-8.625,,0.030255999999999617,3.0876201482695373,3.25886104075887,non_fall
8.457809,-1.6409,1.0716,-2.3859,0.8679,0.4965,-2.1157,-18.375,36.2812,-8.625,,0.004336999999999591,3.0876201482695373,3.2637309580913154,non_fall
8.470891,-1.6409,1.0716,-2.3859,0.8679,0.4965,-2.1157,-19.1813,36.0563,-7.1813,,0.013082000000000704,3.0876201482695373,3.2347602851117365,non_fall
8.476452,-1.6409,1.0716,-2.3859,0.8679,0.4965,-2.1157,-19.1813,36.0563,-7.1813,,0.005561000000000149,3.0876201482695373,3.176220541570338,non_fall
8.478879,1.7821,-0.6556,2.944,0.8679,0.4965,-2.1157,-19.1813,36.0563,-7.1813,,0.002426999999999069,3.5032595921512866,3.09400431641102,non_fall
8.481746,1.7821,-0.6556,2.944,0.8679,0.4965,-2.1157,-19.1813,36.0563,-7.1813,,0.002867000000000175,3.5032595921512866,2.995407462492039,non_fall
8.535088,1.7821,-0.6556,2.944,0.8679,0.4965,-2.1157,-20.4375,35.5312,-6.1125,,0.05334200000000067,3.5032595921512866,2.888788445956656,non_fall
8.540797,1.7821,-0.6556,2.944,0.2711,0.2725,-0.1209,-20.4375,35.5312,-6.1125,,0.00570899999999952,3.5032595921512866,2.783076447868656,non_fall
8.544978,-1.4303,-1.3116,-0.269,0.2711,0.2725,-0.1209,-20.4375,35.5312,-6.1125,,0.0041810000000008785,1.9591869869923084,2.6871345437738827,non_fall
8.548351,-1.4303,-1.3116,-0.269,0.2711,0.2725,-0.1209,-20.4375,35.5312,-6.1125,,0.0033729999999998483,1.9591869869923084,2.6090362469376314,non_fall
8.550796,-1.4303,-1.3116,-0.269,0.2711,0.2725,-0.1209,-20.4375,35.5312,-6.1125,,0.0024449999999998084,1.9591869869923084,2.5553623598150526,non_fall
8.553136,-1.4303,-1.3116,-0.269,0.2711,0.2725,-0.1209,-20.4375,35.5312,-6.1125,,0.002340000000000231,1.9591869869923084,2.530644260296163,non_fall
8.55982,-1.4303,-1.3116,-0.269,0.2711,0.2725,-0.1209,-20.4375,35.5312,-6.1125,,0.006683999999999912,1.9591869869923084,2.53705588593688,non_fall
8.597775,1.5665,1.7029,-2.0459,0.2711,0.2725,-0.1209,-20.4375,35.5312,-6.1125,,0.03795500000000018,3.088607691177369,2.5743989408799726,non_fall
8.602083,1.5665,1.7029,-2.0459,-1.6184,3.6948,-0.1261,-20.4375,35.5312,-6.1125,,0.0043079999999999785,3.088607691177369,2.640357192578501,non_fall
8.604822,1.5665,1.7029,-2.0459,-1.6184,3.6948,-0.1261,-20.4375,35.5312,-6.1125,,0.002739000000000047,3.088607691177369,2.7309397343293544,non_fall
8.606998,1.5665,1.7029,-2.0459,-1.6184,3.6948,-0.1261,-20.4375,35.5312,-6.1125,,0.0021760000000004,3.088607691177369,2.841007489690366,non_fall
8.609217,1.5665,1.7029,-2.0459,-1.6184,3.6948,-0.1261,-21.7313,35.025,-4.9125,,0.0022189999999984167,3.088607691177369,2.9647870644909795,non_fall
8.623275,1.5665,1.7029,-2.0459,-1.6184,3.6948,-0.1261,-21.7313,35.025,-4.9125,,0.014058000000000348,3.088607691177369,3.0963098220298466,non_fall
8.655285,1.5665,1.7029,-2.0459,-0.1418,0.3716,-1.3834,-21.7313,35.025,-4.9125,,0.03200999999999965,3.088607691177369,3.2297527338069636,non_fall
