
time,ax,ay,az,wx,wy,wz,Bx,By,Bz,
0.016405,0.0000,0.0000,0.0000,-0.1662,0.2019,-0.0043,0.0000,0.0000,0.0000,
0.036284,0.0000,0.0000,0.0000,-0.1662,0.2019,-0.0043,0.0000,0.0000,0.0000,
0.048505,0.0000,0.0000,0.0000,-0.1662,0.2019,-0.0043,0.0000,0.0000,0.0000,
0.053098,0.0000,0.0000,0.0000,-0.1662,0.2019,-0.0043,-17.6400,35.5800,-15.7200,
0.056920,0.0000,0.0000,0.0000,-0.1662,0.2019,-0.0043,-17.6400,35.5800,-15.7200,
0.077810,0.0000,0.0000,0.0000,0.0293,-0.2418,0.0107,-17.6400,35.5800,-15.7200,
0.097849,0.0000,0.0000,0.0000,-0.0245,-0.0485,0.0059,-17.6400,35.5800,-15.7200,
0.110483,0.0000,0.0000,0.0000,-0.0245,-0.0485,0.0059,-17.6400,35.5800,-15.7200,
0.111050,0.2735,0.1355,-0.0851,-0.0245,-0.0485,0.0059,-17.6400,35.5800,-15.7200,
0.114836,0.2735,0.1355,-0.0851,-0.0245,-0.0485,0.0059,-11.0400,20.9400,-29.5800,
0.118443,0.2735,0.1355,-0.0851,-0.0676,0.1076,0.0394,-11.0400,20.9400,-29.5800,
0.138875,0.2735,0.1355,-0.0851,-0.0410,0.0128,0.0314,-11.0400,20.9400,-29.5800,
0.159600,0.2735,0.1355,-0.0851,-0.0442,-0.0937,0.0138,-11.0400,20.9400,-29.5800,
0.171555,0.2735,0.1355,-0.0851,-0.0442,-0.0937,0.0138,-11.0400,20.9400,-29.5800,
0.171987,-0.1681,-0.1373,0.3133,-0.0442,-0.0937,0.0138,-11.0400,20.9400,-29.5800,
0.176345,-0.1681,-0.1373,0.3133,-0.0442,-0.0937,0.0138,-6.9600,13.2600,-37.4400,
0.179973,-0.1681,-0.1373,0.3133,-0.0421,-0.1055,-0.0208,-6.9600,13.2600,-37.4400,
0.200511,-0.1681,-0.1373,0.3133,-0.0543,0.0874,-0.0559,-6.9600,13.2600,-37.4400,
0.221078,-0.1681,-0.1373,0.3133,-0.0937,0.2253,-0.0831,-6.9600,13.2600,-37.4400,
0.233506,-0.1681,-0.1373,0.3133,-0.0937,0.2253,-0.0831,-6.9600,13.2600,-37.4400,
0.233911,0.1559,-0.0085,-0.0069,-0.0937,0.2253,-0.0831,-6.9600,13.2600,-37.4400,
0.238240,0.1559,-0.0085,-0.0069,-0.0937,0.2253,-0.0831,-3.3600,5.1600,-45.4200,
0.241743,0.1559,-0.0085,-0.0069,-0.1177,0.2839,-0.0868,-3.3600,5.1600,-45.4200,
0.262137,0.1559,-0.0085,-0.0069,-0.1401,0.3190,-0.0240,-3.3600,5.1600,-45.4200,
0.282677,0.1559,-0.0085,-0.0069,-0.1289,0.3728,0.1188,-3.3600,5.1600,-45.4200,
0.294847,0.1559,-0.0085,-0.0069,-0.1289,0.3728,0.1188,-3.3600,5.1600,-45.4200,
0.295362,-0.2212,0.1529,-0.1395,-0.1289,0.3728,0.1188,-3.3600,5.1600,-45.4200,
0.299389,-0.2212,0.1529,-0.1395,-0.1289,0.3728,0.1188,-2.7000,5.2800,-45.9000,
0.303284,-0.2212,0.1529,-0.1395,-0.0708,0.5124,0.2125,-2.7000,5.2800,-45.9000,
0.323702,-0.2212,0.1529,-0.1395,-0.1284,1.0056,-0.1465,-2.7000,5.2800,-45.9000,
0.344328,-0.2212,0.1529,-0.1395,-1.1420,1.0013,-0.8687,-2.7000,5.2800,-45.9000,
0.356703,-0.2212,0.1529,-0.1395,-1.1420,1.0013,-0.8687,-2.7000,5.2800,-45.9000,
0.357098,2.1154,-0.0710,1.3464,-1.1420,1.0013,-0.8687,-2.7000,5.2800,-45.9000,
0.361621,2.1154,-0.0710,1.3464,-1.1420,1.0013,-0.8687,-2.2800,5.3400,-45.4800,
0.364794,2.1154,-0.0710,1.3464,-1.2251,0.5651,-1.6602,-2.2800,5.3400,-45.4800,
0.385468,2.1154,-0.0710,1.3464,-1.2197,0.0176,-1.5361,-2.2800,5.3400,-45.4800,
0.405758,2.1154,-0.0710,1.3464,-1.2091,-0.3531,-1.3103,-2.2800,5.3400,-45.4800,
0.417859,2.1154,-0.0710,1.3464,-1.2091,-0.3531,-1.3103,-2.2800,5.3400,-45.4800,
0.418223,-0.7813,2.2469,-0.5552,-1.2091,-0.3531,-1.3103,-2.2800,5.3400,-45.4800,
0.422597,-0.7813,2.2469,-0.5552,-1.2091,-0.3531,-1.3103,-1.8000,5.7000,-45.3600,
0.426272,-0.7813,2.2469,-0.5552,-0.9992,-0.0256,-1.0392,-1.8000,5.7000,-45.3600,
0.446942,-0.7813,2.2469,-0.5552,-0.6445,-0.0021,-0.8256,-1.8000,5.7000,-45.3600,
0.467267,-0.7813,2.2469,-0.5552,-0.4096,-0.2695,-0.9358,-1.8000,5.7000,-45.3600,
0.479758,-0.7813,2.2469,-0.5552,-0.4096,-0.2695,-0.9358,-1.8000,5.7000,-45.3600,
0.480180,1.7368,-1.0569,-0.1184,-0.4096,-0.2695,-0.9358,-1.8000,5.7000,-45.3600,
0.484157,1.7368,-1.0569,-0.1184,-0.4096,-0.2695,-0.9358,-0.7800,7.2000,-45.0600,
0.488374,1.7368,-1.0569,-0.1184,-0.5044,-0.0469,-1.4578,-0.7800,7.2000,-45.0600,
0.508351,1.7368,-1.0569,-0.1184,-0.9087,-0.0964,-2.0805,-0.7800,7.2000,-45.0600,
0.528934,1.7368,-1.0569,-0.1184,-1.0179,-0.3483,-2.5220,-0.7800,7.2000,-45.0600,
0.541317,1.7368,-1.0569,-0.1184,-1.0179,-0.3483,-2.5220,-0.7800,7.2000,-45.0600,
0.541769,3.7321,0.5321,-0.0329,-1.0179,-0.3483,-2.5220,-0.7800,7.2000,-45.0600,
0.545636,3.7321,0.5321,-0.0329,-1.0179,-0.3483,-2.5220,-0.7200,8.8200,-44.4000,
0.549448,3.7321,0.5321,-0.0329,-0.9348,-0.4000,-3.2325,-0.7200,8.8200,-44.4000,
0.569972,3.7321,0.5321,-0.0329,-0.9699,-0.4858,-3.9543,-0.7200,8.8200,-44.4000,
0.590424,3.7321,0.5321,-0.0329,-0.8634,-0.3031,-4.4762,-0.7200,8.8200,-44.4000,
0.603052,3.7321,0.5321,-0.0329,-0.8634,-0.3031,-4.4762,-0.7200,8.8200,-44.4000,
0.603535,3.8406,2.8855,-0.8834,-0.8634,-0.3031,-4.4762,-0.7200,8.8200,-44.4000,
0.607602,3.8406,2.8855,-0.8834,-0.8634,-0.3031,-4.4762,-1.0800,10.9800,-44.0400,
0.611081,3.8406,2.8855,-0.8834,-0.8629,0.1587,-4.9109,-1.0800,10.9800,-44.0400,
0.631533,3.8406,2.8855,-0.8834,-1.0312,-0.1369,-5.2725,-1.0800,10.9800,-44.0400,
0.652707,3.8406,2.8855,-0.8834,-1.1313,-0.4527,-5.3716,-1.0800,10.9800,-44.0400,
0.664265,3.8406,2.8855,-0.8834,-1.1313,-0.4527,-5.3716,-1.0800,10.9800,-44.0400,
0.664641,-0.9203,-3.6107,-0.9548,-1.1313,-0.4527,-5.3716,-1.0800,10.9800,-44.0400,
0.669654,-0.9203,-3.6107,-0.9548,-1.1313,-0.4527,-5.3716,-3.0000,12.6000,-43.5600,
0.672580,-0.9203,-3.6107,-0.9548,-1.1281,-1.2091,-5.8329,-3.0000,12.6000,-43.5600,
0.693137,-0.9203,-3.6107,-0.9548,0.4762,-6.1130,-6.5615,-3.0000,12.6000,-43.5600,
0.713688,-0.9203,-3.6107,-0.9548,-0.6157,-7.6635,-4.5002,-3.0000,12.6000,-43.5600,
0.726187,-0.9203,-3.6107,-0.9548,-0.6157,-7.6635,-4.5002,-3.0000,12.6000,-43.5600,
0.726560,-4.5723,4.4398,0.4984,-0.6157,-7.6635,-4.5002,-3.0000,12.6000,-43.5600,
0.730639,-4.5723,4.4398,0.4984,-0.6157,-7.6635,-4.5002,-6.3600,12.7200,-43.4400,
0.734226,-4.5723,4.4398,0.4984,-1.7103,-5.9128,-2.2685,-6.3600,12.7200,-43.4400,
0.754630,-4.5723,4.4398,0.4984,-0.5028,-2.1710,-0.3292,-6.3600,12.7200,-43.4400,
0.775211,-4.5723,4.4398,0.4984,1.2773,0.5577,0.7776,-6.3600,12.7200,-43.4400,
0.787387,-4.5723,4.4398,0.4984,1.2773,0.5577,0.7776,-6.3600,12.7200,-43.4400,
0.787903,3.4551,0.0539,-2.5175,1.2773,0.5577,0.7776,-6.3600,12.7200,-43.4400,
0.791860,3.4551,0.0539,-2.5175,1.2773,0.5577,0.7776,-13.3200,11.4600,-41.4000,
0.795831,3.4551,0.0539,-2.5175,1.3172,2.3697,0.4069,-13.3200,11.4600,-41.4000,
0.816253,3.4551,0.0539,-2.5175,0.6525,2.6770,-0.0810,-13.3200,11.4600,-41.4000,
0.836847,3.4551,0.0539,-2.5175,0.1422,1.7662,-0.1001,-13.3200,11.4600,-41.4000,
0.849250,3.4551,0.0539,-2.5175,0.1422,1.7662,-0.1001,-13.3200,11.4600,-41.4000,
0.849638,0.8680,0.8080,-0.6920,0.1422,1.7662,-0.1001,-13.3200,11.4600,-41.4000,
0.853848,0.8680,0.8080,-0.6920,0.1422,1.7662,-0.1001,-20.3400,9.3600,-38.4600,
0.857630,0.8680,0.8080,-0.6920,-0.1763,0.6280,-0.1316,-20.3400,9.3600,-38.4600,
0.880170,0.8680,0.8080,-0.6920,-0.2929,-0.5230,-0.0858,-20.3400,9.3600,-38.4600,
0.898421,0.8680,0.8080,-0.6920,-0.3803,-1.3076,-0.0927,-20.3400,9.3600,-38.4600,
0.911358,0.8680,0.8080,-0.6920,-0.3803,-1.3076,-0.0927,-20.3400,9.3600,-38.4600,
0.911826,-0.7073,-0.2712,0.3342,-0.3803,-1.3076,-0.0927,-20.3400,9.3600,-38.4600,
0.915357,-0.7073,-0.2712,0.3342,-0.3803,-1.3076,-0.0927,-25.0200,7.5600,-36.6600,
0.919866,-0.7073,-0.2712,0.3342,-0.6184,-1.2826,-0.0927,-25.0200,7.5600,-36.6600,
0.939564,-0.7073,-0.2712,0.3342,-0.5305,-0.1933,0.0256,-25.0200,7.5600,-36.6600,
0.960275,-0.7073,-0.2712,0.3342,0.5076,1.2597,0.0565,-25.0200,7.5600,-36.6600,
0.972427,-0.7073,-0.2712,0.3342,0.5076,1.2597,0.0565,-25.0200,7.5600,-36.6600,
0.972835,-1.4768,-0.9882,3.4127,0.5076,1.2597,0.0565,-25.0200,7.5600,-36.6600,
0.977004,-1.4768,-0.9882,3.4127,0.5076,1.2597,0.0565,-28.8600,5.7000,-34.2000,
0.980534,-1.4768,-0.9882,3.4127,0.9891,1.0061,0.1204,-28.8600,5.7000,-34.2000,
1.001042,-1.4768,-0.9882,3.4127,0.8320,0.1348,0.1001,-28.8600,5.7000,-34.2000,
1.021496,-1.4768,-0.9882,3.4127,0.5262,-0.3643,0.0975,-28.8600,5.7000,-34.2000,
1.033840,-1.4768,-0.9882,3.4127,0.5262,-0.3643,0.0975,-28.8600,5.7000,-34.2000,
1.034176,-0.1337,0.7643,-1.4746,0.5262,-0.3643,0.0975,-28.8600,5.7000,-34.2000,
1.038460,-0.1337,0.7643,-1.4746,0.5262,-0.3643,0.0975,-27.9600,5.4600,-34.2600,
1.042123,-0.1337,0.7643,-1.4746,0.1949,-0.3595,0.1055,-27.9600,5.4600,-34.2600,
1.062554,-0.1337,0.7643,-1.4746,-0.1097,-0.0804,0.0996,-27.9600,5.4600,-34.2600,
1.083093,-0.1337,0.7643,-1.4746,-0.3547,0.2509,0.1486,-27.9600,5.4600,-34.2600,
1.095646,-0.1337,0.7643,-1.4746,-0.3547,0.2509,0.1486,-27.9600,5.4600,-34.2600,
1.096009,0.1801,0.1027,0.5662,-0.3547,0.2509,0.1486,-27.9600,5.4600,-34.2600,
1.100021,0.1801,0.1027,0.5662,-0.3547,0.2509,0.1486,-27.1200,5.4600,-35.2800,
1.104138,0.1801,0.1027,0.5662,-0.3345,0.4884,0.1513,-27.1200,5.4600,-35.2800,
1.124206,0.1801,0.1027,0.5662,-0.0123,0.4634,0.0123,-27.1200,5.4600,-35.2800,
1.144981,0.1801,0.1027,0.5662,0.2913,0.1731,-0.1353,-27.1200,5.4600,-35.2800,
1.156882,0.1801,0.1027,0.5662,0.2913,0.1731,-0.1353,-27.1200,5.4600,-35.2800,
1.157299,-0.2194,-0.0991,0.1352,0.2913,0.1731,-0.1353,-27.1200,5.4600,-35.2800,
1.161520,-0.2194,-0.0991,0.1352,0.2913,0.1731,-0.1353,-27.5400,5.4000,-35.0400,
1.165293,-0.2194,-0.0991,0.1352,0.3079,-0.2487,-0.1784,-27.5400,5.4000,-35.0400,
1.187555,-0.2194,-0.0991,0.1352,0.0234,-0.5470,-0.0927,-27.5400,5.4000,-35.0400,
1.207556,-0.2194,-0.0991,0.1352,-0.2514,-0.4565,0.0410,-27.5400,5.4000,-35.0400,
1.219746,-0.2194,-0.0991,0.1352,-0.2514,-0.4565,0.0410,-27.5400,5.4000,-35.0400,
1.220141,-1.3330,-0.1308,-0.1757,-0.2514,-0.4565,0.0410,-27.5400,5.4000,-35.0400,
1.223275,-1.3330,-0.1308,-0.1757,-0.2514,-0.4565,0.0410,-26.5200,5.9400,-35.6400,
1.226886,-1.3330,-0.1308,-0.1757,-0.3164,-0.0458,0.1582,-26.5200,5.9400,-35.6400,
1.247373,-1.3330,-0.1308,-0.1757,-0.2104,0.4565,0.2264,-26.5200,5.9400,-35.6400,
1.267830,-1.3330,-0.1308,-0.1757,-0.1678,0.5981,0.2376,-26.5200,5.9400,-35.6400,
1.279924,-1.3330,-0.1308,-0.1757,-0.1678,0.5981,0.2376,-26.5200,5.9400,-35.6400,
1.280253,0.0320,0.4341,0.2365,-0.1678,0.5981,0.2376,-26.5200,5.9400,-35.6400,
1.284405,0.0320,0.4341,0.2365,-0.1678,0.5981,0.2376,-26.8200,5.7600,-36.3000,
1.288397,0.0320,0.4341,0.2365,-0.1949,0.3920,0.2051,-26.8200,5.7600,-36.3000,
1.308922,0.0320,0.4341,0.2365,-0.2461,-0.0288,0.1348,-26.8200,5.7600,-36.3000,
1.329627,0.0320,0.4341,0.2365,-0.3004,-0.3382,0.0458,-26.8200,5.7600,-36.3000,
1.341841,0.0320,0.4341,0.2365,-0.3004,-0.3382,0.0458,-26.8200,5.7600,-36.3000,
1.342166,0.6394,0.4354,-0.1537,-0.3004,-0.3382,0.0458,-26.8200,5.7600,-36.3000,
1.346427,0.6394,0.4354,-0.1537,-0.3004,-0.3382,0.0458,-26.5800,5.8800,-36.1200,
1.350062,0.6394,0.4354,-0.1537,-0.3404,-0.4730,-0.0192,-26.5800,5.8800,-36.1200,
1.370610,0.6394,0.4354,-0.1537,-0.3846,-0.4447,-0.0660,-26.5800,5.8800,-36.1200,
1.391076,0.6394,0.4354,-0.1537,-0.4064,-0.2887,-0.1209,-26.5800,5.8800,-36.1200,
1.403045,0.6394,0.4354,-0.1537,-0.4064,-0.2887,-0.1209,-26.5800,5.8800,-36.1200,
1.403459,0.4014,-0.6339,0.3090,-0.4064,-0.2887,-0.1209,-26.5800,5.8800,-36.1200,
1.407886,0.4014,-0.6339,0.3090,-0.4064,-0.2887,-0.1209,-25.9200,6.0600,-36.4800,
1.411823,0.4014,-0.6339,0.3090,-0.4213,-0.1225,-0.1795,-25.9200,6.0600,-36.4800,
1.432270,0.4014,-0.6339,0.3090,-0.3638,0.0980,-0.1907,-25.9200,6.0600,-36.4800,
1.452945,0.4014,-0.6339,0.3090,0.0352,0.4495,-0.1758,-25.9200,6.0600,-36.4800,
1.465010,0.4014,-0.6339,0.3090,0.0352,0.4495,-0.1758,-25.9200,6.0600,-36.4800,
1.465477,-0.4973,0.9955,2.0555,0.0352,0.4495,-0.1758,-25.9200,6.0600,-36.4800,
1.469482,-0.4973,0.9955,2.0555,0.0352,0.4495,-0.1758,-26.8200,6.3600,-36.0600,
1.473164,-0.4973,0.9955,2.0555,0.5550,0.5449,-0.2530,-26.8200,6.3600,-36.0600,
1.493711,-0.4973,0.9955,2.0555,0.7414,0.2621,-0.2999,-26.8200,6.3600,-36.0600,
1.514069,-0.4973,0.9955,2.0555,0.5326,-0.1220,-0.2317,-26.8200,6.3600,-36.0600,
1.526250,-0.4973,0.9955,2.0555,0.5326,-0.1220,-0.2317,-26.8200,6.3600,-36.0600,
1.526640,-1.7028,1.3576,-1.0809,0.5326,-0.1220,-0.2317,-26.8200,6.3600,-36.0600,
1.530665,-1.7028,1.3576,-1.0809,0.5326,-0.1220,-0.2317,-26.5800,6.9600,-35.7000,
1.534574,-1.7028,1.3576,-1.0809,0.2727,-0.3095,-0.1380,-26.5800,6.9600,-35.7000,
1.555109,-1.7028,1.3576,-1.0809,0.0485,-0.2205,-0.0767,-26.5800,6.9600,-35.7000,
1.575754,-1.7028,1.3576,-1.0809,-0.0575,0.1028,-0.0565,-26.5800,6.9600,-35.7000,
1.588201,-1.7028,1.3576,-1.0809,-0.0575,0.1028,-0.0565,-26.5800,6.9600,-35.7000,
1.588582,-1.5267,3.2148,-0.6194,-0.0575,0.1028,-0.0565,-26.5800,6.9600,-35.7000,
1.592578,-1.5267,3.2148,-0.6194,-0.0575,0.1028,-0.0565,-26.0400,6.9600,-35.6400,
1.596447,-1.5267,3.2148,-0.6194,-0.1214,0.5497,-0.0772,-26.0400,6.9600,-35.6400,
1.616693,-1.5267,3.2148,-0.6194,-0.1593,0.9752,0.0298,-26.0400,6.9600,-35.6400,
1.637316,-1.5267,3.2148,-0.6194,0.2376,1.3177,0.1630,-26.0400,6.9600,-35.6400,
1.649415,-1.5267,3.2148,-0.6194,0.2376,1.3177,0.1630,-26.0400,6.9600,-35.6400,
1.649760,-0.9958,3.3183,5.0207,0.2376,1.3177,0.1630,-26.0400,6.9600,-35.6400,
1.654076,-0.9958,3.3183,5.0207,0.2376,1.3177,0.1630,-26.4600,6.3600,-35.2200,
1.657803,-0.9958,3.3183,5.0207,1.1808,1.3087,0.1310,-26.4600,6.3600,-35.2200,
1.678286,-0.9958,3.3183,5.0207,1.6645,0.9534,-0.0447,-26.4600,6.3600,-35.2200,
1.698746,-0.9958,3.3183,5.0207,1.4296,0.5981,-0.1395,-26.4600,6.3600,-35.2200,
1.712133,-0.9958,3.3183,5.0207,1.4296,0.5981,-0.1395,-26.4600,6.3600,-35.2200,
1.712570,-1.0683,4.0018,-2.3338,1.4296,0.5981,-0.1395,-26.4600,6.3600,-35.2200,
1.715783,-1.0683,4.0018,-2.3338,1.4296,0.5981,-0.1395,-25.1400,6.0000,-36.4200,
1.719632,-1.0683,4.0018,-2.3338,0.9342,0.6051,-0.2328,-25.1400,6.0000,-36.4200,
1.739955,-1.0683,4.0018,-2.3338,0.4511,0.7915,-0.1049,-25.1400,6.0000,-36.4200,
1.761074,-1.0683,4.0018,-2.3338,0.1534,1.0418,0.0810,-25.1400,6.0000,-36.4200,
1.772511,-1.0683,4.0018,-2.3338,0.1534,1.0418,0.0810,-25.1400,6.0000,-36.4200,
1.772887,-2.3819,3.7079,-2.0622,0.1534,1.0418,0.0810,-25.1400,6.0000,-36.4200,
1.777657,-2.3819,3.7079,-2.0622,0.1534,1.0418,0.0810,-23.7600,4.5000,-37.3200,
1.781163,-2.3819,3.7079,-2.0622,0.0213,1.0045,0.0889,-23.7600,4.5000,-37.3200,
1.801482,-2.3819,3.7079,-2.0622,0.0069,0.3595,0.0197,-23.7600,4.5000,-37.3200,
1.821863,-2.3819,3.7079,-2.0622,-0.0144,-0.3755,-0.1726,-23.7600,4.5000,-37.3200,
1.834443,-2.3819,3.7079,-2.0622,-0.0144,-0.3755,-0.1726,-23.7600,4.5000,-37.3200,
1.834858,-1.0741,5.0768,-2.8615,-0.0144,-0.3755,-0.1726,-23.7600,4.5000,-37.3200,
1.838930,-1.0741,5.0768,-2.8615,-0.0144,-0.3755,-0.1726,-22.2600,3.4200,-38.8800,
1.842462,-1.0741,5.0768,-2.8615,-0.0842,-0.9284,-0.4011,-22.2600,3.4200,-38.8800,
1.863009,-1.0741,5.0768,-2.8615,-0.2136,-1.2543,-0.5593,-22.2600,3.4200,-38.8800,
1.883679,-1.0741,5.0768,-2.8615,-0.6216,-1.2746,-0.9177,-22.2600,3.4200,-38.8800,
1.895691,-1.0741,5.0768,-2.8615,-0.6216,-1.2746,-0.9177,-22.2600,3.4200,-38.8800,
1.896106,6.6403,-22.1501,-6.6616,-0.6216,-1.2746,-0.9177,-22.2600,3.4200,-38.8800,
1.900465,6.6403,-22.1501,-6.6616,-0.6216,-1.2746,-0.9177,-20.2200,2.0400,-40.4400,
1.904540,6.6403,-22.1501,-6.6616,-1.0621,-1.9750,-2.4640,-20.2200,2.0400,-40.4400,
1.924693,6.6403,-22.1501,-6.6616,-1.4887,-4.6424,-1.6703,-20.2200,2.0400,-40.4400,
1.945133,6.6403,-22.1501,-6.6616,-2.5673,-2.0251,0.7020,-20.2200,2.0400,-40.4400,
1.957734,6.6403,-22.1501,-6.6616,-2.5673,-2.0251,0.7020,-20.2200,2.0400,-40.4400,
1.958220,4.2339,1.5693,-1.2350,-2.5673,-2.0251,0.7020,-20.2200,2.0400,-40.4400,
1.962758,4.2339,1.5693,-1.2350,-2.5673,-2.0251,0.7020,-19.8600,0.3000,-40.1400,
1.965848,4.2339,1.5693,-1.2350,-2.8506,-2.4320,0.8794,-19.8600,0.3000,-40.1400,
1.986196,4.2339,1.5693,-1.2350,-1.8115,-4.9029,0.1896,-19.8600,0.3000,-40.1400,
2.006663,4.2339,1.5693,-1.2350,-1.4424,-3.7311,-0.1145,-19.8600,0.3000,-40.1400,
2.019371,4.2339,1.5693,-1.2350,-1.4424,-3.7311,-0.1145,-19.8600,0.3000,-40.1400,
2.019803,0.5116,8.1636,1.7874,-1.4424,-3.7311,-0.1145,-19.8600,0.3000,-40.1400,
2.023395,0.5116,8.1636,1.7874,-1.4424,-3.7311,-0.1145,-20.7600,1.0200,-39.2400,
2.029862,0.5116,8.1636,1.7874,-1.0429,-2.1193,-0.4155,-20.7600,1.0200,-39.2400,
2.047860,0.5116,8.1636,1.7874,-0.1848,-1.2852,-1.0647,-20.7600,1.0200,-39.2400,
2.068485,0.5116,8.1636,1.7874,-0.3419,1.0578,-2.0006,-20.7600,1.0200,-39.2400,
2.080748,0.5116,8.1636,1.7874,-0.3419,1.0578,-2.0006,-20.7600,1.0200,-39.2400,
2.081161,3.2630,7.0621,0.1069,-0.3419,1.0578,-2.0006,-20.7600,1.0200,-39.2400,
2.085221,3.2630,7.0621,0.1069,-0.3419,1.0578,-2.0006,-24.7200,2.1600,-35.2800,
2.088811,3.2630,7.0621,0.1069,-1.1148,4.3175,-2.4325,-24.7200,2.1600,-35.2800,
2.109396,3.2630,7.0621,0.1069,-2.1689,5.2310,-2.1375,-24.7200,2.1600,-35.2800,
2.129960,3.2630,7.0621,0.1069,-3.2491,4.0272,-1.9654,-24.7200,2.1600,-35.2800,
2.142064,3.2630,7.0621,0.1069,-3.2491,4.0272,-1.9654,-24.7200,2.1600,-35.2800,
2.142449,-7.6340,5.2227,0.0948,-3.2491,4.0272,-1.9654,-24.7200,2.1600,-35.2800,
2.146744,-7.6340,5.2227,0.0948,-3.2491,4.0272,-1.9654,-28.5000,2.7600,-31.6200,
2.150474,-7.6340,5.2227,0.0948,-4.1439,1.4493,-1.6634,-28.5000,2.7600,-31.6200,
2.170936,-7.6340,5.2227,0.0948,-3.9681,-0.2557,-1.1350,-28.5000,2.7600,-31.6200,
2.191402,-7.6340,5.2227,0.0948,-3.5266,0.2738,-1.1121,-28.5000,2.7600,-31.6200,
2.203916,-7.6340,5.2227,0.0948,-3.5266,0.2738,-1.1121,-28.5000,2.7600,-31.6200,
2.204332,-1.0700,0.2997,-1.6353,-3.5266,0.2738,-1.1121,-28.5000,2.7600,-31.6200,
2.211565,-1.0700,0.2997,-1.6353,-3.5266,0.2738,-1.1121,-29.7600,4.7400,-30.5400,
2.212099,-1.0700,0.2997,-1.6353,-3.5718,1.8248,-2.0149,-29.7600,4.7400,-30.5400,
2.232474,-1.0700,0.2997,-1.6353,-3.7694,3.2427,-3.1335,-29.7600,4.7400,-30.5400,
2.253048,-1.0700,0.2997,-1.6353,-3.6714,3.8174,-3.4051,-29.7600,4.7400,-30.5400,
2.265068,-1.0700,0.2997,-1.6353,-3.6714,3.8174,-3.4051,-29.7600,4.7400,-30.5400,
2.265508,-3.9555,-2.5496,-6.9986,-3.6714,3.8174,-3.4051,-29.7600,4.7400,-30.5400,
2.269835,-3.9555,-2.5496,-6.9986,-3.6714,3.8174,-3.4051,-29.8200,5.7600,-30.0600,
2.273528,-3.9555,-2.5496,-6.9986,-2.7601,-0.2349,-1.7582,-29.8200,5.7600,-30.0600,
2.294327,-3.9555,-2.5496,-6.9986,-2.2157,-5.0648,-0.8485,-29.8200,5.7600,-30.0600,
2.314539,-3.9555,-2.5496,-6.9986,-1.2037,-11.4441,1.2986,-29.8200,5.7600,-30.0600,
2.328088,-3.9555,-2.5496,-6.9986,-1.2037,-11.4441,1.2986,-29.8200,5.7600,-30.0600,
2.328614,9.0959,-5.3227,0.2031,-1.2037,-11.4441,1.2986,-29.8200,5.7600,-30.0600,
2.331671,9.0959,-5.3227,0.2031,-1.2037,-11.4441,1.2986,-26.4000,7.5000,-33.3000,
2.335673,9.0959,-5.3227,0.2031,0.9507,-15.0479,0.5374,-26.4000,7.5000,-33.3000,
2.355700,9.0959,-5.3227,0.2031,0.5097,0.6120,-2.2935,-26.4000,7.5000,-33.3000,
2.376204,9.0959,-5.3227,0.2031,-4.6387,0.4405,-0.1763,-26.4000,7.5000,-33.3000,
2.388323,9.0959,-5.3227,0.2031,-4.6387,0.4405,-0.1763,-26.4000,7.5000,-33.3000,
2.388814,4.7535,1.2888,2.4470,-4.6387,0.4405,-0.1763,-26.4000,7.5000,-33.3000,
2.393045,4.7535,1.2888,2.4470,-4.6387,0.4405,-0.1763,-26.4000,10.6800,-32.1000,
2.396680,4.7535,1.2888,2.4470,-2.9779,-1.7332,1.2432,-26.4000,10.6800,-32.1000,
2.417150,4.7535,1.2888,2.4470,-1.4498,-0.5784,1.1633,-26.4000,10.6800,-32.1000,
2.438063,4.7535,1.2888,2.4470,-0.6045,0.3750,-0.1614,-26.4000,10.6800,-32.1000,
2.450432,4.7535,1.2888,2.4470,-0.6045,0.3750,-0.1614,-26.4000,10.6800,-32.1000,
2.450739,-3.1222,-4.3555,-4.7418,-0.6045,0.3750,-0.1614,-26.4000,10.6800,-32.1000,
2.455062,-3.1222,-4.3555,-4.7418,-0.6045,0.3750,-0.1614,-30.3000,13.3800,-26.4000,
2.458289,-3.1222,-4.3555,-4.7418,0.1880,0.6551,-0.5987,-30.3000,13.3800,-26.4000,
2.478963,-3.1222,-4.3555,-4.7418,0.6168,1.0669,-0.5135,-30.3000,13.3800,-26.4000,
2.499509,-3.1222,-4.3555,-4.7418,0.5326,1.0663,-0.4522,-30.3000,13.3800,-26.4000,
2.511585,-3.1222,-4.3555,-4.7418,0.5326,1.0663,-0.4522,-30.3000,13.3800,-26.4000,
2.512062,-2.5861,1.7911,0.0860,0.5326,1.0663,-0.4522,-30.3000,13.3800,-26.4000,
2.516306,-2.5861,1.7911,0.0860,0.5326,1.0663,-0.4522,-33.7800,15.4200,-21.0600,
2.520127,-2.5861,1.7911,0.0860,0.3483,0.8826,-0.4155,-33.7800,15.4200,-21.0600,
2.540634,-2.5861,1.7911,0.0860,0.1103,0.4778,-0.3547,-33.7800,15.4200,-21.0600,
2.561242,-2.5861,1.7911,0.0860,-0.1204,0.2322,-0.3089,-33.7800,15.4200,-21.0600,
2.573429,-2.5861,1.7911,0.0860,-0.1204,0.2322,-0.3089,-33.7800,15.4200,-21.0600,
2.573869,-1.3005,3.0403,-0.2580,-0.1204,0.2322,-0.3089,-33.7800,15.4200,-21.0600,
2.578530,-1.3005,3.0403,-0.2580,-0.1204,0.2322,-0.3089,-37.8000,16.2000,-14.3400,
2.581753,-1.3005,3.0403,-0.2580,-0.2493,0.0953,-0.3649,-37.8000,16.2000,-14.3400,
2.602659,-1.3005,3.0403,-0.2580,-0.4293,-0.1390,-0.4272,-37.8000,16.2000,-14.3400,
2.622784,-1.3005,3.0403,-0.2580,-0.5651,-0.3499,-0.3734,-37.8000,16.2000,-14.3400,
2.634824,-1.3005,3.0403,-0.2580,-0.5651,-0.3499,-0.3734,-37.8000,16.2000,-14.3400,
2.635290,-0.0730,3.0275,-1.0094,-0.5651,-0.3499,-0.3734,-37.8000,16.2000,-14.3400,
2.639492,-0.0730,3.0275,-1.0094,-0.5651,-0.3499,-0.3734,-38.8200,16.1400,-13.2000,
2.643165,-0.0730,3.0275,-1.0094,-0.5369,-0.3515,-0.2706,-38.8200,16.1400,-13.2000,
2.663784,-0.0730,3.0275,-1.0094,-0.3041,-0.2850,-0.0874,-38.8200,16.1400,-13.2000,
2.684133,-0.0730,3.0275,-1.0094,0.0373,-0.1971,0.0410,-38.8200,16.1400,-13.2000,
2.696781,-0.0730,3.0275,-1.0094,0.0373,-0.1971,0.0410,-38.8200,16.1400,-13.2000,
2.697295,-0.3308,0.4378,-1.2277,0.0373,-0.1971,0.0410,-38.8200,16.1400,-13.2000,
2.701127,-0.3308,0.4378,-1.2277,0.0373,-0.1971,0.0410,-38.3400,16.1400,-13.7400,
2.705235,-0.3308,0.4378,-1.2277,0.2626,-0.1443,0.1092,-38.3400,16.1400,-13.7400,
2.725554,-0.3308,0.4378,-1.2277,0.3377,-0.0032,0.1374,-38.3400,16.1400,-13.7400,
2.746648,-0.3308,0.4378,-1.2277,0.3499,0.1720,0.1380,-38.3400,16.1400,-13.7400,
2.758068,-0.3308,0.4378,-1.2277,0.3499,0.1720,0.1380,-38.3400,16.1400,-13.7400,
2.758480,-0.6958,0.2255,-0.1079,0.3499,0.1720,0.1380,-38.3400,16.1400,-13.7400,
2.763425,-0.6958,0.2255,-0.1079,0.3499,0.1720,0.1380,-38.2800,15.2400,-13.8000,
2.766486,-0.6958,0.2255,-0.1079,0.3052,0.2407,0.1172,-38.2800,15.2400,-13.8000,
2.787522,-0.6958,0.2255,-0.1079,0.2237,0.2498,0.0735,-38.2800,15.2400,-13.8000,
2.807258,-0.6958,0.2255,-0.1079,0.1443,0.1055,0.0368,-38.2800,15.2400,-13.8000,
2.819734,-0.6958,0.2255,-0.1079,0.1443,0.1055,0.0368,-38.2800,15.2400,-13.8000,
2.820139,-0.1339,-0.1660,0.8133,0.1443,0.1055,0.0368,-38.2800,15.2400,-13.8000,
2.824373,-0.1339,-0.1660,0.8133,0.1443,0.1055,0.0368,-38.3400,14.7000,-14.1600,
2.828079,-0.1339,-0.1660,0.8133,0.0836,-0.1172,0.0229,-38.3400,14.7000,-14.1600,
2.848386,-0.1339,-0.1660,0.8133,0.0415,-0.2013,0.0208,-38.3400,14.7000,-14.1600,
2.869832,-0.1339,-0.1660,0.8133,-0.0048,-0.1704,0.0096,-38.3400,14.7000,-14.1600,
2.881182,-0.1339,-0.1660,0.8133,-0.0048,-0.1704,0.0096,-38.3400,14.7000,-14.1600,
2.881602,-0.0986,-0.1541,-0.0797,-0.0048,-0.1704,0.0096,-38.3400,14.7000,-14.1600,
2.886390,-0.0986,-0.1541,-0.0797,-0.0048,-0.1704,0.0096,-38.7000,14.3400,-13.9200,
2.889810,-0.0986,-0.1541,-0.0797,-0.0256,-0.1342,0.0123,-38.7000,14.3400,-13.9200,
2.910448,-0.0986,-0.1541,-0.0797,-0.0282,-0.1257,0.0202,-38.7000,14.3400,-13.9200,
2.930355,-0.0986,-0.1541,-0.0797,-0.0240,-0.1060,0.0298,-38.7000,14.3400,-13.9200,
2.943121,-0.0986,-0.1541,-0.0797,-0.0240,-0.1060,0.0298,-38.7000,14.3400,-13.9200,
2.943479,0.0015,-0.1965,-0.0171,-0.0240,-0.1060,0.0298,-38.7000,14.3400,-13.9200,
2.947546,0.0015,-0.1965,-0.0171,-0.0240,-0.1060,0.0298,-38.8800,13.9800,-14.1600,
2.950978,0.0015,-0.1965,-0.0171,-0.0138,-0.0778,0.0272,-38.8800,13.9800,-14.1600,
2.971546,0.0015,-0.1965,-0.0171,-0.0059,-0.0607,0.0282,-38.8800,13.9800,-14.1600,
2.992130,0.0015,-0.1965,-0.0171,0.0091,-0.0740,0.0272,-38.8800,13.9800,-14.1600,
3.004453,0.0015,-0.1965,-0.0171,0.0091,-0.0740,0.0272,-38.8800,13.9800,-14.1600,
3.004836,-0.0848,0.0088,-0.0054,0.0091,-0.0740,0.0272,-38.8800,13.9800,-14.1600,
3.008844,-0.0848,0.0088,-0.0054,0.0091,-0.0740,0.0272,-38.3400,14.0400,-14.6400,
3.012628,-0.0848,0.0088,-0.0054,-0.0016,-0.0602,0.0181,-38.3400,14.0400,-14.6400,
3.033351,-0.0848,0.0088,-0.0054,-0.0250,-0.0128,0.0011,-38.3400,14.0400,-14.6400,
3.053813,-0.0848,0.0088,-0.0054,-0.0288,0.0144,-0.0080,-38.3400,14.0400,-14.6400,
3.066258,-0.0848,0.0088,-0.0054,-0.0288,0.0144,-0.0080,-38.3400,14.0400,-14.6400,
3.066646,-0.1120,0.1102,0.0494,-0.0288,0.0144,-0.0080,-38.3400,14.0400,-14.6400,
3.070736,-0.1120,0.1102,0.0494,-0.0288,0.0144,-0.0080,-38.2200,14.2200,-14.8800,
3.074237,-0.1120,0.1102,0.0494,-0.0224,0.0282,-0.0128,-38.2200,14.2200,-14.8800,
3.094736,-0.1120,0.1102,0.0494,-0.0117,0.0229,-0.0138,-38.2200,14.2200,-14.8800,
3.115663,-0.1120,0.1102,0.0494,-0.0027,0.0336,-0.0192,-38.2200,14.2200,-14.8800,
3.127671,-0.1120,0.1102,0.0494,-0.0027,0.0336,-0.0192,-38.2200,14.2200,-14.8800,
3.128067,-0.0731,0.0892,0.0571,-0.0027,0.0336,-0.0192,-38.2200,14.2200,-14.8800,
3.132746,-0.0731,0.0892,0.0571,-0.0027,0.0336,-0.0192,-37.9200,14.4000,-14.7600,
3.136158,-0.0731,0.0892,0.0571,0.0027,0.0373,-0.0197,-37.9200,14.4000,-14.7600,
3.156667,-0.0731,0.0892,0.0571,0.0021,0.0447,-0.0202,-37.9200,14.4000,-14.7600,
3.176935,-0.0731,0.0892,0.0571,-0.0011,0.0655,-0.0213,-37.9200,14.4000,-14.7600,
3.189369,-0.0731,0.0892,0.0571,-0.0011,0.0655,-0.0213,-37.9200,14.4000,-14.7600,
3.189717,-0.0449,0.0842,0.0363,-0.0011,0.0655,-0.0213,-37.9200,14.4000,-14.7600,
3.194445,-0.0449,0.0842,0.0363,-0.0011,0.0655,-0.0213,-37.9800,14.4600,-14.1000,
3.197386,-0.0449,0.0842,0.0363,0.0005,0.0724,-0.0181,-37.9800,14.4600,-14.1000,
3.217895,-0.0449,0.0842,0.0363,0.0069,0.0629,-0.0107,-37.9800,14.4600,-14.1000,
3.239184,-0.0449,0.0842,0.0363,0.0160,0.0485,-0.0048,-37.9800,14.4600,-14.1000,
3.250751,-0.0449,0.0842,0.0363,0.0160,0.0485,-0.0048,-37.9800,14.4600,-14.1000,
3.251109,-0.0575,0.0579,0.0410,0.0160,0.0485,-0.0048,-37.9800,14.4600,-14.1000,
3.255022,-0.0575,0.0579,0.0410,0.0160,0.0485,-0.0048,-38.4600,14.2800,-14.2200,
3.258843,-0.0575,0.0579,0.0410,0.0144,0.0485,-0.0037,-38.4600,14.2800,-14.2200,
3.279712,-0.0575,0.0579,0.0410,0.0053,0.0538,-0.0101,-38.4600,14.2800,-14.2200,
3.299853,-0.0575,0.0579,0.0410,0.0085,0.0527,-0.0133,-38.4600,14.2800,-14.2200,
3.312642,-0.0575,0.0579,0.0410,0.0085,0.0527,-0.0133,-38.4600,14.2800,-14.2200,
3.313295,0.0071,0.0056,-0.1501,0.0085,0.0527,-0.0133,-38.4600,14.2800,-14.2200,
3.316796,0.0071,0.0056,-0.1501,0.0085,0.0527,-0.0133,-38.8200,13.8000,-14.4600,
3.320512,0.0071,0.0056,-0.1501,0.0341,0.0783,-0.0170,-38.8200,13.8000,-14.4600,
3.341280,0.0071,0.0056,-0.1501,0.0676,0.1065,-0.0208,-38.8200,13.8000,-14.4600,
3.362035,0.0071,0.0056,-0.1501,0.1092,0.1108,-0.0128,-38.8200,13.8000,-14.4600,
3.373951,0.0071,0.0056,-0.1501,0.1092,0.1108,-0.0128,-38.8200,13.8000,-14.4600,
3.374684,-0.0385,0.1740,0.0296,0.1092,0.1108,-0.0128,-38.8200,13.8000,-14.4600,
3.378416,-0.0385,0.1740,0.0296,0.1092,0.1108,-0.0128,-39.1800,13.8000,-14.3400,
3.382085,-0.0385,0.1740,0.0296,0.1491,0.1039,-0.0091,-39.1800,13.8000,-14.3400,
3.402882,-0.0385,0.1740,0.0296,0.1795,0.0863,0.0091,-39.1800,13.8000,-14.3400,
3.423184,-0.0385,0.1740,0.0296,0.1779,0.0447,0.0266,-39.1800,13.8000,-14.3400,
3.435969,-0.0385,0.1740,0.0296,0.1779,0.0447,0.0266,-39.1800,13.8000,-14.3400,
3.436544,-0.1299,0.2784,0.1058,0.1779,0.0447,0.0266,-39.1800,13.8000,-14.3400,
3.440282,-0.1299,0.2784,0.1058,0.1779,0.0447,0.0266,-39.1200,13.5600,-14.5200,
3.444563,-0.1299,0.2784,0.1058,0.1795,0.0240,0.0479,-39.1200,13.5600,-14.5200,
3.464568,-0.1299,0.2784,0.1058,0.1891,0.0048,0.0682,-39.1200,13.5600,-14.5200,
3.485173,-0.1299,0.2784,0.1058,0.1971,-0.0660,0.0858,-39.1200,13.5600,-14.5200,
3.497170,-0.1299,0.2784,0.1058,0.1971,-0.0660,0.0858,-39.1200,13.5600,-14.5200,
3.497888,0.0320,0.0632,0.3989,0.1971,-0.0660,0.0858,-39.1200,13.5600,-14.5200,
3.501473,0.0320,0.0632,0.3989,0.1971,-0.0660,0.0858,-39.1800,13.3800,-14.3400,
3.505594,0.0320,0.0632,0.3989,0.2578,-0.1694,0.1060,-39.1800,13.3800,-14.3400,
3.526093,0.0320,0.0632,0.3989,0.3467,-0.2386,0.1294,-39.1800,13.3800,-14.3400,
3.546778,0.0320,0.0632,0.3989,0.4021,-0.2748,0.1348,-39.1800,13.3800,-14.3400,
3.558967,0.0320,0.0632,0.3989,0.4021,-0.2748,0.1348,-39.1800,13.3800,-14.3400,
3.559745,-0.0717,-0.0025,-0.2072,0.4021,-0.2748,0.1348,-39.1800,13.3800,-14.3400,
3.563510,-0.0717,-0.0025,-0.2072,0.4021,-0.2748,0.1348,-39.4800,13.2600,-14.2200,
3.566826,-0.0717,-0.0025,-0.2072,0.4730,-0.2461,0.1257,-39.4800,13.2600,-14.2200,
3.587662,-0.0717,-0.0025,-0.2072,0.6019,-0.2237,0.1188,-39.4800,13.2600,-14.2200,
3.608578,-0.0717,-0.0025,-0.2072,0.7574,-0.1672,0.1380,-39.4800,13.2600,-14.2200,
3.621877,-0.0717,-0.0025,-0.2072,0.7574,-0.1672,0.1380,-39.4800,13.2600,-14.2200,
3.622811,-0.0065,0.4308,-0.9098,0.7574,-0.1672,0.1380,-39.4800,13.2600,-14.2200,
3.624948,-0.0065,0.4308,-0.9098,0.7574,-0.1672,0.1380,-39.4800,13.2000,-14.2200,
3.628510,-0.0065,0.4308,-0.9098,0.8714,-0.0607,0.1944,-39.4800,13.2000,-14.2200,
3.649455,-0.0065,0.4308,-0.9098,0.9758,-0.0181,0.2850,-39.4800,13.2000,-14.2200,
3.669727,-0.0065,0.4308,-0.9098,1.1542,0.0240,0.4224,-39.4800,13.2000,-14.2200,
3.682368,-0.0065,0.4308,-0.9098,1.1542,0.0240,0.4224,-39.4800,13.2000,-14.2200,
3.683026,0.5803,0.0870,-0.6985,1.1542,0.0240,0.4224,-39.4800,13.2000,-14.2200,
3.686533,0.5803,0.0870,-0.6985,1.1542,0.0240,0.4224,-38.8800,13.6800,-14.4000,
3.690167,0.5803,0.0870,-0.6985,1.3305,0.0623,0.5444,-38.8800,13.6800,-14.4000,
3.710624,0.5803,0.0870,-0.6985,1.4248,0.3318,0.5918,-38.8800,13.6800,-14.4000,
3.731445,0.5803,0.0870,-0.6985,1.1691,1.1824,0.4890,-38.8800,13.6800,-14.4000,
3.743433,0.5803,0.0870,-0.6985,1.1691,1.1824,0.4890,-38.8800,13.6800,-14.4000,
3.744129,2.0784,-0.0734,-3.6866,1.1691,1.1824,0.4890,-38.8800,13.6800,-14.4000,
3.747691,2.0784,-0.0734,-3.6866,1.1691,1.1824,0.4890,-39.1200,14.0400,-14.5800,
3.751661,2.0784,-0.0734,-3.6866,0.5971,1.9766,-0.0676,-39.1200,14.0400,-14.5800,
3.772438,2.0784,-0.0734,-3.6866,0.1864,2.0011,-0.9758,-39.1200,14.0400,-14.5800,
3.793008,2.0784,-0.0734,-3.6866,-0.0629,1.3928,-1.8818,-39.1200,14.0400,-14.5800,
3.805175,2.0784,-0.0734,-3.6866,-0.0629,1.3928,-1.8818,-39.1200,14.0400,-14.5800,
3.805819,-0.3623,0.8269,0.5766,-0.0629,1.3928,-1.8818,-39.1200,14.0400,-14.5800,
3.809784,-0.3623,0.8269,0.5766,-0.0629,1.3928,-1.8818,-37.9800,14.1000,-15.8400,
3.813270,-0.3623,0.8269,0.5766,-0.1268,0.4746,-1.7193,-37.9800,14.1000,-15.8400,
3.833858,-0.3623,0.8269,0.5766,-0.0165,0.2786,-1.4280,-37.9800,14.1000,-15.8400,
3.854085,-0.3623,0.8269,0.5766,0.4336,0.0767,-0.6828,-37.9800,14.1000,-15.8400,
3.866670,-0.3623,0.8269,0.5766,0.4336,0.0767,-0.6828,-37.9800,14.1000,-15.8400,
3.867279,-2.9156,-2.9107,0.9736,0.4336,0.0767,-0.6828,-37.9800,14.1000,-15.8400,
3.871233,-2.9156,-2.9107,0.9736,0.4336,0.0767,-0.6828,-36.5400,13.0200,-18.3600,
3.876611,-2.9156,-2.9107,0.9736,0.7153,0.7111,0.0863,-36.5400,13.0200,-18.3600,
3.895420,-2.9156,-2.9107,0.9736,0.5683,1.2783,0.4959,-36.5400,13.0200,-18.3600,
3.915957,-2.9156,-2.9107,0.9736,0.2690,1.3571,0.6173,-36.5400,13.0200,-18.3600,
3.928328,-2.9156,-2.9107,0.9736,0.2690,1.3571,0.6173,-36.5400,13.0200,-18.3600,
3.928920,-1.1608,-1.1359,0.4171,0.2690,1.3571,0.6173,-36.5400,13.0200,-18.3600,
3.932997,-1.1608,-1.1359,0.4171,0.2690,1.3571,0.6173,-36.1800,10.9800,-20.8200,
3.936613,-1.1608,-1.1359,0.4171,0.1129,0.7404,0.6631,-36.1800,10.9800,-20.8200,
3.957005,-1.1608,-1.1359,0.4171,0.2226,0.2706,0.6977,-36.1800,10.9800,-20.8200,
3.977600,-1.1608,-1.1359,0.4171,0.4282,0.6168,0.7249,-36.1800,10.9800,-20.8200,
3.989766,-1.1608,-1.1359,0.4171,0.4282,0.6168,0.7249,-36.1800,10.9800,-20.8200,
3.990408,1.6142,0.8731,-1.9471,0.4282,0.6168,0.7249,-36.1800,10.9800,-20.8200,
3.994147,1.6142,0.8731,-1.9471,0.4282,0.6168,0.7249,-34.0800,9.7200,-23.8800,
3.997972,1.6142,0.8731,-1.9471,0.5715,1.1041,0.7792,-34.0800,9.7200,-23.8800,
4.018685,1.6142,0.8731,-1.9471,0.3180,0.9800,0.6269,-34.0800,9.7200,-23.8800,
4.039081,1.6142,0.8731,-1.9471,0.1278,0.7974,0.4852,-34.0800,9.7200,-23.8800,
4.051688,1.6142,0.8731,-1.9471,0.1278,0.7974,0.4852,-34.0800,9.7200,-23.8800,
4.052324,1.6011,2.5471,0.4727,0.1278,0.7974,0.4852,-34.0800,9.7200,-23.8800,
4.056072,1.6011,2.5471,0.4727,0.1278,0.7974,0.4852,-33.1800,8.5200,-26.2800,
4.059690,1.6011,2.5471,0.4727,0.3340,0.3680,0.3611,-33.1800,8.5200,-26.2800,
4.080073,1.6011,2.5471,0.4727,0.8325,-0.7420,-0.0394,-33.1800,8.5200,-26.2800,
4.100575,1.6011,2.5471,0.4727,0.8746,-1.2006,-0.2599,-33.1800,8.5200,-26.2800,
4.112680,1.6011,2.5471,0.4727,0.8746,-1.2006,-0.2599,-33.1800,8.5200,-26.2800,
4.113239,-1.1432,0.0644,0.8421,0.8746,-1.2006,-0.2599,-33.1800,8.5200,-26.2800,
4.117518,-1.1432,0.0644,0.8421,0.8746,-1.2006,-0.2599,-32.1600,8.5800,-27.8400,
4.121235,-1.1432,0.0644,0.8421,0.6322,-1.2943,-0.3057,-32.1600,8.5800,-27.8400,
4.142032,-1.1432,0.0644,0.8421,0.4842,-1.1531,-0.1225,-32.1600,8.5800,-27.8400,
4.162343,-1.1432,0.0644,0.8421,0.5459,-0.9007,0.0964,-32.1600,8.5800,-27.8400,
4.174852,-1.1432,0.0644,0.8421,0.5459,-0.9007,0.0964,-32.1600,8.5800,-27.8400,
4.175453,-2.6904,-0.9922,-0.2509,0.5459,-0.9007,0.0964,-32.1600,8.5800,-27.8400,
4.180161,-2.6904,-0.9922,-0.2509,0.5459,-0.9007,0.0964,-31.7400,8.9400,-28.9800,
4.182964,-2.6904,-0.9922,-0.2509,0.6168,-0.5811,0.2700,-31.7400,8.9400,-28.9800,
4.203188,-2.6904,-0.9922,-0.2509,0.6674,-0.4144,0.3665,-31.7400,8.9400,-28.9800,
4.224681,-2.6904,-0.9922,-0.2509,0.7276,-0.4373,0.3558,-31.7400,8.9400,-28.9800,
4.235836,-2.6904,-0.9922,-0.2509,0.7276,-0.4373,0.3558,-31.7400,8.9400,-28.9800,
4.236314,1.6905,1.1325,-0.6007,0.7276,-0.4373,0.3558,-31.7400,8.9400,-28.9800,
4.241310,1.6905,1.1325,-0.6007,0.7276,-0.4373,0.3558,-32.0400,8.9400,-28.9800,
4.244213,1.6905,1.1325,-0.6007,0.7302,-0.5087,0.2866,-32.0400,8.9400,-28.9800,
4.264782,1.6905,1.1325,-0.6007,0.7830,-0.5870,0.1204,-32.0400,8.9400,-28.9800,
4.285473,1.6905,1.1325,-0.6007,0.8815,-0.6019,0.0554,-32.0400,8.9400,-28.9800,
4.297973,1.6905,1.1325,-0.6007,0.8815,-0.6019,0.0554,-32.0400,8.9400,-28.9800,
4.298490,0.9964,-0.3262,0.6244,0.8815,-0.6019,0.0554,-32.0400,8.9400,-28.9800,
4.302613,0.9964,-0.3262,0.6244,0.8815,-0.6019,0.0554,-32.7000,8.7000,-27.9600,
4.305867,0.9964,-0.3262,0.6244,0.9635,-0.6386,0.2045,-32.7000,8.7000,-27.9600,
4.326785,0.9964,-0.3262,0.6244,1.1526,-0.6951,0.2951,-32.7000,8.7000,-27.9600,
4.347112,0.9964,-0.3262,0.6244,1.0083,-0.8261,0.2919,-32.7000,8.7000,-27.9600,
4.359281,0.9964,-0.3262,0.6244,1.0083,-0.8261,0.2919,-32.7000,8.7000,-27.9600,
4.359721,-1.8382,-0.6229,0.7093,1.0083,-0.8261,0.2919,-32.7000,8.7000,-27.9600,
4.363569,-1.8382,-0.6229,0.7093,1.0083,-0.8261,0.2919,-34.1400,8.1000,-26.5200,
4.367601,-1.8382,-0.6229,0.7093,0.8373,-0.7137,0.2546,-34.1400,8.1000,-26.5200,
4.388116,-1.8382,-0.6229,0.7093,0.7388,-0.6232,0.1326,-34.1400,8.1000,-26.5200,
4.408591,-1.8382,-0.6229,0.7093,0.7771,-0.4879,0.0506,-34.1400,8.1000,-26.5200,
4.421289,-1.8382,-0.6229,0.7093,0.7771,-0.4879,0.0506,-34.1400,8.1000,-26.5200,
4.421836,1.8413,1.0413,-0.2661,0.7771,-0.4879,0.0506,-34.1400,8.1000,-26.5200,
4.425618,1.8413,1.0413,-0.2661,0.7771,-0.4879,0.0506,-34.5600,7.5600,-25.2000,
4.429270,1.8413,1.0413,-0.2661,0.8575,-0.4080,0.0170,-34.5600,7.5600,-25.2000,
4.450446,1.8413,1.0413,-0.2661,0.9523,-0.4080,0.0602,-34.5600,7.5600,-25.2000,
4.470762,1.8413,1.0413,-0.2661,1.0019,-0.3201,0.1651,-34.5600,7.5600,-25.2000,
4.482870,1.8413,1.0413,-0.2661,1.0019,-0.3201,0.1651,-34.5600,7.5600,-25.2000,
4.483339,0.5237,-0.0651,-0.5832,1.0019,-0.3201,0.1651,-34.5600,7.5600,-25.2000,
4.487629,0.5237,-0.0651,-0.5832,1.0019,-0.3201,0.1651,-35.4000,6.8400,-23.4000,
4.492161,0.5237,-0.0651,-0.5832,0.9880,-0.0991,0.1790,-35.4000,6.8400,-23.4000,
4.511876,0.5237,-0.0651,-0.5832,1.0269,0.2013,0.1838,-35.4000,6.8400,-23.4000,
4.532533,0.5237,-0.0651,-0.5832,1.1766,0.3824,0.1870,-35.4000,6.8400,-23.4000,
4.544652,0.5237,-0.0651,-0.5832,1.1766,0.3824,0.1870,-35.4000,6.8400,-23.4000,
4.545574,-0.1887,-1.0275,-0.4959,1.1766,0.3824,0.1870,-35.4000,6.8400,-23.4000,
4.549159,-0.1887,-1.0275,-0.4959,1.1766,0.3824,0.1870,-36.0000,6.3000,-22.3200,
4.552475,-0.1887,-1.0275,-0.4959,1.4019,0.4506,0.2722,-36.0000,6.3000,-22.3200,
4.573295,-0.1887,-1.0275,-0.4959,1.5425,0.4943,0.4011,-36.0000,6.3000,-22.3200,
4.593911,-0.1887,-1.0275,-0.4959,1.6048,0.4650,0.4506,-36.0000,6.3000,-22.3200,
4.606615,-0.1887,-1.0275,-0.4959,1.6048,0.4650,0.4506,-36.0000,6.3000,-22.3200,
4.607251,-0.8958,0.5980,0.0191,1.6048,0.4650,0.4506,-36.0000,6.3000,-22.3200,
4.610760,-0.8958,0.5980,0.0191,1.6048,0.4650,0.4506,-36.4800,5.7600,-21.6000,
4.614501,-0.8958,0.5980,0.0191,1.8291,0.3920,0.3537,-36.4800,5.7600,-21.6000,
4.635065,-0.8958,0.5980,0.0191,1.9388,0.6056,0.3649,-36.4800,5.7600,-21.6000,
4.655398,-0.8958,0.5980,0.0191,2.1646,0.8378,0.4948,-36.4800,5.7600,-21.6000,
4.668071,-0.8958,0.5980,0.0191,2.1646,0.8378,0.4948,-36.4800,5.7600,-21.6000,
4.668550,-0.7937,0.4032,0.3395,2.1646,0.8378,0.4948,-36.4800,5.7600,-21.6000,
4.672687,-0.7937,0.4032,0.3395,2.1646,0.8378,0.4948,-36.7800,4.9800,-21.4800,
4.676636,-0.7937,0.4032,0.3395,2.2536,0.7340,0.4767,-36.7800,4.9800,-21.4800,
4.696859,-0.7937,0.4032,0.3395,2.2429,0.5326,0.4735,-36.7800,4.9800,-21.4800,
4.717317,-0.7937,0.4032,0.3395,2.2972,0.4677,0.5412,-36.7800,4.9800,-21.4800,
4.729046,-0.7937,0.4032,0.3395,2.2972,0.4677,0.5412,-36.7800,4.9800,-21.4800,
4.729700,-0.5076,-0.3833,0.9028,2.2972,0.4677,0.5412,-36.7800,4.9800,-21.4800,
4.733265,-0.5076,-0.3833,0.9028,2.2972,0.4677,0.5412,-37.0200,3.9600,-22.5000,
4.737625,-0.5076,-0.3833,0.9028,2.3803,0.5566,0.5481,-37.0200,3.9600,-22.5000,
4.758422,-0.5076,-0.3833,0.9028,2.4235,0.4985,0.4410,-37.0200,3.9600,-22.5000,
4.778945,-0.5076,-0.3833,0.9028,2.4783,0.4208,0.5481,-37.0200,3.9600,-22.5000,
4.790980,-0.5076,-0.3833,0.9028,2.4783,0.4208,0.5481,-37.0200,3.9600,-22.5000,
4.791564,-0.7059,0.0775,1.2645,2.4783,0.4208,0.5481,-37.0200,3.9600,-22.5000,
4.795338,-0.7059,0.0775,1.2645,2.4783,0.4208,0.5481,-36.2400,2.6400,-23.7600,
4.799147,-0.7059,0.0775,1.2645,2.3681,0.0932,0.6503,-36.2400,2.6400,-23.7600,
4.822538,-0.7059,0.0775,1.2645,2.3681,0.0213,0.5928,-36.2400,2.6400,-23.7600,
4.840270,-0.7059,0.0775,1.2645,2.1252,0.0426,0.6195,-36.2400,2.6400,-23.7600,
4.852487,-0.7059,0.0775,1.2645,2.1252,0.0426,0.6195,-36.2400,2.6400,-23.7600,
4.853138,-0.6636,2.0924,1.8005,2.1252,0.0426,0.6195,-36.2400,2.6400,-23.7600,
4.857462,-0.6636,2.0924,1.8005,2.1252,0.0426,0.6195,-35.8200,0.7200,-24.9000,
4.860636,-0.6636,2.0924,1.8005,1.8669,0.2264,0.5209,-35.8200,0.7200,-24.9000,
4.881707,-0.6636,2.0924,1.8005,1.7161,0.2338,0.3196,-35.8200,0.7200,-24.9000,
4.901933,-0.6636,2.0924,1.8005,1.6842,0.2589,0.1944,-35.8200,0.7200,-24.9000,
4.914388,-0.6636,2.0924,1.8005,1.6842,0.2589,0.1944,-35.8200,0.7200,-24.9000,
4.914752,-1.8458,-0.1339,2.2748,1.6842,0.2589,0.1944,-35.8200,0.7200,-24.9000,
4.918605,-1.8458,-0.1339,2.2748,1.6842,0.2589,0.1944,-35.1600,-1.2000,-25.6800,
4.922799,-1.8458,-0.1339,2.2748,1.6911,0.3180,0.1811,-35.1600,-1.2000,-25.6800,
4.942724,-1.8458,-0.1339,2.2748,1.6512,0.4469,0.2194,-35.1600,-1.2000,-25.6800,
4.963465,-1.8458,-0.1339,2.2748,1.5526,0.5358,0.2445,-35.1600,-1.2000,-25.6800,
4.975570,-1.8458,-0.1339,2.2748,1.5526,0.5358,0.2445,-35.1600,-1.2000,-25.6800,
4.976314,-1.3293,1.3416,3.0708,1.5526,0.5358,0.2445,-35.1600,-1.2000,-25.6800,
4.980632,-1.3293,1.3416,3.0708,1.5526,0.5358,0.2445,-34.9200,-3.4800,-26.9400,
4.984082,-1.3293,1.3416,3.0708,1.4450,0.5854,0.2844,-34.9200,-3.4800,-26.9400,
5.004476,-1.3293,1.3416,3.0708,1.3002,0.6498,0.3878,-34.9200,-3.4800,-26.9400,
5.025162,-1.3293,1.3416,3.0708,1.1340,0.6594,0.4826,-34.9200,-3.4800,-26.9400,
5.038702,-1.3293,1.3416,3.0708,1.1340,0.6594,0.4826,-34.9200,-3.4800,-26.9400,
5.039366,-0.7958,-0.2873,2.8892,1.1340,0.6594,0.4826,-34.9200,-3.4800,-26.9400,
5.041886,-0.7958,-0.2873,2.8892,1.1340,0.6594,0.4826,-34.9200,-5.5800,-27.3600,
5.045349,-0.7958,-0.2873,2.8892,0.9987,0.5268,0.5262,-34.9200,-5.5800,-27.3600,
5.066925,-0.7958,-0.2873,2.8892,0.8511,0.4021,0.5566,-34.9200,-5.5800,-27.3600,
5.086847,-0.7958,-0.2873,2.8892,0.6541,0.3649,0.5183,-34.9200,-5.5800,-27.3600,
5.099109,-0.7958,-0.2873,2.8892,0.6541,0.3649,0.5183,-34.9200,-5.5800,-27.3600,
5.099687,0.2557,1.1157,1.5900,0.6541,0.3649,0.5183,-34.9200,-5.5800,-27.3600,
5.104341,0.2557,1.1157,1.5900,0.6541,0.3649,0.5183,-34.2000,-7.3200,-27.3600,
5.107665,0.2557,1.1157,1.5900,0.4458,0.4517,0.4591,-34.2000,-7.3200,-27.3600,
5.127703,0.2557,1.1157,1.5900,0.2786,0.5289,0.3814,-34.2000,-7.3200,-27.3600,
5.148220,0.2557,1.1157,1.5900,0.1790,0.4895,0.2621,-34.2000,-7.3200,-27.3600,
5.160445,0.2557,1.1157,1.5900,0.1790,0.4895,0.2621,-34.2000,-7.3200,-27.3600,
5.161166,-0.4106,1.1461,1.7877,0.1790,0.4895,0.2621,-34.2000,-7.3200,-27.3600,
5.164973,-0.4106,1.1461,1.7877,0.1790,0.4895,0.2621,-34.0200,-8.5800,-27.6600,
5.168623,-0.4106,1.1461,1.7877,0.1843,0.3670,0.2626,-34.0200,-8.5800,-27.6600,
5.189253,-0.4106,1.1461,1.7877,0.2157,0.2498,0.3052,-34.0200,-8.5800,-27.6600,
5.209740,-0.4106,1.1461,1.7877,0.2184,0.2344,0.3505,-34.0200,-8.5800,-27.6600,
5.221999,-0.4106,1.1461,1.7877,0.2184,0.2344,0.3505,-34.0200,-8.5800,-27.6600,
5.222875,-0.9447,0.5353,0.9148,0.2184,0.2344,0.3505,-34.0200,-8.5800,-27.6600,
5.226238,-0.9447,0.5353,0.9148,0.2184,0.2344,0.3505,-33.1800,-9.0600,-27.3600,
5.229841,-0.9447,0.5353,0.9148,0.2509,0.2573,0.3185,-33.1800,-9.0600,-27.3600,
5.250724,-0.9447,0.5353,0.9148,0.2882,0.2551,0.2061,-33.1800,-9.0600,-27.3600,
5.271701,-0.9447,0.5353,0.9148,0.3510,0.2397,0.0778,-33.1800,-9.0600,-27.3600,
5.283748,-0.9447,0.5353,0.9148,0.3510,0.2397,0.0778,-33.1800,-9.0600,-27.3600,
5.284300,0.1890,0.2956,0.5543,0.3510,0.2397,0.0778,-33.1800,-9.0600,-27.3600,
5.288217,0.1890,0.2956,0.5543,0.3510,0.2397,0.0778,-32.8800,-9.2400,-27.6600,
5.292270,0.1890,0.2956,0.5543,0.4570,0.2631,0.0128,-32.8800,-9.2400,-27.6600,
5.312409,0.1890,0.2956,0.5543,0.5614,0.3159,0.0836,-32.8800,-9.2400,-27.6600,
5.333046,0.1890,0.2956,0.5543,0.6083,0.3574,0.1401,-32.8800,-9.2400,-27.6600,
5.344902,0.1890,0.2956,0.5543,0.6083,0.3574,0.1401,-32.8800,-9.2400,-27.6600,
5.345810,-0.1786,-0.1926,0.0049,0.6083,0.3574,0.1401,-32.8800,-9.2400,-27.6600,
5.350805,-0.1786,-0.1926,0.0049,0.6083,0.3574,0.1401,-32.7000,-9.1800,-28.4400,
5.353720,-0.1786,-0.1926,0.0049,0.6141,0.3553,0.1449,-32.7000,-9.1800,-28.4400,
5.373978,-0.1786,-0.1926,0.0049,0.6216,0.2812,0.1859,-32.7000,-9.1800,-28.4400,
5.394655,-0.1786,-0.1926,0.0049,0.6557,0.2322,0.2423,-32.7000,-9.1800,-28.4400,
5.407486,-0.1786,-0.1926,0.0049,0.6557,0.2322,0.2423,-32.7000,-9.1800,-28.4400,
5.408447,-0.5108,-0.4849,0.3496,0.6557,0.2322,0.2423,-32.7000,-9.1800,-28.4400,
5.411330,-0.5108,-0.4849,0.3496,0.6557,0.2322,0.2423,-32.6400,-9.7200,-28.7400,
5.414893,-0.5108,-0.4849,0.3496,0.7452,0.2802,0.2567,-32.6400,-9.7200,-28.7400,
5.435848,-0.5108,-0.4849,0.3496,0.8810,0.3116,0.2376,-32.6400,-9.7200,-28.7400,
5.456867,-0.5108,-0.4849,0.3496,1.0248,0.2530,0.2328,-32.6400,-9.7200,-28.7400,
5.468712,-0.5108,-0.4849,0.3496,1.0248,0.2530,0.2328,-32.6400,-9.7200,-28.7400,
5.469365,-0.0897,0.1307,0.4099,1.0248,0.2530,0.2328,-32.6400,-9.7200,-28.7400,
5.472811,-0.0897,0.1307,0.4099,1.0248,0.2530,0.2328,-32.6400,-10.1400,-29.2800,
5.476547,-0.0897,0.1307,0.4099,1.0919,0.2461,0.2908,-32.6400,-10.1400,-29.2800,
5.497087,-0.0897,0.1307,0.4099,1.0930,0.3318,0.3750,-32.6400,-10.1400,-29.2800,
5.517707,-0.0897,0.1307,0.4099,1.0882,0.3489,0.3771,-32.6400,-10.1400,-29.2800,
5.529851,-0.0897,0.1307,0.4099,1.0882,0.3489,0.3771,-32.6400,-10.1400,-29.2800,
5.530347,-0.0142,0.1560,0.5201,1.0882,0.3489,0.3771,-32.6400,-10.1400,-29.2800,
5.534245,-0.0142,0.1560,0.5201,1.0882,0.3489,0.3771,-32.2800,-11.1600,-29.4000,
5.538477,-0.0142,0.1560,0.5201,1.1089,0.2365,0.3111,-32.2800,-11.1600,-29.4000,
5.558945,-0.0142,0.1560,0.5201,1.1601,0.1262,0.2141,-32.2800,-11.1600,-29.4000,
5.579547,-0.0142,0.1560,0.5201,1.0796,0.0368,0.2519,-32.2800,-11.1600,-29.4000,
5.591523,-0.0142,0.1560,0.5201,1.0796,0.0368,0.2519,-32.2800,-11.1600,-29.4000,
5.592289,-0.3816,-0.1202,-0.3045,1.0796,0.0368,0.2519,-32.2800,-11.1600,-29.4000,
5.596146,-0.3816,-0.1202,-0.3045,1.0796,0.0368,0.2519,-32.1600,-11.9400,-29.5800,
5.599577,-0.3816,-0.1202,-0.3045,0.8959,0.0197,0.4043,-32.1600,-11.9400,-29.5800,
5.620223,-0.3816,-0.1202,-0.3045,0.5518,-0.0016,0.5161,-32.1600,-11.9400,-29.5800,
5.640706,-0.3816,-0.1202,-0.3045,0.5076,-0.1784,0.5278,-32.1600,-11.9400,-29.5800,
5.653656,-0.3816,-0.1202,-0.3045,0.5076,-0.1784,0.5278,-32.1600,-11.9400,-29.5800,
5.654357,-0.4078,-2.3937,0.5492,0.5076,-0.1784,0.5278,-32.1600,-11.9400,-29.5800,
5.658851,-0.4078,-2.3937,0.5492,0.5076,-0.1784,0.5278,-31.7400,-12.7200,-29.8200,
5.661461,-0.4078,-2.3937,0.5492,0.5257,-0.6029,0.3803,-31.7400,-12.7200,-29.8200,
5.682116,-0.4078,-2.3937,0.5492,0.4416,-0.4607,0.2344,-31.7400,-12.7200,-29.8200,
5.703441,-0.4078,-2.3937,0.5492,0.5960,-0.2503,0.2392,-31.7400,-12.7200,-29.8200,
5.714282,-0.4078,-2.3937,0.5492,0.5960,-0.2503,0.2392,-31.7400,-12.7200,-29.8200,
5.714834,0.4718,-1.5824,5.3621,0.5960,-0.2503,0.2392,-31.7400,-12.7200,-29.8200,
5.719458,0.4718,-1.5824,5.3621,0.5960,-0.2503,0.2392,-31.6800,-13.5600,-29.6400,
5.722642,0.4718,-1.5824,5.3621,0.8623,-0.4378,0.3260,-31.6800,-13.5600,-29.6400,
5.743476,0.4718,-1.5824,5.3621,0.2120,-0.5332,0.3132,-31.6800,-13.5600,-29.6400,
5.764054,0.4718,-1.5824,5.3621,-0.2509,0.1481,0.0117,-31.6800,-13.5600,-29.6400,
5.777381,0.4718,-1.5824,5.3621,-0.2509,0.1481,0.0117,-31.6800,-13.5600,-29.6400,
5.778552,0.5618,3.5907,4.7951,-0.2509,0.1481,0.0117,-31.6800,-13.5600,-29.6400,
5.781004,0.5618,3.5907,4.7951,-0.2509,0.1481,0.0117,-31.9800,-13.7400,-29.0400,
5.784436,0.5618,3.5907,4.7951,-0.1092,0.2621,-0.3824,-31.9800,-13.7400,-29.0400,
5.806189,0.5618,3.5907,4.7951,0.0676,0.0921,-0.6264,-31.9800,-13.7400,-29.0400,
5.825354,0.5618,3.5907,4.7951,0.1332,0.2706,-0.3324,-31.9800,-13.7400,-29.0400,
5.837798,0.5618,3.5907,4.7951,0.1332,0.2706,-0.3324,-31.9800,-13.7400,-29.0400,
5.838539,-2.1965,-8.4939,3.9578,0.1332,0.2706,-0.3324,-31.9800,-13.7400,-29.0400,
5.842472,-2.1965,-8.4939,3.9578,0.1332,0.2706,-0.3324,-32.2200,-14.2200,-28.3200,
5.845840,-2.1965,-8.4939,3.9578,0.1641,0.6312,0.3318,-32.2200,-14.2200,-28.3200,
5.866855,-2.1965,-8.4939,3.9578,0.1720,0.4900,0.7702,-32.2200,-14.2200,-28.3200,
5.887455,-2.1965,-8.4939,3.9578,0.2706,0.2551,0.6871,-32.2200,-14.2200,-28.3200,
5.899736,-2.1965,-8.4939,3.9578,0.2706,0.2551,0.6871,-32.2200,-14.2200,-28.3200,
5.900394,1.6401,2.5454,-1.1548,0.2706,0.2551,0.6871,-32.2200,-14.2200,-28.3200,
5.904060,1.6401,2.5454,-1.1548,0.2706,0.2551,0.6871,-32.5800,-13.9800,-27.7200,
5.907619,1.6401,2.5454,-1.1548,0.0154,0.0282,0.3542,-32.5800,-13.9800,-27.7200,
5.928267,1.6401,2.5454,-1.1548,-0.3878,-0.0245,-0.0245,-32.5800,-13.9800,-27.7200,
5.948734,1.6401,2.5454,-1.1548,-0.5310,0.0943,-0.2003,-32.5800,-13.9800,-27.7200,
5.961111,1.6401,2.5454,-1.1548,-0.5310,0.0943,-0.2003,-32.5800,-13.9800,-27.7200,
5.961983,0.1405,3.3315,2.0638,-0.5310,0.0943,-0.2003,-32.5800,-13.9800,-27.7200,
5.965113,0.1405,3.3315,2.0638,-0.5310,0.0943,-0.2003,-32.4600,-13.5000,-27.4200,
5.968809,0.1405,3.3315,2.0638,-0.4895,-0.0671,-0.3947,-32.4600,-13.5000,-27.4200,
5.989961,0.1405,3.3315,2.0638,-0.5651,0.0005,-0.5582,-32.4600,-13.5000,-27.4200,
6.010848,0.1405,3.3315,2.0638,-0.8282,0.3313,-0.5864,-32.4600,-13.5000,-27.4200,
6.024290,0.1405,3.3315,2.0638,-0.8282,0.3313,-0.5864,-32.4600,-13.5000,-27.4200,
6.025270,0.2188,3.1980,1.4098,-0.8282,0.3313,-0.5864,-32.4600,-13.5000,-27.4200,
6.027416,0.2188,3.1980,1.4098,-0.8282,0.3313,-0.5864,-32.3400,-13.0800,-27.7200,
6.030794,0.2188,3.1980,1.4098,-0.9470,0.4565,-0.5523,-32.3400,-13.0800,-27.7200,
6.051356,0.2188,3.1980,1.4098,-1.0988,0.4495,-0.4240,-32.3400,-13.0800,-27.7200,
6.072173,0.2188,3.1980,1.4098,-1.1510,0.4400,-0.4298,-32.3400,-13.0800,-27.7200,
6.084234,0.2188,3.1980,1.4098,-1.1510,0.4400,-0.4298,-32.3400,-13.0800,-27.7200,
6.084775,-0.5438,2.7076,1.1845,-1.1510,0.4400,-0.4298,-32.3400,-13.0800,-27.7200,
6.089524,-0.5438,2.7076,1.1845,-1.1510,0.4400,-0.4298,-32.6400,-12.2400,-27.9600,
6.092577,-0.5438,2.7076,1.1845,-1.2016,0.2482,-0.6099,-32.6400,-12.2400,-27.9600,
6.112789,-0.5438,2.7076,1.1845,-1.2000,0.1395,-0.8000,-32.6400,-12.2400,-27.9600,
6.133679,-0.5438,2.7076,1.1845,-1.2932,0.1886,-0.9337,-32.6400,-12.2400,-27.9600,
6.146009,-0.5438,2.7076,1.1845,-1.2932,0.1886,-0.9337,-32.6400,-12.2400,-27.9600,
6.146690,-0.4509,1.4688,0.8093,-1.2932,0.1886,-0.9337,-32.6400,-12.2400,-27.9600,
6.150166,-0.4509,1.4688,0.8093,-1.2932,0.1886,-0.9337,-32.3400,-11.5200,-29.0400,
6.153865,-0.4509,1.4688,0.8093,-1.3998,0.3084,-0.8794,-32.3400,-11.5200,-29.0400,
6.174533,-0.4509,1.4688,0.8093,-1.5233,0.3617,-0.8101,-32.3400,-11.5200,-29.0400,
6.195253,-0.4509,1.4688,0.8093,-1.5904,0.2147,-0.8554,-32.3400,-11.5200,-29.0400,
6.207638,-0.4509,1.4688,0.8093,-1.5904,0.2147,-0.8554,-32.3400,-11.5200,-29.0400,
6.208198,-0.2822,0.4771,0.3459,-1.5904,0.2147,-0.8554,-32.3400,-11.5200,-29.0400,
6.211308,-0.2822,0.4771,0.3459,-1.5904,0.2147,-0.8554,-31.8000,-10.2600,-29.8800,
6.215132,-0.2822,0.4771,0.3459,-1.5793,0.1326,-0.9081,-31.8000,-10.2600,-29.8800,
6.235912,-0.2822,0.4771,0.3459,-1.5084,0.0096,-0.8959,-31.8000,-10.2600,-29.8800,
6.256302,-0.2822,0.4771,0.3459,-1.4120,-0.0794,-0.8751,-31.8000,-10.2600,-29.8800,
6.269041,-0.2822,0.4771,0.3459,-1.4120,-0.0794,-0.8751,-31.8000,-10.2600,-29.8800,
6.269592,-0.7318,0.5892,-0.5282,-1.4120,-0.0794,-0.8751,-31.8000,-10.2600,-29.8800,
6.273300,-0.7318,0.5892,-0.5282,-1.4120,-0.0794,-0.8751,-31.3800,-8.8200,-31.5000,
6.276881,-0.7318,0.5892,-0.5282,-1.5116,-0.2221,-0.8368,-31.3800,-8.8200,-31.5000,
6.297803,-0.7318,0.5892,-0.5282,-1.5883,-0.2503,-0.7824,-31.3800,-8.8200,-31.5000,
6.318059,-0.7318,0.5892,-0.5282,-1.5276,-0.2141,-0.7292,-31.3800,-8.8200,-31.5000,
6.329932,-0.7318,0.5892,-0.5282,-1.5276,-0.2141,-0.7292,-31.3800,-8.8200,-31.5000,
6.330441,0.0235,0.0852,-0.8429,-1.5276,-0.2141,-0.7292,-31.3800,-8.8200,-31.5000,
6.334815,0.0235,0.0852,-0.8429,-1.5276,-0.2141,-0.7292,-30.4200,-7.6200,-32.7600,
6.338385,0.0235,0.0852,-0.8429,-1.5084,-0.1672,-0.5385,-30.4200,-7.6200,-32.7600,
6.359022,0.0235,0.0852,-0.8429,-1.4914,0.0437,-0.2999,-30.4200,-7.6200,-32.7600,
6.379500,0.0235,0.0852,-0.8429,-1.3353,0.2679,-0.1976,-30.4200,-7.6200,-32.7600,
6.391886,0.0235,0.0852,-0.8429,-1.3353,0.2679,-0.1976,-30.4200,-7.6200,-32.7600,
6.392522,0.7250,1.7110,-0.5524,-1.3353,0.2679,-0.1976,-30.4200,-7.6200,-32.7600,
6.396211,0.7250,1.7110,-0.5524,-1.3353,0.2679,-0.1976,-29.6400,-6.2400,-33.6600,
6.399966,0.7250,1.7110,-0.5524,-1.1904,0.3995,-0.2147,-29.6400,-6.2400,-33.6600,
6.421033,0.7250,1.7110,-0.5524,-1.2235,0.4788,-0.2157,-29.6400,-6.2400,-33.6600,
6.441392,0.7250,1.7110,-0.5524,-1.2863,0.4000,-0.1321,-29.6400,-6.2400,-33.6600,
6.453458,0.7250,1.7110,-0.5524,-1.2863,0.4000,-0.1321,-29.6400,-6.2400,-33.6600,
6.454105,0.9481,0.4262,-0.1453,-1.2863,0.4000,-0.1321,-29.6400,-6.2400,-33.6600,
6.457978,0.9481,0.4262,-0.1453,-1.2863,0.4000,-0.1321,-29.7000,-5.1600,-33.8400,
6.461850,0.9481,0.4262,-0.1453,-1.1782,0.1380,-0.1129,-29.7000,-5.1600,-33.8400,
6.482462,0.9481,0.4262,-0.1453,-1.0200,0.2407,-0.2333,-29.7000,-5.1600,-33.8400,
6.502923,0.9481,0.4262,-0.1453,-0.8756,0.3451,-0.2205,-29.7000,-5.1600,-33.8400,
6.515839,0.9481,0.4262,-0.1453,-0.8756,0.3451,-0.2205,-29.7000,-5.1600,-33.8400,
6.516424,0.3476,-0.6504,-1.0953,-0.8756,0.3451,-0.2205,-29.7000,-5.1600,-33.8400,
6.519526,0.3476,-0.6504,-1.0953,-0.8756,0.3451,-0.2205,-29.2200,-3.6000,-33.9600,
6.523164,0.3476,-0.6504,-1.0953,-0.6413,0.4346,-0.0905,-29.2200,-3.6000,-33.9600,
6.544055,0.3476,-0.6504,-1.0953,-0.3302,0.5193,-0.1380,-29.2200,-3.6000,-33.9600,
6.564695,0.3476,-0.6504,-1.0953,-0.1763,0.4629,-0.1763,-29.2200,-3.6000,-33.9600,
6.576637,0.3476,-0.6504,-1.0953,-0.1763,0.4629,-0.1763,-29.2200,-3.6000,-33.9600,
6.577550,0.2419,0.7290,-0.5571,-0.1763,0.4629,-0.1763,-29.2200,-3.6000,-33.9600,
6.581090,0.2419,0.7290,-0.5571,-0.1763,0.4629,-0.1763,-28.8000,-1.6200,-34.5600,
6.584816,0.2419,0.7290,-0.5571,-0.2248,0.1955,-0.2147,-28.8000,-1.6200,-34.5600,
6.605853,0.2419,0.7290,-0.5571,-0.4080,-0.1422,-0.2194,-28.8000,-1.6200,-34.5600,
6.626043,0.2419,0.7290,-0.5571,-1.0274,0.8666,0.9422,-28.8000,-1.6200,-34.5600,
6.638853,0.2419,0.7290,-0.5571,-1.0274,0.8666,0.9422,-28.8000,-1.6200,-34.5600,
6.639643,3.6881,-2.2545,-0.1383,-1.0274,0.8666,0.9422,-28.8000,-1.6200,-34.5600,
6.643184,3.6881,-2.2545,-0.1383,-1.0274,0.8666,0.9422,-28.6800,0.2400,-34.5000,
6.646558,3.6881,-2.2545,-0.1383,-1.1750,1.6954,1.1707,-28.6800,0.2400,-34.5000,
6.667191,3.6881,-2.2545,-0.1383,-0.7137,1.4402,1.0184,-28.6800,0.2400,-34.5000,
6.687977,3.6881,-2.2545,-0.1383,-0.6770,1.2682,0.9161,-28.6800,0.2400,-34.5000,
6.700087,3.6881,-2.2545,-0.1383,-0.6770,1.2682,0.9161,-28.6800,0.2400,-34.5000,
6.700902,1.7138,0.1867,0.7738,-0.6770,1.2682,0.9161,-28.6800,0.2400,-34.5000,
6.705135,1.7138,0.1867,0.7738,-0.6770,1.2682,0.9161,-27.8400,2.9400,-35.5800,
6.708546,1.7138,0.1867,0.7738,-0.5699,0.2690,0.4927,-27.8400,2.9400,-35.5800,
6.728627,1.7138,0.1867,0.7738,-0.0224,-1.1372,-0.6013,-27.8400,2.9400,-35.5800,
6.749370,1.7138,0.1867,0.7738,0.4016,-1.8253,-0.5997,-27.8400,2.9400,-35.5800,
6.762016,1.7138,0.1867,0.7738,0.4016,-1.8253,-0.5997,-27.8400,2.9400,-35.5800,
6.762752,1.8805,0.9344,-2.3254,0.4016,-1.8253,-0.5997,-27.8400,2.9400,-35.5800,
6.766044,1.8805,0.9344,-2.3254,0.4016,-1.8253,-0.5997,-26.5800,5.1600,-36.0600,
6.769937,1.8805,0.9344,-2.3254,0.3185,-1.7838,-0.3744,-26.5800,5.1600,-36.0600,
6.790789,1.8805,0.9344,-2.3254,-0.4362,-1.0589,-0.4155,-26.5800,5.1600,-36.0600,
6.811189,1.8805,0.9344,-2.3254,-1.2149,0.1806,-0.0740,-26.5800,5.1600,-36.0600,
6.822949,1.8805,0.9344,-2.3254,-1.2149,0.1806,-0.0740,-26.5800,5.1600,-36.0600,
6.823477,-3.1435,-1.4008,0.1261,-1.2149,0.1806,-0.0740,-26.5800,5.1600,-36.0600,
6.827708,-3.1435,-1.4008,0.1261,-1.2149,0.1806,-0.0740,-26.4000,6.2400,-35.9400,
6.831072,-3.1435,-1.4008,0.1261,-1.0701,1.0530,0.3547,-26.4000,6.2400,-35.9400,
6.852198,-3.1435,-1.4008,0.1261,-0.0932,0.5364,0.1891,-26.4000,6.2400,-35.9400,
6.873139,-3.1435,-1.4008,0.1261,0.6743,0.1268,0.0352,-26.4000,6.2400,-35.9400,
6.885403,-3.1435,-1.4008,0.1261,0.6743,0.1268,0.0352,-26.4000,6.2400,-35.9400,
6.885873,0.7606,0.5453,-2.1399,0.6743,0.1268,0.0352,-26.4000,6.2400,-35.9400,
6.889890,0.7606,0.5453,-2.1399,0.6743,0.1268,0.0352,-26.2800,7.4400,-36.1800,
6.893038,0.7606,0.5453,-2.1399,0.4293,-0.1726,0.0245,-26.2800,7.4400,-36.1800,
6.913783,0.7606,0.5453,-2.1399,-0.0378,-0.5657,0.0021,-26.2800,7.4400,-36.1800,
6.934228,0.7606,0.5453,-2.1399,-0.2919,-0.7830,-0.0288,-26.2800,7.4400,-36.1800,
6.946358,0.7606,0.5453,-2.1399,-0.2919,-0.7830,-0.0288,-26.2800,7.4400,-36.1800,
6.946914,1.0533,-0.1291,-0.9693,-0.2919,-0.7830,-0.0288,-26.2800,7.4400,-36.1800,
6.950430,1.0533,-0.1291,-0.9693,-0.2919,-0.7830,-0.0288,-26.4000,8.2200,-35.6400,
6.954896,1.0533,-0.1291,-0.9693,-0.3611,-1.1073,-0.0421,-26.4000,8.2200,-35.6400,
6.975026,1.0533,-0.1291,-0.9693,-0.2168,-1.0253,0.2413,-26.4000,8.2200,-35.6400,
6.995592,1.0533,-0.1291,-0.9693,0.0229,-0.1166,0.5561,-26.4000,8.2200,-35.6400,
7.008252,1.0533,-0.1291,-0.9693,0.0229,-0.1166,0.5561,-26.4000,8.2200,-35.6400,
7.008979,0.0673,-0.7653,-0.9108,0.0229,-0.1166,0.5561,-26.4000,8.2200,-35.6400,
7.012488,0.0673,-0.7653,-0.9108,0.0229,-0.1166,0.5561,-27.3600,7.8600,-33.8400,
7.016114,0.0673,-0.7653,-0.9108,0.0362,0.3760,0.4432,-27.3600,7.8600,-33.8400,
7.036707,0.0673,-0.7653,-0.9108,0.1688,0.3952,0.4469,-27.3600,7.8600,-33.8400,
7.057791,0.0673,-0.7653,-0.9108,0.5774,0.1406,0.7297,-27.3600,7.8600,-33.8400,
7.070403,0.0673,-0.7653,-0.9108,0.5774,0.1406,0.7297,-27.3600,7.8600,-33.8400,
7.071044,0.0613,-1.5119,0.6479,0.5774,0.1406,0.7297,-27.3600,7.8600,-33.8400,
7.076241,0.0613,-1.5119,0.6479,0.5774,0.1406,0.7297,-27.6600,8.6400,-33.0000,
7.078062,0.0613,-1.5119,0.6479,0.9848,0.0831,1.2959,-27.6600,8.6400,-33.0000,
7.098624,0.0613,-1.5119,0.6479,1.1196,0.6104,2.1529,-27.6600,8.6400,-33.0000,
7.119255,0.0613,-1.5119,0.6479,0.9204,1.4828,2.7708,-27.6600,8.6400,-33.0000,
7.131306,0.0613,-1.5119,0.6479,0.9204,1.4828,2.7708,-27.6600,8.6400,-33.0000,
7.131663,0.2693,-2.1403,-1.5111,0.9204,1.4828,2.7708,-27.6600,8.6400,-33.0000,
7.135711,0.2693,-2.1403,-1.5111,0.9204,1.4828,2.7708,-27.7200,9.3600,-32.4000,
7.139339,0.2693,-2.1403,-1.5111,0.6386,2.0016,3.3566,-27.7200,9.3600,-32.4000,
7.159952,0.2693,-2.1403,-1.5111,0.6221,1.3502,3.9793,-27.7200,9.3600,-32.4000,
7.180801,0.2693,-2.1403,-1.5111,0.6930,0.5790,4.1801,-27.7200,9.3600,-32.4000,
7.192719,0.2693,-2.1403,-1.5111,0.6930,0.5790,4.1801,-27.7200,9.3600,-32.4000,
7.193648,3.9080,-2.6761,-0.9950,0.6930,0.5790,4.1801,-27.7200,9.3600,-32.4000,
7.197068,3.9080,-2.6761,-0.9950,0.6930,0.5790,4.1801,-27.1200,10.0800,-32.9400,
7.201368,3.9080,-2.6761,-0.9950,0.7004,-0.2051,3.5857,-27.1200,10.0800,-32.9400,
7.225662,3.9080,-2.6761,-0.9950,0.1348,-0.9529,2.4480,-27.1200,10.0800,-32.9400,
7.242010,3.9080,-2.6761,-0.9950,0.2322,-0.9438,1.4685,-27.1200,10.0800,-32.9400,
7.254128,3.9080,-2.6761,-0.9950,0.2322,-0.9438,1.4685,-27.1200,10.0800,-32.9400,
7.254752,2.0931,2.6024,-1.4296,0.2322,-0.9438,1.4685,-27.1200,10.0800,-32.9400,
7.259177,2.0931,2.6024,-1.4296,0.2322,-0.9438,1.4685,-25.2000,12.6600,-34.8000,
7.262241,2.0931,2.6024,-1.4296,0.7819,0.4527,0.6147,-25.2000,12.6600,-34.8000,
7.282812,2.0931,2.6024,-1.4296,1.0125,1.0200,0.1220,-25.2000,12.6600,-34.8000,
7.304125,2.0931,2.6024,-1.4296,0.7744,0.0021,-0.5470,-25.2000,12.6600,-34.8000,
7.315759,2.0931,2.6024,-1.4296,0.7744,0.0021,-0.5470,-25.2000,12.6600,-34.8000,
7.316375,0.8000,-1.7496,0.3155,0.7744,0.0021,-0.5470,-25.2000,12.6600,-34.8000,
7.320253,0.8000,-1.7496,0.3155,0.7744,0.0021,-0.5470,-22.5600,14.5800,-35.6400,
7.323974,0.8000,-1.7496,0.3155,0.8192,0.1241,-0.9401,-22.5600,14.5800,-35.6400,
7.344780,0.8000,-1.7496,0.3155,0.5790,0.2802,-1.1745,-22.5600,14.5800,-35.6400,
7.365047,0.8000,-1.7496,0.3155,0.4197,0.0836,-1.4530,-22.5600,14.5800,-35.6400,
7.377564,0.8000,-1.7496,0.3155,0.4197,0.0836,-1.4530,-22.5600,14.5800,-35.6400,
7.378432,0.2636,0.4279,-0.7393,0.4197,0.0836,-1.4530,-22.5600,14.5800,-35.6400,
7.381815,0.2636,0.4279,-0.7393,0.4197,0.0836,-1.4530,-19.8600,15.7800,-36.9000,
7.386917,0.2636,0.4279,-0.7393,0.4895,0.5369,-1.5990,-19.8600,15.7800,-36.9000,
7.405842,0.2636,0.4279,-0.7393,0.4240,0.5119,-1.2112,-19.8600,15.7800,-36.9000,
7.426946,0.2636,0.4279,-0.7393,0.4453,0.2839,-0.9848,-19.8600,15.7800,-36.9000,
7.439235,0.2636,0.4279,-0.7393,0.4453,0.2839,-0.9848,-19.8600,15.7800,-36.9000,
7.440064,0.0361,-1.5013,-0.9808,0.4453,0.2839,-0.9848,-19.8600,15.7800,-36.9000,
7.443482,0.0361,-1.5013,-0.9808,0.4453,0.2839,-0.9848,-18.3000,15.4200,-37.9200,
7.447343,0.0361,-1.5013,-0.9808,0.3419,0.3105,-1.0104,-18.3000,15.4200,-37.9200,
7.467859,0.0361,-1.5013,-0.9808,0.1651,0.2924,-0.6946,-18.3000,15.4200,-37.9200,
7.488566,0.0361,-1.5013,-0.9808,0.2120,0.3281,-0.1720,-18.3000,15.4200,-37.9200,
7.500903,0.0361,-1.5013,-0.9808,0.2120,0.3281,-0.1720,-18.3000,15.4200,-37.9200,
7.501509,-0.9069,0.9211,-0.5401,0.2120,0.3281,-0.1720,-18.3000,15.4200,-37.9200,
7.505634,-0.9069,0.9211,-0.5401,0.2120,0.3281,-0.1720,-18.1200,13.6200,-37.9800,
7.509624,-0.9069,0.9211,-0.5401,0.1395,0.4091,0.0549,-18.1200,13.6200,-37.9800,
7.529923,-0.9069,0.9211,-0.5401,0.0341,0.1630,0.0027,-18.1200,13.6200,-37.9800,
7.550157,-0.9069,0.9211,-0.5401,-0.0352,0.0634,0.0613,-18.1200,13.6200,-37.9800,
7.562481,-0.9069,0.9211,-0.5401,-0.0352,0.0634,0.0613,-18.1200,13.6200,-37.9800,
7.563034,-0.1219,-0.6312,-0.9973,-0.0352,0.0634,0.0613,-18.1200,13.6200,-37.9800,
7.566788,-0.1219,-0.6312,-0.9973,-0.0352,0.0634,0.0613,-18.3000,11.3400,-39.1800,
7.570543,-0.1219,-0.6312,-0.9973,-0.0517,0.3334,0.3084,-18.3000,11.3400,-39.1800,
7.591374,-0.1219,-0.6312,-0.9973,-0.0080,0.3696,0.4730,-18.3000,11.3400,-39.1800,
7.611816,-0.1219,-0.6312,-0.9973,-0.0293,0.5428,0.4938,-18.3000,11.3400,-39.1800,
7.624757,-0.1219,-0.6312,-0.9973,-0.0293,0.5428,0.4938,-18.3000,11.3400,-39.1800,
7.625782,-0.1650,0.0176,-0.1611,-0.0293,0.5428,0.4938,-18.3000,11.3400,-39.1800,
7.628469,-0.1650,0.0176,-0.1611,-0.0293,0.5428,0.4938,-18.7200,9.9600,-39.7800,
7.631692,-0.1650,0.0176,-0.1611,-0.1758,0.5188,0.4767,-18.7200,9.9600,-39.7800,
7.652533,-0.1650,0.0176,-0.1611,-0.3047,0.1960,0.5198,-18.7200,9.9600,-39.7800,
7.673527,-0.1650,0.0176,-0.1611,0.0682,-0.1784,0.5103,-18.7200,9.9600,-39.7800,
7.685675,-0.1650,0.0176,-0.1611,0.0682,-0.1784,0.5103,-18.7200,9.9600,-39.7800,
7.686120,0.5205,-0.4827,-0.8327,0.0682,-0.1784,0.5103,-18.7200,9.9600,-39.7800,
7.690684,0.5205,-0.4827,-0.8327,0.0682,-0.1784,0.5103,-18.7800,9.4200,-39.9000,
7.693958,0.5205,-0.4827,-0.8327,0.2093,0.3451,0.3888,-18.7800,9.4200,-39.9000,
7.714951,0.5205,-0.4827,-0.8327,0.1976,0.4847,0.2700,-18.7800,9.4200,-39.9000,
7.734927,0.5205,-0.4827,-0.8327,0.1044,0.4490,0.3095,-18.7800,9.4200,-39.9000,
7.746799,0.5205,-0.4827,-0.8327,0.1044,0.4490,0.3095,-18.7800,9.4200,-39.9000,
7.747197,0.4718,-0.7868,-0.2102,0.1044,0.4490,0.3095,-18.7800,9.4200,-39.9000,
7.772685,0.4718,-0.7868,-0.2102,0.1044,0.4490,0.3095,-17.6400,9.9000,-40.2000,
7.773360,0.4718,-0.7868,-0.2102,0.0692,0.3148,0.2716,-17.6400,9.9000,-40.2000,
7.775334,0.4718,-0.7868,-0.2102,-0.0442,0.3041,0.2551,-17.6400,9.9000,-40.2000,
7.796438,0.4718,-0.7868,-0.2102,0.0043,0.1843,0.2083,-17.6400,9.9000,-40.2000,
7.808232,0.4718,-0.7868,-0.2102,0.0043,0.1843,0.2083,-17.6400,9.9000,-40.2000,
7.808592,0.2884,-2.2011,0.9645,0.0043,0.1843,0.2083,-17.6400,9.9000,-40.2000,
7.812854,0.2884,-2.2011,0.9645,0.0043,0.1843,0.2083,-16.2000,9.7800,-41.1600,
7.817552,0.2884,-2.2011,0.9645,0.3483,-0.1156,0.0799,-16.2000,9.7800,-41.1600,
7.846284,0.2884,-2.2011,0.9645,0.4437,-0.0383,-0.0240,-16.2000,9.7800,-41.1600,
7.857677,0.2884,-2.2011,0.9645,0.3899,0.0778,-0.0277,-16.2000,9.7800,-41.1600,
7.870614,0.2884,-2.2011,0.9645,0.3899,0.0778,-0.0277,-16.2000,9.7800,-41.1600,
7.872384,-0.1113,-1.7615,0.2012,0.3899,0.0778,-0.0277,-16.2000,9.7800,-41.1600,
7.874597,-0.1113,-1.7615,0.2012,0.3899,0.0778,-0.0277,-14.8800,9.7800,-41.9400,
7.880277,-0.1113,-1.7615,0.2012,0.4288,-0.0192,0.0858,-14.8800,9.7800,-41.9400,
7.898589,-0.1113,-1.7615,0.2012,0.4613,-0.0107,0.3057,-14.8800,9.7800,-41.9400,
7.919455,-0.1113,-1.7615,0.2012,0.2844,-0.1971,0.6376,-14.8800,9.7800,-41.9400,
7.931417,-0.1113,-1.7615,0.2012,0.2844,-0.1971,0.6376,-14.8800,9.7800,-41.9400,
7.932083,-0.6921,-1.3049,-0.4324,0.2844,-0.1971,0.6376,-14.8800,9.7800,-41.9400,
7.936186,-0.6921,-1.3049,-0.4324,0.2844,-0.1971,0.6376,-13.5600,9.8400,-42.1200,
7.939612,-0.6921,-1.3049,-0.4324,0.2061,-0.3707,0.9460,-13.5600,9.8400,-42.1200,
7.960442,-0.6921,-1.3049,-0.4324,0.4325,-0.1987,1.1430,-13.5600,9.8400,-42.1200,
7.980562,-0.6921,-1.3049,-0.4324,0.5374,0.0240,1.0567,-13.5600,9.8400,-42.1200,
7.993280,-0.6921,-1.3049,-0.4324,0.5374,0.0240,1.0567,-13.5600,9.8400,-42.1200,
7.993765,1.7482,-1.9916,-0.4825,0.5374,0.0240,1.0567,-13.5600,9.8400,-42.1200,
7.997517,1.7482,-1.9916,-0.4825,0.5374,0.0240,1.0567,-13.5000,8.5800,-42.7800,
8.001139,1.7482,-1.9916,-0.4825,0.6061,-0.3633,0.9513,-13.5000,8.5800,-42.7800,
8.021800,1.7482,-1.9916,-0.4825,1.0104,-0.3409,0.8746,-13.5000,8.5800,-42.7800,
8.042209,1.7482,-1.9916,-0.4825,1.2506,-0.2876,0.9294,-13.5000,8.5800,-42.7800,
8.054333,1.7482,-1.9916,-0.4825,1.2506,-0.2876,0.9294,-13.5000,8.5800,-42.7800,
8.054916,0.4205,-0.2585,-0.5974,1.2506,-0.2876,0.9294,-13.5000,8.5800,-42.7800,
8.059117,0.4205,-0.2585,-0.5974,1.2506,-0.2876,0.9294,-13.3800,9.1800,-42.4800,
8.062788,0.4205,-0.2585,-0.5974,1.2943,-0.3052,1.0717,-13.3800,9.1800,-42.4800,
8.083261,0.4205,-0.2585,-0.5974,1.2298,-0.8650,1.1516,-13.3800,9.1800,-42.4800,
8.104081,0.4205,-0.2585,-0.5974,1.1356,-1.3028,1.2123,-13.3800,9.1800,-42.4800,
8.116183,0.4205,-0.2585,-0.5974,1.1356,-1.3028,1.2123,-13.3800,9.1800,-42.4800,
8.116607,0.4289,-0.5684,-0.0785,1.1356,-1.3028,1.2123,-13.3800,9.1800,-42.4800,
8.121261,0.4289,-0.5684,-0.0785,1.1356,-1.3028,1.2123,-13.5600,8.4600,-42.3000,
8.124433,0.4289,-0.5684,-0.0785,0.8874,-1.3023,1.2251,-13.5600,8.4600,-42.3000,
8.145126,0.4289,-0.5684,-0.0785,0.6503,-1.3742,1.1500,-13.5600,8.4600,-42.3000,
8.165381,0.4289,-0.5684,-0.0785,0.7723,-2.2541,0.8756,-13.5600,8.4600,-42.3000,
8.177916,0.4289,-0.5684,-0.0785,0.7723,-2.2541,0.8756,-13.5600,8.4600,-42.3000,
8.178579,5.0861,-1.0110,6.3824,0.7723,-2.2541,0.8756,-13.5600,8.4600,-42.3000,
8.182039,5.0861,-1.0110,6.3824,0.7723,-2.2541,0.8756,-14.1000,7.6200,-43.2000,
8.186480,5.0861,-1.0110,6.3824,1.4418,-4.5220,0.0682,-14.1000,7.6200,-43.2000,
8.206660,5.0861,-1.0110,6.3824,1.8477,-5.4419,-0.1081,-14.1000,7.6200,-43.2000,
8.227269,5.0861,-1.0110,6.3824,1.8104,-5.1319,0.0266,-14.1000,7.6200,-43.2000,
8.239474,5.0861,-1.0110,6.3824,1.8104,-5.1319,0.0266,-14.1000,7.6200,-43.2000,
8.240052,-3.4526,0.9553,-1.4605,1.8104,-5.1319,0.0266,-14.1000,7.6200,-43.2000,
8.244559,-3.4526,0.9553,-1.4605,1.8104,-5.1319,0.0266,-15.9000,7.2600,-41.4000,
8.247584,-3.4526,0.9553,-1.4605,1.5255,-4.3766,0.3382,-15.9000,7.2600,-41.4000,
8.267932,-3.4526,0.9553,-1.4605,1.8072,-0.9864,1.0701,-15.9000,7.2600,-41.4000,
8.288692,-3.4526,0.9553,-1.4605,1.5787,0.7404,1.3737,-15.9000,7.2600,-41.4000,
8.300770,-3.4526,0.9553,-1.4605,1.5787,0.7404,1.3737,-15.9000,7.2600,-41.4000,
8.301246,1.3371,1.5247,1.7380,1.5787,0.7404,1.3737,-15.9000,7.2600,-41.4000,
8.305779,1.3371,1.5247,1.7380,1.5787,0.7404,1.3737,-20.8200,4.8000,-38.2200,
8.308952,1.3371,1.5247,1.7380,1.6038,-0.0021,1.3955,-20.8200,4.8000,-38.2200,
8.329798,1.3371,1.5247,1.7380,2.0011,-0.7452,1.1878,-20.8200,4.8000,-38.2200,
8.350058,1.3371,1.5247,1.7380,2.2461,-0.7009,0.9816,-20.8200,4.8000,-38.2200,
8.364413,1.3371,1.5247,1.7380,2.2461,-0.7009,0.9816,-20.8200,4.8000,-38.2200,
8.364930,0.7639,0.4104,0.0064,2.2461,-0.7009,0.9816,-20.8200,4.8000,-38.2200,
8.367317,0.7639,0.4104,0.0064,2.2461,-0.7009,0.9816,-25.6800,2.7000,-34.9800,
8.371240,0.7639,0.4104,0.0064,2.1470,-0.8336,0.8480,-25.6800,2.7000,-34.9800,
8.391274,0.7639,0.4104,0.0064,1.8690,-1.0179,0.7265,-25.6800,2.7000,-34.9800,
8.412595,0.7639,0.4104,0.0064,1.5745,-1.1446,0.5902,-25.6800,2.7000,-34.9800,
8.424196,0.7639,0.4104,0.0064,1.5745,-1.1446,0.5902,-25.6800,2.7000,-34.9800,
8.424638,1.3751,0.6909,-1.3676,1.5745,-1.1446,0.5902,-25.6800,2.7000,-34.9800,
8.430613,1.3751,0.6909,-1.3676,1.5745,-1.1446,0.5902,-30.7800,0.9000,-30.3000,
8.432743,1.3751,0.6909,-1.3676,1.3097,-1.2432,0.4501,-30.7800,0.9000,-30.3000,
8.453975,1.3751,0.6909,-1.3676,1.1824,-1.2932,0.3627,-30.7800,0.9000,-30.3000,
8.473605,1.3751,0.6909,-1.3676,1.1856,-1.3390,0.2040,-30.7800,0.9000,-30.3000,
8.486674,1.3751,0.6909,-1.3676,1.1856,-1.3390,0.2040,-30.7800,0.9000,-30.3000,
8.489925,0.4872,0.5177,-0.4922,1.1856,-1.3390,0.2040,-30.7800,0.9000,-30.3000,
8.490539,0.4872,0.5177,-0.4922,1.1856,-1.3390,0.2040,-34.9800,-1.2000,-27.0000,
8.496221,0.4872,0.5177,-0.4922,1.2341,-1.2959,-0.0266,-34.9800,-1.2000,-27.0000,
8.515132,0.4872,0.5177,-0.4922,1.2053,-1.1856,-0.2573,-34.9800,-1.2000,-27.0000,
8.535409,0.4872,0.5177,-0.4922,0.9140,-1.0099,-0.3947,-34.9800,-1.2000,-27.0000,
8.551636,0.4872,0.5177,-0.4922,0.9140,-1.0099,-0.3947,-34.9800,-1.2000,-27.0000,
8.552634,-0.1931,0.3462,-0.9143,0.9140,-1.0099,-0.3947,-34.9800,-1.2000,-27.0000,
8.554123,-0.1931,0.3462,-0.9143,0.9140,-1.0099,-0.3947,-36.6600,-2.4600,-25.0200,
8.557150,-0.1931,0.3462,-0.9143,0.6898,-1.0019,-0.4629,-36.6600,-2.4600,-25.0200,
8.581467,-0.1931,0.3462,-0.9143,0.5465,-0.9886,-0.4724,-36.6600,-2.4600,-25.0200,
8.597020,-0.1931,0.3462,-0.9143,0.5561,-0.8895,-0.4554,-36.6600,-2.4600,-25.0200,
8.608931,-0.1931,0.3462,-0.9143,0.5561,-0.8895,-0.4554,-36.6600,-2.4600,-25.0200,
8.609515,-0.5539,-0.0977,0.9912,0.5561,-0.8895,-0.4554,-36.6600,-2.4600,-25.0200,
8.613588,-0.5539,-0.0977,0.9912,0.5561,-0.8895,-0.4554,-38.5200,-4.0800,-22.4400,
8.617091,-0.5539,-0.0977,0.9912,0.5918,-0.8538,-0.3728,-38.5200,-4.0800,-22.4400,
8.637621,-0.5539,-0.0977,0.9912,0.5236,-0.7430,-0.3579,-38.5200,-4.0800,-22.4400,
8.658111,-0.5539,-0.0977,0.9912,0.4426,-0.7537,-0.4304,-38.5200,-4.0800,-22.4400,
8.670235,-0.5539,-0.0977,0.9912,0.4426,-0.7537,-0.4304,-38.5200,-4.0800,-22.4400,
8.670879,0.1124,0.2011,1.0745,0.4426,-0.7537,-0.4304,-38.5200,-4.0800,-22.4400,
8.674819,0.1124,0.2011,1.0745,0.4426,-0.7537,-0.4304,-40.0200,-5.7600,-20.2800,
8.678821,0.1124,0.2011,1.0745,0.5294,-1.0099,-0.4304,-40.0200,-5.7600,-20.2800,
8.699378,0.1124,0.2011,1.0745,0.7579,-0.9982,-0.3856,-40.0200,-5.7600,-20.2800,
8.719833,0.1124,0.2011,1.0745,0.8549,-0.6722,-0.3782,-40.0200,-5.7600,-20.2800,
8.732240,0.1124,0.2011,1.0745,0.8549,-0.6722,-0.3782,-40.0200,-5.7600,-20.2800,
8.732948,0.5099,0.0530,0.1315,0.8549,-0.6722,-0.3782,-40.0200,-5.7600,-20.2800,
8.737345,0.5099,0.0530,0.1315,0.8549,-0.6722,-0.3782,-41.1600,-7.3200,-17.8800,
8.740293,0.5099,0.0530,0.1315,0.6621,-0.4394,-0.3941,-41.1600,-7.3200,-17.8800,
8.760837,0.5099,0.0530,0.1315,0.4522,-0.3840,-0.4160,-41.1600,-7.3200,-17.8800,
8.781448,0.5099,0.0530,0.1315,0.3819,-0.4607,-0.4703,-41.1600,-7.3200,-17.8800,
8.793677,0.5099,0.0530,0.1315,0.3819,-0.4607,-0.4703,-41.1600,-7.3200,-17.8800,
8.794391,0.2308,-0.1887,0.7935,0.3819,-0.4607,-0.4703,-41.1600,-7.3200,-17.8800,
8.798264,0.2308,-0.1887,0.7935,0.3819,-0.4607,-0.4703,-40.9200,-8.7000,-15.3600,
8.802722,0.2308,-0.1887,0.7935,0.5214,-0.6242,-0.4639,-40.9200,-8.7000,-15.3600,
8.822367,0.2308,-0.1887,0.7935,0.7047,-0.7153,-0.3984,-40.9200,-8.7000,-15.3600,
8.843386,0.2308,-0.1887,0.7935,0.7542,-0.5321,-0.3366,-40.9200,-8.7000,-15.3600,
8.855626,0.2308,-0.1887,0.7935,0.7542,-0.5321,-0.3366,-40.9200,-8.7000,-15.3600,
8.856298,0.4145,-0.3764,-0.1094,0.7542,-0.5321,-0.3366,-40.9200,-8.7000,-15.3600,
8.859937,0.4145,-0.3764,-0.1094,0.7542,-0.5321,-0.3366,-40.8000,-9.6000,-12.9000,
8.863462,0.4145,-0.3764,-0.1094,0.6088,-0.2919,-0.3558,-40.8000,-9.6000,-12.9000,
8.884149,0.4145,-0.3764,-0.1094,0.3931,-0.1145,-0.3878,-40.8000,-9.6000,-12.9000,
8.904462,0.4145,-0.3764,-0.1094,0.3313,-0.1651,-0.3446,-40.8000,-9.6000,-12.9000,
8.916581,0.4145,-0.3764,-0.1094,0.3313,-0.1651,-0.3446,-40.8000,-9.6000,-12.9000,
8.917158,0.1904,-0.3351,0.3630,0.3313,-0.1651,-0.3446,-40.8000,-9.6000,-12.9000,
8.921231,0.1904,-0.3351,0.3630,0.3313,-0.1651,-0.3446,-40.6200,-10.6800,-10.4400,
8.924963,0.1904,-0.3351,0.3630,0.4112,-0.2376,-0.2716,-40.6200,-10.6800,-10.4400,
8.945622,0.1904,-0.3351,0.3630,0.4948,-0.1507,-0.2413,-40.6200,-10.6800,-10.4400,
8.966017,0.1904,-0.3351,0.3630,0.3638,-0.0421,-0.2445,-40.6200,-10.6800,-10.4400,
8.978496,0.1904,-0.3351,0.3630,0.3638,-0.0421,-0.2445,-40.6200,-10.6800,-10.4400,
8.979019,0.2413,0.1874,-0.7610,0.3638,-0.0421,-0.2445,-40.6200,-10.6800,-10.4400,
8.983017,0.2413,0.1874,-0.7610,0.3638,-0.0421,-0.2445,-40.0800,-11.7000,-8.4000,
8.986677,0.2413,0.1874,-0.7610,0.2599,0.1891,-0.2929,-40.0800,-11.7000,-8.4000,
9.007221,0.2413,0.1874,-0.7610,0.0250,0.0597,-0.2663,-40.0800,-11.7000,-8.4000,
9.027688,0.2413,0.1874,-0.7610,-0.1326,-0.1049,-0.1875,-40.0800,-11.7000,-8.4000,
9.039797,0.2413,0.1874,-0.7610,-0.1326,-0.1049,-0.1875,-40.0800,-11.7000,-8.4000,
9.040201,0.0342,0.1648,-0.2482,-0.1326,-0.1049,-0.1875,-40.0800,-11.7000,-8.4000,
9.044470,0.0342,0.1648,-0.2482,-0.1326,-0.1049,-0.1875,-40.3800,-12.9000,-6.7200,
9.048069,0.0342,0.1648,-0.2482,-0.1949,-0.1108,-0.1177,-40.3800,-12.9000,-6.7200,
9.069000,0.0342,0.1648,-0.2482,-0.1816,0.0447,-0.0549,-40.3800,-12.9000,-6.7200,
