
time,ax,ay,az,wx,wy,wz,Bx,By,Bz,
0.025319,0.0000,0.0000,0.0000,-0.0362,-0.1103,-0.0394,0.0000,0.0000,0.0000,
0.045417,0.0000,0.0000,0.0000,-0.0362,-0.1103,-0.0394,0.0000,0.0000,0.0000,
0.045929,0.0000,0.0000,0.0000,-0.0362,-0.1103,-0.0394,-9.6600,39.0000,-18.1800,
0.046322,0.0000,0.0000,0.0000,-0.0362,-0.1103,-0.0394,-9.6600,39.0000,-18.1800,
0.065276,0.0000,0.0000,0.0000,-0.0362,-0.1103,-0.0394,-9.6600,39.0000,-18.1800,
0.085724,0.0000,0.0000,0.0000,0.0570,0.2189,-0.0831,-9.6600,39.0000,-18.1800,
0.106982,0.0000,0.0000,0.0000,0.0570,0.2189,-0.0831,-9.6600,39.0000,-18.1800,
0.107670,0.0752,0.0795,-0.0304,0.0570,0.2189,-0.0831,-9.6600,39.0000,-18.1800,
0.108267,0.0752,0.0795,-0.0304,0.0570,0.2189,-0.0831,-14.5800,33.6000,-23.9400,
0.108719,0.0752,0.0795,-0.0304,0.0469,0.3388,-0.0831,-14.5800,33.6000,-23.9400,
0.126870,0.0752,0.0795,-0.0304,-0.2290,0.7814,-0.1550,-14.5800,33.6000,-23.9400,
0.147914,0.0752,0.0795,-0.0304,-0.7840,1.8152,-0.3659,-14.5800,33.6000,-23.9400,
0.168572,0.0752,0.0795,-0.0304,-0.7840,1.8152,-0.3659,-14.5800,33.6000,-23.9400,
0.169373,0.0752,0.0795,-0.0304,-0.7840,1.8152,-0.3659,-17.1600,30.9000,-27.1200,
0.170088,0.0752,0.0795,-0.0304,-0.4554,1.3156,-0.5561,-17.1600,30.9000,-27.1200,
0.170828,-0.7953,-0.5404,0.6258,-0.4554,1.3156,-0.5561,-17.1600,30.9000,-27.1200,
0.188543,-0.7953,-0.5404,0.6258,0.3499,-0.1539,-0.0421,-17.1600,30.9000,-27.1200,
0.208544,-0.7953,-0.5404,0.6258,0.2850,0.2940,0.0719,-17.1600,30.9000,-27.1200,
0.230179,-0.7953,-0.5404,0.6258,0.2850,0.2940,0.0719,-17.1600,30.9000,-27.1200,
0.230782,-0.7953,-0.5404,0.6258,0.2850,0.2940,0.0719,-19.6800,27.6600,-30.8400,
0.231223,-0.7953,-0.5404,0.6258,-0.1161,0.2269,-0.0101,-19.6800,27.6600,-30.8400,
0.231493,-0.0642,-0.5016,-0.3260,-0.1161,0.2269,-0.0101,-19.6800,27.6600,-30.8400,
0.250273,-0.0642,-0.5016,-0.3260,-0.1763,-0.1172,-0.0368,-19.6800,27.6600,-30.8400,
0.270587,-0.0642,-0.5016,-0.3260,-0.0501,0.0160,-0.0735,-19.6800,27.6600,-30.8400,
0.291647,-0.0642,-0.5016,-0.3260,-0.0501,0.0160,-0.0735,-19.6800,27.6600,-30.8400,
0.292159,-0.0642,-0.5016,-0.3260,-0.0501,0.0160,-0.0735,-19.0200,27.0600,-32.5200,
0.292641,-0.0642,-0.5016,-0.3260,0.0197,0.1012,-0.0591,-19.0200,27.0600,-32.5200,
0.292980,-0.1466,0.1323,-0.0218,0.0197,0.1012,-0.0591,-19.0200,27.0600,-32.5200,
0.312297,-0.1466,0.1323,-0.0218,0.0623,0.1630,-0.0549,-19.0200,27.0600,-32.5200,
0.331776,-0.1466,0.1323,-0.0218,-0.0059,0.1422,-0.0687,-19.0200,27.0600,-32.5200,
0.353766,-0.1466,0.1323,-0.0218,-0.0059,0.1422,-0.0687,-19.0200,27.0600,-32.5200,
0.354369,-0.1466,0.1323,-0.0218,-0.0059,0.1422,-0.0687,-19.2600,26.9400,-32.6400,
0.355157,-0.1466,0.1323,-0.0218,-0.1401,0.0943,-0.1518,-19.2600,26.9400,-32.6400,
0.355572,0.0680,0.1129,-0.3038,-0.1401,0.0943,-0.1518,-19.2600,26.9400,-32.6400,
0.373528,0.0680,0.1129,-0.3038,-0.1502,0.1055,-0.2988,-19.2600,26.9400,-32.6400,
0.393969,0.0680,0.1129,-0.3038,0.0096,0.4511,-0.3574,-19.2600,26.9400,-32.6400,
0.415069,0.0680,0.1129,-0.3038,0.0096,0.4511,-0.3574,-19.2600,26.9400,-32.6400,
0.415762,-0.4047,0.5426,0.0180,0.0096,0.4511,-0.3574,-19.2600,26.9400,-32.6400,
0.416588,-0.4047,0.5426,0.0180,0.0096,0.4511,-0.3574,-18.6000,26.6400,-32.9400,
0.417191,-0.4047,0.5426,0.0180,0.1081,0.7292,-0.5017,-18.6000,26.6400,-32.9400,
0.434487,-0.4047,0.5426,0.0180,0.2684,1.3049,-1.0631,-18.6000,26.6400,-32.9400,
0.455550,-0.4047,0.5426,0.0180,0.4570,2.3452,-1.3673,-18.6000,26.6400,-32.9400,
0.476748,-0.4047,0.5426,0.0180,0.4570,2.3452,-1.3673,-18.6000,26.6400,-32.9400,
0.477424,-0.4047,0.5426,0.0180,0.4570,2.3452,-1.3673,-18.5400,26.2800,-33.0000,
0.478071,-0.4047,0.5426,0.0180,1.0163,4.1018,-0.1928,-18.5400,26.2800,-33.0000,
0.478677,-0.8104,0.0686,-1.6997,1.0163,4.1018,-0.1928,-18.5400,26.2800,-33.0000,
0.496574,-0.8104,0.0686,-1.6997,-0.1603,2.8192,0.2269,-18.5400,26.2800,-33.0000,
0.517102,-0.8104,0.0686,-1.6997,-1.2762,1.5963,-0.0293,-18.5400,26.2800,-33.0000,
0.538135,-0.8104,0.0686,-1.6997,-1.2762,1.5963,-0.0293,-18.5400,26.2800,-33.0000,
0.538437,-0.8104,0.0686,-1.6997,-1.2762,1.5963,-0.0293,-18.0600,26.1000,-33.1800,
0.538768,-0.8104,0.0686,-1.6997,-1.6421,0.6045,-0.1912,-18.0600,26.1000,-33.1800,
0.539060,0.1586,0.1572,2.0463,-1.6421,0.6045,-0.1912,-18.0600,26.1000,-33.1800,
0.558170,0.1586,0.1572,2.0463,-0.7872,-0.0597,-0.0037,-18.0600,26.1000,-33.1800,
0.579100,0.1586,0.1572,2.0463,0.0895,-1.0024,0.3478,-18.0600,26.1000,-33.1800,
0.599996,0.1586,0.1572,2.0463,0.0895,-1.0024,0.3478,-18.0600,26.1000,-33.1800,
0.600537,0.1586,0.1572,2.0463,0.0895,-1.0024,0.3478,-15.9600,26.3400,-34.3200,
0.601018,0.1586,0.1572,2.0463,0.6322,-0.7835,0.3787,-15.9600,26.3400,-34.3200,
0.601709,1.4061,-2.8386,0.7248,0.6322,-0.7835,0.3787,-15.9600,26.3400,-34.3200,
0.619889,1.4061,-2.8386,0.7248,0.4389,-0.5667,0.1465,-15.9600,26.3400,-34.3200,
0.640014,1.4061,-2.8386,0.7248,-0.1806,-1.2261,0.0618,-15.9600,26.3400,-34.3200,
0.662007,1.4061,-2.8386,0.7248,-0.1806,-1.2261,0.0618,-15.9600,26.3400,-34.3200,
0.662561,1.4061,-2.8386,0.7248,-0.1806,-1.2261,0.0618,-14.9400,26.2800,-34.7400,
0.663087,1.4061,-2.8386,0.7248,-0.6940,-1.8536,0.1166,-14.9400,26.2800,-34.7400,
0.663706,0.3002,0.6629,-1.2924,-0.6940,-1.8536,0.1166,-14.9400,26.2800,-34.7400,
0.681835,0.3002,0.6629,-1.2924,-0.7212,-1.3268,-0.1965,-14.9400,26.2800,-34.7400,
0.701679,0.3002,0.6629,-1.2924,-0.7164,-0.7441,-0.2109,-14.9400,26.2800,-34.7400,
0.722513,0.3002,0.6629,-1.2924,-0.7164,-0.7441,-0.2109,-14.9400,26.2800,-34.7400,
0.723256,0.3002,0.6629,-1.2924,-0.7164,-0.7441,-0.2109,-14.1000,26.7000,-35.0400,
0.724011,0.3002,0.6629,-1.2924,-0.7121,-0.4511,-0.2898,-14.1000,26.7000,-35.0400,
0.725411,1.2794,-0.6733,-0.4273,-0.7121,-0.4511,-0.2898,-14.1000,26.7000,-35.0400,
0.742677,1.2794,-0.6733,-0.4273,-0.5065,-0.0671,-0.4575,-14.1000,26.7000,-35.0400,
0.763248,1.2794,-0.6733,-0.4273,-0.4474,-0.2386,-0.6445,-14.1000,26.7000,-35.0400,
0.784764,1.2794,-0.6733,-0.4273,-0.4474,-0.2386,-0.6445,-14.1000,26.7000,-35.0400,
0.785441,1.2794,-0.6733,-0.4273,-0.4474,-0.2386,-0.6445,-14.4000,27.2400,-34.6200,
0.786119,1.2794,-0.6733,-0.4273,-0.2860,-0.3388,-0.7180,-14.4000,27.2400,-34.6200,
0.786688,-2.5298,0.5171,1.3081,-0.2860,-0.3388,-0.7180,-14.4000,27.2400,-34.6200,
0.804394,-2.5298,0.5171,1.3081,0.1012,-0.1593,-0.5358,-14.4000,27.2400,-34.6200,
0.824490,-2.5298,0.5171,1.3081,0.5470,0.0613,-0.2115,-14.4000,27.2400,-34.6200,
0.846236,-2.5298,0.5171,1.3081,0.5470,0.0613,-0.2115,-14.4000,27.2400,-34.6200,
0.846831,-2.5298,0.5171,1.3081,0.5470,0.0613,-0.2115,-16.0800,27.2400,-33.3000,
0.847425,-2.5298,0.5171,1.3081,0.7611,0.0554,0.1539,-16.0800,27.2400,-33.3000,
0.847887,-1.6279,1.9889,0.1999,0.7611,0.0554,0.1539,-16.0800,27.2400,-33.3000,
0.866431,-1.6279,1.9889,0.1999,0.2967,0.2147,-0.1129,-16.0800,27.2400,-33.3000,
0.887105,-1.6279,1.9889,0.1999,-0.1758,1.0418,-0.5241,-16.0800,27.2400,-33.3000,
0.907648,-1.6279,1.9889,0.1999,-0.1758,1.0418,-0.5241,-16.0800,27.2400,-33.3000,
0.908270,4.2099,-3.3148,-2.3136,-0.1758,1.0418,-0.5241,-16.0800,27.2400,-33.3000,
0.909034,4.2099,-3.3148,-2.3136,-0.1758,1.0418,-0.5241,-17.2800,27.8400,-33.1800,
0.909708,4.2099,-3.3148,-2.3136,-0.8661,0.7361,-0.5768,-17.2800,27.8400,-33.1800,
0.928310,4.2099,-3.3148,-2.3136,-0.9476,0.4043,-0.4538,-17.2800,27.8400,-33.1800,
0.948247,4.2099,-3.3148,-2.3136,-0.8597,0.2045,-0.7127,-17.2800,27.8400,-33.1800,
0.969060,4.2099,-3.3148,-2.3136,-0.8597,0.2045,-0.7127,-17.2800,27.8400,-33.1800,
0.969639,4.2099,-3.3148,-2.3136,-0.8597,0.2045,-0.7127,-17.7600,27.9600,-33.1200,
0.970120,4.2099,-3.3148,-2.3136,-0.2977,1.2815,-0.9172,-17.7600,27.9600,-33.1200,
0.970644,4.3218,-1.2970,2.5877,-0.2977,1.2815,-0.9172,-17.7600,27.9600,-33.1200,
0.989053,4.3218,-1.2970,2.5877,0.7148,2.5209,-0.4197,-17.7600,27.9600,-33.1200,
1.009495,4.3218,-1.2970,2.5877,1.5276,2.5604,0.3611,-17.7600,27.9600,-33.1200,
1.030466,4.3218,-1.2970,2.5877,1.5276,2.5604,0.3611,-17.7600,27.9600,-33.1200,
1.031386,4.3218,-1.2970,2.5877,1.5276,2.5604,0.3611,-17.9400,27.6600,-32.4600,
1.031906,4.3218,-1.2970,2.5877,1.4030,1.9675,0.9641,-17.9400,27.6600,-32.4600,
1.032679,0.4007,-0.6715,-1.4348,1.4030,1.9675,0.9641,-17.9400,27.6600,-32.4600,
1.051213,0.4007,-0.6715,-1.4348,0.4192,0.2722,0.7728,-17.9400,27.6600,-32.4600,
1.070959,0.4007,-0.6715,-1.4348,0.8826,0.0884,2.4373,-17.9400,27.6600,-32.4600,
1.092739,0.4007,-0.6715,-1.4348,0.8826,0.0884,2.4373,-17.9400,27.6600,-32.4600,
1.093433,0.4007,-0.6715,-1.4348,0.8826,0.0884,2.4373,-16.8600,27.3600,-33.7200,
1.093994,0.4007,-0.6715,-1.4348,0.9220,0.2594,3.8882,-16.8600,27.3600,-33.7200,
1.094898,-5.2279,2.1774,0.5381,0.9220,0.2594,3.8882,-16.8600,27.3600,-33.7200,
1.112382,-5.2279,2.1774,0.5381,1.4530,0.9635,3.3130,-16.8600,27.3600,-33.7200,
1.132265,-5.2279,2.1774,0.5381,1.9675,1.2091,0.8171,-16.8600,27.3600,-33.7200,
1.154131,-5.2279,2.1774,0.5381,1.9675,1.2091,0.8171,-16.8600,27.3600,-33.7200,
1.154535,-5.2279,2.1774,0.5381,1.9675,1.2091,0.8171,-14.8200,26.9400,-34.2600,
1.154893,-5.2279,2.1774,0.5381,1.5393,1.7007,-0.9183,-14.8200,26.9400,-34.2600,
1.155211,-2.6572,2.7707,-2.0172,1.5393,1.7007,-0.9183,-14.8200,26.9400,-34.2600,
1.173929,-2.6572,2.7707,-2.0172,0.6626,2.3532,-0.4240,-14.8200,26.9400,-34.2600,
1.194672,-2.6572,2.7707,-2.0172,0.0602,2.5140,0.1939,-14.8200,26.9400,-34.2600,
1.216161,-2.6572,2.7707,-2.0172,0.0602,2.5140,0.1939,-14.8200,26.9400,-34.2600,
1.216847,-2.6572,2.7707,-2.0172,0.0602,2.5140,0.1939,-11.2800,25.8000,-35.8800,
1.217840,-2.6572,2.7707,-2.0172,0.5422,0.5055,-0.0240,-11.2800,25.8000,-35.8800,
1.218453,1.1598,-0.3196,4.9494,0.5422,0.5055,-0.0240,-11.2800,25.8000,-35.8800,
1.235555,1.1598,-0.3196,4.9494,0.4128,-0.3345,-0.2120,-11.2800,25.8000,-35.8800,
1.256020,1.1598,-0.3196,4.9494,-0.2546,-0.1119,-0.2578,-11.2800,25.8000,-35.8800,
1.276801,1.1598,-0.3196,4.9494,-0.2546,-0.1119,-0.2578,-11.2800,25.8000,-35.8800,
1.277348,1.1598,-0.3196,4.9494,-0.2546,-0.1119,-0.2578,-6.7200,24.6600,-38.3400,
1.277905,1.1598,-0.3196,4.9494,-0.6567,-0.2615,-0.3670,-6.7200,24.6600,-38.3400,
1.278343,0.3951,-0.9430,-0.3441,-0.6567,-0.2615,-0.3670,-6.7200,24.6600,-38.3400,
1.296847,0.3951,-0.9430,-0.3441,-0.5614,-0.6290,-0.4527,-6.7200,24.6600,-38.3400,
1.317571,0.3951,-0.9430,-0.3441,-0.2471,-0.7340,-0.4533,-6.7200,24.6600,-38.3400,
1.338598,0.3951,-0.9430,-0.3441,-0.2471,-0.7340,-0.4533,-6.7200,24.6600,-38.3400,
1.339322,0.3951,-0.9430,-0.3441,-0.2471,-0.7340,-0.4533,-3.4800,23.4600,-39.4800,
1.340316,0.3951,-0.9430,-0.3441,0.1023,-0.4037,-0.4208,-3.4800,23.4600,-39.4800,
1.340893,0.5871,-0.3881,-0.2163,0.1023,-0.4037,-0.4208,-3.4800,23.4600,-39.4800,
1.358814,0.5871,-0.3881,-0.2163,1.0424,1.2000,-0.4336,-3.4800,23.4600,-39.4800,
1.379189,0.5871,-0.3881,-0.2163,0.3755,0.6855,-0.2535,-3.4800,23.4600,-39.4800,
1.400619,0.5871,-0.3881,-0.2163,0.3755,0.6855,-0.2535,-3.4800,23.4600,-39.4800,
1.401461,0.5871,-0.3881,-0.2163,0.3755,0.6855,-0.2535,-2.0400,22.4400,-40.5600,
1.402090,1.3299,-0.1186,-0.6008,0.3755,0.6855,-0.2535,-2.0400,22.4400,-40.5600,
1.402853,1.3299,-0.1186,-0.6008,-0.3009,0.4932,-0.3340,-2.0400,22.4400,-40.5600,
1.420031,1.3299,-0.1186,-0.6008,-0.3904,0.0724,-0.4895,-2.0400,22.4400,-40.5600,
1.441184,1.3299,-0.1186,-0.6008,-0.2732,-0.0538,-0.6530,-2.0400,22.4400,-40.5600,
1.463061,1.3299,-0.1186,-0.6008,-0.2732,-0.0538,-0.6530,-2.0400,22.4400,-40.5600,
1.463829,0.4281,0.4092,0.1408,-0.2732,-0.0538,-0.6530,-2.0400,22.4400,-40.5600,
1.464628,0.4281,0.4092,0.1408,-0.2732,-0.0538,-0.6530,-1.4400,22.0200,-40.8600,
1.465444,0.4281,0.4092,0.1408,-0.2551,0.2839,-0.7020,-1.4400,22.0200,-40.8600,
1.482680,0.4281,0.4092,0.1408,-0.2029,0.4975,-0.7238,-1.4400,22.0200,-40.8600,
1.502418,0.4281,0.4092,0.1408,0.0011,0.3920,-0.6365,-1.4400,22.0200,-40.8600,
1.523907,0.4281,0.4092,0.1408,0.0011,0.3920,-0.6365,-1.4400,22.0200,-40.8600,
1.524606,0.4281,0.4092,0.1408,0.0011,0.3920,-0.6365,-1.5600,22.0800,-41.1000,
1.525461,0.4281,0.4092,0.1408,0.2200,0.1917,-0.4719,-1.5600,22.0800,-41.1000,
1.526096,-3.8918,1.5222,2.9474,0.2200,0.1917,-0.4719,-1.5600,22.0800,-41.1000,
1.543081,-3.8918,1.5222,2.9474,0.2551,0.0304,-0.3095,-1.5600,22.0800,-41.1000,
1.563378,-3.8918,1.5222,2.9474,0.2684,-0.0629,-0.2125,-1.5600,22.0800,-41.1000,
1.584882,-3.8918,1.5222,2.9474,0.2684,-0.0629,-0.2125,-1.5600,22.0800,-41.1000,
1.585574,-3.8918,1.5222,2.9474,0.2684,-0.0629,-0.2125,-1.9200,21.8400,-40.6800,
1.586192,-3.8918,1.5222,2.9474,0.3819,-0.1108,-0.1907,-1.9200,21.8400,-40.6800,
1.586639,-0.0570,2.6798,1.2564,0.3819,-0.1108,-0.1907,-1.9200,21.8400,-40.6800,
1.604533,-0.0570,2.6798,1.2564,0.4762,0.0112,-0.2040,-1.9200,21.8400,-40.6800,
1.625650,-0.0570,2.6798,1.2564,0.5268,0.2029,-0.2274,-1.9200,21.8400,-40.6800,
1.646612,-0.0570,2.6798,1.2564,0.5268,0.2029,-0.2274,-1.9200,21.8400,-40.6800,
1.647258,-0.0570,2.6798,1.2564,0.5268,0.2029,-0.2274,-1.3800,21.5400,-41.0400,
1.647883,-0.0570,2.6798,1.2564,0.5188,0.1593,-0.2509,-1.3800,21.5400,-41.0400,
1.648473,-0.1562,2.5574,0.6699,0.5188,0.1593,-0.2509,-1.3800,21.5400,-41.0400,
1.666641,-0.1562,2.5574,0.6699,0.6147,0.0969,-0.2162,-1.3800,21.5400,-41.0400,
1.686642,-0.1562,2.5574,0.6699,0.8751,0.0032,-0.0623,-1.3800,21.5400,-41.0400,
1.708207,-0.1562,2.5574,0.6699,0.8751,0.0032,-0.0623,-1.3800,21.5400,-41.0400,
1.708798,1.1276,3.0388,3.1286,0.8751,0.0032,-0.0623,-1.3800,21.5400,-41.0400,
1.709596,1.1276,3.0388,3.1286,0.8751,0.0032,-0.0623,-1.8000,21.0000,-41.4600,
1.710122,1.1276,3.0388,3.1286,1.1963,-0.0549,0.0810,-1.8000,21.0000,-41.4600,
1.728813,1.1276,3.0388,3.1286,1.4077,-0.2866,0.1001,-1.8000,21.0000,-41.4600,
1.748740,1.1276,3.0388,3.1286,1.3124,-0.7776,-0.1198,-1.8000,21.0000,-41.4600,
1.770754,1.1276,3.0388,3.1286,1.3124,-0.7776,-0.1198,-1.8000,21.0000,-41.4600,
1.771451,1.1276,3.0388,3.1286,1.3124,-0.7776,-0.1198,-1.8600,19.8600,-41.5800,
1.772220,1.1276,3.0388,3.1286,0.5183,0.5619,-0.5230,-1.8600,19.8600,-41.5800,
1.772950,4.8743,4.1868,-4.6563,0.5183,0.5619,-0.5230,-1.8600,19.8600,-41.5800,
1.789556,4.8743,4.1868,-4.6563,-0.3808,0.7324,-0.7633,-1.8600,19.8600,-41.5800,
1.809744,4.8743,4.1868,-4.6563,-1.1952,-0.3377,-1.0301,-1.8600,19.8600,-41.5800,
1.831332,4.8743,4.1868,-4.6563,-1.1952,-0.3377,-1.0301,-1.8600,19.8600,-41.5800,
1.831869,-0.4011,0.2972,-1.5052,-1.1952,-0.3377,-1.0301,-1.8600,19.8600,-41.5800,
1.832423,-0.4011,0.2972,-1.5052,-1.1952,-0.3377,-1.0301,-1.9800,17.8800,-42.5400,
1.832976,-0.4011,0.2972,-1.5052,-1.5334,-0.5811,-1.4504,-1.9800,17.8800,-42.5400,
1.851083,-0.4011,0.2972,-1.5052,-0.6232,0.0128,-1.3683,-1.9800,17.8800,-42.5400,
1.871260,-0.4011,0.2972,-1.5052,0.4916,-0.6626,-0.7409,-1.9800,17.8800,-42.5400,
1.892520,-0.4011,0.2972,-1.5052,0.4916,-0.6626,-0.7409,-1.9800,17.8800,-42.5400,
1.892830,-0.4011,0.2972,-1.5052,0.4916,-0.6626,-0.7409,-1.9800,16.6800,-43.1400,
1.893113,-0.4011,0.2972,-1.5052,-0.1427,-0.3196,-0.8890,-1.9800,16.6800,-43.1400,
1.893595,1.3170,4.2932,-2.4544,-0.1427,-0.3196,-0.8890,-1.9800,16.6800,-43.1400,
1.912398,1.3170,4.2932,-2.4544,-0.6514,-0.1214,-1.2671,-1.9800,16.6800,-43.1400,
1.933390,1.3170,4.2932,-2.4544,-0.5230,-0.2711,-1.9633,-1.9800,16.6800,-43.1400,
1.954461,1.3170,4.2932,-2.4544,-0.5230,-0.2711,-1.9633,-1.9800,16.6800,-43.1400,
1.955075,1.3170,4.2932,-2.4544,-0.5230,-0.2711,-1.9633,-2.2800,15.3600,-43.2000,
1.955712,1.3170,4.2932,-2.4544,-0.3366,-0.2407,-2.6184,-2.2800,15.3600,-43.2000,
1.956262,5.8163,2.2848,0.2328,-0.3366,-0.2407,-2.6184,-2.2800,15.3600,-43.2000,
1.974434,5.8163,2.2848,0.2328,-0.5880,-0.4554,-3.0227,-2.2800,15.3600,-43.2000,
1.994759,5.8163,2.2848,0.2328,-1.1414,0.2035,-2.9726,-2.2800,15.3600,-43.2000,
2.015660,5.8163,2.2848,0.2328,-1.1414,0.2035,-2.9726,-2.2800,15.3600,-43.2000,
2.016189,5.8163,2.2848,0.2328,-1.1414,0.2035,-2.9726,-3.1800,14.7000,-43.8600,
2.016719,5.8163,2.2848,0.2328,-1.1105,1.4898,-2.6909,-3.1800,14.7000,-43.8600,
2.017430,1.1873,4.7511,-1.5003,-1.1105,1.4898,-2.6909,-3.1800,14.7000,-43.8600,
2.035857,1.1873,4.7511,-1.5003,-0.2908,2.2679,-2.6190,-3.1800,14.7000,-43.8600,
2.056206,1.1873,4.7511,-1.5003,-0.4325,3.7710,-2.8602,-3.1800,14.7000,-43.8600,
2.077912,1.1873,4.7511,-1.5003,-0.4325,3.7710,-2.8602,-3.1800,14.7000,-43.8600,
2.078579,-7.3417,-20.5951,7.5910,-0.4325,3.7710,-2.8602,-3.1800,14.7000,-43.8600,
2.079940,-7.3417,-20.5951,7.5910,-0.4325,3.7710,-2.8602,-3.9600,15.1200,-43.3800,
2.080721,-7.3417,-20.5951,7.5910,-2.7969,6.1311,-3.6118,-3.9600,15.1200,-43.3800,
2.097796,-7.3417,-20.5951,7.5910,-3.4296,-2.4725,-5.9362,-3.9600,15.1200,-43.3800,
2.118233,-7.3417,-20.5951,7.5910,-5.2177,-4.2179,-8.8097,-3.9600,15.1200,-43.3800,
2.139201,-7.3417,-20.5951,7.5910,-5.2177,-4.2179,-8.8097,-3.9600,15.1200,-43.3800,
2.140008,-7.3417,-20.5951,7.5910,-5.2177,-4.2179,-8.8097,-3.0600,15.0600,-43.6200,
2.140728,-7.3417,-20.5951,7.5910,-8.3996,-5.0723,-11.2982,-3.0600,15.0600,-43.6200,
2.141616,13.5608,-12.0679,-11.6021,-8.3996,-5.0723,-11.2982,-3.0600,15.0600,-43.6200,
2.159372,13.5608,-12.0679,-11.6021,-12.3970,-4.5396,-12.6559,-3.0600,15.0600,-43.6200,
2.179222,13.5608,-12.0679,-11.6021,0.4847,-1.7247,-7.1250,-3.0600,15.0600,-43.6200,
2.200988,13.5608,-12.0679,-11.6021,0.4847,-1.7247,-7.1250,-3.0600,15.0600,-43.6200,
2.202267,13.5608,-12.0679,-11.6021,0.4847,-1.7247,-7.1250,-5.8200,17.6400,-42.0000,
2.203405,0.5157,-0.1222,-39.6453,0.4847,-1.7247,-7.1250,-5.8200,17.6400,-42.0000,
2.204462,0.5157,-0.1222,-39.6453,-14.0791,8.7219,-7.8611,-5.8200,17.6400,-42.0000,
2.220063,0.5157,-0.1222,-39.6453,-1.2123,2.3766,-1.5036,-5.8200,17.6400,-42.0000,
2.241017,0.5157,-0.1222,-39.6453,1.7875,4.0666,-2.2434,-5.8200,17.6400,-42.0000,
2.262378,0.5157,-0.1222,-39.6453,1.7875,4.0666,-2.2434,-5.8200,17.6400,-42.0000,
2.263332,0.5157,-0.1222,-39.6453,1.7875,4.0666,-2.2434,-13.1400,19.2000,-35.8200,
2.264148,0.5157,-0.1222,-39.6453,1.8498,5.1303,-0.9710,-13.1400,19.2000,-35.8200,
2.264938,-10.9014,-5.8799,-2.7087,1.8498,5.1303,-0.9710,-13.1400,19.2000,-35.8200,
2.283763,-10.9014,-5.8799,-2.7087,-0.1380,6.5594,0.3100,-13.1400,19.2000,-35.8200,
2.302669,-10.9014,-5.8799,-2.7087,-4.2168,-2.5268,1.7811,-13.1400,19.2000,-35.8200,
2.323685,-10.9014,-5.8799,-2.7087,-4.2168,-2.5268,1.7811,-13.1400,19.2000,-35.8200,
2.324201,-10.9014,-5.8799,-2.7087,-4.2168,-2.5268,1.7811,-19.3200,19.2600,-32.7600,
2.324553,-10.9014,-5.8799,-2.7087,-1.1132,-12.4487,1.6251,-19.3200,19.2600,-32.7600,
2.324974,-10.1006,-2.7220,5.9402,-1.1132,-12.4487,1.6251,-19.3200,19.2600,-32.7600,
2.343744,-10.1006,-2.7220,5.9402,6.0374,-4.9237,3.1937,-19.3200,19.2600,-32.7600,
2.364907,-10.1006,-2.7220,5.9402,0.3377,0.5119,4.0352,-19.3200,19.2600,-32.7600,
2.385001,-10.1006,-2.7220,5.9402,0.3377,0.5119,4.0352,-19.3200,19.2600,-32.7600,
2.385781,-10.1006,-2.7220,5.9402,0.3377,0.5119,4.0352,-27.4200,20.0400,-27.8400,
2.386550,-10.1006,-2.7220,5.9402,-4.7303,3.1063,2.2775,-27.4200,20.0400,-27.8400,
2.387229,1.6052,3.6351,-8.3779,-4.7303,3.1063,2.2775,-27.4200,20.0400,-27.8400,
2.405079,1.6052,3.6351,-8.3779,-4.4278,1.5020,2.3265,-27.4200,20.0400,-27.8400,
2.424926,1.6052,3.6351,-8.3779,-2.5588,-0.2578,2.2152,-27.4200,20.0400,-27.8400,
2.446400,1.6052,3.6351,-8.3779,-2.5588,-0.2578,2.2152,-27.4200,20.0400,-27.8400,
2.446826,1.6052,3.6351,-8.3779,-2.5588,-0.2578,2.2152,-30.3600,19.1400,-24.1800,
2.447268,13.1385,-1.9541,6.2185,-2.5588,-0.2578,2.2152,-30.3600,19.1400,-24.1800,
2.447656,13.1385,-1.9541,6.2185,-0.4213,-1.9148,0.3196,-30.3600,19.1400,-24.1800,
2.466261,13.1385,-1.9541,6.2185,-0.5033,-1.1255,-0.9998,-30.3600,19.1400,-24.1800,
2.487040,13.1385,-1.9541,6.2185,-1.1867,0.4421,-0.6999,-30.3600,19.1400,-24.1800,
2.508328,13.1385,-1.9541,6.2185,-1.1867,0.4421,-0.6999,-30.3600,19.1400,-24.1800,
2.508973,13.1385,-1.9541,6.2185,-1.1867,0.4421,-0.6999,-27.7800,20.9400,-23.5800,
2.509746,13.1385,-1.9541,6.2185,-0.8336,-0.2988,-0.7936,-27.7800,20.9400,-23.5800,
2.510327,-3.1353,5.3478,0.8085,-0.8336,-0.2988,-0.7936,-27.7800,20.9400,-23.5800,
2.528028,-3.1353,5.3478,0.8085,-0.3931,-1.1990,-0.3702,-27.7800,20.9400,-23.5800,
2.548358,-3.1353,5.3478,0.8085,0.0554,-1.8168,-0.6993,-27.7800,20.9400,-23.5800,
2.570320,-3.1353,5.3478,0.8085,0.0554,-1.8168,-0.6993,-27.7800,20.9400,-23.5800,
2.570733,-1.7108,-5.7951,-1.2311,0.0554,-1.8168,-0.6993,-27.7800,20.9400,-23.5800,
2.571240,-1.7108,-5.7951,-1.2311,0.0554,-1.8168,-0.6993,-26.7000,23.7000,-19.9800,
2.571542,-1.7108,-5.7951,-1.2311,0.2935,-2.1598,-1.1404,-26.7000,23.7000,-19.9800,
2.589790,-1.7108,-5.7951,-1.2311,0.5726,-2.4538,-0.4767,-26.7000,23.7000,-19.9800,
2.610298,-1.7108,-5.7951,-1.2311,0.6509,-1.9659,-0.0437,-26.7000,23.7000,-19.9800,
2.631560,-1.7108,-5.7951,-1.2311,0.6509,-1.9659,-0.0437,-26.7000,23.7000,-19.9800,
2.632177,-1.7108,-5.7951,-1.2311,0.6509,-1.9659,-0.0437,-26.4000,25.1400,-16.3200,
2.632682,-1.7108,-5.7951,-1.2311,0.6914,-2.1252,-0.1513,-26.4000,25.1400,-16.3200,
2.633158,-2.1755,1.0103,0.5960,0.6914,-2.1252,-0.1513,-26.4000,25.1400,-16.3200,
2.651269,-2.1755,1.0103,0.5960,0.8085,-2.3835,-0.5364,-26.4000,25.1400,-16.3200,
2.671780,-2.1755,1.0103,0.5960,1.0914,-3.3353,-0.7302,-26.4000,25.1400,-16.3200,
2.693079,-2.1755,1.0103,0.5960,1.0914,-3.3353,-0.7302,-26.4000,25.1400,-16.3200,
2.694020,-2.1755,1.0103,0.5960,1.0914,-3.3353,-0.7302,-26.7600,25.9800,-12.9600,
2.694701,-2.1755,1.0103,0.5960,0.2855,-2.5305,-0.7697,-26.7600,25.9800,-12.9600,
2.695321,-4.3146,2.5767,-7.0587,0.2855,-2.5305,-0.7697,-26.7600,25.9800,-12.9600,
2.712804,-4.3146,2.5767,-7.0587,0.1688,-0.9870,-0.1731,-26.7600,25.9800,-12.9600,
2.733387,-4.3146,2.5767,-7.0587,-0.0804,0.5246,0.2344,-26.7600,25.9800,-12.9600,
2.755507,-4.3146,2.5767,-7.0587,-0.0804,0.5246,0.2344,-26.7600,25.9800,-12.9600,
2.756133,-4.3146,2.5767,-7.0587,-0.0804,0.5246,0.2344,-28.1400,23.7600,-10.1400,
2.756760,-4.3146,2.5767,-7.0587,0.2775,-0.1103,0.2487,-28.1400,23.7600,-10.1400,
2.757311,-1.9358,-0.2872,2.2497,0.2775,-0.1103,0.2487,-28.1400,23.7600,-10.1400,
2.774579,-1.9358,-0.2872,2.2497,0.6567,-0.5534,0.3063,-28.1400,23.7600,-10.1400,
2.795210,-1.9358,-0.2872,2.2497,0.7958,-0.5992,0.3979,-28.1400,23.7600,-10.1400,
2.816230,-1.9358,-0.2872,2.2497,0.7958,-0.5992,0.3979,-28.1400,23.7600,-10.1400,
2.816852,-1.9358,-0.2872,2.2497,0.7958,-0.5992,0.3979,-29.7600,21.9600,-6.5400,
2.817458,-1.9358,-0.2872,2.2497,0.6967,-0.4575,0.4416,-29.7600,21.9600,-6.5400,
2.817984,-2.6705,0.4300,0.1681,0.6967,-0.4575,0.4416,-29.7600,21.9600,-6.5400,
2.837610,-2.6705,0.4300,0.1681,0.9705,-0.4256,0.4075,-29.7600,21.9600,-6.5400,
2.856992,-2.6705,0.4300,0.1681,0.6690,0.0932,0.0746,-29.7600,21.9600,-6.5400,
2.878127,-2.6705,0.4300,0.1681,0.6690,0.0932,0.0746,-29.7600,21.9600,-6.5400,
2.878574,-5.0534,1.1845,-0.3687,0.6690,0.0932,0.0746,-29.7600,21.9600,-6.5400,
2.879043,-5.0534,1.1845,-0.3687,0.6690,0.0932,0.0746,-30.1800,20.2200,-5.0400,
2.879486,-5.0534,1.1845,-0.3687,0.4155,0.0117,-0.5017,-30.1800,20.2200,-5.0400,
2.897657,-5.0534,1.1845,-0.3687,0.2626,0.2147,-0.5763,-30.1800,20.2200,-5.0400,
2.918193,-5.0534,1.1845,-0.3687,0.0511,0.6264,-0.1790,-30.1800,20.2200,-5.0400,
2.940279,-5.0534,1.1845,-0.3687,0.0511,0.6264,-0.1790,-30.1800,20.2200,-5.0400,
2.940866,-5.0534,1.1845,-0.3687,0.0511,0.6264,-0.1790,-32.2200,18.1800,-4.0800,
2.941496,-5.0534,1.1845,-0.3687,-0.2338,1.2597,0.1662,-32.2200,18.1800,-4.0800,
2.941928,-2.9472,0.5849,-0.1350,-0.2338,1.2597,0.1662,-32.2200,18.1800,-4.0800,
2.959291,-2.9472,0.5849,-0.1350,-0.3803,1.2256,0.2109,-32.2200,18.1800,-4.0800,
2.979796,-2.9472,0.5849,-0.1350,-0.2748,0.8021,0.4447,-32.2200,18.1800,-4.0800,
3.000943,-2.9472,0.5849,-0.1350,-0.2748,0.8021,0.4447,-32.2200,18.1800,-4.0800,
3.001644,-2.9472,0.5849,-0.1350,-0.2748,0.8021,0.4447,-33.3600,18.3600,-4.0800,
3.002169,-2.9472,0.5849,-0.1350,-0.1875,0.2961,1.0994,-33.3600,18.3600,-4.0800,
3.002760,-1.9127,0.9936,0.1239,-0.1875,0.2961,1.0994,-33.3600,18.3600,-4.0800,
3.020911,-1.9127,0.9936,0.1239,-0.0751,0.2205,1.0754,-33.3600,18.3600,-4.0800,
3.040998,-1.9127,0.9936,0.1239,-1.6709,-0.4746,0.3196,-33.3600,18.3600,-4.0800,
3.062556,-1.9127,0.9936,0.1239,-1.6709,-0.4746,0.3196,-33.3600,18.3600,-4.0800,
3.063192,-1.9127,0.9936,0.1239,-1.6709,-0.4746,0.3196,-33.9600,19.2000,-5.3400,
3.063704,-1.9127,0.9936,0.1239,0.1848,0.1406,-0.0421,-33.9600,19.2000,-5.3400,
3.064055,-3.5788,-0.9771,-0.5498,0.1848,0.1406,-0.0421,-33.9600,19.2000,-5.3400,
3.082539,-3.5788,-0.9771,-0.5498,1.4642,0.5284,-0.0948,-33.9600,19.2000,-5.3400,
3.103342,-3.5788,-0.9771,-0.5498,0.5417,-0.2205,0.0149,-33.9600,19.2000,-5.3400,
3.124148,-3.5788,-0.9771,-0.5498,0.5417,-0.2205,0.0149,-33.9600,19.2000,-5.3400,
3.124525,-3.5788,-0.9771,-0.5498,0.5417,-0.2205,0.0149,-34.2000,20.9400,-5.5800,
3.124798,-3.5788,-0.9771,-0.5498,0.4815,-0.1230,0.0075,-34.2000,20.9400,-5.5800,
3.125034,-2.2590,0.1233,0.0276,0.4815,-0.1230,0.0075,-34.2000,20.9400,-5.5800,
3.143746,-2.2590,0.1233,0.0276,0.4788,-0.1646,0.0101,-34.2000,20.9400,-5.5800,
3.164671,-2.2590,0.1233,0.0276,0.4139,-0.2983,0.1523,-34.2000,20.9400,-5.5800,
3.186049,-2.2590,0.1233,0.0276,0.4139,-0.2983,0.1523,-34.2000,20.9400,-5.5800,
3.186651,-2.2590,0.1233,0.0276,0.4139,-0.2983,0.1523,-33.2400,22.9800,-6.1200,
3.187249,-2.2590,0.1233,0.0276,0.9364,-0.2226,0.0863,-33.2400,22.9800,-6.1200,
3.187656,-0.2993,-0.2996,-1.4863,0.9364,-0.2226,0.0863,-33.2400,22.9800,-6.1200,
3.205893,-0.2993,-0.2996,-1.4863,1.5686,0.0985,-0.0011,-33.2400,22.9800,-6.1200,
3.226004,-0.2993,-0.2996,-1.4863,1.9409,0.3430,-0.1310,-33.2400,22.9800,-6.1200,
3.247369,-0.2993,-0.2996,-1.4863,1.9409,0.3430,-0.1310,-33.2400,22.9800,-6.1200,
3.247891,-0.2993,-0.2996,-1.4863,1.9409,0.3430,-0.1310,-32.6400,24.0600,-6.7200,
3.248350,-0.2993,-0.2996,-1.4863,2.1673,0.1992,-0.0921,-32.6400,24.0600,-6.7200,
3.248769,0.2058,-0.3247,0.2598,2.1673,0.1992,-0.0921,-32.6400,24.0600,-6.7200,
3.267212,0.2058,-0.3247,0.2598,2.2189,-0.1177,0.0607,-32.6400,24.0600,-6.7200,
3.287640,0.2058,-0.3247,0.2598,2.2642,-0.3031,0.3233,-32.6400,24.0600,-6.7200,
3.308923,0.2058,-0.3247,0.2598,2.2642,-0.3031,0.3233,-32.6400,24.0600,-6.7200,
3.309538,-0.0014,0.3758,-0.3731,2.2642,-0.3031,0.3233,-32.6400,24.0600,-6.7200,
3.310068,-0.0014,0.3758,-0.3731,2.2642,-0.3031,0.3233,-31.7400,24.9000,-8.1000,
3.310486,-0.0014,0.3758,-0.3731,2.7383,0.2040,0.5071,-31.7400,24.9000,-8.1000,
3.328597,-0.0014,0.3758,-0.3731,3.6555,0.9193,0.6418,-31.7400,24.9000,-8.1000,
3.349548,-0.0014,0.3758,-0.3731,4.1918,0.8426,0.7281,-31.7400,24.9000,-8.1000,
3.370468,-0.0014,0.3758,-0.3731,4.1918,0.8426,0.7281,-31.7400,24.9000,-8.1000,
3.371022,-0.0014,0.3758,-0.3731,4.1918,0.8426,0.7281,-31.9800,24.4800,-9.9600,
3.371536,-0.0014,0.3758,-0.3731,4.5423,0.9976,0.8000,-31.9800,24.4800,-9.9600,
3.372032,0.1280,-0.5748,-0.8520,4.5423,0.9976,0.8000,-31.9800,24.4800,-9.9600,
3.390427,0.1280,-0.5748,-0.8520,4.6696,1.6719,0.6674,-31.9800,24.4800,-9.9600,
3.410835,0.1280,-0.5748,-0.8520,4.3452,2.3468,0.4682,-31.9800,24.4800,-9.9600,
3.432051,0.1280,-0.5748,-0.8520,4.3452,2.3468,0.4682,-31.9800,24.4800,-9.9600,
3.432653,0.1280,-0.5748,-0.8520,4.3452,2.3468,0.4682,-31.8000,24.0000,-13.5600,
3.433119,0.1280,-0.5748,-0.8520,3.3817,2.8309,-0.0879,-31.8000,24.0000,-13.5600,
3.433728,2.5637,-4.3512,-4.9458,3.3817,2.8309,-0.0879,-31.8000,24.0000,-13.5600,
3.451729,2.5637,-4.3512,-4.9458,2.1359,2.8166,-1.0402,-31.8000,24.0000,-13.5600,
3.473004,2.5637,-4.3512,-4.9458,0.9369,2.3010,-1.9867,-31.8000,24.0000,-13.5600,
3.493598,2.5637,-4.3512,-4.9458,0.9369,2.3010,-1.9867,-31.8000,24.0000,-13.5600,
3.494143,2.5637,-4.3512,-4.9458,0.9369,2.3010,-1.9867,-30.7800,22.4400,-18.4800,
3.494568,2.5637,-4.3512,-4.9458,-0.0687,1.1047,-2.6365,-30.7800,22.4400,-18.4800,
3.494988,2.6343,-4.7332,-2.7574,-0.0687,1.1047,-2.6365,-30.7800,22.4400,-18.4800,
3.513466,2.6343,-4.7332,-2.7574,-0.0218,-0.5305,-2.1939,-30.7800,22.4400,-18.4800,
3.533404,2.6343,-4.7332,-2.7574,0.6892,-1.0855,-1.0397,-30.7800,22.4400,-18.4800,
3.554790,2.6343,-4.7332,-2.7574,0.6892,-1.0855,-1.0397,-30.7800,22.4400,-18.4800,
3.555298,2.6343,-4.7332,-2.7574,0.6892,-1.0855,-1.0397,-29.1000,19.6800,-23.5200,
3.555773,2.6343,-4.7332,-2.7574,1.3625,-0.6296,0.0128,-29.1000,19.6800,-23.5200,
3.556209,-0.5297,2.6014,1.4703,1.3625,-0.6296,0.0128,-29.1000,19.6800,-23.5200,
3.574525,-0.5297,2.6014,1.4703,1.4200,-0.2189,0.3350,-29.1000,19.6800,-23.5200,
3.595091,-0.5297,2.6014,1.4703,1.1446,-0.2647,0.3180,-29.1000,19.6800,-23.5200,
3.617110,-0.5297,2.6014,1.4703,1.1446,-0.2647,0.3180,-29.1000,19.6800,-23.5200,
3.617624,-0.5297,2.6014,1.4703,1.1446,-0.2647,0.3180,-27.4200,17.4000,-28.3200,
3.618324,-0.5297,2.6014,1.4703,0.8693,-0.7409,0.2738,-27.4200,17.4000,-28.3200,
3.618778,-0.8454,5.2906,1.6147,0.8693,-0.7409,0.2738,-27.4200,17.4000,-28.3200,
3.636536,-0.8454,5.2906,1.6147,1.0354,-2.5327,0.6115,-27.4200,17.4000,-28.3200,
3.657018,-0.8454,5.2906,1.6147,1.8184,-4.5348,1.0093,-27.4200,17.4000,-28.3200,
3.678292,-0.8454,5.2906,1.6147,1.8184,-4.5348,1.0093,-27.4200,17.4000,-28.3200,
3.678835,0.2996,5.3605,-0.0052,1.8184,-4.5348,1.0093,-27.4200,17.4000,-28.3200,
3.679419,0.2996,5.3605,-0.0052,1.8184,-4.5348,1.0093,-26.6400,14.1000,-31.5000,
3.679897,0.2996,5.3605,-0.0052,1.9255,-4.3516,0.8005,-26.6400,14.1000,-31.5000,
3.698003,0.2996,5.3605,-0.0052,1.2645,-2.2717,0.1710,-26.6400,14.1000,-31.5000,
3.718536,0.2996,5.3605,-0.0052,0.8123,-0.8895,-0.1108,-26.6400,14.1000,-31.5000,
3.740187,0.2996,5.3605,-0.0052,0.8123,-0.8895,-0.1108,-26.6400,14.1000,-31.5000,
3.740792,0.2996,5.3605,-0.0052,0.8123,-0.8895,-0.1108,-28.3800,11.8200,-31.8000,
3.741402,0.2996,5.3605,-0.0052,0.9108,-0.8155,-0.2882,-28.3800,11.8200,-31.8000,
3.741949,3.4876,3.3961,0.6455,0.9108,-0.8155,-0.2882,-28.3800,11.8200,-31.8000,
3.759626,3.4876,3.3961,0.6455,1.5670,-1.5159,-0.6562,-28.3800,11.8200,-31.8000,
3.780281,3.4876,3.3961,0.6455,3.0664,-1.6325,-0.8581,-28.3800,11.8200,-31.8000,
3.801454,3.4876,3.3961,0.6455,3.0664,-1.6325,-0.8581,-28.3800,11.8200,-31.8000,
3.802165,3.4876,3.3961,0.6455,3.0664,-1.6325,-0.8581,-31.6800,10.3800,-29.8200,
3.802755,3.4876,3.3961,0.6455,4.6973,0.5742,-0.6759,-31.6800,10.3800,-29.8200,
3.803242,-0.7032,-9.3019,5.7702,4.6973,0.5742,-0.6759,-31.6800,10.3800,-29.8200,
3.821075,-0.7032,-9.3019,5.7702,4.7921,1.9963,-0.4027,-31.6800,10.3800,-29.8200,
3.841796,-0.7032,-9.3019,5.7702,1.8701,1.3247,-0.5401,-31.6800,10.3800,-29.8200,
3.863501,-0.7032,-9.3019,5.7702,1.8701,1.3247,-0.5401,-31.6800,10.3800,-29.8200,
3.864066,-0.7032,-9.3019,5.7702,1.8701,1.3247,-0.5401,-34.6200,7.5600,-27.1200,
3.864449,-0.7032,-9.3019,5.7702,0.2908,4.0810,0.1704,-34.6200,7.5600,-27.1200,
3.864920,-6.4838,-0.0392,-3.7567,0.2908,4.0810,0.1704,-34.6200,7.5600,-27.1200,
3.882632,-6.4838,-0.0392,-3.7567,0.3489,4.8225,1.3486,-34.6200,7.5600,-27.1200,
3.903407,-6.4838,-0.0392,-3.7567,1.3769,1.1446,2.1220,-34.6200,7.5600,-27.1200,
3.924671,-6.4838,-0.0392,-3.7567,1.3769,1.1446,2.1220,-34.6200,7.5600,-27.1200,
3.925410,-6.4838,-0.0392,-3.7567,1.3769,1.1446,2.1220,-36.7200,5.3400,-25.3200,
3.925995,-6.4838,-0.0392,-3.7567,1.8157,-1.4397,2.0203,-36.7200,5.3400,-25.3200,
3.926494,-0.9487,6.4861,-0.2918,1.8157,-1.4397,2.0203,-36.7200,5.3400,-25.3200,
3.944847,-0.9487,6.4861,-0.2918,2.0277,-1.3209,1.6038,-36.7200,5.3400,-25.3200,
3.964802,-0.9487,6.4861,-0.2918,1.6725,0.0996,1.1894,-36.7200,5.3400,-25.3200,
3.986784,-0.9487,6.4861,-0.2918,1.6725,0.0996,1.1894,-36.7200,5.3400,-25.3200,
3.987320,-0.9487,6.4861,-0.2918,1.6725,0.0996,1.1894,-35.6400,3.1200,-25.9800,
3.987869,-0.9487,6.4861,-0.2918,0.9145,1.4541,0.6493,-35.6400,3.1200,-25.9800,
3.988326,-2.6346,-3.3736,2.0299,0.9145,1.4541,0.6493,-35.6400,3.1200,-25.9800,
4.006241,-2.6346,-3.3736,2.0299,0.7132,1.0109,0.2594,-35.6400,3.1200,-25.9800,
4.026239,-2.6346,-3.3736,2.0299,0.8964,0.2216,0.0932,-35.6400,3.1200,-25.9800,
4.047469,-2.6346,-3.3736,2.0299,0.8964,0.2216,0.0932,-35.6400,3.1200,-25.9800,
4.047951,-2.6346,-3.3736,2.0299,0.8964,0.2216,0.0932,-34.0200,0.7800,-27.7800,
4.048372,-2.6346,-3.3736,2.0299,0.9417,0.1688,-0.0597,-34.0200,0.7800,-27.7800,
4.048720,0.7154,1.2049,0.7659,0.9417,0.1688,-0.0597,-34.0200,0.7800,-27.7800,
4.067176,0.7154,1.2049,0.7659,0.7531,0.3675,-0.1550,-34.0200,0.7800,-27.7800,
4.087769,0.7154,1.2049,0.7659,0.6216,0.3425,-0.0634,-34.0200,0.7800,-27.7800,
4.108895,0.7154,1.2049,0.7659,0.6216,0.3425,-0.0634,-34.0200,0.7800,-27.7800,
4.109438,0.7154,1.2049,0.7659,0.6216,0.3425,-0.0634,-32.7000,-1.0200,-30.8400,
4.109963,0.7154,1.2049,0.7659,0.7036,0.1720,0.0905,-32.7000,-1.0200,-30.8400,
4.110375,-0.5418,1.8646,2.3530,0.7036,0.1720,0.0905,-32.7000,-1.0200,-30.8400,
4.128950,-0.5418,1.8646,2.3530,0.7441,0.2072,0.1832,-32.7000,-1.0200,-30.8400,
4.149878,-0.5418,1.8646,2.3530,0.6168,0.4629,0.1465,-32.7000,-1.0200,-30.8400,
4.170641,-0.5418,1.8646,2.3530,0.6168,0.4629,0.1465,-32.7000,-1.0200,-30.8400,
4.171172,-0.5418,1.8646,2.3530,0.6168,0.4629,0.1465,-30.9600,-1.7400,-32.4000,
4.171652,-0.5418,1.8646,2.3530,0.4485,0.8048,0.1337,-30.9600,-1.7400,-32.4000,
4.172091,0.0219,0.3883,0.3423,0.4485,0.8048,0.1337,-30.9600,-1.7400,-32.4000,
4.190410,0.0219,0.3883,0.3423,0.3920,0.7191,0.1268,-30.9600,-1.7400,-32.4000,
4.211633,0.0219,0.3883,0.3423,0.3984,0.2376,0.0895,-30.9600,-1.7400,-32.4000,
4.232325,0.0219,0.3883,0.3423,0.3984,0.2376,0.0895,-30.9600,-1.7400,-32.4000,
4.232740,0.0219,0.3883,0.3423,0.3984,0.2376,0.0895,-30.3000,-2.6400,-33.3000,
4.233066,0.0219,0.3883,0.3423,0.4101,-0.2147,0.1209,-30.3000,-2.6400,-33.3000,
4.233453,-0.6345,-0.7768,0.8083,0.4101,-0.2147,0.1209,-30.3000,-2.6400,-33.3000,
4.252212,-0.6345,-0.7768,0.8083,0.3558,-0.3185,0.2535,-30.3000,-2.6400,-33.3000,
4.272527,-0.6345,-0.7768,0.8083,0.2221,-0.1795,0.3116,-30.3000,-2.6400,-33.3000,
4.294036,-0.6345,-0.7768,0.8083,0.2221,-0.1795,0.3116,-30.3000,-2.6400,-33.3000,
4.294515,-0.6345,-0.7768,0.8083,0.2221,-0.1795,0.3116,-29.5800,-3.6000,-34.1400,
4.295128,-0.6345,-0.7768,0.8083,0.1475,-0.0639,0.2647,-29.5800,-3.6000,-34.1400,
4.295521,0.7992,0.2140,0.6381,0.1475,-0.0639,0.2647,-29.5800,-3.6000,-34.1400,
4.314131,0.7992,0.2140,0.6381,0.1497,0.0671,0.1912,-29.5800,-3.6000,-34.1400,
4.333951,0.7992,0.2140,0.6381,0.2264,0.2141,0.1742,-29.5800,-3.6000,-34.1400,
4.355484,0.7992,0.2140,0.6381,0.2264,0.2141,0.1742,-29.5800,-3.6000,-34.1400,
4.355968,0.7992,0.2140,0.6381,0.2264,0.2141,0.1742,-28.7400,-3.8400,-34.0800,
4.356479,0.7992,0.2140,0.6381,0.2051,0.2003,0.1896,-28.7400,-3.8400,-34.0800,
4.356877,1.2426,0.6272,-0.0991,0.2051,0.2003,0.1896,-28.7400,-3.8400,-34.0800,
4.375058,1.2426,0.6272,-0.0991,0.1529,0.2194,0.2940,-28.7400,-3.8400,-34.0800,
4.395936,1.2426,0.6272,-0.0991,0.2482,0.4890,0.4719,-28.7400,-3.8400,-34.0800,
4.416624,1.2426,0.6272,-0.0991,0.2482,0.4890,0.4719,-28.7400,-3.8400,-34.0800,
4.417094,-0.0270,-0.6567,0.0166,0.2482,0.4890,0.4719,-28.7400,-3.8400,-34.0800,
4.417657,-0.0270,-0.6567,0.0166,0.2482,0.4890,0.4719,-28.6200,-4.4400,-34.1400,
4.418084,-0.0270,-0.6567,0.0166,0.3276,0.6498,0.5044,-28.6200,-4.4400,-34.1400,
4.437187,-0.0270,-0.6567,0.0166,0.3260,0.6077,0.5326,-28.6200,-4.4400,-34.1400,
4.457138,-0.0270,-0.6567,0.0166,0.3526,0.6839,0.6195,-28.6200,-4.4400,-34.1400,
4.479536,-0.0270,-0.6567,0.0166,0.3526,0.6839,0.6195,-28.6200,-4.4400,-34.1400,
4.480179,-0.0270,-0.6567,0.0166,0.3526,0.6839,0.6195,-28.6200,-4.3200,-34.0200,
4.480763,-0.0270,-0.6567,0.0166,0.4192,0.7398,0.6514,-28.6200,-4.3200,-34.0200,
4.481349,-0.4023,-0.3168,-0.1564,0.4192,0.7398,0.6514,-28.6200,-4.3200,-34.0200,
4.498435,-0.4023,-0.3168,-0.1564,0.4698,0.5049,0.6157,-28.6200,-4.3200,-34.0200,
4.519294,-0.4023,-0.3168,-0.1564,0.5774,0.2125,0.6599,-28.6200,-4.3200,-34.0200,
4.540167,-0.4023,-0.3168,-0.1564,0.5774,0.2125,0.6599,-28.6200,-4.3200,-34.0200,
4.540734,-0.4023,-0.3168,-0.1564,0.5774,0.2125,0.6599,-27.9000,-3.6600,-34.7400,
4.541388,-0.4023,-0.3168,-0.1564,0.6903,0.2626,0.6988,-27.9000,-3.6600,-34.7400,
4.541923,0.1244,-0.1580,-0.3116,0.6903,0.2626,0.6988,-27.9000,-3.6600,-34.7400,
4.560288,0.1244,-0.1580,-0.3116,0.7425,0.4634,0.7228,-27.9000,-3.6600,-34.7400,
4.580779,0.1244,-0.1580,-0.3116,0.7771,0.4847,0.7691,-27.9000,-3.6600,-34.7400,
4.602065,0.1244,-0.1580,-0.3116,0.7771,0.4847,0.7691,-27.9000,-3.6600,-34.7400,
4.602777,0.1244,-0.1580,-0.3116,0.7771,0.4847,0.7691,-26.7600,-2.8800,-35.2800,
4.603415,0.1244,-0.1580,-0.3116,0.7819,0.4842,0.8852,-26.7600,-2.8800,-35.2800,
4.604024,-0.1853,0.6307,-0.6804,0.7819,0.4842,0.8852,-26.7600,-2.8800,-35.2800,
4.622138,-0.1853,0.6307,-0.6804,0.5950,0.7984,1.1105,-26.7600,-2.8800,-35.2800,
4.642040,-0.1853,0.6307,-0.6804,0.7297,0.1630,1.0243,-26.7600,-2.8800,-35.2800,
4.663970,-0.1853,0.6307,-0.6804,0.7297,0.1630,1.0243,-26.7600,-2.8800,-35.2800,
4.664612,-0.1853,0.6307,-0.6804,0.7297,0.1630,1.0243,-25.8000,-1.9800,-35.0400,
4.665284,-0.1853,0.6307,-0.6804,0.1534,-0.0325,0.3888,-25.8000,-1.9800,-35.0400,
4.665702,3.5030,-0.7848,-1.8407,0.1534,-0.0325,0.3888,-25.8000,-1.9800,-35.0400,
4.683869,3.5030,-0.7848,-1.8407,0.0458,0.4762,-0.0469,-25.8000,-1.9800,-35.0400,
4.703928,3.5030,-0.7848,-1.8407,-0.1768,1.6645,0.3079,-25.8000,-1.9800,-35.0400,
4.725122,3.5030,-0.7848,-1.8407,-0.1768,1.6645,0.3079,-25.8000,-1.9800,-35.0400,
4.726009,-6.7562,-2.0720,1.0574,-0.1768,1.6645,0.3079,-25.8000,-1.9800,-35.0400,
4.726953,-6.7562,-2.0720,1.0574,-0.1768,1.6645,0.3079,-24.9600,-1.6800,-35.2200,
4.727760,-6.7562,-2.0720,1.0574,-0.6637,1.6442,1.4860,-24.9600,-1.6800,-35.2200,
4.744576,-6.7562,-2.0720,1.0574,-0.5614,1.6256,1.9409,-24.9600,-1.6800,-35.2200,
4.764856,-6.7562,-2.0720,1.0574,-0.4256,1.5505,1.8477,-24.9600,-1.6800,-35.2200,
4.786654,-6.7562,-2.0720,1.0574,-0.4256,1.5505,1.8477,-24.9600,-1.6800,-35.2200,
4.787303,-6.7562,-2.0720,1.0574,-0.4256,1.5505,1.8477,-24.0000,-2.2200,-34.8600,
4.787985,-6.7562,-2.0720,1.0574,0.1459,1.1073,1.5963,-24.0000,-2.2200,-34.8600,
4.788363,-2.5956,-3.6856,3.4320,0.1459,1.1073,1.5963,-24.0000,-2.2200,-34.8600,
4.806733,-2.5956,-3.6856,3.4320,0.1459,1.1073,1.5963,-24.0000,-2.2200,-34.8600,
4.807443,-2.5956,-3.6856,3.4320,1.1675,0.6333,0.9625,-24.0000,-2.2200,-34.8600,
4.808256,-1.5819,-5.6673,5.2249,1.1675,0.6333,0.9625,-24.0000,-2.2200,-34.8600,
4.826800,-1.5819,-5.6673,5.2249,1.1675,0.6333,0.9625,-24.0000,-2.2200,-34.8600,
4.827236,-1.5819,-5.6673,5.2249,1.0621,-2.8767,-0.5369,-24.0000,-2.2200,-34.8600,
4.827639,-3.5067,-7.2816,9.0913,1.0621,-2.8767,-0.5369,-24.0000,-2.2200,-34.8600,
4.847860,-3.5067,-7.2816,9.0913,1.0621,-2.8767,-0.5369,-24.0000,-2.2200,-34.8600,
4.848229,-3.5067,-7.2816,9.0913,1.0621,-2.8767,-0.5369,-22.6800,-1.8600,-36.0600,
4.848570,-3.5067,-7.2816,9.0913,1.2282,-2.0442,-0.4687,-22.6800,-1.8600,-36.0600,
4.848932,1.2699,-8.6211,-4.2521,1.2282,-2.0442,-0.4687,-22.6800,-1.8600,-36.0600,
4.868472,1.2699,-8.6211,-4.2521,1.2282,-2.0442,-0.4687,-22.6800,-1.8600,-36.0600,
4.869100,1.2699,-8.6211,-4.2521,1.4099,-0.4863,-0.4575,-22.6800,-1.8600,-36.0600,
4.869725,3.6779,-5.7331,-6.5335,1.4099,-0.4863,-0.4575,-22.6800,-1.8600,-36.0600,
4.888637,3.6779,-5.7331,-6.5335,1.4099,-0.4863,-0.4575,-22.6800,-1.8600,-36.0600,
4.889362,3.6779,-5.7331,-6.5335,1.7614,1.9036,-0.6450,-22.6800,-1.8600,-36.0600,
4.890091,4.6666,-1.1514,-7.0602,1.7614,1.9036,-0.6450,-22.6800,-1.8600,-36.0600,
4.909929,4.6666,-1.1514,-7.0602,1.7614,1.9036,-0.6450,-22.6800,-1.8600,-36.0600,
4.910874,4.6666,-1.1514,-7.0602,1.7614,1.9036,-0.6450,-20.3400,-2.4600,-37.9200,
4.911708,4.6666,-1.1514,-7.0602,1.0450,3.8408,-0.2109,-20.3400,-2.4600,-37.9200,
4.912595,3.3347,5.4301,-2.9835,1.0450,3.8408,-0.2109,-20.3400,-2.4600,-37.9200,
4.930059,3.3347,5.4301,-2.9835,1.0450,3.8408,-0.2109,-20.3400,-2.4600,-37.9200,
4.930773,3.3347,5.4301,-2.9835,-0.0570,3.3556,0.7537,-20.3400,-2.4600,-37.9200,
4.931571,0.6723,9.8627,1.2778,-0.0570,3.3556,0.7537,-20.3400,-2.4600,-37.9200,
4.950174,0.6723,9.8627,1.2778,-0.0570,3.3556,0.7537,-20.3400,-2.4600,-37.9200,
4.950480,0.6723,9.8627,1.2778,0.0245,1.5313,1.6911,-20.3400,-2.4600,-37.9200,
4.950772,-3.8133,9.8087,3.2186,0.0245,1.5313,1.6911,-20.3400,-2.4600,-37.9200,
4.972162,-3.8133,9.8087,3.2186,0.0245,1.5313,1.6911,-20.3400,-2.4600,-37.9200,
4.972791,-3.8133,9.8087,3.2186,0.0245,1.5313,1.6911,-18.1200,-2.4600,-38.4600,
4.973283,-3.8133,9.8087,3.2186,0.4719,1.5409,3.0019,-18.1200,-2.4600,-38.4600,
4.973871,-8.1054,8.4909,2.4341,0.4719,1.5409,3.0019,-18.1200,-2.4600,-38.4600,
4.991324,-8.1054,8.4909,2.4341,0.4719,1.5409,3.0019,-18.1200,-2.4600,-38.4600,
4.991936,-8.1054,8.4909,2.4341,0.3899,2.5923,4.5849,-18.1200,-2.4600,-38.4600,
4.992542,-6.2562,5.4596,1.9755,0.3899,2.5923,4.5849,-18.1200,-2.4600,-38.4600,
5.011901,-6.2562,5.4596,1.9755,0.3899,2.5923,4.5849,-18.1200,-2.4600,-38.4600,
5.012734,-1.1242,2.1006,1.4495,0.3899,2.5923,4.5849,-18.1200,-2.4600,-38.4600,
5.013704,-1.1242,2.1006,1.4495,0.5406,1.4434,5.2688,-18.1200,-2.4600,-38.4600,
5.033299,-1.1242,2.1006,1.4495,0.5406,1.4434,5.2688,-18.1200,-2.4600,-38.4600,
5.034057,-1.1242,2.1006,1.4495,0.5406,1.4434,5.2688,-15.9600,-1.5600,-39.7200,
5.034772,-1.1242,2.1006,1.4495,0.6413,0.4863,5.1154,-15.9600,-1.5600,-39.7200,
5.035551,-0.0190,1.6311,0.2520,0.6413,0.4863,5.1154,-15.9600,-1.5600,-39.7200,
5.054103,-0.0190,1.6311,0.2520,0.6413,0.4863,5.1154,-15.9600,-1.5600,-39.7200,
5.055024,-0.0190,1.6311,0.2520,0.7702,1.1132,4.3026,-15.9600,-1.5600,-39.7200,
5.055966,-0.4304,1.5723,-0.9432,0.7702,1.1132,4.3026,-15.9600,-1.5600,-39.7200,
5.073535,-0.4304,1.5723,-0.9432,0.7702,1.1132,4.3026,-15.9600,-1.5600,-39.7200,
5.074066,-0.4304,1.5723,-0.9432,0.9097,1.8115,2.6855,-15.9600,-1.5600,-39.7200,
5.074545,-2.1162,1.3334,-0.6722,0.9097,1.8115,2.6855,-15.9600,-1.5600,-39.7200,
5.095257,-2.1162,1.3334,-0.6722,0.9097,1.8115,2.6855,-15.9600,-1.5600,-39.7200,
5.095781,-2.1162,1.3334,-0.6722,0.9097,1.8115,2.6855,-13.6800,-1.5600,-40.3200,
5.096270,-2.1162,1.3334,-0.6722,1.3369,1.6831,0.4788,-13.6800,-1.5600,-40.3200,
5.096730,-6.5607,1.3061,-0.1102,1.3369,1.6831,0.4788,-13.6800,-1.5600,-40.3200,
5.115326,-6.5607,1.3061,-0.1102,1.3369,1.6831,0.4788,-13.6800,-1.5600,-40.3200,
5.115926,-6.5607,1.3061,-0.1102,1.1302,1.4567,-1.0834,-13.6800,-1.5600,-40.3200,
5.116537,-7.6132,3.6195,-0.2554,1.1302,1.4567,-1.0834,-13.6800,-1.5600,-40.3200,
5.135057,-7.6132,3.6195,-0.2554,1.1302,1.4567,-1.0834,-13.6800,-1.5600,-40.3200,
5.135684,-7.6132,3.6195,-0.2554,0.4602,0.9758,-1.6213,-13.6800,-1.5600,-40.3200,
5.136382,-5.3657,4.1105,1.1855,0.4602,0.9758,-1.6213,-13.6800,-1.5600,-40.3200,
5.155970,-5.3657,4.1105,1.1855,0.4602,0.9758,-1.6213,-13.6800,-1.5600,-40.3200,
5.156291,-5.3657,4.1105,1.1855,0.4602,0.9758,-1.6213,-11.4600,-0.6000,-40.9200,
5.156619,-5.3657,4.1105,1.1855,-0.8954,-0.3260,-1.3252,-11.4600,-0.6000,-40.9200,
5.156864,-1.4553,3.2864,0.9702,-0.8954,-0.3260,-1.3252,-11.4600,-0.6000,-40.9200,
5.176265,-1.4553,3.2864,0.9702,-0.8954,-0.3260,-1.3252,-11.4600,-0.6000,-40.9200,
5.176886,-1.4553,3.2864,0.9702,-2.0197,-1.4147,-1.2378,-11.4600,-0.6000,-40.9200,
5.177669,0.9690,2.2707,0.5000,-2.0197,-1.4147,-1.2378,-11.4600,-0.6000,-40.9200,
5.196586,0.9690,2.2707,0.5000,-2.0197,-1.4147,-1.2378,-11.4600,-0.6000,-40.9200,
5.197338,0.9690,2.2707,0.5000,-2.4688,-1.5036,-1.5052,-11.4600,-0.6000,-40.9200,
5.197995,1.0112,1.0543,-0.6627,-2.4688,-1.5036,-1.5052,-11.4600,-0.6000,-40.9200,
5.217998,1.0112,1.0543,-0.6627,-2.4688,-1.5036,-1.5052,-11.4600,-0.6000,-40.9200,
5.218864,1.0112,1.0543,-0.6627,-2.4688,-1.5036,-1.5052,-8.7600,-0.9600,-42.9000,
5.219720,1.0112,1.0543,-0.6627,-2.4682,-1.2741,-1.8653,-8.7600,-0.9600,-42.9000,
5.220675,0.6320,0.2675,-1.6605,-2.4682,-1.2741,-1.8653,-8.7600,-0.9600,-42.9000,
5.237912,0.6320,0.2675,-1.6605,-2.4682,-1.2741,-1.8653,-8.7600,-0.9600,-42.9000,
5.238795,0.6320,0.2675,-1.6605,-2.2392,-0.8831,-2.0996,-8.7600,-0.9600,-42.9000,
5.239907,0.5091,-0.3003,-2.1759,-2.2392,-0.8831,-2.0996,-8.7600,-0.9600,-42.9000,
5.258258,0.5091,-0.3003,-2.1759,-2.2392,-0.8831,-2.0996,-8.7600,-0.9600,-42.9000,
5.258951,0.5091,-0.3003,-2.1759,-1.6991,-0.1241,-2.1364,-8.7600,-0.9600,-42.9000,
5.259729,0.4402,-0.4515,-0.6533,-1.6991,-0.1241,-2.1364,-8.7600,-0.9600,-42.9000,
5.279047,0.4402,-0.4515,-0.6533,-1.6991,-0.1241,-2.1364,-8.7600,-0.9600,-42.9000,
5.279392,0.4402,-0.4515,-0.6533,-1.6991,-0.1241,-2.1364,-7.4400,0.1800,-43.4400,
5.279766,0.4402,-0.4515,-0.6533,-0.7952,0.6338,-1.6858,-7.4400,0.1800,-43.4400,
5.280097,-1.4482,0.6286,0.2559,-0.7952,0.6338,-1.6858,-7.4400,0.1800,-43.4400,
5.299043,-1.4482,0.6286,0.2559,-0.7952,0.6338,-1.6858,-7.4400,0.1800,-43.4400,
5.299716,-1.4482,0.6286,0.2559,-0.1656,0.8815,-0.7425,-7.4400,0.1800,-43.4400,
5.300387,-1.4620,1.1214,0.6793,-0.1656,0.8815,-0.7425,-7.4400,0.1800,-43.4400,
5.320756,-1.4620,1.1214,0.6793,-0.1656,0.8815,-0.7425,-7.4400,0.1800,-43.4400,
5.322155,-1.4620,1.1214,0.6793,-0.0080,1.3683,-0.4304,-7.4400,0.1800,-43.4400,
5.323088,0.2035,1.0148,0.7396,-0.0080,1.3683,-0.4304,-7.4400,0.1800,-43.4400,
5.341129,0.2035,1.0148,0.7396,-0.0080,1.3683,-0.4304,-7.4400,0.1800,-43.4400,
5.342060,0.2035,1.0148,0.7396,-0.0080,1.3683,-0.4304,-7.0200,2.0400,-43.5600,
5.342870,0.2035,1.0148,0.7396,-0.2349,0.9774,-0.6503,-7.0200,2.0400,-43.5600,
5.343603,1.9302,0.8648,1.0999,-0.2349,0.9774,-0.6503,-7.0200,2.0400,-43.5600,
5.360717,1.9302,0.8648,1.0999,-0.2349,0.9774,-0.6503,-7.0200,2.0400,-43.5600,
5.361069,1.9302,0.8648,1.0999,-1.0061,0.2434,-1.2256,-7.0200,2.0400,-43.5600,
5.361440,3.6491,1.4799,-1.0552,-1.0061,0.2434,-1.2256,-7.0200,2.0400,-43.5600,
5.381109,3.6491,1.4799,-1.0552,-1.0061,0.2434,-1.2256,-7.0200,2.0400,-43.5600,
5.381458,3.6491,1.4799,-1.0552,-1.5159,0.0021,-1.6975,-7.0200,2.0400,-43.5600,
5.381780,3.9366,2.2062,-0.7590,-1.5159,0.0021,-1.6975,-7.0200,2.0400,-43.5600,
5.402290,3.9366,2.2062,-0.7590,-1.5159,0.0021,-1.6975,-7.0200,2.0400,-43.5600,
5.402638,3.9366,2.2062,-0.7590,-1.5159,0.0021,-1.6975,-7.1400,3.6600,-43.5600,
5.402831,3.9366,2.2062,-0.7590,-1.4615,-0.0107,-1.9857,-7.1400,3.6600,-43.5600,
5.403137,3.2451,2.5568,0.3846,-1.4615,-0.0107,-1.9857,-7.1400,3.6600,-43.5600,
5.422666,3.2451,2.5568,0.3846,-1.4615,-0.0107,-1.9857,-7.1400,3.6600,-43.5600,
5.423026,3.2451,2.5568,0.3846,-1.2251,0.0756,-1.8930,-7.1400,3.6600,-43.5600,
5.423378,1.5956,3.2635,-0.0252,-1.2251,0.0756,-1.8930,-7.1400,3.6600,-43.5600,
5.442816,1.5956,3.2635,-0.0252,-1.2251,0.0756,-1.8930,-7.1400,3.6600,-43.5600,
5.443304,1.5956,3.2635,-0.0252,-1.0274,0.2929,-1.4243,-7.1400,3.6600,-43.5600,
5.443793,-0.1141,3.8883,-0.7658,-1.0274,0.2929,-1.4243,-7.1400,3.6600,-43.5600,
5.463703,-0.1141,3.8883,-0.7658,-1.0274,0.2929,-1.4243,-7.1400,3.6600,-43.5600,
5.464001,-0.8245,4.4337,-0.7957,-1.0274,0.2929,-1.4243,-7.1400,3.6600,-43.5600,
5.464288,-0.8245,4.4337,-0.7957,-1.0274,0.2929,-1.4243,-8.1000,6.5400,-43.5000,
5.464518,-0.8245,4.4337,-0.7957,-0.9028,0.1348,-0.9177,-8.1000,6.5400,-43.5000,
5.483957,-0.8245,4.4337,-0.7957,-0.9028,0.1348,-0.9177,-8.1000,6.5400,-43.5000,
5.484454,-0.8245,4.4337,-0.7957,-0.7878,0.2743,-0.5838,-8.1000,6.5400,-43.5000,
5.484973,-1.1115,4.4673,-0.6629,-0.7878,0.2743,-0.5838,-8.1000,6.5400,-43.5000,
5.504328,-1.1115,4.4673,-0.6629,-0.7878,0.2743,-0.5838,-8.1000,6.5400,-43.5000,
5.504869,-1.1113,4.2139,-0.5782,-0.7878,0.2743,-0.5838,-8.1000,6.5400,-43.5000,
5.505579,-1.1113,4.2139,-0.5782,-0.6701,0.4165,-0.4506,-8.1000,6.5400,-43.5000,
5.525525,-1.1113,4.2139,-0.5782,-0.6701,0.4165,-0.4506,-8.1000,6.5400,-43.5000,
5.526108,-1.1113,4.2139,-0.5782,-0.6701,0.4165,-0.4506,-7.3800,8.9400,-43.2000,
5.526486,-1.3534,3.9434,-0.6653,-0.6701,0.4165,-0.4506,-7.3800,8.9400,-43.2000,
5.527091,-1.3534,3.9434,-0.6653,-0.6312,0.4240,-0.4490,-7.3800,8.9400,-43.2000,
5.545585,-1.3534,3.9434,-0.6653,-0.6312,0.4240,-0.4490,-7.3800,8.9400,-43.2000,
5.546329,-1.3534,3.9434,-0.6653,-0.6083,0.9593,-0.4575,-7.3800,8.9400,-43.2000,
5.547143,-1.8603,3.2381,0.1499,-0.6083,0.9593,-0.4575,-7.3800,8.9400,-43.2000,
5.565762,-1.8603,3.2381,0.1499,-0.6083,0.9593,-0.4575,-7.3800,8.9400,-43.2000,
5.566301,-1.8603,3.2381,0.1499,-0.4192,1.7950,-0.3989,-7.3800,8.9400,-43.2000,
5.566919,-2.2364,2.1666,1.7647,-0.4192,1.7950,-0.3989,-7.3800,8.9400,-43.2000,
5.586890,-2.2364,2.1666,1.7647,-0.4192,1.7950,-0.3989,-7.3800,8.9400,-43.2000,
5.587497,-1.7226,0.8453,4.6915,-0.4192,1.7950,-0.3989,-7.3800,8.9400,-43.2000,
5.588079,-1.7226,0.8453,4.6915,-0.4192,1.7950,-0.3989,-7.0800,11.0400,-43.0800,
5.588647,-1.7226,0.8453,4.6915,0.1411,1.5297,-0.3846,-7.0800,11.0400,-43.0800,
5.607015,-1.7226,0.8453,4.6915,0.1411,1.5297,-0.3846,-7.0800,11.0400,-43.0800,
5.607571,-1.7226,0.8453,4.6915,0.3920,0.7020,-0.4447,-7.0800,11.0400,-43.0800,
5.608092,-1.2648,0.0058,2.5640,0.3920,0.7020,-0.4447,-7.0800,11.0400,-43.0800,
5.627537,-1.2648,0.0058,2.5640,0.3920,0.7020,-0.4447,-7.0800,11.0400,-43.0800,
5.628242,-1.2648,0.0058,2.5640,-0.2184,0.0437,-0.4176,-7.0800,11.0400,-43.0800,
5.628706,-0.9630,0.2936,0.4040,-0.2184,0.0437,-0.4176,-7.0800,11.0400,-43.0800,
5.649056,-0.9630,0.2936,0.4040,-0.2184,0.0437,-0.4176,-7.0800,11.0400,-43.0800,
5.649781,-0.9630,0.2936,0.4040,-0.2184,0.0437,-0.4176,-5.7600,13.6200,-42.9600,
5.650447,-0.9630,0.2936,0.4040,-0.7531,-0.7979,-0.3249,-5.7600,13.6200,-42.9600,
5.650952,-0.6742,0.6663,0.8048,-0.7531,-0.7979,-0.3249,-5.7600,13.6200,-42.9600,
5.668792,-0.6742,0.6663,0.8048,-0.7531,-0.7979,-0.3249,-5.7600,13.6200,-42.9600,
5.669718,-0.6742,0.6663,0.8048,-0.7963,-1.0706,-0.2477,-5.7600,13.6200,-42.9600,
5.670522,-0.7394,0.7444,1.4001,-0.7963,-1.0706,-0.2477,-5.7600,13.6200,-42.9600,
5.689773,-0.7394,0.7444,1.4001,-0.7963,-1.0706,-0.2477,-5.7600,13.6200,-42.9600,
5.690383,-0.7394,0.7444,1.4001,-0.5598,-1.0583,-0.1843,-5.7600,13.6200,-42.9600,
5.691104,-1.1805,0.7658,1.2042,-0.5598,-1.0583,-0.1843,-5.7600,13.6200,-42.9600,
5.711023,-1.1805,0.7658,1.2042,-0.5598,-1.0583,-0.1843,-5.7600,13.6200,-42.9600,
5.711735,-1.1805,0.7658,1.2042,-0.5598,-1.0583,-0.1843,-4.8000,15.4200,-42.3000,
5.712426,-1.1805,0.7658,1.2042,-0.2573,-0.8187,-0.2040,-4.8000,15.4200,-42.3000,
5.712991,-1.4437,0.8612,0.5728,-0.2573,-0.8187,-0.2040,-4.8000,15.4200,-42.3000,
5.730578,-1.4437,0.8612,0.5728,-0.2573,-0.8187,-0.2040,-4.8000,15.4200,-42.3000,
5.731284,-1.4437,0.8612,0.5728,-0.1641,-0.4314,-0.2301,-4.8000,15.4200,-42.3000,
5.731709,-1.8717,1.0767,-0.2354,-0.1641,-0.4314,-0.2301,-4.8000,15.4200,-42.3000,
5.751619,-1.8717,1.0767,-0.2354,-0.1641,-0.4314,-0.2301,-4.8000,15.4200,-42.3000,
5.752600,-1.8717,1.0767,-0.2354,-0.2258,-0.1060,-0.1965,-4.8000,15.4200,-42.3000,
5.753200,-1.9454,1.5383,-0.3830,-0.2258,-0.1060,-0.1965,-4.8000,15.4200,-42.3000,
5.771212,-1.9454,1.5383,-0.3830,-0.2258,-0.1060,-0.1965,-4.8000,15.4200,-42.3000,
5.771545,-1.7451,1.7419,0.0234,-0.2258,-0.1060,-0.1965,-4.8000,15.4200,-42.3000,
5.771872,-1.7451,1.7419,0.0234,-0.2258,-0.1060,-0.1965,-5.0400,16.6200,-41.8200,
5.772118,-1.7451,1.7419,0.0234,-0.2525,0.0815,-0.1033,-5.0400,16.6200,-41.8200,
5.791376,-1.7451,1.7419,0.0234,-0.2525,0.0815,-0.1033,-5.0400,16.6200,-41.8200,
5.791885,-1.7451,1.7419,0.0234,-0.2088,0.2668,-0.0101,-5.0400,16.6200,-41.8200,
5.792260,-1.4424,1.6121,0.4248,-0.2088,0.2668,-0.0101,-5.0400,16.6200,-41.8200,
5.812142,-1.4424,1.6121,0.4248,-0.2088,0.2668,-0.0101,-5.0400,16.6200,-41.8200,
5.812678,-1.4424,1.6121,0.4248,-0.1119,0.5001,0.0453,-5.0400,16.6200,-41.8200,
5.813108,-1.3440,1.1038,0.7397,-0.1119,0.5001,0.0453,-5.0400,16.6200,-41.8200,
5.833716,-1.3440,1.1038,0.7397,-0.1119,0.5001,0.0453,-5.0400,16.6200,-41.8200,
5.834370,-1.2737,0.7036,0.9319,-0.1119,0.5001,0.0453,-5.0400,16.6200,-41.8200,
5.835053,-1.2737,0.7036,0.9319,-0.1119,0.5001,0.0453,-4.9800,16.9800,-41.4600,
5.835546,-1.2737,0.7036,0.9319,0.0117,0.7404,0.0522,-4.9800,16.9800,-41.4600,
5.853531,-1.2737,0.7036,0.9319,0.0117,0.7404,0.0522,-4.9800,16.9800,-41.4600,
5.854115,-1.2737,0.7036,0.9319,-0.4256,0.0154,-0.0112,-4.9800,16.9800,-41.4600,
5.854588,-1.5926,2.2191,0.8093,-0.4256,0.0154,-0.0112,-4.9800,16.9800,-41.4600,
5.875078,-1.5926,2.2191,0.8093,-0.4256,0.0154,-0.0112,-4.9800,16.9800,-41.4600,
5.875800,-1.5926,2.2191,0.8093,-0.1715,0.0879,-0.1774,-4.9800,16.9800,-41.4600,
5.876503,-0.2513,-0.0892,2.2743,-0.1715,0.0879,-0.1774,-4.9800,16.9800,-41.4600,
5.894903,-0.2513,-0.0892,2.2743,-0.1715,0.0879,-0.1774,-4.9800,16.9800,-41.4600,
5.895543,-0.8129,-0.0292,1.0727,-0.1715,0.0879,-0.1774,-4.9800,16.9800,-41.4600,
5.896362,-0.8129,-0.0292,1.0727,-0.1715,0.0879,-0.1774,-6.1200,17.4000,-41.4600,
5.896834,-0.8129,-0.0292,1.0727,0.0831,-0.0975,-0.5071,-6.1200,17.4000,-41.4600,
5.915475,-0.8129,-0.0292,1.0727,0.0831,-0.0975,-0.5071,-6.1200,17.4000,-41.4600,
5.916074,-0.8129,-0.0292,1.0727,-0.0559,-0.5619,-0.5630,-6.1200,17.4000,-41.4600,
5.916606,-1.1342,0.0942,0.3850,-0.0559,-0.5619,-0.5630,-6.1200,17.4000,-41.4600,
5.935959,-1.1342,0.0942,0.3850,-0.0559,-0.5619,-0.5630,-6.1200,17.4000,-41.4600,
5.936943,-1.1342,0.0942,0.3850,-0.2637,-0.7899,-0.3281,-6.1200,17.4000,-41.4600,
5.937804,-0.8849,0.4836,0.0366,-0.2637,-0.7899,-0.3281,-6.1200,17.4000,-41.4600,
5.956721,-0.8849,0.4836,0.0366,-0.2637,-0.7899,-0.3281,-6.1200,17.4000,-41.4600,
5.957731,-0.8983,1.5882,0.3193,-0.2637,-0.7899,-0.3281,-6.1200,17.4000,-41.4600,
5.958729,-0.8983,1.5882,0.3193,-0.2637,-0.7899,-0.3281,-6.2400,18.0600,-40.9200,
5.959501,-0.8983,1.5882,0.3193,-0.6445,-1.3625,0.0368,-6.2400,18.0600,-40.9200,
5.976749,-0.8983,1.5882,0.3193,-0.6445,-1.3625,0.0368,-6.2400,18.0600,-40.9200,
5.977624,-0.8983,1.5882,0.3193,-0.9167,-2.3660,0.2503,-6.2400,18.0600,-40.9200,
5.978467,-0.5077,1.2982,1.0304,-0.9167,-2.3660,0.2503,-6.2400,18.0600,-40.9200,
5.996824,-0.5077,1.2982,1.0304,-0.9167,-2.3660,0.2503,-6.2400,18.0600,-40.9200,
5.997373,-0.5077,1.2982,1.0304,-0.6083,-2.6195,0.2173,-6.2400,18.0600,-40.9200,
5.997829,-0.4380,0.0552,1.0302,-0.6083,-2.6195,0.2173,-6.2400,18.0600,-40.9200,
6.018374,-0.4380,0.0552,1.0302,-0.6083,-2.6195,0.2173,-6.2400,18.0600,-40.9200,
6.019183,-1.0429,-1.1527,-0.0303,-0.6083,-2.6195,0.2173,-6.2400,18.0600,-40.9200,
6.020060,-1.0429,-1.1527,-0.0303,-0.6083,-2.6195,0.2173,-6.6600,18.1800,-41.1000,
6.020748,-1.0429,-1.1527,-0.0303,-0.0959,-1.7880,0.0495,-6.6600,18.1800,-41.1000,
6.037948,-1.0429,-1.1527,-0.0303,-0.0959,-1.7880,0.0495,-6.6600,18.1800,-41.1000,
6.038609,-1.0429,-1.1527,-0.0303,0.3553,-0.4778,0.0213,-6.6600,18.1800,-41.1000,
6.039330,-0.9367,-1.2717,-0.8198,0.3553,-0.4778,0.0213,-6.6600,18.1800,-41.1000,
6.058974,-0.9367,-1.2717,-0.8198,0.3553,-0.4778,0.0213,-6.6600,18.1800,-41.1000,
6.060225,-0.9367,-1.2717,-0.8198,0.4938,0.4506,0.0581,-6.6600,18.1800,-41.1000,
6.060883,-0.0993,-0.1990,-1.5290,0.4938,0.4506,0.0581,-6.6600,18.1800,-41.1000,
6.079443,-0.0993,-0.1990,-1.5290,0.4938,0.4506,0.0581,-6.6600,18.1800,-41.1000,
6.080448,-0.0993,-0.1990,-1.5290,0.4938,0.4506,0.0581,-8.3400,18.7800,-39.7200,
6.081178,-0.0993,-0.1990,-1.5290,0.0767,0.4618,0.0037,-8.3400,18.7800,-39.7200,
6.081852,-0.2979,1.1065,-1.5502,0.0767,0.4618,0.0037,-8.3400,18.7800,-39.7200,
6.099710,-0.2979,1.1065,-1.5502,0.0767,0.4618,0.0037,-8.3400,18.7800,-39.7200,
6.100134,-0.2979,1.1065,-1.5502,-0.4820,-0.0911,-0.1406,-8.3400,18.7800,-39.7200,
6.100331,-0.7977,0.9398,-0.1361,-0.4820,-0.0911,-0.1406,-8.3400,18.7800,-39.7200,
6.120576,-0.7977,0.9398,-0.1361,-0.4820,-0.0911,-0.1406,-8.3400,18.7800,-39.7200,
6.121435,-0.7977,0.9398,-0.1361,-0.7169,-0.1417,-0.3489,-8.3400,18.7800,-39.7200,
6.121947,-0.2414,0.3723,0.9164,-0.7169,-0.1417,-0.3489,-8.3400,18.7800,-39.7200,
6.141977,-0.2414,0.3723,0.9164,-0.7169,-0.1417,-0.3489,-8.3400,18.7800,-39.7200,
6.142687,-0.2414,0.3723,0.9164,-0.7169,-0.1417,-0.3489,-9.7800,19.1400,-38.8200,
6.143181,-0.2414,0.3723,0.9164,-0.5060,-0.0591,-0.3318,-9.7800,19.1400,-38.8200,
6.143582,-0.4996,-0.3657,1.6503,-0.5060,-0.0591,-0.3318,-9.7800,19.1400,-38.8200,
6.162407,-0.4996,-0.3657,1.6503,-0.5060,-0.0591,-0.3318,-9.7800,19.1400,-38.8200,
6.163545,-0.4996,-0.3657,1.6503,-0.1848,-0.3957,-0.1225,-9.7800,19.1400,-38.8200,
6.164285,-0.6032,0.0111,1.6266,-0.1848,-0.3957,-0.1225,-9.7800,19.1400,-38.8200,
6.182496,-0.6032,0.0111,1.6266,-0.1848,-0.3957,-0.1225,-9.7800,19.1400,-38.8200,
6.183569,-0.6388,0.2638,0.5180,-0.1848,-0.3957,-0.1225,-9.7800,19.1400,-38.8200,
6.184562,-0.6388,0.2638,0.5180,-0.1779,-0.6977,-0.1092,-9.7800,19.1400,-38.8200,
6.202231,-0.6388,0.2638,0.5180,-0.1779,-0.6977,-0.1092,-9.7800,19.1400,-38.8200,
6.202912,-0.6388,0.2638,0.5180,-0.1779,-0.6977,-0.1092,-12.3000,19.7400,-37.7400,
6.203216,-0.6388,0.2638,0.5180,-0.4261,-0.9721,-0.1923,-12.3000,19.7400,-37.7400,
6.203437,-1.1368,0.2131,0.3007,-0.4261,-0.9721,-0.1923,-12.3000,19.7400,-37.7400,
6.222638,-1.1368,0.2131,0.3007,-0.4261,-0.9721,-0.1923,-12.3000,19.7400,-37.7400,
6.223646,-1.1368,0.2131,0.3007,-0.5241,-1.1686,-0.1411,-12.3000,19.7400,-37.7400,
6.224409,-0.7445,0.3837,0.9907,-0.5241,-1.1686,-0.1411,-12.3000,19.7400,-37.7400,
6.242947,-0.7445,0.3837,0.9907,-0.5241,-1.1686,-0.1411,-12.3000,19.7400,-37.7400,
6.244246,-0.7445,0.3837,0.9907,-0.3798,-1.0243,-0.0948,-12.3000,19.7400,-37.7400,
6.244992,-0.5420,0.4184,1.0518,-0.3798,-1.0243,-0.0948,-12.3000,19.7400,-37.7400,
6.263977,-0.5420,0.4184,1.0518,-0.3798,-1.0243,-0.0948,-12.3000,19.7400,-37.7400,
6.264864,-0.5420,0.4184,1.0518,-0.3798,-1.0243,-0.0948,-13.5600,20.4000,-36.6000,
6.266208,-0.5420,0.4184,1.0518,-0.1326,-0.6993,-0.0762,-13.5600,20.4000,-36.6000,
6.266884,-0.4244,-0.1644,0.8836,-0.1326,-0.6993,-0.0762,-13.5600,20.4000,-36.6000,
6.284163,-0.4244,-0.1644,0.8836,-0.1326,-0.6993,-0.0762,-13.5600,20.4000,-36.6000,
6.285352,-0.4244,-0.1644,0.8836,0.1475,-0.7915,0.0229,-13.5600,20.4000,-36.6000,
6.286084,-1.2919,0.1532,1.9801,0.1475,-0.7915,0.0229,-13.5600,20.4000,-36.6000,
6.304178,-1.2919,0.1532,1.9801,0.1475,-0.7915,0.0229,-13.5600,20.4000,-36.6000,
6.304705,-1.2919,0.1532,1.9801,0.1342,-0.5907,0.0953,-13.5600,20.4000,-36.6000,
6.304910,-0.6643,0.2410,0.1839,0.1342,-0.5907,0.0953,-13.5600,20.4000,-36.6000,
6.326429,-0.6643,0.2410,0.1839,0.1342,-0.5907,0.0953,-13.5600,20.4000,-36.6000,
6.327424,-0.6643,0.2410,0.1839,0.1342,-0.5907,0.0953,-14.7600,20.8800,-36.9000,
6.328013,-0.6643,0.2410,0.1839,0.0469,-0.5246,0.0703,-14.7600,20.8800,-36.9000,
6.328533,-0.1643,0.1664,0.3858,0.0469,-0.5246,0.0703,-14.7600,20.8800,-36.9000,
6.346220,-0.1643,0.1664,0.3858,0.0469,-0.5246,0.0703,-14.7600,20.8800,-36.9000,
6.347136,-0.1643,0.1664,0.3858,0.0921,-0.5486,-0.1198,-14.7600,20.8800,-36.9000,
6.347735,0.0023,0.1992,0.8305,0.0921,-0.5486,-0.1198,-14.7600,20.8800,-36.9000,
6.367313,0.0023,0.1992,0.8305,0.0921,-0.5486,-0.1198,-14.7600,20.8800,-36.9000,
6.368327,0.0023,0.1992,0.8305,0.2019,-0.5023,-0.1305,-14.7600,20.8800,-36.9000,
6.369031,-0.1932,0.3452,0.7160,0.2019,-0.5023,-0.1305,-14.7600,20.8800,-36.9000,
6.387153,-0.1932,0.3452,0.7160,0.2019,-0.5023,-0.1305,-14.7600,20.8800,-36.9000,
6.388051,-0.1932,0.3452,0.7160,0.2019,-0.5023,-0.1305,-16.8600,21.4800,-35.8200,
6.388602,-0.1932,0.3452,0.7160,0.1475,-0.5454,-0.0336,-16.8600,21.4800,-35.8200,
6.389110,-0.7876,0.5001,0.3121,0.1475,-0.5454,-0.0336,-16.8600,21.4800,-35.8200,
6.407478,-0.7876,0.5001,0.3121,0.1475,-0.5454,-0.0336,-16.8600,21.4800,-35.8200,
6.408129,-0.7876,0.5001,0.3121,0.0389,-0.5001,0.0469,-16.8600,21.4800,-35.8200,
6.408593,-0.4087,0.6369,-0.1776,0.0389,-0.5001,0.0469,-16.8600,21.4800,-35.8200,
6.428541,-0.4087,0.6369,-0.1776,0.0389,-0.5001,0.0469,-16.8600,21.4800,-35.8200,
6.429463,-0.4087,0.6369,-0.1776,-0.0304,-0.3830,0.0730,-16.8600,21.4800,-35.8200,
6.429883,0.0252,0.3741,0.0726,-0.0304,-0.3830,0.0730,-16.8600,21.4800,-35.8200,
6.449727,0.0252,0.3741,0.0726,-0.0304,-0.3830,0.0730,-16.8600,21.4800,-35.8200,
6.450810,0.0252,0.3741,0.0726,-0.0304,-0.3830,0.0730,-18.1800,21.3600,-36.6000,
6.451388,0.0252,0.3741,0.0726,0.0154,-0.3483,0.1081,-18.1800,21.3600,-36.6000,
6.451784,0.2837,-0.1402,0.4249,0.0154,-0.3483,0.1081,-18.1800,21.3600,-36.6000,
6.469790,0.2837,-0.1402,0.4249,0.0154,-0.3483,0.1081,-18.1800,21.3600,-36.6000,
6.470838,0.2837,-0.1402,0.4249,0.1539,-0.2045,0.1561,-18.1800,21.3600,-36.6000,
6.471443,0.2081,-0.4099,0.3935,0.1539,-0.2045,0.1561,-18.1800,21.3600,-36.6000,
6.490711,0.2081,-0.4099,0.3935,0.1539,-0.2045,0.1561,-18.1800,21.3600,-36.6000,
6.492198,0.2081,-0.4099,0.3935,0.1656,-0.1603,0.2205,-18.1800,21.3600,-36.6000,
6.493088,0.1464,-0.1403,0.1730,0.1656,-0.1603,0.2205,-18.1800,21.3600,-36.6000,
6.510815,0.1464,-0.1403,0.1730,0.1656,-0.1603,0.2205,-18.1800,21.3600,-36.6000,
6.511388,0.1464,-0.1403,0.1730,0.1656,-0.1603,0.2205,-20.0400,20.7600,-35.4600,
6.511991,0.1464,-0.1403,0.1730,0.1651,-0.0762,0.2306,-20.0400,20.7600,-35.4600,
6.512244,0.1161,0.3255,0.2743,0.1651,-0.0762,0.2306,-20.0400,20.7600,-35.4600,
6.530358,0.1161,0.3255,0.2743,0.1651,-0.0762,0.2306,-20.0400,20.7600,-35.4600,
6.531177,0.1161,0.3255,0.2743,0.3505,0.1182,0.1103,-20.0400,20.7600,-35.4600,
6.531794,0.3225,0.6866,0.0501,0.3505,0.1182,0.1103,-20.0400,20.7600,-35.4600,
6.551239,0.3225,0.6866,0.0501,0.3505,0.1182,0.1103,-20.0400,20.7600,-35.4600,
6.552329,0.3225,0.6866,0.0501,0.3041,0.1007,0.0005,-20.0400,20.7600,-35.4600,
6.552814,-0.1552,-0.0989,0.3312,0.3041,0.1007,0.0005,-20.0400,20.7600,-35.4600,
6.572216,-0.1552,-0.0989,0.3312,0.3041,0.1007,0.0005,-20.0400,20.7600,-35.4600,
6.572911,-0.1552,-0.0989,0.3312,0.3041,0.1007,0.0005,-20.5800,20.6400,-34.5600,
6.573602,-0.1552,-0.0989,0.3312,0.1475,0.0730,0.0336,-20.5800,20.6400,-34.5600,
6.573980,0.1377,-0.2812,0.3897,0.1475,0.0730,0.0336,-20.5800,20.6400,-34.5600,
6.591915,0.1377,-0.2812,0.3897,0.1475,0.0730,0.0336,-20.5800,20.6400,-34.5600,
6.592649,0.1377,-0.2812,0.3897,0.1060,-0.0533,0.0655,-20.5800,20.6400,-34.5600,
6.593045,0.1177,-0.2064,0.2679,0.1060,-0.0533,0.0655,-20.5800,20.6400,-34.5600,
6.611969,0.1177,-0.2064,0.2679,0.1060,-0.0533,0.0655,-20.5800,20.6400,-34.5600,
6.612355,0.1177,-0.2064,0.2679,0.0820,-0.2977,0.0607,-20.5800,20.6400,-34.5600,
6.612557,0.0320,-0.2732,0.3567,0.0820,-0.2977,0.0607,-20.5800,20.6400,-34.5600,
6.634055,0.0320,-0.2732,0.3567,0.0820,-0.2977,0.0607,-20.5800,20.6400,-34.5600,
6.634684,0.0320,-0.2732,0.3567,0.0820,-0.2977,0.0607,-20.5200,20.4600,-34.4400,
6.635170,-0.2615,0.3482,0.1573,0.0820,-0.2977,0.0607,-20.5200,20.4600,-34.4400,
6.635609,-0.2615,0.3482,0.1573,0.0613,-0.2115,0.0128,-20.5200,20.4600,-34.4400,
