
time,ax,ay,az,wx,wy,wz,Bx,By,Bz,
0.015769,0.0000,0.0000,0.0000,-0.0011,-0.0154,0.0208,0.0000,0.0000,0.0000,
0.031635,0.0000,0.0000,0.0000,-0.0011,-0.0154,0.0208,0.0000,0.0000,0.0000,
0.051574,0.0000,0.0000,0.0000,-0.0011,-0.0154,0.0208,0.0000,0.0000,0.0000,
0.052255,0.0000,0.0000,0.0000,-0.0011,-0.0154,0.0208,-3.1200,35.8200,-12.6000,
0.052535,0.0000,0.0000,0.0000,-0.0011,-0.0154,0.0208,-3.1200,35.8200,-12.6000,
0.071192,0.0000,0.0000,0.0000,-0.0011,-0.0154,0.0208,-3.1200,35.8200,-12.6000,
0.091695,0.0000,0.0000,0.0000,-0.0799,0.0027,-0.1017,-3.1200,35.8200,-12.6000,
0.113229,0.0000,0.0000,0.0000,-0.0799,0.0027,-0.1017,-3.1200,35.8200,-12.6000,
0.114112,0.0000,0.0000,0.0000,-0.0799,0.0027,-0.1017,-13.4400,27.7200,-18.0000,
0.114834,0.0000,0.0000,0.0000,-0.1097,0.0421,-0.1364,-13.4400,27.7200,-18.0000,
0.115375,0.0206,0.0500,-0.0007,-0.1097,0.0421,-0.1364,-13.4400,27.7200,-18.0000,
0.132644,0.0206,0.0500,-0.0007,-0.0943,0.0144,-0.1752,-13.4400,27.7200,-18.0000,
0.152621,0.0206,0.0500,-0.0007,-0.0868,0.0767,-0.3249,-13.4400,27.7200,-18.0000,
0.174393,0.0206,0.0500,-0.0007,-0.0868,0.0767,-0.3249,-13.4400,27.7200,-18.0000,
0.174980,0.0206,0.0500,-0.0007,-0.0868,0.0767,-0.3249,-18.9600,23.7600,-20.8200,
0.175486,0.0206,0.0500,-0.0007,-0.1406,0.0985,-0.4671,-18.9600,23.7600,-20.8200,
0.176105,0.4255,0.5343,-0.0575,-0.1406,0.0985,-0.4671,-18.9600,23.7600,-20.8200,
0.193796,0.4255,0.5343,-0.0575,-0.1113,0.2983,-0.6360,-18.9600,23.7600,-20.8200,
0.214702,0.4255,0.5343,-0.0575,-0.0714,0.5364,-0.8714,-18.9600,23.7600,-20.8200,
0.236028,0.4255,0.5343,-0.0575,-0.0714,0.5364,-0.8714,-18.9600,23.7600,-20.8200,
0.236663,0.4255,0.5343,-0.0575,-0.0714,0.5364,-0.8714,-24.3000,19.7400,-23.0400,
0.237292,0.4255,0.5343,-0.0575,-0.0112,0.6898,-1.2187,-24.3000,19.7400,-23.0400,
0.238043,1.1213,1.5429,-0.0437,-0.0112,0.6898,-1.2187,-24.3000,19.7400,-23.0400,
0.255417,1.1213,1.5429,-0.0437,0.0863,0.7537,-1.6618,-24.3000,19.7400,-23.0400,
0.276127,1.1213,1.5429,-0.0437,0.0815,0.5241,-2.1103,-24.3000,19.7400,-23.0400,
0.297620,1.1213,1.5429,-0.0437,0.0815,0.5241,-2.1103,-24.3000,19.7400,-23.0400,
0.298169,1.2492,2.3744,0.0532,0.0815,0.5241,-2.1103,-24.3000,19.7400,-23.0400,
0.298753,1.2492,2.3744,0.0532,0.0815,0.5241,-2.1103,-24.4200,19.5600,-22.4400,
0.299120,1.2492,2.3744,0.0532,0.0176,0.0900,-2.3084,-24.4200,19.5600,-22.4400,
0.317401,1.2492,2.3744,0.0532,0.0740,-0.1859,-2.3404,-24.4200,19.5600,-22.4400,
0.337777,1.2492,2.3744,0.0532,0.0005,0.0357,-2.1689,-24.4200,19.5600,-22.4400,
0.358713,1.2492,2.3744,0.0532,0.0005,0.0357,-2.1689,-24.4200,19.5600,-22.4400,
0.359052,1.2492,2.3744,0.0532,0.0005,0.0357,-2.1689,-25.3800,18.1200,-23.0400,
0.359495,1.2492,2.3744,0.0532,-0.2104,0.6482,-1.9217,-25.3800,18.1200,-23.0400,
0.359786,-1.1016,3.7401,-1.5989,-0.2104,0.6482,-1.9217,-25.3800,18.1200,-23.0400,
0.378711,-1.1016,3.7401,-1.5989,-0.3382,1.3172,-1.7827,-25.3800,18.1200,-23.0400,
0.399305,-1.1016,3.7401,-1.5989,-0.3457,2.0735,-1.9830,-25.3800,18.1200,-23.0400,
0.420705,-1.1016,3.7401,-1.5989,-0.3457,2.0735,-1.9830,-25.3800,18.1200,-23.0400,
0.421387,-0.6165,-6.6549,-2.2192,-0.3457,2.0735,-1.9830,-25.3800,18.1200,-23.0400,
0.422131,-0.6165,-6.6549,-2.2192,-0.3457,2.0735,-1.9830,-26.7000,15.9600,-23.5800,
0.422713,-0.6165,-6.6549,-2.2192,-0.2898,2.2786,-2.8341,-26.7000,15.9600,-23.5800,
0.440457,-0.6165,-6.6549,-2.2192,0.3345,2.2003,-3.4302,-26.7000,15.9600,-23.5800,
0.460459,-0.6165,-6.6549,-2.2192,0.5939,0.8842,-3.2006,-26.7000,15.9600,-23.5800,
0.482251,-0.6165,-6.6549,-2.2192,0.5939,0.8842,-3.2006,-26.7000,15.9600,-23.5800,
0.482875,-2.6268,-6.7199,3.3084,0.5939,0.8842,-3.2006,-26.7000,15.9600,-23.5800,
0.483584,-2.6268,-6.7199,3.3084,0.5939,0.8842,-3.2006,-27.9600,12.9600,-24.7200,
0.484222,-2.6268,-6.7199,3.3084,0.1704,-2.1369,-1.8408,-27.9600,12.9600,-24.7200,
0.501993,-2.6268,-6.7199,3.3084,0.5726,-2.8805,-1.0711,-27.9600,12.9600,-24.7200,
0.522835,-2.6268,-6.7199,3.3084,0.8517,-2.3809,-0.7111,-27.9600,12.9600,-24.7200,
0.544220,-2.6268,-6.7199,3.3084,0.8517,-2.3809,-0.7111,-27.9600,12.9600,-24.7200,
0.545069,-2.6268,-6.7199,3.3084,0.8517,-2.3809,-0.7111,-29.0400,8.8800,-26.8800,
0.545830,-2.6268,-6.7199,3.3084,0.8245,-1.3598,-0.3222,-29.0400,8.8800,-26.8800,
0.546512,-1.3687,3.4398,-2.3371,0.8245,-1.3598,-0.3222,-29.0400,8.8800,-26.8800,
0.563136,-1.3687,3.4398,-2.3371,0.5811,-0.3345,0.0410,-29.0400,8.8800,-26.8800,
0.583933,-1.3687,3.4398,-2.3371,0.1060,0.5033,0.2919,-29.0400,8.8800,-26.8800,
0.605154,-1.3687,3.4398,-2.3371,0.1060,0.5033,0.2919,-29.0400,8.8800,-26.8800,
0.605841,1.2881,1.3470,-2.1205,0.1060,0.5033,0.2919,-29.0400,8.8800,-26.8800,
0.606556,1.2881,1.3470,-2.1205,0.1060,0.5033,0.2919,-30.0000,5.1000,-27.2400,
0.607025,1.2881,1.3470,-2.1205,-0.5289,0.8506,0.4298,-30.0000,5.1000,-27.2400,
0.625290,1.2881,1.3470,-2.1205,-0.9486,0.4591,0.3015,-30.0000,5.1000,-27.2400,
0.645928,1.2881,1.3470,-2.1205,-0.4772,0.2621,-0.0080,-30.0000,5.1000,-27.2400,
0.666417,1.2881,1.3470,-2.1205,-0.4772,0.2621,-0.0080,-30.0000,5.1000,-27.2400,
0.666746,1.2881,1.3470,-2.1205,-0.4772,0.2621,-0.0080,-30.2400,2.1000,-27.4200,
0.667050,1.2881,1.3470,-2.1205,0.2722,0.1555,-0.2519,-30.2400,2.1000,-27.4200,
0.667237,0.4914,-1.2341,1.6261,0.2722,0.1555,-0.2519,-30.2400,2.1000,-27.4200,
0.686635,0.4914,-1.2341,1.6261,0.5273,-0.1944,-0.3601,-30.2400,2.1000,-27.4200,
0.707495,0.4914,-1.2341,1.6261,0.2908,-0.5486,-0.3212,-30.2400,2.1000,-27.4200,
0.728785,0.4914,-1.2341,1.6261,0.2908,-0.5486,-0.3212,-30.2400,2.1000,-27.4200,
0.729681,0.4914,-1.2341,1.6261,0.2908,-0.5486,-0.3212,-30.4200,0.5400,-27.1800,
0.730374,0.4914,-1.2341,1.6261,0.0123,-0.5779,-0.1598,-30.4200,0.5400,-27.1800,
0.731230,-1.5985,0.0487,-1.0943,0.0123,-0.5779,-0.1598,-30.4200,0.5400,-27.1800,
0.748137,-1.5985,0.0487,-1.0943,-0.0959,-0.2242,0.0075,-30.4200,0.5400,-27.1800,
0.769316,-1.5985,0.0487,-1.0943,-0.0820,0.2077,0.0437,-30.4200,0.5400,-27.1800,
0.790229,-1.5985,0.0487,-1.0943,-0.0820,0.2077,0.0437,-30.4200,0.5400,-27.1800,
0.790847,-1.5985,0.0487,-1.0943,-0.0820,0.2077,0.0437,-31.2600,-0.0600,-25.7400,
0.791256,-1.5985,0.0487,-1.0943,-0.0575,0.2242,0.0495,-31.2600,-0.0600,-25.7400,
0.791634,-0.7185,-0.2886,0.2776,-0.0575,0.2242,0.0495,-31.2600,-0.0600,-25.7400,
0.809957,-0.7185,-0.2886,0.2776,-0.0527,0.0426,0.0490,-31.2600,-0.0600,-25.7400,
0.830897,-0.7185,-0.2886,0.2776,-0.0368,-0.0815,-0.0027,-31.2600,-0.0600,-25.7400,
0.851947,-0.7185,-0.2886,0.2776,-0.0368,-0.0815,-0.0027,-31.2600,-0.0600,-25.7400,
0.852702,-0.7185,-0.2886,0.2776,-0.0368,-0.0815,-0.0027,-31.3800,0.1200,-25.8600,
0.853177,-0.7185,-0.2886,0.2776,0.0027,-0.1225,-0.0362,-31.3800,0.1200,-25.8600,
0.853630,0.0824,0.0017,-0.0853,0.0027,-0.1225,-0.0362,-31.3800,0.1200,-25.8600,
0.871153,0.0824,0.0017,-0.0853,0.0293,-0.0927,-0.0442,-31.3800,0.1200,-25.8600,
0.891777,0.0824,0.0017,-0.0853,-0.0048,0.0037,-0.0538,-31.3800,0.1200,-25.8600,
0.913361,0.0824,0.0017,-0.0853,-0.0048,0.0037,-0.0538,-31.3800,0.1200,-25.8600,
0.914060,0.0824,0.0017,-0.0853,-0.0048,0.0037,-0.0538,-31.5600,0.0000,-25.8000,
0.914555,0.0824,0.0017,-0.0853,-0.0394,0.1087,-0.0506,-31.5600,0.0000,-25.8000,
0.914980,-0.0140,0.0172,-0.1197,-0.0394,0.1087,-0.0506,-31.5600,0.0000,-25.8000,
0.933176,-0.0140,0.0172,-0.1197,-0.0394,0.0879,-0.0229,-31.5600,0.0000,-25.8000,
0.953703,-0.0140,0.0172,-0.1197,-0.0458,0.0027,-0.0224,-31.5600,0.0000,-25.8000,
0.974482,-0.0140,0.0172,-0.1197,-0.0458,0.0027,-0.0224,-31.5600,0.0000,-25.8000,
0.975013,-0.0140,0.0172,-0.1197,-0.0458,0.0027,-0.0224,-31.8600,-0.4200,-25.8000,
0.975471,-0.0140,0.0172,-0.1197,-0.0826,-0.0282,-0.0208,-31.8600,-0.4200,-25.8000,
0.975982,-0.0112,-0.0725,-0.0067,-0.0826,-0.0282,-0.0208,-31.8600,-0.4200,-25.8000,
0.994440,-0.0112,-0.0725,-0.0067,-0.1097,0.0314,-0.0213,-31.8600,-0.4200,-25.8000,
1.014788,-0.0112,-0.0725,-0.0067,-0.0810,0.1507,-0.0341,-31.8600,-0.4200,-25.8000,
1.036556,-0.0112,-0.0725,-0.0067,-0.0810,0.1507,-0.0341,-31.8600,-0.4200,-25.8000,
1.037423,-0.0112,-0.0725,-0.0067,-0.0810,0.1507,-0.0341,-31.5600,-0.2400,-26.1600,
1.038030,-0.0112,-0.0725,-0.0067,-0.0186,0.1459,-0.0277,-31.5600,-0.2400,-26.1600,
1.038715,-0.1096,-0.0273,0.2693,-0.0186,0.1459,-0.0277,-31.5600,-0.2400,-26.1600,
1.056208,-0.1096,-0.0273,0.2693,-0.0069,0.0016,-0.0298,-31.5600,-0.2400,-26.1600,
1.077086,-0.1096,-0.0273,0.2693,-0.0250,-0.0778,-0.0250,-31.5600,-0.2400,-26.1600,
1.097819,-0.1096,-0.0273,0.2693,-0.0250,-0.0778,-0.0250,-31.5600,-0.2400,-26.1600,
1.098617,0.1533,0.1533,-0.1622,-0.0250,-0.0778,-0.0250,-31.5600,-0.2400,-26.1600,
1.099493,0.1533,0.1533,-0.1622,-0.0250,-0.0778,-0.0250,-31.8600,-0.6600,-26.1000,
1.100248,0.1533,0.1533,-0.1622,-0.0474,0.0075,-0.0357,-31.8600,-0.6600,-26.1000,
1.118076,0.1533,0.1533,-0.1622,-0.0586,0.0943,-0.0320,-31.8600,-0.6600,-26.1000,
1.138409,0.1533,0.1533,-0.1622,-0.0543,0.0517,-0.0229,-31.8600,-0.6600,-26.1000,
1.159995,0.1533,0.1533,-0.1622,-0.0543,0.0517,-0.0229,-31.8600,-0.6600,-26.1000,
1.160876,0.1533,0.1533,-0.1622,-0.0543,0.0517,-0.0229,-32.1000,-0.4800,-25.9200,
1.161641,0.1533,0.1533,-0.1622,-0.0538,0.0123,-0.0208,-32.1000,-0.4800,-25.9200,
1.162294,-0.0803,-0.0950,0.2344,-0.0538,0.0123,-0.0208,-32.1000,-0.4800,-25.9200,
1.178858,-0.0803,-0.0950,0.2344,-0.0325,0.0623,-0.0197,-32.1000,-0.4800,-25.9200,
1.200441,-0.0803,-0.0950,0.2344,-0.0101,0.0527,-0.0112,-32.1000,-0.4800,-25.9200,
1.220987,-0.0803,-0.0950,0.2344,-0.0101,0.0527,-0.0112,-32.1000,-0.4800,-25.9200,
1.221394,-0.0803,-0.0950,0.2344,-0.0101,0.0527,-0.0112,-31.9800,-0.4200,-25.8000,
1.221663,-0.0803,-0.0950,0.2344,-0.0202,-0.0107,-0.0218,-31.9800,-0.4200,-25.8000,
1.221880,0.2227,-0.0265,-0.0679,-0.0202,-0.0107,-0.0218,-31.9800,-0.4200,-25.8000,
1.240772,0.2227,-0.0265,-0.0679,-0.0405,0.0192,-0.0266,-31.9800,-0.4200,-25.8000,
1.261412,0.2227,-0.0265,-0.0679,-0.0272,0.0703,-0.0144,-31.9800,-0.4200,-25.8000,
1.281952,0.2227,-0.0265,-0.0679,-0.0272,0.0703,-0.0144,-31.9800,-0.4200,-25.8000,
1.282423,0.2227,-0.0265,-0.0679,-0.0272,0.0703,-0.0144,-32.1000,-0.5400,-25.8000,
1.282844,0.2227,-0.0265,-0.0679,-0.0282,0.0336,-0.0181,-32.1000,-0.5400,-25.8000,
1.283181,-0.0624,-0.1431,-0.0199,-0.0282,0.0336,-0.0181,-32.1000,-0.5400,-25.8000,
1.302942,-0.0624,-0.1431,-0.0199,-0.0479,-0.0575,-0.0352,-32.1000,-0.5400,-25.8000,
1.322717,-0.0624,-0.1431,-0.0199,-0.0591,-0.0937,-0.0479,-32.1000,-0.5400,-25.8000,
1.344182,-0.0624,-0.1431,-0.0199,-0.0591,-0.0937,-0.0479,-32.1000,-0.5400,-25.8000,
1.345039,-0.0624,-0.1431,-0.0199,-0.0591,-0.0937,-0.0479,-31.7400,-0.1800,-25.8600,
1.345623,-0.0624,-0.1431,-0.0199,-0.0682,-0.0399,-0.0442,-31.7400,-0.1800,-25.8600,
1.346213,0.1079,0.0769,0.0257,-0.0682,-0.0399,-0.0442,-31.7400,-0.1800,-25.8600,
1.364163,0.1079,0.0769,0.0257,-0.0650,0.0362,-0.0293,-31.7400,-0.1800,-25.8600,
1.383789,0.1079,0.0769,0.0257,-0.0543,0.0501,-0.0256,-31.7400,-0.1800,-25.8600,
1.406121,0.1079,0.0769,0.0257,-0.0543,0.0501,-0.0256,-31.7400,-0.1800,-25.8600,
1.406840,0.1079,0.0769,0.0257,-0.0543,0.0501,-0.0256,-31.5000,-0.1200,-25.8000,
1.407320,0.1079,0.0769,0.0257,-0.0597,0.0282,-0.0186,-31.5000,-0.1200,-25.8000,
1.407786,-0.1682,-0.0794,0.1443,-0.0597,0.0282,-0.0186,-31.5000,-0.1200,-25.8000,
1.425642,-0.1682,-0.0794,0.1443,-0.0629,0.0341,-0.0144,-31.5000,-0.1200,-25.8000,
1.445737,-0.1682,-0.0794,0.1443,-0.0533,0.0517,-0.0091,-31.5000,-0.1200,-25.8000,
1.467312,-0.1682,-0.0794,0.1443,-0.0533,0.0517,-0.0091,-31.5000,-0.1200,-25.8000,
1.468297,-0.1682,-0.0794,0.1443,-0.0533,0.0517,-0.0091,-31.9200,-0.3000,-25.5000,
1.468914,-0.1682,-0.0794,0.1443,-0.0629,0.0378,-0.0064,-31.9200,-0.3000,-25.5000,
1.469422,0.4181,-0.0310,-0.1072,-0.0629,0.0378,-0.0064,-31.9200,-0.3000,-25.5000,
1.486483,0.4181,-0.0310,-0.1072,-0.1023,0.0879,-0.0405,-31.9200,-0.3000,-25.5000,
1.507673,0.4181,-0.0310,-0.1072,-0.1188,0.2152,-0.0490,-31.9200,-0.3000,-25.5000,
1.528670,0.4181,-0.0310,-0.1072,-0.1188,0.2152,-0.0490,-31.9200,-0.3000,-25.5000,
1.529532,0.4181,-0.0310,-0.1072,-0.1188,0.2152,-0.0490,-32.1000,-0.1800,-25.6200,
1.530136,0.4181,-0.0310,-0.1072,-0.1060,0.2445,-0.0586,-32.1000,-0.1800,-25.6200,
1.530873,0.0402,0.0015,0.1513,-0.1060,0.2445,-0.0586,-32.1000,-0.1800,-25.6200,
1.548699,0.0402,0.0015,0.1513,-0.0985,0.1321,-0.0826,-32.1000,-0.1800,-25.6200,
1.568302,0.0402,0.0015,0.1513,-0.0991,0.0415,-0.0879,-32.1000,-0.1800,-25.6200,
1.588698,0.0402,0.0015,0.1513,-0.0991,0.0415,-0.0879,-32.1000,-0.1800,-25.6200,
1.589487,0.0402,0.0015,0.1513,-0.0991,0.0415,-0.0879,-31.9200,-0.1800,-25.6200,
1.590057,0.0402,0.0015,0.1513,-0.1065,0.0277,-0.0730,-31.9200,-0.1800,-25.6200,
1.590636,-0.1193,-0.0972,-0.1811,-0.1065,0.0277,-0.0730,-31.9200,-0.1800,-25.6200,
1.609076,-0.1193,-0.0972,-0.1811,-0.1364,0.0879,-0.0613,-31.9200,-0.1800,-25.6200,
1.629384,-0.1193,-0.0972,-0.1811,-0.1715,0.1891,-0.0708,-31.9200,-0.1800,-25.6200,
1.650797,-0.1193,-0.0972,-0.1811,-0.1715,0.1891,-0.0708,-31.9200,-0.1800,-25.6200,
1.651692,-0.1193,-0.0972,-0.1811,-0.1715,0.1891,-0.0708,-31.5600,0.0600,-25.9800,
1.652483,-0.1193,-0.0972,-0.1811,-0.1768,0.1651,-0.1135,-31.5600,0.0600,-25.9800,
1.653051,-0.0876,0.1146,0.4571,-0.1768,0.1651,-0.1135,-31.5600,0.0600,-25.9800,
1.670575,-0.0876,0.1146,0.4571,-0.1257,0.1193,-0.1720,-31.5600,0.0600,-25.9800,
1.690776,-0.0876,0.1146,0.4571,-0.0629,0.1598,-0.2274,-31.5600,0.0600,-25.9800,
1.712405,-0.0876,0.1146,0.4571,-0.0629,0.1598,-0.2274,-31.5600,0.0600,-25.9800,
1.713294,-0.0876,0.1146,0.4571,-0.0629,0.1598,-0.2274,-30.6000,0.0000,-26.3400,
1.713873,-0.0876,0.1146,0.4571,-0.0266,0.1023,-0.2850,-30.6000,0.0000,-26.3400,
1.714571,-0.2702,-0.3722,-0.3067,-0.0266,0.1023,-0.2850,-30.6000,0.0000,-26.3400,
1.732022,-0.2702,-0.3722,-0.3067,-0.0767,-0.1454,-0.2876,-30.6000,0.0000,-26.3400,
1.752968,-0.2702,-0.3722,-0.3067,-0.1912,-0.2461,-0.2423,-30.6000,0.0000,-26.3400,
1.774436,-0.2702,-0.3722,-0.3067,-0.1912,-0.2461,-0.2423,-30.6000,0.0000,-26.3400,
1.775279,-0.2702,-0.3722,-0.3067,-0.1912,-0.2461,-0.2423,-30.4200,-0.2400,-26.2200,
1.776017,-0.2702,-0.3722,-0.3067,-0.2301,0.0591,-0.1550,-30.4200,-0.2400,-26.2200,
1.776815,-1.0794,-0.4320,-0.0168,-0.2301,0.0591,-0.1550,-30.4200,-0.2400,-26.2200,
1.794440,-1.0794,-0.4320,-0.0168,-0.1981,0.4043,-0.0746,-30.4200,-0.2400,-26.2200,
1.814867,-1.0794,-0.4320,-0.0168,-0.3084,0.3925,-0.0479,-30.4200,-0.2400,-26.2200,
1.836025,-1.0794,-0.4320,-0.0168,-0.3084,0.3925,-0.0479,-30.4200,-0.2400,-26.2200,
1.836951,-1.0794,-0.4320,-0.0168,-0.3084,0.3925,-0.0479,-30.6600,-0.4800,-26.4600,
1.837917,-1.0794,-0.4320,-0.0168,-0.4053,0.1848,-0.1129,-30.6600,-0.4800,-26.4600,
1.838591,0.3590,0.4199,1.0992,-0.4053,0.1848,-0.1129,-30.6600,-0.4800,-26.4600,
1.855423,0.3590,0.4199,1.0992,-0.1997,0.3776,-0.2109,-30.6600,-0.4800,-26.4600,
1.875991,0.3590,0.4199,1.0992,-0.0320,0.5337,-0.2301,-30.6600,-0.4800,-26.4600,
1.896624,0.3590,0.4199,1.0992,-0.0320,0.5337,-0.2301,-30.6600,-0.4800,-26.4600,
1.897322,0.3590,0.4199,1.0992,-0.0320,0.5337,-0.2301,-30.7800,-0.3600,-26.4000,
1.897798,-0.9204,-0.3652,-0.4411,-0.0320,0.5337,-0.2301,-30.7800,-0.3600,-26.4000,
1.898544,-0.9204,-0.3652,-0.4411,-0.1150,0.2258,-0.2285,-30.7800,-0.3600,-26.4000,
1.916659,-0.9204,-0.3652,-0.4411,-0.2168,-0.1188,-0.1971,-30.7800,-0.3600,-26.4000,
1.937802,-0.9204,-0.3652,-0.4411,-0.2498,-0.1044,-0.1587,-30.7800,-0.3600,-26.4000,
1.958799,-0.9204,-0.3652,-0.4411,-0.2498,-0.1044,-0.1587,-30.7800,-0.3600,-26.4000,
1.959758,-0.9204,-0.3652,-0.4411,-0.2498,-0.1044,-0.1587,-30.6000,0.0000,-26.6400,
1.960466,-0.9204,-0.3652,-0.4411,-0.2892,-0.0192,-0.1475,-30.6000,0.0000,-26.6400,
1.961038,-0.3869,0.2154,-0.6236,-0.2892,-0.0192,-0.1475,-30.6000,0.0000,-26.6400,
1.977726,-0.3869,0.2154,-0.6236,-0.2935,-0.1561,-0.1449,-30.6000,0.0000,-26.6400,
1.998822,-0.3869,0.2154,-0.6236,-0.1470,-0.1720,-0.2061,-30.6000,0.0000,-26.6400,
2.020024,-0.3869,0.2154,-0.6236,-0.1470,-0.1720,-0.2061,-30.6000,0.0000,-26.6400,
2.020849,-0.3869,0.2154,-0.6236,-0.1470,-0.1720,-0.2061,-30.2400,0.4200,-27.3000,
2.021398,-0.3869,0.2154,-0.6236,-0.1539,-0.0224,-0.2743,-30.2400,0.4200,-27.3000,
2.022070,0.7405,-0.2977,0.3059,-0.1539,-0.0224,-0.2743,-30.2400,0.4200,-27.3000,
2.039929,0.7405,-0.2977,0.3059,-0.2759,0.2621,-0.2344,-30.2400,0.4200,-27.3000,
2.060515,0.7405,-0.2977,0.3059,-0.3116,0.4202,-0.1859,-30.2400,0.4200,-27.3000,
2.081587,0.7405,-0.2977,0.3059,-0.3116,0.4202,-0.1859,-30.2400,0.4200,-27.3000,
2.082507,0.7405,-0.2977,0.3059,-0.3116,0.4202,-0.1859,-30.1200,0.3600,-27.3600,
2.083091,0.7405,-0.2977,0.3059,-0.2605,0.2376,-0.2418,-30.1200,0.3600,-27.3600,
2.083720,0.0349,0.2777,-0.0130,-0.2605,0.2376,-0.2418,-30.1200,0.3600,-27.3600,
2.101040,0.0349,0.2777,-0.0130,-0.2242,-0.0959,-0.3031,-30.1200,0.3600,-27.3600,
2.121743,0.0349,0.2777,-0.0130,-0.2168,-0.1742,-0.2605,-30.1200,0.3600,-27.3600,
2.142786,0.0349,0.2777,-0.0130,-0.2168,-0.1742,-0.2605,-30.1200,0.3600,-27.3600,
2.143430,0.0349,0.2777,-0.0130,-0.2168,-0.1742,-0.2605,-29.6400,0.1200,-27.2400,
2.144061,0.0349,0.2777,-0.0130,-0.2317,0.0836,-0.2125,-29.6400,0.1200,-27.2400,
2.144721,-1.0339,-0.9734,0.0497,-0.2317,0.0836,-0.2125,-29.6400,0.1200,-27.2400,
2.162300,-1.0339,-0.9734,0.0497,-0.3052,0.1949,-0.2210,-29.6400,0.1200,-27.2400,
2.183250,-1.0339,-0.9734,0.0497,-0.3276,-0.0128,-0.2333,-29.6400,0.1200,-27.2400,
2.205128,-1.0339,-0.9734,0.0497,-0.3276,-0.0128,-0.2333,-29.6400,0.1200,-27.2400,
2.205902,-1.0339,-0.9734,0.0497,-0.3276,-0.0128,-0.2333,-30.0000,0.1200,-27.4800,
2.206400,-1.0339,-0.9734,0.0497,-0.2690,-0.2684,-0.2621,-30.0000,0.1200,-27.4800,
2.206916,-0.0164,0.1134,0.8563,-0.2690,-0.2684,-0.2621,-30.0000,0.1200,-27.4800,
2.224040,-0.0164,0.1134,0.8563,-0.1598,-0.2695,-0.3318,-30.0000,0.1200,-27.4800,
2.244847,-0.0164,0.1134,0.8563,-0.1039,-0.1811,-0.2972,-30.0000,0.1200,-27.4800,
2.266201,-0.0164,0.1134,0.8563,-0.1039,-0.1811,-0.2972,-30.0000,0.1200,-27.4800,
2.267000,-0.0164,0.1134,0.8563,-0.1039,-0.1811,-0.2972,-30.0600,-0.4800,-27.2400,
2.267612,-0.0164,0.1134,0.8563,-0.1119,0.0330,-0.2312,-30.0600,-0.4800,-27.2400,
2.268278,-1.3748,0.1694,0.6116,-0.1119,0.0330,-0.2312,-30.0600,-0.4800,-27.2400,
2.286192,-1.3748,0.1694,0.6116,-0.1933,0.2317,-0.2162,-30.0600,-0.4800,-27.2400,
2.306171,-1.3748,0.1694,0.6116,-0.2850,0.1188,-0.1971,-30.0600,-0.4800,-27.2400,
2.327651,-1.3748,0.1694,0.6116,-0.2850,0.1188,-0.1971,-30.0600,-0.4800,-27.2400,
2.328470,-1.3748,0.1694,0.6116,-0.2850,0.1188,-0.1971,-30.0600,-0.1800,-27.4200,
2.328834,-1.3748,0.1694,0.6116,-0.2301,-0.1337,-0.2407,-30.0600,-0.1800,-27.4200,
2.329153,-1.3666,0.3395,1.1617,-0.2301,-0.1337,-0.2407,-30.0600,-0.1800,-27.4200,
2.347715,-1.3666,0.3395,1.1617,-0.0863,-0.2775,-0.2237,-30.0600,-0.1800,-27.4200,
2.368181,-1.3666,0.3395,1.1617,-0.0059,-0.2919,-0.1550,-30.0600,-0.1800,-27.4200,
2.389704,-1.3666,0.3395,1.1617,-0.0059,-0.2919,-0.1550,-30.0600,-0.1800,-27.4200,
2.390649,-1.3666,0.3395,1.1617,-0.0059,-0.2919,-0.1550,-30.1800,-0.4200,-28.0200,
2.391300,-2.3546,1.5596,0.8210,-0.0059,-0.2919,-0.1550,-30.1800,-0.4200,-28.0200,
2.392435,-2.3546,1.5596,0.8210,-0.0021,-0.1385,-0.0767,-30.1800,-0.4200,-28.0200,
2.408418,-2.3546,1.5596,0.8210,-0.1337,0.0304,-0.0165,-30.1800,-0.4200,-28.0200,
2.429430,-2.3546,1.5596,0.8210,-0.4911,0.0176,0.0160,-30.1800,-0.4200,-28.0200,
2.450713,-2.3546,1.5596,0.8210,-0.4911,0.0176,0.0160,-30.1800,-0.4200,-28.0200,
2.451504,-2.3546,1.5596,0.8210,-0.4911,0.0176,0.0160,-30.1200,-0.7200,-28.0200,
2.452353,-2.3546,1.5596,0.8210,-0.4256,0.1502,0.1912,-30.1200,-0.7200,-28.0200,
2.453088,-2.7972,1.1942,0.5917,-0.4256,0.1502,0.1912,-30.1200,-0.7200,-28.0200,
2.470905,-2.7972,1.1942,0.5917,-0.1113,0.1726,0.3329,-30.1200,-0.7200,-28.0200,
2.490643,-2.7972,1.1942,0.5917,0.0975,0.2546,0.2786,-30.1200,-0.7200,-28.0200,
2.512145,-2.7972,1.1942,0.5917,0.0975,0.2546,0.2786,-30.1200,-0.7200,-28.0200,
2.512939,-2.7972,1.1942,0.5917,0.0975,0.2546,0.2786,-29.5800,-0.1800,-28.0800,
2.513649,-2.7972,1.1942,0.5917,0.2477,0.4096,0.1539,-29.5800,-0.1800,-28.0800,
2.514241,-2.0324,4.0571,0.5944,0.2477,0.4096,0.1539,-29.5800,-0.1800,-28.0800,
2.532055,-2.0324,4.0571,0.5944,0.3435,0.6205,0.0650,-29.5800,-0.1800,-28.0800,
2.552487,-2.0324,4.0571,0.5944,0.4197,0.8464,0.0245,-29.5800,-0.1800,-28.0800,
2.573949,-2.0324,4.0571,0.5944,0.4197,0.8464,0.0245,-29.5800,-0.1800,-28.0800,
2.574746,-2.0324,4.0571,0.5944,0.4197,0.8464,0.0245,-28.8000,0.1800,-28.5600,
2.575482,-2.0324,4.0571,0.5944,1.5026,3.0733,-0.2178,-28.8000,0.1800,-28.5600,
2.576739,0.3749,4.0950,5.6973,1.5026,3.0733,-0.2178,-28.8000,0.1800,-28.5600,
2.594128,0.3749,4.0950,5.6973,1.7987,3.9915,-0.3808,-28.8000,0.1800,-28.5600,
2.613330,0.3749,4.0950,5.6973,1.1159,2.5412,-0.2322,-28.8000,0.1800,-28.5600,
2.635797,0.3749,4.0950,5.6973,1.1159,2.5412,-0.2322,-28.8000,0.1800,-28.5600,
2.636584,0.3749,4.0950,5.6973,1.1159,2.5412,-0.2322,-27.5400,0.5400,-28.8000,
2.637105,0.3749,4.0950,5.6973,0.3872,0.6908,-0.0804,-27.5400,0.5400,-28.8000,
2.637466,-0.9299,4.4264,-1.3237,0.3872,0.6908,-0.0804,-27.5400,0.5400,-28.8000,
2.654863,-0.9299,4.4264,-1.3237,-0.2035,-0.1401,-0.2599,-27.5400,0.5400,-28.8000,
2.675992,-0.9299,4.4264,-1.3237,-0.6466,-0.2738,-0.3121,-27.5400,0.5400,-28.8000,
2.696806,-0.9299,4.4264,-1.3237,-0.6466,-0.2738,-0.3121,-27.5400,0.5400,-28.8000,
2.697610,-0.9299,4.4264,-1.3237,-0.6466,-0.2738,-0.3121,-24.8400,-0.2400,-30.1800,
2.698337,-0.9299,4.4264,-1.3237,-0.9231,0.1092,-0.2013,-24.8400,-0.2400,-30.1800,
2.698901,-2.1706,5.5902,-2.4596,-0.9231,0.1092,-0.2013,-24.8400,-0.2400,-30.1800,
2.716156,-2.1706,5.5902,-2.4596,-0.9332,0.8607,-0.1912,-24.8400,-0.2400,-30.1800,
2.736965,-2.1706,5.5902,-2.4596,-0.7537,1.5782,-0.3531,-24.8400,-0.2400,-30.1800,
2.758867,-2.1706,5.5902,-2.4596,-0.7537,1.5782,-0.3531,-24.8400,-0.2400,-30.1800,
2.759485,-2.1706,5.5902,-2.4596,-0.7537,1.5782,-0.3531,-22.6200,-1.6800,-31.9800,
2.759943,-2.1706,5.5902,-2.4596,-0.7910,1.0099,-0.6626,-22.6200,-1.6800,-31.9800,
2.760495,-0.2385,4.8486,-2.5016,-0.7910,1.0099,-0.6626,-22.6200,-1.6800,-31.9800,
2.777968,-0.2385,4.8486,-2.5016,-0.2903,0.4751,-0.6924,-22.6200,-1.6800,-31.9800,
2.798999,-0.2385,4.8486,-2.5016,1.7050,-0.7734,-0.6413,-22.6200,-1.6800,-31.9800,
2.821332,-0.2385,4.8486,-2.5016,1.7050,-0.7734,-0.6413,-22.6200,-1.6800,-31.9800,
2.822209,-0.2385,4.8486,-2.5016,1.7050,-0.7734,-0.6413,-19.3800,-2.0400,-33.7800,
2.823005,-0.2385,4.8486,-2.5016,0.2610,-4.3527,-3.2443,-19.3800,-2.0400,-33.7800,
2.823728,70.7150,-65.4441,-31.7885,0.2610,-4.3527,-3.2443,-19.3800,-2.0400,-33.7800,
2.840073,70.7150,-65.4441,-31.7885,5.3780,-9.4036,-4.8731,-19.3800,-2.0400,-33.7800,
2.860943,70.7150,-65.4441,-31.7885,8.0726,-9.2236,-1.9723,-19.3800,-2.0400,-33.7800,
2.881604,70.7150,-65.4441,-31.7885,8.0726,-9.2236,-1.9723,-19.3800,-2.0400,-33.7800,
2.882816,70.7150,-65.4441,-31.7885,8.0726,-9.2236,-1.9723,-17.5800,-3.0600,-35.4000,
2.883993,70.7150,-65.4441,-31.7885,3.3817,-14.8801,-2.4080,-17.5800,-3.0600,-35.4000,
2.885167,-30.0808,12.3786,24.6314,3.3817,-14.8801,-2.4080,-17.5800,-3.0600,-35.4000,
2.900962,-30.0808,12.3786,24.6314,-4.2909,-1.7651,-2.3090,-17.5800,-3.0600,-35.4000,
2.922073,-30.0808,12.3786,24.6314,-7.7764,4.4336,-1.6032,-17.5800,-3.0600,-35.4000,
2.942790,-30.0808,12.3786,24.6314,-7.7764,4.4336,-1.6032,-17.5800,-3.0600,-35.4000,
2.943990,-30.0808,12.3786,24.6314,-7.7764,4.4336,-1.6032,-22.0800,-7.5000,-30.4200,
2.944914,-30.0808,12.3786,24.6314,-7.8920,5.5474,-1.3225,-22.0800,-7.5000,-30.4200,
2.945769,-15.3434,3.4493,1.1636,-7.8920,5.5474,-1.3225,-22.0800,-7.5000,-30.4200,
2.962568,-15.3434,3.4493,1.1636,-7.5463,3.7977,-1.3944,-22.0800,-7.5000,-30.4200,
2.983429,-15.3434,3.4493,1.1636,-6.8997,2.2584,-1.8972,-22.0800,-7.5000,-30.4200,
3.005266,-15.3434,3.4493,1.1636,-6.8997,2.2584,-1.8972,-22.0800,-7.5000,-30.4200,
3.006313,-15.3434,3.4493,1.1636,-6.8997,2.2584,-1.8972,-25.6800,-10.5600,-26.2800,
3.007111,-15.3434,3.4493,1.1636,-6.2558,0.8575,-2.2536,-25.6800,-10.5600,-26.2800,
3.008128,-10.3773,2.6489,6.0227,-6.2558,0.8575,-2.2536,-25.6800,-10.5600,-26.2800,
3.023537,-10.3773,2.6489,6.0227,-5.6182,0.0969,-1.8520,-25.6800,-10.5600,-26.2800,
3.044375,-10.3773,2.6489,6.0227,-3.4333,2.3739,-0.9843,-25.6800,-10.5600,-26.2800,
3.066356,-10.3773,2.6489,6.0227,-3.4333,2.3739,-0.9843,-25.6800,-10.5600,-26.2800,
3.067309,-10.3773,2.6489,6.0227,-3.4333,2.3739,-0.9843,-28.3800,-12.3600,-24.4800,
3.068187,-10.3773,2.6489,6.0227,-2.2898,2.2658,-0.1699,-28.3800,-12.3600,-24.4800,
3.068998,-13.4336,3.0400,5.8905,-2.2898,2.2658,-0.1699,-28.3800,-12.3600,-24.4800,
3.085458,-13.4336,3.0400,5.8905,-1.8312,1.1079,0.3830,-28.3800,-12.3600,-24.4800,
3.106495,-13.4336,3.0400,5.8905,-1.2671,-0.1795,0.8799,-28.3800,-12.3600,-24.4800,
3.127604,-13.4336,3.0400,5.8905,-1.2671,-0.1795,0.8799,-28.3800,-12.3600,-24.4800,
3.128958,-13.4336,3.0400,5.8905,-1.2671,-0.1795,0.8799,-29.4600,-11.7000,-23.7600,
3.130075,-13.4336,3.0400,5.8905,2.0714,-5.1671,5.3274,-29.4600,-11.7000,-23.7600,
3.131241,-10.4297,14.8098,13.7939,2.0714,-5.1671,5.3274,-29.4600,-11.7000,-23.7600,
3.147037,-10.4297,14.8098,13.7939,9.0430,-13.6934,12.4183,-29.4600,-11.7000,-23.7600,
3.168072,-10.4297,14.8098,13.7939,-1.8892,-17.4522,-4.4853,-29.4600,-11.7000,-23.7600,
3.189658,-10.4297,14.8098,13.7939,-1.8892,-17.4522,-4.4853,-29.4600,-11.7000,-23.7600,
3.190635,-10.4297,14.8098,13.7939,-1.8892,-17.4522,-4.4853,-25.3200,-5.8800,-28.5600,
3.191280,-10.4297,14.8098,13.7939,-3.7460,17.4384,-2.2030,-25.3200,-5.8800,-28.5600,
3.192164,-15.8591,1.3853,-28.5633,-3.7460,17.4384,-2.2030,-25.3200,-5.8800,-28.5600,
3.209108,-15.8591,1.3853,-28.5633,0.5726,9.9554,-1.8482,-25.3200,-5.8800,-28.5600,
3.229649,-15.8591,1.3853,-28.5633,-1.5793,5.3551,0.2455,-25.3200,-5.8800,-28.5600,
3.250297,-15.8591,1.3853,-28.5633,-1.5793,5.3551,0.2455,-25.3200,-5.8800,-28.5600,
3.250783,-15.8591,1.3853,-28.5633,-1.5793,5.3551,0.2455,-26.1600,-1.8000,-27.0600,
3.251064,-15.8591,1.3853,-28.5633,-1.6000,0.9492,2.0970,-26.1600,-1.8000,-27.0600,
3.251434,-5.6597,5.0768,6.2410,-1.6000,0.9492,2.0970,-26.1600,-1.8000,-27.0600,
3.270254,-5.6597,5.0768,6.2410,-0.4511,-0.9124,3.2959,-26.1600,-1.8000,-27.0600,
3.290860,-5.6597,5.0768,6.2410,0.3308,-1.1968,3.7593,-26.1600,-1.8000,-27.0600,
3.312173,-5.6597,5.0768,6.2410,0.3308,-1.1968,3.7593,-26.1600,-1.8000,-27.0600,
3.313332,-5.6597,5.0768,6.2410,0.3308,-1.1968,3.7593,-26.6400,0.0600,-26.8200,
3.313930,-5.6597,5.0768,6.2410,0.5060,-1.4594,3.7535,-26.6400,0.0600,-26.8200,
3.314786,-1.9047,2.3218,0.8973,0.5060,-1.4594,3.7535,-26.6400,0.0600,-26.8200,
3.331697,-1.9047,2.3218,0.8973,0.2700,-1.0546,3.2634,-26.6400,0.0600,-26.8200,
3.352647,-1.9047,2.3218,0.8973,0.0469,-0.7132,2.2797,-26.6400,0.0600,-26.8200,
3.373871,-1.9047,2.3218,0.8973,0.0469,-0.7132,2.2797,-26.6400,0.0600,-26.8200,
3.374725,-1.9047,2.3218,0.8973,0.0469,-0.7132,2.2797,-27.9000,2.0400,-24.9000,
3.375263,-1.9047,2.3218,0.8973,0.1619,-1.1819,1.0184,-27.9000,2.0400,-24.9000,
3.375768,4.2766,1.3967,-1.0769,0.1619,-1.1819,1.0184,-27.9000,2.0400,-24.9000,
3.393830,4.2766,1.3967,-1.0769,-0.0453,-2.1572,-0.0511,-27.9000,2.0400,-24.9000,
3.414511,4.2766,1.3967,-1.0769,-0.6115,-2.6019,-0.3649,-27.9000,2.0400,-24.9000,
3.436064,4.2766,1.3967,-1.0769,-0.6115,-2.6019,-0.3649,-27.9000,2.0400,-24.9000,
3.437425,4.2766,1.3967,-1.0769,-0.6115,-2.6019,-0.3649,-29.8200,3.8400,-22.9200,
3.438286,4.2766,1.3967,-1.0769,-1.0679,-2.5353,-0.3659,-29.8200,3.8400,-22.9200,
3.439080,-1.4583,1.9466,-1.3840,-1.0679,-2.5353,-0.3659,-29.8200,3.8400,-22.9200,
3.454993,-1.4583,1.9466,-1.3840,-1.4307,-2.0650,-0.3100,-29.8200,3.8400,-22.9200,
3.475877,-1.4583,1.9466,-1.3840,-1.2298,-1.3550,-0.2301,-29.8200,3.8400,-22.9200,
3.497317,-1.4583,1.9466,-1.3840,-1.2298,-1.3550,-0.2301,-29.8200,3.8400,-22.9200,
3.498369,-1.4583,1.9466,-1.3840,-1.2298,-1.3550,-0.2301,-28.5000,6.7800,-24.3000,
3.498986,-1.4583,1.9466,-1.3840,-0.9326,0.1124,-0.1960,-28.5000,6.7800,-24.3000,
3.499608,-1.5648,-0.2236,-6.8010,-0.9326,0.1124,-0.1960,-28.5000,6.7800,-24.3000,
3.516820,-1.5648,-0.2236,-6.8010,-0.6951,1.2543,-0.2679,-28.5000,6.7800,-24.3000,
3.537867,-1.5648,-0.2236,-6.8010,-0.1976,0.6083,-0.0874,-28.5000,6.7800,-24.3000,
3.558017,-1.5648,-0.2236,-6.8010,-0.1976,0.6083,-0.0874,-28.5000,6.7800,-24.3000,
3.558610,-0.5941,1.2493,-1.0499,-0.1976,0.6083,-0.0874,-28.5000,6.7800,-24.3000,
3.558980,-0.5941,1.2493,-1.0499,-0.1976,0.6083,-0.0874,-29.8800,9.5400,-20.8800,
3.559235,-0.5941,1.2493,-1.0499,-0.0234,-0.3862,0.0485,-29.8800,9.5400,-20.8800,
3.578762,-0.5941,1.2493,-1.0499,0.0714,-0.4080,0.1374,-29.8800,9.5400,-20.8800,
3.598854,-0.5941,1.2493,-1.0499,0.0261,-0.1896,0.1550,-29.8800,9.5400,-20.8800,
3.620416,-0.5941,1.2493,-1.0499,0.0261,-0.1896,0.1550,-29.8800,9.5400,-20.8800,
3.622081,-0.5941,1.2493,-1.0499,0.0261,-0.1896,0.1550,-31.1400,10.7400,-18.3600,
3.622734,-0.5941,1.2493,-1.0499,-0.0932,0.0096,0.1124,-31.1400,10.7400,-18.3600,
3.623423,-1.3745,1.4693,-1.4102,-0.0932,0.0096,0.1124,-31.1400,10.7400,-18.3600,
3.639615,-1.3745,1.4693,-1.4102,-0.1816,0.1060,0.0495,-31.1400,10.7400,-18.3600,
3.660387,-1.3745,1.4693,-1.4102,-0.2599,0.1257,-0.0069,-31.1400,10.7400,-18.3600,
3.681993,-1.3745,1.4693,-1.4102,-0.2599,0.1257,-0.0069,-31.1400,10.7400,-18.3600,
3.683227,-1.3745,1.4693,-1.4102,-0.2599,0.1257,-0.0069,-32.3400,11.4000,-15.4800,
3.684153,-1.3745,1.4693,-1.4102,-0.3260,0.0575,-0.0352,-32.3400,11.4000,-15.4800,
3.684888,-1.1431,1.4254,-1.2266,-0.3260,0.0575,-0.0352,-32.3400,11.4000,-15.4800,
3.701675,-1.1431,1.4254,-1.2266,-0.3494,0.0852,-0.0575,-32.3400,11.4000,-15.4800,
3.721965,-1.1431,1.4254,-1.2266,-0.2775,0.1076,-0.0767,-32.3400,11.4000,-15.4800,
3.742782,-1.1431,1.4254,-1.2266,-0.2775,0.1076,-0.0767,-32.3400,11.4000,-15.4800,
3.743737,0.1571,-0.0300,-0.3617,-0.2775,0.1076,-0.0767,-32.3400,11.4000,-15.4800,
3.744540,0.1571,-0.0300,-0.3617,-0.2775,0.1076,-0.0767,-32.3400,12.3600,-14.7600,
3.744999,0.1571,-0.0300,-0.3617,-0.1641,0.0847,-0.0591,-32.3400,12.3600,-14.7600,
3.762758,0.1571,-0.0300,-0.3617,-0.0597,0.0218,-0.0250,-32.3400,12.3600,-14.7600,
3.783681,0.1571,-0.0300,-0.3617,0.0746,-0.1012,-0.0032,-32.3400,12.3600,-14.7600,
3.805255,0.1571,-0.0300,-0.3617,0.0746,-0.1012,-0.0032,-32.3400,12.3600,-14.7600,
3.806296,0.1571,-0.0300,-0.3617,0.0746,-0.1012,-0.0032,-32.4000,12.7800,-14.5800,
3.806798,0.1571,-0.0300,-0.3617,0.2871,-0.2226,0.0314,-32.4000,12.7800,-14.5800,
3.807359,0.1503,-0.0943,0.0399,0.2871,-0.2226,0.0314,-32.4000,12.7800,-14.5800,
3.824813,0.1503,-0.0943,0.0399,0.2929,-0.2189,0.0575,-32.4000,12.7800,-14.5800,
3.845439,0.1503,-0.0943,0.0399,0.2722,-0.2732,0.0858,-32.4000,12.7800,-14.5800,
3.866509,0.1503,-0.0943,0.0399,0.2722,-0.2732,0.0858,-32.4000,12.7800,-14.5800,
3.867535,0.1503,-0.0943,0.0399,0.2722,-0.2732,0.0858,-32.6400,12.4800,-14.2200,
3.867956,0.1503,-0.0943,0.0399,0.3036,-0.3414,0.1475,-32.6400,12.4800,-14.2200,
3.868212,-0.1103,0.3155,0.0925,0.3036,-0.3414,0.1475,-32.6400,12.4800,-14.2200,
3.886101,-0.1103,0.3155,0.0925,0.3148,-0.4256,0.2301,-32.6400,12.4800,-14.2200,
3.906994,-0.1103,0.3155,0.0925,0.3270,-0.4874,0.2700,-32.6400,12.4800,-14.2200,
3.928112,-0.1103,0.3155,0.0925,0.3270,-0.4874,0.2700,-32.6400,12.4800,-14.2200,
3.929158,-0.1103,0.3155,0.0925,0.3270,-0.4874,0.2700,-32.8200,12.1800,-13.8600,
3.929807,-0.1103,0.3155,0.0925,0.3547,-0.4719,0.3036,-32.8200,12.1800,-13.8600,
3.930408,-0.2162,-0.0587,-0.0908,0.3547,-0.4719,0.3036,-32.8200,12.1800,-13.8600,
3.947547,-0.2162,-0.0587,-0.0908,0.3760,-0.3116,0.3414,-32.8200,12.1800,-13.8600,
3.968548,-0.2162,-0.0587,-0.0908,0.3760,-0.3116,0.3414,-32.8200,12.1800,-13.8600,
3.969435,-0.2162,-0.0587,-0.0908,0.3750,-0.1747,0.3547,-32.8200,12.1800,-13.8600,
3.969785,-0.1558,-0.2698,-0.1983,0.3750,-0.1747,0.3547,-32.8200,12.1800,-13.8600,
3.989529,-0.1558,-0.2698,-0.1983,0.3750,-0.1747,0.3547,-32.8200,12.1800,-13.8600,
3.990630,-0.1558,-0.2698,-0.1983,0.3750,-0.1747,0.3547,-33.2400,11.7600,-13.8600,
3.991315,-0.1558,-0.2698,-0.1983,0.3521,-0.1369,0.3441,-33.2400,11.7600,-13.8600,
3.991806,-0.3048,-0.2595,0.2811,0.3521,-0.1369,0.3441,-33.2400,11.7600,-13.8600,
4.009409,-0.3048,-0.2595,0.2811,0.3521,-0.1369,0.3441,-33.2400,11.7600,-13.8600,
4.010668,-0.3048,-0.2595,0.2811,0.4176,-0.2498,0.3222,-33.2400,11.7600,-13.8600,
4.011183,-0.2569,-0.4140,0.5356,0.4176,-0.2498,0.3222,-33.2400,11.7600,-13.8600,
4.029750,-0.2569,-0.4140,0.5356,0.4176,-0.2498,0.3222,-33.2400,11.7600,-13.8600,
4.030907,-0.2569,-0.4140,0.5356,0.4682,-0.2072,0.3345,-33.2400,11.7600,-13.8600,
4.031442,-0.0117,-0.4061,0.1986,0.4682,-0.2072,0.3345,-33.2400,11.7600,-13.8600,
4.051345,-0.0117,-0.4061,0.1986,0.4682,-0.2072,0.3345,-33.2400,11.7600,-13.8600,
4.053131,-0.0117,-0.4061,0.1986,0.4682,-0.2072,0.3345,-33.1200,11.7000,-13.8600,
4.053921,-0.0117,-0.4061,0.1986,0.4432,-0.0352,0.3409,-33.1200,11.7000,-13.8600,
4.054787,0.2736,-0.3867,-0.1443,0.4432,-0.0352,0.3409,-33.1200,11.7000,-13.8600,
4.070452,0.2736,-0.3867,-0.1443,0.4432,-0.0352,0.3409,-33.1200,11.7000,-13.8600,
4.071095,0.2736,-0.3867,-0.1443,0.4437,0.3121,0.2876,-33.1200,11.7000,-13.8600,
4.071572,0.6148,-0.4993,-0.0193,0.4437,0.3121,0.2876,-33.1200,11.7000,-13.8600,
4.091473,0.6148,-0.4993,-0.0193,0.4437,0.3121,0.2876,-33.1200,11.7000,-13.8600,
4.092687,0.6148,-0.4993,-0.0193,0.5087,0.7281,0.1305,-33.1200,11.7000,-13.8600,
4.093411,0.6840,-0.6942,-0.2100,0.5087,0.7281,0.1305,-33.1200,11.7000,-13.8600,
4.112608,0.6840,-0.6942,-0.2100,0.5087,0.7281,0.1305,-33.1200,11.7000,-13.8600,
4.113720,0.6840,-0.6942,-0.2100,0.5087,0.7281,0.1305,-33.6600,11.9400,-13.9800,
4.114421,0.6840,-0.6942,-0.2100,0.3766,1.2155,-0.0394,-33.6600,11.9400,-13.9800,
4.114925,0.9283,-0.9041,-0.7380,0.3766,1.2155,-0.0394,-33.6600,11.9400,-13.9800,
4.132402,0.9283,-0.9041,-0.7380,0.3766,1.2155,-0.0394,-33.6600,11.9400,-13.9800,
4.133635,0.9283,-0.9041,-0.7380,0.2264,1.6858,-0.2487,-33.6600,11.9400,-13.9800,
4.134451,1.1192,-1.0556,-0.3643,0.2264,1.6858,-0.2487,-33.6600,11.9400,-13.9800,
4.153557,1.1192,-1.0556,-0.3643,0.2264,1.6858,-0.2487,-33.6600,11.9400,-13.9800,
4.154957,1.1192,-1.0556,-0.3643,0.3361,1.8099,-0.4613,-33.6600,11.9400,-13.9800,
4.155576,0.8127,-0.9778,0.4582,0.3361,1.8099,-0.4613,-33.6600,11.9400,-13.9800,
4.173848,0.8127,-0.9778,0.4582,0.3361,1.8099,-0.4613,-33.6600,11.9400,-13.9800,
4.174839,0.8127,-0.9778,0.4582,0.3361,1.8099,-0.4613,-33.1200,12.1800,-14.4000,
4.175393,0.8127,-0.9778,0.4582,0.4852,1.6346,-0.4996,-33.1200,12.1800,-14.4000,
4.176220,0.2564,-0.6534,0.3163,0.4852,1.6346,-0.4996,-33.1200,12.1800,-14.4000,
4.194197,0.2564,-0.6534,0.3163,0.4852,1.6346,-0.4996,-33.1200,12.1800,-14.4000,
4.195192,0.2564,-0.6534,0.3163,0.4884,1.2991,-0.4346,-33.1200,12.1800,-14.4000,
4.195733,0.4073,-0.5906,0.2831,0.4884,1.2991,-0.4346,-33.1200,12.1800,-14.4000,
4.214456,0.4073,-0.5906,0.2831,0.4884,1.2991,-0.4346,-33.1200,12.1800,-14.4000,
4.215527,0.4073,-0.5906,0.2831,0.3622,1.0243,-0.3739,-33.1200,12.1800,-14.4000,
4.216350,0.2759,-0.2049,-0.1227,0.3622,1.0243,-0.3739,-33.1200,12.1800,-14.4000,
4.236164,0.2759,-0.2049,-0.1227,0.3622,1.0243,-0.3739,-33.1200,12.1800,-14.4000,
4.237258,0.2759,-0.2049,-0.1227,0.3622,1.0243,-0.3739,-32.1000,11.8200,-15.3600,
4.237930,0.2759,-0.2049,-0.1227,0.0900,0.8458,-0.2844,-32.1000,11.8200,-15.3600,
4.238521,0.2022,-0.0114,-0.4653,0.0900,0.8458,-0.2844,-32.1000,11.8200,-15.3600,
4.255804,0.2022,-0.0114,-0.4653,0.0900,0.8458,-0.2844,-32.1000,11.8200,-15.3600,
4.257328,0.2022,-0.0114,-0.4653,-0.1864,0.9348,-0.1891,-32.1000,11.8200,-15.3600,
4.258325,0.2331,-0.1171,-0.6019,-0.1864,0.9348,-0.1891,-32.1000,11.8200,-15.3600,
4.275499,0.2331,-0.1171,-0.6019,-0.1864,0.9348,-0.1891,-32.1000,11.8200,-15.3600,
4.276790,0.2331,-0.1171,-0.6019,-0.4085,1.1595,-0.0735,-32.1000,11.8200,-15.3600,
4.277741,0.3880,-0.3468,-0.6178,-0.4085,1.1595,-0.0735,-32.1000,11.8200,-15.3600,
4.296653,0.3880,-0.3468,-0.6178,-0.4085,1.1595,-0.0735,-32.1000,11.8200,-15.3600,
4.297271,0.3880,-0.3468,-0.6178,-0.4085,1.1595,-0.0735,-31.2000,10.8600,-17.6400,
4.297588,0.3880,-0.3468,-0.6178,-0.4895,1.1718,0.1017,-31.2000,10.8600,-17.6400,
4.297889,0.2407,-0.3518,-0.4848,-0.4895,1.1718,0.1017,-31.2000,10.8600,-17.6400,
4.316839,0.2407,-0.3518,-0.4848,-0.4895,1.1718,0.1017,-31.2000,10.8600,-17.6400,
4.317744,0.2407,-0.3518,-0.4848,-0.4117,0.8836,0.2871,-31.2000,10.8600,-17.6400,
4.318296,0.3893,-0.2995,-0.2223,-0.4117,0.8836,0.2871,-31.2000,10.8600,-17.6400,
4.337437,0.3893,-0.2995,-0.2223,-0.4117,0.8836,0.2871,-31.2000,10.8600,-17.6400,
4.338326,0.3893,-0.2995,-0.2223,-0.3063,0.6653,0.2770,-31.2000,10.8600,-17.6400,
4.338869,0.9081,-0.2649,-0.3075,-0.3063,0.6653,0.2770,-31.2000,10.8600,-17.6400,
4.358670,0.9081,-0.2649,-0.3075,-0.3063,0.6653,0.2770,-31.2000,10.8600,-17.6400,
4.359681,0.9081,-0.2649,-0.3075,-0.3063,0.6653,0.2770,-29.2800,10.9800,-20.5800,
4.360436,0.9081,-0.2649,-0.3075,-0.1443,0.3963,0.1715,-29.2800,10.9800,-20.5800,
4.361204,1.0241,-0.2156,-0.3807,-0.1443,0.3963,0.1715,-29.2800,10.9800,-20.5800,
4.378828,1.0241,-0.2156,-0.3807,-0.1443,0.3963,0.1715,-29.2800,10.9800,-20.5800,
4.380330,1.0241,-0.2156,-0.3807,0.1694,-0.0676,0.1822,-29.2800,10.9800,-20.5800,
4.380877,0.7198,0.0704,-0.1427,0.1694,-0.0676,0.1822,-29.2800,10.9800,-20.5800,
4.399267,0.7198,0.0704,-0.1427,0.1694,-0.0676,0.1822,-29.2800,10.9800,-20.5800,
4.399916,0.7198,0.0704,-0.1427,0.4123,-0.5641,0.1742,-29.2800,10.9800,-20.5800,
4.400210,0.7363,-0.1095,-0.4121,0.4123,-0.5641,0.1742,-29.2800,10.9800,-20.5800,
4.419715,0.7363,-0.1095,-0.4121,0.4123,-0.5641,0.1742,-29.2800,10.9800,-20.5800,
4.420236,0.7363,-0.1095,-0.4121,0.4123,-0.5641,0.1742,-27.9000,11.0400,-23.5200,
4.420555,0.7363,-0.1095,-0.4121,0.4879,-0.6743,-0.0442,-27.9000,11.0400,-23.5200,
4.420805,1.2417,-0.3275,-1.2196,0.4879,-0.6743,-0.0442,-27.9000,11.0400,-23.5200,
4.439886,1.2417,-0.3275,-1.2196,0.4879,-0.6743,-0.0442,-27.9000,11.0400,-23.5200,
4.440826,1.2417,-0.3275,-1.2196,0.4895,-0.6541,-0.2354,-27.9000,11.0400,-23.5200,
4.441372,0.2898,0.3483,-0.8662,0.4895,-0.6541,-0.2354,-27.9000,11.0400,-23.5200,
4.460780,0.2898,0.3483,-0.8662,0.4895,-0.6541,-0.2354,-27.9000,11.0400,-23.5200,
4.461986,0.2898,0.3483,-0.8662,0.5273,-0.8671,-0.2296,-27.9000,11.0400,-23.5200,
4.462707,-0.6145,0.6274,-0.7966,0.5273,-0.8671,-0.2296,-27.9000,11.0400,-23.5200,
4.481237,-0.6145,0.6274,-0.7966,0.5273,-0.8671,-0.2296,-27.9000,11.0400,-23.5200,
4.482198,-0.6145,0.6274,-0.7966,0.5273,-0.8671,-0.2296,-27.0000,11.5200,-24.7800,
4.482843,-0.4136,0.3638,-1.3635,0.5273,-0.8671,-0.2296,-27.0000,11.5200,-24.7800,
4.483537,-0.4136,0.3638,-1.3635,0.5694,-0.7718,-0.2306,-27.0000,11.5200,-24.7800,
4.500915,-0.4136,0.3638,-1.3635,0.5694,-0.7718,-0.2306,-27.0000,11.5200,-24.7800,
4.501820,-0.4136,0.3638,-1.3635,0.6796,-0.1438,-0.3228,-27.0000,11.5200,-24.7800,
4.502562,-0.0949,-0.0903,-1.5240,0.6796,-0.1438,-0.3228,-27.0000,11.5200,-24.7800,
4.521443,-0.0949,-0.0903,-1.5240,0.6796,-0.1438,-0.3228,-27.0000,11.5200,-24.7800,
4.521969,-0.0949,-0.0903,-1.5240,0.7622,0.5023,-0.5001,-27.0000,11.5200,-24.7800,
4.522323,-0.1095,-0.3474,-1.0872,0.7622,0.5023,-0.5001,-27.0000,11.5200,-24.7800,
4.543228,-0.1095,-0.3474,-1.0872,0.7622,0.5023,-0.5001,-27.0000,11.5200,-24.7800,
4.544313,-0.1095,-0.3474,-1.0872,0.7622,0.5023,-0.5001,-26.9400,11.8200,-24.9000,
4.544711,-0.1095,-0.3474,-1.0872,0.8091,0.6083,-0.6456,-26.9400,11.8200,-24.9000,
4.545243,-0.8011,-0.2224,-0.1144,0.8091,0.6083,-0.6456,-26.9400,11.8200,-24.9000,
4.562981,-0.8011,-0.2224,-0.1144,0.8091,0.6083,-0.6456,-26.9400,11.8200,-24.9000,
4.563790,-0.8011,-0.2224,-0.1144,0.8176,0.3297,-0.6850,-26.9400,11.8200,-24.9000,
4.564526,-1.8242,0.0694,0.6901,0.8176,0.3297,-0.6850,-26.9400,11.8200,-24.9000,
4.584173,-1.8242,0.0694,0.6901,0.8176,0.3297,-0.6850,-26.9400,11.8200,-24.9000,
4.585158,-1.8242,0.0694,0.6901,0.7622,-0.1481,-0.6631,-26.9400,11.8200,-24.9000,
4.585863,-2.4489,0.2454,0.3241,0.7622,-0.1481,-0.6631,-26.9400,11.8200,-24.9000,
4.604878,-2.4489,0.2454,0.3241,0.7622,-0.1481,-0.6631,-26.9400,11.8200,-24.9000,
4.605520,-2.4489,0.2454,0.3241,0.7622,-0.1481,-0.6631,-27.0000,10.8600,-24.1800,
4.605795,-2.4489,0.2454,0.3241,0.6333,-0.3132,-0.6152,-27.0000,10.8600,-24.1800,
4.606118,-2.4913,0.3169,-0.7449,0.6333,-0.3132,-0.6152,-27.0000,10.8600,-24.1800,
4.624985,-2.4913,0.3169,-0.7449,0.6333,-0.3132,-0.6152,-27.0000,10.8600,-24.1800,
4.625909,-2.4913,0.3169,-0.7449,0.4517,-0.2248,-0.5198,-27.0000,10.8600,-24.1800,
4.626443,-2.8473,0.4824,-0.9605,0.4517,-0.2248,-0.5198,-27.0000,10.8600,-24.1800,
4.645216,-2.8473,0.4824,-0.9605,0.4517,-0.2248,-0.5198,-27.0000,10.8600,-24.1800,
4.646183,-2.8473,0.4824,-0.9605,0.3031,-0.0463,-0.3244,-27.0000,10.8600,-24.1800,
4.646905,-3.2273,0.6139,-0.3318,0.3031,-0.0463,-0.3244,-27.0000,10.8600,-24.1800,
4.667062,-3.2273,0.6139,-0.3318,0.3031,-0.0463,-0.3244,-27.0000,10.8600,-24.1800,
4.668489,-3.2273,0.6139,-0.3318,0.3031,-0.0463,-0.3244,-27.7800,9.0000,-23.8200,
4.669282,-3.2273,0.6139,-0.3318,0.3143,0.3510,-0.1822,-27.7800,9.0000,-23.8200,
4.670182,-2.9983,0.4584,0.4604,0.3143,0.3510,-0.1822,-27.7800,9.0000,-23.8200,
4.686926,-2.9983,0.4584,0.4604,0.3143,0.3510,-0.1822,-27.7800,9.0000,-23.8200,
4.688488,-2.9983,0.4584,0.4604,0.4304,0.7201,-0.0724,-27.7800,9.0000,-23.8200,
4.689286,-2.5998,0.3026,1.0305,0.4304,0.7201,-0.0724,-27.7800,9.0000,-23.8200,
4.706423,-2.5998,0.3026,1.0305,0.4304,0.7201,-0.0724,-27.7800,9.0000,-23.8200,
4.706996,-2.5998,0.3026,1.0305,0.5736,0.8346,0.0330,-27.7800,9.0000,-23.8200,
4.707350,-2.2868,0.2710,1.1922,0.5736,0.8346,0.0330,-27.7800,9.0000,-23.8200,
4.728191,-2.2868,0.2710,1.1922,0.5736,0.8346,0.0330,-27.7800,9.0000,-23.8200,
4.729268,-2.2868,0.2710,1.1922,0.5736,0.8346,0.0330,-28.8000,6.9600,-23.9400,
4.729924,-2.2868,0.2710,1.1922,0.6919,0.6892,0.1539,-28.8000,6.9600,-23.9400,
4.730367,-1.8309,0.1664,1.0057,0.6919,0.6892,0.1539,-28.8000,6.9600,-23.9400,
4.747967,-1.8309,0.1664,1.0057,0.6919,0.6892,0.1539,-28.8000,6.9600,-23.9400,
4.748991,-1.8309,0.1664,1.0057,0.7159,0.4032,0.2051,-28.8000,6.9600,-23.9400,
4.749769,-1.1307,-0.0269,0.5217,0.7159,0.4032,0.2051,-28.8000,6.9600,-23.9400,
4.768632,-1.1307,-0.0269,0.5217,0.7159,0.4032,0.2051,-28.8000,6.9600,-23.9400,
4.769577,-1.1307,-0.0269,0.5217,0.6674,0.1550,0.1800,-28.8000,6.9600,-23.9400,
4.770108,-0.3578,-0.3541,-0.1036,0.6674,0.1550,0.1800,-28.8000,6.9600,-23.9400,
4.789151,-0.3578,-0.3541,-0.1036,0.6674,0.1550,0.1800,-28.8000,6.9600,-23.9400,
4.790803,0.4809,-0.6409,-0.6173,0.6674,0.1550,0.1800,-28.8000,6.9600,-23.9400,
4.792359,0.4809,-0.6409,-0.6173,0.6674,0.1550,0.1800,-28.3800,5.2800,-24.6600,
4.793284,0.4809,-0.6409,-0.6173,0.5635,0.0080,0.0937,-28.3800,5.2800,-24.6600,
4.808801,0.4809,-0.6409,-0.6173,0.5635,0.0080,0.0937,-28.3800,5.2800,-24.6600,
4.809752,0.4809,-0.6409,-0.6173,0.4863,-0.0703,-0.0218,-28.3800,5.2800,-24.6600,
4.810471,1.5061,-0.9886,-0.7891,0.4863,-0.0703,-0.0218,-28.3800,5.2800,-24.6600,
4.829840,1.5061,-0.9886,-0.7891,0.4863,-0.0703,-0.0218,-28.3800,5.2800,-24.6600,
4.830767,1.5061,-0.9886,-0.7891,0.4538,-0.1076,-0.1752,-28.3800,5.2800,-24.6600,
4.831229,2.5182,-1.1442,-0.7313,0.4538,-0.1076,-0.1752,-28.3800,5.2800,-24.6600,
4.850860,2.5182,-1.1442,-0.7313,0.4538,-0.1076,-0.1752,-28.3800,5.2800,-24.6600,
4.851895,2.5182,-1.1442,-0.7313,0.4538,-0.1076,-0.1752,-28.5600,4.0200,-25.5600,
4.852611,2.5182,-1.1442,-0.7313,0.5097,-0.1395,-0.2674,-28.5600,4.0200,-25.5600,
4.853256,2.4669,-0.6797,-0.3371,0.5097,-0.1395,-0.2674,-28.5600,4.0200,-25.5600,
4.871381,2.4669,-0.6797,-0.3371,0.5097,-0.1395,-0.2674,-28.5600,4.0200,-25.5600,
4.872559,2.4669,-0.6797,-0.3371,0.5864,-0.2961,-0.2157,-28.5600,4.0200,-25.5600,
4.873303,1.5768,-0.0433,0.1649,0.5864,-0.2961,-0.2157,-28.5600,4.0200,-25.5600,
4.890781,1.5768,-0.0433,0.1649,0.5864,-0.2961,-0.2157,-28.5600,4.0200,-25.5600,
4.891746,1.5768,-0.0433,0.1649,0.5502,-0.5497,-0.1348,-28.5600,4.0200,-25.5600,
4.892486,0.2330,0.4033,0.6163,0.5502,-0.5497,-0.1348,-28.5600,4.0200,-25.5600,
4.912030,0.2330,0.4033,0.6163,0.5502,-0.5497,-0.1348,-28.5600,4.0200,-25.5600,
4.912629,0.2330,0.4033,0.6163,0.5502,-0.5497,-0.1348,-28.3200,3.4800,-26.1000,
4.912894,0.2330,0.4033,0.6163,0.4373,-0.8799,-0.1055,-28.3200,3.4800,-26.1000,
4.913143,-1.4467,0.7328,0.8325,0.4373,-0.8799,-0.1055,-28.3200,3.4800,-26.1000,
4.932329,-1.4467,0.7328,0.8325,0.4373,-0.8799,-0.1055,-28.3200,3.4800,-26.1000,
4.933236,-1.4467,0.7328,0.8325,0.3675,-1.1441,-0.0202,-28.3200,3.4800,-26.1000,
4.933775,-2.4624,0.6324,0.5017,0.3675,-1.1441,-0.0202,-28.3200,3.4800,-26.1000,
4.953034,-2.4624,0.6324,0.5017,0.3675,-1.1441,-0.0202,-28.3200,3.4800,-26.1000,
4.954051,-2.4624,0.6324,0.5017,0.4336,-0.9577,0.1044,-28.3200,3.4800,-26.1000,
4.954539,-2.0981,-0.1160,-0.3960,0.4336,-0.9577,0.1044,-28.3200,3.4800,-26.1000,
4.974216,-2.0981,-0.1160,-0.3960,0.4336,-0.9577,0.1044,-28.3200,3.4800,-26.1000,
4.975187,-2.0981,-0.1160,-0.3960,0.4336,-0.9577,0.1044,-27.8400,2.8800,-26.5800,
4.975697,-2.0981,-0.1160,-0.3960,0.4794,-0.3851,0.2003,-27.8400,2.8800,-26.5800,
4.976745,-1.3828,-1.4160,-1.9272,0.4794,-0.3851,0.2003,-27.8400,2.8800,-26.5800,
4.993910,-1.3828,-1.4160,-1.9272,0.4794,-0.3851,0.2003,-27.8400,2.8800,-26.5800,
4.995532,-1.3828,-1.4160,-1.9272,0.4655,0.2285,0.3318,-27.8400,2.8800,-26.5800,
4.996909,-0.6219,-2.4287,-2.6577,0.4655,0.2285,0.3318,-27.8400,2.8800,-26.5800,
5.014050,-0.6219,-2.4287,-2.6577,0.4655,0.2285,0.3318,-27.8400,2.8800,-26.5800,
5.014647,-0.6219,-2.4287,-2.6577,0.5593,0.4639,0.4453,-27.8400,2.8800,-26.5800,
5.015047,0.7070,-2.6296,-1.9566,0.5593,0.4639,0.4453,-27.8400,2.8800,-26.5800,
5.035961,0.7070,-2.6296,-1.9566,0.5593,0.4639,0.4453,-27.8400,2.8800,-26.5800,
5.036885,0.7070,-2.6296,-1.9566,0.5593,0.4639,0.4453,-28.5000,2.2800,-25.8000,
5.037448,0.7070,-2.6296,-1.9566,0.8389,0.3244,0.3819,-28.5000,2.2800,-25.8000,
5.038045,1.3135,-1.2571,-0.0121,0.8389,0.3244,0.3819,-28.5000,2.2800,-25.8000,
5.055893,1.3135,-1.2571,-0.0121,0.8389,0.3244,0.3819,-28.5000,2.2800,-25.8000,
5.056863,1.3135,-1.2571,-0.0121,1.0690,0.0804,0.1587,-28.5000,2.2800,-25.8000,
5.057464,0.7369,0.5166,0.7780,1.0690,0.0804,0.1587,-28.5000,2.2800,-25.8000,
5.076428,0.7369,0.5166,0.7780,1.0690,0.0804,0.1587,-28.5000,2.2800,-25.8000,
5.077754,0.7369,0.5166,0.7780,1.1569,0.0123,0.0021,-28.5000,2.2800,-25.8000,
5.078573,-0.1639,1.8633,0.8864,1.1569,0.0123,0.0021,-28.5000,2.2800,-25.8000,
5.098021,-0.1639,1.8633,0.8864,1.1569,0.0123,0.0021,-28.5000,2.2800,-25.8000,
5.099335,-0.1639,1.8633,0.8864,1.1569,0.0123,0.0021,-28.9800,1.5000,-25.2000,
5.100444,-0.1639,1.8633,0.8864,1.1473,-0.0128,-0.0495,-28.9800,1.5000,-25.2000,
5.101184,-0.8063,2.3326,1.0996,1.1473,-0.0128,-0.0495,-28.9800,1.5000,-25.2000,
5.116329,-0.8063,2.3326,1.0996,1.1473,-0.0128,-0.0495,-28.9800,1.5000,-25.2000,
5.116913,-0.8063,2.3326,1.0996,1.1569,-0.0634,0.0234,-28.9800,1.5000,-25.2000,
5.117179,-0.1871,1.5580,0.6470,1.1569,-0.0634,0.0234,-28.9800,1.5000,-25.2000,
5.137937,-0.1871,1.5580,0.6470,1.1569,-0.0634,0.0234,-28.9800,1.5000,-25.2000,
5.138828,-0.1871,1.5580,0.6470,0.9060,-0.1736,0.0048,-28.9800,1.5000,-25.2000,
5.139371,1.2073,0.0523,-0.9184,0.9060,-0.1736,0.0048,-28.9800,1.5000,-25.2000,
5.158934,1.2073,0.0523,-0.9184,0.9060,-0.1736,0.0048,-28.9800,1.5000,-25.2000,
5.159988,1.2073,0.0523,-0.9184,0.9060,-0.1736,0.0048,-29.2200,0.7200,-24.7800,
5.160629,1.2073,0.0523,-0.9184,0.6946,-0.0975,0.0900,-29.2200,0.7200,-24.7800,
5.161130,0.4287,-0.5250,-0.2418,0.6946,-0.0975,0.0900,-29.2200,0.7200,-24.7800,
5.179188,0.4287,-0.5250,-0.2418,0.6946,-0.0975,0.0900,-29.2200,0.7200,-24.7800,
5.180433,0.4287,-0.5250,-0.2418,0.8048,0.2605,0.3659,-29.2200,0.7200,-24.7800,
5.181365,-0.4829,-0.5798,1.3060,0.8048,0.2605,0.3659,-29.2200,0.7200,-24.7800,
5.199333,-0.4829,-0.5798,1.3060,0.8048,0.2605,0.3659,-29.2200,0.7200,-24.7800,
5.200498,-0.4829,-0.5798,1.3060,0.9747,0.4325,0.3904,-29.2200,0.7200,-24.7800,
5.201202,-0.2126,-0.6829,1.5380,0.9747,0.4325,0.3904,-29.2200,0.7200,-24.7800,
5.219671,-0.2126,-0.6829,1.5380,0.9747,0.4325,0.3904,-29.2200,0.7200,-24.7800,
5.220302,-0.2126,-0.6829,1.5380,0.9747,0.4325,0.3904,-30.0600,-0.7800,-24.1200,
5.220682,-0.2126,-0.6829,1.5380,0.9353,0.3670,0.2445,-30.0600,-0.7800,-24.1200,
5.221017,0.2714,-0.5829,0.8633,0.9353,0.3670,0.2445,-30.0600,-0.7800,-24.1200,
5.240180,0.2714,-0.5829,0.8633,0.9353,0.3670,0.2445,-30.0600,-0.7800,-24.1200,
5.241091,0.2714,-0.5829,0.8633,0.8719,0.2141,0.2551,-30.0600,-0.7800,-24.1200,
5.241688,0.2643,-0.4541,0.7208,0.8719,0.2141,0.2551,-30.0600,-0.7800,-24.1200,
5.261157,0.2643,-0.4541,0.7208,0.8719,0.2141,0.2551,-30.0600,-0.7800,-24.1200,
5.262038,0.2643,-0.4541,0.7208,0.8139,0.0671,0.3862,-30.0600,-0.7800,-24.1200,
5.262591,-0.4428,-0.1649,0.6572,0.8139,0.0671,0.3862,-30.0600,-0.7800,-24.1200,
5.281968,-0.4428,-0.1649,0.6572,0.8139,0.0671,0.3862,-30.0600,-0.7800,-24.1200,
5.283094,-0.4428,-0.1649,0.6572,0.8139,0.0671,0.3862,-29.9400,-2.1600,-25.0800,
5.283609,-0.4428,-0.1649,0.6572,0.8037,0.1129,0.5198,-29.9400,-2.1600,-25.0800,
5.284466,-0.9401,0.0216,0.6619,0.8037,0.1129,0.5198,-29.9400,-2.1600,-25.0800,
5.302109,-0.9401,0.0216,0.6619,0.8037,0.1129,0.5198,-29.9400,-2.1600,-25.0800,
5.303047,-0.9401,0.0216,0.6619,0.7201,0.1539,0.4740,-29.9400,-2.1600,-25.0800,
5.303704,-0.0251,-0.2487,0.0606,0.7201,0.1539,0.4740,-29.9400,-2.1600,-25.0800,
5.321939,-0.0251,-0.2487,0.0606,0.7201,0.1539,0.4740,-29.9400,-2.1600,-25.0800,
5.323012,-0.0251,-0.2487,0.0606,0.6179,0.0463,0.4293,-29.9400,-2.1600,-25.0800,
5.323728,0.5323,-0.5153,-0.5127,0.6179,0.0463,0.4293,-29.9400,-2.1600,-25.0800,
5.343066,0.5323,-0.5153,-0.5127,0.6179,0.0463,0.4293,-29.9400,-2.1600,-25.0800,
5.345665,0.3496,-0.5777,-0.4453,0.6179,0.0463,0.4293,-29.9400,-2.1600,-25.0800,
5.346015,0.3496,-0.5777,-0.4453,0.6179,0.0463,0.4293,-29.7600,-2.9400,-25.7400,
5.346259,0.3496,-0.5777,-0.4453,0.6195,0.1081,0.5673,-29.7600,-2.9400,-25.7400,
5.363117,0.3496,-0.5777,-0.4453,0.6195,0.1081,0.5673,-29.7600,-2.9400,-25.7400,
5.363961,0.3496,-0.5777,-0.4453,0.6461,0.3164,0.7031,-29.7600,-2.9400,-25.7400,
5.364549,0.3868,-0.3343,-0.5605,0.6461,0.3164,0.7031,-29.7600,-2.9400,-25.7400,
5.384163,0.3868,-0.3343,-0.5605,0.6461,0.3164,0.7031,-29.7600,-2.9400,-25.7400,
5.385059,0.5584,0.4996,-0.8632,0.6461,0.3164,0.7031,-29.7600,-2.9400,-25.7400,
5.385698,0.5584,0.4996,-0.8632,0.6163,0.3723,0.6796,-29.7600,-2.9400,-25.7400,
5.405148,0.5584,0.4996,-0.8632,0.6163,0.3723,0.6796,-29.7600,-2.9400,-25.7400,
5.406147,0.5584,0.4996,-0.8632,0.6163,0.3723,0.6796,-29.4000,-3.9600,-26.7000,
5.406581,0.5584,0.4996,-0.8632,0.6077,0.3260,0.6541,-29.4000,-3.9600,-26.7000,
5.407196,0.4199,1.2087,-1.0915,0.6077,0.3260,0.6541,-29.4000,-3.9600,-26.7000,
5.425295,0.4199,1.2087,-1.0915,0.6077,0.3260,0.6541,-29.4000,-3.9600,-26.7000,
5.426515,0.4199,1.2087,-1.0915,0.7345,0.4479,0.6461,-29.4000,-3.9600,-26.7000,
5.427196,0.3756,1.1371,-0.9369,0.7345,0.4479,0.6461,-29.4000,-3.9600,-26.7000,
5.445029,0.3756,1.1371,-0.9369,0.7345,0.4479,0.6461,-29.4000,-3.9600,-26.7000,
5.445746,0.3756,1.1371,-0.9369,0.9294,0.4682,0.6253,-29.4000,-3.9600,-26.7000,
5.446264,-0.0872,0.0178,0.1800,0.9294,0.4682,0.6253,-29.4000,-3.9600,-26.7000,
5.466836,-0.0872,0.0178,0.1800,0.9294,0.4682,0.6253,-29.4000,-3.9600,-26.7000,
5.467717,-0.0872,0.0178,0.1800,0.9294,0.4682,0.6253,-28.7400,-3.9600,-27.2400,
5.468238,-0.0872,0.0178,0.1800,1.1244,0.4096,0.6360,-28.7400,-3.9600,-27.2400,
5.468816,-0.2344,-0.2813,0.2590,1.1244,0.4096,0.6360,-28.7400,-3.9600,-27.2400,
5.486494,-0.2344,-0.2813,0.2590,1.1244,0.4096,0.6360,-28.7400,-3.9600,-27.2400,
5.487422,-0.2344,-0.2813,0.2590,1.3135,0.4064,0.6828,-28.7400,-3.9600,-27.2400,
5.488139,-0.5329,-0.5378,0.4361,1.3135,0.4064,0.6828,-28.7400,-3.9600,-27.2400,
5.507471,-0.5329,-0.5378,0.4361,1.3135,0.4064,0.6828,-28.7400,-3.9600,-27.2400,
5.508487,-0.5329,-0.5378,0.4361,1.4685,0.4788,0.7974,-28.7400,-3.9600,-27.2400,
5.509121,-0.9218,-0.8365,0.7182,1.4685,0.4788,0.7974,-28.7400,-3.9600,-27.2400,
5.528402,-0.9218,-0.8365,0.7182,1.4685,0.4788,0.7974,-28.7400,-3.9600,-27.2400,
5.529569,-0.9218,-0.8365,0.7182,1.4685,0.4788,0.7974,-28.7400,-4.1400,-27.3600,
5.530129,-0.9218,-0.8365,0.7182,1.5521,0.6413,0.9790,-28.7400,-4.1400,-27.3600,
5.530902,-1.1526,-0.9329,0.1533,1.5521,0.6413,0.9790,-28.7400,-4.1400,-27.3600,
5.547568,-1.1526,-0.9329,0.1533,1.5521,0.6413,0.9790,-28.7400,-4.1400,-27.3600,
5.548115,-1.1526,-0.9329,0.1533,1.4482,0.7531,1.1830,-28.7400,-4.1400,-27.3600,
5.548429,-1.2497,-0.4715,-0.4320,1.4482,0.7531,1.1830,-28.7400,-4.1400,-27.3600,
5.568278,-1.2497,-0.4715,-0.4320,1.4482,0.7531,1.1830,-28.7400,-4.1400,-27.3600,
5.569102,-0.9905,0.0663,-0.2197,1.4482,0.7531,1.1830,-28.7400,-4.1400,-27.3600,
5.569680,-0.9905,0.0663,-0.2197,1.3252,0.6674,1.3614,-28.7400,-4.1400,-27.3600,
5.589593,-0.9905,0.0663,-0.2197,1.3252,0.6674,1.3614,-28.7400,-4.1400,-27.3600,
5.590519,-0.9905,0.0663,-0.2197,1.3252,0.6674,1.3614,-28.0800,-4.8600,-27.2400,
5.590972,-0.9905,0.0663,-0.2197,1.3875,0.6008,1.4440,-28.0800,-4.8600,-27.2400,
5.591999,-0.3839,0.4030,0.2745,1.3875,0.6008,1.4440,-28.0800,-4.8600,-27.2400,
5.609990,-0.3839,0.4030,0.2745,1.3875,0.6008,1.4440,-28.0800,-4.8600,-27.2400,
5.611078,-0.3839,0.4030,0.2745,1.5425,0.6605,1.4701,-28.0800,-4.8600,-27.2400,
5.611965,0.0433,0.9193,0.3324,1.5425,0.6605,1.4701,-28.0800,-4.8600,-27.2400,
5.629568,0.0433,0.9193,0.3324,1.5425,0.6605,1.4701,-28.0800,-4.8600,-27.2400,
5.630575,0.0433,0.9193,0.3324,1.5899,0.6908,1.4552,-28.0800,-4.8600,-27.2400,
5.631366,-0.0061,1.4905,0.2184,1.5899,0.6908,1.4552,-28.0800,-4.8600,-27.2400,
5.650467,-0.0061,1.4905,0.2184,1.5899,0.6908,1.4552,-28.0800,-4.8600,-27.2400,
5.650967,-0.0061,1.4905,0.2184,1.5899,0.6908,1.4552,-27.9000,-5.3400,-27.0600,
5.651251,-0.0061,1.4905,0.2184,1.4813,0.6205,1.4520,-27.9000,-5.3400,-27.0600,
5.651505,-0.6377,1.9407,0.7253,1.4813,0.6205,1.4520,-27.9000,-5.3400,-27.0600,
5.670587,-0.6377,1.9407,0.7253,1.4813,0.6205,1.4520,-27.9000,-5.3400,-27.0600,
5.671597,-0.6377,1.9407,0.7253,1.2948,0.4027,1.4514,-27.9000,-5.3400,-27.0600,
5.672425,-1.0989,1.8266,1.5520,1.2948,0.4027,1.4514,-27.9000,-5.3400,-27.0600,
5.691012,-1.0989,1.8266,1.5520,1.2948,0.4027,1.4514,-27.9000,-5.3400,-27.0600,
5.692128,-1.0989,1.8266,1.5520,1.2810,0.6168,1.3614,-27.9000,-5.3400,-27.0600,
5.692936,-0.5210,2.8156,2.0091,1.2810,0.6168,1.3614,-27.9000,-5.3400,-27.0600,
5.712363,-0.5210,2.8156,2.0091,1.2810,0.6168,1.3614,-27.9000,-5.3400,-27.0600,
5.713396,-0.5210,2.8156,2.0091,1.2810,0.6168,1.3614,-27.3000,-6.0600,-27.8400,
5.713908,-0.5210,2.8156,2.0091,1.3353,0.7936,1.4072,-27.3000,-6.0600,-27.8400,
5.714615,-2.0296,1.4268,1.8851,1.3353,0.7936,1.4072,-27.3000,-6.0600,-27.8400,
5.732702,-2.0296,1.4268,1.8851,1.3353,0.7936,1.4072,-27.3000,-6.0600,-27.8400,
5.733895,-2.0296,1.4268,1.8851,1.2788,0.9859,1.8861,-27.3000,-6.0600,-27.8400,
5.734830,-3.7472,-0.4016,1.3331,1.2788,0.9859,1.8861,-27.3000,-6.0600,-27.8400,
5.752496,-3.7472,-0.4016,1.3331,1.2788,0.9859,1.8861,-27.3000,-6.0600,-27.8400,
5.753022,-4.7846,-1.8020,1.9130,1.2788,0.9859,1.8861,-27.3000,-6.0600,-27.8400,
5.753385,-4.7846,-1.8020,1.9130,1.2325,1.1441,2.4597,-27.3000,-6.0600,-27.8400,
5.774628,-4.7846,-1.8020,1.9130,1.2325,1.1441,2.4597,-27.3000,-6.0600,-27.8400,
5.775703,-4.7846,-1.8020,1.9130,1.2325,1.1441,2.4597,-25.4400,-6.2400,-28.6800,
5.776605,-4.7846,-1.8020,1.9130,1.2879,1.2613,2.8128,-25.4400,-6.2400,-28.6800,
5.777347,-4.2207,-1.5166,2.5192,1.2879,1.2613,2.8128,-25.4400,-6.2400,-28.6800,
5.794091,-4.2207,-1.5166,2.5192,1.2879,1.2613,2.8128,-25.4400,-6.2400,-28.6800,
5.795352,-4.2207,-1.5166,2.5192,1.3715,0.7792,2.5929,-25.4400,-6.2400,-28.6800,
5.796487,-2.6418,0.3359,3.0011,1.3715,0.7792,2.5929,-25.4400,-6.2400,-28.6800,
5.814418,-2.6418,0.3359,3.0011,1.3715,0.7792,2.5929,-25.4400,-6.2400,-28.6800,
5.815906,-2.6418,0.3359,3.0011,1.2149,0.2120,2.0964,-25.4400,-6.2400,-28.6800,
5.817002,-2.6382,2.0223,2.6379,1.2149,0.2120,2.0964,-25.4400,-6.2400,-28.6800,
5.836025,-2.6382,2.0223,2.6379,1.2149,0.2120,2.0964,-25.4400,-6.2400,-28.6800,
5.837198,-2.6382,2.0223,2.6379,1.2149,0.2120,2.0964,-24.5400,-6.2400,-30.0000,
5.837803,-2.6382,2.0223,2.6379,0.9241,0.2541,1.7183,-24.5400,-6.2400,-30.0000,
5.838617,-3.9298,2.6968,2.7439,0.9241,0.2541,1.7183,-24.5400,-6.2400,-30.0000,
5.855010,-3.9298,2.6968,2.7439,0.9241,0.2541,1.7183,-24.5400,-6.2400,-30.0000,
5.855565,-3.9298,2.6968,2.7439,0.8826,0.7542,1.6362,-24.5400,-6.2400,-30.0000,
5.856010,-4.1354,2.1116,3.1541,0.8826,0.7542,1.6362,-24.5400,-6.2400,-30.0000,
5.876634,-4.1354,2.1116,3.1541,0.8826,0.7542,1.6362,-24.5400,-6.2400,-30.0000,
5.877608,-4.1354,2.1116,3.1541,0.7175,0.9502,1.5409,-24.5400,-6.2400,-30.0000,
5.878236,-3.6562,1.1534,1.8358,0.7175,0.9502,1.5409,-24.5400,-6.2400,-30.0000,
5.897388,-3.6562,1.1534,1.8358,0.7175,0.9502,1.5409,-24.5400,-6.2400,-30.0000,
5.898486,-3.6562,1.1534,1.8358,0.7175,0.9502,1.5409,-23.1600,-5.7600,-31.0800,
5.899016,-3.6562,1.1534,1.8358,0.5630,0.8954,1.5169,-23.1600,-5.7600,-31.0800,
5.899997,-3.5076,0.6820,2.0880,0.5630,0.8954,1.5169,-23.1600,-5.7600,-31.0800,
5.917736,-3.5076,0.6820,2.0880,0.5630,0.8954,1.5169,-23.1600,-5.7600,-31.0800,
5.919021,-3.5076,0.6820,2.0880,0.6099,0.7095,1.4024,-23.1600,-5.7600,-31.0800,
5.920015,-2.4733,0.4261,1.9768,0.6099,0.7095,1.4024,-23.1600,-5.7600,-31.0800,
5.937940,-2.4733,0.4261,1.9768,0.6099,0.7095,1.4024,-23.1600,-5.7600,-31.0800,
5.939307,-2.4733,0.4261,1.9768,0.6818,0.5310,1.1952,-23.1600,-5.7600,-31.0800,
5.940329,-2.0563,0.2217,1.7451,0.6818,0.5310,1.1952,-23.1600,-5.7600,-31.0800,
5.958431,-2.0563,0.2217,1.7451,0.6818,0.5310,1.1952,-23.1600,-5.7600,-31.0800,
5.959022,-2.0563,0.2217,1.7451,0.6818,0.5310,1.1952,-21.4200,-4.7400,-32.1600,
5.959261,-2.0563,0.2217,1.7451,0.7254,0.4101,1.0402,-21.4200,-4.7400,-32.1600,
5.959584,-1.8982,0.2380,1.8412,0.7254,0.4101,1.0402,-21.4200,-4.7400,-32.1600,
5.979027,-1.8982,0.2380,1.8412,0.7254,0.4101,1.0402,-21.4200,-4.7400,-32.1600,
5.979680,-1.8982,0.2380,1.8412,0.7137,0.2210,0.9273,-21.4200,-4.7400,-32.1600,
5.980259,-1.7874,1.0644,2.0358,0.7137,0.2210,0.9273,-21.4200,-4.7400,-32.1600,
5.999635,-1.7874,1.0644,2.0358,0.7137,0.2210,0.9273,-21.4200,-4.7400,-32.1600,
6.000538,-1.7874,1.0644,2.0358,0.6748,0.0916,0.9145,-21.4200,-4.7400,-32.1600,
6.001131,-1.8804,2.1039,1.9739,0.6748,0.0916,0.9145,-21.4200,-4.7400,-32.1600,
6.020452,-1.8804,2.1039,1.9739,0.6748,0.0916,0.9145,-21.4200,-4.7400,-32.1600,
6.021581,-1.8804,2.1039,1.9739,0.6748,0.0916,0.9145,-20.2800,-4.5000,-33.4800,
6.022344,-1.8804,2.1039,1.9739,0.6083,0.2583,0.9710,-20.2800,-4.5000,-33.4800,
6.023037,-1.9297,2.4834,1.7540,0.6083,0.2583,0.9710,-20.2800,-4.5000,-33.4800,
6.040361,-1.9297,2.4834,1.7540,0.6083,0.2583,0.9710,-20.2800,-4.5000,-33.4800,
6.041580,-1.9297,2.4834,1.7540,0.1566,0.5742,1.0530,-20.2800,-4.5000,-33.4800,
6.042344,-1.9040,1.7860,-0.7373,0.1566,0.5742,1.0530,-20.2800,-4.5000,-33.4800,
6.060943,-1.9040,1.7860,-0.7373,0.1566,0.5742,1.0530,-20.2800,-4.5000,-33.4800,
6.062100,-1.9040,1.7860,-0.7373,-0.2061,0.8203,1.1377,-20.2800,-4.5000,-33.4800,
6.063017,-1.6233,1.2945,1.0239,-0.2061,0.8203,1.1377,-20.2800,-4.5000,-33.4800,
6.082484,-1.6233,1.2945,1.0239,-0.2061,0.8203,1.1377,-20.2800,-4.5000,-33.4800,
6.083440,-1.6233,1.2945,1.0239,-0.2061,0.8203,1.1377,-18.9600,-3.9600,-34.2000,
6.084148,-1.6233,1.2945,1.0239,0.3957,0.7121,1.1622,-18.9600,-3.9600,-34.2000,
6.084701,-0.6793,0.8567,3.9467,0.3957,0.7121,1.1622,-18.9600,-3.9600,-34.2000,
6.102954,-0.6793,0.8567,3.9467,0.3957,0.7121,1.1622,-18.9600,-3.9600,-34.2000,
6.104145,-0.6793,0.8567,3.9467,0.4756,0.2306,0.9598,-18.9600,-3.9600,-34.2000,
6.104823,-0.4169,0.9467,1.7508,0.4756,0.2306,0.9598,-18.9600,-3.9600,-34.2000,
6.126208,-0.4169,0.9467,1.7508,0.4756,0.2306,0.9598,-18.9600,-3.9600,-34.2000,
6.127436,-0.4169,0.9467,1.7508,0.1257,0.3073,0.9486,-18.9600,-3.9600,-34.2000,
6.128395,-1.8851,1.6156,1.4754,0.1257,0.3073,0.9486,-18.9600,-3.9600,-34.2000,
6.146801,-1.8851,1.6156,1.4754,0.1257,0.3073,0.9486,-18.9600,-3.9600,-34.2000,
6.147274,-1.8851,1.6156,1.4754,0.1257,0.3073,0.9486,-17.9400,-3.8400,-35.4600,
6.147557,-1.8851,1.6156,1.4754,0.1241,0.6450,1.0727,-17.9400,-3.8400,-35.4600,
6.147851,-1.8612,1.6876,2.3539,0.1241,0.6450,1.0727,-17.9400,-3.8400,-35.4600,
6.163143,-1.8612,1.6876,2.3539,0.1241,0.6450,1.0727,-17.9400,-3.8400,-35.4600,
6.163692,-1.8612,1.6876,2.3539,0.1923,0.5550,1.0290,-17.9400,-3.8400,-35.4600,
6.164096,-0.5160,1.3379,0.1968,0.1923,0.5550,1.0290,-17.9400,-3.8400,-35.4600,
6.183215,-0.5160,1.3379,0.1968,0.1923,0.5550,1.0290,-17.9400,-3.8400,-35.4600,
6.183754,-0.5160,1.3379,0.1968,0.2024,0.3995,1.3097,-17.9400,-3.8400,-35.4600,
6.184186,-2.9848,1.1244,0.9459,0.2024,0.3995,1.3097,-17.9400,-3.8400,-35.4600,
6.205005,-2.9848,1.1244,0.9459,0.2024,0.3995,1.3097,-17.9400,-3.8400,-35.4600,
6.205858,-2.9848,1.1244,0.9459,0.2024,0.3995,1.3097,-16.6800,-3.7800,-36.7200,
6.206370,-3.0946,-0.9645,-0.0440,0.2024,0.3995,1.3097,-16.6800,-3.7800,-36.7200,
6.207108,-3.0946,-0.9645,-0.0440,0.3127,0.7824,1.8903,-16.6800,-3.7800,-36.7200,
6.224748,-3.0946,-0.9645,-0.0440,0.3127,0.7824,1.8903,-16.6800,-3.7800,-36.7200,
6.225533,-3.0946,-0.9645,-0.0440,-0.2248,1.1318,1.9116,-16.6800,-3.7800,-36.7200,
6.226022,-2.1720,-4.2750,-0.6558,-0.2248,1.1318,1.9116,-16.6800,-3.7800,-36.7200,
6.245637,-2.1720,-4.2750,-0.6558,-0.2248,1.1318,1.9116,-16.6800,-3.7800,-36.7200,
6.246793,-2.1720,-4.2750,-0.6558,-0.8639,1.1862,1.4546,-16.6800,-3.7800,-36.7200,
6.247652,-1.9508,-6.4286,-1.0514,-0.8639,1.1862,1.4546,-16.6800,-3.7800,-36.7200,
6.266787,-1.9508,-6.4286,-1.0514,-0.8639,1.1862,1.4546,-16.6800,-3.7800,-36.7200,
6.267502,-1.9508,-6.4286,-1.0514,-0.8639,1.1862,1.4546,-15.8400,-3.4800,-37.2000,
6.267800,-1.9508,-6.4286,-1.0514,-1.0706,0.9790,0.9444,-15.8400,-3.4800,-37.2000,
6.268122,-2.5444,-6.4039,-1.2131,-1.0706,0.9790,0.9444,-15.8400,-3.4800,-37.2000,
6.286822,-2.5444,-6.4039,-1.2131,-1.0706,0.9790,0.9444,-15.8400,-3.4800,-37.2000,
6.287746,-2.5444,-6.4039,-1.2131,-0.8650,0.6179,1.0573,-15.8400,-3.4800,-37.2000,
6.288495,-4.4497,-5.6062,-0.4696,-0.8650,0.6179,1.0573,-15.8400,-3.4800,-37.2000,
6.306939,-4.4497,-5.6062,-0.4696,-0.8650,0.6179,1.0573,-15.8400,-3.4800,-37.2000,
6.308036,-4.4497,-5.6062,-0.4696,-0.2722,0.0746,1.4328,-15.8400,-3.4800,-37.2000,
6.308688,-4.9327,-3.4454,1.6117,-0.2722,0.0746,1.4328,-15.8400,-3.4800,-37.2000,
6.329146,-4.9327,-3.4454,1.6117,-0.2722,0.0746,1.4328,-15.8400,-3.4800,-37.2000,
6.330324,-4.9327,-3.4454,1.6117,-0.2722,0.0746,1.4328,-14.1600,-1.5000,-37.4400,
6.331106,-4.9327,-3.4454,1.6117,0.2748,-0.5539,1.5153,-14.1600,-1.5000,-37.4400,
6.331908,-3.4713,-1.6707,2.2582,0.2748,-0.5539,1.5153,-14.1600,-1.5000,-37.4400,
6.348415,-3.4713,-1.6707,2.2582,0.2748,-0.5539,1.5153,-14.1600,-1.5000,-37.4400,
6.349673,-3.4713,-1.6707,2.2582,0.1891,-0.5774,1.0301,-14.1600,-1.5000,-37.4400,
6.350505,-0.8913,-0.5071,2.3750,0.1891,-0.5774,1.0301,-14.1600,-1.5000,-37.4400,
6.368207,-0.8913,-0.5071,2.3750,0.1891,-0.5774,1.0301,-14.1600,-1.5000,-37.4400,
6.369353,-0.8913,-0.5071,2.3750,-0.0985,-0.1763,0.6290,-14.1600,-1.5000,-37.4400,
6.370164,-1.0414,1.6827,2.1756,-0.0985,-0.1763,0.6290,-14.1600,-1.5000,-37.4400,
6.389395,-1.0414,1.6827,2.1756,-0.0985,-0.1763,0.6290,-14.1600,-1.5000,-37.4400,
6.390233,-1.0414,1.6827,2.1756,-0.0985,-0.1763,0.6290,-12.3600,0.7200,-37.6200,
6.390725,-1.0414,1.6827,2.1756,-0.2317,0.0810,0.4714,-12.3600,0.7200,-37.6200,
6.391187,-2.0680,2.6353,1.3497,-0.2317,0.0810,0.4714,-12.3600,0.7200,-37.6200,
6.409885,-2.0680,2.6353,1.3497,-0.2317,0.0810,0.4714,-12.3600,0.7200,-37.6200,
6.410766,-2.0680,2.6353,1.3497,-0.2370,0.1337,0.4991,-12.3600,0.7200,-37.6200,
6.411341,-3.3711,2.4875,1.4673,-0.2370,0.1337,0.4991,-12.3600,0.7200,-37.6200,
6.430019,-3.3711,2.4875,1.4673,-0.2370,0.1337,0.4991,-12.3600,0.7200,-37.6200,
6.430977,-3.4128,2.1897,1.9800,-0.2370,0.1337,0.4991,-12.3600,0.7200,-37.6200,
6.431787,-3.4128,2.1897,1.9800,-0.1720,-0.0144,0.4112,-12.3600,0.7200,-37.6200,
6.451792,-3.4128,2.1897,1.9800,-0.1720,-0.0144,0.4112,-12.3600,0.7200,-37.6200,
6.452959,-3.4128,2.1897,1.9800,-0.1720,-0.0144,0.4112,-11.2800,2.7000,-37.4400,
6.453712,-3.4128,2.1897,1.9800,-0.2232,-0.2977,0.1449,-11.2800,2.7000,-37.4400,
6.454432,-2.7278,1.8906,1.7681,-0.2232,-0.2977,0.1449,-11.2800,2.7000,-37.4400,
6.471145,-2.7278,1.8906,1.7681,-0.2232,-0.2977,0.1449,-11.2800,2.7000,-37.4400,
6.472649,-2.7278,1.8906,1.7681,-0.2354,-0.4080,-0.3073,-11.2800,2.7000,-37.4400,
6.473254,-1.2758,2.0113,1.5634,-0.2354,-0.4080,-0.3073,-11.2800,2.7000,-37.4400,
6.490991,-1.2758,2.0113,1.5634,-0.2354,-0.4080,-0.3073,-11.2800,2.7000,-37.4400,
6.491521,-1.2758,2.0113,1.5634,-0.2658,-0.2993,-0.5710,-11.2800,2.7000,-37.4400,
6.491788,-0.9202,2.3527,1.5983,-0.2658,-0.2993,-0.5710,-11.2800,2.7000,-37.4400,
6.513460,-0.9202,2.3527,1.5983,-0.2658,-0.2993,-0.5710,-11.2800,2.7000,-37.4400,
6.514746,-0.9202,2.3527,1.5983,-0.2658,-0.2993,-0.5710,-10.3800,4.7400,-37.5000,
6.515541,-0.9264,1.9503,1.5396,-0.2658,-0.2993,-0.5710,-10.3800,4.7400,-37.5000,
6.516529,-0.9264,1.9503,1.5396,-0.1880,-0.2866,-0.6871,-10.3800,4.7400,-37.5000,
6.533101,-0.9264,1.9503,1.5396,-0.1880,-0.2866,-0.6871,-10.3800,4.7400,-37.5000,
6.534537,-0.9264,1.9503,1.5396,-0.2514,-0.3025,-0.8091,-10.3800,4.7400,-37.5000,
6.535613,-1.1437,0.8037,1.0126,-0.2514,-0.3025,-0.8091,-10.3800,4.7400,-37.5000,
6.554047,-1.1437,0.8037,1.0126,-0.2514,-0.3025,-0.8091,-10.3800,4.7400,-37.5000,
6.554476,-1.1437,0.8037,1.0126,-0.3531,-0.1843,-0.9188,-10.3800,4.7400,-37.5000,
6.554753,-1.4032,0.0237,0.6642,-0.3531,-0.1843,-0.9188,-10.3800,4.7400,-37.5000,
6.574844,-1.4032,0.0237,0.6642,-0.3531,-0.1843,-0.9188,-10.3800,4.7400,-37.5000,
6.576496,-1.4032,0.0237,0.6642,-0.3531,-0.1843,-0.9188,-10.6800,6.3600,-36.6600,
6.577354,-1.4032,0.0237,0.6642,-0.5007,-0.3601,-0.9001,-10.6800,6.3600,-36.6600,
6.578279,-1.6806,0.3739,0.3297,-0.5007,-0.3601,-0.9001,-10.6800,6.3600,-36.6600,
6.593667,-1.6806,0.3739,0.3297,-0.5007,-0.3601,-0.9001,-10.6800,6.3600,-36.6600,
6.594150,-1.6806,0.3739,0.3297,-0.5124,-0.3398,-0.8538,-10.6800,6.3600,-36.6600,
6.594429,-1.3439,0.9701,0.0809,-0.5124,-0.3398,-0.8538,-10.6800,6.3600,-36.6600,
6.614777,-1.3439,0.9701,0.0809,-0.5124,-0.3398,-0.8538,-10.6800,6.3600,-36.6600,
6.615774,-1.3439,0.9701,0.0809,-0.6642,-0.2637,-0.9438,-10.6800,6.3600,-36.6600,
6.616812,-0.7934,1.3298,0.6524,-0.6642,-0.2637,-0.9438,-10.6800,6.3600,-36.6600,
6.636341,-0.7934,1.3298,0.6524,-0.6642,-0.2637,-0.9438,-10.6800,6.3600,-36.6600,
6.637575,-0.7934,1.3298,0.6524,-0.6642,-0.2637,-0.9438,-11.7000,7.1400,-36.1200,
6.638281,-0.7934,1.3298,0.6524,-0.6818,-0.1044,-1.0504,-11.7000,7.1400,-36.1200,
6.639032,-0.5205,1.0962,0.7511,-0.6818,-0.1044,-1.0504,-11.7000,7.1400,-36.1200,
6.656632,-0.5205,1.0962,0.7511,-0.6818,-0.1044,-1.0504,-11.7000,7.1400,-36.1200,
6.657861,-0.5205,1.0962,0.7511,-0.6615,-0.1140,-1.2064,-11.7000,7.1400,-36.1200,
6.658395,-0.4245,0.8870,1.0802,-0.6615,-0.1140,-1.2064,-11.7000,7.1400,-36.1200,
6.676590,-0.4245,0.8870,1.0802,-0.6615,-0.1140,-1.2064,-11.7000,7.1400,-36.1200,
6.677967,-0.4245,0.8870,1.0802,-0.6658,-0.3792,-1.3358,-11.7000,7.1400,-36.1200,
6.678809,-0.0431,0.9520,1.0665,-0.6658,-0.3792,-1.3358,-11.7000,7.1400,-36.1200,
6.697517,-0.0431,0.9520,1.0665,-0.6658,-0.3792,-1.3358,-11.7000,7.1400,-36.1200,
6.698325,-0.0431,0.9520,1.0665,-0.6658,-0.3792,-1.3358,-12.9600,7.9200,-35.2800,
6.698872,-0.0431,0.9520,1.0665,-0.5923,-0.3382,-1.4275,-12.9600,7.9200,-35.2800,
6.699477,0.2520,1.2374,0.5244,-0.5923,-0.3382,-1.4275,-12.9600,7.9200,-35.2800,
6.718094,0.2520,1.2374,0.5244,-0.5923,-0.3382,-1.4275,-12.9600,7.9200,-35.2800,
6.719154,0.2520,1.2374,0.5244,-0.4384,0.0943,-1.4589,-12.9600,7.9200,-35.2800,
6.720040,0.4925,1.8841,1.4940,-0.4384,0.0943,-1.4589,-12.9600,7.9200,-35.2800,
6.737837,0.4925,1.8841,1.4940,-0.4384,0.0943,-1.4589,-12.9600,7.9200,-35.2800,
6.738906,0.4925,1.8841,1.4940,-0.5188,0.4373,-1.2293,-12.9600,7.9200,-35.2800,
6.739681,-0.0960,2.0035,0.2266,-0.5188,0.4373,-1.2293,-12.9600,7.9200,-35.2800,
6.758225,-0.0960,2.0035,0.2266,-0.5188,0.4373,-1.2293,-12.9600,7.9200,-35.2800,
6.758723,-0.0960,2.0035,0.2266,-0.5188,0.4373,-1.2293,-14.5200,8.8800,-34.7400,
6.759007,-0.0960,2.0035,0.2266,-0.5268,0.8581,-1.0504,-14.5200,8.8800,-34.7400,
6.759283,-0.1445,2.0533,0.8252,-0.5268,0.8581,-1.0504,-14.5200,8.8800,-34.7400,
6.779034,-0.1445,2.0533,0.8252,-0.5268,0.8581,-1.0504,-14.5200,8.8800,-34.7400,
6.780434,-0.1445,2.0533,0.8252,-0.3143,0.9854,-1.0109,-14.5200,8.8800,-34.7400,
6.781392,-0.4074,2.7852,1.2545,-0.3143,0.9854,-1.0109,-14.5200,8.8800,-34.7400,
6.799581,-0.4074,2.7852,1.2545,-0.3143,0.9854,-1.0109,-14.5200,8.8800,-34.7400,
6.800751,-0.4074,2.7852,1.2545,-0.2120,0.7638,-1.0898,-14.5200,8.8800,-34.7400,
6.801518,-0.6069,3.3007,1.3116,-0.2120,0.7638,-1.0898,-14.5200,8.8800,-34.7400,
6.821067,-0.6069,3.3007,1.3116,-0.2120,0.7638,-1.0898,-14.5200,8.8800,-34.7400,
6.822494,-0.6069,3.3007,1.3116,-0.2120,0.7638,-1.0898,-15.5400,9.3600,-34.7400,
6.823425,-0.6069,3.3007,1.3116,-0.2503,0.6344,-1.1968,-15.5400,9.3600,-34.7400,
6.824793,-1.2492,3.3010,0.9197,-0.2503,0.6344,-1.1968,-15.5400,9.3600,-34.7400,
6.839787,-1.2492,3.3010,0.9197,-0.2503,0.6344,-1.1968,-15.5400,9.3600,-34.7400,
6.840960,-1.2492,3.3010,0.9197,-0.3425,0.4879,-1.1324,-15.5400,9.3600,-34.7400,
6.841852,-1.8795,3.1336,0.5163,-0.3425,0.4879,-1.1324,-15.5400,9.3600,-34.7400,
6.860767,-1.8795,3.1336,0.5163,-0.3425,0.4879,-1.1324,-15.5400,9.3600,-34.7400,
6.861701,-1.8795,3.1336,0.5163,-0.4224,0.4629,-0.9800,-15.5400,9.3600,-34.7400,
6.862412,-2.5195,2.9799,0.6763,-0.4224,0.4629,-0.9800,-15.5400,9.3600,-34.7400,
6.882310,-2.5195,2.9799,0.6763,-0.4224,0.4629,-0.9800,-15.5400,9.3600,-34.7400,
6.883405,-2.5195,2.9799,0.6763,-0.4224,0.4629,-0.9800,-16.0200,9.4800,-34.5000,
6.884359,-2.5195,2.9799,0.6763,-0.4714,0.4570,-0.8384,-16.0200,9.4800,-34.5000,
6.885168,-2.6057,2.7074,0.7815,-0.4714,0.4570,-0.8384,-16.0200,9.4800,-34.5000,
6.901826,-2.6057,2.7074,0.7815,-0.4714,0.4570,-0.8384,-16.0200,9.4800,-34.5000,
6.902777,-2.3686,2.5609,0.9235,-0.4714,0.4570,-0.8384,-16.0200,9.4800,-34.5000,
6.903456,-2.3686,2.5609,0.9235,-0.4746,0.3297,-0.7872,-16.0200,9.4800,-34.5000,
6.922800,-2.3686,2.5609,0.9235,-0.4746,0.3297,-0.7872,-16.0200,9.4800,-34.5000,
6.923956,-2.3798,2.6045,0.9196,-0.4746,0.3297,-0.7872,-16.0200,9.4800,-34.5000,
6.924762,-2.3798,2.6045,0.9196,-0.5294,0.2653,-0.7910,-16.0200,9.4800,-34.5000,
6.944310,-2.3798,2.6045,0.9196,-0.5294,0.2653,-0.7910,-16.0200,9.4800,-34.5000,
6.945676,-2.3798,2.6045,0.9196,-0.5294,0.2653,-0.7910,-16.0200,9.3600,-34.5000,
6.946378,-2.3798,2.6045,0.9196,-0.5870,0.1278,-0.7361,-16.0200,9.3600,-34.5000,
6.947281,-2.2304,2.4409,1.2455,-0.5870,0.1278,-0.7361,-16.0200,9.3600,-34.5000,
6.965544,-2.2304,2.4409,1.2455,-0.5870,0.1278,-0.7361,-16.0200,9.3600,-34.5000,
6.966332,-2.2304,2.4409,1.2455,-0.5044,-0.0762,-0.6397,-16.0200,9.3600,-34.5000,
6.966611,-1.7122,2.4236,1.6330,-0.5044,-0.0762,-0.6397,-16.0200,9.3600,-34.5000,
6.984183,-1.7122,2.4236,1.6330,-0.5044,-0.0762,-0.6397,-16.0200,9.3600,-34.5000,
6.985237,-0.6268,2.7409,1.2124,-0.5044,-0.0762,-0.6397,-16.0200,9.3600,-34.5000,
6.986056,-0.6268,2.7409,1.2124,-0.4922,-0.1763,-0.6812,-16.0200,9.3600,-34.5000,
7.004961,-0.6268,2.7409,1.2124,-0.4922,-0.1763,-0.6812,-16.0200,9.3600,-34.5000,
7.006035,-0.4096,3.0259,0.9460,-0.4922,-0.1763,-0.6812,-16.0200,9.3600,-34.5000,
7.006790,-0.4096,3.0259,0.9460,-0.4922,-0.1763,-0.6812,-15.3600,9.2400,-34.3800,
7.007322,-0.4096,3.0259,0.9460,-0.4948,-0.1028,-0.7579,-15.3600,9.2400,-34.3800,
7.024983,-0.4096,3.0259,0.9460,-0.4948,-0.1028,-0.7579,-15.3600,9.2400,-34.3800,
7.026313,-0.4096,3.0259,0.9460,-0.5928,0.2253,-0.6195,-15.3600,9.2400,-34.3800,
7.027170,-1.1564,2.9474,0.1932,-0.5928,0.2253,-0.6195,-15.3600,9.2400,-34.3800,
7.045807,-1.1564,2.9474,0.1932,-0.5928,0.2253,-0.6195,-15.3600,9.2400,-34.3800,
7.046930,-1.1564,2.9474,0.1932,-0.6562,0.4378,-0.3739,-15.3600,9.2400,-34.3800,
7.047719,-1.7015,2.4171,0.0980,-0.6562,0.4378,-0.3739,-15.3600,9.2400,-34.3800,
7.067081,-1.7015,2.4171,0.0980,-0.6562,0.4378,-0.3739,-15.3600,9.2400,-34.3800,
7.067574,-1.7015,2.4171,0.0980,-0.6562,0.4378,-0.3739,-15.0600,9.2400,-34.2600,
7.067879,-1.7015,2.4171,0.0980,-0.4549,0.3814,-0.1795,-15.0600,9.2400,-34.2600,
7.068125,-2.1711,1.7638,1.3087,-0.4549,0.3814,-0.1795,-15.0600,9.2400,-34.2600,
7.086897,-2.1711,1.7638,1.3087,-0.4549,0.3814,-0.1795,-15.0600,9.2400,-34.2600,
7.088380,-2.1711,1.7638,1.3087,-0.2929,0.1886,-0.0778,-15.0600,9.2400,-34.2600,
7.089006,-2.3628,1.6367,0.8327,-0.2929,0.1886,-0.0778,-15.0600,9.2400,-34.2600,
7.107170,-2.3628,1.6367,0.8327,-0.2929,0.1886,-0.0778,-15.0600,9.2400,-34.2600,
7.108214,-2.3628,1.6367,0.8327,-0.3846,0.0059,-0.0799,-15.0600,9.2400,-34.2600,
7.108673,-2.3896,1.3112,0.6363,-0.3846,0.0059,-0.0799,-15.0600,9.2400,-34.2600,
7.128716,-2.3896,1.3112,0.6363,-0.3846,0.0059,-0.0799,-15.0600,9.2400,-34.2600,
7.129944,-2.3896,1.3112,0.6363,-0.3846,0.0059,-0.0799,-15.2400,9.6600,-33.7200,
7.130790,-2.3896,1.3112,0.6363,-0.4543,-0.0138,-0.1316,-15.2400,9.6600,-33.7200,
7.131594,-2.4064,0.6658,1.1357,-0.4543,-0.0138,-0.1316,-15.2400,9.6600,-33.7200,
7.148610,-2.4064,0.6658,1.1357,-0.4543,-0.0138,-0.1316,-15.2400,9.6600,-33.7200,
7.149997,-2.4064,0.6658,1.1357,-0.4048,-0.1598,-0.1790,-15.2400,9.6600,-33.7200,
7.150678,-2.0790,-0.0002,1.3723,-0.4048,-0.1598,-0.1790,-15.2400,9.6600,-33.7200,
7.168572,-2.0790,-0.0002,1.3723,-0.4048,-0.1598,-0.1790,-15.2400,9.6600,-33.7200,
7.169457,-2.0790,-0.0002,1.3723,-0.2908,-0.3941,-0.1603,-15.2400,9.6600,-33.7200,
7.170074,-1.3500,-0.0401,1.2062,-0.2908,-0.3941,-0.1603,-15.2400,9.6600,-33.7200,
7.190009,-1.3500,-0.0401,1.2062,-0.2908,-0.3941,-0.1603,-15.2400,9.6600,-33.7200,
7.190890,-1.3500,-0.0401,1.2062,-0.2908,-0.3941,-0.1603,-15.1800,10.6800,-33.8400,
7.191420,-1.3500,-0.0401,1.2062,-0.2493,-0.2716,-0.1156,-15.1800,10.6800,-33.8400,
7.191933,-0.9902,0.2270,0.7939,-0.2493,-0.2716,-0.1156,-15.1800,10.6800,-33.8400,
7.210013,-0.9902,0.2270,0.7939,-0.2493,-0.2716,-0.1156,-15.1800,10.6800,-33.8400,
7.210958,-0.9902,0.2270,0.7939,-0.2642,-0.1023,-0.0591,-15.1800,10.6800,-33.8400,
7.211377,-1.0811,0.3182,0.3745,-0.2642,-0.1023,-0.0591,-15.1800,10.6800,-33.8400,
7.231168,-1.0811,0.3182,0.3745,-0.2642,-0.1023,-0.0591,-15.1800,10.6800,-33.8400,
7.232317,-1.0811,0.3182,0.3745,-0.3361,-0.0597,0.0011,-15.1800,10.6800,-33.8400,
7.232856,-1.2815,0.5518,0.2694,-0.3361,-0.0597,0.0011,-15.1800,10.6800,-33.8400,
7.253119,-1.2815,0.5518,0.2694,-0.3361,-0.0597,0.0011,-15.1800,10.6800,-33.8400,
7.254413,-1.2815,0.5518,0.2694,-0.3361,-0.0597,0.0011,-15.1800,11.5200,-33.4200,
7.255186,-1.2815,0.5518,0.2694,-0.3957,-0.1385,-0.0186,-15.1800,11.5200,-33.4200,
7.255793,-1.3328,0.6763,0.5238,-0.3957,-0.1385,-0.0186,-15.1800,11.5200,-33.4200,
7.270246,-1.3328,0.6763,0.5238,-0.3957,-0.1385,-0.0186,-15.1800,11.5200,-33.4200,
7.270771,-1.3328,0.6763,0.5238,-0.3393,-0.3015,-0.0660,-15.1800,11.5200,-33.4200,
7.271077,-0.0965,0.0279,-0.0166,-0.3393,-0.3015,-0.0660,-15.1800,11.5200,-33.4200,
7.292112,-0.0965,0.0279,-0.0166,-0.3393,-0.3015,-0.0660,-15.1800,11.5200,-33.4200,
7.293054,-0.0965,0.0279,-0.0166,-0.2924,-0.4144,-0.0660,-15.1800,11.5200,-33.4200,
7.293401,-0.0243,-0.1173,-0.1673,-0.2924,-0.4144,-0.0660,-15.1800,11.5200,-33.4200,
7.312776,-0.0243,-0.1173,-0.1673,-0.2924,-0.4144,-0.0660,-15.1800,11.5200,-33.4200,
7.313606,-0.0243,-0.1173,-0.1673,-0.2924,-0.4144,-0.0660,-15.6600,12.3000,-33.0600,
7.314236,-0.0243,-0.1173,-0.1673,-0.3276,-0.3238,-0.0490,-15.6600,12.3000,-33.0600,
7.314676,0.5767,-0.0256,-0.2693,-0.3276,-0.3238,-0.0490,-15.6600,12.3000,-33.0600,
7.332781,0.5767,-0.0256,-0.2693,-0.3276,-0.3238,-0.0490,-15.6600,12.3000,-33.0600,
7.333735,0.5767,-0.0256,-0.2693,-0.3430,-0.1838,-0.1182,-15.6600,12.3000,-33.0600,
7.334222,0.6969,0.0375,-0.2272,-0.3430,-0.1838,-0.1182,-15.6600,12.3000,-33.0600,
7.353962,0.6969,0.0375,-0.2272,-0.3430,-0.1838,-0.1182,-15.6600,12.3000,-33.0600,
7.355182,0.6969,0.0375,-0.2272,-0.3057,-0.1806,-0.1683,-15.6600,12.3000,-33.0600,
7.355997,0.2996,-0.0135,-0.2466,-0.3057,-0.1806,-0.1683,-15.6600,12.3000,-33.0600,
7.374908,0.2996,-0.0135,-0.2466,-0.3057,-0.1806,-0.1683,-15.6600,12.3000,-33.0600,
7.376647,0.2996,-0.0135,-0.2466,-0.3057,-0.1806,-0.1683,-16.0800,13.1400,-33.0600,
7.377415,0.2996,-0.0135,-0.2466,-0.2328,-0.1699,-0.1214,-16.0800,13.1400,-33.0600,
7.377995,0.0100,-0.0370,-0.3671,-0.2328,-0.1699,-0.1214,-16.0800,13.1400,-33.0600,
7.393464,0.0100,-0.0370,-0.3671,-0.1518,0.0368,-0.0543,-16.0800,13.1400,-33.0600,
7.414032,0.0100,-0.0370,-0.3671,-0.1049,0.2088,-0.0197,-16.0800,13.1400,-33.0600,
7.435749,0.0100,-0.0370,-0.3671,-0.1049,0.2088,-0.0197,-16.0800,13.1400,-33.0600,
7.436772,0.0100,-0.0370,-0.3671,-0.1049,0.2088,-0.0197,-16.9800,13.5600,-32.1000,
7.437335,0.0100,-0.0370,-0.3671,-0.0911,0.1374,-0.0383,-16.9800,13.5600,-32.1000,
7.437781,0.2117,0.1991,-0.1149,-0.0911,0.1374,-0.0383,-16.9800,13.5600,-32.1000,
7.455621,0.2117,0.1991,-0.1149,-0.0767,0.0794,-0.0591,-16.9800,13.5600,-32.1000,
7.475444,0.2117,0.1991,-0.1149,-0.1076,0.0969,-0.0639,-16.9800,13.5600,-32.1000,
7.497753,0.2117,0.1991,-0.1149,-0.1076,0.0969,-0.0639,-16.9800,13.5600,-32.1000,
7.499046,0.2117,0.1991,-0.1149,-0.1076,0.0969,-0.0639,-17.4600,13.8600,-31.4400,
7.499877,0.2117,0.1991,-0.1149,-0.1736,0.0160,-0.1145,-17.4600,13.8600,-31.4400,
7.500420,-0.0689,-0.3115,-0.2052,-0.1736,0.0160,-0.1145,-17.4600,13.8600,-31.4400,
7.517334,-0.0689,-0.3115,-0.2052,-0.1534,-0.1513,-0.1577,-17.4600,13.8600,-31.4400,
7.537566,-0.0689,-0.3115,-0.2052,-0.0314,-0.2125,-0.1193,-17.4600,13.8600,-31.4400,
7.559104,-0.0689,-0.3115,-0.2052,-0.0314,-0.2125,-0.1193,-17.4600,13.8600,-31.4400,
7.560432,-0.0689,-0.3115,-0.2052,-0.0314,-0.2125,-0.1193,-17.4000,14.2200,-30.9000,
7.561043,-0.0689,-0.3115,-0.2052,0.0506,-0.1055,-0.0080,-17.4000,14.2200,-30.9000,
7.561502,-1.2604,0.7075,0.2303,0.0506,-0.1055,-0.0080,-17.4000,14.2200,-30.9000,
7.579070,-1.2604,0.7075,0.2303,0.0394,0.0240,0.0746,-17.4000,14.2200,-30.9000,
7.600061,-1.2604,0.7075,0.2303,0.0394,0.1742,0.1087,-17.4000,14.2200,-30.9000,
7.620736,-1.2604,0.7075,0.2303,0.0394,0.1742,0.1087,-17.4000,14.2200,-30.9000,
7.621698,-1.2604,0.7075,0.2303,0.0394,0.1742,0.1087,-17.2800,14.2200,-30.6000,
7.622112,-1.2604,0.7075,0.2303,0.0639,0.2903,0.1364,-17.2800,14.2200,-30.6000,
7.622677,-0.7405,-0.0391,-0.0501,0.0639,0.2903,0.1364,-17.2800,14.2200,-30.6000,
7.641095,-0.7405,-0.0391,-0.0501,0.1342,0.2945,0.1710,-17.2800,14.2200,-30.6000,
7.661780,-0.7405,-0.0391,-0.0501,0.1230,0.3872,0.1337,-17.2800,14.2200,-30.6000,
7.681541,-0.7405,-0.0391,-0.0501,0.1230,0.3872,0.1337,-17.2800,14.2200,-30.6000,
7.682015,-0.7405,-0.0391,-0.0501,0.1230,0.3872,0.1337,-17.1000,14.5200,-30.7800,
7.682283,-0.7405,-0.0391,-0.0501,0.0458,0.3846,0.0820,-17.1000,14.5200,-30.7800,
7.682534,-0.0098,-0.4193,-0.0700,0.0458,0.3846,0.0820,-17.1000,14.5200,-30.7800,
7.702449,-0.0098,-0.4193,-0.0700,0.0799,0.3031,0.0213,-17.1000,14.5200,-30.7800,
7.722541,-0.0098,-0.4193,-0.0700,0.0916,0.1449,-0.0096,-17.1000,14.5200,-30.7800,
7.744071,-0.0098,-0.4193,-0.0700,0.0916,0.1449,-0.0096,-17.1000,14.5200,-30.7800,
7.745214,-0.0098,-0.4193,-0.0700,0.0916,0.1449,-0.0096,-17.1000,14.4000,-31.1400,
7.745826,-0.0098,-0.4193,-0.0700,0.0128,0.1294,-0.0788,-17.1000,14.4000,-31.1400,
7.746296,0.3764,-0.4155,0.1217,0.0128,0.1294,-0.0788,-17.1000,14.4000,-31.1400,
7.763583,0.3764,-0.4155,0.1217,-0.0320,0.0884,-0.1220,-17.1000,14.4000,-31.1400,
7.785496,0.3764,-0.4155,0.1217,-0.0357,0.0293,-0.1023,-17.1000,14.4000,-31.1400,
7.805552,0.3764,-0.4155,0.1217,-0.0357,0.0293,-0.1023,-17.1000,14.4000,-31.1400,
7.806720,0.3764,-0.4155,0.1217,-0.0357,0.0293,-0.1023,-16.9200,14.3400,-30.9000,
7.807386,0.3764,-0.4155,0.1217,0.0000,0.1236,-0.1321,-16.9200,14.3400,-30.9000,
7.807964,-0.4423,-0.1169,0.2850,0.0000,0.1236,-0.1321,-16.9200,14.3400,-30.9000,
7.825325,-0.4423,-0.1169,0.2850,0.0554,0.1214,-0.1039,-16.9200,14.3400,-30.9000,
7.846885,-0.4423,-0.1169,0.2850,0.0117,0.1635,-0.0085,-16.9200,14.3400,-30.9000,
7.868141,-0.4423,-0.1169,0.2850,0.0117,0.1635,-0.0085,-16.9200,14.3400,-30.9000,
7.869651,-0.4423,-0.1169,0.2850,0.0117,0.1635,-0.0085,-16.3800,14.6400,-31.1400,
7.870651,-0.4423,-0.1169,0.2850,-0.0154,0.1896,0.0586,-16.3800,14.6400,-31.1400,
7.871331,-0.6636,0.6588,-0.1337,-0.0154,0.1896,0.0586,-16.3800,14.6400,-31.1400,
7.887472,-0.6636,0.6588,-0.1337,-0.0085,0.1065,0.0256,-16.3800,14.6400,-31.1400,
7.907266,-0.6636,0.6588,-0.1337,-0.0767,-0.1731,-0.0559,-16.3800,14.6400,-31.1400,
7.929223,-0.6636,0.6588,-0.1337,-0.0767,-0.1731,-0.0559,-16.3800,14.6400,-31.1400,
7.930298,0.2621,-0.5288,-0.1787,-0.0767,-0.1731,-0.0559,-16.3800,14.6400,-31.1400,
7.930951,0.2621,-0.5288,-0.1787,-0.0767,-0.1731,-0.0559,-16.3800,14.1600,-31.3200,
7.931459,0.2621,-0.5288,-0.1787,-0.1587,-0.4378,-0.1081,-16.3800,14.1600,-31.3200,
7.948196,0.2621,-0.5288,-0.1787,-0.1007,-0.3164,-0.1609,-16.3800,14.1600,-31.3200,
7.969955,0.2621,-0.5288,-0.1787,-0.0431,-0.1198,-0.2040,-16.3800,14.1600,-31.3200,
7.990636,0.2621,-0.5288,-0.1787,-0.0431,-0.1198,-0.2040,-16.3800,14.1600,-31.3200,
7.991437,0.2621,-0.5288,-0.1787,-0.0431,-0.1198,-0.2040,-16.2000,14.5800,-31.0800,
7.991756,0.2621,-0.5288,-0.1787,-0.0309,-0.1007,-0.2056,-16.2000,14.5800,-31.0800,
7.992105,0.9497,-0.3240,-0.5011,-0.0309,-0.1007,-0.2056,-16.2000,14.5800,-31.0800,
8.010815,0.9497,-0.3240,-0.5011,-0.0991,-0.2013,-0.1672,-16.2000,14.5800,-31.0800,
8.030373,0.9497,-0.3240,-0.5011,-0.1310,-0.2285,-0.1369,-16.2000,14.5800,-31.0800,
8.053498,0.9497,-0.3240,-0.5011,-0.1310,-0.2285,-0.1369,-16.2000,14.5800,-31.0800,
8.054601,0.9497,-0.3240,-0.5011,-0.1310,-0.2285,-0.1369,-16.6800,14.4000,-31.6200,
8.055262,0.9497,-0.3240,-0.5011,-0.1582,-0.0842,-0.0698,-16.6800,14.4000,-31.6200,
8.055949,0.1006,-0.1507,0.1421,-0.1582,-0.0842,-0.0698,-16.6800,14.4000,-31.6200,
8.071563,0.1006,-0.1507,0.1421,-0.0932,0.0858,-0.0629,-16.6800,14.4000,-31.6200,
8.092400,0.1006,-0.1507,0.1421,0.0266,0.1891,-0.0788,-16.6800,14.4000,-31.6200,
8.113275,0.1006,-0.1507,0.1421,0.0266,0.1891,-0.0788,-16.6800,14.4000,-31.6200,
8.114328,0.1006,-0.1507,0.1421,0.0266,0.1891,-0.0788,-17.5200,14.3400,-30.9000,
8.115012,0.1006,-0.1507,0.1421,0.0740,0.2360,-0.0735,-17.5200,14.3400,-30.9000,
8.115642,0.3365,0.1308,0.1791,0.0740,0.2360,-0.0735,-17.5200,14.3400,-30.9000,
8.133545,0.3365,0.1308,0.1791,0.0383,0.1790,-0.0772,-17.5200,14.3400,-30.9000,
8.153521,0.3365,0.1308,0.1791,0.0043,0.1481,-0.0943,-17.5200,14.3400,-30.9000,
8.175454,0.3365,0.1308,0.1791,0.0043,0.1481,-0.0943,-17.5200,14.3400,-30.9000,
8.177033,0.3365,0.1308,0.1791,0.0043,0.1481,-0.0943,-17.2800,14.8200,-31.1400,
8.177528,0.3365,0.1308,0.1791,-0.0053,0.1939,-0.0969,-17.2800,14.8200,-31.1400,
8.177992,-0.1979,-0.1073,-0.0696,-0.0053,0.1939,-0.0969,-17.2800,14.8200,-31.1400,
8.193603,-0.1979,-0.1073,-0.0696,0.0202,0.1790,-0.0602,-17.2800,14.8200,-31.1400,
8.214784,-0.1979,-0.1073,-0.0696,0.0314,0.1800,-0.0197,-17.2800,14.8200,-31.1400,
8.236334,-0.1979,-0.1073,-0.0696,0.0314,0.1800,-0.0197,-17.2800,14.8200,-31.1400,
8.237333,-0.1979,-0.1073,-0.0696,0.0314,0.1800,-0.0197,-17.7000,14.5200,-31.0200,
8.237737,-0.1979,-0.1073,-0.0696,0.0538,0.1262,0.0000,-17.7000,14.5200,-31.0200,
8.238114,-0.3008,0.0771,0.1920,0.0538,0.1262,0.0000,-17.7000,14.5200,-31.0200,
8.256028,-0.3008,0.0771,0.1920,0.0352,0.1113,0.0245,-17.7000,14.5200,-31.0200,
8.277232,-0.3008,0.0771,0.1920,0.0101,0.1454,-0.0123,-17.7000,14.5200,-31.0200,
8.297741,-0.3008,0.0771,0.1920,0.0101,0.1454,-0.0123,-17.7000,14.5200,-31.0200,
8.298299,-0.3008,0.0771,0.1920,0.0101,0.1454,-0.0123,-17.8200,14.6400,-31.1400,
8.298611,-0.3008,0.0771,0.1920,-0.0053,0.0948,-0.0708,-17.8200,14.6400,-31.1400,
8.298836,0.1696,-0.1702,-0.2176,-0.0053,0.0948,-0.0708,-17.8200,14.6400,-31.1400,
8.318350,0.1696,-0.1702,-0.2176,-0.0474,0.0144,-0.1044,-17.8200,14.6400,-31.1400,
8.338162,0.1696,-0.1702,-0.2176,-0.0943,0.0282,-0.1182,-17.8200,14.6400,-31.1400,
8.359633,0.1696,-0.1702,-0.2176,-0.0943,0.0282,-0.1182,-17.8200,14.6400,-31.1400,
8.360901,0.1696,-0.1702,-0.2176,-0.0943,0.0282,-0.1182,-17.2200,14.3400,-31.9800,
8.361445,0.1696,-0.1702,-0.2176,-0.0463,-0.0048,-0.0964,-17.2200,14.3400,-31.9800,
8.361915,-0.4616,0.0147,0.3602,-0.0463,-0.0048,-0.0964,-17.2200,14.3400,-31.9800,
8.378522,-0.4616,0.0147,0.3602,-0.0288,-0.0479,-0.0570,-17.2200,14.3400,-31.9800,
8.399219,-0.4616,0.0147,0.3602,-0.0565,-0.0501,-0.0682,-17.2200,14.3400,-31.9800,
8.421276,-0.4616,0.0147,0.3602,-0.0565,-0.0501,-0.0682,-17.2200,14.3400,-31.9800,
8.422182,-0.0080,-0.0609,-0.0245,-0.0565,-0.0501,-0.0682,-17.2200,14.3400,-31.9800,
8.422743,-0.0080,-0.0609,-0.0245,-0.0565,-0.0501,-0.0682,-17.2200,14.5200,-31.5600,
8.423159,-0.0080,-0.0609,-0.0245,-0.0197,-0.0069,-0.0474,-17.2200,14.5200,-31.5600,
8.440538,-0.0080,-0.0609,-0.0245,0.0293,0.0575,-0.0479,-17.2200,14.5200,-31.5600,
8.461254,-0.0080,-0.0609,-0.0245,0.0069,0.0581,-0.0767,-17.2200,14.5200,-31.5600,
8.482561,-0.0080,-0.0609,-0.0245,0.0069,0.0581,-0.0767,-17.2200,14.5200,-31.5600,
8.483587,-0.0080,-0.0609,-0.0245,0.0069,0.0581,-0.0767,-17.0400,14.4000,-31.5600,
8.484255,-0.0080,-0.0609,-0.0245,-0.0543,0.0330,-0.0996,-17.0400,14.4000,-31.5600,
8.484743,0.3201,-0.1406,-0.0105,-0.0543,0.0330,-0.0996,-17.0400,14.4000,-31.5600,
8.502358,0.3201,-0.1406,-0.0105,-0.0810,0.0501,-0.0911,-17.0400,14.4000,-31.5600,
8.523213,0.3201,-0.1406,-0.0105,-0.0671,0.0591,-0.0948,-17.0400,14.4000,-31.5600,
8.544004,0.3201,-0.1406,-0.0105,-0.0671,0.0591,-0.0948,-17.0400,14.4000,-31.5600,
8.545097,0.3201,-0.1406,-0.0105,-0.0671,0.0591,-0.0948,-16.6800,14.3400,-31.3200,
8.545691,0.3201,-0.1406,-0.0105,-0.0282,0.0554,-0.0820,-16.6800,14.3400,-31.3200,
8.546201,-0.2434,-0.1012,0.0748,-0.0282,0.0554,-0.0820,-16.6800,14.3400,-31.3200,
8.563974,-0.2434,-0.1012,0.0748,0.0256,0.1326,-0.0634,-16.6800,14.3400,-31.3200,
8.585267,-0.2434,-0.1012,0.0748,0.0453,0.1438,-0.0479,-16.6800,14.3400,-31.3200,
8.605217,-0.2434,-0.1012,0.0748,0.0453,0.1438,-0.0479,-16.6800,14.3400,-31.3200,
8.606210,-0.2434,-0.1012,0.0748,0.0453,0.1438,-0.0479,-16.7400,14.4600,-31.0200,
8.607077,-0.2434,-0.1012,0.0748,0.0021,0.1353,-0.0559,-16.7400,14.4600,-31.0200,
8.607723,0.1136,-0.1139,-0.1345,0.0021,0.1353,-0.0559,-16.7400,14.4600,-31.0200,
8.624993,0.1136,-0.1139,-0.1345,-0.0059,0.0479,-0.0794,-16.7400,14.4600,-31.0200,
8.645505,0.1136,-0.1139,-0.1345,-0.0107,-0.0043,-0.0437,-16.7400,14.4600,-31.0200,
8.667384,0.1136,-0.1139,-0.1345,-0.0107,-0.0043,-0.0437,-16.7400,14.4600,-31.0200,
8.668587,0.1136,-0.1139,-0.1345,-0.0107,-0.0043,-0.0437,-16.7400,14.3400,-31.1400,
8.669136,0.1136,-0.1139,-0.1345,-0.0644,0.0543,-0.0357,-16.7400,14.3400,-31.1400,
8.669716,-0.1834,0.0513,-0.2179,-0.0644,0.0543,-0.0357,-16.7400,14.3400,-31.1400,
8.688101,-0.1834,0.0513,-0.2179,-0.0879,0.0352,-0.0501,-16.7400,14.3400,-31.1400,
8.706862,-0.1834,0.0513,-0.2179,-0.0341,-0.0320,-0.0336,-16.7400,14.3400,-31.1400,
8.728847,-0.1834,0.0513,-0.2179,-0.0341,-0.0320,-0.0336,-16.7400,14.3400,-31.1400,
8.730097,-0.1834,0.0513,-0.2179,-0.0341,-0.0320,-0.0336,-16.2600,14.6400,-31.8600,
8.730621,-0.1834,0.0513,-0.2179,0.0032,-0.0676,-0.0202,-16.2600,14.6400,-31.8600,
8.731111,-0.0586,-0.0535,0.0106,0.0032,-0.0676,-0.0202,-16.2600,14.6400,-31.8600,
8.748829,-0.0586,-0.0535,0.0106,0.0075,-0.0479,0.0059,-16.2600,14.6400,-31.8600,
8.769243,-0.0586,-0.0535,0.0106,0.0176,-0.0272,0.0181,-16.2600,14.6400,-31.8600,
8.790191,-0.0586,-0.0535,0.0106,0.0176,-0.0272,0.0181,-16.2600,14.6400,-31.8600,
8.791208,-0.0586,-0.0535,0.0106,0.0176,-0.0272,0.0181,-16.3800,14.8200,-32.2200,
8.791804,-0.0586,-0.0535,0.0106,0.0064,-0.0543,0.0123,-16.3800,14.8200,-32.2200,
8.792494,-0.0995,0.0037,-0.1571,0.0064,-0.0543,0.0123,-16.3800,14.8200,-32.2200,
8.809724,-0.0995,0.0037,-0.1571,-0.0320,-0.0202,0.0218,-16.3800,14.8200,-32.2200,
8.830099,-0.0995,0.0037,-0.1571,-0.0341,-0.0383,0.0123,-16.3800,14.8200,-32.2200,
8.852371,-0.0995,0.0037,-0.1571,-0.0341,-0.0383,0.0123,-16.3800,14.8200,-32.2200,
8.853338,-0.0995,0.0037,-0.1571,-0.0341,-0.0383,0.0123,-16.6800,14.6400,-32.8200,
8.853817,-0.0995,0.0037,-0.1571,-0.0506,-0.1364,0.0149,-16.6800,14.6400,-32.8200,
8.854220,-0.1787,-0.1114,-0.0966,-0.0506,-0.1364,0.0149,-16.6800,14.6400,-32.8200,
8.871608,-0.1787,-0.1114,-0.0966,-0.0543,-0.1502,0.0304,-16.6800,14.6400,-32.8200,
8.892642,-0.1787,-0.1114,-0.0966,-0.0442,-0.0874,0.0128,-16.6800,14.6400,-32.8200,
8.913575,-0.1787,-0.1114,-0.0966,-0.0442,-0.0874,0.0128,-16.6800,14.6400,-32.8200,
8.915081,-0.1787,-0.1114,-0.0966,-0.0442,-0.0874,0.0128,-16.6800,14.2800,-32.9400,
8.916460,-0.1787,-0.1114,-0.0966,-0.0442,-0.0559,-0.0133,-16.6800,14.2800,-32.9400,
8.917269,0.3082,-0.0823,-0.0781,-0.0442,-0.0559,-0.0133,-16.6800,14.2800,-32.9400,
8.933641,0.3082,-0.0823,-0.0781,-0.0565,-0.0629,-0.0341,-16.6800,14.2800,-32.9400,
8.953156,0.3082,-0.0823,-0.0781,-0.0650,-0.0937,-0.0314,-16.6800,14.2800,-32.9400,
8.975035,0.3082,-0.0823,-0.0781,-0.0650,-0.0937,-0.0314,-16.6800,14.2800,-32.9400,
8.976489,0.3082,-0.0823,-0.0781,-0.0650,-0.0937,-0.0314,-17.0400,14.0400,-32.7000,
8.977241,0.3082,-0.0823,-0.0781,-0.0698,-0.0916,-0.0293,-17.0400,14.0400,-32.7000,
8.977715,-0.1595,-0.1019,-0.0733,-0.0698,-0.0916,-0.0293,-17.0400,14.0400,-32.7000,
8.994863,-0.1595,-0.1019,-0.0733,-0.0618,-0.0996,-0.0181,-17.0400,14.0400,-32.7000,
9.015472,-0.1595,-0.1019,-0.0733,-0.0165,-0.1071,-0.0091,-17.0400,14.0400,-32.7000,
9.036190,-0.1595,-0.1019,-0.0733,-0.0165,-0.1071,-0.0091,-17.0400,14.0400,-32.7000,
9.037480,-0.1595,-0.1019,-0.0733,-0.0165,-0.1071,-0.0091,-17.4600,13.8000,-32.1600,
9.038241,-0.1595,-0.1019,-0.0733,0.0101,-0.0889,0.0123,-17.4600,13.8000,-32.1600,
9.038831,-0.2085,0.0099,-0.1193,0.0101,-0.0889,0.0123,-17.4600,13.8000,-32.1600,
9.056312,-0.2085,0.0099,-0.1193,-0.0378,-0.0511,0.0229,-17.4600,13.8000,-32.1600,
9.077000,-0.2085,0.0099,-0.1193,-0.0719,-0.0788,-0.0053,-17.4600,13.8000,-32.1600,
9.098066,-0.2085,0.0099,-0.1193,-0.0719,-0.0788,-0.0053,-17.4600,13.8000,-32.1600,
9.099261,-0.2085,0.0099,-0.1193,-0.0719,-0.0788,-0.0053,-17.1600,13.9200,-31.3800,
9.100208,-0.2085,0.0099,-0.1193,-0.0788,-0.1598,-0.0245,-17.1600,13.9200,-31.3800,
9.100825,-0.0057,-0.1064,0.0203,-0.0788,-0.1598,-0.0245,-17.1600,13.9200,-31.3800,
9.117856,-0.0057,-0.1064,0.0203,-0.0889,-0.2184,-0.0368,-17.1600,13.9200,-31.3800,
9.138503,-0.0057,-0.1064,0.0203,-0.0975,-0.2253,-0.0431,-17.1600,13.9200,-31.3800,
9.158824,-0.0057,-0.1064,0.0203,-0.0975,-0.2253,-0.0431,-17.1600,13.9200,-31.3800,
9.159554,-0.0057,-0.1064,0.0203,-0.0975,-0.2253,-0.0431,-17.4600,14.2200,-31.0800,
9.160019,-0.0057,-0.1064,0.0203,-0.0847,-0.2445,-0.0165,-17.4600,14.2200,-31.0800,
9.160350,-0.4416,0.0265,0.1598,-0.0847,-0.2445,-0.0165,-17.4600,14.2200,-31.0800,
9.179004,-0.4416,0.0265,0.1598,-0.0719,-0.3031,-0.0208,-17.4600,14.2200,-31.0800,
9.199698,-0.4416,0.0265,0.1598,-0.1065,-0.4202,-0.0154,-17.4600,14.2200,-31.0800,
9.220778,-0.4416,0.0265,0.1598,-0.1065,-0.4202,-0.0154,-17.4600,14.2200,-31.0800,
9.221818,-0.6183,0.2467,0.0608,-0.1065,-0.4202,-0.0154,-17.4600,14.2200,-31.0800,
9.222497,-0.6183,0.2467,0.0608,-0.1065,-0.4202,-0.0154,-17.9400,14.3400,-30.6000,
9.222966,-0.6183,0.2467,0.0608,-0.1779,-0.5374,-0.0053,-17.9400,14.3400,-30.6000,
9.240960,-0.6183,0.2467,0.0608,-0.2072,-0.6093,0.0266,-17.9400,14.3400,-30.6000,
9.260727,-0.6183,0.2467,0.0608,-0.1949,-0.6663,0.0703,-17.9400,14.3400,-30.6000,
9.282293,-0.6183,0.2467,0.0608,-0.1949,-0.6663,0.0703,-17.9400,14.3400,-30.6000,
9.283184,-0.6183,0.2467,0.0608,-0.1949,-0.6663,0.0703,-18.1200,14.5800,-30.3000,
9.283744,-0.6183,0.2467,0.0608,-0.1822,-0.7180,0.1220,-18.1200,14.5800,-30.3000,
9.284373,-0.1630,-0.1292,0.0174,-0.1822,-0.7180,0.1220,-18.1200,14.5800,-30.3000,
9.302224,-0.1630,-0.1292,0.0174,-0.2051,-0.8325,0.1848,-18.1200,14.5800,-30.3000,
9.322957,-0.1630,-0.1292,0.0174,-0.2455,-0.9779,0.2152,-18.1200,14.5800,-30.3000,
9.343708,-0.1630,-0.1292,0.0174,-0.2455,-0.9779,0.2152,-18.1200,14.5800,-30.3000,
9.344565,-0.1630,-0.1292,0.0174,-0.2455,-0.9779,0.2152,-18.9600,14.7600,-30.1800,
9.344795,-0.1630,-0.1292,0.0174,-0.2402,-1.1191,0.2162,-18.9600,14.7600,-30.1800,
9.345136,0.2121,-0.1603,-0.0516,-0.2402,-1.1191,0.2162,-18.9600,14.7600,-30.1800,
9.363503,0.2121,-0.1603,-0.0516,-0.2013,-1.1356,0.1614,-18.9600,14.7600,-30.1800,
9.384637,0.2121,-0.1603,-0.0516,-0.1497,-1.0956,0.1182,-18.9600,14.7600,-30.1800,
9.405670,0.2121,-0.1603,-0.0516,-0.1497,-1.0956,0.1182,-18.9600,14.7600,-30.1800,
9.407024,0.2121,-0.1603,-0.0516,-0.1497,-1.0956,0.1182,-19.8600,15.1200,-29.4000,
9.408041,0.2121,-0.1603,-0.0516,-0.1129,-0.9337,0.1145,-19.8600,15.1200,-29.4000,
9.408719,0.2667,-0.0389,-0.2729,-0.1129,-0.9337,0.1145,-19.8600,15.1200,-29.4000,
9.425332,0.2667,-0.0389,-0.2729,-0.1049,-0.6509,0.1124,-19.8600,15.1200,-29.4000,
9.446628,0.2667,-0.0389,-0.2729,-0.1065,-0.3345,0.0895,-19.8600,15.1200,-29.4000,
9.466806,0.2667,-0.0389,-0.2729,-0.1065,-0.3345,0.0895,-19.8600,15.1200,-29.4000,
9.467411,0.2667,-0.0389,-0.2729,-0.1065,-0.3345,0.0895,-21.3000,15.7200,-28.0800,
9.467743,0.2667,-0.0389,-0.2729,-0.1449,-0.0895,0.0293,-21.3000,15.7200,-28.0800,
9.468022,1.4696,-0.3434,-0.4750,-0.1449,-0.0895,0.0293,-21.3000,15.7200,-28.0800,
9.487003,1.4696,-0.3434,-0.4750,-0.2099,0.0453,-0.0533,-21.3000,15.7200,-28.0800,
9.507423,1.4696,-0.3434,-0.4750,-0.2503,0.0368,-0.1326,-21.3000,15.7200,-28.0800,
9.528954,1.4696,-0.3434,-0.4750,-0.2503,0.0368,-0.1326,-21.3000,15.7200,-28.0800,
9.530124,1.4696,-0.3434,-0.4750,-0.2503,0.0368,-0.1326,-22.3800,16.2000,-27.5400,
9.530917,1.4696,-0.3434,-0.4750,-0.2104,-0.0410,-0.1854,-22.3800,16.2000,-27.5400,
9.531777,1.6182,-0.5866,0.2281,-0.2104,-0.0410,-0.1854,-22.3800,16.2000,-27.5400,
9.548046,1.6182,-0.5866,0.2281,-0.0597,-0.0554,-0.1417,-22.3800,16.2000,-27.5400,
9.568457,1.6182,-0.5866,0.2281,-0.0027,0.0170,-0.0660,-22.3800,16.2000,-27.5400,
9.590280,1.6182,-0.5866,0.2281,-0.0027,0.0170,-0.0660,-22.3800,16.2000,-27.5400,
9.590976,1.6182,-0.5866,0.2281,-0.0027,0.0170,-0.0660,-23.4000,16.6800,-26.1000,
9.591400,1.6182,-0.5866,0.2281,-0.0591,0.0357,-0.0804,-23.4000,16.6800,-26.1000,
9.591699,-0.2093,0.0661,0.1242,-0.0591,0.0357,-0.0804,-23.4000,16.6800,-26.1000,
9.610484,-0.2093,0.0661,0.1242,-0.0336,-0.0575,-0.0852,-23.4000,16.6800,-26.1000,
9.630402,-0.2093,0.0661,0.1242,0.0085,-0.1443,-0.0266,-23.4000,16.6800,-26.1000,
9.653004,-0.2093,0.0661,0.1242,0.0085,-0.1443,-0.0266,-23.4000,16.6800,-26.1000,
9.654157,-0.4541,-0.2152,-0.1251,0.0085,-0.1443,-0.0266,-23.4000,16.6800,-26.1000,
9.655010,-0.4541,-0.2152,-0.1251,0.0085,-0.1443,-0.0266,-24.1800,16.8600,-25.4400,
9.655633,-0.4541,-0.2152,-0.1251,-0.0437,-0.0069,0.0591,-24.1800,16.8600,-25.4400,
9.670848,-0.4541,-0.2152,-0.1251,-0.0304,0.1214,0.0975,-24.1800,16.8600,-25.4400,
9.692135,-0.4541,-0.2152,-0.1251,0.0565,0.0250,0.0522,-24.1800,16.8600,-25.4400,
9.713228,-0.4541,-0.2152,-0.1251,0.0565,0.0250,0.0522,-24.1800,16.8600,-25.4400,
9.714119,-0.4541,-0.2152,-0.1251,0.0565,0.0250,0.0522,-24.7200,16.9200,-25.0200,
9.714721,-0.4541,-0.2152,-0.1251,0.0431,-0.0394,-0.0053,-24.7200,16.9200,-25.0200,
9.715168,0.2919,-0.2250,-0.1449,0.0431,-0.0394,-0.0053,-24.7200,16.9200,-25.0200,
9.733284,0.2919,-0.2250,-0.1449,0.0213,-0.0581,-0.0075,-24.7200,16.9200,-25.0200,
9.753898,0.2919,-0.2250,-0.1449,0.0123,-0.0495,-0.0005,-24.7200,16.9200,-25.0200,
9.774950,0.2919,-0.2250,-0.1449,0.0123,-0.0495,-0.0005,-24.7200,16.9200,-25.0200,
9.775606,0.2919,-0.2250,-0.1449,0.0123,-0.0495,-0.0005,-24.9600,17.1600,-24.1200,
9.776102,0.2919,-0.2250,-0.1449,-0.0373,-0.0133,-0.0591,-24.9600,17.1600,-24.1200,
9.776365,0.0704,-0.0083,-0.2293,-0.0373,-0.0133,-0.0591,-24.9600,17.1600,-24.1200,
9.794615,0.0704,-0.0083,-0.2293,-0.0559,-0.0320,-0.0453,-24.9600,17.1600,-24.1200,
9.815373,0.0704,-0.0083,-0.2293,-0.0181,-0.1422,0.0011,-24.9600,17.1600,-24.1200,
9.836200,0.0704,-0.0083,-0.2293,-0.0181,-0.1422,0.0011,-24.9600,17.1600,-24.1200,
9.837252,0.0704,-0.0083,-0.2293,-0.0181,-0.1422,0.0011,-25.3200,16.8000,-24.4800,
9.838001,-0.4467,-0.2272,-0.0046,-0.0181,-0.1422,0.0011,-25.3200,16.8000,-24.4800,
9.838728,-0.4467,-0.2272,-0.0046,0.0059,-0.1971,0.0330,-25.3200,16.8000,-24.4800,
9.856489,-0.4467,-0.2272,-0.0046,-0.0618,-0.2402,0.0735,-25.3200,16.8000,-24.4800,
9.877303,-0.4467,-0.2272,-0.0046,-0.0751,0.0373,0.0517,-25.3200,16.8000,-24.4800,
9.897828,-0.4467,-0.2272,-0.0046,-0.0751,0.0373,0.0517,-25.3200,16.8000,-24.4800,
9.898703,-0.4467,-0.2272,-0.0046,-0.0751,0.0373,0.0517,-25.8000,16.8000,-24.4800,
9.899122,-0.4467,-0.2272,-0.0046,0.0288,0.4554,-0.0559,-25.8000,16.8000,-24.4800,
9.899550,0.8644,-0.0782,0.6382,0.0288,0.4554,-0.0559,-25.8000,16.8000,-24.4800,
9.917588,0.8644,-0.0782,0.6382,0.1300,0.1768,-0.0836,-25.8000,16.8000,-24.4800,
9.938175,0.8644,-0.0782,0.6382,0.0660,-0.0581,-0.0964,-25.8000,16.8000,-24.4800,
9.959697,0.8644,-0.0782,0.6382,0.0660,-0.0581,-0.0964,-25.8000,16.8000,-24.4800,
9.960911,0.8644,-0.0782,0.6382,0.0660,-0.0581,-0.0964,-25.5000,16.4400,-24.4800,
9.961599,0.8644,-0.0782,0.6382,0.0458,0.0250,-0.0937,-25.5000,16.4400,-24.4800,
9.962119,-0.6695,0.0255,0.1078,0.0458,0.0250,-0.0937,-25.5000,16.4400,-24.4800,
9.978730,-0.6695,0.0255,0.1078,-0.0133,0.1385,-0.0533,-25.5000,16.4400,-24.4800,
10.000633,-0.6695,0.0255,0.1078,0.0027,0.0336,-0.0314,-25.5000,16.4400,-24.4800,
10.021484,-0.6695,0.0255,0.1078,0.0027,0.0336,-0.0314,-25.5000,16.4400,-24.4800,
10.022565,-0.6695,0.0255,0.1078,0.0027,0.0336,-0.0314,-25.5600,16.3800,-24.9000,
10.023179,-0.6695,0.0255,0.1078,0.0192,-0.2045,-0.0431,-25.5600,16.3800,-24.9000,
10.023617,-0.1564,-0.0288,-0.0277,0.0192,-0.2045,-0.0431,-25.5600,16.3800,-24.9000,
10.040605,-0.1564,-0.0288,-0.0277,-0.0107,-0.2445,-0.0421,-25.5600,16.3800,-24.9000,
10.061190,-0.1564,-0.0288,-0.0277,-0.0447,-0.3015,-0.0245,-25.5600,16.3800,-24.9000,
10.082471,-0.1564,-0.0288,-0.0277,-0.0447,-0.3015,-0.0245,-25.5600,16.3800,-24.9000,
10.083165,-0.1564,-0.0288,-0.0277,-0.0447,-0.3015,-0.0245,-25.0200,16.5600,-24.3600,
10.083507,-0.1564,-0.0288,-0.0277,-0.0858,-0.2727,0.0048,-25.0200,16.5600,-24.3600,
10.083749,0.1893,-0.1468,-0.0203,-0.0858,-0.2727,0.0048,-25.0200,16.5600,-24.3600,
10.102657,0.1893,-0.1468,-0.0203,-0.0703,-0.1571,0.0144,-25.0200,16.5600,-24.3600,
10.123061,0.1893,-0.1468,-0.0203,-0.0362,-0.1529,0.0202,-25.0200,16.5600,-24.3600,
10.144260,0.1893,-0.1468,-0.0203,-0.0362,-0.1529,0.0202,-25.0200,16.5600,-24.3600,
10.145160,0.1893,-0.1468,-0.0203,-0.0362,-0.1529,0.0202,-24.4200,16.9800,-23.8200,
10.145734,0.1893,-0.1468,-0.0203,0.0053,-0.0810,0.0170,-24.4200,16.9800,-23.8200,
10.146151,0.3952,-0.1045,0.1353,0.0053,-0.0810,0.0170,-24.4200,16.9800,-23.8200,
10.163915,0.3952,-0.1045,0.1353,0.0778,0.0719,-0.0192,-24.4200,16.9800,-23.8200,
10.185024,0.3952,-0.1045,0.1353,0.0767,0.1119,-0.0570,-24.4200,16.9800,-23.8200,
10.206144,0.3952,-0.1045,0.1353,0.0767,0.1119,-0.0570,-24.4200,16.9800,-23.8200,
10.206885,0.3952,-0.1045,0.1353,0.0767,0.1119,-0.0570,-24.5400,16.8600,-24.1200,
10.207218,0.3952,-0.1045,0.1353,0.0282,0.0975,-0.0309,-24.5400,16.8600,-24.1200,
10.207532,-0.2614,0.0185,-0.3128,0.0282,0.0975,-0.0309,-24.5400,16.8600,-24.1200,
10.225384,-0.2614,0.0185,-0.3128,-0.0048,0.1475,0.0123,-24.5400,16.8600,-24.1200,
10.247275,-0.2614,0.0185,-0.3128,-0.0176,0.2061,0.0005,-24.5400,16.8600,-24.1200,
10.266996,-0.2614,0.0185,-0.3128,-0.0176,0.2061,0.0005,-24.5400,16.8600,-24.1200,
10.268060,-0.2614,0.0185,-0.3128,-0.0176,0.2061,0.0005,-24.6600,17.2200,-24.2400,
10.268810,0.1735,-0.1332,0.2138,-0.0176,0.2061,0.0005,-24.6600,17.2200,-24.2400,
10.269528,0.1735,-0.1332,0.2138,0.0048,0.1641,-0.0176,-24.6600,17.2200,-24.2400,
10.286703,0.1735,-0.1332,0.2138,0.0176,0.1385,-0.0389,-24.6600,17.2200,-24.2400,
10.307299,0.1735,-0.1332,0.2138,0.0506,0.2392,-0.0197,-24.6600,17.2200,-24.2400,
10.329143,0.1735,-0.1332,0.2138,0.0506,0.2392,-0.0197,-24.6600,17.2200,-24.2400,
10.329944,0.1735,-0.1332,0.2138,0.0506,0.2392,-0.0197,-25.2600,17.2200,-24.8400,
10.330454,-0.0478,0.9187,-0.0551,0.0506,0.2392,-0.0197,-25.2600,17.2200,-24.8400,
10.330953,-0.0478,0.9187,-0.0551,0.1044,0.3361,0.0197,-25.2600,17.2200,-24.8400,
10.348601,-0.0478,0.9187,-0.0551,0.1028,0.2551,0.0724,-25.2600,17.2200,-24.8400,
10.369216,-0.0478,0.9187,-0.0551,0.0565,0.2120,0.0772,-25.2600,17.2200,-24.8400,
10.390857,-0.0478,0.9187,-0.0551,0.0565,0.2120,0.0772,-25.2600,17.2200,-24.8400,
10.391736,-0.0478,0.9187,-0.0551,0.0565,0.2120,0.0772,-25.2600,16.8600,-25.2600,
10.392078,-0.0478,0.9187,-0.0551,-0.0341,0.1305,-0.0501,-25.2600,16.8600,-25.2600,
10.392322,0.0328,-0.5311,-0.3051,-0.0341,0.1305,-0.0501,-25.2600,16.8600,-25.2600,
10.410243,0.0328,-0.5311,-0.3051,-0.1161,0.1896,0.0107,-25.2600,16.8600,-25.2600,
10.430377,0.0328,-0.5311,-0.3051,0.0394,0.2690,0.0352,-25.2600,16.8600,-25.2600,
10.452100,0.0328,-0.5311,-0.3051,0.0394,0.2690,0.0352,-25.2600,16.8600,-25.2600,
10.453206,0.0328,-0.5311,-0.3051,0.0394,0.2690,0.0352,-24.6600,17.1600,-25.6800,
10.453740,0.0328,-0.5311,-0.3051,0.1545,0.2983,0.0112,-24.6600,17.1600,-25.6800,
10.454191,-0.4159,-0.7021,0.0475,0.1545,0.2983,0.0112,-24.6600,17.1600,-25.6800,
10.471713,-0.4159,-0.7021,0.0475,0.0794,0.1465,-0.0160,-24.6600,17.1600,-25.6800,
10.491744,-0.4159,-0.7021,0.0475,-0.0282,-0.0048,0.0016,-24.6600,17.1600,-25.6800,
10.513346,-0.4159,-0.7021,0.0475,-0.0282,-0.0048,0.0016,-24.6600,17.1600,-25.6800,
10.514215,-0.4159,-0.7021,0.0475,-0.0282,-0.0048,0.0016,-24.0000,16.9200,-25.9200,
10.514740,-0.4159,-0.7021,0.0475,-2.2365,1.0935,-0.4336,-24.0000,16.9200,-25.9200,
10.515269,2.8600,1.2272,-12.8936,-2.2365,1.0935,-0.4336,-24.0000,16.9200,-25.9200,
10.533428,2.8600,1.2272,-12.8936,-1.5052,-2.0576,-0.4783,-24.0000,16.9200,-25.9200,
10.553819,2.8600,1.2272,-12.8936,-0.4453,-2.0474,-0.0399,-24.0000,16.9200,-25.9200,
10.574510,2.8600,1.2272,-12.8936,-0.4453,-2.0474,-0.0399,-24.0000,16.9200,-25.9200,
10.575989,-1.2143,-1.6304,0.2322,-0.4453,-2.0474,-0.0399,-24.0000,16.9200,-25.9200,
10.576731,-1.2143,-1.6304,0.2322,-0.4453,-2.0474,-0.0399,-23.7600,17.1600,-25.9800,
10.577212,-1.2143,-1.6304,0.2322,0.1049,-0.3867,0.0714,-23.7600,17.1600,-25.9800,
10.595375,-1.2143,-1.6304,0.2322,0.1976,0.5465,0.0639,-23.7600,17.1600,-25.9800,
10.615234,-1.2143,-1.6304,0.2322,0.3238,0.1220,0.0575,-23.7600,17.1600,-25.9800,
10.636948,-1.2143,-1.6304,0.2322,0.3238,0.1220,0.0575,-23.7600,17.1600,-25.9800,
10.638014,-1.2143,-1.6304,0.2322,0.3238,0.1220,0.0575,-24.0600,17.3400,-25.2000,
10.638681,-1.2143,-1.6304,0.2322,0.4112,0.0415,-0.0234,-24.0600,17.3400,-25.2000,
10.639215,0.1676,-0.8894,0.1152,0.4112,0.0415,-0.0234,-24.0600,17.3400,-25.2000,
10.656612,0.1676,-0.8894,0.1152,0.0501,0.2679,-0.0719,-24.0600,17.3400,-25.2000,
10.677406,0.1676,-0.8894,0.1152,0.5694,0.4932,0.0836,-24.0600,17.3400,-25.2000,
10.698527,0.1676,-0.8894,0.1152,0.5694,0.4932,0.0836,-24.0600,17.3400,-25.2000,
10.699576,0.1676,-0.8894,0.1152,0.5694,0.4932,0.0836,-24.5400,17.5200,-24.1800,
10.700052,0.1676,-0.8894,0.1152,0.5145,0.4772,0.1593,-24.5400,17.5200,-24.1800,
10.700439,-0.2904,0.4939,0.6861,0.5145,0.4772,0.1593,-24.5400,17.5200,-24.1800,
10.718313,-0.2904,0.4939,0.6861,0.2839,0.1262,0.0602,-24.5400,17.5200,-24.1800,
10.738881,-0.2904,0.4939,0.6861,-0.0064,-0.1087,-0.0154,-24.5400,17.5200,-24.1800,
10.759781,-0.2904,0.4939,0.6861,-0.0064,-0.1087,-0.0154,-24.5400,17.5200,-24.1800,
10.761099,-0.1940,0.1304,-0.7125,-0.0064,-0.1087,-0.0154,-24.5400,17.5200,-24.1800,
10.762118,-0.1940,0.1304,-0.7125,-0.0064,-0.1087,-0.0154,-24.8400,17.4000,-23.7000,
10.762872,-0.1940,0.1304,-0.7125,-0.0778,-0.0309,-0.0224,-24.8400,17.4000,-23.7000,
10.779550,-0.1940,0.1304,-0.7125,-0.1395,0.1135,0.0064,-24.8400,17.4000,-23.7000,
10.799590,-0.1940,0.1304,-0.7125,-0.1385,0.3057,0.0714,-24.8400,17.4000,-23.7000,
10.820734,-0.1940,0.1304,-0.7125,-0.1385,0.3057,0.0714,-24.8400,17.4000,-23.7000,
10.821527,-0.1940,0.1304,-0.7125,-0.1385,0.3057,0.0714,-24.8400,17.1000,-23.1000,
10.821974,-0.1940,0.1304,-0.7125,-0.0831,0.1246,0.0091,-24.8400,17.1000,-23.1000,
10.822333,0.2288,0.3301,0.5907,-0.0831,0.1246,0.0091,-24.8400,17.1000,-23.1000,
10.840616,0.2288,0.3301,0.5907,0.0383,-0.1108,0.1172,-24.8400,17.1000,-23.1000,
10.861386,0.2288,0.3301,0.5907,0.2466,-0.0959,0.2775,-24.8400,17.1000,-23.1000,
10.883280,0.2288,0.3301,0.5907,0.2466,-0.0959,0.2775,-24.8400,17.1000,-23.1000,
10.884383,0.2288,0.3301,0.5907,0.2466,-0.0959,0.2775,-24.8400,16.9800,-23.4000,
10.884836,0.2288,0.3301,0.5907,0.8117,-0.4186,0.5188,-24.8400,16.9800,-23.4000,
10.885512,-2.8516,-1.8476,2.7143,0.8117,-0.4186,0.5188,-24.8400,16.9800,-23.4000,
10.902652,-2.8516,-1.8476,2.7143,0.7563,0.1332,0.6461,-24.8400,16.9800,-23.4000,
10.923317,-2.8516,-1.8476,2.7143,0.5033,0.8362,0.2418,-24.8400,16.9800,-23.4000,
10.945070,-2.8516,-1.8476,2.7143,0.5033,0.8362,0.2418,-24.8400,16.9800,-23.4000,
10.946211,-2.8516,-1.8476,2.7143,0.5033,0.8362,0.2418,-24.7200,16.5600,-23.5800,
10.946753,-2.8516,-1.8476,2.7143,0.6013,0.6919,-0.1960,-24.7200,16.5600,-23.5800,
10.947375,0.4369,-2.9635,0.2602,0.6013,0.6919,-0.1960,-24.7200,16.5600,-23.5800,
10.964058,0.4369,-2.9635,0.2602,0.7984,0.2008,-0.5444,-24.7200,16.5600,-23.5800,
10.985273,0.4369,-2.9635,0.2602,1.0237,-0.2418,-0.5353,-24.7200,16.5600,-23.5800,
11.006832,0.4369,-2.9635,0.2602,1.0237,-0.2418,-0.5353,-24.7200,16.5600,-23.5800,
11.007573,0.4369,-2.9635,0.2602,1.0237,-0.2418,-0.5353,-24.4800,16.6800,-23.8800,
11.007935,0.4369,-2.9635,0.2602,1.3124,-1.2554,-0.3537,-24.4800,16.6800,-23.8800,
11.008309,-0.3226,3.0676,2.7476,1.3124,-1.2554,-0.3537,-24.4800,16.6800,-23.8800,
11.025608,-0.3226,3.0676,2.7476,0.8187,-1.1606,-0.2376,-24.4800,16.6800,-23.8800,
11.046395,-0.3226,3.0676,2.7476,0.4911,-1.1020,-0.4597,-24.4800,16.6800,-23.8800,
11.067423,-0.3226,3.0676,2.7476,0.4911,-1.1020,-0.4597,-24.4800,16.6800,-23.8800,
11.068462,-0.3226,3.0676,2.7476,0.4911,-1.1020,-0.4597,-24.6600,16.1400,-24.4200,
11.069153,-0.3226,3.0676,2.7476,0.6099,-1.2474,-0.8416,-24.6600,16.1400,-24.4200,
11.070011,0.4008,-1.4516,-0.0131,0.6099,-1.2474,-0.8416,-24.6600,16.1400,-24.4200,
11.087515,0.4008,-1.4516,-0.0131,0.3553,-1.0312,-0.7446,-24.6600,16.1400,-24.4200,
11.107469,0.4008,-1.4516,-0.0131,0.2104,-0.8203,-0.3846,-24.6600,16.1400,-24.4200,
11.129112,0.4008,-1.4516,-0.0131,0.2104,-0.8203,-0.3846,-24.6600,16.1400,-24.4200,
11.129656,0.4008,-1.4516,-0.0131,0.2104,-0.8203,-0.3846,-25.2000,14.7000,-25.0800,
11.129962,-0.0001,2.5349,-1.0005,0.2104,-0.8203,-0.3846,-25.2000,14.7000,-25.0800,
11.130330,-0.0001,2.5349,-1.0005,-0.1097,-1.2741,0.0352,-25.2000,14.7000,-25.0800,
11.149246,-0.0001,2.5349,-1.0005,-0.4432,-2.4283,0.6610,-25.2000,14.7000,-25.0800,
11.169353,-0.0001,2.5349,-1.0005,-0.2892,-2.5833,1.1100,-25.2000,14.7000,-25.0800,
11.190696,-0.0001,2.5349,-1.0005,-0.2892,-2.5833,1.1100,-25.2000,14.7000,-25.0800,
11.191719,-0.0001,2.5349,-1.0005,-0.2892,-2.5833,1.1100,-26.3400,13.0800,-25.4400,
11.192516,-0.0001,2.5349,-1.0005,-0.4362,-2.5391,1.5303,-26.3400,13.0800,-25.4400,
11.193246,0.0294,-1.0979,-1.0545,-0.4362,-2.5391,1.5303,-26.3400,13.0800,-25.4400,
11.210488,0.0294,-1.0979,-1.0545,-0.4671,-2.1561,1.6080,-26.3400,13.0800,-25.4400,
11.231269,0.0294,-1.0979,-1.0545,-0.5167,-1.2192,1.1894,-26.3400,13.0800,-25.4400,
11.253196,0.0294,-1.0979,-1.0545,-0.5167,-1.2192,1.1894,-26.3400,13.0800,-25.4400,
11.254239,0.0294,-1.0979,-1.0545,-0.5167,-1.2192,1.1894,-28.8600,12.9000,-22.6200,
11.255033,0.0294,-1.0979,-1.0545,0.0479,0.2637,0.2903,-28.8600,12.9000,-22.6200,
11.255604,0.6672,1.0632,-0.0093,0.0479,0.2637,0.2903,-28.8600,12.9000,-22.6200,
11.272066,0.6672,1.0632,-0.0093,0.0964,0.5092,-0.4682,-28.8600,12.9000,-22.6200,
11.292834,0.6672,1.0632,-0.0093,0.0724,0.3057,-0.9124,-28.8600,12.9000,-22.6200,
11.314203,0.6672,1.0632,-0.0093,0.0724,0.3057,-0.9124,-28.8600,12.9000,-22.6200,
11.315572,0.6672,1.0632,-0.0093,0.0724,0.3057,-0.9124,-30.7800,13.0200,-20.1000,
11.316325,0.6672,1.0632,-0.0093,0.0911,0.4053,-1.0685,-30.7800,13.0200,-20.1000,
11.317120,0.2435,0.2759,-0.0350,0.0911,0.4053,-1.0685,-30.7800,13.0200,-20.1000,
11.333901,0.2435,0.2759,-0.0350,-0.0852,0.1369,-0.8250,-30.7800,13.0200,-20.1000,
11.354072,0.2435,0.2759,-0.0350,-0.1236,-0.4479,-0.5976,-30.7800,13.0200,-20.1000,
11.375454,0.2435,0.2759,-0.0350,-0.1236,-0.4479,-0.5976,-30.7800,13.0200,-20.1000,
11.376409,0.2435,0.2759,-0.0350,-0.1236,-0.4479,-0.5976,-32.1000,13.6800,-17.7600,
11.376948,0.2435,0.2759,-0.0350,0.0996,-0.0740,-0.5518,-32.1000,13.6800,-17.7600,
11.377310,-0.3239,0.0449,0.9289,0.0996,-0.0740,-0.5518,-32.1000,13.6800,-17.7600,
11.395202,-0.3239,0.0449,0.9289,0.1992,0.1257,-0.3585,-32.1000,13.6800,-17.7600,
11.415751,-0.3239,0.0449,0.9289,0.1987,0.1443,-0.1571,-32.1000,13.6800,-17.7600,
11.437205,-0.3239,0.0449,0.9289,0.1987,0.1443,-0.1571,-32.1000,13.6800,-17.7600,
11.438572,-0.3239,0.0449,0.9289,0.1987,0.1443,-0.1571,-33.3600,14.4600,-15.5400,
11.439459,-0.3239,0.0449,0.9289,0.1427,0.1039,0.0304,-33.3600,14.4600,-15.5400,
11.440388,-1.4101,0.2959,-0.0210,0.1427,0.1039,0.0304,-33.3600,14.4600,-15.5400,
11.456150,-1.4101,0.2959,-0.0210,0.1641,0.2461,0.1369,-33.3600,14.4600,-15.5400,
11.478887,-1.4101,0.2959,-0.0210,0.2035,0.3744,0.1182,-33.3600,14.4600,-15.5400,
11.497770,-1.4101,0.2959,-0.0210,0.2035,0.3744,0.1182,-33.3600,14.4600,-15.5400,
11.498729,-1.4101,0.2959,-0.0210,0.2035,0.3744,0.1182,-33.9000,14.4000,-15.2400,
11.499409,-1.4101,0.2959,-0.0210,0.1752,0.4101,0.1039,-33.9000,14.4000,-15.2400,
11.499963,-0.7257,-1.1585,0.0158,0.1752,0.4101,0.1039,-33.9000,14.4000,-15.2400,
11.518486,-0.7257,-1.1585,0.0158,0.1236,0.3297,0.0714,-33.9000,14.4000,-15.2400,
11.539031,-0.7257,-1.1585,0.0158,0.0160,0.1603,0.0490,-33.9000,14.4000,-15.2400,
11.560894,-0.7257,-1.1585,0.0158,0.0160,0.1603,0.0490,-33.9000,14.4000,-15.2400,
11.562116,-0.7257,-1.1585,0.0158,0.0160,0.1603,0.0490,-34.0200,13.3800,-15.4200,
11.562958,-0.7257,-1.1585,0.0158,-0.0043,0.0298,0.1156,-34.0200,13.3800,-15.4200,
11.563478,0.5344,0.8734,-0.0574,-0.0043,0.0298,0.1156,-34.0200,13.3800,-15.4200,
11.579672,0.5344,0.8734,-0.0574,0.0304,0.0921,0.1827,-34.0200,13.3800,-15.4200,
11.600842,0.5344,0.8734,-0.0574,0.0602,0.0698,0.1103,-34.0200,13.3800,-15.4200,
11.622248,0.5344,0.8734,-0.0574,0.0602,0.0698,0.1103,-34.0200,13.3800,-15.4200,
11.624011,0.5344,0.8734,-0.0574,0.0602,0.0698,0.1103,-33.7800,13.1400,-15.6600,
11.624802,0.5344,0.8734,-0.0574,0.0091,-0.0559,0.1145,-33.7800,13.1400,-15.6600,
11.625501,-0.1057,-0.2793,0.1677,0.0091,-0.0559,0.1145,-33.7800,13.1400,-15.6600,
11.641879,-0.1057,-0.2793,0.1677,0.0431,-0.0618,0.0714,-33.7800,13.1400,-15.6600,
11.661977,-0.1057,-0.2793,0.1677,0.0756,0.0511,0.0783,-33.7800,13.1400,-15.6600,
11.683392,-0.1057,-0.2793,0.1677,0.0756,0.0511,0.0783,-33.7800,13.1400,-15.6600,
11.684990,-0.1057,-0.2793,0.1677,0.0756,0.0511,0.0783,-33.3600,13.2000,-16.2000,
11.685906,-0.1057,-0.2793,0.1677,-0.0085,-0.0479,0.0629,-33.3600,13.2000,-16.2000,
11.686627,-0.1313,-0.1188,-0.0331,-0.0085,-0.0479,0.0629,-33.3600,13.2000,-16.2000,
11.702965,-0.1313,-0.1188,-0.0331,-0.0128,-0.0559,0.0746,-33.3600,13.2000,-16.2000,
11.723629,-0.1313,-0.1188,-0.0331,0.0123,-0.0144,0.1071,-33.3600,13.2000,-16.2000,
11.744103,-0.1313,-0.1188,-0.0331,0.0123,-0.0144,0.1071,-33.3600,13.2000,-16.2000,
11.745790,-0.1313,-0.1188,-0.0331,0.0123,-0.0144,0.1071,-32.5800,13.2000,-16.6800,
11.747063,-0.1313,-0.1188,-0.0331,0.0330,0.0762,0.1300,-32.5800,13.2000,-16.6800,
11.748244,-0.0764,-0.2934,-0.1342,0.0330,0.0762,0.1300,-32.5800,13.2000,-16.6800,
11.763666,-0.0764,-0.2934,-0.1342,-0.0053,0.0751,0.1332,-32.5800,13.2000,-16.6800,
11.785218,-0.0764,-0.2934,-0.1342,-0.0836,-0.0250,0.0959,-32.5800,13.2000,-16.6800,
11.806693,-0.0764,-0.2934,-0.1342,-0.0836,-0.0250,0.0959,-32.5800,13.2000,-16.6800,
11.808268,-0.0764,-0.2934,-0.1342,-0.0836,-0.0250,0.0959,-32.5200,13.3200,-17.0400,
11.809266,-0.0764,-0.2934,-0.1342,-0.0842,-0.0506,0.1289,-32.5200,13.3200,-17.0400,
11.809998,-0.2187,0.0620,0.1009,-0.0842,-0.0506,0.1289,-32.5200,13.3200,-17.0400,
11.826779,-0.2187,0.0620,0.1009,-0.0080,0.0740,0.1507,-32.5200,13.3200,-17.0400,
11.845995,-0.2187,0.0620,0.1009,-0.0032,0.1246,0.1246,-32.5200,13.3200,-17.0400,
11.867616,-0.2187,0.0620,0.1009,-0.0032,0.1246,0.1246,-32.5200,13.3200,-17.0400,
11.868227,-0.2187,0.0620,0.1009,-0.0032,0.1246,0.1246,-33.3000,13.2000,-17.2200,
11.868573,-0.2187,0.0620,0.1009,-0.0570,0.0096,0.0799,-33.3000,13.2000,-17.2200,
11.868795,0.2398,-0.3661,-0.0644,-0.0570,0.0096,0.0799,-33.3000,13.2000,-17.2200,
11.887372,0.2398,-0.3661,-0.0644,-0.0565,0.0123,0.0554,-33.3000,13.2000,-17.2200,
11.908181,0.2398,-0.3661,-0.0644,-0.0277,0.0586,0.0437,-33.3000,13.2000,-17.2200,
11.929551,0.2398,-0.3661,-0.0644,-0.0277,0.0586,0.0437,-33.3000,13.2000,-17.2200,
11.930910,0.2398,-0.3661,-0.0644,-0.0277,0.0586,0.0437,-32.9400,13.3200,-17.2200,
11.931615,0.2398,-0.3661,-0.0644,0.0128,0.1193,0.0421,-32.9400,13.3200,-17.2200,
11.932451,0.2396,-0.0284,0.1774,0.0128,0.1193,0.0421,-32.9400,13.3200,-17.2200,
11.948578,0.2396,-0.0284,0.1774,0.0176,0.0671,0.0138,-32.9400,13.3200,-17.2200,
11.969705,0.2396,-0.0284,0.1774,0.0320,0.0463,0.0011,-32.9400,13.3200,-17.2200,
11.991064,0.2396,-0.0284,0.1774,0.0320,0.0463,0.0011,-32.9400,13.3200,-17.2200,
11.992512,0.2396,-0.0284,0.1774,0.0320,0.0463,0.0011,-33.4200,13.3800,-17.0400,
11.993075,0.2396,-0.0284,0.1774,0.0250,0.0469,0.0027,-33.4200,13.3800,-17.0400,
11.993503,-0.0397,0.1850,0.0055,0.0250,0.0469,0.0027,-33.4200,13.3800,-17.0400,
12.010390,-0.0397,0.1850,0.0055,0.1236,0.2583,-0.0176,-33.4200,13.3800,-17.0400,
12.030541,-0.0397,0.1850,0.0055,0.1358,0.3478,-0.0085,-33.4200,13.3800,-17.0400,
12.052324,-0.0397,0.1850,0.0055,0.1358,0.3478,-0.0085,-33.4200,13.3800,-17.0400,
12.053094,-0.0397,0.1850,0.0055,0.1358,0.3478,-0.0085,-33.0600,14.0400,-17.6400,
12.053343,-0.0397,0.1850,0.0055,0.0373,0.1001,-0.0117,-33.0600,14.0400,-17.6400,
12.053622,-0.0320,-0.2533,0.0588,0.0373,0.1001,-0.0117,-33.0600,14.0400,-17.6400,
12.071425,-0.0320,-0.2533,0.0588,-0.0320,-0.0112,-0.0277,-33.0600,14.0400,-17.6400,
12.092883,-0.0320,-0.2533,0.0588,-0.0985,-0.0650,-0.0202,-33.0600,14.0400,-17.6400,
12.113720,-0.0320,-0.2533,0.0588,-0.0985,-0.0650,-0.0202,-33.0600,14.0400,-17.6400,
12.114415,-0.0320,-0.2533,0.0588,-0.0985,-0.0650,-0.0202,-32.2800,14.0400,-17.9400,
12.114990,-0.1723,0.2911,-0.1276,-0.0985,-0.0650,-0.0202,-32.2800,14.0400,-17.9400,
12.115573,-0.1723,0.2911,-0.1276,-0.0053,0.1145,-0.0128,-32.2800,14.0400,-17.9400,
