
time,ax,ay,az,wx,wy,wz,Bx,By,Bz,
0.008614,0.0000,0.0000,0.0000,0.0245,-0.0117,0.0085,0.0000,0.0000,0.0000,
0.014309,0.0000,0.0000,0.0000,0.0245,-0.0117,0.0085,0.0000,0.0000,0.0000,
0.021339,0.0000,0.0000,0.0000,0.0245,-0.0117,0.0085,0.0000,0.0000,0.0000,
0.035219,0.0000,0.0000,0.0000,0.0245,-0.0117,0.0085,0.0000,0.0000,0.0000,
0.056035,0.0000,0.0000,0.0000,0.0245,-0.0117,0.0085,0.0000,0.0000,0.0000,
0.065037,0.0000,0.0000,0.0000,0.0245,-0.0117,0.0085,1.9800,29.7600,-28.9800,
0.076274,0.0000,0.0000,0.0000,-0.0059,-0.0170,-0.0181,1.9800,29.7600,-28.9800,
0.080586,0.0000,0.0000,0.0000,-0.0059,-0.0170,-0.0181,1.9800,29.7600,-28.9800,
0.081176,-0.0283,-0.0447,-0.0054,-0.0059,-0.0170,-0.0181,1.9800,29.7600,-28.9800,
0.096901,-0.0283,-0.0447,-0.0054,-0.0016,-0.0005,-0.0154,1.9800,29.7600,-28.9800,
0.117449,-0.0283,-0.0447,-0.0054,0.0005,-0.0069,-0.0016,1.9800,29.7600,-28.9800,
0.126353,-0.0283,-0.0447,-0.0054,0.0005,-0.0069,-0.0016,-6.4800,27.7800,-30.6000,
0.138115,-0.0283,-0.0447,-0.0054,-0.0123,-0.0197,0.0091,-6.4800,27.7800,-30.6000,
0.142224,-0.0283,-0.0447,-0.0054,-0.0123,-0.0197,0.0091,-6.4800,27.7800,-30.6000,
0.142769,0.0061,-0.0795,0.0064,-0.0123,-0.0197,0.0091,-6.4800,27.7800,-30.6000,
0.158988,0.0061,-0.0795,0.0064,-0.0053,-0.0314,0.0107,-6.4800,27.7800,-30.6000,
0.178790,0.0061,-0.0795,0.0064,0.0048,-0.0304,0.0075,-6.4800,27.7800,-30.6000,
0.187556,0.0061,-0.0795,0.0064,0.0048,-0.0304,0.0075,-10.8000,26.6400,-31.7400,
0.198950,0.0061,-0.0795,0.0064,0.0069,-0.0272,-0.0011,-10.8000,26.6400,-31.7400,
0.203621,0.0061,-0.0795,0.0064,0.0069,-0.0272,-0.0011,-10.8000,26.6400,-31.7400,
0.204204,0.0358,0.0483,-0.0154,0.0069,-0.0272,-0.0011,-10.8000,26.6400,-31.7400,
0.219869,0.0358,0.0483,-0.0154,0.0021,-0.0192,0.0000,-10.8000,26.6400,-31.7400,
0.240302,0.0358,0.0483,-0.0154,0.0064,-0.0069,0.0096,-10.8000,26.6400,-31.7400,
0.249147,0.0358,0.0483,-0.0154,0.0064,-0.0069,0.0096,-14.7000,25.3800,-32.7000,
0.261122,0.0358,0.0483,-0.0154,0.0170,0.0016,0.0186,-14.7000,25.3800,-32.7000,
0.265002,0.0358,0.0483,-0.0154,0.0170,0.0016,0.0186,-14.7000,25.3800,-32.7000,
0.265539,-0.0083,-0.0393,-0.0314,0.0170,0.0016,0.0186,-14.7000,25.3800,-32.7000,
0.281391,-0.0083,-0.0393,-0.0314,0.0506,0.0208,0.0234,-14.7000,25.3800,-32.7000,
0.301993,-0.0083,-0.0393,-0.0314,0.0794,0.0234,0.0298,-14.7000,25.3800,-32.7000,
0.310719,-0.0083,-0.0393,-0.0314,0.0794,0.0234,0.0298,-14.9400,25.4400,-32.5200,
0.322625,-0.0083,-0.0393,-0.0314,0.0767,0.0692,0.0144,-14.9400,25.4400,-32.5200,
0.326795,-0.0083,-0.0393,-0.0314,0.0767,0.0692,0.0144,-14.9400,25.4400,-32.5200,
0.327336,0.0942,-0.1801,-0.1822,0.0767,0.0692,0.0144,-14.9400,25.4400,-32.5200,
0.343000,0.0942,-0.1801,-0.1822,0.1017,0.2035,0.0027,-14.9400,25.4400,-32.5200,
0.364224,0.0942,-0.1801,-0.1822,0.1609,0.4075,-0.0341,-14.9400,25.4400,-32.5200,
0.372200,0.0942,-0.1801,-0.1822,0.1609,0.4075,-0.0341,-14.5200,25.2000,-33.1200,
0.384239,0.0942,-0.1801,-0.1822,0.1348,0.4714,-0.0937,-14.5200,25.2000,-33.1200,
0.388356,0.0942,-0.1801,-0.1822,0.1348,0.4714,-0.0937,-14.5200,25.2000,-33.1200,
0.388885,-0.2791,0.7680,0.4351,0.1348,0.4714,-0.0937,-14.5200,25.2000,-33.1200,
0.404180,-0.2791,0.7680,0.4351,0.2732,0.2418,-0.0836,-14.5200,25.2000,-33.1200,
0.425137,-0.2791,0.7680,0.4351,0.1917,0.2067,-0.2557,-14.5200,25.2000,-33.1200,
0.434006,-0.2791,0.7680,0.4351,0.1917,0.2067,-0.2557,-14.1600,25.2600,-32.7000,
0.445728,-0.2791,0.7680,0.4351,-0.0250,0.0644,-0.4277,-14.1600,25.2600,-32.7000,
0.450567,-0.2791,0.7680,0.4351,-0.0250,0.0644,-0.4277,-14.1600,25.2600,-32.7000,
0.451087,0.9673,1.1824,-0.2492,-0.0250,0.0644,-0.4277,-14.1600,25.2600,-32.7000,
0.467018,0.9673,1.1824,-0.2492,0.0549,0.1736,-0.5459,-14.1600,25.2600,-32.7000,
0.486793,0.9673,1.1824,-0.2492,0.3174,0.3931,-0.6903,-14.1600,25.2600,-32.7000,
0.495530,0.9673,1.1824,-0.2492,0.3174,0.3931,-0.6903,-13.9800,25.1400,-32.3400,
0.507088,0.9673,1.1824,-0.2492,0.6946,1.0669,-0.6471,-13.9800,25.1400,-32.3400,
0.511655,0.9673,1.1824,-0.2492,0.6946,1.0669,-0.6471,-13.9800,25.1400,-32.3400,
0.512596,-1.3501,0.7132,-0.7231,0.6946,1.0669,-0.6471,-13.9800,25.1400,-32.3400,
0.527980,-1.3501,0.7132,-0.7231,0.8565,1.3486,-0.2056,-13.9800,25.1400,-32.3400,
0.548628,-1.3501,0.7132,-0.7231,0.8565,1.8003,0.3340,-13.9800,25.1400,-32.3400,
0.557604,-1.3501,0.7132,-0.7231,0.8565,1.8003,0.3340,-13.4400,24.6600,-33.1200,
0.569069,-1.3501,0.7132,-0.7231,0.5614,1.5233,0.4107,-13.4400,24.6600,-33.1200,
0.573398,-1.3501,0.7132,-0.7231,0.5614,1.5233,0.4107,-13.4400,24.6600,-33.1200,
0.574253,0.3309,-3.0986,1.7703,0.5614,1.5233,0.4107,-13.4400,24.6600,-33.1200,
0.589580,0.3309,-3.0986,1.7703,0.0261,-0.0394,0.0788,-13.4400,24.6600,-33.1200,
0.609989,0.3309,-3.0986,1.7703,0.3441,0.1364,-0.0075,-13.4400,24.6600,-33.1200,
0.618603,0.3309,-3.0986,1.7703,0.3441,0.1364,-0.0075,-13.1400,23.8200,-33.4200,
0.630971,0.3309,-3.0986,1.7703,0.4021,0.4943,0.0256,-13.1400,23.8200,-33.4200,
0.634821,0.3309,-3.0986,1.7703,0.4021,0.4943,0.0256,-13.1400,23.8200,-33.4200,
0.635800,-0.2119,0.3079,-1.3303,0.4021,0.4943,0.0256,-13.1400,23.8200,-33.4200,
0.651109,-0.2119,0.3079,-1.3303,0.3404,0.8123,-0.0256,-13.1400,23.8200,-33.4200,
0.671591,-0.2119,0.3079,-1.3303,0.4069,0.7286,0.0543,-13.1400,23.8200,-33.4200,
0.681632,-0.2119,0.3079,-1.3303,0.4069,0.7286,0.0543,-12.0600,22.8600,-34.9800,
0.692169,-0.2119,0.3079,-1.3303,0.3324,0.3212,0.0053,-12.0600,22.8600,-34.9800,
0.696727,-0.2119,0.3079,-1.3303,0.3324,0.3212,0.0053,-12.0600,22.8600,-34.9800,
0.697849,0.6775,-0.7084,0.0730,0.3324,0.3212,0.0053,-12.0600,22.8600,-34.9800,
0.712913,0.6775,-0.7084,0.0730,-0.4304,-0.7366,-0.0405,-12.0600,22.8600,-34.9800,
0.733724,0.6775,-0.7084,0.0730,-0.8075,-1.1430,-0.1886,-12.0600,22.8600,-34.9800,
0.742553,0.6775,-0.7084,0.0730,-0.8075,-1.1430,-0.1886,-11.2200,21.8400,-36.6000,
0.753694,0.6775,-0.7084,0.0730,-0.3510,-0.6418,-0.1870,-11.2200,21.8400,-36.6000,
0.758582,0.6775,-0.7084,0.0730,-0.3510,-0.6418,-0.1870,-11.2200,21.8400,-36.6000,
0.759467,-0.6980,0.3894,-0.2754,-0.3510,-0.6418,-0.1870,-11.2200,21.8400,-36.6000,
0.774566,-0.6980,0.3894,-0.2754,-0.1044,-0.2248,-0.0889,-11.2200,21.8400,-36.6000,
0.794835,-0.6980,0.3894,-0.2754,-0.1268,-0.0293,0.0383,-11.2200,21.8400,-36.6000,
0.803716,-0.6980,0.3894,-0.2754,-0.1268,-0.0293,0.0383,-10.6200,21.1200,-37.4400,
0.815735,-0.6980,0.3894,-0.2754,-0.0186,0.0687,0.0186,-10.6200,21.1200,-37.4400,
0.819459,-0.6980,0.3894,-0.2754,-0.0186,0.0687,0.0186,-10.6200,21.1200,-37.4400,
0.820405,0.0243,-0.6289,0.5295,-0.0186,0.0687,0.0186,-10.6200,21.1200,-37.4400,
0.835757,0.0243,-0.6289,0.5295,0.0602,0.0591,-0.0591,-10.6200,21.1200,-37.4400,
0.856760,0.0243,-0.6289,0.5295,-0.0309,0.1736,-0.1401,-10.6200,21.1200,-37.4400,
0.865852,0.0243,-0.6289,0.5295,-0.0309,0.1736,-0.1401,-10.8000,20.8800,-37.5600,
0.876891,0.0243,-0.6289,0.5295,-0.0730,0.0826,-0.3361,-10.8000,20.8800,-37.5600,
0.881200,0.0243,-0.6289,0.5295,-0.0730,0.0826,-0.3361,-10.8000,20.8800,-37.5600,
0.882118,0.0609,-0.0866,0.4564,-0.0730,0.0826,-0.3361,-10.8000,20.8800,-37.5600,
0.897629,0.0609,-0.0866,0.4564,0.0879,0.0895,-0.4128,-10.8000,20.8800,-37.5600,
0.918075,0.0609,-0.0866,0.4564,0.1236,0.1108,-0.4123,-10.8000,20.8800,-37.5600,
0.926777,0.0609,-0.0866,0.4564,0.1236,0.1108,-0.4123,-11.3400,21.0600,-37.5600,
0.938822,0.0609,-0.0866,0.4564,0.1182,0.1401,-0.5444,-11.3400,21.0600,-37.5600,
0.942990,0.0609,-0.0866,0.4564,0.1182,0.1401,-0.5444,-11.3400,21.0600,-37.5600,
0.943878,0.1742,0.3554,-0.1219,0.1182,0.1401,-0.5444,-11.3400,21.0600,-37.5600,
0.959635,0.1742,0.3554,-0.1219,-0.0623,-0.3169,-0.5598,-11.3400,21.0600,-37.5600,
0.979951,0.1742,0.3554,-0.1219,-0.2019,-0.5428,-0.8341,-11.3400,21.0600,-37.5600,
0.989015,0.1742,0.3554,-0.1219,-0.2019,-0.5428,-0.8341,-11.7600,21.3000,-37.3800,
1.000512,0.1742,0.3554,-0.1219,-0.3984,-0.7989,-1.8434,-11.7600,21.3000,-37.3800,
1.004469,0.1742,0.3554,-0.1219,-0.3984,-0.7989,-1.8434,-11.7600,21.3000,-37.3800,
1.005423,0.8140,-0.9757,-0.1102,-0.3984,-0.7989,-1.8434,-11.7600,21.3000,-37.3800,
1.020751,0.8140,-0.9757,-0.1102,-0.4794,-1.2959,-2.1806,-11.7600,21.3000,-37.3800,
1.041075,0.8140,-0.9757,-0.1102,-0.3313,-1.4077,-1.7103,-11.7600,21.3000,-37.3800,
1.051086,0.8140,-0.9757,-0.1102,-0.3313,-1.4077,-1.7103,-12.2400,21.3600,-37.1400,
1.061970,0.8140,-0.9757,-0.1102,-0.0953,-0.8778,-1.2373,-12.2400,21.3600,-37.1400,
1.065909,0.8140,-0.9757,-0.1102,-0.0953,-0.8778,-1.2373,-12.2400,21.3600,-37.1400,
1.066756,0.5267,-0.2733,0.1128,-0.0953,-0.8778,-1.2373,-12.2400,21.3600,-37.1400,
1.082866,0.5267,-0.2733,0.1128,0.1310,-0.0650,-0.6216,-12.2400,21.3600,-37.1400,
1.102774,0.5267,-0.2733,0.1128,0.1140,0.3222,-0.0101,-12.2400,21.3600,-37.1400,
1.111609,0.5267,-0.2733,0.1128,0.1140,0.3222,-0.0101,-13.4400,21.2400,-36.6000,
1.123143,0.5267,-0.2733,0.1128,0.0154,0.2162,-0.0059,-13.4400,21.2400,-36.6000,
1.127464,0.5267,-0.2733,0.1128,0.0154,0.2162,-0.0059,-13.4400,21.2400,-36.6000,
1.128391,0.5366,-0.0675,-0.0651,0.0154,0.2162,-0.0059,-13.4400,21.2400,-36.6000,
1.143722,0.5366,-0.0675,-0.0651,-0.0229,-0.0820,0.0288,-13.4400,21.2400,-36.6000,
1.164464,0.5366,-0.0675,-0.0651,-0.0394,-0.2551,0.0144,-13.4400,21.2400,-36.6000,
1.173130,0.5366,-0.0675,-0.0651,-0.0394,-0.2551,0.0144,-15.4800,20.4600,-35.7600,
1.184684,0.5366,-0.0675,-0.0651,-0.0586,-0.3441,0.0517,-15.4800,20.4600,-35.7600,
1.189203,0.5366,-0.0675,-0.0651,-0.0586,-0.3441,0.0517,-15.4800,20.4600,-35.7600,
1.190043,0.6122,-0.1480,0.0172,-0.0586,-0.3441,0.0517,-15.4800,20.4600,-35.7600,
1.205804,0.6122,-0.1480,0.0172,-0.0165,-0.2684,0.1342,-15.4800,20.4600,-35.7600,
1.225804,0.6122,-0.1480,0.0172,0.0586,-0.0357,0.2754,-15.4800,20.4600,-35.7600,
1.234518,0.6122,-0.1480,0.0172,0.0586,-0.0357,0.2754,-17.2200,19.9800,-35.2800,
1.246437,0.6122,-0.1480,0.0172,0.0953,0.0985,0.4181,-17.2200,19.9800,-35.2800,
1.251188,0.6122,-0.1480,0.0172,0.0953,0.0985,0.4181,-17.2200,19.9800,-35.2800,
1.252063,0.9353,-0.0373,-0.2575,0.0953,0.0985,0.4181,-17.2200,19.9800,-35.2800,
1.268154,0.9353,-0.0373,-0.2575,0.1955,0.4751,0.4884,-17.2200,19.9800,-35.2800,
1.287833,0.9353,-0.0373,-0.2575,0.2397,0.9454,0.5167,-17.2200,19.9800,-35.2800,
1.296172,0.9353,-0.0373,-0.2575,0.2397,0.9454,0.5167,-18.9000,19.6800,-34.8000,
1.308701,0.9353,-0.0373,-0.2575,0.1539,1.1782,0.5768,-18.9000,19.6800,-34.8000,
1.312258,0.9353,-0.0373,-0.2575,0.1539,1.1782,0.5768,-18.9000,19.6800,-34.8000,
1.313124,-0.6185,0.0510,-0.6382,0.1539,1.1782,0.5768,-18.9000,19.6800,-34.8000,
1.328359,-0.6185,0.0510,-0.6382,0.0245,0.9417,0.4639,-18.9000,19.6800,-34.8000,
1.349365,-0.6185,0.0510,-0.6382,0.0213,0.2903,0.1848,-18.9000,19.6800,-34.8000,
1.358084,-0.6185,0.0510,-0.6382,0.0213,0.2903,0.1848,-18.9000,19.4400,-34.8000,
1.369495,-0.6185,0.0510,-0.6382,0.0703,-0.0458,0.0048,-18.9000,19.4400,-34.8000,
1.373618,-0.6185,0.0510,-0.6382,0.0703,-0.0458,0.0048,-18.9000,19.4400,-34.8000,
1.374446,-0.6030,0.0520,0.6108,0.0703,-0.0458,0.0048,-18.9000,19.4400,-34.8000,
1.390187,-0.6030,0.0520,0.6108,0.0314,-0.1454,0.0138,-18.9000,19.4400,-34.8000,
1.410359,-0.6030,0.0520,0.6108,0.0399,0.0048,0.0123,-18.9000,19.4400,-34.8000,
1.419239,-0.6030,0.0520,0.6108,0.0399,0.0048,0.0123,-17.8200,19.9200,-34.8600,
1.432677,-0.6030,0.0520,0.6108,0.0250,0.0591,0.0213,-17.8200,19.9200,-34.8600,
1.435490,-0.6030,0.0520,0.6108,0.0250,0.0591,0.0213,-17.8200,19.9200,-34.8600,
1.436357,0.2422,-0.0298,-0.1860,0.0250,0.0591,0.0213,-17.8200,19.9200,-34.8600,
1.452159,0.2422,-0.0298,-0.1860,0.0138,0.0447,0.0085,-17.8200,19.9200,-34.8600,
1.472036,0.2422,-0.0298,-0.1860,0.0250,0.0469,0.0011,-17.8200,19.9200,-34.8600,
1.480762,0.2422,-0.0298,-0.1860,0.0250,0.0469,0.0011,-16.9200,20.1000,-34.9200,
1.492437,0.2422,-0.0298,-0.1860,0.0107,0.0682,-0.0138,-16.9200,20.1000,-34.9200,
1.496872,0.2422,-0.0298,-0.1860,0.0107,0.0682,-0.0138,-16.9200,20.1000,-34.9200,
1.497819,0.1088,-0.0407,-0.0323,0.0107,0.0682,-0.0138,-16.9200,20.1000,-34.9200,
1.513923,0.1088,-0.0407,-0.0323,0.0048,0.0421,-0.0186,-16.9200,20.1000,-34.9200,
1.533068,0.1088,-0.0407,-0.0323,0.0032,0.0202,-0.0240,-16.9200,20.1000,-34.9200,
1.542252,0.1088,-0.0407,-0.0323,0.0032,0.0202,-0.0240,-15.9000,20.1000,-35.1000,
1.553929,0.1088,-0.0407,-0.0323,0.0112,0.0362,-0.0160,-15.9000,20.1000,-35.1000,
1.558494,0.1088,-0.0407,-0.0323,0.0112,0.0362,-0.0160,-15.9000,20.1000,-35.1000,
1.559006,0.0142,-0.0057,-0.1193,0.0112,0.0362,-0.0160,-15.9000,20.1000,-35.1000,
1.575468,0.0142,-0.0057,-0.1193,0.0043,0.0644,-0.0133,-15.9000,20.1000,-35.1000,
1.595092,0.0142,-0.0057,-0.1193,-0.0037,0.0762,-0.0192,-15.9000,20.1000,-35.1000,
1.604428,0.0142,-0.0057,-0.1193,-0.0037,0.0762,-0.0192,-15.5400,20.3400,-35.7600,
1.615672,0.0142,-0.0057,-0.1193,-0.0112,0.0756,-0.0288,-15.5400,20.3400,-35.7600,
1.620470,0.0142,-0.0057,-0.1193,-0.0112,0.0756,-0.0288,-15.5400,20.3400,-35.7600,
1.621381,0.1431,-0.0458,-0.0446,-0.0112,0.0756,-0.0288,-15.5400,20.3400,-35.7600,
1.637367,0.1431,-0.0458,-0.0446,-0.0112,0.0735,-0.0336,-15.5400,20.3400,-35.7600,
1.657020,0.1431,-0.0458,-0.0446,-0.0192,0.0751,-0.0346,-15.5400,20.3400,-35.7600,
1.666463,0.1431,-0.0458,-0.0446,-0.0192,0.0751,-0.0346,-15.6600,20.1000,-36.2400,
1.677132,0.1431,-0.0458,-0.0446,-0.0192,0.0889,-0.0399,-15.6600,20.1000,-36.2400,
1.681231,0.1431,-0.0458,-0.0446,-0.0192,0.0889,-0.0399,-15.6600,20.1000,-36.2400,
1.682152,0.0103,-0.0036,-0.0461,-0.0192,0.0889,-0.0399,-15.6600,20.1000,-36.2400,
1.697732,0.0103,-0.0036,-0.0461,-0.0234,0.0948,-0.0437,-15.6600,20.1000,-36.2400,
1.718281,0.0103,-0.0036,-0.0461,-0.0229,0.1081,-0.0490,-15.6600,20.1000,-36.2400,
1.727229,0.0103,-0.0036,-0.0461,-0.0229,0.1081,-0.0490,-15.4800,19.8600,-36.5400,
1.739222,0.0103,-0.0036,-0.0461,-0.0272,0.1044,-0.0575,-15.4800,19.8600,-36.5400,
1.743124,0.0103,-0.0036,-0.0461,-0.0272,0.1044,-0.0575,-15.4800,19.8600,-36.5400,
1.744051,0.0161,0.0163,0.0088,-0.0272,0.1044,-0.0575,-15.4800,19.8600,-36.5400,
1.760981,0.0161,0.0163,0.0088,-0.0453,0.0810,-0.0708,-15.4800,19.8600,-36.5400,
1.779702,0.0161,0.0163,0.0088,-0.0597,0.0575,-0.0820,-15.4800,19.8600,-36.5400,
1.788785,0.0161,0.0163,0.0088,-0.0597,0.0575,-0.0820,-15.3000,20.1600,-36.5400,
1.801058,0.0161,0.0163,0.0088,-0.0586,0.0517,-0.0804,-15.3000,20.1600,-36.5400,
1.804734,0.0161,0.0163,0.0088,-0.0586,0.0517,-0.0804,-15.3000,20.1600,-36.5400,
1.805442,-0.2469,-0.0928,0.1960,-0.0586,0.0517,-0.0804,-15.3000,20.1600,-36.5400,
1.821129,-0.2469,-0.0928,0.1960,-0.0352,0.0543,-0.0666,-15.3000,20.1600,-36.5400,
1.842475,-0.2469,-0.0928,0.1960,-0.0101,0.0559,-0.0522,-15.3000,20.1600,-36.5400,
1.850839,-0.2469,-0.0928,0.1960,-0.0101,0.0559,-0.0522,-15.1200,20.2200,-36.3600,
1.862037,-0.2469,-0.0928,0.1960,0.0091,0.0671,-0.0362,-15.1200,20.2200,-36.3600,
1.868341,-0.2469,-0.0928,0.1960,0.0091,0.0671,-0.0362,-15.1200,20.2200,-36.3600,
1.869392,-0.2671,0.0879,0.1451,0.0091,0.0671,-0.0362,-15.1200,20.2200,-36.3600,
1.882904,-0.2671,0.0879,0.1451,0.0096,0.0783,-0.0320,-15.1200,20.2200,-36.3600,
1.903127,-0.2671,0.0879,0.1451,-0.0144,0.0682,-0.0410,-15.1200,20.2200,-36.3600,
1.912368,-0.2671,0.0879,0.1451,-0.0144,0.0682,-0.0410,-14.4000,20.1600,-36.4200,
1.923936,-0.2671,0.0879,0.1451,-0.0389,0.0437,-0.0554,-14.4000,20.1600,-36.4200,
1.927968,-0.2671,0.0879,0.1451,-0.0389,0.0437,-0.0554,-14.4000,20.1600,-36.4200,
1.928838,0.0884,-0.0160,-0.0548,-0.0389,0.0437,-0.0554,-14.4000,20.1600,-36.4200,
1.944254,0.0884,-0.0160,-0.0548,-0.0559,0.0277,-0.0714,-14.4000,20.1600,-36.4200,
1.964917,0.0884,-0.0160,-0.0548,-0.0607,0.0346,-0.0826,-14.4000,20.1600,-36.4200,
1.973774,0.0884,-0.0160,-0.0548,-0.0607,0.0346,-0.0826,-14.4000,20.2800,-36.0600,
1.985508,0.0884,-0.0160,-0.0548,-0.0527,0.0405,-0.0831,-14.4000,20.2800,-36.0600,
1.989640,0.0884,-0.0160,-0.0548,-0.0527,0.0405,-0.0831,-14.4000,20.2800,-36.0600,
1.990518,-0.0843,-0.0523,0.1384,-0.0527,0.0405,-0.0831,-14.4000,20.2800,-36.0600,
2.005944,-0.0843,-0.0523,0.1384,-0.0426,0.0543,-0.0783,-14.4000,20.2800,-36.0600,
2.026317,-0.0843,-0.0523,0.1384,-0.0309,0.0570,-0.0735,-14.4000,20.2800,-36.0600,
2.035005,-0.0843,-0.0523,0.1384,-0.0309,0.0570,-0.0735,-14.3400,19.9800,-36.1800,
2.047036,-0.0843,-0.0523,0.1384,-0.0213,0.0639,-0.0634,-14.3400,19.9800,-36.1800,
2.051690,-0.0843,-0.0523,0.1384,-0.0213,0.0639,-0.0634,-14.3400,19.9800,-36.1800,
2.052776,-0.1035,0.0031,0.1453,-0.0213,0.0639,-0.0634,-14.3400,19.9800,-36.1800,
2.067242,-0.1035,0.0031,0.1453,-0.0154,0.0703,-0.0597,-14.3400,19.9800,-36.1800,
2.087858,-0.1035,0.0031,0.1453,-0.0133,0.0698,-0.0629,-14.3400,19.9800,-36.1800,
2.097362,-0.1035,0.0031,0.1453,-0.0133,0.0698,-0.0629,-14.5200,20.0400,-36.1200,
2.109088,-0.1035,0.0031,0.1453,-0.0144,0.0629,-0.0692,-14.5200,20.0400,-36.1200,
2.113549,-0.1035,0.0031,0.1453,-0.0144,0.0629,-0.0692,-14.5200,20.0400,-36.1200,
2.114268,-0.1157,-0.0649,0.0763,-0.0144,0.0629,-0.0692,-14.5200,20.0400,-36.1200,
2.128912,-0.1157,-0.0649,0.0763,-0.0048,0.0724,-0.0639,-14.5200,20.0400,-36.1200,
2.149631,-0.1157,-0.0649,0.0763,0.0107,0.0943,-0.0581,-14.5200,20.0400,-36.1200,
2.158968,-0.1157,-0.0649,0.0763,0.0107,0.0943,-0.0581,-15.3600,20.2200,-35.9400,
2.170149,-0.1157,-0.0649,0.0763,0.0426,0.1310,-0.0394,-15.3600,20.2200,-35.9400,
2.174191,-0.1157,-0.0649,0.0763,0.0426,0.1310,-0.0394,-15.3600,20.2200,-35.9400,
2.175075,-0.2341,-0.0448,0.3200,0.0426,0.1310,-0.0394,-15.3600,20.2200,-35.9400,
2.190402,-0.2341,-0.0448,0.3200,0.0847,0.1545,-0.0165,-15.3600,20.2200,-35.9400,
2.211239,-0.2341,-0.0448,0.3200,0.1172,0.1609,0.0037,-15.3600,20.2200,-35.9400,
2.219759,-0.2341,-0.0448,0.3200,0.1172,0.1609,0.0037,-15.4800,20.2200,-36.6000,
2.231538,-0.2341,-0.0448,0.3200,0.1443,0.1571,0.0107,-15.4800,20.2200,-36.6000,
2.235974,-0.2341,-0.0448,0.3200,0.1443,0.1571,0.0107,-15.4800,20.2200,-36.6000,
2.236920,-0.0982,-0.0823,0.1965,0.1443,0.1571,0.0107,-15.4800,20.2200,-36.6000,
2.251880,-0.0982,-0.0823,0.1965,0.1587,0.1209,0.0016,-15.4800,20.2200,-36.6000,
2.272530,-0.0982,-0.0823,0.1965,0.1630,0.0900,0.0021,-15.4800,20.2200,-36.6000,
2.281377,-0.0982,-0.0823,0.1965,0.1630,0.0900,0.0021,-15.5400,20.1600,-36.6000,
2.293369,-0.0982,-0.0823,0.1965,0.1694,0.0687,0.0218,-15.5400,20.1600,-36.6000,
2.297430,-0.0982,-0.0823,0.1965,0.1694,0.0687,0.0218,-15.5400,20.1600,-36.6000,
2.298227,-0.2104,0.1067,0.0731,0.1694,0.0687,0.0218,-15.5400,20.1600,-36.6000,
2.313724,-0.2104,0.1067,0.0731,0.2088,0.0676,0.0559,-15.5400,20.1600,-36.6000,
2.334401,-0.2104,0.1067,0.0731,0.2487,0.0538,0.0969,-15.5400,20.1600,-36.6000,
2.343396,-0.2104,0.1067,0.0731,0.2487,0.0538,0.0969,-14.8800,20.2200,-36.7800,
2.354986,-0.2104,0.1067,0.0731,0.2679,0.0304,0.1246,-14.8800,20.2200,-36.7800,
2.359189,-0.2104,0.1067,0.0731,0.2679,0.0304,0.1246,-14.8800,20.2200,-36.7800,
2.360088,0.0661,0.0591,-0.0110,0.2679,0.0304,0.1246,-14.8800,20.2200,-36.7800,
2.375297,0.0661,0.0591,-0.0110,0.2312,0.0565,0.1406,-14.8800,20.2200,-36.7800,
2.395767,0.0661,0.0591,-0.0110,0.2003,0.0932,0.1369,-14.8800,20.2200,-36.7800,
2.404699,0.0661,0.0591,-0.0110,0.2003,0.0932,0.1369,-14.1600,19.9200,-37.2000,
2.416975,0.0661,0.0591,-0.0110,0.1848,0.0676,0.1103,-14.1600,19.9200,-37.2000,
2.420461,0.0661,0.0591,-0.0110,0.1848,0.0676,0.1103,-14.1600,19.9200,-37.2000,
2.421161,0.2752,0.3221,-0.2489,0.1848,0.0676,0.1103,-14.1600,19.9200,-37.2000,
2.437196,0.2752,0.3221,-0.2489,0.1779,0.0751,0.0629,-14.1600,19.9200,-37.2000,
2.457480,0.2752,0.3221,-0.2489,0.1321,0.0751,0.0032,-14.1600,19.9200,-37.2000,
2.467954,0.2752,0.3221,-0.2489,0.1321,0.0751,0.0032,-13.8000,19.8600,-37.4400,
2.477816,0.2752,0.3221,-0.2489,0.1028,-0.0085,-0.0336,-13.8000,19.8600,-37.4400,
2.485223,0.2752,0.3221,-0.2489,0.1028,-0.0085,-0.0336,-13.8000,19.8600,-37.4400,
2.486054,-0.1446,0.2757,0.2742,0.1028,-0.0085,-0.0336,-13.8000,19.8600,-37.4400,
2.498457,-0.1446,0.2757,0.2742,0.1651,-0.0756,-0.0208,-13.8000,19.8600,-37.4400,
2.518937,-0.1446,0.2757,0.2742,0.2125,-0.1220,0.0160,-13.8000,19.8600,-37.4400,
2.527696,-0.1446,0.2757,0.2742,0.2125,-0.1220,0.0160,-13.5600,19.3200,-37.9200,
2.539509,-0.1446,0.2757,0.2742,0.2301,-0.2168,0.0463,-13.5600,19.3200,-37.9200,
2.543817,-0.1446,0.2757,0.2742,0.2301,-0.2168,0.0463,-13.5600,19.3200,-37.9200,
2.544775,-0.5956,1.0812,0.3968,0.2301,-0.2168,0.0463,-13.5600,19.3200,-37.9200,
2.559749,-0.5956,1.0812,0.3968,0.4037,-0.2152,0.1316,-13.5600,19.3200,-37.9200,
2.580995,-0.5956,1.0812,0.3968,0.7164,-0.0549,0.3036,-13.5600,19.3200,-37.9200,
2.589522,-0.5956,1.0812,0.3968,0.7164,-0.0549,0.3036,-13.8000,18.2400,-38.5200,
2.601044,-0.5956,1.0812,0.3968,0.9838,0.0463,0.5161,-13.8000,18.2400,-38.5200,
2.605705,-0.5956,1.0812,0.3968,0.9838,0.0463,0.5161,-13.8000,18.2400,-38.5200,
2.606562,-2.1818,2.5758,1.3708,0.9838,0.0463,0.5161,-13.8000,18.2400,-38.5200,
2.621707,-2.1818,2.5758,1.3708,0.9816,-0.0091,0.6440,-13.8000,18.2400,-38.5200,
2.642114,-2.1818,2.5758,1.3708,1.0115,-0.3132,0.6503,-13.8000,18.2400,-38.5200,
2.651537,-2.1818,2.5758,1.3708,1.0115,-0.3132,0.6503,-13.6800,17.4600,-38.4000,
2.662798,-2.1818,2.5758,1.3708,1.2804,-0.5007,0.6466,-13.6800,17.4600,-38.4000,
2.667357,-2.1818,2.5758,1.3708,1.2804,-0.5007,0.6466,-13.6800,17.4600,-38.4000,
2.668271,-0.6536,0.4861,1.1722,1.2804,-0.5007,0.6466,-13.6800,17.4600,-38.4000,
2.683599,-0.6536,0.4861,1.1722,1.1681,-0.2109,0.5987,-13.6800,17.4600,-38.4000,
2.703796,-0.6536,0.4861,1.1722,0.9231,-0.3558,0.3116,-13.6800,17.4600,-38.4000,
2.712880,-0.6536,0.4861,1.1722,0.9231,-0.3558,0.3116,-13.8600,15.9600,-38.6400,
2.724590,-0.6536,0.4861,1.1722,0.6775,-0.4181,0.0490,-13.8600,15.9600,-38.6400,
2.728666,-0.6536,0.4861,1.1722,0.6775,-0.4181,0.0490,-13.8600,15.9600,-38.6400,
2.729775,2.6681,3.0740,-2.0031,0.6775,-0.4181,0.0490,-13.8600,15.9600,-38.6400,
2.744757,2.6681,3.0740,-2.0031,0.4772,-0.3009,-0.0911,-13.8600,15.9600,-38.6400,
2.765137,2.6681,3.0740,-2.0031,0.3329,-0.2919,-0.2642,-13.8600,15.9600,-38.6400,
2.774186,2.6681,3.0740,-2.0031,0.3329,-0.2919,-0.2642,-13.9800,14.2800,-39.0000,
2.786014,2.6681,3.0740,-2.0031,0.3419,-0.0708,-0.1891,-13.9800,14.2800,-39.0000,
2.790271,2.6681,3.0740,-2.0031,0.3419,-0.0708,-0.1891,-13.9800,14.2800,-39.0000,
2.791120,-1.8990,0.7659,-0.3703,0.3419,-0.0708,-0.1891,-13.9800,14.2800,-39.0000,
2.806711,-1.8990,0.7659,-0.3703,0.3776,-0.2338,-0.0336,-13.9800,14.2800,-39.0000,
2.826995,-1.8990,0.7659,-0.3703,0.5619,-0.2226,0.0969,-13.9800,14.2800,-39.0000,
2.835669,-1.8990,0.7659,-0.3703,0.5619,-0.2226,0.0969,-14.1000,12.7800,-39.1200,
2.847529,-1.8990,0.7659,-0.3703,0.6274,-0.3121,0.1390,-14.1000,12.7800,-39.1200,
2.851690,-1.8990,0.7659,-0.3703,0.6274,-0.3121,0.1390,-14.1000,12.7800,-39.1200,
2.852642,-0.1411,0.8780,0.4704,0.6274,-0.3121,0.1390,-14.1000,12.7800,-39.1200,
2.867620,-0.1411,0.8780,0.4704,0.5087,-0.1859,0.0389,-14.1000,12.7800,-39.1200,
2.888745,-0.1411,0.8780,0.4704,0.3787,0.0767,-0.1204,-14.1000,12.7800,-39.1200,
2.897719,-0.1411,0.8780,0.4704,0.3787,0.0767,-0.1204,-14.1600,11.0400,-39.9000,
2.908973,-0.1411,0.8780,0.4704,0.3111,0.0463,-0.2764,-14.1600,11.0400,-39.9000,
2.913550,-0.1411,0.8780,0.4704,0.3111,0.0463,-0.2764,-14.1600,11.0400,-39.9000,
2.914396,1.4034,1.7826,-0.4714,0.3111,0.0463,-0.2764,-14.1600,11.0400,-39.9000,
2.929924,1.4034,1.7826,-0.4714,0.2029,-0.0368,-0.3878,-14.1600,11.0400,-39.9000,
2.950153,1.4034,1.7826,-0.4714,0.2434,0.1811,-0.4186,-14.1600,11.0400,-39.9000,
2.959339,1.4034,1.7826,-0.4714,0.2434,0.1811,-0.4186,-14.6400,9.2400,-40.3800,
2.970664,1.4034,1.7826,-0.4714,0.3356,0.4218,-0.3558,-14.6400,9.2400,-40.3800,
2.976512,1.4034,1.7826,-0.4714,0.3356,0.4218,-0.3558,-14.6400,9.2400,-40.3800,
2.977497,0.8456,2.7909,-0.5464,0.3356,0.4218,-0.3558,-14.6400,9.2400,-40.3800,
2.992060,0.8456,2.7909,-0.5464,0.3563,0.4091,-0.2157,-14.6400,9.2400,-40.3800,
3.011791,0.8456,2.7909,-0.5464,0.2706,0.4868,-0.1742,-14.6400,9.2400,-40.3800,
3.020442,0.8456,2.7909,-0.5464,0.2706,0.4868,-0.1742,-14.4000,7.8600,-40.4400,
3.032101,0.8456,2.7909,-0.5464,0.2535,0.6317,-0.1752,-14.4000,7.8600,-40.4400,
3.037240,0.8456,2.7909,-0.5464,0.2535,0.6317,-0.1752,-14.4000,7.8600,-40.4400,
3.038189,2.5217,2.8251,-2.2380,0.2535,0.6317,-0.1752,-14.4000,7.8600,-40.4400,
3.052760,2.5217,2.8251,-2.2380,0.3441,0.7398,-0.2610,-14.4000,7.8600,-40.4400,
3.072904,2.5217,2.8251,-2.2380,0.2786,0.6908,-0.2067,-14.4000,7.8600,-40.4400,
3.082106,2.5217,2.8251,-2.2380,0.2786,0.6908,-0.2067,-13.9200,6.4800,-40.8600,
3.093536,2.5217,2.8251,-2.2380,0.0842,0.2764,0.0144,-13.9200,6.4800,-40.8600,
3.098330,2.5217,2.8251,-2.2380,0.0842,0.2764,0.0144,-13.9200,6.4800,-40.8600,
3.099184,0.1879,5.3941,-1.9894,0.0842,0.2764,0.0144,-13.9200,6.4800,-40.8600,
3.114508,0.1879,5.3941,-1.9894,0.0959,-0.2040,0.3862,-13.9200,6.4800,-40.8600,
3.134733,0.1879,5.3941,-1.9894,0.2370,-0.1289,0.6972,-13.9200,6.4800,-40.8600,
3.143536,0.1879,5.3941,-1.9894,0.2370,-0.1289,0.6972,-13.2000,5.1600,-41.3400,
3.155502,0.1879,5.3941,-1.9894,0.7244,0.3100,0.5470,-13.2000,5.1600,-41.3400,
3.159698,0.1879,5.3941,-1.9894,0.7244,0.3100,0.5470,-13.2000,5.1600,-41.3400,
3.160556,0.2915,-11.5637,2.2234,0.7244,0.3100,0.5470,-13.2000,5.1600,-41.3400,
3.175508,0.2915,-11.5637,2.2234,-0.6115,-3.9889,-0.4932,-13.2000,5.1600,-41.3400,
3.196612,0.2915,-11.5637,2.2234,-2.2935,-4.6653,-2.5007,-13.2000,5.1600,-41.3400,
3.205193,0.2915,-11.5637,2.2234,-2.2935,-4.6653,-2.5007,-11.6400,4.0800,-41.8200,
3.217579,0.2915,-11.5637,2.2234,-0.3111,-1.0360,-2.4735,-11.6400,4.0800,-41.8200,
3.221824,0.2915,-11.5637,2.2234,-0.3111,-1.0360,-2.4735,-11.6400,4.0800,-41.8200,
3.222919,-1.9181,-37.8006,-0.2801,-0.3111,-1.0360,-2.4735,-11.6400,4.0800,-41.8200,
3.237581,-1.9181,-37.8006,-0.2801,0.7084,0.1603,-0.3462,-11.6400,4.0800,-41.8200,
3.259513,-1.9181,-37.8006,-0.2801,-0.5678,2.1114,-0.1566,-11.6400,4.0800,-41.8200,
3.267139,-1.9181,-37.8006,-0.2801,-0.5678,2.1114,-0.1566,-12.7800,3.5400,-41.8200,
3.278472,-1.9181,-37.8006,-0.2801,-1.1068,1.6299,-0.9108,-12.7800,3.5400,-41.8200,
3.282636,-1.9181,-37.8006,-0.2801,-1.1068,1.6299,-0.9108,-12.7800,3.5400,-41.8200,
3.283653,-1.3590,10.2060,1.4988,-1.1068,1.6299,-0.9108,-12.7800,3.5400,-41.8200,
3.298772,-1.3590,10.2060,1.4988,-0.8139,0.5225,-2.3734,-12.7800,3.5400,-41.8200,
3.320473,-1.3590,10.2060,1.4988,-0.6732,1.9382,-3.3023,-12.7800,3.5400,-41.8200,
3.328381,-1.3590,10.2060,1.4988,-0.6732,1.9382,-3.3023,-14.0400,2.9400,-42.1200,
3.340480,-1.3590,10.2060,1.4988,-0.7830,3.6198,-3.5750,-14.0400,2.9400,-42.1200,
3.344669,-1.3590,10.2060,1.4988,-0.7830,3.6198,-3.5750,-14.0400,2.9400,-42.1200,
3.345561,-3.5465,13.6745,1.5132,-0.7830,3.6198,-3.5750,-14.0400,2.9400,-42.1200,
3.360862,-3.5465,13.6745,1.5132,-1.3726,3.2794,-3.6997,-14.0400,2.9400,-42.1200,
3.381846,-3.5465,13.6745,1.5132,-1.8440,1.7268,-3.5026,-14.0400,2.9400,-42.1200,
3.390831,-3.5465,13.6745,1.5132,-1.8440,1.7268,-3.5026,-14.7000,2.7600,-42.0600,
3.402025,-3.5465,13.6745,1.5132,-1.8610,0.3153,-2.6126,-14.7000,2.7600,-42.0600,
3.406343,-3.5465,13.6745,1.5132,-1.8610,0.3153,-2.6126,-14.7000,2.7600,-42.0600,
3.407305,-7.6822,7.4461,3.2879,-1.8610,0.3153,-2.6126,-14.7000,2.7600,-42.0600,
3.423349,-7.6822,7.4461,3.2879,-1.4456,-0.2189,-2.1976,-14.7000,2.7600,-42.0600,
3.443318,-7.6822,7.4461,3.2879,-2.1263,-0.6461,-1.5707,-14.7000,2.7600,-42.0600,
3.451979,-7.6822,7.4461,3.2879,-2.1263,-0.6461,-1.5707,-14.2200,3.2400,-42.1800,
3.464444,-7.6822,7.4461,3.2879,-0.7222,-3.6176,-1.7337,-14.2200,3.2400,-42.1800,
3.468341,-7.6822,7.4461,3.2879,-0.7222,-3.6176,-1.7337,-14.2200,3.2400,-42.1800,
3.469434,-4.3320,-12.2353,5.0547,-0.7222,-3.6176,-1.7337,-14.2200,3.2400,-42.1800,
3.484259,-4.3320,-12.2353,5.0547,-0.2780,-2.6211,-2.5694,-14.2200,3.2400,-42.1800,
3.505424,-4.3320,-12.2353,5.0547,-1.0770,-1.7332,-3.1750,-14.2200,3.2400,-42.1800,
3.512984,-4.3320,-12.2353,5.0547,-1.0770,-1.7332,-3.1750,-12.2400,4.3800,-43.2600,
3.524477,-4.3320,-12.2353,5.0547,-1.4109,-1.9404,-3.2565,-12.2400,4.3800,-43.2600,
3.529808,-4.3320,-12.2353,5.0547,-1.4109,-1.9404,-3.2565,-12.2400,4.3800,-43.2600,
3.530950,2.9082,3.5148,1.6719,-1.4109,-1.9404,-3.2565,-12.2400,4.3800,-43.2600,
3.546103,2.9082,3.5148,1.6719,-1.8264,-2.7393,-3.0477,-12.2400,4.3800,-43.2600,
3.566004,2.9082,3.5148,1.6719,-2.1572,-3.1473,-2.6759,-12.2400,4.3800,-43.2600,
3.575099,2.9082,3.5148,1.6719,-2.1572,-3.1473,-2.6759,-12.1200,5.2200,-42.9600,
3.586902,2.9082,3.5148,1.6719,-2.3718,-2.7569,-1.8509,-12.1200,5.2200,-42.9600,
3.591177,2.9082,3.5148,1.6719,-2.3718,-2.7569,-1.8509,-12.1200,5.2200,-42.9600,
3.592429,-2.2251,8.5644,-1.1410,-2.3718,-2.7569,-1.8509,-12.1200,5.2200,-42.9600,
3.608001,-2.2251,8.5644,-1.1410,-2.4693,-2.0980,-1.2879,-12.1200,5.2200,-42.9600,
3.628505,-2.2251,8.5644,-1.1410,-2.6445,-1.7758,-1.4525,-12.1200,5.2200,-42.9600,
3.636672,-2.2251,8.5644,-1.1410,-2.6445,-1.7758,-1.4525,-15.1800,6.1800,-41.5200,
3.649378,-2.2251,8.5644,-1.1410,-2.9732,-1.4360,-1.5659,-15.1800,6.1800,-41.5200,
3.653526,-2.2251,8.5644,-1.1410,-2.9732,-1.4360,-1.5659,-15.1800,6.1800,-41.5200,
3.654458,0.7430,1.4118,-4.1762,-2.9732,-1.4360,-1.5659,-15.1800,6.1800,-41.5200,
3.669487,0.7430,1.4118,-4.1762,-3.3971,-1.2267,-1.4291,-15.1800,6.1800,-41.5200,
3.689376,0.7430,1.4118,-4.1762,-3.2890,-1.4589,-1.2474,-15.1800,6.1800,-41.5200,
3.698472,0.7430,1.4118,-4.1762,-3.2890,-1.4589,-1.2474,-20.8200,7.3800,-38.1600,
3.709783,0.7430,1.4118,-4.1762,-2.6381,-1.4738,-1.0626,-20.8200,7.3800,-38.1600,
3.713708,0.7430,1.4118,-4.1762,-2.6381,-1.4738,-1.0626,-20.8200,7.3800,-38.1600,
3.714598,3.5789,-5.1382,-1.4457,-2.6381,-1.4738,-1.0626,-20.8200,7.3800,-38.1600,
3.730211,3.5789,-5.1382,-1.4457,-1.8397,-0.7638,-0.5806,-20.8200,7.3800,-38.1600,
3.751487,3.5789,-5.1382,-1.4457,-0.8373,-0.1832,0.8048,-20.8200,7.3800,-38.1600,
3.759676,3.5789,-5.1382,-1.4457,-0.8373,-0.1832,0.8048,-26.2800,8.7000,-33.3000,
3.771389,3.5789,-5.1382,-1.4457,-0.7952,0.2445,1.4131,-26.2800,8.7000,-33.3000,
3.775928,3.5789,-5.1382,-1.4457,-0.7952,0.2445,1.4131,-26.2800,8.7000,-33.3000,
3.777241,3.9420,3.5272,-4.6645,-0.7952,0.2445,1.4131,-26.2800,8.7000,-33.3000,
3.791432,3.9420,3.5272,-4.6645,-2.0789,-0.9912,0.3718,-26.2800,8.7000,-33.3000,
3.813145,3.9420,3.5272,-4.6645,-1.7161,-3.1148,-0.4969,-26.2800,8.7000,-33.3000,
3.821538,3.9420,3.5272,-4.6645,-1.7161,-3.1148,-0.4969,-30.7800,10.6200,-28.8000,
3.832761,3.9420,3.5272,-4.6645,-1.5153,-2.3122,0.1177,-30.7800,10.6200,-28.8000,
3.836706,3.9420,3.5272,-4.6645,-1.5153,-2.3122,0.1177,-30.7800,10.6200,-28.8000,
3.837630,-0.1649,3.4391,-3.6032,-1.5153,-2.3122,0.1177,-30.7800,10.6200,-28.8000,
3.853462,-0.1649,3.4391,-3.6032,-2.1566,-1.3918,-0.0149,-30.7800,10.6200,-28.8000,
3.874905,-0.1649,3.4391,-3.6032,-1.9010,-1.1031,-0.4559,-30.7800,10.6200,-28.8000,
3.883627,-0.1649,3.4391,-3.6032,-1.9010,-1.1031,-0.4559,-33.1800,13.2000,-24.0600,
3.894915,-0.1649,3.4391,-3.6032,-0.9859,-0.7846,-1.1526,-33.1800,13.2000,-24.0600,
3.898812,-0.1649,3.4391,-3.6032,-0.9859,-0.7846,-1.1526,-33.1800,13.2000,-24.0600,
3.899746,-0.1546,-0.3893,-2.4921,-0.9859,-0.7846,-1.1526,-33.1800,13.2000,-24.0600,
3.915818,-0.1546,-0.3893,-2.4921,-0.6807,-0.8820,-1.1995,-33.1800,13.2000,-24.0600,
3.936746,-0.1546,-0.3893,-2.4921,-0.5843,-0.8464,-0.9087,-33.1800,13.2000,-24.0600,
3.945069,-0.1546,-0.3893,-2.4921,-0.5843,-0.8464,-0.9087,-34.8000,15.7200,-19.4400,
3.956758,-0.1546,-0.3893,-2.4921,-0.4085,-0.6365,-0.5092,-34.8000,15.7200,-19.4400,
3.961361,-0.1546,-0.3893,-2.4921,-0.4085,-0.6365,-0.5092,-34.8000,15.7200,-19.4400,
3.962379,0.5092,1.5516,-1.0273,-0.4085,-0.6365,-0.5092,-34.8000,15.7200,-19.4400,
3.977565,0.5092,1.5516,-1.0273,-0.1582,-0.5459,-0.2439,-34.8000,15.7200,-19.4400,
3.997832,0.5092,1.5516,-1.0273,0.1119,-0.2557,-0.1598,-34.8000,15.7200,-19.4400,
4.006523,0.5092,1.5516,-1.0273,0.1119,-0.2557,-0.1598,-36.9000,16.4400,-15.3600,
4.018306,0.5092,1.5516,-1.0273,0.5076,0.2221,-0.1273,-36.9000,16.4400,-15.3600,
4.022868,0.5092,1.5516,-1.0273,0.5076,0.2221,-0.1273,-36.9000,16.4400,-15.3600,
4.023870,-0.0526,1.0474,-1.7792,0.5076,0.2221,-0.1273,-36.9000,16.4400,-15.3600,
4.038933,-0.0526,1.0474,-1.7792,0.8682,0.8181,-0.0107,-36.9000,16.4400,-15.3600,
4.064001,-0.0526,1.0474,-1.7792,1.1084,1.4983,0.2439,-36.9000,16.4400,-15.3600,
4.068969,-0.0526,1.0474,-1.7792,1.1084,1.4983,0.2439,-37.8600,16.7400,-11.9400,
4.080243,-0.0526,1.0474,-1.7792,1.2996,1.8349,0.6157,-37.8600,16.7400,-11.9400,
4.087028,-0.0526,1.0474,-1.7792,1.2996,1.8349,0.6157,-37.8600,16.7400,-11.9400,
4.088430,0.3678,1.6634,-0.7523,1.2996,1.8349,0.6157,-37.8600,16.7400,-11.9400,
4.099587,0.3678,1.6634,-0.7523,1.3646,1.8211,0.8538,-37.8600,16.7400,-11.9400,
4.121030,0.3678,1.6634,-0.7523,1.2623,1.7955,0.9049,-37.8600,16.7400,-11.9400,
4.129505,0.3678,1.6634,-0.7523,1.2623,1.7955,0.9049,-38.7000,16.3200,-10.8000,
4.141545,0.3678,1.6634,-0.7523,1.1734,1.7156,0.7713,-38.7000,16.3200,-10.8000,
4.145057,0.3678,1.6634,-0.7523,1.1734,1.7156,0.7713,-38.7000,16.3200,-10.8000,
4.146055,0.3560,0.4852,-0.2327,1.1734,1.7156,0.7713,-38.7000,16.3200,-10.8000,
4.161597,0.3560,0.4852,-0.2327,1.2991,1.5659,0.5832,-38.7000,16.3200,-10.8000,
4.183100,0.3560,0.4852,-0.2327,1.4349,1.4514,0.4218,-38.7000,16.3200,-10.8000,
4.191619,0.3560,0.4852,-0.2327,1.4349,1.4514,0.4218,-38.4000,15.2400,-12.4200,
4.203060,0.3560,0.4852,-0.2327,1.4557,1.1127,0.4565,-38.4000,15.2400,-12.4200,
4.207183,0.3560,0.4852,-0.2327,1.4557,1.1127,0.4565,-38.4000,15.2400,-12.4200,
4.208154,-0.1972,-0.8400,-1.5062,1.4557,1.1127,0.4565,-38.4000,15.2400,-12.4200,
4.224184,-0.1972,-0.8400,-1.5062,1.1441,0.3015,0.5076,-38.4000,15.2400,-12.4200,
4.243788,-0.1972,-0.8400,-1.5062,0.8437,-0.4037,0.3925,-38.4000,15.2400,-12.4200,
4.252181,-0.1972,-0.8400,-1.5062,0.8437,-0.4037,0.3925,-36.9600,14.9400,-15.7800,
4.264973,-0.1972,-0.8400,-1.5062,0.8043,-0.6754,0.3505,-36.9600,14.9400,-15.7800,
4.269582,-0.1972,-0.8400,-1.5062,0.8043,-0.6754,0.3505,-36.9600,14.9400,-15.7800,
4.270544,0.4617,-0.4507,-0.8736,0.8043,-0.6754,0.3505,-36.9600,14.9400,-15.7800,
4.285870,0.4617,-0.4507,-0.8736,0.8820,-0.6269,0.4767,-36.9600,14.9400,-15.7800,
4.305828,0.4617,-0.4507,-0.8736,0.9215,-0.5598,0.4874,-36.9600,14.9400,-15.7800,
4.315067,0.4617,-0.4507,-0.8736,0.9215,-0.5598,0.4874,-35.1000,14.8800,-19.6800,
4.325986,0.4617,-0.4507,-0.8736,1.0546,-0.4618,0.5113,-35.1000,14.8800,-19.6800,
4.331002,0.4617,-0.4507,-0.8736,1.0546,-0.4618,0.5113,-35.1000,14.8800,-19.6800,
4.331977,0.5521,-0.0556,-0.0488,1.0546,-0.4618,0.5113,-35.1000,14.8800,-19.6800,
4.347488,0.5521,-0.0556,-0.0488,1.1084,-0.3036,0.5385,-35.1000,14.8800,-19.6800,
4.367272,0.5521,-0.0556,-0.0488,1.1089,-0.2104,0.5539,-35.1000,14.8800,-19.6800,
4.375090,0.5521,-0.0556,-0.0488,1.1089,-0.2104,0.5539,-33.9600,14.7000,-22.2600,
4.387980,0.5521,-0.0556,-0.0488,1.1894,-0.0330,0.6061,-33.9600,14.7000,-22.2600,
4.391992,0.5521,-0.0556,-0.0488,1.1894,-0.0330,0.6061,-33.9600,14.7000,-22.2600,
4.392877,-0.3650,0.8828,-0.1565,1.1894,-0.0330,0.6061,-33.9600,14.7000,-22.2600,
4.408387,-0.3650,0.8828,-0.1565,1.2986,0.2226,0.6567,-33.9600,14.7000,-22.2600,
4.427985,-0.3650,0.8828,-0.1565,1.3342,0.2919,0.7979,-33.9600,14.7000,-22.2600,
4.436421,-0.3650,0.8828,-0.1565,1.3342,0.2919,0.7979,-33.0600,14.4600,-24.0000,
4.449459,-0.3650,0.8828,-0.1565,1.3183,0.1273,0.8171,-33.0600,14.4600,-24.0000,
4.452387,-0.3650,0.8828,-0.1565,1.3183,0.1273,0.8171,-33.0600,14.4600,-24.0000,
4.452694,0.1217,0.1485,-0.2043,1.3183,0.1273,0.8171,-33.0600,14.4600,-24.0000,
4.468891,0.1217,0.1485,-0.2043,1.3209,-0.1268,0.7361,-33.0600,14.4600,-24.0000,
4.489834,0.1217,0.1485,-0.2043,1.4440,-0.3601,0.6738,-33.0600,14.4600,-24.0000,
4.498987,0.1217,0.1485,-0.2043,1.4440,-0.3601,0.6738,-32.5200,13.8600,-25.0800,
4.510528,0.1217,0.1485,-0.2043,1.6416,-0.4671,0.6434,-32.5200,13.8600,-25.0800,
4.515020,0.1217,0.1485,-0.2043,1.6416,-0.4671,0.6434,-32.5200,13.8600,-25.0800,
4.515701,0.8245,-0.3944,-0.1168,1.6416,-0.4671,0.6434,-32.5200,13.8600,-25.0800,
4.531307,0.8245,-0.3944,-0.1168,1.8285,-0.3595,0.6674,-32.5200,13.8600,-25.0800,
4.551845,0.8245,-0.3944,-0.1168,1.9058,0.0016,0.6919,-32.5200,13.8600,-25.0800,
4.560589,0.8245,-0.3944,-0.1168,1.9058,0.0016,0.6919,-32.8800,13.3200,-25.3200,
4.572541,0.8245,-0.3944,-0.1168,1.9090,0.3015,0.7260,-32.8800,13.3200,-25.3200,
4.579216,0.8245,-0.3944,-0.1168,1.9090,0.3015,0.7260,-32.8800,13.3200,-25.3200,
4.579825,-0.9338,1.2563,-0.1305,1.9090,0.3015,0.7260,-32.8800,13.3200,-25.3200,
4.592385,-0.9338,1.2563,-0.1305,1.8967,0.3920,0.7627,-32.8800,13.3200,-25.3200,
4.612496,-0.9338,1.2563,-0.1305,1.9441,0.4304,0.7638,-32.8800,13.3200,-25.3200,
4.621786,-0.9338,1.2563,-0.1305,1.9441,0.4304,0.7638,-32.6400,12.4200,-26.5200,
4.633629,-0.9338,1.2563,-0.1305,2.1156,0.3776,0.6796,-32.6400,12.4200,-26.5200,
4.647725,-0.9338,1.2563,-0.1305,2.1156,0.3776,0.6796,-32.6400,12.4200,-26.5200,
4.648652,0.0012,-0.6561,1.6414,2.1156,0.3776,0.6796,-32.6400,12.4200,-26.5200,
4.653964,0.0012,-0.6561,1.6414,2.2450,0.3105,0.6003,-32.6400,12.4200,-26.5200,
4.676238,0.0012,-0.6561,1.6414,2.1082,0.2834,0.6940,-32.6400,12.4200,-26.5200,
4.684219,0.0012,-0.6561,1.6414,2.1082,0.2834,0.6940,-32.5200,11.6400,-27.8400,
4.695064,0.0012,-0.6561,1.6414,1.8376,0.2759,0.7856,-32.5200,11.6400,-27.8400,
4.700160,0.0012,-0.6561,1.6414,1.8376,0.2759,0.7856,-32.5200,11.6400,-27.8400,
4.701005,-0.6670,0.0943,1.1373,1.8376,0.2759,0.7856,-32.5200,11.6400,-27.8400,
4.716336,-0.6670,0.0943,1.1373,1.7039,0.3728,0.7846,-32.5200,11.6400,-27.8400,
4.736858,-0.6670,0.0943,1.1373,1.7028,0.5204,0.7574,-32.5200,11.6400,-27.8400,
4.745739,-0.6670,0.0943,1.1373,1.7028,0.5204,0.7574,-32.0400,10.6800,-28.4400,
4.757594,-0.6670,0.0943,1.1373,1.7113,0.6360,0.7414,-32.0400,10.6800,-28.4400,
4.762285,-0.6670,0.0943,1.1373,1.7113,0.6360,0.7414,-32.0400,10.6800,-28.4400,
4.763875,-2.0110,-0.5826,1.5649,1.7113,0.6360,0.7414,-32.0400,10.6800,-28.4400,
4.779207,-2.0110,-0.5826,1.5649,1.6597,0.5704,0.7201,-32.0400,10.6800,-28.4400,
4.798914,-2.0110,-0.5826,1.5649,1.5963,0.4703,0.6967,-32.0400,10.6800,-28.4400,
4.806987,-2.0110,-0.5826,1.5649,1.5963,0.4703,0.6967,-31.0800,8.8200,-30.0600,
4.818053,-2.0110,-0.5826,1.5649,1.5585,0.4064,0.6695,-31.0800,8.8200,-30.0600,
4.822788,-2.0110,-0.5826,1.5649,1.5585,0.4064,0.6695,-31.0800,8.8200,-30.0600,
4.823811,-1.1921,0.6496,0.7475,1.5585,0.4064,0.6695,-31.0800,8.8200,-30.0600,
4.839555,-1.1921,0.6496,0.7475,1.5303,0.4123,0.6274,-31.0800,8.8200,-30.0600,
4.861326,-1.1921,0.6496,0.7475,1.4786,0.3696,0.6226,-31.0800,8.8200,-30.0600,
4.871737,-1.1921,0.6496,0.7475,1.4786,0.3696,0.6226,-30.0000,6.7200,-31.8600,
4.880196,-1.1921,0.6496,0.7475,1.4333,0.2088,0.6637,-30.0000,6.7200,-31.8600,
4.883984,-1.1921,0.6496,0.7475,1.4333,0.2088,0.6637,-30.0000,6.7200,-31.8600,
4.884888,-1.4155,0.4048,0.6763,1.4333,0.2088,0.6637,-30.0000,6.7200,-31.8600,
4.900471,-1.4155,0.4048,0.6763,1.4307,0.0197,0.7515,-30.0000,6.7200,-31.8600,
4.921149,-1.4155,0.4048,0.6763,1.4786,-0.0916,0.8101,-30.0000,6.7200,-31.8600,
4.930933,-1.4155,0.4048,0.6763,1.4786,-0.0916,0.8101,-29.0400,4.5600,-33.1200,
4.942042,-1.4155,0.4048,0.6763,1.5851,-0.2029,0.8059,-29.0400,4.5600,-33.1200,
4.946012,-1.4155,0.4048,0.6763,1.5851,-0.2029,0.8059,-29.0400,4.5600,-33.1200,
4.947433,-0.8143,-1.3174,0.6306,1.5851,-0.2029,0.8059,-29.0400,4.5600,-33.1200,
4.963276,-0.8143,-1.3174,0.6306,1.6741,-0.2525,0.8219,-29.0400,4.5600,-33.1200,
4.983534,-0.8143,-1.3174,0.6306,1.6544,-0.0133,0.8511,-29.0400,4.5600,-33.1200,
4.992200,-0.8143,-1.3174,0.6306,1.6544,-0.0133,0.8511,-28.0800,2.8200,-34.4400,
5.003237,-0.8143,-1.3174,0.6306,1.5654,0.4245,0.8645,-28.0800,2.8200,-34.4400,
5.008123,-0.8143,-1.3174,0.6306,1.5654,0.4245,0.8645,-28.0800,2.8200,-34.4400,
5.009029,0.2341,1.1874,0.3357,1.5654,0.4245,0.8645,-28.0800,2.8200,-34.4400,
5.023737,0.2341,1.1874,0.3357,1.4610,0.9316,0.8107,-28.0800,2.8200,-34.4400,
5.044808,0.2341,1.1874,0.3357,1.3598,1.3092,0.7393,-28.0800,2.8200,-34.4400,
5.053607,0.2341,1.1874,0.3357,1.3598,1.3092,0.7393,-27.4200,1.0200,-35.3400,
5.065678,0.2341,1.1874,0.3357,1.2959,1.4211,0.7148,-27.4200,1.0200,-35.3400,
5.070048,0.2341,1.1874,0.3357,1.2959,1.4211,0.7148,-27.4200,1.0200,-35.3400,
5.071055,-0.9581,1.3485,2.3744,1.2959,1.4211,0.7148,-27.4200,1.0200,-35.3400,
5.085930,-0.9581,1.3485,2.3744,1.2453,1.3305,0.7473,-27.4200,1.0200,-35.3400,
5.105911,-0.9581,1.3485,2.3744,1.1761,1.1478,0.7942,-27.4200,1.0200,-35.3400,
5.115904,-0.9581,1.3485,2.3744,1.1761,1.1478,0.7942,-26.4000,-0.4200,-35.8800,
5.125383,-0.9581,1.3485,2.3744,1.0802,1.0344,0.8234,-26.4000,-0.4200,-35.8800,
5.130983,-0.9581,1.3485,2.3744,1.0802,1.0344,0.8234,-26.4000,-0.4200,-35.8800,
5.132287,-2.5553,1.8629,1.9268,1.0802,1.0344,0.8234,-26.4000,-0.4200,-35.8800,
5.148183,-2.5553,1.8629,1.9268,0.9614,0.7755,0.7270,-26.4000,-0.4200,-35.8800,
5.168084,-2.5553,1.8629,1.9268,0.7984,0.3308,0.5475,-26.4000,-0.4200,-35.8800,
5.176902,-2.5553,1.8629,1.9268,0.7984,0.3308,0.5475,-24.9000,-2.1000,-36.8400,
5.188258,-2.5553,1.8629,1.9268,0.6621,0.2109,0.5326,-24.9000,-2.1000,-36.8400,
5.192737,-2.5553,1.8629,1.9268,0.6621,0.2109,0.5326,-24.9000,-2.1000,-36.8400,
5.193848,-1.5680,2.0346,1.3244,0.6621,0.2109,0.5326,-24.9000,-2.1000,-36.8400,
5.208730,-1.5680,2.0346,1.3244,0.6072,0.2802,0.6051,-24.9000,-2.1000,-36.8400,
5.229713,-1.5680,2.0346,1.3244,0.5603,0.1385,0.6503,-24.9000,-2.1000,-36.8400,
5.238228,-1.5680,2.0346,1.3244,0.5603,0.1385,0.6503,-23.4000,-3.9600,-38.2200,
5.250327,-1.5680,2.0346,1.3244,0.5071,-0.0522,0.7585,-23.4000,-3.9600,-38.2200,
5.254323,-1.5680,2.0346,1.3244,0.5071,-0.0522,0.7585,-23.4000,-3.9600,-38.2200,
5.255251,-0.6214,0.2466,1.2093,0.5071,-0.0522,0.7585,-23.4000,-3.9600,-38.2200,
5.270787,-0.6214,0.2466,1.2093,0.4996,-0.0218,0.8852,-23.4000,-3.9600,-38.2200,
5.291903,-0.6214,0.2466,1.2093,0.4309,0.1177,0.9651,-23.4000,-3.9600,-38.2200,
5.300173,-0.6214,0.2466,1.2093,0.4309,0.1177,0.9651,-21.7800,-5.2200,-39.1200,
5.312551,-0.6214,0.2466,1.2093,0.3792,0.0064,0.9923,-21.7800,-5.2200,-39.1200,
5.316350,-0.6214,0.2466,1.2093,0.3792,0.0064,0.9923,-21.7800,-5.2200,-39.1200,
5.317498,0.6150,-0.4041,0.0130,0.3792,0.0064,0.9923,-21.7800,-5.2200,-39.1200,
5.332503,0.6150,-0.4041,0.0130,0.4602,-0.4597,1.0024,-21.7800,-5.2200,-39.1200,
5.353163,0.6150,-0.4041,0.0130,0.5758,-0.5694,1.0211,-21.7800,-5.2200,-39.1200,
5.362172,0.6150,-0.4041,0.0130,0.5758,-0.5694,1.0211,-20.8800,-6.5400,-40.0200,
5.373819,0.6150,-0.4041,0.0130,0.6546,-0.2860,1.0029,-20.8800,-6.5400,-40.0200,
5.378588,0.6150,-0.4041,0.0130,0.6546,-0.2860,1.0029,-20.8800,-6.5400,-40.0200,
5.380002,0.5325,1.3528,-0.8006,0.6546,-0.2860,1.0029,-20.8800,-6.5400,-40.0200,
5.395735,0.5325,1.3528,-0.8006,0.7153,0.2626,0.9220,-20.8800,-6.5400,-40.0200,
5.414566,0.5325,1.3528,-0.8006,0.6759,0.2679,0.7989,-20.8800,-6.5400,-40.0200,
5.423298,0.5325,1.3528,-0.8006,0.6759,0.2679,0.7989,-20.8200,-6.5400,-40.2600,
5.434092,0.5325,1.3528,-0.8006,0.6727,0.2823,0.8341,-20.8200,-6.5400,-40.2600,
5.438986,0.5325,1.3528,-0.8006,0.6727,0.2823,0.8341,-20.8200,-6.5400,-40.2600,
5.439946,-0.2230,-0.9980,0.4161,0.6727,0.2823,0.8341,-20.8200,-6.5400,-40.2600,
5.455528,-0.2230,-0.9980,0.4161,0.7505,0.3446,0.9252,-20.8200,-6.5400,-40.2600,
5.475297,-0.2230,-0.9980,0.4161,0.6903,0.2216,0.9918,-20.8200,-6.5400,-40.2600,
5.484602,-0.2230,-0.9980,0.4161,0.6903,0.2216,0.9918,-21.0000,-6.3600,-40.2000,
5.496395,-0.2230,-0.9980,0.4161,0.8437,0.3643,1.1963,-21.0000,-6.3600,-40.2000,
5.501200,-0.2230,-0.9980,0.4161,0.8437,0.3643,1.1963,-21.0000,-6.3600,-40.2000,
5.502240,-1.7347,1.4792,-0.3760,0.8437,0.3643,1.1963,-21.0000,-6.3600,-40.2000,
5.516813,-1.7347,1.4792,-0.3760,0.8469,0.3180,1.3135,-21.0000,-6.3600,-40.2000,
5.536940,-1.7347,1.4792,-0.3760,0.7073,0.0208,1.2714,-21.0000,-6.3600,-40.2000,
5.546070,-1.7347,1.4792,-0.3760,0.7073,0.0208,1.2714,-21.4800,-6.2400,-39.9000,
5.557778,-1.7347,1.4792,-0.3760,0.6125,-0.1981,1.1814,-21.4800,-6.2400,-39.9000,
5.561799,-1.7347,1.4792,-0.3760,0.6125,-0.1981,1.1814,-21.4800,-6.2400,-39.9000,
5.563121,-1.7281,1.2655,-0.0115,0.6125,-0.1981,1.1814,-21.4800,-6.2400,-39.9000,
5.578176,-1.7281,1.2655,-0.0115,0.5731,-0.3153,1.2016,-21.4800,-6.2400,-39.9000,
5.599710,-1.7281,1.2655,-0.0115,0.4719,-0.4591,1.1899,-21.4800,-6.2400,-39.9000,
5.607974,-1.7281,1.2655,-0.0115,0.4719,-0.4591,1.1899,-21.9000,-6.2400,-39.9600,
5.619767,-1.7281,1.2655,-0.0115,0.4629,-0.7031,1.1073,-21.9000,-6.2400,-39.9600,
5.624051,-1.7281,1.2655,-0.0115,0.4629,-0.7031,1.1073,-21.9000,-6.2400,-39.9600,
5.625049,-2.7930,0.0746,1.1999,0.4629,-0.7031,1.1073,-21.9000,-6.2400,-39.9600,
5.640113,-2.7930,0.0746,1.1999,0.3553,-0.8341,0.9811,-21.9000,-6.2400,-39.9600,
5.661420,-2.7930,0.0746,1.1999,0.2205,-0.8394,0.8895,-21.9000,-6.2400,-39.9600,
5.669818,-2.7930,0.0746,1.1999,0.2205,-0.8394,0.8895,-22.5600,-6.9000,-40.3200,
5.681650,-2.7930,0.0746,1.1999,0.2866,-0.8288,0.8160,-22.5600,-6.9000,-40.3200,
5.685825,-2.7930,0.0746,1.1999,0.2866,-0.8288,0.8160,-22.5600,-6.9000,-40.3200,
5.686792,-0.9847,1.8116,0.6966,0.2866,-0.8288,0.8160,-22.5600,-6.9000,-40.3200,
5.701667,-0.9847,1.8116,0.6966,0.3127,-0.8043,0.7739,-22.5600,-6.9000,-40.3200,
5.722259,-0.9847,1.8116,0.6966,0.2477,-0.7526,0.8464,-22.5600,-6.9000,-40.3200,
5.731061,-0.9847,1.8116,0.6966,0.2477,-0.7526,0.8464,-23.2800,-7.2000,-40.1400,
5.745068,-0.9847,1.8116,0.6966,0.3143,-0.8309,0.7622,-23.2800,-7.2000,-40.1400,
5.747169,-0.9847,1.8116,0.6966,0.3143,-0.8309,0.7622,-23.2800,-7.2000,-40.1400,
5.748030,-1.8992,0.9555,1.0743,0.3143,-0.8309,0.7622,-23.2800,-7.2000,-40.1400,
5.763190,-1.8992,0.9555,1.0743,0.2887,-0.8996,0.5236,-23.2800,-7.2000,-40.1400,
5.783886,-1.8992,0.9555,1.0743,0.2855,-0.7270,0.3547,-23.2800,-7.2000,-40.1400,
5.792288,-1.8992,0.9555,1.0743,0.2855,-0.7270,0.3547,-24.6600,-7.0200,-39.9600,
5.804476,-1.8992,0.9555,1.0743,0.4325,-0.6445,0.1529,-24.6600,-7.0200,-39.9600,
5.808890,-1.8992,0.9555,1.0743,0.4325,-0.6445,0.1529,-24.6600,-7.0200,-39.9600,
5.809961,0.7119,-0.3223,0.5878,0.4325,-0.6445,0.1529,-24.6600,-7.0200,-39.9600,
5.824963,0.7119,-0.3223,0.5878,0.4463,-0.5071,0.0394,-24.6600,-7.0200,-39.9600,
5.845224,0.7119,-0.3223,0.5878,0.3878,-0.3137,0.1518,-24.6600,-7.0200,-39.9600,
5.854415,0.7119,-0.3223,0.5878,0.3878,-0.3137,0.1518,-26.5800,-6.7200,-39.0600,
5.866100,0.7119,-0.3223,0.5878,0.3830,-0.4320,0.2035,-26.5800,-6.7200,-39.0600,
5.871075,0.7119,-0.3223,0.5878,0.3830,-0.4320,0.2035,-26.5800,-6.7200,-39.0600,
5.872058,-0.6523,-1.6426,-0.5497,0.3830,-0.4320,0.2035,-26.5800,-6.7200,-39.0600,
5.886060,-0.6523,-1.6426,-0.5497,0.3143,-0.3105,0.0943,-26.5800,-6.7200,-39.0600,
5.907451,-0.6523,-1.6426,-0.5497,0.1987,-0.1060,0.0517,-26.5800,-6.7200,-39.0600,
5.915925,-0.6523,-1.6426,-0.5497,0.1987,-0.1060,0.0517,-28.2600,-6.7200,-37.3800,
5.928625,-0.6523,-1.6426,-0.5497,0.1630,0.1896,0.0756,-28.2600,-6.7200,-37.3800,
5.931946,-0.6523,-1.6426,-0.5497,0.1630,0.1896,0.0756,-28.2600,-6.7200,-37.3800,
5.932965,1.2253,-1.4242,1.5117,0.1630,0.1896,0.0756,-28.2600,-6.7200,-37.3800,
5.948472,1.2253,-1.4242,1.5117,0.0730,0.3190,0.3249,-28.2600,-6.7200,-37.3800,
5.969055,1.2253,-1.4242,1.5117,-0.1321,0.3425,0.5108,-28.2600,-6.7200,-37.3800,
5.978161,1.2253,-1.4242,1.5117,-0.1321,0.3425,0.5108,-29.7000,-6.7200,-36.3600,
5.988982,1.2253,-1.4242,1.5117,-0.2573,0.5758,0.4948,-29.7000,-6.7200,-36.3600,
5.994609,1.2253,-1.4242,1.5117,-0.2573,0.5758,0.4948,-29.7000,-6.7200,-36.3600,
5.995990,-1.0856,-2.8851,1.0061,-0.2573,0.5758,0.4948,-29.7000,-6.7200,-36.3600,
6.011378,-1.0856,-2.8851,1.0061,-0.3015,0.7302,0.3483,-29.7000,-6.7200,-36.3600,
6.030588,-1.0856,-2.8851,1.0061,-0.0794,0.8746,0.2642,-29.7000,-6.7200,-36.3600,
6.038671,-1.0856,-2.8851,1.0061,-0.0794,0.8746,0.2642,-30.4800,-6.9000,-36.1200,
6.050803,-1.0856,-2.8851,1.0061,0.0969,0.9470,0.2775,-30.4800,-6.9000,-36.1200,
6.054962,-1.0856,-2.8851,1.0061,0.0969,0.9470,0.2775,-30.4800,-6.9000,-36.1200,
6.055854,-1.2650,-4.8760,2.3144,0.0969,0.9470,0.2775,-30.4800,-6.9000,-36.1200,
6.070383,-1.2650,-4.8760,2.3144,0.1688,0.9609,0.3254,-30.4800,-6.9000,-36.1200,
6.091400,-1.2650,-4.8760,2.3144,0.2434,0.8442,0.2972,-30.4800,-6.9000,-36.1200,
6.100563,-1.2650,-4.8760,2.3144,0.2434,0.8442,0.2972,-30.1200,-6.6600,-35.8800,
6.111827,-1.2650,-4.8760,2.3144,0.3260,0.7100,0.2072,-30.1200,-6.6600,-35.8800,
6.116465,-1.2650,-4.8760,2.3144,0.3260,0.7100,0.2072,-30.1200,-6.6600,-35.8800,
6.117504,0.1683,-2.4432,0.8340,0.3260,0.7100,0.2072,-30.1200,-6.6600,-35.8800,
6.133154,0.1683,-2.4432,0.8340,0.2850,0.6546,0.0692,-30.1200,-6.6600,-35.8800,
6.152997,0.1683,-2.4432,0.8340,0.0442,0.8906,-0.1092,-30.1200,-6.6600,-35.8800,
6.161227,0.1683,-2.4432,0.8340,0.0442,0.8906,-0.1092,-29.2800,-6.2400,-36.9600,
6.173978,0.1683,-2.4432,0.8340,-0.0708,1.0749,-0.3989,-29.2800,-6.2400,-36.9600,
6.178360,0.1683,-2.4432,0.8340,-0.0708,1.0749,-0.3989,-29.2800,-6.2400,-36.9600,
6.179845,0.9289,3.9451,0.8734,-0.0708,1.0749,-0.3989,-29.2800,-6.2400,-36.9600,
6.195149,0.9289,3.9451,0.8734,0.0639,1.0125,-0.6104,-29.2800,-6.2400,-36.9600,
6.215483,0.9289,3.9451,0.8734,0.2210,0.5475,-0.6232,-29.2800,-6.2400,-36.9600,
6.223774,0.9289,3.9451,0.8734,0.2210,0.5475,-0.6232,-27.6600,-5.2800,-37.9800,
6.234989,0.9289,3.9451,0.8734,0.1731,0.1529,-0.6013,-27.6600,-5.2800,-37.9800,
6.239441,0.9289,3.9451,0.8734,0.1731,0.1529,-0.6013,-27.6600,-5.2800,-37.9800,
6.240360,-0.1438,1.2291,-0.0834,0.1731,0.1529,-0.6013,-27.6600,-5.2800,-37.9800,
6.255930,-0.1438,1.2291,-0.0834,0.0527,0.3169,-0.7457,-27.6600,-5.2800,-37.9800,
6.277226,-0.1438,1.2291,-0.0834,-0.0368,0.3925,-0.9694,-27.6600,-5.2800,-37.9800,
6.285502,-0.1438,1.2291,-0.0834,-0.0368,0.3925,-0.9694,-25.5600,-4.8600,-38.7600,
6.296720,-0.1438,1.2291,-0.0834,-0.1097,0.3776,-1.2133,-25.5600,-4.8600,-38.7600,
6.301102,-0.1438,1.2291,-0.0834,-0.1097,0.3776,-1.2133,-25.5600,-4.8600,-38.7600,
6.302119,0.1149,2.0295,-0.7103,-0.1097,0.3776,-1.2133,-25.5600,-4.8600,-38.7600,
6.317872,0.1149,2.0295,-0.7103,-0.1380,0.5177,-1.2751,-25.5600,-4.8600,-38.7600,
6.338359,0.1149,2.0295,-0.7103,-0.2280,0.6658,-1.2080,-25.5600,-4.8600,-38.7600,
6.347166,0.1149,2.0295,-0.7103,-0.2280,0.6658,-1.2080,-24.1200,-5.1000,-39.4800,
6.361559,0.1149,2.0295,-0.7103,-0.2226,0.5177,-1.0567,-24.1200,-5.1000,-39.4800,
6.363055,0.1149,2.0295,-0.7103,-0.2226,0.5177,-1.0567,-24.1200,-5.1000,-39.4800,
6.363949,-2.3154,0.2631,0.3711,-0.2226,0.5177,-1.0567,-24.1200,-5.1000,-39.4800,
6.378464,-2.3154,0.2631,0.3711,-0.1822,0.3217,-0.9369,-24.1200,-5.1000,-39.4800,
6.400008,-2.3154,0.2631,0.3711,-0.2844,0.0634,-0.9832,-24.1200,-5.1000,-39.4800,
6.408492,-2.3154,0.2631,0.3711,-0.2844,0.0634,-0.9832,-22.3200,-5.2200,-40.0200,
6.419879,-2.3154,0.2631,0.3711,-0.4234,-0.2466,-1.0972,-22.3200,-5.2200,-40.0200,
6.424223,-2.3154,0.2631,0.3711,-0.4234,-0.2466,-1.0972,-22.3200,-5.2200,-40.0200,
6.425110,-1.2780,1.1393,-0.0317,-0.4234,-0.2466,-1.0972,-22.3200,-5.2200,-40.0200,
6.440678,-1.2780,1.1393,-0.0317,-0.4266,-0.1119,-1.1148,-22.3200,-5.2200,-40.0200,
6.461445,-1.2780,1.1393,-0.0317,-0.4229,-0.0256,-1.0844,-22.3200,-5.2200,-40.0200,
6.469762,-1.2780,1.1393,-0.0317,-0.4229,-0.0256,-1.0844,-21.2400,-6.2400,-40.5600,
6.482289,-1.2780,1.1393,-0.0317,-0.4506,0.0272,-1.0189,-21.2400,-6.2400,-40.5600,
6.485793,-1.2780,1.1393,-0.0317,-0.4506,0.0272,-1.0189,-21.2400,-6.2400,-40.5600,
6.486644,-0.7638,1.5624,0.6213,-0.4506,0.0272,-1.0189,-21.2400,-6.2400,-40.5600,
6.502103,-0.7638,1.5624,0.6213,-0.4655,0.1662,-1.0951,-21.2400,-6.2400,-40.5600,
6.523002,-0.7638,1.5624,0.6213,-0.5140,0.2530,-1.2677,-21.2400,-6.2400,-40.5600,
6.531546,-0.7638,1.5624,0.6213,-0.5140,0.2530,-1.2677,-20.7000,-6.7200,-40.9800,
6.544570,-0.7638,1.5624,0.6213,-0.4735,0.3116,-1.3550,-20.7000,-6.7200,-40.9800,
6.547063,-0.7638,1.5624,0.6213,-0.4735,0.3116,-1.3550,-20.7000,-6.7200,-40.9800,
6.547906,-0.2509,-0.2907,0.1460,-0.4735,0.3116,-1.3550,-20.7000,-6.7200,-40.9800,
6.563815,-0.2509,-0.2907,0.1460,-0.4708,0.5257,-1.2730,-20.7000,-6.7200,-40.9800,
6.584261,-0.2509,-0.2907,0.1460,-0.4847,0.6136,-1.1734,-20.7000,-6.7200,-40.9800,
6.594096,-0.2509,-0.2907,0.1460,-0.4847,0.6136,-1.1734,-19.8600,-6.9600,-41.6400,
6.604834,-0.2509,-0.2907,0.1460,-0.5353,0.4229,-1.0594,-19.8600,-6.9600,-41.6400,
6.610921,-0.2509,-0.2907,0.1460,-0.5353,0.4229,-1.0594,-19.8600,-6.9600,-41.6400,
6.612306,-0.9647,0.2616,0.0566,-0.5353,0.4229,-1.0594,-19.8600,-6.9600,-41.6400,
6.624895,-0.9647,0.2616,0.0566,-0.5481,0.2764,-0.9838,-19.8600,-6.9600,-41.6400,
6.645992,-0.9647,0.2616,0.0566,-0.5886,0.2136,-0.9587,-19.8600,-6.9600,-41.6400,
6.654929,-0.9647,0.2616,0.0566,-0.5886,0.2136,-0.9587,-19.3200,-6.9600,-41.8200,
6.666398,-0.9647,0.2616,0.0566,-0.5593,-0.0021,-0.9156,-19.3200,-6.9600,-41.8200,
6.670470,-0.9647,0.2616,0.0566,-0.5593,-0.0021,-0.9156,-19.3200,-6.9600,-41.8200,
6.671797,-0.8355,-0.9595,0.6994,-0.5593,-0.0021,-0.9156,-19.3200,-6.9600,-41.8200,
6.686376,-0.8355,-0.9595,0.6994,-0.4011,-0.1193,-0.8330,-19.3200,-6.9600,-41.8200,
6.706564,-0.8355,-0.9595,0.6994,-0.1502,-0.1577,-0.7739,-19.3200,-6.9600,-41.8200,
6.716252,-0.8355,-0.9595,0.6994,-0.1502,-0.1577,-0.7739,-18.3600,-6.7200,-41.7600,
6.728281,-0.8355,-0.9595,0.6994,0.0091,-0.2908,-0.7249,-18.3600,-6.7200,-41.7600,
6.732354,-0.8355,-0.9595,0.6994,0.0091,-0.2908,-0.7249,-18.3600,-6.7200,-41.7600,
6.733414,0.9623,-0.4877,0.6212,0.0091,-0.2908,-0.7249,-18.3600,-6.7200,-41.7600,
6.748402,0.9623,-0.4877,0.6212,0.0245,-0.3254,-0.6482,-18.3600,-6.7200,-41.7600,
6.768432,0.9623,-0.4877,0.6212,0.0186,-0.3153,-0.5582,-18.3600,-6.7200,-41.7600,
6.777995,0.9623,-0.4877,0.6212,0.0186,-0.3153,-0.5582,-17.5800,-6.5400,-41.4600,
6.789702,0.9623,-0.4877,0.6212,0.0309,-0.3963,-0.4895,-17.5800,-6.5400,-41.4600,
6.793840,0.9623,-0.4877,0.6212,0.0309,-0.3963,-0.4895,-17.5800,-6.5400,-41.4600,
6.795174,1.2919,1.5433,-0.7743,0.0309,-0.3963,-0.4895,-17.5800,-6.5400,-41.4600,
6.811282,1.2919,1.5433,-0.7743,-0.0011,-0.4623,-0.4416,-17.5800,-6.5400,-41.4600,
6.830310,1.2919,1.5433,-0.7743,-0.0272,-0.4272,-0.3670,-17.5800,-6.5400,-41.4600,
6.838985,1.2919,1.5433,-0.7743,-0.0272,-0.4272,-0.3670,-17.2800,-6.3000,-41.7000,
6.851787,1.2919,1.5433,-0.7743,-0.0570,-0.3505,-0.2274,-17.2800,-6.3000,-41.7000,
6.855306,1.2919,1.5433,-0.7743,-0.0570,-0.3505,-0.2274,-17.2800,-6.3000,-41.7000,
6.856217,0.0270,1.5749,-1.7855,-0.0570,-0.3505,-0.2274,-17.2800,-6.3000,-41.7000,
6.871600,0.0270,1.5749,-1.7855,-0.0735,-0.3579,-0.1609,-17.2800,-6.3000,-41.7000,
6.892174,0.0270,1.5749,-1.7855,-0.0581,-0.3388,-0.1854,-17.2800,-6.3000,-41.7000,
6.900801,0.0270,1.5749,-1.7855,-0.0581,-0.3388,-0.1854,-17.7000,-6.4800,-41.5800,
6.911471,0.0270,1.5749,-1.7855,-0.1230,-0.3462,-0.1630,-17.7000,-6.4800,-41.5800,
6.916187,0.0270,1.5749,-1.7855,-0.1230,-0.3462,-0.1630,-17.7000,-6.4800,-41.5800,
6.917071,0.4235,1.7842,-2.2149,-0.1230,-0.3462,-0.1630,-17.7000,-6.4800,-41.5800,
6.933128,0.4235,1.7842,-2.2149,-0.2695,-0.3111,-0.1337,-17.7000,-6.4800,-41.5800,
6.953893,0.4235,1.7842,-2.2149,-0.4293,-0.2232,-0.1816,-17.7000,-6.4800,-41.5800,
6.962175,0.4235,1.7842,-2.2149,-0.4293,-0.2232,-0.1816,-18.4800,-6.7800,-41.5200,
6.974506,0.4235,1.7842,-2.2149,-0.7132,-0.0634,-0.1662,-18.4800,-6.7800,-41.5200,
6.978557,0.4235,1.7842,-2.2149,-0.7132,-0.0634,-0.1662,-18.4800,-6.7800,-41.5200,
6.979808,1.3059,1.6901,-0.9783,-0.7132,-0.0634,-0.1662,-18.4800,-6.7800,-41.5200,
6.994066,1.3059,1.6901,-0.9783,-0.9667,-0.1513,-0.2407,-18.4800,-6.7800,-41.5200,
7.015282,1.3059,1.6901,-0.9783,-1.2022,-0.1784,-0.3270,-18.4800,-6.7800,-41.5200,
7.023905,1.3059,1.6901,-0.9783,-1.2022,-0.1784,-0.3270,-19.3800,-6.9000,-41.6400,
7.035761,1.3059,1.6901,-0.9783,-1.2730,-0.0788,-0.3318,-19.3800,-6.9000,-41.6400,
7.039964,1.3059,1.6901,-0.9783,-1.2730,-0.0788,-0.3318,-19.3800,-6.9000,-41.6400,
7.040923,0.5416,2.5184,-3.0936,-1.2730,-0.0788,-0.3318,-19.3800,-6.9000,-41.6400,
7.055984,0.5416,2.5184,-3.0936,-1.4573,0.2466,-0.2338,-19.3800,-6.9000,-41.6400,
7.078176,0.5416,2.5184,-3.0936,-1.6746,0.4096,-0.2237,-19.3800,-6.9000,-41.6400,
7.085876,0.5416,2.5184,-3.0936,-1.6746,0.4096,-0.2237,-19.7400,-6.3000,-41.1000,
7.097791,0.5416,2.5184,-3.0936,-1.7135,0.5316,-0.1284,-19.7400,-6.3000,-41.1000,
7.101599,0.5416,2.5184,-3.0936,-1.7135,0.5316,-0.1284,-19.7400,-6.3000,-41.1000,
7.102548,1.2318,-2.0162,0.2393,-1.7135,0.5316,-0.1284,-19.7400,-6.3000,-41.1000,
7.117968,1.2318,-2.0162,0.2393,-1.4307,0.4661,0.0352,-19.7400,-6.3000,-41.1000,
7.138430,1.2318,-2.0162,0.2393,-1.3417,0.3558,0.0431,-19.7400,-6.3000,-41.1000,
7.147545,1.2318,-2.0162,0.2393,-1.3417,0.3558,0.0431,-19.4400,-4.7400,-40.9800,
7.158455,1.2318,-2.0162,0.2393,-1.1947,0.3798,-0.0309,-19.4400,-4.7400,-40.9800,
7.163724,1.2318,-2.0162,0.2393,-1.1947,0.3798,-0.0309,-19.4400,-4.7400,-40.9800,
7.165229,0.6894,-1.6000,3.2243,-1.1947,0.3798,-0.0309,-19.4400,-4.7400,-40.9800,
7.179504,0.6894,-1.6000,3.2243,-0.4858,0.9758,0.0522,-19.4400,-4.7400,-40.9800,
7.200109,0.6894,-1.6000,3.2243,-0.0346,1.1010,0.3925,-19.4400,-4.7400,-40.9800,
7.208882,0.6894,-1.6000,3.2243,-0.0346,1.1010,0.3925,-19.5000,-2.4000,-41.0400,
7.220438,0.6894,-1.6000,3.2243,-0.1262,0.7888,0.6013,-19.5000,-2.4000,-41.0400,
7.224495,0.6894,-1.6000,3.2243,-0.1262,0.7888,0.6013,-19.5000,-2.4000,-41.0400,
7.225562,-0.6165,-1.6736,-0.1757,-0.1262,0.7888,0.6013,-19.5000,-2.4000,-41.0400,
7.241066,-0.6165,-1.6736,-0.1757,-0.1901,0.4011,0.3515,-19.5000,-2.4000,-41.0400,
7.261872,-0.6165,-1.6736,-0.1757,-0.4293,0.2898,0.2471,-19.5000,-2.4000,-41.0400,
7.270539,-0.6165,-1.6736,-0.1757,-0.4293,0.2898,0.2471,-18.7200,0.3000,-41.2800,
7.281081,-0.6165,-1.6736,-0.1757,-0.4677,0.3553,0.0708,-18.7200,0.3000,-41.2800,
7.286646,-0.6165,-1.6736,-0.1757,-0.4677,0.3553,0.0708,-18.7200,0.3000,-41.2800,
7.287034,-1.3175,0.5072,-0.6615,-0.4677,0.3553,0.0708,-18.7200,0.3000,-41.2800,
7.302620,-1.3175,0.5072,-0.6615,-0.4756,0.3670,0.0735,-18.7200,0.3000,-41.2800,
7.323281,-1.3175,0.5072,-0.6615,-0.6679,0.1241,0.2700,-18.7200,0.3000,-41.2800,
7.331648,-1.3175,0.5072,-0.6615,-0.6679,0.1241,0.2700,-17.7000,2.7000,-41.1600,
7.344768,-1.3175,0.5072,-0.6615,-0.7590,-0.0490,0.3920,-17.7000,2.7000,-41.1600,
7.347195,-1.3175,0.5072,-0.6615,-0.7590,-0.0490,0.3920,-17.7000,2.7000,-41.1600,
7.348105,-1.5268,1.1406,-0.9126,-0.7590,-0.0490,0.3920,-17.7000,2.7000,-41.1600,
7.364340,-1.5268,1.1406,-0.9126,-0.6535,0.1369,0.4384,-17.7000,2.7000,-41.1600,
7.385131,-1.5268,1.1406,-0.9126,-0.4826,0.2045,0.2924,-17.7000,2.7000,-41.1600,
7.394478,-1.5268,1.1406,-0.9126,-0.4826,0.2045,0.2924,-16.8600,4.5000,-40.9800,
7.405207,-1.5268,1.1406,-0.9126,-0.3622,0.1949,0.3457,-16.8600,4.5000,-40.9800,
7.411270,-1.5268,1.1406,-0.9126,-0.3622,0.1949,0.3457,-16.8600,4.5000,-40.9800,
7.412797,-2.3153,0.3687,-0.5321,-0.3622,0.1949,0.3457,-16.8600,4.5000,-40.9800,
7.425663,-2.3153,0.3687,-0.5321,-0.4208,-0.0154,0.2945,-16.8600,4.5000,-40.9800,
7.446685,-2.3153,0.3687,-0.5321,-0.6205,-0.1699,0.1656,-16.8600,4.5000,-40.9800,
7.454935,-2.3153,0.3687,-0.5321,-0.6205,-0.1699,0.1656,-15.1800,6.0600,-40.5000,
7.467403,-2.3153,0.3687,-0.5321,-0.7004,-0.2653,-0.1593,-15.1800,6.0600,-40.5000,
7.470937,-2.3153,0.3687,-0.5321,-0.7004,-0.2653,-0.1593,-15.1800,6.0600,-40.5000,
7.471778,1.5413,-0.5541,-1.3643,-0.7004,-0.2653,-0.1593,-15.1800,6.0600,-40.5000,
7.487426,1.5413,-0.5541,-1.3643,-0.6775,-0.2514,-0.4661,-15.1800,6.0600,-40.5000,
7.507954,1.5413,-0.5541,-1.3643,-0.5827,0.0069,-0.6642,-15.1800,6.0600,-40.5000,
7.516189,1.5413,-0.5541,-1.3643,-0.5827,0.0069,-0.6642,-14.2800,7.5000,-40.2000,
7.527561,1.5413,-0.5541,-1.3643,-0.5433,0.7782,-0.7627,-14.2800,7.5000,-40.2000,
7.532914,1.5413,-0.5541,-1.3643,-0.5433,0.7782,-0.7627,-14.2800,7.5000,-40.2000,
7.534026,0.9987,-1.1521,-2.1054,-0.5433,0.7782,-0.7627,-14.2800,7.5000,-40.2000,
7.549849,0.9987,-1.1521,-2.1054,-0.6898,1.3843,-0.6125,-14.2800,7.5000,-40.2000,
7.569566,0.9987,-1.1521,-2.1054,-0.7116,1.1531,-0.2876,-14.2800,7.5000,-40.2000,
7.578439,0.9987,-1.1521,-2.1054,-0.7116,1.1531,-0.2876,-14.1600,8.8800,-40.2600,
7.589868,0.9987,-1.1521,-2.1054,-0.7563,0.5981,0.0128,-14.1600,8.8800,-40.2600,
7.594321,0.9987,-1.1521,-2.1054,-0.7563,0.5981,0.0128,-14.1600,8.8800,-40.2600,
7.595641,-1.2624,-2.1469,0.3392,-0.7563,0.5981,0.0128,-14.1600,8.8800,-40.2600,
7.611621,-1.2624,-2.1469,0.3392,-0.7904,0.1427,0.0842,-14.1600,8.8800,-40.2600,
7.630093,-1.2624,-2.1469,0.3392,-0.7286,0.0186,-0.1300,-14.1600,8.8800,-40.2600,
7.639478,-1.2624,-2.1469,0.3392,-0.7286,0.0186,-0.1300,-13.2600,10.8600,-40.4400,
7.651622,-1.2624,-2.1469,0.3392,-0.6083,-0.2226,-0.3888,-13.2600,10.8600,-40.4400,
7.655803,-1.2624,-2.1469,0.3392,-0.6083,-0.2226,-0.3888,-13.2600,10.8600,-40.4400,
7.656771,2.0727,0.6956,1.0751,-0.6083,-0.2226,-0.3888,-13.2600,10.8600,-40.4400,
7.671960,2.0727,0.6956,1.0751,-0.5284,-0.4272,-0.6642,-13.2600,10.8600,-40.4400,
7.692560,2.0727,0.6956,1.0751,-0.5257,-0.4128,-0.7563,-13.2600,10.8600,-40.4400,
7.701641,2.0727,0.6956,1.0751,-0.5257,-0.4128,-0.7563,-13.2600,12.1800,-41.1600,
7.713189,2.0727,0.6956,1.0751,-0.5065,-0.3228,-0.6179,-13.2600,12.1800,-41.1600,
7.717953,2.0727,0.6956,1.0751,-0.5065,-0.3228,-0.6179,-13.2600,12.1800,-41.1600,
7.718885,-0.6343,0.1263,-1.0567,-0.5065,-0.3228,-0.6179,-13.2600,12.1800,-41.1600,
7.733914,-0.6343,0.1263,-1.0567,-0.4692,-0.4069,-0.3643,-13.2600,12.1800,-41.1600,
7.754263,-0.6343,0.1263,-1.0567,-0.3148,-0.0810,-0.2690,-13.2600,12.1800,-41.1600,
7.762806,-0.6343,0.1263,-1.0567,-0.3148,-0.0810,-0.2690,-13.1400,13.4400,-40.6800,
7.774755,-0.6343,0.1263,-1.0567,0.1614,0.9326,-0.2418,-13.1400,13.4400,-40.6800,
7.779689,-0.6343,0.1263,-1.0567,0.1614,0.9326,-0.2418,-13.1400,13.4400,-40.6800,
7.781104,-0.1283,0.3524,1.1288,0.1614,0.9326,-0.2418,-13.1400,13.4400,-40.6800,
7.794242,-0.1283,0.3524,1.1288,0.0602,1.1228,-0.1012,-13.1400,13.4400,-40.6800,
7.815501,-0.1283,0.3524,1.1288,-0.9667,0.2684,-0.0639,-13.1400,13.4400,-40.6800,
7.824243,-0.1283,0.3524,1.1288,-0.9667,0.2684,-0.0639,-13.0800,14.7600,-40.0800,
7.836125,-0.1283,0.3524,1.1288,-0.7713,0.0021,0.0410,-13.0800,14.7600,-40.0800,
7.840428,-0.1283,0.3524,1.1288,-0.7713,0.0021,0.0410,-13.0800,14.7600,-40.0800,
7.841600,0.0539,0.4074,1.5434,-0.7713,0.0021,0.0410,-13.0800,14.7600,-40.0800,
7.856697,0.0539,0.4074,1.5434,-0.3446,-0.1875,-0.0011,-13.0800,14.7600,-40.0800,
7.877937,0.0539,0.4074,1.5434,-0.1236,-0.1049,-0.1736,-13.0800,14.7600,-40.0800,
7.885619,0.0539,0.4074,1.5434,-0.1236,-0.1049,-0.1736,-13.4400,15.3000,-39.6600,
7.897853,0.0539,0.4074,1.5434,-0.0437,-0.0586,-0.2439,-13.4400,15.3000,-39.6600,
7.901973,0.0539,0.4074,1.5434,-0.0437,-0.0586,-0.2439,-13.4400,15.3000,-39.6600,
7.902907,0.2899,-0.2277,0.1776,-0.0437,-0.0586,-0.2439,-13.4400,15.3000,-39.6600,
7.918298,0.2899,-0.2277,0.1776,-0.0256,-0.1726,-0.2013,-13.4400,15.3000,-39.6600,
7.938903,0.2899,-0.2277,0.1776,-0.1395,-0.1374,-0.1427,-13.4400,15.3000,-39.6600,
7.947634,0.2899,-0.2277,0.1776,-0.1395,-0.1374,-0.1427,-13.6800,16.3200,-38.7000,
7.961175,0.2899,-0.2277,0.1776,0.3308,0.2818,-0.0527,-13.6800,16.3200,-38.7000,
7.964553,0.2899,-0.2277,0.1776,0.3308,0.2818,-0.0527,-13.6800,16.3200,-38.7000,
7.965547,-0.9098,0.3581,0.6497,0.3308,0.2818,-0.0527,-13.6800,16.3200,-38.7000,
7.979509,-0.9098,0.3581,0.6497,0.6163,0.4527,0.1044,-13.6800,16.3200,-38.7000,
8.000278,-0.9098,0.3581,0.6497,0.2855,0.3654,-0.0362,-13.6800,16.3200,-38.7000,
8.008612,-0.9098,0.3581,0.6497,0.2855,0.3654,-0.0362,-13.8600,17.2200,-38.4600,
8.020930,-0.9098,0.3581,0.6497,-0.2237,0.0751,-0.1901,-13.8600,17.2200,-38.4600,
8.025178,-0.9098,0.3581,0.6497,-0.2237,0.0751,-0.1901,-13.8600,17.2200,-38.4600,
8.026205,1.2319,-0.4267,-0.9189,-0.2237,0.0751,-0.1901,-13.8600,17.2200,-38.4600,
8.041781,1.2319,-0.4267,-0.9189,-0.2706,-0.1518,-0.2003,-13.8600,17.2200,-38.4600,
8.061128,1.2319,-0.4267,-0.9189,-0.1081,-0.0266,-0.0176,-13.8600,17.2200,-38.4600,
8.070875,1.2319,-0.4267,-0.9189,-0.1081,-0.0266,-0.0176,-13.6800,17.5200,-39.0000,
8.082206,1.2319,-0.4267,-0.9189,0.1459,0.3260,0.1864,-13.6800,17.5200,-39.0000,
8.086995,1.2319,-0.4267,-0.9189,0.1459,0.3260,0.1864,-13.6800,17.5200,-39.0000,
8.087979,-1.1585,0.1227,-0.5097,0.1459,0.3260,0.1864,-13.6800,17.5200,-39.0000,
8.103338,-1.1585,0.1227,-0.5097,0.2775,0.4554,0.3952,-13.6800,17.5200,-39.0000,
8.124302,-1.1585,0.1227,-0.5097,0.4096,0.5007,0.7105,-13.6800,17.5200,-39.0000,
8.132923,-1.1585,0.1227,-0.5097,0.4096,0.5007,0.7105,-13.3200,17.5800,-38.9400,
8.145767,-1.1585,0.1227,-0.5097,0.6471,0.9071,1.2575,-13.3200,17.5800,-38.9400,
8.147573,-1.1585,0.1227,-0.5097,0.6471,0.9071,1.2575,-13.3200,17.5800,-38.9400,
8.148417,-1.4088,-3.1862,-0.4843,0.6471,0.9071,1.2575,-13.3200,17.5800,-38.9400,
8.164916,-1.4088,-3.1862,-0.4843,0.5305,1.0205,1.5223,-13.3200,17.5800,-38.9400,
8.184689,-1.4088,-3.1862,-0.4843,0.4107,0.5625,1.6778,-13.3200,17.5800,-38.9400,
8.194644,-1.4088,-3.1862,-0.4843,0.4107,0.5625,1.6778,-13.1400,17.2800,-38.8200,
8.206133,-1.4088,-3.1862,-0.4843,0.3206,0.2637,1.7614,-13.1400,17.2800,-38.8200,
8.211225,-1.4088,-3.1862,-0.4843,0.3206,0.2637,1.7614,-13.1400,17.2800,-38.8200,
8.212687,1.3864,-0.5663,-0.6898,0.3206,0.2637,1.7614,-13.1400,17.2800,-38.8200,
8.227870,1.3864,-0.5663,-0.6898,0.1944,0.3856,2.0144,-13.1400,17.2800,-38.8200,
8.247071,1.3864,-0.5663,-0.6898,0.2152,0.5816,2.0703,-13.1400,17.2800,-38.8200,
8.255639,1.3864,-0.5663,-0.6898,0.2152,0.5816,2.0703,-11.5800,16.6800,-39.4800,
8.267672,1.3864,-0.5663,-0.6898,-0.3483,0.0021,1.9830,-11.5800,16.6800,-39.4800,
8.271653,1.3864,-0.5663,-0.6898,-0.3483,0.0021,1.9830,-11.5800,16.6800,-39.4800,
8.272598,1.8168,-0.5139,-0.2921,-0.3483,0.0021,1.9830,-11.5800,16.6800,-39.4800,
8.287432,1.8168,-0.5139,-0.2921,-0.1811,-0.8719,1.5121,-11.5800,16.6800,-39.4800,
8.309028,1.8168,-0.5139,-0.2921,-0.0250,-1.2666,1.1968,-11.5800,16.6800,-39.4800,
8.317470,1.8168,-0.5139,-0.2921,-0.0250,-1.2666,1.1968,-9.5400,16.1400,-39.6600,
8.329227,1.8168,-0.5139,-0.2921,-0.2445,-0.9390,0.9673,-9.5400,16.1400,-39.6600,
8.333594,1.8168,-0.5139,-0.2921,-0.2445,-0.9390,0.9673,-9.5400,16.1400,-39.6600,
8.334518,0.1309,2.8243,-1.5878,-0.2445,-0.9390,0.9673,-9.5400,16.1400,-39.6600,
8.349706,0.1309,2.8243,-1.5878,-0.2455,-0.1534,0.9161,-9.5400,16.1400,-39.6600,
8.369956,0.1309,2.8243,-1.5878,-0.1007,-0.1481,1.0653,-9.5400,16.1400,-39.6600,
8.378773,0.1309,2.8243,-1.5878,-0.1007,-0.1481,1.0653,-7.7400,16.2000,-40.0800,
8.390651,0.1309,2.8243,-1.5878,-0.1406,-0.2045,0.7340,-7.7400,16.2000,-40.0800,
8.394574,0.1309,2.8243,-1.5878,-0.1406,-0.2045,0.7340,-7.7400,16.2000,-40.0800,
8.395855,1.4164,0.4319,-0.4592,-0.1406,-0.2045,0.7340,-7.7400,16.2000,-40.0800,
8.411824,1.4164,0.4319,-0.4592,-0.1049,0.0096,0.2162,-7.7400,16.2000,-40.0800,
8.431431,1.4164,0.4319,-0.4592,-0.0698,-0.0447,0.0298,-7.7400,16.2000,-40.0800,
8.440264,1.4164,0.4319,-0.4592,-0.0698,-0.0447,0.0298,-5.4000,16.8000,-41.0400,
8.451737,1.4164,0.4319,-0.4592,-0.0123,-0.0847,0.0629,-5.4000,16.8000,-41.0400,
8.455438,1.4164,0.4319,-0.4592,-0.0123,-0.0847,0.0629,-5.4000,16.8000,-41.0400,
8.456399,0.8112,-0.7139,-0.4823,-0.0123,-0.0847,0.0629,-5.4000,16.8000,-41.0400,
8.472710,0.8112,-0.7139,-0.4823,0.0091,-0.1422,0.0788,-5.4000,16.8000,-41.0400,
8.494271,0.8112,-0.7139,-0.4823,0.0197,-0.0724,0.0474,-5.4000,16.8000,-41.0400,
8.501819,0.8112,-0.7139,-0.4823,0.0197,-0.0724,0.0474,-4.3800,17.6400,-41.2200,
8.513829,0.8112,-0.7139,-0.4823,0.0320,-0.0389,0.0719,-4.3800,17.6400,-41.2200,
8.517970,0.8112,-0.7139,-0.4823,0.0320,-0.0389,0.0719,-4.3800,17.6400,-41.2200,
8.518885,-0.4105,1.2297,0.1663,0.0320,-0.0389,0.0719,-4.3800,17.6400,-41.2200,
8.534221,-0.4105,1.2297,0.1663,-0.0186,0.0602,0.1550,-4.3800,17.6400,-41.2200,
8.554885,-0.4105,1.2297,0.1663,-0.1097,0.1140,0.1209,-4.3800,17.6400,-41.2200,
8.564139,-0.4105,1.2297,0.1663,-0.1097,0.1140,0.1209,-3.9000,18.5400,-41.2200,
8.575490,-0.4105,1.2297,0.1663,-0.2125,-0.0021,0.1039,-3.9000,18.5400,-41.2200,
8.580341,-0.4105,1.2297,0.1663,-0.2125,-0.0021,0.1039,-3.9000,18.5400,-41.2200,
8.582030,-0.1750,-0.1234,0.4232,-0.2125,-0.0021,0.1039,-3.9000,18.5400,-41.2200,
8.595381,-0.1750,-0.1234,0.4232,-0.3095,-0.2562,0.0788,-3.9000,18.5400,-41.2200,
8.616388,-0.1750,-0.1234,0.4232,-0.3425,-0.2099,0.0170,-3.9000,18.5400,-41.2200,
8.625222,-0.1750,-0.1234,0.4232,-0.3425,-0.2099,0.0170,-4.0200,18.6000,-40.8000,
8.636070,-0.1750,-0.1234,0.4232,-0.2136,-0.1534,0.0767,-4.0200,18.6000,-40.8000,
8.640245,-0.1750,-0.1234,0.4232,-0.2136,-0.1534,0.0767,-4.0200,18.6000,-40.8000,
8.641233,0.1171,0.1326,0.0839,-0.2136,-0.1534,0.0767,-4.0200,18.6000,-40.8000,
8.657416,0.1171,0.1326,0.0839,-0.0932,-0.2887,0.2147,-4.0200,18.6000,-40.8000,
8.678272,0.1171,0.1326,0.0839,-0.0655,-0.3515,0.2338,-4.0200,18.6000,-40.8000,
8.687029,0.1171,0.1326,0.0839,-0.0655,-0.3515,0.2338,-4.1400,18.3600,-39.9600,
8.697806,0.1171,0.1326,0.0839,-0.0772,-0.3015,0.0234,-4.1400,18.3600,-39.9600,
8.702217,0.1171,0.1326,0.0839,-0.0772,-0.3015,0.0234,-4.1400,18.3600,-39.9600,
8.703180,-0.1814,-0.5866,-0.1015,-0.0772,-0.3015,0.0234,-4.1400,18.3600,-39.9600,
8.718787,-0.1814,-0.5866,-0.1015,-0.1236,-0.2221,-0.0618,-4.1400,18.3600,-39.9600,
8.739724,-0.1814,-0.5866,-0.1015,-0.1273,-0.1481,-0.0282,-4.1400,18.3600,-39.9600,
8.747993,-0.1814,-0.5866,-0.1015,-0.1273,-0.1481,-0.0282,-4.2000,18.2400,-39.7800,
8.760636,-0.1814,-0.5866,-0.1015,-0.1188,-0.1246,0.0442,-4.2000,18.2400,-39.7800,
8.765193,-0.1814,-0.5866,-0.1015,-0.1188,-0.1246,0.0442,-4.2000,18.2400,-39.7800,
8.766329,0.0524,0.0539,-0.0401,-0.1188,-0.1246,0.0442,-4.2000,18.2400,-39.7800,
8.779535,0.0524,0.0539,-0.0401,-0.0655,-0.1395,0.0517,-4.2000,18.2400,-39.7800,
8.800282,0.0524,0.0539,-0.0401,-0.0352,-0.1358,0.0080,-4.2000,18.2400,-39.7800,
8.811403,0.0524,0.0539,-0.0401,-0.0352,-0.1358,0.0080,-4.6800,18.3000,-39.3000,
8.821451,0.0524,0.0539,-0.0401,-0.0591,-0.2040,-0.0783,-4.6800,18.3000,-39.3000,
8.824895,0.0524,0.0539,-0.0401,-0.0591,-0.2040,-0.0783,-4.6800,18.3000,-39.3000,
8.825949,-0.3233,-0.1715,0.0199,-0.0591,-0.2040,-0.0783,-4.6800,18.3000,-39.3000,
8.842175,-0.3233,-0.1715,0.0199,-0.0314,-0.1150,-0.0820,-4.6800,18.3000,-39.3000,
8.862692,-0.3233,-0.1715,0.0199,-0.0218,-0.0751,-0.0266,-4.6800,18.3000,-39.3000,
8.871421,-0.3233,-0.1715,0.0199,-0.0218,-0.0751,-0.0266,-4.8600,18.8400,-38.7600,
8.882862,-0.3233,-0.1715,0.0199,-0.0027,-0.0447,-0.0447,-4.8600,18.8400,-38.7600,
8.887147,-0.3233,-0.1715,0.0199,-0.0027,-0.0447,-0.0447,-4.8600,18.8400,-38.7600,
8.888050,0.0247,-0.0206,-0.4332,-0.0027,-0.0447,-0.0447,-4.8600,18.8400,-38.7600,
8.903247,0.0247,-0.0206,-0.4332,0.0437,0.0309,-0.0373,-4.8600,18.8400,-38.7600,
8.924059,0.0247,-0.0206,-0.4332,0.0469,0.0501,-0.0410,-4.8600,18.8400,-38.7600,
8.932452,0.0247,-0.0206,-0.4332,0.0469,0.0501,-0.0410,-5.4600,19.1400,-39.1800,
8.944171,0.0247,-0.0206,-0.4332,-0.0181,0.0272,-0.0687,-5.4600,19.1400,-39.1800,
8.948844,0.0247,-0.0206,-0.4332,-0.0181,0.0272,-0.0687,-5.4600,19.1400,-39.1800,
8.949984,-0.0023,-0.2323,-0.0110,-0.0181,0.0272,-0.0687,-5.4600,19.1400,-39.1800,
8.965978,-0.0023,-0.2323,-0.0110,-0.0405,0.0570,-0.1166,-5.4600,19.1400,-39.1800,
8.986057,-0.0023,-0.2323,-0.0110,0.0085,0.1017,-0.0879,-5.4600,19.1400,-39.1800,
8.995785,-0.0023,-0.2323,-0.0110,0.0085,0.1017,-0.0879,-5.6400,19.3200,-38.5800,
9.005983,-0.0023,-0.2323,-0.0110,0.0314,0.0543,-0.0096,-5.6400,19.3200,-38.5800,
9.009544,-0.0023,-0.2323,-0.0110,0.0314,0.0543,-0.0096,-5.6400,19.3200,-38.5800,
9.010914,-0.1422,0.2499,-0.0312,0.0314,0.0543,-0.0096,-5.6400,19.3200,-38.5800,
9.027996,-0.1422,0.2499,-0.0312,0.0192,0.0208,0.0000,-5.6400,19.3200,-38.5800,
9.047672,-0.1422,0.2499,-0.0312,0.0043,-0.0208,-0.0288,-5.6400,19.3200,-38.5800,
9.056206,-0.1422,0.2499,-0.0312,0.0043,-0.0208,-0.0288,-5.5200,18.9600,-38.8200,
9.067668,-0.1422,0.2499,-0.0312,-0.0096,-0.0352,-0.0501,-5.5200,18.9600,-38.8200,
9.072027,-0.1422,0.2499,-0.0312,-0.0096,-0.0352,-0.0501,-5.5200,18.9600,-38.8200,
9.073040,-0.0647,-0.0403,-0.0788,-0.0096,-0.0352,-0.0501,-5.5200,18.9600,-38.8200,
9.088554,-0.0647,-0.0403,-0.0788,-0.0245,-0.0138,-0.0650,-5.5200,18.9600,-38.8200,
9.108590,-0.0647,-0.0403,-0.0788,-0.0495,-0.0016,-0.0799,-5.5200,18.9600,-38.8200,
9.117777,-0.0647,-0.0403,-0.0788,-0.0495,-0.0016,-0.0799,-5.7600,18.8400,-39.3000,
9.130512,-0.0647,-0.0403,-0.0788,-0.0431,-0.0112,-0.0889,-5.7600,18.8400,-39.3000,
9.134016,-0.0647,-0.0403,-0.0788,-0.0431,-0.0112,-0.0889,-5.7600,18.8400,-39.3000,
9.135150,0.0655,-0.1548,-0.1272,-0.0431,-0.0112,-0.0889,-5.7600,18.8400,-39.3000,
9.150512,0.0655,-0.1548,-0.1272,-0.0389,0.0218,-0.1156,-5.7600,18.8400,-39.3000,
9.169941,0.0655,-0.1548,-0.1272,-0.0016,0.0900,-0.1065,-5.7600,18.8400,-39.3000,
9.179581,0.0655,-0.1548,-0.1272,-0.0016,0.0900,-0.1065,-5.5800,19.0800,-38.8200,
9.191465,0.0655,-0.1548,-0.1272,0.0128,0.0533,-0.0410,-5.5800,19.0800,-38.8200,
9.196662,0.0655,-0.1548,-0.1272,0.0128,0.0533,-0.0410,-5.5800,19.0800,-38.8200,
9.198442,0.0856,0.1841,-0.1251,0.0128,0.0533,-0.0410,-5.5800,19.0800,-38.8200,
9.211449,0.0856,0.1841,-0.1251,-0.0037,0.0117,-0.0096,-5.5800,19.0800,-38.8200,
9.232256,0.0856,0.1841,-0.1251,-0.0240,-0.0208,-0.0053,-5.5800,19.0800,-38.8200,
9.240807,0.0856,0.1841,-0.1251,-0.0240,-0.0208,-0.0053,-5.8200,19.2000,-39.3000,
9.252678,0.0856,0.1841,-0.1251,0.0117,-0.0565,-0.0160,-5.8200,19.2000,-39.3000,
9.256865,0.0856,0.1841,-0.1251,0.0117,-0.0565,-0.0160,-5.8200,19.2000,-39.3000,
9.258006,-0.0446,-0.2524,0.0760,0.0117,-0.0565,-0.0160,-5.8200,19.2000,-39.3000,
9.273221,-0.0446,-0.2524,0.0760,0.0405,-0.0517,-0.0218,-5.8200,19.2000,-39.3000,
9.294624,-0.0446,-0.2524,0.0760,0.0341,-0.0682,-0.0064,-5.8200,19.2000,-39.3000,
9.302528,-0.0446,-0.2524,0.0760,0.0341,-0.0682,-0.0064,-6.3000,19.7400,-39.0000,
9.315530,-0.0446,-0.2524,0.0760,0.0181,-0.0740,0.0240,-6.3000,19.7400,-39.0000,
9.317857,-0.0446,-0.2524,0.0760,0.0181,-0.0740,0.0240,-6.3000,19.7400,-39.0000,
9.318759,0.1956,-0.0798,-0.1120,0.0181,-0.0740,0.0240,-6.3000,19.7400,-39.0000,
9.334085,0.1956,-0.0798,-0.1120,0.0165,-0.0644,-0.0053,-6.3000,19.7400,-39.0000,
9.354795,0.1956,-0.0798,-0.1120,0.0357,-0.0660,-0.0197,-6.3000,19.7400,-39.0000,
9.363846,0.1956,-0.0798,-0.1120,0.0357,-0.0660,-0.0197,-5.9400,20.2200,-38.9400,
9.375217,0.1956,-0.0798,-0.1120,0.0511,-0.0783,-0.0032,-5.9400,20.2200,-38.9400,
9.379212,0.1956,-0.0798,-0.1120,0.0511,-0.0783,-0.0032,-5.9400,20.2200,-38.9400,
9.380683,-0.1487,0.0428,-0.0151,0.0511,-0.0783,-0.0032,-5.9400,20.2200,-38.9400,
9.395110,-0.1487,0.0428,-0.0151,0.0415,-0.0692,0.0314,-5.9400,20.2200,-38.9400,
9.416811,-0.1487,0.0428,-0.0151,0.0208,-0.0735,0.0565,-5.9400,20.2200,-38.9400,
9.425373,-0.1487,0.0428,-0.0151,0.0208,-0.0735,0.0565,-6.2400,19.8000,-39.4200,
9.437343,-0.1487,0.0428,-0.0151,0.0298,-0.0325,0.0357,-6.2400,19.8000,-39.4200,
9.441702,-0.1487,0.0428,-0.0151,0.0298,-0.0325,0.0357,-6.2400,19.8000,-39.4200,
9.442643,-0.0702,-0.0323,-0.1549,0.0298,-0.0325,0.0357,-6.2400,19.8000,-39.4200,
9.457570,-0.0702,-0.0323,-0.1549,0.0304,-0.0325,0.0442,-6.2400,19.8000,-39.4200,
9.477563,-0.0702,-0.0323,-0.1549,-0.0037,-0.0527,0.0533,-6.2400,19.8000,-39.4200,
9.487623,-0.0702,-0.0323,-0.1549,-0.0037,-0.0527,0.0533,-6.6000,19.5600,-39.3000,
9.498757,-0.0702,-0.0323,-0.1549,0.0011,-0.0389,0.0405,-6.6000,19.5600,-39.3000,
9.503441,-0.0702,-0.0323,-0.1549,0.0011,-0.0389,0.0405,-6.6000,19.5600,-39.3000,
9.504450,0.0238,-0.1637,-0.0871,0.0011,-0.0389,0.0405,-6.6000,19.5600,-39.3000,
9.520218,0.0238,-0.1637,-0.0871,0.0091,0.0831,-0.0378,-6.6000,19.5600,-39.3000,
9.538697,0.0238,-0.1637,-0.0871,0.0948,0.1747,-0.0655,-6.6000,19.5600,-39.3000,
9.547173,0.0238,-0.1637,-0.0871,0.0948,0.1747,-0.0655,-6.7800,19.3800,-39.0600,
9.559442,0.0238,-0.1637,-0.0871,0.0826,0.1055,-0.0373,-6.7800,19.3800,-39.0600,
9.564022,0.0238,-0.1637,-0.0871,0.0826,0.1055,-0.0373,-6.7800,19.3800,-39.0600,
9.564646,0.1799,0.0460,0.0562,0.0826,0.1055,-0.0373,-6.7800,19.3800,-39.0600,
9.579751,0.1799,0.0460,0.0562,0.0980,0.0426,0.0250,-6.7800,19.3800,-39.0600,
9.600552,0.1799,0.0460,0.0562,0.0623,0.0277,0.0362,-6.7800,19.3800,-39.0600,
9.608946,0.1799,0.0460,0.0562,0.0623,0.0277,0.0362,-7.0800,19.0200,-39.1800,
9.620925,0.1799,0.0460,0.0562,0.0458,-0.0352,0.0208,-7.0800,19.0200,-39.1800,
9.626394,0.1799,0.0460,0.0562,0.0458,-0.0352,0.0208,-7.0800,19.0200,-39.1800,
9.627054,0.0189,-0.2769,-0.1224,0.0458,-0.0352,0.0208,-7.0800,19.0200,-39.1800,
