
time,ax,ay,az,wx,wy,wz,Bx,By,Bz,
0.078562,0.0000,0.0000,0.0000,0.0000,0.0000,0.0000,0.0000,0.0000,0.0000,
0.113168,0.0000,0.0000,0.0000,0.0000,0.0000,0.0000,-21.4313,24.1875,29.9250,
0.139935,0.0000,0.0000,0.0000,0.0000,0.0000,0.0000,-21.4313,24.1875,29.9250,
0.141090,0.0000,0.0000,0.0000,0.1904,0.0377,0.0067,-21.4313,24.1875,29.9250,
0.174126,0.0000,0.0000,0.0000,0.1904,0.0377,0.0067,-21.3375,23.5688,30.2250,
0.177902,0.0000,0.0000,0.0000,0.1904,0.0377,0.0067,-21.3375,23.5688,30.2250,
0.197860,0.0000,0.0000,0.0000,-0.0971,-0.0234,0.0218,-21.3375,23.5688,30.2250,
0.198888,0.0000,0.0000,0.0000,-0.0971,-0.0234,0.0218,-21.3375,23.5688,30.2250,
0.233531,0.0000,0.0000,0.0000,-0.0971,-0.0234,0.0218,-21.3375,23.5312,30.6563,
0.239872,0.1659,0.0429,0.0462,-0.0971,-0.0234,0.0218,-21.3375,23.5312,30.6563,
0.258966,0.1659,0.0429,0.0462,0.0698,-0.0316,0.0186,-21.3375,23.5312,30.6563,
0.260042,0.1659,0.0429,0.0462,0.0698,-0.0316,0.0186,-21.3375,23.5312,30.6563,
0.293322,0.1659,0.0429,0.0462,0.0698,-0.0316,0.0186,-21.3188,23.3625,30.5250,
0.319782,0.1659,0.0429,0.0462,0.1840,-0.0454,0.0169,-21.3188,23.3625,30.5250,
0.320921,0.1659,0.0429,0.0462,0.1840,-0.0454,0.0169,-21.3188,23.3625,30.5250,
0.321547,0.0554,0.0067,-0.0393,0.1840,-0.0454,0.0169,-21.3188,23.3625,30.5250,
0.353760,0.0554,0.0067,-0.0393,0.1840,-0.0454,0.0169,-21.3750,23.3438,30.6563,
0.381494,0.0554,0.0067,-0.0393,0.1840,-0.0454,0.0169,-21.3750,23.3438,30.6563,
0.382341,0.0554,0.0067,-0.0393,0.2277,-0.0682,-0.0487,-21.3750,23.3438,30.6563,
0.383048,0.0280,-0.0001,-0.0435,0.2277,-0.0682,-0.0487,-21.3750,23.3438,30.6563,
0.413137,0.0280,-0.0001,-0.0435,0.2277,-0.0682,-0.0487,-21.2812,23.3813,30.5438,
0.442361,0.0280,-0.0001,-0.0435,-0.1471,-0.2591,-0.0666,-21.2812,23.3813,30.5438,
0.445211,0.0280,-0.0001,-0.0435,-0.1471,-0.2591,-0.0666,-21.2812,23.3813,30.5438,
0.446535,0.0612,0.0354,0.0613,-0.1471,-0.2591,-0.0666,-21.2812,23.3813,30.5438,
0.473315,0.0612,0.0354,0.0613,-0.1471,-0.2591,-0.0666,-21.2250,23.2875,30.6750,
0.502516,0.0612,0.0354,0.0613,-0.1471,-0.2591,-0.0666,-21.2250,23.2875,30.6750,
0.504604,0.0612,0.0354,0.0613,-0.4376,-0.4799,0.0176,-21.2250,23.2875,30.6750,
0.523683,0.1866,0.2020,0.1965,-0.4376,-0.4799,0.0176,-21.2250,23.2875,30.6750,
0.533140,0.1866,0.2020,0.1965,-0.4376,-0.4799,0.0176,-21.0188,23.2125,30.8063,
0.565470,0.1866,0.2020,0.1965,-0.4376,-0.4799,0.0176,-21.0188,23.2125,30.8063,
0.566516,0.1866,0.2020,0.1965,-0.3602,-1.9177,0.5330,-21.0188,23.2125,30.8063,
0.583753,-0.6285,0.4302,0.5252,-0.3602,-1.9177,0.5330,-21.0188,23.2125,30.8063,
0.595973,-0.6285,0.4302,0.5252,-0.3602,-1.9177,0.5330,-20.3438,22.9500,31.5750,
0.624919,-0.6285,0.4302,0.5252,-0.0534,-2.2357,0.3534,-20.3438,22.9500,31.5750,
0.626428,-0.6285,0.4302,0.5252,-0.0534,-2.2357,0.3534,-20.3438,22.9500,31.5750,
0.645199,-0.2252,0.7706,0.5514,-0.0534,-2.2357,0.3534,-20.3438,22.9500,31.5750,
0.653327,-0.2252,0.7706,0.5514,-0.0534,-2.2357,0.3534,-19.0312,22.9688,32.3063,
0.686004,-0.2252,0.7706,0.5514,-0.0534,-2.2357,0.3534,-19.0312,22.9688,32.3063,
0.687196,-0.2252,0.7706,0.5514,0.0084,-2.8598,0.2756,-19.0312,22.9688,32.3063,
0.706081,-0.2742,0.5450,0.7345,0.0084,-2.8598,0.2756,-19.0312,22.9688,32.3063,
0.712993,-0.2742,0.5450,0.7345,0.0084,-2.8598,0.2756,-16.8938,22.7812,33.2063,
0.747157,-0.2742,0.5450,0.7345,0.0084,-2.8598,0.2756,-16.8938,22.7812,33.2063,
0.749124,-0.2742,0.5450,0.7345,-0.2788,-2.9483,0.7674,-16.8938,22.7812,33.2063,
0.773608,-0.2742,0.5450,0.7345,-0.2788,-2.9483,0.7674,-13.7063,22.8000,34.1625,
0.786704,-1.3205,0.1683,0.8134,-0.2788,-2.9483,0.7674,-13.7063,22.8000,34.1625,
0.807358,-1.3205,0.1683,0.8134,0.1933,-2.6280,1.2409,-13.7063,22.8000,34.1625,
0.809231,-1.3205,0.1683,0.8134,0.1933,-2.6280,1.2409,-13.7063,22.8000,34.1625,
0.833271,-1.3205,0.1683,0.8134,0.1933,-2.6280,1.2409,-9.6938,22.7812,34.9313,
0.848789,-1.0005,0.7567,0.5966,0.1933,-2.6280,1.2409,-9.6938,22.7812,34.9313,
0.868463,-1.0005,0.7567,0.5966,0.1933,-2.6280,1.2409,-9.6938,22.7812,34.9313,
0.869892,-1.0005,0.7567,0.5966,0.5863,-2.1187,0.9360,-9.6938,22.7812,34.9313,
0.893419,-1.0005,0.7567,0.5966,0.5863,-2.1187,0.9360,-4.9125,22.7063,35.5125,
0.909216,0.6332,0.4559,-0.0891,0.5863,-2.1187,0.9360,-4.9125,22.7063,35.5125,
0.928880,0.6332,0.4559,-0.0891,0.5863,-2.1187,0.9360,-4.9125,22.7063,35.5125,
0.929830,0.6332,0.4559,-0.0891,0.4659,0.2116,0.0265,-4.9125,22.7063,35.5125,
0.953249,0.6332,0.4559,-0.0891,0.4659,0.2116,0.0265,-0.2812,22.8000,35.6625,
0.990896,0.6332,0.4559,-0.0891,-0.7280,1.4179,0.3755,-0.2812,22.8000,35.6625,
0.992923,0.6332,0.4559,-0.0891,-0.7280,1.4179,0.3755,-0.2812,22.8000,35.6625,
0.994143,1.7565,-0.7873,-0.5125,-0.7280,1.4179,0.3755,-0.2812,22.8000,35.6625,
1.012948,1.7565,-0.7873,-0.5125,-0.7280,1.4179,0.3755,4.0688,22.7812,36.1313,
1.051188,1.7565,-0.7873,-0.5125,-0.0538,0.0905,0.1987,4.0688,22.7812,36.1313,
1.052740,1.7565,-0.7873,-0.5125,-0.0538,0.0905,0.1987,4.0688,22.7812,36.1313,
1.053573,0.2489,-2.8735,-2.0936,-0.0538,0.0905,0.1987,4.0688,22.7812,36.1313,
1.074247,0.2489,-2.8735,-2.0936,-0.0538,0.0905,0.1987,7.9688,22.7438,36.2063,
1.111775,0.2489,-2.8735,-2.0936,-0.0538,0.0905,0.1987,7.9688,22.7438,36.2063,
1.113139,0.2489,-2.8735,-2.0936,0.5611,-0.4196,-0.0949,7.9688,22.7438,36.2063,
1.114317,0.3250,-0.8569,-1.0384,0.5611,-0.4196,-0.0949,7.9688,22.7438,36.2063,
1.134363,0.3250,-0.8569,-1.0384,0.5611,-0.4196,-0.0949,11.2313,22.7812,36.0188,
1.174654,0.3250,-0.8569,-1.0384,0.4574,-0.1204,0.2487,11.2313,22.7812,36.0188,
1.176481,0.3250,-0.8569,-1.0384,0.4574,-0.1204,0.2487,11.2313,22.7812,36.0188,
1.177328,0.2027,-0.0765,0.0929,0.4574,-0.1204,0.2487,11.2313,22.7812,36.0188,
1.194707,0.2027,-0.0765,0.0929,0.4574,-0.1204,0.2487,13.7625,22.8000,35.4750,
1.235254,0.2027,-0.0765,0.0929,0.3676,-0.2819,0.6828,13.7625,22.8000,35.4750,
1.236723,0.2027,-0.0765,0.0929,0.3676,-0.2819,0.6828,13.7625,22.8000,35.4750,
1.255086,0.2027,-0.0765,0.0929,0.3676,-0.2819,0.6828,15.5250,22.8750,34.8188,
1.256333,-0.9998,0.6640,0.1385,0.3676,-0.2819,0.6828,15.5250,22.8750,34.8188,
1.294745,-0.9998,0.6640,0.1385,-0.4400,-0.7100,0.6133,15.5250,22.8750,34.8188,
1.296366,-0.9998,0.6640,0.1385,-0.4400,-0.7100,0.6133,15.5250,22.8750,34.8188,
1.313557,-0.9998,0.6640,0.1385,-0.4400,-0.7100,0.6133,16.5188,22.9688,34.2750,
1.314371,0.2152,0.8386,0.5394,-0.4400,-0.7100,0.6133,16.5188,22.9688,34.2750,
1.354881,0.2152,0.8386,0.5394,-0.4400,-0.7100,0.6133,16.5188,22.9688,34.2750,
1.355985,0.2152,0.8386,0.5394,-0.8230,-0.0919,0.9687,16.5188,22.9688,34.2750,
1.373441,0.2152,0.8386,0.5394,-0.8230,-0.0919,0.9687,16.8750,22.6125,34.2188,
1.375074,0.7360,0.4106,0.0383,-0.8230,-0.0919,0.9687,16.8750,22.6125,34.2188,
1.415477,0.7360,0.4106,0.0383,-0.8561,2.2834,1.4994,16.8750,22.6125,34.2188,
1.416818,0.7360,0.4106,0.0383,-0.8561,2.2834,1.4994,16.8750,22.6125,34.2188,
1.432718,0.7360,0.4106,0.0383,-0.8561,2.2834,1.4994,17.1562,21.7688,34.6500,
1.456785,1.3596,0.4765,-0.7057,-0.8561,2.2834,1.4994,17.1562,21.7688,34.6500,
1.476514,1.3596,0.4765,-0.7057,-0.0647,0.8647,0.6148,17.1562,21.7688,34.6500,
1.478081,1.3596,0.4765,-0.7057,-0.0647,0.8647,0.6148,17.1562,21.7688,34.6500,
1.492650,1.3596,0.4765,-0.7057,-0.0647,0.8647,0.6148,17.4938,20.8313,35.0438,
1.516877,0.8275,2.3094,-0.1780,-0.0647,0.8647,0.6148,17.4938,20.8313,35.0438,
1.537525,0.8275,2.3094,-0.1780,0.3513,-0.1140,2.4280,17.4938,20.8313,35.0438,
1.538834,0.8275,2.3094,-0.1780,0.3513,-0.1140,2.4280,17.4938,20.8313,35.0438,
1.552809,0.8275,2.3094,-0.1780,0.3513,-0.1140,2.4280,17.8125,19.9313,35.1938,
1.578385,-0.9129,0.8345,1.2394,0.3513,-0.1140,2.4280,17.8125,19.9313,35.1938,
1.599409,-0.9129,0.8345,1.2394,-0.5479,-4.1464,3.2666,17.8125,19.9313,35.1938,
1.601503,-0.9129,0.8345,1.2394,-0.5479,-4.1464,3.2666,17.8125,19.9313,35.1938,
1.613217,-0.9129,0.8345,1.2394,-0.5479,-4.1464,3.2666,19.6875,18.0938,34.6500,
1.639819,-0.2440,-5.2412,-0.0598,-0.5479,-4.1464,3.2666,19.6875,18.0938,34.6500,
1.660009,-0.2440,-5.2412,-0.0598,-0.5479,-4.1464,3.2666,19.6875,18.0938,34.6500,
1.661052,-0.2440,-5.2412,-0.0598,0.3161,-3.3761,-0.1762,19.6875,18.0938,34.6500,
1.673767,-0.2440,-5.2412,-0.0598,0.3161,-3.3761,-0.1762,22.1813,16.4062,33.5813,
1.720234,-0.2440,-5.2412,-0.0598,0.3161,-3.3761,-0.1762,22.1813,16.4062,33.5813,
1.721607,-0.7679,-0.0146,-0.5470,0.3161,-3.3761,-0.1762,22.1813,16.4062,33.5813,
1.722809,-0.7679,-0.0146,-0.5470,-0.0457,2.0339,-0.3704,22.1813,16.4062,33.5813,
1.733080,-0.7679,-0.0146,-0.5470,-0.0457,2.0339,-0.3704,24.0563,14.7188,33.0375,
1.783149,-0.7679,-0.0146,-0.5470,-0.0457,2.0339,-0.3704,24.0563,14.7188,33.0375,
1.785592,-1.4023,-0.1085,-2.4388,-0.0457,2.0339,-0.3704,24.0563,14.7188,33.0375,
1.786752,-1.4023,-0.1085,-2.4388,-0.0967,0.2919,-0.1879,24.0563,14.7188,33.0375,
1.793688,-1.4023,-0.1085,-2.4388,-0.0967,0.2919,-0.1879,25.6125,13.0500,32.6250,
1.842307,-1.4023,-0.1085,-2.4388,-0.0822,-0.3561,0.1535,25.6125,13.0500,32.6250,
1.844213,-1.4023,-0.1085,-2.4388,-0.0822,-0.3561,0.1535,25.6125,13.0500,32.6250,
1.845046,0.6501,-0.0144,1.2503,-0.0822,-0.3561,0.1535,25.6125,13.0500,32.6250,
1.853415,0.6501,-0.0144,1.2503,-0.0822,-0.3561,0.1535,27.0750,11.5688,31.9125,
1.903592,0.6501,-0.0144,1.2503,-0.1173,-0.0292,-0.0594,27.0750,11.5688,31.9125,
1.904985,0.6501,-0.0144,1.2503,-0.1173,-0.0292,-0.0594,27.0750,11.5688,31.9125,
1.912076,0.6501,-0.0144,1.2503,-0.1173,-0.0292,-0.0594,28.7813,10.5750,30.9938,
1.924235,0.6108,-0.3994,-0.6494,-0.1173,-0.0292,-0.0594,28.7813,10.5750,30.9938,
1.966007,0.6108,-0.3994,-0.6494,-0.3786,-0.2992,-0.1834,28.7813,10.5750,30.9938,
1.967263,0.6108,-0.3994,-0.6494,-0.3786,-0.2992,-0.1834,28.7813,10.5750,30.9938,
1.974276,0.6108,-0.3994,-0.6494,-0.3786,-0.2992,-0.1834,30.6188,9.6938,29.7750,
1.984835,-0.5157,-0.1976,-0.4253,-0.3786,-0.2992,-0.1834,30.6188,9.6938,29.7750,
2.025473,-0.5157,-0.1976,-0.4253,-0.3882,-0.4068,-0.4431,30.6188,9.6938,29.7750,
2.026769,-0.5157,-0.1976,-0.4253,-0.3882,-0.4068,-0.4431,30.6188,9.6938,29.7750,
2.034464,-0.5157,-0.1976,-0.4253,-0.3882,-0.4068,-0.4431,32.5688,8.9062,28.6500,
2.046446,0.5300,-0.0027,-0.4270,-0.3882,-0.4068,-0.4431,32.5688,8.9062,28.6500,
2.086622,0.5300,-0.0027,-0.4270,0.2973,-0.7473,-0.0385,32.5688,8.9062,28.6500,
2.087943,0.5300,-0.0027,-0.4270,0.2973,-0.7473,-0.0385,32.5688,8.9062,28.6500,
2.094065,0.5300,-0.0027,-0.4270,0.2973,-0.7473,-0.0385,33.0750,8.9250,28.0500,
2.107642,0.0028,1.2789,1.6628,0.2973,-0.7473,-0.0385,33.0750,8.9250,28.0500,
2.147709,0.0028,1.2789,1.6628,0.6590,-0.5708,0.1099,33.0750,8.9250,28.0500,
2.148680,0.0028,1.2789,1.6628,0.6590,-0.5708,0.1099,33.0750,8.9250,28.0500,
2.153931,0.0028,1.2789,1.6628,0.6590,-0.5708,0.1099,33.1125,9.0375,27.9750,
2.190694,-0.7966,1.5729,0.3922,0.6590,-0.5708,0.1099,33.1125,9.0375,27.9750,
2.209781,-0.7966,1.5729,0.3922,0.6590,-0.5708,0.1099,33.1125,9.0375,27.9750,
2.210545,-0.7966,1.5729,0.3922,0.5356,0.2325,0.1131,33.1125,9.0375,27.9750,
2.213027,-0.7966,1.5729,0.3922,0.5356,0.2325,0.1131,33.5625,9.1688,27.5250,
2.249272,-1.6776,0.5892,-1.3170,0.5356,0.2325,0.1131,33.5625,9.1688,27.5250,
2.269639,-1.6776,0.5892,-1.3170,0.5356,0.2325,0.1131,33.5625,9.1688,27.5250,
2.270221,-1.6776,0.5892,-1.3170,0.4376,1.0831,0.3378,33.5625,9.1688,27.5250,
2.273723,-1.6776,0.5892,-1.3170,0.4376,1.0831,0.3378,33.9375,9.2438,27.2063,
2.312325,-1.4651,1.8184,-0.7795,0.4376,1.0831,0.3378,33.9375,9.2438,27.2063,
2.330092,-1.4651,1.8184,-0.7795,0.7482,-0.2431,-0.0317,33.9375,9.2438,27.2063,
2.331261,-1.4651,1.8184,-0.7795,0.7482,-0.2431,-0.0317,33.9375,9.2438,27.2063,
2.333721,-1.4651,1.8184,-0.7795,0.7482,-0.2431,-0.0317,34.0875,9.6562,26.9813,
2.370828,2.6678,-4.1703,0.2525,0.7482,-0.2431,-0.0317,34.0875,9.6562,26.9813,
2.390824,2.6678,-4.1703,0.2525,0.0772,-0.3795,0.1386,34.0875,9.6562,26.9813,
2.392023,2.6678,-4.1703,0.2525,0.0772,-0.3795,0.1386,34.0875,9.6562,26.9813,
2.392623,2.6678,-4.1703,0.2525,0.0772,-0.3795,0.1386,34.4250,10.0875,26.4938,
2.452911,2.6678,-4.1703,0.2525,0.2927,-0.4373,0.1838,34.4250,10.0875,26.4938,
2.454747,2.6678,-4.1703,0.2525,0.2927,-0.4373,0.1838,34.8188,10.5188,25.9688,
2.456025,2.6678,-4.1703,0.2525,0.2927,-0.4373,0.1838,34.8188,10.5188,25.9688,
2.456944,2.1336,0.8604,-0.2728,0.2927,-0.4373,0.1838,34.8188,10.5188,25.9688,
2.512726,2.1336,0.8604,-0.2728,0.2910,0.4356,-0.0687,34.8188,10.5188,25.9688,
2.513852,2.1336,0.8604,-0.2728,0.2910,0.4356,-0.0687,34.8188,10.5188,25.9688,
2.514449,-0.9421,-0.2485,0.1053,0.2910,0.4356,-0.0687,34.8188,10.5188,25.9688,
2.515086,-0.9421,-0.2485,0.1053,0.2910,0.4356,-0.0687,35.2125,11.0250,25.5188,
2.574544,-0.9421,-0.2485,0.1053,0.2910,0.4356,-0.0687,35.2313,11.3813,25.3500,
2.575794,-1.8125,0.0725,-1.0880,0.2910,0.4356,-0.0687,35.2313,11.3813,25.3500,
2.576383,-1.8125,0.0725,-1.0880,-0.1553,0.1249,0.4003,35.2313,11.3813,25.3500,
2.577052,-1.8125,0.0725,-1.0880,-0.1553,0.1249,0.4003,35.2313,11.3813,25.3500,
2.635603,-1.8125,0.0725,-1.0880,-0.1553,0.1249,0.4003,35.2313,11.5688,25.2000,
2.637442,-1.8125,0.0725,-1.0880,0.7759,-0.7434,0.2189,35.2313,11.5688,25.2000,
2.640219,-1.8125,0.0725,-1.0880,0.7759,-0.7434,0.2189,35.2313,11.5688,25.2000,
2.655427,0.1025,0.5931,2.2838,0.7759,-0.7434,0.2189,35.2313,11.5688,25.2000,
2.695711,0.1025,0.5931,2.2838,0.7759,-0.7434,0.2189,35.1000,11.6625,24.9938,
2.696945,0.1025,0.5931,2.2838,0.3768,0.4583,0.1479,35.1000,11.6625,24.9938,
2.697800,0.1025,0.5931,2.2838,0.3768,0.4583,0.1479,35.1000,11.6625,24.9938,
2.716524,1.3564,-0.2718,0.6704,0.3768,0.4583,0.1479,35.1000,11.6625,24.9938,
2.753797,1.3564,-0.2718,0.6704,0.3768,0.4583,0.1479,35.2500,11.8875,24.5438,
2.755202,1.3564,-0.2718,0.6704,0.4071,-0.0411,0.3027,35.2500,11.8875,24.5438,
2.755821,1.3564,-0.2718,0.6704,0.4071,-0.0411,0.3027,35.2500,11.8875,24.5438,
2.776691,-0.9106,0.3978,-1.2778,0.4071,-0.0411,0.3027,35.2500,11.8875,24.5438,
2.813503,-0.9106,0.3978,-1.2778,0.4071,-0.0411,0.3027,35.7188,12.0563,24.1500,
2.817225,-0.9106,0.3978,-1.2778,0.4390,-0.0895,0.3240,35.7188,12.0563,24.1500,
2.818399,-0.9106,0.3978,-1.2778,0.4390,-0.0895,0.3240,35.7188,12.0563,24.1500,
2.837654,0.0825,0.0816,-0.0689,0.4390,-0.0895,0.3240,35.7188,12.0563,24.1500,
2.874713,0.0825,0.0816,-0.0689,0.4390,-0.0895,0.3240,35.9813,12.0938,23.7938,
2.878222,0.0825,0.0816,-0.0689,0.5175,-0.0451,0.3031,35.9813,12.0938,23.7938,
2.879051,0.0825,0.0816,-0.0689,0.5175,-0.0451,0.3031,35.9813,12.0938,23.7938,
2.918951,0.7868,-0.2746,-0.1653,0.5175,-0.0451,0.3031,35.9813,12.0938,23.7938,
2.934290,0.7868,-0.2746,-0.1653,0.5175,-0.0451,0.3031,36.1500,12.1875,23.4188,
2.938940,0.7868,-0.2746,-0.1653,0.6300,-0.1193,0.3872,36.1500,12.1875,23.4188,
2.940097,0.7868,-0.2746,-0.1653,0.6300,-0.1193,0.3872,36.1500,12.1875,23.4188,
2.980214,-0.1660,0.1115,-0.9291,0.6300,-0.1193,0.3872,36.1500,12.1875,23.4188,
2.993398,-0.1660,0.1115,-0.9291,0.6300,-0.1193,0.3872,36.1125,12.0750,22.9500,
2.999987,-0.1660,0.1115,-0.9291,0.6559,-0.0831,0.4429,36.1125,12.0750,22.9500,
3.001215,-0.1660,0.1115,-0.9291,0.6559,-0.0831,0.4429,36.1125,12.0750,22.9500,
3.041390,0.8365,-0.4743,-0.7985,0.6559,-0.0831,0.4429,36.1125,12.0750,22.9500,
3.053285,0.8365,-0.4743,-0.7985,0.6559,-0.0831,0.4429,36.5063,12.2063,22.3688,
3.060741,0.8365,-0.4743,-0.7985,0.8057,-0.1438,0.4503,36.5063,12.2063,22.3688,
3.061560,0.8365,-0.4743,-0.7985,0.8057,-0.1438,0.4503,36.5063,12.2063,22.3688,
3.112483,0.8365,-0.4743,-0.7985,0.8057,-0.1438,0.4503,36.8063,12.3000,21.8250,
3.121433,0.8365,-0.4743,-0.7985,0.9449,-0.1232,0.6637,36.8063,12.3000,21.8250,
3.122299,0.8365,-0.4743,-0.7985,0.9449,-0.1232,0.6637,36.8063,12.3000,21.8250,
3.122776,0.6176,-0.0242,-1.4393,0.9449,-0.1232,0.6637,36.8063,12.3000,21.8250,
3.175164,0.6176,-0.0242,-1.4393,0.9449,-0.1232,0.6637,37.3313,12.3000,21.1688,
3.183166,0.6176,-0.0242,-1.4393,0.9345,-0.4160,0.6673,37.3313,12.3000,21.1688,
3.184105,0.6176,-0.0242,-1.4393,0.9345,-0.4160,0.6673,37.3313,12.3000,21.1688,
3.184685,0.9307,-0.2475,-1.1257,0.9345,-0.4160,0.6673,37.3313,12.3000,21.1688,
3.235506,0.9307,-0.2475,-1.1257,0.9345,-0.4160,0.6673,37.8938,12.3000,20.3250,
3.243925,0.9307,-0.2475,-1.1257,1.1028,-0.0356,0.8959,37.8938,12.3000,20.3250,
3.245083,0.9307,-0.2475,-1.1257,1.1028,-0.0356,0.8959,37.8938,12.3000,20.3250,
3.245760,1.1588,-0.8994,-2.9104,1.1028,-0.0356,0.8959,37.8938,12.3000,20.3250,
3.293557,1.1588,-0.8994,-2.9104,1.1028,-0.0356,0.8959,38.3625,11.8688,19.4625,
3.305429,1.1588,-0.8994,-2.9104,1.1028,-0.0356,0.8959,38.3625,11.8688,19.4625,
3.306995,1.2918,0.7604,-1.3507,1.1028,-0.0356,0.8959,38.3625,11.8688,19.4625,
3.308569,1.2918,0.7604,-1.3507,1.0768,-0.2730,0.9406,38.3625,11.8688,19.4625,
3.353796,1.2918,0.7604,-1.3507,1.0768,-0.2730,0.9406,38.7375,11.4938,18.7688,
3.364340,1.2918,0.7604,-1.3507,1.2121,0.3486,1.1132,38.7375,11.4938,18.7688,
3.365139,1.2918,0.7604,-1.3507,1.2121,0.3486,1.1132,38.7375,11.4938,18.7688,
3.384894,1.4276,-0.5082,-4.1781,1.2121,0.3486,1.1132,38.7375,11.4938,18.7688,
3.413439,1.4276,-0.5082,-4.1781,1.2121,0.3486,1.1132,39.0750,10.9313,18.1688,
3.426994,1.4276,-0.5082,-4.1781,1.9279,0.1080,1.0717,39.0750,10.9313,18.1688,
3.428429,1.4276,-0.5082,-4.1781,1.9279,0.1080,1.0717,39.0750,10.9313,18.1688,
3.446880,1.2079,2.0803,-2.9147,1.9279,0.1080,1.0717,39.0750,10.9313,18.1688,
3.474079,1.2079,2.0803,-2.9147,1.9279,0.1080,1.0717,39.4875,10.3688,17.7563,
3.487248,1.2079,2.0803,-2.9147,1.9279,0.1080,1.0717,39.4875,10.3688,17.7563,
3.488492,1.2079,2.0803,-2.9147,0.5302,0.5457,0.6743,39.4875,10.3688,17.7563,
3.508086,4.3464,-2.6757,-7.2191,0.5302,0.5457,0.6743,39.4875,10.3688,17.7563,
3.535989,4.3464,-2.6757,-7.2191,0.5302,0.5457,0.6743,39.7500,9.6000,17.4000,
3.549024,4.3464,-2.6757,-7.2191,-0.4738,-2.5227,1.0261,39.7500,9.6000,17.4000,
3.550582,4.3464,-2.6757,-7.2191,-0.4738,-2.5227,1.0261,39.7500,9.6000,17.4000,
3.588915,2.6756,0.9791,-3.1344,-0.4738,-2.5227,1.0261,39.7500,9.6000,17.4000,
3.593687,2.6756,0.9791,-3.1344,-0.4738,-2.5227,1.0261,40.2750,8.4938,16.2000,
3.609571,2.6756,0.9791,-3.1344,-0.4738,-2.5227,1.0261,40.2750,8.4938,16.2000,
3.610456,2.6756,0.9791,-3.1344,5.4597,-5.2018,0.9847,40.2750,8.4938,16.2000,
3.650290,-5.8500,2.0016,10.8285,5.4597,-5.2018,0.9847,40.2750,8.4938,16.2000,
3.653421,-5.8500,2.0016,10.8285,5.4597,-5.2018,0.9847,40.7812,7.2375,14.4000,
3.669614,-5.8500,2.0016,10.8285,0.9108,0.5108,0.0525,40.7812,7.2375,14.4000,
3.670837,-5.8500,2.0016,10.8285,0.9108,0.5108,0.0525,40.7812,7.2375,14.4000,
3.712325,-4.8896,10.0677,17.0111,0.9108,0.5108,0.0525,40.7812,7.2375,14.4000,
3.714631,-4.8896,10.0677,17.0111,0.9108,0.5108,0.0525,41.0625,6.0375,12.5813,
3.731214,-4.8896,10.0677,17.0111,0.2871,-0.1419,0.0698,41.0625,6.0375,12.5813,
3.732916,-4.8896,10.0677,17.0111,0.2871,-0.1419,0.0698,41.0625,6.0375,12.5813,
3.771207,0.9524,0.6210,0.5426,0.2871,-0.1419,0.0698,41.0625,6.0375,12.5813,
3.773089,0.9524,0.6210,0.5426,0.2871,-0.1419,0.0698,41.4375,5.1562,10.6875,
3.791430,0.9524,0.6210,0.5426,0.2871,-0.1419,0.0698,41.4375,5.1562,10.6875,
3.792769,0.9524,0.6210,0.5426,0.3293,0.1562,0.2182,41.4375,5.1562,10.6875,
3.835642,0.9524,0.6210,0.5426,0.3293,0.1562,0.2182,41.7750,4.2563,8.8875,
3.853130,0.9524,0.6210,0.5426,0.2831,0.5613,0.1358,41.7750,4.2563,8.8875,
3.854557,-0.7529,-2.4303,-0.4552,0.2831,0.5613,0.1358,41.7750,4.2563,8.8875,
3.855215,-0.7529,-2.4303,-0.4552,0.2831,0.5613,0.1358,41.7750,4.2563,8.8875,
3.894150,-0.7529,-2.4303,-0.4552,0.2831,0.5613,0.1358,42.1688,3.3188,7.2750,
3.914244,-0.7529,-2.4303,-0.4552,0.0350,-0.0897,-0.0385,42.1688,3.3188,7.2750,
3.915674,-0.7529,-2.4303,-0.4552,0.0350,-0.0897,-0.0385,42.1688,3.3188,7.2750,
3.916289,2.6806,2.0687,-0.8465,0.0350,-0.0897,-0.0385,42.1688,3.3188,7.2750,
3.955075,2.6806,2.0687,-0.8465,0.0350,-0.0897,-0.0385,42.6750,2.6625,5.3813,
3.975048,2.6806,2.0687,-0.8465,0.0350,-0.0897,-0.0385,42.6750,2.6625,5.3813,
3.976667,2.6806,2.0687,-0.8465,-0.3466,-0.2425,-0.0474,42.6750,2.6625,5.3813,
3.977564,0.9590,2.6625,-1.1997,-0.3466,-0.2425,-0.0474,42.6750,2.6625,5.3813,
4.012002,0.9590,2.6625,-1.1997,-0.3466,-0.2425,-0.0474,42.9375,1.8938,3.5813,
4.038137,0.9590,2.6625,-1.1997,-0.3392,-0.0288,-0.0736,42.9375,1.8938,3.5813,
4.040154,0.9590,2.6625,-1.1997,-0.3392,-0.0288,-0.0736,42.9375,1.8938,3.5813,
4.055799,0.5325,0.9906,-0.4463,-0.3392,-0.0288,-0.0736,42.9375,1.8938,3.5813,
4.073405,0.5325,0.9906,-0.4463,-0.3392,-0.0288,-0.0736,42.9563,1.6500,2.7750,
4.094985,0.5325,0.9906,-0.4463,-0.0321,-0.0021,-0.0055,42.9563,1.6500,2.7750,
4.095911,0.5325,0.9906,-0.4463,-0.0321,-0.0021,-0.0055,42.9563,1.6500,2.7750,
4.116199,0.3808,0.4757,0.2605,-0.0321,-0.0021,-0.0055,42.9563,1.6500,2.7750,
4.134446,0.3808,0.4757,0.2605,-0.0321,-0.0021,-0.0055,42.6188,1.4062,2.7188,
4.156729,0.3808,0.4757,0.2605,-0.0321,-0.0021,-0.0055,42.6188,1.4062,2.7188,
4.158506,0.3808,0.4757,0.2605,0.0449,0.0060,0.0084,42.6188,1.4062,2.7188,
4.176983,0.3312,0.3335,0.1203,0.0449,0.0060,0.0084,42.6188,1.4062,2.7188,
4.193429,0.3312,0.3335,0.1203,0.0449,0.0060,0.0084,42.5438,1.2938,2.8688,
4.217908,0.3312,0.3335,0.1203,-0.0197,-0.0071,-0.0108,42.5438,1.2938,2.8688,
4.219224,0.3312,0.3335,0.1203,-0.0197,-0.0071,-0.0108,42.5438,1.2938,2.8688,
4.238581,0.4213,0.3702,-0.4772,-0.0197,-0.0071,-0.0108,42.5438,1.2938,2.8688,
4.253737,0.4213,0.3702,-0.4772,-0.0197,-0.0071,-0.0108,42.4500,1.0875,3.0750,
4.280183,0.4213,0.3702,-0.4772,-0.0276,-0.0145,-0.0083,42.4500,1.0875,3.0750,
4.282332,0.4213,0.3702,-0.4772,-0.0276,-0.0145,-0.0083,42.4500,1.0875,3.0750,
4.314037,0.4213,0.3702,-0.4772,-0.0276,-0.0145,-0.0083,42.4125,0.8813,3.1688,
4.320014,0.3135,0.3186,-0.1554,-0.0276,-0.0145,-0.0083,42.4125,0.8813,3.1688,
4.339474,0.3135,0.3186,-0.1554,0.0076,-0.0117,0.0027,42.4125,0.8813,3.1688,
4.340981,0.3135,0.3186,-0.1554,0.0076,-0.0117,0.0027,42.4125,0.8813,3.1688,
4.374258,0.3135,0.3186,-0.1554,0.0076,-0.0117,0.0027,42.4500,0.9563,2.9813,
4.381229,0.2504,0.2603,-0.0923,0.0076,-0.0117,0.0027,42.4500,0.9563,2.9813,
4.401050,0.2504,0.2603,-0.0923,0.0076,-0.0117,0.0027,42.4500,0.9563,2.9813,
4.402842,0.2504,0.2603,-0.0923,0.0161,-0.0111,0.0024,42.4500,0.9563,2.9813,
4.435883,0.2504,0.2603,-0.0923,0.0161,-0.0111,0.0024,42.4313,0.8625,3.0375,
4.442860,0.2679,0.2251,-0.1447,0.0161,-0.0111,0.0024,42.4313,0.8625,3.0375,
4.461237,0.2679,0.2251,-0.1447,0.0161,-0.0111,0.0024,42.4313,0.8625,3.0375,
4.462184,0.2679,0.2251,-0.1447,0.0233,-0.0149,0.0067,42.4313,0.8625,3.0375,
4.493667,0.2679,0.2251,-0.1447,0.0233,-0.0149,0.0067,42.6188,0.9375,3.2438,
4.521759,0.2679,0.2251,-0.1447,0.0095,-0.0103,0.0035,42.6188,0.9375,3.2438,
4.523501,0.2679,0.2251,-0.1447,0.0095,-0.0103,0.0035,42.6188,0.9375,3.2438,
4.524445,0.2303,0.2106,-0.1557,0.0095,-0.0103,0.0035,42.6188,0.9375,3.2438,
4.553875,0.2303,0.2106,-0.1557,0.0095,-0.0103,0.0035,42.7500,0.9000,3.4125,
4.584194,0.2303,0.2106,-0.1557,0.0112,-0.0107,0.0020,42.7500,0.9000,3.4125,
4.586721,0.2303,0.2106,-0.1557,0.0112,-0.0107,0.0020,42.7500,0.9000,3.4125,
4.588097,0.2133,0.1949,-0.1367,0.0112,-0.0107,0.0020,42.7500,0.9000,3.4125,
4.613369,0.2133,0.1949,-0.1367,0.0112,-0.0107,0.0020,42.9750,1.0875,3.3750,
4.644446,0.2133,0.1949,-0.1367,0.0052,-0.0170,0.0020,42.9750,1.0875,3.3750,
4.646221,0.1865,0.1730,-0.1258,0.0052,-0.0170,0.0020,42.9750,1.0875,3.3750,
4.647092,0.1865,0.1730,-0.1258,0.0052,-0.0170,0.0020,42.9750,1.0875,3.3750,
4.674599,0.1865,0.1730,-0.1258,0.0052,-0.0170,0.0020,42.9938,1.0875,3.2813,
4.707423,0.1865,0.1730,-0.1258,0.0016,-0.0011,0.0009,42.9938,1.0875,3.2813,
4.709535,0.1865,0.1730,-0.1258,0.0016,-0.0011,0.0009,42.9938,1.0875,3.2813,
4.710411,0.1698,0.1549,-0.0988,0.0016,-0.0011,0.0009,42.9938,1.0875,3.2813,
4.736528,0.1698,0.1549,-0.0988,0.0016,-0.0011,0.0009,43.0500,1.0875,3.3750,
4.766060,0.1698,0.1549,-0.0988,-0.0023,0.0049,0.0005,43.0500,1.0875,3.3750,
4.768044,0.1698,0.1549,-0.0988,-0.0023,0.0049,0.0005,43.0500,1.0875,3.3750,
4.786422,0.1547,0.1356,-0.1000,-0.0023,0.0049,0.0005,43.0500,1.0875,3.3750,
4.793250,0.1547,0.1356,-0.1000,-0.0023,0.0049,0.0005,43.1813,1.2750,3.3750,
4.827124,0.1547,0.1356,-0.1000,-0.0101,0.0149,-0.0016,43.1813,1.2750,3.3750,
4.829103,0.1547,0.1356,-0.1000,-0.0101,0.0149,-0.0016,43.1813,1.2750,3.3750,
4.847746,0.1439,0.1270,-0.0697,-0.0101,0.0149,-0.0016,43.1813,1.2750,3.3750,
4.853877,0.1439,0.1270,-0.0697,-0.0101,0.0149,-0.0016,43.1250,1.1813,3.6938,
4.887822,0.1439,0.1270,-0.0697,-0.0161,0.0252,-0.0029,43.1250,1.1813,3.6938,
4.889669,0.1439,0.1270,-0.0697,-0.0161,0.0252,-0.0029,43.1250,1.1813,3.6938,
4.908610,0.1471,0.1187,-0.0785,-0.0161,0.0252,-0.0029,43.1250,1.1813,3.6938,
4.913387,0.1471,0.1187,-0.0785,-0.0161,0.0252,-0.0029,42.9938,1.1438,3.6563,
4.949415,0.1471,0.1187,-0.0785,-0.0161,0.0252,-0.0029,42.9938,1.1438,3.6563,
4.951940,0.1471,0.1187,-0.0785,-0.0233,0.0145,-0.0059,42.9938,1.1438,3.6563,
4.974324,0.1471,0.1187,-0.0785,-0.0233,0.0145,-0.0059,42.8250,1.0875,3.5438,
4.989952,0.1121,0.1144,-0.0763,-0.0233,0.0145,-0.0059,42.8250,1.0875,3.5438,
5.010250,0.1121,0.1144,-0.0763,-0.0233,0.0145,-0.0059,42.8250,1.0875,3.5438,
5.011835,0.1121,0.1144,-0.0763,-0.0683,0.0369,-0.0101,42.8250,1.0875,3.5438,
5.036756,0.1121,0.1144,-0.0763,-0.0683,0.0369,-0.0101,42.7313,1.3125,3.4875,
5.050810,0.1146,0.1307,-0.0631,-0.0683,0.0369,-0.0101,42.7313,1.3125,3.4875,
5.070794,0.1146,0.1307,-0.0631,-0.1514,0.2016,-0.0268,42.7313,1.3125,3.4875,
5.072979,0.1146,0.1307,-0.0631,-0.1514,0.2016,-0.0268,42.7313,1.3125,3.4875,
5.093791,0.1146,0.1307,-0.0631,-0.1514,0.2016,-0.0268,42.7313,1.1625,3.5438,
5.112116,0.2415,0.1985,0.0519,-0.1514,0.2016,-0.0268,42.7313,1.1625,3.5438,
5.131622,0.2415,0.1985,0.0519,-0.1514,0.2016,-0.0268,42.7313,1.1625,3.5438,
5.133300,0.2415,0.1985,0.0519,-0.3764,0.3575,-0.0325,42.7313,1.1625,3.5438,
5.153626,0.2415,0.1985,0.0519,-0.3764,0.3575,-0.0325,42.7500,0.9938,3.9375,
5.172745,0.2997,0.3821,0.2363,-0.3764,0.3575,-0.0325,42.7500,0.9938,3.9375,
5.193160,0.2997,0.3821,0.2363,-0.3764,0.3575,-0.0325,42.7500,0.9938,3.9375,
5.194403,0.2997,0.3821,0.2363,-1.3690,0.8406,0.2573,42.7500,0.9938,3.9375,
5.213706,0.2997,0.3821,0.2363,-1.3690,0.8406,0.2573,42.6750,0.8063,4.2563,
5.255820,0.2997,0.3821,0.2363,-1.3690,0.8406,0.2573,42.6750,0.8063,4.2563,
5.257781,0.4864,0.6549,0.9463,-1.3690,0.8406,0.2573,42.6750,0.8063,4.2563,
5.258968,0.4864,0.6549,0.9463,-3.1987,1.2557,-0.4581,42.6750,0.8063,4.2563,
5.274095,0.4864,0.6549,0.9463,-3.1987,1.2557,-0.4581,42.5063,0.3375,5.1375,
5.315137,0.4864,0.6549,0.9463,-3.1280,3.3015,-1.3914,42.5063,0.3375,5.1375,
5.318245,0.4864,0.6549,0.9463,-3.1280,3.3015,-1.3914,42.5063,0.3375,5.1375,
5.319158,1.2427,1.5265,2.3806,-3.1280,3.3015,-1.3914,42.5063,0.3375,5.1375,
5.336381,1.2427,1.5265,2.3806,-3.1280,3.3015,-1.3914,42.2438,0.2063,6.7313,
5.375045,1.2427,1.5265,2.3806,-3.1280,3.3015,-1.3914,42.2438,0.2063,6.7313,
5.376457,-0.4701,-0.6158,1.7590,-3.1280,3.3015,-1.3914,42.2438,0.2063,6.7313,
5.377455,-0.4701,-0.6158,1.7590,-0.5703,-0.1044,-0.8812,42.2438,0.2063,6.7313,
5.394169,-0.4701,-0.6158,1.7590,-0.5703,-0.1044,-0.8812,41.7563,0.2063,8.4938,
5.437414,-0.4701,-0.6158,1.7590,-0.5703,-0.1044,-0.8812,41.7563,0.2063,8.4938,
5.440217,-0.4701,-0.6158,1.7590,-1.1685,1.6323,-1.0577,41.7563,0.2063,8.4938,
5.454351,-0.4701,-0.6158,1.7590,-1.1685,1.6323,-1.0577,41.1188,0.1500,10.6688,
5.457067,-1.5440,1.3621,1.3109,-1.1685,1.6323,-1.0577,41.1188,0.1500,10.6688,
5.497171,-1.5440,1.3621,1.3109,-1.1043,0.5151,-0.7417,41.1188,0.1500,10.6688,
5.500950,-1.5440,1.3621,1.3109,-1.1043,0.5151,-0.7417,41.1188,0.1500,10.6688,
5.513225,-1.5440,1.3621,1.3109,-1.1043,0.5151,-0.7417,40.2938,0.0938,13.0688,
5.518111,-0.4255,1.7634,0.9883,-1.1043,0.5151,-0.7417,40.2938,0.0938,13.0688,
5.557847,-0.4255,1.7634,0.9883,-1.0159,0.2141,-0.5220,40.2938,0.0938,13.0688,
5.559052,-0.4255,1.7634,0.9883,-1.0159,0.2141,-0.5220,40.2938,0.0938,13.0688,
5.573525,-0.4255,1.7634,0.9883,-1.0159,0.2141,-0.5220,39.5813,0.1875,15.5813,
5.578001,0.5874,2.1659,-0.0255,-1.0159,0.2141,-0.5220,39.5813,0.1875,15.5813,
5.618797,0.5874,2.1659,-0.0255,-0.9264,-0.4973,-0.4461,39.5813,0.1875,15.5813,
5.621073,0.5874,2.1659,-0.0255,-0.9264,-0.4973,-0.4461,39.5813,0.1875,15.5813,
5.635935,0.5874,2.1659,-0.0255,-0.9264,-0.4973,-0.4461,38.9250,0.3375,17.6438,
5.638120,0.4559,1.5759,-0.2023,-0.9264,-0.4973,-0.4461,38.9250,0.3375,17.6438,
5.680024,0.4559,1.5759,-0.2023,-1.5742,-0.3163,-0.4037,38.9250,0.3375,17.6438,
5.681930,0.4559,1.5759,-0.2023,-1.5742,-0.3163,-0.4037,38.9250,0.3375,17.6438,
5.693885,0.4559,1.5759,-0.2023,-1.5742,-0.3163,-0.4037,38.4000,0.4688,19.6313,
5.719992,0.1897,-0.1037,-0.7087,-1.5742,-0.3163,-0.4037,38.4000,0.4688,19.6313,
5.740874,0.1897,-0.1037,-0.7087,-2.1363,-0.0153,-0.6515,38.4000,0.4688,19.6313,
5.742525,0.1897,-0.1037,-0.7087,-2.1363,-0.0153,-0.6515,38.4000,0.4688,19.6313,
5.754458,0.1897,-0.1037,-0.7087,-2.1363,-0.0153,-0.6515,37.9125,0.5438,21.0188,
5.781339,-1.1215,1.1874,-0.0583,-2.1363,-0.0153,-0.6515,37.9125,0.5438,21.0188,
5.802313,-1.1215,1.1874,-0.0583,-1.5362,0.5187,-0.6505,37.9125,0.5438,21.0188,
5.804941,-1.1215,1.1874,-0.0583,-1.5362,0.5187,-0.6505,37.9125,0.5438,21.0188,
5.813818,-1.1215,1.1874,-0.0583,-1.5362,0.5187,-0.6505,37.7063,0.5438,21.7875,
5.842627,0.2546,1.0159,-0.6713,-1.5362,0.5187,-0.6505,37.7063,0.5438,21.7875,
5.862380,0.2546,1.0159,-0.6713,-1.1635,0.2077,-0.8766,37.7063,0.5438,21.7875,
5.864473,0.2546,1.0159,-0.6713,-1.1635,0.2077,-0.8766,37.7063,0.5438,21.7875,
5.874606,0.2546,1.0159,-0.6713,-1.1635,0.2077,-0.8766,37.6313,0.2812,22.6125,
5.927703,0.2546,1.0159,-0.6713,-1.8912,-0.5907,-0.2763,37.6313,0.2812,22.6125,
5.930804,2.0252,0.2176,0.1664,-1.8912,-0.5907,-0.2763,37.6313,0.2812,22.6125,
5.932296,2.0252,0.2176,0.1664,-1.8912,-0.5907,-0.2763,37.6313,0.2812,22.6125,
5.935136,2.0252,0.2176,0.1664,-1.8912,-0.5907,-0.2763,37.7812,-0.0750,23.0813,
5.985623,2.0252,0.2176,0.1664,-2.3353,-0.8368,0.0708,37.7812,-0.0750,23.0813,
5.987776,2.0252,0.2176,0.1664,-2.3353,-0.8368,0.0708,37.7812,-0.0750,23.0813,
5.988639,0.3053,0.7174,-0.1715,-2.3353,-0.8368,0.0708,37.7812,-0.0750,23.0813,
5.994210,0.3053,0.7174,-0.1715,-2.3353,-0.8368,0.0708,38.1000,-0.8438,22.9313,
6.045823,0.3053,0.7174,-0.1715,-2.3353,-0.8368,0.0708,38.1000,-0.8438,22.9313,
6.047731,0.3053,0.7174,-0.1715,-1.7404,0.5702,-0.1553,38.1000,-0.8438,22.9313,
6.048848,-1.2075,0.3158,-0.4721,-1.7404,0.5702,-0.1553,38.1000,-0.8438,22.9313,
6.054861,-1.2075,0.3158,-0.4721,-1.7404,0.5702,-0.1553,38.3250,-1.8563,22.5188,
6.106925,-1.2075,0.3158,-0.4721,-0.8386,0.1257,-0.8386,38.3250,-1.8563,22.5188,
6.109413,-1.2075,0.3158,-0.4721,-0.8386,0.1257,-0.8386,38.3250,-1.8563,22.5188,
6.110304,-1.0634,0.1408,-1.1525,-0.8386,0.1257,-0.8386,38.3250,-1.8563,22.5188,
6.112193,-1.0634,0.1408,-1.1525,-0.8386,0.1257,-0.8386,38.5875,-2.9062,22.5750,
6.167203,-1.0634,0.1408,-1.1525,-0.8386,0.1257,-0.8386,38.5875,-2.9062,22.5750,
6.170316,-1.0634,0.1408,-1.1525,-0.5686,0.0128,-0.2060,38.5875,-2.9062,22.5750,
6.173577,-1.0634,0.1408,-1.1525,-0.5686,0.0128,-0.2060,38.7375,-3.8438,22.4438,
6.187135,1.5347,-0.4064,-2.9951,-0.5686,0.0128,-0.2060,38.7375,-3.8438,22.4438,
6.229288,1.5347,-0.4064,-2.9951,-0.6683,-0.2474,-0.0264,38.7375,-3.8438,22.4438,
6.231411,1.5347,-0.4064,-2.9951,-0.6683,-0.2474,-0.0264,38.7375,-3.8438,22.4438,
6.232965,1.5347,-0.4064,-2.9951,-0.6683,-0.2474,-0.0264,38.7563,-4.5188,22.3688,
6.247971,0.9474,1.3612,-1.4325,-0.6683,-0.2474,-0.0264,38.7563,-4.5188,22.3688,
6.292752,0.9474,1.3612,-1.4325,-0.6683,-0.2474,-0.0264,38.7563,-4.5188,22.3688,
6.294629,0.9474,1.3612,-1.4325,-0.2298,0.4057,-0.1851,38.7563,-4.5188,22.3688,
6.296078,0.9474,1.3612,-1.4325,-0.2298,0.4057,-0.1851,38.7375,-5.3250,21.9938,
6.309966,-1.4369,0.5031,-1.1001,-0.2298,0.4057,-0.1851,38.7375,-5.3250,21.9938,
6.348751,-1.4369,0.5031,-1.1001,-0.1546,0.6902,-0.3164,38.7375,-5.3250,21.9938,
6.350429,-1.4369,0.5031,-1.1001,-0.1546,0.6902,-0.3164,38.7375,-5.3250,21.9938,
6.352409,-1.4369,0.5031,-1.1001,-0.1546,0.6902,-0.3164,38.7375,-5.8688,21.6188,
6.390346,-0.6409,-0.8173,0.2685,-0.1546,0.6902,-0.3164,38.7375,-5.8688,21.6188,
6.410421,-0.6409,-0.8173,0.2685,-0.1546,0.6902,-0.3164,38.7375,-5.8688,21.6188,
6.412123,-0.6409,-0.8173,0.2685,-0.1318,0.0142,-0.1229,38.7375,-5.8688,21.6188,
6.414021,-0.6409,-0.8173,0.2685,-0.1318,0.0142,-0.1229,38.7000,-6.3188,21.3750,
6.450344,1.5284,-0.4284,-0.1581,-0.1318,0.0142,-0.1229,38.7000,-6.3188,21.3750,
6.470441,1.5284,-0.4284,-0.1581,-0.1318,0.0142,-0.1229,38.7000,-6.3188,21.3750,
6.471938,1.5284,-0.4284,-0.1581,-0.0882,0.3682,0.1533,38.7000,-6.3188,21.3750,
6.473083,1.5284,-0.4284,-0.1581,-0.0882,0.3682,0.1533,38.6063,-6.5813,21.4125,
6.511104,0.2649,0.3635,-1.2875,-0.0882,0.3682,0.1533,38.6063,-6.5813,21.4125,
6.531398,0.2649,0.3635,-1.2875,0.2011,0.6727,-0.0459,38.6063,-6.5813,21.4125,
6.533356,0.2649,0.3635,-1.2875,0.2011,0.6727,-0.0459,38.6063,-6.5813,21.4125,
6.534050,0.2649,0.3635,-1.2875,0.2011,0.6727,-0.0459,38.2500,-6.5625,21.7313,
6.574007,-0.2148,0.1722,-0.6340,0.2011,0.6727,-0.0459,38.2500,-6.5625,21.7313,
6.593600,-0.2148,0.1722,-0.6340,0.2011,0.6727,-0.0459,37.7812,-6.4125,22.0500,
6.595921,-0.2148,0.1722,-0.6340,0.1706,0.6199,-0.0711,37.7812,-6.4125,22.0500,
6.596831,-0.2148,0.1722,-0.6340,0.1706,0.6199,-0.0711,37.7812,-6.4125,22.0500,
6.654830,-0.2148,0.1722,-0.6340,0.0606,0.2868,0.0340,37.7812,-6.4125,22.0500,
6.657092,-0.2148,0.1722,-0.6340,0.0606,0.2868,0.0340,37.2938,-6.3563,22.5750,
6.658036,-0.2148,0.1722,-0.6340,0.0606,0.2868,0.0340,37.2938,-6.3563,22.5750,
6.659156,-0.0147,-0.0492,-0.2305,0.0606,0.2868,0.0340,37.2938,-6.3563,22.5750,
6.713516,-0.0147,-0.0492,-0.2305,0.0606,0.2868,0.0340,36.9375,-6.1875,23.3625,
6.715306,-0.0147,-0.0492,-0.2305,0.1944,0.1409,-0.0072,36.9375,-6.1875,23.3625,
6.716453,-0.0147,-0.0492,-0.2305,0.1944,0.1409,-0.0072,36.9375,-6.1875,23.3625,
6.717465,0.5803,-0.4123,-0.2873,0.1944,0.1409,-0.0072,36.9375,-6.1875,23.3625,
6.774038,0.5803,-0.4123,-0.2873,0.1944,0.1409,-0.0072,36.4125,-5.9813,24.1688,
6.776090,0.5803,-0.4123,-0.2873,0.2867,0.2840,0.0123,36.4125,-5.9813,24.1688,
6.776660,0.5803,-0.4123,-0.2873,0.2867,0.2840,0.0123,36.4125,-5.9813,24.1688,
6.777136,0.0590,0.3151,-0.5378,0.2867,0.2840,0.0123,36.4125,-5.9813,24.1688,
6.837243,0.0590,0.3151,-0.5378,0.2867,0.2840,0.0123,35.9625,-5.9625,25.1250,
6.842567,0.0590,0.3151,-0.5378,0.1727,0.2095,0.0105,35.9625,-5.9625,25.1250,
6.844699,0.0590,0.3151,-0.5378,0.1727,0.2095,0.0105,35.9625,-5.9625,25.1250,
6.857614,-0.1126,-0.1369,-0.5958,0.1727,0.2095,0.0105,35.9625,-5.9625,25.1250,
6.893523,-0.1126,-0.1369,-0.5958,0.1727,0.2095,0.0105,35.3625,-5.9813,25.8938,
6.897252,-0.1126,-0.1369,-0.5958,0.3506,0.1577,0.0216,35.3625,-5.9813,25.8938,
6.898309,-0.1126,-0.1369,-0.5958,0.3506,0.1577,0.0216,35.3625,-5.9813,25.8938,
6.917543,0.2618,0.3213,-0.3494,0.3506,0.1577,0.0216,35.3625,-5.9813,25.8938,
6.954055,0.2618,0.3213,-0.3494,0.3506,0.1577,0.0216,34.8375,-5.7750,26.7750,
6.957168,0.2618,0.3213,-0.3494,0.4190,0.2493,0.3144,34.8375,-5.7750,26.7750,
6.957985,0.2618,0.3213,-0.3494,0.4190,0.2493,0.3144,34.8375,-5.7750,26.7750,
6.980104,-0.0572,0.0527,-0.4787,0.4190,0.2493,0.3144,34.8375,-5.7750,26.7750,
7.014144,-0.0572,0.0527,-0.4787,0.4190,0.2493,0.3144,34.4438,-5.6250,27.6000,
7.020432,-0.0572,0.0527,-0.4787,0.5501,-0.0017,0.2487,34.4438,-5.6250,27.6000,
7.021824,-0.0572,0.0527,-0.4787,0.5501,-0.0017,0.2487,34.4438,-5.6250,27.6000,
7.039961,0.0690,0.2629,-0.2293,0.5501,-0.0017,0.2487,34.4438,-5.6250,27.6000,
7.074227,0.0690,0.2629,-0.2293,0.5501,-0.0017,0.2487,34.1813,-5.3438,28.1813,
7.080816,0.0690,0.2629,-0.2293,0.8476,0.2265,-0.0928,34.1813,-5.3438,28.1813,
7.081822,0.0690,0.2629,-0.2293,0.8476,0.2265,-0.0928,34.1813,-5.3438,28.1813,
7.122537,-0.6148,0.6160,-0.4710,0.8476,0.2265,-0.0928,34.1813,-5.3438,28.1813,
7.135129,-0.6148,0.6160,-0.4710,0.8476,0.2265,-0.0928,33.7688,-4.8000,28.8000,
7.140918,-0.6148,0.6160,-0.4710,0.8476,0.2265,-0.0928,33.7688,-4.8000,28.8000,
7.141672,-0.6148,0.6160,-0.4710,0.5103,0.0000,0.0208,33.7688,-4.8000,28.8000,
7.184149,0.4494,-0.4548,-0.4486,0.5103,0.0000,0.0208,33.7688,-4.8000,28.8000,
7.195787,0.4494,-0.4548,-0.4486,0.5103,0.0000,0.0208,33.5063,-4.1250,29.3063,
7.204783,0.4494,-0.4548,-0.4486,0.9555,0.5545,-0.2443,33.5063,-4.1250,29.3063,
7.206069,0.4494,-0.4548,-0.4486,0.9555,0.5545,-0.2443,33.5063,-4.1250,29.3063,
7.244031,-0.2722,1.5760,0.0340,0.9555,0.5545,-0.2443,33.5063,-4.1250,29.3063,
7.253572,-0.2722,1.5760,0.0340,0.9555,0.5545,-0.2443,33.1313,-3.2813,29.8125,
7.262859,-0.2722,1.5760,0.0340,0.9555,0.5545,-0.2443,33.1313,-3.2813,29.8125,
7.264155,-0.2722,1.5760,0.0340,0.9477,-0.0880,-0.1652,33.1313,-3.2813,29.8125,
7.314278,-0.2722,1.5760,0.0340,0.9477,-0.0880,-0.1652,33.0750,-2.0250,29.9813,
7.323135,-0.2722,1.5760,0.0340,0.9477,-0.0880,-0.1652,33.0750,-2.0250,29.9813,
7.323792,-0.2722,1.5760,0.0340,0.6619,-0.9173,0.0787,33.0750,-2.0250,29.9813,
7.324221,0.3454,-0.8436,-0.2500,0.6619,-0.9173,0.0787,33.0750,-2.0250,29.9813,
7.373512,0.3454,-0.8436,-0.2500,0.6619,-0.9173,0.0787,33.2250,-0.8438,29.8500,
7.386109,0.3454,-0.8436,-0.2500,-0.3023,-1.0639,0.2047,33.2250,-0.8438,29.8500,
7.387785,0.3454,-0.8436,-0.2500,-0.3023,-1.0639,0.2047,33.2250,-0.8438,29.8500,
7.389067,0.7117,-1.7230,-0.1733,-0.3023,-1.0639,0.2047,33.2250,-0.8438,29.8500,
7.433718,0.7117,-1.7230,-0.1733,-0.3023,-1.0639,0.2047,33.5250,0.4125,29.4188,
7.444949,0.7117,-1.7230,-0.1733,0.4755,0.0739,-1.4109,33.5250,0.4125,29.4188,
7.446005,0.7117,-1.7230,-0.1733,0.4755,0.0739,-1.4109,33.5250,0.4125,29.4188,
7.446614,0.3083,-0.4669,1.8374,0.4755,0.0739,-1.4109,33.5250,0.4125,29.4188,
7.495383,0.3083,-0.4669,1.8374,0.4755,0.0739,-1.4109,33.6562,2.1938,29.1188,
7.507692,0.3083,-0.4669,1.8374,-0.1961,0.2940,-2.5636,33.6562,2.1938,29.1188,
7.508688,0.3083,-0.4669,1.8374,-0.1961,0.2940,-2.5636,33.6562,2.1938,29.1188,
7.509058,-3.8142,-1.0635,-1.3824,-0.1961,0.2940,-2.5636,33.6562,2.1938,29.1188,
7.553386,-3.8142,-1.0635,-1.3824,-0.1961,0.2940,-2.5636,33.3750,4.3875,28.8375,
7.569596,-3.8142,-1.0635,-1.3824,-0.5443,0.1300,-3.1791,33.3750,4.3875,28.8375,
7.570750,-3.8142,-1.0635,-1.3824,-0.5443,0.1300,-3.1791,33.3750,4.3875,28.8375,
7.587962,-1.2261,-2.2018,1.6377,-0.5443,0.1300,-3.1791,33.3750,4.3875,28.8375,
7.613374,-1.2261,-2.2018,1.6377,-0.5443,0.1300,-3.1791,32.5875,7.0875,28.5563,
7.627612,-1.2261,-2.2018,1.6377,0.9015,1.5979,-3.0180,32.5875,7.0875,28.5563,
7.628577,-1.2261,-2.2018,1.6377,0.9015,1.5979,-3.0180,32.5875,7.0875,28.5563,
7.648712,-1.5205,-3.8842,-0.0095,0.9015,1.5979,-3.0180,32.5875,7.0875,28.5563,
7.673354,-1.5205,-3.8842,-0.0095,0.9015,1.5979,-3.0180,31.0500,10.2938,28.1438,
7.688883,-1.5205,-3.8842,-0.0095,2.1237,1.4247,-0.9402,31.0500,10.2938,28.1438,
7.689861,-1.5205,-3.8842,-0.0095,2.1237,1.4247,-0.9402,31.0500,10.2938,28.1438,
7.711123,-1.5651,-1.6201,-2.0854,2.1237,1.4247,-0.9402,31.0500,10.2938,28.1438,
7.733421,-1.5651,-1.6201,-2.0854,2.1237,1.4247,-0.9402,29.5125,13.7063,27.7688,
7.750286,-1.5651,-1.6201,-2.0854,0.3655,2.4421,1.3006,29.5125,13.7063,27.7688,
7.751392,-1.5651,-1.6201,-2.0854,0.3655,2.4421,1.3006,29.5125,13.7063,27.7688,
7.770583,0.7674,2.6095,-4.0340,0.3655,2.4421,1.3006,29.5125,13.7063,27.7688,
7.795198,0.7674,2.6095,-4.0340,0.3655,2.4421,1.3006,27.4688,16.1813,27.7313,
7.811479,0.7674,2.6095,-4.0340,-1.7805,0.8860,3.0042,27.4688,16.1813,27.7313,
7.812300,0.7674,2.6095,-4.0340,-1.7805,0.8860,3.0042,27.4688,16.1813,27.7313,
7.852489,0.7674,2.6095,-4.0340,-1.7805,0.8860,3.0042,26.2688,18.0375,27.9375,
7.853308,0.6545,3.3584,-1.3649,-1.7805,0.8860,3.0042,26.2688,18.0375,27.9375,
7.872353,0.6545,3.3584,-1.3649,-1.6790,-1.7157,1.8846,26.2688,18.0375,27.9375,
7.873529,0.6545,3.3584,-1.3649,-1.6790,-1.7157,1.8846,26.2688,18.0375,27.9375,
7.914405,0.6545,3.3584,-1.3649,-1.6790,-1.7157,1.8846,23.7375,19.4062,29.4563,
7.915821,3.8200,4.8268,1.8282,-1.6790,-1.7157,1.8846,23.7375,19.4062,29.4563,
7.934579,3.8200,4.8268,1.8282,-1.6790,-1.7157,1.8846,23.7375,19.4062,29.4563,
7.935738,3.8200,4.8268,1.8282,2.2513,10.9272,-0.8053,23.7375,19.4062,29.4563,
7.975140,5.5169,-3.4950,0.2749,2.2513,10.9272,-0.8053,23.7375,19.4062,29.4563,
7.977015,5.5169,-3.4950,0.2749,2.2513,10.9272,-0.8053,19.3875,21.0938,30.9563,
7.995057,5.5169,-3.4950,0.2749,1.5657,2.0671,-1.6228,19.3875,21.0938,30.9563,
7.996710,5.5169,-3.4950,0.2749,1.5657,2.0671,-1.6228,19.3875,21.0938,30.9563,
8.036065,5.5169,-3.4950,0.2749,1.5657,2.0671,-1.6228,13.7250,22.4813,31.2188,
8.055887,5.5169,-3.4950,0.2749,6.9880,8.1302,-6.8672,13.7250,22.4813,31.2188,
8.057196,0.9028,-0.1249,-1.8829,6.9880,8.1302,-6.8672,13.7250,22.4813,31.2188,
8.057993,0.9028,-0.1249,-1.8829,6.9880,8.1302,-6.8672,13.7250,22.4813,31.2188,
8.095737,0.9028,-0.1249,-1.8829,6.9880,8.1302,-6.8672,6.1688,22.8188,27.9938,
8.115102,0.9028,-0.1249,-1.8829,9.4617,4.3782,-6.8566,6.1688,22.8188,27.9938,
8.116340,7.9434,-12.4487,5.3509,9.4617,4.3782,-6.8566,6.1688,22.8188,27.9938,
8.117271,7.9434,-12.4487,5.3509,9.4617,4.3782,-6.8566,6.1688,22.8188,27.9938,
8.154285,7.9434,-12.4487,5.3509,9.4617,4.3782,-6.8566,-1.5375,20.1188,23.0813,
8.176072,7.9434,-12.4487,5.3509,6.4389,5.1351,-6.3472,-1.5375,20.1188,23.0813,
8.177581,7.9434,-12.4487,5.3509,6.4389,5.1351,-6.3472,-1.5375,20.1188,23.0813,
8.178301,-3.8120,-15.7810,-3.9773,6.4389,5.1351,-6.3472,-1.5375,20.1188,23.0813,
8.213348,-3.8120,-15.7810,-3.9773,6.4389,5.1351,-6.3472,-8.6625,14.8125,17.3438,
8.238168,-3.8120,-15.7810,-3.9773,1.9185,-3.1794,-5.8811,-8.6625,14.8125,17.3438,
8.240042,-1.7685,-7.4428,-7.2469,1.9185,-3.1794,-5.8811,-8.6625,14.8125,17.3438,
8.240572,-1.7685,-7.4428,-7.2469,1.9185,-3.1794,-5.8811,-8.6625,14.8125,17.3438,
8.273398,-1.7685,-7.4428,-7.2469,1.9185,-3.1794,-5.8811,-15.0938,8.0813,12.2250,
8.299117,-1.7685,-7.4428,-7.2469,1.9185,-3.1794,-5.8811,-15.0938,8.0813,12.2250,
8.300251,-1.7685,-7.4428,-7.2469,-1.1320,0.4609,-5.0948,-15.0938,8.0813,12.2250,
8.319437,-2.5756,-1.8611,-6.2245,-1.1320,0.4609,-5.0948,-15.0938,8.0813,12.2250,
8.334487,-2.5756,-1.8611,-6.2245,-1.1320,0.4609,-5.0948,-21.3750,1.4813,6.6188,
8.361875,-2.5756,-1.8611,-6.2245,-1.1320,0.4609,-5.0948,-21.3750,1.4813,6.6188,
8.362535,-2.5756,-1.8611,-6.2245,0.9225,-1.7147,-1.5284,-21.3750,1.4813,6.6188,
8.380277,-4.1399,-0.0768,-1.0467,0.9225,-1.7147,-1.5284,-21.3750,1.4813,6.6188,
8.393818,-4.1399,-0.0768,-1.0467,0.9225,-1.7147,-1.5284,-26.2875,-5.8125,1.0125,
8.420253,-4.1399,-0.0768,-1.0467,1.4617,-1.4008,-1.0225,-26.2875,-5.8125,1.0125,
8.421807,-4.1399,-0.0768,-1.0467,1.4617,-1.4008,-1.0225,-26.2875,-5.8125,1.0125,
8.441040,-2.9300,0.4317,1.1177,1.4617,-1.4008,-1.0225,-26.2875,-5.8125,1.0125,
8.453232,-2.9300,0.4317,1.1177,1.4617,-1.4008,-1.0225,-29.4188,-13.4250,-4.0688,
8.481259,-2.9300,0.4317,1.1177,1.4617,-1.4008,-1.0225,-29.4188,-13.4250,-4.0688,
8.481986,-2.9300,0.4317,1.1177,1.4071,-0.8509,0.4653,-29.4188,-13.4250,-4.0688,
8.513841,-2.9300,0.4317,1.1177,1.4071,-0.8509,0.4653,-30.9000,-21.4313,-7.7250,
8.522099,-4.0906,0.3741,1.1870,1.4071,-0.8509,0.4653,-30.9000,-21.4313,-7.7250,
8.542897,-4.0906,0.3741,1.1870,1.4071,-0.8509,0.4653,-30.9000,-21.4313,-7.7250,
8.543653,-4.0906,0.3741,1.1870,0.4163,-0.5896,0.5413,-30.9000,-21.4313,-7.7250,
8.573970,-4.0906,0.3741,1.1870,0.4163,-0.5896,0.5413,-29.7563,-28.8188,-8.3250,
8.582928,0.2192,-0.7100,-0.6702,0.4163,-0.5896,0.5413,-29.7563,-28.8188,-8.3250,
8.602965,0.2192,-0.7100,-0.6702,0.1461,0.2077,0.0463,-29.7563,-28.8188,-8.3250,
8.604250,0.2192,-0.7100,-0.6702,0.1461,0.2077,0.0463,-29.7563,-28.8188,-8.3250,
8.634629,0.2192,-0.7100,-0.6702,0.1461,0.2077,0.0463,-27.8063,-34.1063,-6.6750,
8.645604,0.6241,0.3915,0.9434,0.1461,0.2077,0.0463,-27.8063,-34.1063,-6.6750,
8.662808,0.6241,0.3915,0.9434,0.2132,-0.6606,0.1088,-27.8063,-34.1063,-6.6750,
8.664162,0.6241,0.3915,0.9434,0.2132,-0.6606,0.1088,-27.8063,-34.1063,-6.6750,
8.693666,0.6241,0.3915,0.9434,0.2132,-0.6606,0.1088,-26.2688,-36.9750,-3.9750,
8.705045,-0.9103,0.5095,0.7342,0.2132,-0.6606,0.1088,-26.2688,-36.9750,-3.9750,
8.724569,-0.9103,0.5095,0.7342,0.2132,-0.6606,0.1088,-26.2688,-36.9750,-3.9750,
8.725507,-0.9103,0.5095,0.7342,0.5316,0.0096,0.3453,-26.2688,-36.9750,-3.9750,
8.753689,-0.9103,0.5095,0.7342,0.5316,0.0096,0.3453,-25.2563,-38.0063,-2.1188,
8.786673,-0.9103,0.5095,0.7342,0.3811,0.0149,0.5040,-25.2563,-38.0063,-2.1188,
8.788008,-0.4002,-0.2069,0.4163,0.3811,0.0149,0.5040,-25.2563,-38.0063,-2.1188,
8.788667,-0.4002,-0.2069,0.4163,0.3811,0.0149,0.5040,-25.2563,-38.0063,-2.1188,
8.813571,-0.4002,-0.2069,0.4163,0.3811,0.0149,0.5040,-25.5000,-38.2313,0.3375,
8.846594,-0.4002,-0.2069,0.4163,0.6076,-0.0192,0.0009,-25.5000,-38.2313,0.3375,
8.848960,-0.4002,-0.2069,0.4163,0.6076,-0.0192,0.0009,-25.5000,-38.2313,0.3375,
8.849627,0.0369,0.1151,-0.2019,0.6076,-0.0192,0.0009,-25.5000,-38.2313,0.3375,
8.873270,0.0369,0.1151,-0.2019,0.6076,-0.0192,0.0009,-25.8000,-37.9125,2.0813,
8.909155,0.0369,0.1151,-0.2019,0.1425,0.2212,0.1128,-25.8000,-37.9125,2.0813,
8.911830,0.0369,0.1151,-0.2019,0.1425,0.2212,0.1128,-25.8000,-37.9125,2.0813,
8.913385,-0.1278,0.1643,0.1837,0.1425,0.2212,0.1128,-25.8000,-37.9125,2.0813,
8.934171,-0.1278,0.1643,0.1837,0.1425,0.2212,0.1128,-26.0813,-37.3688,3.1500,
