
time,ax,ay,az,wx,wy,wz,Bx,By,Bz,
0.023485,0.0000,0.0000,0.0000,0.0000,0.0000,0.0000,8.7000,33.7200,-22.8000,
0.035698,0.0000,0.0000,0.0000,0.0021,0.0096,0.0064,8.7000,33.7200,-22.8000,
0.039880,0.0000,0.0000,0.0000,0.0021,0.0096,0.0064,8.7000,33.7200,-22.8000,
0.055010,0.0000,0.0000,0.0000,0.0021,0.0096,0.0064,8.7000,33.7200,-22.8000,
0.076294,0.0000,0.0000,0.0000,0.0469,0.0442,-0.0186,8.7000,33.7200,-22.8000,
0.085158,0.0000,0.0000,0.0000,0.0469,0.0442,-0.0186,-4.8600,27.3600,-30.3600,
0.095944,0.0000,0.0000,0.0000,0.0506,0.0591,-0.0368,-4.8600,27.3600,-30.3600,
0.101444,0.0000,0.0000,0.0000,0.0506,0.0591,-0.0368,-4.8600,27.3600,-30.3600,
0.102207,0.0191,0.0369,0.0015,0.0506,0.0591,-0.0368,-4.8600,27.3600,-30.3600,
0.117728,0.0191,0.0369,0.0015,0.0266,0.0921,-0.0570,-4.8600,27.3600,-30.3600,
0.137094,0.0191,0.0369,0.0015,-0.0192,0.1278,-0.0357,-4.8600,27.3600,-30.3600,
0.146557,0.0191,0.0369,0.0015,-0.0192,0.1278,-0.0357,-11.3400,24.0000,-33.7200,
0.159880,0.0191,0.0369,0.0015,-0.0426,0.0746,0.0117,-11.3400,24.0000,-33.7200,
0.161593,0.0191,0.0369,0.0015,-0.0426,0.0746,0.0117,-11.3400,24.0000,-33.7200,
0.162150,0.0749,-0.0586,0.1088,-0.0426,0.0746,0.0117,-11.3400,24.0000,-33.7200,
0.178126,0.0749,-0.0586,0.1088,-0.0362,0.0415,-0.0059,-11.3400,24.0000,-33.7200,
0.199161,0.0749,-0.0586,0.1088,0.0176,0.0037,-0.0218,-11.3400,24.0000,-33.7200,
0.207774,0.0749,-0.0586,0.1088,0.0176,0.0037,-0.0218,-17.3400,20.5200,-37.8000,
0.219602,0.0749,-0.0586,0.1088,0.0426,0.0085,-0.0202,-17.3400,20.5200,-37.8000,
0.225048,0.0749,-0.0586,0.1088,0.0426,0.0085,-0.0202,-17.3400,20.5200,-37.8000,
0.225782,-0.1540,0.0330,-0.0022,0.0426,0.0085,-0.0202,-17.3400,20.5200,-37.8000,
0.240160,-0.1540,0.0330,-0.0022,0.0341,0.0101,-0.0059,-17.3400,20.5200,-37.8000,
0.259803,-0.1540,0.0330,-0.0022,0.0320,0.0048,-0.0037,-17.3400,20.5200,-37.8000,
0.269398,-0.1540,0.0330,-0.0022,0.0320,0.0048,-0.0037,-16.9800,20.5800,-37.6800,
0.281087,-0.1540,0.0330,-0.0022,0.0991,-0.0160,-0.0112,-16.9800,20.5800,-37.6800,
0.285061,-0.1540,0.0330,-0.0022,0.0991,-0.0160,-0.0112,-16.9800,20.5800,-37.6800,
0.285636,-0.0485,-0.0718,0.0302,0.0991,-0.0160,-0.0112,-16.9800,20.5800,-37.6800,
0.301124,-0.0485,-0.0718,0.0302,0.1694,0.0405,-0.0421,-16.9800,20.5800,-37.6800,
0.322518,-0.0485,-0.0718,0.0302,0.0767,0.2972,-0.2589,-16.9800,20.5800,-37.6800,
0.331262,-0.0485,-0.0718,0.0302,0.0767,0.2972,-0.2589,-16.8600,20.7000,-37.8600,
0.342470,-0.0485,-0.0718,0.0302,-0.6456,1.4594,-0.9742,-16.8600,20.7000,-37.8600,
0.346737,-0.0485,-0.0718,0.0302,-0.6456,1.4594,-0.9742,-16.8600,20.7000,-37.8600,
0.347192,2.3581,2.7952,-3.4442,-0.6456,1.4594,-0.9742,-16.8600,20.7000,-37.8600,
0.362956,2.3581,2.7952,-3.4442,-1.6666,3.0461,-2.5007,-16.8600,20.7000,-37.8600,
0.383921,2.3581,2.7952,-3.4442,-0.6163,3.2309,-2.7894,-16.8600,20.7000,-37.8600,
0.393928,2.3581,2.7952,-3.4442,-0.6163,3.2309,-2.7894,-17.1000,20.2200,-38.4000,
0.404161,2.3581,2.7952,-3.4442,0.8490,1.5068,-1.8594,-17.1000,20.2200,-38.4000,
0.408492,2.3581,2.7952,-3.4442,0.8490,1.5068,-1.8594,-17.1000,20.2200,-38.4000,
0.409131,-0.9049,6.7123,1.7406,0.8490,1.5068,-1.8594,-17.1000,20.2200,-38.4000,
0.424278,-0.9049,6.7123,1.7406,1.2181,-0.1342,-1.0589,-17.1000,20.2200,-38.4000,
0.445193,-0.9049,6.7123,1.7406,0.6093,0.8756,-0.6908,-17.1000,20.2200,-38.4000,
0.453955,-0.9049,6.7123,1.7406,0.6093,0.8756,-0.6908,-16.9200,20.2200,-38.7600,
0.465276,-0.9049,6.7123,1.7406,-0.4186,1.6123,-0.4634,-16.9200,20.2200,-38.7600,
0.469877,-0.9049,6.7123,1.7406,-0.4186,1.6123,-0.4634,-16.9200,20.2200,-38.7600,
0.470366,-1.2271,-9.7252,-0.5238,-0.4186,1.6123,-0.4634,-16.9200,20.2200,-38.7600,
0.486256,-1.2271,-9.7252,-0.5238,-0.3196,0.6189,0.0559,-16.9200,20.2200,-38.7600,
0.506559,-1.2271,-9.7252,-0.5238,0.4016,-0.1364,-0.0128,-16.9200,20.2200,-38.7600,
0.515620,-1.2271,-9.7252,-0.5238,0.4016,-0.1364,-0.0128,-16.5000,19.2600,-39.3000,
0.527445,-1.2271,-9.7252,-0.5238,0.2999,-0.3260,-0.1300,-16.5000,19.2600,-39.3000,
0.532299,-1.2271,-9.7252,-0.5238,0.2999,-0.3260,-0.1300,-16.5000,19.2600,-39.3000,
0.533341,0.7269,0.9683,-0.3338,0.2999,-0.3260,-0.1300,-16.5000,19.2600,-39.3000,
0.548223,0.7269,0.9683,-0.3338,-0.0533,-0.3792,-0.1507,-16.5000,19.2600,-39.3000,
0.568835,0.7269,0.9683,-0.3338,-0.0975,-0.2738,-0.0911,-16.5000,19.2600,-39.3000,
0.577462,0.7269,0.9683,-0.3338,-0.0975,-0.2738,-0.0911,-15.6600,18.4800,-39.7200,
0.590676,0.7269,0.9683,-0.3338,-0.0410,0.0240,0.0059,-15.6600,18.4800,-39.7200,
0.593122,0.7269,0.9683,-0.3338,-0.0410,0.0240,0.0059,-15.6600,18.4800,-39.7200,
0.594054,-0.7833,-0.0593,-0.3995,-0.0410,0.0240,0.0059,-15.6600,18.4800,-39.7200,
0.610060,-0.7833,-0.0593,-0.3995,0.0314,0.2722,0.0613,-15.6600,18.4800,-39.7200,
0.630427,-0.7833,-0.0593,-0.3995,0.1092,0.2786,0.0943,-15.6600,18.4800,-39.7200,
0.641452,-0.7833,-0.0593,-0.3995,0.1092,0.2786,0.0943,-15.2400,18.4200,-40.2000,
0.650852,-0.7833,-0.0593,-0.3995,0.0762,0.1790,0.0852,-15.2400,18.4200,-40.2000,
0.654798,-0.7833,-0.0593,-0.3995,0.0762,0.1790,0.0852,-15.2400,18.4200,-40.2000,
0.655673,0.3078,-0.0330,-0.1005,0.0762,0.1790,0.0852,-15.2400,18.4200,-40.2000,
0.670836,0.3078,-0.0330,-0.1005,-0.0032,0.0730,0.0629,-15.2400,18.4200,-40.2000,
0.691707,0.3078,-0.0330,-0.1005,-0.0586,-0.0160,0.0277,-15.2400,18.4200,-40.2000,
0.700405,0.3078,-0.0330,-0.1005,-0.0586,-0.0160,0.0277,-14.5800,17.9400,-40.5600,
0.711945,0.3078,-0.0330,-0.1005,-0.0511,-0.0245,0.0027,-14.5800,17.9400,-40.5600,
0.716389,0.3078,-0.0330,-0.1005,-0.0511,-0.0245,0.0027,-14.5800,17.9400,-40.5600,
0.717380,-0.0229,-0.2858,0.1858,-0.0511,-0.0245,0.0027,-14.5800,17.9400,-40.5600,
0.732969,-0.0229,-0.2858,0.1858,0.0011,-0.0277,-0.0016,-14.5800,17.9400,-40.5600,
0.752827,-0.0229,-0.2858,0.1858,0.0213,-0.0554,0.0458,-14.5800,17.9400,-40.5600,
0.762045,-0.0229,-0.2858,0.1858,0.0213,-0.0554,0.0458,-14.4000,18.3000,-40.9800,
0.773664,-0.0229,-0.2858,0.1858,-0.0570,-0.1097,0.0261,-14.4000,18.3000,-40.9800,
0.778044,-0.0229,-0.2858,0.1858,-0.0570,-0.1097,0.0261,-14.4000,18.3000,-40.9800,
0.778884,-0.1555,0.1820,-0.0984,-0.0570,-0.1097,0.0261,-14.4000,18.3000,-40.9800,
0.794791,-0.1555,0.1820,-0.0984,-0.1326,-0.0852,-0.0288,-14.4000,18.3000,-40.9800,
0.815272,-0.1555,0.1820,-0.0984,-0.0383,0.1358,-0.0442,-14.4000,18.3000,-40.9800,
0.824107,-0.1555,0.1820,-0.0984,-0.0383,0.1358,-0.0442,-14.2800,18.4200,-40.5600,
0.835328,-0.1555,0.1820,-0.0984,-0.1246,-0.0176,-0.1475,-14.2800,18.4200,-40.5600,
0.840448,-0.1555,0.1820,-0.0984,-0.1246,-0.0176,-0.1475,-14.2800,18.4200,-40.5600,
0.841475,-0.1281,0.0618,-0.0538,-0.1246,-0.0176,-0.1475,-14.2800,18.4200,-40.5600,
0.856234,-0.1281,0.0618,-0.0538,-0.4980,-0.6349,-0.3665,-14.2800,18.4200,-40.5600,
0.876595,-0.1281,0.0618,-0.0538,-0.5092,-0.8464,-0.5209,-14.2800,18.4200,-40.5600,
0.885637,-0.1281,0.0618,-0.0538,-0.5092,-0.8464,-0.5209,-13.4400,18.1800,-40.7400,
0.898056,-0.1281,0.0618,-0.0538,-0.1694,-0.8490,-0.6748,-13.4400,18.1800,-40.7400,
0.901645,-0.1281,0.0618,-0.0538,-0.1694,-0.8490,-0.6748,-13.4400,18.1800,-40.7400,
0.902276,-0.8859,0.7602,0.6081,-0.1694,-0.8490,-0.6748,-13.4400,18.1800,-40.7400,
0.917672,-0.8859,0.7602,0.6081,0.1747,-0.6338,-0.6578,-13.4400,18.1800,-40.7400,
0.937706,-0.8859,0.7602,0.6081,0.2828,-0.5326,-0.6365,-13.4400,18.1800,-40.7400,
0.946489,-0.8859,0.7602,0.6081,0.2828,-0.5326,-0.6365,-13.5600,18.5400,-40.5600,
0.958295,-0.8859,0.7602,0.6081,0.1901,-0.4591,-0.7009,-13.5600,18.5400,-40.5600,
0.962200,-0.8859,0.7602,0.6081,0.1901,-0.4591,-0.7009,-13.5600,18.5400,-40.5600,
0.962779,1.0065,-1.5871,-0.1630,0.1901,-0.4591,-0.7009,-13.5600,18.5400,-40.5600,
0.978658,1.0065,-1.5871,-0.1630,0.0660,-0.7888,-0.4490,-13.5600,18.5400,-40.5600,
0.999113,1.0065,-1.5871,-0.1630,0.2083,-0.3467,0.1502,-13.5600,18.5400,-40.5600,
1.008234,1.0065,-1.5871,-0.1630,0.2083,-0.3467,0.1502,-14.2800,18.6000,-39.8400,
1.020128,1.0065,-1.5871,-0.1630,0.2264,-0.1886,0.0410,-14.2800,18.6000,-39.8400,
1.024542,1.0065,-1.5871,-0.1630,0.2264,-0.1886,0.0410,-14.2800,18.6000,-39.8400,
1.025491,2.0910,-0.3631,-0.4737,0.2264,-0.1886,0.0410,-14.2800,18.6000,-39.8400,
1.040382,2.0910,-0.3631,-0.4737,0.2525,0.0660,-0.0069,-14.2800,18.6000,-39.8400,
1.061225,2.0910,-0.3631,-0.4737,0.3137,0.7521,0.2296,-14.2800,18.6000,-39.8400,
1.070484,2.0910,-0.3631,-0.4737,0.3137,0.7521,0.2296,-15.7200,18.5400,-39.9600,
1.081420,2.0910,-0.3631,-0.4737,0.3095,1.4482,0.3649,-15.7200,18.5400,-39.9600,
1.086026,2.0910,-0.3631,-0.4737,0.3095,1.4482,0.3649,-15.7200,18.5400,-39.9600,
1.086872,-0.0495,0.1408,-0.8146,0.3095,1.4482,0.3649,-15.7200,18.5400,-39.9600,
1.102679,-0.0495,0.1408,-0.8146,0.1619,1.4924,0.3233,-15.7200,18.5400,-39.9600,
1.122879,-0.0495,0.1408,-0.8146,-0.0064,0.7595,0.1896,-15.7200,18.5400,-39.9600,
1.131679,-0.0495,0.1408,-0.8146,-0.0064,0.7595,0.1896,-17.1000,18.2400,-39.4800,
1.143321,-0.0495,0.1408,-0.8146,-0.0618,-0.0511,0.1268,-17.1000,18.2400,-39.4800,
1.148486,-0.0495,0.1408,-0.8146,-0.0618,-0.0511,0.1268,-17.1000,18.2400,-39.4800,
1.149414,-0.7626,-0.0398,1.3535,-0.0618,-0.0511,0.1268,-17.1000,18.2400,-39.4800,
1.163373,-0.7626,-0.0398,1.3535,0.0373,-0.3542,-0.0123,-17.1000,18.2400,-39.4800,
1.184096,-0.7626,-0.0398,1.3535,0.0980,-0.0538,0.0027,-17.1000,18.2400,-39.4800,
1.192911,-0.7626,-0.0398,1.3535,0.0980,-0.0538,0.0027,-17.5200,17.5200,-39.6000,
1.205174,-0.7626,-0.0398,1.3535,0.1172,0.0975,0.0043,-17.5200,17.5200,-39.6000,
1.209364,-0.7626,-0.0398,1.3535,0.1172,0.0975,0.0043,-17.5200,17.5200,-39.6000,
1.210517,0.3032,-0.0390,-0.2898,0.1172,0.0975,0.0043,-17.5200,17.5200,-39.6000,
1.225395,0.3032,-0.0390,-0.2898,0.0772,0.1742,0.0229,-17.5200,17.5200,-39.6000,
1.245626,0.3032,-0.0390,-0.2898,0.0671,0.1896,0.0288,-17.5200,17.5200,-39.6000,
1.254984,0.3032,-0.0390,-0.2898,0.0671,0.1896,0.0288,-16.9200,16.8600,-39.9600,
1.266213,0.3032,-0.0390,-0.2898,0.0783,0.2210,0.0144,-16.9200,16.8600,-39.9600,
1.270558,0.3032,-0.0390,-0.2898,0.0783,0.2210,0.0144,-16.9200,16.8600,-39.9600,
1.271448,0.1531,-0.1026,0.1621,0.0783,0.2210,0.0144,-16.9200,16.8600,-39.9600,
1.287000,0.1531,-0.1026,0.1621,0.1001,0.2003,-0.0085,-16.9200,16.8600,-39.9600,
1.307505,0.1531,-0.1026,0.1621,0.1390,0.1310,-0.0250,-16.9200,16.8600,-39.9600,
1.315666,0.1531,-0.1026,0.1621,0.1390,0.1310,-0.0250,-15.9000,16.6200,-40.3200,
1.327147,0.1531,-0.1026,0.1621,0.1411,0.1603,-0.0229,-15.9000,16.6200,-40.3200,
1.332078,0.1531,-0.1026,0.1621,0.1411,0.1603,-0.0229,-15.9000,16.6200,-40.3200,
1.332863,-0.3455,0.2527,0.0741,0.1411,0.1603,-0.0229,-15.9000,16.6200,-40.3200,
1.348205,-0.3455,0.2527,0.0741,0.1204,0.2791,0.0096,-15.9000,16.6200,-40.3200,
1.368915,-0.3455,0.2527,0.0741,0.1358,0.3414,0.0346,-15.9000,16.6200,-40.3200,
1.378233,-0.3455,0.2527,0.0741,0.1358,0.3414,0.0346,-14.7000,16.6200,-41.0400,
1.389902,-0.3455,0.2527,0.0741,0.1406,0.3031,0.0671,-14.7000,16.6200,-41.0400,
1.394374,-0.3455,0.2527,0.0741,0.1406,0.3031,0.0671,-14.7000,16.6200,-41.0400,
1.395301,-0.4089,0.0694,-0.0467,0.1406,0.3031,0.0671,-14.7000,16.6200,-41.0400,
1.409991,-0.4089,0.0694,-0.0467,0.1443,0.2866,0.0911,-14.7000,16.6200,-41.0400,
1.431816,-0.4089,0.0694,-0.0467,0.1252,0.3020,0.0964,-14.7000,16.6200,-41.0400,
1.443697,-0.4089,0.0694,-0.0467,0.1252,0.3020,0.0964,-14.3400,16.3200,-41.1000,
1.451875,-0.4089,0.0694,-0.0467,0.0858,0.2898,0.0863,-14.3400,16.3200,-41.1000,
1.457328,-0.4089,0.0694,-0.0467,0.0858,0.2898,0.0863,-14.3400,16.3200,-41.1000,
1.461250,0.0991,0.0267,0.2318,0.0858,0.2898,0.0863,-14.3400,16.3200,-41.1000,
1.471219,0.0991,0.0267,0.2318,0.0794,0.2162,0.0772,-14.3400,16.3200,-41.1000,
1.491921,0.0991,0.0267,0.2318,0.1135,0.1747,0.0831,-14.3400,16.3200,-41.1000,
1.500799,0.0991,0.0267,0.2318,0.1135,0.1747,0.0831,-13.9800,16.6200,-41.6400,
1.512943,0.0991,0.0267,0.2318,0.1790,0.1470,0.0975,-13.9800,16.6200,-41.6400,
1.516910,0.0991,0.0267,0.2318,0.1790,0.1470,0.0975,-13.9800,16.6200,-41.6400,
1.517743,-0.2840,0.0694,0.2589,0.1790,0.1470,0.0975,-13.9800,16.6200,-41.6400,
1.532895,-0.2840,0.0694,0.2589,0.2152,0.1236,0.1150,-13.9800,16.6200,-41.6400,
1.553979,-0.2840,0.0694,0.2589,0.1933,0.1278,0.1225,-13.9800,16.6200,-41.6400,
1.562473,-0.2840,0.0694,0.2589,0.1933,0.1278,0.1225,-13.5000,16.4400,-42.0600,
1.573747,-0.2840,0.0694,0.2589,0.1529,0.1284,0.1177,-13.5000,16.4400,-42.0600,
1.578484,-0.2840,0.0694,0.2589,0.1529,0.1284,0.1177,-13.5000,16.4400,-42.0600,
1.579418,-0.1587,0.3087,-0.0517,0.1529,0.1284,0.1177,-13.5000,16.4400,-42.0600,
1.595184,-0.1587,0.3087,-0.0517,0.1039,0.1486,0.0937,-13.5000,16.4400,-42.0600,
1.615282,-0.1587,0.3087,-0.0517,0.0703,0.1529,0.0618,-13.5000,16.4400,-42.0600,
1.623852,-0.1587,0.3087,-0.0517,0.0703,0.1529,0.0618,-13.1400,15.9600,-42.0600,
1.635967,-0.1587,0.3087,-0.0517,0.0538,0.1598,0.0208,-13.1400,15.9600,-42.0600,
1.639863,-0.1587,0.3087,-0.0517,0.0538,0.1598,0.0208,-13.1400,15.9600,-42.0600,
1.640733,-0.0411,0.0883,-0.4498,0.0538,0.1598,0.0208,-13.1400,15.9600,-42.0600,
1.656663,-0.0411,0.0883,-0.4498,0.0011,0.2269,-0.0415,-13.1400,15.9600,-42.0600,
1.676766,-0.0411,0.0883,-0.4498,-0.0495,0.2557,-0.0836,-13.1400,15.9600,-42.0600,
1.685545,-0.0411,0.0883,-0.4498,-0.0495,0.2557,-0.0836,-12.8400,15.7800,-42.3600,
1.698138,-0.0411,0.0883,-0.4498,-0.1007,0.2147,-0.0820,-12.8400,15.7800,-42.3600,
1.702403,-0.0411,0.0883,-0.4498,-0.1007,0.2147,-0.0820,-12.8400,15.7800,-42.3600,
1.703233,-0.0981,-0.1411,0.0187,-0.1007,0.2147,-0.0820,-12.8400,15.7800,-42.3600,
1.718681,-0.0981,-0.1411,0.0187,-0.1129,0.1901,-0.0746,-12.8400,15.7800,-42.3600,
1.738370,-0.0981,-0.1411,0.0187,-0.0378,0.2099,-0.0969,-12.8400,15.7800,-42.3600,
1.747392,-0.0981,-0.1411,0.0187,-0.0378,0.2099,-0.0969,-12.3000,15.6600,-42.0600,
1.759014,-0.0981,-0.1411,0.0187,0.0144,0.2653,-0.1529,-12.3000,15.6600,-42.0600,
1.763554,-0.0981,-0.1411,0.0187,0.0144,0.2653,-0.1529,-12.3000,15.6600,-42.0600,
1.764406,0.1875,0.1989,0.3749,0.0144,0.2653,-0.1529,-12.3000,15.6600,-42.0600,
1.779305,0.1875,0.1989,0.3749,-0.0043,0.2738,-0.2109,-12.3000,15.6600,-42.0600,
1.800072,0.1875,0.1989,0.3749,-0.0043,0.1374,-0.2445,-12.3000,15.6600,-42.0600,
1.809421,0.1875,0.1989,0.3749,-0.0043,0.1374,-0.2445,-11.7000,15.3600,-42.4200,
1.820417,0.1875,0.1989,0.3749,0.0192,0.0043,-0.2088,-11.7000,15.3600,-42.4200,
1.824737,0.1875,0.1989,0.3749,0.0192,0.0043,-0.2088,-11.7000,15.3600,-42.4200,
1.825664,-0.6166,-0.0230,-0.1751,0.0192,0.0043,-0.2088,-11.7000,15.3600,-42.4200,
1.840991,-0.6166,-0.0230,-0.1751,0.0197,-0.0373,-0.1481,-11.7000,15.3600,-42.4200,
1.861448,-0.6166,-0.0230,-0.1751,0.0186,0.0655,-0.0847,-11.7000,15.3600,-42.4200,
1.870849,-0.6166,-0.0230,-0.1751,0.0186,0.0655,-0.0847,-11.8800,15.0000,-42.1800,
1.882355,-0.6166,-0.0230,-0.1751,0.0863,0.2668,-0.0346,-11.8800,15.0000,-42.1800,
1.886618,-0.6166,-0.0230,-0.1751,0.0863,0.2668,-0.0346,-11.8800,15.0000,-42.1800,
1.887487,-0.7909,0.8707,-0.3233,0.0863,0.2668,-0.0346,-11.8800,15.0000,-42.1800,
1.902560,-0.7909,0.8707,-0.3233,0.1529,0.4096,-0.0165,-11.8800,15.0000,-42.1800,
1.922989,-0.7909,0.8707,-0.3233,0.1609,0.3441,-0.0165,-11.8800,15.0000,-42.1800,
1.932715,-0.7909,0.8707,-0.3233,0.1609,0.3441,-0.0165,-11.2800,15.4200,-42.7200,
1.943565,-0.7909,0.8707,-0.3233,0.0581,0.0607,-0.0804,-11.2800,15.4200,-42.7200,
1.949031,-0.7909,0.8707,-0.3233,0.0581,0.0607,-0.0804,-11.2800,15.4200,-42.7200,
1.950027,-0.2668,0.0239,0.1931,0.0581,0.0607,-0.0804,-11.2800,15.4200,-42.7200,
1.964997,-0.2668,0.0239,0.1931,-0.0245,-0.1443,-0.1694,-11.2800,15.4200,-42.7200,
1.984738,-0.2668,0.0239,0.1931,-0.0778,-0.1971,-0.2349,-11.2800,15.4200,-42.7200,
1.993630,-0.2668,0.0239,0.1931,-0.0778,-0.1971,-0.2349,-11.4600,14.7600,-42.9000,
2.005879,-0.2668,0.0239,0.1931,-0.1310,-0.2024,-0.2839,-11.4600,14.7600,-42.9000,
2.009940,-0.2668,0.0239,0.1931,-0.1310,-0.2024,-0.2839,-11.4600,14.7600,-42.9000,
2.010953,-0.6626,-0.5130,-0.3653,-0.1310,-0.2024,-0.2839,-11.4600,14.7600,-42.9000,
2.026066,-0.6626,-0.5130,-0.3653,-0.1694,-0.2360,-0.2951,-11.4600,14.7600,-42.9000,
2.046268,-0.6626,-0.5130,-0.3653,-0.1411,-0.1896,-0.2844,-11.4600,14.7600,-42.9000,
2.056517,-0.6626,-0.5130,-0.3653,-0.1411,-0.1896,-0.2844,-11.2800,14.7600,-42.5400,
2.066603,-0.6626,-0.5130,-0.3653,-0.0751,-0.0618,-0.2802,-11.2800,14.7600,-42.5400,
2.071577,-0.6626,-0.5130,-0.3653,-0.0751,-0.0618,-0.2802,-11.2800,14.7600,-42.5400,
2.072635,0.3201,0.2920,0.0190,-0.0751,-0.0618,-0.2802,-11.2800,14.7600,-42.5400,
2.087497,0.3201,0.2920,0.0190,-0.0330,0.0772,-0.2887,-11.2800,14.7600,-42.5400,
2.107731,0.3201,0.2920,0.0190,-0.0240,0.1209,-0.3121,-11.2800,14.7600,-42.5400,
2.116854,0.3201,0.2920,0.0190,-0.0240,0.1209,-0.3121,-10.9200,14.9400,-43.5000,
2.128608,0.3201,0.2920,0.0190,-0.0138,0.1225,-0.3143,-10.9200,14.9400,-43.5000,
2.132666,0.3201,0.2920,0.0190,-0.0138,0.1225,-0.3143,-10.9200,14.9400,-43.5000,
2.133556,0.0533,0.5207,0.3423,-0.0138,0.1225,-0.3143,-10.9200,14.9400,-43.5000,
2.148643,0.0533,0.5207,0.3423,0.0415,0.1177,-0.2519,-10.9200,14.9400,-43.5000,
2.169460,0.0533,0.5207,0.3423,0.1443,0.1326,-0.1486,-10.9200,14.9400,-43.5000,
2.178894,0.0533,0.5207,0.3423,0.1443,0.1326,-0.1486,-11.2800,14.3400,-43.3200,
2.190236,0.0533,0.5207,0.3423,0.3595,0.2226,-0.0277,-11.2800,14.3400,-43.3200,
2.194566,0.0533,0.5207,0.3423,0.3595,0.2226,-0.0277,-11.2800,14.3400,-43.3200,
2.195404,-1.2612,1.6240,2.1425,0.3595,0.2226,-0.0277,-11.2800,14.3400,-43.3200,
2.211545,-1.2612,1.6240,2.1425,0.5934,0.3254,0.0799,-11.2800,14.3400,-43.3200,
2.232333,-1.2612,1.6240,2.1425,0.5630,0.2951,0.1459,-11.2800,14.3400,-43.3200,
2.240860,-1.2612,1.6240,2.1425,0.5630,0.2951,0.1459,-11.1600,14.1600,-43.1400,
2.252308,-1.2612,1.6240,2.1425,0.5369,0.1055,0.1965,-11.1600,14.1600,-43.1400,
2.258064,-1.2612,1.6240,2.1425,0.5369,0.1055,0.1965,-11.1600,14.1600,-43.1400,
2.259059,-1.8855,2.3953,1.1530,0.5369,0.1055,0.1965,-11.1600,14.1600,-43.1400,
2.278584,-1.8855,2.3953,1.1530,0.7771,-0.0783,0.2711,-11.1600,14.1600,-43.1400,
2.292603,-1.8855,2.3953,1.1530,0.9529,0.1135,0.3462,-11.1600,14.1600,-43.1400,
2.301487,-1.8855,2.3953,1.1530,0.9529,0.1135,0.3462,-10.7400,13.9200,-43.7400,
2.312817,-1.8855,2.3953,1.1530,1.1457,0.5518,0.5433,-10.7400,13.9200,-43.7400,
2.317600,-1.8855,2.3953,1.1530,1.1457,0.5518,0.5433,-10.7400,13.9200,-43.7400,
2.318705,-2.7242,3.8420,1.7788,1.1457,0.5518,0.5433,-10.7400,13.9200,-43.7400,
2.333983,-2.7242,3.8420,1.7788,1.3689,0.3111,0.8437,-10.7400,13.9200,-43.7400,
2.354238,-2.7242,3.8420,1.7788,1.4125,-0.2040,0.7318,-10.7400,13.9200,-43.7400,
2.363311,-2.7242,3.8420,1.7788,1.4125,-0.2040,0.7318,-10.2000,12.8400,-43.6200,
2.375029,-2.7242,3.8420,1.7788,0.9726,0.0405,0.3718,-10.2000,12.8400,-43.6200,
2.379204,-2.7242,3.8420,1.7788,0.9726,0.0405,0.3718,-10.2000,12.8400,-43.6200,
2.380054,1.3888,4.0583,-3.1555,0.9726,0.0405,0.3718,-10.2000,12.8400,-43.6200,
2.394904,1.3888,4.0583,-3.1555,0.5694,0.1300,0.1790,-10.2000,12.8400,-43.6200,
2.415863,1.3888,4.0583,-3.1555,0.3153,-0.3649,0.1140,-10.2000,12.8400,-43.6200,
2.424793,1.3888,4.0583,-3.1555,0.3153,-0.3649,0.1140,-9.1800,11.2800,-44.2800,
2.436005,1.3888,4.0583,-3.1555,0.2450,-0.6802,0.2200,-9.1800,11.2800,-44.2800,
2.440499,1.3888,4.0583,-3.1555,0.2450,-0.6802,0.2200,-9.1800,11.2800,-44.2800,
2.441469,-1.1575,6.8320,-1.8097,0.2450,-0.6802,0.2200,-9.1800,11.2800,-44.2800,
2.456936,-1.1575,6.8320,-1.8097,0.2242,-0.4352,0.2051,-9.1800,11.2800,-44.2800,
2.477031,-1.1575,6.8320,-1.8097,0.0266,-0.1859,-0.0724,-9.1800,11.2800,-44.2800,
2.486219,-1.1575,6.8320,-1.8097,0.0266,-0.1859,-0.0724,-8.4000,9.0600,-45.1800,
2.499911,-1.1575,6.8320,-1.8097,-0.0852,0.1342,-0.3222,-8.4000,9.0600,-45.1800,
2.503066,-1.1575,6.8320,-1.8097,-0.0852,0.1342,-0.3222,-8.4000,9.0600,-45.1800,
2.503902,1.8759,1.3113,-0.4999,-0.0852,0.1342,-0.3222,-8.4000,9.0600,-45.1800,
2.518636,1.8759,1.3113,-0.4999,-0.1119,0.0511,-0.3947,-8.4000,9.0600,-45.1800,
2.539405,1.8759,1.3113,-0.4999,0.0320,-0.3324,-0.0357,-8.4000,9.0600,-45.1800,
2.548074,1.8759,1.3113,-0.4999,0.0320,-0.3324,-0.0357,-8.4600,6.6000,-45.6600,
2.559064,1.8759,1.3113,-0.4999,0.3254,-0.5284,0.5284,-8.4600,6.6000,-45.6600,
2.564937,1.8759,1.3113,-0.4999,0.3254,-0.5284,0.5284,-8.4600,6.6000,-45.6600,
2.565858,3.0057,0.8709,-2.3654,0.3254,-0.5284,0.5284,-8.4600,6.6000,-45.6600,
2.580202,3.0057,0.8709,-2.3654,0.3723,-0.4320,0.7073,-8.4600,6.6000,-45.6600,
2.600658,3.0057,0.8709,-2.3654,0.3228,-0.1827,0.5902,-8.4600,6.6000,-45.6600,
2.609319,3.0057,0.8709,-2.3654,0.3228,-0.1827,0.5902,-8.2800,5.0400,-46.2000,
2.621153,3.0057,0.8709,-2.3654,0.1523,-0.0240,0.3941,-8.2800,5.0400,-46.2000,
2.625515,3.0057,0.8709,-2.3654,0.1523,-0.0240,0.3941,-8.2800,5.0400,-46.2000,
2.626650,5.0742,6.4362,2.0800,0.1523,-0.0240,0.3941,-8.2800,5.0400,-46.2000,
2.641237,5.0742,6.4362,2.0800,-0.3361,-1.3023,-0.2413,-8.2800,5.0400,-46.2000,
2.661991,5.0742,6.4362,2.0800,-0.9960,-4.0038,-2.2807,-8.2800,5.0400,-46.2000,
2.671071,5.0742,6.4362,2.0800,-0.9960,-4.0038,-2.2807,-8.5800,3.4200,-46.2000,
2.683572,5.0742,6.4362,2.0800,-2.1311,-5.0877,-4.0139,-8.5800,3.4200,-46.2000,
2.686644,5.0742,6.4362,2.0800,-2.1311,-5.0877,-4.0139,-8.5800,3.4200,-46.2000,
2.687505,13.5809,-60.6896,-17.0992,-2.1311,-5.0877,-4.0139,-8.5800,3.4200,-46.2000,
2.702736,13.5809,-60.6896,-17.0992,-0.7446,-2.4773,-4.2318,-8.5800,3.4200,-46.2000,
2.707035,13.5809,-60.6896,-17.0992,-0.7446,-2.4773,-4.2318,-8.5800,3.4200,-46.2000,
2.708400,8.1139,-54.9219,2.9783,-0.7446,-2.4773,-4.2318,-8.5800,3.4200,-46.2000,
2.723535,8.1139,-54.9219,2.9783,-0.6093,0.8639,-0.6770,-8.5800,3.4200,-46.2000,
2.728039,8.1139,-54.9219,2.9783,-0.6093,0.8639,-0.6770,-8.5800,3.4200,-46.2000,
2.729152,2.6290,-11.8529,2.2776,-0.6093,0.8639,-0.6770,-8.5800,3.4200,-46.2000,
2.732217,2.6290,-11.8529,2.2776,-0.6093,0.8639,-0.6770,-9.9600,2.5200,-46.3800,
2.743911,2.6290,-11.8529,2.2776,-1.8695,1.3177,-0.3494,-9.9600,2.5200,-46.3800,
2.748273,2.6290,-11.8529,2.2776,-1.8695,1.3177,-0.3494,-9.9600,2.5200,-46.3800,
2.749502,-3.4102,1.7035,2.6087,-1.8695,1.3177,-0.3494,-9.9600,2.5200,-46.3800,
2.764626,-3.4102,1.7035,2.6087,-1.0370,1.6623,-0.6338,-9.9600,2.5200,-46.3800,
2.785612,-3.4102,1.7035,2.6087,-0.3350,1.7406,-1.1276,-9.9600,2.5200,-46.3800,
2.794053,-3.4102,1.7035,2.6087,-0.3350,1.7406,-1.1276,-12.6000,2.1600,-45.4800,
2.806037,-3.4102,1.7035,2.6087,-0.2232,1.9388,-1.8642,-12.6000,2.1600,-45.4800,
2.810072,-3.4102,1.7035,2.6087,-0.2232,1.9388,-1.8642,-12.6000,2.1600,-45.4800,
2.810962,-4.9742,13.8862,0.7862,-0.2232,1.9388,-1.8642,-12.6000,2.1600,-45.4800,
2.827583,-4.9742,13.8862,0.7862,-0.8586,3.7545,-2.7617,-12.6000,2.1600,-45.4800,
2.846966,-4.9742,13.8862,0.7862,-0.7063,3.2602,-3.2618,-12.6000,2.1600,-45.4800,
2.856723,-4.9742,13.8862,0.7862,-0.7063,3.2602,-3.2618,-14.6400,2.3400,-45.1800,
2.867302,-4.9742,13.8862,0.7862,-0.4277,1.8301,-3.5393,-14.6400,2.3400,-45.1800,
2.871805,-4.9742,13.8862,0.7862,-0.4277,1.8301,-3.5393,-14.6400,2.3400,-45.1800,
2.872630,-9.2801,14.6159,1.4849,-0.4277,1.8301,-3.5393,-14.6400,2.3400,-45.1800,
2.887296,-9.2801,14.6159,1.4849,-0.5470,1.0717,-3.3694,-14.6400,2.3400,-45.1800,
2.908255,-9.2801,14.6159,1.4849,-0.7718,0.4799,-2.5178,-14.6400,2.3400,-45.1800,
2.917121,-9.2801,14.6159,1.4849,-0.7718,0.4799,-2.5178,-14.7600,3.1200,-44.6400,
2.929448,-9.2801,14.6159,1.4849,-0.6061,-0.2626,-1.8626,-14.7600,3.1200,-44.6400,
2.933167,-9.2801,14.6159,1.4849,-0.6061,-0.2626,-1.8626,-14.7600,3.1200,-44.6400,
2.934247,-8.5931,6.1467,-0.8342,-0.6061,-0.2626,-1.8626,-14.7600,3.1200,-44.6400,
2.949036,-8.5931,6.1467,-0.8342,-0.5907,-1.4807,-1.0397,-14.7600,3.1200,-44.6400,
2.969965,-8.5931,6.1467,-0.8342,-0.7409,-3.1649,-0.4288,-14.7600,3.1200,-44.6400,
2.979122,-8.5931,6.1467,-0.8342,-0.7409,-3.1649,-0.4288,-13.6800,3.9000,-44.8200,
2.990501,-8.5931,6.1467,-0.8342,-1.5196,-5.8749,-0.6413,-13.6800,3.9000,-44.8200,
2.994927,-8.5931,6.1467,-0.8342,-1.5196,-5.8749,-0.6413,-13.6800,3.9000,-44.8200,
2.995784,4.3911,-2.8723,-11.0831,-1.5196,-5.8749,-0.6413,-13.6800,3.9000,-44.8200,
3.011034,4.3911,-2.8723,-11.0831,-4.7420,-6.8976,-2.7777,-13.6800,3.9000,-44.8200,
3.031949,4.3911,-2.8723,-11.0831,-5.8733,-2.4618,-4.4965,-13.6800,3.9000,-44.8200,
3.040753,4.3911,-2.8723,-11.0831,-5.8733,-2.4618,-4.4965,-11.9400,4.4400,-45.6000,
3.051359,4.3911,-2.8723,-11.0831,-4.2179,-3.8126,-4.2946,-11.9400,4.4400,-45.6000,
3.057197,4.3911,-2.8723,-11.0831,-4.2179,-3.8126,-4.2946,-11.9400,4.4400,-45.6000,
3.058681,15.8635,-1.3846,2.6741,-4.2179,-3.8126,-4.2946,-11.9400,4.4400,-45.6000,
3.072984,15.8635,-1.3846,2.6741,-2.3026,-8.1418,-3.9463,-11.9400,4.4400,-45.6000,
3.092854,15.8635,-1.3846,2.6741,-0.7702,-8.1882,-2.5295,-11.9400,4.4400,-45.6000,
3.101917,15.8635,-1.3846,2.6741,-0.7702,-8.1882,-2.5295,-13.7400,5.7600,-43.1400,
3.115049,15.8635,-1.3846,2.6741,0.7515,-3.0616,-0.9492,-13.7400,5.7600,-43.1400,
3.117962,15.8635,-1.3846,2.6741,0.7515,-3.0616,-0.9492,-13.7400,5.7600,-43.1400,
3.118784,3.3017,-7.0758,0.8942,0.7515,-3.0616,-0.9492,-13.7400,5.7600,-43.1400,
3.133941,3.3017,-7.0758,0.8942,1.1105,0.9241,0.0586,-13.7400,5.7600,-43.1400,
3.154705,3.3017,-7.0758,0.8942,-1.2639,-0.0714,0.3696,-13.7400,5.7600,-43.1400,
3.164342,3.3017,-7.0758,0.8942,-1.2639,-0.0714,0.3696,-21.5400,6.5400,-37.9200,
3.174932,3.3017,-7.0758,0.8942,-2.5625,-0.9795,1.6426,-21.5400,6.5400,-37.9200,
3.179203,3.3017,-7.0758,0.8942,-2.5625,-0.9795,1.6426,-21.5400,6.5400,-37.9200,
3.179952,1.3179,-0.2048,4.9979,-2.5625,-0.9795,1.6426,-21.5400,6.5400,-37.9200,
3.195601,1.3179,-0.2048,4.9979,-1.3177,2.7942,2.8815,-21.5400,6.5400,-37.9200,
3.216048,1.3179,-0.2048,4.9979,-1.0631,5.8643,3.1713,-21.5400,6.5400,-37.9200,
3.224975,1.3179,-0.2048,4.9979,-1.0631,5.8643,3.1713,-29.2200,7.2600,-31.5000,
3.236746,1.3179,-0.2048,4.9979,-1.3002,3.4461,1.5835,-29.2200,7.2600,-31.5000,
3.241137,1.3179,-0.2048,4.9979,-1.3002,3.4461,1.5835,-29.2200,7.2600,-31.5000,
3.242200,7.2118,15.4994,-2.0477,-1.3002,3.4461,1.5835,-29.2200,7.2600,-31.5000,
3.257097,7.2118,15.4994,-2.0477,-0.0703,0.8980,0.0218,-29.2200,7.2600,-31.5000,
3.277720,7.2118,15.4994,-2.0477,-0.3553,-0.9465,-0.5087,-29.2200,7.2600,-31.5000,
3.286890,7.2118,15.4994,-2.0477,-0.3553,-0.9465,-0.5087,-34.8600,9.5400,-26.8200,
3.298151,7.2118,15.4994,-2.0477,-0.7121,-2.3729,-0.8453,-34.8600,9.5400,-26.8200,
3.302899,7.2118,15.4994,-2.0477,-0.7121,-2.3729,-0.8453,-34.8600,9.5400,-26.8200,
3.303738,-5.4905,-4.1730,-2.9941,-0.7121,-2.3729,-0.8453,-34.8600,9.5400,-26.8200,
3.319173,-5.4905,-4.1730,-2.9941,-0.4447,-1.5627,-1.2634,-34.8600,9.5400,-26.8200,
3.340166,-5.4905,-4.1730,-2.9941,-0.4778,-1.0780,-1.6959,-34.8600,9.5400,-26.8200,
3.349351,-5.4905,-4.1730,-2.9941,-0.4778,-1.0780,-1.6959,-36.8400,10.8600,-24.1200,
3.360023,-5.4905,-4.1730,-2.9941,-0.8123,-1.0759,-1.6416,-36.8400,10.8600,-24.1200,
3.365326,-5.4905,-4.1730,-2.9941,-0.8123,-1.0759,-1.6416,-36.8400,10.8600,-24.1200,
3.366525,1.0296,1.4599,0.7076,-0.8123,-1.0759,-1.6416,-36.8400,10.8600,-24.1200,
3.380627,1.0296,1.4599,0.7076,-0.8788,-1.3119,-1.2245,-36.8400,10.8600,-24.1200,
3.401370,1.0296,1.4599,0.7076,-0.7654,-0.8554,-0.6738,-36.8400,10.8600,-24.1200,
3.409665,1.0296,1.4599,0.7076,-0.7654,-0.8554,-0.6738,-35.5800,12.7800,-24.2400,
3.421406,1.0296,1.4599,0.7076,-0.2594,-0.3915,-0.1625,-35.5800,12.7800,-24.2400,
3.426097,1.0296,1.4599,0.7076,-0.2594,-0.3915,-0.1625,-35.5800,12.7800,-24.2400,
3.426784,1.1271,1.9455,-1.8267,-0.2594,-0.3915,-0.1625,-35.5800,12.7800,-24.2400,
3.443248,1.1271,1.9455,-1.8267,0.3899,0.1044,0.2024,-35.5800,12.7800,-24.2400,
3.463347,1.1271,1.9455,-1.8267,0.7201,0.9193,0.4277,-35.5800,12.7800,-24.2400,
3.472217,1.1271,1.9455,-1.8267,0.7201,0.9193,0.4277,-35.2800,14.0400,-24.0000,
3.483964,1.1271,1.9455,-1.8267,0.9971,1.5633,0.6029,-35.2800,14.0400,-24.0000,
3.487904,1.1271,1.9455,-1.8267,0.9971,1.5633,0.6029,-35.2800,14.0400,-24.0000,
3.488720,0.3196,1.2249,-1.5822,0.9971,1.5633,0.6029,-35.2800,14.0400,-24.0000,
3.504781,0.3196,1.2249,-1.5822,1.1792,1.7779,0.7111,-35.2800,14.0400,-24.0000,
3.525142,0.3196,1.2249,-1.5822,1.2080,1.5595,0.7308,-35.2800,14.0400,-24.0000,
3.533620,0.3196,1.2249,-1.5822,1.2080,1.5595,0.7308,-36.1200,13.4400,-22.6800,
3.545479,0.3196,1.2249,-1.5822,0.9294,1.3193,0.6653,-36.1200,13.4400,-22.6800,
3.553585,0.3196,1.2249,-1.5822,0.9294,1.3193,0.6653,-36.1200,13.4400,-22.6800,
3.555072,-0.0781,0.8535,0.1425,0.9294,1.3193,0.6653,-36.1200,13.4400,-22.6800,
3.565943,-0.0781,0.8535,0.1425,0.5657,1.1350,0.5864,-36.1200,13.4400,-22.6800,
3.585942,-0.0781,0.8535,0.1425,0.5369,0.7638,0.5353,-36.1200,13.4400,-22.6800,
3.595221,-0.0781,0.8535,0.1425,0.5369,0.7638,0.5353,-36.4800,12.9000,-23.4600,
3.607106,-0.0781,0.8535,0.1425,0.7281,0.4432,0.4922,-36.4800,12.9000,-23.4600,
3.610215,-0.0781,0.8535,0.1425,0.7281,0.4432,0.4922,-36.4800,12.9000,-23.4600,
3.610938,0.3637,0.7337,-0.7780,0.7281,0.4432,0.4922,-36.4800,12.9000,-23.4600,
3.626513,0.3637,0.7337,-0.7780,0.8432,0.3127,0.3579,-36.4800,12.9000,-23.4600,
3.648538,0.3637,0.7337,-0.7780,0.9007,0.4586,0.2882,-36.4800,12.9000,-23.4600,
3.656236,0.3637,0.7337,-0.7780,0.9007,0.4586,0.2882,-36.0600,12.0000,-24.7800,
3.668179,0.3637,0.7337,-0.7780,1.0818,0.5076,0.2866,-36.0600,12.0000,-24.7800,
3.672936,0.3637,0.7337,-0.7780,1.0818,0.5076,0.2866,-36.0600,12.0000,-24.7800,
3.674016,0.5832,-0.9376,-1.9986,1.0818,0.5076,0.2866,-36.0600,12.0000,-24.7800,
3.689177,0.5832,-0.9376,-1.9986,1.2623,0.1097,0.2887,-36.0600,12.0000,-24.7800,
3.709487,0.5832,-0.9376,-1.9986,1.2442,-0.6083,0.2605,-36.0600,12.0000,-24.7800,
3.718844,0.5832,-0.9376,-1.9986,1.2442,-0.6083,0.2605,-34.3200,11.9400,-27.4800,
3.730169,0.5832,-0.9376,-1.9986,1.0168,-0.8740,0.1555,-34.3200,11.9400,-27.4800,
3.733887,0.5832,-0.9376,-1.9986,1.0168,-0.8740,0.1555,-34.3200,11.9400,-27.4800,
3.734745,2.0464,-0.3202,-1.3286,1.0168,-0.8740,0.1555,-34.3200,11.9400,-27.4800,
3.750159,2.0464,-0.3202,-1.3286,1.0312,-0.8005,0.2988,-34.3200,11.9400,-27.4800,
3.771024,2.0464,-0.3202,-1.3286,1.0791,-0.8245,0.3393,-34.3200,11.9400,-27.4800,
3.779671,2.0464,-0.3202,-1.3286,1.0791,-0.8245,0.3393,-32.8200,12.0000,-30.0600,
3.791585,2.0464,-0.3202,-1.3286,1.1659,-0.6610,0.3878,-32.8200,12.0000,-30.0600,
3.795782,2.0464,-0.3202,-1.3286,1.1659,-0.6610,0.3878,-32.8200,12.0000,-30.0600,
3.796737,-0.6319,0.7160,0.5215,1.1659,-0.6610,0.3878,-32.8200,12.0000,-30.0600,
3.812377,-0.6319,0.7160,0.5215,1.2059,-0.5907,0.5076,-32.8200,12.0000,-30.0600,
3.832813,-0.6319,0.7160,0.5215,1.2368,-0.4597,0.5619,-32.8200,12.0000,-30.0600,
3.842168,-0.6319,0.7160,0.5215,1.2368,-0.4597,0.5619,-32.9400,10.9200,-30.6000,
3.853431,-0.6319,0.7160,0.5215,1.2096,-0.4224,0.6999,-32.9400,10.9200,-30.6000,
3.858257,-0.6319,0.7160,0.5215,1.2096,-0.4224,0.6999,-32.9400,10.9200,-30.6000,
3.859626,-0.8878,-0.5205,0.3373,1.2096,-0.4224,0.6999,-32.9400,10.9200,-30.6000,
3.873505,-0.8878,-0.5205,0.3373,1.1611,-0.4815,0.7297,-32.9400,10.9200,-30.6000,
3.894421,-0.8878,-0.5205,0.3373,1.1468,-0.5108,0.6993,-32.9400,10.9200,-30.6000,
3.902459,-0.8878,-0.5205,0.3373,1.1468,-0.5108,0.6993,-32.9400,10.3200,-30.3000,
3.914986,-0.8878,-0.5205,0.3373,1.2570,-0.6141,0.6962,-32.9400,10.3200,-30.3000,
3.919201,-0.8878,-0.5205,0.3373,1.2570,-0.6141,0.6962,-32.9400,10.3200,-30.3000,
3.920088,0.0515,-0.5127,0.7362,1.2570,-0.6141,0.6962,-32.9400,10.3200,-30.3000,
3.934617,0.0515,-0.5127,0.7362,1.3721,-0.6653,0.7867,-32.9400,10.3200,-30.3000,
3.956104,0.0515,-0.5127,0.7362,1.3273,-0.5374,0.9476,-32.9400,10.3200,-30.3000,
3.964338,0.0515,-0.5127,0.7362,1.3273,-0.5374,0.9476,-33.9000,9.4800,-30.3000,
3.976249,0.0515,-0.5127,0.7362,1.2352,-0.2823,1.1478,-33.9000,9.4800,-30.3000,
3.979998,0.0515,-0.5127,0.7362,1.2352,-0.2823,1.1478,-33.9000,9.4800,-30.3000,
3.980822,0.6423,-0.3121,-0.4178,1.2352,-0.2823,1.1478,-33.9000,9.4800,-30.3000,
3.997142,0.6423,-0.3121,-0.4178,1.2528,0.0447,1.1952,-33.9000,9.4800,-30.3000,
4.016437,0.6423,-0.3121,-0.4178,1.4030,0.2679,0.9651,-33.9000,9.4800,-30.3000,
4.025973,0.6423,-0.3121,-0.4178,1.4030,0.2679,0.9651,-34.3800,8.2800,-29.8800,
4.036870,0.6423,-0.3121,-0.4178,1.5052,0.1656,0.7436,-34.3800,8.2800,-29.8800,
4.041625,0.6423,-0.3121,-0.4178,1.5052,0.1656,0.7436,-34.3800,8.2800,-29.8800,
4.043054,1.6540,0.7351,2.4206,1.5052,0.1656,0.7436,-34.3800,8.2800,-29.8800,
4.058889,1.6540,0.7351,2.4206,1.4216,0.0495,0.6120,-34.3800,8.2800,-29.8800,
4.078215,1.6540,0.7351,2.4206,1.2416,0.2109,0.5981,-34.3800,8.2800,-29.8800,
4.087111,1.6540,0.7351,2.4206,1.2416,0.2109,0.5981,-34.2600,8.2200,-30.1200,
4.099378,1.6540,0.7351,2.4206,1.0743,0.3968,0.6988,-34.2600,8.2200,-30.1200,
4.103092,1.6540,0.7351,2.4206,1.0743,0.3968,0.6988,-34.2600,8.2200,-30.1200,
4.104048,-2.4841,0.7452,1.1668,1.0743,0.3968,0.6988,-34.2600,8.2200,-30.1200,
4.119412,-2.4841,0.7452,1.1668,0.8740,0.1481,0.7878,-34.2600,8.2200,-30.1200,
4.140201,-2.4841,0.7452,1.1668,0.6764,-0.3718,0.7963,-34.2600,8.2200,-30.1200,
4.151016,-2.4841,0.7452,1.1668,0.6764,-0.3718,0.7963,-34.0200,7.7400,-30.9000,
4.161445,-2.4841,0.7452,1.1668,0.5784,-0.7686,0.6663,-34.0200,7.7400,-30.9000,
4.171228,-2.4841,0.7452,1.1668,0.5784,-0.7686,0.6663,-34.0200,7.7400,-30.9000,
4.172910,-1.7443,0.0687,0.8667,0.5784,-0.7686,0.6663,-34.0200,7.7400,-30.9000,
4.183718,-1.7443,0.0687,0.8667,0.4708,-1.0658,0.5694,-34.0200,7.7400,-30.9000,
4.201745,-1.7443,0.0687,0.8667,0.4155,-1.1590,0.5822,-34.0200,7.7400,-30.9000,
4.211729,-1.7443,0.0687,0.8667,0.4155,-1.1590,0.5822,-33.3600,7.5000,-30.6600,
4.222147,-1.7443,0.0687,0.8667,0.4916,-1.1127,0.6956,-33.3600,7.5000,-30.6600,
4.226940,-1.7443,0.0687,0.8667,0.4916,-1.1127,0.6956,-33.3600,7.5000,-30.6600,
4.227850,-0.9591,-0.9782,0.1652,0.4916,-1.1127,0.6956,-33.3600,7.5000,-30.6600,
4.243029,-0.9591,-0.9782,0.1652,0.6716,-0.9971,0.7824,-33.3600,7.5000,-30.6600,
4.263676,-0.9591,-0.9782,0.1652,0.9454,-0.8000,0.8836,-33.3600,7.5000,-30.6600,
4.272421,-0.9591,-0.9782,0.1652,0.9454,-0.8000,0.8836,-33.5400,7.8600,-30.9600,
4.284164,-0.9591,-0.9782,0.1652,1.2277,-0.5550,0.9768,-33.5400,7.8600,-30.9600,
4.288331,-0.9591,-0.9782,0.1652,1.2277,-0.5550,0.9768,-33.5400,7.8600,-30.9600,
4.289247,0.1358,-0.9505,-0.1430,1.2277,-0.5550,0.9768,-33.5400,7.8600,-30.9600,
4.304032,0.1358,-0.9505,-0.1430,1.3779,-0.3265,0.9486,-33.5400,7.8600,-30.9600,
4.325373,0.1358,-0.9505,-0.1430,1.4860,-0.0565,0.8203,-33.5400,7.8600,-30.9600,
4.333536,0.1358,-0.9505,-0.1430,1.4860,-0.0565,0.8203,-33.3600,8.1600,-30.2400,
4.346287,0.1358,-0.9505,-0.1430,1.5489,0.1230,0.6093,-33.3600,8.1600,-30.2400,
4.350348,0.1358,-0.9505,-0.1430,1.5489,0.1230,0.6093,-33.3600,8.1600,-30.2400,
4.351261,1.1072,1.5398,-0.3921,1.5489,0.1230,0.6093,-33.3600,8.1600,-30.2400,
4.366431,1.1072,1.5398,-0.3921,1.6144,0.1997,0.4421,-33.3600,8.1600,-30.2400,
4.386183,1.1072,1.5398,-0.3921,1.7438,0.3947,0.3931,-33.3600,8.1600,-30.2400,
4.394978,1.1072,1.5398,-0.3921,1.7438,0.3947,0.3931,-34.0200,8.6400,-29.5200,
4.407137,1.1072,1.5398,-0.3921,1.8994,0.8922,0.4794,-34.0200,8.6400,-29.5200,
4.410317,1.1072,1.5398,-0.3921,1.8994,0.8922,0.4794,-34.0200,8.6400,-29.5200,
4.410640,-1.0463,0.8674,0.3100,1.8994,0.8922,0.4794,-34.0200,8.6400,-29.5200,
4.426910,-1.0463,0.8674,0.3100,1.9990,1.4046,0.7057,-34.0200,8.6400,-29.5200,
4.446798,-1.0463,0.8674,0.3100,2.0006,1.4637,1.0717,-34.0200,8.6400,-29.5200,
4.456355,-1.0463,0.8674,0.3100,2.0006,1.4637,1.0717,-34.2000,8.7000,-29.7000,
4.468709,-1.0463,0.8674,0.3100,1.8211,0.8852,1.3502,-34.2000,8.7000,-29.7000,
4.473754,-1.0463,0.8674,0.3100,1.8211,0.8852,1.3502,-34.2000,8.7000,-29.7000,
4.474993,-3.9894,-1.6196,0.9451,1.8211,0.8852,1.3502,-34.2000,8.7000,-29.7000,
4.489529,-3.9894,-1.6196,0.9451,1.5409,0.1060,1.3619,-34.2000,8.7000,-29.7000,
4.510639,-3.9894,-1.6196,0.9451,1.4072,-0.0676,1.1143,-34.2000,8.7000,-29.7000,
4.519147,-3.9894,-1.6196,0.9451,1.4072,-0.0676,1.1143,-33.5400,8.0400,-30.5400,
4.530654,-3.9894,-1.6196,0.9451,1.3508,0.0298,0.8495,-33.5400,8.0400,-30.5400,
4.534744,-3.9894,-1.6196,0.9451,1.3508,0.0298,0.8495,-33.5400,8.0400,-30.5400,
4.535645,-3.0287,2.8434,0.7103,1.3508,0.0298,0.8495,-33.5400,8.0400,-30.5400,
4.551589,-3.0287,2.8434,0.7103,1.2101,-0.0314,0.6663,-33.5400,8.0400,-30.5400,
4.571768,-3.0287,2.8434,0.7103,1.0578,-0.1406,0.5097,-33.5400,8.0400,-30.5400,
4.580047,-3.0287,2.8434,0.7103,1.0578,-0.1406,0.5097,-33.3600,7.1400,-32.2800,
4.591795,-3.0287,2.8434,0.7103,0.9731,-0.2264,0.5055,-33.3600,7.1400,-32.2800,
4.596969,-3.0287,2.8434,0.7103,0.9731,-0.2264,0.5055,-33.3600,7.1400,-32.2800,
4.598775,-2.7008,0.4342,1.0507,0.9731,-0.2264,0.5055,-33.3600,7.1400,-32.2800,
4.612337,-2.7008,0.4342,1.0507,0.9513,-0.1470,0.5625,-33.3600,7.1400,-32.2800,
4.634307,-2.7008,0.4342,1.0507,0.9380,0.0144,0.6349,-33.3600,7.1400,-32.2800,
4.642196,-2.7008,0.4342,1.0507,0.9380,0.0144,0.6349,-31.9200,6.1800,-34.6800,
4.654022,-2.7008,0.4342,1.0507,0.9492,0.0842,0.6919,-31.9200,6.1800,-34.6800,
4.658589,-2.7008,0.4342,1.0507,0.9492,0.0842,0.6919,-31.9200,6.1800,-34.6800,
4.659989,-0.1587,0.5621,1.3737,0.9492,0.0842,0.6919,-31.9200,6.1800,-34.6800,
4.676617,-0.1587,0.5621,1.3737,0.9902,0.0442,0.6440,-31.9200,6.1800,-34.6800,
4.695315,-0.1587,0.5621,1.3737,0.9199,-0.0346,0.5417,-31.9200,6.1800,-34.6800,
4.704002,-0.1587,0.5621,1.3737,0.9199,-0.0346,0.5417,-30.7800,5.4600,-35.8800,
4.715225,-0.1587,0.5621,1.3737,0.8203,-0.0293,0.4922,-30.7800,5.4600,-35.8800,
4.719954,-0.1587,0.5621,1.3737,0.8203,-0.0293,0.4922,-30.7800,5.4600,-35.8800,
4.720905,0.0541,0.6283,0.6112,0.8203,-0.0293,0.4922,-30.7800,5.4600,-35.8800,
4.735974,0.0541,0.6283,0.6112,0.7856,0.0224,0.4980,-30.7800,5.4600,-35.8800,
4.756794,0.0541,0.6283,0.6112,0.7254,0.1411,0.4975,-30.7800,5.4600,-35.8800,
4.765066,0.0541,0.6283,0.6112,0.7254,0.1411,0.4975,-30.3000,5.3400,-36.2400,
4.776078,0.0541,0.6283,0.6112,0.6232,0.1667,0.5087,-30.3000,5.3400,-36.2400,
4.781153,0.0541,0.6283,0.6112,0.6232,0.1667,0.5087,-30.3000,5.3400,-36.2400,
4.782167,-0.5264,0.5447,0.4570,0.6232,0.1667,0.5087,-30.3000,5.3400,-36.2400,
4.797765,-0.5264,0.5447,0.4570,0.5310,0.0554,0.5257,-30.3000,5.3400,-36.2400,
4.817506,-0.5264,0.5447,0.4570,0.4405,-0.2051,0.5310,-30.3000,5.3400,-36.2400,
4.826866,-0.5264,0.5447,0.4570,0.4405,-0.2051,0.5310,-29.7600,4.7400,-36.5400,
4.838591,-0.5264,0.5447,0.4570,0.3654,-0.4117,0.5023,-29.7600,4.7400,-36.5400,
4.843026,-0.5264,0.5447,0.4570,0.3654,-0.4117,0.5023,-29.7600,4.7400,-36.5400,
4.844375,-0.5822,0.2360,0.8977,0.3654,-0.4117,0.5023,-29.7600,4.7400,-36.5400,
4.858879,-0.5822,0.2360,0.8977,0.2514,-0.4783,0.4804,-29.7600,4.7400,-36.5400,
4.879855,-0.5822,0.2360,0.8977,0.1262,-0.4453,0.4543,-29.7600,4.7400,-36.5400,
4.888274,-0.5822,0.2360,0.8977,0.1262,-0.4453,0.4543,-29.3400,4.5000,-36.9000,
4.900334,-0.5822,0.2360,0.8977,0.0501,-0.4240,0.4043,-29.3400,4.5000,-36.9000,
4.904394,-0.5822,0.2360,0.8977,0.0501,-0.4240,0.4043,-29.3400,4.5000,-36.9000,
4.905315,-0.0159,0.1344,-0.0819,0.0501,-0.4240,0.4043,-29.3400,4.5000,-36.9000,
4.920069,-0.0159,0.1344,-0.0819,0.0778,-0.4176,0.3521,-29.3400,4.5000,-36.9000,
4.941164,-0.0159,0.1344,-0.0819,0.1550,-0.4059,0.3435,-29.3400,4.5000,-36.9000,
4.949914,-0.0159,0.1344,-0.0819,0.1550,-0.4059,0.3435,-29.8800,3.7200,-37.1400,
4.962189,-0.0159,0.1344,-0.0819,0.1795,-0.3670,0.4048,-29.8800,3.7200,-37.1400,
4.966020,-0.0159,0.1344,-0.0819,0.1795,-0.3670,0.4048,-29.8800,3.7200,-37.1400,
4.966971,-0.1585,-0.1670,-0.2682,0.1795,-0.3670,0.4048,-29.8800,3.7200,-37.1400,
4.982533,-0.1585,-0.1670,-0.2682,0.1625,-0.2988,0.4506,-29.8800,3.7200,-37.1400,
5.003084,-0.1585,-0.1670,-0.2682,0.1672,-0.2759,0.4692,-29.8800,3.7200,-37.1400,
5.012064,-0.1585,-0.1670,-0.2682,0.1672,-0.2759,0.4692,-30.2400,3.6000,-37.2000,
5.023266,-0.1585,-0.1670,-0.2682,0.2077,-0.3531,0.4751,-30.2400,3.6000,-37.2000,
5.028063,-0.1585,-0.1670,-0.2682,0.2077,-0.3531,0.4751,-30.2400,3.6000,-37.2000,
5.029536,0.0606,-0.5679,-0.3603,0.2077,-0.3531,0.4751,-30.2400,3.6000,-37.2000,
5.044057,0.0606,-0.5679,-0.3603,0.2722,-0.4906,0.4549,-30.2400,3.6000,-37.2000,
5.064620,0.0606,-0.5679,-0.3603,0.3483,-0.6003,0.4602,-30.2400,3.6000,-37.2000,
5.073079,0.0606,-0.5679,-0.3603,0.3483,-0.6003,0.4602,-30.7200,3.6600,-36.7800,
5.085007,0.0606,-0.5679,-0.3603,0.4096,-0.6583,0.4879,-30.7200,3.6600,-36.7800,
5.089235,0.0606,-0.5679,-0.3603,0.4096,-0.6583,0.4879,-30.7200,3.6600,-36.7800,
5.090355,-0.3449,-0.7345,-0.5872,0.4096,-0.6583,0.4879,-30.7200,3.6600,-36.7800,
5.105042,-0.3449,-0.7345,-0.5872,0.4479,-0.6210,0.4629,-30.7200,3.6600,-36.7800,
5.125439,-0.3449,-0.7345,-0.5872,0.4293,-0.5145,0.3510,-30.7200,3.6600,-36.7800,
5.134621,-0.3449,-0.7345,-0.5872,0.4293,-0.5145,0.3510,-32.1000,3.9600,-35.6400,
5.146613,-0.3449,-0.7345,-0.5872,0.4490,-0.4027,0.2482,-32.1000,3.9600,-35.6400,
5.150840,-0.3449,-0.7345,-0.5872,0.4490,-0.4027,0.2482,-32.1000,3.9600,-35.6400,
5.151766,0.2005,-0.5196,0.1282,0.4490,-0.4027,0.2482,-32.1000,3.9600,-35.6400,
5.167230,0.2005,-0.5196,0.1282,0.5843,-0.3931,0.2583,-32.1000,3.9600,-35.6400,
5.187621,0.2005,-0.5196,0.1282,0.5859,-0.3542,0.3372,-32.1000,3.9600,-35.6400,
5.195796,0.2005,-0.5196,0.1282,0.5859,-0.3542,0.3372,-32.5800,4.3200,-35.4000,
5.208503,0.2005,-0.5196,0.1282,0.6189,-0.1198,0.4751,-32.5800,4.3200,-35.4000,
5.212788,0.2005,-0.5196,0.1282,0.6189,-0.1198,0.4751,-32.5800,4.3200,-35.4000,
5.213737,-0.2569,-0.9482,-1.1835,0.6189,-0.1198,0.4751,-32.5800,4.3200,-35.4000,
5.228520,-0.2569,-0.9482,-1.1835,1.0173,-0.0474,0.4394,-32.5800,4.3200,-35.4000,
5.249058,-0.2569,-0.9482,-1.1835,1.6964,0.1055,0.5023,-32.5800,4.3200,-35.4000,
5.259033,-0.2569,-0.9482,-1.1835,1.6964,0.1055,0.5023,-33.1800,4.2000,-35.1600,
5.269574,-0.2569,-0.9482,-1.1835,0.9934,0.3505,0.7308,-33.1800,4.2000,-35.1600,
5.273075,-0.2569,-0.9482,-1.1835,0.9934,0.3505,0.7308,-33.1800,4.2000,-35.1600,
5.274140,-0.7440,-1.6520,1.9378,0.9934,0.3505,0.7308,-33.1800,4.2000,-35.1600,
5.290478,-0.7440,-1.6520,1.9378,0.5886,0.3915,0.6029,-33.1800,4.2000,-35.1600,
5.310733,-0.7440,-1.6520,1.9378,0.9635,0.9609,0.0874,-33.1800,4.2000,-35.1600,
5.319930,-0.7440,-1.6520,1.9378,0.9635,0.9609,0.0874,-33.7200,3.9000,-34.6200,
5.331794,-0.7440,-1.6520,1.9378,1.2304,0.9902,-0.4330,-33.7200,3.9000,-34.6200,
5.335494,-0.7440,-1.6520,1.9378,1.2304,0.9902,-0.4330,-33.7200,3.9000,-34.6200,
5.336463,0.3181,-5.9461,4.5132,1.2304,0.9902,-0.4330,-33.7200,3.9000,-34.6200,
5.352169,0.3181,-5.9461,4.5132,1.6213,0.7782,-1.0211,-33.7200,3.9000,-34.6200,
5.372235,0.3181,-5.9461,4.5132,2.0235,0.8442,-1.4312,-33.7200,3.9000,-34.6200,
5.380936,0.3181,-5.9461,4.5132,2.0235,0.8442,-1.4312,-33.3000,3.5400,-34.6800,
5.392814,0.3181,-5.9461,4.5132,2.2711,1.3167,-1.8647,-33.3000,3.5400,-34.6800,
5.397145,0.3181,-5.9461,4.5132,2.2711,1.3167,-1.8647,-33.3000,3.5400,-34.6800,
5.398187,3.3289,-5.5285,1.0309,2.2711,1.3167,-1.8647,-33.3000,3.5400,-34.6800,
5.413988,3.3289,-5.5285,1.0309,2.7548,1.6293,-1.8988,-33.3000,3.5400,-34.6800,
5.434247,3.3289,-5.5285,1.0309,3.0051,1.8999,-1.5654,-33.3000,3.5400,-34.6800,
5.442887,3.3289,-5.5285,1.0309,3.0051,1.8999,-1.5654,-32.7600,2.1600,-34.8600,
5.454752,3.3289,-5.5285,1.0309,2.8128,2.3809,-1.0722,-32.7600,2.1600,-34.8600,
5.459032,3.3289,-5.5285,1.0309,2.8128,2.3809,-1.0722,-32.7600,2.1600,-34.8600,
5.460343,-1.4727,-0.4487,-7.4260,2.8128,2.3809,-1.0722,-32.7600,2.1600,-34.8600,
5.476001,-1.4727,-0.4487,-7.4260,2.3660,2.7601,-0.7116,-32.7600,2.1600,-34.8600,
5.495853,-1.4727,-0.4487,-7.4260,1.8584,3.2006,-0.4064,-32.7600,2.1600,-34.8600,
5.504640,-1.4727,-0.4487,-7.4260,1.8584,3.2006,-0.4064,-30.7800,-1.1400,-36.0000,
5.515856,-1.4727,-0.4487,-7.4260,1.3151,3.3897,-0.0964,-30.7800,-1.1400,-36.0000,
5.518566,-1.4727,-0.4487,-7.4260,1.3151,3.3897,-0.0964,-30.7800,-1.1400,-36.0000,
5.518787,2.4345,5.4423,-2.2804,1.3151,3.3897,-0.0964,-30.7800,-1.1400,-36.0000,
5.536597,2.4345,5.4423,-2.2804,1.1595,3.0861,0.0724,-30.7800,-1.1400,-36.0000,
5.557262,2.4345,5.4423,-2.2804,1.1979,2.2898,0.2642,-30.7800,-1.1400,-36.0000,
5.566250,2.4345,5.4423,-2.2804,1.1979,2.2898,0.2642,-27.2400,-6.0000,-38.2200,
5.577884,2.4345,5.4423,-2.2804,0.8485,1.1010,0.4245,-27.2400,-6.0000,-38.2200,
5.582155,2.4345,5.4423,-2.2804,0.8485,1.1010,0.4245,-27.2400,-6.0000,-38.2200,
5.583080,-4.3436,2.7716,0.2460,0.8485,1.1010,0.4245,-27.2400,-6.0000,-38.2200,
5.598507,-4.3436,2.7716,0.2460,0.3622,0.3973,0.2684,-27.2400,-6.0000,-38.2200,
5.618181,-4.3436,2.7716,0.2460,0.0352,0.2301,-0.2716,-27.2400,-6.0000,-38.2200,
5.627451,-4.3436,2.7716,0.2460,0.0352,0.2301,-0.2716,-22.8600,-10.8000,-40.1400,
5.639854,-4.3436,2.7716,0.2460,-0.1625,0.0868,-0.9646,-22.8600,-10.8000,-40.1400,
5.644086,-4.3436,2.7716,0.2460,-0.1625,0.0868,-0.9646,-22.8600,-10.8000,-40.1400,
5.645445,-4.4026,3.5652,1.4025,-0.1625,0.0868,-0.9646,-22.8600,-10.8000,-40.1400,
5.659716,-4.4026,3.5652,1.4025,-0.2386,-0.1454,-0.9401,-22.8600,-10.8000,-40.1400,
5.680115,-4.4026,3.5652,1.4025,-0.3675,-0.3254,-0.2125,-22.8600,-10.8000,-40.1400,
5.689297,-4.4026,3.5652,1.4025,-0.3675,-0.3254,-0.2125,-18.4200,-14.5800,-42.0000,
5.700923,-4.4026,3.5652,1.4025,-0.4783,-0.7776,0.1161,-18.4200,-14.5800,-42.0000,
5.705289,-4.4026,3.5652,1.4025,-0.4783,-0.7776,0.1161,-18.4200,-14.5800,-42.0000,
5.706458,-2.8043,6.4297,0.7372,-0.4783,-0.7776,0.1161,-18.4200,-14.5800,-42.0000,
5.721995,-2.8043,6.4297,0.7372,-0.5044,-0.9433,-0.1257,-18.4200,-14.5800,-42.0000,
5.742582,-2.8043,6.4297,0.7372,-0.6083,-0.6642,-0.3542,-18.4200,-14.5800,-42.0000,
5.750812,-2.8043,6.4297,0.7372,-0.6083,-0.6642,-0.3542,-15.0000,-16.3200,-42.9600,
5.762605,-2.8043,6.4297,0.7372,-0.7329,-0.1784,-0.6589,-15.0000,-16.3200,-42.9600,
5.766970,-2.8043,6.4297,0.7372,-0.7329,-0.1784,-0.6589,-15.0000,-16.3200,-42.9600,
5.767950,-0.1337,2.7038,-1.5209,-0.7329,-0.1784,-0.6589,-15.0000,-16.3200,-42.9600,
5.783526,-0.1337,2.7038,-1.5209,-0.7649,0.5534,-0.9268,-15.0000,-16.3200,-42.9600,
5.803922,-0.1337,2.7038,-1.5209,-0.5806,1.0818,-1.0003,-15.0000,-16.3200,-42.9600,
5.812329,-0.1337,2.7038,-1.5209,-0.5806,1.0818,-1.0003,-13.9200,-15.9600,-43.4400,
5.825777,-0.1337,2.7038,-1.5209,-0.5561,1.3699,-0.9737,-13.9200,-15.9600,-43.4400,
5.827675,-0.1337,2.7038,-1.5209,-0.5561,1.3699,-0.9737,-13.9200,-15.9600,-43.4400,
5.828452,-2.6147,0.5625,0.3919,-0.5561,1.3699,-0.9737,-13.9200,-15.9600,-43.4400,
5.844799,-2.6147,0.5625,0.3919,-0.6834,1.4285,-0.8634,-13.9200,-15.9600,-43.4400,
5.865050,-2.6147,0.5625,0.3919,-0.7201,1.0764,-0.7308,-13.9200,-15.9600,-43.4400,
5.876296,-2.6147,0.5625,0.3919,-0.7201,1.0764,-0.7308,-13.5000,-15.4800,-43.8000,
5.885754,-2.6147,0.5625,0.3919,-0.7851,0.6967,-0.6370,-13.5000,-15.4800,-43.8000,
5.889719,-2.6147,0.5625,0.3919,-0.7851,0.6967,-0.6370,-13.5000,-15.4800,-43.8000,
5.890810,-3.6038,-0.0766,0.3411,-0.7851,0.6967,-0.6370,-13.5000,-15.4800,-43.8000,
5.906711,-3.6038,-0.0766,0.3411,-0.7675,0.4432,-0.5268,-13.5000,-15.4800,-43.8000,
5.926822,-3.6038,-0.0766,0.3411,-0.8426,0.1321,-0.4831,-13.5000,-15.4800,-43.8000,
5.935803,-3.6038,-0.0766,0.3411,-0.8426,0.1321,-0.4831,-12.9000,-14.5200,-44.2800,
5.947247,-3.6038,-0.0766,0.3411,-0.9199,-0.0847,-0.5561,-12.9000,-14.5200,-44.2800,
5.951641,-3.6038,-0.0766,0.3411,-0.9199,-0.0847,-0.5561,-12.9000,-14.5200,-44.2800,
5.952632,-2.0873,2.3577,0.2429,-0.9199,-0.0847,-0.5561,-12.9000,-14.5200,-44.2800,
5.967143,-2.0873,2.3577,0.2429,-1.0882,-0.2732,-0.6823,-12.9000,-14.5200,-44.2800,
5.988337,-2.0873,2.3577,0.2429,-1.2437,-0.3782,-0.7931,-12.9000,-14.5200,-44.2800,
5.996961,-2.0873,2.3577,0.2429,-1.2437,-0.3782,-0.7931,-11.5800,-12.7200,-44.5200,
6.009039,-2.0873,2.3577,0.2429,-1.3502,-0.3894,-0.8352,-11.5800,-12.7200,-44.5200,
6.012697,-2.0873,2.3577,0.2429,-1.3502,-0.3894,-0.8352,-11.5800,-12.7200,-44.5200,
6.013630,-0.3117,2.5116,-0.6349,-1.3502,-0.3894,-0.8352,-11.5800,-12.7200,-44.5200,
6.029316,-0.3117,2.5116,-0.6349,-1.3380,-0.3638,-0.8346,-11.5800,-12.7200,-44.5200,
6.050253,-0.3117,2.5116,-0.6349,-1.3422,-0.3185,-0.7153,-11.5800,-12.7200,-44.5200,
6.059156,-0.3117,2.5116,-0.6349,-1.3422,-0.3185,-0.7153,-9.6000,-10.6800,-44.8200,
6.070884,-0.3117,2.5116,-0.6349,-1.2842,-0.1571,-0.4938,-9.6000,-10.6800,-44.8200,
6.075194,-0.3117,2.5116,-0.6349,-1.2842,-0.1571,-0.4938,-9.6000,-10.6800,-44.8200,
6.076648,-0.2130,0.5982,0.0054,-1.2842,-0.1571,-0.4938,-9.6000,-10.6800,-44.8200,
6.092661,-0.2130,0.5982,0.0054,-1.2032,-0.1220,-0.2780,-9.6000,-10.6800,-44.8200,
6.111043,-0.2130,0.5982,0.0054,-1.1627,-0.1928,-0.1987,-9.6000,-10.6800,-44.8200,
6.119876,-0.2130,0.5982,0.0054,-1.1627,-0.1928,-0.1987,-8.2200,-7.9800,-45.9000,
6.131847,-0.2130,0.5982,0.0054,-1.0679,-0.1875,-0.2578,-8.2200,-7.9800,-45.9000,
6.135744,-0.2130,0.5982,0.0054,-1.0679,-0.1875,-0.2578,-8.2200,-7.9800,-45.9000,
6.136665,0.4769,1.3193,1.0828,-1.0679,-0.1875,-0.2578,-8.2200,-7.9800,-45.9000,
6.151558,0.4769,1.3193,1.0828,-0.9193,-0.2147,-0.3776,-8.2200,-7.9800,-45.9000,
6.173276,0.4769,1.3193,1.0828,-0.8794,-0.1300,-0.4874,-8.2200,-7.9800,-45.9000,
6.182409,0.4769,1.3193,1.0828,-0.8794,-0.1300,-0.4874,-7.8000,-4.9800,-46.2000,
6.193784,0.4769,1.3193,1.0828,-0.7942,-0.0740,-0.5561,-7.8000,-4.9800,-46.2000,
6.198464,0.4769,1.3193,1.0828,-0.7942,-0.0740,-0.5561,-7.8000,-4.9800,-46.2000,
6.199422,0.3334,1.8729,0.8194,-0.7942,-0.0740,-0.5561,-7.8000,-4.9800,-46.2000,
6.214410,0.3334,1.8729,0.8194,-0.6461,-0.1119,-0.5736,-7.8000,-4.9800,-46.2000,
6.234780,0.3334,1.8729,0.8194,-0.5646,-0.1454,-0.5252,-7.8000,-4.9800,-46.2000,
6.242878,0.3334,1.8729,0.8194,-0.5646,-0.1454,-0.5252,-8.1600,-2.3400,-46.5600,
6.254992,0.3334,1.8729,0.8194,-0.4309,-0.2535,-0.4900,-8.1600,-2.3400,-46.5600,
6.259240,0.3334,1.8729,0.8194,-0.4309,-0.2535,-0.4900,-8.1600,-2.3400,-46.5600,
6.260724,0.0640,1.1278,2.1815,-0.4309,-0.2535,-0.4900,-8.1600,-2.3400,-46.5600,
6.276326,0.0640,1.1278,2.1815,-0.2913,-0.2882,-0.4740,-8.1600,-2.3400,-46.5600,
6.296284,0.0640,1.1278,2.1815,-0.1310,-0.1177,-0.4517,-8.1600,-2.3400,-46.5600,
6.304782,0.0640,1.1278,2.1815,-0.1310,-0.1177,-0.4517,-8.4000,-0.3000,-47.0400,
6.317011,0.0640,1.1278,2.1815,-0.0554,0.1710,-0.3547,-8.4000,-0.3000,-47.0400,
6.320440,0.0640,1.1278,2.1815,-0.0554,0.1710,-0.3547,-8.4000,-0.3000,-47.0400,
6.321417,-2.4676,3.2799,-0.7413,-0.0554,0.1710,-0.3547,-8.4000,-0.3000,-47.0400,
6.336852,-2.4676,3.2799,-0.7413,-0.4059,0.2791,-0.2184,-8.4000,-0.3000,-47.0400,
6.357699,-2.4676,3.2799,-0.7413,-0.5129,-0.0964,0.0080,-8.4000,-0.3000,-47.0400,
6.366313,-2.4676,3.2799,-0.7413,-0.5129,-0.0964,0.0080,-9.3600,1.3200,-46.5600,
6.378211,-2.4676,3.2799,-0.7413,-0.4533,-0.3744,0.2663,-9.3600,1.3200,-46.5600,
6.382566,-2.4676,3.2799,-0.7413,-0.4533,-0.3744,0.2663,-9.3600,1.3200,-46.5600,
6.383512,-3.7778,1.7669,0.5799,-0.4533,-0.3744,0.2663,-9.3600,1.3200,-46.5600,
6.398699,-3.7778,1.7669,0.5799,-0.3606,-0.3904,0.3824,-9.3600,1.3200,-46.5600,
6.419589,-3.7778,1.7669,0.5799,-0.4527,-0.3286,0.2605,-9.3600,1.3200,-46.5600,
6.427652,-3.7778,1.7669,0.5799,-0.4527,-0.3286,0.2605,-9.7200,2.2800,-46.0800,
6.439172,-3.7778,1.7669,0.5799,-0.6067,-0.2365,0.0682,-9.7200,2.2800,-46.0800,
6.443910,-3.7778,1.7669,0.5799,-0.6067,-0.2365,0.0682,-9.7200,2.2800,-46.0800,
6.445312,-0.6756,-0.0992,-0.0016,-0.6067,-0.2365,0.0682,-9.7200,2.2800,-46.0800,
6.460289,-0.6756,-0.0992,-0.0016,-0.6051,-0.1486,0.0687,-9.7200,2.2800,-46.0800,
6.480944,-0.6756,-0.0992,-0.0016,-0.5055,-0.1076,0.1257,-9.7200,2.2800,-46.0800,
6.489691,-0.6756,-0.0992,-0.0016,-0.5055,-0.1076,0.1257,-10.3200,3.4800,-45.7200,
6.501032,-0.6756,-0.0992,-0.0016,-0.4655,-0.1832,0.1156,-10.3200,3.4800,-45.7200,
6.504855,-0.6756,-0.0992,-0.0016,-0.4655,-0.1832,0.1156,-10.3200,3.4800,-45.7200,
6.505766,0.4254,-0.5848,0.1126,-0.4655,-0.1832,0.1156,-10.3200,3.4800,-45.7200,
6.522088,0.4254,-0.5848,0.1126,-0.4458,-0.3398,0.0490,-10.3200,3.4800,-45.7200,
6.541354,0.4254,-0.5848,0.1126,-0.5651,-0.3212,-0.0368,-10.3200,3.4800,-45.7200,
6.551275,0.4254,-0.5848,0.1126,-0.5651,-0.3212,-0.0368,-10.9200,4.6800,-45.3600,
6.563168,0.4254,-0.5848,0.1126,-0.6764,-0.2328,-0.0911,-10.9200,4.6800,-45.3600,
6.567151,0.4254,-0.5848,0.1126,-0.6764,-0.2328,-0.0911,-10.9200,4.6800,-45.3600,
6.568128,0.6213,-0.0337,0.0022,-0.6764,-0.2328,-0.0911,-10.9200,4.6800,-45.3600,
6.583891,0.6213,-0.0337,0.0022,-0.6701,-0.1614,-0.1427,-10.9200,4.6800,-45.3600,
6.604192,0.6213,-0.0337,0.0022,-0.5294,-0.0953,-0.1891,-10.9200,4.6800,-45.3600,
6.612943,0.6213,-0.0337,0.0022,-0.5294,-0.0953,-0.1891,-11.4000,6.0000,-44.8800,
6.625573,0.6213,-0.0337,0.0022,-0.4213,0.0091,-0.1784,-11.4000,6.0000,-44.8800,
6.627675,0.6213,-0.0337,0.0022,-0.4213,0.0091,-0.1784,-11.4000,6.0000,-44.8800,
6.628493,0.4609,0.1661,-0.0413,-0.4213,0.0091,-0.1784,-11.4000,6.0000,-44.8800,
6.645574,0.4609,0.1661,-0.0413,-0.4293,0.0458,-0.1342,-11.4000,6.0000,-44.8800,
6.665936,0.4609,0.1661,-0.0413,-0.4341,-0.0234,-0.0831,-11.4000,6.0000,-44.8800,
6.675519,0.4609,0.1661,-0.0413,-0.4341,-0.0234,-0.0831,-12.1800,7.3200,-44.7600,
6.686409,0.4609,0.1661,-0.0413,-0.3137,-0.0895,-0.1039,-12.1800,7.3200,-44.7600,
6.689635,0.4609,0.1661,-0.0413,-0.3137,-0.0895,-0.1039,-12.1800,7.3200,-44.7600,
6.690792,-0.2111,-1.0315,-0.0047,-0.3137,-0.0895,-0.1039,-12.1800,7.3200,-44.7600,
6.706239,-0.2111,-1.0315,-0.0047,-0.2487,-0.1017,-0.1246,-12.1800,7.3200,-44.7600,
6.726922,-0.2111,-1.0315,-0.0047,-0.2519,0.0224,-0.1438,-12.1800,7.3200,-44.7600,
6.736322,-0.2111,-1.0315,-0.0047,-0.2519,0.0224,-0.1438,-12.3600,8.4600,-45.1800,
6.747563,-0.2111,-1.0315,-0.0047,-0.2455,0.1092,-0.1752,-12.3600,8.4600,-45.1800,
6.751839,-0.2111,-1.0315,-0.0047,-0.2455,0.1092,-0.1752,-12.3600,8.4600,-45.1800,
6.752799,-0.5146,0.8195,0.2187,-0.2455,0.1092,-0.1752,-12.3600,8.4600,-45.1800,
6.768644,-0.5146,0.8195,0.2187,-0.2498,0.0293,-0.1683,-12.3600,8.4600,-45.1800,
6.788943,-0.5146,0.8195,0.2187,-0.2802,-0.1209,-0.1055,-12.3600,8.4600,-45.1800,
6.798069,-0.5146,0.8195,0.2187,-0.2802,-0.1209,-0.1055,-12.4200,9.9600,-44.9400,
6.809185,-0.5146,0.8195,0.2187,-0.2940,-0.3446,-0.0064,-12.4200,9.9600,-44.9400,
6.813410,-0.5146,0.8195,0.2187,-0.2940,-0.3446,-0.0064,-12.4200,9.9600,-44.9400,
6.814439,-0.8279,0.1854,0.0504,-0.2940,-0.3446,-0.0064,-12.4200,9.9600,-44.9400,
6.830248,-0.8279,0.1854,0.0504,-0.2487,-0.5044,0.0405,-12.4200,9.9600,-44.9400,
6.850733,-0.8279,0.1854,0.0504,-0.2274,-0.5017,0.0245,-12.4200,9.9600,-44.9400,
6.859725,-0.8279,0.1854,0.0504,-0.2274,-0.5017,0.0245,-12.3000,10.9800,-44.5800,
6.870486,-0.8279,0.1854,0.0504,-0.2125,-0.5023,-0.0405,-12.3000,10.9800,-44.5800,
6.875177,-0.8279,0.1854,0.0504,-0.2125,-0.5023,-0.0405,-12.3000,10.9800,-44.5800,
6.876640,0.1109,-0.5062,-0.1799,-0.2125,-0.5023,-0.0405,-12.3000,10.9800,-44.5800,
6.892804,0.1109,-0.5062,-0.1799,-0.1976,-0.3356,-0.0666,-12.3000,10.9800,-44.5800,
6.912745,0.1109,-0.5062,-0.1799,-0.1214,-0.1747,0.0075,-12.3000,10.9800,-44.5800,
6.921017,0.1109,-0.5062,-0.1799,-0.1214,-0.1747,0.0075,-12.1800,12.0000,-44.4600,
6.932969,0.1109,-0.5062,-0.1799,-0.1305,-0.2898,-0.0005,-12.1800,12.0000,-44.4600,
6.936719,0.1109,-0.5062,-0.1799,-0.1305,-0.2898,-0.0005,-12.1800,12.0000,-44.4600,
6.937603,-0.0408,-0.1758,-0.6525,-0.1305,-0.2898,-0.0005,-12.1800,12.0000,-44.4600,
6.953293,-0.0408,-0.1758,-0.6525,-0.0101,-0.1582,0.1039,-12.1800,12.0000,-44.4600,
6.973535,-0.0408,-0.1758,-0.6525,0.0016,-0.0682,0.1060,-12.1800,12.0000,-44.4600,
6.982481,-0.0408,-0.1758,-0.6525,0.0016,-0.0682,0.1060,-13.0800,12.3600,-43.1400,
6.995041,-0.0408,-0.1758,-0.6525,-0.0075,-0.0186,0.1321,-13.0800,12.3600,-43.1400,
6.998687,-0.0408,-0.1758,-0.6525,-0.0075,-0.0186,0.1321,-13.0800,12.3600,-43.1400,
6.999613,0.2307,-0.4294,0.1082,-0.0075,-0.0186,0.1321,-13.0800,12.3600,-43.1400,
7.014845,0.2307,-0.4294,0.1082,0.0533,0.0751,0.1353,-13.0800,12.3600,-43.1400,
7.035526,0.2307,-0.4294,0.1082,0.0714,0.2232,0.1933,-13.0800,12.3600,-43.1400,
7.043860,0.2307,-0.4294,0.1082,0.0714,0.2232,0.1933,-14.0400,12.3600,-42.7200,
7.056353,0.2307,-0.4294,0.1082,0.1033,0.2642,0.2818,-14.0400,12.3600,-42.7200,
7.060535,0.2307,-0.4294,0.1082,0.1033,0.2642,0.2818,-14.0400,12.3600,-42.7200,
7.062291,-0.2502,-0.4031,-0.3922,0.1033,0.2642,0.2818,-14.0400,12.3600,-42.7200,
7.076121,-0.2502,-0.4031,-0.3922,0.0884,0.2658,0.3079,-14.0400,12.3600,-42.7200,
7.097086,-0.2502,-0.4031,-0.3922,0.0277,0.0948,0.4000,-14.0400,12.3600,-42.7200,
7.105745,-0.2502,-0.4031,-0.3922,0.0277,0.0948,0.4000,-14.7600,12.1200,-42.6000,
7.117465,-0.2502,-0.4031,-0.3922,-0.0075,0.0170,0.4820,-14.7600,12.1200,-42.6000,
7.121620,-0.2502,-0.4031,-0.3922,-0.0075,0.0170,0.4820,-14.7600,12.1200,-42.6000,
7.122767,-0.6596,-0.9405,0.0612,-0.0075,0.0170,0.4820,-14.7600,12.1200,-42.6000,
7.138101,-0.6596,-0.9405,0.0612,0.0234,0.0666,0.6131,-14.7600,12.1200,-42.6000,
7.158825,-0.6596,-0.9405,0.0612,-0.0373,0.0101,0.5992,-14.7600,12.1200,-42.6000,
7.167194,-0.6596,-0.9405,0.0612,-0.0373,0.0101,0.5992,-15.1200,11.9400,-42.0600,
7.178994,-0.6596,-0.9405,0.0612,-0.0479,-0.3356,0.8075,-15.1200,11.9400,-42.0600,
7.183683,-0.6596,-0.9405,0.0612,-0.0479,-0.3356,0.8075,-15.1200,11.9400,-42.0600,
7.184668,0.3869,-1.0733,0.0408,-0.0479,-0.3356,0.8075,-15.1200,11.9400,-42.0600,
7.199651,0.3869,-1.0733,0.0408,-0.2658,-0.6642,1.0408,-15.1200,11.9400,-42.0600,
7.219847,0.3869,-1.0733,0.0408,-0.4155,-0.5609,1.1132,-15.1200,11.9400,-42.0600,
7.228986,0.3869,-1.0733,0.0408,-0.4155,-0.5609,1.1132,-14.7000,11.8200,-42.3600,
7.240122,0.3869,-1.0733,0.0408,-0.2738,-0.5332,1.0184,-14.7000,11.8200,-42.3600,
7.243733,0.3869,-1.0733,0.0408,-0.2738,-0.5332,1.0184,-14.7000,11.8200,-42.3600,
7.245025,0.9145,0.0819,0.0387,-0.2738,-0.5332,1.0184,-14.7000,11.8200,-42.3600,
7.261703,0.9145,0.0819,0.0387,-0.0298,-0.6173,0.9966,-14.7000,11.8200,-42.3600,
7.281713,0.9145,0.0819,0.0387,0.1374,-0.4506,0.7862,-14.7000,11.8200,-42.3600,
7.289671,0.9145,0.0819,0.0387,0.1374,-0.4506,0.7862,-13.8600,12.4800,-42.3000,
7.302180,0.9145,0.0819,0.0387,0.1374,-0.3643,0.6280,-13.8600,12.4800,-42.3000,
7.306751,0.9145,0.0819,0.0387,0.1374,-0.3643,0.6280,-13.8600,12.4800,-42.3000,
7.307659,0.1156,-1.4883,0.1342,0.1374,-0.3643,0.6280,-13.8600,12.4800,-42.3000,
7.322043,0.1156,-1.4883,0.1342,0.1065,-0.3760,0.6402,-13.8600,12.4800,-42.3000,
7.342576,0.1156,-1.4883,0.1342,-0.0091,-0.5396,0.7824,-13.8600,12.4800,-42.3000,
7.351556,0.1156,-1.4883,0.1342,-0.0091,-0.5396,0.7824,-13.5600,13.0200,-41.9400,
7.363705,0.1156,-1.4883,0.1342,-0.0341,-0.5843,0.8506,-13.5600,13.0200,-41.9400,
7.367774,0.1156,-1.4883,0.1342,-0.0341,-0.5843,0.8506,-13.5600,13.0200,-41.9400,
7.368762,0.0558,1.1709,-0.0595,-0.0341,-0.5843,0.8506,-13.5600,13.0200,-41.9400,
7.384098,0.0558,1.1709,-0.0595,0.0032,-0.4788,0.7569,-13.5600,13.0200,-41.9400,
7.404328,0.0558,1.1709,-0.0595,-0.0138,-0.3324,0.5358,-13.5600,13.0200,-41.9400,
7.413617,0.0558,1.1709,-0.0595,-0.0138,-0.3324,0.5358,-13.9200,13.8600,-41.8200,
7.424902,0.0558,1.1709,-0.0595,-0.1172,-0.2429,0.4192,-13.9200,13.8600,-41.8200,
7.429396,0.0558,1.1709,-0.0595,-0.1172,-0.2429,0.4192,-13.9200,13.8600,-41.8200,
7.430533,-0.4124,2.3993,-0.0671,-0.1172,-0.2429,0.4192,-13.9200,13.8600,-41.8200,
7.446834,-0.4124,2.3993,-0.0671,-0.1870,-0.2194,0.3148,-13.9200,13.8600,-41.8200,
7.466371,-0.4124,2.3993,-0.0671,-0.2205,-0.1672,0.1395,-13.9200,13.8600,-41.8200,
7.475884,-0.4124,2.3993,-0.0671,-0.2205,-0.1672,0.1395,-13.6800,15.1200,-42.0000,
7.486687,-0.4124,2.3993,-0.0671,-0.2594,-0.0383,-0.0256,-13.6800,15.1200,-42.0000,
7.492701,-0.4124,2.3993,-0.0671,-0.2594,-0.0383,-0.0256,-13.6800,15.1200,-42.0000,
7.494308,-1.0685,0.5145,0.1020,-0.2594,-0.0383,-0.0256,-13.6800,15.1200,-42.0000,
7.509168,-1.0685,0.5145,0.1020,-0.1800,0.0426,-0.0565,-13.6800,15.1200,-42.0000,
7.528134,-1.0685,0.5145,0.1020,-0.0655,0.0298,-0.0453,-13.6800,15.1200,-42.0000,
7.536748,-1.0685,0.5145,0.1020,-0.0655,0.0298,-0.0453,-14.5800,15.1800,-41.4600,
7.548273,-1.0685,0.5145,0.1020,-0.0463,-0.0085,-0.0698,-14.5800,15.1800,-41.4600,
7.552247,-1.0685,0.5145,0.1020,-0.0463,-0.0085,-0.0698,-14.5800,15.1800,-41.4600,
7.553140,0.1691,0.0850,-0.0281,-0.0463,-0.0085,-0.0698,-14.5800,15.1800,-41.4600,
7.568389,0.1691,0.0850,-0.0281,-0.1145,-0.0149,-0.1699,-14.5800,15.1800,-41.4600,
7.589504,0.1691,0.0850,-0.0281,-0.1012,0.0549,-0.1672,-14.5800,15.1800,-41.4600,
7.598055,0.1691,0.0850,-0.0281,-0.1012,0.0549,-0.1672,-15.0000,16.2600,-41.4000,
7.609045,0.1691,0.0850,-0.0281,-0.0123,0.1135,-0.1380,-15.0000,16.2600,-41.4000,
7.612944,0.1691,0.0850,-0.0281,-0.0123,0.1135,-0.1380,-15.0000,16.2600,-41.4000,
7.613751,0.1841,-0.1384,-0.1402,-0.0123,0.1135,-0.1380,-15.0000,16.2600,-41.4000,
7.631001,0.1841,-0.1384,-0.1402,0.0538,0.0107,-0.0378,-15.0000,16.2600,-41.4000,
7.650970,0.1841,-0.1384,-0.1402,0.0575,0.0011,-0.0091,-15.0000,16.2600,-41.4000,
7.659865,0.1841,-0.1384,-0.1402,0.0575,0.0011,-0.0091,-14.6400,17.1000,-41.3400,
7.671398,0.1841,-0.1384,-0.1402,-0.0256,0.0218,-0.0128,-14.6400,17.1000,-41.3400,
7.677118,0.1841,-0.1384,-0.1402,-0.0256,0.0218,-0.0128,-14.6400,17.1000,-41.3400,
7.679163,-0.0874,-0.1484,-0.1096,-0.0256,0.0218,-0.0128,-14.6400,17.1000,-41.3400,
7.691627,-0.0874,-0.1484,-0.1096,-0.0591,0.0368,0.0160,-14.6400,17.1000,-41.3400,
7.712796,-0.0874,-0.1484,-0.1096,-0.0085,0.0021,0.0533,-14.6400,17.1000,-41.3400,
7.721643,-0.0874,-0.1484,-0.1096,-0.0085,0.0021,0.0533,-15.0000,17.1000,-40.5000,
7.733151,-0.0874,-0.1484,-0.1096,0.0154,0.0128,0.0485,-15.0000,17.1000,-40.5000,
7.737265,-0.0874,-0.1484,-0.1096,0.0154,0.0128,0.0485,-15.0000,17.1000,-40.5000,
7.738384,0.0964,-0.1724,-0.1325,0.0154,0.0128,0.0485,-15.0000,17.1000,-40.5000,
7.754031,0.0964,-0.1724,-0.1325,0.0415,0.0389,0.0378,-15.0000,17.1000,-40.5000,
7.774921,0.0964,-0.1724,-0.1325,0.0336,0.0543,0.0277,-15.0000,17.1000,-40.5000,
7.783076,0.0964,-0.1724,-0.1325,0.0336,0.0543,0.0277,-15.1200,17.6400,-40.6200,
7.794881,0.0964,-0.1724,-0.1325,-0.0218,0.0394,0.0197,-15.1200,17.6400,-40.6200,
7.799163,0.0964,-0.1724,-0.1325,-0.0218,0.0394,0.0197,-15.1200,17.6400,-40.6200,
7.800153,0.0167,-0.3793,-0.0917,-0.0218,0.0394,0.0197,-15.1200,17.6400,-40.6200,
7.815308,0.0167,-0.3793,-0.0917,-0.0543,0.0495,0.0080,-15.1200,17.6400,-40.6200,
7.835984,0.0167,-0.3793,-0.0917,-0.0154,0.0474,-0.0011,-15.1200,17.6400,-40.6200,
7.844654,0.0167,-0.3793,-0.0917,-0.0154,0.0474,-0.0011,-15.0000,17.4600,-40.8000,
7.855768,0.0167,-0.3793,-0.0917,-0.0112,0.0080,0.0048,-15.0000,17.4600,-40.8000,
7.859331,0.0167,-0.3793,-0.0917,-0.0112,0.0080,0.0048,-15.0000,17.4600,-40.8000,
7.860588,-0.0902,-0.0163,-0.0173,-0.0112,0.0080,0.0048,-15.0000,17.4600,-40.8000,
7.877339,-0.0902,-0.0163,-0.0173,-0.0059,-0.0197,0.0186,-15.0000,17.4600,-40.8000,
7.895884,-0.0902,-0.0163,-0.0173,0.0032,-0.0325,0.0202,-15.0000,17.4600,-40.8000,
7.907353,-0.0902,-0.0163,-0.0173,0.0032,-0.0325,0.0202,-15.4800,16.9800,-41.1000,
7.916628,-0.0902,-0.0163,-0.0173,-0.0399,0.0415,-0.0053,-15.4800,16.9800,-41.1000,
7.920841,-0.0902,-0.0163,-0.0173,-0.0399,0.0415,-0.0053,-15.4800,16.9800,-41.1000,
7.921348,-0.1754,-0.0575,-0.1534,-0.0399,0.0415,-0.0053,-15.4800,16.9800,-41.1000,
7.937599,-0.1754,-0.0575,-0.1534,-0.0570,0.0501,-0.0149,-15.4800,16.9800,-41.1000,
7.957965,-0.1754,-0.0575,-0.1534,-0.0900,0.0362,-0.0282,-15.4800,16.9800,-41.1000,
7.966650,-0.1754,-0.0575,-0.1534,-0.0900,0.0362,-0.0282,-15.3000,17.0400,-41.5800,
7.979050,-0.1754,-0.0575,-0.1534,-0.1587,0.0043,-0.0277,-15.3000,17.0400,-41.5800,
7.982865,-0.1754,-0.0575,-0.1534,-0.1587,0.0043,-0.0277,-15.3000,17.0400,-41.5800,
7.983465,-0.1320,-0.0229,-0.2228,-0.1587,0.0043,-0.0277,-15.3000,17.0400,-41.5800,
8.003091,-0.1320,-0.0229,-0.2228,-0.1230,-0.0469,-0.0037,-15.3000,17.0400,-41.5800,
