
time,ax,ay,az,wx,wy,wz,Bx,By,Bz,
0.013444,0.0000,0.0000,0.0000,0.0000,0.0000,0.0000,0.0000,0.0000,0.0000,
0.013625,0.0000,0.0000,0.0000,0.1135,-0.1896,0.0884,0.0000,0.0000,0.0000,
0.034648,0.0000,0.0000,0.0000,0.1135,-0.1896,0.0884,0.0000,0.0000,0.0000,
0.055017,0.0000,0.0000,0.0000,0.1135,-0.1896,0.0884,0.0000,0.0000,0.0000,
0.067530,0.0000,0.0000,0.0000,0.1135,-0.1896,0.0884,0.0000,0.0000,0.0000,
0.068151,0.4205,0.7178,-0.0360,0.1135,-0.1896,0.0884,0.0000,0.0000,0.0000,
0.072135,0.4205,0.7178,-0.0360,0.1135,-0.1896,0.0884,-23.1600,30.6600,-11.4000,
0.075660,0.4205,0.7178,-0.0360,0.0650,0.2040,-0.4155,-23.1600,30.6600,-11.4000,
0.096131,0.4205,0.7178,-0.0360,-0.0533,0.3404,-0.4826,-23.1600,30.6600,-11.4000,
0.116721,0.4205,0.7178,-0.0360,0.0256,0.5113,-0.6264,-23.1600,30.6600,-11.4000,
0.129092,0.4205,0.7178,-0.0360,0.0256,0.5113,-0.6264,-23.1600,30.6600,-11.4000,
0.129444,0.1882,0.7071,-0.0027,0.0256,0.5113,-0.6264,-23.1600,30.6600,-11.4000,
0.133363,0.1882,0.7071,-0.0027,0.0256,0.5113,-0.6264,-23.0400,29.0400,-18.4800,
0.137326,0.1882,0.7071,-0.0027,0.0325,0.6972,-0.7313,-23.0400,29.0400,-18.4800,
0.157604,0.1882,0.7071,-0.0027,-0.1060,1.0743,-0.9502,-23.0400,29.0400,-18.4800,
0.178081,0.1882,0.7071,-0.0027,-0.2748,1.4030,-1.0914,-23.0400,29.0400,-18.4800,
0.191199,0.1882,0.7071,-0.0027,-0.2748,1.4030,-1.0914,-23.0400,29.0400,-18.4800,
0.191691,0.9374,1.5046,-0.1021,-0.2748,1.4030,-1.0914,-23.0400,29.0400,-18.4800,
0.195769,0.9374,1.5046,-0.1021,-0.2748,1.4030,-1.0914,-23.7600,27.3000,-21.5400,
0.198879,0.9374,1.5046,-0.1021,-0.3451,1.4562,-1.2016,-23.7600,27.3000,-21.5400,
0.219305,0.9374,1.5046,-0.1021,-0.1768,1.2991,-1.3609,-23.7600,27.3000,-21.5400,
0.240034,0.9374,1.5046,-0.1021,0.0144,1.2437,-1.3843,-23.7600,27.3000,-21.5400,
0.252629,0.9374,1.5046,-0.1021,0.0144,1.2437,-1.3843,-23.7600,27.3000,-21.5400,
0.253167,-0.0266,0.3399,-0.1469,0.0144,1.2437,-1.3843,-23.7600,27.3000,-21.5400,
0.257331,-0.0266,0.3399,-0.1469,0.0144,1.2437,-1.3843,-24.5400,25.3800,-25.3200,
0.260901,-0.0266,0.3399,-0.1469,0.0458,1.1318,-1.0663,-24.5400,25.3800,-25.3200,
0.281776,-0.0266,0.3399,-0.1469,0.0352,1.0983,-0.5928,-24.5400,25.3800,-25.3200,
0.302239,-0.0266,0.3399,-0.1469,0.0783,1.1851,-0.1971,-24.5400,25.3800,-25.3200,
0.314375,-0.0266,0.3399,-0.1469,0.0783,1.1851,-0.1971,-24.5400,25.3800,-25.3200,
0.314958,-0.7558,-3.6801,0.4654,0.0783,1.1851,-0.1971,-24.5400,25.3800,-25.3200,
0.319470,-0.7558,-3.6801,0.4654,0.0783,1.1851,-0.1971,-24.4800,24.4800,-26.5200,
0.322596,-0.7558,-3.6801,0.4654,0.0373,0.9113,0.1150,-24.4800,24.4800,-26.5200,
0.342661,-0.7558,-3.6801,0.4654,-0.0485,0.2770,0.3052,-24.4800,24.4800,-26.5200,
0.363577,-0.7558,-3.6801,0.4654,-0.0362,-0.2796,0.0985,-24.4800,24.4800,-26.5200,
0.377052,-0.7558,-3.6801,0.4654,-0.0362,-0.2796,0.0985,-24.4800,24.4800,-26.5200,
0.377648,3.6073,-0.6723,0.5559,-0.0362,-0.2796,0.0985,-24.4800,24.4800,-26.5200,
0.380717,3.6073,-0.6723,0.5559,-0.0362,-0.2796,0.0985,-24.1800,23.2200,-27.1800,
0.383942,3.6073,-0.6723,0.5559,0.0304,-0.4213,-0.1491,-24.1800,23.2200,-27.1800,
0.404882,3.6073,-0.6723,0.5559,0.1294,-0.3894,-0.0479,-24.1800,23.2200,-27.1800,
0.425132,3.6073,-0.6723,0.5559,0.2104,-0.0900,0.0314,-24.1800,23.2200,-27.1800,
0.437766,3.6073,-0.6723,0.5559,0.2104,-0.0900,0.0314,-24.1800,23.2200,-27.1800,
0.438300,0.4642,-0.4286,-0.8559,0.2104,-0.0900,0.0314,-24.1800,23.2200,-27.1800,
0.441946,0.4642,-0.4286,-0.8559,0.2104,-0.0900,0.0314,-23.3400,22.8600,-28.4400,
0.445891,0.4642,-0.4286,-0.8559,0.1667,0.3941,0.0937,-23.3400,22.8600,-28.4400,
0.466117,0.4642,-0.4286,-0.8559,0.1252,0.6440,0.1225,-23.3400,22.8600,-28.4400,
0.487193,0.4642,-0.4286,-0.8559,0.1715,0.5806,0.1342,-23.3400,22.8600,-28.4400,
0.499465,0.4642,-0.4286,-0.8559,0.1715,0.5806,0.1342,-23.3400,22.8600,-28.4400,
0.500101,0.9739,-0.5824,0.4150,0.1715,0.5806,0.1342,-23.3400,22.8600,-28.4400,
0.503749,0.9739,-0.5824,0.4150,0.1715,0.5806,0.1342,-22.9800,22.3200,-28.7400,
0.507034,0.9739,-0.5824,0.4150,0.1614,0.3004,0.1076,-22.9800,22.3200,-28.7400,
0.527609,0.9739,-0.5824,0.4150,0.0831,0.0186,0.0730,-22.9800,22.3200,-28.7400,
0.548154,0.9739,-0.5824,0.4150,-0.0378,-0.1731,0.0000,-22.9800,22.3200,-28.7400,
0.560967,0.9739,-0.5824,0.4150,-0.0378,-0.1731,0.0000,-22.9800,22.3200,-28.7400,
0.561651,1.0442,-0.6732,0.1385,-0.0378,-0.1731,0.0000,-22.9800,22.3200,-28.7400,
0.565539,1.0442,-0.6732,0.1385,-0.0378,-0.1731,0.0000,-22.4400,22.0800,-28.9800,
0.568853,1.0442,-0.6732,0.1385,-0.1087,-0.2631,-0.0320,-22.4400,22.0800,-28.9800,
0.589134,1.0442,-0.6732,0.1385,-0.0953,-0.3233,-0.0240,-22.4400,22.0800,-28.9800,
0.609880,1.0442,-0.6732,0.1385,-0.0506,-0.3350,0.0091,-22.4400,22.0800,-28.9800,
0.622993,1.0442,-0.6732,0.1385,-0.0506,-0.3350,0.0091,-22.4400,22.0800,-28.9800,
0.623559,-0.0927,0.0177,0.0051,-0.0506,-0.3350,0.0091,-22.4400,22.0800,-28.9800,
0.627764,-0.0927,0.0177,0.0051,-0.0506,-0.3350,0.0091,-22.3800,21.9000,-29.3400,
0.630299,-0.0927,0.0177,0.0051,0.0101,-0.2839,0.0032,-22.3800,21.9000,-29.3400,
0.650920,-0.0927,0.0177,0.0051,0.0224,-0.0820,0.0027,-22.3800,21.9000,-29.3400,
0.672733,-0.0927,0.0177,0.0051,0.0037,0.0597,0.0224,-22.3800,21.9000,-29.3400,
0.684181,-0.0927,0.0177,0.0051,0.0037,0.0597,0.0224,-22.3800,21.9000,-29.3400,
0.685171,-0.0634,-0.0304,-0.2366,0.0037,0.0597,0.0224,-22.3800,21.9000,-29.3400,
0.688882,-0.0634,-0.0304,-0.2366,0.0037,0.0597,0.0224,-22.4400,21.4800,-29.2800,
0.693378,-0.0634,-0.0304,-0.2366,0.0176,0.1108,0.0234,-22.4400,21.4800,-29.2800,
0.712516,-0.0634,-0.0304,-0.2366,0.0378,0.1172,0.0330,-22.4400,21.4800,-29.2800,
0.733622,-0.0634,-0.0304,-0.2366,0.0229,0.0767,0.0362,-22.4400,21.4800,-29.2800,
0.745605,-0.0634,-0.0304,-0.2366,0.0229,0.0767,0.0362,-22.4400,21.4800,-29.2800,
0.746176,-0.0382,-0.0792,0.0553,0.0229,0.0767,0.0362,-22.4400,21.4800,-29.2800,
0.749960,-0.0382,-0.0792,0.0553,0.0229,0.0767,0.0362,-22.3800,21.6600,-29.5800,
0.753599,-0.0382,-0.0792,0.0553,0.0053,0.0277,0.0330,-22.3800,21.6600,-29.5800,
0.774086,-0.0382,-0.0792,0.0553,0.0005,-0.0277,0.0256,-22.3800,21.6600,-29.5800,
0.794945,-0.0382,-0.0792,0.0553,0.0085,-0.0527,0.0176,-22.3800,21.6600,-29.5800,
0.807957,-0.0382,-0.0792,0.0553,0.0085,-0.0527,0.0176,-22.3800,21.6600,-29.5800,
0.808928,0.0429,-0.1037,-0.0245,0.0085,-0.0527,0.0176,-22.3800,21.6600,-29.5800,
0.811565,0.0429,-0.1037,-0.0245,0.0085,-0.0527,0.0176,-22.8600,21.4800,-29.5200,
0.814828,0.0429,-0.1037,-0.0245,0.0059,-0.0629,0.0149,-22.8600,21.4800,-29.5200,
0.835214,0.0429,-0.1037,-0.0245,0.0213,-0.0591,0.0293,-22.8600,21.4800,-29.5200,
0.856487,0.0429,-0.1037,-0.0245,0.0437,-0.0027,0.0437,-22.8600,21.4800,-29.5200,
0.869309,0.0429,-0.1037,-0.0245,0.0437,-0.0027,0.0437,-22.8600,21.4800,-29.5200,
0.870078,-0.0242,-0.0290,-0.0863,0.0437,-0.0027,0.0437,-22.8600,21.4800,-29.5200,
0.872950,-0.0242,-0.0290,-0.0863,0.0437,-0.0027,0.0437,-22.8600,21.4200,-29.8200,
0.877420,-0.0242,-0.0290,-0.0863,0.0692,0.0937,0.0607,-22.8600,21.4200,-29.8200,
0.897686,-0.0242,-0.0290,-0.0863,0.0943,0.1518,0.0629,-22.8600,21.4200,-29.8200,
0.917645,-0.0242,-0.0290,-0.0863,0.1119,0.1715,0.0586,-22.8600,21.4200,-29.8200,
0.929974,-0.0242,-0.0290,-0.0863,0.1119,0.1715,0.0586,-22.8600,21.4200,-29.8200,
0.930331,0.0446,-0.1546,0.1078,0.1119,0.1715,0.0586,-22.8600,21.4200,-29.8200,
0.935172,0.0446,-0.1546,0.1078,0.1119,0.1715,0.0586,-22.3200,21.8400,-29.7600,
0.938163,0.0446,-0.1546,0.1078,0.1060,0.1475,0.0527,-22.3200,21.8400,-29.7600,
0.959104,0.0446,-0.1546,0.1078,0.0788,0.0948,0.0501,-22.3200,21.8400,-29.7600,
0.980056,0.0446,-0.1546,0.1078,0.0298,0.0490,0.0346,-22.3200,21.8400,-29.7600,
0.992356,0.0446,-0.1546,0.1078,0.0298,0.0490,0.0346,-22.3200,21.8400,-29.7600,
0.993017,-0.1615,-0.0113,-0.0166,0.0298,0.0490,0.0346,-22.3200,21.8400,-29.7600,
0.996680,-0.1615,-0.0113,-0.0166,0.0298,0.0490,0.0346,-22.4400,21.2400,-29.7000,
0.999576,-0.1615,-0.0113,-0.0166,0.0000,0.0192,0.0394,-22.4400,21.2400,-29.7000,
1.021085,-0.1615,-0.0113,-0.0166,-0.0123,0.0517,0.0383,-22.4400,21.2400,-29.7000,
1.041272,-0.1615,-0.0113,-0.0166,-0.0160,0.1060,0.0479,-22.4400,21.2400,-29.7000,
1.053515,-0.1615,-0.0113,-0.0166,-0.0160,0.1060,0.0479,-22.4400,21.2400,-29.7000,
1.053875,-0.0107,0.0256,-0.1358,-0.0160,0.1060,0.0479,-22.4400,21.2400,-29.7000,
1.057916,-0.0107,0.0256,-0.1358,-0.0160,0.1060,0.0479,-22.3800,21.2400,-29.1600,
1.061505,-0.0107,0.0256,-0.1358,-0.0197,0.0916,0.0495,-22.3800,21.2400,-29.1600,
1.082016,-0.0107,0.0256,-0.1358,-0.0293,0.1406,0.0586,-22.3800,21.2400,-29.1600,
1.102963,-0.0107,0.0256,-0.1358,-0.0490,0.2024,0.0660,-22.3800,21.2400,-29.1600,
1.116195,-0.0107,0.0256,-0.1358,-0.0490,0.2024,0.0660,-22.3800,21.2400,-29.1600,
1.117120,0.0774,-0.1083,-0.1173,-0.0490,0.2024,0.0660,-22.3800,21.2400,-29.1600,
1.119844,0.0774,-0.1083,-0.1173,-0.0490,0.2024,0.0660,-22.4400,21.2400,-29.4600,
1.123588,0.0774,-0.1083,-0.1173,-0.0719,0.1859,0.0634,-22.4400,21.2400,-29.4600,
1.143944,0.0774,-0.1083,-0.1173,-0.1087,0.1630,0.0724,-22.4400,21.2400,-29.4600,
1.164033,0.0774,-0.1083,-0.1173,-0.1459,0.1486,0.0735,-22.4400,21.2400,-29.4600,
1.177591,0.0774,-0.1083,-0.1173,-0.1459,0.1486,0.0735,-22.4400,21.2400,-29.4600,
1.178246,0.1474,0.0073,-0.2582,-0.1459,0.1486,0.0735,-22.4400,21.2400,-29.4600,
1.182324,0.1474,0.0073,-0.2582,-0.1459,0.1486,0.0735,-22.6800,21.4200,-29.5800,
1.185234,0.1474,0.0073,-0.2582,-0.1577,0.0794,0.0495,-22.6800,21.4200,-29.5800,
1.205742,0.1474,0.0073,-0.2582,-0.1385,0.0485,0.0383,-22.6800,21.4200,-29.5800,
1.226692,0.1474,0.0073,-0.2582,-0.0746,0.1353,0.0160,-22.6800,21.4200,-29.5800,
1.238981,0.1474,0.0073,-0.2582,-0.0746,0.1353,0.0160,-22.6800,21.4200,-29.5800,
1.239782,0.4445,-0.2322,-0.1037,-0.0746,0.1353,0.0160,-22.6800,21.4200,-29.5800,
1.242975,0.4445,-0.2322,-0.1037,-0.0746,0.1353,0.0160,-22.4400,22.5000,-30.1200,
1.246291,0.4445,-0.2322,-0.1037,-0.0426,0.1891,-0.0383,-22.4400,22.5000,-30.1200,
1.267249,0.4445,-0.2322,-0.1037,-0.0415,0.1443,-0.0985,-22.4400,22.5000,-30.1200,
1.287870,0.4445,-0.2322,-0.1037,-0.0485,0.1790,-0.1342,-22.4400,22.5000,-30.1200,
1.300088,0.4445,-0.2322,-0.1037,-0.0485,0.1790,-0.1342,-22.4400,22.5000,-30.1200,
1.300548,-0.2806,0.1795,0.1195,-0.0485,0.1790,-0.1342,-22.4400,22.5000,-30.1200,
1.304782,-0.2806,0.1795,0.1195,-0.0485,0.1790,-0.1342,-22.0200,22.5000,-31.1400,
1.308115,-0.2806,0.1795,0.1195,-0.0346,0.1465,-0.1353,-22.0200,22.5000,-31.1400,
1.328675,-0.2806,0.1795,0.1195,0.0021,0.0831,-0.1273,-22.0200,22.5000,-31.1400,
1.348914,-0.2806,0.1795,0.1195,0.0389,0.1055,-0.1198,-22.0200,22.5000,-31.1400,
1.361535,-0.2806,0.1795,0.1195,0.0389,0.1055,-0.1198,-22.0200,22.5000,-31.1400,
1.361897,-0.8157,-0.0869,0.0115,0.0389,0.1055,-0.1198,-22.0200,22.5000,-31.1400,
1.365680,-0.8157,-0.0869,0.0115,0.0389,0.1055,-0.1198,-21.4800,22.9800,-30.9600,
1.369269,-0.8157,-0.0869,0.0115,0.0735,0.1119,-0.1119,-21.4800,22.9800,-30.9600,
1.390572,-0.8157,-0.0869,0.0115,0.0911,0.2349,-0.0756,-21.4800,22.9800,-30.9600,
1.411088,-0.8157,-0.0869,0.0115,0.1193,0.3808,-0.0453,-21.4800,22.9800,-30.9600,
1.423776,-0.8157,-0.0869,0.0115,0.1193,0.3808,-0.0453,-21.4800,22.9800,-30.9600,
1.424456,-0.6205,0.5717,0.2896,0.1193,0.3808,-0.0453,-21.4800,22.9800,-30.9600,
1.427877,-0.6205,0.5717,0.2896,0.1193,0.3808,-0.0453,-21.5400,22.6200,-31.3200,
1.431467,-0.6205,0.5717,0.2896,0.1859,0.3206,-0.0639,-21.5400,22.6200,-31.3200,
1.452334,-0.6205,0.5717,0.2896,0.2157,0.3654,-0.0948,-21.5400,22.6200,-31.3200,
1.472840,-0.6205,0.5717,0.2896,0.2376,0.4634,-0.1635,-21.5400,22.6200,-31.3200,
1.485313,-0.6205,0.5717,0.2896,0.2376,0.4634,-0.1635,-21.5400,22.6200,-31.3200,
1.485854,-0.0308,-0.0432,-0.1811,0.2376,0.4634,-0.1635,-21.5400,22.6200,-31.3200,
1.489785,-0.0308,-0.0432,-0.1811,0.2376,0.4634,-0.1635,-21.0000,22.0800,-31.2000,
1.492543,-0.0308,-0.0432,-0.1811,0.2109,0.4474,-0.2274,-21.0000,22.0800,-31.2000,
1.515724,-0.0308,-0.0432,-0.1811,0.1395,0.4847,-0.2951,-21.0000,22.0800,-31.2000,
1.534323,-0.0308,-0.0432,-0.1811,0.0783,0.4256,-0.3356,-21.0000,22.0800,-31.2000,
1.546463,-0.0308,-0.0432,-0.1811,0.0783,0.4256,-0.3356,-21.0000,22.0800,-31.2000,
1.547257,-0.9100,0.0289,-0.3734,0.0783,0.4256,-0.3356,-21.0000,22.0800,-31.2000,
1.550818,-0.9100,0.0289,-0.3734,0.0783,0.4256,-0.3356,-20.7000,22.0200,-31.3200,
1.554540,-0.9100,0.0289,-0.3734,-0.0043,0.0341,-0.3563,-20.7000,22.0200,-31.3200,
1.574659,-0.9100,0.0289,-0.3734,-0.1257,-0.2173,-0.2818,-20.7000,22.0200,-31.3200,
1.595606,-0.9100,0.0289,-0.3734,-0.1358,0.0794,-0.0772,-20.7000,22.0200,-31.3200,
1.608305,-0.9100,0.0289,-0.3734,-0.1358,0.0794,-0.0772,-20.7000,22.0200,-31.3200,
1.608920,0.4134,0.3609,1.0342,-0.1358,0.0794,-0.0772,-20.7000,22.0200,-31.3200,
1.614565,0.4134,0.3609,1.0342,-0.1358,0.0794,-0.0772,-20.5200,21.2400,-31.7400,
1.615815,0.4134,0.3609,1.0342,0.1475,0.6466,0.0293,-20.5200,21.2400,-31.7400,
1.636822,0.4134,0.3609,1.0342,0.4991,1.0077,-0.0032,-20.5200,21.2400,-31.7400,
1.657795,0.4134,0.3609,1.0342,0.6839,0.9087,-0.0655,-20.5200,21.2400,-31.7400,
1.669777,0.4134,0.3609,1.0342,0.6839,0.9087,-0.0655,-20.5200,21.2400,-31.7400,
1.670158,1.0151,-1.9438,0.4362,0.6839,0.9087,-0.0655,-20.5200,21.2400,-31.7400,
1.674007,1.0151,-1.9438,0.4362,0.6839,0.9087,-0.0655,-19.9800,21.1200,-31.9200,
1.677562,1.0151,-1.9438,0.4362,0.6519,0.6770,-0.0804,-19.9800,21.1200,-31.9200,
1.698621,1.0151,-1.9438,0.4362,0.4692,0.6344,0.0096,-19.9800,21.1200,-31.9200,
1.719323,1.0151,-1.9438,0.4362,0.2684,0.7979,0.1358,-19.9800,21.1200,-31.9200,
1.732126,1.0151,-1.9438,0.4362,0.2684,0.7979,0.1358,-19.9800,21.1200,-31.9200,
1.732893,1.3708,-0.8544,1.8710,0.2684,0.7979,0.1358,-19.9800,21.1200,-31.9200,
1.736027,1.3708,-0.8544,1.8710,0.2684,0.7979,0.1358,-19.3200,20.7000,-32.9400,
1.739655,1.3708,-0.8544,1.8710,0.2445,0.5694,0.0495,-19.3200,20.7000,-32.9400,
1.760276,1.3708,-0.8544,1.8710,0.2152,0.1001,-0.1310,-19.3200,20.7000,-32.9400,
1.781319,1.3708,-0.8544,1.8710,0.1539,-0.0666,-0.3084,-19.3200,20.7000,-32.9400,
1.793342,1.3708,-0.8544,1.8710,0.1539,-0.0666,-0.3084,-19.3200,20.7000,-32.9400,
1.793881,1.9735,0.7246,0.1891,0.1539,-0.0666,-0.3084,-19.3200,20.7000,-32.9400,
1.798149,1.9735,0.7246,0.1891,0.1539,-0.0666,-0.3084,-18.1800,20.6400,-33.9000,
1.801379,1.9735,0.7246,0.1891,0.0272,-0.1864,-0.4032,-18.1800,20.6400,-33.9000,
1.821772,1.9735,0.7246,0.1891,-0.1268,-0.3521,-0.4112,-18.1800,20.6400,-33.9000,
1.844721,1.9735,0.7246,0.1891,-0.2205,-0.3590,-0.3388,-18.1800,20.6400,-33.9000,
1.854818,1.9735,0.7246,0.1891,-0.2205,-0.3590,-0.3388,-18.1800,20.6400,-33.9000,
1.855650,0.0827,0.3697,-0.3988,-0.2205,-0.3590,-0.3388,-18.1800,20.6400,-33.9000,
1.859138,0.0827,0.3697,-0.3988,-0.2205,-0.3590,-0.3388,-17.2200,19.8000,-34.6800,
1.862654,0.0827,0.3697,-0.3988,-0.1795,0.0969,-0.2929,-17.2200,19.8000,-34.6800,
1.883228,0.0827,0.3697,-0.3988,0.0501,0.7558,-0.2317,-17.2200,19.8000,-34.6800,
1.903334,0.0827,0.3697,-0.3988,0.3505,1.4120,-0.1912,-17.2200,19.8000,-34.6800,
1.916097,0.0827,0.3697,-0.3988,0.3505,1.4120,-0.1912,-17.2200,19.8000,-34.6800,
1.916789,1.3216,-0.4268,1.5167,0.3505,1.4120,-0.1912,-17.2200,19.8000,-34.6800,
1.920863,1.3216,-0.4268,1.5167,0.3505,1.4120,-0.1912,-16.3200,19.1400,-35.7000,
1.924438,1.3216,-0.4268,1.5167,0.4735,1.6890,-0.2290,-16.3200,19.1400,-35.7000,
1.944801,1.3216,-0.4268,1.5167,0.3047,1.4035,-0.2690,-16.3200,19.1400,-35.7000,
1.965116,1.3216,-0.4268,1.5167,-0.0426,0.5992,-0.2988,-16.3200,19.1400,-35.7000,
1.977552,1.3216,-0.4268,1.5167,-0.0426,0.5992,-0.2988,-16.3200,19.1400,-35.7000,
1.977966,-0.7458,0.1706,0.8859,-0.0426,0.5992,-0.2988,-16.3200,19.1400,-35.7000,
1.982119,-0.7458,0.1706,0.8859,-0.0426,0.5992,-0.2988,-16.1400,18.7800,-35.8800,
1.985044,-0.7458,0.1706,0.8859,-0.2168,-0.0591,-0.3915,-16.1400,18.7800,-35.8800,
2.006629,-0.7458,0.1706,0.8859,-0.2940,-0.2796,-0.4112,-16.1400,18.7800,-35.8800,
2.026958,-0.7458,0.1706,0.8859,-0.3851,-0.2727,-0.3920,-16.1400,18.7800,-35.8800,
2.039393,-0.7458,0.1706,0.8859,-0.3851,-0.2727,-0.3920,-16.1400,18.7800,-35.8800,
2.039970,0.1435,0.3882,0.1883,-0.3851,-0.2727,-0.3920,-16.1400,18.7800,-35.8800,
2.043916,0.1435,0.3882,0.1883,-0.3851,-0.2727,-0.3920,-15.4800,17.2200,-36.7800,
2.047317,0.1435,0.3882,0.1883,-0.4304,-0.0948,-0.3803,-15.4800,17.2200,-36.7800,
2.067906,0.1435,0.3882,0.1883,-0.3957,0.1097,-0.3334,-15.4800,17.2200,-36.7800,
2.088121,0.1435,0.3882,0.1883,-0.2754,0.2573,-0.3041,-15.4800,17.2200,-36.7800,
2.102280,0.1435,0.3882,0.1883,-0.2754,0.2573,-0.3041,-15.4800,17.2200,-36.7800,
2.102875,0.6289,-0.1705,0.8053,-0.2754,0.2573,-0.3041,-15.4800,17.2200,-36.7800,
2.105640,0.6289,-0.1705,0.8053,-0.2754,0.2573,-0.3041,-15.4800,17.1600,-37.1400,
2.108863,0.6289,-0.1705,0.8053,-0.1012,0.5167,-0.3004,-15.4800,17.1600,-37.1400,
2.129701,0.6289,-0.1705,0.8053,0.0437,0.8703,-0.2722,-15.4800,17.1600,-37.1400,
2.149799,0.6289,-0.1705,0.8053,0.0996,0.9539,-0.3041,-15.4800,17.1600,-37.1400,
2.163229,0.6289,-0.1705,0.8053,0.0996,0.9539,-0.3041,-15.4800,17.1600,-37.1400,
2.163893,-0.1203,1.2435,1.3920,0.0996,0.9539,-0.3041,-15.4800,17.1600,-37.1400,
2.167145,-0.1203,1.2435,1.3920,0.0996,0.9539,-0.3041,-14.5800,16.9200,-37.3800,
2.170690,-0.1203,1.2435,1.3920,0.1033,0.8298,-0.3174,-14.5800,16.9200,-37.3800,
2.191454,-0.1203,1.2435,1.3920,0.1119,0.7329,-0.3340,-14.5800,16.9200,-37.3800,
2.211345,-0.1203,1.2435,1.3920,0.0815,0.4953,-0.3318,-14.5800,16.9200,-37.3800,
2.224747,-0.1203,1.2435,1.3920,0.0815,0.4953,-0.3318,-14.5800,16.9200,-37.3800,
2.225407,-0.4835,2.2002,2.5812,0.0815,0.4953,-0.3318,-14.5800,16.9200,-37.3800,
2.228762,-0.4835,2.2002,2.5812,0.0815,0.4953,-0.3318,-14.1600,16.6800,-37.6200,
2.231981,-0.4835,2.2002,2.5812,0.1587,0.1273,-0.3366,-14.1600,16.6800,-37.6200,
2.253081,-0.4835,2.2002,2.5812,0.3265,-0.0756,-0.3595,-14.1600,16.6800,-37.6200,
2.273579,-0.4835,2.2002,2.5812,0.3925,-0.1076,-0.3473,-14.1600,16.6800,-37.6200,
2.285605,-0.4835,2.2002,2.5812,0.3925,-0.1076,-0.3473,-14.1600,16.6800,-37.6200,
2.285967,-1.7935,1.2939,1.1000,0.3925,-0.1076,-0.3473,-14.1600,16.6800,-37.6200,
2.290352,-1.7935,1.2939,1.1000,0.3925,-0.1076,-0.3473,-13.8000,16.8600,-37.8600,
2.294253,-1.7935,1.2939,1.1000,0.2924,-0.1774,-0.2413,-13.8000,16.8600,-37.8600,
2.314356,-1.7935,1.2939,1.1000,0.2210,-0.3159,-0.1502,-13.8000,16.8600,-37.8600,
2.335353,-1.7935,1.2939,1.1000,0.2940,-0.3824,-0.0991,-13.8000,16.8600,-37.8600,
2.347461,-1.7935,1.2939,1.1000,0.2940,-0.3824,-0.0991,-13.8000,16.8600,-37.8600,
2.347980,-1.3842,2.3750,0.9178,0.2940,-0.3824,-0.0991,-13.8000,16.8600,-37.8600,
2.352225,-1.3842,2.3750,0.9178,0.2940,-0.3824,-0.0991,-12.6600,16.7400,-38.4000,
2.355496,-1.3842,2.3750,0.9178,0.4117,-0.0346,-0.1097,-12.6600,16.7400,-38.4000,
2.376042,-1.3842,2.3750,0.9178,0.3174,0.3292,-0.1827,-12.6600,16.7400,-38.4000,
2.395980,-1.3842,2.3750,0.9178,-0.0692,0.1395,-0.4101,-12.6600,16.7400,-38.4000,
2.410720,-1.3842,2.3750,0.9178,-0.0692,0.1395,-0.4101,-12.6600,16.7400,-38.4000,
2.411317,-1.0621,2.0445,-0.4396,-0.0692,0.1395,-0.4101,-12.6600,16.7400,-38.4000,
2.413762,-1.0621,2.0445,-0.4396,-0.0692,0.1395,-0.4101,-12.2400,16.2000,-39.1200,
2.417112,-1.0621,2.0445,-0.4396,-0.4618,-0.0144,-0.5358,-12.2400,16.2000,-39.1200,
2.437933,-1.0621,2.0445,-0.4396,-0.7606,0.0889,-0.4559,-12.2400,16.2000,-39.1200,
2.458622,-1.0621,2.0445,-0.4396,-0.8075,0.4075,-0.4085,-12.2400,16.2000,-39.1200,
2.470872,-1.0621,2.0445,-0.4396,-0.8075,0.4075,-0.4085,-12.2400,16.2000,-39.1200,
2.471506,-0.5645,3.2640,2.4546,-0.8075,0.4075,-0.4085,-12.2400,16.2000,-39.1200,
2.474701,-0.5645,3.2640,2.4546,-0.8075,0.4075,-0.4085,-12.2400,15.1200,-39.9000,
2.479174,-0.5645,3.2640,2.4546,-0.5710,0.4218,-0.4314,-12.2400,15.1200,-39.9000,
2.499192,-0.5645,3.2640,2.4546,-0.3702,0.0676,-0.4613,-12.2400,15.1200,-39.9000,
2.519716,-0.5645,3.2640,2.4546,-0.3675,-0.2770,-0.5236,-12.2400,15.1200,-39.9000,
2.532681,-0.5645,3.2640,2.4546,-0.3675,-0.2770,-0.5236,-12.2400,15.1200,-39.9000,
2.533180,1.5157,5.9671,0.7628,-0.3675,-0.2770,-0.5236,-12.2400,15.1200,-39.9000,
2.536813,1.5157,5.9671,0.7628,-0.3675,-0.2770,-0.5236,-11.8800,14.9400,-39.6600,
2.540101,1.5157,5.9671,0.7628,-0.5859,-0.5886,-0.6818,-11.8800,14.9400,-39.6600,
2.560986,1.5157,5.9671,0.7628,-0.9215,-0.8437,-0.8480,-11.8800,14.9400,-39.6600,
2.582533,1.5157,5.9671,0.7628,-1.2224,-1.0290,-0.9033,-11.8800,14.9400,-39.6600,
2.593959,1.5157,5.9671,0.7628,-1.2224,-1.0290,-0.9033,-11.8800,14.9400,-39.6600,
2.594366,1.7627,6.5028,0.2626,-1.2224,-1.0290,-0.9033,-11.8800,14.9400,-39.6600,
2.598121,1.7627,6.5028,0.2626,-1.2224,-1.0290,-0.9033,-11.4000,14.5200,-39.8400,
2.601700,1.7627,6.5028,0.2626,-1.4227,-1.0376,-0.9188,-11.4000,14.5200,-39.8400,
2.622726,1.7627,6.5028,0.2626,-1.5404,-1.0631,-1.1723,-11.4000,14.5200,-39.8400,
2.642971,1.7627,6.5028,0.2626,-1.6251,-1.0147,-1.6229,-11.4000,14.5200,-39.8400,
2.656102,1.7627,6.5028,0.2626,-1.6251,-1.0147,-1.6229,-11.4000,14.5200,-39.8400,
2.656963,2.8393,5.7669,0.0265,-1.6251,-1.0147,-1.6229,-11.4000,14.5200,-39.8400,
2.660765,2.8393,5.7669,0.0265,-1.6251,-1.0147,-1.6229,-11.8200,14.5800,-39.9600,
2.663854,2.8393,5.7669,0.0265,-1.5942,-1.0477,-1.7822,-11.8200,14.5800,-39.9600,
2.684447,2.8393,5.7669,0.0265,-0.9167,-0.6637,-1.7998,-11.8200,14.5800,-39.9600,
2.704422,2.8393,5.7669,0.0265,-2.3457,1.5766,-3.1809,-11.8200,14.5800,-39.9600,
2.716952,2.8393,5.7669,0.0265,-2.3457,1.5766,-3.1809,-11.8200,14.5800,-39.9600,
2.717454,9.6865,-25.7627,-36.7446,-2.3457,1.5766,-3.1809,-11.8200,14.5800,-39.9600,
2.721632,9.6865,-25.7627,-36.7446,-2.3457,1.5766,-3.1809,-13.1400,15.3600,-38.5200,
2.724660,9.6865,-25.7627,-36.7446,-7.2097,2.7281,-5.6225,-13.1400,15.3600,-38.5200,
2.745938,9.6865,-25.7627,-36.7446,-7.7796,-1.7833,-7.2731,-13.1400,15.3600,-38.5200,
2.766040,9.6865,-25.7627,-36.7446,-4.6446,-1.8136,-6.5711,-13.1400,15.3600,-38.5200,
2.778879,9.6865,-25.7627,-36.7446,-4.6446,-1.8136,-6.5711,-13.1400,15.3600,-38.5200,
2.779868,2.5770,4.4714,10.4056,-4.6446,-1.8136,-6.5711,-13.1400,15.3600,-38.5200,
2.783372,2.5770,4.4714,10.4056,-4.6446,-1.8136,-6.5711,-15.2400,16.2600,-37.0200,
2.787370,2.5770,4.4714,10.4056,-2.2376,-2.6541,-5.5532,-15.2400,16.2600,-37.0200,
2.807210,2.5770,4.4714,10.4056,-0.7702,-9.0345,-4.5332,-15.2400,16.2600,-37.0200,
2.828729,2.5770,4.4714,10.4056,0.4394,-15.6807,-3.0605,-15.2400,16.2600,-37.0200,
2.840689,2.5770,4.4714,10.4056,0.4394,-15.6807,-3.0605,-15.2400,16.2600,-37.0200,
2.841482,-7.2163,2.3737,-16.6397,0.4394,-15.6807,-3.0605,-15.2400,16.2600,-37.0200,
2.845701,-7.2163,2.3737,-16.6397,0.4394,-15.6807,-3.0605,-19.9800,17.4000,-32.5800,
2.849087,-7.2163,2.3737,-16.6397,-6.8022,7.3189,-0.6828,-19.9800,17.4000,-32.5800,
2.869464,-7.2163,2.3737,-16.6397,-6.9333,-4.0017,-1.1265,-19.9800,17.4000,-32.5800,
2.889467,-7.2163,2.3737,-16.6397,-5.6001,-2.9060,-0.2759,-19.9800,17.4000,-32.5800,
2.902734,-7.2163,2.3737,-16.6397,-5.6001,-2.9060,-0.2759,-19.9800,17.4000,-32.5800,
2.903826,11.6449,6.9208,-21.9517,-5.6001,-2.9060,-0.2759,-19.9800,17.4000,-32.5800,
2.907113,11.6449,6.9208,-21.9517,-5.6001,-2.9060,-0.2759,-27.4200,16.5600,-24.4200,
2.910761,11.6449,6.9208,-21.9517,-1.3034,-1.1249,-0.7862,-27.4200,16.5600,-24.4200,
2.930470,11.6449,6.9208,-21.9517,0.7452,0.3590,-0.7792,-27.4200,16.5600,-24.4200,
2.951688,11.6449,6.9208,-21.9517,-0.0581,2.8522,-0.7425,-27.4200,16.5600,-24.4200,
2.964433,11.6449,6.9208,-21.9517,-0.0581,2.8522,-0.7425,-27.4200,16.5600,-24.4200,
2.965208,6.5792,1.7915,-15.3424,-0.0581,2.8522,-0.7425,-27.4200,16.5600,-24.4200,
2.969796,6.5792,1.7915,-15.3424,-0.0581,2.8522,-0.7425,-34.2600,16.6800,-13.6800,
2.971409,6.5792,1.7915,-15.3424,-1.5697,2.4304,-1.0967,-34.2600,16.6800,-13.6800,
2.992425,6.5792,1.7915,-15.3424,-2.8192,-0.3499,-0.3462,-34.2600,16.6800,-13.6800,
3.012448,6.5792,1.7915,-15.3424,-2.0767,1.3337,-0.6397,-34.2600,16.6800,-13.6800,
3.025817,6.5792,1.7915,-15.3424,-2.0767,1.3337,-0.6397,-34.2600,16.6800,-13.6800,
3.026676,-11.7207,4.7491,10.9661,-2.0767,1.3337,-0.6397,-34.2600,16.6800,-13.6800,
3.030300,-11.7207,4.7491,10.9661,-2.0767,1.3337,-0.6397,-40.0800,14.3400,-5.8800,
3.033297,-11.7207,4.7491,10.9661,-1.3209,0.7984,0.0916,-40.0800,14.3400,-5.8800,
3.053878,-11.7207,4.7491,10.9661,-1.3460,-0.8352,0.5848,-40.0800,14.3400,-5.8800,
3.074803,-11.7207,4.7491,10.9661,-0.8565,-0.6578,0.1731,-40.0800,14.3400,-5.8800,
3.087033,-11.7207,4.7491,10.9661,-0.8565,-0.6578,0.1731,-40.0800,14.3400,-5.8800,
3.087871,0.7554,-0.3264,7.0399,-0.8565,-0.6578,0.1731,-40.0800,14.3400,-5.8800,
3.092040,0.7554,-0.3264,7.0399,-0.8565,-0.6578,0.1731,-44.4600,11.5800,-0.1200,
3.096254,0.7554,-0.3264,7.0399,-0.4059,0.4224,-0.1822,-44.4600,11.5800,-0.1200,
3.115380,0.7554,-0.3264,7.0399,-0.3675,0.4682,0.0575,-44.4600,11.5800,-0.1200,
3.135198,0.7554,-0.3264,7.0399,-0.3111,0.2392,0.1108,-44.4600,11.5800,-0.1200,
3.150011,0.7554,-0.3264,7.0399,-0.3111,0.2392,0.1108,-44.4600,11.5800,-0.1200,
3.150499,-0.2769,0.8507,3.7336,-0.3111,0.2392,0.1108,-44.4600,11.5800,-0.1200,
3.152910,-0.2769,0.8507,3.7336,-0.3111,0.2392,0.1108,-44.2200,10.7400,1.7400,
3.156593,-0.2769,0.8507,3.7336,-0.0591,0.2519,0.1305,-44.2200,10.7400,1.7400,
3.176666,-0.2769,0.8507,3.7336,0.1177,0.5172,0.1981,-44.2200,10.7400,1.7400,
3.197376,-0.2769,0.8507,3.7336,0.2221,0.6786,0.0538,-44.2200,10.7400,1.7400,
3.210647,-0.2769,0.8507,3.7336,0.2221,0.6786,0.0538,-44.2200,10.7400,1.7400,
3.211250,2.5362,2.3912,-1.4717,0.2221,0.6786,0.0538,-44.2200,10.7400,1.7400,
3.214788,2.5362,2.3912,-1.4717,0.2221,0.6786,0.0538,-43.1400,8.5200,-0.6600,
3.221930,2.5362,2.3912,-1.4717,-0.3084,0.5145,-0.0250,-43.1400,8.5200,-0.6600,
3.238185,2.5362,2.3912,-1.4717,-0.5534,0.3457,-0.1513,-43.1400,8.5200,-0.6600,
3.258677,2.5362,2.3912,-1.4717,0.7792,0.1459,-0.4181,-43.1400,8.5200,-0.6600,
3.271644,2.5362,2.3912,-1.4717,0.7792,0.1459,-0.4181,-43.1400,8.5200,-0.6600,
3.272097,-0.2129,1.3731,6.4295,0.7792,0.1459,-0.4181,-43.1400,8.5200,-0.6600,
3.276711,-0.2129,1.3731,6.4295,0.7792,0.1459,-0.4181,-43.3200,7.8000,-1.0800,
3.279318,-0.2129,1.3731,6.4295,1.6629,0.1044,-0.3318,-43.3200,7.8000,-1.0800,
3.299723,-0.2129,1.3731,6.4295,1.4056,0.0703,-0.1795,-43.3200,7.8000,-1.0800,
3.320727,-0.2129,1.3731,6.4295,1.4184,-0.1337,-0.1390,-43.3200,7.8000,-1.0800,
3.333037,-0.2129,1.3731,6.4295,1.4184,-0.1337,-0.1390,-43.3200,7.8000,-1.0800,
3.333697,0.0013,2.0148,3.4526,1.4184,-0.1337,-0.1390,-43.3200,7.8000,-1.0800,
3.337564,0.0013,2.0148,3.4526,1.4184,-0.1337,-0.1390,-42.7200,8.1000,-2.1000,
3.340921,0.0013,2.0148,3.4526,1.7332,0.0021,-0.1193,-42.7200,8.1000,-2.1000,
3.361673,0.0013,2.0148,3.4526,1.9015,0.0810,-0.0165,-42.7200,8.1000,-2.1000,
3.382298,0.0013,2.0148,3.4526,1.9478,-0.3734,-0.1411,-42.7200,8.1000,-2.1000,
3.395290,0.0013,2.0148,3.4526,1.9478,-0.3734,-0.1411,-42.7200,8.1000,-2.1000,
3.396222,4.1916,1.2942,2.0175,1.9478,-0.3734,-0.1411,-42.7200,8.1000,-2.1000,
3.399321,4.1916,1.2942,2.0175,1.9478,-0.3734,-0.1411,-42.9000,7.3200,-3.7800,
3.403640,4.1916,1.2942,2.0175,2.1609,-0.5273,-0.5092,-42.9000,7.3200,-3.7800,
3.423728,4.1916,1.2942,2.0175,1.7827,-0.7654,-0.2147,-42.9000,7.3200,-3.7800,
3.444181,4.1916,1.2942,2.0175,1.4887,-0.7558,0.1316,-42.9000,7.3200,-3.7800,
3.457072,4.1916,1.2942,2.0175,1.4887,-0.7558,0.1316,-42.9000,7.3200,-3.7800,
3.457977,-1.0567,1.4604,-9.9828,1.4887,-0.7558,0.1316,-42.9000,7.3200,-3.7800,
3.461030,-1.0567,1.4604,-9.9828,1.4887,-0.7558,0.1316,-43.6800,5.7000,-5.1600,
3.465329,-1.0567,1.4604,-9.9828,0.8629,-0.3931,0.2051,-43.6800,5.7000,-5.1600,
3.485685,-1.0567,1.4604,-9.9828,0.0128,1.1079,0.0884,-43.6800,5.7000,-5.1600,
3.506157,-1.0567,1.4604,-9.9828,0.1912,1.4562,0.0543,-43.6800,5.7000,-5.1600,
3.518760,-1.0567,1.4604,-9.9828,0.1912,1.4562,0.0543,-43.6800,5.7000,-5.1600,
3.519758,-1.5855,2.2186,-0.2269,0.1912,1.4562,0.0543,-43.6800,5.7000,-5.1600,
3.523417,-1.5855,2.2186,-0.2269,0.1912,1.4562,0.0543,-43.0200,5.1000,-5.1600,
3.526573,-1.5855,2.2186,-0.2269,0.1656,1.5276,0.0964,-43.0200,5.1000,-5.1600,
3.546345,-1.5855,2.2186,-0.2269,0.5252,0.9215,0.0197,-43.0200,5.1000,-5.1600,
3.567507,-1.5855,2.2186,-0.2269,0.9561,0.7760,0.0160,-43.0200,5.1000,-5.1600,
3.580047,-1.5855,2.2186,-0.2269,0.9561,0.7760,0.0160,-43.0200,5.1000,-5.1600,
3.580972,0.0127,-0.8010,-1.1867,0.9561,0.7760,0.0160,-43.0200,5.1000,-5.1600,
3.583905,0.0127,-0.8010,-1.1867,0.9561,0.7760,0.0160,-43.2000,4.5600,-5.9400,
3.587799,0.0127,-0.8010,-1.1867,0.7547,0.7585,-0.1182,-43.2000,4.5600,-5.9400,
3.608849,0.0127,-0.8010,-1.1867,0.3036,0.9875,-0.1806,-43.2000,4.5600,-5.9400,
3.628947,0.0127,-0.8010,-1.1867,-0.0160,1.4296,-0.1401,-43.2000,4.5600,-5.9400,
3.642012,0.0127,-0.8010,-1.1867,-0.0160,1.4296,-0.1401,-43.2000,4.5600,-5.9400,
3.642687,0.8048,1.2346,1.6645,-0.0160,1.4296,-0.1401,-43.2000,4.5600,-5.9400,
3.645790,0.8048,1.2346,1.6645,-0.0160,1.4296,-0.1401,-42.6000,3.9600,-7.3200,
3.649338,0.8048,1.2346,1.6645,-0.2439,0.9087,-0.1518,-42.6000,3.9600,-7.3200,
3.670581,0.8048,1.2346,1.6645,-0.1262,0.3888,-0.1230,-42.6000,3.9600,-7.3200,
3.691304,0.8048,1.2346,1.6645,-0.0746,0.2077,-0.1577,-42.6000,3.9600,-7.3200,
3.703838,0.8048,1.2346,1.6645,-0.0746,0.2077,-0.1577,-42.6000,3.9600,-7.3200,
3.705029,0.3525,-0.1489,0.6186,-0.0746,0.2077,-0.1577,-42.6000,3.9600,-7.3200,
3.708025,0.3525,-0.1489,0.6186,-0.0746,0.2077,-0.1577,-41.7000,4.2600,-8.5200,
3.711296,0.3525,-0.1489,0.6186,-0.1923,0.0879,-0.0953,-41.7000,4.2600,-8.5200,
3.731339,0.3525,-0.1489,0.6186,-0.2722,-0.1699,-0.0325,-41.7000,4.2600,-8.5200,
3.752501,0.3525,-0.1489,0.6186,-0.1667,-0.2658,0.0181,-41.7000,4.2600,-8.5200,
3.765268,0.3525,-0.1489,0.6186,-0.1667,-0.2658,0.0181,-41.7000,4.2600,-8.5200,
3.766006,0.2532,0.6433,-0.2091,-0.1667,-0.2658,0.0181,-41.7000,4.2600,-8.5200,
3.769635,0.2532,0.6433,-0.2091,-0.1667,-0.2658,0.0181,-41.3400,3.8400,-11.3400,
3.773122,0.2532,0.6433,-0.2091,-0.1316,-0.1193,0.0378,-41.3400,3.8400,-11.3400,
3.793664,0.2532,0.6433,-0.2091,-0.1672,-0.0756,0.0250,-41.3400,3.8400,-11.3400,
3.814751,0.2532,0.6433,-0.2091,-0.1262,-0.2455,0.0373,-41.3400,3.8400,-11.3400,
3.826420,0.2532,0.6433,-0.2091,-0.1262,-0.2455,0.0373,-41.3400,3.8400,-11.3400,
3.826938,-0.0529,0.2354,0.4501,-0.1262,-0.2455,0.0373,-41.3400,3.8400,-11.3400,
3.829897,-0.0529,0.2354,0.4501,-0.1262,-0.2455,0.0373,-40.7400,3.1800,-13.2000,
3.834719,-0.0529,0.2354,0.4501,-0.0810,-0.3063,0.0437,-40.7400,3.1800,-13.2000,
3.854783,-0.0529,0.2354,0.4501,-0.1380,-0.1513,0.0405,-40.7400,3.1800,-13.2000,
3.875618,-0.0529,0.2354,0.4501,-0.1550,-0.0639,0.0304,-40.7400,3.1800,-13.2000,
3.888771,-0.0529,0.2354,0.4501,-0.1550,-0.0639,0.0304,-40.7400,3.1800,-13.2000,
3.889524,0.0886,0.4350,-0.1306,-0.1550,-0.0639,0.0304,-40.7400,3.1800,-13.2000,
3.892934,0.0886,0.4350,-0.1306,-0.1550,-0.0639,0.0304,-40.6200,3.0600,-13.5600,
3.896807,0.0886,0.4350,-0.1306,-0.0804,-0.1486,0.0080,-40.6200,3.0600,-13.5600,
3.916780,0.0886,0.4350,-0.1306,-0.0368,-0.1252,0.0053,-40.6200,3.0600,-13.5600,
3.936985,0.0886,0.4350,-0.1306,-0.0389,-0.0389,0.0107,-40.6200,3.0600,-13.5600,
3.950523,0.0886,0.4350,-0.1306,-0.0389,-0.0389,0.0107,-40.6200,3.0600,-13.5600,
3.951600,-0.0899,0.2781,0.1040,-0.0389,-0.0389,0.0107,-40.6200,3.0600,-13.5600,
3.953619,-0.0899,0.2781,0.1040,-0.0389,-0.0389,0.0107,-40.5600,3.1800,-13.5600,
3.957469,-0.0899,0.2781,0.1040,0.0000,-0.0325,0.0160,-40.5600,3.1800,-13.5600,
3.978557,-0.0899,0.2781,0.1040,0.0650,-0.0559,0.0277,-40.5600,3.1800,-13.5600,
3.998947,-0.0899,0.2781,0.1040,0.0751,-0.0399,0.0346,-40.5600,3.1800,-13.5600,
4.011481,-0.0899,0.2781,0.1040,0.0751,-0.0399,0.0346,-40.5600,3.1800,-13.5600,
4.012226,-0.0198,0.0954,0.0775,0.0751,-0.0399,0.0346,-40.5600,3.1800,-13.5600,
4.015890,-0.0198,0.0954,0.0775,0.0751,-0.0399,0.0346,-40.7400,3.3000,-13.2600,
4.019243,-0.0198,0.0954,0.0775,0.0565,-0.0330,0.0368,-40.7400,3.3000,-13.2600,
4.039728,-0.0198,0.0954,0.0775,0.0698,-0.0543,0.0394,-40.7400,3.3000,-13.2600,
4.060054,-0.0198,0.0954,0.0775,0.0815,-0.0463,0.0362,-40.7400,3.3000,-13.2600,
4.073466,-0.0198,0.0954,0.0775,0.0815,-0.0463,0.0362,-40.7400,3.3000,-13.2600,
4.074467,-0.0210,-0.0224,-0.0933,0.0815,-0.0463,0.0362,-40.7400,3.3000,-13.2600,
4.077489,-0.0210,-0.0224,-0.0933,0.0815,-0.0463,0.0362,-40.6200,3.3600,-12.9600,
4.082845,-0.0210,-0.0224,-0.0933,0.0644,-0.0144,0.0229,-40.6200,3.3600,-12.9600,
4.102980,-0.0210,-0.0224,-0.0933,0.0687,0.0229,0.0112,-40.6200,3.3600,-12.9600,
4.122244,-0.0210,-0.0224,-0.0933,0.0607,0.0352,0.0059,-40.6200,3.3600,-12.9600,
4.134251,-0.0210,-0.0224,-0.0933,0.0607,0.0352,0.0059,-40.6200,3.3600,-12.9600,
4.134952,-0.0429,0.0600,0.1956,0.0607,0.0352,0.0059,-40.6200,3.3600,-12.9600,
4.138415,-0.0429,0.0600,0.1956,0.0607,0.0352,0.0059,-41.0400,3.3000,-12.9000,
4.143319,-0.0429,0.0600,0.1956,0.0613,0.0458,0.0043,-41.0400,3.3000,-12.9000,
4.162347,-0.0429,0.0600,0.1956,0.0788,0.0298,0.0032,-41.0400,3.3000,-12.9000,
4.183586,-0.0429,0.0600,0.1956,0.0740,0.0415,0.0043,-41.0400,3.3000,-12.9000,
4.195892,-0.0429,0.0600,0.1956,0.0740,0.0415,0.0043,-41.0400,3.3000,-12.9000,
4.197151,-0.0056,0.0819,0.2225,0.0740,0.0415,0.0043,-41.0400,3.3000,-12.9000,
4.199874,-0.0056,0.0819,0.2225,0.0740,0.0415,0.0043,-40.5000,3.1200,-12.9600,
4.203347,-0.0056,0.0819,0.2225,0.0607,0.0154,0.0085,-40.5000,3.1200,-12.9600,
4.224769,-0.0056,0.0819,0.2225,0.0533,0.0048,0.0117,-40.5000,3.1200,-12.9600,
4.244425,-0.0056,0.0819,0.2225,0.0346,0.0218,0.0085,-40.5000,3.1200,-12.9600,
4.257208,-0.0056,0.0819,0.2225,0.0346,0.0218,0.0085,-40.5000,3.1200,-12.9600,
4.257766,0.0186,0.1422,0.0913,0.0346,0.0218,0.0085,-40.5000,3.1200,-12.9600,
4.261925,0.0186,0.1422,0.0913,0.0346,0.0218,0.0085,-40.4400,2.9400,-12.8400,
4.265147,0.0186,0.1422,0.0913,0.0304,0.0011,0.0101,-40.4400,2.9400,-12.8400,
4.285649,0.0186,0.1422,0.0913,0.0176,-0.0282,0.0165,-40.4400,2.9400,-12.8400,
4.306860,0.0186,0.1422,0.0913,-0.0043,-0.0346,0.0197,-40.4400,2.9400,-12.8400,
4.319340,0.0186,0.1422,0.0913,-0.0043,-0.0346,0.0197,-40.4400,2.9400,-12.8400,
4.320118,-0.0222,0.1119,0.0501,-0.0043,-0.0346,0.0197,-40.4400,2.9400,-12.8400,
4.323531,-0.0222,0.1119,0.0501,-0.0043,-0.0346,0.0197,-40.6200,2.9400,-12.9600,
4.327295,-0.0222,0.1119,0.0501,-0.0096,-0.0399,0.0197,-40.6200,2.9400,-12.9600,
4.347766,-0.0222,0.1119,0.0501,-0.0016,-0.0549,0.0224,-40.6200,2.9400,-12.9600,
4.368556,-0.0222,0.1119,0.0501,0.0165,-0.0597,0.0234,-40.6200,2.9400,-12.9600,
4.380588,-0.0222,0.1119,0.0501,0.0165,-0.0597,0.0234,-40.6200,2.9400,-12.9600,
4.380980,-0.0850,0.0532,0.2253,0.0165,-0.0597,0.0234,-40.6200,2.9400,-12.9600,
4.385964,-0.0850,0.0532,0.2253,0.0165,-0.0597,0.0234,-40.1400,3.1200,-13.2000,
4.389122,-0.0850,0.0532,0.2253,0.0117,-0.0543,0.0213,-40.1400,3.1200,-13.2000,
4.409589,-0.0850,0.0532,0.2253,0.0107,-0.0320,0.0176,-40.1400,3.1200,-13.2000,
4.430241,-0.0850,0.0532,0.2253,0.0101,-0.0069,0.0091,-40.1400,3.1200,-13.2000,
4.442783,-0.0850,0.0532,0.2253,0.0101,-0.0069,0.0091,-40.1400,3.1200,-13.2000,
4.443783,-0.0088,0.0623,0.0759,0.0101,-0.0069,0.0091,-40.1400,3.1200,-13.2000,
4.446881,-0.0088,0.0623,0.0759,0.0101,-0.0069,0.0091,-40.5000,3.1800,-13.3800,
4.449590,-0.0088,0.0623,0.0759,0.0144,-0.0011,0.0091,-40.5000,3.1800,-13.3800,
4.472255,-0.0088,0.0623,0.0759,-0.0027,0.0149,0.0016,-40.5000,3.1800,-13.3800,
4.491755,-0.0088,0.0623,0.0759,-0.0272,0.0298,-0.0048,-40.5000,3.1800,-13.3800,
4.504154,-0.0088,0.0623,0.0759,-0.0272,0.0298,-0.0048,-40.5000,3.1800,-13.3800,
4.505057,-0.0728,0.0914,0.2211,-0.0272,0.0298,-0.0048,-40.5000,3.1800,-13.3800,
4.510268,-0.0728,0.0914,0.2211,-0.0272,0.0298,-0.0048,-40.6200,3.0000,-13.2000,
4.512558,-0.0728,0.0914,0.2211,-0.0533,0.0314,-0.0069,-40.6200,3.0000,-13.2000,
4.532815,-0.0728,0.0914,0.2211,-0.0756,0.0186,-0.0091,-40.6200,3.0000,-13.2000,
4.553898,-0.0728,0.0914,0.2211,-0.0772,0.0128,-0.0048,-40.6200,3.0000,-13.2000,
4.566115,-0.0728,0.0914,0.2211,-0.0772,0.0128,-0.0048,-40.6200,3.0000,-13.2000,
4.566734,-0.0013,0.0885,-0.0276,-0.0772,0.0128,-0.0048,-40.6200,3.0000,-13.2000,
4.569693,-0.0013,0.0885,-0.0276,-0.0772,0.0128,-0.0048,-40.5600,3.1800,-12.3000,
4.573089,-0.0013,0.0885,-0.0276,-0.0373,0.0091,-0.0016,-40.5600,3.1800,-12.3000,
4.594216,-0.0013,0.0885,-0.0276,-0.0027,-0.0133,0.0112,-40.5600,3.1800,-12.3000,
4.614456,-0.0013,0.0885,-0.0276,0.0011,-0.0352,0.0170,-40.5600,3.1800,-12.3000,
4.627131,-0.0013,0.0885,-0.0276,0.0011,-0.0352,0.0170,-40.5600,3.1800,-12.3000,
4.628018,-0.0654,0.0793,0.1307,0.0011,-0.0352,0.0170,-40.5600,3.1800,-12.3000,
4.631805,-0.0654,0.0793,0.1307,0.0011,-0.0352,0.0170,-40.5600,2.8200,-11.5800,
4.636095,-0.0654,0.0793,0.1307,-0.0059,-0.0330,0.0133,-40.5600,2.8200,-11.5800,
4.655464,-0.0654,0.0793,0.1307,0.0000,-0.0352,0.0154,-40.5600,2.8200,-11.5800,
4.676305,-0.0654,0.0793,0.1307,0.0037,-0.0368,0.0154,-40.5600,2.8200,-11.5800,
4.688959,-0.0654,0.0793,0.1307,0.0037,-0.0368,0.0154,-40.5600,2.8200,-11.5800,
4.689903,-0.0889,0.0546,0.0476,0.0037,-0.0368,0.0154,-40.5600,2.8200,-11.5800,
4.693167,-0.0889,0.0546,0.0476,0.0037,-0.0368,0.0154,-40.6800,2.5800,-11.5200,
4.696248,-0.0889,0.0546,0.0476,-0.0011,-0.0133,0.0123,-40.6800,2.5800,-11.5200,
4.717994,-0.0889,0.0546,0.0476,-0.0064,0.0037,0.0059,-40.6800,2.5800,-11.5200,
4.737949,-0.0889,0.0546,0.0476,-0.0037,-0.0080,0.0091,-40.6800,2.5800,-11.5200,
4.750508,-0.0889,0.0546,0.0476,-0.0037,-0.0080,0.0091,-40.6800,2.5800,-11.5200,
4.751167,-0.1445,0.1495,0.1547,-0.0037,-0.0080,0.0091,-40.6800,2.5800,-11.5200,
4.754672,-0.1445,0.1495,0.1547,-0.0037,-0.0080,0.0091,-40.8000,2.5200,-11.6400,
4.758178,-0.1445,0.1495,0.1547,0.0101,-0.0128,0.0133,-40.8000,2.5200,-11.6400,
4.778776,-0.1445,0.1495,0.1547,0.0085,-0.0011,0.0112,-40.8000,2.5200,-11.6400,
4.799676,-0.1445,0.1495,0.1547,-0.0005,0.0123,0.0059,-40.8000,2.5200,-11.6400,
4.812475,-0.1445,0.1495,0.1547,-0.0005,0.0123,0.0059,-40.8000,2.5200,-11.6400,
4.813692,0.0553,0.0598,0.0351,-0.0005,0.0123,0.0059,-40.8000,2.5200,-11.6400,
4.816159,0.0553,0.0598,0.0351,-0.0005,0.0123,0.0059,-40.8000,2.5800,-12.1200,
4.819844,0.0553,0.0598,0.0351,-0.0069,0.0112,0.0011,-40.8000,2.5800,-12.1200,
4.841382,0.0553,0.0598,0.0351,-0.0027,0.0107,0.0075,-40.8000,2.5800,-12.1200,
4.860293,0.0553,0.0598,0.0351,-0.0064,-0.0011,0.0075,-40.8000,2.5800,-12.1200,
4.873386,0.0553,0.0598,0.0351,-0.0064,-0.0011,0.0075,-40.8000,2.5800,-12.1200,
4.874035,-0.0220,0.0755,0.0989,-0.0064,-0.0011,0.0075,-40.8000,2.5800,-12.1200,
4.877871,-0.0220,0.0755,0.0989,-0.0064,-0.0011,0.0075,-40.8000,2.8800,-12.1800,
4.881129,-0.0220,0.0755,0.0989,-0.0021,-0.0016,0.0091,-40.8000,2.8800,-12.1800,
4.902318,-0.0220,0.0755,0.0989,0.0037,0.0027,0.0107,-40.8000,2.8800,-12.1800,
4.922941,-0.0220,0.0755,0.0989,-0.0043,0.0085,0.0091,-40.8000,2.8800,-12.1800,
4.937363,-0.0220,0.0755,0.0989,-0.0043,0.0085,0.0091,-40.8000,2.8800,-12.1800,
4.938444,-0.0042,0.0666,0.0932,-0.0043,0.0085,0.0091,-40.8000,2.8800,-12.1800,
4.939706,-0.0042,0.0666,0.0932,-0.0043,0.0085,0.0091,-40.9200,3.2400,-12.3600,
4.943185,-0.0042,0.0666,0.0932,-0.0037,0.0011,0.0075,-40.9200,3.2400,-12.3600,
4.964262,-0.0042,0.0666,0.0932,-0.0032,-0.0048,0.0075,-40.9200,3.2400,-12.3600,
4.984139,-0.0042,0.0666,0.0932,0.0032,-0.0011,0.0075,-40.9200,3.2400,-12.3600,
4.997391,-0.0042,0.0666,0.0932,0.0032,-0.0011,0.0075,-40.9200,3.2400,-12.3600,
4.998018,0.0175,0.0199,0.1044,0.0032,-0.0011,0.0075,-40.9200,3.2400,-12.3600,
5.003354,0.0175,0.0199,0.1044,0.0032,-0.0011,0.0075,-40.5600,3.4800,-12.4800,
5.005431,0.0175,0.0199,0.1044,-0.0016,-0.0107,0.0101,-40.5600,3.4800,-12.4800,
5.025561,0.0175,0.0199,0.1044,0.0043,-0.0117,0.0112,-40.5600,3.4800,-12.4800,
5.046475,0.0175,0.0199,0.1044,0.0091,-0.0154,0.0128,-40.5600,3.4800,-12.4800,
5.059723,0.0175,0.0199,0.1044,0.0091,-0.0154,0.0128,-40.5600,3.4800,-12.4800,
5.061009,-0.0248,0.0734,0.1512,0.0091,-0.0154,0.0128,-40.5600,3.4800,-12.4800,
5.063036,-0.0248,0.0734,0.1512,0.0091,-0.0154,0.0128,-40.6200,3.4800,-12.7200,
5.067072,-0.0248,0.0734,0.1512,0.0037,-0.0176,0.0154,-40.6200,3.4800,-12.7200,
5.087228,-0.0248,0.0734,0.1512,0.0032,-0.0112,0.0154,-40.6200,3.4800,-12.7200,
5.107342,-0.0248,0.0734,0.1512,-0.0011,-0.0085,0.0133,-40.6200,3.4800,-12.7200,
5.121607,-0.0248,0.0734,0.1512,-0.0011,-0.0085,0.0133,-40.6200,3.4800,-12.7200,
5.122729,-0.0395,0.0737,0.1507,-0.0011,-0.0085,0.0133,-40.6200,3.4800,-12.7200,
5.125736,-0.0395,0.0737,0.1507,-0.0011,-0.0085,0.0133,-40.3800,3.6600,-13.3200,
5.128579,-0.0395,0.0737,0.1507,0.0037,-0.0085,0.0138,-40.3800,3.6600,-13.3200,
5.149133,-0.0395,0.0737,0.1507,0.0075,-0.0101,0.0149,-40.3800,3.6600,-13.3200,
5.169999,-0.0395,0.0737,0.1507,0.0069,-0.0133,0.0154,-40.3800,3.6600,-13.3200,
5.181898,-0.0395,0.0737,0.1507,0.0069,-0.0133,0.0154,-40.3800,3.6600,-13.3200,
5.182268,-0.0415,0.0601,0.0999,0.0069,-0.0133,0.0154,-40.3800,3.6600,-13.3200,
5.185920,-0.0415,0.0601,0.0999,0.0069,-0.0133,0.0154,-40.3800,3.4200,-13.4400,
5.189309,-0.0415,0.0601,0.0999,0.0059,-0.0048,0.0160,-40.3800,3.4200,-13.4400,
5.210949,-0.0415,0.0601,0.0999,0.0053,-0.0043,0.0123,-40.3800,3.4200,-13.4400,
5.230745,-0.0415,0.0601,0.0999,0.0027,-0.0080,0.0112,-40.3800,3.4200,-13.4400,
5.243659,-0.0415,0.0601,0.0999,0.0027,-0.0080,0.0112,-40.3800,3.4200,-13.4400,
5.245021,-0.0286,0.0462,0.0721,0.0027,-0.0080,0.0112,-40.3800,3.4200,-13.4400,
5.247710,-0.0286,0.0462,0.0721,0.0027,-0.0080,0.0112,-40.5600,3.1800,-13.6800,
5.251596,-0.0286,0.0462,0.0721,0.0016,-0.0011,0.0138,-40.5600,3.1800,-13.6800,
5.271795,-0.0286,0.0462,0.0721,0.0027,-0.0069,0.0112,-40.5600,3.1800,-13.6800,
5.292243,-0.0286,0.0462,0.0721,0.0016,-0.0080,0.0123,-40.5600,3.1800,-13.6800,
5.305013,-0.0286,0.0462,0.0721,0.0016,-0.0080,0.0123,-40.5600,3.1800,-13.6800,
5.305689,-0.0285,0.0615,0.1185,0.0016,-0.0080,0.0123,-40.5600,3.1800,-13.6800,
5.309149,-0.0285,0.0615,0.1185,0.0016,-0.0080,0.0123,-40.8000,3.4800,-13.5000,
5.312536,-0.0285,0.0615,0.1185,0.0032,-0.0064,0.0123,-40.8000,3.4800,-13.5000,
5.333765,-0.0285,0.0615,0.1185,0.0011,-0.0016,0.0144,-40.8000,3.4800,-13.5000,
5.354464,-0.0285,0.0615,0.1185,0.0027,-0.0043,0.0128,-40.8000,3.4800,-13.5000,
5.366725,-0.0285,0.0615,0.1185,0.0027,-0.0043,0.0128,-40.8000,3.4800,-13.5000,
5.367460,-0.0202,0.0468,0.1354,0.0027,-0.0043,0.0128,-40.8000,3.4800,-13.5000,
5.371320,-0.0202,0.0468,0.1354,0.0027,-0.0043,0.0128,-41.1600,3.1800,-13.1400,
5.374123,-0.0202,0.0468,0.1354,0.0021,-0.0085,0.0144,-41.1600,3.1800,-13.1400,
5.394496,-0.0202,0.0468,0.1354,-0.0027,-0.0112,0.0138,-41.1600,3.1800,-13.1400,
5.415605,-0.0202,0.0468,0.1354,0.0027,-0.0123,0.0138,-41.1600,3.1800,-13.1400,
5.427734,-0.0202,0.0468,0.1354,0.0027,-0.0123,0.0138,-41.1600,3.1800,-13.1400,
5.428535,-0.0247,0.0505,0.1039,0.0027,-0.0123,0.0138,-41.1600,3.1800,-13.1400,
5.431779,-0.0247,0.0505,0.1039,0.0027,-0.0123,0.0138,-40.8600,3.2400,-13.0800,
5.436026,-0.0247,0.0505,0.1039,0.0037,-0.0154,0.0154,-40.8600,3.2400,-13.0800,
5.457272,-0.0247,0.0505,0.1039,0.0005,-0.0085,0.0154,-40.8600,3.2400,-13.0800,
5.476771,-0.0247,0.0505,0.1039,0.0021,-0.0075,0.0149,-40.8600,3.2400,-13.0800,
5.489431,-0.0247,0.0505,0.1039,0.0021,-0.0075,0.0149,-40.8600,3.2400,-13.0800,
5.490474,-0.0124,0.0321,0.0984,0.0021,-0.0075,0.0149,-40.8600,3.2400,-13.0800,
5.494421,-0.0124,0.0321,0.0984,0.0021,-0.0075,0.0149,-40.5600,3.1800,-12.7800,
5.498432,-0.0124,0.0321,0.0984,0.0005,-0.0075,0.0128,-40.5600,3.1800,-12.7800,
5.518828,-0.0124,0.0321,0.0984,0.0000,-0.0091,0.0133,-40.5600,3.1800,-12.7800,
5.538567,-0.0124,0.0321,0.0984,0.0000,-0.0096,0.0133,-40.5600,3.1800,-12.7800,
5.551715,-0.0124,0.0321,0.0984,0.0000,-0.0096,0.0133,-40.5600,3.1800,-12.7800,
5.552277,-0.0226,0.0478,0.0953,0.0000,-0.0096,0.0133,-40.5600,3.1800,-12.7800,
5.555439,-0.0226,0.0478,0.0953,0.0000,-0.0096,0.0133,-40.5000,2.4600,-12.9000,
5.559502,-0.0226,0.0478,0.0953,0.0011,-0.0069,0.0133,-40.5000,2.4600,-12.9000,
5.580304,-0.0226,0.0478,0.0953,0.0005,-0.0043,0.0128,-40.5000,2.4600,-12.9000,
5.600802,-0.0226,0.0478,0.0953,-0.0027,-0.0059,0.0133,-40.5000,2.4600,-12.9000,
5.612883,-0.0226,0.0478,0.0953,-0.0027,-0.0059,0.0133,-40.5000,2.4600,-12.9000,
5.613320,-0.0133,0.0552,0.0914,-0.0027,-0.0059,0.0133,-40.5000,2.4600,-12.9000,
5.617833,-0.0133,0.0552,0.0914,-0.0027,-0.0059,0.0133,-40.2000,2.5200,-13.3200,
5.621269,-0.0133,0.0552,0.0914,-0.0021,-0.0048,0.0128,-40.2000,2.5200,-13.3200,
5.642327,-0.0133,0.0552,0.0914,-0.0021,-0.0091,0.0133,-40.2000,2.5200,-13.3200,
5.662327,-0.0133,0.0552,0.0914,0.0005,-0.0091,0.0144,-40.2000,2.5200,-13.3200,
5.674929,-0.0133,0.0552,0.0914,0.0005,-0.0091,0.0144,-40.2000,2.5200,-13.3200,
5.675925,-0.0146,0.0480,0.0811,0.0005,-0.0091,0.0144,-40.2000,2.5200,-13.3200,
5.678629,-0.0146,0.0480,0.0811,0.0005,-0.0091,0.0144,-40.6200,2.5200,-13.6200,
5.681831,-0.0146,0.0480,0.0811,-0.0011,-0.0075,0.0133,-40.6200,2.5200,-13.6200,
5.703210,-0.0146,0.0480,0.0811,-0.0005,-0.0064,0.0117,-40.6200,2.5200,-13.6200,
5.724035,-0.0146,0.0480,0.0811,-0.0048,-0.0053,0.0123,-40.6200,2.5200,-13.6200,
5.736581,-0.0146,0.0480,0.0811,-0.0048,-0.0053,0.0123,-40.6200,2.5200,-13.6200,
5.737281,-0.0306,0.0456,0.1160,-0.0048,-0.0053,0.0123,-40.6200,2.5200,-13.6200,
5.740737,-0.0306,0.0456,0.1160,-0.0048,-0.0053,0.0123,-40.8600,2.7600,-13.8600,
5.743997,-0.0306,0.0456,0.1160,-0.0037,-0.0016,0.0101,-40.8600,2.7600,-13.8600,
5.764532,-0.0306,0.0456,0.1160,-0.0053,-0.0048,0.0101,-40.8600,2.7600,-13.8600,
5.785738,-0.0306,0.0456,0.1160,0.0000,-0.0064,0.0128,-40.8600,2.7600,-13.8600,
5.798243,-0.0306,0.0456,0.1160,0.0000,-0.0064,0.0128,-40.8600,2.7600,-13.8600,
5.799056,-0.0197,0.0629,0.1026,0.0000,-0.0064,0.0128,-40.8600,2.7600,-13.8600,
5.802726,-0.0197,0.0629,0.1026,0.0000,-0.0064,0.0128,-40.3200,3.1800,-13.6200,
5.805813,-0.0197,0.0629,0.1026,0.0005,-0.0091,0.0133,-40.3200,3.1800,-13.6200,
5.827003,-0.0197,0.0629,0.1026,-0.0037,-0.0011,0.0107,-40.3200,3.1800,-13.6200,
5.847045,-0.0197,0.0629,0.1026,-0.0096,-0.0032,0.0096,-40.3200,3.1800,-13.6200,
5.860026,-0.0197,0.0629,0.1026,-0.0096,-0.0032,0.0096,-40.3200,3.1800,-13.6200,
5.861381,-0.0089,0.0531,0.0869,-0.0096,-0.0032,0.0096,-40.3200,3.1800,-13.6200,
5.863995,-0.0089,0.0531,0.0869,-0.0096,-0.0032,0.0096,-40.2600,3.2400,-13.6800,
5.867131,-0.0089,0.0531,0.0869,-0.0085,0.0011,0.0107,-40.2600,3.2400,-13.6800,
5.888342,-0.0089,0.0531,0.0869,-0.0043,0.0005,0.0112,-40.2600,3.2400,-13.6800,
5.907674,-0.0089,0.0531,0.0869,-0.0037,-0.0005,0.0101,-40.2600,3.2400,-13.6800,
5.920867,-0.0089,0.0531,0.0869,-0.0037,-0.0005,0.0101,-40.2600,3.2400,-13.6800,
5.921645,0.0039,0.0450,0.0630,-0.0037,-0.0005,0.0101,-40.2600,3.2400,-13.6800,
5.924721,0.0039,0.0450,0.0630,-0.0037,-0.0005,0.0101,-40.1400,3.3600,-13.6200,
5.928351,0.0039,0.0450,0.0630,-0.0032,0.0005,0.0101,-40.1400,3.3600,-13.6200,
5.949798,0.0039,0.0450,0.0630,0.0000,0.0037,0.0117,-40.1400,3.3600,-13.6200,
5.970161,0.0039,0.0450,0.0630,0.0021,0.0075,0.0128,-40.1400,3.3600,-13.6200,
5.982738,0.0039,0.0450,0.0630,0.0021,0.0075,0.0128,-40.1400,3.3600,-13.6200,
5.983188,-0.0240,0.0637,0.1570,0.0021,0.0075,0.0128,-40.1400,3.3600,-13.6200,
5.986616,-0.0240,0.0637,0.1570,0.0021,0.0075,0.0128,-40.0200,3.1800,-13.5600,
5.990237,-0.0240,0.0637,0.1570,0.0069,0.0069,0.0133,-40.0200,3.1800,-13.5600,
6.011283,-0.0240,0.0637,0.1570,0.0085,0.0091,0.0112,-40.0200,3.1800,-13.5600,
6.031519,-0.0240,0.0637,0.1570,-0.0091,0.0000,0.0085,-40.0200,3.1800,-13.5600,
6.043840,-0.0240,0.0637,0.1570,-0.0091,0.0000,0.0085,-40.0200,3.1800,-13.5600,
6.044924,-0.0371,0.0554,0.1192,-0.0091,0.0000,0.0085,-40.0200,3.1800,-13.5600,
6.048169,-0.0371,0.0554,0.1192,-0.0091,0.0000,0.0085,-40.0800,3.2400,-13.4400,
6.052584,-0.0371,0.0554,0.1192,-0.0197,0.0059,0.0064,-40.0800,3.2400,-13.4400,
6.072627,-0.0371,0.0554,0.1192,-0.0218,-0.0011,0.0053,-40.0800,3.2400,-13.4400,
6.093023,-0.0371,0.0554,0.1192,-0.0224,0.0128,0.0043,-40.0800,3.2400,-13.4400,
6.105874,-0.0371,0.0554,0.1192,-0.0224,0.0128,0.0043,-40.0800,3.2400,-13.4400,
6.106828,-0.0735,0.0583,0.1417,-0.0224,0.0128,0.0043,-40.0800,3.2400,-13.4400,
6.110485,-0.0735,0.0583,0.1417,-0.0224,0.0128,0.0043,-40.3800,3.0000,-13.2000,
6.113707,-0.0735,0.0583,0.1417,-0.0405,0.0383,-0.0037,-40.3800,3.0000,-13.2000,
6.133989,-0.0735,0.0583,0.1417,-0.0447,0.0474,-0.0075,-40.3800,3.0000,-13.2000,
6.154606,-0.0735,0.0583,0.1417,-0.0618,0.0570,-0.0144,-40.3800,3.0000,-13.2000,
6.167259,-0.0735,0.0583,0.1417,-0.0618,0.0570,-0.0144,-40.3800,3.0000,-13.2000,
6.167812,-0.0212,0.0814,0.0898,-0.0618,0.0570,-0.0144,-40.3800,3.0000,-13.2000,
6.171609,-0.0212,0.0814,0.0898,-0.0618,0.0570,-0.0144,-40.2600,3.0000,-12.7200,
6.174668,-0.0212,0.0814,0.0898,-0.0735,0.0778,-0.0128,-40.2600,3.0000,-12.7200,
6.195569,-0.0212,0.0814,0.0898,-0.0501,0.0863,-0.0123,-40.2600,3.0000,-12.7200,
6.216439,-0.0212,0.0814,0.0898,-0.0282,0.1039,-0.0107,-40.2600,3.0000,-12.7200,
6.228481,-0.0212,0.0814,0.0898,-0.0282,0.1039,-0.0107,-40.2600,3.0000,-12.7200,
6.228872,0.0024,0.1961,0.0036,-0.0282,0.1039,-0.0107,-40.2600,3.0000,-12.7200,
6.233369,0.0024,0.1961,0.0036,-0.0282,0.1039,-0.0107,-40.1400,2.8800,-12.6000,
6.236610,0.0024,0.1961,0.0036,-0.0298,0.1294,-0.0053,-40.1400,2.8800,-12.6000,
6.257358,0.0024,0.1961,0.0036,-0.0655,0.1683,-0.0112,-40.1400,2.8800,-12.6000,
6.277806,0.0024,0.1961,0.0036,-0.1049,0.1800,-0.0091,-40.1400,2.8800,-12.6000,
6.291009,0.0024,0.1961,0.0036,-0.1049,0.1800,-0.0091,-40.1400,2.8800,-12.6000,
6.292033,0.0510,0.0764,0.2283,-0.1049,0.1800,-0.0091,-40.1400,2.8800,-12.6000,
6.294482,0.0510,0.0764,0.2283,-0.1049,0.1800,-0.0091,-40.4400,2.9400,-13.1400,
6.298191,0.0510,0.0764,0.2283,-0.1001,0.1481,-0.0011,-40.4400,2.9400,-13.1400,
6.319115,0.0510,0.0764,0.2283,-0.1182,0.0772,0.0005,-40.4400,2.9400,-13.1400,
6.338570,0.0510,0.0764,0.2283,-0.1758,0.0549,-0.0048,-40.4400,2.9400,-13.1400,
6.355461,0.0510,0.0764,0.2283,-0.1758,0.0549,-0.0048,-40.4400,2.9400,-13.1400,
6.355985,-0.0558,0.0654,0.3529,-0.1758,0.0549,-0.0048,-40.4400,2.9400,-13.1400,
6.356335,-0.0558,0.0654,0.3529,-0.1758,0.0549,-0.0048,-40.5000,3.0600,-13.7400,
6.359572,-0.0558,0.0654,0.3529,-0.2162,0.0298,-0.0107,-40.5000,3.0600,-13.7400,
6.379957,-0.0558,0.0654,0.3529,-0.2535,0.0192,-0.0160,-40.5000,3.0600,-13.7400,
6.400830,-0.0558,0.0654,0.3529,-0.2674,-0.0133,-0.0245,-40.5000,3.0600,-13.7400,
6.414057,-0.0558,0.0654,0.3529,-0.2674,-0.0133,-0.0245,-40.5000,3.0600,-13.7400,
6.414541,0.0359,0.0456,0.1869,-0.2674,-0.0133,-0.0245,-40.5000,3.0600,-13.7400,
6.418837,0.0359,0.0456,0.1869,-0.2674,-0.0133,-0.0245,-40.4400,3.0600,-14.4000,
6.421157,0.0359,0.0456,0.1869,-0.2935,-0.0352,-0.0325,-40.4400,3.0600,-14.4000,
6.441825,0.0359,0.0456,0.1869,-0.3079,-0.0724,-0.0431,-40.4400,3.0600,-14.4000,
6.462627,0.0359,0.0456,0.1869,-0.2754,-0.1150,-0.0495,-40.4400,3.0600,-14.4000,
6.474836,0.0359,0.0456,0.1869,-0.2754,-0.1150,-0.0495,-40.4400,3.0600,-14.4000,
6.475589,-0.0622,0.0288,0.0554,-0.2754,-0.1150,-0.0495,-40.4400,3.0600,-14.4000,
6.479222,-0.0622,0.0288,0.0554,-0.2754,-0.1150,-0.0495,-40.4400,3.6600,-15.3600,
6.482501,-0.0622,0.0288,0.0554,-0.1992,-0.1017,-0.0346,-40.4400,3.6600,-15.3600,
6.503273,-0.0622,0.0288,0.0554,-0.1422,-0.0309,-0.0250,-40.4400,3.6600,-15.3600,
6.523717,-0.0622,0.0288,0.0554,-0.1518,0.0442,-0.0320,-40.4400,3.6600,-15.3600,
6.536703,-0.0622,0.0288,0.0554,-0.1518,0.0442,-0.0320,-40.4400,3.6600,-15.3600,
6.537400,0.0303,0.0012,0.3418,-0.1518,0.0442,-0.0320,-40.4400,3.6600,-15.3600,
6.540488,0.0303,0.0012,0.3418,-0.1518,0.0442,-0.0320,-40.7400,3.3600,-15.1800,
6.544192,0.0303,0.0012,0.3418,-0.2221,0.0431,-0.0575,-40.7400,3.3600,-15.1800,
6.565501,0.0303,0.0012,0.3418,-0.1795,-0.0474,-0.0788,-40.7400,3.3600,-15.1800,
6.577359,0.0303,0.0012,0.3418,-0.1795,-0.0474,-0.0788,-40.7400,3.3600,-15.1800,
6.578084,-0.2512,0.1339,-0.0048,-0.1795,-0.0474,-0.0788,-40.7400,3.3600,-15.1800,
6.585426,-0.2512,0.1339,-0.0048,-0.1007,-0.0149,-0.0666,-40.7400,3.3600,-15.1800,
6.598065,-0.2512,0.1339,-0.0048,-0.1007,-0.0149,-0.0666,-40.7400,3.3600,-15.1800,
6.598631,-0.1525,-0.0227,-0.0845,-0.1007,-0.0149,-0.0666,-40.7400,3.3600,-15.1800,
6.602347,-0.1525,-0.0227,-0.0845,-0.1007,-0.0149,-0.0666,-40.9200,3.3600,-15.4200,
6.605938,-0.1525,-0.0227,-0.0845,-0.0767,0.0336,-0.0618,-40.9200,3.3600,-15.4200,
6.619274,-0.1525,-0.0227,-0.0845,-0.0767,0.0336,-0.0618,-40.9200,3.3600,-15.4200,
6.620271,-0.0049,-0.1206,-0.0349,-0.0767,0.0336,-0.0618,-40.9200,3.3600,-15.4200,
6.626636,-0.0049,-0.1206,-0.0349,-0.0325,0.0799,-0.0650,-40.9200,3.3600,-15.4200,
6.639055,-0.0049,-0.1206,-0.0349,-0.0325,0.0799,-0.0650,-40.9200,3.3600,-15.4200,
6.640035,0.0811,-0.0933,-0.0265,-0.0325,0.0799,-0.0650,-40.9200,3.3600,-15.4200,
6.647059,0.0811,-0.0933,-0.0265,-0.0192,0.0975,-0.0735,-40.9200,3.3600,-15.4200,
6.659491,0.0811,-0.0933,-0.0265,-0.0192,0.0975,-0.0735,-40.9200,3.3600,-15.4200,
6.660240,0.0344,0.0062,-0.1515,-0.0192,0.0975,-0.0735,-40.9200,3.3600,-15.4200,
6.663594,0.0344,0.0062,-0.1515,-0.0192,0.0975,-0.0735,-40.8600,3.7800,-15.7200,
6.667054,0.0344,0.0062,-0.1515,0.0027,0.1177,-0.0719,-40.8600,3.7800,-15.7200,
6.680699,0.0344,0.0062,-0.1515,0.0027,0.1177,-0.0719,-40.8600,3.7800,-15.7200,
6.681568,-0.1351,0.1587,0.0736,0.0027,0.1177,-0.0719,-40.8600,3.7800,-15.7200,
6.688244,-0.1351,0.1587,0.0736,0.0575,0.1342,-0.0463,-40.8600,3.7800,-15.7200,
6.702026,-0.1351,0.1587,0.0736,0.0575,0.1342,-0.0463,-40.8600,3.7800,-15.7200,
6.702543,-0.0800,0.0476,0.2217,0.0575,0.1342,-0.0463,-40.8600,3.7800,-15.7200,
6.708567,-0.0800,0.0476,0.2217,0.0911,0.1076,-0.0415,-40.8600,3.7800,-15.7200,
6.721883,-0.0800,0.0476,0.2217,0.0911,0.1076,-0.0415,-40.8600,3.7800,-15.7200,
6.722833,-0.0136,0.1292,0.3086,0.0911,0.1076,-0.0415,-40.8600,3.7800,-15.7200,
6.725981,-0.0136,0.1292,0.3086,0.0911,0.1076,-0.0415,-40.8000,3.9000,-15.0600,
6.729424,-0.0136,0.1292,0.3086,0.1214,0.0549,-0.0421,-40.8000,3.9000,-15.0600,
6.741628,-0.0136,0.1292,0.3086,0.1214,0.0549,-0.0421,-40.8000,3.9000,-15.0600,
6.742070,-0.0031,-0.0109,0.4830,0.1214,0.0549,-0.0421,-40.8000,3.9000,-15.0600,
6.749255,-0.0031,-0.0109,0.4830,0.1220,-0.0138,-0.0522,-40.8000,3.9000,-15.0600,
6.762404,-0.0031,-0.0109,0.4830,0.1220,-0.0138,-0.0522,-40.8000,3.9000,-15.0600,
6.763070,-0.0899,0.0014,0.8421,0.1220,-0.0138,-0.0522,-40.8000,3.9000,-15.0600,
6.770396,-0.0899,0.0014,0.8421,0.1369,-0.1651,-0.0629,-40.8000,3.9000,-15.0600,
6.783139,-0.0899,0.0014,0.8421,0.1369,-0.1651,-0.0629,-40.8000,3.9000,-15.0600,
6.783702,-0.0910,0.0515,0.4056,0.1369,-0.1651,-0.0629,-40.8000,3.9000,-15.0600,
6.787043,-0.0910,0.0515,0.4056,0.1369,-0.1651,-0.0629,-40.2600,4.3200,-15.1200,
6.790779,-0.0910,0.0515,0.4056,0.1481,-0.2818,-0.0607,-40.2600,4.3200,-15.1200,
6.803315,-0.0910,0.0515,0.4056,0.1481,-0.2818,-0.0607,-40.2600,4.3200,-15.1200,
6.803811,-0.0280,0.3877,-0.1671,0.1481,-0.2818,-0.0607,-40.2600,4.3200,-15.1200,
6.811652,-0.0280,0.3877,-0.1671,0.1459,-0.3079,-0.0357,-40.2600,4.3200,-15.1200,
6.824461,-0.0280,0.3877,-0.1671,0.1459,-0.3079,-0.0357,-40.2600,4.3200,-15.1200,
6.825259,0.0366,0.4081,0.3439,0.1459,-0.3079,-0.0357,-40.2600,4.3200,-15.1200,
6.831735,0.0366,0.4081,0.3439,0.1534,-0.3766,0.0123,-40.2600,4.3200,-15.1200,
6.845035,0.0366,0.4081,0.3439,0.1534,-0.3766,0.0123,-40.2600,4.3200,-15.1200,
6.845837,0.0101,0.0656,-0.0413,0.1534,-0.3766,0.0123,-40.2600,4.3200,-15.1200,
6.849056,0.0101,0.0656,-0.0413,0.1534,-0.3766,0.0123,-40.3200,4.5000,-14.5200,
6.853454,0.0101,0.0656,-0.0413,0.1225,-0.4346,0.0405,-40.3200,4.5000,-14.5200,
6.865726,0.0101,0.0656,-0.0413,0.1225,-0.4346,0.0405,-40.3200,4.5000,-14.5200,
6.866302,-0.0874,0.0084,-0.0699,0.1225,-0.4346,0.0405,-40.3200,4.5000,-14.5200,
6.873444,-0.0874,0.0084,-0.0699,0.0943,-0.4490,0.0623,-40.3200,4.5000,-14.5200,
6.886562,-0.0874,0.0084,-0.0699,0.0943,-0.4490,0.0623,-40.3200,4.5000,-14.5200,
6.887576,-0.1902,-0.0087,0.1102,0.0943,-0.4490,0.0623,-40.3200,4.5000,-14.5200,
6.894294,-0.1902,-0.0087,0.1102,0.0639,-0.4703,0.0714,-40.3200,4.5000,-14.5200,
6.906626,-0.1902,-0.0087,0.1102,0.0639,-0.4703,0.0714,-40.3200,4.5000,-14.5200,
6.907702,-0.2880,0.0965,0.5124,0.0639,-0.4703,0.0714,-40.3200,4.5000,-14.5200,
6.910394,-0.2880,0.0965,0.5124,0.0639,-0.4703,0.0714,-41.1600,4.1400,-13.6800,
6.913345,-0.2880,0.0965,0.5124,0.0517,-0.5507,0.0730,-41.1600,4.1400,-13.6800,
6.926627,-0.2880,0.0965,0.5124,0.0517,-0.5507,0.0730,-41.1600,4.1400,-13.6800,
6.927098,-0.1860,-0.0298,0.1659,0.0517,-0.5507,0.0730,-41.1600,4.1400,-13.6800,
6.934921,-0.1860,-0.0298,0.1659,0.0597,-0.5784,0.0676,-41.1600,4.1400,-13.6800,
6.947508,-0.1860,-0.0298,0.1659,0.0597,-0.5784,0.0676,-41.1600,4.1400,-13.6800,
6.948079,-0.1709,-0.1093,-0.3804,0.0597,-0.5784,0.0676,-41.1600,4.1400,-13.6800,
6.955332,-0.1709,-0.1093,-0.3804,0.0687,-0.4629,0.0597,-41.1600,4.1400,-13.6800,
6.973061,-0.1709,-0.1093,-0.3804,0.0687,-0.4629,0.0597,-41.1600,4.1400,-13.6800,
6.973932,-0.2901,-0.1493,-0.7114,0.0687,-0.4629,0.0597,-41.1600,4.1400,-13.6800,
6.974583,-0.2901,-0.1493,-0.7114,0.0687,-0.4629,0.0597,-41.9400,3.6000,-13.3200,
6.977213,-0.2901,-0.1493,-0.7114,0.0703,-0.2775,0.0501,-41.9400,3.6000,-13.3200,
6.988299,-0.2901,-0.1493,-0.7114,0.0703,-0.2775,0.0501,-41.9400,3.6000,-13.3200,
6.989225,-0.2640,-0.1060,0.0054,0.0703,-0.2775,0.0501,-41.9400,3.6000,-13.3200,
6.996027,-0.2640,-0.1060,0.0054,0.0980,-0.2493,0.0389,-41.9400,3.6000,-13.3200,
7.009654,-0.2640,-0.1060,0.0054,0.0980,-0.2493,0.0389,-41.9400,3.6000,-13.3200,
7.010389,-0.2789,-0.1708,-0.0374,0.0980,-0.2493,0.0389,-41.9400,3.6000,-13.3200,
7.016702,-0.2789,-0.1708,-0.0374,0.1225,-0.2269,0.0352,-41.9400,3.6000,-13.3200,
7.029525,-0.2789,-0.1708,-0.0374,0.1225,-0.2269,0.0352,-41.9400,3.6000,-13.3200,
7.030415,-0.2473,-0.1945,-0.2180,0.1225,-0.2269,0.0352,-41.9400,3.6000,-13.3200,
7.033449,-0.2473,-0.1945,-0.2180,0.1225,-0.2269,0.0352,-42.7200,3.3600,-12.3000,
7.037825,-0.2473,-0.1945,-0.2180,0.1358,-0.1470,0.0288,-42.7200,3.3600,-12.3000,
7.049518,-0.2473,-0.1945,-0.2180,0.1358,-0.1470,0.0288,-42.7200,3.3600,-12.3000,
7.049846,-0.1866,-0.2682,-0.1254,0.1358,-0.1470,0.0288,-42.7200,3.3600,-12.3000,
7.057633,-0.1866,-0.2682,-0.1254,0.1529,-0.0943,0.0181,-42.7200,3.3600,-12.3000,
7.070287,-0.1866,-0.2682,-0.1254,0.1529,-0.0943,0.0181,-42.7200,3.3600,-12.3000,
7.070944,-0.1385,-0.3050,-0.2255,0.1529,-0.0943,0.0181,-42.7200,3.3600,-12.3000,
7.077568,-0.1385,-0.3050,-0.2255,0.1662,-0.0192,-0.0075,-42.7200,3.3600,-12.3000,
7.090580,-0.1385,-0.3050,-0.2255,0.1662,-0.0192,-0.0075,-42.7200,3.3600,-12.3000,
7.091109,-0.1604,-0.3156,-0.2166,0.1662,-0.0192,-0.0075,-42.7200,3.3600,-12.3000,
7.095038,-0.1604,-0.3156,-0.2166,0.1662,-0.0192,-0.0075,-42.4200,3.6600,-11.2800,
7.098497,-0.1604,-0.3156,-0.2166,0.1912,0.0735,-0.0543,-42.4200,3.6600,-11.2800,
7.111418,-0.1604,-0.3156,-0.2166,0.1912,0.0735,-0.0543,-42.4200,3.6600,-11.2800,
7.111912,-0.0935,-0.1857,-0.1449,0.1912,0.0735,-0.0543,-42.4200,3.6600,-11.2800,
7.119213,-0.0935,-0.1857,-0.1449,0.2280,0.1166,-0.0746,-42.4200,3.6600,-11.2800,
7.132106,-0.0935,-0.1857,-0.1449,0.2280,0.1166,-0.0746,-42.4200,3.6600,-11.2800,
7.132482,-0.0402,0.0290,-0.0821,0.2280,0.1166,-0.0746,-42.4200,3.6600,-11.2800,
7.139652,-0.0402,0.0290,-0.0821,0.2605,0.1507,-0.0538,-42.4200,3.6600,-11.2800,
7.152140,-0.0402,0.0290,-0.0821,0.2605,0.1507,-0.0538,-42.4200,3.6600,-11.2800,
7.152660,-0.0561,0.0744,-0.0796,0.2605,0.1507,-0.0538,-42.4200,3.6600,-11.2800,
7.156499,-0.0561,0.0744,-0.0796,0.2605,0.1507,-0.0538,-42.7800,3.6600,-10.2600,
7.159816,-0.0561,0.0744,-0.0796,0.2924,0.2061,-0.0085,-42.7800,3.6600,-10.2600,
7.172725,-0.0561,0.0744,-0.0796,0.2924,0.2061,-0.0085,-42.7800,3.6600,-10.2600,
7.173185,-0.1034,0.0101,0.0716,0.2924,0.2061,-0.0085,-42.7800,3.6600,-10.2600,
7.180978,-0.1034,0.0101,0.0716,0.3356,0.2312,0.0128,-42.7800,3.6600,-10.2600,
7.193632,-0.1034,0.0101,0.0716,0.3356,0.2312,0.0128,-42.7800,3.6600,-10.2600,
7.194121,-0.0727,-0.0324,-0.1959,0.3356,0.2312,0.0128,-42.7800,3.6600,-10.2600,
7.201553,-0.0727,-0.0324,-0.1959,0.4085,0.2828,-0.0059,-42.7800,3.6600,-10.2600,
7.214601,-0.0727,-0.0324,-0.1959,0.4085,0.2828,-0.0059,-42.7800,3.6600,-10.2600,
7.214983,-0.0203,-0.0745,-0.4351,0.4085,0.2828,-0.0059,-42.7800,3.6600,-10.2600,
7.219001,-0.0203,-0.0745,-0.4351,0.4085,0.2828,-0.0059,-42.1800,4.0200,-10.2000,
7.222208,-0.0203,-0.0745,-0.4351,0.4858,0.3925,-0.0245,-42.1800,4.0200,-10.2000,
7.235687,-0.0203,-0.0745,-0.4351,0.4858,0.3925,-0.0245,-42.1800,4.0200,-10.2000,
7.236246,0.0468,-0.0162,-0.3399,0.4858,0.3925,-0.0245,-42.1800,4.0200,-10.2000,
7.242419,0.0468,-0.0162,-0.3399,0.6258,0.4623,-0.0048,-42.1800,4.0200,-10.2000,
7.255120,0.0468,-0.0162,-0.3399,0.6258,0.4623,-0.0048,-42.1800,4.0200,-10.2000,
7.255793,0.1422,-0.0150,-0.5493,0.6258,0.4623,-0.0048,-42.1800,4.0200,-10.2000,
7.263061,0.1422,-0.0150,-0.5493,0.7760,0.5486,0.0330,-42.1800,4.0200,-10.2000,
7.275475,0.1422,-0.0150,-0.5493,0.7760,0.5486,0.0330,-42.1800,4.0200,-10.2000,
7.275901,0.1570,0.0911,-0.6203,0.7760,0.5486,0.0330,-42.1800,4.0200,-10.2000,
7.279490,0.1570,0.0911,-0.6203,0.7760,0.5486,0.0330,-41.9400,3.5400,-10.9200,
7.283762,0.1570,0.0911,-0.6203,0.8943,0.6354,0.0692,-41.9400,3.5400,-10.9200,
7.296029,0.1570,0.0911,-0.6203,0.8943,0.6354,0.0692,-41.9400,3.5400,-10.9200,
7.296597,0.1417,-0.3008,-0.4794,0.8943,0.6354,0.0692,-41.9400,3.5400,-10.9200,
7.308271,0.1417,-0.3008,-0.4794,0.9907,0.6770,0.0325,-41.9400,3.5400,-10.9200,
7.316761,0.1417,-0.3008,-0.4794,0.9907,0.6770,0.0325,-41.9400,3.5400,-10.9200,
7.317219,0.0239,-0.4621,-0.4104,0.9907,0.6770,0.0325,-41.9400,3.5400,-10.9200,
7.324496,0.0239,-0.4621,-0.4104,1.0525,0.6077,0.0021,-41.9400,3.5400,-10.9200,
7.337610,0.0239,-0.4621,-0.4104,1.0525,0.6077,0.0021,-41.9400,3.5400,-10.9200,
7.338410,-0.2526,0.4715,-0.2533,1.0525,0.6077,0.0021,-41.9400,3.5400,-10.9200,
7.341856,-0.2526,0.4715,-0.2533,1.0525,0.6077,0.0021,-41.5800,2.7000,-11.2200,
7.345360,-0.2526,0.4715,-0.2533,1.1041,0.5454,0.0911,-41.5800,2.7000,-11.2200,
7.358175,-0.2526,0.4715,-0.2533,1.1041,0.5454,0.0911,-41.5800,2.7000,-11.2200,
7.359041,-0.0299,0.3631,0.0780,1.1041,0.5454,0.0911,-41.5800,2.7000,-11.2200,
7.365830,-0.0299,0.3631,0.0780,1.2128,0.5300,0.1390,-41.5800,2.7000,-11.2200,
7.378927,-0.0299,0.3631,0.0780,1.2128,0.5300,0.1390,-41.5800,2.7000,-11.2200,
7.379807,0.1498,-0.8210,-0.5469,1.2128,0.5300,0.1390,-41.5800,2.7000,-11.2200,
7.387380,0.1498,-0.8210,-0.5469,1.2187,0.5428,0.1481,-41.5800,2.7000,-11.2200,
7.399704,0.1498,-0.8210,-0.5469,1.2187,0.5428,0.1481,-41.5800,2.7000,-11.2200,
7.400466,0.5724,-1.0142,-0.5975,1.2187,0.5428,0.1481,-41.5800,2.7000,-11.2200,
7.403767,0.5724,-1.0142,-0.5975,1.2187,0.5428,0.1481,-40.9800,2.4600,-12.4800,
7.406686,0.5724,-1.0142,-0.5975,1.1175,0.4900,0.2088,-40.9800,2.4600,-12.4800,
7.419051,0.5724,-1.0142,-0.5975,1.1175,0.4900,0.2088,-40.9800,2.4600,-12.4800,
7.419519,0.5597,-0.4523,-0.3341,1.1175,0.4900,0.2088,-40.9800,2.4600,-12.4800,
7.427395,0.5597,-0.4523,-0.3341,1.0322,0.3169,0.3425,-40.9800,2.4600,-12.4800,
7.440446,0.5597,-0.4523,-0.3341,1.0322,0.3169,0.3425,-40.9800,2.4600,-12.4800,
7.441049,0.9644,-0.4274,-0.1053,1.0322,0.3169,0.3425,-40.9800,2.4600,-12.4800,
7.447836,0.9644,-0.4274,-0.1053,0.9193,0.0021,0.3744,-40.9800,2.4600,-12.4800,
7.461133,0.9644,-0.4274,-0.1053,0.9193,0.0021,0.3744,-40.9800,2.4600,-12.4800,
7.461915,1.0705,-0.5431,0.2144,0.9193,0.0021,0.3744,-40.9800,2.4600,-12.4800,
7.464797,1.0705,-0.5431,0.2144,0.9193,0.0021,0.3744,-40.8600,1.5600,-13.6200,
7.468594,1.0705,-0.5431,0.2144,0.8799,-0.3244,0.3457,-40.8600,1.5600,-13.6200,
7.481785,1.0705,-0.5431,0.2144,0.8799,-0.3244,0.3457,-40.8600,1.5600,-13.6200,
7.482422,1.3486,-0.6350,0.5323,0.8799,-0.3244,0.3457,-40.8600,1.5600,-13.6200,
7.488806,1.3486,-0.6350,0.5323,0.9225,-0.7393,0.2264,-40.8600,1.5600,-13.6200,
7.501751,1.3486,-0.6350,0.5323,0.9225,-0.7393,0.2264,-40.8600,1.5600,-13.6200,
7.502422,1.3558,-0.6942,0.7242,0.9225,-0.7393,0.2264,-40.8600,1.5600,-13.6200,
7.509952,1.3558,-0.6942,0.7242,0.9790,-1.1579,-0.0554,-40.8600,1.5600,-13.6200,
7.522696,1.3558,-0.6942,0.7242,0.9790,-1.1579,-0.0554,-40.8600,1.5600,-13.6200,
7.523748,0.9443,-0.6404,1.0101,0.9790,-1.1579,-0.0554,-40.8600,1.5600,-13.6200,
7.526242,0.9443,-0.6404,1.0101,0.9790,-1.1579,-0.0554,-40.6200,0.8400,-14.4000,
7.529737,0.9443,-0.6404,1.0101,1.0258,-1.4994,-0.3627,-40.6200,0.8400,-14.4000,
7.543561,0.9443,-0.6404,1.0101,1.0258,-1.4994,-0.3627,-40.6200,0.8400,-14.4000,
7.544808,0.5690,-0.8136,1.6540,1.0258,-1.4994,-0.3627,-40.6200,0.8400,-14.4000,
7.551248,0.5690,-0.8136,1.6540,1.3018,-1.6932,-0.6274,-40.6200,0.8400,-14.4000,
7.563554,0.5690,-0.8136,1.6540,1.3018,-1.6932,-0.6274,-40.6200,0.8400,-14.4000,
7.564058,0.3195,-1.8200,2.1473,1.3018,-1.6932,-0.6274,-40.6200,0.8400,-14.4000,
7.571797,0.3195,-1.8200,2.1473,1.8882,-1.0354,-0.8453,-40.6200,0.8400,-14.4000,
7.584771,0.3195,-1.8200,2.1473,1.8882,-1.0354,-0.8453,-40.6200,0.8400,-14.4000,
7.585445,-0.4284,-2.4120,2.7239,1.8882,-1.0354,-0.8453,-40.6200,0.8400,-14.4000,
7.588629,-0.4284,-2.4120,2.7239,1.8882,-1.0354,-0.8453,-40.7400,0.0600,-15.3000,
7.591934,-0.4284,-2.4120,2.7239,2.5668,0.1433,-0.6131,-40.7400,0.0600,-15.3000,
7.604859,-0.4284,-2.4120,2.7239,2.5668,0.1433,-0.6131,-40.7400,0.0600,-15.3000,
7.605809,-0.5826,-2.6850,-0.7239,2.5668,0.1433,-0.6131,-40.7400,0.0600,-15.3000,
7.612425,-0.5826,-2.6850,-0.7239,2.4650,1.4919,-0.2354,-40.7400,0.0600,-15.3000,
7.626502,-0.5826,-2.6850,-0.7239,2.4650,1.4919,-0.2354,-40.7400,0.0600,-15.3000,
7.627280,-0.8527,-2.2028,-4.2637,2.4650,1.4919,-0.2354,-40.7400,0.0600,-15.3000,
7.632726,-0.8527,-2.2028,-4.2637,1.5079,2.3942,0.1827,-40.7400,0.0600,-15.3000,
7.646509,-0.8527,-2.2028,-4.2637,1.5079,2.3942,0.1827,-40.7400,0.0600,-15.3000,
7.647361,-1.2511,-1.5289,-4.2429,1.5079,2.3942,0.1827,-40.7400,0.0600,-15.3000,
7.649484,-1.2511,-1.5289,-4.2429,1.5079,2.3942,0.1827,-40.9200,-0.8400,-14.4600,
7.653399,-1.2511,-1.5289,-4.2429,0.5097,2.8443,0.7691,-40.9200,-0.8400,-14.4600,
7.665913,-1.2511,-1.5289,-4.2429,0.5097,2.8443,0.7691,-40.9200,-0.8400,-14.4600,
7.666404,-1.9807,-0.7867,-1.3722,0.5097,2.8443,0.7691,-40.9200,-0.8400,-14.4600,
7.673814,-1.9807,-0.7867,-1.3722,0.2365,2.5843,1.4168,-40.9200,-0.8400,-14.4600,
7.686603,-1.9807,-0.7867,-1.3722,0.2365,2.5843,1.4168,-40.9200,-0.8400,-14.4600,
7.687393,-2.4211,-0.5228,-0.4610,0.2365,2.5843,1.4168,-40.9200,-0.8400,-14.4600,
7.695055,-2.4211,-0.5228,-0.4610,0.2679,2.3345,1.9750,-40.9200,-0.8400,-14.4600,
7.707152,-2.4211,-0.5228,-0.4610,0.2679,2.3345,1.9750,-40.9200,-0.8400,-14.4600,
7.707930,-1.5130,-0.7274,-0.5114,0.2679,2.3345,1.9750,-40.9200,-0.8400,-14.4600,
7.711959,-1.5130,-0.7274,-0.5114,0.2679,2.3345,1.9750,-41.2800,-2.6400,-14.2200,
7.714845,-1.5130,-0.7274,-0.5114,0.4740,2.4267,2.2632,-41.2800,-2.6400,-14.2200,
7.728816,-1.5130,-0.7274,-0.5114,0.4740,2.4267,2.2632,-41.2800,-2.6400,-14.2200,
7.729922,0.0606,-0.8480,-1.0073,0.4740,2.4267,2.2632,-41.2800,-2.6400,-14.2200,
7.736018,0.0606,-0.8480,-1.0073,0.5412,2.4789,2.3457,-41.2800,-2.6400,-14.2200,
7.748964,0.0606,-0.8480,-1.0073,0.5412,2.4789,2.3457,-41.2800,-2.6400,-14.2200,
7.749527,1.3137,-0.7486,-1.8698,0.5412,2.4789,2.3457,-41.2800,-2.6400,-14.2200,
7.755781,1.3137,-0.7486,-1.8698,0.2450,2.0235,2.3665,-41.2800,-2.6400,-14.2200,
7.769011,1.3137,-0.7486,-1.8698,0.2450,2.0235,2.3665,-41.2800,-2.6400,-14.2200,
7.769689,2.5831,-0.2800,-1.5796,0.2450,2.0235,2.3665,-41.2800,-2.6400,-14.2200,
7.773811,2.5831,-0.2800,-1.5796,0.2450,2.0235,2.3665,-40.8000,-3.0600,-15.4800,
7.776756,2.5831,-0.2800,-1.5796,-0.2003,1.4631,2.1694,-40.8000,-3.0600,-15.4800,
7.789343,2.5831,-0.2800,-1.5796,-0.2003,1.4631,2.1694,-40.8000,-3.0600,-15.4800,
7.790057,3.4051,0.7363,-0.8948,-0.2003,1.4631,2.1694,-40.8000,-3.0600,-15.4800,
7.797672,3.4051,0.7363,-0.8948,-0.4607,1.1201,1.8413,-40.8000,-3.0600,-15.4800,
7.810083,3.4051,0.7363,-0.8948,-0.4607,1.1201,1.8413,-40.8000,-3.0600,-15.4800,
7.811002,4.7912,0.7950,0.9938,-0.4607,1.1201,1.8413,-40.8000,-3.0600,-15.4800,
7.819438,4.7912,0.7950,0.9938,-0.2093,0.6525,1.4557,-40.8000,-3.0600,-15.4800,
7.830688,4.7912,0.7950,0.9938,-0.2093,0.6525,1.4557,-40.8000,-3.0600,-15.4800,
7.831398,5.3330,1.1105,2.9432,-0.2093,0.6525,1.4557,-40.8000,-3.0600,-15.4800,
7.835498,5.3330,1.1105,2.9432,-0.2093,0.6525,1.4557,-39.8400,-1.6800,-18.3600,
7.838314,5.3330,1.1105,2.9432,0.3862,-0.0096,1.0717,-39.8400,-1.6800,-18.3600,
7.852811,5.3330,1.1105,2.9432,0.3862,-0.0096,1.0717,-39.8400,-1.6800,-18.3600,
7.853837,5.2067,1.5514,3.6423,0.3862,-0.0096,1.0717,-39.8400,-1.6800,-18.3600,
7.858809,5.2067,1.5514,3.6423,0.8746,-0.7222,0.5087,-39.8400,-1.6800,-18.3600,
7.872187,5.2067,1.5514,3.6423,0.8746,-0.7222,0.5087,-39.8400,-1.6800,-18.3600,
7.873288,3.8254,1.9817,3.6735,0.8746,-0.7222,0.5087,-39.8400,-1.6800,-18.3600,
7.880228,3.8254,1.9817,3.6735,1.0834,-0.9326,0.0511,-39.8400,-1.6800,-18.3600,
7.892251,3.8254,1.9817,3.6735,1.0834,-0.9326,0.0511,-39.8400,-1.6800,-18.3600,
7.893383,2.4396,2.6343,3.1656,1.0834,-0.9326,0.0511,-39.8400,-1.6800,-18.3600,
7.896337,2.4396,2.6343,3.1656,1.0834,-0.9326,0.0511,-37.8600,1.2000,-22.1400,
7.899632,2.4396,2.6343,3.1656,1.1084,-0.5353,-0.2898,-37.8600,1.2000,-22.1400,
7.912822,2.4396,2.6343,3.1656,1.1084,-0.5353,-0.2898,-37.8600,1.2000,-22.1400,
7.913971,1.0600,3.1253,2.6393,1.1084,-0.5353,-0.2898,-37.8600,1.2000,-22.1400,
7.920821,1.0600,3.1253,2.6393,0.9060,-0.1198,-0.4730,-37.8600,1.2000,-22.1400,
7.933498,1.0600,3.1253,2.6393,0.9060,-0.1198,-0.4730,-37.8600,1.2000,-22.1400,
7.934592,0.5832,2.9193,1.8050,0.9060,-0.1198,-0.4730,-37.8600,1.2000,-22.1400,
7.943156,0.5832,2.9193,1.8050,0.5928,0.0186,-0.5944,-37.8600,1.2000,-22.1400,
7.953754,0.5832,2.9193,1.8050,0.5928,0.0186,-0.5944,-37.8600,1.2000,-22.1400,
7.954737,0.0201,2.5204,1.4007,0.5928,0.0186,-0.5944,-37.8600,1.2000,-22.1400,
7.958214,0.0201,2.5204,1.4007,0.5928,0.0186,-0.5944,-36.6600,4.3800,-24.7800,
7.961805,0.0201,2.5204,1.4007,0.3430,0.1438,-0.6972,-36.6600,4.3800,-24.7800,
7.974171,0.0201,2.5204,1.4007,0.3430,0.1438,-0.6972,-36.6600,4.3800,-24.7800,
7.975020,-0.5669,2.0091,1.5947,0.3430,0.1438,-0.6972,-36.6600,4.3800,-24.7800,
7.981783,-0.5669,2.0091,1.5947,0.3569,0.3196,-0.7398,-36.6600,4.3800,-24.7800,
7.994913,-0.5669,2.0091,1.5947,0.3569,0.3196,-0.7398,-36.6600,4.3800,-24.7800,
7.995860,-0.9858,0.8517,1.8248,0.3569,0.3196,-0.7398,-36.6600,4.3800,-24.7800,
8.002680,-0.9858,0.8517,1.8248,0.6152,0.2658,-0.7175,-36.6600,4.3800,-24.7800,
8.015666,-0.9858,0.8517,1.8248,0.6152,0.2658,-0.7175,-36.6600,4.3800,-24.7800,
8.016257,-0.9499,-0.5376,1.2358,0.6152,0.2658,-0.7175,-36.6600,4.3800,-24.7800,
8.020839,-0.9499,-0.5376,1.2358,0.6152,0.2658,-0.7175,-35.3400,6.6600,-25.9200,
8.023812,-0.9499,-0.5376,1.2358,0.8043,0.0948,-0.7643,-35.3400,6.6600,-25.9200,
8.036480,-0.9499,-0.5376,1.2358,0.8043,0.0948,-0.7643,-35.3400,6.6600,-25.9200,
8.037196,-1.7306,-1.8303,0.0451,0.8043,0.0948,-0.7643,-35.3400,6.6600,-25.9200,
8.044609,-1.7306,-1.8303,0.0451,0.7425,-0.0133,-0.7238,-35.3400,6.6600,-25.9200,
8.056783,-1.7306,-1.8303,0.0451,0.7425,-0.0133,-0.7238,-35.3400,6.6600,-25.9200,
8.057627,-3.0787,-2.4059,-0.3099,0.7425,-0.0133,-0.7238,-35.3400,6.6600,-25.9200,
8.063740,-3.0787,-2.4059,-0.3099,0.6732,0.4831,-0.4975,-35.3400,6.6600,-25.9200,
8.077273,-3.0787,-2.4059,-0.3099,0.6732,0.4831,-0.4975,-35.3400,6.6600,-25.9200,
8.078189,-5.7369,-2.0392,1.4305,0.6732,0.4831,-0.4975,-35.3400,6.6600,-25.9200,
8.081546,-5.7369,-2.0392,1.4305,0.6732,0.4831,-0.4975,-34.9200,6.1800,-25.6800,
8.085407,-5.7369,-2.0392,1.4305,0.8400,0.6008,0.0836,-34.9200,6.1800,-25.6800,
8.098535,-5.7369,-2.0392,1.4305,0.8400,0.6008,0.0836,-34.9200,6.1800,-25.6800,
8.099328,-5.8121,-2.5401,2.4547,0.8400,0.6008,0.0836,-34.9200,6.1800,-25.6800,
8.106292,-5.8121,-2.5401,2.4547,1.0221,0.8352,0.5923,-34.9200,6.1800,-25.6800,
8.119643,-5.8121,-2.5401,2.4547,1.0221,0.8352,0.5923,-34.9200,6.1800,-25.6800,
8.120847,-3.6759,-2.1966,1.4944,1.0221,0.8352,0.5923,-34.9200,6.1800,-25.6800,
8.126918,-3.6759,-2.1966,1.4944,0.8927,0.8719,0.4559,-34.9200,6.1800,-25.6800,
8.138935,-3.6759,-2.1966,1.4944,0.8927,0.8719,0.4559,-34.9200,6.1800,-25.6800,
8.139413,-2.0210,-0.9017,2.2488,0.8927,0.8719,0.4559,-34.9200,6.1800,-25.6800,
8.142214,-2.0210,-0.9017,2.2488,0.8927,0.8719,0.4559,-34.9200,4.1400,-25.8000,
8.145879,-2.0210,-0.9017,2.2488,0.6498,0.0266,0.0085,-34.9200,4.1400,-25.8000,
8.159083,-2.0210,-0.9017,2.2488,0.6498,0.0266,0.0085,-34.9200,4.1400,-25.8000,
8.160149,-0.7048,-0.3450,2.1720,0.6498,0.0266,0.0085,-34.9200,4.1400,-25.8000,
8.167456,-0.7048,-0.3450,2.1720,0.2477,-0.8916,-0.3867,-34.9200,4.1400,-25.8000,
8.179970,-0.7048,-0.3450,2.1720,0.2477,-0.8916,-0.3867,-34.9200,4.1400,-25.8000,
8.180881,-0.4888,0.2307,1.1357,0.2477,-0.8916,-0.3867,-34.9200,4.1400,-25.8000,
8.187569,-0.4888,0.2307,1.1357,-0.1358,-0.6136,-0.4874,-34.9200,4.1400,-25.8000,
8.201005,-0.4888,0.2307,1.1357,-0.1358,-0.6136,-0.4874,-34.9200,4.1400,-25.8000,
8.201654,-0.6412,1.3358,0.8348,-0.1358,-0.6136,-0.4874,-34.9200,4.1400,-25.8000,
8.205572,-0.6412,1.3358,0.8348,-0.1358,-0.6136,-0.4874,-33.9600,2.5200,-26.7600,
8.208313,-0.6412,1.3358,0.8348,-0.2637,0.2296,-0.2301,-33.9600,2.5200,-26.7600,
8.221517,-0.6412,1.3358,0.8348,-0.2637,0.2296,-0.2301,-33.9600,2.5200,-26.7600,
8.222516,0.5709,1.5956,0.0412,-0.2637,0.2296,-0.2301,-33.9600,2.5200,-26.7600,
8.228893,0.5709,1.5956,0.0412,-0.0245,1.1638,0.2567,-33.9600,2.5200,-26.7600,
8.242442,0.5709,1.5956,0.0412,-0.0245,1.1638,0.2567,-33.9600,2.5200,-26.7600,
8.243446,1.4202,0.2920,1.8199,-0.0245,1.1638,0.2567,-33.9600,2.5200,-26.7600,
8.248756,1.4202,0.2920,1.8199,0.3143,0.6557,0.5593,-33.9600,2.5200,-26.7600,
8.262527,1.4202,0.2920,1.8199,0.3143,0.6557,0.5593,-33.9600,2.5200,-26.7600,
8.263566,1.7548,-0.8213,2.4269,0.3143,0.6557,0.5593,-33.9600,2.5200,-26.7600,
8.265909,1.7548,-0.8213,2.4269,0.3143,0.6557,0.5593,-33.9600,1.0200,-27.3000,
8.269658,1.7548,-0.8213,2.4269,0.5774,-0.1896,0.3297,-33.9600,1.0200,-27.3000,
8.282308,1.7548,-0.8213,2.4269,0.5774,-0.1896,0.3297,-33.9600,1.0200,-27.3000,
8.282923,1.3623,-1.7761,2.2454,0.5774,-0.1896,0.3297,-33.9600,1.0200,-27.3000,
8.290649,1.3623,-1.7761,2.2454,1.0551,0.2226,0.1294,-33.9600,1.0200,-27.3000,
8.302867,1.3623,-1.7761,2.2454,1.0551,0.2226,0.1294,-33.9600,1.0200,-27.3000,
8.303593,0.5209,-2.2380,2.6138,1.0551,0.2226,0.1294,-33.9600,1.0200,-27.3000,
8.309770,0.5209,-2.2380,2.6138,1.3795,-0.0591,0.0117,-33.9600,1.0200,-27.3000,
8.322862,0.5209,-2.2380,2.6138,1.3795,-0.0591,0.0117,-33.9600,1.0200,-27.3000,
8.323602,0.1124,-2.2616,2.6057,1.3795,-0.0591,0.0117,-33.9600,1.0200,-27.3000,
8.327741,0.1124,-2.2616,2.6057,1.3795,-0.0591,0.0117,-33.8400,0.1800,-27.9000,
8.330998,0.1124,-2.2616,2.6057,1.4030,-0.9651,-0.0788,-33.8400,0.1800,-27.9000,
8.343816,0.1124,-2.2616,2.6057,1.4030,-0.9651,-0.0788,-33.8400,0.1800,-27.9000,
8.345263,-0.4702,-0.9471,1.9338,1.4030,-0.9651,-0.0788,-33.8400,0.1800,-27.9000,
8.351328,-0.4702,-0.9471,1.9338,1.2895,-0.7771,-0.0921,-33.8400,0.1800,-27.9000,
8.365173,-0.4702,-0.9471,1.9338,1.2895,-0.7771,-0.0921,-33.8400,0.1800,-27.9000,
8.365924,-0.7648,0.4609,1.3736,1.2895,-0.7771,-0.0921,-33.8400,0.1800,-27.9000,
8.373147,-0.7648,0.4609,1.3736,0.9816,-0.2700,-0.0884,-33.8400,0.1800,-27.9000,
8.385317,-0.7648,0.4609,1.3736,0.9816,-0.2700,-0.0884,-33.8400,0.1800,-27.9000,
8.385844,-0.9065,1.0468,1.3487,0.9816,-0.2700,-0.0884,-33.8400,0.1800,-27.9000,
8.389184,-0.9065,1.0468,1.3487,0.9816,-0.2700,-0.0884,-33.7200,-0.4200,-28.1400,
8.392231,-0.9065,1.0468,1.3487,0.4213,-0.0096,-0.0602,-33.7200,-0.4200,-28.1400,
8.405596,-0.9065,1.0468,1.3487,0.4213,-0.0096,-0.0602,-33.7200,-0.4200,-28.1400,
8.406633,-0.9092,0.4022,1.4235,0.4213,-0.0096,-0.0602,-33.7200,-0.4200,-28.1400,
8.413819,-0.9092,0.4022,1.4235,-0.1252,-0.0245,-0.0053,-33.7200,-0.4200,-28.1400,
8.426551,-0.9092,0.4022,1.4235,-0.1252,-0.0245,-0.0053,-33.7200,-0.4200,-28.1400,
8.427593,-1.0381,-0.7324,1.6674,-0.1252,-0.0245,-0.0053,-33.7200,-0.4200,-28.1400,
8.434336,-1.0381,-0.7324,1.6674,-0.4442,0.1172,0.0458,-33.7200,-0.4200,-28.1400,
8.447112,-1.0381,-0.7324,1.6674,-0.4442,0.1172,0.0458,-33.7200,-0.4200,-28.1400,
8.447840,-1.0196,-1.3187,1.3541,-0.4442,0.1172,0.0458,-33.7200,-0.4200,-28.1400,
8.451420,-1.0196,-1.3187,1.3541,-0.4442,0.1172,0.0458,-34.1400,-1.5600,-27.6600,
8.453710,-1.0196,-1.3187,1.3541,-0.5135,0.5939,0.0186,-34.1400,-1.5600,-27.6600,
8.467571,-1.0196,-1.3187,1.3541,-0.5135,0.5939,0.0186,-34.1400,-1.5600,-27.6600,
8.468160,-0.6435,-1.6244,0.9889,-0.5135,0.5939,0.0186,-34.1400,-1.5600,-27.6600,
8.474989,-0.6435,-1.6244,0.9889,-0.4016,1.0141,0.0948,-34.1400,-1.5600,-27.6600,
8.487835,-0.6435,-1.6244,0.9889,-0.4016,1.0141,0.0948,-34.1400,-1.5600,-27.6600,
8.489261,0.8605,-1.4909,1.3979,-0.4016,1.0141,0.0948,-34.1400,-1.5600,-27.6600,
8.495455,0.8605,-1.4909,1.3979,-0.2823,0.6993,0.3313,-34.1400,-1.5600,-27.6600,
8.508222,0.8605,-1.4909,1.3979,-0.2823,0.6993,0.3313,-34.1400,-1.5600,-27.6600,
8.509100,2.4673,0.1342,1.7441,-0.2823,0.6993,0.3313,-34.1400,-1.5600,-27.6600,
8.511851,2.4673,0.1342,1.7441,-0.2823,0.6993,0.3313,-34.2600,-2.7000,-27.7800,
8.515788,2.4673,0.1342,1.7441,-0.2344,0.0298,0.2008,-34.2600,-2.7000,-27.7800,
8.529406,2.4673,0.1342,1.7441,-0.2344,0.0298,0.2008,-34.2600,-2.7000,-27.7800,
8.530476,1.7626,1.0648,1.3886,-0.2344,0.0298,0.2008,-34.2600,-2.7000,-27.7800,
8.536825,1.7626,1.0648,1.3886,-0.1198,-0.1625,-0.0495,-34.2600,-2.7000,-27.7800,
8.549820,1.7626,1.0648,1.3886,-0.1198,-0.1625,-0.0495,-34.2600,-2.7000,-27.7800,
8.550277,-0.3225,1.4440,0.4042,-0.1198,-0.1625,-0.0495,-34.2600,-2.7000,-27.7800,
8.557046,-0.3225,1.4440,0.4042,-0.0421,0.1012,-0.1113,-34.2600,-2.7000,-27.7800,
8.570220,-0.3225,1.4440,0.4042,-0.0421,0.1012,-0.1113,-34.2600,-2.7000,-27.7800,
8.570969,-0.1314,-0.0196,0.2535,-0.0421,0.1012,-0.1113,-34.2600,-2.7000,-27.7800,
8.574210,-0.1314,-0.0196,0.2535,-0.0421,0.1012,-0.1113,-34.5000,-3.0600,-28.3200,
8.578150,-0.1314,-0.0196,0.2535,-0.1289,-0.0655,-0.1758,-34.5000,-3.0600,-28.3200,
8.590559,-0.1314,-0.0196,0.2535,-0.1289,-0.0655,-0.1758,-34.5000,-3.0600,-28.3200,
8.591503,-0.3109,-0.7709,0.5305,-0.1289,-0.0655,-0.1758,-34.5000,-3.0600,-28.3200,
8.598376,-0.3109,-0.7709,0.5305,-0.0490,0.2312,-0.1433,-34.5000,-3.0600,-28.3200,
8.610929,-0.3109,-0.7709,0.5305,-0.0490,0.2312,-0.1433,-34.5000,-3.0600,-28.3200,
8.611687,0.0856,-1.0553,0.8186,-0.0490,0.2312,-0.1433,-34.5000,-3.0600,-28.3200,
8.619253,0.0856,-1.0553,0.8186,0.0437,0.2471,0.0591,-34.5000,-3.0600,-28.3200,
8.631660,0.0856,-1.0553,0.8186,0.0437,0.2471,0.0591,-34.5000,-3.0600,-28.3200,
8.632211,0.6425,-0.1279,0.8261,0.0437,0.2471,0.0591,-34.5000,-3.0600,-28.3200,
8.635832,0.6425,-0.1279,0.8261,0.0437,0.2471,0.0591,-34.6200,-3.1800,-28.3800,
8.639008,0.6425,-0.1279,0.8261,0.0091,0.0373,0.1390,-34.6200,-3.1800,-28.3800,
8.651881,0.6425,-0.1279,0.8261,0.0091,0.0373,0.1390,-34.6200,-3.1800,-28.3800,
8.652458,0.8271,0.4537,0.6946,0.0091,0.0373,0.1390,-34.6200,-3.1800,-28.3800,
8.660617,0.8271,0.4537,0.6946,-0.1832,-0.2908,0.0458,-34.6200,-3.1800,-28.3800,
8.671892,0.8271,0.4537,0.6946,-0.1832,-0.2908,0.0458,-34.6200,-3.1800,-28.3800,
8.672414,0.1076,0.4728,0.9310,-0.1832,-0.2908,0.0458,-34.6200,-3.1800,-28.3800,
8.680925,0.1076,0.4728,0.9310,0.0714,-0.1672,-0.0463,-34.6200,-3.1800,-28.3800,
8.692979,0.1076,0.4728,0.9310,0.0714,-0.1672,-0.0463,-34.6200,-3.1800,-28.3800,
8.694009,-0.5405,-0.1866,0.0089,0.0714,-0.1672,-0.0463,-34.6200,-3.1800,-28.3800,
8.697242,-0.5405,-0.1866,0.0089,0.0714,-0.1672,-0.0463,-34.0800,-2.6400,-29.1000,
8.708066,-0.5405,-0.1866,0.0089,-0.0234,-0.5369,-0.0937,-34.0800,-2.6400,-29.1000,
8.713765,-0.5405,-0.1866,0.0089,-0.0234,-0.5369,-0.0937,-34.0800,-2.6400,-29.1000,
8.714275,-0.9927,-0.9109,0.7107,-0.0234,-0.5369,-0.0937,-34.0800,-2.6400,-29.1000,
8.721035,-0.9927,-0.9109,0.7107,0.0911,-0.3979,-0.0053,-34.0800,-2.6400,-29.1000,
8.734427,-0.9927,-0.9109,0.7107,0.0911,-0.3979,-0.0053,-34.0800,-2.6400,-29.1000,
8.735043,-0.8855,-1.1121,0.3151,0.0911,-0.3979,-0.0053,-34.0800,-2.6400,-29.1000,
8.742000,-0.8855,-1.1121,0.3151,0.3148,0.0623,0.1395,-34.0800,-2.6400,-29.1000,
8.753982,-0.8855,-1.1121,0.3151,0.3148,0.0623,0.1395,-34.0800,-2.6400,-29.1000,
8.754513,-0.2747,-0.7313,0.2984,0.3148,0.0623,0.1395,-34.0800,-2.6400,-29.1000,
8.758135,-0.2747,-0.7313,0.2984,0.3148,0.0623,0.1395,-33.8400,-2.2800,-28.8000,
8.761713,-0.2747,-0.7313,0.2984,0.3515,-0.0314,0.1587,-33.8400,-2.2800,-28.8000,
8.774581,-0.2747,-0.7313,0.2984,0.3515,-0.0314,0.1587,-33.8400,-2.2800,-28.8000,
8.775082,0.0481,-0.0010,0.6516,0.3515,-0.0314,0.1587,-33.8400,-2.2800,-28.8000,
8.782449,0.0481,-0.0010,0.6516,0.2935,-0.2706,0.0943,-33.8400,-2.2800,-28.8000,
8.794995,0.0481,-0.0010,0.6516,0.2935,-0.2706,0.0943,-33.8400,-2.2800,-28.8000,
8.795522,0.2235,0.0526,0.4121,0.2935,-0.2706,0.0943,-33.8400,-2.2800,-28.8000,
8.802463,0.2235,0.0526,0.4121,0.1193,-0.2610,0.0144,-33.8400,-2.2800,-28.8000,
8.815317,0.2235,0.0526,0.4121,0.1193,-0.2610,0.0144,-33.8400,-2.2800,-28.8000,
8.815696,0.3279,-0.2158,0.1170,0.1193,-0.2610,0.0144,-33.8400,-2.2800,-28.8000,
8.819777,0.3279,-0.2158,0.1170,0.1193,-0.2610,0.0144,-33.3600,-2.1600,-29.2200,
8.823308,0.3279,-0.2158,0.1170,-0.0501,-0.0879,0.0549,-33.3600,-2.1600,-29.2200,
8.835903,0.3279,-0.2158,0.1170,-0.0501,-0.0879,0.0549,-33.3600,-2.1600,-29.2200,
8.836432,0.3103,-0.3372,-0.1449,-0.0501,-0.0879,0.0549,-33.3600,-2.1600,-29.2200,
8.843834,0.3103,-0.3372,-0.1449,-0.2445,-0.0202,0.1481,-33.3600,-2.1600,-29.2200,
8.856555,0.3103,-0.3372,-0.1449,-0.2445,-0.0202,0.1481,-33.3600,-2.1600,-29.2200,
8.857108,0.0538,-0.1781,-0.0340,-0.2445,-0.0202,0.1481,-33.3600,-2.1600,-29.2200,
8.864734,0.0538,-0.1781,-0.0340,-0.3696,-0.0304,0.2152,-33.3600,-2.1600,-29.2200,
8.877013,0.0538,-0.1781,-0.0340,-0.3696,-0.0304,0.2152,-33.3600,-2.1600,-29.2200,
8.877532,-0.0588,-0.1966,0.2438,-0.3696,-0.0304,0.2152,-33.3600,-2.1600,-29.2200,
8.881241,-0.0588,-0.1966,0.2438,-0.3696,-0.0304,0.2152,-33.1200,-2.1000,-29.4600,
8.884680,-0.0588,-0.1966,0.2438,-0.2248,-0.0549,0.2296,-33.1200,-2.1000,-29.4600,
8.897705,-0.0588,-0.1966,0.2438,-0.2248,-0.0549,0.2296,-33.1200,-2.1000,-29.4600,
8.898033,-0.1887,-0.1488,0.1327,-0.2248,-0.0549,0.2296,-33.1200,-2.1000,-29.4600,
8.905985,-0.1887,-0.1488,0.1327,0.0948,-0.0911,0.2471,-33.1200,-2.1000,-29.4600,
8.918645,-0.1887,-0.1488,0.1327,0.0948,-0.0911,0.2471,-33.1200,-2.1000,-29.4600,
8.919041,-0.0621,-0.1311,-0.2189,0.0948,-0.0911,0.2471,-33.1200,-2.1000,-29.4600,
8.926363,-0.0621,-0.1311,-0.2189,0.4037,-0.2088,0.2386,-33.1200,-2.1000,-29.4600,
8.939005,-0.0621,-0.1311,-0.2189,0.4037,-0.2088,0.2386,-33.1200,-2.1000,-29.4600,
8.939477,-0.0813,0.0288,-0.2849,0.4037,-0.2088,0.2386,-33.1200,-2.1000,-29.4600,
8.943507,-0.0813,0.0288,-0.2849,0.4037,-0.2088,0.2386,-33.4800,-2.2200,-28.9800,
8.946834,-0.0813,0.0288,-0.2849,0.5220,-0.4639,0.2583,-33.4800,-2.2200,-28.9800,
8.959616,-0.0813,0.0288,-0.2849,0.5220,-0.4639,0.2583,-33.4800,-2.2200,-28.9800,
8.960190,0.0711,0.3679,0.1001,0.5220,-0.4639,0.2583,-33.4800,-2.2200,-28.9800,
8.968496,0.0711,0.3679,0.1001,0.5225,-0.6642,0.3308,-33.4800,-2.2200,-28.9800,
8.980337,0.0711,0.3679,0.1001,0.5225,-0.6642,0.3308,-33.4800,-2.2200,-28.9800,
8.980659,0.5093,0.4894,0.2468,0.5225,-0.6642,0.3308,-33.4800,-2.2200,-28.9800,
8.988079,0.5093,0.4894,0.2468,0.5321,-0.6711,0.3856,-33.4800,-2.2200,-28.9800,
9.001215,0.5093,0.4894,0.2468,0.5321,-0.6711,0.3856,-33.4800,-2.2200,-28.9800,
9.001542,1.1713,0.6604,0.4201,0.5321,-0.6711,0.3856,-33.4800,-2.2200,-28.9800,
9.004848,1.1713,0.6604,0.4201,0.5321,-0.6711,0.3856,-33.4200,-2.2200,-29.2800,
9.008342,1.1713,0.6604,0.4201,0.6434,-0.5491,0.3680,-33.4200,-2.2200,-29.2800,
9.021672,1.1713,0.6604,0.4201,0.6434,-0.5491,0.3680,-33.4200,-2.2200,-29.2800,
9.022255,0.6567,0.0697,0.5955,0.6434,-0.5491,0.3680,-33.4200,-2.2200,-29.2800,
9.029708,0.6567,0.0697,0.5955,0.7952,-0.4975,0.3233,-33.4200,-2.2200,-29.2800,
9.042556,0.6567,0.0697,0.5955,0.7952,-0.4975,0.3233,-33.4200,-2.2200,-29.2800,
9.043056,1.0253,-0.4496,-0.3868,0.7952,-0.4975,0.3233,-33.4200,-2.2200,-29.2800,
9.049845,1.0253,-0.4496,-0.3868,0.7606,-0.4261,0.3159,-33.4200,-2.2200,-29.2800,
9.062930,1.0253,-0.4496,-0.3868,0.7606,-0.4261,0.3159,-33.4200,-2.2200,-29.2800,
9.063544,1.2495,-0.6693,-0.4187,0.7606,-0.4261,0.3159,-33.4200,-2.2200,-29.2800,
9.067265,1.2495,-0.6693,-0.4187,0.7606,-0.4261,0.3159,-33.2400,-2.1600,-28.4400,
9.070944,1.2495,-0.6693,-0.4187,0.7212,-0.3308,0.3515,-33.2400,-2.1600,-28.4400,
9.083777,1.2495,-0.6693,-0.4187,0.7212,-0.3308,0.3515,-33.2400,-2.1600,-28.4400,
9.084119,1.2377,-0.5163,-0.2051,0.7212,-0.3308,0.3515,-33.2400,-2.1600,-28.4400,
9.090875,1.2377,-0.5163,-0.2051,0.7286,-0.2413,0.3174,-33.2400,-2.1600,-28.4400,
9.103952,1.2377,-0.5163,-0.2051,0.7286,-0.2413,0.3174,-33.2400,-2.1600,-28.4400,
9.104724,0.6970,-0.1471,0.5624,0.7286,-0.2413,0.3174,-33.2400,-2.1600,-28.4400,
9.111879,0.6970,-0.1471,0.5624,0.8799,-0.1539,0.2956,-33.2400,-2.1600,-28.4400,
9.124284,0.6970,-0.1471,0.5624,0.8799,-0.1539,0.2956,-33.2400,-2.1600,-28.4400,
9.124822,0.2939,0.0948,0.8884,0.8799,-0.1539,0.2956,-33.2400,-2.1600,-28.4400,
9.128200,0.2939,0.0948,0.8884,0.8799,-0.1539,0.2956,-33.9600,-2.6400,-27.3600,
9.131852,0.2939,0.0948,0.8884,1.0631,-0.0783,0.3079,-33.9600,-2.6400,-27.3600,
9.144717,0.2939,0.0948,0.8884,1.0631,-0.0783,0.3079,-33.9600,-2.6400,-27.3600,
9.145323,-0.3253,-0.5792,0.8283,1.0631,-0.0783,0.3079,-33.9600,-2.6400,-27.3600,
9.153003,-0.3253,-0.5792,0.8283,1.4413,0.2269,0.3622,-33.9600,-2.6400,-27.3600,
9.165785,-0.3253,-0.5792,0.8283,1.4413,0.2269,0.3622,-33.9600,-2.6400,-27.3600,
9.166119,-1.2747,-1.1195,0.3073,1.4413,0.2269,0.3622,-33.9600,-2.6400,-27.3600,
9.174056,-1.2747,-1.1195,0.3073,1.4578,0.1438,0.4708,-33.9600,-2.6400,-27.3600,
9.186546,-1.2747,-1.1195,0.3073,1.4578,0.1438,0.4708,-33.9600,-2.6400,-27.3600,
9.187100,-1.1790,-1.4346,0.2683,1.4578,0.1438,0.4708,-33.9600,-2.6400,-27.3600,
9.190001,-1.1790,-1.4346,0.2683,1.4578,0.1438,0.4708,-34.3800,-3.1800,-26.4000,
9.193331,-1.1790,-1.4346,0.2683,1.3332,0.3915,0.5593,-34.3800,-3.1800,-26.4000,
9.205657,-1.1790,-1.4346,0.2683,1.3332,0.3915,0.5593,-34.3800,-3.1800,-26.4000,
9.206427,-1.2811,-0.8977,0.2540,1.3332,0.3915,0.5593,-34.3800,-3.1800,-26.4000,
9.213317,-1.2811,-0.8977,0.2540,1.1638,0.5204,0.6759,-34.3800,-3.1800,-26.4000,
9.226771,-1.2811,-0.8977,0.2540,1.1638,0.5204,0.6759,-34.3800,-3.1800,-26.4000,
9.227400,-0.7038,-0.2224,0.2870,1.1638,0.5204,0.6759,-34.3800,-3.1800,-26.4000,
9.234855,-0.7038,-0.2224,0.2870,1.0141,0.5960,0.7105,-34.3800,-3.1800,-26.4000,
9.247314,-0.7038,-0.2224,0.2870,1.0141,0.5960,0.7105,-34.3800,-3.1800,-26.4000,
9.248098,-0.4321,0.0995,-0.1002,1.0141,0.5960,0.7105,-34.3800,-3.1800,-26.4000,
9.252499,-0.4321,0.0995,-0.1002,1.0141,0.5960,0.7105,-34.9200,-3.5400,-25.6200,
9.255606,-0.4321,0.0995,-0.1002,0.8453,0.7228,0.7015,-34.9200,-3.5400,-25.6200,
9.268721,-0.4321,0.0995,-0.1002,0.8453,0.7228,0.7015,-34.9200,-3.5400,-25.6200,
9.269328,-1.0571,0.0409,-0.0449,0.8453,0.7228,0.7015,-34.9200,-3.5400,-25.6200,
9.275307,-1.0571,0.0409,-0.0449,0.7478,0.8975,0.7478,-34.9200,-3.5400,-25.6200,
9.290455,-1.0571,0.0409,-0.0449,0.7478,0.8975,0.7478,-34.9200,-3.5400,-25.6200,
9.291060,-2.0008,0.0652,0.0562,0.7478,0.8975,0.7478,-34.9200,-3.5400,-25.6200,
9.295879,-2.0008,0.0652,0.0562,0.8021,0.8139,0.8229,-34.9200,-3.5400,-25.6200,
9.308825,-2.0008,0.0652,0.0562,0.8021,0.8139,0.8229,-34.9200,-3.5400,-25.6200,
9.309547,-2.2066,-0.1809,0.5200,0.8021,0.8139,0.8229,-34.9200,-3.5400,-25.6200,
9.313190,-2.2066,-0.1809,0.5200,0.8021,0.8139,0.8229,-35.8200,-4.0200,-24.9600,
9.316947,-2.2066,-0.1809,0.5200,0.8629,0.4357,0.8432,-35.8200,-4.0200,-24.9600,
9.329640,-2.2066,-0.1809,0.5200,0.8629,0.4357,0.8432,-35.8200,-4.0200,-24.9600,
9.330736,-2.6160,-0.5134,1.2333,0.8629,0.4357,0.8432,-35.8200,-4.0200,-24.9600,
9.336780,-2.6160,-0.5134,1.2333,0.9710,0.3318,0.7936,-35.8200,-4.0200,-24.9600,
9.349981,-2.6160,-0.5134,1.2333,0.9710,0.3318,0.7936,-35.8200,-4.0200,-24.9600,
9.350718,-2.7438,-0.2612,1.2981,0.9710,0.3318,0.7936,-35.8200,-4.0200,-24.9600,
9.357862,-2.7438,-0.2612,1.2981,1.0003,0.3776,0.6461,-35.8200,-4.0200,-24.9600,
9.371134,-2.7438,-0.2612,1.2981,1.0003,0.3776,0.6461,-35.8200,-4.0200,-24.9600,
9.372140,-2.9395,-0.3810,1.3089,1.0003,0.3776,0.6461,-35.8200,-4.0200,-24.9600,
9.374503,-2.9395,-0.3810,1.3089,1.0003,0.3776,0.6461,-35.5800,-4.0800,-25.6200,
9.378366,-2.9395,-0.3810,1.3089,0.8730,0.3377,0.5401,-35.5800,-4.0800,-25.6200,
9.392209,-2.9395,-0.3810,1.3089,0.8730,0.3377,0.5401,-35.5800,-4.0800,-25.6200,
9.392974,-3.3141,-0.7398,1.8265,0.8730,0.3377,0.5401,-35.5800,-4.0800,-25.6200,
9.398567,-3.3141,-0.7398,1.8265,0.7334,0.1566,0.5689,-35.5800,-4.0800,-25.6200,
9.411369,-3.3141,-0.7398,1.8265,0.7334,0.1566,0.5689,-35.5800,-4.0800,-25.6200,
9.412523,-3.2873,-0.9669,2.3499,0.7334,0.1566,0.5689,-35.5800,-4.0800,-25.6200,
9.419137,-3.2873,-0.9669,2.3499,0.7958,-0.0506,0.6653,-35.5800,-4.0800,-25.6200,
9.432016,-3.2873,-0.9669,2.3499,0.7958,-0.0506,0.6653,-35.5800,-4.0800,-25.6200,
9.432834,-2.7466,-0.8976,2.6219,0.7958,-0.0506,0.6653,-35.5800,-4.0800,-25.6200,
9.436135,-2.7466,-0.8976,2.6219,0.7958,-0.0506,0.6653,-34.8600,-3.9600,-26.2800,
9.439385,-2.7466,-0.8976,2.6219,0.9768,-0.0687,0.6615,-34.8600,-3.9600,-26.2800,
9.452095,-2.7466,-0.8976,2.6219,0.9768,-0.0687,0.6615,-34.8600,-3.9600,-26.2800,
9.453048,-2.3882,0.2908,1.6494,0.9768,-0.0687,0.6615,-34.8600,-3.9600,-26.2800,
9.460064,-2.3882,0.2908,1.6494,1.2085,0.4964,0.6210,-34.8600,-3.9600,-26.2800,
9.472441,-2.3882,0.2908,1.6494,1.2085,0.4964,0.6210,-34.8600,-3.9600,-26.2800,
9.473147,-1.4310,0.8536,1.1385,1.2085,0.4964,0.6210,-34.8600,-3.9600,-26.2800,
9.480854,-1.4310,0.8536,1.1385,0.8101,0.4368,0.3867,-34.8600,-3.9600,-26.2800,
9.493343,-1.4310,0.8536,1.1385,0.8101,0.4368,0.3867,-34.8600,-3.9600,-26.2800,
9.494198,-1.1290,1.2673,0.4442,0.8101,0.4368,0.3867,-34.8600,-3.9600,-26.2800,
9.497101,-1.1290,1.2673,0.4442,0.8101,0.4368,0.3867,-34.9800,-4.1400,-26.5800,
9.501323,-1.1290,1.2673,0.4442,0.1427,0.4016,0.1641,-34.9800,-4.1400,-26.5800,
9.513759,-1.1290,1.2673,0.4442,0.1427,0.4016,0.1641,-34.9800,-4.1400,-26.5800,
9.514403,-1.1831,0.4318,0.6229,0.1427,0.4016,0.1641,-34.9800,-4.1400,-26.5800,
9.522069,-1.1831,0.4318,0.6229,-0.2471,0.4517,-0.0091,-34.9800,-4.1400,-26.5800,
9.534641,-1.1831,0.4318,0.6229,-0.2471,0.4517,-0.0091,-34.9800,-4.1400,-26.5800,
9.535503,-1.3467,-0.9247,1.0262,-0.2471,0.4517,-0.0091,-34.9800,-4.1400,-26.5800,
9.541893,-1.3467,-0.9247,1.0262,-0.2226,0.6040,-0.0554,-34.9800,-4.1400,-26.5800,
9.554633,-1.3467,-0.9247,1.0262,-0.2226,0.6040,-0.0554,-34.9800,-4.1400,-26.5800,
9.555622,-1.3114,-1.3560,0.8210,-0.2226,0.6040,-0.0554,-34.9800,-4.1400,-26.5800,
9.559305,-1.3114,-1.3560,0.8210,-0.2226,0.6040,-0.0554,-34.4400,-4.6800,-27.2400,
9.562708,-1.3114,-1.3560,0.8210,-0.1683,0.2626,-0.0431,-34.4400,-4.6800,-27.2400,
9.575360,-1.3114,-1.3560,0.8210,-0.1683,0.2626,-0.0431,-34.4400,-4.6800,-27.2400,
9.576007,-1.4829,-0.9487,1.2173,-0.1683,0.2626,-0.0431,-34.4400,-4.6800,-27.2400,
9.583272,-1.4829,-0.9487,1.2173,-0.1246,-0.2104,0.0170,-34.4400,-4.6800,-27.2400,
9.595710,-1.4829,-0.9487,1.2173,-0.1246,-0.2104,0.0170,-34.4400,-4.6800,-27.2400,
9.596517,-1.8932,-0.0898,1.1277,-0.1246,-0.2104,0.0170,-34.4400,-4.6800,-27.2400,
9.603744,-1.8932,-0.0898,1.1277,-0.0927,-0.3611,0.0639,-34.4400,-4.6800,-27.2400,
9.616485,-1.8932,-0.0898,1.1277,-0.0927,-0.3611,0.0639,-34.4400,-4.6800,-27.2400,
9.617027,-2.0263,0.3834,0.9909,-0.0927,-0.3611,0.0639,-34.4400,-4.6800,-27.2400,
9.620650,-2.0263,0.3834,0.9909,-0.0927,-0.3611,0.0639,-34.0200,-5.1000,-27.7800,
9.623954,-2.0263,0.3834,0.9909,-0.0415,-0.1103,0.0368,-34.0200,-5.1000,-27.7800,
9.637437,-2.0263,0.3834,0.9909,-0.0415,-0.1103,0.0368,-34.0200,-5.1000,-27.7800,
9.638619,-1.4393,0.4295,0.6351,-0.0415,-0.1103,0.0368,-34.0200,-5.1000,-27.7800,
9.644889,-1.4393,0.4295,0.6351,-0.0692,0.0778,-0.0213,-34.0200,-5.1000,-27.7800,
9.657385,-1.4393,0.4295,0.6351,-0.0692,0.0778,-0.0213,-34.0200,-5.1000,-27.7800,
9.658095,-0.8243,0.6420,0.6787,-0.0692,0.0778,-0.0213,-34.0200,-5.1000,-27.7800,
9.665372,-0.8243,0.6420,0.6787,-0.0858,0.0644,-0.0320,-34.0200,-5.1000,-27.7800,
9.678163,-0.8243,0.6420,0.6787,-0.0858,0.0644,-0.0320,-34.0200,-5.1000,-27.7800,
9.679241,-0.2418,0.4295,0.7821,-0.0858,0.0644,-0.0320,-34.0200,-5.1000,-27.7800,
9.682156,-0.2418,0.4295,0.7821,-0.0858,0.0644,-0.0320,-34.2000,-5.5200,-28.1400,
9.685913,-0.2418,0.4295,0.7821,-0.0272,0.0479,-0.0389,-34.2000,-5.5200,-28.1400,
9.699116,-0.2418,0.4295,0.7821,-0.0272,0.0479,-0.0389,-34.2000,-5.5200,-28.1400,
9.699585,0.4759,-0.1636,-0.2286,-0.0272,0.0479,-0.0389,-34.2000,-5.5200,-28.1400,
9.705970,0.4759,-0.1636,-0.2286,0.0043,0.1017,0.0133,-34.2000,-5.5200,-28.1400,
9.718943,0.4759,-0.1636,-0.2286,0.0043,0.1017,0.0133,-34.2000,-5.5200,-28.1400,
9.720157,0.4634,-0.6175,-0.1287,0.0043,0.1017,0.0133,-34.2000,-5.5200,-28.1400,
9.726963,0.4634,-0.6175,-0.1287,-0.0123,0.1182,0.0522,-34.2000,-5.5200,-28.1400,
9.739719,0.4634,-0.6175,-0.1287,-0.0123,0.1182,0.0522,-34.2000,-5.5200,-28.1400,
9.740797,0.2641,-0.6145,0.3852,-0.0123,0.1182,0.0522,-34.2000,-5.5200,-28.1400,
9.743490,0.2641,-0.6145,0.3852,-0.0123,0.1182,0.0522,-33.0600,-5.3400,-29.1000,
9.747170,0.2641,-0.6145,0.3852,-0.0224,0.0852,0.0320,-33.0600,-5.3400,-29.1000,
9.760196,0.2641,-0.6145,0.3852,-0.0224,0.0852,0.0320,-33.0600,-5.3400,-29.1000,
9.761731,-0.1362,-0.2314,0.5490,-0.0224,0.0852,0.0320,-33.0600,-5.3400,-29.1000,
9.769645,-0.1362,-0.2314,0.5490,-0.0517,0.0421,-0.0224,-33.0600,-5.3400,-29.1000,
9.781592,-0.1362,-0.2314,0.5490,-0.0517,0.0421,-0.0224,-33.0600,-5.3400,-29.1000,
9.782277,-0.4418,-0.2393,0.2459,-0.0517,0.0421,-0.0224,-33.0600,-5.3400,-29.1000,
9.788157,-0.4418,-0.2393,0.2459,-0.1241,0.1156,-0.0298,-33.0600,-5.3400,-29.1000,
9.801472,-0.4418,-0.2393,0.2459,-0.1241,0.1156,-0.0298,-33.0600,-5.3400,-29.1000,
9.802228,-0.6975,-0.4884,-0.2811,-0.1241,0.1156,-0.0298,-33.0600,-5.3400,-29.1000,
9.806055,-0.6975,-0.4884,-0.2811,-0.1241,0.1156,-0.0298,-33.0600,-5.1600,-29.3400,
9.809587,-0.6975,-0.4884,-0.2811,-0.2376,0.2509,0.0229,-33.0600,-5.1600,-29.3400,
9.824479,-0.6975,-0.4884,-0.2811,-0.2376,0.2509,0.0229,-33.0600,-5.1600,-29.3400,
9.825595,-0.7528,-0.2526,-0.1431,-0.2376,0.2509,0.0229,-33.0600,-5.1600,-29.3400,
9.829847,-0.7528,-0.2526,-0.1431,-0.3127,0.3116,0.0618,-33.0600,-5.1600,-29.3400,
9.843259,-0.7528,-0.2526,-0.1431,-0.3127,0.3116,0.0618,-33.0600,-5.1600,-29.3400,
9.844486,-0.6797,0.2468,0.2247,-0.3127,0.3116,0.0618,-33.0600,-5.1600,-29.3400,
9.850372,-0.6797,0.2468,0.2247,-0.2839,0.2706,0.0533,-33.0600,-5.1600,-29.3400,
9.862668,-0.6797,0.2468,0.2247,-0.2839,0.2706,0.0533,-33.0600,-5.1600,-29.3400,
9.863192,-0.0703,0.1922,-0.1261,-0.2839,0.2706,0.0533,-33.0600,-5.1600,-29.3400,
9.866974,-0.0703,0.1922,-0.1261,-0.2839,0.2706,0.0533,-33.3000,-4.9200,-29.2200,
9.871618,-0.0703,0.1922,-0.1261,-0.2541,0.0943,0.0160,-33.3000,-4.9200,-29.2200,
9.885230,-0.0703,0.1922,-0.1261,-0.2541,0.0943,0.0160,-33.3000,-4.9200,-29.2200,
9.886032,-0.0026,-0.4573,-0.4011,-0.2541,0.0943,0.0160,-33.3000,-4.9200,-29.2200,
9.891521,-0.0026,-0.4573,-0.4011,-0.2221,-0.1049,-0.0027,-33.3000,-4.9200,-29.2200,
9.904353,-0.0026,-0.4573,-0.4011,-0.2221,-0.1049,-0.0027,-33.3000,-4.9200,-29.2200,
9.905055,0.1729,-0.6195,-0.2784,-0.2221,-0.1049,-0.0027,-33.3000,-4.9200,-29.2200,
9.912513,0.1729,-0.6195,-0.2784,-0.1614,0.1550,-0.0245,-33.3000,-4.9200,-29.2200,
9.924981,0.1729,-0.6195,-0.2784,-0.1614,0.1550,-0.0245,-33.3000,-4.9200,-29.2200,
9.925832,0.0711,-0.1250,-0.1879,-0.1614,0.1550,-0.0245,-33.3000,-4.9200,-29.2200,
9.929290,0.0711,-0.1250,-0.1879,-0.1614,0.1550,-0.0245,-32.8200,-4.8000,-29.6400,
9.932452,0.0711,-0.1250,-0.1879,-0.1555,0.2631,0.0027,-32.8200,-4.8000,-29.6400,
9.946115,0.0711,-0.1250,-0.1879,-0.1555,0.2631,0.0027,-32.8200,-4.8000,-29.6400,
9.946708,0.4032,0.0918,0.0924,-0.1555,0.2631,0.0027,-32.8200,-4.8000,-29.6400,
9.953476,0.4032,0.0918,0.0924,-0.2056,0.2003,-0.0256,-32.8200,-4.8000,-29.6400,
9.966531,0.4032,0.0918,0.0924,-0.2056,0.2003,-0.0256,-32.8200,-4.8000,-29.6400,
9.967273,0.5686,-0.2093,0.0652,-0.2056,0.2003,-0.0256,-32.8200,-4.8000,-29.6400,
9.974598,0.5686,-0.2093,0.0652,-0.3036,0.1321,-0.1156,-32.8200,-4.8000,-29.6400,
9.988569,0.5686,-0.2093,0.0652,-0.3036,0.1321,-0.1156,-32.8200,-4.8000,-29.6400,
9.989695,0.2538,-0.4904,-0.2690,-0.3036,0.1321,-0.1156,-32.8200,-4.8000,-29.6400,
9.994292,0.2538,-0.4904,-0.2690,-0.3036,0.1321,-0.1156,-33.1200,-4.7400,-29.3400,
9.995037,0.2538,-0.4904,-0.2690,-0.4160,0.1859,-0.1316,-33.1200,-4.7400,-29.3400,
10.014846,0.2538,-0.4904,-0.2690,-0.4906,0.3084,-0.0256,-33.1200,-4.7400,-29.3400,
10.034556,0.2538,-0.4904,-0.2690,-0.4948,0.4613,0.0362,-33.1200,-4.7400,-29.3400,
10.048062,0.2538,-0.4904,-0.2690,-0.4948,0.4613,0.0362,-33.1200,-4.7400,-29.3400,
10.048825,-0.3597,0.0421,-0.3622,-0.4948,0.4613,0.0362,-33.1200,-4.7400,-29.3400,
10.051918,-0.3597,0.0421,-0.3622,-0.4948,0.4613,0.0362,-32.6400,-4.3800,-30.0000,
10.055770,-0.3597,0.0421,-0.3622,-0.4767,0.5939,-0.0085,-32.6400,-4.3800,-30.0000,
10.076719,-0.3597,0.0421,-0.3622,-0.4714,0.6349,-0.0421,-32.6400,-4.3800,-30.0000,
10.097658,-0.3597,0.0421,-0.3622,-0.4426,0.4783,0.0138,-32.6400,-4.3800,-30.0000,
10.109469,-0.3597,0.0421,-0.3622,-0.4426,0.4783,0.0138,-32.6400,-4.3800,-30.0000,
10.110208,-0.1822,0.0610,-0.3216,-0.4426,0.4783,0.0138,-32.6400,-4.3800,-30.0000,
10.113443,-0.1822,0.0610,-0.3216,-0.4426,0.4783,0.0138,-32.2800,-3.9000,-30.4800,
10.116948,-0.1822,0.0610,-0.3216,-0.3590,0.2514,0.0634,-32.2800,-3.9000,-30.4800,
10.138486,-0.1822,0.0610,-0.3216,-0.2301,0.0799,0.0879,-32.2800,-3.9000,-30.4800,
10.158490,-0.1822,0.0610,-0.3216,-0.1012,0.0181,0.0581,-32.2800,-3.9000,-30.4800,
10.171070,-0.1822,0.0610,-0.3216,-0.1012,0.0181,0.0581,-32.2800,-3.9000,-30.4800,
10.172349,0.2198,0.1232,-0.0736,-0.1012,0.0181,0.0581,-32.2800,-3.9000,-30.4800,
10.175245,0.2198,0.1232,-0.0736,-0.1012,0.0181,0.0581,-31.9800,-3.0000,-31.0200,
10.179098,0.2198,0.1232,-0.0736,-0.0192,0.0959,0.0144,-31.9800,-3.0000,-31.0200,
10.199532,0.2198,0.1232,-0.0736,-0.0714,0.1044,0.0064,-31.9800,-3.0000,-31.0200,
10.221493,0.2198,0.1232,-0.0736,-0.1630,0.0447,0.0170,-31.9800,-3.0000,-31.0200,
10.233081,0.2198,0.1232,-0.0736,-0.1630,0.0447,0.0170,-31.9800,-3.0000,-31.0200,
10.233691,0.0974,-0.1697,-0.3340,-0.1630,0.0447,0.0170,-31.9800,-3.0000,-31.0200,
10.237186,0.0974,-0.1697,-0.3340,-0.1630,0.0447,0.0170,-30.7800,-1.9800,-31.5000,
10.240915,0.0974,-0.1697,-0.3340,-0.2013,-0.0714,0.0921,-30.7800,-1.9800,-31.5000,
10.262039,0.0974,-0.1697,-0.3340,-0.1459,-0.1630,0.1193,-30.7800,-1.9800,-31.5000,
10.282145,0.0974,-0.1697,-0.3340,-0.0810,-0.2248,0.1326,-30.7800,-1.9800,-31.5000,
10.294095,0.0974,-0.1697,-0.3340,-0.0810,-0.2248,0.1326,-30.7800,-1.9800,-31.5000,
10.294590,0.6449,-0.4463,-0.0671,-0.0810,-0.2248,0.1326,-30.7800,-1.9800,-31.5000,
10.298563,0.6449,-0.4463,-0.0671,-0.0810,-0.2248,0.1326,-30.1200,-1.4400,-31.9200,
10.302788,0.6449,-0.4463,-0.0671,-0.0820,-0.1875,0.1092,-30.1200,-1.4400,-31.9200,
10.323119,0.6449,-0.4463,-0.0671,-0.1124,-0.1241,0.0447,-30.1200,-1.4400,-31.9200,
10.343634,0.6449,-0.4463,-0.0671,-0.0559,-0.0288,-0.0027,-30.1200,-1.4400,-31.9200,
10.356290,0.6449,-0.4463,-0.0671,-0.0559,-0.0288,-0.0027,-30.1200,-1.4400,-31.9200,
10.357484,-0.1714,-0.0782,-0.0836,-0.0559,-0.0288,-0.0027,-30.1200,-1.4400,-31.9200,
10.361513,-0.1714,-0.0782,-0.0836,-0.0559,-0.0288,-0.0027,-29.8200,-0.9600,-32.4000,
10.363479,-0.1714,-0.0782,-0.0836,0.0405,-0.0314,0.0272,-29.8200,-0.9600,-32.4000,
10.384584,-0.1714,-0.0782,-0.0836,0.0735,-0.0682,0.0703,-29.8200,-0.9600,-32.4000,
10.404558,-0.1714,-0.0782,-0.0836,0.0463,-0.0975,0.1129,-29.8200,-0.9600,-32.4000,
10.417760,-0.1714,-0.0782,-0.0836,0.0463,-0.0975,0.1129,-29.8200,-0.9600,-32.4000,
10.418323,-0.2007,0.4472,-0.2024,0.0463,-0.0975,0.1129,-29.8200,-0.9600,-32.4000,
10.422095,-0.2007,0.4472,-0.2024,0.0463,-0.0975,0.1129,-29.5200,-0.7200,-32.4000,
10.425600,-0.2007,0.4472,-0.2024,0.0037,-0.0975,0.1523,-29.5200,-0.7200,-32.4000,
10.445757,-0.2007,0.4472,-0.2024,0.0309,-0.1177,0.1555,-29.5200,-0.7200,-32.4000,
10.466696,-0.2007,0.4472,-0.2024,0.1023,-0.1017,0.0889,-29.5200,-0.7200,-32.4000,
10.478437,-0.2007,0.4472,-0.2024,0.1023,-0.1017,0.0889,-29.5200,-0.7200,-32.4000,
10.478749,0.1833,0.0732,-0.3023,0.1023,-0.1017,0.0889,-29.5200,-0.7200,-32.4000,
10.482815,0.1833,0.0732,-0.3023,0.1023,-0.1017,0.0889,-30.2400,-1.0800,-32.1600,
10.487172,0.1833,0.0732,-0.3023,0.1390,-0.0730,0.0405,-30.2400,-1.0800,-32.1600,
10.507129,0.1833,0.0732,-0.3023,0.1518,-0.0581,-0.0554,-30.2400,-1.0800,-32.1600,
10.527217,0.1833,0.0732,-0.3023,0.1896,-0.1374,-0.0826,-30.2400,-1.0800,-32.1600,
10.540092,0.1833,0.0732,-0.3023,0.1896,-0.1374,-0.0826,-30.2400,-1.0800,-32.1600,
10.540873,-0.2967,0.2661,-0.1766,0.1896,-0.1374,-0.0826,-30.2400,-1.0800,-32.1600,
10.544623,-0.2967,0.2661,-0.1766,0.1896,-0.1374,-0.0826,-30.1200,-0.8400,-32.2200,
10.548106,-0.2967,0.2661,-0.1766,0.2487,-0.2818,-0.0858,-30.1200,-0.8400,-32.2200,
10.569080,-0.2967,0.2661,-0.1766,0.2663,-0.3835,-0.1465,-30.1200,-0.8400,-32.2200,
10.589541,-0.2967,0.2661,-0.1766,0.2578,-0.4394,-0.1944,-30.1200,-0.8400,-32.2200,
10.601909,-0.2967,0.2661,-0.1766,0.2578,-0.4394,-0.1944,-30.1200,-0.8400,-32.2200,
10.602373,-0.7389,0.1129,-0.5487,0.2578,-0.4394,-0.1944,-30.1200,-0.8400,-32.2200,
10.606253,-0.7389,0.1129,-0.5487,0.2578,-0.4394,-0.1944,-30.2400,-0.7200,-31.9800,
10.609483,-0.7389,0.1129,-0.5487,0.3073,-0.5278,-0.2109,-30.2400,-0.7200,-31.9800,
10.630903,-0.7389,0.1129,-0.5487,0.3872,-0.6147,-0.2706,-30.2400,-0.7200,-31.9800,
10.652265,-0.7389,0.1129,-0.5487,0.4826,-0.6812,-0.3073,-30.2400,-0.7200,-31.9800,
10.664540,-0.7389,0.1129,-0.5487,0.4826,-0.6812,-0.3073,-30.2400,-0.7200,-31.9800,
10.665182,-0.3091,-0.0254,0.1608,0.4826,-0.6812,-0.3073,-30.2400,-0.7200,-31.9800,
10.669911,-0.3091,-0.0254,0.1608,0.4826,-0.6812,-0.3073,-30.9000,-0.9600,-31.2600,
10.672636,-0.3091,-0.0254,0.1608,0.5225,-0.7148,-0.2706,-30.9000,-0.9600,-31.2600,
10.692991,-0.3091,-0.0254,0.1608,0.5289,-0.6930,-0.2967,-30.9000,-0.9600,-31.2600,
10.713066,-0.3091,-0.0254,0.1608,0.5422,-0.6157,-0.3414,-30.9000,-0.9600,-31.2600,
10.726524,-0.3091,-0.0254,0.1608,0.5422,-0.6157,-0.3414,-30.9000,-0.9600,-31.2600,
10.727271,-0.4960,-1.4518,1.8028,0.5422,-0.6157,-0.3414,-30.9000,-0.9600,-31.2600,
10.729765,-0.4960,-1.4518,1.8028,0.5422,-0.6157,-0.3414,-31.3200,-1.3800,-30.6000,
10.733441,-0.4960,-1.4518,1.8028,0.5412,-0.5300,-0.3515,-31.3200,-1.3800,-30.6000,
10.754636,-0.4960,-1.4518,1.8028,0.4794,-0.5491,-0.3148,-31.3200,-1.3800,-30.6000,
10.774121,-0.4960,-1.4518,1.8028,0.4037,-0.6546,-0.2780,-31.3200,-1.3800,-30.6000,
10.787170,-0.4960,-1.4518,1.8028,0.4037,-0.6546,-0.2780,-31.3200,-1.3800,-30.6000,
10.787587,-0.6015,-0.7214,1.8542,0.4037,-0.6546,-0.2780,-31.3200,-1.3800,-30.6000,
10.791515,-0.6015,-0.7214,1.8542,0.4037,-0.6546,-0.2780,-32.2800,-2.5800,-29.1000,
10.795105,-0.6015,-0.7214,1.8542,0.3744,-0.6466,-0.2338,-32.2800,-2.5800,-29.1000,
10.815491,-0.6015,-0.7214,1.8542,0.3430,-0.4794,-0.1774,-32.2800,-2.5800,-29.1000,
10.836672,-0.6015,-0.7214,1.8542,0.3398,-0.1358,-0.1561,-32.2800,-2.5800,-29.1000,
10.849561,-0.6015,-0.7214,1.8542,0.3398,-0.1358,-0.1561,-32.2800,-2.5800,-29.1000,
10.850051,1.3410,-0.1420,0.7071,0.3398,-0.1358,-0.1561,-32.2800,-2.5800,-29.1000,
10.853362,1.3410,-0.1420,0.7071,0.3398,-0.1358,-0.1561,-33.2400,-3.9000,-27.9600,
10.856976,1.3410,-0.1420,0.7071,0.3414,0.3680,-0.1417,-33.2400,-3.9000,-27.9600,
10.878165,1.3410,-0.1420,0.7071,0.2791,0.8400,-0.0458,-33.2400,-3.9000,-27.9600,
10.897954,1.3410,-0.1420,0.7071,0.1449,1.2181,0.1694,-33.2400,-3.9000,-27.9600,
10.910545,1.3410,-0.1420,0.7071,0.1449,1.2181,0.1694,-33.2400,-3.9000,-27.9600,
10.911522,1.7696,-0.6759,-0.0393,0.1449,1.2181,0.1694,-33.2400,-3.9000,-27.9600,
10.915027,1.7696,-0.6759,-0.0393,0.1449,1.2181,0.1694,-34.0800,-5.4600,-27.1200,
10.919391,1.7696,-0.6759,-0.0393,-0.0032,1.5958,0.5529,-34.0800,-5.4600,-27.1200,
10.938541,1.7696,-0.6759,-0.0393,-0.0096,1.9473,0.7116,-34.0800,-5.4600,-27.1200,
10.959959,1.7696,-0.6759,-0.0393,0.0751,2.0597,0.5545,-34.0800,-5.4600,-27.1200,
10.972210,1.7696,-0.6759,-0.0393,0.0751,2.0597,0.5545,-34.0800,-5.4600,-27.1200,
10.973167,2.7136,-0.9260,3.7170,0.0751,2.0597,0.5545,-34.0800,-5.4600,-27.1200,
10.976207,2.7136,-0.9260,3.7170,0.0751,2.0597,0.5545,-34.5600,-6.5400,-27.1200,
10.979569,2.7136,-0.9260,3.7170,0.3601,1.7540,0.4447,-34.5600,-6.5400,-27.1200,
11.001712,2.7136,-0.9260,3.7170,0.9076,1.3838,0.4501,-34.5600,-6.5400,-27.1200,
11.020530,2.7136,-0.9260,3.7170,1.8094,0.9662,0.5433,-34.5600,-6.5400,-27.1200,
11.034294,2.7136,-0.9260,3.7170,1.8094,0.9662,0.5433,-34.5600,-6.5400,-27.1200,
11.034879,0.1867,-2.8943,8.9124,1.8094,0.9662,0.5433,-34.5600,-6.5400,-27.1200,
11.039328,0.1867,-2.8943,8.9124,1.8094,0.9662,0.5433,-34.0800,-6.8400,-28.2000,
11.042554,0.1867,-2.8943,8.9124,2.9204,0.1182,0.6440,-34.0800,-6.8400,-28.2000,
11.062620,0.1867,-2.8943,8.9124,3.4914,-0.5667,0.3872,-34.0800,-6.8400,-28.2000,
11.083426,0.1867,-2.8943,8.9124,3.5649,-0.2083,0.2956,-34.0800,-6.8400,-28.2000,
11.096106,0.1867,-2.8943,8.9124,3.5649,-0.2083,0.2956,-34.0800,-6.8400,-28.2000,
11.097065,3.1710,-2.7032,2.4886,3.5649,-0.2083,0.2956,-34.0800,-6.8400,-28.2000,
11.100673,3.1710,-2.7032,2.4886,3.5649,-0.2083,0.2956,-32.1600,-7.0200,-29.5200,
11.104029,3.1710,-2.7032,2.4886,3.6501,0.4075,0.4325,-32.1600,-7.0200,-29.5200,
11.124451,3.1710,-2.7032,2.4886,3.7817,0.5662,0.7872,-32.1600,-7.0200,-29.5200,
11.144260,3.1710,-2.7032,2.4886,3.9111,0.3441,1.2011,-32.1600,-7.0200,-29.5200,
11.157490,3.1710,-2.7032,2.4886,3.9111,0.3441,1.2011,-32.1600,-7.0200,-29.5200,
11.158583,-0.4239,-2.3828,-0.7300,3.9111,0.3441,1.2011,-32.1600,-7.0200,-29.5200,
11.161446,-0.4239,-2.3828,-0.7300,3.9111,0.3441,1.2011,-30.4200,-8.8200,-30.4800,
11.164511,-0.4239,-2.3828,-0.7300,4.0374,0.1577,1.6288,-30.4200,-8.8200,-30.4800,
11.185619,-0.4239,-2.3828,-0.7300,3.7764,-0.4075,1.8930,-30.4200,-8.8200,-30.4800,
11.206569,-0.4239,-2.3828,-0.7300,3.5617,-1.1958,1.8413,-30.4200,-8.8200,-30.4800,
11.220531,-0.4239,-2.3828,-0.7300,3.5617,-1.1958,1.8413,-30.4200,-8.8200,-30.4800,
11.221728,1.0467,1.3670,-3.8191,3.5617,-1.1958,1.8413,-30.4200,-8.8200,-30.4800,
11.224360,1.0467,1.3670,-3.8191,3.5617,-1.1958,1.8413,-29.3400,-11.3400,-29.8200,
11.226103,1.0467,1.3670,-3.8191,3.3039,-1.6597,1.4386,-29.3400,-11.3400,-29.8200,
11.247122,1.0467,1.3670,-3.8191,2.7739,-2.0336,0.9145,-29.3400,-11.3400,-29.8200,
11.267404,1.0467,1.3670,-3.8191,2.2754,-2.0112,0.4320,-29.3400,-11.3400,-29.8200,
11.280157,1.0467,1.3670,-3.8191,2.2754,-2.0112,0.4320,-29.3400,-11.3400,-29.8200,
11.280940,1.6468,2.2318,-6.9993,2.2754,-2.0112,0.4320,-29.3400,-11.3400,-29.8200,
11.285513,1.6468,2.2318,-6.9993,2.2754,-2.0112,0.4320,-29.7000,-15.6600,-27.2400,
11.287551,1.6468,2.2318,-6.9993,1.7747,-0.8714,0.5289,-29.7000,-15.6600,-27.2400,
11.308639,1.6468,2.2318,-6.9993,1.2464,-0.2461,0.7659,-29.7000,-15.6600,-27.2400,
11.328679,1.6468,2.2318,-6.9993,0.4389,-0.4144,0.9715,-29.7000,-15.6600,-27.2400,
11.341401,1.6468,2.2318,-6.9993,0.4389,-0.4144,0.9715,-29.7000,-15.6600,-27.2400,
11.342086,5.8822,2.9470,-6.0572,0.4389,-0.4144,0.9715,-29.7000,-15.6600,-27.2400,
11.345472,5.8822,2.9470,-6.0572,0.4389,-0.4144,0.9715,-31.9200,-20.2200,-22.3800,
11.348881,5.8822,2.9470,-6.0572,-0.7606,-1.2916,0.7334,-31.9200,-20.2200,-22.3800,
11.369867,5.8822,2.9470,-6.0572,-1.9926,-0.1001,0.6285,-31.9200,-20.2200,-22.3800,
11.391056,5.8822,2.9470,-6.0572,-1.8887,2.2738,0.3734,-31.9200,-20.2200,-22.3800,
11.405056,5.8822,2.9470,-6.0572,-1.8887,2.2738,0.3734,-31.9200,-20.2200,-22.3800,
11.405761,1.4548,4.6855,0.4093,-1.8887,2.2738,0.3734,-31.9200,-20.2200,-22.3800,
11.407179,1.4548,4.6855,0.4093,-1.8887,2.2738,0.3734,-34.3800,-22.2600,-17.5200,
11.410659,1.4548,4.6855,0.4093,-1.7566,2.5236,0.3846,-34.3800,-22.2600,-17.5200,
11.430970,1.4548,4.6855,0.4093,-1.8578,2.1923,1.2964,-34.3800,-22.2600,-17.5200,
11.451656,1.4548,4.6855,0.4093,-1.6991,1.7683,1.8152,-34.3800,-22.2600,-17.5200,
11.464273,1.4548,4.6855,0.4093,-1.6991,1.7683,1.8152,-34.3800,-22.2600,-17.5200,
11.464700,-1.0184,-12.3587,7.6421,-1.6991,1.7683,1.8152,-34.3800,-22.2600,-17.5200,
11.469175,-1.0184,-12.3587,7.6421,-1.6991,1.7683,1.8152,-36.3600,-22.8000,-15.4200,
11.472221,-1.0184,-12.3587,7.6421,-0.9215,-0.2423,1.1649,-36.3600,-22.8000,-15.4200,
11.492786,-1.0184,-12.3587,7.6421,-0.2546,-1.4823,0.6855,-36.3600,-22.8000,-15.4200,
11.513190,-1.0184,-12.3587,7.6421,-0.5662,-1.0328,0.3984,-36.3600,-22.8000,-15.4200,
11.525809,-1.0184,-12.3587,7.6421,-0.5662,-1.0328,0.3984,-36.3600,-22.8000,-15.4200,
11.526445,1.4748,4.3031,-2.1237,-0.5662,-1.0328,0.3984,-36.3600,-22.8000,-15.4200,
11.530326,1.4748,4.3031,-2.1237,-0.5662,-1.0328,0.3984,-37.3200,-20.8800,-15.4200,
11.535647,1.4748,4.3031,-2.1237,-1.3087,-0.0101,0.4714,-37.3200,-20.8800,-15.4200,
11.554297,1.4748,4.3031,-2.1237,-1.7220,0.6003,0.4666,-37.3200,-20.8800,-15.4200,
11.574883,1.4748,4.3031,-2.1237,-1.8344,0.6093,0.5992,-37.3200,-20.8800,-15.4200,
11.587588,1.4748,4.3031,-2.1237,-1.8344,0.6093,0.5992,-37.3200,-20.8800,-15.4200,
11.588095,0.4419,-4.0023,1.9096,-1.8344,0.6093,0.5992,-37.3200,-20.8800,-15.4200,
11.591586,0.4419,-4.0023,1.9096,-1.8344,0.6093,0.5992,-37.6800,-18.1200,-17.2200,
11.595099,0.4419,-4.0023,1.9096,-1.6996,0.2035,0.5076,-37.6800,-18.1200,-17.2200,
11.615985,0.4419,-4.0023,1.9096,-1.6112,0.0160,0.1364,-37.6800,-18.1200,-17.2200,
11.636614,0.4419,-4.0023,1.9096,-1.6506,0.2594,0.0597,-37.6800,-18.1200,-17.2200,
11.649172,0.4419,-4.0023,1.9096,-1.6506,0.2594,0.0597,-37.6800,-18.1200,-17.2200,
11.649496,0.2365,0.2847,0.5705,-1.6506,0.2594,0.0597,-37.6800,-18.1200,-17.2200,
11.653688,0.2365,0.2847,0.5705,-1.6506,0.2594,0.0597,-37.3200,-14.8800,-20.1000,
11.657019,0.2365,0.2847,0.5705,-1.8983,0.4218,0.2003,-37.3200,-14.8800,-20.1000,
11.678447,0.2365,0.2847,0.5705,-1.9984,0.3862,0.2599,-37.3200,-14.8800,-20.1000,
11.698958,0.2365,0.2847,0.5705,-1.7635,0.6812,0.1933,-37.3200,-14.8800,-20.1000,
11.711375,0.2365,0.2847,0.5705,-1.7635,0.6812,0.1933,-37.3200,-14.8800,-20.1000,
11.711880,0.2757,0.2995,0.2160,-1.7635,0.6812,0.1933,-37.3200,-14.8800,-20.1000,
11.715270,0.2757,0.2995,0.2160,-1.7635,0.6812,0.1933,-37.5600,-11.2800,-21.5400,
11.719375,0.2757,0.2995,0.2160,-1.3944,1.0258,0.0959,-37.5600,-11.2800,-21.5400,
11.739951,0.2757,0.2995,0.2160,-1.4003,0.8256,-0.1417,-37.5600,-11.2800,-21.5400,
11.760149,0.2757,0.2995,0.2160,-1.7225,0.5316,-0.5390,-37.5600,-11.2800,-21.5400,
11.773411,0.2757,0.2995,0.2160,-1.7225,0.5316,-0.5390,-37.5600,-11.2800,-21.5400,
11.774323,2.1780,0.9381,-0.8529,-1.7225,0.5316,-0.5390,-37.5600,-11.2800,-21.5400,
11.777702,2.1780,0.9381,-0.8529,-1.7225,0.5316,-0.5390,-37.2600,-7.8600,-22.0200,
11.780612,2.1780,0.9381,-0.8529,-1.8871,0.5081,-0.8906,-37.2600,-7.8600,-22.0200,
11.802120,2.1780,0.9381,-0.8529,-1.5585,0.8884,-1.1340,-37.2600,-7.8600,-22.0200,
11.821400,2.1780,0.9381,-0.8529,-1.0690,1.2613,-1.3550,-37.2600,-7.8600,-22.0200,
11.837322,2.1780,0.9381,-0.8529,-1.0690,1.2613,-1.3550,-37.2600,-7.8600,-22.0200,
11.838101,2.7830,-2.2306,1.1083,-1.0690,1.2613,-1.3550,-37.2600,-7.8600,-22.0200,
11.839138,2.7830,-2.2306,1.1083,-1.0690,1.2613,-1.3550,-36.4800,-5.1000,-23.0400,
11.842052,2.7830,-2.2306,1.1083,-0.8160,1.1835,-1.5446,-36.4800,-5.1000,-23.0400,
11.863447,2.7830,-2.2306,1.1083,-0.9135,0.7808,-1.5611,-36.4800,-5.1000,-23.0400,
11.884773,2.7830,-2.2306,1.1083,-0.8117,0.9422,-1.3816,-36.4800,-5.1000,-23.0400,
11.896973,2.7830,-2.2306,1.1083,-0.8117,0.9422,-1.3816,-36.4800,-5.1000,-23.0400,
11.897686,1.0481,0.0910,-0.7030,-0.8117,0.9422,-1.3816,-36.4800,-5.1000,-23.0400,
11.901186,1.0481,0.0910,-0.7030,-0.8117,0.9422,-1.3816,-35.7000,-3.2400,-24.8400,
11.903925,1.0481,0.0910,-0.7030,-0.5039,1.5169,-1.2948,-35.7000,-3.2400,-24.8400,
11.924019,1.0481,0.0910,-0.7030,-0.3419,1.7976,-1.3587,-35.7000,-3.2400,-24.8400,
11.945309,1.0481,0.0910,-0.7030,-0.3483,1.6821,-1.4173,-35.7000,-3.2400,-24.8400,
11.957398,1.0481,0.0910,-0.7030,-0.3483,1.6821,-1.4173,-35.7000,-3.2400,-24.8400,
11.958251,-1.4426,1.4511,-3.8199,-0.3483,1.6821,-1.4173,-35.7000,-3.2400,-24.8400,
11.961341,-1.4426,1.4511,-3.8199,-0.3483,1.6821,-1.4173,-34.0200,-2.4000,-26.1600,
11.965232,-1.4426,1.4511,-3.8199,-0.5625,1.4797,-1.3012,-34.0200,-2.4000,-26.1600,
11.985985,-1.4426,1.4511,-3.8199,-0.7659,1.6485,-1.0994,-34.0200,-2.4000,-26.1600,
12.005891,-1.4426,1.4511,-3.8199,-0.9119,2.5678,-1.0136,-34.0200,-2.4000,-26.1600,
12.019182,-1.4426,1.4511,-3.8199,-0.9119,2.5678,-1.0136,-34.0200,-2.4000,-26.1600,
12.020312,-3.6941,-1.6592,-0.2592,-0.9119,2.5678,-1.0136,-34.0200,-2.4000,-26.1600,
12.023740,-3.6941,-1.6592,-0.2592,-0.9119,2.5678,-1.0136,-32.1000,-2.5800,-27.8400,
12.027204,-3.6941,-1.6592,-0.2592,-1.1771,3.1079,-0.9342,-32.1000,-2.5800,-27.8400,
12.047674,-3.6941,-1.6592,-0.2592,-1.4211,2.5614,-0.7366,-32.1000,-2.5800,-27.8400,
12.068326,-3.6941,-1.6592,-0.2592,-1.0535,0.8234,-0.5902,-32.1000,-2.5800,-27.8400,
12.080981,-3.6941,-1.6592,-0.2592,-1.0535,0.8234,-0.5902,-32.1000,-2.5800,-27.8400,
12.081917,1.3711,-1.3114,8.6651,-1.0535,0.8234,-0.5902,-32.1000,-2.5800,-27.8400,
12.085353,1.3711,-1.3114,8.6651,-1.0535,0.8234,-0.5902,-28.9200,-2.6400,-30.3600,
12.088735,1.3711,-1.3114,8.6651,-0.3089,-1.1718,-0.4043,-28.9200,-2.6400,-30.3600,
12.108855,1.3711,-1.3114,8.6651,-0.0708,-1.8008,-0.3212,-28.9200,-2.6400,-30.3600,
12.129608,1.3711,-1.3114,8.6651,-0.1140,-1.2810,-0.4320,-28.9200,-2.6400,-30.3600,
12.141870,1.3711,-1.3114,8.6651,-0.1140,-1.2810,-0.4320,-28.9200,-2.6400,-30.3600,
12.142688,1.8737,1.4632,1.2525,-0.1140,-1.2810,-0.4320,-28.9200,-2.6400,-30.3600,
12.146494,1.8737,1.4632,1.2525,-0.1140,-1.2810,-0.4320,-25.3200,-2.5800,-32.3400,
12.149901,1.8737,1.4632,1.2525,-0.1284,-0.5428,-0.4400,-25.3200,-2.5800,-32.3400,
12.170682,1.8737,1.4632,1.2525,-0.1124,-0.1688,-0.3883,-25.3200,-2.5800,-32.3400,
12.191287,1.8737,1.4632,1.2525,-0.0304,-0.0644,-0.3595,-25.3200,-2.5800,-32.3400,
12.204015,1.8737,1.4632,1.2525,-0.0304,-0.0644,-0.3595,-25.3200,-2.5800,-32.3400,
12.204968,-0.5099,1.7320,0.8522,-0.0304,-0.0644,-0.3595,-25.3200,-2.5800,-32.3400,
12.208697,-0.5099,1.7320,0.8522,-0.0304,-0.0644,-0.3595,-23.2200,-1.9800,-34.0800,
12.212014,-0.5099,1.7320,0.8522,-0.0660,-0.1854,-0.2461,-23.2200,-1.9800,-34.0800,
12.232169,-0.5099,1.7320,0.8522,-0.2471,-0.2738,-0.1374,-23.2200,-1.9800,-34.0800,
12.253045,-0.5099,1.7320,0.8522,-0.4149,-0.2317,-0.1752,-23.2200,-1.9800,-34.0800,
12.265438,-0.5099,1.7320,0.8522,-0.4149,-0.2317,-0.1752,-23.2200,-1.9800,-34.0800,
12.265885,1.6807,1.5671,0.0978,-0.4149,-0.2317,-0.1752,-23.2200,-1.9800,-34.0800,
12.269877,1.6807,1.5671,0.0978,-0.4149,-0.2317,-0.1752,-22.1400,-1.2600,-35.0400,
12.273547,1.6807,1.5671,0.0978,-0.6109,-0.1369,-0.1800,-22.1400,-1.2600,-35.0400,
12.294705,1.6807,1.5671,0.0978,-0.7265,-0.1310,-0.1981,-22.1400,-1.2600,-35.0400,
12.314529,1.6807,1.5671,0.0978,-0.6147,-0.2317,-0.2136,-22.1400,-1.2600,-35.0400,
12.326932,1.6807,1.5671,0.0978,-0.6147,-0.2317,-0.2136,-22.1400,-1.2600,-35.0400,
12.327540,-0.1285,2.5756,0.5646,-0.6147,-0.2317,-0.2136,-22.1400,-1.2600,-35.0400,
12.330972,-0.1285,2.5756,0.5646,-0.6147,-0.2317,-0.2136,-22.2000,-0.5400,-34.8000,
12.334536,-0.1285,2.5756,0.5646,-0.5406,-0.3643,-0.2013,-22.2000,-0.5400,-34.8000,
12.355652,-0.1285,2.5756,0.5646,-0.7462,-0.5955,-0.1364,-22.2000,-0.5400,-34.8000,
12.376922,-0.1285,2.5756,0.5646,-0.8895,-0.8234,-0.0549,-22.2000,-0.5400,-34.8000,
12.388982,-0.1285,2.5756,0.5646,-0.8895,-0.8234,-0.0549,-22.2000,-0.5400,-34.8000,
12.389600,0.9611,-0.0269,3.2513,-0.8895,-0.8234,-0.0549,-22.2000,-0.5400,-34.8000,
12.392956,0.9611,-0.0269,3.2513,-0.8895,-0.8234,-0.0549,-23.5200,-0.1200,-34.4400,
12.396853,0.9611,-0.0269,3.2513,-0.6834,-0.8618,0.0309,-23.5200,-0.1200,-34.4400,
12.416698,0.9611,-0.0269,3.2513,-0.1257,-0.5827,0.0383,-23.5200,-0.1200,-34.4400,
12.437456,0.9611,-0.0269,3.2513,0.3483,-0.2285,-0.0517,-23.5200,-0.1200,-34.4400,
12.450361,0.9611,-0.0269,3.2513,0.3483,-0.2285,-0.0517,-23.5200,-0.1200,-34.4400,
12.450719,2.0199,-0.0995,2.1168,0.3483,-0.2285,-0.0517,-23.5200,-0.1200,-34.4400,
12.454316,2.0199,-0.0995,2.1168,0.3483,-0.2285,-0.0517,-23.8800,0.7800,-34.2000,
12.458349,2.0199,-0.0995,2.1168,-0.8756,-1.9090,-0.1486,-23.8800,0.7800,-34.2000,
12.478761,2.0199,-0.0995,2.1168,-0.9944,-1.8227,0.0549,-23.8800,0.7800,-34.2000,
12.498857,2.0199,-0.0995,2.1168,-0.8480,-1.0051,0.1316,-23.8800,0.7800,-34.2000,
12.511472,2.0199,-0.0995,2.1168,-0.8480,-1.0051,0.1316,-23.8800,0.7800,-34.2000,
12.512063,-0.0788,0.2782,0.9912,-0.8480,-1.0051,0.1316,-23.8800,0.7800,-34.2000,
12.515934,-0.0788,0.2782,0.9912,-0.8480,-1.0051,0.1316,-24.6600,1.7400,-34.1400,
12.521048,-0.0788,0.2782,0.9912,-0.3185,-0.2498,-0.0629,-24.6600,1.7400,-34.1400,
12.540108,-0.0788,0.2782,0.9912,0.2940,-0.0629,-0.1539,-24.6600,1.7400,-34.1400,
12.560634,-0.0788,0.2782,0.9912,1.0519,0.6141,-0.0623,-24.6600,1.7400,-34.1400,
12.573542,-0.0788,0.2782,0.9912,1.0519,0.6141,-0.0623,-24.6600,1.7400,-34.1400,
12.574276,0.4653,-0.8227,1.0000,1.0519,0.6141,-0.0623,-24.6600,1.7400,-34.1400,
12.580981,0.4653,-0.8227,1.0000,1.0519,0.6141,-0.0623,-26.4000,2.4600,-33.9000,
12.581344,0.4653,-0.8227,1.0000,1.1260,1.0924,-0.0197,-26.4000,2.4600,-33.9000,
12.601931,0.4653,-0.8227,1.0000,0.5886,1.2549,0.0932,-26.4000,2.4600,-33.9000,
12.622237,0.4653,-0.8227,1.0000,-0.3537,0.3068,0.2333,-26.4000,2.4600,-33.9000,
12.635944,0.4653,-0.8227,1.0000,-0.3537,0.3068,0.2333,-26.4000,2.4600,-33.9000,
12.636972,0.9792,-0.2185,-1.1775,-0.3537,0.3068,0.2333,-26.4000,2.4600,-33.9000,
12.639579,0.9792,-0.2185,-1.1775,-0.3537,0.3068,0.2333,-27.7200,2.7600,-33.0000,
12.643089,0.9792,-0.2185,-1.1775,-0.4746,0.0021,0.1949,-27.7200,2.7600,-33.0000,
12.663172,0.9792,-0.2185,-1.1775,0.1886,0.0740,0.1454,-27.7200,2.7600,-33.0000,
12.684988,0.9792,-0.2185,-1.1775,0.3116,0.1870,0.0783,-27.7200,2.7600,-33.0000,
12.696712,0.9792,-0.2185,-1.1775,0.3116,0.1870,0.0783,-27.7200,2.7600,-33.0000,
12.697248,1.9384,-0.9628,0.0377,0.3116,0.1870,0.0783,-27.7200,2.7600,-33.0000,
12.700645,1.9384,-0.9628,0.0377,0.3116,0.1870,0.0783,-28.3200,2.9400,-32.4600,
12.704792,1.9384,-0.9628,0.0377,-0.0064,0.0916,-0.0117,-28.3200,2.9400,-32.4600,
12.725948,1.9384,-0.9628,0.0377,-0.0858,-0.0527,-0.0181,-28.3200,2.9400,-32.4600,
12.745556,1.9384,-0.9628,0.0377,0.0005,-0.0053,-0.1039,-28.3200,2.9400,-32.4600,
12.758376,1.9384,-0.9628,0.0377,0.0005,-0.0053,-0.1039,-28.3200,2.9400,-32.4600,
12.759145,-0.4826,0.6361,-0.0606,0.0005,-0.0053,-0.1039,-28.3200,2.9400,-32.4600,
12.762477,-0.4826,0.6361,-0.0606,0.0005,-0.0053,-0.1039,-28.5600,3.0000,-31.9200,
12.765913,-0.4826,0.6361,-0.0606,-0.1449,-0.0655,0.0554,-28.5600,3.0000,-31.9200,
12.786923,-0.4826,0.6361,-0.0606,-0.2003,-0.1273,0.6621,-28.5600,3.0000,-31.9200,
12.807818,-0.4826,0.6361,-0.0606,-0.2035,-0.4043,0.6764,-28.5600,3.0000,-31.9200,
12.820129,-0.4826,0.6361,-0.0606,-0.2035,-0.4043,0.6764,-28.5600,3.0000,-31.9200,
12.821007,-0.1896,-2.1206,0.4892,-0.2035,-0.4043,0.6764,-28.5600,3.0000,-31.9200,
12.824525,-0.1896,-2.1206,0.4892,-0.2035,-0.4043,0.6764,-27.8400,2.7000,-31.7400,
12.828250,-0.1896,-2.1206,0.4892,-0.1502,-0.8021,0.6157,-27.8400,2.7000,-31.7400,
12.849061,-0.1896,-2.1206,0.4892,0.0575,-1.0722,0.6434,-27.8400,2.7000,-31.7400,
12.869025,-0.1896,-2.1206,0.4892,0.3281,-1.2943,1.0908,-27.8400,2.7000,-31.7400,
12.881864,-0.1896,-2.1206,0.4892,0.3281,-1.2943,1.0908,-27.8400,2.7000,-31.7400,
12.882418,-2.2545,-0.2783,0.2577,0.3281,-1.2943,1.0908,-27.8400,2.7000,-31.7400,
12.885768,-2.2545,-0.2783,0.2577,0.3281,-1.2943,1.0908,-27.4200,3.1800,-31.9200,
12.889303,-2.2545,-0.2783,0.2577,0.4133,-1.3944,1.9574,-27.4200,3.1800,-31.9200,
12.910334,-2.2545,-0.2783,0.2577,0.3478,-1.4014,2.2296,-27.4200,3.1800,-31.9200,
12.931057,-2.2545,-0.2783,0.2577,0.3515,-1.1638,2.3691,-27.4200,3.1800,-31.9200,
12.943986,-2.2545,-0.2783,0.2577,0.3515,-1.1638,2.3691,-27.4200,3.1800,-31.9200,
12.945313,3.3889,-1.0198,-0.7038,0.3515,-1.1638,2.3691,-27.4200,3.1800,-31.9200,
12.947765,3.3889,-1.0198,-0.7038,0.3515,-1.1638,2.3691,-27.9000,3.6600,-31.4400,
12.951224,3.3889,-1.0198,-0.7038,0.3627,-1.3342,1.9739,-27.9000,3.6600,-31.4400,
12.972072,3.3889,-1.0198,-0.7038,0.5326,-1.6474,1.1201,-27.9000,3.6600,-31.4400,
12.992314,3.3889,-1.0198,-0.7038,0.9294,-1.7199,0.6780,-27.9000,3.6600,-31.4400,
13.005481,3.3889,-1.0198,-0.7038,0.9294,-1.7199,0.6780,-27.9000,3.6600,-31.4400,
13.006558,2.1859,1.1703,0.9315,0.9294,-1.7199,0.6780,-27.9000,3.6600,-31.4400,
13.009846,2.1859,1.1703,0.9315,0.9294,-1.7199,0.6780,-29.0400,5.1000,-30.3000,
13.013270,2.1859,1.1703,0.9315,1.3603,-0.7989,0.5108,-29.0400,5.1000,-30.3000,
13.033888,2.1859,1.1703,0.9315,0.6631,-0.0575,0.3830,-29.0400,5.1000,-30.3000,
