
time,ax,ay,az,wx,wy,wz,Bx,By,Bz,
0.024575,0.0000,0.0000,0.0000,-0.0181,0.0708,0.0154,0.0000,0.0000,0.0000,
0.037011,0.0000,0.0000,0.0000,-0.0181,0.0708,0.0154,0.0000,0.0000,0.0000,
0.041212,0.0000,0.0000,0.0000,-0.0181,0.0708,0.0154,12.5400,-39.3600,15.6000,
0.044760,0.0000,0.0000,0.0000,-0.0181,0.0708,0.0154,12.5400,-39.3600,15.6000,
0.065640,0.0000,0.0000,0.0000,-0.0043,0.0128,-0.0479,12.5400,-39.3600,15.6000,
0.086287,0.0000,0.0000,0.0000,-0.0112,0.0330,-0.1380,12.5400,-39.3600,15.6000,
0.099009,0.0000,0.0000,0.0000,-0.0112,0.0330,-0.1380,12.5400,-39.3600,15.6000,
0.099664,-0.0983,-0.1843,0.0274,-0.0112,0.0330,-0.1380,12.5400,-39.3600,15.6000,
0.103789,-0.0983,-0.1843,0.0274,-0.0112,0.0330,-0.1380,-3.1800,-11.4000,-10.4400,
0.106800,-0.0983,-0.1843,0.0274,-0.0655,-0.0304,-0.0868,-3.1800,-11.4000,-10.4400,
0.127634,-0.0983,-0.1843,0.0274,-0.0905,0.0016,-0.0149,-3.1800,-11.4000,-10.4400,
0.147780,-0.0983,-0.1843,0.0274,-0.0644,0.0751,0.0479,-3.1800,-11.4000,-10.4400,
0.160224,-0.0983,-0.1843,0.0274,-0.0644,0.0751,0.0479,-3.1800,-11.4000,-10.4400,
0.160882,0.0618,-0.0235,0.2403,-0.0644,0.0751,0.0479,-3.1800,-11.4000,-10.4400,
0.164683,0.0618,-0.0235,0.2403,-0.0644,0.0751,0.0479,-11.2800,2.7000,-23.1600,
0.168084,0.0618,-0.0235,0.2403,-0.0394,0.0170,0.0463,-11.2800,2.7000,-23.1600,
0.188761,0.0618,-0.0235,0.2403,-0.0037,-0.0298,0.0149,-11.2800,2.7000,-23.1600,
0.209507,0.0618,-0.0235,0.2403,0.0048,-0.1310,0.0080,-11.2800,2.7000,-23.1600,
0.221727,0.0618,-0.0235,0.2403,0.0048,-0.1310,0.0080,-11.2800,2.7000,-23.1600,
0.222324,-0.1744,0.1344,0.0606,0.0048,-0.1310,0.0080,-11.2800,2.7000,-23.1600,
0.226383,-0.1744,0.1344,0.0606,0.0048,-0.1310,0.0080,-18.6600,17.4000,-36.1800,
0.229761,-0.1744,0.1344,0.0606,-0.0181,-0.1364,0.0186,-18.6600,17.4000,-36.1800,
0.250314,-0.1744,0.1344,0.0606,-0.0357,-0.1246,-0.0016,-18.6600,17.4000,-36.1800,
0.271342,-0.1744,0.1344,0.0606,-0.0543,-0.0533,-0.0224,-18.6600,17.4000,-36.1800,
0.283754,-0.1744,0.1344,0.0606,-0.0543,-0.0533,-0.0224,-18.6600,17.4000,-36.1800,
0.284445,-0.1368,0.0651,-0.0595,-0.0543,-0.0533,-0.0224,-18.6600,17.4000,-36.1800,
0.288225,-0.1368,0.0651,-0.0595,-0.0543,-0.0533,-0.0224,-18.4200,17.7000,-35.8800,
0.291573,-0.1368,0.0651,-0.0595,-0.1188,-0.0884,-0.0634,-18.4200,17.7000,-35.8800,
0.312428,-0.1368,0.0651,-0.0595,-0.1294,-0.1678,-0.1300,-18.4200,17.7000,-35.8800,
0.332631,-0.1368,0.0651,-0.0595,-0.1555,-0.1145,-0.2386,-18.4200,17.7000,-35.8800,
0.345358,-0.1368,0.0651,-0.0595,-0.1555,-0.1145,-0.2386,-18.4200,17.7000,-35.8800,
0.345950,0.0040,0.7569,-0.0515,-0.1555,-0.1145,-0.2386,-18.4200,17.7000,-35.8800,
0.349186,0.0040,0.7569,-0.0515,-0.1555,-0.1145,-0.2386,-18.6600,17.8200,-35.1000,
0.353148,0.0040,0.7569,-0.0515,-0.2152,0.0826,-0.3696,-18.6600,17.8200,-35.1000,
0.373184,0.0040,0.7569,-0.0515,-0.3244,0.3478,-0.6237,-18.6600,17.8200,-35.1000,
0.394049,0.0040,0.7569,-0.0515,-0.4591,0.5875,-0.8740,-18.6600,17.8200,-35.1000,
0.406365,0.0040,0.7569,-0.0515,-0.4591,0.5875,-0.8740,-18.6600,17.8200,-35.1000,
0.406969,0.4344,2.0634,-0.4218,-0.4591,0.5875,-0.8740,-18.6600,17.8200,-35.1000,
0.410985,0.4344,2.0634,-0.4218,-0.4591,0.5875,-0.8740,-18.4200,17.8800,-34.8000,
0.414179,0.4344,2.0634,-0.4218,-0.5934,0.8778,-1.1718,-18.4200,17.8800,-34.8000,
0.435027,0.4344,2.0634,-0.4218,-0.7159,0.6823,-1.4115,-18.4200,17.8800,-34.8000,
0.455199,0.4344,2.0634,-0.4218,-0.5422,0.3180,-1.5926,-18.4200,17.8800,-34.8000,
0.468209,0.4344,2.0634,-0.4218,-0.5422,0.3180,-1.5926,-18.4200,17.8800,-34.8000,
0.468845,2.5320,4.6707,1.0634,-0.5422,0.3180,-1.5926,-18.4200,17.8800,-34.8000,
0.472903,2.5320,4.6707,1.0634,-0.5422,0.3180,-1.5926,-18.6600,17.9400,-34.4400,
0.476539,2.5320,4.6707,1.0634,-0.0298,0.6434,-2.0655,-18.6600,17.9400,-34.4400,
0.496696,2.5320,4.6707,1.0634,0.4043,0.7665,-2.5513,-18.6600,17.9400,-34.4400,
0.518563,2.5320,4.6707,1.0634,0.3233,-0.0559,-2.2280,-18.6600,17.9400,-34.4400,
0.530127,2.5320,4.6707,1.0634,0.3233,-0.0559,-2.2280,-18.6600,17.9400,-34.4400,
0.531228,-3.5705,-6.1609,-1.6302,0.3233,-0.0559,-2.2280,-18.6600,17.9400,-34.4400,
0.536051,-3.5705,-6.1609,-1.6302,0.3233,-0.0559,-2.2280,-18.6600,17.8800,-34.3200,
0.537271,-3.5705,-6.1609,-1.6302,-0.2296,-1.7071,-0.0559,-18.6600,17.8800,-34.3200,
0.558166,-3.5705,-6.1609,-1.6302,-0.7020,-2.8597,2.0437,-18.6600,17.8800,-34.3200,
0.579591,-3.5705,-6.1609,-1.6302,-0.4799,-1.7678,1.5042,-18.6600,17.8800,-34.3200,
0.591335,-3.5705,-6.1609,-1.6302,-0.4799,-1.7678,1.5042,-18.6600,17.8800,-34.3200,
0.592242,2.4853,-1.1074,2.0082,-0.4799,-1.7678,1.5042,-18.6600,17.8800,-34.3200,
0.595810,2.4853,-1.1074,2.0082,-0.4799,-1.7678,1.5042,-19.0800,17.1600,-34.8600,
0.599166,2.4853,-1.1074,2.0082,0.0650,-0.9001,1.7039,-19.0800,17.1600,-34.8600,
0.619624,2.4853,-1.1074,2.0082,0.6328,-0.4692,2.1987,-19.0800,17.1600,-34.8600,
0.640340,2.4853,-1.1074,2.0082,0.8906,0.3238,1.8472,-19.0800,17.1600,-34.8600,
0.652910,2.4853,-1.1074,2.0082,0.8906,0.3238,1.8472,-19.0800,17.1600,-34.8600,
0.653846,3.1204,4.3398,-1.3715,0.8906,0.3238,1.8472,-19.0800,17.1600,-34.8600,
0.657433,3.1204,4.3398,-1.3715,0.8906,0.3238,1.8472,-20.1000,17.5200,-33.9000,
0.660483,3.1204,4.3398,-1.3715,0.9183,0.6253,1.3555,-20.1000,17.5200,-33.9000,
0.681553,3.1204,4.3398,-1.3715,0.8160,1.0322,0.3601,-20.1000,17.5200,-33.9000,
0.701884,3.1204,4.3398,-1.3715,0.7052,1.8962,-0.6344,-20.1000,17.5200,-33.9000,
0.714743,3.1204,4.3398,-1.3715,0.7052,1.8962,-0.6344,-20.1000,17.5200,-33.9000,
0.716226,-3.5559,-3.2594,-1.1981,0.7052,1.8962,-0.6344,-20.1000,17.5200,-33.9000,
0.719986,-3.5559,-3.2594,-1.1981,0.7052,1.8962,-0.6344,-21.0000,17.5800,-33.4800,
0.722730,-3.5559,-3.2594,-1.1981,0.4751,2.4182,-0.6738,-21.0000,17.5800,-33.4800,
0.743194,-3.5559,-3.2594,-1.1981,0.4938,1.8200,0.0778,-21.0000,17.5800,-33.4800,
0.763543,-3.5559,-3.2594,-1.1981,0.5710,0.7265,0.0469,-21.0000,17.5800,-33.4800,
0.776805,-3.5559,-3.2594,-1.1981,0.5710,0.7265,0.0469,-21.0000,17.5800,-33.4800,
0.777606,-0.1169,0.8655,1.3233,0.5710,0.7265,0.0469,-21.0000,17.5800,-33.4800,
0.780551,-0.1169,0.8655,1.3233,0.5710,0.7265,0.0469,-20.8800,18.0600,-33.5400,
0.783551,-0.1169,0.8655,1.3233,0.2365,0.0266,0.0948,-20.8800,18.0600,-33.5400,
0.805395,-0.1169,0.8655,1.3233,-0.1790,-0.2567,0.1374,-20.8800,18.0600,-33.5400,
0.824684,-0.1169,0.8655,1.3233,-0.3483,-0.4964,0.0463,-20.8800,18.0600,-33.5400,
0.838199,-0.1169,0.8655,1.3233,-0.3483,-0.4964,0.0463,-20.8800,18.0600,-33.5400,
0.839616,1.1784,-0.6547,0.0726,-0.3483,-0.4964,0.0463,-20.8800,18.0600,-33.5400,
0.841905,1.1784,-0.6547,0.0726,-0.3483,-0.4964,0.0463,-19.0200,18.4800,-33.5400,
0.845510,1.1784,-0.6547,0.0726,-0.3265,-0.6823,-0.0426,-19.0200,18.4800,-33.5400,
0.865862,1.1784,-0.6547,0.0726,-0.2328,-0.6328,-0.0714,-19.0200,18.4800,-33.5400,
0.887075,1.1784,-0.6547,0.0726,-0.1225,-0.2503,-0.0810,-19.0200,18.4800,-33.5400,
0.899496,1.1784,-0.6547,0.0726,-0.1225,-0.2503,-0.0810,-19.0200,18.4800,-33.5400,
0.900133,-0.1229,-0.1399,-0.2268,-0.1225,-0.2503,-0.0810,-19.0200,18.4800,-33.5400,
0.903947,-0.1229,-0.1399,-0.2268,-0.1225,-0.2503,-0.0810,-17.5800,17.8800,-34.7400,
0.906750,-0.1229,-0.1399,-0.2268,0.0107,0.1870,-0.0043,-17.5800,17.8800,-34.7400,
0.928068,-0.1229,-0.1399,-0.2268,0.1310,0.3734,0.0740,-17.5800,17.8800,-34.7400,
0.948251,-0.1229,-0.1399,-0.2268,0.2141,0.3340,0.1209,-17.5800,17.8800,-34.7400,
0.960943,-0.1229,-0.1399,-0.2268,0.2141,0.3340,0.1209,-17.5800,17.8800,-34.7400,
0.962037,0.1536,-0.1051,0.6941,0.2141,0.3340,0.1209,-17.5800,17.8800,-34.7400,
0.965193,0.1536,-0.1051,0.6941,0.2141,0.3340,0.1209,-15.9000,17.5200,-35.7600,
0.968776,0.1536,-0.1051,0.6941,0.1822,0.1822,0.1348,-15.9000,17.5200,-35.7600,
0.988929,0.1536,-0.1051,0.6941,0.0858,0.0415,0.1284,-15.9000,17.5200,-35.7600,
1.010525,0.1536,-0.1051,0.6941,0.0533,-0.0373,0.1236,-15.9000,17.5200,-35.7600,
1.022253,0.1536,-0.1051,0.6941,0.0533,-0.0373,0.1236,-15.9000,17.5200,-35.7600,
1.023634,0.2981,-0.3483,0.4540,0.0533,-0.0373,0.1236,-15.9000,17.5200,-35.7600,
1.027343,0.2981,-0.3483,0.4540,0.0533,-0.0373,0.1236,-16.0800,17.0400,-36.2400,
1.030349,0.2981,-0.3483,0.4540,0.1049,-0.0240,0.1294,-16.0800,17.0400,-36.2400,
1.051247,0.2981,-0.3483,0.4540,0.1395,-0.0149,0.1427,-16.0800,17.0400,-36.2400,
1.070893,0.2981,-0.3483,0.4540,0.1497,0.0261,0.1545,-16.0800,17.0400,-36.2400,
1.085413,0.2981,-0.3483,0.4540,0.1497,0.0261,0.1545,-16.0800,17.0400,-36.2400,
1.086208,-0.1387,-0.0801,-0.1284,0.1497,0.0261,0.1545,-16.0800,17.0400,-36.2400,
1.088776,-0.1387,-0.0801,-0.1284,0.1497,0.0261,0.1545,-16.5000,17.5200,-36.5400,
1.092093,-0.1387,-0.0801,-0.1284,0.1177,0.1193,0.1438,-16.5000,17.5200,-36.5400,
1.112745,-0.1387,-0.0801,-0.1284,0.0858,0.2413,0.0847,-16.5000,17.5200,-36.5400,
1.133101,-0.1387,-0.0801,-0.1284,0.0730,0.3244,0.0123,-16.5000,17.5200,-36.5400,
1.145833,-0.1387,-0.0801,-0.1284,0.0730,0.3244,0.0123,-16.5000,17.5200,-36.5400,
1.146674,0.1418,0.3115,0.2444,0.0730,0.3244,0.0123,-16.5000,17.5200,-36.5400,
1.149721,0.1418,0.3115,0.2444,0.0730,0.3244,0.0123,-16.6200,17.8200,-36.8400,
1.153563,0.1418,0.3115,0.2444,0.0943,0.3121,-0.0490,-16.6200,17.8200,-36.8400,
1.173852,0.1418,0.3115,0.2444,0.0123,0.2184,-0.0549,-16.6200,17.8200,-36.8400,
1.194290,0.1418,0.3115,0.2444,-0.1332,0.1214,-0.0234,-16.6200,17.8200,-36.8400,
1.207138,0.1418,0.3115,0.2444,-0.1332,0.1214,-0.0234,-16.6200,17.8200,-36.8400,
1.207740,-0.4677,0.0655,0.0089,-0.1332,0.1214,-0.0234,-16.6200,17.8200,-36.8400,
1.211567,-0.4677,0.0655,0.0089,-0.1332,0.1214,-0.0234,-16.6800,17.4000,-37.0800,
1.215018,-0.4677,0.0655,0.0089,-0.2929,-0.0176,0.0229,-16.6800,17.4000,-37.0800,
1.235268,-0.4677,0.0655,0.0089,-0.3979,-0.3127,0.0724,-16.6800,17.4000,-37.0800,
1.256069,-0.4677,0.0655,0.0089,-0.4085,-0.5433,0.0597,-16.6800,17.4000,-37.0800,
1.268558,-0.4677,0.0655,0.0089,-0.4085,-0.5433,0.0597,-16.6800,17.4000,-37.0800,
1.269498,0.5552,-0.1142,-0.3969,-0.4085,-0.5433,0.0597,-16.6800,17.4000,-37.0800,
1.273021,0.5552,-0.1142,-0.3969,-0.4085,-0.5433,0.0597,-15.9000,17.3400,-37.5600,
1.276745,0.5552,-0.1142,-0.3969,-0.3649,-0.4570,0.0032,-15.9000,17.3400,-37.5600,
1.298453,0.5552,-0.1142,-0.3969,-0.3068,-0.1342,0.0266,-15.9000,17.3400,-37.5600,
1.318061,0.5552,-0.1142,-0.3969,-0.3041,0.3505,0.0368,-15.9000,17.3400,-37.5600,
1.330799,0.5552,-0.1142,-0.3969,-0.3041,0.3505,0.0368,-15.9000,17.3400,-37.5600,
1.331727,1.2832,-0.5750,-0.7924,-0.3041,0.3505,0.0368,-15.9000,17.3400,-37.5600,
1.335415,1.2832,-0.5750,-0.7924,-0.3041,0.3505,0.0368,-16.0800,17.4000,-37.0200,
1.338351,1.2832,-0.5750,-0.7924,-0.3260,0.6456,-0.0202,-16.0800,17.4000,-37.0200,
1.358649,1.2832,-0.5750,-0.7924,-0.3270,0.6876,-0.1150,-16.0800,17.4000,-37.0200,
1.380462,1.2832,-0.5750,-0.7924,-0.3574,0.5934,-0.2578,-16.0800,17.4000,-37.0200,
1.392014,1.2832,-0.5750,-0.7924,-0.3574,0.5934,-0.2578,-16.0800,17.4000,-37.0200,
1.393045,1.0170,-0.0979,-0.3819,-0.3574,0.5934,-0.2578,-16.0800,17.4000,-37.0200,
1.396771,1.0170,-0.0979,-0.3819,-0.3574,0.5934,-0.2578,-15.3600,17.9400,-36.5400,
1.399783,1.0170,-0.0979,-0.3819,-0.4282,0.5784,-0.3723,-15.3600,17.9400,-36.5400,
1.420277,1.0170,-0.0979,-0.3819,-0.4085,0.5848,-0.4447,-15.3600,17.9400,-36.5400,
1.440561,1.0170,-0.0979,-0.3819,-0.2482,0.5502,-0.4740,-15.3600,17.9400,-36.5400,
1.453211,1.0170,-0.0979,-0.3819,-0.2482,0.5502,-0.4740,-15.3600,17.9400,-36.5400,
1.454206,-0.3709,-0.3861,0.7580,-0.2482,0.5502,-0.4740,-15.3600,17.9400,-36.5400,
1.457603,-0.3709,-0.3861,0.7580,-0.2482,0.5502,-0.4740,-14.5200,18.9000,-36.2400,
1.461270,-0.3709,-0.3861,0.7580,-0.1806,0.4810,-0.4884,-14.5200,18.9000,-36.2400,
1.481792,-0.3709,-0.3861,0.7580,-0.2839,0.5193,-0.5550,-14.5200,18.9000,-36.2400,
1.502481,-0.3709,-0.3861,0.7580,-0.4117,0.4240,-0.5960,-14.5200,18.9000,-36.2400,
1.515041,-0.3709,-0.3861,0.7580,-0.4117,0.4240,-0.5960,-14.5200,18.9000,-36.2400,
1.516017,0.0079,0.4933,-0.5395,-0.4117,0.4240,-0.5960,-14.5200,18.9000,-36.2400,
1.519645,0.0079,0.4933,-0.5395,-0.4117,0.4240,-0.5960,-14.1000,19.5600,-35.5800,
1.522676,0.0079,0.4933,-0.5395,-0.5113,0.2567,-0.6296,-14.1000,19.5600,-35.5800,
1.544122,0.0079,0.4933,-0.5395,-0.5140,0.2125,-0.6487,-14.1000,19.5600,-35.5800,
1.563769,0.0079,0.4933,-0.5395,-0.3910,0.2232,-0.6008,-14.1000,19.5600,-35.5800,
1.577228,0.0079,0.4933,-0.5395,-0.3910,0.2232,-0.6008,-14.1000,19.5600,-35.5800,
1.580165,-0.4510,0.0246,-0.2388,-0.3910,0.2232,-0.6008,-14.1000,19.5600,-35.5800,
1.583305,-0.4510,0.0246,-0.2388,-0.3910,0.2232,-0.6008,-13.3200,20.1000,-35.9400,
1.584668,-0.4510,0.0246,-0.2388,-0.1965,0.3329,-0.4778,-13.3200,20.1000,-35.9400,
1.607786,-0.4510,0.0246,-0.2388,-0.0772,0.6232,-0.3819,-13.3200,20.1000,-35.9400,
1.626198,-0.4510,0.0246,-0.2388,-0.0453,0.7862,-0.2876,-13.3200,20.1000,-35.9400,
1.637887,-0.4510,0.0246,-0.2388,-0.0453,0.7862,-0.2876,-13.3200,20.1000,-35.9400,
1.638611,0.0413,-0.0890,-0.0326,-0.0453,0.7862,-0.2876,-13.3200,20.1000,-35.9400,
1.643233,0.0413,-0.0890,-0.0326,-0.0453,0.7862,-0.2876,-12.7200,20.2200,-36.2400,
1.645626,0.0413,-0.0890,-0.0326,-0.0719,0.6301,-0.2471,-12.7200,20.2200,-36.2400,
1.666639,0.0413,-0.0890,-0.0326,-0.1582,0.3989,-0.2929,-12.7200,20.2200,-36.2400,
1.686703,0.0413,-0.0890,-0.0326,-0.2695,0.1204,-0.4139,-12.7200,20.2200,-36.2400,
1.699894,0.0413,-0.0890,-0.0326,-0.2695,0.1204,-0.4139,-12.7200,20.2200,-36.2400,
1.700792,0.4593,-0.0375,-0.6129,-0.2695,0.1204,-0.4139,-12.7200,20.2200,-36.2400,
1.704026,0.4593,-0.0375,-0.6129,-0.2695,0.1204,-0.4139,-12.7200,20.4000,-36.0000,
1.707741,0.4593,-0.0375,-0.6129,-0.3409,-0.1166,-0.5049,-12.7200,20.4000,-36.0000,
1.728112,0.4593,-0.0375,-0.6129,-0.3233,-0.3579,-0.4953,-12.7200,20.4000,-36.0000,
1.749197,0.4593,-0.0375,-0.6129,-0.3638,-0.5731,-0.4160,-12.7200,20.4000,-36.0000,
1.761223,0.4593,-0.0375,-0.6129,-0.3638,-0.5731,-0.4160,-12.7200,20.4000,-36.0000,
1.762261,-0.2805,0.8317,-0.5683,-0.3638,-0.5731,-0.4160,-12.7200,20.4000,-36.0000,
1.765699,-0.2805,0.8317,-0.5683,-0.3638,-0.5731,-0.4160,-12.1800,20.7600,-36.3000,
1.768983,-0.2805,0.8317,-0.5683,-0.3846,-0.6844,-0.3356,-12.1800,20.7600,-36.3000,
1.789814,-0.2805,0.8317,-0.5683,-0.2290,-0.4410,-0.3579,-12.1800,20.7600,-36.3000,
1.810101,-0.2805,0.8317,-0.5683,-0.2668,-0.2296,-0.5007,-12.1800,20.7600,-36.3000,
1.822688,-0.2805,0.8317,-0.5683,-0.2668,-0.2296,-0.5007,-12.1800,20.7600,-36.3000,
1.823674,0.8251,0.2287,-1.4003,-0.2668,-0.2296,-0.5007,-12.1800,20.7600,-36.3000,
1.827551,0.8251,0.2287,-1.4003,-0.2668,-0.2296,-0.5007,-12.1200,20.8800,-35.9400,
1.830845,0.8251,0.2287,-1.4003,-0.5497,-0.1119,-0.6232,-12.1200,20.8800,-35.9400,
1.851468,0.8251,0.2287,-1.4003,-0.7760,-0.1603,-0.6093,-12.1200,20.8800,-35.9400,
1.871950,0.8251,0.2287,-1.4003,-0.5417,-0.3792,-0.4501,-12.1200,20.8800,-35.9400,
1.885442,0.8251,0.2287,-1.4003,-0.5417,-0.3792,-0.4501,-12.1200,20.8800,-35.9400,
1.886244,-0.7216,1.4549,2.6455,-0.5417,-0.3792,-0.4501,-12.1200,20.8800,-35.9400,
1.888650,-0.7216,1.4549,2.6455,-0.5417,-0.3792,-0.4501,-13.0200,20.8200,-35.2800,
1.891697,-0.7216,1.4549,2.6455,0.0298,-0.3755,-0.3063,-13.0200,20.8200,-35.2800,
1.913016,-0.7216,1.4549,2.6455,-0.0064,-0.2514,-0.3819,-13.0200,20.8200,-35.2800,
1.933311,-0.7216,1.4549,2.6455,-0.5481,0.2530,-0.6226,-13.0200,20.8200,-35.2800,
1.946385,-0.7216,1.4549,2.6455,-0.5481,0.2530,-0.6226,-13.0200,20.8200,-35.2800,
1.947756,0.0419,-0.1910,-1.9870,-0.5481,0.2530,-0.6226,-13.0200,20.8200,-35.2800,
1.950114,0.0419,-0.1910,-1.9870,-0.5481,0.2530,-0.6226,-13.6200,21.0600,-34.9200,
1.953849,0.0419,-0.1910,-1.9870,-1.0551,0.3308,-0.6285,-13.6200,21.0600,-34.9200,
1.973945,0.0419,-0.1910,-1.9870,-1.2011,-0.2653,-0.6099,-13.6200,21.0600,-34.9200,
1.995017,0.0419,-0.1910,-1.9870,-1.0269,-0.9481,-0.7750,-13.6200,21.0600,-34.9200,
2.007340,0.0419,-0.1910,-1.9870,-1.0269,-0.9481,-0.7750,-13.6200,21.0600,-34.9200,
2.009122,2.5198,3.0693,-0.1933,-1.0269,-0.9481,-0.7750,-13.6200,21.0600,-34.9200,
2.012447,2.5198,3.0693,-0.1933,-1.0269,-0.9481,-0.7750,-14.5200,21.4800,-33.7800,
2.015028,2.5198,3.0693,-0.1933,-1.0248,-0.9108,-1.0759,-14.5200,21.4800,-33.7800,
2.035928,2.5198,3.0693,-0.1933,-1.2085,-0.3744,-1.3534,-14.5200,21.4800,-33.7800,
2.056585,2.5198,3.0693,-0.1933,-1.4839,0.1422,-1.4498,-14.5200,21.4800,-33.7800,
2.068890,2.5198,3.0693,-0.1933,-1.4839,0.1422,-1.4498,-14.5200,21.4800,-33.7800,
2.069474,1.6812,1.4203,-0.6515,-1.4839,0.1422,-1.4498,-14.5200,21.4800,-33.7800,
2.073178,1.6812,1.4203,-0.6515,-1.4839,0.1422,-1.4498,-15.7800,22.3200,-33.0000,
2.077040,1.6812,1.4203,-0.6515,-1.4365,0.4964,-1.4658,-15.7800,22.3200,-33.0000,
2.097321,1.6812,1.4203,-0.6515,-1.2096,0.5822,-1.4855,-15.7800,22.3200,-33.0000,
2.118316,1.6812,1.4203,-0.6515,-1.1217,0.8602,-1.5670,-15.7800,22.3200,-33.0000,
2.130790,1.6812,1.4203,-0.6515,-1.1217,0.8602,-1.5670,-15.7800,22.3200,-33.0000,
2.132029,1.5723,0.0473,-0.9621,-1.1217,0.8602,-1.5670,-15.7800,22.3200,-33.0000,
2.135467,1.5723,0.0473,-0.9621,-1.1217,0.8602,-1.5670,-16.8000,23.5200,-31.8000,
2.138387,1.5723,0.0473,-0.9621,-1.2879,1.4296,-1.7279,-16.8000,23.5200,-31.8000,
2.159959,1.5723,0.0473,-0.9621,-1.4440,1.6123,-1.8999,-16.8000,23.5200,-31.8000,
2.179182,1.5723,0.0473,-0.9621,-1.5654,1.5132,-2.0773,-16.8000,23.5200,-31.8000,
2.192162,1.5723,0.0473,-0.9621,-1.5654,1.5132,-2.0773,-16.8000,23.5200,-31.8000,
2.193121,-0.6405,1.8259,1.5286,-1.5654,1.5132,-2.0773,-16.8000,23.5200,-31.8000,
2.196502,-0.6405,1.8259,1.5286,-1.5654,1.5132,-2.0773,-18.0600,24.6600,-30.4200,
2.199957,-0.6405,1.8259,1.5286,-1.9287,1.4264,-2.4235,-18.0600,24.6600,-30.4200,
2.220851,-0.6405,1.8259,1.5286,-2.5795,1.3060,-2.8219,-18.0600,24.6600,-30.4200,
2.241059,-0.6405,1.8259,1.5286,-2.9993,1.0983,-2.9716,-18.0600,24.6600,-30.4200,
2.253580,-0.6405,1.8259,1.5286,-2.9993,1.0983,-2.9716,-18.0600,24.6600,-30.4200,
2.254481,-4.4674,2.5708,4.0090,-2.9993,1.0983,-2.9716,-18.0600,24.6600,-30.4200,
2.257937,-4.4674,2.5708,4.0090,-2.9993,1.0983,-2.9716,-19.5000,25.5000,-29.7600,
2.261261,-4.4674,2.5708,4.0090,-2.9518,0.9859,-2.8192,-19.5000,25.5000,-29.7600,
2.282114,-4.4674,2.5708,4.0090,-2.6371,0.9571,-2.4677,-19.5000,25.5000,-29.7600,
2.302642,-4.4674,2.5708,4.0090,-2.3723,1.0669,-2.1785,-19.5000,25.5000,-29.7600,
2.315651,-4.4674,2.5708,4.0090,-2.3723,1.0669,-2.1785,-19.5000,25.5000,-29.7600,
2.316579,-6.8903,2.8999,6.5299,-2.3723,1.0669,-2.1785,-19.5000,25.5000,-29.7600,
2.319810,-6.8903,2.8999,6.5299,-2.3723,1.0669,-2.1785,-20.7000,26.0400,-28.2600,
2.323340,-6.8903,2.8999,6.5299,-2.2381,1.3710,-2.0576,-20.7000,26.0400,-28.2600,
2.343815,-6.8903,2.8999,6.5299,-2.4080,1.4813,-2.1912,-20.7000,26.0400,-28.2600,
2.364614,-6.8903,2.8999,6.5299,-2.5028,1.1872,-2.3399,-20.7000,26.0400,-28.2600,
2.376618,-6.8903,2.8999,6.5299,-2.5028,1.1872,-2.3399,-20.7000,26.0400,-28.2600,
2.377459,-6.5474,3.2831,5.3012,-2.5028,1.1872,-2.3399,-20.7000,26.0400,-28.2600,
2.381086,-6.5474,3.2831,5.3012,-2.5028,1.1872,-2.3399,-21.4800,26.9400,-27.2400,
2.384797,-6.5474,3.2831,5.3012,-2.7686,0.4133,-2.3143,-21.4800,26.9400,-27.2400,
2.405247,-6.5474,3.2831,5.3012,-2.9550,-0.4794,-2.0821,-21.4800,26.9400,-27.2400,
2.427057,-6.5474,3.2831,5.3012,-2.5220,-1.1590,-1.8482,-21.4800,26.9400,-27.2400,
2.438185,-6.5474,3.2831,5.3012,-2.5220,-1.1590,-1.8482,-21.4800,26.9400,-27.2400,
2.439358,-5.0357,4.3525,10.1058,-2.5220,-1.1590,-1.8482,-21.4800,26.9400,-27.2400,
2.443404,-5.0357,4.3525,10.1058,-2.5220,-1.1590,-1.8482,-22.0800,28.0800,-25.5600,
2.446353,-5.0357,4.3525,10.1058,-1.6623,-1.5862,-1.7529,-22.0800,28.0800,-25.5600,
2.466796,-5.0357,4.3525,10.1058,-6.6227,-17.4522,-9.1575,-22.0800,28.0800,-25.5600,
2.487100,-5.0357,4.3525,10.1058,2.3697,10.8455,0.9902,-22.0800,28.0800,-25.5600,
2.500060,-5.0357,4.3525,10.1058,2.3697,10.8455,0.9902,-22.0800,28.0800,-25.5600,
2.500859,22.7718,-7.5058,-22.8834,2.3697,10.8455,0.9902,-22.0800,28.0800,-25.5600,
2.505282,22.7718,-7.5058,-22.8834,2.3697,10.8455,0.9902,-23.2800,29.4600,-22.5600,
2.507656,22.7718,-7.5058,-22.8834,-1.6341,-1.5963,-0.3441,-23.2800,29.4600,-22.5600,
2.528738,22.7718,-7.5058,-22.8834,0.5960,-0.2993,0.0570,-23.2800,29.4600,-22.5600,
2.548873,22.7718,-7.5058,-22.8834,1.1761,0.4421,0.1752,-23.2800,29.4600,-22.5600,
2.561417,22.7718,-7.5058,-22.8834,1.1761,0.4421,0.1752,-23.2800,29.4600,-22.5600,
2.562639,-2.7600,-3.3766,-2.8301,1.1761,0.4421,0.1752,-23.2800,29.4600,-22.5600,
2.565948,-2.7600,-3.3766,-2.8301,1.1761,0.4421,0.1752,-27.3000,29.8800,-15.8400,
2.571114,-2.7600,-3.3766,-2.8301,1.3545,1.0195,0.4213,-27.3000,29.8800,-15.8400,
2.589717,-2.7600,-3.3766,-2.8301,1.6810,1.2719,0.6946,-27.3000,29.8800,-15.8400,
2.610463,-2.7600,-3.3766,-2.8301,1.6725,0.9816,0.9966,-27.3000,29.8800,-15.8400,
2.623068,-2.7600,-3.3766,-2.8301,1.6725,0.9816,0.9966,-27.3000,29.8800,-15.8400,
2.624080,0.4462,1.7216,-2.0030,1.6725,0.9816,0.9966,-27.3000,29.8800,-15.8400,
2.627473,0.4462,1.7216,-2.0030,1.6725,0.9816,0.9966,-31.0800,29.9400,-9.9000,
2.630528,0.4462,1.7216,-2.0030,0.9108,2.0602,0.6525,-31.0800,29.9400,-9.9000,
2.651610,0.4462,1.7216,-2.0030,0.8005,2.6642,0.0666,-31.0800,29.9400,-9.9000,
2.672162,0.4462,1.7216,-2.0030,0.9832,2.0325,-0.2029,-31.0800,29.9400,-9.9000,
2.684875,0.4462,1.7216,-2.0030,0.9832,2.0325,-0.2029,-31.0800,29.9400,-9.9000,
2.685592,-6.0329,9.1570,2.0504,0.9832,2.0325,-0.2029,-31.0800,29.9400,-9.9000,
2.689308,-6.0329,9.1570,2.0504,0.9832,2.0325,-0.2029,-33.7200,29.1600,-6.4800,
2.694108,-6.0329,9.1570,2.0504,-0.0149,0.7249,-0.8517,-33.7200,29.1600,-6.4800,
2.713101,-6.0329,9.1570,2.0504,-1.5004,-1.6027,-1.3332,-33.7200,29.1600,-6.4800,
2.734841,-6.0329,9.1570,2.0504,-1.3374,-4.0453,-1.2858,-33.7200,29.1600,-6.4800,
2.747091,-6.0329,9.1570,2.0504,-1.3374,-4.0453,-1.2858,-33.7200,29.1600,-6.4800,
2.747697,-1.9716,5.3878,-6.0348,-1.3374,-4.0453,-1.2858,-33.7200,29.1600,-6.4800,
2.750905,-1.9716,5.3878,-6.0348,-1.3374,-4.0453,-1.2858,-35.2800,28.2600,-4.8000,
2.753897,-1.9716,5.3878,-6.0348,-0.9822,-2.0075,-0.9193,-35.2800,28.2600,-4.8000,
2.774720,-1.9716,5.3878,-6.0348,-0.7372,0.6237,-0.3238,-35.2800,28.2600,-4.8000,
2.795228,-1.9716,5.3878,-6.0348,-0.5928,-0.5284,-0.2573,-35.2800,28.2600,-4.8000,
2.807546,-1.9716,5.3878,-6.0348,-0.5928,-0.5284,-0.2573,-35.2800,28.2600,-4.8000,
2.808085,-1.6965,2.2165,-1.8931,-0.5928,-0.5284,-0.2573,-35.2800,28.2600,-4.8000,
2.812634,-1.6965,2.2165,-1.8931,-0.5928,-0.5284,-0.2573,-34.5000,27.2400,-6.6000,
2.816318,-1.6965,2.2165,-1.8931,-0.2008,-0.7318,-0.0932,-34.5000,27.2400,-6.6000,
2.835932,-1.6965,2.2165,-1.8931,0.2759,0.6248,0.0650,-34.5000,27.2400,-6.6000,
2.857354,-1.6965,2.2165,-1.8931,0.5406,1.1185,0.1262,-34.5000,27.2400,-6.6000,
2.869263,-1.6965,2.2165,-1.8931,0.5406,1.1185,0.1262,-34.5000,27.2400,-6.6000,
2.870002,-2.0154,1.2744,-1.2145,0.5406,1.1185,0.1262,-34.5000,27.2400,-6.6000,
2.873583,-2.0154,1.2744,-1.2145,0.5406,1.1185,0.1262,-34.3200,26.3400,-7.2600,
2.876740,-2.0154,1.2744,-1.2145,0.6125,1.1995,0.1683,-34.3200,26.3400,-7.2600,
2.897904,-2.0154,1.2744,-1.2145,0.5752,0.8639,0.1518,-34.3200,26.3400,-7.2600,
2.918043,-2.0154,1.2744,-1.2145,0.5486,0.4895,0.1140,-34.3200,26.3400,-7.2600,
2.931109,-2.0154,1.2744,-1.2145,0.5486,0.4895,0.1140,-34.3200,26.3400,-7.2600,
2.931734,-1.9203,0.9082,-0.6109,0.5486,0.4895,0.1140,-34.3200,26.3400,-7.2600,
2.935814,-1.9203,0.9082,-0.6109,0.5486,0.4895,0.1140,-34.7400,26.0400,-7.2600,
2.939327,-1.9203,0.9082,-0.6109,0.4506,0.4123,0.0698,-34.7400,26.0400,-7.2600,
2.959506,-1.9203,0.9082,-0.6109,0.2423,0.3702,0.0080,-34.7400,26.0400,-7.2600,
2.980003,-1.9203,0.9082,-0.6109,0.0234,0.3159,-0.0660,-34.7400,26.0400,-7.2600,
2.992784,-1.9203,0.9082,-0.6109,0.0234,0.3159,-0.0660,-34.7400,26.0400,-7.2600,
2.993572,-1.7952,0.8842,-0.7989,0.0234,0.3159,-0.0660,-34.7400,26.0400,-7.2600,
2.996814,-1.7952,0.8842,-0.7989,0.0234,0.3159,-0.0660,-35.2800,25.3200,-6.4800,
2.999901,-1.7952,0.8842,-0.7989,-0.0538,0.3057,-0.0799,-35.2800,25.3200,-6.4800,
3.020952,-1.7952,0.8842,-0.7989,-0.0660,0.2684,-0.0767,-35.2800,25.3200,-6.4800,
3.041002,-1.7952,0.8842,-0.7989,-0.0660,0.1411,-0.0565,-35.2800,25.3200,-6.4800,
3.053956,-1.7952,0.8842,-0.7989,-0.0660,0.1411,-0.0565,-35.2800,25.3200,-6.4800,
3.055016,0.0597,-0.0571,0.4501,-0.0660,0.1411,-0.0565,-35.2800,25.3200,-6.4800,
3.058340,0.0597,-0.0571,0.4501,-0.0660,0.1411,-0.0565,-35.0400,25.5000,-6.9600,
3.062008,0.0597,-0.0571,0.4501,0.0000,0.0112,-0.0346,-35.0400,25.5000,-6.9600,
3.082767,0.0597,-0.0571,0.4501,0.1044,0.1012,0.0016,-35.0400,25.5000,-6.9600,
3.103545,0.0597,-0.0571,0.4501,0.1513,0.1603,0.0224,-35.0400,25.5000,-6.9600,
3.116011,0.0597,-0.0571,0.4501,0.1513,0.1603,0.0224,-35.0400,25.5000,-6.9600,
3.117034,-0.0232,-0.0790,0.1452,0.1513,0.1603,0.0224,-35.0400,25.5000,-6.9600,
3.120581,-0.0232,-0.0790,0.1452,0.1513,0.1603,0.0224,-34.3800,25.5000,-8.1600,
3.123610,-0.0232,-0.0790,0.1452,0.2328,0.1209,0.0506,-34.3800,25.5000,-8.1600,
3.144566,-0.0232,-0.0790,0.1452,0.3377,0.1566,0.0953,-34.3800,25.5000,-8.1600,
3.164275,-0.0232,-0.0790,0.1452,0.4740,0.1880,0.1433,-34.3800,25.5000,-8.1600,
3.177171,-0.0232,-0.0790,0.1452,0.4740,0.1880,0.1433,-34.3800,25.5000,-8.1600,
3.178176,0.1170,-0.1333,-0.0351,0.4740,0.1880,0.1433,-34.3800,25.5000,-8.1600,
3.181907,0.1170,-0.1333,-0.0351,0.4740,0.1880,0.1433,-34.5600,25.4400,-8.6400,
3.186141,0.1170,-0.1333,-0.0351,0.7089,0.0879,0.1917,-34.5600,25.4400,-8.6400,
3.205282,0.1170,-0.1333,-0.0351,0.9310,0.2184,0.2791,-34.5600,25.4400,-8.6400,
3.227367,0.1170,-0.1333,-0.0351,1.2304,0.5177,0.4032,-34.5600,25.4400,-8.6400,
3.238625,0.1170,-0.1333,-0.0351,1.2304,0.5177,0.4032,-34.5600,25.4400,-8.6400,
3.239503,-0.3668,-0.6408,-2.1960,1.2304,0.5177,0.4032,-34.5600,25.4400,-8.6400,
3.243152,-0.3668,-0.6408,-2.1960,1.2304,0.5177,0.4032,-34.6200,25.6200,-9.4800,
3.247144,-0.3668,-0.6408,-2.1960,1.4493,0.9864,0.7302,-34.6200,25.6200,-9.4800,
3.268261,-0.3668,-0.6408,-2.1960,1.4589,1.2906,1.0956,-34.6200,25.6200,-9.4800,
3.287484,-0.3668,-0.6408,-2.1960,1.4338,1.1047,1.2735,-34.6200,25.6200,-9.4800,
3.300578,-0.3668,-0.6408,-2.1960,1.4338,1.1047,1.2735,-34.6200,25.6200,-9.4800,
3.301797,-0.3943,0.2833,-0.8980,1.4338,1.1047,1.2735,-34.6200,25.6200,-9.4800,
3.305030,-0.3943,0.2833,-0.8980,1.4338,1.1047,1.2735,-34.3200,24.9600,-11.4600,
3.308642,-0.3943,0.2833,-0.8980,1.4408,0.8336,1.3667,-34.3200,24.9600,-11.4600,
3.329762,-0.3943,0.2833,-0.8980,1.2235,0.5108,1.3795,-34.3200,24.9600,-11.4600,
3.349149,-0.3943,0.2833,-0.8980,0.8368,0.1459,1.2053,-34.3200,24.9600,-11.4600,
3.361546,-0.3943,0.2833,-0.8980,0.8368,0.1459,1.2053,-34.3200,24.9600,-11.4600,
3.362114,1.1604,0.5717,-0.1802,0.8368,0.1459,1.2053,-34.3200,24.9600,-11.4600,
3.365906,1.1604,0.5717,-0.1802,0.8368,0.1459,1.2053,-33.6600,24.4200,-13.6200,
3.369957,1.1604,0.5717,-0.1802,0.5720,-0.0314,0.9449,-33.6600,24.4200,-13.6200,
3.390260,1.1604,0.5717,-0.1802,0.5491,-0.3744,0.6876,-33.6600,24.4200,-13.6200,
3.410368,1.1604,0.5717,-0.1802,0.5811,-0.7047,0.4410,-33.6600,24.4200,-13.6200,
3.423144,1.1604,0.5717,-0.1802,0.5811,-0.7047,0.4410,-33.6600,24.4200,-13.6200,
3.424008,0.7664,-0.2106,1.6361,0.5811,-0.7047,0.4410,-33.6600,24.4200,-13.6200,
3.427811,0.7664,-0.2106,1.6361,0.5811,-0.7047,0.4410,-31.5000,24.1200,-16.9800,
3.432001,0.7664,-0.2106,1.6361,0.7835,-0.6962,0.3419,-31.5000,24.1200,-16.9800,
3.451494,0.7664,-0.2106,1.6361,1.0839,-0.2317,0.3899,-31.5000,24.1200,-16.9800,
3.472376,0.7664,-0.2106,1.6361,1.1824,0.5886,0.4346,-31.5000,24.1200,-16.9800,
3.484719,0.7664,-0.2106,1.6361,1.1824,0.5886,0.4346,-31.5000,24.1200,-16.9800,
3.485972,1.0146,0.5195,0.7194,1.1824,0.5886,0.4346,-31.5000,24.1200,-16.9800,
3.489130,1.0146,0.5195,0.7194,1.1824,0.5886,0.4346,-30.0600,23.8800,-19.1400,
3.493822,1.0146,0.5195,0.7194,0.9811,1.2741,0.3867,-30.0600,23.8800,-19.1400,
3.513579,1.0146,0.5195,0.7194,0.7659,1.6320,0.1971,-30.0600,23.8800,-19.1400,
3.534105,1.0146,0.5195,0.7194,0.6823,1.6996,0.0932,-30.0600,23.8800,-19.1400,
3.547126,1.0146,0.5195,0.7194,0.6823,1.6996,0.0932,-30.0600,23.8800,-19.1400,
3.548351,-2.0844,2.1195,2.6344,0.6823,1.6996,0.0932,-30.0600,23.8800,-19.1400,
3.552707,-2.0844,2.1195,2.6344,0.6823,1.6996,0.0932,-28.3800,24.3600,-21.2400,
3.554587,-2.0844,2.1195,2.6344,0.7377,1.3971,0.1305,-28.3800,24.3600,-21.2400,
3.574973,-2.0844,2.1195,2.6344,0.8916,0.6647,0.1646,-28.3800,24.3600,-21.2400,
3.595912,-2.0844,2.1195,2.6344,1.0104,-1.0786,0.2141,-28.3800,24.3600,-21.2400,
3.607899,-2.0844,2.1195,2.6344,1.0104,-1.0786,0.2141,-28.3800,24.3600,-21.2400,
3.609022,-3.4767,-0.9377,-1.0954,1.0104,-1.0786,0.2141,-28.3800,24.3600,-21.2400,
3.612402,-3.4767,-0.9377,-1.0954,1.0104,-1.0786,0.2141,-26.8200,24.5400,-23.1600,
3.615399,-3.4767,-0.9377,-1.0954,0.8171,-2.7937,0.2445,-26.8200,24.5400,-23.1600,
3.636568,-3.4767,-0.9377,-1.0954,0.4820,-3.7700,0.2482,-26.8200,24.5400,-23.1600,
3.656664,-3.4767,-0.9377,-1.0954,0.3611,-2.9785,0.1252,-26.8200,24.5400,-23.1600,
3.669695,-3.4767,-0.9377,-1.0954,0.3611,-2.9785,0.1252,-26.8200,24.5400,-23.1600,
3.671197,-0.4801,-1.5094,-3.5585,0.3611,-2.9785,0.1252,-26.8200,24.5400,-23.1600,
3.673840,-0.4801,-1.5094,-3.5585,0.3611,-2.9785,0.1252,-26.0400,24.0600,-24.1200,
3.677491,-0.4801,-1.5094,-3.5585,0.2908,-1.2373,0.0256,-26.0400,24.0600,-24.1200,
3.698778,-0.4801,-1.5094,-3.5585,0.2706,0.1987,0.0336,-26.0400,24.0600,-24.1200,
3.719162,-0.4801,-1.5094,-3.5585,0.3052,1.1851,0.0820,-26.0400,24.0600,-24.1200,
3.732007,-0.4801,-1.5094,-3.5585,0.3052,1.1851,0.0820,-26.0400,24.0600,-24.1200,
3.733380,2.6981,-1.0875,-2.3783,0.3052,1.1851,0.0820,-26.0400,24.0600,-24.1200,
3.736867,2.6981,-1.0875,-2.3783,0.3052,1.1851,0.0820,-26.7600,23.1000,-24.6000,
3.739392,2.6981,-1.0875,-2.3783,0.3803,1.5931,0.1577,-26.7600,23.1000,-24.6000,
3.760548,2.6981,-1.0875,-2.3783,0.4538,1.5830,0.2242,-26.7600,23.1000,-24.6000,
3.780262,2.6981,-1.0875,-2.3783,0.4756,1.5164,0.2551,-26.7600,23.1000,-24.6000,
3.792970,2.6981,-1.0875,-2.3783,0.4756,1.5164,0.2551,-26.7600,23.1000,-24.6000,
3.794289,1.3846,0.9386,2.2444,0.4756,1.5164,0.2551,-26.7600,23.1000,-24.6000,
3.797139,1.3846,0.9386,2.2444,0.4756,1.5164,0.2551,-26.9400,22.2600,-24.7200,
3.801407,1.3846,0.9386,2.2444,0.4602,0.9065,0.2365,-26.9400,22.2600,-24.7200,
3.820865,1.3846,0.9386,2.2444,0.6770,0.0458,0.2690,-26.9400,22.2600,-24.7200,
3.842096,1.3846,0.9386,2.2444,1.0466,-0.4165,0.3084,-26.9400,22.2600,-24.7200,
3.854264,1.3846,0.9386,2.2444,1.0466,-0.4165,0.3084,-26.9400,22.2600,-24.7200,
3.855832,0.0132,-2.2798,2.2578,1.0466,-0.4165,0.3084,-26.9400,22.2600,-24.7200,
3.859847,0.0132,-2.2798,2.2578,1.0466,-0.4165,0.3084,-27.1800,21.7200,-24.9600,
3.862181,0.0132,-2.2798,2.2578,1.3449,-0.0991,0.3095,-27.1800,21.7200,-24.9600,
3.883998,0.0132,-2.2798,2.2578,1.1622,0.5534,0.2370,-27.1800,21.7200,-24.9600,
3.903875,0.0132,-2.2798,2.2578,0.6477,0.6860,0.2626,-27.1800,21.7200,-24.9600,
3.916799,0.0132,-2.2798,2.2578,0.6477,0.6860,0.2626,-27.1800,21.7200,-24.9600,
3.918852,0.8558,0.2321,-0.6117,0.6477,0.6860,0.2626,-27.1800,21.7200,-24.9600,
3.920714,0.8558,0.2321,-0.6117,0.6477,0.6860,0.2626,-27.4200,21.3000,-25.3800,
3.923948,0.8558,0.2321,-0.6117,0.5444,0.9598,0.2951,-27.4200,21.3000,-25.3800,
3.944987,0.8558,0.2321,-0.6117,0.7207,1.0770,0.3297,-27.4200,21.3000,-25.3800,
3.965737,0.8558,0.2321,-0.6117,0.8245,0.7739,0.3755,-27.4200,21.3000,-25.3800,
3.977407,0.8558,0.2321,-0.6117,0.8245,0.7739,0.3755,-27.4200,21.3000,-25.3800,
3.978736,0.5001,1.2604,0.7124,0.8245,0.7739,0.3755,-27.4200,21.3000,-25.3800,
3.982298,0.5001,1.2604,0.7124,0.8245,0.7739,0.3755,-25.9800,20.7600,-27.5400,
3.985561,0.5001,1.2604,0.7124,0.8080,0.3808,0.3233,-25.9800,20.7600,-27.5400,
4.006003,0.5001,1.2604,0.7124,0.6663,-0.0357,0.3254,-25.9800,20.7600,-27.5400,
4.026266,0.5001,1.2604,0.7124,0.6051,-0.3952,0.3941,-25.9800,20.7600,-27.5400,
4.039436,0.5001,1.2604,0.7124,0.6051,-0.3952,0.3941,-25.9800,20.7600,-27.5400,
4.040520,-1.4399,0.6157,1.0903,0.6051,-0.3952,0.3941,-25.9800,20.7600,-27.5400,
4.043350,-1.4399,0.6157,1.0903,0.6051,-0.3952,0.3941,-24.6000,20.1000,-29.3400,
4.048757,-1.4399,0.6157,1.0903,0.6077,-0.4772,0.4549,-24.6000,20.1000,-29.3400,
4.067254,-1.4399,0.6157,1.0903,0.5337,-0.4117,0.4969,-24.6000,20.1000,-29.3400,
4.087942,-1.4399,0.6157,1.0903,0.3819,-0.3633,0.6013,-24.6000,20.1000,-29.3400,
4.101334,-1.4399,0.6157,1.0903,0.3819,-0.3633,0.6013,-24.6000,20.1000,-29.3400,
4.103531,-0.0883,-0.6417,-0.5569,0.3819,-0.3633,0.6013,-24.6000,20.1000,-29.3400,
4.105322,-0.0883,-0.6417,-0.5569,0.3819,-0.3633,0.6013,-23.7000,19.3800,-30.6600,
4.108551,-0.0883,-0.6417,-0.5569,0.2679,-0.2535,0.6322,-23.7000,19.3800,-30.6600,
4.129551,-0.0883,-0.6417,-0.5569,0.2951,-0.1886,0.6429,-23.7000,19.3800,-30.6600,
4.150036,-0.0883,-0.6417,-0.5569,0.4181,-0.1763,0.6226,-23.7000,19.3800,-30.6600,
4.162617,-0.0883,-0.6417,-0.5569,0.4181,-0.1763,0.6226,-23.7000,19.3800,-30.6600,
4.164621,0.4250,-0.0816,0.6282,0.4181,-0.1763,0.6226,-23.7000,19.3800,-30.6600,
4.167265,0.4250,-0.0816,0.6282,0.4181,-0.1763,0.6226,-23.5800,18.7200,-31.3200,
4.171477,0.4250,-0.0816,0.6282,0.5342,-0.2397,0.5603,-23.5800,18.7200,-31.3200,
4.190676,0.4250,-0.0816,0.6282,0.5800,-0.3670,0.4980,-23.5800,18.7200,-31.3200,
4.211690,0.4250,-0.0816,0.6282,0.5332,-0.4069,0.4586,-23.5800,18.7200,-31.3200,
4.223902,0.4250,-0.0816,0.6282,0.5332,-0.4069,0.4586,-23.5800,18.7200,-31.3200,
4.224918,-0.3180,-0.2795,0.3477,0.5332,-0.4069,0.4586,-23.5800,18.7200,-31.3200,
4.228369,-0.3180,-0.2795,0.3477,0.5332,-0.4069,0.4586,-22.8000,18.7200,-31.9200,
4.232459,-0.3180,-0.2795,0.3477,0.4629,-0.3121,0.4432,-22.8000,18.7200,-31.9200,
4.252302,-0.3180,-0.2795,0.3477,0.3989,-0.0815,0.4613,-22.8000,18.7200,-31.9200,
4.271925,-0.3180,-0.2795,0.3477,0.3334,0.1433,0.4762,-22.8000,18.7200,-31.9200,
4.286079,-0.3180,-0.2795,0.3477,0.3334,0.1433,0.4762,-22.8000,18.7200,-31.9200,
4.287406,-0.8369,-0.2437,-0.3052,0.3334,0.1433,0.4762,-22.8000,18.7200,-31.9200,
4.289374,-0.8369,-0.2437,-0.3052,0.3334,0.1433,0.4762,-22.9800,18.1800,-32.4600,
4.296942,-0.8369,-0.2437,-0.3052,0.3329,0.1646,0.4938,-22.9800,18.1800,-32.4600,
4.313261,-0.8369,-0.2437,-0.3052,0.3872,-0.0181,0.5055,-22.9800,18.1800,-32.4600,
4.334376,-0.8369,-0.2437,-0.3052,0.4368,-0.0629,0.5273,-22.9800,18.1800,-32.4600,
4.346526,-0.8369,-0.2437,-0.3052,0.4368,-0.0629,0.5273,-22.9800,18.1800,-32.4600,
4.347680,-0.4754,-0.3443,-0.0069,0.4368,-0.0629,0.5273,-22.9800,18.1800,-32.4600,
4.351766,-0.4754,-0.3443,-0.0069,0.4368,-0.0629,0.5273,-22.8600,17.7600,-32.8800,
4.354487,-0.4754,-0.3443,-0.0069,0.4762,0.0783,0.5971,-22.8600,17.7600,-32.8800,
4.375127,-0.4754,-0.3443,-0.0069,0.4229,0.2376,0.7398,-22.8600,17.7600,-32.8800,
4.395493,-0.4754,-0.3443,-0.0069,0.3936,0.4101,0.8533,-22.8600,17.7600,-32.8800,
4.408407,-0.4754,-0.3443,-0.0069,0.3936,0.4101,0.8533,-22.8600,17.7600,-32.8800,
4.408738,1.2281,-0.0759,-0.4846,0.3936,0.4101,0.8533,-22.8600,17.7600,-32.8800,
4.412509,1.2281,-0.0759,-0.4846,0.3936,0.4101,0.8533,-22.6200,17.4000,-33.9000,
4.415984,1.2281,-0.0759,-0.4846,0.4815,0.5800,0.8666,-22.6200,17.4000,-33.9000,
4.436421,1.2281,-0.0759,-0.4846,0.6471,0.9316,0.8032,-22.6200,17.4000,-33.9000,
4.457157,1.2281,-0.0759,-0.4846,0.7579,1.1601,0.7601,-22.6200,17.4000,-33.9000,
4.469745,1.2281,-0.0759,-0.4846,0.7579,1.1601,0.7601,-22.6200,17.4000,-33.9000,
4.470211,1.7000,1.6943,-0.0306,0.7579,1.1601,0.7601,-22.6200,17.4000,-33.9000,
4.474632,1.7000,1.6943,-0.0306,0.7579,1.1601,0.7601,-21.6600,17.3400,-34.3200,
4.477210,1.7000,1.6943,-0.0306,0.6503,1.0456,0.7270,-21.6600,17.3400,-34.3200,
4.498486,1.7000,1.6943,-0.0306,0.4479,0.8506,0.5731,-21.6600,17.3400,-34.3200,
4.518782,1.7000,1.6943,-0.0306,0.4799,0.0021,0.3819,-21.6600,17.3400,-34.3200,
4.531260,1.7000,1.6943,-0.0306,0.4799,0.0021,0.3819,-21.6600,17.3400,-34.3200,
4.531731,0.5395,2.0821,1.8975,0.4799,0.0021,0.3819,-21.6600,17.3400,-34.3200,
4.535711,0.5395,2.0821,1.8975,0.4799,0.0021,0.3819,-20.4600,17.2200,-34.9800,
4.539263,0.5395,2.0821,1.8975,0.6365,-1.2757,0.2967,-20.4600,17.2200,-34.9800,
4.560306,0.5395,2.0821,1.8975,0.6903,-1.7231,0.3334,-20.4600,17.2200,-34.9800,
4.580241,0.5395,2.0821,1.8975,0.6157,-1.0658,0.5619,-20.4600,17.2200,-34.9800,
4.592862,0.5395,2.0821,1.8975,0.6157,-1.0658,0.5619,-20.4600,17.2200,-34.9800,
4.593333,-5.0087,-0.3125,-0.6070,0.6157,-1.0658,0.5619,-20.4600,17.2200,-34.9800,
4.598144,-5.0087,-0.3125,-0.6070,0.6157,-1.0658,0.5619,-18.9600,17.0400,-36.1200,
4.600402,-5.0087,-0.3125,-0.6070,0.7361,0.0469,0.9950,-18.9600,17.0400,-36.1200,
4.621400,-5.0087,-0.3125,-0.6070,1.2458,0.8416,1.6080,-18.9600,17.0400,-36.1200,
4.642248,-5.0087,-0.3125,-0.6070,1.3252,0.7175,1.8653,-18.9600,17.0400,-36.1200,
4.655011,-5.0087,-0.3125,-0.6070,1.3252,0.7175,1.8653,-18.9600,17.0400,-36.1200,
4.655337,-3.8163,-0.8907,2.1867,1.3252,0.7175,1.8653,-18.9600,17.0400,-36.1200,
4.659564,-3.8163,-0.8907,2.1867,1.3252,0.7175,1.8653,-17.7000,16.6200,-36.3600,
4.662623,-3.8163,-0.8907,2.1867,1.3401,-0.0059,1.5489,-17.7000,16.6200,-36.3600,
4.682394,-3.8163,-0.8907,2.1867,1.2650,-0.5609,0.7366,-17.7000,16.6200,-36.3600,
4.704009,-3.8163,-0.8907,2.1867,0.7361,-0.4165,-0.2850,-17.7000,16.6200,-36.3600,
4.715820,-3.8163,-0.8907,2.1867,0.7361,-0.4165,-0.2850,-17.7000,16.6200,-36.3600,
4.716290,-1.1857,2.7556,1.4458,0.7361,-0.4165,-0.2850,-17.7000,16.6200,-36.3600,
4.720296,-1.1857,2.7556,1.4458,0.7361,-0.4165,-0.2850,-16.8000,15.7800,-37.0800,
4.723550,-1.1857,2.7556,1.4458,-0.3457,-0.0378,-0.7175,-16.8000,15.7800,-37.0800,
4.745243,-1.1857,2.7556,1.4458,-0.9289,0.0623,-0.5689,-16.8000,15.7800,-37.0800,
4.765255,-1.1857,2.7556,1.4458,-0.9438,-0.3228,-0.5955,-16.8000,15.7800,-37.0800,
4.777504,-1.1857,2.7556,1.4458,-0.9438,-0.3228,-0.5955,-16.8000,15.7800,-37.0800,
4.778741,-1.0036,-1.5791,0.8455,-0.9438,-0.3228,-0.5955,-16.8000,15.7800,-37.0800,
4.782080,-1.0036,-1.5791,0.8455,-0.9438,-0.3228,-0.5955,-16.8000,15.1800,-37.3200,
4.785492,-1.0036,-1.5791,0.8455,-0.9619,-1.0258,-0.9758,-16.8000,15.1800,-37.3200,
4.806133,-1.0036,-1.5791,0.8455,-1.0168,-1.2751,-1.4461,-16.8000,15.1800,-37.3200,
4.828244,-1.0036,-1.5791,0.8455,-0.9076,-1.3635,-1.3710,-16.8000,15.1800,-37.3200,
4.839616,-1.0036,-1.5791,0.8455,-0.9076,-1.3635,-1.3710,-16.8000,15.1800,-37.3200,
4.840361,-0.7472,0.6526,-0.7158,-0.9076,-1.3635,-1.3710,-16.8000,15.1800,-37.3200,
4.843992,-0.7472,0.6526,-0.7158,-0.9076,-1.3635,-1.3710,-16.6200,15.4200,-36.8400,
4.847109,-0.7472,0.6526,-0.7158,-0.9161,-1.0802,-0.8229,-16.6200,15.4200,-36.8400,
4.868149,-0.7472,0.6526,-0.7158,-0.8842,-0.5934,-0.4836,-16.6200,15.4200,-36.8400,
4.888560,-0.7472,0.6526,-0.7158,-0.6349,-0.2999,-0.4953,-16.6200,15.4200,-36.8400,
4.901075,-0.7472,0.6526,-0.7158,-0.6349,-0.2999,-0.4953,-16.6200,15.4200,-36.8400,
4.902312,3.3410,-1.6455,0.7683,-0.6349,-0.2999,-0.4953,-16.6200,15.4200,-36.8400,
4.905924,3.3410,-1.6455,0.7683,-0.6349,-0.2999,-0.4953,-17.1600,15.5400,-36.5400,
4.910896,3.3410,-1.6455,0.7683,-0.1230,-0.5662,-0.7233,-17.1600,15.5400,-36.5400,
4.929513,3.3410,-1.6455,0.7683,0.4911,-0.7430,-0.6940,-17.1600,15.5400,-36.5400,
4.951788,3.3410,-1.6455,0.7683,0.7356,-0.6264,-0.1310,-17.1600,15.5400,-36.5400,
4.963199,3.3410,-1.6455,0.7683,0.7356,-0.6264,-0.1310,-17.1600,15.5400,-36.5400,
4.964543,0.0268,0.9332,-0.8397,0.7356,-0.6264,-0.1310,-17.1600,15.5400,-36.5400,
4.967208,0.0268,0.9332,-0.8397,0.7356,-0.6264,-0.1310,-19.3200,15.7800,-34.9800,
4.970311,0.0268,0.9332,-0.8397,0.5145,-0.2104,0.5726,-19.3200,15.7800,-34.9800,
4.991391,0.0268,0.9332,-0.8397,-0.1145,0.1827,0.8517,-19.3200,15.7800,-34.9800,
5.011396,0.0268,0.9332,-0.8397,-0.6930,0.1960,0.5502,-19.3200,15.7800,-34.9800,
5.031438,0.0268,0.9332,-0.8397,-0.6930,0.1960,0.5502,-19.3200,15.7800,-34.9800,
5.032233,1.9104,-0.2685,-0.8863,-0.6930,0.1960,0.5502,-19.3200,15.7800,-34.9800,
5.033236,1.9104,-0.2685,-0.8863,-0.6930,0.1960,0.5502,-21.1800,16.0200,-33.8400,
5.034086,1.9104,-0.2685,-0.8863,-0.7744,-0.0213,0.1806,-21.1800,16.0200,-33.8400,
5.052233,1.9104,-0.2685,-0.8863,-0.2732,0.1087,0.1907,-21.1800,16.0200,-33.8400,
5.073391,1.9104,-0.2685,-0.8863,0.2647,0.4522,0.4378,-21.1800,16.0200,-33.8400,
5.085692,1.9104,-0.2685,-0.8863,0.2647,0.4522,0.4378,-21.1800,16.0200,-33.8400,
5.086743,1.6134,-0.4740,-1.0258,0.2647,0.4522,0.4378,-21.1800,16.0200,-33.8400,
5.089769,1.6134,-0.4740,-1.0258,0.2647,0.4522,0.4378,-23.3400,15.5400,-32.7000,
5.093648,1.6134,-0.4740,-1.0258,0.4996,0.2780,0.4400,-23.3400,15.5400,-32.7000,
5.115467,1.6134,-0.4740,-1.0258,0.5918,-0.2525,0.3515,-23.3400,15.5400,-32.7000,
5.135180,1.6134,-0.4740,-1.0258,0.5907,-0.5763,0.3537,-23.3400,15.5400,-32.7000,
5.148480,1.6134,-0.4740,-1.0258,0.5907,-0.5763,0.3537,-23.3400,15.5400,-32.7000,
5.149995,-0.1631,-0.2887,-0.4368,0.5907,-0.5763,0.3537,-23.3400,15.5400,-32.7000,
5.152772,-0.1631,-0.2887,-0.4368,0.5907,-0.5763,0.3537,-24.0600,15.7200,-32.2200,
5.155957,-0.1631,-0.2887,-0.4368,0.6274,-0.4447,0.4842,-24.0600,15.7200,-32.2200,
5.176912,-0.1631,-0.2887,-0.4368,0.7675,-0.1135,0.7436,-24.0600,15.7200,-32.2200,
5.196531,-0.1631,-0.2887,-0.4368,0.9023,0.2647,0.9593,-24.0600,15.7200,-32.2200,
5.210478,-0.1631,-0.2887,-0.4368,0.9023,0.2647,0.9593,-24.0600,15.7200,-32.2200,
5.211898,1.0483,-0.3702,0.1852,0.9023,0.2647,0.9593,-24.0600,15.7200,-32.2200,
5.213090,1.0483,-0.3702,0.1852,0.9023,0.2647,0.9593,-23.7600,15.5400,-32.4600,
5.216520,1.0483,-0.3702,0.1852,0.9614,0.3398,0.9992,-23.7600,15.5400,-32.4600,
5.237603,1.0483,-0.3702,0.1852,0.9246,0.3217,1.0472,-23.7600,15.5400,-32.4600,
5.257811,1.0483,-0.3702,0.1852,0.8687,0.4218,1.1137,-23.7600,15.5400,-32.4600,
5.270548,1.0483,-0.3702,0.1852,0.8687,0.4218,1.1137,-23.7600,15.5400,-32.4600,
5.271615,0.1943,-0.4404,0.0446,0.8687,0.4218,1.1137,-23.7600,15.5400,-32.4600,
5.275368,0.1943,-0.4404,0.0446,0.8687,0.4218,1.1137,-23.2800,15.4200,-32.8800,
5.278226,0.1943,-0.4404,0.0446,0.8783,0.4384,1.2155,-23.2800,15.4200,-32.8800,
5.299049,0.1943,-0.4404,0.0446,0.9768,0.3036,1.3433,-23.2800,15.4200,-32.8800,
5.319342,0.1943,-0.4404,0.0446,1.1191,0.1795,1.4631,-23.2800,15.4200,-32.8800,
5.332394,0.1943,-0.4404,0.0446,1.1191,0.1795,1.4631,-23.2800,15.4200,-32.8800,
5.334312,-0.8064,0.9714,0.7433,1.1191,0.1795,1.4631,-23.2800,15.4200,-32.8800,
5.336345,-0.8064,0.9714,0.7433,1.1191,0.1795,1.4631,-22.7400,15.3000,-33.7200,
5.339473,-0.8064,0.9714,0.7433,1.3092,-0.1193,1.6171,-22.7400,15.3000,-33.7200,
5.360747,-0.8064,0.9714,0.7433,1.3039,-0.4767,1.7646,-22.7400,15.3000,-33.7200,
5.381187,-0.8064,0.9714,0.7433,1.2261,-0.7207,1.7641,-22.7400,15.3000,-33.7200,
5.394471,-0.8064,0.9714,0.7433,1.2261,-0.7207,1.7641,-22.7400,15.3000,-33.7200,
5.395962,-1.4940,1.7957,1.4461,1.2261,-0.7207,1.7641,-22.7400,15.3000,-33.7200,
5.397933,-1.4940,1.7957,1.4461,1.2261,-0.7207,1.7641,-22.1400,14.7000,-34.3200,
5.401466,-1.4940,1.7957,1.4461,1.3140,-1.0163,1.6474,-22.1400,14.7000,-34.3200,
5.421634,-1.4940,1.7957,1.4461,1.5212,-0.7073,1.7540,-22.1400,14.7000,-34.3200,
5.442882,-1.4940,1.7957,1.4461,1.4919,0.4932,2.1247,-22.1400,14.7000,-34.3200,
5.455404,-1.4940,1.7957,1.4461,1.4919,0.4932,2.1247,-22.1400,14.7000,-34.3200,
5.456314,-6.8823,0.5574,1.9656,1.4919,0.4932,2.1247,-22.1400,14.7000,-34.3200,
5.461036,-6.8823,0.5574,1.9656,1.4919,0.4932,2.1247,-21.4800,14.3400,-35.5200,
5.462535,-6.8823,0.5574,1.9656,0.9955,1.4765,2.5215,-21.4800,14.3400,-35.5200,
5.483854,-6.8823,0.5574,1.9656,0.5678,0.8900,2.6131,-21.4800,14.3400,-35.5200,
5.503845,-6.8823,0.5574,1.9656,0.2908,-0.3878,1.8046,-21.4800,14.3400,-35.5200,
5.517935,-6.8823,0.5574,1.9656,0.2908,-0.3878,1.8046,-21.4800,14.3400,-35.5200,
5.519638,-2.4994,4.2775,2.3774,0.2908,-0.3878,1.8046,-21.4800,14.3400,-35.5200,
5.521293,-2.4994,4.2775,2.3774,0.2908,-0.3878,1.8046,-20.1600,13.5600,-36.1800,
5.524681,-2.4994,4.2775,2.3774,0.2466,-0.6115,0.5209,-20.1600,13.5600,-36.1800,
5.545771,-2.4994,4.2775,2.3774,0.2264,0.3116,-0.2242,-20.1600,13.5600,-36.1800,
5.566524,-2.4994,4.2775,2.3774,0.2690,0.5406,-0.4847,-20.1600,13.5600,-36.1800,
5.580932,-2.4994,4.2775,2.3774,0.2690,0.5406,-0.4847,-20.1600,13.5600,-36.1800,
5.582318,-4.1473,-0.2858,1.6413,0.2690,0.5406,-0.4847,-20.1600,13.5600,-36.1800,
5.583778,-4.1473,-0.2858,1.6413,0.2690,0.5406,-0.4847,-18.8400,13.4400,-37.0200,
5.586875,-4.1473,-0.2858,1.6413,0.2610,0.0149,-0.3782,-18.8400,13.4400,-37.0200,
5.607261,-4.1473,-0.2858,1.6413,0.2045,-0.2541,-0.0810,-18.8400,13.4400,-37.0200,
5.627027,-4.1473,-0.2858,1.6413,0.2189,0.0368,0.2775,-18.8400,13.4400,-37.0200,
5.640047,-4.1473,-0.2858,1.6413,0.2189,0.0368,0.2775,-18.8400,13.4400,-37.0200,
5.640971,-0.8704,0.4106,0.5057,0.2189,0.0368,0.2775,-18.8400,13.4400,-37.0200,
5.644088,-0.8704,0.4106,0.5057,0.2189,0.0368,0.2775,-17.4600,13.1400,-37.5600,
5.647795,-0.8704,0.4106,0.5057,0.1518,0.2945,0.4155,-17.4600,13.1400,-37.5600,
5.668001,-0.8704,0.4106,0.5057,0.1028,0.3665,0.2860,-17.4600,13.1400,-37.5600,
5.689281,-0.8704,0.4106,0.5057,0.1087,0.3782,0.1300,-17.4600,13.1400,-37.5600,
5.701425,-0.8704,0.4106,0.5057,0.1087,0.3782,0.1300,-17.4600,13.1400,-37.5600,
5.702772,-1.6993,1.4831,0.4075,0.1087,0.3782,0.1300,-17.4600,13.1400,-37.5600,
5.706183,-1.6993,1.4831,0.4075,0.1087,0.3782,0.1300,-16.0200,12.7200,-37.8600,
5.711246,-1.6993,1.4831,0.4075,0.1923,0.2264,0.1087,-16.0200,12.7200,-37.8600,
5.730173,-1.6993,1.4831,0.4075,0.3393,-0.0133,0.1214,-16.0200,12.7200,-37.8600,
5.750429,-1.6993,1.4831,0.4075,0.2487,0.0447,0.1550,-16.0200,12.7200,-37.8600,
5.763509,-1.6993,1.4831,0.4075,0.2487,0.0447,0.1550,-16.0200,12.7200,-37.8600,
5.765481,-0.9196,0.6475,-0.3249,0.2487,0.0447,0.1550,-16.0200,12.7200,-37.8600,
5.767872,-0.9196,0.6475,-0.3249,0.2487,0.0447,0.1550,-15.0600,12.8400,-37.9200,
5.770873,-0.9196,0.6475,-0.3249,0.0889,0.2919,0.1811,-15.0600,12.8400,-37.9200,
5.791261,-0.9196,0.6475,-0.3249,0.1545,0.2290,0.1614,-15.0600,12.8400,-37.9200,
5.811910,-0.9196,0.6475,-0.3249,0.4144,-0.0128,0.2450,-15.0600,12.8400,-37.9200,
5.824350,-0.9196,0.6475,-0.3249,0.4144,-0.0128,0.2450,-15.0600,12.8400,-37.9200,
5.825416,-0.7742,0.6488,-0.2842,0.4144,-0.0128,0.2450,-15.0600,12.8400,-37.9200,
5.828852,-0.7742,0.6488,-0.2842,0.4144,-0.0128,0.2450,-14.4000,12.3600,-37.9200,
5.832160,-0.7742,0.6488,-0.2842,0.4469,0.0091,0.3617,-14.4000,12.3600,-37.9200,
5.853144,-0.7742,0.6488,-0.2842,0.3782,0.0900,0.3798,-14.4000,12.3600,-37.9200,
5.873630,-0.7742,0.6488,-0.2842,0.4426,-0.0559,0.4186,-14.4000,12.3600,-37.9200,
5.886134,-0.7742,0.6488,-0.2842,0.4426,-0.0559,0.4186,-14.4000,12.3600,-37.9200,
5.887568,-0.3058,-0.0203,0.2829,0.4426,-0.0559,0.4186,-14.4000,12.3600,-37.9200,
5.890282,-0.3058,-0.0203,0.2829,0.4426,-0.0559,0.4186,-14.0400,11.6400,-38.5800,
5.893844,-0.3058,-0.0203,0.2829,0.5587,-0.2988,0.4985,-14.0400,11.6400,-38.5800,
5.915365,-0.3058,-0.0203,0.2829,0.5518,-0.2557,0.5518,-14.0400,11.6400,-38.5800,
5.935408,-0.3058,-0.0203,0.2829,0.6466,-0.0650,0.4863,-14.0400,11.6400,-38.5800,
5.948210,-0.3058,-0.0203,0.2829,0.6466,-0.0650,0.4863,-14.0400,11.6400,-38.5800,
5.949621,0.6736,0.1573,1.1727,0.6466,-0.0650,0.4863,-14.0400,11.6400,-38.5800,
5.952455,0.6736,0.1573,1.1727,0.6466,-0.0650,0.4863,-13.4400,11.5200,-39.0000,
5.955279,0.6736,0.1573,1.1727,0.6977,0.1294,0.4298,-13.4400,11.5200,-39.0000,
5.980515,0.6736,0.1573,1.1727,0.5795,0.0756,0.4751,-13.4400,11.5200,-39.0000,
5.996076,0.6736,0.1573,1.1727,0.6924,0.0724,0.4714,-13.4400,11.5200,-39.0000,
6.011144,0.6736,0.1573,1.1727,0.6924,0.0724,0.4714,-13.4400,11.5200,-39.0000,
6.012119,-1.1301,-0.4697,1.5447,0.6924,0.0724,0.4714,-13.4400,11.5200,-39.0000,
6.013448,-1.1301,-0.4697,1.5447,0.6924,0.0724,0.4714,-13.2000,10.9200,-39.1800,
6.018018,-1.1301,-0.4697,1.5447,0.6796,0.2972,0.2653,-13.2000,10.9200,-39.1800,
6.037507,-1.1301,-0.4697,1.5447,0.4336,0.7233,0.1507,-13.2000,10.9200,-39.1800,
6.058123,-1.1301,-0.4697,1.5447,0.1007,0.6376,0.0783,-13.2000,10.9200,-39.1800,
6.070474,-1.1301,-0.4697,1.5447,0.1007,0.6376,0.0783,-13.2000,10.9200,-39.1800,
6.070794,-3.2833,-2.7907,-0.6274,0.1007,0.6376,0.0783,-13.2000,10.9200,-39.1800,
6.074841,-3.2833,-2.7907,-0.6274,0.1007,0.6376,0.0783,-13.0200,9.9600,-39.7800,
6.078363,-3.2833,-2.7907,-0.6274,-0.3414,-0.4655,0.1976,-13.0200,9.9600,-39.7800,
6.099120,-3.2833,-2.7907,-0.6274,-0.6344,-1.7992,0.4911,-13.0200,9.9600,-39.7800,
6.119426,-3.2833,-2.7907,-0.6274,-1.0338,-2.5385,0.4011,-13.0200,9.9600,-39.7800,
6.132319,-3.2833,-2.7907,-0.6274,-1.0338,-2.5385,0.4011,-13.0200,9.9600,-39.7800,
6.133236,-2.5714,-2.7866,-2.9396,-1.0338,-2.5385,0.4011,-13.0200,9.9600,-39.7800,
6.136359,-2.5714,-2.7866,-2.9396,-1.0338,-2.5385,0.4011,-12.2400,9.3000,-40.3200,
6.139929,-2.5714,-2.7866,-2.9396,-1.4248,-2.9108,0.3510,-12.2400,9.3000,-40.3200,
6.160864,-2.5714,-2.7866,-2.9396,-1.3726,-2.6174,0.7297,-12.2400,9.3000,-40.3200,
6.181868,-2.5714,-2.7866,-2.9396,-0.9832,-2.1918,0.8155,-12.2400,9.3000,-40.3200,
6.194338,-2.5714,-2.7866,-2.9396,-0.9832,-2.1918,0.8155,-12.2400,9.3000,-40.3200,
6.195486,1.1115,0.9698,-2.6496,-0.9832,-2.1918,0.8155,-12.2400,9.3000,-40.3200,
6.198623,1.1115,0.9698,-2.6496,-0.9832,-2.1918,0.8155,-13.5000,9.3000,-39.3000,
6.201311,1.1115,0.9698,-2.6496,-0.4352,-1.9388,0.8426,-13.5000,9.3000,-39.3000,
6.222677,1.1115,0.9698,-2.6496,0.1364,-1.4685,0.7952,-13.5000,9.3000,-39.3000,
6.242771,1.1115,0.9698,-2.6496,0.6147,-0.2333,0.7441,-13.5000,9.3000,-39.3000,
6.255554,1.1115,0.9698,-2.6496,0.6147,-0.2333,0.7441,-13.5000,9.3000,-39.3000,
6.256174,2.3593,-2.2063,-0.7145,0.6147,-0.2333,0.7441,-13.5000,9.3000,-39.3000,
6.260499,2.3593,-2.2063,-0.7145,0.6147,-0.2333,0.7441,-15.7800,10.3200,-38.2800,
6.263494,2.3593,-2.2063,-0.7145,0.7180,1.3838,0.6802,-15.7800,10.3200,-38.2800,
6.283538,2.3593,-2.2063,-0.7145,0.6424,2.3537,0.5209,-15.7800,10.3200,-38.2800,
6.304864,2.3593,-2.2063,-0.7145,0.6812,1.6746,0.3542,-15.7800,10.3200,-38.2800,
6.317355,2.3593,-2.2063,-0.7145,0.6812,1.6746,0.3542,-15.7800,10.3200,-38.2800,
6.318738,-2.0757,0.4944,2.8786,0.6812,1.6746,0.3542,-15.7800,10.3200,-38.2800,
6.321598,-2.0757,0.4944,2.8786,0.6812,1.6746,0.3542,-18.3000,12.1200,-36.9000,
6.324552,-2.0757,0.4944,2.8786,0.4107,0.5396,0.2578,-18.3000,12.1200,-36.9000,
6.346268,-2.0757,0.4944,2.8786,0.0889,0.0027,0.0991,-18.3000,12.1200,-36.9000,
6.367263,-2.0757,0.4944,2.8786,0.0250,-0.3393,-0.0921,-18.3000,12.1200,-36.9000,
6.380048,-2.0757,0.4944,2.8786,0.0250,-0.3393,-0.0921,-18.3000,12.1200,-36.9000,
6.382072,-2.3078,1.0958,1.4321,0.0250,-0.3393,-0.0921,-18.3000,12.1200,-36.9000,
6.384071,-2.3078,1.0958,1.4321,0.0250,-0.3393,-0.0921,-20.1000,13.9200,-35.4600,
6.387369,-2.3078,1.0958,1.4321,-0.0586,-0.5246,-0.3531,-20.1000,13.9200,-35.4600,
6.406729,-2.3078,1.0958,1.4321,-0.1390,-0.4506,-0.3473,-20.1000,13.9200,-35.4600,
6.427885,-2.3078,1.0958,1.4321,-0.1246,0.0996,-0.3366,-20.1000,13.9200,-35.4600,
6.440351,-2.3078,1.0958,1.4321,-0.1246,0.0996,-0.3366,-20.1000,13.9200,-35.4600,
6.441321,0.2873,0.0097,-0.2730,-0.1246,0.0996,-0.3366,-20.1000,13.9200,-35.4600,
6.444789,0.2873,0.0097,-0.2730,-0.1246,0.0996,-0.3366,-20.4000,14.6400,-35.4600,
6.448241,0.2873,0.0097,-0.2730,-0.0538,0.6487,-0.4059,-20.4000,14.6400,-35.4600,
6.468697,0.2873,0.0097,-0.2730,0.0069,0.8155,-0.5689,-20.4000,14.6400,-35.4600,
6.488814,0.2873,0.0097,-0.2730,-0.0133,0.7670,-0.6876,-20.4000,14.6400,-35.4600,
6.501781,0.2873,0.0097,-0.2730,-0.0133,0.7670,-0.6876,-20.4000,14.6400,-35.4600,
6.503067,-0.5438,-1.4694,0.6644,-0.0133,0.7670,-0.6876,-20.4000,14.6400,-35.4600,
6.505863,-0.5438,-1.4694,0.6644,-0.0133,0.7670,-0.6876,-19.3800,14.7600,-36.1800,
6.509878,-0.5438,-1.4694,0.6644,-0.1955,0.4325,-0.7318,-19.3800,14.7600,-36.1800,
6.530333,-0.5438,-1.4694,0.6644,-0.2322,0.1715,-0.7739,-19.3800,14.7600,-36.1800,
6.551635,-0.5438,-1.4694,0.6644,-0.1593,0.2392,-0.8570,-19.3800,14.7600,-36.1800,
6.564769,-0.5438,-1.4694,0.6644,-0.1593,0.2392,-0.8570,-19.3800,14.7600,-36.1800,
6.566189,-0.3891,-0.3812,-0.7272,-0.1593,0.2392,-0.8570,-19.3800,14.7600,-36.1800,
6.569203,-0.3891,-0.3812,-0.7272,-0.1593,0.2392,-0.8570,-18.3000,14.5800,-36.7200,
6.571430,-0.3891,-0.3812,-0.7272,-0.1646,0.3899,-0.9444,-18.3000,14.5800,-36.7200,
6.592999,-0.3891,-0.3812,-0.7272,-0.2397,0.5214,-0.9550,-18.3000,14.5800,-36.7200,
6.611968,-0.3891,-0.3812,-0.7272,-0.2876,0.5071,-0.9832,-18.3000,14.5800,-36.7200,
6.625076,-0.3891,-0.3812,-0.7272,-0.2876,0.5071,-0.9832,-18.3000,14.5800,-36.7200,
6.626012,1.3322,-0.0434,-0.5284,-0.2876,0.5071,-0.9832,-18.3000,14.5800,-36.7200,
6.629402,1.3322,-0.0434,-0.5284,-0.2876,0.5071,-0.9832,-18.6600,14.1000,-36.7200,
6.632784,1.3322,-0.0434,-0.5284,-0.3127,0.3941,-1.0823,-18.6600,14.1000,-36.7200,
6.653479,1.3322,-0.0434,-0.5284,-0.3526,0.3766,-1.1297,-18.6600,14.1000,-36.7200,
6.674460,1.3322,-0.0434,-0.5284,-0.4176,0.5987,-1.0546,-18.6600,14.1000,-36.7200,
6.687644,1.3322,-0.0434,-0.5284,-0.4176,0.5987,-1.0546,-18.6600,14.1000,-36.7200,
6.688528,-0.2936,0.1669,-0.3437,-0.4176,0.5987,-1.0546,-18.6600,14.1000,-36.7200,
6.691305,-0.2936,0.1669,-0.3437,-0.4176,0.5987,-1.0546,-18.5400,14.2200,-36.7800,
6.694372,-0.2936,0.1669,-0.3437,-0.3888,0.9087,-0.9353,-18.5400,14.2200,-36.7800,
6.716166,-0.2936,0.1669,-0.3437,-0.1598,1.0472,-0.8368,-18.5400,14.2200,-36.7800,
6.735476,-0.2936,0.1669,-0.3437,0.0517,0.9049,-0.7191,-18.5400,14.2200,-36.7800,
6.749089,-0.2936,0.1669,-0.3437,0.0517,0.9049,-0.7191,-18.5400,14.2200,-36.7800,
6.750537,-0.3312,2.5762,0.5914,0.0517,0.9049,-0.7191,-18.5400,14.2200,-36.7800,
6.753563,-0.3312,2.5762,0.5914,0.0517,0.9049,-0.7191,-17.8200,14.1600,-36.1800,
6.756966,-0.3312,2.5762,0.5914,-0.0037,0.6392,-0.6376,-17.8200,14.1600,-36.1800,
6.777307,-0.3312,2.5762,0.5914,-0.1060,0.5284,-0.5369,-17.8200,14.1600,-36.1800,
6.797941,-0.3312,2.5762,0.5914,-0.2557,0.4724,-0.4559,-17.8200,14.1600,-36.1800,
6.812339,-0.3312,2.5762,0.5914,-0.2557,0.4724,-0.4559,-17.8200,14.1600,-36.1800,
6.813594,1.8198,2.2556,-1.2420,-0.2557,0.4724,-0.4559,-17.8200,14.1600,-36.1800,
6.814656,1.8198,2.2556,-1.2420,-0.2557,0.4724,-0.4559,-17.1000,14.2200,-36.7800,
6.817576,1.8198,2.2556,-1.2420,-0.4171,0.3451,-0.4842,-17.1000,14.2200,-36.7800,
6.838463,1.8198,2.2556,-1.2420,-0.5790,0.1944,-0.4953,-17.1000,14.2200,-36.7800,
6.859089,1.8198,2.2556,-1.2420,-0.7830,0.3808,-0.4309,-17.1000,14.2200,-36.7800,
6.871350,1.8198,2.2556,-1.2420,-0.7830,0.3808,-0.4309,-17.1000,14.2200,-36.7800,
6.872258,0.4754,2.0883,-0.3762,-0.7830,0.3808,-0.4309,-17.1000,14.2200,-36.7800,
6.877250,0.4754,2.0883,-0.3762,-0.7830,0.3808,-0.4309,-16.3800,14.7000,-37.5600,
6.879394,0.4754,2.0883,-0.3762,-0.8309,0.8991,-0.3776,-16.3800,14.7000,-37.5600,
6.899431,0.4754,2.0883,-0.3762,-0.5417,1.1265,-0.2871,-16.3800,14.7000,-37.5600,
6.920953,0.4754,2.0883,-0.3762,0.1028,0.7143,-0.2173,-16.3800,14.7000,-37.5600,
6.933699,0.4754,2.0883,-0.3762,0.1028,0.7143,-0.2173,-16.3800,14.7000,-37.5600,
6.935816,-0.9307,2.4009,2.2062,0.1028,0.7143,-0.2173,-16.3800,14.7000,-37.5600,
6.937251,-0.9307,2.4009,2.2062,0.1028,0.7143,-0.2173,-15.9000,14.9400,-37.7400,
6.940131,-0.9307,2.4009,2.2062,0.3020,0.6168,-0.2684,-15.9000,14.9400,-37.7400,
6.961853,-0.9307,2.4009,2.2062,0.0176,0.8687,-0.2935,-15.9000,14.9400,-37.7400,
6.982036,-0.9307,2.4009,2.2062,-0.1316,0.6972,-0.2589,-15.9000,14.9400,-37.7400,
6.995263,-0.9307,2.4009,2.2062,-0.1316,0.6972,-0.2589,-15.9000,14.9400,-37.7400,
6.997627,-0.2232,0.3526,1.0606,-0.1316,0.6972,-0.2589,-15.9000,14.9400,-37.7400,
6.999996,-0.2232,0.3526,1.0606,-0.1316,0.6972,-0.2589,-15.3000,15.4200,-38.2200,
7.002904,-0.2232,0.3526,1.0606,-0.1838,0.0149,-0.2674,-15.3000,15.4200,-38.2200,
7.022432,-0.2232,0.3526,1.0606,-0.1715,-0.5380,-0.1843,-15.3000,15.4200,-38.2200,
7.045476,-0.2232,0.3526,1.0606,-0.1736,-0.6796,-0.0911,-15.3000,15.4200,-38.2200,
7.056494,-0.2232,0.3526,1.0606,-0.1736,-0.6796,-0.0911,-15.3000,15.4200,-38.2200,
7.057467,-1.9903,1.7748,-0.2876,-0.1736,-0.6796,-0.0911,-15.3000,15.4200,-38.2200,
7.061154,-1.9903,1.7748,-0.2876,-0.1736,-0.6796,-0.0911,-14.1600,15.6000,-38.1600,
7.063798,-1.9903,1.7748,-0.2876,-0.2029,-0.4000,-0.0069,-14.1600,15.6000,-38.1600,
7.084330,-1.9903,1.7748,-0.2876,-0.2322,0.1614,0.0799,-14.1600,15.6000,-38.1600,
7.104527,-1.9903,1.7748,-0.2876,-0.2221,0.4421,0.1257,-14.1600,15.6000,-38.1600,
7.117248,-1.9903,1.7748,-0.2876,-0.2221,0.4421,0.1257,-14.1600,15.6000,-38.1600,
7.118552,-1.0390,0.0703,0.8774,-0.2221,0.4421,0.1257,-14.1600,15.6000,-38.1600,
7.121772,-1.0390,0.0703,0.8774,-0.2221,0.4421,0.1257,-13.0800,16.2000,-37.5600,
7.125246,-1.0390,0.0703,0.8774,-0.1380,0.2589,0.1422,-13.0800,16.2000,-37.5600,
7.145877,-1.0390,0.0703,0.8774,-0.1103,-0.0517,0.1614,-13.0800,16.2000,-37.5600,
7.167538,-1.0390,0.0703,0.8774,-0.2019,-0.2562,0.1209,-13.0800,16.2000,-37.5600,
7.179815,-1.0390,0.0703,0.8774,-0.2019,-0.2562,0.1209,-13.0800,16.2000,-37.5600,
7.182011,0.7751,-0.0244,0.5401,-0.2019,-0.2562,0.1209,-13.0800,16.2000,-37.5600,
7.184640,0.7751,-0.0244,0.5401,-0.2019,-0.2562,0.1209,-12.4800,16.5000,-37.8600,
7.186902,0.7751,-0.0244,0.5401,-0.2573,-0.3276,0.0575,-12.4800,16.5000,-37.8600,
7.207615,0.7751,-0.0244,0.5401,-0.2008,-0.3345,0.0059,-12.4800,16.5000,-37.8600,
7.227706,0.7751,-0.0244,0.5401,-0.1321,-0.3265,-0.0341,-12.4800,16.5000,-37.8600,
7.241086,0.7751,-0.0244,0.5401,-0.1321,-0.3265,-0.0341,-12.4800,16.5000,-37.8600,
7.242035,0.2206,-0.3926,-0.2270,-0.1321,-0.3265,-0.0341,-12.4800,16.5000,-37.8600,
7.244877,0.2206,-0.3926,-0.2270,-0.1321,-0.3265,-0.0341,-12.6000,16.6800,-37.8600,
7.248498,0.2206,-0.3926,-0.2270,-0.1300,-0.2610,-0.0634,-12.6000,16.6800,-37.8600,
7.268971,0.2206,-0.3926,-0.2270,-0.1752,-0.1667,-0.0559,-12.6000,16.6800,-37.8600,
7.289981,0.2206,-0.3926,-0.2270,-0.1625,-0.1193,-0.0085,-12.6000,16.6800,-37.8600,
7.301936,0.2206,-0.3926,-0.2270,-0.1625,-0.1193,-0.0085,-12.6000,16.6800,-37.8600,
7.303673,-0.0157,0.2701,0.0295,-0.1625,-0.1193,-0.0085,-12.6000,16.6800,-37.8600,
7.306508,-0.0157,0.2701,0.0295,-0.1625,-0.1193,-0.0085,-13.1400,16.9800,-37.3200,
7.309972,-0.0157,0.2701,0.0295,-0.0783,-0.1811,0.0378,-13.1400,16.9800,-37.3200,
7.330314,-0.0157,0.2701,0.0295,-0.0229,-0.1177,0.0644,-13.1400,16.9800,-37.3200,
7.350977,-0.0157,0.2701,0.0295,-0.0591,0.1252,0.0543,-13.1400,16.9800,-37.3200,
7.363502,-0.0157,0.2701,0.0295,-0.0591,0.1252,0.0543,-13.1400,16.9800,-37.3200,
7.364124,0.2756,-0.4090,-0.2145,-0.0591,0.1252,0.0543,-13.1400,16.9800,-37.3200,
7.368046,0.2756,-0.4090,-0.2145,-0.0591,0.1252,0.0543,-13.7400,17.1000,-37.5600,
7.371686,0.2756,-0.4090,-0.2145,-0.0607,0.1545,0.0325,-13.7400,17.1000,-37.5600,
7.392959,0.2756,-0.4090,-0.2145,0.0011,-0.0101,0.0336,-13.7400,17.1000,-37.5600,
7.412608,0.2756,-0.4090,-0.2145,0.0096,-0.1411,0.0479,-13.7400,17.1000,-37.5600,
7.425400,0.2756,-0.4090,-0.2145,0.0096,-0.1411,0.0479,-13.7400,17.1000,-37.5600,
7.426191,0.3410,-0.2030,-0.4599,0.0096,-0.1411,0.0479,-13.7400,17.1000,-37.5600,
7.429584,0.3410,-0.2030,-0.4599,0.0096,-0.1411,0.0479,-14.0400,17.4600,-37.3200,
7.432764,0.3410,-0.2030,-0.4599,-0.0336,-0.0447,0.0559,-14.0400,17.4600,-37.3200,
7.453702,0.3410,-0.2030,-0.4599,0.0016,0.0330,0.0730,-14.0400,17.4600,-37.3200,
7.475239,0.3410,-0.2030,-0.4599,0.0852,0.0469,0.0889,-14.0400,17.4600,-37.3200,
7.487065,0.3410,-0.2030,-0.4599,0.0852,0.0469,0.0889,-14.0400,17.4600,-37.3200,
7.488002,0.0650,0.0511,0.1247,0.0852,0.0469,0.0889,-14.0400,17.4600,-37.3200,
7.491545,0.0650,0.0511,0.1247,0.0852,0.0469,0.0889,-14.0400,17.8800,-37.3200,
7.495025,0.0650,0.0511,0.1247,0.1023,0.0613,0.0847,-14.0400,17.8800,-37.3200,
7.515459,0.0650,0.0511,0.1247,0.0613,-0.0091,0.0708,-14.0400,17.8800,-37.3200,
7.536101,0.0650,0.0511,0.1247,0.0176,-0.0852,0.0671,-14.0400,17.8800,-37.3200,
7.549388,0.0650,0.0511,0.1247,0.0176,-0.0852,0.0671,-14.0400,17.8800,-37.3200,
7.551433,-0.5076,0.1300,-0.3554,0.0176,-0.0852,0.0671,-14.0400,17.8800,-37.3200,
7.552681,-0.5076,0.1300,-0.3554,0.0176,-0.0852,0.0671,-14.4000,18.3600,-37.3200,
7.555881,-0.5076,0.1300,-0.3554,-0.0027,-0.0724,0.0820,-14.4000,18.3600,-37.3200,
7.577173,-0.5076,0.1300,-0.3554,0.0133,0.1150,0.1225,-14.4000,18.3600,-37.3200,
7.597755,-0.5076,0.1300,-0.3554,0.0895,0.2397,0.1513,-14.4000,18.3600,-37.3200,
7.612374,-0.5076,0.1300,-0.3554,0.0895,0.2397,0.1513,-14.4000,18.3600,-37.3200,
7.613802,-0.2071,0.1124,0.4432,0.0895,0.2397,0.1513,-14.4000,18.3600,-37.3200,
7.614735,-0.2071,0.1124,0.4432,0.0895,0.2397,0.1513,-14.1000,18.4800,-36.9600,
7.617843,-0.2071,0.1124,0.4432,0.1779,0.1092,0.1694,-14.1000,18.4800,-36.9600,
7.638789,-0.2071,0.1124,0.4432,0.1949,0.0639,0.1550,-14.1000,18.4800,-36.9600,
7.659328,-0.2071,0.1124,0.4432,0.2189,0.2354,0.1119,-14.1000,18.4800,-36.9600,
7.672321,-0.2071,0.1124,0.4432,0.2189,0.2354,0.1119,-14.1000,18.4800,-36.9600,
7.673340,-0.0653,-0.1754,-0.1685,0.2189,0.2354,0.1119,-14.1000,18.4800,-36.9600,
7.676998,-0.0653,-0.1754,-0.1685,0.2189,0.2354,0.1119,-13.7400,18.5400,-36.8400,
7.679203,-0.0653,-0.1754,-0.1685,0.2759,0.4762,0.0959,-13.7400,18.5400,-36.8400,
7.699857,-0.0653,-0.1754,-0.1685,0.2445,0.5220,0.1166,-13.7400,18.5400,-36.8400,
7.720372,-0.0653,-0.1754,-0.1685,0.1614,0.3931,0.1087,-13.7400,18.5400,-36.8400,
7.732846,-0.0653,-0.1754,-0.1685,0.1614,0.3931,0.1087,-13.7400,18.5400,-36.8400,
7.734315,-0.4536,-0.1260,0.5254,0.1614,0.3931,0.1087,-13.7400,18.5400,-36.8400,
7.737182,-0.4536,-0.1260,0.5254,0.1614,0.3931,0.1087,-13.6200,18.4200,-36.5400,
7.740705,-0.4536,-0.1260,0.5254,0.1129,0.1816,0.0836,-13.6200,18.4200,-36.5400,
7.761423,-0.4536,-0.1260,0.5254,0.1135,0.0144,0.0629,-13.6200,18.4200,-36.5400,
7.782247,-0.4536,-0.1260,0.5254,0.0943,0.0357,0.0463,-13.6200,18.4200,-36.5400,
7.794568,-0.4536,-0.1260,0.5254,0.0943,0.0357,0.0463,-13.6200,18.4200,-36.5400,
7.796055,0.0849,0.2436,0.0356,0.0943,0.0357,0.0463,-13.6200,18.4200,-36.5400,
7.799775,0.0849,0.2436,0.0356,0.0943,0.0357,0.0463,-12.8400,18.1800,-36.6600,
7.802367,0.0849,0.2436,0.0356,0.0229,0.0692,0.0160,-12.8400,18.1800,-36.6600,
7.825136,0.0849,0.2436,0.0356,0.0458,0.0197,-0.0043,-12.8400,18.1800,-36.6600,
7.843502,0.0849,0.2436,0.0356,0.1220,0.0208,-0.0069,-12.8400,18.1800,-36.6600,
7.856713,0.0849,0.2436,0.0356,0.1220,0.0208,-0.0069,-12.8400,18.1800,-36.6600,
7.857649,-0.1555,0.0870,-0.0595,0.1220,0.0208,-0.0069,-12.8400,18.1800,-36.6600,
7.861025,-0.1555,0.0870,-0.0595,0.1220,0.0208,-0.0069,-12.7200,18.2400,-36.8400,
7.864783,-0.1555,0.0870,-0.0595,0.1065,0.0650,-0.0053,-12.7200,18.2400,-36.8400,
7.884278,-0.1555,0.0870,-0.0595,0.0575,0.0485,-0.0133,-12.7200,18.2400,-36.8400,
7.905499,-0.1555,0.0870,-0.0595,0.0282,-0.0687,-0.0176,-12.7200,18.2400,-36.8400,
7.917505,-0.1555,0.0870,-0.0595,0.0282,-0.0687,-0.0176,-12.7200,18.2400,-36.8400,
7.919161,0.1022,0.1303,0.2764,0.0282,-0.0687,-0.0176,-12.7200,18.2400,-36.8400,
7.922232,0.1022,0.1303,0.2764,0.0282,-0.0687,-0.0176,-12.7800,17.5200,-37.3800,
7.926404,0.1022,0.1303,0.2764,0.0453,-0.1619,-0.0123,-12.7800,17.5200,-37.3800,
7.946122,0.1022,0.1303,0.2764,0.0618,-0.0959,0.0123,-12.7800,17.5200,-37.3800,
7.967827,0.1022,0.1303,0.2764,0.0389,-0.1039,0.0181,-12.7800,17.5200,-37.3800,
7.979941,0.1022,0.1303,0.2764,0.0389,-0.1039,0.0181,-12.7800,17.5200,-37.3800,
7.981288,0.1088,0.2884,-0.3535,0.0389,-0.1039,0.0181,-12.7800,17.5200,-37.3800,
7.984294,0.1088,0.2884,-0.3535,0.0389,-0.1039,0.0181,-12.6600,17.7000,-37.9800,
7.987288,0.1088,0.2884,-0.3535,-0.0304,-0.1822,0.0059,-12.6600,17.7000,-37.9800,
8.007988,0.1088,0.2884,-0.3535,-0.1236,-0.1699,-0.0128,-12.6600,17.7000,-37.9800,
8.028557,0.1088,0.2884,-0.3535,-0.1481,-0.0527,-0.0352,-12.6600,17.7000,-37.9800,
8.043286,0.1088,0.2884,-0.3535,-0.1481,-0.0527,-0.0352,-12.6600,17.7000,-37.9800,
8.044173,-0.2866,-0.3836,0.0746,-0.1481,-0.0527,-0.0352,-12.6600,17.7000,-37.9800,
8.045248,-0.2866,-0.3836,0.0746,-0.1481,-0.0527,-0.0352,-12.9000,17.4600,-37.8000,
8.048424,-0.2866,-0.3836,0.0746,-0.0549,0.0495,-0.0224,-12.9000,17.4600,-37.8000,
8.069271,-0.2866,-0.3836,0.0746,0.0346,0.0501,0.0133,-12.9000,17.4600,-37.8000,
8.089657,-0.2866,-0.3836,0.0746,-0.0160,0.0245,0.0043,-12.9000,17.4600,-37.8000,
8.102224,-0.2866,-0.3836,0.0746,-0.0160,0.0245,0.0043,-12.9000,17.4600,-37.8000,
8.103641,0.5197,-0.0231,-0.0750,-0.0160,0.0245,0.0043,-12.9000,17.4600,-37.8000,
8.106655,0.5197,-0.0231,-0.0750,-0.0160,0.0245,0.0043,-13.0200,17.0400,-37.9800,
8.111491,0.5197,-0.0231,-0.0750,-0.0820,-0.0458,-0.0506,-13.0200,17.0400,-37.9800,
8.130509,0.5197,-0.0231,-0.0750,-0.0650,-0.0900,-0.0607,-13.0200,17.0400,-37.9800,
8.151784,0.5197,-0.0231,-0.0750,-0.0644,-0.1625,-0.0341,-13.0200,17.0400,-37.9800,
8.164370,0.5197,-0.0231,-0.0750,-0.0644,-0.1625,-0.0341,-13.0200,17.0400,-37.9800,
8.165768,-0.2504,-0.2294,-0.3894,-0.0644,-0.1625,-0.0341,-13.0200,17.0400,-37.9800,
8.168825,-0.2504,-0.2294,-0.3894,-0.0644,-0.1625,-0.0341,-12.2400,17.5200,-38.0400,
8.171910,-0.2504,-0.2294,-0.3894,-0.1209,-0.1758,-0.0037,-12.2400,17.5200,-38.0400,
8.192990,-0.2504,-0.2294,-0.3894,-0.1933,-0.0937,-0.0170,-12.2400,17.5200,-38.0400,
8.213091,-0.2504,-0.2294,-0.3894,-0.1742,-0.1033,-0.0320,-12.2400,17.5200,-38.0400,
8.226876,-0.2504,-0.2294,-0.3894,-0.1742,-0.1033,-0.0320,-12.2400,17.5200,-38.0400,
8.229063,0.3961,-0.1572,0.0343,-0.1742,-0.1033,-0.0320,-12.2400,17.5200,-38.0400,
8.231523,0.3961,-0.1572,0.0343,-0.1742,-0.1033,-0.0320,-12.5400,17.0400,-37.9800,
8.233503,0.3961,-0.1572,0.0343,-0.1012,-0.1028,-0.0261,-12.5400,17.0400,-37.9800,
8.253842,0.3961,-0.1572,0.0343,0.0091,0.0597,-0.0320,-12.5400,17.0400,-37.9800,
8.274500,0.3961,-0.1572,0.0343,0.2125,0.4432,-0.0565,-12.5400,17.0400,-37.9800,
8.287697,0.3961,-0.1572,0.0343,0.2125,0.4432,-0.0565,-12.5400,17.0400,-37.9800,
8.288448,0.1028,-0.3135,-0.3400,0.2125,0.4432,-0.0565,-12.5400,17.0400,-37.9800,
8.291667,0.1028,-0.3135,-0.3400,0.2125,0.4432,-0.0565,-12.3000,16.9800,-38.3400,
8.294531,0.1028,-0.3135,-0.3400,-0.2796,-0.0415,-0.3105,-12.3000,16.9800,-38.3400,
8.315591,0.1028,-0.3135,-0.3400,-1.1984,-0.6088,-0.6360,-12.3000,16.9800,-38.3400,
8.336344,0.1028,-0.3135,-0.3400,-1.0557,-1.9580,-0.3654,-12.3000,16.9800,-38.3400,
8.349312,0.1028,-0.3135,-0.3400,-1.0557,-1.9580,-0.3654,-12.3000,16.9800,-38.3400,
8.350684,-0.4860,0.1546,2.3271,-1.0557,-1.9580,-0.3654,-12.3000,16.9800,-38.3400,
8.353219,-0.4860,0.1546,2.3271,-1.0557,-1.9580,-0.3654,-12.0600,16.7400,-38.2800,
8.356565,-0.4860,0.1546,2.3271,-0.9816,-2.5428,-0.2796,-12.0600,16.7400,-38.2800,
8.378003,-0.4860,0.1546,2.3271,-1.3332,-2.4964,0.0549,-12.0600,16.7400,-38.2800,
8.398321,-0.4860,0.1546,2.3271,-0.8021,-0.9646,-0.1651,-12.0600,16.7400,-38.2800,
8.411766,-0.4860,0.1546,2.3271,-0.8021,-0.9646,-0.1651,-12.0600,16.7400,-38.2800,
8.413122,0.0369,-0.7159,1.9189,-0.8021,-0.9646,-0.1651,-12.0600,16.7400,-38.2800,
8.415735,0.0369,-0.7159,1.9189,-0.8021,-0.9646,-0.1651,-13.6200,17.2800,-37.2600,
8.418534,0.0369,-0.7159,1.9189,0.6791,1.9713,-0.1481,-13.6200,17.2800,-37.2600,
8.439001,0.0369,-0.7159,1.9189,0.9960,1.7183,0.5209,-13.6200,17.2800,-37.2600,
8.459369,0.0369,-0.7159,1.9189,0.6999,1.1745,0.2072,-13.6200,17.2800,-37.2600,
8.471844,0.0369,-0.7159,1.9189,0.6999,1.1745,0.2072,-13.6200,17.2800,-37.2600,
8.472733,0.8550,-0.5800,-0.4569,0.6999,1.1745,0.2072,-13.6200,17.2800,-37.2600,
8.477554,0.8550,-0.5800,-0.4569,0.6999,1.1745,0.2072,-14.6400,18.3000,-36.0600,
8.480044,0.8550,-0.5800,-0.4569,0.5017,1.1814,0.0224,-14.6400,18.3000,-36.0600,
8.499805,0.8550,-0.5800,-0.4569,0.0330,0.7686,-0.1774,-14.6400,18.3000,-36.0600,
8.520790,0.8550,-0.5800,-0.4569,-0.4000,-0.1220,-0.3755,-14.6400,18.3000,-36.0600,
8.533392,0.8550,-0.5800,-0.4569,-0.4000,-0.1220,-0.3755,-14.6400,18.3000,-36.0600,
8.534875,-0.1725,-0.2902,1.6923,-0.4000,-0.1220,-0.3755,-14.6400,18.3000,-36.0600,
8.538028,-0.1725,-0.2902,1.6923,-0.4000,-0.1220,-0.3755,-15.1200,18.8400,-35.6400,
8.540907,-0.1725,-0.2902,1.6923,-0.4565,-0.8788,-0.3553,-15.1200,18.8400,-35.6400,
8.562455,-0.1725,-0.2902,1.6923,-0.3361,-0.9129,-0.3201,-15.1200,18.8400,-35.6400,
8.583360,-0.1725,-0.2902,1.6923,-0.3105,-0.0059,-0.1140,-15.1200,18.8400,-35.6400,
8.596155,-0.1725,-0.2902,1.6923,-0.3105,-0.0059,-0.1140,-15.1200,18.8400,-35.6400,
8.597583,-1.5032,0.6296,-0.8098,-0.3105,-0.0059,-0.1140,-15.1200,18.8400,-35.6400,
8.599766,-1.5032,0.6296,-0.8098,-0.3105,-0.0059,-0.1140,-15.9000,19.6800,-35.2800,
8.603080,-1.5032,0.6296,-0.8098,0.1481,0.5326,0.1603,-15.9000,19.6800,-35.2800,
8.623362,-1.5032,0.6296,-0.8098,0.4112,0.5934,0.3638,-15.9000,19.6800,-35.2800,
8.644043,-1.5032,0.6296,-0.8098,0.3611,0.6269,0.4277,-15.9000,19.6800,-35.2800,
8.656710,-1.5032,0.6296,-0.8098,0.3611,0.6269,0.4277,-15.9000,19.6800,-35.2800,
8.657610,0.2334,-0.6045,0.2869,0.3611,0.6269,0.4277,-15.9000,19.6800,-35.2800,
8.660742,0.2334,-0.6045,0.2869,0.3611,0.6269,0.4277,-15.6000,19.8600,-35.2200,
8.663932,0.2334,-0.6045,0.2869,0.0650,0.3052,0.3388,-15.6000,19.8600,-35.2200,
8.685007,0.2334,-0.6045,0.2869,-0.1939,-0.0703,0.3377,-15.6000,19.8600,-35.2200,
8.705181,0.2334,-0.6045,0.2869,-0.3329,-0.2386,0.5337,-15.6000,19.8600,-35.2200,
8.717765,0.2334,-0.6045,0.2869,-0.3329,-0.2386,0.5337,-15.6000,19.8600,-35.2200,
8.719347,-1.7430,-0.7324,0.0214,-0.3329,-0.2386,0.5337,-15.6000,19.8600,-35.2200,
8.722164,-1.7430,-0.7324,0.0214,-0.3329,-0.2386,0.5337,-14.8800,19.7400,-36.2400,
8.726712,-1.7430,-0.7324,0.0214,-0.3755,-0.4080,0.8607,-14.8800,19.7400,-36.2400,
8.746057,-1.7430,-0.7324,0.0214,-0.4522,-0.7334,1.0978,-14.8800,19.7400,-36.2400,
8.767091,-1.7430,-0.7324,0.0214,-0.5715,-1.3449,1.0749,-14.8800,19.7400,-36.2400,
8.780411,-1.7430,-0.7324,0.0214,-0.5715,-1.3449,1.0749,-14.8800,19.7400,-36.2400,
8.782729,1.3375,-1.1087,0.0012,-0.5715,-1.3449,1.0749,-14.8800,19.7400,-36.2400,
8.784940,1.3375,-1.1087,0.0012,-0.5715,-1.3449,1.0749,-15.3000,20.0400,-36.1800,
8.787177,1.3375,-1.1087,0.0012,-0.6173,-1.6091,0.8890,-15.3000,20.0400,-36.1800,
8.808886,1.3375,-1.1087,0.0012,-0.6541,-1.3811,1.0408,-15.3000,20.0400,-36.1800,
8.828628,1.3375,-1.1087,0.0012,-0.6376,-1.1739,1.0301,-15.3000,20.0400,-36.1800,
8.841096,1.3375,-1.1087,0.0012,-0.6376,-1.1739,1.0301,-15.3000,20.0400,-36.1800,
8.841945,-0.5376,0.0645,0.1851,-0.6376,-1.1739,1.0301,-15.3000,20.0400,-36.1800,
8.845684,-0.5376,0.0645,0.1851,-0.6376,-1.1739,1.0301,-15.4800,20.7600,-36.0000,
8.848898,-0.5376,0.0645,0.1851,-0.3979,-1.0594,1.1153,-15.4800,20.7600,-36.0000,
8.869234,-0.5376,0.0645,0.1851,-0.2338,-1.0173,1.2623,-15.4800,20.7600,-36.0000,
8.890199,-0.5376,0.0645,0.1851,-0.1513,-0.8863,0.8293,-15.4800,20.7600,-36.0000,
8.902464,-0.5376,0.0645,0.1851,-0.1513,-0.8863,0.8293,-15.4800,20.7600,-36.0000,
8.903838,3.7357,0.1365,-0.1693,-0.1513,-0.8863,0.8293,-15.4800,20.7600,-36.0000,
8.907015,3.7357,0.1365,-0.1693,-0.1513,-0.8863,0.8293,-15.7200,21.7800,-35.0400,
8.910435,3.7357,0.1365,-0.1693,-0.2573,-0.1971,0.1316,-15.7200,21.7800,-35.0400,
8.931161,3.7357,0.1365,-0.1693,-0.1614,0.9113,-0.0543,-15.7200,21.7800,-35.0400,
8.951360,3.7357,0.1365,-0.1693,-0.0149,0.9779,0.3180,-15.7200,21.7800,-35.0400,
8.964106,3.7357,0.1365,-0.1693,-0.0149,0.9779,0.3180,-15.7200,21.7800,-35.0400,
8.965582,-0.3582,1.1884,0.4839,-0.0149,0.9779,0.3180,-15.7200,21.7800,-35.0400,
8.968360,-0.3582,1.1884,0.4839,-0.0149,0.9779,0.3180,-16.3800,23.1000,-33.1800,
8.971768,-0.3582,1.1884,0.4839,0.2013,0.5284,0.5156,-16.3800,23.1000,-33.1800,
8.992513,-0.3582,1.1884,0.4839,0.5167,0.0836,0.5875,-16.3800,23.1000,-33.1800,
9.013644,-0.3582,1.1884,0.4839,0.8133,0.4959,0.4906,-16.3800,23.1000,-33.1800,
9.028476,-0.3582,1.1884,0.4839,0.8133,0.4959,0.4906,-16.3800,23.1000,-33.1800,
9.030099,1.3470,-0.5118,-1.5742,0.8133,0.4959,0.4906,-16.3800,23.1000,-33.1800,
9.031439,1.3470,-0.5118,-1.5742,0.8133,0.4959,0.4906,-16.2000,24.4800,-32.2200,
9.033186,1.3470,-0.5118,-1.5742,0.6764,0.8133,0.3388,-16.2000,24.4800,-32.2200,
9.054550,1.3470,-0.5118,-1.5742,0.7233,0.8666,0.2594,-16.2000,24.4800,-32.2200,
9.075295,1.3470,-0.5118,-1.5742,0.8128,0.9140,0.2594,-16.2000,24.4800,-32.2200,
9.087479,1.3470,-0.5118,-1.5742,0.8128,0.9140,0.2594,-16.2000,24.4800,-32.2200,
9.088364,0.0531,0.2930,0.0332,0.8128,0.9140,0.2594,-16.2000,24.4800,-32.2200,
9.092116,0.0531,0.2930,0.0332,0.8128,0.9140,0.2594,-15.4200,25.1400,-31.5000,
9.095372,0.0531,0.2930,0.0332,0.9305,0.7617,0.3750,-15.4200,25.1400,-31.5000,
9.115782,0.0531,0.2930,0.0332,0.9507,0.7659,0.5246,-15.4200,25.1400,-31.5000,
9.136105,0.0531,0.2930,0.0332,0.9065,1.5233,0.7430,-15.4200,25.1400,-31.5000,
9.148831,0.0531,0.2930,0.0332,0.9065,1.5233,0.7430,-15.4200,25.1400,-31.5000,
9.150031,-0.1958,1.2233,-0.5557,0.9065,1.5233,0.7430,-15.4200,25.1400,-31.5000,
9.153235,-0.1958,1.2233,-0.5557,0.9065,1.5233,0.7430,-14.1000,24.6000,-32.2200,
9.156395,-0.1958,1.2233,-0.5557,0.7766,1.1835,0.9151,-14.1000,24.6000,-32.2200,
9.177490,-0.1958,1.2233,-0.5557,0.8448,0.2770,0.8607,-14.1000,24.6000,-32.2200,
9.197973,-0.1958,1.2233,-0.5557,0.8522,-0.0581,0.5236,-14.1000,24.6000,-32.2200,
9.210167,-0.1958,1.2233,-0.5557,0.8522,-0.0581,0.5236,-14.1000,24.6000,-32.2200,
9.210713,0.3195,-0.2284,0.0413,0.8522,-0.0581,0.5236,-14.1000,24.6000,-32.2200,
9.214349,0.3195,-0.2284,0.0413,0.8522,-0.0581,0.5236,-11.9400,23.6400,-34.0200,
9.217945,0.3195,-0.2284,0.0413,0.8128,0.0213,-0.0043,-11.9400,23.6400,-34.0200,
9.238407,0.3195,-0.2284,0.0413,0.3856,0.2264,-0.1571,-11.9400,23.6400,-34.0200,
9.259186,0.3195,-0.2284,0.0413,0.0005,0.1310,-0.0272,-11.9400,23.6400,-34.0200,
9.271749,0.3195,-0.2284,0.0413,0.0005,0.1310,-0.0272,-11.9400,23.6400,-34.0200,
9.272291,-0.6783,0.5566,0.2353,0.0005,0.1310,-0.0272,-11.9400,23.6400,-34.0200,
9.278323,-0.6783,0.5566,0.2353,0.0005,0.1310,-0.0272,-9.7200,22.5600,-35.5800,
9.279523,-0.6783,0.5566,0.2353,-0.1364,-0.0378,0.0724,-9.7200,22.5600,-35.5800,
9.300441,-0.6783,0.5566,0.2353,-0.1060,0.0069,0.0613,-9.7200,22.5600,-35.5800,
9.320570,-0.6783,0.5566,0.2353,0.0202,0.1166,0.0165,-9.7200,22.5600,-35.5800,
9.333694,-0.6783,0.5566,0.2353,0.0202,0.1166,0.0165,-9.7200,22.5600,-35.5800,
9.335065,0.1612,-0.2084,-0.0991,0.0202,0.1166,0.0165,-9.7200,22.5600,-35.5800,
9.337790,0.1612,-0.2084,-0.0991,0.0202,0.1166,0.0165,-8.0400,21.0600,-36.6600,
9.342970,0.1612,-0.2084,-0.0991,0.1736,0.1502,0.0900,-8.0400,21.0600,-36.6600,
9.362123,0.1612,-0.2084,-0.0991,0.2732,0.2434,0.1901,-8.0400,21.0600,-36.6600,
9.382714,0.1612,-0.2084,-0.0991,0.3169,0.2637,0.1752,-8.0400,21.0600,-36.6600,
9.395640,0.1612,-0.2084,-0.0991,0.3169,0.2637,0.1752,-8.0400,21.0600,-36.6600,
9.397763,-0.1837,0.3214,0.1871,0.3169,0.2637,0.1752,-8.0400,21.0600,-36.6600,
9.399781,-0.1837,0.3214,0.1871,0.3169,0.2637,0.1752,-6.7800,20.4600,-37.8000,
9.402387,-0.1837,0.3214,0.1871,0.3675,0.2993,0.1204,-6.7800,20.4600,-37.8000,
9.424666,-0.1837,0.3214,0.1871,0.4261,0.2471,0.0847,-6.7800,20.4600,-37.8000,
9.445063,-0.1837,0.3214,0.1871,0.3478,0.1971,0.0879,-6.7800,20.4600,-37.8000,
9.456676,-0.1837,0.3214,0.1871,0.3478,0.1971,0.0879,-6.7800,20.4600,-37.8000,
9.457428,-0.1391,0.0666,0.0295,0.3478,0.1971,0.0879,-6.7800,20.4600,-37.8000,
9.460986,-0.1391,0.0666,0.0295,0.3478,0.1971,0.0879,-5.7600,19.9200,-37.8000,
9.465079,-0.1391,0.0666,0.0295,0.1960,0.1465,0.1390,-5.7600,19.9200,-37.8000,
9.485223,-0.1391,0.0666,0.0295,0.0618,0.0293,0.1198,-5.7600,19.9200,-37.8000,
9.505999,-0.1391,0.0666,0.0295,-0.0298,-0.0245,0.0879,-5.7600,19.9200,-37.8000,
9.518372,-0.1391,0.0666,0.0295,-0.0298,-0.0245,0.0879,-5.7600,19.9200,-37.8000,
9.519822,0.1558,-0.3378,0.1175,-0.0298,-0.0245,0.0879,-5.7600,19.9200,-37.8000,
9.523009,0.1558,-0.3378,0.1175,-0.0298,-0.0245,0.0879,-5.2200,19.6800,-37.6200,
9.527083,0.1558,-0.3378,0.1175,-0.0490,0.0149,0.0671,-5.2200,19.6800,-37.6200,
9.547134,0.1558,-0.3378,0.1175,-0.0336,0.0144,-0.0138,-5.2200,19.6800,-37.6200,
9.567345,0.1558,-0.3378,0.1175,-0.0096,0.0224,-0.0080,-5.2200,19.6800,-37.6200,
9.580061,0.1558,-0.3378,0.1175,-0.0096,0.0224,-0.0080,-5.2200,19.6800,-37.6200,
9.581144,-0.1064,0.1977,-0.1374,-0.0096,0.0224,-0.0080,-5.2200,19.6800,-37.6200,
9.584421,-0.1064,0.1977,-0.1374,-0.0096,0.0224,-0.0080,-4.5600,20.2200,-37.9800,
9.587727,-0.1064,0.1977,-0.1374,0.0293,0.0352,0.0692,-4.5600,20.2200,-37.9800,
9.609486,-0.1064,0.1977,-0.1374,0.0527,0.0831,0.0218,-4.5600,20.2200,-37.9800,
9.629045,-0.1064,0.1977,-0.1374,0.0160,0.0511,-0.0719,-4.5600,20.2200,-37.9800,
9.641673,-0.1064,0.1977,-0.1374,0.0160,0.0511,-0.0719,-4.5600,20.2200,-37.9800,
9.642506,-0.0374,-0.5988,0.3339,0.0160,0.0511,-0.0719,-4.5600,20.2200,-37.9800,
9.645929,-0.0374,-0.5988,0.3339,0.0160,0.0511,-0.0719,-3.7800,19.9800,-38.0400,
9.649326,-0.0374,-0.5988,0.3339,-0.1033,-0.1374,-0.1214,-3.7800,19.9800,-38.0400,
9.670104,-0.0374,-0.5988,0.3339,-0.1917,-0.1103,-0.0889,-3.7800,19.9800,-38.0400,
9.690771,-0.0374,-0.5988,0.3339,-0.2093,-0.0325,-0.0527,-3.7800,19.9800,-38.0400,
9.703125,-0.0374,-0.5988,0.3339,-0.2093,-0.0325,-0.0527,-3.7800,19.9800,-38.0400,
9.704024,0.0775,-0.2785,0.0138,-0.2093,-0.0325,-0.0527,-3.7800,19.9800,-38.0400,
9.707645,0.0775,-0.2785,0.0138,-0.2093,-0.0325,-0.0527,-3.7200,19.8000,-38.5200,
9.711133,0.0775,-0.2785,0.0138,-0.1225,-0.0304,-0.1156,-3.7200,19.8000,-38.5200,
9.731538,0.0775,-0.2785,0.0138,-0.0767,-0.0874,-0.1992,-3.7200,19.8000,-38.5200,
9.752947,0.0775,-0.2785,0.0138,-0.1438,-0.1055,-0.2152,-3.7200,19.8000,-38.5200,
9.765603,0.0775,-0.2785,0.0138,-0.1438,-0.1055,-0.2152,-3.7200,19.8000,-38.5200,
9.767166,-0.2200,0.6743,0.0159,-0.1438,-0.1055,-0.2152,-3.7200,19.8000,-38.5200,
9.769620,-0.2200,0.6743,0.0159,-0.1438,-0.1055,-0.2152,-3.7800,19.7400,-38.7600,
9.772295,-0.2200,0.6743,0.0159,-0.2258,-0.1172,-0.1923,-3.7800,19.7400,-38.7600,
9.794425,-0.2200,0.6743,0.0159,-0.2658,-0.0027,-0.1337,-3.7800,19.7400,-38.7600,
9.815115,-0.2200,0.6743,0.0159,-0.2445,0.1481,-0.1225,-3.7800,19.7400,-38.7600,
9.828788,-0.2200,0.6743,0.0159,-0.2445,0.1481,-0.1225,-3.7800,19.7400,-38.7600,
9.830227,0.0538,-0.6013,-0.2046,-0.2445,0.1481,-0.1225,-3.7800,19.7400,-38.7600,
9.831685,0.0538,-0.6013,-0.2046,-0.2445,0.1481,-0.1225,-4.1400,19.3200,-39.1200,
9.836093,0.0538,-0.6013,-0.2046,-0.1662,0.1651,-0.1646,-4.1400,19.3200,-39.1200,
9.854603,0.0538,-0.6013,-0.2046,-0.1007,0.0836,-0.1513,-4.1400,19.3200,-39.1200,
9.875543,0.0538,-0.6013,-0.2046,-0.0554,-0.0245,-0.1385,-4.1400,19.3200,-39.1200,
9.888660,0.0538,-0.6013,-0.2046,-0.0554,-0.0245,-0.1385,-4.1400,19.3200,-39.1200,
9.889462,0.2726,0.2300,-0.2318,-0.0554,-0.0245,-0.1385,-4.1400,19.3200,-39.1200,
9.892699,0.2726,0.2300,-0.2318,-0.0554,-0.0245,-0.1385,-4.6800,19.5600,-38.8800,
9.895043,0.2726,0.2300,-0.2318,0.2024,0.1076,-0.1081,-4.6800,19.5600,-38.8800,
9.915939,0.2726,0.2300,-0.2318,0.1731,0.0682,-0.0703,-4.6800,19.5600,-38.8800,
9.935957,0.2726,0.2300,-0.2318,0.0043,0.1470,-0.0810,-4.6800,19.5600,-38.8800,
9.948700,0.2726,0.2300,-0.2318,0.0043,0.1470,-0.0810,-4.6800,19.5600,-38.8800,
9.949458,0.2316,-0.5066,0.1956,0.0043,0.1470,-0.0810,-4.6800,19.5600,-38.8800,
9.953251,0.2316,-0.5066,0.1956,0.0043,0.1470,-0.0810,-4.5600,19.7400,-38.8200,
9.956854,0.2316,-0.5066,0.1956,-0.0208,0.0985,-0.0772,-4.5600,19.7400,-38.8200,
9.977686,0.2316,-0.5066,0.1956,-0.0069,0.0378,-0.0479,-4.5600,19.7400,-38.8200,
9.998420,0.2316,-0.5066,0.1956,-0.0602,0.0000,-0.0485,-4.5600,19.7400,-38.8200,
10.010999,0.2316,-0.5066,0.1956,-0.0602,0.0000,-0.0485,-4.5600,19.7400,-38.8200,
10.011759,0.0161,-0.0343,-0.0818,-0.0602,0.0000,-0.0485,-4.5600,19.7400,-38.8200,
10.015390,0.0161,-0.0343,-0.0818,-0.0602,0.0000,-0.0485,-4.8600,19.9200,-38.3400,
