
time,ax,ay,az,wx,wy,wz,Bx,By,Bz,
0.015297,0.0000,0.0000,0.0000,-0.0474,-0.2583,0.0740,0.0000,0.0000,0.0000,
0.035438,0.0000,0.0000,0.0000,-0.0474,-0.2583,0.0740,0.0000,0.0000,0.0000,
0.056638,0.0000,0.0000,0.0000,-0.0474,-0.2583,0.0740,0.0000,0.0000,0.0000,
0.061062,0.0000,0.0000,0.0000,-0.0474,-0.2583,0.0740,0.0000,0.0000,0.0000,
0.064727,0.0000,0.0000,0.0000,-0.0474,-0.2583,0.0740,10.9800,35.6400,-14.1000,
0.077606,0.0000,0.0000,0.0000,0.0027,-0.1135,0.0458,10.9800,35.6400,-14.1000,
0.097075,0.0000,0.0000,0.0000,-0.0756,-0.1294,0.0005,10.9800,35.6400,-14.1000,
0.118344,0.0000,0.0000,0.0000,-0.1284,-0.0740,0.0053,10.9800,35.6400,-14.1000,
0.122262,0.0000,0.0000,0.0000,-0.1284,-0.0740,0.0053,10.9800,35.6400,-14.1000,
0.123217,0.0287,0.0166,-0.0053,-0.1284,-0.0740,0.0053,10.9800,35.6400,-14.1000,
0.126828,0.0287,0.0166,-0.0053,-0.1284,-0.0740,0.0053,18.3600,15.0600,14.8800,
0.138537,0.0287,0.0166,-0.0053,-0.0948,-0.0506,-0.0005,18.3600,15.0600,14.8800,
0.159075,0.0287,0.0166,-0.0053,-0.0767,0.0197,0.0463,18.3600,15.0600,14.8800,
0.179334,0.0287,0.0166,-0.0053,-0.0341,0.0575,0.0591,18.3600,15.0600,14.8800,
0.183476,0.0287,0.0166,-0.0053,-0.0341,0.0575,0.0591,18.3600,15.0600,14.8800,
0.183800,0.1985,0.0769,0.0382,-0.0341,0.0575,0.0591,18.3600,15.0600,14.8800,
0.188293,0.1985,0.0769,0.0382,-0.0341,0.0575,0.0591,22.1400,4.6200,29.4600,
0.199694,0.1985,0.0769,0.0382,-0.1012,0.0080,0.0602,22.1400,4.6200,29.4600,
0.220622,0.1985,0.0769,0.0382,-0.0820,-0.0570,0.0037,22.1400,4.6200,29.4600,
0.241028,0.1985,0.0769,0.0382,-0.2365,-0.2802,0.0597,22.1400,4.6200,29.4600,
0.245975,0.1985,0.0769,0.0382,-0.2365,-0.2802,0.0597,22.1400,4.6200,29.4600,
0.246517,-0.1391,-0.0046,0.1995,-0.2365,-0.2802,0.0597,22.1400,4.6200,29.4600,
0.249736,-0.1391,-0.0046,0.1995,-0.2365,-0.2802,0.0597,25.9800,-6.4200,43.8000,
0.261621,-0.1391,-0.0046,0.1995,-0.3840,-0.1502,0.0767,25.9800,-6.4200,43.8000,
0.282181,-0.1391,-0.0046,0.1995,-0.1875,-0.3111,0.1395,25.9800,-6.4200,43.8000,
0.302474,-0.1391,-0.0046,0.1995,-0.0719,-0.1449,0.1273,25.9800,-6.4200,43.8000,
0.306915,-0.1391,-0.0046,0.1995,-0.0719,-0.1449,0.1273,25.9800,-6.4200,43.8000,
0.307547,-0.3001,-0.2896,0.0979,-0.0719,-0.1449,0.1273,25.9800,-6.4200,43.8000,
0.311318,-0.3001,-0.2896,0.0979,-0.0719,-0.1449,0.1273,26.1000,-6.9000,44.0400,
0.323170,-0.3001,-0.2896,0.0979,-0.0895,-0.2578,0.2381,26.1000,-6.9000,44.0400,
0.344316,-0.3001,-0.2896,0.0979,-0.0522,-0.2035,0.3915,26.1000,-6.9000,44.0400,
0.364523,-0.3001,-0.2896,0.0979,-0.0692,-0.2653,0.5539,26.1000,-6.9000,44.0400,
0.369816,-0.3001,-0.2896,0.0979,-0.0692,-0.2653,0.5539,26.1000,-6.9000,44.0400,
0.370491,-0.1365,-0.9058,0.2451,-0.0692,-0.2653,0.5539,26.1000,-6.9000,44.0400,
0.374467,-0.1365,-0.9058,0.2451,-0.0692,-0.2653,0.5539,26.0400,-7.4400,43.3800,
0.384525,-0.1365,-0.9058,0.2451,-0.1124,-0.2381,0.7164,26.0400,-7.4400,43.3800,
0.405176,-0.1365,-0.9058,0.2451,-0.0916,-0.3036,0.5444,26.0400,-7.4400,43.3800,
0.425543,-0.1365,-0.9058,0.2451,-0.0602,-0.2988,-0.0799,26.0400,-7.4400,43.3800,
0.430037,-0.1365,-0.9058,0.2451,-0.0602,-0.2988,-0.0799,26.0400,-7.4400,43.3800,
0.430611,-0.4713,1.1404,-0.4799,-0.0602,-0.2988,-0.0799,26.0400,-7.4400,43.3800,
0.434539,-0.4713,1.1404,-0.4799,-0.0602,-0.2988,-0.0799,26.3400,-7.8000,43.0200,
0.446303,-0.4713,1.1404,-0.4799,0.0064,-0.0708,-0.4027,26.3400,-7.8000,43.0200,
0.466942,-0.4713,1.1404,-0.4799,0.1529,0.1097,-0.3968,26.3400,-7.8000,43.0200,
0.487118,-0.4713,1.1404,-0.4799,0.2413,0.1017,-0.1635,26.3400,-7.8000,43.0200,
0.491122,-0.4713,1.1404,-0.4799,0.2413,0.1017,-0.1635,26.3400,-7.8000,43.0200,
0.491424,-0.4405,-0.0342,0.2273,0.2413,0.1017,-0.1635,26.3400,-7.8000,43.0200,
0.495793,-0.4405,-0.0342,0.2273,0.2413,0.1017,-0.1635,26.7000,-8.4000,43.2600,
0.507991,-0.4405,-0.0342,0.2273,0.2178,0.0037,0.1566,26.7000,-8.4000,43.2600,
0.528554,-0.4405,-0.0342,0.2273,0.1273,-0.0075,0.2498,26.7000,-8.4000,43.2600,
0.549742,-0.4405,-0.0342,0.2273,-0.0682,-0.0826,0.1316,26.7000,-8.4000,43.2600,
0.553299,-0.4405,-0.0342,0.2273,-0.0682,-0.0826,0.1316,26.7000,-8.4000,43.2600,
0.553888,0.4988,-1.9079,-0.0090,-0.0682,-0.0826,0.1316,26.7000,-8.4000,43.2600,
0.557887,0.4988,-1.9079,-0.0090,-0.0682,-0.0826,0.1316,27.1200,-8.7600,42.4200,
0.569623,0.4988,-1.9079,-0.0090,-0.3153,-0.2194,-0.0996,27.1200,-8.7600,42.4200,
0.589571,0.4988,-1.9079,-0.0090,-0.5278,-0.4133,-0.2578,27.1200,-8.7600,42.4200,
0.610685,0.4988,-1.9079,-0.0090,-0.5289,-0.4432,-0.3760,27.1200,-8.7600,42.4200,
0.614506,0.4988,-1.9079,-0.0090,-0.5289,-0.4432,-0.3760,27.1200,-8.7600,42.4200,
0.615022,0.2583,0.9517,-0.2430,-0.5289,-0.4432,-0.3760,27.1200,-8.7600,42.4200,
0.619074,0.2583,0.9517,-0.2430,-0.5289,-0.4432,-0.3760,27.2400,-8.9400,42.3000,
0.631250,0.2583,0.9517,-0.2430,-0.5097,-0.3840,-0.5465,27.2400,-8.9400,42.3000,
0.652081,0.2583,0.9517,-0.2430,-0.4011,-0.4879,-0.6088,27.2400,-8.9400,42.3000,
0.672236,0.2583,0.9517,-0.2430,-0.3435,-0.5561,-0.5103,27.2400,-8.9400,42.3000,
0.676611,0.2583,0.9517,-0.2430,-0.3435,-0.5561,-0.5103,27.2400,-8.9400,42.3000,
0.677043,-0.3633,-0.0450,0.0344,-0.3435,-0.5561,-0.5103,27.2400,-8.9400,42.3000,
0.680705,-0.3633,-0.0450,0.0344,-0.3435,-0.5561,-0.5103,27.9600,-9.0600,41.5200,
0.692486,-0.3633,-0.0450,0.0344,-0.2999,-0.3292,-0.3979,27.9600,-9.0600,41.5200,
0.713611,-0.3633,-0.0450,0.0344,-0.2248,-0.3164,-0.2253,27.9600,-9.0600,41.5200,
0.734346,-0.3633,-0.0450,0.0344,-0.3989,-0.0884,-0.5587,27.9600,-9.0600,41.5200,
0.738080,-0.3633,-0.0450,0.0344,-0.3989,-0.0884,-0.5587,27.9600,-9.0600,41.5200,
0.738751,1.2782,-0.6661,-0.2757,-0.3989,-0.0884,-0.5587,27.9600,-9.0600,41.5200,
0.742788,1.2782,-0.6661,-0.2757,-0.3989,-0.0884,-0.5587,28.9200,-8.7000,40.5000,
0.754781,1.2782,-0.6661,-0.2757,-0.7553,0.1358,-1.1995,28.9200,-8.7000,40.5000,
0.774694,1.2782,-0.6661,-0.2757,-0.8229,-0.2882,-1.3827,28.9200,-8.7000,40.5000,
0.794851,1.2782,-0.6661,-0.2757,-0.4080,-0.9433,-1.0157,28.9200,-8.7000,40.5000,
0.799220,1.2782,-0.6661,-0.2757,-0.4080,-0.9433,-1.0157,28.9200,-8.7000,40.5000,
0.799519,0.5829,0.1393,0.5265,-0.4080,-0.9433,-1.0157,28.9200,-8.7000,40.5000,
0.804065,0.5829,0.1393,0.5265,-0.4080,-0.9433,-1.0157,29.6400,-8.7600,39.6000,
0.815939,0.5829,0.1393,0.5265,0.1358,-0.8884,-0.4171,29.6400,-8.7600,39.6000,
0.836307,0.5829,0.1393,0.5265,0.4208,-0.0932,-0.0245,29.6400,-8.7600,39.6000,
0.857016,0.5829,0.1393,0.5265,0.4953,0.5630,0.0442,29.6400,-8.7600,39.6000,
0.861602,0.5829,0.1393,0.5265,0.4953,0.5630,0.0442,29.6400,-8.7600,39.6000,
0.862411,-0.6579,-1.9834,-0.4345,0.4953,0.5630,0.0442,29.6400,-8.7600,39.6000,
0.865942,-0.6579,-1.9834,-0.4345,0.4953,0.5630,0.0442,30.9600,-8.3400,39.4200,
0.877776,-0.6579,-1.9834,-0.4345,0.6061,0.6882,0.0474,30.9600,-8.3400,39.4200,
0.897725,-0.6579,-1.9834,-0.4345,0.6141,0.3004,0.1023,30.9600,-8.3400,39.4200,
0.919043,-0.6579,-1.9834,-0.4345,0.2764,-0.1177,0.0937,30.9600,-8.3400,39.4200,
0.923350,-0.6579,-1.9834,-0.4345,0.2764,-0.1177,0.0937,30.9600,-8.3400,39.4200,
0.923987,0.8515,-1.1848,0.0129,0.2764,-0.1177,0.0937,30.9600,-8.3400,39.4200,
0.927984,0.8515,-1.1848,0.0129,0.2764,-0.1177,0.0937,31.6200,-7.6800,39.4800,
0.939835,0.8515,-1.1848,0.0129,-0.1475,-0.2397,0.0517,31.6200,-7.6800,39.4800,
0.960287,0.8515,-1.1848,0.0129,-0.3824,-0.4197,0.0021,31.6200,-7.6800,39.4800,
0.980235,0.8515,-1.1848,0.0129,-0.3707,-0.5183,-0.0682,31.6200,-7.6800,39.4800,
0.986794,0.8515,-1.1848,0.0129,-0.3707,-0.5183,-0.0682,31.6200,-7.6800,39.4800,
0.987698,0.7714,-0.9508,0.0493,-0.3707,-0.5183,-0.0682,31.6200,-7.6800,39.4800,
0.990690,0.7714,-0.9508,0.0493,-0.3707,-0.5183,-0.0682,31.9200,-7.3800,39.6000,
1.001094,0.7714,-0.9508,0.0493,-0.2072,-0.4213,-0.0490,31.9200,-7.3800,39.6000,
1.021034,0.7714,-0.9508,0.0493,-0.0373,-0.2956,-0.0085,31.9200,-7.3800,39.6000,
1.025123,0.7714,-0.9508,0.0493,-0.0373,-0.2956,-0.0085,31.9200,-7.3800,39.6000,
1.025495,0.5399,-1.0463,-0.3604,-0.0373,-0.2956,-0.0085,31.9200,-7.3800,39.6000,
1.041550,0.5399,-1.0463,-0.3604,0.1124,-0.1891,-0.0176,31.9200,-7.3800,39.6000,
1.045960,0.5399,-1.0463,-0.3604,0.1124,-0.1891,-0.0176,31.9200,-7.3800,39.6000,
1.046554,0.6380,-0.9842,-0.5546,0.1124,-0.1891,-0.0176,31.9200,-7.3800,39.6000,
1.050395,0.6380,-0.9842,-0.5546,0.1124,-0.1891,-0.0176,32.1600,-6.8400,39.5400,
1.062390,0.6380,-0.9842,-0.5546,0.2562,-0.0692,-0.0037,32.1600,-6.8400,39.5400,
1.066421,0.6380,-0.9842,-0.5546,0.2562,-0.0692,-0.0037,32.1600,-6.8400,39.5400,
1.066989,0.8236,-0.9918,-0.3556,0.2562,-0.0692,-0.0037,32.1600,-6.8400,39.5400,
1.082733,0.8236,-0.9918,-0.3556,0.3446,0.0543,0.0314,32.1600,-6.8400,39.5400,
1.087247,0.8236,-0.9918,-0.3556,0.3446,0.0543,0.0314,32.1600,-6.8400,39.5400,
1.088023,0.8913,-0.9188,-0.3789,0.3446,0.0543,0.0314,32.1600,-6.8400,39.5400,
1.103275,0.8913,-0.9188,-0.3789,0.3883,0.1380,0.0368,32.1600,-6.8400,39.5400,
1.107538,0.8913,-0.9188,-0.3789,0.3883,0.1380,0.0368,32.1600,-6.8400,39.5400,
1.107908,0.6407,-0.8355,-0.0773,0.3883,0.1380,0.0368,32.1600,-6.8400,39.5400,
1.112025,0.6407,-0.8355,-0.0773,0.3883,0.1380,0.0368,32.5800,-6.7200,38.9400,
1.124010,0.6407,-0.8355,-0.0773,0.3952,0.0277,0.0570,32.5800,-6.7200,38.9400,
1.128479,0.6407,-0.8355,-0.0773,0.3952,0.0277,0.0570,32.5800,-6.7200,38.9400,
1.129232,-0.1369,0.0738,-0.0311,0.3952,0.0277,0.0570,32.5800,-6.7200,38.9400,
1.144184,-0.1369,0.0738,-0.0311,0.3313,-0.0762,0.0362,32.5800,-6.7200,38.9400,
1.148699,-0.1369,0.0738,-0.0311,0.3313,-0.0762,0.0362,32.5800,-6.7200,38.9400,
1.149260,-0.0654,0.1723,-0.0124,0.3313,-0.0762,0.0362,32.5800,-6.7200,38.9400,
1.164706,-0.0654,0.1723,-0.0124,0.2796,-0.1342,0.0394,32.5800,-6.7200,38.9400,
1.169163,-0.0654,0.1723,-0.0124,0.2796,-0.1342,0.0394,32.5800,-6.7200,38.9400,
1.169763,0.0583,0.1514,0.0103,0.2796,-0.1342,0.0394,32.5800,-6.7200,38.9400,
1.173761,0.0583,0.1514,0.0103,0.2796,-0.1342,0.0394,33.0000,-6.7800,38.5800,
1.185996,0.0583,0.1514,0.0103,0.2226,-0.1129,0.0415,33.0000,-6.7800,38.5800,
1.189612,0.0583,0.1514,0.0103,0.2226,-0.1129,0.0415,33.0000,-6.7800,38.5800,
1.190241,-0.0170,0.1353,-0.0674,0.2226,-0.1129,0.0415,33.0000,-6.7800,38.5800,
1.205690,-0.0170,0.1353,-0.0674,0.1475,-0.1795,0.0447,33.0000,-6.7800,38.5800,
1.210210,-0.0170,0.1353,-0.0674,0.1475,-0.1795,0.0447,33.0000,-6.7800,38.5800,
1.210534,0.2194,0.2218,-0.2846,0.1475,-0.1795,0.0447,33.0000,-6.7800,38.5800,
1.226896,0.2194,0.2218,-0.2846,-1.6144,-2.6387,-0.3286,33.0000,-6.7800,38.5800,
1.230843,0.2194,0.2218,-0.2846,-1.6144,-2.6387,-0.3286,33.0000,-6.7800,38.5800,
1.231438,-1.5909,8.3285,0.6280,-1.6144,-2.6387,-0.3286,33.0000,-6.7800,38.5800,
1.236475,-1.5909,8.3285,0.6280,-1.6144,-2.6387,-0.3286,32.7600,-6.6000,38.3400,
1.246914,-1.5909,8.3285,0.6280,-3.0994,-3.2698,-0.4080,32.7600,-6.6000,38.3400,
1.251351,-1.5909,8.3285,0.6280,-3.0994,-3.2698,-0.4080,32.7600,-6.6000,38.3400,
1.252095,1.3933,1.9083,1.1163,-3.0994,-3.2698,-0.4080,32.7600,-6.6000,38.3400,
1.267773,1.3933,1.9083,1.1163,-2.3787,-1.6980,-0.6280,32.7600,-6.6000,38.3400,
1.272059,1.3933,1.9083,1.1163,-2.3787,-1.6980,-0.6280,32.7600,-6.6000,38.3400,
1.272695,2.6100,2.1579,-1.6413,-2.3787,-1.6980,-0.6280,32.7600,-6.6000,38.3400,
1.288054,2.6100,2.1579,-1.6413,-1.7289,-1.4605,-0.9278,32.7600,-6.6000,38.3400,
1.293137,2.6100,2.1579,-1.6413,-1.7289,-1.4605,-0.9278,32.7600,-6.6000,38.3400,
1.293865,2.5234,3.2403,-1.5941,-1.7289,-1.4605,-0.9278,32.7600,-6.6000,38.3400,
1.297077,2.5234,3.2403,-1.5941,-1.7289,-1.4605,-0.9278,33.3600,-6.4800,38.1600,
1.309335,2.5234,3.2403,-1.5941,-1.0232,-1.5942,-1.1537,33.3600,-6.4800,38.1600,
1.312704,2.5234,3.2403,-1.5941,-1.0232,-1.5942,-1.1537,33.3600,-6.4800,38.1600,
1.313022,2.5892,1.8429,1.2585,-1.0232,-1.5942,-1.1537,33.3600,-6.4800,38.1600,
1.329522,2.5892,1.8429,1.2585,0.6775,-0.9523,-1.8125,33.3600,-6.4800,38.1600,
1.333409,2.5892,1.8429,1.2585,0.6775,-0.9523,-1.8125,33.3600,-6.4800,38.1600,
1.333902,2.9417,0.9023,0.8029,0.6775,-0.9523,-1.8125,33.3600,-6.4800,38.1600,
1.349758,2.9417,0.9023,0.8029,1.7241,0.2951,-2.3223,33.3600,-6.4800,38.1600,
1.354423,2.9417,0.9023,0.8029,1.7241,0.2951,-2.3223,33.3600,-6.4800,38.1600,
1.355157,2.1106,-0.7452,-0.8772,1.7241,0.2951,-2.3223,33.3600,-6.4800,38.1600,
1.358421,2.1106,-0.7452,-0.8772,1.7241,0.2951,-2.3223,34.6800,-6.6600,36.5400,
1.370245,2.1106,-0.7452,-0.8772,2.1375,2.1007,-2.3415,34.6800,-6.6600,36.5400,
1.374629,2.1106,-0.7452,-0.8772,2.1375,2.1007,-2.3415,34.6800,-6.6600,36.5400,
1.375327,1.4472,-2.4783,-1.2584,2.1375,2.1007,-2.3415,34.6800,-6.6600,36.5400,
1.391150,1.4472,-2.4783,-1.2584,2.0810,3.5905,-1.8935,34.6800,-6.6600,36.5400,
1.395007,1.4472,-2.4783,-1.2584,2.0810,3.5905,-1.8935,34.6800,-6.6600,36.5400,
1.395755,-0.4996,-5.1673,1.0650,2.0810,3.5905,-1.8935,34.6800,-6.6600,36.5400,
1.411504,-0.4996,-5.1673,1.0650,1.3518,1.9862,-0.8394,34.6800,-6.6600,36.5400,
1.415297,-0.4996,-5.1673,1.0650,1.3518,1.9862,-0.8394,34.6800,-6.6600,36.5400,
1.415593,-2.5875,-6.3362,1.1621,1.3518,1.9862,-0.8394,34.6800,-6.6600,36.5400,
1.419530,-2.5875,-6.3362,1.1621,1.3518,1.9862,-0.8394,36.3000,-5.5800,34.1400,
1.431767,-2.5875,-6.3362,1.1621,0.4602,-0.8378,0.1321,36.3000,-5.5800,34.1400,
1.436921,-2.5875,-6.3362,1.1621,0.4602,-0.8378,0.1321,36.3000,-5.5800,34.1400,
1.437592,-3.2156,-4.4816,-0.7798,0.4602,-0.8378,0.1321,36.3000,-5.5800,34.1400,
1.452441,-3.2156,-4.4816,-0.7798,0.0650,-1.5212,0.7782,36.3000,-5.5800,34.1400,
1.457022,-3.2156,-4.4816,-0.7798,0.0650,-1.5212,0.7782,36.3000,-5.5800,34.1400,
1.457650,-1.5288,-1.1034,-0.6851,0.0650,-1.5212,0.7782,36.3000,-5.5800,34.1400,
1.474182,-1.5288,-1.1034,-0.6851,0.5763,-0.6413,0.9145,36.3000,-5.5800,34.1400,
1.477402,-1.5288,-1.1034,-0.6851,0.5763,-0.6413,0.9145,36.3000,-5.5800,34.1400,
1.477801,0.1293,1.1044,-0.6299,0.5763,-0.6413,0.9145,36.3000,-5.5800,34.1400,
1.481930,0.1293,1.1044,-0.6299,0.5763,-0.6413,0.9145,37.3800,-3.2400,32.8200,
1.493260,0.1293,1.1044,-0.6299,1.0514,-0.3196,0.8314,37.3800,-3.2400,32.8200,
1.497381,0.1293,1.1044,-0.6299,1.0514,-0.3196,0.8314,37.3800,-3.2400,32.8200,
1.497951,1.2225,1.5903,-1.8356,1.0514,-0.3196,0.8314,37.3800,-3.2400,32.8200,
1.513883,1.2225,1.5903,-1.8356,1.3859,-0.6429,0.6818,37.3800,-3.2400,32.8200,
1.518054,1.2225,1.5903,-1.8356,1.3859,-0.6429,0.6818,37.3800,-3.2400,32.8200,
1.518446,1.7634,1.1267,-0.9137,1.3859,-0.6429,0.6818,37.3800,-3.2400,32.8200,
1.534095,1.7634,1.1267,-0.9137,1.8663,-1.3145,0.6493,37.3800,-3.2400,32.8200,
1.538746,1.7634,1.1267,-0.9137,1.8663,-1.3145,0.6493,37.3800,-3.2400,32.8200,
1.539278,2.1524,0.2766,-0.4794,1.8663,-1.3145,0.6493,37.3800,-3.2400,32.8200,
1.544158,2.1524,0.2766,-0.4794,1.8663,-1.3145,0.6493,38.2200,-0.9000,31.7400,
1.555337,2.1524,0.2766,-0.4794,2.2493,-1.7279,0.6578,38.2200,-0.9000,31.7400,
1.558868,2.1524,0.2766,-0.4794,2.2493,-1.7279,0.6578,38.2200,-0.9000,31.7400,
1.559327,2.9792,-0.1942,-1.0438,2.2493,-1.7279,0.6578,38.2200,-0.9000,31.7400,
1.575340,2.9792,-0.1942,-1.0438,2.7047,-1.8615,0.8080,38.2200,-0.9000,31.7400,
1.580290,2.9792,-0.1942,-1.0438,2.7047,-1.8615,0.8080,38.2200,-0.9000,31.7400,
1.580923,3.3991,-1.5031,-0.0381,2.7047,-1.8615,0.8080,38.2200,-0.9000,31.7400,
1.595963,3.3991,-1.5031,-0.0381,2.9433,-1.2320,1.1169,38.2200,-0.9000,31.7400,
1.599823,3.3991,-1.5031,-0.0381,2.9433,-1.2320,1.1169,38.2200,-0.9000,31.7400,
1.600415,3.0247,-1.3924,-2.5113,2.9433,-1.2320,1.1169,38.2200,-0.9000,31.7400,
1.604890,3.0247,-1.3924,-2.5113,2.9433,-1.2320,1.1169,38.0400,1.5600,31.7400,
1.615894,3.0247,-1.3924,-2.5113,2.7324,-0.1182,1.2336,38.0400,1.5600,31.7400,
1.620851,3.0247,-1.3924,-2.5113,2.7324,-0.1182,1.2336,38.0400,1.5600,31.7400,
1.621380,4.1617,-0.5170,-2.4473,2.7324,-0.1182,1.2336,38.0400,1.5600,31.7400,
1.636835,4.1617,-0.5170,-2.4473,2.7937,-0.6072,1.0844,38.0400,1.5600,31.7400,
1.640920,4.1617,-0.5170,-2.4473,2.7937,-0.6072,1.0844,38.0400,1.5600,31.7400,
1.641391,3.6041,-0.3041,-3.3357,2.7937,-0.6072,1.0844,38.0400,1.5600,31.7400,
1.657370,3.6041,-0.3041,-3.3357,2.8315,-0.9348,1.1329,38.0400,1.5600,31.7400,
1.661648,3.6041,-0.3041,-3.3357,2.8315,-0.9348,1.1329,38.0400,1.5600,31.7400,
1.662181,2.5162,-0.2239,-2.4870,2.8315,-0.9348,1.1329,38.0400,1.5600,31.7400,
1.665990,2.5162,-0.2239,-2.4870,2.8315,-0.9348,1.1329,38.2200,3.3600,30.5400,
1.678029,2.5162,-0.2239,-2.4870,2.9753,-0.7915,1.4807,38.2200,3.3600,30.5400,
1.682270,2.5162,-0.2239,-2.4870,2.9753,-0.7915,1.4807,38.2200,3.3600,30.5400,
1.682792,1.2417,-0.0422,-4.4264,2.9753,-0.7915,1.4807,38.2200,3.3600,30.5400,
1.698930,1.2417,-0.0422,-4.4264,2.9082,-0.5891,1.7044,38.2200,3.3600,30.5400,
1.703039,1.2417,-0.0422,-4.4264,2.9082,-0.5891,1.7044,38.2200,3.3600,30.5400,
1.703699,1.5952,0.0251,-3.3040,2.9082,-0.5891,1.7044,38.2200,3.3600,30.5400,
1.718889,1.5952,0.0251,-3.3040,2.9577,-0.8416,1.5835,38.2200,3.3600,30.5400,
1.723079,1.5952,0.0251,-3.3040,2.9577,-0.8416,1.5835,38.2200,3.3600,30.5400,
1.723367,1.2510,0.8425,-3.9364,2.9577,-0.8416,1.5835,38.2200,3.3600,30.5400,
1.727653,1.2510,0.8425,-3.9364,2.9577,-0.8416,1.5835,39.3600,4.1400,28.4400,
1.739620,1.2510,0.8425,-3.9364,2.6046,-1.2282,1.3380,39.3600,4.1400,28.4400,
1.744434,1.2510,0.8425,-3.9364,2.6046,-1.2282,1.3380,39.3600,4.1400,28.4400,
1.745059,1.2191,1.8995,-5.4888,2.6046,-1.2282,1.3380,39.3600,4.1400,28.4400,
1.760511,1.2191,1.8995,-5.4888,2.4682,-1.5675,1.1819,39.3600,4.1400,28.4400,
1.764537,1.2191,1.8995,-5.4888,2.4682,-1.5675,1.1819,39.3600,4.1400,28.4400,
1.765026,2.8002,2.1280,-4.7143,2.4682,-1.5675,1.1819,39.3600,4.1400,28.4400,
1.781162,2.8002,2.1280,-4.7143,2.4656,-1.5308,1.1579,39.3600,4.1400,28.4400,
1.785827,2.8002,2.1280,-4.7143,2.4656,-1.5308,1.1579,39.3600,4.1400,28.4400,
1.786348,3.6193,0.8684,-6.4680,2.4656,-1.5308,1.1579,39.3600,4.1400,28.4400,
1.789605,3.6193,0.8684,-6.4680,2.4656,-1.5308,1.1579,40.8000,4.9200,25.6800,
1.801357,3.6193,0.8684,-6.4680,2.2365,-1.3465,1.3263,40.8000,4.9200,25.6800,
1.805753,3.6193,0.8684,-6.4680,2.2365,-1.3465,1.3263,40.8000,4.9200,25.6800,
1.806526,4.2897,-0.5390,-7.5374,2.2365,-1.3465,1.3263,40.8000,4.9200,25.6800,
1.821325,4.2897,-0.5390,-7.5374,2.1481,-1.0440,1.2378,40.8000,4.9200,25.6800,
1.826383,4.2897,-0.5390,-7.5374,2.1481,-1.0440,1.2378,40.8000,4.9200,25.6800,
1.826891,5.3678,-0.5578,-8.7368,2.1481,-1.0440,1.2378,40.8000,4.9200,25.6800,
1.842537,5.3678,-0.5578,-8.7368,1.9462,-0.5113,1.2261,40.8000,4.9200,25.6800,
1.847199,5.3678,-0.5578,-8.7368,1.9462,-0.5113,1.2261,40.8000,4.9200,25.6800,
1.847819,4.9248,0.6107,-9.8117,1.9462,-0.5113,1.2261,40.8000,4.9200,25.6800,
1.850925,4.9248,0.6107,-9.8117,1.9462,-0.5113,1.2261,42.2400,5.3400,22.0800,
1.862787,4.9248,0.6107,-9.8117,1.9995,0.4325,1.0631,42.2400,5.3400,22.0800,
1.867384,4.9248,0.6107,-9.8117,1.9995,0.4325,1.0631,42.2400,5.3400,22.0800,
1.868053,5.2399,1.6260,-8.2285,1.9995,0.4325,1.0631,42.2400,5.3400,22.0800,
1.883681,5.2399,1.6260,-8.2285,2.5188,1.3934,0.7824,42.2400,5.3400,22.0800,
1.887839,5.2399,1.6260,-8.2285,2.5188,1.3934,0.7824,42.2400,5.3400,22.0800,
1.888522,4.0765,2.3034,-6.6957,2.5188,1.3934,0.7824,42.2400,5.3400,22.0800,
1.903939,4.0765,2.3034,-6.6957,3.1180,2.1944,0.8224,42.2400,5.3400,22.0800,
1.908774,4.0765,2.3034,-6.6957,3.1180,2.1944,0.8224,42.2400,5.3400,22.0800,
1.909548,3.1420,2.0244,-4.9123,3.1180,2.1944,0.8224,42.2400,5.3400,22.0800,
1.912858,3.1420,2.0244,-4.9123,3.1180,2.1944,0.8224,43.0800,5.1600,19.5000,
1.924303,3.1420,2.0244,-4.9123,3.7290,2.7830,1.0685,43.0800,5.1600,19.5000,
1.928580,3.1420,2.0244,-4.9123,3.7290,2.7830,1.0685,43.0800,5.1600,19.5000,
1.928942,0.8178,1.6177,-2.8526,3.7290,2.7830,1.0685,43.0800,5.1600,19.5000,
1.945169,0.8178,1.6177,-2.8526,4.0102,6.7016,1.0823,43.0800,5.1600,19.5000,
1.949415,0.8178,1.6177,-2.8526,4.0102,6.7016,1.0823,43.0800,5.1600,19.5000,
1.949921,-7.2965,17.5903,24.5455,4.0102,6.7016,1.0823,43.0800,5.1600,19.5000,
1.966058,-7.2965,17.5903,24.5455,2.0224,9.5576,-3.2746,43.0800,5.1600,19.5000,
1.969670,-7.2965,17.5903,24.5455,2.0224,9.5576,-3.2746,43.0800,5.1600,19.5000,
1.970213,-70.8677,68.9210,50.5855,2.0224,9.5576,-3.2746,43.0800,5.1600,19.5000,
1.974150,-70.8677,68.9210,50.5855,2.0224,9.5576,-3.2746,44.2800,4.7400,17.6400,
1.986057,-70.8677,68.9210,50.5855,-0.8714,-0.6780,-1.1835,44.2800,4.7400,17.6400,
1.990112,-70.8677,68.9210,50.5855,-0.8714,-0.6780,-1.1835,44.2800,4.7400,17.6400,
1.990810,-36.3656,25.4426,-6.9176,-0.8714,-0.6780,-1.1835,44.2800,4.7400,17.6400,
2.006286,-36.3656,25.4426,-6.9176,-1.4466,4.0970,0.9358,44.2800,4.7400,17.6400,
2.010767,-36.3656,25.4426,-6.9176,-1.4466,4.0970,0.9358,44.2800,4.7400,17.6400,
2.011470,0.4935,2.1007,2.1222,-1.4466,4.0970,0.9358,44.2800,4.7400,17.6400,
2.026612,0.4935,2.1007,2.1222,-0.4826,0.5699,2.1705,44.2800,4.7400,17.6400,
2.030601,0.4935,2.1007,2.1222,-0.4826,0.5699,2.1705,44.2800,4.7400,17.6400,
2.030904,7.8941,-1.3500,4.9369,-0.4826,0.5699,2.1705,44.2800,4.7400,17.6400,
2.035649,7.8941,-1.3500,4.9369,-0.4826,0.5699,2.1705,42.3600,5.4000,19.6200,
2.047115,7.8941,-1.3500,4.9369,0.1395,-2.6312,2.2200,42.3600,5.4000,19.6200,
2.052632,7.8941,-1.3500,4.9369,0.1395,-2.6312,2.2200,42.3600,5.4000,19.6200,
2.053144,9.5154,-6.6868,-2.5974,0.1395,-2.6312,2.2200,42.3600,5.4000,19.6200,
2.068552,9.5154,-6.6868,-2.5974,-0.5326,-3.4653,1.5846,42.3600,5.4000,19.6200,
2.071812,9.5154,-6.6868,-2.5974,-0.5326,-3.4653,1.5846,42.3600,5.4000,19.6200,
2.072192,8.1882,-8.2396,-10.0404,-0.5326,-3.4653,1.5846,42.3600,5.4000,19.6200,
2.088072,8.1882,-8.2396,-10.0404,-2.3191,-2.8592,1.0115,42.3600,5.4000,19.6200,
2.092310,8.1882,-8.2396,-10.0404,-2.3191,-2.8592,1.0115,42.3600,5.4000,19.6200,
2.092824,6.4615,-8.3947,-10.6545,-2.3191,-2.8592,1.0115,42.3600,5.4000,19.6200,
2.096809,6.4615,-8.3947,-10.6545,-2.3191,-2.8592,1.0115,40.7400,5.4000,23.1000,
2.108705,6.4615,-8.3947,-10.6545,-2.9002,-2.7068,0.7457,40.7400,5.4000,23.1000,
2.113065,6.4615,-8.3947,-10.6545,-2.9002,-2.7068,0.7457,40.7400,5.4000,23.1000,
2.113590,5.5333,-7.5549,-7.4567,-2.9002,-2.7068,0.7457,40.7400,5.4000,23.1000,
2.129339,5.5333,-7.5549,-7.4567,-2.4778,-3.3971,0.3776,40.7400,5.4000,23.1000,
2.133532,5.5333,-7.5549,-7.4567,-2.4778,-3.3971,0.3776,40.7400,5.4000,23.1000,
2.133866,7.1256,-6.6452,-3.2715,-2.4778,-3.3971,0.3776,40.7400,5.4000,23.1000,
2.149537,7.1256,-6.6452,-3.2715,-1.5585,-3.5047,-0.2972,40.7400,5.4000,23.1000,
2.154401,7.1256,-6.6452,-3.2715,-1.5585,-3.5047,-0.2972,40.7400,5.4000,23.1000,
2.154863,7.5151,-4.3503,-2.1339,-1.5585,-3.5047,-0.2972,40.7400,5.4000,23.1000,
2.158407,7.5151,-4.3503,-2.1339,-1.5585,-3.5047,-0.2972,39.7800,4.0200,26.4600,
2.170548,7.5151,-4.3503,-2.1339,-0.3025,-0.9960,-0.6434,39.7800,4.0200,26.4600,
2.174529,7.5151,-4.3503,-2.1339,-0.3025,-0.9960,-0.6434,39.7800,4.0200,26.4600,
2.174879,4.7058,-1.7402,-1.6058,-0.3025,-0.9960,-0.6434,39.7800,4.0200,26.4600,
2.190755,4.7058,-1.7402,-1.6058,0.7803,1.7263,-0.6226,39.7800,4.0200,26.4600,
2.195253,4.7058,-1.7402,-1.6058,0.7803,1.7263,-0.6226,39.7800,4.0200,26.4600,
2.195599,3.1717,-1.7075,-4.5896,0.7803,1.7263,-0.6226,39.7800,4.0200,26.4600,
2.211388,3.1717,-1.7075,-4.5896,1.1484,2.5561,-0.3201,39.7800,4.0200,26.4600,
2.215551,3.1717,-1.7075,-4.5896,1.1484,2.5561,-0.3201,39.7800,4.0200,26.4600,
2.215925,1.6941,-1.5750,-5.3790,1.1484,2.5561,-0.3201,39.7800,4.0200,26.4600,
2.220305,1.6941,-1.5750,-5.3790,1.1484,2.5561,-0.3201,39.6600,1.9800,26.7600,
2.232108,1.6941,-1.5750,-5.3790,1.6730,3.7593,0.3201,39.6600,1.9800,26.7600,
2.236319,1.6941,-1.5750,-5.3790,1.6730,3.7593,0.3201,39.6600,1.9800,26.7600,
2.236759,-4.9723,1.5737,0.2777,1.6730,3.7593,0.3201,39.6600,1.9800,26.7600,
2.252589,-4.9723,1.5737,0.2777,1.8498,5.4174,0.9055,39.6600,1.9800,26.7600,
2.256808,-4.9723,1.5737,0.2777,1.8498,5.4174,0.9055,39.6600,1.9800,26.7600,
2.257235,-6.4414,6.2384,1.3256,1.8498,5.4174,0.9055,39.6600,1.9800,26.7600,
2.273199,-6.4414,6.2384,1.3256,0.5475,2.3095,0.1337,39.6600,1.9800,26.7600,
2.277539,-6.4414,6.2384,1.3256,0.5475,2.3095,0.1337,39.6600,1.9800,26.7600,
2.278223,-8.0030,14.0730,4.7386,0.5475,2.3095,0.1337,39.6600,1.9800,26.7600,
2.281772,-8.0030,14.0730,4.7386,0.5475,2.3095,0.1337,41.8800,-0.4200,24.9000,
2.293731,-8.0030,14.0730,4.7386,-0.1944,2.1502,-1.4179,41.8800,-0.4200,24.9000,
2.297980,-8.0030,14.0730,4.7386,-0.1944,2.1502,-1.4179,41.8800,-0.4200,24.9000,
2.298432,-2.9861,11.7116,6.9107,-0.1944,2.1502,-1.4179,41.8800,-0.4200,24.9000,
2.314088,-2.9861,11.7116,6.9107,0.5720,2.3260,-1.5548,41.8800,-0.4200,24.9000,
2.318723,-2.9861,11.7116,6.9107,0.5720,2.3260,-1.5548,41.8800,-0.4200,24.9000,
2.319061,2.5274,4.7827,3.4751,0.5720,2.3260,-1.5548,41.8800,-0.4200,24.9000,
2.334924,2.5274,4.7827,3.4751,0.5928,0.9667,-1.0424,41.8800,-0.4200,24.9000,
2.338615,2.5274,4.7827,3.4751,0.5928,0.9667,-1.0424,41.8800,-0.4200,24.9000,
2.338932,3.9110,-0.9097,-0.2208,0.5928,0.9667,-1.0424,41.8800,-0.4200,24.9000,
2.343324,3.9110,-0.9097,-0.2208,0.5928,0.9667,-1.0424,41.7000,-1.6800,24.6600,
2.355006,3.9110,-0.9097,-0.2208,-0.1204,-0.2333,-0.0453,41.7000,-1.6800,24.6600,
2.359992,3.9110,-0.9097,-0.2208,-0.1204,-0.2333,-0.0453,41.7000,-1.6800,24.6600,
2.360348,4.3504,-5.8128,0.6384,-0.1204,-0.2333,-0.0453,41.7000,-1.6800,24.6600,
2.375649,4.3504,-5.8128,0.6384,0.0607,-0.2072,0.4288,41.7000,-1.6800,24.6600,
2.379838,4.3504,-5.8128,0.6384,0.0607,-0.2072,0.4288,41.7000,-1.6800,24.6600,
2.380267,2.6670,-5.7760,0.6541,0.0607,-0.2072,0.4288,41.7000,-1.6800,24.6600,
2.395934,2.6670,-5.7760,0.6541,0.2381,0.1310,0.9225,41.7000,-1.6800,24.6600,
2.400327,2.6670,-5.7760,0.6541,0.2381,0.1310,0.9225,41.7000,-1.6800,24.6600,
2.400646,-2.0357,0.2547,-1.2458,0.2381,0.1310,0.9225,41.7000,-1.6800,24.6600,
2.404692,-2.0357,0.2547,-1.2458,0.2381,0.1310,0.9225,39.7200,-0.6600,26.0400,
2.416631,-2.0357,0.2547,-1.2458,0.1619,0.9859,1.2267,39.7200,-0.6600,26.0400,
2.420812,-2.0357,0.2547,-1.2458,0.1619,0.9859,1.2267,39.7200,-0.6600,26.0400,
2.421169,-4.1757,5.4734,0.4234,0.1619,0.9859,1.2267,39.7200,-0.6600,26.0400,
2.437048,-4.1757,5.4734,0.4234,0.2866,1.0338,1.0093,39.7200,-0.6600,26.0400,
2.441353,-4.1757,5.4734,0.4234,0.2866,1.0338,1.0093,39.7200,-0.6600,26.0400,
2.441645,-2.8992,6.9356,2.2565,0.2866,1.0338,1.0093,39.7200,-0.6600,26.0400,
2.457687,-2.8992,6.9356,2.2565,0.5497,0.4597,0.6967,39.7200,-0.6600,26.0400,
2.461827,-2.8992,6.9356,2.2565,0.5497,0.4597,0.6967,39.7200,-0.6600,26.0400,
2.462247,-0.2831,4.4387,-0.0325,0.5497,0.4597,0.6967,39.7200,-0.6600,26.0400,
2.466378,-0.2831,4.4387,-0.0325,0.5497,0.4597,0.6967,36.7200,0.1200,30.1200,
2.478333,-0.2831,4.4387,-0.0325,0.3393,0.0469,0.7111,36.7200,0.1200,30.1200,
2.482537,-0.2831,4.4387,-0.0325,0.3393,0.0469,0.7111,36.7200,0.1200,30.1200,
2.482867,1.3725,0.9372,-1.2063,0.3393,0.0469,0.7111,36.7200,0.1200,30.1200,
2.498629,1.3725,0.9372,-1.2063,0.0501,-0.0107,0.8906,36.7200,0.1200,30.1200,
2.502824,1.3725,0.9372,-1.2063,0.0501,-0.0107,0.8906,36.7200,0.1200,30.1200,
2.503207,1.7872,-0.9188,0.0005,0.0501,-0.0107,0.8906,36.7200,0.1200,30.1200,
2.519624,1.7872,-0.9188,0.0005,0.1614,-0.1806,0.8325,36.7200,0.1200,30.1200,
2.523548,1.7872,-0.9188,0.0005,0.1614,-0.1806,0.8325,36.7200,0.1200,30.1200,
2.523929,0.8244,-1.0166,0.4985,0.1614,-0.1806,0.8325,36.7200,0.1200,30.1200,
2.528057,0.8244,-1.0166,0.4985,0.1614,-0.1806,0.8325,34.0200,0.3600,33.9000,
2.539931,0.8244,-1.0166,0.4985,0.3244,-0.3308,0.7649,34.0200,0.3600,33.9000,
2.543816,0.8244,-1.0166,0.4985,0.3244,-0.3308,0.7649,34.0200,0.3600,33.9000,
2.544187,0.5626,0.6066,-0.5915,0.3244,-0.3308,0.7649,34.0200,0.3600,33.9000,
2.560292,0.5626,0.6066,-0.5915,0.2285,-0.2562,0.7111,34.0200,0.3600,33.9000,
2.564721,0.5626,0.6066,-0.5915,0.2285,-0.2562,0.7111,34.0200,0.3600,33.9000,
2.565107,1.4141,1.0584,-1.1771,0.2285,-0.2562,0.7111,34.0200,0.3600,33.9000,
2.581028,1.4141,1.0584,-1.1771,0.2088,-0.0698,0.5790,34.0200,0.3600,33.9000,
2.585187,1.4141,1.0584,-1.1771,0.2088,-0.0698,0.5790,34.0200,0.3600,33.9000,
2.585541,1.9868,0.9467,-1.1198,0.2088,-0.0698,0.5790,34.0200,0.3600,33.9000,
2.590217,1.9868,0.9467,-1.1198,0.2088,-0.0698,0.5790,33.1800,0.4200,34.5000,
2.602354,1.9868,0.9467,-1.1198,0.1454,-0.0458,0.3393,33.1800,0.4200,34.5000,
2.605678,1.9868,0.9467,-1.1198,0.1454,-0.0458,0.3393,33.1800,0.4200,34.5000,
2.606134,2.4045,1.2389,-1.0359,0.1454,-0.0458,0.3393,33.1800,0.4200,34.5000,
2.624409,2.4045,1.2389,-1.0359,0.0650,-0.2136,0.1443,33.1800,0.4200,34.5000,
2.626808,2.4045,1.2389,-1.0359,0.0650,-0.2136,0.1443,33.1800,0.4200,34.5000,
2.627130,2.9432,1.1442,-0.8319,0.0650,-0.2136,0.1443,33.1800,0.4200,34.5000,
2.642289,2.9432,1.1442,-0.8319,-0.0112,-0.2003,-0.0197,33.1800,0.4200,34.5000,
2.646478,2.9432,1.1442,-0.8319,-0.0112,-0.2003,-0.0197,33.1800,0.4200,34.5000,
2.646771,2.8935,1.1291,-0.5183,-0.0112,-0.2003,-0.0197,33.1800,0.4200,34.5000,
2.651429,2.8935,1.1291,-0.5183,-0.0112,-0.2003,-0.0197,33.2400,-0.4800,35.2800,
2.662851,2.8935,1.1291,-0.5183,-0.0165,-0.0410,-0.1688,33.2400,-0.4800,35.2800,
2.666883,2.8935,1.1291,-0.5183,-0.0165,-0.0410,-0.1688,33.2400,-0.4800,35.2800,
2.667184,2.0852,1.4145,-0.2244,-0.0165,-0.0410,-0.1688,33.2400,-0.4800,35.2800,
2.683337,2.0852,1.4145,-0.2244,-0.0474,-0.0730,-0.2610,33.2400,-0.4800,35.2800,
2.687841,2.0852,1.4145,-0.2244,-0.0474,-0.0730,-0.2610,33.2400,-0.4800,35.2800,
2.688241,1.3844,2.0724,0.0520,-0.0474,-0.0730,-0.2610,33.2400,-0.4800,35.2800,
2.704041,1.3844,2.0724,0.0520,-0.2418,-0.1933,-0.3265,33.2400,-0.4800,35.2800,
2.708235,1.3844,2.0724,0.0520,-0.2418,-0.1933,-0.3265,33.2400,-0.4800,35.2800,
2.708509,1.6860,2.2340,0.2644,-0.2418,-0.1933,-0.3265,33.2400,-0.4800,35.2800,
2.712906,1.6860,2.2340,0.2644,-0.2418,-0.1933,-0.3265,33.0000,-0.8400,35.0400,
2.724460,1.6860,2.2340,0.2644,-0.3244,-0.1827,-0.3638,33.0000,-0.8400,35.0400,
2.728732,1.6860,2.2340,0.2644,-0.3244,-0.1827,-0.3638,33.0000,-0.8400,35.0400,
2.729120,1.6504,1.9632,0.1137,-0.3244,-0.1827,-0.3638,33.0000,-0.8400,35.0400,
2.744980,1.6504,1.9632,0.1137,-0.2365,-0.1635,-0.3372,33.0000,-0.8400,35.0400,
2.749181,1.6504,1.9632,0.1137,-0.2365,-0.1635,-0.3372,33.0000,-0.8400,35.0400,
2.749487,1.5132,1.4171,-0.0422,-0.2365,-0.1635,-0.3372,33.0000,-0.8400,35.0400,
2.765457,1.5132,1.4171,-0.0422,-0.2530,-0.1614,-0.4836,33.0000,-0.8400,35.0400,
2.770025,1.5132,1.4171,-0.0422,-0.2530,-0.1614,-0.4836,33.0000,-0.8400,35.0400,
2.770325,1.1938,-0.0977,-0.4599,-0.2530,-0.1614,-0.4836,33.0000,-0.8400,35.0400,
2.774118,1.1938,-0.0977,-0.4599,-0.2530,-0.1614,-0.4836,32.8200,-1.0200,34.8000,
2.786278,1.1938,-0.0977,-0.4599,-0.3728,-0.0772,-0.6631,32.8200,-1.0200,34.8000,
2.790370,1.1938,-0.0977,-0.4599,-0.3728,-0.0772,-0.6631,32.8200,-1.0200,34.8000,
2.790662,1.4474,-0.6437,-0.6200,-0.3728,-0.0772,-0.6631,32.8200,-1.0200,34.8000,
2.806558,1.4474,-0.6437,-0.6200,-0.4005,-0.0341,-0.7526,32.8200,-1.0200,34.8000,
2.810926,1.4474,-0.6437,-0.6200,-0.4005,-0.0341,-0.7526,32.8200,-1.0200,34.8000,
2.811328,0.8271,-0.8813,-0.9868,-0.4005,-0.0341,-0.7526,32.8200,-1.0200,34.8000,
2.827378,0.8271,-0.8813,-0.9868,-0.7654,0.5928,-0.8671,32.8200,-1.0200,34.8000,
2.831399,0.8271,-0.8813,-0.9868,-0.7654,0.5928,-0.8671,32.8200,-1.0200,34.8000,
2.831719,1.3406,-3.1482,-4.7193,-0.7654,0.5928,-0.8671,32.8200,-1.0200,34.8000,
2.836119,1.3406,-3.1482,-4.7193,-0.7654,0.5928,-0.8671,32.5200,-1.0800,36.0600,
2.847571,1.3406,-3.1482,-4.7193,-0.8080,1.9164,-1.0243,32.5200,-1.0800,36.0600,
2.852012,1.3406,-3.1482,-4.7193,-0.8080,1.9164,-1.0243,32.5200,-1.0800,36.0600,
2.852346,-1.6446,-0.3074,4.0940,-0.8080,1.9164,-1.0243,32.5200,-1.0800,36.0600,
2.868380,-1.6446,-0.3074,4.0940,-0.4629,1.1792,-0.7798,32.5200,-1.0800,36.0600,
2.872610,-1.6446,-0.3074,4.0940,-0.4629,1.1792,-0.7798,32.5200,-1.0800,36.0600,
2.872954,-0.1644,-1.6776,-3.2705,-0.4629,1.1792,-0.7798,32.5200,-1.0800,36.0600,
2.888733,-0.1644,-1.6776,-3.2705,-0.3084,1.1308,-0.6999,32.5200,-1.0800,36.0600,
2.893828,-0.1644,-1.6776,-3.2705,-0.3084,1.1308,-0.6999,32.5200,-1.0800,36.0600,
2.894209,-1.3690,0.6051,2.9649,-0.3084,1.1308,-0.6999,32.5200,-1.0800,36.0600,
2.897585,-1.3690,0.6051,2.9649,-0.3084,1.1308,-0.6999,33.0000,-0.8400,37.0800,
2.909952,-1.3690,0.6051,2.9649,0.0836,-0.4586,-0.3579,33.0000,-0.8400,37.0800,
2.913638,-1.3690,0.6051,2.9649,0.0836,-0.4586,-0.3579,33.0000,-0.8400,37.0800,
2.914005,-1.8243,0.7108,1.8336,0.0836,-0.4586,-0.3579,33.0000,-0.8400,37.0800,
2.929978,-1.8243,0.7108,1.8336,0.3542,-1.1169,-0.2919,33.0000,-0.8400,37.0800,
2.934244,-1.8243,0.7108,1.8336,0.3542,-1.1169,-0.2919,33.0000,-0.8400,37.0800,
2.934662,-1.3794,0.3262,0.8892,0.3542,-1.1169,-0.2919,33.0000,-0.8400,37.0800,
2.950327,-1.3794,0.3262,0.8892,0.3462,-1.1345,-0.4400,33.0000,-0.8400,37.0800,
2.954741,-1.3794,0.3262,0.8892,0.3462,-1.1345,-0.4400,33.0000,-0.8400,37.0800,
2.955174,1.1952,-0.9701,-0.5431,0.3462,-1.1345,-0.4400,33.0000,-0.8400,37.0800,
2.959171,1.1952,-0.9701,-0.5431,0.3462,-1.1345,-0.4400,33.4200,0.0600,39.7200,
2.970901,1.1952,-0.9701,-0.5431,-0.4107,0.3952,-0.5491,33.4200,0.0600,39.7200,
2.975118,1.1952,-0.9701,-0.5431,-0.4107,0.3952,-0.5491,33.4200,0.0600,39.7200,
2.975413,0.0395,0.3454,-2.7077,-0.4107,0.3952,-0.5491,33.4200,0.0600,39.7200,
2.991529,0.0395,0.3454,-2.7077,-0.2855,1.2107,-0.2487,33.4200,0.0600,39.7200,
2.996173,0.0395,0.3454,-2.7077,-0.2855,1.2107,-0.2487,33.4200,0.0600,39.7200,
2.996578,-0.7119,2.2925,2.2606,-0.2855,1.2107,-0.2487,33.4200,0.0600,39.7200,
3.012166,-0.7119,2.2925,2.2606,0.3361,0.6983,-0.1891,33.4200,0.0600,39.7200,
3.016363,-0.7119,2.2925,2.2606,0.3361,0.6983,-0.1891,33.4200,0.0600,39.7200,
3.016686,-0.3764,1.1453,0.8748,0.3361,0.6983,-0.1891,33.4200,0.0600,39.7200,
3.020739,-0.3764,1.1453,0.8748,0.3361,0.6983,-0.1891,33.8400,0.7800,40.5600,
3.032637,-0.3764,1.1453,0.8748,0.3382,0.8341,-0.0192,33.8400,0.7800,40.5600,
3.037008,-0.3764,1.1453,0.8748,0.3382,0.8341,-0.0192,33.8400,0.7800,40.5600,
3.037510,-1.4946,-0.4325,0.1252,0.3382,0.8341,-0.0192,33.8400,0.7800,40.5600,
3.053195,-1.4946,-0.4325,0.1252,0.3542,0.8341,0.0900,33.8400,0.7800,40.5600,
3.057218,-1.4946,-0.4325,0.1252,0.3542,0.8341,0.0900,33.8400,0.7800,40.5600,
3.057460,-1.5047,-1.1852,-0.1000,0.3542,0.8341,0.0900,33.8400,0.7800,40.5600,
3.073602,-1.5047,-1.1852,-0.1000,0.3483,0.5257,0.0639,33.8400,0.7800,40.5600,
3.077924,-1.5047,-1.1852,-0.1000,0.3483,0.5257,0.0639,33.8400,0.7800,40.5600,
3.078431,-2.3204,-0.7927,-0.2498,0.3483,0.5257,0.0639,33.8400,0.7800,40.5600,
3.082396,-2.3204,-0.7927,-0.2498,0.3483,0.5257,0.0639,33.6000,1.3200,41.8200,
3.094493,-2.3204,-0.7927,-0.2498,0.3180,0.4565,0.2445,33.6000,1.3200,41.8200,
3.098535,-2.3204,-0.7927,-0.2498,0.3180,0.4565,0.2445,33.6000,1.3200,41.8200,
3.098835,-3.0800,-0.2563,0.0061,0.3180,0.4565,0.2445,33.6000,1.3200,41.8200,
3.114680,-3.0800,-0.2563,0.0061,0.3057,0.4091,0.5326,33.6000,1.3200,41.8200,
3.119624,-3.0800,-0.2563,0.0061,0.3057,0.4091,0.5326,33.6000,1.3200,41.8200,
3.120212,-1.6013,-0.1840,-0.2347,0.3057,0.4091,0.5326,33.6000,1.3200,41.8200,
3.135464,-1.6013,-0.1840,-0.2347,0.1353,0.4714,0.5752,33.6000,1.3200,41.8200,
3.139675,-1.6013,-0.1840,-0.2347,0.1353,0.4714,0.5752,33.6000,1.3200,41.8200,
3.140141,0.6686,-0.8234,-0.8185,0.1353,0.4714,0.5752,33.6000,1.3200,41.8200,
3.144866,0.6686,-0.8234,-0.8185,0.1353,0.4714,0.5752,32.2800,1.8600,42.7200,
3.155718,0.6686,-0.8234,-0.8185,0.1566,0.5081,0.5145,32.2800,1.8600,42.7200,
3.159950,0.6686,-0.8234,-0.8185,0.1566,0.5081,0.5145,32.2800,1.8600,42.7200,
3.160253,1.0726,-0.9922,0.6984,0.1566,0.5081,0.5145,32.2800,1.8600,42.7200,
3.176488,1.0726,-0.9922,0.6984,0.3382,0.1124,0.4629,32.2800,1.8600,42.7200,
3.180603,1.0726,-0.9922,0.6984,0.3382,0.1124,0.4629,32.2800,1.8600,42.7200,
3.181017,0.7120,-1.2606,1.2357,0.3382,0.1124,0.4629,32.2800,1.8600,42.7200,
3.196857,0.7120,-1.2606,1.2357,0.4186,-0.4197,0.3728,32.2800,1.8600,42.7200,
3.201871,0.7120,-1.2606,1.2357,0.4186,-0.4197,0.3728,32.2800,1.8600,42.7200,
3.202287,0.0585,-0.9619,0.2049,0.4186,-0.4197,0.3728,32.2800,1.8600,42.7200,
3.205584,0.0585,-0.9619,0.2049,0.4186,-0.4197,0.3728,31.4400,1.9200,42.3600,
3.217311,0.0585,-0.9619,0.2049,0.2205,-0.2839,0.2530,31.4400,1.9200,42.3600,
3.221687,0.0585,-0.9619,0.2049,0.2205,-0.2839,0.2530,31.4400,1.9200,42.3600,
3.222094,-0.4615,-0.7952,-1.4411,0.2205,-0.2839,0.2530,31.4400,1.9200,42.3600,
3.237924,-0.4615,-0.7952,-1.4411,0.1268,-0.0463,0.2578,31.4400,1.9200,42.3600,
3.242066,-0.4615,-0.7952,-1.4411,0.1268,-0.0463,0.2578,31.4400,1.9200,42.3600,
3.242466,-0.3906,-0.8258,-0.0755,0.1268,-0.0463,0.2578,31.4400,1.9200,42.3600,
3.258336,-0.3906,-0.8258,-0.0755,0.2610,-0.0639,0.2764,31.4400,1.9200,42.3600,
3.262916,-0.3906,-0.8258,-0.0755,0.2610,-0.0639,0.2764,31.4400,1.9200,42.3600,
3.263323,0.5458,-0.7058,-0.1232,0.2610,-0.0639,0.2764,31.4400,1.9200,42.3600,
3.267092,0.5458,-0.7058,-0.1232,0.2610,-0.0639,0.2764,30.4200,2.0400,43.8600,
3.279053,0.5458,-0.7058,-0.1232,0.1742,0.0863,0.1720,30.4200,2.0400,43.8600,
3.283206,0.5458,-0.7058,-0.1232,0.1742,0.0863,0.1720,30.4200,2.0400,43.8600,
3.283493,0.3441,-0.2452,-0.1570,0.1742,0.0863,0.1720,30.4200,2.0400,43.8600,
3.299461,0.3441,-0.2452,-0.1570,0.1225,0.2961,0.1246,30.4200,2.0400,43.8600,
3.304055,0.3441,-0.2452,-0.1570,0.1225,0.2961,0.1246,30.4200,2.0400,43.8600,
3.304675,-0.5912,0.0791,-0.2960,0.1225,0.2961,0.1246,30.4200,2.0400,43.8600,
3.320085,-0.5912,0.0791,-0.2960,0.0820,0.2333,0.2189,30.4200,2.0400,43.8600,
3.324270,-0.5912,0.0791,-0.2960,0.0820,0.2333,0.2189,30.4200,2.0400,43.8600,
3.324597,-1.1751,0.3382,0.1619,0.0820,0.2333,0.2189,30.4200,2.0400,43.8600,
3.329249,-1.1751,0.3382,0.1619,0.0820,0.2333,0.2189,30.1800,2.9400,44.1600,
3.340606,-1.1751,0.3382,0.1619,0.0735,0.0916,0.4165,30.1800,2.9400,44.1600,
3.345161,-1.1751,0.3382,0.1619,0.0735,0.0916,0.4165,30.1800,2.9400,44.1600,
3.345661,-1.8454,0.1147,0.5145,0.0735,0.0916,0.4165,30.1800,2.9400,44.1600,
3.361200,-1.8454,0.1147,0.5145,0.1364,-0.1044,0.6131,30.1800,2.9400,44.1600,
3.365351,-1.8454,0.1147,0.5145,0.1364,-0.1044,0.6131,30.1800,2.9400,44.1600,
3.365708,-1.1337,-0.7583,0.5610,0.1364,-0.1044,0.6131,30.1800,2.9400,44.1600,
3.381549,-1.1337,-0.7583,0.5610,0.0884,-0.1406,0.5598,30.1800,2.9400,44.1600,
3.386152,-1.1337,-0.7583,0.5610,0.0884,-0.1406,0.5598,30.1800,2.9400,44.1600,
3.386655,0.1979,-2.2487,-0.9041,0.0884,-0.1406,0.5598,30.1800,2.9400,44.1600,
3.390232,0.1979,-2.2487,-0.9041,0.0884,-0.1406,0.5598,29.5200,3.5400,43.7400,
3.402250,0.1979,-2.2487,-0.9041,0.0149,-0.1103,0.5481,29.5200,3.5400,43.7400,
3.406430,0.1979,-2.2487,-0.9041,0.0149,-0.1103,0.5481,29.5200,3.5400,43.7400,
3.406865,0.1598,-1.0070,0.1964,0.0149,-0.1103,0.5481,29.5200,3.5400,43.7400,
3.422664,0.1598,-1.0070,0.1964,1.8807,4.5242,0.2637,29.5200,3.5400,43.7400,
3.427037,0.1598,-1.0070,0.1964,1.8807,4.5242,0.2637,29.5200,3.5400,43.7400,
3.427425,0.7313,0.9341,-1.8951,1.8807,4.5242,0.2637,29.5200,3.5400,43.7400,
3.443371,0.7313,0.9341,-1.8951,0.8208,2.7335,0.9822,29.5200,3.5400,43.7400,
3.447443,0.7313,0.9341,-1.8951,0.8208,2.7335,0.9822,29.5200,3.5400,43.7400,
3.447714,1.2649,1.2469,3.0617,0.8208,2.7335,0.9822,29.5200,3.5400,43.7400,
3.451821,1.2649,1.2469,3.0617,0.8208,2.7335,0.9822,29.1000,3.4800,43.5000,
3.463652,1.2649,1.2469,3.0617,-0.0581,0.0953,1.5228,29.1000,3.4800,43.5000,
3.468775,1.2649,1.2469,3.0617,-0.0581,0.0953,1.5228,29.1000,3.4800,43.5000,
3.469210,0.4017,-0.6844,-1.9968,-0.0581,0.0953,1.5228,29.1000,3.4800,43.5000,
3.484886,0.4017,-0.6844,-1.9968,-0.1672,0.2716,2.1923,29.1000,3.4800,43.5000,
3.488511,0.4017,-0.6844,-1.9968,-0.1672,0.2716,2.1923,29.1000,3.4800,43.5000,
3.488967,-1.0232,-1.1626,-0.3064,-0.1672,0.2716,2.1923,29.1000,3.4800,43.5000,
3.504691,-1.0232,-1.1626,-0.3064,0.1204,-0.0767,2.0032,29.1000,3.4800,43.5000,
3.509291,-1.0232,-1.1626,-0.3064,0.1204,-0.0767,2.0032,29.1000,3.4800,43.5000,
3.509637,-0.4004,-0.1446,1.2167,0.1204,-0.0767,2.0032,29.1000,3.4800,43.5000,
3.514039,-0.4004,-0.1446,1.2167,0.1204,-0.0767,2.0032,28.0200,3.6600,42.6600,
3.525234,-0.4004,-0.1446,1.2167,0.1513,-1.0583,-0.0394,28.0200,3.6600,42.6600,
3.529446,-0.4004,-0.1446,1.2167,0.1513,-1.0583,-0.0394,28.0200,3.6600,42.6600,
3.529931,-2.3162,0.9922,-0.2265,0.1513,-1.0583,-0.0394,28.0200,3.6600,42.6600,
3.545956,-2.3162,0.9922,-0.2265,-0.0075,-0.1944,-0.1449,28.0200,3.6600,42.6600,
3.550092,-2.3162,0.9922,-0.2265,-0.0075,-0.1944,-0.1449,28.0200,3.6600,42.6600,
3.550431,-0.9324,2.0880,-0.9732,-0.0075,-0.1944,-0.1449,28.0200,3.6600,42.6600,
3.566316,-0.9324,2.0880,-0.9732,-0.0916,-0.0352,-0.1140,28.0200,3.6600,42.6600,
3.571116,-0.9324,2.0880,-0.9732,-0.0916,-0.0352,-0.1140,28.0200,3.6600,42.6600,
3.571710,1.3108,2.5029,-0.0833,-0.0916,-0.0352,-0.1140,28.0200,3.6600,42.6600,
3.575003,1.3108,2.5029,-0.0833,-0.0916,-0.0352,-0.1140,26.5800,2.5200,42.6600,
3.586847,1.3108,2.5029,-0.0833,-0.9001,-0.9262,-0.6376,26.5800,2.5200,42.6600,
3.590961,1.3108,2.5029,-0.0833,-0.9001,-0.9262,-0.6376,26.5800,2.5200,42.6600,
3.591205,1.6531,0.9097,-0.8160,-0.9001,-0.9262,-0.6376,26.5800,2.5200,42.6600,
3.607356,1.6531,0.9097,-0.8160,-1.5846,-2.3122,-1.7390,26.5800,2.5200,42.6600,
3.611630,1.6531,0.9097,-0.8160,-1.5846,-2.3122,-1.7390,26.5800,2.5200,42.6600,
3.612166,1.9244,0.0572,0.9075,-1.5846,-2.3122,-1.7390,26.5800,2.5200,42.6600,
3.627823,1.9244,0.0572,0.9075,-1.1974,-2.8309,-2.9763,26.5800,2.5200,42.6600,
3.632292,1.9244,0.0572,0.9075,-1.1974,-2.8309,-2.9763,26.5800,2.5200,42.6600,
3.632616,0.4698,2.2406,0.9859,-1.1974,-2.8309,-2.9763,26.5800,2.5200,42.6600,
3.636627,0.4698,2.2406,0.9859,-1.1974,-2.8309,-2.9763,26.4000,1.1400,42.3000,
3.648576,0.4698,2.2406,0.9859,-0.6509,-1.8733,-2.9279,26.4000,1.1400,42.3000,
3.653346,0.4698,2.2406,0.9859,-0.6509,-1.8733,-2.9279,26.4000,1.1400,42.3000,
3.654402,-0.1200,0.6629,-0.3626,-0.6509,-1.8733,-2.9279,26.4000,1.1400,42.3000,
3.668958,-0.1200,0.6629,-0.3626,-0.5342,-0.8565,-2.4746,26.4000,1.1400,42.3000,
3.673316,-0.1200,0.6629,-0.3626,-0.5342,-0.8565,-2.4746,26.4000,1.1400,42.3000,
3.673643,0.8586,-1.0946,-1.2437,-0.5342,-0.8565,-2.4746,26.4000,1.1400,42.3000,
3.689444,0.8586,-1.0946,-1.2437,-0.7175,-0.4591,-2.0416,26.4000,1.1400,42.3000,
3.693729,0.8586,-1.0946,-1.2437,-0.7175,-0.4591,-2.0416,26.4000,1.1400,42.3000,
3.694282,1.2766,3.5885,-0.7612,-0.7175,-0.4591,-2.0416,26.4000,1.1400,42.3000,
3.698292,1.2766,3.5885,-0.7612,-0.7175,-0.4591,-2.0416,26.9400,0.5400,41.7000,
3.710050,1.2766,3.5885,-0.7612,-0.5614,-0.5779,-1.9697,26.9400,0.5400,41.7000,
3.714398,1.2766,3.5885,-0.7612,-0.5614,-0.5779,-1.9697,26.9400,0.5400,41.7000,
3.714751,1.9010,3.5961,-0.0959,-0.5614,-0.5779,-1.9697,26.9400,0.5400,41.7000,
3.730583,1.9010,3.5961,-0.0959,-0.7947,-1.0967,-2.1252,26.9400,0.5400,41.7000,
3.734814,1.9010,3.5961,-0.0959,-0.7947,-1.0967,-2.1252,26.9400,0.5400,41.7000,
3.735274,2.1477,0.3441,0.2788,-0.7947,-1.0967,-2.1252,26.9400,0.5400,41.7000,
3.750966,2.1477,0.3441,0.2788,-0.3366,-1.4093,-2.3010,26.9400,0.5400,41.7000,
3.755203,2.1477,0.3441,0.2788,-0.3366,-1.4093,-2.3010,26.9400,0.5400,41.7000,
3.755430,2.8949,-0.3279,-0.5714,-0.3366,-1.4093,-2.3010,26.9400,0.5400,41.7000,
3.759645,2.8949,-0.3279,-0.5714,-0.3366,-1.4093,-2.3010,28.1400,0.7200,40.2000,
3.771570,2.8949,-0.3279,-0.5714,-0.1017,-1.2229,-2.7814,28.1400,0.7200,40.2000,
3.776437,2.8949,-0.3279,-0.5714,-0.1017,-1.2229,-2.7814,28.1400,0.7200,40.2000,
3.776887,2.2812,-0.9663,-1.4708,-0.1017,-1.2229,-2.7814,28.1400,0.7200,40.2000,
3.792036,2.2812,-0.9663,-1.4708,0.1806,-0.1747,-2.9012,28.1400,0.7200,40.2000,
3.796504,2.2812,-0.9663,-1.4708,0.1806,-0.1747,-2.9012,28.1400,0.7200,40.2000,
3.796844,2.0301,0.3618,-2.4937,0.1806,-0.1747,-2.9012,28.1400,0.7200,40.2000,
3.812638,2.0301,0.3618,-2.4937,0.3334,0.8448,-2.4874,28.1400,0.7200,40.2000,
3.816911,2.0301,0.3618,-2.4937,0.3334,0.8448,-2.4874,28.1400,0.7200,40.2000,
3.817222,0.3101,-1.3903,-1.8574,0.3334,0.8448,-2.4874,28.1400,0.7200,40.2000,
3.821394,0.3101,-1.3903,-1.8574,0.3334,0.8448,-2.4874,30.0000,2.5800,38.1000,
3.833181,0.3101,-1.3903,-1.8574,0.4554,1.5840,-1.6789,30.0000,2.5800,38.1000,
3.837501,0.3101,-1.3903,-1.8574,0.4554,1.5840,-1.6789,30.0000,2.5800,38.1000,
3.838025,-1.9753,-1.5056,-0.2007,0.4554,1.5840,-1.6789,30.0000,2.5800,38.1000,
3.853632,-1.9753,-1.5056,-0.2007,0.3025,1.1340,-1.5521,30.0000,2.5800,38.1000,
3.857861,-1.9753,-1.5056,-0.2007,0.3025,1.1340,-1.5521,30.0000,2.5800,38.1000,
3.858146,-1.3654,-3.6350,3.1294,0.3025,1.1340,-1.5521,30.0000,2.5800,38.1000,
3.874240,-1.3654,-3.6350,3.1294,0.2775,-0.7691,-1.7188,30.0000,2.5800,38.1000,
3.878524,-1.3654,-3.6350,3.1294,0.2775,-0.7691,-1.7188,30.0000,2.5800,38.1000,
3.879048,-2.2371,-6.3024,2.7885,0.2775,-0.7691,-1.7188,30.0000,2.5800,38.1000,
3.882750,-2.2371,-6.3024,2.7885,0.2775,-0.7691,-1.7188,31.5000,6.0000,36.9000,
3.894775,-2.2371,-6.3024,2.7885,0.1246,-1.2357,-1.0035,31.5000,6.0000,36.9000,
3.898975,-2.2371,-6.3024,2.7885,0.1246,-1.2357,-1.0035,31.5000,6.0000,36.9000,
3.899285,-3.1779,-2.3049,-0.2871,0.1246,-1.2357,-1.0035,31.5000,6.0000,36.9000,
3.915363,-3.1779,-2.3049,-0.2871,-0.3494,-0.3989,-0.1944,31.5000,6.0000,36.9000,
3.919630,-3.1779,-2.3049,-0.2871,-0.3494,-0.3989,-0.1944,31.5000,6.0000,36.9000,
3.920234,-0.4806,-1.7944,-0.6799,-0.3494,-0.3989,-0.1944,31.5000,6.0000,36.9000,
3.936087,-0.4806,-1.7944,-0.6799,-0.5790,0.0336,0.0336,31.5000,6.0000,36.9000,
3.940191,-0.4806,-1.7944,-0.6799,-0.5790,0.0336,0.0336,31.5000,6.0000,36.9000,
3.940497,0.7383,-2.2927,1.0181,-0.5790,0.0336,0.0336,31.5000,6.0000,36.9000,
3.944942,0.7383,-2.2927,1.0181,-0.5790,0.0336,0.0336,31.3800,10.0800,35.8200,
3.956275,0.7383,-2.2927,1.0181,-0.3425,-0.2557,0.1880,31.3800,10.0800,35.8200,
3.960787,0.7383,-2.2927,1.0181,-0.3425,-0.2557,0.1880,31.3800,10.0800,35.8200,
3.961283,0.7653,-3.5016,1.5180,-0.3425,-0.2557,0.1880,31.3800,10.0800,35.8200,
3.976980,0.7653,-3.5016,1.5180,-0.1262,-0.5444,0.4836,31.3800,10.0800,35.8200,
3.981013,0.7653,-3.5016,1.5180,-0.1262,-0.5444,0.4836,31.3800,10.0800,35.8200,
3.981315,0.3416,-2.7237,0.4918,-0.1262,-0.5444,0.4836,31.3800,10.0800,35.8200,
3.997375,0.3416,-2.7237,0.4918,-0.0655,-0.7127,0.9055,31.3800,10.0800,35.8200,
4.001783,0.3416,-2.7237,0.4918,-0.0655,-0.7127,0.9055,31.3800,10.0800,35.8200,
4.002212,0.3594,-3.3885,-0.1237,-0.0655,-0.7127,0.9055,31.3800,10.0800,35.8200,
4.006125,0.3594,-3.3885,-0.1237,-0.0655,-0.7127,0.9055,31.0800,12.6600,35.5800,
4.018207,0.3594,-3.3885,-0.1237,-0.0772,-0.6993,1.3268,31.0800,12.6600,35.5800,
4.022239,0.3594,-3.3885,-0.1237,-0.0772,-0.6993,1.3268,31.0800,12.6600,35.5800,
4.022570,-0.3310,-4.2100,0.5207,-0.0772,-0.6993,1.3268,31.0800,12.6600,35.5800,
4.038480,-0.3310,-4.2100,0.5207,0.7718,-0.3941,1.5319,31.0800,12.6600,35.5800,
4.043576,-0.3310,-4.2100,0.5207,0.7718,-0.3941,1.5319,31.0800,12.6600,35.5800,
4.043954,-1.2596,-2.2374,0.8235,0.7718,-0.3941,1.5319,31.0800,12.6600,35.5800,
4.059032,-1.2596,-2.2374,0.8235,0.9827,0.0176,1.2192,31.0800,12.6600,35.5800,
4.063270,-1.2596,-2.2374,0.8235,0.9827,0.0176,1.2192,31.0800,12.6600,35.5800,
4.063682,-1.3419,1.3861,-2.1312,0.9827,0.0176,1.2192,31.0800,12.6600,35.5800,
4.068205,-1.3419,1.3861,-2.1312,0.9827,0.0176,1.2192,31.0800,14.2200,35.4600,
4.079622,-1.3419,1.3861,-2.1312,-0.2077,-0.3398,0.5422,31.0800,14.2200,35.4600,
4.083709,-1.3419,1.3861,-2.1312,-0.2077,-0.3398,0.5422,31.0800,14.2200,35.4600,
4.084011,-0.5349,2.9790,0.7415,-0.2077,-0.3398,0.5422,31.0800,14.2200,35.4600,
4.100212,-0.5349,2.9790,0.7415,0.0405,-0.4826,0.1007,31.0800,14.2200,35.4600,
4.104493,-0.5349,2.9790,0.7415,0.0405,-0.4826,0.1007,31.0800,14.2200,35.4600,
4.104921,-0.1309,1.7729,1.5897,0.0405,-0.4826,0.1007,31.0800,14.2200,35.4600,
4.120642,-0.1309,1.7729,1.5897,0.5140,-0.3760,-0.1720,31.0800,14.2200,35.4600,
4.124753,-0.1309,1.7729,1.5897,0.5140,-0.3760,-0.1720,31.0800,14.2200,35.4600,
4.125085,-0.9593,-1.0388,-0.1175,0.5140,-0.3760,-0.1720,31.0800,14.2200,35.4600,
4.129212,-0.9593,-1.0388,-0.1175,0.5140,-0.3760,-0.1720,31.5600,14.2200,35.2800,
4.141104,-0.9593,-1.0388,-0.1175,0.3068,-0.2008,-0.1369,31.5600,14.2200,35.2800,
4.145465,-0.9593,-1.0388,-0.1175,0.3068,-0.2008,-0.1369,31.5600,14.2200,35.2800,
4.145855,-0.9348,-2.3785,0.1015,0.3068,-0.2008,-0.1369,31.5600,14.2200,35.2800,
4.161593,-0.9348,-2.3785,0.1015,0.1571,-0.4107,-0.1768,31.5600,14.2200,35.2800,
4.165802,-0.9348,-2.3785,0.1015,0.1571,-0.4107,-0.1768,31.5600,14.2200,35.2800,
4.166059,-0.7259,-2.0651,0.7591,0.1571,-0.4107,-0.1768,31.5600,14.2200,35.2800,
4.182168,-0.7259,-2.0651,0.7591,0.2615,-0.5039,-0.2349,31.5600,14.2200,35.2800,
4.186668,-0.7259,-2.0651,0.7591,0.2615,-0.5039,-0.2349,31.5600,14.2200,35.2800,
4.187102,-0.3818,-1.2346,0.1539,0.2615,-0.5039,-0.2349,31.5600,14.2200,35.2800,
4.190968,-0.3818,-1.2346,0.1539,0.2615,-0.5039,-0.2349,33.1800,13.7400,34.6800,
4.202855,-0.3818,-1.2346,0.1539,0.3292,-0.5502,-0.2194,33.1800,13.7400,34.6800,
4.207001,-0.3818,-1.2346,0.1539,0.3292,-0.5502,-0.2194,33.1800,13.7400,34.6800,
4.207353,0.2950,-0.5239,-0.7446,0.3292,-0.5502,-0.2194,33.1800,13.7400,34.6800,
4.223348,0.2950,-0.5239,-0.7446,0.2354,-0.5193,-0.1811,33.1800,13.7400,34.6800,
4.227559,0.2950,-0.5239,-0.7446,0.2354,-0.5193,-0.1811,33.1800,13.7400,34.6800,
4.228064,0.9208,0.2662,-0.8114,0.2354,-0.5193,-0.1811,33.1800,13.7400,34.6800,
4.243792,0.9208,0.2662,-0.8114,0.0943,-0.3297,-0.0975,33.1800,13.7400,34.6800,
4.248261,0.9208,0.2662,-0.8114,0.0943,-0.3297,-0.0975,33.1800,13.7400,34.6800,
4.248658,0.6498,0.6851,-0.0726,0.0943,-0.3297,-0.0975,33.1800,13.7400,34.6800,
4.252644,0.6498,0.6851,-0.0726,0.0943,-0.3297,-0.0975,34.4400,13.2600,33.8400,
4.264336,0.6498,0.6851,-0.0726,0.1055,-0.0948,0.0676,34.4400,13.2600,33.8400,
4.268613,0.6498,0.6851,-0.0726,0.1055,-0.0948,0.0676,34.4400,13.2600,33.8400,
4.269137,-0.1780,0.5448,0.7162,0.1055,-0.0948,0.0676,34.4400,13.2600,33.8400,
4.284720,-0.1780,0.5448,0.7162,0.2866,0.0953,0.3004,34.4400,13.2600,33.8400,
4.289055,-0.1780,0.5448,0.7162,0.2866,0.0953,0.3004,34.4400,13.2600,33.8400,
4.289399,0.2200,0.7337,0.1422,0.2866,0.0953,0.3004,34.4400,13.2600,33.8400,
4.305347,0.2200,0.7337,0.1422,0.2913,-0.0336,0.3425,34.4400,13.2600,33.8400,
4.309776,0.2200,0.7337,0.1422,0.2913,-0.0336,0.3425,34.4400,13.2600,33.8400,
4.310308,0.0074,1.7822,-0.9428,0.2913,-0.0336,0.3425,34.4400,13.2600,33.8400,
4.314049,0.0074,1.7822,-0.9428,0.2913,-0.0336,0.3425,35.1600,13.3200,32.7000,
4.325922,0.0074,1.7822,-0.9428,0.1294,-0.1577,0.3819,35.1600,13.3200,32.7000,
4.330130,0.0074,1.7822,-0.9428,0.1294,-0.1577,0.3819,35.1600,13.3200,32.7000,
4.330412,-1.1941,3.1216,-0.6914,0.1294,-0.1577,0.3819,35.1600,13.3200,32.7000,
4.346440,-1.1941,3.1216,-0.6914,0.1646,-0.2125,0.3473,35.1600,13.3200,32.7000,
4.350792,-1.1941,3.1216,-0.6914,0.1646,-0.2125,0.3473,35.1600,13.3200,32.7000,
4.351152,-2.4010,3.8905,0.2094,0.1646,-0.2125,0.3473,35.1600,13.3200,32.7000,
4.366836,-2.4010,3.8905,0.2094,0.2482,-0.3680,0.2605,35.1600,13.3200,32.7000,
4.371072,-2.4010,3.8905,0.2094,0.2482,-0.3680,0.2605,35.1600,13.3200,32.7000,
4.371344,-1.8459,3.8663,-0.0517,0.2482,-0.3680,0.2605,35.1600,13.3200,32.7000,
4.375780,-1.8459,3.8663,-0.0517,0.2482,-0.3680,0.2605,35.5800,13.5600,31.9800,
4.387419,-1.8459,3.8663,-0.0517,0.1230,-0.4506,0.1774,35.5800,13.5600,31.9800,
4.391619,-1.8459,3.8663,-0.0517,0.1230,-0.4506,0.1774,35.5800,13.5600,31.9800,
4.391947,-0.6987,3.2831,-0.6258,0.1230,-0.4506,0.1774,35.5800,13.5600,31.9800,
4.407981,-0.6987,3.2831,-0.6258,0.0453,-0.2882,0.3430,35.5800,13.5600,31.9800,
4.412364,-0.6987,3.2831,-0.6258,0.0453,-0.2882,0.3430,35.5800,13.5600,31.9800,
4.412846,-0.1446,1.5488,-0.7805,0.0453,-0.2882,0.3430,35.5800,13.5600,31.9800,
4.428569,-0.1446,1.5488,-0.7805,0.0256,-0.0602,0.4634,35.5800,13.5600,31.9800,
4.432839,-0.1446,1.5488,-0.7805,0.0256,-0.0602,0.4634,35.5800,13.5600,31.9800,
4.433180,0.3461,0.3349,0.0759,0.0256,-0.0602,0.4634,35.5800,13.5600,31.9800,
4.437259,0.3461,0.3349,0.0759,0.0256,-0.0602,0.4634,35.5800,13.3800,31.3200,
4.449027,0.3461,0.3349,0.0759,-0.0336,-0.0724,0.5007,35.5800,13.3800,31.3200,
4.469502,0.3461,0.3349,0.0759,0.0192,0.0011,0.5907,35.5800,13.3800,31.3200,
4.490093,0.3461,0.3349,0.0759,0.0479,-0.0570,0.6173,35.5800,13.3800,31.3200,
4.494587,0.3461,0.3349,0.0759,0.0479,-0.0570,0.6173,35.5800,13.3800,31.3200,
4.495206,0.0299,-0.5042,0.7157,0.0479,-0.0570,0.6173,35.5800,13.3800,31.3200,
4.498690,0.0299,-0.5042,0.7157,0.0479,-0.0570,0.6173,36.2400,13.2000,30.9000,
4.510625,0.0299,-0.5042,0.7157,0.0426,-0.0176,0.6338,36.2400,13.2000,30.9000,
4.531061,0.0299,-0.5042,0.7157,-0.0389,0.0639,0.6823,36.2400,13.2000,30.9000,
4.551753,0.0299,-0.5042,0.7157,-0.1278,0.3100,0.6104,36.2400,13.2000,30.9000,
4.555836,0.0299,-0.5042,0.7157,-0.1278,0.3100,0.6104,36.2400,13.2000,30.9000,
4.556145,0.4284,0.4219,0.9440,-0.1278,0.3100,0.6104,36.2400,13.2000,30.9000,
4.560455,0.4284,0.4219,0.9440,-0.1278,0.3100,0.6104,37.2000,12.6600,30.9600,
4.572193,0.4284,0.4219,0.9440,-0.1566,0.3308,0.5321,37.2000,12.6600,30.9600,
4.592641,0.4284,0.4219,0.9440,-0.2205,0.3089,0.4543,37.2000,12.6600,30.9600,
4.613176,0.4284,0.4219,0.9440,-0.2280,0.1566,0.3766,37.2000,12.6600,30.9600,
4.617819,0.4284,0.4219,0.9440,-0.2280,0.1566,0.3766,37.2000,12.6600,30.9600,
4.618275,0.0366,-0.6894,-0.0098,-0.2280,0.1566,0.3766,37.2000,12.6600,30.9600,
4.622011,0.0366,-0.6894,-0.0098,-0.2280,0.1566,0.3766,38.1600,11.7600,30.3000,
4.633873,0.0366,-0.6894,-0.0098,-0.3121,0.1113,0.3372,38.1600,11.7600,30.3000,
4.654232,0.0366,-0.6894,-0.0098,-0.3856,0.0799,0.3196,38.1600,11.7600,30.3000,
4.674854,0.0366,-0.6894,-0.0098,-0.3185,0.0794,0.2551,38.1600,11.7600,30.3000,
4.679010,0.0366,-0.6894,-0.0098,-0.3185,0.0794,0.2551,38.1600,11.7600,30.3000,
4.679547,-0.2312,0.6811,0.9405,-0.3185,0.0794,0.2551,38.1600,11.7600,30.3000,
4.683683,-0.2312,0.6811,0.9405,-0.3185,0.0794,0.2551,38.7000,10.8000,29.9400,
4.695357,-0.2312,0.6811,0.9405,-0.3419,-0.1390,0.1076,38.7000,10.8000,29.9400,
4.715910,-0.2312,0.6811,0.9405,-0.4005,-0.1284,-0.0053,38.7000,10.8000,29.9400,
4.736429,-0.2312,0.6811,0.9405,-0.4064,-0.2189,-0.0676,38.7000,10.8000,29.9400,
4.740765,-0.2312,0.6811,0.9405,-0.4064,-0.2189,-0.0676,38.7000,10.8000,29.9400,
4.741070,-0.4483,-0.6579,0.4107,-0.4064,-0.2189,-0.0676,38.7000,10.8000,29.9400,
4.745131,-0.4483,-0.6579,0.4107,-0.4064,-0.2189,-0.0676,39.0000,9.4200,30.0000,
4.756876,-0.4483,-0.6579,0.4107,-0.3638,-0.3649,-0.1401,39.0000,9.4200,30.0000,
4.777347,-0.4483,-0.6579,0.4107,-0.2924,-0.3851,-0.2711,39.0000,9.4200,30.0000,
4.798087,-0.4483,-0.6579,0.4107,-0.2397,-0.4128,-0.3824,39.0000,9.4200,30.0000,
4.802301,-0.4483,-0.6579,0.4107,-0.2397,-0.4128,-0.3824,39.0000,9.4200,30.0000,
4.802870,-0.2863,0.7305,-0.3347,-0.2397,-0.4128,-0.3824,39.0000,9.4200,30.0000,
4.806871,-0.2863,0.7305,-0.3347,-0.2397,-0.4128,-0.3824,39.0600,8.0400,29.7600,
4.818631,-0.2863,0.7305,-0.3347,-0.2578,-0.4101,-0.4650,39.0600,8.0400,29.7600,
4.839168,-0.2863,0.7305,-0.3347,-0.3574,-0.3696,-0.4634,39.0600,8.0400,29.7600,
4.859623,-0.2863,0.7305,-0.3347,-0.4581,-0.2780,-0.3696,39.0600,8.0400,29.7600,
4.864273,-0.2863,0.7305,-0.3347,-0.4581,-0.2780,-0.3696,39.0600,8.0400,29.7600,
4.864562,-0.0060,-0.9509,-0.9218,-0.4581,-0.2780,-0.3696,39.0600,8.0400,29.7600,
4.868404,-0.0060,-0.9509,-0.9218,-0.4581,-0.2780,-0.3696,39.0000,7.0800,29.1000,
4.880180,-0.0060,-0.9509,-0.9218,-0.4527,-0.2706,-0.3073,39.0000,7.0800,29.1000,
4.900796,-0.0060,-0.9509,-0.9218,-0.4234,-0.2541,-0.2115,39.0000,7.0800,29.1000,
4.921207,-0.0060,-0.9509,-0.9218,-0.5246,-0.1081,-0.1230,39.0000,7.0800,29.1000,
4.925421,-0.0060,-0.9509,-0.9218,-0.5246,-0.1081,-0.1230,39.0000,7.0800,29.1000,
4.925726,1.1480,1.3440,-1.9839,-0.5246,-0.1081,-0.1230,39.0000,7.0800,29.1000,
4.930057,1.1480,1.3440,-1.9839,-0.5246,-0.1081,-0.1230,39.7200,6.3600,29.1000,
4.941687,1.1480,1.3440,-1.9839,-0.5513,0.0767,-0.0522,39.7200,6.3600,29.1000,
4.962171,1.1480,1.3440,-1.9839,-0.4117,0.0735,-0.0772,39.7200,6.3600,29.1000,
4.983001,1.1480,1.3440,-1.9839,-0.2770,-0.2013,0.0234,39.7200,6.3600,29.1000,
4.987103,1.1480,1.3440,-1.9839,-0.2770,-0.2013,0.0234,39.7200,6.3600,29.1000,
4.987634,-1.4192,-1.1063,-0.0074,-0.2770,-0.2013,0.0234,39.7200,6.3600,29.1000,
4.991368,-1.4192,-1.1063,-0.0074,-0.2770,-0.2013,0.0234,40.5000,6.0600,28.2600,
5.003331,-1.4192,-1.1063,-0.0074,-0.2024,-0.4884,0.1486,40.5000,6.0600,28.2600,
5.023883,-1.4192,-1.1063,-0.0074,-0.2967,-0.4746,0.1933,40.5000,6.0600,28.2600,
5.044453,-1.4192,-1.1063,-0.0074,-0.3105,-0.2929,0.0895,40.5000,6.0600,28.2600,
5.048604,-1.4192,-1.1063,-0.0074,-0.3105,-0.2929,0.0895,40.5000,6.0600,28.2600,
5.048941,-1.4206,-0.9158,-0.8318,-0.3105,-0.2929,0.0895,40.5000,6.0600,28.2600,
5.053163,-1.4206,-0.9158,-0.8318,-0.3105,-0.2929,0.0895,41.0400,5.7000,28.1400,
5.064858,-1.4206,-0.9158,-0.8318,-0.3515,-0.3744,0.0442,41.0400,5.7000,28.1400,
5.085545,-1.4206,-0.9158,-0.8318,-0.3979,-0.1901,0.0096,41.0400,5.7000,28.1400,
5.105968,-1.4206,-0.9158,-0.8318,-0.4442,-0.0357,-0.0842,41.0400,5.7000,28.1400,
5.110164,-1.4206,-0.9158,-0.8318,-0.4442,-0.0357,-0.0842,41.0400,5.7000,28.1400,
5.110665,-0.4874,-1.9397,0.8253,-0.4442,-0.0357,-0.0842,41.0400,5.7000,28.1400,
5.114680,-0.4874,-1.9397,0.8253,-0.4442,-0.0357,-0.0842,41.5200,4.9200,28.2000,
5.126514,-0.4874,-1.9397,0.8253,-0.5076,-0.1305,-0.2141,41.5200,4.9200,28.2000,
5.146966,-0.4874,-1.9397,0.8253,-0.5891,-0.2434,-0.3057,41.5200,4.9200,28.2000,
5.167519,-0.4874,-1.9397,0.8253,-0.7979,-0.1646,-0.4053,41.5200,4.9200,28.2000,
5.171588,-0.4874,-1.9397,0.8253,-0.7979,-0.1646,-0.4053,41.5200,4.9200,28.2000,
5.171838,-1.7271,-0.5561,-0.4414,-0.7979,-0.1646,-0.4053,41.5200,4.9200,28.2000,
5.176155,-1.7271,-0.5561,-0.4414,-0.7979,-0.1646,-0.4053,41.6400,4.0200,27.9600,
5.188072,-1.7271,-0.5561,-0.4414,-0.8314,0.2807,-0.4373,41.6400,4.0200,27.9600,
5.208586,-1.7271,-0.5561,-0.4414,-0.9140,0.1092,-0.4985,41.6400,4.0200,27.9600,
5.229103,-1.7271,-0.5561,-0.4414,-1.0924,0.2514,-0.5811,41.6400,4.0200,27.9600,
5.233252,-1.7271,-0.5561,-0.4414,-1.0924,0.2514,-0.5811,41.6400,4.0200,27.9600,
5.233528,-0.5792,-0.4312,0.5642,-1.0924,0.2514,-0.5811,41.6400,4.0200,27.9600,
5.239007,-0.5792,-0.4312,0.5642,-1.0924,0.2514,-0.5811,41.5800,3.4800,27.9000,
5.249703,-0.5792,-0.4312,0.5642,-1.1739,0.4863,-0.8570,41.5800,3.4800,27.9000,
5.270099,-0.5792,-0.4312,0.5642,-1.1185,0.3478,-0.9811,41.5800,3.4800,27.9000,
5.290705,-0.5792,-0.4312,0.5642,-1.0125,0.3009,-0.9316,41.5800,3.4800,27.9000,
5.294818,-0.5792,-0.4312,0.5642,-1.0125,0.3009,-0.9316,41.5800,3.4800,27.9000,
5.295644,0.2598,0.8231,0.8984,-1.0125,0.3009,-0.9316,41.5800,3.4800,27.9000,
5.299420,0.2598,0.8231,0.8984,-1.0125,0.3009,-0.9316,42.0000,3.0000,28.3200,
5.311221,0.2598,0.8231,0.8984,-1.0722,0.2317,-0.9001,42.0000,3.0000,28.3200,
5.331882,0.2598,0.8231,0.8984,-1.0179,0.2919,-1.0386,42.0000,3.0000,28.3200,
5.352287,0.2598,0.8231,0.8984,-0.8005,0.4847,-1.2235,42.0000,3.0000,28.3200,
5.356708,0.2598,0.8231,0.8984,-0.8005,0.4847,-1.2235,42.0000,3.0000,28.3200,
5.357040,2.2813,-0.1811,0.9411,-0.8005,0.4847,-1.2235,42.0000,3.0000,28.3200,
5.362227,2.2813,-0.1811,0.9411,-0.8005,0.4847,-1.2235,42.3600,3.2400,28.4400,
5.372772,2.2813,-0.1811,0.9411,-0.8810,0.9864,-1.1356,42.3600,3.2400,28.4400,
5.393370,2.2813,-0.1811,0.9411,-0.8788,1.1473,-1.1052,42.3600,3.2400,28.4400,
5.413942,2.2813,-0.1811,0.9411,-0.7824,0.9763,-1.1867,42.3600,3.2400,28.4400,
5.418092,2.2813,-0.1811,0.9411,-0.7824,0.9763,-1.1867,42.3600,3.2400,28.4400,
5.418539,0.3789,-1.1321,1.2305,-0.7824,0.9763,-1.1867,42.3600,3.2400,28.4400,
5.423134,0.3789,-1.1321,1.2305,-0.7824,0.9763,-1.1867,41.8200,3.1800,28.9200,
5.434384,0.3789,-1.1321,1.2305,-0.7201,0.5907,-1.3007,41.8200,3.1800,28.9200,
5.454975,0.3789,-1.1321,1.2305,-0.6562,0.5119,-1.4248,41.8200,3.1800,28.9200,
5.475457,0.3789,-1.1321,1.2305,-0.6434,0.4426,-1.3960,41.8200,3.1800,28.9200,
5.483965,0.3789,-1.1321,1.2305,-0.6434,0.4426,-1.3960,41.8200,3.1800,28.9200,
5.484332,-0.6775,0.4508,0.3152,-0.6434,0.4426,-1.3960,41.8200,3.1800,28.9200,
5.484730,-0.6775,0.4508,0.3152,-0.6434,0.4426,-1.3960,41.1000,3.6000,30.1800,
5.496251,-0.6775,0.4508,0.3152,-0.5965,0.4554,-1.4317,41.1000,3.6000,30.1800,
5.516521,-0.6775,0.4508,0.3152,-0.6173,0.4602,-1.5564,41.1000,3.6000,30.1800,
5.536982,-0.6775,0.4508,0.3152,-0.6434,0.6456,-1.5771,41.1000,3.6000,30.1800,
5.541205,-0.6775,0.4508,0.3152,-0.6434,0.6456,-1.5771,41.1000,3.6000,30.1800,
5.541455,-0.0529,-1.1696,-0.7568,-0.6434,0.6456,-1.5771,41.1000,3.6000,30.1800,
5.545838,-0.0529,-1.1696,-0.7568,-0.6434,0.6456,-1.5771,39.9600,5.2200,31.1400,
5.557573,-0.0529,-1.1696,-0.7568,-0.7100,0.8096,-1.4498,39.9600,5.2200,31.1400,
5.578158,-0.0529,-1.1696,-0.7568,-0.7286,0.8266,-1.2980,39.9600,5.2200,31.1400,
5.598619,-0.0529,-1.1696,-0.7568,-0.7308,0.6072,-1.3582,39.9600,5.2200,31.1400,
5.602819,-0.0529,-1.1696,-0.7568,-0.7308,0.6072,-1.3582,39.9600,5.2200,31.1400,
5.603296,-1.8305,-0.9170,0.0927,-0.7308,0.6072,-1.3582,39.9600,5.2200,31.1400,
5.607299,-1.8305,-0.9170,0.0927,-0.7308,0.6072,-1.3582,38.3400,6.5400,33.3000,
5.619238,-1.8305,-0.9170,0.0927,-0.6834,0.3382,-1.5984,38.3400,6.5400,33.3000,
5.639664,-1.8305,-0.9170,0.0927,-0.6621,0.1822,-1.9010,38.3400,6.5400,33.3000,
5.660396,-1.8305,-0.9170,0.0927,-0.7883,0.1172,-2.1257,38.3400,6.5400,33.3000,
5.664330,-1.8305,-0.9170,0.0927,-0.7883,0.1172,-2.1257,38.3400,6.5400,33.3000,
5.664557,1.0090,-0.0414,-0.8301,-0.7883,0.1172,-2.1257,38.3400,6.5400,33.3000,
5.668952,1.0090,-0.0414,-0.8301,-0.7883,0.1172,-2.1257,36.7800,8.8200,35.1600,
5.680652,1.0090,-0.0414,-0.8301,-0.8932,0.1720,-2.1678,36.7800,8.8200,35.1600,
5.701205,1.0090,-0.0414,-0.8301,-0.9454,0.5230,-2.0741,36.7800,8.8200,35.1600,
5.721742,1.0090,-0.0414,-0.8301,-0.9790,0.9960,-1.9116,36.7800,8.8200,35.1600,
5.726429,1.0090,-0.0414,-0.8301,-0.9790,0.9960,-1.9116,36.7800,8.8200,35.1600,
5.726896,2.0871,-1.7858,-0.6957,-0.9790,0.9960,-1.9116,36.7800,8.8200,35.1600,
5.730569,2.0871,-1.7858,-0.6957,-0.9790,0.9960,-1.9116,34.8000,10.8000,36.6000,
5.742361,2.0871,-1.7858,-0.6957,-1.0466,0.9752,-1.8094,34.8000,10.8000,36.6000,
5.762831,2.0871,-1.7858,-0.6957,-1.1057,0.6605,-1.8056,34.8000,10.8000,36.6000,
5.783399,2.0871,-1.7858,-0.6957,-0.9465,0.4607,-1.7998,34.8000,10.8000,36.6000,
5.788422,2.0871,-1.7858,-0.6957,-0.9465,0.4607,-1.7998,34.8000,10.8000,36.6000,
5.788803,0.0806,-1.5587,0.3673,-0.9465,0.4607,-1.7998,34.8000,10.8000,36.6000,
5.792608,0.0806,-1.5587,0.3673,-0.9465,0.4607,-1.7998,32.1000,11.7600,37.5000,
5.803744,0.0806,-1.5587,0.3673,-0.6333,0.0565,-1.7390,32.1000,11.7600,37.5000,
5.824507,0.0806,-1.5587,0.3673,-0.4964,0.2056,-1.5638,32.1000,11.7600,37.5000,
5.844882,0.0806,-1.5587,0.3673,-1.1665,2.6365,0.0581,32.1000,11.7600,37.5000,
5.849096,0.0806,-1.5587,0.3673,-1.1665,2.6365,0.0581,32.1000,11.7600,37.5000,
5.849369,6.8275,-1.2207,1.6239,-1.1665,2.6365,0.0581,32.1000,11.7600,37.5000,
5.854136,6.8275,-1.2207,1.6239,-1.1665,2.6365,0.0581,29.6400,12.7800,37.9800,
5.865542,6.8275,-1.2207,1.6239,-1.4786,1.2730,-1.3113,29.6400,12.7800,37.9800,
5.885916,6.8275,-1.2207,1.6239,-1.6725,0.3318,-1.8988,29.6400,12.7800,37.9800,
5.906504,6.8275,-1.2207,1.6239,-0.7185,-1.2991,-3.3726,29.6400,12.7800,37.9800,
5.910932,6.8275,-1.2207,1.6239,-0.7185,-1.2991,-3.3726,29.6400,12.7800,37.9800,
5.911688,3.8572,1.3769,-0.5267,-0.7185,-1.2991,-3.3726,29.6400,12.7800,37.9800,
5.915226,3.8572,1.3769,-0.5267,-0.7185,-1.2991,-3.3726,27.0000,13.3800,39.0000,
5.927103,3.8572,1.3769,-0.5267,-0.1236,-0.5023,-0.9113,27.0000,13.3800,39.0000,
5.947591,3.8572,1.3769,-0.5267,-0.1848,-0.5907,-0.0708,27.0000,13.3800,39.0000,
5.968110,3.8572,1.3769,-0.5267,-0.8362,-1.3811,-0.6013,27.0000,13.3800,39.0000,
5.972281,3.8572,1.3769,-0.5267,-0.8362,-1.3811,-0.6013,27.0000,13.3800,39.0000,
5.972509,2.1884,-3.4432,-2.5781,-0.8362,-1.3811,-0.6013,27.0000,13.3800,39.0000,
5.976702,2.1884,-3.4432,-2.5781,-0.8362,-1.3811,-0.6013,24.0000,13.5600,40.9200,
5.988621,2.1884,-3.4432,-2.5781,-0.8693,-0.7521,-0.6141,24.0000,13.5600,40.9200,
6.009178,2.1884,-3.4432,-2.5781,-0.5806,-0.8490,-0.7047,24.0000,13.5600,40.9200,
6.029590,2.1884,-3.4432,-2.5781,-0.6456,-0.3334,-0.9209,24.0000,13.5600,40.9200,
6.033848,2.1884,-3.4432,-2.5781,-0.6456,-0.3334,-0.9209,24.0000,13.5600,40.9200,
6.034130,1.3578,3.6962,-1.7751,-0.6456,-0.3334,-0.9209,24.0000,13.5600,40.9200,
6.038458,1.3578,3.6962,-1.7751,-0.6456,-0.3334,-0.9209,22.4400,13.2000,42.4800,
6.050093,1.3578,3.6962,-1.7751,-0.7755,0.2035,-1.0898,22.4400,13.2000,42.4800,
6.070679,1.3578,3.6962,-1.7751,-0.4575,0.3553,-1.0749,22.4400,13.2000,42.4800,
6.091163,1.3578,3.6962,-1.7751,0.0224,-0.1752,-0.8975,22.4400,13.2000,42.4800,
6.095468,1.3578,3.6962,-1.7751,0.0224,-0.1752,-0.8975,22.4400,13.2000,42.4800,
6.096011,-0.8856,0.1291,1.8534,0.0224,-0.1752,-0.8975,22.4400,13.2000,42.4800,
6.099778,-0.8856,0.1291,1.8534,0.0224,-0.1752,-0.8975,21.1200,12.7800,43.9200,
6.111761,-0.8856,0.1291,1.8534,0.7212,-1.0040,-0.6285,21.1200,12.7800,43.9200,
6.132321,-0.8856,0.1291,1.8534,1.5116,-1.5105,-0.4506,21.1200,12.7800,43.9200,
6.152824,-0.8856,0.1291,1.8534,1.2922,-0.3047,-0.5316,21.1200,12.7800,43.9200,
6.156930,-0.8856,0.1291,1.8534,1.2922,-0.3047,-0.5316,21.1200,12.7800,43.9200,
6.157233,2.1541,0.0761,-4.2103,1.2922,-0.3047,-0.5316,21.1200,12.7800,43.9200,
6.161652,2.1541,0.0761,-4.2103,1.2922,-0.3047,-0.5316,21.2400,12.6600,45.2400,
6.173205,2.1541,0.0761,-4.2103,0.6519,0.8820,-1.4685,21.2400,12.6600,45.2400,
6.193888,2.1541,0.0761,-4.2103,0.1593,0.7862,-2.0522,21.2400,12.6600,45.2400,
6.214340,2.1541,0.0761,-4.2103,-0.1012,0.2019,-2.1614,21.2400,12.6600,45.2400,
6.218585,2.1541,0.0761,-4.2103,-0.1012,0.2019,-2.1614,21.2400,12.6600,45.2400,
6.219061,0.6069,-0.5844,-1.3958,-0.1012,0.2019,-2.1614,21.2400,12.6600,45.2400,
6.223056,0.6069,-0.5844,-1.3958,-0.1012,0.2019,-2.1614,22.3800,13.3200,44.7000,
6.234925,0.6069,-0.5844,-1.3958,-0.0746,-0.1065,-2.0096,22.3800,13.3200,44.7000,
6.255332,0.6069,-0.5844,-1.3958,-0.0666,-0.1784,-1.6299,22.3800,13.3200,44.7000,
6.276029,0.6069,-0.5844,-1.3958,-0.3297,-0.4314,-0.9087,22.3800,13.3200,44.7000,
6.280100,0.6069,-0.5844,-1.3958,-0.3297,-0.4314,-0.9087,22.3800,13.3200,44.7000,
6.280359,-3.7834,-1.4717,-0.9447,-0.3297,-0.4314,-0.9087,22.3800,13.3200,44.7000,
6.284714,-3.7834,-1.4717,-0.9447,-0.3297,-0.4314,-0.9087,21.3000,14.7000,44.6400,
6.296581,-3.7834,-1.4717,-0.9447,-0.5092,-0.6056,-0.1017,21.3000,14.7000,44.6400,
6.317187,-3.7834,-1.4717,-0.9447,-0.2162,-0.3052,0.2493,21.3000,14.7000,44.6400,
6.337521,-3.7834,-1.4717,-0.9447,0.1305,0.0916,0.2743,21.3000,14.7000,44.6400,
6.341621,-3.7834,-1.4717,-0.9447,0.1305,0.0916,0.2743,21.3000,14.7000,44.6400,
6.341875,1.7802,0.8614,0.7449,0.1305,0.0916,0.2743,21.3000,14.7000,44.6400,
6.346261,1.7802,0.8614,0.7449,0.1305,0.0916,0.2743,20.4600,16.4400,44.5200,
6.358098,1.7802,0.8614,0.7449,0.0426,0.1518,0.3270,20.4600,16.4400,44.5200,
6.378566,1.7802,0.8614,0.7449,-0.0138,-0.1822,0.2061,20.4600,16.4400,44.5200,
6.399246,1.7802,0.8614,0.7449,0.0112,-0.1028,0.0495,20.4600,16.4400,44.5200,
6.403345,1.7802,0.8614,0.7449,0.0112,-0.1028,0.0495,20.4600,16.4400,44.5200,
6.403793,2.4062,-0.1301,0.0251,0.0112,-0.1028,0.0495,20.4600,16.4400,44.5200,
6.407761,2.4062,-0.1301,0.0251,0.0112,-0.1028,0.0495,19.0800,17.5200,43.9200,
6.419652,2.4062,-0.1301,0.0251,0.0357,0.5177,-0.0394,19.0800,17.5200,43.9200,
6.440276,2.4062,-0.1301,0.0251,0.0005,0.8687,-0.1289,19.0800,17.5200,43.9200,
6.460719,2.4062,-0.1301,0.0251,0.0043,0.5902,-0.2232,19.0800,17.5200,43.9200,
6.464995,2.4062,-0.1301,0.0251,0.0043,0.5902,-0.2232,19.0800,17.5200,43.9200,
6.465319,1.1503,-0.3585,0.6701,0.0043,0.5902,-0.2232,19.0800,17.5200,43.9200,
6.469644,1.1503,-0.3585,0.6701,0.0043,0.5902,-0.2232,17.7600,17.9400,44.2200,
6.481258,1.1503,-0.3585,0.6701,0.1039,0.1939,-0.3382,17.7600,17.9400,44.2200,
6.502236,1.1503,-0.3585,0.6701,0.0671,0.0266,-0.2999,17.7600,17.9400,44.2200,
6.522436,1.1503,-0.3585,0.6701,-0.0900,-0.0277,-0.0937,17.7600,17.9400,44.2200,
6.526758,1.1503,-0.3585,0.6701,-0.0900,-0.0277,-0.0937,17.7600,17.9400,44.2200,
6.527735,-1.2482,0.6597,-0.2302,-0.0900,-0.0277,-0.0937,17.7600,17.9400,44.2200,
6.531188,-1.2482,0.6597,-0.2302,-0.0900,-0.0277,-0.0937,17.6400,18.0600,43.9200,
6.544577,-1.2482,0.6597,-0.2302,-0.1736,-0.2120,-0.0352,17.6400,18.0600,43.9200,
6.563615,-1.2482,0.6597,-0.2302,-0.1854,-0.3009,-0.0527,17.6400,18.0600,43.9200,
6.584492,-1.2482,0.6597,-0.2302,-0.1214,-0.3004,-0.0021,17.6400,18.0600,43.9200,
6.588455,-1.2482,0.6597,-0.2302,-0.1214,-0.3004,-0.0021,17.6400,18.0600,43.9200,
6.588915,-0.5591,-0.5226,0.8413,-0.1214,-0.3004,-0.0021,17.6400,18.0600,43.9200,
6.593613,-0.5591,-0.5226,0.8413,-0.1214,-0.3004,-0.0021,17.7600,18.2400,43.9200,
6.604632,-0.5591,-0.5226,0.8413,-0.0250,-0.2376,0.1427,17.7600,18.2400,43.9200,
6.625076,-0.5591,-0.5226,0.8413,0.0202,-0.1550,0.2434,17.7600,18.2400,43.9200,
6.646746,-0.5591,-0.5226,0.8413,0.0000,-0.1353,0.2242,17.7600,18.2400,43.9200,
6.650284,-0.5591,-0.5226,0.8413,0.0000,-0.1353,0.2242,17.7600,18.2400,43.9200,
6.650706,1.0264,0.2645,-0.0393,0.0000,-0.1353,0.2242,17.7600,18.2400,43.9200,
6.655347,1.0264,0.2645,-0.0393,0.0000,-0.1353,0.2242,17.9400,18.3600,43.9200,
6.667393,1.0264,0.2645,-0.0393,0.0160,-0.0735,0.0623,17.9400,18.3600,43.9200,
6.687056,1.0264,0.2645,-0.0393,-0.0005,-0.0447,-0.1161,17.9400,18.3600,43.9200,
6.707701,1.0264,0.2645,-0.0393,-0.0884,-0.8794,-0.2083,17.9400,18.3600,43.9200,
6.711765,1.0264,0.2645,-0.0393,-0.0884,-0.8794,-0.2083,17.9400,18.3600,43.9200,
6.712402,0.0800,-0.3256,-0.1757,-0.0884,-0.8794,-0.2083,17.9400,18.3600,43.9200,
6.716650,0.0800,-0.3256,-0.1757,-0.0884,-0.8794,-0.2083,18.0600,18.6000,43.6200,
6.728962,0.0800,-0.3256,-0.1757,-0.1752,-1.3092,-0.3787,18.0600,18.6000,43.6200,
6.749605,0.0800,-0.3256,-0.1757,-0.1135,-1.4663,-0.3015,18.0600,18.6000,43.6200,
6.769333,0.0800,-0.3256,-0.1757,0.1726,-0.3553,0.0261,18.0600,18.6000,43.6200,
6.773592,0.0800,-0.3256,-0.1757,0.1726,-0.3553,0.0261,18.0600,18.6000,43.6200,
6.773876,-1.6541,-0.0386,-0.9458,0.1726,-0.3553,0.0261,18.0600,18.6000,43.6200,
6.778503,-1.6541,-0.0386,-0.9458,0.1726,-0.3553,0.0261,18.3600,18.7200,43.9800,
6.790800,-1.6541,-0.0386,-0.9458,0.3803,0.0826,0.2423,18.3600,18.7200,43.9800,
6.810523,-1.6541,-0.0386,-0.9458,0.2061,0.6040,0.5156,18.3600,18.7200,43.9800,
6.831497,-1.6541,-0.0386,-0.9458,-0.1688,0.3148,0.3878,18.3600,18.7200,43.9800,
6.836268,-1.6541,-0.0386,-0.9458,-0.1688,0.3148,0.3878,18.3600,18.7200,43.9800,
6.837181,1.0967,0.0828,-1.4624,-0.1688,0.3148,0.3878,18.3600,18.7200,43.9800,
6.840345,1.0967,0.0828,-1.4624,-0.1688,0.3148,0.3878,19.0200,18.8400,43.7400,
6.852003,1.0967,0.0828,-1.4624,-0.4501,-0.0394,-0.1294,19.0200,18.8400,43.7400,
6.871884,1.0967,0.0828,-1.4624,-0.3766,0.0458,-0.1944,19.0200,18.8400,43.7400,
6.893066,1.0967,0.0828,-1.4624,-0.3132,0.3340,-0.0320,19.0200,18.8400,43.7400,
6.896463,1.0967,0.0828,-1.4624,-0.3132,0.3340,-0.0320,19.0200,18.8400,43.7400,
6.896810,0.2465,0.6623,0.1555,-0.3132,0.3340,-0.0320,19.0200,18.8400,43.7400,
6.900890,0.2465,0.6623,0.1555,-0.3132,0.3340,-0.0320,19.7400,18.6000,43.3800,
6.913286,0.2465,0.6623,0.1555,0.1443,0.5444,-0.3004,19.7400,18.6000,43.3800,
6.933981,0.2465,0.6623,0.1555,0.1230,0.1108,-0.1694,19.7400,18.6000,43.3800,
6.954136,0.2465,0.6623,0.1555,-0.1182,-0.3867,0.1667,19.7400,18.6000,43.3800,
6.958404,0.2465,0.6623,0.1555,-0.1182,-0.3867,0.1667,19.7400,18.6000,43.3800,
6.959088,-2.1337,-1.3072,-0.9767,-0.1182,-0.3867,0.1667,19.7400,18.6000,43.3800,
6.962864,-2.1337,-1.3072,-0.9767,-0.1182,-0.3867,0.1667,19.9200,18.1800,43.2600,
6.974203,-2.1337,-1.3072,-0.9767,-0.0964,-0.1470,0.2317,19.9200,18.1800,43.2600,
6.995138,-2.1337,-1.3072,-0.9767,-0.0240,0.3531,0.3254,19.9200,18.1800,43.2600,
7.015446,-2.1337,-1.3072,-0.9767,-0.0240,0.7627,0.1012,19.9200,18.1800,43.2600,
7.019521,-2.1337,-1.3072,-0.9767,-0.0240,0.7627,0.1012,19.9200,18.1800,43.2600,
7.019758,-0.2078,0.3104,-1.4480,-0.0240,0.7627,0.1012,19.9200,18.1800,43.2600,
7.024028,-0.2078,0.3104,-1.4480,-0.0240,0.7627,0.1012,20.1000,17.9400,43.2600,
7.036702,-0.2078,0.3104,-1.4480,-0.2898,0.4895,-0.0064,20.1000,17.9400,43.2600,
7.056809,-0.2078,0.3104,-1.4480,-0.2397,0.0538,0.0889,20.1000,17.9400,43.2600,
7.077335,-0.2078,0.3104,-1.4480,-0.3979,-0.3846,0.1715,20.1000,17.9400,43.2600,
7.080868,-0.2078,0.3104,-1.4480,-0.3979,-0.3846,0.1715,20.1000,17.9400,43.2600,
7.081132,-1.1744,-0.7503,0.1269,-0.3979,-0.3846,0.1715,20.1000,17.9400,43.2600,
7.086043,-1.1744,-0.7503,0.1269,-0.3979,-0.3846,0.1715,19.7400,17.4000,44.0400,
7.097468,-1.1744,-0.7503,0.1269,-0.2466,-0.7776,0.0953,19.7400,17.4000,44.0400,
7.117915,-1.1744,-0.7503,0.1269,0.1800,-0.9422,0.0815,19.7400,17.4000,44.0400,
7.139076,-1.1744,-0.7503,0.1269,0.4804,-0.3201,0.3063,19.7400,17.4000,44.0400,
7.144922,-1.1744,-0.7503,0.1269,0.4804,-0.3201,0.3063,19.7400,17.4000,44.0400,
7.145836,0.3403,-0.1985,-0.3832,0.4804,-0.3201,0.3063,19.7400,17.4000,44.0400,
7.147706,0.3403,-0.1985,-0.3832,0.4804,-0.3201,0.3063,19.3200,17.2200,44.1600,
7.159983,0.3403,-0.1985,-0.3832,0.5033,0.5593,0.1150,19.3200,17.2200,44.1600,
7.180879,0.3403,-0.1985,-0.3832,0.2823,0.7180,-0.3526,19.3200,17.2200,44.1600,
7.200701,0.3403,-0.1985,-0.3832,-0.1433,0.6860,-0.4847,19.3200,17.2200,44.1600,
7.204727,0.3403,-0.1985,-0.3832,-0.1433,0.6860,-0.4847,19.3200,17.2200,44.1600,
7.205167,-0.6471,-0.4383,-1.6679,-0.1433,0.6860,-0.4847,19.3200,17.2200,44.1600,
7.209116,-0.6471,-0.4383,-1.6679,-0.1433,0.6860,-0.4847,19.5000,17.2800,44.1000,
7.220945,-0.6471,-0.4383,-1.6679,-0.2258,0.7079,-0.4266,19.5000,17.2800,44.1000,
7.241733,-0.6471,-0.4383,-1.6679,-0.1348,0.7313,-0.3174,19.5000,17.2800,44.1000,
7.262810,-0.6471,-0.4383,-1.6679,-0.4261,0.5683,-0.1257,19.5000,17.2800,44.1000,
7.266273,-0.6471,-0.4383,-1.6679,-0.4261,0.5683,-0.1257,19.5000,17.2800,44.1000,
7.266830,-1.3826,-0.6750,-1.1077,-0.4261,0.5683,-0.1257,19.5000,17.2800,44.1000,
7.270485,-1.3826,-0.6750,-1.1077,-0.4261,0.5683,-0.1257,19.6800,17.7000,43.6800,
7.282328,-1.3826,-0.6750,-1.1077,-0.3963,0.3851,-0.1161,19.6800,17.7000,43.6800,
7.303101,-1.3826,-0.6750,-1.1077,-0.1193,-0.2407,0.0037,19.6800,17.7000,43.6800,
7.323666,-1.3826,-0.6750,-1.1077,0.0969,-0.9614,0.0815,19.6800,17.7000,43.6800,
7.327649,-1.3826,-0.6750,-1.1077,0.0969,-0.9614,0.0815,19.6800,17.7000,43.6800,
7.328614,0.0286,-0.0681,2.0503,0.0969,-0.9614,0.0815,19.6800,17.7000,43.6800,
7.332975,0.0286,-0.0681,2.0503,0.0969,-0.9614,0.0815,19.3200,17.6400,43.3800,
7.345277,0.0286,-0.0681,2.0503,0.5023,-0.6701,0.0320,19.3200,17.6400,43.3800,
7.365363,0.0286,-0.0681,2.0503,0.6424,-0.3435,-0.1257,19.3200,17.6400,43.3800,
7.385445,0.0286,-0.0681,2.0503,0.4218,-0.3457,-0.1060,19.3200,17.6400,43.3800,
7.389331,0.0286,-0.0681,2.0503,0.4218,-0.3457,-0.1060,19.3200,17.6400,43.3800,
7.389661,-0.3333,-0.2997,-1.1616,0.4218,-0.3457,-0.1060,19.3200,17.6400,43.3800,
7.394121,-0.3333,-0.2997,-1.1616,0.4218,-0.3457,-0.1060,18.7800,17.5800,43.7400,
7.405986,-0.3333,-0.2997,-1.1616,0.1614,-0.4229,-0.1609,18.7800,17.5800,43.7400,
7.426413,-0.3333,-0.2997,-1.1616,0.0229,-0.3787,-0.3025,18.7800,17.5800,43.7400,
7.447346,-0.3333,-0.2997,-1.1616,-0.0607,-0.1917,-0.3446,18.7800,17.5800,43.7400,
7.451492,-0.3333,-0.2997,-1.1616,-0.0607,-0.1917,-0.3446,18.7800,17.5800,43.7400,
7.452587,-0.1655,0.0231,-0.8327,-0.0607,-0.1917,-0.3446,18.7800,17.5800,43.7400,
7.455787,-0.1655,0.0231,-0.8327,-0.0607,-0.1917,-0.3446,18.4200,17.7600,44.0400,
7.467475,-0.1655,0.0231,-0.8327,-0.1513,-0.0208,-0.2605,18.4200,17.7600,44.0400,
7.488284,-0.1655,0.0231,-0.8327,-0.2855,0.1502,-0.3670,18.4200,17.7600,44.0400,
7.508265,-0.1655,0.0231,-0.8327,-0.4868,0.1475,-0.3308,18.4200,17.7600,44.0400,
7.512799,-0.1655,0.0231,-0.8327,-0.4868,0.1475,-0.3308,18.4200,17.7600,44.0400,
7.513356,-2.1669,0.3946,-0.7397,-0.4868,0.1475,-0.3308,18.4200,17.7600,44.0400,
7.517141,-2.1669,0.3946,-0.7397,-0.4868,0.1475,-0.3308,18.5400,17.4600,44.5200,
7.528791,-2.1669,0.3946,-0.7397,-0.4075,-0.1284,0.0549,18.5400,17.4600,44.5200,
7.550172,-2.1669,0.3946,-0.7397,-0.1214,-0.0368,0.2333,18.5400,17.4600,44.5200,
7.570571,-2.1669,0.3946,-0.7397,0.1028,-0.6274,0.2828,18.5400,17.4600,44.5200,
7.574673,-2.1669,0.3946,-0.7397,0.1028,-0.6274,0.2828,18.5400,17.4600,44.5200,
7.575324,-0.6282,-0.8487,2.5345,0.1028,-0.6274,0.2828,18.5400,17.4600,44.5200,
7.579225,-0.6282,-0.8487,2.5345,0.1028,-0.6274,0.2828,18.8400,17.9400,44.4000,
7.590357,-0.6282,-0.8487,2.5345,0.3649,-1.2703,0.2791,18.8400,17.9400,44.4000,
7.611480,-0.6282,-0.8487,2.5345,0.5726,-1.1926,0.1459,18.8400,17.9400,44.4000,
7.631352,-0.6282,-0.8487,2.5345,0.5145,-0.6503,0.3036,18.8400,17.9400,44.4000,
7.635949,-0.6282,-0.8487,2.5345,0.5145,-0.6503,0.3036,18.8400,17.9400,44.4000,
7.636453,-0.1224,0.2468,-1.7947,0.5145,-0.6503,0.3036,18.8400,17.9400,44.4000,
7.640599,-0.1224,0.2468,-1.7947,0.5145,-0.6503,0.3036,19.5000,18.3000,44.2800,
7.653083,-0.1224,0.2468,-1.7947,0.3356,0.2871,0.3622,19.5000,18.3000,44.2800,
7.673431,-0.1224,0.2468,-1.7947,0.0607,0.7643,-0.1374,19.5000,18.3000,44.2800,
7.693799,-0.1224,0.2468,-1.7947,-0.4229,0.6019,-0.2498,19.5000,18.3000,44.2800,
7.697340,-0.1224,0.2468,-1.7947,-0.4229,0.6019,-0.2498,19.5000,18.3000,44.2800,
7.698094,-0.3012,-0.1734,-1.0242,-0.4229,0.6019,-0.2498,19.5000,18.3000,44.2800,
7.702508,-0.3012,-0.1734,-1.0242,-0.4229,0.6019,-0.2498,19.8000,18.3000,43.3800,
7.713544,-0.3012,-0.1734,-1.0242,-0.5097,0.4357,-0.0852,19.8000,18.3000,43.3800,
7.734203,-0.3012,-0.1734,-1.0242,-0.3393,0.0879,-0.0724,19.8000,18.3000,43.3800,
7.754972,-0.3012,-0.1734,-1.0242,0.0037,-0.0714,-0.1380,19.8000,18.3000,43.3800,
7.759051,-0.3012,-0.1734,-1.0242,0.0037,-0.0714,-0.1380,19.8000,18.3000,43.3800,
7.759522,0.3972,0.1704,1.8261,0.0037,-0.0714,-0.1380,19.8000,18.3000,43.3800,
7.763287,0.3972,0.1704,1.8261,0.0037,-0.0714,-0.1380,19.8600,18.3000,42.7200,
7.775629,0.3972,0.1704,1.8261,0.3201,0.6264,0.0394,19.8600,18.3000,42.7200,
7.796697,0.3972,0.1704,1.8261,0.5198,0.6456,-0.1113,19.8600,18.3000,42.7200,
7.817102,0.3972,0.1704,1.8261,0.2621,0.4953,0.1092,19.8600,18.3000,42.7200,
7.820936,0.3972,0.1704,1.8261,0.2621,0.4953,0.1092,19.8600,18.3000,42.7200,
7.821667,-0.5845,0.0259,-1.3140,0.2621,0.4953,0.1092,19.8600,18.3000,42.7200,
7.825433,-0.5845,0.0259,-1.3140,0.2621,0.4953,0.1092,20.1600,18.2400,42.5400,
7.836376,-0.5845,0.0259,-1.3140,0.1411,0.0767,-0.1236,20.1600,18.2400,42.5400,
7.857551,-0.5845,0.0259,-1.3140,0.1593,0.1145,0.0719,20.1600,18.2400,42.5400,
7.878734,-0.5845,0.0259,-1.3140,0.1422,0.1406,0.2349,20.1600,18.2400,42.5400,
7.882728,-0.5845,0.0259,-1.3140,0.1422,0.1406,0.2349,20.1600,18.2400,42.5400,
7.883632,0.9553,-0.6853,-0.1937,0.1422,0.1406,0.2349,20.1600,18.2400,42.5400,
7.887215,0.9553,-0.6853,-0.1937,0.1422,0.1406,0.2349,19.9800,18.5400,41.8800,
7.898336,0.9553,-0.6853,-0.1937,0.0852,0.3483,0.0149,19.9800,18.5400,41.8800,
7.918835,0.9553,-0.6853,-0.1937,0.0415,0.7462,-0.1694,19.9800,18.5400,41.8800,
7.939464,0.9553,-0.6853,-0.1937,-0.1241,0.8293,-0.1113,19.9800,18.5400,41.8800,
7.945102,0.9553,-0.6853,-0.1937,-0.1241,0.8293,-0.1113,19.9800,18.5400,41.8800,
7.945884,-0.6498,0.1542,-1.2190,-0.1241,0.8293,-0.1113,19.9800,18.5400,41.8800,
7.948153,-0.6498,0.1542,-1.2190,-0.1241,0.8293,-0.1113,19.4400,19.0800,42.6000,
7.961867,-0.6498,0.1542,-1.2190,-0.2413,0.4224,-0.1060,19.4400,19.0800,42.6000,
7.981411,-0.6498,0.1542,-1.2190,-0.1667,0.0916,-0.0586,19.4400,19.0800,42.6000,
8.001658,-0.6498,0.1542,-1.2190,-0.1182,0.0447,-0.0117,19.4400,19.0800,42.6000,
8.005791,-0.6498,0.1542,-1.2190,-0.1182,0.0447,-0.0117,19.4400,19.0800,42.6000,
8.006569,-0.5353,0.0936,0.4889,-0.1182,0.0447,-0.0117,19.4400,19.0800,42.6000,
8.014201,-0.5353,0.0936,0.4889,-0.1182,0.0447,-0.0117,18.8400,19.5000,43.3800,
8.022271,-0.5353,0.0936,0.4889,-0.0213,0.1113,-0.0458,18.8400,19.5000,43.3800,
8.043225,-0.5353,0.0936,0.4889,0.0293,0.1656,-0.0186,18.8400,19.5000,43.3800,
8.063452,-0.5353,0.0936,0.4889,-0.0075,0.0352,-0.0655,18.8400,19.5000,43.3800,
8.067382,-0.5353,0.0936,0.4889,-0.0075,0.0352,-0.0655,18.8400,19.5000,43.3800,
8.067685,0.1754,-0.4972,-0.0937,-0.0075,0.0352,-0.0655,18.8400,19.5000,43.3800,
8.071175,0.1754,-0.4972,-0.0937,-0.0075,0.0352,-0.0655,17.8800,19.7400,43.3800,
8.083529,0.1754,-0.4972,-0.0937,-0.0394,-0.0277,-0.1023,17.8800,19.7400,43.3800,
8.104233,0.1754,-0.4972,-0.0937,-0.0682,-0.0410,-0.0714,17.8800,19.7400,43.3800,
8.124455,0.1754,-0.4972,-0.0937,-0.0634,-0.0639,0.0005,17.8800,19.7400,43.3800,
8.128647,0.1754,-0.4972,-0.0937,-0.0634,-0.0639,0.0005,17.8800,19.7400,43.3800,
8.129094,-0.3721,0.0329,0.2736,-0.0634,-0.0639,0.0005,17.8800,19.7400,43.3800,
8.132600,-0.3721,0.0329,0.2736,-0.0634,-0.0639,0.0005,17.0400,19.6800,44.4600,
8.144934,-0.3721,0.0329,0.2736,-0.0362,-0.0154,0.0165,17.0400,19.6800,44.4600,
8.165438,-0.3721,0.0329,0.2736,-0.0186,-0.0154,0.0213,17.0400,19.6800,44.4600,
8.186280,-0.3721,0.0329,0.2736,-0.0394,-0.0740,-0.0197,17.0400,19.6800,44.4600,
8.190704,-0.3721,0.0329,0.2736,-0.0394,-0.0740,-0.0197,17.0400,19.6800,44.4600,
8.191550,0.3205,-0.1702,-0.0265,-0.0394,-0.0740,-0.0197,17.0400,19.6800,44.4600,
8.195775,0.3205,-0.1702,-0.0265,-0.0394,-0.0740,-0.0197,16.6800,19.0200,44.4000,
8.207063,0.3205,-0.1702,-0.0265,-0.0485,-0.0559,-0.0389,16.6800,19.0200,44.4000,
8.227764,0.3205,-0.1702,-0.0265,-0.0458,-0.0479,-0.0357,16.6800,19.0200,44.4000,
8.247238,0.3205,-0.1702,-0.0265,-0.0059,0.0368,-0.0202,16.6800,19.0200,44.4000,
8.252158,0.3205,-0.1702,-0.0265,-0.0059,0.0368,-0.0202,16.6800,19.0200,44.4000,
8.252787,0.1756,-0.1034,0.2656,-0.0059,0.0368,-0.0202,16.6800,19.0200,44.4000,
8.256767,0.1756,-0.1034,0.2656,-0.0059,0.0368,-0.0202,16.5600,18.7200,44.1600,
8.269098,0.1756,-0.1034,0.2656,0.1103,0.4501,-0.0288,16.5600,18.7200,44.1600,
8.288484,0.1756,-0.1034,0.2656,0.0511,0.4517,0.0570,16.5600,18.7200,44.1600,
8.313921,0.1756,-0.1034,0.2656,0.0581,0.4794,0.1816,16.5600,18.7200,44.1600,
8.314967,0.1756,-0.1034,0.2656,0.0581,0.4794,0.1816,16.5600,18.7200,44.1600,
8.315429,-0.1830,-0.1061,0.1217,0.0581,0.4794,0.1816,16.5600,18.7200,44.1600,
8.320828,-0.1830,-0.1061,0.1217,0.0581,0.4794,0.1816,16.2600,18.3600,44.8200,
8.329150,-0.1830,-0.1061,0.1217,-0.0458,0.0447,0.0879,16.2600,18.3600,44.8200,
8.349862,-0.1830,-0.1061,0.1217,-0.2173,-0.8107,-0.2392,16.2600,18.3600,44.8200,
