
time,ax,ay,az,wx,wy,wz,Bx,By,Bz,
0.024330,0.0000,0.0000,0.0000,0.0000,0.0000,0.0000,33.1200,-22.0800,-18.3600,
0.025780,0.0000,0.0000,0.0000,0.0224,0.1177,-0.0719,33.1200,-22.0800,-18.3600,
0.033978,0.0000,0.0000,0.0000,0.0224,0.1177,-0.0719,33.1200,-22.0800,-18.3600,
0.046199,0.0000,0.0000,0.0000,0.0224,0.1177,-0.0719,33.1200,-22.0800,-18.3600,
0.066966,0.0000,0.0000,0.0000,0.0224,0.1177,-0.0719,33.1200,-22.0800,-18.3600,
0.083988,0.0000,0.0000,0.0000,0.0224,0.1177,-0.0719,26.8200,-12.4800,13.0800,
0.087216,0.0000,0.0000,0.0000,0.0336,0.1758,-0.0506,26.8200,-12.4800,13.0800,
0.095006,0.0000,0.0000,0.0000,0.0336,0.1758,-0.0506,26.8200,-12.4800,13.0800,
0.095628,0.0306,0.0232,-0.0028,0.0336,0.1758,-0.0506,26.8200,-12.4800,13.0800,
0.107786,0.0306,0.0232,-0.0028,0.0618,0.2322,-0.0708,26.8200,-12.4800,13.0800,
0.129832,0.0306,0.0232,-0.0028,0.0650,0.2834,-0.0767,26.8200,-12.4800,13.0800,
0.145789,0.0306,0.0232,-0.0028,0.0650,0.2834,-0.0767,23.7600,-7.4400,28.0200,
0.149059,0.0306,0.0232,-0.0028,0.0634,0.3798,-0.0533,23.7600,-7.4400,28.0200,
0.157436,0.0306,0.0232,-0.0028,0.0634,0.3798,-0.0533,23.7600,-7.4400,28.0200,
0.158037,-0.0674,0.0854,-0.0144,0.0634,0.3798,-0.0533,23.7600,-7.4400,28.0200,
0.170087,-0.0674,0.0854,-0.0144,0.0154,0.3654,-0.0788,23.7600,-7.4400,28.0200,
0.190094,-0.0674,0.0854,-0.0144,-0.0309,0.3462,-0.0943,23.7600,-7.4400,28.0200,
0.206834,-0.0674,0.0854,-0.0144,-0.0309,0.3462,-0.0943,20.4000,-2.0400,43.5600,
0.211501,-0.0674,0.0854,-0.0144,-0.0783,0.3159,-0.1614,20.4000,-2.0400,43.5600,
0.218687,-0.0674,0.0854,-0.0144,-0.0783,0.3159,-0.1614,20.4000,-2.0400,43.5600,
0.219316,-0.1514,0.0384,-0.0633,-0.0783,0.3159,-0.1614,20.4000,-2.0400,43.5600,
0.231881,-0.1514,0.0384,-0.0633,-0.3968,0.3531,-0.4682,20.4000,-2.0400,43.5600,
0.251417,-0.1514,0.0384,-0.0633,-0.5918,1.0823,-0.2445,20.4000,-2.0400,43.5600,
0.268683,-0.1514,0.0384,-0.0633,-0.5918,1.0823,-0.2445,20.0400,-1.9800,43.8600,
0.272074,-0.1514,0.0384,-0.0633,-0.4416,0.4671,-0.0479,20.0400,-1.9800,43.8600,
0.280683,-0.1514,0.0384,-0.0633,-0.4416,0.4671,-0.0479,20.0400,-1.9800,43.8600,
0.281360,-0.2160,1.0412,-0.2866,-0.4416,0.4671,-0.0479,20.0400,-1.9800,43.8600,
0.292946,-0.2160,1.0412,-0.2866,-0.2519,0.2908,0.2461,20.0400,-1.9800,43.8600,
0.313139,-0.2160,1.0412,-0.2866,0.1822,0.4282,0.4442,20.0400,-1.9800,43.8600,
0.330001,-0.2160,1.0412,-0.2866,0.1822,0.4282,0.4442,18.7800,-2.2800,44.1600,
0.333766,-0.2160,1.0412,-0.2866,0.6013,0.6642,0.3270,18.7800,-2.2800,44.1600,
0.341922,-0.2160,1.0412,-0.2866,0.6013,0.6642,0.3270,18.7800,-2.2800,44.1600,
0.342570,1.1718,-1.1044,-0.1623,0.6013,0.6642,0.3270,18.7800,-2.2800,44.1600,
0.354131,1.1718,-1.1044,-0.1623,0.4575,-0.0138,0.1012,18.7800,-2.2800,44.1600,
0.374670,1.1718,-1.1044,-0.1623,0.3404,-0.1166,0.1358,18.7800,-2.2800,44.1600,
0.391607,1.1718,-1.1044,-0.1623,0.3404,-0.1166,0.1358,17.5800,-2.7000,45.0600,
0.395243,1.1718,-1.1044,-0.1623,0.3984,0.0043,0.2748,17.5800,-2.7000,45.0600,
0.404687,1.1718,-1.1044,-0.1623,0.3984,0.0043,0.2748,17.5800,-2.7000,45.0600,
0.405378,0.2372,-1.1095,-0.6888,0.3984,0.0043,0.2748,17.5800,-2.7000,45.0600,
0.415940,0.2372,-1.1095,-0.6888,0.2168,0.1071,0.3361,17.5800,-2.7000,45.0600,
0.436095,0.2372,-1.1095,-0.6888,-0.3201,0.0282,0.0154,17.5800,-2.7000,45.0600,
0.453411,0.2372,-1.1095,-0.6888,-0.3201,0.0282,0.0154,16.5600,-3.0000,45.5400,
0.456756,0.2372,-1.1095,-0.6888,-0.5209,-0.1156,-0.2338,16.5600,-3.0000,45.5400,
0.465296,0.2372,-1.1095,-0.6888,-0.5209,-0.1156,-0.2338,16.5600,-3.0000,45.5400,
0.465957,0.8445,-2.3499,0.1676,-0.5209,-0.1156,-0.2338,16.5600,-3.0000,45.5400,
0.477068,0.8445,-2.3499,0.1676,-0.3712,-0.2301,-0.0357,16.5600,-3.0000,45.5400,
0.497849,0.8445,-2.3499,0.1676,-0.4623,-0.2482,0.1822,16.5600,-3.0000,45.5400,
0.514914,0.8445,-2.3499,0.1676,-0.4623,-0.2482,0.1822,15.9000,-3.6000,45.1200,
0.517891,0.8445,-2.3499,0.1676,-0.6274,-0.4266,0.1220,15.9000,-3.6000,45.1200,
0.526813,0.8445,-2.3499,0.1676,-0.6274,-0.4266,0.1220,15.9000,-3.6000,45.1200,
0.527655,1.3975,-2.5394,-0.5523,-0.6274,-0.4266,0.1220,15.9000,-3.6000,45.1200,
0.540853,1.3975,-2.5394,-0.5523,-0.6732,-0.4314,0.0490,15.9000,-3.6000,45.1200,
0.559366,1.3975,-2.5394,-0.5523,-0.5044,-0.2908,0.0868,15.9000,-3.6000,45.1200,
0.576581,1.3975,-2.5394,-0.5523,-0.5044,-0.2908,0.0868,15.9000,-3.8400,45.6600,
0.579883,1.3975,-2.5394,-0.5523,-0.3084,-0.3132,0.0858,15.9000,-3.8400,45.6600,
0.587795,1.3975,-2.5394,-0.5523,-0.3084,-0.3132,0.0858,15.9000,-3.8400,45.6600,
0.588983,1.8304,-3.1251,0.6395,-0.3084,-0.3132,0.0858,15.9000,-3.8400,45.6600,
0.600088,1.8304,-3.1251,0.6395,-0.3233,-0.4059,0.3899,15.9000,-3.8400,45.6600,
0.620886,1.8304,-3.1251,0.6395,-1.0818,-0.9294,1.2655,15.9000,-3.8400,45.6600,
0.638753,1.8304,-3.1251,0.6395,-1.0818,-0.9294,1.2655,16.5600,-4.6800,44.8800,
0.642321,1.8304,-3.1251,0.6395,-0.9545,-0.6615,2.0608,16.5600,-4.6800,44.8800,
0.650385,1.8304,-3.1251,0.6395,-0.9545,-0.6615,2.0608,16.5600,-4.6800,44.8800,
0.651228,1.1466,-0.5889,0.2455,-0.9545,-0.6615,2.0608,16.5600,-4.6800,44.8800,
0.662344,1.1466,-0.5889,0.2455,-0.1646,0.0154,2.5497,16.5600,-4.6800,44.8800,
0.683733,1.1466,-0.5889,0.2455,0.5736,0.1417,2.8490,16.5600,-4.6800,44.8800,
0.700461,1.1466,-0.5889,0.2455,0.5736,0.1417,2.8490,17.4600,-6.5400,44.5200,
0.704666,1.1466,-0.5889,0.2455,1.1579,0.1758,2.5881,17.4600,-6.5400,44.5200,
0.712439,1.1466,-0.5889,0.2455,1.1579,0.1758,2.5881,17.4600,-6.5400,44.5200,
0.713521,-0.0975,-0.5976,0.3308,1.1579,0.1758,2.5881,17.4600,-6.5400,44.5200,
0.723620,-0.0975,-0.5976,0.3308,1.2506,0.2642,2.0874,17.4600,-6.5400,44.5200,
0.745775,-0.0975,-0.5976,0.3308,0.7425,0.2812,1.4839,17.4600,-6.5400,44.5200,
0.761072,-0.0975,-0.5976,0.3308,0.7425,0.2812,1.4839,17.6400,-8.2800,44.4000,
0.763911,-0.0975,-0.5976,0.3308,-0.0154,0.1848,1.0184,17.6400,-8.2800,44.4000,
0.772829,-0.0975,-0.5976,0.3308,-0.0154,0.1848,1.0184,17.6400,-8.2800,44.4000,
0.773991,0.0087,-0.4083,-1.0959,-0.0154,0.1848,1.0184,17.6400,-8.2800,44.4000,
0.785425,0.0087,-0.4083,-1.0959,-0.2578,0.1433,0.7537,17.6400,-8.2800,44.4000,
0.805921,0.0087,-0.4083,-1.0959,-0.1273,0.0708,0.3286,17.6400,-8.2800,44.4000,
0.822606,0.0087,-0.4083,-1.0959,-0.1273,0.0708,0.3286,17.4000,-10.3800,43.5600,
0.826081,0.0087,-0.4083,-1.0959,0.0613,-0.0426,-0.0314,17.4000,-10.3800,43.5600,
0.834156,0.0087,-0.4083,-1.0959,0.0613,-0.0426,-0.0314,17.4000,-10.3800,43.5600,
0.835181,0.1566,-1.3615,-0.1832,0.0613,-0.0426,-0.0314,17.4000,-10.3800,43.5600,
0.848792,0.1566,-1.3615,-0.1832,0.0724,0.0149,-0.0096,17.4000,-10.3800,43.5600,
0.867410,0.1566,-1.3615,-0.1832,0.0005,0.0256,-0.0117,17.4000,-10.3800,43.5600,
0.884050,0.1566,-1.3615,-0.1832,0.0005,0.0256,-0.0117,16.9800,-12.0000,43.3800,
0.887546,0.1566,-1.3615,-0.1832,-0.0075,0.0213,-0.0005,16.9800,-12.0000,43.3800,
0.895920,0.1566,-1.3615,-0.1832,-0.0075,0.0213,-0.0005,16.9800,-12.0000,43.3800,
0.897098,-0.2189,0.2683,0.0579,-0.0075,0.0213,-0.0005,16.9800,-12.0000,43.3800,
0.908161,-0.2189,0.2683,0.0579,0.0341,-0.0410,0.0069,16.9800,-12.0000,43.3800,
0.928748,-0.2189,0.2683,0.0579,0.0421,-0.0309,0.0091,16.9800,-12.0000,43.3800,
0.945856,-0.2189,0.2683,0.0579,0.0421,-0.0309,0.0091,15.9600,-12.5400,43.0800,
0.949213,-0.2189,0.2683,0.0579,0.0144,-0.0027,0.0064,15.9600,-12.5400,43.0800,
0.957824,-0.2189,0.2683,0.0579,0.0144,-0.0027,0.0064,15.9600,-12.5400,43.0800,
0.958797,0.0827,0.1621,-0.0477,0.0144,-0.0027,0.0064,15.9600,-12.5400,43.0800,
0.970094,0.0827,0.1621,-0.0477,-0.0107,0.0048,0.0043,15.9600,-12.5400,43.0800,
0.990849,0.0827,0.1621,-0.0477,-0.0218,-0.0059,-0.0085,15.9600,-12.5400,43.0800,
1.007524,0.0827,0.1621,-0.0477,-0.0218,-0.0059,-0.0085,15.4800,-12.6600,43.3200,
1.011202,0.0827,0.1621,-0.0477,-0.0128,-0.0154,-0.0234,15.4800,-12.6600,43.3200,
1.019721,0.0827,0.1621,-0.0477,-0.0128,-0.0154,-0.0234,15.4800,-12.6600,43.3200,
1.021065,-0.0124,-0.0472,0.0836,-0.0128,-0.0154,-0.0234,15.4800,-12.6600,43.3200,
1.031394,-0.0124,-0.0472,0.0836,0.0000,-0.0378,-0.0272,15.4800,-12.6600,43.3200,
1.052692,-0.0124,-0.0472,0.0836,0.0016,-0.0059,-0.0266,15.4800,-12.6600,43.3200,
1.069435,-0.0124,-0.0472,0.0836,0.0016,-0.0059,-0.0266,15.4200,-12.6600,43.2000,
1.072619,-0.0124,-0.0472,0.0836,0.0016,-0.0096,-0.0075,15.4200,-12.6600,43.2000,
1.080626,-0.0124,-0.0472,0.0836,0.0016,-0.0096,-0.0075,15.4200,-12.6600,43.2000,
1.081685,-0.0885,0.2119,0.0040,0.0016,-0.0096,-0.0075,15.4200,-12.6600,43.2000,
1.093099,-0.0885,0.2119,0.0040,0.0096,-0.0059,0.0096,15.4200,-12.6600,43.2000,
1.113551,-0.0885,0.2119,0.0040,-0.0080,-0.0394,-0.0005,15.4200,-12.6600,43.2000,
1.130238,-0.0885,0.2119,0.0040,-0.0080,-0.0394,-0.0005,15.2400,-12.2400,43.3200,
1.134600,-0.0885,0.2119,0.0040,0.0112,-0.0037,-0.0048,15.2400,-12.2400,43.3200,
1.142340,-0.0885,0.2119,0.0040,0.0112,-0.0037,-0.0048,15.2400,-12.2400,43.3200,
1.143182,-0.0686,0.1445,0.0539,0.0112,-0.0037,-0.0048,15.2400,-12.2400,43.3200,
1.155571,-0.0686,0.1445,0.0539,0.0075,-0.0240,-0.0091,15.2400,-12.2400,43.3200,
1.175442,-0.0686,0.1445,0.0539,-0.0101,-0.0128,-0.0021,15.2400,-12.2400,43.3200,
1.192152,-0.0686,0.1445,0.0539,-0.0101,-0.0128,-0.0021,15.7200,-12.1200,43.7400,
1.195739,-0.0686,0.1445,0.0539,-0.0208,-0.0298,0.0165,15.7200,-12.1200,43.7400,
1.203509,-0.0686,0.1445,0.0539,-0.0208,-0.0298,0.0165,15.7200,-12.1200,43.7400,
1.204060,-0.0352,0.1718,-0.0833,-0.0208,-0.0298,0.0165,15.7200,-12.1200,43.7400,
1.216159,-0.0352,0.1718,-0.0833,-0.0075,-0.0053,0.0288,15.7200,-12.1200,43.7400,
1.238466,-0.0352,0.1718,-0.0833,0.0011,0.0048,0.0298,15.7200,-12.1200,43.7400,
1.253825,-0.0352,0.1718,-0.0833,0.0011,0.0048,0.0298,15.7200,-12.4200,43.5000,
1.257562,-0.0352,0.1718,-0.0833,-0.0069,-0.0005,0.0213,15.7200,-12.4200,43.5000,
1.265959,-0.0352,0.1718,-0.0833,-0.0069,-0.0005,0.0213,15.7200,-12.4200,43.5000,
1.266946,-0.0544,-0.0679,-0.0657,-0.0069,-0.0005,0.0213,15.7200,-12.4200,43.5000,
1.278439,-0.0544,-0.0679,-0.0657,-0.0096,0.0032,0.0149,15.7200,-12.4200,43.5000,
1.298002,-0.0544,-0.0679,-0.0657,-0.0032,-0.0011,0.0069,15.7200,-12.4200,43.5000,
1.315115,-0.0544,-0.0679,-0.0657,-0.0032,-0.0011,0.0069,15.7800,-12.5400,43.8600,
1.318499,-0.0544,-0.0679,-0.0657,-0.0037,-0.0021,0.0043,15.7800,-12.5400,43.8600,
1.326556,-0.0544,-0.0679,-0.0657,-0.0037,-0.0021,0.0043,15.7800,-12.5400,43.8600,
1.327627,0.0025,0.0166,-0.0261,-0.0037,-0.0021,0.0043,15.7800,-12.5400,43.8600,
1.339129,0.0025,0.0166,-0.0261,-0.0144,0.0218,0.0091,15.7800,-12.5400,43.8600,
1.360037,0.0025,0.0166,-0.0261,-0.0053,0.0346,0.0075,15.7800,-12.5400,43.8600,
1.377065,0.0025,0.0166,-0.0261,-0.0053,0.0346,0.0075,15.7200,-12.7200,44.4000,
1.380010,0.0025,0.0166,-0.0261,0.0117,0.0437,0.0080,15.7200,-12.7200,44.4000,
1.388517,0.0025,0.0166,-0.0261,0.0117,0.0437,0.0080,15.7200,-12.7200,44.4000,
1.389602,0.0062,-0.0144,-0.0645,0.0117,0.0437,0.0080,15.7200,-12.7200,44.4000,
1.400841,0.0062,-0.0144,-0.0645,0.0064,0.0495,0.0059,15.7200,-12.7200,44.4000,
1.420658,0.0062,-0.0144,-0.0645,0.0005,0.0426,0.0112,15.7200,-12.7200,44.4000,
1.437906,0.0062,-0.0144,-0.0645,0.0005,0.0426,0.0112,15.7200,-12.5400,44.5200,
1.441626,0.0062,-0.0144,-0.0645,-0.0011,0.0501,0.0234,15.7200,-12.5400,44.5200,
1.450145,0.0062,-0.0144,-0.0645,-0.0011,0.0501,0.0234,15.7200,-12.5400,44.5200,
1.450787,-0.1008,0.0508,0.0879,-0.0011,0.0501,0.0234,15.7200,-12.5400,44.5200,
1.461965,-0.1008,0.0508,0.0879,0.0069,0.0623,0.0346,15.7200,-12.5400,44.5200,
1.482599,-0.1008,0.0508,0.0879,0.0277,-0.0112,0.0304,15.7200,-12.5400,44.5200,
1.500036,-0.1008,0.0508,0.0879,0.0277,-0.0112,0.0304,15.9600,-12.2400,44.1600,
1.503214,-0.1008,0.0508,0.0879,0.0378,-0.0213,0.0378,15.9600,-12.2400,44.1600,
1.512514,-0.1008,0.0508,0.0879,0.0378,-0.0213,0.0378,15.9600,-12.2400,44.1600,
1.513558,0.1318,-0.0351,-0.0770,0.0378,-0.0213,0.0378,15.9600,-12.2400,44.1600,
1.523998,0.1318,-0.0351,-0.0770,0.0149,-0.0229,0.0346,15.9600,-12.2400,44.1600,
1.545039,0.1318,-0.0351,-0.0770,0.0101,-0.0154,0.0282,15.9600,-12.2400,44.1600,
1.562656,0.1318,-0.0351,-0.0770,0.0101,-0.0154,0.0282,16.0800,-11.7600,44.1600,
1.566218,0.1318,-0.0351,-0.0770,0.0453,-0.0261,0.0362,16.0800,-11.7600,44.1600,
1.573023,0.1318,-0.0351,-0.0770,0.0453,-0.0261,0.0362,16.0800,-11.7600,44.1600,
1.574090,-0.0202,-0.1132,0.0406,0.0453,-0.0261,0.0362,16.0800,-11.7600,44.1600,
1.585253,-0.0202,-0.1132,0.0406,0.0565,-0.0133,0.0405,16.0800,-11.7600,44.1600,
1.605770,-0.0202,-0.1132,0.0406,0.0671,-0.0336,0.0421,16.0800,-11.7600,44.1600,
1.623420,-0.0202,-0.1132,0.0406,0.0671,-0.0336,0.0421,16.2000,-12.1200,44.0400,
1.626567,-0.0202,-0.1132,0.0406,0.0517,-0.0415,0.0362,16.2000,-12.1200,44.0400,
1.634959,-0.0202,-0.1132,0.0406,0.0517,-0.0415,0.0362,16.2000,-12.1200,44.0400,
1.636004,0.0038,-0.0471,-0.0545,0.0517,-0.0415,0.0362,16.2000,-12.1200,44.0400,
1.646828,0.0038,-0.0471,-0.0545,0.0378,-0.0357,0.0298,16.2000,-12.1200,44.0400,
1.668081,0.0038,-0.0471,-0.0545,0.0234,-0.0101,0.0368,16.2000,-12.1200,44.0400,
1.684665,0.0038,-0.0471,-0.0545,0.0234,-0.0101,0.0368,15.7800,-12.3000,43.9800,
1.687852,0.0038,-0.0471,-0.0545,0.0383,-0.0341,0.0410,15.7800,-12.3000,43.9800,
1.696142,0.0038,-0.0471,-0.0545,0.0383,-0.0341,0.0410,15.7800,-12.3000,43.9800,
1.697328,-0.0083,-0.0384,0.0377,0.0383,-0.0341,0.0410,15.7800,-12.3000,43.9800,
1.708321,-0.0083,-0.0384,0.0377,0.0415,-0.0383,0.0453,15.7800,-12.3000,43.9800,
1.728979,-0.0083,-0.0384,0.0377,0.0186,-0.0325,0.0442,15.7800,-12.3000,43.9800,
1.745843,-0.0083,-0.0384,0.0377,0.0186,-0.0325,0.0442,15.6000,-12.0600,44.5200,
1.749788,-0.0083,-0.0384,0.0377,0.0128,-0.0431,0.0431,15.6000,-12.0600,44.5200,
1.758483,-0.0083,-0.0384,0.0377,0.0128,-0.0431,0.0431,15.6000,-12.0600,44.5200,
1.759495,-0.0699,-0.2427,0.0707,0.0128,-0.0431,0.0431,15.6000,-12.0600,44.5200,
1.770078,-0.0699,-0.2427,0.0707,0.0405,-0.0453,0.0490,15.6000,-12.0600,44.5200,
1.790385,-0.0699,-0.2427,0.0707,0.0543,-0.0533,0.0586,15.6000,-12.0600,44.5200,
1.807325,-0.0699,-0.2427,0.0707,0.0543,-0.0533,0.0586,15.1800,-12.4200,43.9200,
1.811719,-0.0699,-0.2427,0.0707,0.0383,-0.0304,0.0714,15.1800,-12.4200,43.9200,
1.819634,-0.0699,-0.2427,0.0707,0.0383,-0.0304,0.0714,15.1800,-12.4200,43.9200,
1.820720,-0.1270,-0.0278,-0.0452,0.0383,-0.0304,0.0714,15.1800,-12.4200,43.9200,
1.831717,-0.1270,-0.0278,-0.0452,0.0336,-0.0405,0.0804,15.1800,-12.4200,43.9200,
1.852169,-0.1270,-0.0278,-0.0452,0.0410,-0.0309,0.0895,15.1800,-12.4200,43.9200,
1.870192,-0.1270,-0.0278,-0.0452,0.0410,-0.0309,0.0895,15.4800,-12.2400,43.5600,
1.872558,-0.1270,-0.0278,-0.0452,0.0671,-0.0373,0.0953,15.4800,-12.2400,43.5600,
1.881216,-0.1270,-0.0278,-0.0452,0.0671,-0.0373,0.0953,15.4800,-12.2400,43.5600,
1.882287,0.0730,-0.0469,0.0008,0.0671,-0.0373,0.0953,15.4800,-12.2400,43.5600,
1.893569,0.0730,-0.0469,0.0008,0.0826,-0.0346,0.1065,15.4800,-12.2400,43.5600,
1.913824,0.0730,-0.0469,0.0008,0.0650,-0.0373,0.1129,15.4800,-12.2400,43.5600,
1.930444,0.0730,-0.0469,0.0008,0.0650,-0.0373,0.1129,15.6000,-12.3600,43.9200,
1.933859,0.0730,-0.0469,0.0008,0.0602,-0.0383,0.1214,15.6000,-12.3600,43.9200,
1.942359,0.0730,-0.0469,0.0008,0.0602,-0.0383,0.1214,15.6000,-12.3600,43.9200,
1.943321,-0.0831,-0.0239,0.0348,0.0602,-0.0383,0.1214,15.6000,-12.3600,43.9200,
1.954477,-0.0831,-0.0239,0.0348,0.0724,-0.0314,0.1358,15.6000,-12.3600,43.9200,
1.975691,-0.0831,-0.0239,0.0348,0.0746,-0.0277,0.1454,15.6000,-12.3600,43.9200,
1.992196,-0.0831,-0.0239,0.0348,0.0746,-0.0277,0.1454,15.7200,-12.7200,43.7400,
1.995326,-0.0831,-0.0239,0.0348,0.0735,-0.0154,0.1401,15.7200,-12.7200,43.7400,
2.004271,-0.0831,-0.0239,0.0348,0.0735,-0.0154,0.1401,15.7200,-12.7200,43.7400,
2.005378,0.0174,-0.1105,-0.0642,0.0735,-0.0154,0.1401,15.7200,-12.7200,43.7400,
2.016613,0.0174,-0.1105,-0.0642,0.0804,-0.0123,0.1390,15.7200,-12.7200,43.7400,
2.037043,0.0174,-0.1105,-0.0642,0.0799,-0.0607,0.1395,15.7200,-12.7200,43.7400,
2.053851,0.0174,-0.1105,-0.0642,0.0799,-0.0607,0.1395,15.8400,-12.4800,43.8600,
2.057838,0.0174,-0.1105,-0.0642,0.0708,-0.0639,0.1380,15.8400,-12.4800,43.8600,
2.065557,0.0174,-0.1105,-0.0642,0.0708,-0.0639,0.1380,15.8400,-12.4800,43.8600,
2.066703,0.1144,0.0164,-0.2150,0.0708,-0.0639,0.1380,15.8400,-12.4800,43.8600,
2.080971,0.1144,0.0164,-0.2150,0.0373,-0.0916,0.1268,15.8400,-12.4800,43.8600,
2.098316,0.1144,0.0164,-0.2150,0.0186,-0.0719,0.1166,15.8400,-12.4800,43.8600,
2.115767,0.1144,0.0164,-0.2150,0.0186,-0.0719,0.1166,15.6000,-12.5400,44.0400,
2.118869,0.1144,0.0164,-0.2150,0.0059,-0.1108,0.1284,15.6000,-12.5400,44.0400,
2.128504,0.1144,0.0164,-0.2150,0.0059,-0.1108,0.1284,15.6000,-12.5400,44.0400,
2.129600,-0.0651,-0.0096,-0.0152,0.0059,-0.1108,0.1284,15.6000,-12.5400,44.0400,
2.139480,-0.0651,-0.0096,-0.0152,0.0048,-0.1156,0.1491,15.6000,-12.5400,44.0400,
2.160668,-0.0651,-0.0096,-0.0152,0.0107,-0.1007,0.1656,15.6000,-12.5400,44.0400,
2.176816,-0.0651,-0.0096,-0.0152,0.0107,-0.1007,0.1656,15.6000,-12.1200,43.9200,
2.180236,-0.0651,-0.0096,-0.0152,-0.0085,-0.1401,0.1848,15.6000,-12.1200,43.9200,
2.188812,-0.0651,-0.0096,-0.0152,-0.0085,-0.1401,0.1848,15.6000,-12.1200,43.9200,
2.189795,-0.1207,0.1732,0.0128,-0.0085,-0.1401,0.1848,15.6000,-12.1200,43.9200,
2.201064,-0.1207,0.1732,0.0128,-0.0128,-0.1582,0.2253,15.6000,-12.1200,43.9200,
2.221441,-0.1207,0.1732,0.0128,0.0037,-0.1427,0.2786,15.6000,-12.1200,43.9200,
2.238323,-0.1207,0.1732,0.0128,0.0037,-0.1427,0.2786,15.7200,-12.1200,44.0400,
2.241856,-0.1207,0.1732,0.0128,0.0490,-0.1465,0.3041,15.7200,-12.1200,44.0400,
2.250228,-0.1207,0.1732,0.0128,0.0490,-0.1465,0.3041,15.7200,-12.1200,44.0400,
2.251137,-0.1692,0.0041,0.2273,0.0490,-0.1465,0.3041,15.7200,-12.1200,44.0400,
2.262862,-0.1692,0.0041,0.2273,0.0874,-0.1912,0.3265,15.7200,-12.1200,44.0400,
2.283961,-0.1692,0.0041,0.2273,0.1156,-0.1699,0.3366,15.7200,-12.1200,44.0400,
2.299845,-0.1692,0.0041,0.2273,0.1156,-0.1699,0.3366,15.9000,-12.3600,44.2800,
2.303510,-0.1692,0.0041,0.2273,0.1262,-0.1838,0.3659,15.9000,-12.3600,44.2800,
2.312166,-0.1692,0.0041,0.2273,0.1262,-0.1838,0.3659,15.9000,-12.3600,44.2800,
2.313279,-0.2027,0.1879,0.3748,0.1262,-0.1838,0.3659,15.9000,-12.3600,44.2800,
2.323980,-0.2027,0.1879,0.3748,0.1609,-0.2690,0.4101,15.9000,-12.3600,44.2800,
2.345369,-0.2027,0.1879,0.3748,0.1561,-0.3164,0.4016,15.9000,-12.3600,44.2800,
2.362204,-0.2027,0.1879,0.3748,0.1561,-0.3164,0.4016,15.9000,-12.0600,43.5600,
2.365433,-0.2027,0.1879,0.3748,0.0889,-0.2562,0.4213,15.9000,-12.0600,43.5600,
2.373801,-0.2027,0.1879,0.3748,0.0889,-0.2562,0.4213,15.9000,-12.0600,43.5600,
2.374762,-0.0269,0.3387,-0.0676,0.0889,-0.2562,0.4213,15.9000,-12.0600,43.5600,
2.387049,-0.0269,0.3387,-0.0676,0.1124,-0.1406,0.4075,15.9000,-12.0600,43.5600,
2.406126,-0.0269,0.3387,-0.0676,0.1625,-0.1103,0.3910,15.9000,-12.0600,43.5600,
2.422912,-0.0269,0.3387,-0.0676,0.1625,-0.1103,0.3910,16.2600,-12.3600,43.2600,
2.426963,-0.0269,0.3387,-0.0676,0.1300,-0.0767,0.3467,16.2600,-12.3600,43.2600,
2.434913,-0.0269,0.3387,-0.0676,0.1300,-0.0767,0.3467,16.2600,-12.3600,43.2600,
2.436005,0.1021,-0.1166,-0.4532,0.1300,-0.0767,0.3467,16.2600,-12.3600,43.2600,
2.447063,0.1021,-0.1166,-0.4532,0.0895,-0.0383,0.3238,16.2600,-12.3600,43.2600,
2.467967,0.1021,-0.1166,-0.4532,0.0783,-0.0874,0.3419,16.2600,-12.3600,43.2600,
2.485011,0.1021,-0.1166,-0.4532,0.0783,-0.0874,0.3419,16.2000,-12.3000,42.8400,
2.488539,0.1021,-0.1166,-0.4532,0.0218,-0.1087,0.3574,16.2000,-12.3000,42.8400,
2.496663,0.1021,-0.1166,-0.4532,0.0218,-0.1087,0.3574,16.2000,-12.3000,42.8400,
2.497634,0.0820,0.1358,-0.0862,0.0218,-0.1087,0.3574,16.2000,-12.3000,42.8400,
2.508839,0.0820,0.1358,-0.0862,-0.0895,-0.1342,0.3585,16.2000,-12.3000,42.8400,
2.529295,0.0820,0.1358,-0.0862,-0.1715,-0.1875,0.3750,16.2000,-12.3000,42.8400,
2.546131,0.0820,0.1358,-0.0862,-0.1715,-0.1875,0.3750,16.5600,-12.1800,42.6000,
2.549849,0.0820,0.1358,-0.0862,-0.1816,-0.1736,0.3920,16.5600,-12.1800,42.6000,
2.558279,0.0820,0.1358,-0.0862,-0.1816,-0.1736,0.3920,16.5600,-12.1800,42.6000,
2.559262,0.3478,-0.3107,0.0022,-0.1816,-0.1736,0.3920,16.5600,-12.1800,42.6000,
2.570326,0.3478,-0.3107,0.0022,-0.1108,-0.2013,0.4112,16.5600,-12.1800,42.6000,
2.591074,0.3478,-0.3107,0.0022,-0.0501,-0.2152,0.4160,16.5600,-12.1800,42.6000,
2.607797,0.3478,-0.3107,0.0022,-0.0501,-0.2152,0.4160,17.1600,-12.5400,42.3000,
2.612039,0.3478,-0.3107,0.0022,-0.0075,-0.2668,0.4037,17.1600,-12.5400,42.3000,
2.620597,0.3478,-0.3107,0.0022,-0.0075,-0.2668,0.4037,17.1600,-12.5400,42.3000,
2.621568,0.1305,-0.4548,-0.3289,-0.0075,-0.2668,0.4037,17.1600,-12.5400,42.3000,
2.632026,0.1305,-0.4548,-0.3289,-0.0224,-0.2999,0.4005,17.1600,-12.5400,42.3000,
2.653509,0.1305,-0.4548,-0.3289,0.0149,-0.4927,0.4224,17.1600,-12.5400,42.3000,
2.670456,0.1305,-0.4548,-0.3289,0.0149,-0.4927,0.4224,16.8600,-12.8400,42.0600,
2.673040,0.1305,-0.4548,-0.3289,-0.0660,-0.5289,0.4714,16.8600,-12.8400,42.0600,
2.681636,0.1305,-0.4548,-0.3289,-0.0660,-0.5289,0.4714,16.8600,-12.8400,42.0600,
2.682618,0.5380,-0.2196,-0.9537,-0.0660,-0.5289,0.4714,16.8600,-12.8400,42.0600,
2.693580,0.5380,-0.2196,-0.9537,-0.2168,-0.4357,0.5465,16.8600,-12.8400,42.0600,
2.714171,0.5380,-0.2196,-0.9537,-0.0740,-0.4666,0.5928,16.8600,-12.8400,42.0600,
2.730967,0.5380,-0.2196,-0.9537,-0.0740,-0.4666,0.5928,17.4000,-13.6200,42.0000,
2.735456,0.5380,-0.2196,-0.9537,-0.0575,-0.3201,0.5587,17.4000,-13.6200,42.0000,
2.745293,0.5380,-0.2196,-0.9537,-0.0575,-0.3201,0.5587,17.4000,-13.6200,42.0000,
2.746260,-0.0072,0.0393,0.1207,-0.0575,-0.3201,0.5587,17.4000,-13.6200,42.0000,
2.755191,-0.0072,0.0393,0.1207,-0.0788,-0.2541,0.5923,17.4000,-13.6200,42.0000,
2.776097,-0.0072,0.0393,0.1207,-0.0330,-0.2940,0.7084,17.4000,-13.6200,42.0000,
2.792488,-0.0072,0.0393,0.1207,-0.0330,-0.2940,0.7084,17.5800,-14.4600,41.5200,
2.796190,-0.0072,0.0393,0.1207,0.0027,-0.5667,0.7563,17.5800,-14.4600,41.5200,
2.806180,-0.0072,0.0393,0.1207,0.0027,-0.5667,0.7563,17.5800,-14.4600,41.5200,
2.807155,1.7607,0.0631,1.7798,0.0027,-0.5667,0.7563,17.5800,-14.4600,41.5200,
2.816522,1.7607,0.0631,1.7798,-0.0357,-1.0147,0.7697,17.5800,-14.4600,41.5200,
2.837023,1.7607,0.0631,1.7798,-0.2131,-0.9795,0.7137,17.5800,-14.4600,41.5200,
2.854758,1.7607,0.0631,1.7798,-0.2131,-0.9795,0.7137,17.7600,-14.9400,41.6400,
2.858057,1.7607,0.0631,1.7798,-0.3169,-0.6418,0.6722,17.7600,-14.9400,41.6400,
2.866481,1.7607,0.0631,1.7798,-0.3169,-0.6418,0.6722,17.7600,-14.9400,41.6400,
2.867431,2.3207,-1.9266,-0.4116,-0.3169,-0.6418,0.6722,17.7600,-14.9400,41.6400,
2.878269,2.3207,-1.9266,-0.4116,-0.1513,-0.7920,0.8341,17.7600,-14.9400,41.6400,
2.898756,2.3207,-1.9266,-0.4116,0.1917,-1.1361,1.0280,17.7600,-14.9400,41.6400,
2.915870,2.3207,-1.9266,-0.4116,0.1917,-1.1361,1.0280,19.0800,-15.8400,41.2800,
2.920570,2.3207,-1.9266,-0.4116,0.5001,-1.0647,0.9896,19.0800,-15.8400,41.2800,
2.929027,2.3207,-1.9266,-0.4116,0.5001,-1.0647,0.9896,19.0800,-15.8400,41.2800,
2.929966,5.3435,-2.0962,-2.0743,0.5001,-1.0647,0.9896,19.0800,-15.8400,41.2800,
2.939684,5.3435,-2.0962,-2.0743,0.5843,-0.8522,0.9710,19.0800,-15.8400,41.2800,
2.960866,5.3435,-2.0962,-2.0743,0.6344,-1.3827,1.1526,19.0800,-15.8400,41.2800,
2.978150,5.3435,-2.0962,-2.0743,0.6344,-1.3827,1.1526,19.7400,-16.4400,40.3800,
2.981186,5.3435,-2.0962,-2.0743,0.6450,-2.0373,1.3731,19.7400,-16.4400,40.3800,
2.989467,5.3435,-2.0962,-2.0743,0.6450,-2.0373,1.3731,19.7400,-16.4400,40.3800,
2.990523,5.3123,-3.4986,-3.0033,0.6450,-2.0373,1.3731,19.7400,-16.4400,40.3800,
3.001764,5.3123,-3.4986,-3.0033,0.5209,-1.6187,1.4067,19.7400,-16.4400,40.3800,
3.022059,5.3123,-3.4986,-3.0033,0.6631,-1.1803,1.6240,19.7400,-16.4400,40.3800,
3.038450,5.3123,-3.4986,-3.0033,0.6631,-1.1803,1.6240,20.8800,-17.1000,39.4200,
3.042040,5.3123,-3.4986,-3.0033,1.2032,-2.5124,2.8517,20.8800,-17.1000,39.4200,
3.050290,5.3123,-3.4986,-3.0033,1.2032,-2.5124,2.8517,20.8800,-17.1000,39.4200,
3.051118,-2.5275,-3.3648,1.6730,1.2032,-2.5124,2.8517,20.8800,-17.1000,39.4200,
3.062779,-2.5275,-3.3648,1.6730,1.2661,-2.3846,4.7623,20.8800,-17.1000,39.4200,
3.083820,-2.5275,-3.3648,1.6730,0.8842,-1.6229,5.2102,20.8800,-17.1000,39.4200,
3.100539,-2.5275,-3.3648,1.6730,0.8842,-1.6229,5.2102,22.8000,-17.5800,38.0400,
3.103927,-2.5275,-3.3648,1.6730,0.9321,-1.6560,4.6989,22.8000,-17.5800,38.0400,
3.112934,-2.5275,-3.3648,1.6730,0.9321,-1.6560,4.6989,22.8000,-17.5800,38.0400,
3.114019,8.2252,0.3772,-2.8508,0.9321,-1.6560,4.6989,22.8000,-17.5800,38.0400,
3.124882,8.2252,0.3772,-2.8508,0.1150,-2.2754,3.6730,22.8000,-17.5800,38.0400,
3.145079,8.2252,0.3772,-2.8508,0.4027,-3.3780,3.3183,22.8000,-17.5800,38.0400,
3.162110,8.2252,0.3772,-2.8508,0.4027,-3.3780,3.3183,23.7000,-18.6600,36.0000,
3.165573,8.2252,0.3772,-2.8508,1.2176,-1.9308,3.7668,23.7000,-18.6600,36.0000,
3.173699,8.2252,0.3772,-2.8508,1.2176,-1.9308,3.7668,23.7000,-18.6600,36.0000,
3.174717,5.9666,-0.0393,-1.6495,1.2176,-1.9308,3.7668,23.7000,-18.6600,36.0000,
3.186105,5.9666,-0.0393,-1.6495,1.4360,-2.6818,4.0203,23.7000,-18.6600,36.0000,
3.206547,5.9666,-0.0393,-1.6495,2.2898,-2.3255,4.4246,23.7000,-18.6600,36.0000,
3.225881,5.9666,-0.0393,-1.6495,2.2898,-2.3255,4.4246,24.5400,-20.4600,33.9000,
3.229425,5.9666,-0.0393,-1.6495,2.5199,-1.2357,4.1849,24.5400,-20.4600,33.9000,
3.235157,5.9666,-0.0393,-1.6495,2.5199,-1.2357,4.1849,24.5400,-20.4600,33.9000,
3.235846,5.2059,-6.3884,-3.7311,2.5199,-1.2357,4.1849,24.5400,-20.4600,33.9000,
3.247261,5.2059,-6.3884,-3.7311,1.9564,0.2605,3.4808,24.5400,-20.4600,33.9000,
3.267611,5.2059,-6.3884,-3.7311,0.6333,0.7808,2.5923,24.5400,-20.4600,33.9000,
3.284918,5.2059,-6.3884,-3.7311,0.6333,0.7808,2.5923,24.3600,-22.9800,32.1000,
3.290088,5.2059,-6.3884,-3.7311,0.1300,-2.1992,2.4693,24.3600,-22.9800,32.1000,
3.296679,5.2059,-6.3884,-3.7311,0.1300,-2.1992,2.4693,24.3600,-22.9800,32.1000,
3.297494,16.7122,69.6232,-25.3435,0.1300,-2.1992,2.4693,24.3600,-22.9800,32.1000,
3.309245,16.7122,69.6232,-25.3435,-2.2195,-9.9426,1.6586,24.3600,-22.9800,32.1000,
3.329768,16.7122,69.6232,-25.3435,-0.4261,3.5074,4.1609,24.3600,-22.9800,32.1000,
3.346855,16.7122,69.6232,-25.3435,-0.4261,3.5074,4.1609,22.8000,-26.1600,30.8400,
3.350125,16.7122,69.6232,-25.3435,1.2426,9.5315,3.8413,22.8000,-26.1600,30.8400,
3.359204,16.7122,69.6232,-25.3435,1.2426,9.5315,3.8413,22.8000,-26.1600,30.8400,
3.361222,13.5566,-2.8982,5.5775,1.2426,9.5315,3.8413,22.8000,-26.1600,30.8400,
3.374227,13.5566,-2.8982,5.5775,1.8056,5.8201,3.2650,22.8000,-26.1600,30.8400,
3.391450,13.5566,-2.8982,5.5775,1.2251,-0.1395,1.4205,22.8000,-26.1600,30.8400,
3.408486,13.5566,-2.8982,5.5775,1.2251,-0.1395,1.4205,20.6400,-29.2800,29.2800,
3.411754,13.5566,-2.8982,5.5775,0.6040,-1.5404,0.1188,20.6400,-29.2800,29.2800,
3.421180,13.5566,-2.8982,5.5775,0.6040,-1.5404,0.1188,20.6400,-29.2800,29.2800,
3.422598,-0.7846,-9.4384,-2.1326,0.6040,-1.5404,0.1188,20.6400,-29.2800,29.2800,
3.432923,-0.7846,-9.4384,-2.1326,0.5598,0.1715,0.0554,20.6400,-29.2800,29.2800,
3.453443,-0.7846,-9.4384,-2.1326,0.6152,1.7215,0.1364,20.6400,-29.2800,29.2800,
3.472139,-0.7846,-9.4384,-2.1326,0.6152,1.7215,0.1364,15.7200,-31.5600,29.9400,
3.473711,-0.7846,-9.4384,-2.1326,1.0850,-0.3489,0.6013,15.7200,-31.5600,29.9400,
3.481559,-0.7846,-9.4384,-2.1326,1.0850,-0.3489,0.6013,15.7200,-31.5600,29.9400,
3.482964,-1.2161,-6.9356,2.9686,1.0850,-0.3489,0.6013,15.7200,-31.5600,29.9400,
3.494634,-1.2161,-6.9356,2.9686,1.2932,0.4304,0.6882,15.7200,-31.5600,29.9400,
3.515373,-1.2161,-6.9356,2.9686,1.3806,0.9177,0.4394,15.7200,-31.5600,29.9400,
3.532096,-1.2161,-6.9356,2.9686,1.3806,0.9177,0.4394,10.9200,-32.5800,30.7800,
3.534658,-1.2161,-6.9356,2.9686,0.7398,1.1899,-0.5065,10.9200,-32.5800,30.7800,
3.542988,-1.2161,-6.9356,2.9686,0.7398,1.1899,-0.5065,10.9200,-32.5800,30.7800,
3.544688,13.2563,-4.7491,-1.3744,0.7398,1.1899,-0.5065,10.9200,-32.5800,30.7800,
3.555532,13.2563,-4.7491,-1.3744,1.1025,-0.2493,-3.1708,10.9200,-32.5800,30.7800,
3.576966,13.2563,-4.7491,-1.3744,1.0317,-1.4658,-4.3905,10.9200,-32.5800,30.7800,
3.593627,13.2563,-4.7491,-1.3744,1.0317,-1.4658,-4.3905,6.4200,-32.4000,32.3400,
3.596676,13.2563,-4.7491,-1.3744,-1.5867,0.2461,-0.4288,6.4200,-32.4000,32.3400,
3.605711,13.2563,-4.7491,-1.3744,-1.5867,0.2461,-0.4288,6.4200,-32.4000,32.3400,
3.607535,6.0310,2.6266,-0.8277,-1.5867,0.2461,-0.4288,6.4200,-32.4000,32.3400,
3.616817,6.0310,2.6266,-0.8277,-1.2831,2.2530,-1.6938,6.4200,-32.4000,32.3400,
3.638074,6.0310,2.6266,-0.8277,0.6141,1.0290,-1.5649,6.4200,-32.4000,32.3400,
3.654116,6.0310,2.6266,-0.8277,0.6141,1.0290,-1.5649,4.5600,-30.6000,35.0400,
3.658550,6.0310,2.6266,-0.8277,1.1180,0.1097,-1.3076,4.5600,-30.6000,35.0400,
3.666470,6.0310,2.6266,-0.8277,1.1180,0.1097,-1.3076,4.5600,-30.6000,35.0400,
3.667855,1.4721,-7.3775,-2.8894,1.1180,0.1097,-1.3076,4.5600,-30.6000,35.0400,
3.678648,1.4721,-7.3775,-2.8894,-0.6040,0.1055,-0.6381,4.5600,-30.6000,35.0400,
3.700240,1.4721,-7.3775,-2.8894,-1.4392,-0.5880,0.6205,4.5600,-30.6000,35.0400,
3.716318,1.4721,-7.3775,-2.8894,-1.4392,-0.5880,0.6205,5.5800,-28.3800,36.0600,
3.720701,1.4721,-7.3775,-2.8894,0.0735,-0.2493,0.2258,5.5800,-28.3800,36.0600,
3.730625,1.4721,-7.3775,-2.8894,0.0735,-0.2493,0.2258,5.5800,-28.3800,36.0600,
3.732042,3.9985,-3.8580,6.4109,0.0735,-0.2493,0.2258,5.5800,-28.3800,36.0600,
3.739746,3.9985,-3.8580,6.4109,1.0615,0.5278,-0.3931,5.5800,-28.3800,36.0600,
3.763770,3.9985,-3.8580,6.4109,0.7095,0.1411,-0.9492,5.5800,-28.3800,36.0600,
3.778222,3.9985,-3.8580,6.4109,0.7095,0.1411,-0.9492,6.6600,-27.0000,37.2600,
3.781949,3.9985,-3.8580,6.4109,-0.1641,-0.2509,-0.9822,6.6600,-27.0000,37.2600,
3.788966,3.9985,-3.8580,6.4109,-0.1641,-0.2509,-0.9822,6.6600,-27.0000,37.2600,
3.790306,3.4595,2.2587,-0.8288,-0.1641,-0.2509,-0.9822,6.6600,-27.0000,37.2600,
3.802803,3.4595,2.2587,-0.8288,-0.3260,0.5928,-1.1968,6.6600,-27.0000,37.2600,
3.822719,3.4595,2.2587,-0.8288,-0.2706,0.3174,-1.1127,6.6600,-27.0000,37.2600,
3.839973,3.4595,2.2587,-0.8288,-0.2706,0.3174,-1.1127,8.3400,-25.7400,37.3800,
3.843102,3.4595,2.2587,-0.8288,-0.2503,0.1119,-1.1473,8.3400,-25.7400,37.3800,
3.850918,3.4595,2.2587,-0.8288,-0.2503,0.1119,-1.1473,8.3400,-25.7400,37.3800,
3.852302,0.4150,-0.2185,0.8831,-0.2503,0.1119,-1.1473,8.3400,-25.7400,37.3800,
3.863987,0.4150,-0.2185,0.8831,-0.2008,-0.0687,-0.9726,8.3400,-25.7400,37.3800,
3.883652,0.4150,-0.2185,0.8831,0.0794,-0.1603,-0.7942,8.3400,-25.7400,37.3800,
3.901080,0.4150,-0.2185,0.8831,0.0794,-0.1603,-0.7942,8.8800,-25.0800,37.3200,
3.904572,0.4150,-0.2185,0.8831,0.2610,0.0794,-0.6370,8.8800,-25.0800,37.3200,
3.913556,0.4150,-0.2185,0.8831,0.2610,0.0794,-0.6370,8.8800,-25.0800,37.3200,
3.914953,0.2882,-0.1391,0.9279,0.2610,0.0794,-0.6370,8.8800,-25.0800,37.3200,
3.925555,0.2882,-0.1391,0.9279,0.2045,0.1880,-0.4730,8.8800,-25.0800,37.3200,
3.946042,0.2882,-0.1391,0.9279,0.1401,-0.0666,-0.2828,8.8800,-25.0800,37.3200,
3.963007,0.2882,-0.1391,0.9279,0.1401,-0.0666,-0.2828,9.3600,-24.7800,37.6200,
3.965548,0.2882,-0.1391,0.9279,0.1838,-0.3995,-0.0586,9.3600,-24.7800,37.6200,
3.974813,0.2882,-0.1391,0.9279,0.1838,-0.3995,-0.0586,9.3600,-24.7800,37.6200,
3.976259,0.4912,-0.1987,1.0692,0.1838,-0.3995,-0.0586,9.3600,-24.7800,37.6200,
3.987012,0.4912,-0.1987,1.0692,0.1912,-0.1806,0.0442,9.3600,-24.7800,37.6200,
4.007546,0.4912,-0.1987,1.0692,0.1305,0.0820,0.1342,9.3600,-24.7800,37.6200,
4.024439,0.4912,-0.1987,1.0692,0.1305,0.0820,0.1342,10.0200,-24.4200,37.3800,
4.027947,0.4912,-0.1987,1.0692,0.0937,-0.0330,0.2109,10.0200,-24.4200,37.3800,
4.036884,0.4912,-0.1987,1.0692,0.0937,-0.0330,0.2109,10.0200,-24.4200,37.3800,
4.038528,0.9495,-0.1553,0.2484,0.0937,-0.0330,0.2109,10.0200,-24.4200,37.3800,
4.048327,0.9495,-0.1553,0.2484,0.0469,-0.0298,0.2519,10.0200,-24.4200,37.3800,
4.069388,0.9495,-0.1553,0.2484,0.0783,-0.0719,0.2642,10.0200,-24.4200,37.3800,
4.086079,0.9495,-0.1553,0.2484,0.0783,-0.0719,0.2642,10.6200,-24.3000,37.3800,
4.089270,0.9495,-0.1553,0.2484,0.1177,-0.0101,0.2535,10.6200,-24.3000,37.3800,
4.097424,0.9495,-0.1553,0.2484,0.1177,-0.0101,0.2535,10.6200,-24.3000,37.3800,
4.098867,0.2944,0.0928,-0.0242,0.1177,-0.0101,0.2535,10.6200,-24.3000,37.3800,
4.109968,0.2944,0.0928,-0.0242,0.0671,-0.0085,0.2194,10.6200,-24.3000,37.3800,
4.130111,0.2944,0.0928,-0.0242,-0.0176,-0.0437,0.1822,10.6200,-24.3000,37.3800,
4.147448,0.2944,0.0928,-0.0242,-0.0176,-0.0437,0.1822,10.8000,-24.3000,37.6800,
4.150928,0.2944,0.0928,-0.0242,-0.0618,-0.0581,0.1518,10.8000,-24.3000,37.6800,
4.159294,0.2944,0.0928,-0.0242,-0.0618,-0.0581,0.1518,10.8000,-24.3000,37.6800,
4.161134,0.4672,0.0021,-0.0892,-0.0618,-0.0581,0.1518,10.8000,-24.3000,37.6800,
4.171749,0.4672,0.0021,-0.0892,-0.0911,-0.0256,0.0964,10.8000,-24.3000,37.6800,
4.192111,0.4672,0.0021,-0.0892,-0.1097,-0.0048,0.0218,10.8000,-24.3000,37.6800,
4.208604,0.4672,0.0021,-0.0892,-0.1097,-0.0048,0.0218,10.9800,-24.2400,38.0400,
4.213016,0.4672,0.0021,-0.0892,-0.1305,0.0123,-0.0554,10.9800,-24.2400,38.0400,
4.222444,0.4672,0.0021,-0.0892,-0.1305,0.0123,-0.0554,10.9800,-24.2400,38.0400,
4.223760,0.4732,-0.1051,0.2011,-0.1305,0.0123,-0.0554,10.9800,-24.2400,38.0400,
4.233123,0.4732,-0.1051,0.2011,-0.1081,0.0298,-0.1103,10.9800,-24.2400,38.0400,
4.252964,0.4732,-0.1051,0.2011,-0.0740,0.0240,-0.1246,10.9800,-24.2400,38.0400,
4.269953,0.4732,-0.1051,0.2011,-0.0740,0.0240,-0.1246,10.6800,-23.7600,38.4000,
4.273356,0.4732,-0.1051,0.2011,-0.0538,0.0202,-0.0884,10.6800,-23.7600,38.4000,
4.281707,0.4732,-0.1051,0.2011,-0.0538,0.0202,-0.0884,10.6800,-23.7600,38.4000,
4.283136,-0.3457,-0.0529,0.1189,-0.0538,0.0202,-0.0884,10.6800,-23.7600,38.4000,
4.293968,-0.3457,-0.0529,0.1189,-0.0533,0.0032,-0.0346,10.6800,-23.7600,38.4000,
4.314368,-0.3457,-0.0529,0.1189,-0.0490,-0.0154,-0.0128,10.6800,-23.7600,38.4000,
4.331610,-0.3457,-0.0529,0.1189,-0.0490,-0.0154,-0.0128,10.8600,-23.7600,38.3400,
4.334870,-0.3457,-0.0529,0.1189,-0.0266,-0.0128,-0.0256,10.8600,-23.7600,38.3400,
4.343957,-0.3457,-0.0529,0.1189,-0.0266,-0.0128,-0.0256,10.8600,-23.7600,38.3400,
4.345347,0.0288,-0.0742,0.1544,-0.0266,-0.0128,-0.0256,10.8600,-23.7600,38.3400,
4.355583,0.0288,-0.0742,0.1544,-0.0096,0.0032,-0.0192,10.8600,-23.7600,38.3400,
4.376766,0.0288,-0.0742,0.1544,0.0208,0.0043,0.0037,10.8600,-23.7600,38.3400,
4.394011,0.0288,-0.0742,0.1544,0.0208,0.0043,0.0037,10.8000,-23.9400,37.9800,
4.396529,0.0288,-0.0742,0.1544,0.0272,-0.0005,0.0234,10.8000,-23.9400,37.9800,
4.404646,0.0288,-0.0742,0.1544,0.0272,-0.0005,0.0234,10.8000,-23.9400,37.9800,
4.405943,-0.0820,0.0597,0.0859,0.0272,-0.0005,0.0234,10.8000,-23.9400,37.9800,
4.417235,-0.0820,0.0597,0.0859,0.0325,-0.0112,0.0389,10.8000,-23.9400,37.9800,
4.437526,-0.0820,0.0597,0.0859,0.0298,-0.0154,0.0485,10.8000,-23.9400,37.9800,
4.454563,-0.0820,0.0597,0.0859,0.0298,-0.0154,0.0485,10.8000,-24.0600,36.9000,
4.458085,-0.0820,0.0597,0.0859,0.0176,-0.0170,0.0458,10.8000,-24.0600,36.9000,
4.466339,-0.0820,0.0597,0.0859,0.0176,-0.0170,0.0458,10.8000,-24.0600,36.9000,
4.467654,0.1656,0.0186,0.0464,0.0176,-0.0170,0.0458,10.8000,-24.0600,36.9000,
4.479399,0.1656,0.0186,0.0464,0.0160,-0.0027,0.0218,10.8000,-24.0600,36.9000,
4.499141,0.1656,0.0186,0.0464,0.0197,0.0053,0.0048,10.8000,-24.0600,36.9000,
4.517236,0.1656,0.0186,0.0464,0.0197,0.0053,0.0048,10.8600,-24.3000,36.6000,
4.520630,0.1656,0.0186,0.0464,0.0117,-0.0085,0.0064,10.8600,-24.3000,36.6000,
4.528719,0.1656,0.0186,0.0464,0.0117,-0.0085,0.0064,10.8600,-24.3000,36.6000,
4.529749,0.0123,0.0017,-0.0955,0.0117,-0.0085,0.0064,10.8600,-24.3000,36.6000,
4.540928,0.0123,0.0017,-0.0955,-0.0027,-0.0048,0.0069,10.8600,-24.3000,36.6000,
4.561831,0.0123,0.0017,-0.0955,-0.0149,0.0016,0.0021,10.8600,-24.3000,36.6000,
4.577901,0.0123,0.0017,-0.0955,-0.0149,0.0016,0.0021,10.8000,-24.3000,36.9600,
4.581650,0.0123,0.0017,-0.0955,-0.0309,0.0069,-0.0149,10.8000,-24.3000,36.9600,
4.590526,0.0123,0.0017,-0.0955,-0.0309,0.0069,-0.0149,10.8000,-24.3000,36.9600,
4.591539,-0.0601,0.0078,-0.0129,-0.0309,0.0069,-0.0149,10.8000,-24.3000,36.9600,
4.602981,-0.0601,0.0078,-0.0129,-0.0357,-0.0016,0.0037,10.8000,-24.3000,36.9600,
4.623095,-0.0601,0.0078,-0.0129,-0.0170,-0.0085,0.0245,10.8000,-24.3000,36.9600,
4.640169,-0.0601,0.0078,-0.0129,-0.0170,-0.0085,0.0245,10.7400,-24.0600,37.2600,
4.643559,-0.0601,0.0078,-0.0129,-0.0005,-0.0037,0.0426,10.7400,-24.0600,37.2600,
4.652003,-0.0601,0.0078,-0.0129,-0.0005,-0.0037,0.0426,10.7400,-24.0600,37.2600,
4.653535,-0.1555,-0.0208,0.1075,-0.0005,-0.0037,0.0426,10.7400,-24.0600,37.2600,
4.665970,-0.1555,-0.0208,0.1075,0.0016,0.0107,0.0783,10.7400,-24.0600,37.2600,
4.684873,-0.1555,-0.0208,0.1075,-0.0096,0.0437,0.1049,10.7400,-24.0600,37.2600,
4.701721,-0.1555,-0.0208,0.1075,-0.0096,0.0437,0.1049,10.6200,-23.9400,37.5600,
4.704967,-0.1555,-0.0208,0.1075,-0.0224,0.0900,0.0884,10.6200,-23.9400,37.5600,
4.714346,-0.1555,-0.0208,0.1075,-0.0224,0.0900,0.0884,10.6200,-23.9400,37.5600,
4.715965,0.2218,-0.0015,0.1775,-0.0224,0.0900,0.0884,10.6200,-23.9400,37.5600,
4.725734,0.2218,-0.0015,0.1775,0.0091,0.1582,0.0783,10.6200,-23.9400,37.5600,
4.746127,0.2218,-0.0015,0.1775,0.0639,0.1587,0.1630,10.6200,-23.9400,37.5600,
4.764155,0.2218,-0.0015,0.1775,0.0639,0.1587,0.1630,10.9800,-23.8200,37.4400,
4.766036,0.2218,-0.0015,0.1775,0.0586,0.2061,0.2530,10.9800,-23.8200,37.4400,
4.774830,0.2218,-0.0015,0.1775,0.0586,0.2061,0.2530,10.9800,-23.8200,37.4400,
4.775751,-0.1276,-0.0702,-0.7091,0.0586,0.2061,0.2530,10.9800,-23.8200,37.4400,
4.787564,-0.1276,-0.0702,-0.7091,-0.0682,0.3052,0.2610,10.9800,-23.8200,37.4400,
4.808067,-0.1276,-0.0702,-0.7091,0.0314,0.2264,0.1795,10.9800,-23.8200,37.4400,
4.824948,-0.1276,-0.0702,-0.7091,0.0314,0.2264,0.1795,10.7400,-23.8200,37.0800,
4.835289,-0.1276,-0.0702,-0.7091,0.1545,0.4538,0.0778,10.7400,-23.8200,37.0800,
4.837014,-0.1276,-0.0702,-0.7091,0.1545,0.4538,0.0778,10.7400,-23.8200,37.0800,
4.837806,0.8020,-0.0114,0.7584,0.1545,0.4538,0.0778,10.7400,-23.8200,37.0800,
4.850538,0.8020,-0.0114,0.7584,0.2882,0.3489,-0.0410,10.7400,-23.8200,37.0800,
4.868523,0.8020,-0.0114,0.7584,0.3760,-0.0133,-0.1150,10.7400,-23.8200,37.0800,
4.885713,0.8020,-0.0114,0.7584,0.3760,-0.0133,-0.1150,10.0800,-24.0000,36.7800,
4.889720,0.8020,-0.0114,0.7584,0.3585,0.1917,-0.1832,10.0800,-24.0000,36.7800,
4.898204,0.8020,-0.0114,0.7584,0.3585,0.1917,-0.1832,10.0800,-24.0000,36.7800,
4.899678,0.7392,-0.1597,0.0324,0.3585,0.1917,-0.1832,10.0800,-24.0000,36.7800,
4.910454,0.7392,-0.1597,0.0324,0.3116,0.4506,-0.2988,10.0800,-24.0000,36.7800,
4.931089,0.7392,-0.1597,0.0324,0.2370,0.4985,-0.4453,10.0800,-24.0000,36.7800,
4.947855,0.7392,-0.1597,0.0324,0.2370,0.4985,-0.4453,9.9000,-23.8200,37.3800,
4.950567,0.7392,-0.1597,0.0324,0.1997,0.5161,-0.5992,9.9000,-23.8200,37.3800,
4.960154,0.7392,-0.1597,0.0324,0.1997,0.5161,-0.5992,9.9000,-23.8200,37.3800,
4.961242,1.0823,-0.0754,-0.0688,0.1997,0.5161,-0.5992,9.9000,-23.8200,37.3800,
4.972020,1.0823,-0.0754,-0.0688,0.2104,0.4682,-0.7627,9.9000,-23.8200,37.3800,
4.992211,1.0823,-0.0754,-0.0688,0.1443,0.5593,-0.9039,9.9000,-23.8200,37.3800,
5.008882,1.0823,-0.0754,-0.0688,0.1443,0.5593,-0.9039,9.3000,-23.9400,37.9800,
5.012507,1.0823,-0.0754,-0.0688,0.1092,0.5380,-1.0402,9.3000,-23.9400,37.9800,
5.020967,1.0823,-0.0754,-0.0688,0.1092,0.5380,-1.0402,9.3000,-23.9400,37.9800,
5.021901,0.7970,0.2108,0.1312,0.1092,0.5380,-1.0402,9.3000,-23.9400,37.9800,
5.033574,0.7970,0.2108,0.1312,0.2061,0.2269,-1.1654,9.3000,-23.9400,37.9800,
5.053441,0.7970,0.2108,0.1312,0.2621,0.2610,-1.1180,9.3000,-23.9400,37.9800,
5.071210,0.7970,0.2108,0.1312,0.2621,0.2610,-1.1180,8.7600,-23.5800,38.5800,
5.074276,0.7970,0.2108,0.1312,0.2487,0.3265,-0.9678,8.7600,-23.5800,38.5800,
5.082744,0.7970,0.2108,0.1312,0.2487,0.3265,-0.9678,8.7600,-23.5800,38.5800,
5.084137,-0.9249,-0.4065,-0.3332,0.2487,0.3265,-0.9678,8.7600,-23.5800,38.5800,
5.094469,-0.9249,-0.4065,-0.3332,0.2477,0.1252,-0.8767,8.7600,-23.5800,38.5800,
5.115680,-0.9249,-0.4065,-0.3332,0.3441,-0.1656,-0.8767,8.7600,-23.5800,38.5800,
5.132556,-0.9249,-0.4065,-0.3332,0.3441,-0.1656,-0.8767,9.3600,-22.7400,39.4800,
5.136468,-0.9249,-0.4065,-0.3332,0.4362,-0.0144,-0.7888,9.3600,-22.7400,39.4800,
5.144620,-0.9249,-0.4065,-0.3332,0.4362,-0.0144,-0.7888,9.3600,-22.7400,39.4800,
5.146034,-1.3529,-1.0564,0.5569,0.4362,-0.0144,-0.7888,9.3600,-22.7400,39.4800,
5.155548,-1.3529,-1.0564,0.5569,0.4788,0.1497,-0.5667,9.3600,-22.7400,39.4800,
5.175686,-1.3529,-1.0564,0.5569,0.4543,0.1044,-0.4346,9.3600,-22.7400,39.4800,
5.193363,-1.3529,-1.0564,0.5569,0.4543,0.1044,-0.4346,9.3000,-22.2600,39.9600,
5.196488,-1.3529,-1.0564,0.5569,0.4788,-0.0176,-0.4405,9.3000,-22.2600,39.9600,
5.204958,-1.3529,-1.0564,0.5569,0.4788,-0.0176,-0.4405,9.3000,-22.2600,39.9600,
5.205560,0.2418,0.1277,0.3700,0.4788,-0.0176,-0.4405,9.3000,-22.2600,39.9600,
5.217559,0.2418,0.1277,0.3700,0.5438,-0.0889,-0.5151,9.3000,-22.2600,39.9600,
5.238030,0.2418,0.1277,0.3700,0.5385,-0.0357,-0.5854,9.3000,-22.2600,39.9600,
5.255064,0.2418,0.1277,0.3700,0.5385,-0.0357,-0.5854,10.0800,-20.6400,40.5000,
5.258893,0.2418,0.1277,0.3700,0.5252,-0.1156,-0.6445,10.0800,-20.6400,40.5000,
5.267381,0.2418,0.1277,0.3700,0.5252,-0.1156,-0.6445,10.0800,-20.6400,40.5000,
5.269057,-0.2584,0.0136,-0.5055,0.5252,-0.1156,-0.6445,10.0800,-20.6400,40.5000,
5.280923,-0.2584,0.0136,-0.5055,0.5039,-0.2354,-0.6514,10.0800,-20.6400,40.5000,
5.300711,-0.2584,0.0136,-0.5055,0.4767,-0.1305,-0.6775,10.0800,-20.6400,40.5000,
5.317564,-0.2584,0.0136,-0.5055,0.4767,-0.1305,-0.6775,10.7400,-19.3200,40.7400,
5.320849,-0.2584,0.0136,-0.5055,0.5241,-0.1358,-0.6711,10.7400,-19.3200,40.7400,
5.330874,-0.2584,0.0136,-0.5055,0.5241,-0.1358,-0.6711,10.7400,-19.3200,40.7400,
5.332337,0.1004,-0.4396,0.1454,0.5241,-0.1358,-0.6711,10.7400,-19.3200,40.7400,
5.341085,0.1004,-0.4396,0.1454,0.5987,-0.1699,-0.7164,10.7400,-19.3200,40.7400,
5.361969,0.1004,-0.4396,0.1454,0.5491,-0.1332,-0.7846,10.7400,-19.3200,40.7400,
5.380845,0.1004,-0.4396,0.1454,0.5491,-0.1332,-0.7846,11.2800,-18.0000,41.1600,
5.382560,0.1004,-0.4396,0.1454,0.4181,-0.0490,-0.8336,11.2800,-18.0000,41.1600,
5.390593,0.1004,-0.4396,0.1454,0.4181,-0.0490,-0.8336,11.2800,-18.0000,41.1600,
5.391487,-0.1471,0.2183,-0.6706,0.4181,-0.0490,-0.8336,11.2800,-18.0000,41.1600,
5.402459,-0.1471,0.2183,-0.6706,0.3707,-0.1348,-0.8602,11.2800,-18.0000,41.1600,
5.423263,-0.1471,0.2183,-0.6706,0.4341,-0.3750,-0.7872,11.2800,-18.0000,41.1600,
5.439940,-0.1471,0.2183,-0.6706,0.4341,-0.3750,-0.7872,12.4200,-15.9000,41.5800,
5.443502,-0.1471,0.2183,-0.6706,0.4645,-0.4053,-0.8506,12.4200,-15.9000,41.5800,
5.452139,-0.1471,0.2183,-0.6706,0.4645,-0.4053,-0.8506,12.4200,-15.9000,41.5800,
5.453533,-0.1559,-0.5742,-0.5986,0.4645,-0.4053,-0.8506,12.4200,-15.9000,41.5800,
5.463760,-0.1559,-0.5742,-0.5986,0.3957,-0.3467,-0.8762,12.4200,-15.9000,41.5800,
5.484831,-0.1559,-0.5742,-0.5986,0.2935,-0.1838,-0.9033,12.4200,-15.9000,41.5800,
5.501127,-0.1559,-0.5742,-0.5986,0.2935,-0.1838,-0.9033,13.4400,-14.4600,41.8200,
5.505230,-0.1559,-0.5742,-0.5986,0.2812,-0.3388,-0.8352,13.4400,-14.4600,41.8200,
5.513396,-0.1559,-0.5742,-0.5986,0.2812,-0.3388,-0.8352,13.4400,-14.4600,41.8200,
5.514629,-0.4284,-0.2829,-0.0781,0.2812,-0.3388,-0.8352,13.4400,-14.4600,41.8200,
5.525693,-0.4284,-0.2829,-0.0781,0.2615,-0.3563,-0.8171,13.4400,-14.4600,41.8200,
5.549526,-0.4284,-0.2829,-0.0781,0.2216,-0.3260,-0.8032,13.4400,-14.4600,41.8200,
5.563854,-0.4284,-0.2829,-0.0781,0.2216,-0.3260,-0.8032,14.7600,-12.4200,41.9400,
5.566883,-0.4284,-0.2829,-0.0781,0.1486,-0.3345,-0.7420,14.7600,-12.4200,41.9400,
5.575226,-0.4284,-0.2829,-0.0781,0.1486,-0.3345,-0.7420,14.7600,-12.4200,41.9400,
5.576158,-0.2965,-0.3405,-0.2742,0.1486,-0.3345,-0.7420,14.7600,-12.4200,41.9400,
5.587581,-0.2965,-0.3405,-0.2742,0.0975,-0.3659,-0.7691,14.7600,-12.4200,41.9400,
5.608037,-0.2965,-0.3405,-0.2742,0.1465,-0.5481,-0.6791,14.7600,-12.4200,41.9400,
5.625089,-0.2965,-0.3405,-0.2742,0.1465,-0.5481,-0.6791,15.7200,-10.9200,41.7000,
5.630211,-0.2965,-0.3405,-0.2742,0.1411,-0.5539,-0.7121,15.7200,-10.9200,41.7000,
5.636951,-0.2965,-0.3405,-0.2742,0.1411,-0.5539,-0.7121,15.7200,-10.9200,41.7000,
5.638015,0.1938,-0.3889,0.2790,0.1411,-0.5539,-0.7121,15.7200,-10.9200,41.7000,
5.649548,0.1938,-0.3889,0.2790,0.1651,-0.4820,-0.7984,15.7200,-10.9200,41.7000,
5.668786,0.1938,-0.3889,0.2790,0.2322,-0.5859,-0.9406,15.7200,-10.9200,41.7000,
5.685505,0.1938,-0.3889,0.2790,0.2322,-0.5859,-0.9406,16.5000,-9.7800,41.4000,
5.689359,0.1938,-0.3889,0.2790,0.1827,-0.4788,-1.2346,16.5000,-9.7800,41.4000,
5.701105,0.1938,-0.3889,0.2790,0.1827,-0.4788,-1.2346,16.5000,-9.7800,41.4000,
5.702227,2.6301,-0.1667,0.3629,0.1827,-0.4788,-1.2346,16.5000,-9.7800,41.4000,
5.709787,2.6301,-0.1667,0.3629,0.1790,-0.3414,-1.4834,16.5000,-9.7800,41.4000,
5.730805,2.6301,-0.1667,0.3629,0.0229,0.0586,-1.7007,16.5000,-9.7800,41.4000,
5.747413,2.6301,-0.1667,0.3629,0.0229,0.0586,-1.7007,17.7600,-8.1600,40.6200,
5.750387,2.6301,-0.1667,0.3629,0.0357,-0.0043,-1.6789,17.7600,-8.1600,40.6200,
5.758592,2.6301,-0.1667,0.3629,0.0357,-0.0043,-1.6789,17.7600,-8.1600,40.6200,
5.759174,-2.5964,-0.4131,-0.3223,0.0357,-0.0043,-1.6789,17.7600,-8.1600,40.6200,
5.770846,-2.5964,-0.4131,-0.3223,-0.0181,-0.1667,-1.2043,17.7600,-8.1600,40.6200,
5.791579,-2.5964,-0.4131,-0.3223,-0.0218,-0.3143,-0.3611,17.7600,-8.1600,40.6200,
5.808585,-2.5964,-0.4131,-0.3223,-0.0218,-0.3143,-0.3611,18.6600,-6.6000,40.6200,
5.811869,-2.5964,-0.4131,-0.3223,0.0698,-0.4224,0.3505,18.6600,-6.6000,40.6200,
5.820319,-2.5964,-0.4131,-0.3223,0.0698,-0.4224,0.3505,18.6600,-6.6000,40.6200,
5.820889,-0.7473,0.0978,0.2019,0.0698,-0.4224,0.3505,18.6600,-6.6000,40.6200,
5.832750,-0.7473,0.0978,0.2019,0.0820,-0.1449,0.4186,18.6600,-6.6000,40.6200,
5.853025,-0.7473,0.0978,0.2019,0.0698,0.0453,0.3414,18.6600,-6.6000,40.6200,
5.870466,-0.7473,0.0978,0.2019,0.0698,0.0453,0.3414,19.6800,-4.9800,40.3200,
5.873951,-0.7473,0.0978,0.2019,0.0442,0.0123,0.3116,19.6800,-4.9800,40.3200,
5.882906,-0.7473,0.0978,0.2019,0.0442,0.0123,0.3116,19.6800,-4.9800,40.3200,
5.884325,0.0229,-1.0432,0.1484,0.0442,0.0123,0.3116,19.6800,-4.9800,40.3200,
5.895500,0.0229,-1.0432,0.1484,0.0953,-0.1699,0.2839,19.6800,-4.9800,40.3200,
5.915366,0.0229,-1.0432,0.1484,0.1385,-0.0618,0.2722,19.6800,-4.9800,40.3200,
5.932512,0.0229,-1.0432,0.1484,0.1385,-0.0618,0.2722,20.8200,-3.5400,40.3800,
5.935697,0.0229,-1.0432,0.1484,0.1337,0.0341,0.3483,20.8200,-3.5400,40.3800,
5.944901,0.0229,-1.0432,0.1484,0.1337,0.0341,0.3483,20.8200,-3.5400,40.3800,
5.945697,-0.1129,0.5320,-0.0734,0.1337,0.0341,0.3483,20.8200,-3.5400,40.3800,
5.957059,-0.1129,0.5320,-0.0734,0.0964,-0.1055,0.3164,20.8200,-3.5400,40.3800,
5.977288,-0.1129,0.5320,-0.0734,0.0165,-0.0895,0.2157,20.8200,-3.5400,40.3800,
5.994490,-0.1129,0.5320,-0.0734,0.0165,-0.0895,0.2157,21.3600,-2.8800,40.6800,
5.998413,-0.1129,0.5320,-0.0734,0.0149,-0.0021,0.2226,21.3600,-2.8800,40.6800,
6.005741,-0.1129,0.5320,-0.0734,0.0149,-0.0021,0.2226,21.3600,-2.8800,40.6800,
6.006666,0.5350,-0.1921,0.3963,0.0149,-0.0021,0.2226,21.3600,-2.8800,40.6800,
6.018921,0.5350,-0.1921,0.3963,0.0687,-0.1049,0.2786,21.3600,-2.8800,40.6800,
6.038773,0.5350,-0.1921,0.3963,0.0953,-0.1007,0.2674,21.3600,-2.8800,40.6800,
6.057140,0.5350,-0.1921,0.3963,0.0953,-0.1007,0.2674,21.4200,-3.3000,40.5000,
6.064856,0.5350,-0.1921,0.3963,0.0746,0.0165,0.2791,21.4200,-3.3000,40.5000,
6.067943,0.5350,-0.1921,0.3963,0.0746,0.0165,0.2791,21.4200,-3.3000,40.5000,
6.068452,0.1426,-0.0604,0.1869,0.0746,0.0165,0.2791,21.4200,-3.3000,40.5000,
6.078880,0.1426,-0.0604,0.1869,0.0415,0.1364,0.2019,21.4200,-3.3000,40.5000,
6.100283,0.1426,-0.0604,0.1869,0.0730,0.0889,0.1380,21.4200,-3.3000,40.5000,
6.117090,0.1426,-0.0604,0.1869,0.0730,0.0889,0.1380,21.7800,-3.3600,40.5600,
6.120683,0.1426,-0.0604,0.1869,0.0964,-0.0559,0.1720,21.7800,-3.3600,40.5600,
6.130266,0.1426,-0.0604,0.1869,0.0964,-0.0559,0.1720,21.7800,-3.3600,40.5600,
6.131630,-0.3885,0.2667,-0.0440,0.0964,-0.0559,0.1720,21.7800,-3.3600,40.5600,
6.141788,-0.3885,0.2667,-0.0440,0.0378,-0.1454,0.2035,21.7800,-3.3600,40.5600,
6.162617,-0.3885,0.2667,-0.0440,-0.0149,-0.0847,0.1380,21.7800,-3.3600,40.5600,
6.179922,-0.3885,0.2667,-0.0440,-0.0149,-0.0847,0.1380,22.0200,-3.3000,40.3800,
6.181719,-0.3885,0.2667,-0.0440,-0.0336,-0.1055,-0.0128,22.0200,-3.3000,40.3800,
6.191075,-0.3885,0.2667,-0.0440,-0.0336,-0.1055,-0.0128,22.0200,-3.3000,40.3800,
6.192012,0.2801,0.0631,0.0379,-0.0336,-0.1055,-0.0128,22.0200,-3.3000,40.3800,
6.203109,0.2801,0.0631,0.0379,-0.0565,-0.1454,-0.0485,22.0200,-3.3000,40.3800,
6.223444,0.2801,0.0631,0.0379,-0.0719,-0.1566,-0.0479,22.0200,-3.3000,40.3800,
6.240115,0.2801,0.0631,0.0379,-0.0719,-0.1566,-0.0479,21.9600,-3.2400,40.2000,
6.243383,0.2801,0.0631,0.0379,-0.1012,-0.1422,-0.0474,21.9600,-3.2400,40.2000,
6.251164,0.2801,0.0631,0.0379,-0.1012,-0.1422,-0.0474,21.9600,-3.2400,40.2000,
6.252200,0.4613,-0.3273,-0.0693,-0.1012,-0.1422,-0.0474,21.9600,-3.2400,40.2000,
6.264243,0.4613,-0.3273,-0.0693,-0.0831,-0.0703,-0.0320,21.9600,-3.2400,40.2000,
6.284065,0.4613,-0.3273,-0.0693,-0.0043,-0.0597,0.0485,21.9600,-3.2400,40.2000,
6.300837,0.4613,-0.3273,-0.0693,-0.0043,-0.0597,0.0485,22.6200,-3.3600,40.6800,
6.304497,0.4613,-0.3273,-0.0693,0.0357,-0.0607,0.0751,22.6200,-3.3600,40.6800,
6.312798,0.4613,-0.3273,-0.0693,0.0357,-0.0607,0.0751,22.6200,-3.3600,40.6800,
6.313254,-0.1825,0.2148,0.0745,0.0357,-0.0607,0.0751,22.6200,-3.3600,40.6800,
6.325097,-0.1825,0.2148,0.0745,-0.0123,-0.0858,-0.0213,22.6200,-3.3600,40.6800,
6.347785,-0.1825,0.2148,0.0745,-0.0501,-0.1305,-0.0964,22.6200,-3.3600,40.6800,
6.362264,-0.1825,0.2148,0.0745,-0.0501,-0.1305,-0.0964,22.9200,-3.7200,40.5000,
6.365888,-0.1825,0.2148,0.0745,-0.0059,-0.0937,-0.0826,22.9200,-3.7200,40.5000,
6.374117,-0.1825,0.2148,0.0745,-0.0059,-0.0937,-0.0826,22.9200,-3.7200,40.5000,
6.374403,-0.0840,0.0498,0.2388,-0.0059,-0.0937,-0.0826,22.9200,-3.7200,40.5000,
6.389498,-0.0840,0.0498,0.2388,0.0016,-0.0554,-0.0703,22.9200,-3.7200,40.5000,
6.407705,-0.0840,0.0498,0.2388,0.0021,-0.0703,-0.0762,22.9200,-3.7200,40.5000,
6.424555,-0.0840,0.0498,0.2388,0.0021,-0.0703,-0.0762,23.0400,-4.2000,40.5000,
6.427692,-0.0840,0.0498,0.2388,0.0165,-0.1023,-0.0399,23.0400,-4.2000,40.5000,
6.436001,-0.0840,0.0498,0.2388,0.0165,-0.1023,-0.0399,23.0400,-4.2000,40.5000,
6.436492,-0.2654,0.4143,0.2484,0.0165,-0.1023,-0.0399,23.0400,-4.2000,40.5000,
6.448210,-0.2654,0.4143,0.2484,0.0245,-0.1348,-0.0011,23.0400,-4.2000,40.5000,
6.469435,-0.2654,0.4143,0.2484,0.0069,-0.1784,0.0799,23.0400,-4.2000,40.5000,
6.486529,-0.2654,0.4143,0.2484,0.0069,-0.1784,0.0799,23.2800,-4.7400,40.6200,
6.489854,-0.2654,0.4143,0.2484,-0.0900,-0.3558,0.0740,23.2800,-4.7400,40.6200,
6.499177,-0.2654,0.4143,0.2484,-0.0900,-0.3558,0.0740,23.2800,-4.7400,40.6200,
6.500661,-0.0680,0.2512,-0.2238,-0.0900,-0.3558,0.0740,23.2800,-4.7400,40.6200,
6.510596,-0.0680,0.2512,-0.2238,-0.0602,-0.3750,0.0804,23.2800,-4.7400,40.6200,
6.531612,-0.0680,0.2512,-0.2238,-0.0959,-0.4442,0.0874,23.2800,-4.7400,40.6200,
6.547760,-0.0680,0.2512,-0.2238,-0.0959,-0.4442,0.0874,23.4000,-4.8600,40.2600,
6.551351,-0.0680,0.2512,-0.2238,-0.1779,-0.6067,0.1113,23.4000,-4.8600,40.2600,
6.560722,-0.0680,0.2512,-0.2238,-0.1779,-0.6067,0.1113,23.4000,-4.8600,40.2600,
6.561712,-0.1741,0.6181,0.0767,-0.1779,-0.6067,0.1113,23.4000,-4.8600,40.2600,
6.573226,-0.1741,0.6181,0.0767,-0.2173,-0.6525,0.1406,23.4000,-4.8600,40.2600,
6.593472,-0.1741,0.6181,0.0767,-0.2189,-0.5816,0.1166,23.4000,-4.8600,40.2600,
6.610641,-0.1741,0.6181,0.0767,-0.2189,-0.5816,0.1166,23.7000,-5.1000,40.2600,
6.614982,-0.1741,0.6181,0.0767,-0.2423,-0.5055,0.1342,23.7000,-5.1000,40.2600,
6.622624,-0.1741,0.6181,0.0767,-0.2423,-0.5055,0.1342,23.7000,-5.1000,40.2600,
6.623614,0.3652,-0.3787,0.3681,-0.2423,-0.5055,0.1342,23.7000,-5.1000,40.2600,
6.634794,0.3652,-0.3787,0.3681,-0.2141,-0.3483,0.0746,23.7000,-5.1000,40.2600,
6.654557,0.3652,-0.3787,0.3681,-0.2008,-0.2205,-0.0533,23.7000,-5.1000,40.2600,
6.671734,0.3652,-0.3787,0.3681,-0.2008,-0.2205,-0.0533,24.7800,-5.2200,39.6600,
6.675109,0.3652,-0.3787,0.3681,-0.1241,-0.1981,-0.0053,24.7800,-5.2200,39.6600,
6.683427,0.3652,-0.3787,0.3681,-0.1241,-0.1981,-0.0053,24.7800,-5.2200,39.6600,
6.685403,0.2686,-0.8564,0.4815,-0.1241,-0.1981,-0.0053,24.7800,-5.2200,39.6600,
6.696485,0.2686,-0.8564,0.4815,-0.1017,-0.1625,0.0117,24.7800,-5.2200,39.6600,
6.716629,0.2686,-0.8564,0.4815,-0.0724,-0.1625,0.0224,24.7800,-5.2200,39.6600,
6.733551,0.2686,-0.8564,0.4815,-0.0724,-0.1625,0.0224,25.9200,-5.4600,39.6000,
6.737292,0.2686,-0.8564,0.4815,-0.1049,-0.1028,0.0282,25.9200,-5.4600,39.6000,
6.744999,0.2686,-0.8564,0.4815,-0.1049,-0.1028,0.0282,25.9200,-5.4600,39.6000,
6.745963,0.2609,-0.9830,-0.2575,-0.1049,-0.1028,0.0282,25.9200,-5.4600,39.6000,
6.758001,0.2609,-0.9830,-0.2575,-0.0921,-0.1795,0.1758,25.9200,-5.4600,39.6000,
6.778438,0.2609,-0.9830,-0.2575,0.0133,-0.0314,0.1843,25.9200,-5.4600,39.6000,
6.794796,0.2609,-0.9830,-0.2575,0.0133,-0.0314,0.1843,27.1200,-5.7000,39.1800,
6.798400,0.2609,-0.9830,-0.2575,0.5491,1.0392,-0.3904,27.1200,-5.7000,39.1800,
6.807132,0.2609,-0.9830,-0.2575,0.5491,1.0392,-0.3904,27.1200,-5.7000,39.1800,
6.808222,0.0633,0.9755,1.3258,0.5491,1.0392,-0.3904,27.1200,-5.7000,39.1800,
6.819249,0.0633,0.9755,1.3258,0.6551,0.9795,-0.3015,27.1200,-5.7000,39.1800,
6.839713,0.0633,0.9755,1.3258,0.0240,-0.1124,-0.2754,27.1200,-5.7000,39.1800,
6.855787,0.0633,0.9755,1.3258,0.0240,-0.1124,-0.2754,27.7200,-5.7000,38.8800,
6.859911,0.0633,0.9755,1.3258,-0.1726,-0.7436,0.0629,27.7200,-5.7000,38.8800,
6.868559,0.0633,0.9755,1.3258,-0.1726,-0.7436,0.0629,27.7200,-5.7000,38.8800,
6.870081,0.7307,0.6195,-0.5672,-0.1726,-0.7436,0.0629,27.7200,-5.7000,38.8800,
6.881082,0.7307,0.6195,-0.5672,-0.2525,-0.6706,0.0778,27.7200,-5.7000,38.8800,
6.901489,0.7307,0.6195,-0.5672,-0.3856,-0.7808,-0.0666,27.7200,-5.7000,38.8800,
6.918299,0.7307,0.6195,-0.5672,-0.3856,-0.7808,-0.0666,27.5400,-5.8200,38.9400,
6.921705,0.7307,0.6195,-0.5672,-0.5220,-0.9454,-0.2386,27.5400,-5.8200,38.9400,
6.931006,0.7307,0.6195,-0.5672,-0.5220,-0.9454,-0.2386,27.5400,-5.8200,38.9400,
6.932576,0.1814,0.4222,0.0052,-0.5220,-0.9454,-0.2386,27.5400,-5.8200,38.9400,
6.942594,0.1814,0.4222,0.0052,-0.5859,-1.0605,-0.3542,27.5400,-5.8200,38.9400,
6.963206,0.1814,0.4222,0.0052,-0.5385,-1.1143,-0.4565,27.5400,-5.8200,38.9400,
6.980869,0.1814,0.4222,0.0052,-0.5385,-1.1143,-0.4565,28.0800,-5.8800,38.4600,
6.982446,0.1814,0.4222,0.0052,-0.4208,-0.8309,-0.6067,28.0800,-5.8800,38.4600,
6.991665,0.1814,0.4222,0.0052,-0.4208,-0.8309,-0.6067,28.0800,-5.8800,38.4600,
6.992953,0.0349,0.9660,0.3960,-0.4208,-0.8309,-0.6067,28.0800,-5.8800,38.4600,
7.004557,0.0349,0.9660,0.3960,-0.2264,-0.7121,-0.5214,28.0800,-5.8800,38.4600,
7.024490,0.0349,0.9660,0.3960,-0.0554,-0.0021,-0.2738,28.0800,-5.8800,38.4600,
7.041262,0.0349,0.9660,0.3960,-0.0554,-0.0021,-0.2738,28.8600,-5.5200,37.8000,
7.044749,0.0349,0.9660,0.3960,0.0197,0.1795,-0.1923,28.8600,-5.5200,37.8000,
7.054202,0.0349,0.9660,0.3960,0.0197,0.1795,-0.1923,28.8600,-5.5200,37.8000,
7.055603,0.3772,0.7482,0.2196,0.0197,0.1795,-0.1923,28.8600,-5.5200,37.8000,
7.064788,0.3772,0.7482,0.2196,0.0874,0.2232,-0.2162,28.8600,-5.5200,37.8000,
7.085736,0.3772,0.7482,0.2196,0.1284,0.3254,-0.2423,28.8600,-5.5200,37.8000,
7.102215,0.3772,0.7482,0.2196,0.1284,0.3254,-0.2423,29.4600,-5.6400,36.7800,
7.105315,0.3772,0.7482,0.2196,0.2317,0.5167,-0.1571,29.4600,-5.6400,36.7800,
7.113834,0.3772,0.7482,0.2196,0.2317,0.5167,-0.1571,29.4600,-5.6400,36.7800,
7.115153,-1.0884,2.5124,0.0946,0.2317,0.5167,-0.1571,29.4600,-5.6400,36.7800,
7.126721,-1.0884,2.5124,0.0946,0.3260,0.5928,-0.0852,29.4600,-5.6400,36.7800,
7.147503,-1.0884,2.5124,0.0946,0.1864,-0.1912,0.0479,29.4600,-5.6400,36.7800,
7.163919,-1.0884,2.5124,0.0946,0.1864,-0.1912,0.0479,30.4200,-5.3400,36.4800,
7.167655,-1.0884,2.5124,0.0946,0.0874,-0.5246,-0.0202,30.4200,-5.3400,36.4800,
7.175848,-1.0884,2.5124,0.0946,0.0874,-0.5246,-0.0202,30.4200,-5.3400,36.4800,
7.176852,0.4772,2.1118,0.1733,0.0874,-0.5246,-0.0202,30.4200,-5.3400,36.4800,
7.188495,0.4772,2.1118,0.1733,0.1241,0.2147,-0.1204,30.4200,-5.3400,36.4800,
7.209193,0.4772,2.1118,0.1733,0.3521,0.6397,-0.2221,30.4200,-5.3400,36.4800,
7.226117,0.4772,2.1118,0.1733,0.3521,0.6397,-0.2221,30.2400,-5.0400,36.2400,
7.230640,0.4772,2.1118,0.1733,0.1822,0.3334,-0.2844,30.2400,-5.0400,36.2400,
7.237455,0.4772,2.1118,0.1733,0.1822,0.3334,-0.2844,30.2400,-5.0400,36.2400,
7.238518,2.4830,0.5686,-0.9714,0.1822,0.3334,-0.2844,30.2400,-5.0400,36.2400,
7.250206,2.4830,0.5686,-0.9714,-0.0362,-0.0719,-0.4884,30.2400,-5.0400,36.2400,
7.270483,2.4830,0.5686,-0.9714,-0.5241,-0.6317,-1.1270,30.2400,-5.0400,36.2400,
7.287919,2.4830,0.5686,-0.9714,-0.5241,-0.6317,-1.1270,30.0000,-4.5600,36.1800,
7.291062,2.4830,0.5686,-0.9714,-0.8613,-0.6232,-1.5313,30.0000,-4.5600,36.1800,
7.299844,2.4830,0.5686,-0.9714,-0.8613,-0.6232,-1.5313,30.0000,-4.5600,36.1800,
7.301435,-0.6887,1.2289,-0.8460,-0.8613,-0.6232,-1.5313,30.0000,-4.5600,36.1800,
7.313752,-0.6887,1.2289,-0.8460,-0.8613,-0.4256,-1.3795,30.0000,-4.5600,36.1800,
7.331304,-0.6887,1.2289,-0.8460,-0.6450,-0.8016,-0.9806,30.0000,-4.5600,36.1800,
7.349310,-0.6887,1.2289,-0.8460,-0.6450,-0.8016,-0.9806,30.3000,-3.8400,36.4800,
7.352631,-0.6887,1.2289,-0.8460,-0.6269,-1.1713,-0.7558,30.3000,-3.8400,36.4800,
7.360938,-0.6887,1.2289,-0.8460,-0.6269,-1.1713,-0.7558,30.3000,-3.8400,36.4800,
7.361867,0.8622,-1.0379,-0.6863,-0.6269,-1.1713,-0.7558,30.3000,-3.8400,36.4800,
7.372620,0.8622,-1.0379,-0.6863,-0.7430,-1.3028,-0.6285,30.3000,-3.8400,36.4800,
7.393809,0.8622,-1.0379,-0.6863,-1.1116,-1.2368,-0.4788,30.3000,-3.8400,36.4800,
7.411720,0.8622,-1.0379,-0.6863,-1.1116,-1.2368,-0.4788,30.7800,-3.0600,35.4000,
7.416589,0.8622,-1.0379,-0.6863,-1.1952,-0.4229,-0.4922,30.7800,-3.0600,35.4000,
7.423042,0.8622,-1.0379,-0.6863,-1.1952,-0.4229,-0.4922,30.7800,-3.0600,35.4000,
7.424005,1.0879,0.6645,0.6525,-1.1952,-0.4229,-0.4922,30.7800,-3.0600,35.4000,
7.435260,1.0879,0.6645,0.6525,-0.7111,0.0128,-0.5135,30.7800,-3.0600,35.4000,
7.455855,1.0879,0.6645,0.6525,-0.5864,-0.1513,-0.4682,30.7800,-3.0600,35.4000,
7.472500,1.0879,0.6645,0.6525,-0.5864,-0.1513,-0.4682,32.4600,-2.4000,34.0800,
7.475633,1.0879,0.6645,0.6525,-0.2280,0.0192,-0.4352,32.4600,-2.4000,34.0800,
7.482973,1.0879,0.6645,0.6525,-0.2280,0.0192,-0.4352,32.4600,-2.4000,34.0800,
7.484533,0.5855,-0.2190,1.8178,-0.2280,0.0192,-0.4352,32.4600,-2.4000,34.0800,
7.497162,0.5855,-0.2190,1.8178,0.0746,-0.0660,-0.6866,32.4600,-2.4000,34.0800,
7.516915,0.5855,-0.2190,1.8178,0.3430,-0.1087,-0.7755,32.4600,-2.4000,34.0800,
7.534020,0.5855,-0.2190,1.8178,0.3430,-0.1087,-0.7755,33.3000,-2.4600,33.0000,
7.536758,0.5855,-0.2190,1.8178,0.6237,0.0618,-0.6328,33.3000,-2.4600,33.0000,
7.547654,0.5855,-0.2190,1.8178,0.6237,0.0618,-0.6328,33.3000,-2.4600,33.0000,
7.549268,1.3900,1.3919,0.1639,0.6237,0.0618,-0.6328,33.3000,-2.4600,33.0000,
7.557905,1.3900,1.3919,0.1639,0.7984,0.2695,-0.4181,33.3000,-2.4600,33.0000,
7.579034,1.3900,1.3919,0.1639,0.7089,0.3473,-0.0511,33.3000,-2.4600,33.0000,
7.594844,1.3900,1.3919,0.1639,0.7089,0.3473,-0.0511,34.2600,-2.1000,31.8600,
7.598942,1.3900,1.3919,0.1639,0.8219,0.6663,0.1060,34.2600,-2.1000,31.8600,
7.607100,1.3900,1.3919,0.1639,0.8219,0.6663,0.1060,34.2600,-2.1000,31.8600,
7.608144,1.0478,1.9948,0.5704,0.8219,0.6663,0.1060,34.2600,-2.1000,31.8600,
7.619422,1.0478,1.9948,0.5704,0.6599,0.5342,0.1406,34.2600,-2.1000,31.8600,
7.640135,1.0478,1.9948,0.5704,0.2743,0.3372,0.2573,34.2600,-2.1000,31.8600,
7.657164,1.0478,1.9948,0.5704,0.2743,0.3372,0.2573,34.6800,-1.4400,31.2600,
7.660576,1.0478,1.9948,0.5704,-0.2344,0.0021,0.5108,34.6800,-1.4400,31.2600,
7.667981,1.0478,1.9948,0.5704,-0.2344,0.0021,0.5108,34.6800,-1.4400,31.2600,
7.669615,1.1462,-0.5480,0.0251,-0.2344,0.0021,0.5108,34.6800,-1.4400,31.2600,
7.681161,1.1462,-0.5480,0.0251,-0.6328,-0.3132,0.2732,34.6800,-1.4400,31.2600,
7.701642,1.1462,-0.5480,0.0251,-0.3462,-0.4895,-0.7659,34.6800,-1.4400,31.2600,
7.718693,1.1462,-0.5480,0.0251,-0.3462,-0.4895,-0.7659,34.3800,-0.9000,31.7400,
7.723337,1.1462,-0.5480,0.0251,-0.0810,-0.4527,-2.0980,34.3800,-0.9000,31.7400,
7.731332,1.1462,-0.5480,0.0251,-0.0810,-0.4527,-2.0980,34.3800,-0.9000,31.7400,
7.733028,1.5407,0.2211,-0.6589,-0.0810,-0.4527,-2.0980,34.3800,-0.9000,31.7400,
7.742306,1.5407,0.2211,-0.6589,-0.4043,-0.0660,-2.5513,34.3800,-0.9000,31.7400,
7.762964,1.5407,0.2211,-0.6589,-0.4804,0.1039,-1.6346,34.3800,-0.9000,31.7400,
7.780720,1.5407,0.2211,-0.6589,-0.4804,0.1039,-1.6346,34.7400,0.6000,32.1000,
7.783503,1.5407,0.2211,-0.6589,-0.5534,-0.1901,-1.1968,34.7400,0.6000,32.1000,
7.792190,1.5407,0.2211,-0.6589,-0.5534,-0.1901,-1.1968,34.7400,0.6000,32.1000,
7.793277,0.5513,1.8997,-0.6746,-0.5534,-0.1901,-1.1968,34.7400,0.6000,32.1000,
7.804953,0.5513,1.8997,-0.6746,-0.4021,-0.0469,-1.1089,34.7400,0.6000,32.1000,
7.823938,0.5513,1.8997,-0.6746,0.5651,0.7366,-1.1521,34.7400,0.6000,32.1000,
7.841628,0.5513,1.8997,-0.6746,0.5651,0.7366,-1.1521,34.9200,2.0400,32.4600,
7.844099,0.5513,1.8997,-0.6746,0.9316,1.1393,-1.3912,34.9200,2.0400,32.4600,
7.853605,0.5513,1.8997,-0.6746,0.9316,1.1393,-1.3912,34.9200,2.0400,32.4600,
7.855022,-0.2975,0.5138,-0.5843,0.9316,1.1393,-1.3912,34.9200,2.0400,32.4600,
7.865329,-0.2975,0.5138,-0.5843,0.9204,1.2650,-1.2101,34.9200,2.0400,32.4600,
7.886639,-0.2975,0.5138,-0.5843,0.6413,0.9023,-0.8799,34.9200,2.0400,32.4600,
7.903258,-0.2975,0.5138,-0.5843,0.6413,0.9023,-0.8799,35.1000,3.5400,32.5800,
7.906528,-0.2975,0.5138,-0.5843,0.3052,1.0461,-0.6935,35.1000,3.5400,32.5800,
7.915129,-0.2975,0.5138,-0.5843,0.3052,1.0461,-0.6935,35.1000,3.5400,32.5800,
7.916764,-1.5846,-1.8027,2.1963,0.3052,1.0461,-0.6935,35.1000,3.5400,32.5800,
7.927347,-1.5846,-1.8027,2.1963,0.5912,1.2203,-0.6312,35.1000,3.5400,32.5800,
7.948046,-1.5846,-1.8027,2.1963,0.7931,1.0653,-0.3824,35.1000,3.5400,32.5800,
7.965003,-1.5846,-1.8027,2.1963,0.7931,1.0653,-0.3824,34.5000,5.8800,32.7600,
7.968650,-1.5846,-1.8027,2.1963,0.5358,1.2799,-0.4005,34.5000,5.8800,32.7600,
7.976792,-1.5846,-1.8027,2.1963,0.5358,1.2799,-0.4005,34.5000,5.8800,32.7600,
7.977750,-0.5462,-0.9427,0.7081,0.5358,1.2799,-0.4005,34.5000,5.8800,32.7600,
7.989263,-0.5462,-0.9427,0.7081,0.2248,1.2133,-0.5230,34.5000,5.8800,32.7600,
8.010186,-0.5462,-0.9427,0.7081,-0.0288,1.1920,-0.6626,34.5000,5.8800,32.7600,
8.026284,-0.5462,-0.9427,0.7081,-0.0288,1.1920,-0.6626,33.4800,8.4600,33.8400,
8.030854,-0.5462,-0.9427,0.7081,-0.1667,1.0466,-0.7436,33.4800,8.4600,33.8400,
8.038347,-0.5462,-0.9427,0.7081,-0.1667,1.0466,-0.7436,33.4800,8.4600,33.8400,
8.039367,-3.2084,-1.5882,1.6500,-0.1667,1.0466,-0.7436,33.4800,8.4600,33.8400,
8.051137,-3.2084,-1.5882,1.6500,-0.4932,0.4708,-0.7420,33.4800,8.4600,33.8400,
8.070668,-3.2084,-1.5882,1.6500,-0.9854,-0.1518,-0.8394,33.4800,8.4600,33.8400,
8.087682,-3.2084,-1.5882,1.6500,-0.9854,-0.1518,-0.8394,31.3200,10.3800,35.1600,
8.091295,-3.2084,-1.5882,1.6500,-1.7976,-0.1827,-0.8495,31.3200,10.3800,35.1600,
8.099899,-3.2084,-1.5882,1.6500,-1.7976,-0.1827,-0.8495,31.3200,10.3800,35.1600,
8.101553,-1.8709,0.0227,0.9663,-1.7976,-0.1827,-0.8495,31.3200,10.3800,35.1600,
8.111457,-1.8709,0.0227,0.9663,-1.4035,1.0051,-0.7526,31.3200,10.3800,35.1600,
8.132474,-1.8709,0.0227,0.9663,-1.2501,0.6924,-1.2000,31.3200,10.3800,35.1600,
8.149500,-1.8709,0.0227,0.9663,-1.2501,0.6924,-1.2000,29.2800,11.4600,36.8400,
8.152930,-1.8709,0.0227,0.9663,-1.2778,0.3425,-1.7007,29.2800,11.4600,36.8400,
8.161489,-1.8709,0.0227,0.9663,-1.2778,0.3425,-1.7007,29.2800,11.4600,36.8400,
8.162435,-0.7761,-0.6501,0.5871,-1.2778,0.3425,-1.7007,29.2800,11.4600,36.8400,
8.173767,-0.7761,-0.6501,0.5871,-1.3369,0.0799,-1.7694,29.2800,11.4600,36.8400,
8.193618,-0.7761,-0.6501,0.5871,-1.3007,0.2189,-1.6549,29.2800,11.4600,36.8400,
8.211526,-0.7761,-0.6501,0.5871,-1.3007,0.2189,-1.6549,27.3000,11.2200,38.5800,
8.215946,-0.7761,-0.6501,0.5871,-0.9204,0.5348,-1.4988,27.3000,11.2200,38.5800,
8.224033,-0.7761,-0.6501,0.5871,-0.9204,0.5348,-1.4988,27.3000,11.2200,38.5800,
8.225335,-1.0255,-1.7364,0.2065,-0.9204,0.5348,-1.4988,27.3000,11.2200,38.5800,
8.235239,-1.0255,-1.7364,0.2065,-0.4171,0.1678,-1.7918,27.3000,11.2200,38.5800,
8.256092,-1.0255,-1.7364,0.2065,-0.3228,-0.0202,-1.7534,27.3000,11.2200,38.5800,
8.272924,-1.0255,-1.7364,0.2065,-0.3228,-0.0202,-1.7534,25.2600,9.8400,39.5400,
8.275851,-1.0255,-1.7364,0.2065,-0.4890,0.2269,-1.6432,25.2600,9.8400,39.5400,
8.285519,-1.0255,-1.7364,0.2065,-0.4890,0.2269,-1.6432,25.2600,9.8400,39.5400,
8.287062,0.1204,0.8754,-0.0904,-0.4890,0.2269,-1.6432,25.2600,9.8400,39.5400,
8.297557,0.1204,0.8754,-0.0904,-0.4895,0.2573,-1.8813,25.2600,9.8400,39.5400,
8.317495,0.1204,0.8754,-0.0904,-0.5673,0.1507,-1.9409,25.2600,9.8400,39.5400,
8.334456,0.1204,0.8754,-0.0904,-0.5673,0.1507,-1.9409,23.5800,9.5400,40.8000,
8.337748,0.1204,0.8754,-0.0904,-0.5971,0.0708,-1.8381,23.5800,9.5400,40.8000,
8.347416,0.1204,0.8754,-0.0904,-0.5971,0.0708,-1.8381,23.5800,9.5400,40.8000,
8.349052,0.5605,-0.8998,-0.1468,-0.5971,0.0708,-1.8381,23.5800,9.5400,40.8000,
8.358336,0.5605,-0.8998,-0.1468,-0.5806,0.0719,-1.6943,23.5800,9.5400,40.8000,
8.379173,0.5605,-0.8998,-0.1468,-0.5438,0.0144,-1.6165,23.5800,9.5400,40.8000,
8.397264,0.5605,-0.8998,-0.1468,-0.5438,0.0144,-1.6165,21.5400,9.4200,41.9400,
8.398921,0.5605,-0.8998,-0.1468,-0.5704,-0.0490,-1.5718,21.5400,9.4200,41.9400,
8.407458,0.5605,-0.8998,-0.1468,-0.5704,-0.0490,-1.5718,21.5400,9.4200,41.9400,
8.408497,0.4665,-0.6616,-0.1578,-0.5704,-0.0490,-1.5718,21.5400,9.4200,41.9400,
8.420035,0.4665,-0.6616,-0.1578,-0.5374,0.0948,-1.5089,21.5400,9.4200,41.9400,
8.439137,0.4665,-0.6616,-0.1578,-0.5305,0.2477,-1.2000,21.5400,9.4200,41.9400,
8.457023,0.4665,-0.6616,-0.1578,-0.5305,0.2477,-1.2000,19.6200,9.7800,42.6000,
8.460897,0.4665,-0.6616,-0.1578,-0.4357,0.2876,-0.9294,19.6200,9.7800,42.6000,
8.468965,0.4665,-0.6616,-0.1578,-0.4357,0.2876,-0.9294,19.6200,9.7800,42.6000,
8.470505,0.5452,0.8159,-0.0657,-0.4357,0.2876,-0.9294,19.6200,9.7800,42.6000,
8.481216,0.5452,0.8159,-0.0657,-0.3372,0.5065,-0.9055,19.6200,9.7800,42.6000,
8.502600,0.5452,0.8159,-0.0657,-0.2993,0.5950,-0.9603,19.6200,9.7800,42.6000,
8.519087,0.5452,0.8159,-0.0657,-0.2993,0.5950,-0.9603,17.9400,10.3800,43.3800,
8.522805,0.5452,0.8159,-0.0657,-0.2999,0.5273,-0.9023,17.9400,10.3800,43.3800,
8.534111,0.5452,0.8159,-0.0657,-0.2999,0.5273,-0.9023,17.9400,10.3800,43.3800,
8.535666,0.3669,0.2722,-0.8901,-0.2999,0.5273,-0.9023,17.9400,10.3800,43.3800,
8.542066,0.3669,0.2722,-0.8901,-0.4139,0.4261,-0.8842,17.9400,10.3800,43.3800,
8.563384,0.3669,0.2722,-0.8901,-0.3750,0.4852,-0.9694,17.9400,10.3800,43.3800,
8.580462,0.3669,0.2722,-0.8901,-0.3750,0.4852,-0.9694,16.0800,9.9600,43.5000,
8.583678,0.3669,0.2722,-0.8901,-0.3579,0.3995,-0.8772,16.0800,9.9600,43.5000,
8.591807,0.3669,0.2722,-0.8901,-0.3579,0.3995,-0.8772,16.0800,9.9600,43.5000,
8.592887,0.1408,-0.2823,-0.0175,-0.3579,0.3995,-0.8772,16.0800,9.9600,43.5000,
8.604265,0.1408,-0.2823,-0.0175,-0.4250,0.2338,-0.7910,16.0800,9.9600,43.5000,
8.625166,0.1408,-0.2823,-0.0175,-1.2501,1.4552,-0.7899,16.0800,9.9600,43.5000,
8.642120,0.1408,-0.2823,-0.0175,-1.2501,1.4552,-0.7899,14.4600,9.4800,43.6800,
8.646907,0.1408,-0.2823,-0.0175,-1.2916,1.6421,-0.7771,14.4600,9.4800,43.6800,
8.653919,0.1408,-0.2823,-0.0175,-1.2916,1.6421,-0.7771,14.4600,9.4800,43.6800,
8.654894,-0.0989,-0.8318,2.4935,-1.2916,1.6421,-0.7771,14.4600,9.4800,43.6800,
8.666648,-0.0989,-0.8318,2.4935,-0.4495,1.1473,-0.6977,14.4600,9.4800,43.6800,
8.686810,-0.0989,-0.8318,2.4935,-0.2466,0.7681,-0.5502,14.4600,9.4800,43.6800,
8.703024,-0.0989,-0.8318,2.4935,-0.2466,0.7681,-0.5502,13.1400,8.5800,44.4000,
8.705816,-0.0989,-0.8318,2.4935,-0.1870,0.5880,-0.2983,13.1400,8.5800,44.4000,
8.713916,-0.0989,-0.8318,2.4935,-0.1870,0.5880,-0.2983,13.1400,8.5800,44.4000,
8.715209,1.2736,-0.1496,-0.5597,-0.1870,0.5880,-0.2983,13.1400,8.5800,44.4000,
8.726518,1.2736,-0.1496,-0.5597,-0.1838,0.5768,-0.0463,13.1400,8.5800,44.4000,
8.747369,1.2736,-0.1496,-0.5597,-0.1092,0.4756,-0.0165,13.1400,8.5800,44.4000,
8.764044,1.2736,-0.1496,-0.5597,-0.1092,0.4756,-0.0165,10.8600,7.5000,44.4600,
8.767293,1.2736,-0.1496,-0.5597,-0.0091,0.5539,-0.0138,10.8600,7.5000,44.4600,
8.775978,1.2736,-0.1496,-0.5597,-0.0091,0.5539,-0.0138,10.8600,7.5000,44.4600,
8.776541,-0.1009,-0.8786,0.5437,-0.0091,0.5539,-0.0138,10.8600,7.5000,44.4600,
8.789202,-0.1009,-0.8786,0.5437,0.2338,0.2834,0.0501,10.8600,7.5000,44.4600,
8.809730,-0.1009,-0.8786,0.5437,0.3089,0.1220,0.1028,10.8600,7.5000,44.4600,
8.826666,-0.1009,-0.8786,0.5437,0.3089,0.1220,0.1028,8.7600,6.6000,44.8200,
8.830913,-0.1009,-0.8786,0.5437,0.1513,0.2418,0.1204,8.7600,6.6000,44.8200,
8.841007,-0.1009,-0.8786,0.5437,0.1513,0.2418,0.1204,8.7600,6.6000,44.8200,
8.842099,0.5247,-1.8802,-0.0771,0.1513,0.2418,0.1204,8.7600,6.6000,44.8200,
8.851053,0.5247,-1.8802,-0.0771,0.2274,0.1523,0.0517,8.7600,6.6000,44.8200,
8.870855,0.5247,-1.8802,-0.0771,0.3451,-0.1316,-0.1310,8.7600,6.6000,44.8200,
8.888121,0.5247,-1.8802,-0.0771,0.3451,-0.1316,-0.1310,6.6600,5.7000,45.2400,
8.891231,0.5247,-1.8802,-0.0771,0.4719,-0.1172,-0.2748,6.6600,5.7000,45.2400,
8.900553,0.5247,-1.8802,-0.0771,0.4719,-0.1172,-0.2748,6.6600,5.7000,45.2400,
8.902020,-0.2702,-0.4566,-0.0901,0.4719,-0.1172,-0.2748,6.6600,5.7000,45.2400,
8.911607,-0.2702,-0.4566,-0.0901,0.5662,0.3164,-0.3222,6.6600,5.7000,45.2400,
8.931048,-0.2702,-0.4566,-0.0901,0.6035,0.3755,-0.4453,6.6600,5.7000,45.2400,
8.948452,-0.2702,-0.4566,-0.0901,0.6035,0.3755,-0.4453,4.9800,5.2800,44.9400,
8.952060,-0.2702,-0.4566,-0.0901,0.6067,0.5907,-0.4533,4.9800,5.2800,44.9400,
8.961216,-0.2702,-0.4566,-0.0901,0.6067,0.5907,-0.4533,4.9800,5.2800,44.9400,
8.962044,0.1636,-0.3983,0.5616,0.6067,0.5907,-0.4533,4.9800,5.2800,44.9400,
8.973473,0.1636,-0.3983,0.5616,0.6828,0.4996,-0.4458,4.9800,5.2800,44.9400,
8.994802,0.1636,-0.3983,0.5616,0.6237,0.3174,-0.3984,4.9800,5.2800,44.9400,
9.011013,0.1636,-0.3983,0.5616,0.6237,0.3174,-0.3984,4.3800,5.8200,45.0600,
9.015442,0.1636,-0.3983,0.5616,0.5183,0.4192,-0.4591,4.3800,5.8200,45.0600,
9.022743,0.1636,-0.3983,0.5616,0.5183,0.4192,-0.4591,4.3800,5.8200,45.0600,
9.023669,-0.3106,-0.0408,0.5013,0.5183,0.4192,-0.4591,4.3800,5.8200,45.0600,
9.035922,-0.3106,-0.0408,0.5013,0.4325,0.5284,-0.5268,4.3800,5.8200,45.0600,
9.055647,-0.3106,-0.0408,0.5013,0.5268,0.5577,-0.6088,4.3800,5.8200,45.0600,
9.072893,-0.3106,-0.0408,0.5013,0.5268,0.5577,-0.6088,3.9600,6.6600,45.3000,
9.076124,-0.3106,-0.0408,0.5013,0.7047,0.5523,-0.6930,3.9600,6.6600,45.3000,
9.084833,-0.3106,-0.0408,0.5013,0.7047,0.5523,-0.6930,3.9600,6.6600,45.3000,
9.086346,0.7910,-0.2212,-0.2425,0.7047,0.5523,-0.6930,3.9600,6.6600,45.3000,
9.098185,0.7910,-0.2212,-0.2425,0.6898,0.4282,-0.7228,3.9600,6.6600,45.3000,
9.117544,0.7910,-0.2212,-0.2425,0.5593,0.4602,-0.6301,3.9600,6.6600,45.3000,
9.135274,0.7910,-0.2212,-0.2425,0.5593,0.4602,-0.6301,2.7600,8.2800,44.3400,
9.138911,0.7910,-0.2212,-0.2425,0.3350,0.3952,-0.5491,2.7600,8.2800,44.3400,
9.148038,0.7910,-0.2212,-0.2425,0.3350,0.3952,-0.5491,2.7600,8.2800,44.3400,
9.149944,0.4814,1.6340,-0.8506,0.3350,0.3952,-0.5491,2.7600,8.2800,44.3400,
9.158934,0.4814,1.6340,-0.8506,0.1907,0.3979,-0.5641,2.7600,8.2800,44.3400,
9.179499,0.4814,1.6340,-0.8506,-0.0250,0.4234,-0.6189,2.7600,8.2800,44.3400,
9.196679,0.4814,1.6340,-0.8506,-0.0250,0.4234,-0.6189,1.6800,9.1800,44.3400,
9.199330,0.4814,1.6340,-0.8506,-0.0959,0.3675,-0.5928,1.6800,9.1800,44.3400,
9.207511,0.4814,1.6340,-0.8506,-0.0959,0.3675,-0.5928,1.6800,9.1800,44.3400,
9.208637,0.2727,0.7636,0.5847,-0.0959,0.3675,-0.5928,1.6800,9.1800,44.3400,
9.220582,0.2727,0.7636,0.5847,0.0293,0.2344,-0.6210,1.6800,9.1800,44.3400,
9.240329,0.2727,0.7636,0.5847,0.0192,0.0847,-0.6930,1.6800,9.1800,44.3400,
9.257860,0.2727,0.7636,0.5847,0.0192,0.0847,-0.6930,-0.3000,9.9000,43.8000,
9.259748,0.2727,0.7636,0.5847,-0.1001,0.2423,-0.7233,-0.3000,9.9000,43.8000,
9.269621,0.2727,0.7636,0.5847,-0.1001,0.2423,-0.7233,-0.3000,9.9000,43.8000,
9.271161,0.7320,1.0774,-0.2042,-0.1001,0.2423,-0.7233,-0.3000,9.9000,43.8000,
9.281269,0.7320,1.0774,-0.2042,-0.1529,0.0762,-0.7009,-0.3000,9.9000,43.8000,
9.302396,0.7320,1.0774,-0.2042,-0.0421,-0.2578,-0.7057,-0.3000,9.9000,43.8000,
9.319137,0.7320,1.0774,-0.2042,-0.0421,-0.2578,-0.7057,-2.2200,10.4400,43.1400,
9.322529,0.7320,1.0774,-0.2042,0.0128,-1.1068,-0.6743,-2.2200,10.4400,43.1400,
9.330013,0.7320,1.0774,-0.2042,0.0128,-1.1068,-0.6743,-2.2200,10.4400,43.1400,
9.331474,0.7059,1.0631,-0.5954,0.0128,-1.1068,-0.6743,-2.2200,10.4400,43.1400,
9.343068,0.7059,1.0631,-0.5954,-0.2807,-1.5510,-0.8155,-2.2200,10.4400,43.1400,
9.363108,0.7059,1.0631,-0.5954,-0.5124,-1.3619,-0.7782,-2.2200,10.4400,43.1400,
9.379945,0.7059,1.0631,-0.5954,-0.5124,-1.3619,-0.7782,-3.0000,10.6200,43.0800,
9.383827,0.7059,1.0631,-0.5954,-0.4804,-0.6456,-0.6088,-3.0000,10.6200,43.0800,
9.392231,0.7059,1.0631,-0.5954,-0.4804,-0.6456,-0.6088,-3.0000,10.6200,43.0800,
9.393164,1.9047,0.2940,1.0340,-0.4804,-0.6456,-0.6088,-3.0000,10.6200,43.0800,
9.404187,1.9047,0.2940,1.0340,-0.1198,0.0170,-0.3324,-3.0000,10.6200,43.0800,
9.425953,1.9047,0.2940,1.0340,0.1577,0.0879,0.0282,-3.0000,10.6200,43.0800,
9.442972,1.9047,0.2940,1.0340,0.1577,0.0879,0.0282,-3.1200,10.9800,43.2600,
9.448548,1.9047,0.2940,1.0340,0.0352,0.0911,0.2637,-3.1200,10.9800,43.2600,
9.454339,1.9047,0.2940,1.0340,0.0352,0.0911,0.2637,-3.1200,10.9800,43.2600,
9.455387,0.8673,0.0408,-1.1479,0.0352,0.0911,0.2637,-3.1200,10.9800,43.2600,
9.466562,0.8673,0.0408,-1.1479,-0.1571,0.1342,0.4533,-3.1200,10.9800,43.2600,
9.487202,0.8673,0.0408,-1.1479,-0.2807,0.0378,0.4378,-3.1200,10.9800,43.2600,
9.504306,0.8673,0.0408,-1.1479,-0.2807,0.0378,0.4378,-2.0400,10.9800,43.9200,
9.506421,0.8673,0.0408,-1.1479,-0.3031,0.0336,0.3979,-2.0400,10.9800,43.9200,
9.515399,0.8673,0.0408,-1.1479,-0.3031,0.0336,0.3979,-2.0400,10.9800,43.9200,
9.517103,0.0352,-0.1770,-0.3503,-0.3031,0.0336,0.3979,-2.0400,10.9800,43.9200,
9.528045,0.0352,-0.1770,-0.3503,-0.3712,-0.0399,0.8650,-2.0400,10.9800,43.9200,
9.548688,0.0352,-0.1770,-0.3503,-0.3089,0.5396,1.2554,-2.0400,10.9800,43.9200,
9.564963,0.0352,-0.1770,-0.3503,-0.3089,0.5396,1.2554,-0.8400,11.6400,45.0600,
9.568903,0.0352,-0.1770,-0.3503,-0.2653,1.1015,1.2197,-0.8400,11.6400,45.0600,
9.577103,0.0352,-0.1770,-0.3503,-0.2653,1.1015,1.2197,-0.8400,11.6400,45.0600,
9.578063,1.1732,-1.4901,0.4651,-0.2653,1.1015,1.2197,-0.8400,11.6400,45.0600,
9.589420,1.1732,-1.4901,0.4651,-0.0469,0.8469,0.8810,-0.8400,11.6400,45.0600,
9.610159,1.1732,-1.4901,0.4651,0.2354,0.4969,0.4304,-0.8400,11.6400,45.0600,
9.626955,1.1732,-1.4901,0.4651,0.2354,0.4969,0.4304,-0.9000,11.7000,46.2000,
9.631189,1.1732,-1.4901,0.4651,0.2796,0.3798,0.2333,-0.9000,11.7000,46.2000,
9.639399,1.1732,-1.4901,0.4651,0.2796,0.3798,0.2333,-0.9000,11.7000,46.2000,
9.640518,0.1898,-0.4977,-0.4591,0.2796,0.3798,0.2333,-0.9000,11.7000,46.2000,
9.651422,0.1898,-0.4977,-0.4591,0.2248,0.1827,-0.2125,-0.9000,11.7000,46.2000,
9.671606,0.1898,-0.4977,-0.4591,0.1161,-0.0724,-0.3862,-0.9000,11.7000,46.2000,
9.688052,0.1898,-0.4977,-0.4591,0.1161,-0.0724,-0.3862,-2.1000,11.7600,46.2600,
9.691462,0.1898,-0.4977,-0.4591,-0.0426,-0.4309,0.0884,-2.1000,11.7600,46.2600,
9.699595,0.1898,-0.4977,-0.4591,-0.0426,-0.4309,0.0884,-2.1000,11.7600,46.2600,
9.701249,0.3655,-0.4456,-0.0804,-0.0426,-0.4309,0.0884,-2.1000,11.7600,46.2600,
9.714270,0.3655,-0.4456,-0.0804,0.0170,-0.3707,0.1848,-2.1000,11.7600,46.2600,
9.733248,0.3655,-0.4456,-0.0804,0.0053,-0.6727,0.1555,-2.1000,11.7600,46.2600,
9.750230,0.3655,-0.4456,-0.0804,0.0053,-0.6727,0.1555,-3.7200,11.2800,46.2600,
9.753668,0.3655,-0.4456,-0.0804,-0.0123,-0.7462,0.2429,-3.7200,11.2800,46.2600,
9.764308,0.3655,-0.4456,-0.0804,-0.0123,-0.7462,0.2429,-3.7200,11.2800,46.2600,
9.766521,0.2668,-0.8606,-0.0411,-0.0123,-0.7462,0.2429,-3.7200,11.2800,46.2600,
9.773859,0.2668,-0.8606,-0.0411,-0.1065,-0.8203,0.5129,-3.7200,11.2800,46.2600,
9.795077,0.2668,-0.8606,-0.0411,-0.2210,-0.8794,0.7196,-3.7200,11.2800,46.2600,
9.811605,0.2668,-0.8606,-0.0411,-0.2210,-0.8794,0.7196,-4.1400,10.1400,45.3000,
9.815714,0.2668,-0.8606,-0.0411,-0.2690,-0.9294,0.7963,-4.1400,10.1400,45.3000,
9.823512,0.2668,-0.8606,-0.0411,-0.2690,-0.9294,0.7963,-4.1400,10.1400,45.3000,
9.824515,1.1132,-1.2892,-0.3709,-0.2690,-0.9294,0.7963,-4.1400,10.1400,45.3000,
9.836004,1.1132,-1.2892,-0.3709,-0.3238,-0.9305,0.7665,-4.1400,10.1400,45.3000,
9.857215,1.1132,-1.2892,-0.3709,-0.5044,-0.4629,0.8767,-4.1400,10.1400,45.3000,
9.873318,1.1132,-1.2892,-0.3709,-0.5044,-0.4629,0.8767,-2.9400,9.3000,43.8000,
9.876088,1.1132,-1.2892,-0.3709,-0.2967,-0.9023,0.7926,-2.9400,9.3000,43.8000,
9.884537,1.1132,-1.2892,-0.3709,-0.2967,-0.9023,0.7926,-2.9400,9.3000,43.8000,
9.886101,0.4644,-0.5020,-0.5651,-0.2967,-0.9023,0.7926,-2.9400,9.3000,43.8000,
9.898474,0.4644,-0.5020,-0.5651,-0.3201,-1.1457,0.7132,-2.9400,9.3000,43.8000,
9.918009,0.4644,-0.5020,-0.5651,-0.5843,-1.2064,0.8080,-2.9400,9.3000,43.8000,
9.935072,0.4644,-0.5020,-0.5651,-0.5843,-1.2064,0.8080,-0.4200,8.2800,43.3200,
9.938371,0.4644,-0.5020,-0.5651,-0.6147,-1.2181,1.0823,-0.4200,8.2800,43.3200,
9.947408,0.4644,-0.5020,-0.5651,-0.6147,-1.2181,1.0823,-0.4200,8.2800,43.3200,
9.949044,-0.9167,-0.9164,-0.6875,-0.6147,-1.2181,1.0823,-0.4200,8.2800,43.3200,
9.957934,-0.9167,-0.9164,-0.6875,-0.5342,-1.2751,1.2149,-0.4200,8.2800,43.3200,
9.980674,-0.9167,-0.9164,-0.6875,-0.1135,-1.0946,1.1686,-0.4200,8.2800,43.3200,
9.996683,-0.9167,-0.9164,-0.6875,-0.1135,-1.0946,1.1686,3.0000,7.4400,43.5000,
9.998959,-0.9167,-0.9164,-0.6875,0.2354,-1.1324,1.0988,3.0000,7.4400,43.5000,
10.008286,-0.9167,-0.9164,-0.6875,0.2354,-1.1324,1.0988,3.0000,7.4400,43.5000,
10.009331,-0.3473,-0.2552,0.2059,0.2354,-1.1324,1.0988,3.0000,7.4400,43.5000,
10.020799,-0.3473,-0.2552,0.2059,0.1742,-1.3635,1.1473,3.0000,7.4400,43.5000,
10.040547,-0.3473,-0.2552,0.2059,0.0101,-1.4030,1.2197,3.0000,7.4400,43.5000,
10.058043,-0.3473,-0.2552,0.2059,0.0101,-1.4030,1.2197,6.3600,6.6600,43.4400,
10.063246,-0.3473,-0.2552,0.2059,0.0916,-1.4940,1.2458,6.3600,6.6600,43.4400,
10.068261,-0.3473,-0.2552,0.2059,0.0916,-1.4940,1.2458,6.3600,6.6600,43.4400,
10.068706,0.8048,0.0379,0.1098,0.0916,-1.4940,1.2458,6.3600,6.6600,43.4400,
10.082333,0.8048,0.0379,0.1098,0.1305,-1.4221,1.1489,6.3600,6.6600,43.4400,
10.102656,0.8048,0.0379,0.1098,0.2285,-1.6107,1.0163,6.3600,6.6600,43.4400,
10.119413,0.8048,0.0379,0.1098,0.2285,-1.6107,1.0163,9.8400,6.1800,43.3800,
10.122768,0.8048,0.0379,0.1098,0.3409,-2.0773,0.7361,9.8400,6.1800,43.3800,
10.130645,0.8048,0.0379,0.1098,0.3409,-2.0773,0.7361,9.8400,6.1800,43.3800,
10.132068,-0.1522,0.1019,0.6455,0.3409,-2.0773,0.7361,9.8400,6.1800,43.3800,
10.143427,-0.1522,0.1019,0.6455,0.4874,-2.4442,0.8442,9.8400,6.1800,43.3800,
10.163906,-0.1522,0.1019,0.6455,0.5582,-2.4006,1.1516,9.8400,6.1800,43.3800,
10.180969,-0.1522,0.1019,0.6455,0.5582,-2.4006,1.1516,13.3800,5.2800,42.9600,
10.185200,-0.1522,0.1019,0.6455,0.4155,-2.2621,1.1904,13.3800,5.2800,42.9600,
10.193495,-0.1522,0.1019,0.6455,0.4155,-2.2621,1.1904,13.3800,5.2800,42.9600,
10.194617,1.3457,0.0587,-1.8816,0.4155,-2.2621,1.1904,13.3800,5.2800,42.9600,
10.205285,1.3457,0.0587,-1.8816,0.1811,-1.9622,1.0461,13.3800,5.2800,42.9600,
10.226270,1.3457,0.0587,-1.8816,0.0953,-2.0778,1.0466,13.3800,5.2800,42.9600,
10.242290,1.3457,0.0587,-1.8816,0.0953,-2.0778,1.0466,17.7600,4.7400,41.0400,
10.246265,1.3457,0.0587,-1.8816,0.2370,-2.5763,1.0269,17.7600,4.7400,41.0400,
10.254641,1.3457,0.0587,-1.8816,0.2370,-2.5763,1.0269,17.7600,4.7400,41.0400,
10.255727,-0.7229,0.0832,-0.4502,0.2370,-2.5763,1.0269,17.7600,4.7400,41.0400,
10.266562,-0.7229,0.0832,-0.4502,0.1577,-2.5513,1.0844,17.7600,4.7400,41.0400,
10.287337,-0.7229,0.0832,-0.4502,0.1923,-2.4714,0.9779,17.7600,4.7400,41.0400,
10.303917,-0.7229,0.0832,-0.4502,0.1923,-2.4714,0.9779,22.3800,3.8400,38.4000,
10.307554,-0.7229,0.0832,-0.4502,0.3270,-2.2056,0.8895,22.3800,3.8400,38.4000,
10.315774,-0.7229,0.0832,-0.4502,0.3270,-2.2056,0.8895,22.3800,3.8400,38.4000,
10.317309,-0.9754,-0.7998,1.9138,0.3270,-2.2056,0.8895,22.3800,3.8400,38.4000,
10.328179,-0.9754,-0.7998,1.9138,0.8064,-2.1311,0.7308,22.3800,3.8400,38.4000,
10.349442,-0.9754,-0.7998,1.9138,0.9215,-1.8988,0.6429,22.3800,3.8400,38.4000,
10.366381,-0.9754,-0.7998,1.9138,0.9215,-1.8988,0.6429,26.9400,3.6600,34.5600,
10.369527,-0.9754,-0.7998,1.9138,0.8543,-2.0389,0.4437,26.9400,3.6600,34.5600,
10.378114,-0.9754,-0.7998,1.9138,0.8543,-2.0389,0.4437,26.9400,3.6600,34.5600,
10.379205,0.1256,0.0508,-0.2116,0.8543,-2.0389,0.4437,26.9400,3.6600,34.5600,
10.390263,0.1256,0.0508,-0.2116,0.7776,-1.9191,0.3206,26.9400,3.6600,34.5600,
10.410574,0.1256,0.0508,-0.2116,0.6509,-1.3832,0.2796,26.9400,3.6600,34.5600,
10.427657,0.1256,0.0508,-0.2116,0.6509,-1.3832,0.2796,31.2600,3.1800,30.3600,
10.432190,0.1256,0.0508,-0.2116,0.5465,-1.2144,0.2280,31.2600,3.1800,30.3600,
10.439594,0.1256,0.0508,-0.2116,0.5465,-1.2144,0.2280,31.2600,3.1800,30.3600,
10.440725,-0.0672,0.3854,-0.0554,0.5465,-1.2144,0.2280,31.2600,3.1800,30.3600,
10.451518,-0.0672,0.3854,-0.0554,0.4671,-1.1595,0.2280,31.2600,3.1800,30.3600,
10.471868,-0.0672,0.3854,-0.0554,0.4607,-1.1697,0.2365,31.2600,3.1800,30.3600,
10.489187,-0.0672,0.3854,-0.0554,0.4607,-1.1697,0.2365,34.5600,2.3400,25.7400,
10.491273,-0.0672,0.3854,-0.0554,0.3968,-1.1771,0.1710,34.5600,2.3400,25.7400,
10.501099,-0.0672,0.3854,-0.0554,0.3968,-1.1771,0.1710,34.5600,2.3400,25.7400,
10.502759,0.6283,0.4206,0.7574,0.3968,-1.1771,0.1710,34.5600,2.3400,25.7400,
10.513618,0.6283,0.4206,0.7574,0.4059,-0.9502,0.0756,34.5600,2.3400,25.7400,
10.533599,0.6283,0.4206,0.7574,0.4959,-0.8330,-0.0048,34.5600,2.3400,25.7400,
10.550626,0.6283,0.4206,0.7574,0.4959,-0.8330,-0.0048,37.1400,1.9200,22.2000,
10.554121,0.6283,0.4206,0.7574,0.5486,-0.8314,-0.0064,37.1400,1.9200,22.2000,
10.563689,0.6283,0.4206,0.7574,0.5486,-0.8314,-0.0064,37.1400,1.9200,22.2000,
10.565439,-0.0886,0.3532,0.4613,0.5486,-0.8314,-0.0064,37.1400,1.9200,22.2000,
10.574848,-0.0886,0.3532,0.4613,0.4991,-0.7995,0.0165,37.1400,1.9200,22.2000,
10.595146,-0.0886,0.3532,0.4613,0.3707,-0.6764,0.0272,37.1400,1.9200,22.2000,
10.611378,-0.0886,0.3532,0.4613,0.3707,-0.6764,0.0272,38.9400,1.5600,18.8400,
10.615534,-0.0886,0.3532,0.4613,0.3696,-0.5332,0.0298,38.9400,1.5600,18.8400,
10.623766,-0.0886,0.3532,0.4613,0.3696,-0.5332,0.0298,38.9400,1.5600,18.8400,
10.624866,0.2325,0.5089,0.8465,0.3696,-0.5332,0.0298,38.9400,1.5600,18.8400,
10.636572,0.2325,0.5089,0.8465,0.4139,-0.4788,0.0522,38.9400,1.5600,18.8400,
10.656783,0.2325,0.5089,0.8465,0.3808,-0.6642,0.0708,38.9400,1.5600,18.8400,
10.673648,0.2325,0.5089,0.8465,0.3808,-0.6642,0.0708,40.3200,1.9200,15.6000,
10.677246,0.2325,0.5089,0.8465,0.3712,-0.9625,0.1422,40.3200,1.9200,15.6000,
10.685342,0.2325,0.5089,0.8465,0.3712,-0.9625,0.1422,40.3200,1.9200,15.6000,
10.686965,0.0539,0.3487,0.2833,0.3712,-0.9625,0.1422,40.3200,1.9200,15.6000,
10.697858,0.0539,0.3487,0.2833,0.3254,-0.9465,0.1720,40.3200,1.9200,15.6000,
10.718366,0.0539,0.3487,0.2833,0.3947,-0.7121,0.1779,40.3200,1.9200,15.6000,
10.734770,0.0539,0.3487,0.2833,0.3947,-0.7121,0.1779,41.1000,2.1600,13.4400,
10.738633,0.0539,0.3487,0.2833,0.5571,-0.3297,0.1113,41.1000,2.1600,13.4400,
10.747550,0.0539,0.3487,0.2833,0.5571,-0.3297,0.1113,41.1000,2.1600,13.4400,
10.749243,0.6628,0.0427,0.6442,0.5571,-0.3297,0.1113,41.1000,2.1600,13.4400,
10.759498,0.6628,0.0427,0.6442,0.6557,-0.1145,0.0410,41.1000,2.1600,13.4400,
10.780099,0.6628,0.0427,0.6442,0.6456,-0.3137,0.0032,41.1000,2.1600,13.4400,
10.796692,0.6628,0.0427,0.6442,0.6456,-0.3137,0.0032,41.6400,2.5200,10.9200,
10.799436,0.6628,0.0427,0.6442,0.5651,-0.6967,-0.0346,41.6400,2.5200,10.9200,
10.807350,0.6628,0.0427,0.6442,0.5651,-0.6967,-0.0346,41.6400,2.5200,10.9200,
10.808224,0.0093,0.4029,-0.3870,0.5651,-0.6967,-0.0346,41.6400,2.5200,10.9200,
10.820264,0.0093,0.4029,-0.3870,0.4607,-0.8767,-0.0192,41.6400,2.5200,10.9200,
10.840658,0.0093,0.4029,-0.3870,0.4799,-0.7526,-0.0144,41.6400,2.5200,10.9200,
10.857655,0.0093,0.4029,-0.3870,0.4799,-0.7526,-0.0144,41.5800,2.3400,9.1800,
10.864136,0.0093,0.4029,-0.3870,0.5657,-0.5444,-0.0224,41.5800,2.3400,9.1800,
10.869405,0.0093,0.4029,-0.3870,0.5657,-0.5444,-0.0224,41.5800,2.3400,9.1800,
10.870362,0.2626,0.1256,0.5830,0.5657,-0.5444,-0.0224,41.5800,2.3400,9.1800,
10.881667,0.2626,0.1256,0.5830,0.6850,-0.3143,-0.0250,41.5800,2.3400,9.1800,
10.902268,0.2626,0.1256,0.5830,0.6988,-0.1406,-0.0714,41.5800,2.3400,9.1800,
10.919910,0.2626,0.1256,0.5830,0.6988,-0.1406,-0.0714,42.0600,2.5800,7.1400,
10.922996,0.2626,0.1256,0.5830,0.5646,-0.3377,-0.1614,42.0600,2.5800,7.1400,
10.930667,0.2626,0.1256,0.5830,0.5646,-0.3377,-0.1614,42.0600,2.5800,7.1400,
10.931482,0.3257,0.4030,-0.2622,0.5646,-0.3377,-0.1614,42.0600,2.5800,7.1400,
10.942671,0.3257,0.4030,-0.2622,0.6946,-0.4240,-0.1870,42.0600,2.5800,7.1400,
10.964573,0.3257,0.4030,-0.2622,0.5262,-0.6589,-0.1332,42.0600,2.5800,7.1400,
10.979821,0.3257,0.4030,-0.2622,0.5262,-0.6589,-0.1332,42.3000,2.7000,5.8800,
10.983291,0.3257,0.4030,-0.2622,0.5433,-0.7659,-0.0921,42.3000,2.7000,5.8800,
10.991784,0.3257,0.4030,-0.2622,0.5433,-0.7659,-0.0921,42.3000,2.7000,5.8800,
10.992592,0.1635,0.0558,1.1551,0.5433,-0.7659,-0.0921,42.3000,2.7000,5.8800,
11.004144,0.1635,0.0558,1.1551,0.6274,-0.9438,-0.0352,42.3000,2.7000,5.8800,
11.024905,0.1635,0.0558,1.1551,0.6775,-0.7047,-0.0330,42.3000,2.7000,5.8800,
