
time,ax,ay,az,wx,wy,wz,Bx,By,Bz,
0.027851,0.0000,0.0000,0.0000,0.0128,0.0527,-0.0176,0.0000,0.0000,0.0000,
0.045991,0.0000,0.0000,0.0000,0.0128,0.0527,-0.0176,0.0000,0.0000,0.0000,
0.046678,0.0000,0.0000,0.0000,0.0128,0.0527,-0.0176,-9.6600,38.0400,-7.9200,
0.047059,0.0000,0.0000,0.0000,0.0128,0.0527,-0.0176,-9.6600,38.0400,-7.9200,
0.066059,0.0000,0.0000,0.0000,0.0128,0.0527,-0.0176,-9.6600,38.0400,-7.9200,
0.086497,0.0000,0.0000,0.0000,0.0405,0.0607,-0.0101,-9.6600,38.0400,-7.9200,
0.107726,0.0000,0.0000,0.0000,0.0405,0.0607,-0.0101,-9.6600,38.0400,-7.9200,
0.108421,0.0000,0.0000,0.0000,0.0405,0.0607,-0.0101,7.5000,20.2800,18.3600,
0.109048,0.0000,0.0000,0.0000,0.0543,0.0501,-0.0043,7.5000,20.2800,18.3600,
0.109468,-0.0191,-0.0292,0.0034,0.0543,0.0501,-0.0043,7.5000,20.2800,18.3600,
0.127411,-0.0191,-0.0292,0.0034,0.0181,-0.0208,-0.0123,7.5000,20.2800,18.3600,
0.147385,-0.0191,-0.0292,0.0034,0.0218,-0.0852,-0.0160,7.5000,20.2800,18.3600,
0.169174,-0.0191,-0.0292,0.0034,0.0218,-0.0852,-0.0160,7.5000,20.2800,18.3600,
0.169510,-0.0429,-0.0819,-0.0610,0.0218,-0.0852,-0.0160,7.5000,20.2800,18.3600,
0.169905,-0.0429,-0.0819,-0.0610,0.0218,-0.0852,-0.0160,16.6800,11.3400,31.6800,
0.170183,-0.0429,-0.0819,-0.0610,0.0325,-0.0080,0.0186,16.6800,11.3400,31.6800,
0.189028,-0.0429,-0.0819,-0.0610,0.0128,0.0154,0.0064,16.6800,11.3400,31.6800,
0.209635,-0.0429,-0.0819,-0.0610,0.0021,-0.0059,-0.0032,16.6800,11.3400,31.6800,
0.230690,-0.0429,-0.0819,-0.0610,0.0021,-0.0059,-0.0032,16.6800,11.3400,31.6800,
0.231364,-0.0725,-0.0035,0.0297,0.0021,-0.0059,-0.0032,16.6800,11.3400,31.6800,
0.232141,-0.0725,-0.0035,0.0297,0.0021,-0.0059,-0.0032,25.6200,2.2200,44.8200,
0.232964,-0.0725,-0.0035,0.0297,0.0138,-0.0186,-0.0154,25.6200,2.2200,44.8200,
0.250109,-0.0725,-0.0035,0.0297,-0.0128,-0.0059,-0.0048,25.6200,2.2200,44.8200,
0.270881,-0.0725,-0.0035,0.0297,-0.0368,-0.0405,-0.0059,25.6200,2.2200,44.8200,
0.292821,-0.0725,-0.0035,0.0297,-0.0368,-0.0405,-0.0059,25.6200,2.2200,44.8200,
0.293554,-0.0725,-0.0035,0.0297,-0.0368,-0.0405,-0.0059,25.3800,1.7400,45.7800,
0.294156,-0.0725,-0.0035,0.0297,-0.0447,-0.0634,-0.0378,25.3800,1.7400,45.7800,
0.294597,0.0975,-0.1701,0.0082,-0.0447,-0.0634,-0.0378,25.3800,1.7400,45.7800,
0.312871,0.0975,-0.1701,0.0082,0.0021,0.0080,-0.0197,25.3800,1.7400,45.7800,
0.332706,0.0975,-0.1701,0.0082,0.0229,0.0176,-0.0186,25.3800,1.7400,45.7800,
0.353269,0.0975,-0.1701,0.0082,0.0229,0.0176,-0.0186,25.3800,1.7400,45.7800,
0.353692,-0.2057,-0.0593,0.0100,0.0229,0.0176,-0.0186,25.3800,1.7400,45.7800,
0.354148,-0.2057,-0.0593,0.0100,0.0229,0.0176,-0.0186,25.5600,1.5600,46.0800,
0.354553,-0.2057,-0.0593,0.0100,0.0346,0.0064,-0.0154,25.5600,1.5600,46.0800,
0.373205,-0.2057,-0.0593,0.0100,0.1055,0.0756,-0.0107,25.5600,1.5600,46.0800,
0.393597,-0.2057,-0.0593,0.0100,0.0639,0.2040,-0.1641,25.5600,1.5600,46.0800,
0.415202,-0.2057,-0.0593,0.0100,0.0639,0.2040,-0.1641,25.5600,1.5600,46.0800,
0.415587,-0.2057,-0.0593,0.0100,0.0639,0.2040,-0.1641,25.3800,1.3200,45.9000,
0.415935,-0.2057,-0.0593,0.0100,0.1401,0.4900,-0.3249,25.3800,1.3200,45.9000,
0.416313,-0.3420,0.4819,-0.1429,0.1401,0.4900,-0.3249,25.3800,1.3200,45.9000,
0.434720,-0.3420,0.4819,-0.1429,0.0911,-0.8432,-0.9193,25.3800,1.3200,45.9000,
0.455724,-0.3420,0.4819,-0.1429,-0.0533,-1.7268,-1.6570,25.3800,1.3200,45.9000,
0.476496,-0.3420,0.4819,-0.1429,-0.0533,-1.7268,-1.6570,25.3800,1.3200,45.9000,
0.476836,-0.3420,0.4819,-0.1429,-0.0533,-1.7268,-1.6570,25.0200,1.5600,46.2600,
0.477190,-0.3420,0.4819,-0.1429,-0.3244,-0.4229,-1.6496,25.0200,1.5600,46.2600,
0.477478,0.4404,4.1449,-0.7641,-0.3244,-0.4229,-1.6496,25.0200,1.5600,46.2600,
0.496733,0.4404,4.1449,-0.7641,-0.4059,0.1747,-1.1952,25.0200,1.5600,46.2600,
0.517087,0.4404,4.1449,-0.7641,-0.6498,-0.8826,-1.4248,25.0200,1.5600,46.2600,
0.539039,0.4404,4.1449,-0.7641,-0.6498,-0.8826,-1.4248,25.0200,1.5600,46.2600,
0.539588,0.4404,4.1449,-0.7641,-0.6498,-0.8826,-1.4248,25.5600,2.3400,45.5400,
0.540341,0.4404,4.1449,-0.7641,-0.5699,-0.8799,-1.7263,25.5600,2.3400,45.5400,
0.540882,1.1208,3.2739,-0.3038,-0.5699,-0.8799,-1.7263,25.5600,2.3400,45.5400,
0.558221,1.1208,3.2739,-0.3038,-0.6024,-0.1092,-2.1188,25.5600,2.3400,45.5400,
0.578911,1.1208,3.2739,-0.3038,-0.8783,0.7728,-2.4166,25.5600,2.3400,45.5400,
0.600178,1.1208,3.2739,-0.3038,-0.8783,0.7728,-2.4166,25.5600,2.3400,45.5400,
0.600771,1.1208,3.2739,-0.3038,-0.8783,0.7728,-2.4166,25.6800,3.3000,45.0600,
0.601309,1.1208,3.2739,-0.3038,-1.3055,1.1745,-2.6349,25.6800,3.3000,45.0600,
0.601792,2.5692,2.4519,-1.5172,-1.3055,1.1745,-2.6349,25.6800,3.3000,45.0600,
0.619988,2.5692,2.4519,-1.5172,-0.6088,0.0879,-3.0775,25.6800,3.3000,45.0600,
0.640634,2.5692,2.4519,-1.5172,0.0884,-0.9204,-3.6405,25.6800,3.3000,45.0600,
0.661408,2.5692,2.4519,-1.5172,0.0884,-0.9204,-3.6405,25.6800,3.3000,45.0600,
0.662162,2.5692,2.4519,-1.5172,0.0884,-0.9204,-3.6405,25.4400,4.7400,45.2400,
0.662963,2.5692,2.4519,-1.5172,0.3174,-1.3769,-3.6890,25.4400,4.7400,45.2400,
0.663730,-0.5588,-11.8854,-1.8255,0.3174,-1.3769,-3.6890,25.4400,4.7400,45.2400,
0.681760,-0.5588,-11.8854,-1.8255,0.1555,-1.4365,-2.5502,25.4400,4.7400,45.2400,
0.702157,-0.5588,-11.8854,-1.8255,-0.0181,-0.9156,-0.6860,25.4400,4.7400,45.2400,
0.723624,-0.5588,-11.8854,-1.8255,-0.0181,-0.9156,-0.6860,25.4400,4.7400,45.2400,
0.724662,-0.5588,-11.8854,-1.8255,-0.0181,-0.9156,-0.6860,25.2600,7.2600,44.8800,
0.725586,-0.5588,-11.8854,-1.8255,0.0043,-0.3478,0.2386,25.2600,7.2600,44.8800,
0.726191,-0.6064,-1.4698,-0.4562,0.0043,-0.3478,0.2386,25.2600,7.2600,44.8800,
0.743176,-0.6064,-1.4698,-0.4562,-0.0479,-0.1481,0.4016,25.2600,7.2600,44.8800,
0.764815,-0.6064,-1.4698,-0.4562,-0.0368,0.0357,0.2290,25.2600,7.2600,44.8800,
0.784961,-0.6064,-1.4698,-0.4562,-0.0368,0.0357,0.2290,25.2600,7.2600,44.8800,
0.785427,-0.6064,-1.4698,-0.4562,-0.0368,0.0357,0.2290,24.6000,9.5400,44.4000,
0.785791,-0.6064,-1.4698,-0.4562,0.0383,0.1827,-0.0772,24.6000,9.5400,44.4000,
0.786023,1.9235,4.8079,-0.1917,0.0383,0.1827,-0.0772,24.6000,9.5400,44.4000,
0.804513,1.9235,4.8079,-0.1917,0.0032,0.0581,-0.2439,24.6000,9.5400,44.4000,
0.825708,1.9235,4.8079,-0.1917,0.0016,-0.1364,-0.3084,24.6000,9.5400,44.4000,
0.846745,1.9235,4.8079,-0.1917,0.0016,-0.1364,-0.3084,24.6000,9.5400,44.4000,
0.847574,1.9235,4.8079,-0.1917,0.0016,-0.1364,-0.3084,24.4200,11.1600,43.9800,
0.848415,1.9235,4.8079,-0.1917,0.0192,-0.1800,-0.1816,24.4200,11.1600,43.9800,
0.848896,-0.9033,-1.9434,0.3749,0.0192,-0.1800,-0.1816,24.4200,11.1600,43.9800,
0.866083,-0.9033,-1.9434,0.3749,-0.0240,-0.0543,0.0842,24.4200,11.1600,43.9800,
0.886801,-0.9033,-1.9434,0.3749,-0.0373,0.1332,0.0554,24.4200,11.1600,43.9800,
0.908581,-0.9033,-1.9434,0.3749,-0.0373,0.1332,0.0554,24.4200,11.1600,43.9800,
0.909055,-0.9033,-1.9434,0.3749,-0.0373,0.1332,0.0554,24.7800,13.0800,43.2600,
0.909570,-0.9033,-1.9434,0.3749,-0.0256,0.0527,-0.0197,24.7800,13.0800,43.2600,
0.909910,0.1559,0.7404,0.0346,-0.0256,0.0527,-0.0197,24.7800,13.0800,43.2600,
0.927796,0.1559,0.7404,0.0346,-0.0048,-0.0842,-0.0234,24.7800,13.0800,43.2600,
0.948676,0.1559,0.7404,0.0346,-0.0064,-0.0533,-0.0224,24.7800,13.0800,43.2600,
0.969700,0.1559,0.7404,0.0346,-0.0064,-0.0533,-0.0224,24.7800,13.0800,43.2600,
0.970245,0.1559,0.7404,0.0346,-0.0064,-0.0533,-0.0224,25.0200,13.2000,43.0800,
0.970727,0.1559,0.7404,0.0346,-0.0144,-0.0112,-0.0336,25.0200,13.2000,43.0800,
0.971133,-0.0726,-0.2577,0.1097,-0.0144,-0.0112,-0.0336,25.0200,13.2000,43.0800,
0.989414,-0.0726,-0.2577,0.1097,-0.0304,-0.0064,-0.0043,25.0200,13.2000,43.0800,
1.009947,-0.0726,-0.2577,0.1097,-0.0325,0.0048,-0.0064,25.0200,13.2000,43.0800,
1.031393,-0.0726,-0.2577,0.1097,-0.0325,0.0048,-0.0064,25.0200,13.2000,43.0800,
1.032070,-0.0726,-0.2577,0.1097,-0.0325,0.0048,-0.0064,25.1400,13.1400,43.3200,
1.032882,-0.0726,-0.2577,0.1097,-0.0245,0.0085,-0.0192,25.1400,13.1400,43.3200,
1.033440,0.3108,0.0056,-0.1119,-0.0245,0.0085,-0.0192,25.1400,13.1400,43.3200,
1.050975,0.3108,0.0056,-0.1119,-0.0128,-0.0304,-0.0208,25.1400,13.1400,43.3200,
1.071754,0.3108,0.0056,-0.1119,-0.0181,-0.0453,-0.0080,25.1400,13.1400,43.3200,
1.092696,0.3108,0.0056,-0.1119,-0.0181,-0.0453,-0.0080,25.1400,13.1400,43.3200,
1.093096,0.3108,0.0056,-0.1119,-0.0181,-0.0453,-0.0080,25.2600,13.2600,43.5000,
1.093433,0.3108,0.0056,-0.1119,-0.0117,0.0080,0.0011,25.2600,13.2600,43.5000,
1.093623,0.0016,-0.0230,-0.0355,-0.0117,0.0080,0.0011,25.2600,13.2600,43.5000,
1.112984,0.0016,-0.0230,-0.0355,-0.0027,0.0091,-0.0027,25.2600,13.2600,43.5000,
1.133680,0.0016,-0.0230,-0.0355,-0.0330,-0.0176,0.0053,25.2600,13.2600,43.5000,
1.155109,0.0016,-0.0230,-0.0355,-0.0330,-0.0176,0.0053,25.2600,13.2600,43.5000,
1.155877,0.0016,-0.0230,-0.0355,-0.0330,-0.0176,0.0053,25.4400,13.0200,43.0800,
1.156469,0.2102,-0.0543,0.0176,-0.0330,-0.0176,0.0053,25.4400,13.0200,43.0800,
1.157134,0.2102,-0.0543,0.0176,-0.0309,-0.0117,-0.0037,25.4400,13.0200,43.0800,
1.174691,0.2102,-0.0543,0.0176,-0.0027,-0.0144,-0.0064,25.4400,13.0200,43.0800,
1.195102,0.2102,-0.0543,0.0176,0.0107,-0.0245,-0.0107,25.4400,13.0200,43.0800,
1.216010,0.2102,-0.0543,0.0176,0.0107,-0.0245,-0.0107,25.4400,13.0200,43.0800,
1.216745,0.2102,-0.0543,0.0176,0.0107,-0.0245,-0.0107,25.9200,13.3200,43.0200,
1.217299,0.2102,-0.0543,0.0176,-0.0080,-0.0378,-0.0096,25.9200,13.3200,43.0200,
1.217663,0.1510,-0.0284,-0.1075,-0.0080,-0.0378,-0.0096,25.9200,13.3200,43.0200,
1.236152,0.1510,-0.0284,-0.1075,0.0011,-0.0378,-0.0128,25.9200,13.3200,43.0200,
1.256594,0.1510,-0.0284,-0.1075,0.0138,-0.0431,0.0075,25.9200,13.3200,43.0200,
1.278160,0.1510,-0.0284,-0.1075,0.0138,-0.0431,0.0075,25.9200,13.3200,43.0200,
1.278966,0.1510,-0.0284,-0.1075,0.0138,-0.0431,0.0075,26.1600,13.1400,42.7200,
1.279745,0.1510,-0.0284,-0.1075,0.0048,-0.0005,0.0181,26.1600,13.1400,42.7200,
1.280434,0.0705,-0.0473,-0.2035,0.0048,-0.0005,0.0181,26.1600,13.1400,42.7200,
1.298172,0.0705,-0.0473,-0.2035,0.0016,0.0224,0.0080,26.1600,13.1400,42.7200,
1.318144,0.0705,-0.0473,-0.2035,-0.0043,-0.0123,0.0069,26.1600,13.1400,42.7200,
1.339314,0.0705,-0.0473,-0.2035,-0.0043,-0.0123,0.0069,26.1600,13.1400,42.7200,
1.340018,0.0705,-0.0473,-0.2035,-0.0043,-0.0123,0.0069,26.5200,13.6800,42.9600,
1.340896,0.0705,-0.0473,-0.2035,-0.0186,-0.0623,-0.0043,26.5200,13.6800,42.9600,
1.341401,0.1341,-0.1669,-0.1115,-0.0186,-0.0623,-0.0043,26.5200,13.6800,42.9600,
1.359038,0.1341,-0.1669,-0.1115,-0.0005,-0.0826,-0.0282,26.5200,13.6800,42.9600,
1.379039,0.1341,-0.1669,-0.1115,0.0208,-0.0778,-0.0181,26.5200,13.6800,42.9600,
1.401720,0.1341,-0.1669,-0.1115,0.0208,-0.0778,-0.0181,26.5200,13.6800,42.9600,
1.402943,0.1341,-0.1669,-0.1115,0.0208,-0.0778,-0.0181,26.1600,13.7400,43.2000,
1.404067,0.1341,-0.1669,-0.1115,-0.0101,-0.0586,0.0011,26.1600,13.7400,43.2000,
1.405219,-0.0498,-0.0229,-0.2310,-0.0101,-0.0586,0.0011,26.1600,13.7400,43.2000,
1.420553,-0.0498,-0.0229,-0.2310,-0.0176,-0.0692,0.0202,26.1600,13.7400,43.2000,
1.441846,-0.0498,-0.0229,-0.2310,0.0123,-0.0847,0.0453,26.1600,13.7400,43.2000,
1.461871,-0.0498,-0.0229,-0.2310,0.0123,-0.0847,0.0453,26.1600,13.7400,43.2000,
1.462517,-0.0498,-0.0229,-0.2310,0.0123,-0.0847,0.0453,25.9200,13.5000,43.0200,
1.463187,-0.0498,-0.0229,-0.2310,-0.0091,-0.0708,0.0453,25.9200,13.5000,43.0200,
1.463635,0.1002,-0.0004,-0.1976,-0.0091,-0.0708,0.0453,25.9200,13.5000,43.0200,
1.482031,0.1002,-0.0004,-0.1976,0.0053,-0.0650,0.0357,25.9200,13.5000,43.0200,
1.502924,0.1002,-0.0004,-0.1976,0.0421,-0.0501,0.0399,25.9200,13.5000,43.0200,
1.524068,0.1002,-0.0004,-0.1976,0.0421,-0.0501,0.0399,25.9200,13.5000,43.0200,
1.525000,0.1002,-0.0004,-0.1976,0.0421,-0.0501,0.0399,26.4600,13.5600,43.2000,
1.525647,0.1002,-0.0004,-0.1976,0.0059,-0.0607,0.0607,26.4600,13.5600,43.2000,
1.526076,0.0292,-0.0784,-0.1345,0.0059,-0.0607,0.0607,26.4600,13.5600,43.2000,
1.544185,0.0292,-0.0784,-0.1345,-0.0192,-0.1257,0.0820,26.4600,13.5600,43.2000,
1.564651,0.0292,-0.0784,-0.1345,0.0597,-0.1550,0.0905,26.4600,13.5600,43.2000,
1.585287,0.0292,-0.0784,-0.1345,0.0597,-0.1550,0.0905,26.4600,13.5600,43.2000,
1.586046,-0.6028,-0.0025,-0.2584,0.0597,-0.1550,0.0905,26.4600,13.5600,43.2000,
1.586911,-0.6028,-0.0025,-0.2584,0.0597,-0.1550,0.0905,26.1600,13.0800,42.7200,
1.587485,-0.6028,-0.0025,-0.2584,0.0660,-0.1406,0.1321,26.1600,13.0800,42.7200,
1.605469,-0.6028,-0.0025,-0.2584,0.0644,-0.1784,0.1262,26.1600,13.0800,42.7200,
1.626338,-0.6028,-0.0025,-0.2584,0.1593,-0.3276,0.0629,26.1600,13.0800,42.7200,
1.647638,-0.6028,-0.0025,-0.2584,0.1593,-0.3276,0.0629,26.1600,13.0800,42.7200,
1.648359,0.6047,-0.2174,-0.6662,0.1593,-0.3276,0.0629,26.1600,13.0800,42.7200,
1.649132,0.6047,-0.2174,-0.6662,0.1593,-0.3276,0.0629,26.4600,12.8400,42.2400,
1.649644,0.6047,-0.2174,-0.6662,0.1300,-0.4447,0.0378,26.4600,12.8400,42.2400,
1.667163,0.6047,-0.2174,-0.6662,0.0644,-0.5097,-0.0117,26.4600,12.8400,42.2400,
1.687030,0.6047,-0.2174,-0.6662,0.1907,-0.4927,-0.0383,26.4600,12.8400,42.2400,
1.708670,0.6047,-0.2174,-0.6662,0.1907,-0.4927,-0.0383,26.4600,12.8400,42.2400,
1.709305,0.6047,-0.2174,-0.6662,0.1907,-0.4927,-0.0383,26.7600,12.9000,42.1200,
1.709936,0.6047,-0.2174,-0.6662,0.2402,-0.3862,-0.0208,26.7600,12.9000,42.1200,
1.710358,0.2664,-0.3531,0.2421,0.2402,-0.3862,-0.0208,26.7600,12.9000,42.1200,
1.729003,0.2664,-0.3531,0.2421,0.2088,-0.0474,-0.0346,26.7600,12.9000,42.1200,
1.749475,0.2664,-0.3531,0.2421,0.1214,0.3995,0.0623,26.7600,12.9000,42.1200,
1.770828,0.2664,-0.3531,0.2421,0.1214,0.3995,0.0623,26.7600,12.9000,42.1200,
1.771709,0.2664,-0.3531,0.2421,0.1214,0.3995,0.0623,27.0000,13.0200,41.5800,
1.772655,0.2664,-0.3531,0.2421,0.0320,0.5145,0.1401,27.0000,13.0200,41.5800,
1.773261,-0.6394,-0.2607,-0.0243,0.0320,0.5145,0.1401,27.0000,13.0200,41.5800,
1.790919,-0.6394,-0.2607,-0.0243,0.0298,0.4043,0.1156,27.0000,13.0200,41.5800,
1.810556,-0.6394,-0.2607,-0.0243,0.1124,0.1811,0.0916,27.0000,13.0200,41.5800,
1.832363,-0.6394,-0.2607,-0.0243,0.1124,0.1811,0.0916,27.0000,13.0200,41.5800,
1.832915,-0.6394,-0.2607,-0.0243,0.1124,0.1811,0.0916,27.4200,13.3800,40.8000,
1.833473,-0.6394,-0.2607,-0.0243,0.1534,-0.1007,0.0847,27.4200,13.3800,40.8000,
1.833810,-1.6242,-0.3032,-0.2254,0.1534,-0.1007,0.0847,27.4200,13.3800,40.8000,
1.851670,-1.6242,-0.3032,-0.2254,0.1268,-0.2679,0.0447,27.4200,13.3800,40.8000,
1.872011,-1.6242,-0.3032,-0.2254,0.0751,-0.2882,0.0682,27.4200,13.3800,40.8000,
1.893309,-1.6242,-0.3032,-0.2254,0.0751,-0.2882,0.0682,27.4200,13.3800,40.8000,
1.893849,-1.6242,-0.3032,-0.2254,0.0751,-0.2882,0.0682,27.2400,13.3800,41.0400,
1.894397,-1.6242,-0.3032,-0.2254,0.0975,-0.1092,0.0453,27.2400,13.3800,41.0400,
1.894790,0.8709,0.2656,0.5845,0.0975,-0.1092,0.0453,27.2400,13.3800,41.0400,
1.913229,0.8709,0.2656,0.5845,0.1976,0.1246,-0.0154,27.2400,13.3800,41.0400,
1.933283,0.8709,0.2656,0.5845,0.1997,0.0597,-0.0218,27.2400,13.3800,41.0400,
1.955117,0.8709,0.2656,0.5845,0.1997,0.0597,-0.0218,27.2400,13.3800,41.0400,
1.955724,0.8709,0.2656,0.5845,0.1997,0.0597,-0.0218,27.5400,13.6800,40.9200,
1.956362,0.8709,0.2656,0.5845,0.1571,-0.0165,0.0011,27.5400,13.6800,40.9200,
1.956766,-0.2453,-0.0817,0.7588,0.1571,-0.0165,0.0011,27.5400,13.6800,40.9200,
1.974632,-0.2453,-0.0817,0.7588,0.1209,0.1374,0.0751,27.5400,13.6800,40.9200,
1.995621,-0.2453,-0.0817,0.7588,0.0820,0.1949,0.1039,27.5400,13.6800,40.9200,
2.016860,-0.2453,-0.0817,0.7588,0.0820,0.1949,0.1039,27.5400,13.6800,40.9200,
2.017828,-0.2453,-0.0817,0.7588,0.0820,0.1949,0.1039,27.3000,13.8600,40.7400,
2.018663,-0.2453,-0.0817,0.7588,0.1427,0.1561,0.0698,27.3000,13.8600,40.7400,
2.019416,-0.0627,-0.0142,0.2375,0.1427,0.1561,0.0698,27.3000,13.8600,40.7400,
2.036742,-0.0627,-0.0142,0.2375,0.1981,0.0160,0.0570,27.3000,13.8600,40.7400,
2.056742,-0.0627,-0.0142,0.2375,0.1854,-0.0309,0.0975,27.3000,13.8600,40.7400,
2.078254,-0.0627,-0.0142,0.2375,0.1854,-0.0309,0.0975,27.3000,13.8600,40.7400,
2.078917,-0.0627,-0.0142,0.2375,0.1854,-0.0309,0.0975,27.0600,13.8000,41.2800,
2.079697,-0.0627,-0.0142,0.2375,0.1454,0.0485,0.1241,27.0600,13.8000,41.2800,
2.080153,-0.0796,-0.0248,-0.1128,0.1454,0.0485,0.1241,27.0600,13.8000,41.2800,
2.101894,-0.0796,-0.0248,-0.1128,0.1427,0.0671,0.1427,27.0600,13.8000,41.2800,
2.118940,-0.0796,-0.0248,-0.1128,0.1497,0.0043,0.1672,27.0600,13.8000,41.2800,
2.140955,-0.0796,-0.0248,-0.1128,0.1497,0.0043,0.1672,27.0600,13.8000,41.2800,
2.141672,-0.0796,-0.0248,-0.1128,0.1497,0.0043,0.1672,27.3600,13.9800,40.7400,
2.142305,-0.0796,-0.0248,-0.1128,0.1742,0.0133,0.1651,27.3600,13.9800,40.7400,
2.142714,0.1247,-0.0882,-0.0358,0.1742,0.0133,0.1651,27.3600,13.9800,40.7400,
2.159761,0.1247,-0.0882,-0.0358,0.2120,0.0325,0.1667,27.3600,13.9800,40.7400,
2.181462,0.1247,-0.0882,-0.0358,0.2173,-0.0064,0.2040,27.3600,13.9800,40.7400,
2.201629,0.1247,-0.0882,-0.0358,0.2173,-0.0064,0.2040,27.3600,13.9800,40.7400,
2.202041,0.1247,-0.0882,-0.0358,0.2173,-0.0064,0.2040,26.9400,13.9200,40.2000,
2.202393,0.1247,-0.0882,-0.0358,0.1827,-0.0644,0.2168,26.9400,13.9200,40.2000,
2.202629,-0.0938,0.1693,-0.3068,0.1827,-0.0644,0.2168,26.9400,13.9200,40.2000,
2.224545,-0.0938,0.1693,-0.3068,0.2237,-0.0826,0.2136,26.9400,13.9200,40.2000,
2.241339,-0.0938,0.1693,-0.3068,0.2961,-0.0256,0.2306,26.9400,13.9200,40.2000,
2.262732,-0.0938,0.1693,-0.3068,0.2961,-0.0256,0.2306,26.9400,13.9200,40.2000,
2.263121,-0.5691,-0.1402,-0.2159,0.2961,-0.0256,0.2306,26.9400,13.9200,40.2000,
2.263514,-0.5691,-0.1402,-0.2159,0.2961,-0.0256,0.2306,26.8200,13.6200,39.6600,
2.263826,-0.5691,-0.1402,-0.2159,0.2945,-0.0383,0.2929,26.8200,13.6200,39.6600,
2.282338,-0.5691,-0.1402,-0.2159,0.2594,-0.0250,0.3233,26.8200,13.6200,39.6600,
2.302855,-0.5691,-0.1402,-0.2159,0.3180,0.0575,0.3377,26.8200,13.6200,39.6600,
2.324713,-0.5691,-0.1402,-0.2159,0.3180,0.0575,0.3377,26.8200,13.6200,39.6600,
2.325158,-0.0694,-0.0819,0.2140,0.3180,0.0575,0.3377,26.8200,13.6200,39.6600,
2.325635,-0.0694,-0.0819,0.2140,0.3180,0.0575,0.3377,27.1800,13.7400,38.4600,
2.326003,-0.0694,-0.0819,0.2140,0.3409,0.0597,0.3649,27.1800,13.7400,38.4600,
2.343715,-0.0694,-0.0819,0.2140,0.3510,0.0607,0.3830,27.1800,13.7400,38.4600,
2.363999,-0.0694,-0.0819,0.2140,0.3696,0.1236,0.4048,27.1800,13.7400,38.4600,
2.385333,-0.0694,-0.0819,0.2140,0.3696,0.1236,0.4048,27.1800,13.7400,38.4600,
2.385682,-0.0694,-0.0819,0.2140,0.3696,0.1236,0.4048,27.1800,13.5600,37.6800,
2.385905,-0.0694,-0.0819,0.2140,0.3925,0.2338,0.4426,27.1800,13.5600,37.6800,
2.386223,0.3058,0.2548,-0.2652,0.3925,0.2338,0.4426,27.1800,13.5600,37.6800,
2.405555,0.3058,0.2548,-0.2652,0.4479,0.2919,0.4543,27.1800,13.5600,37.6800,
2.425734,0.3058,0.2548,-0.2652,0.4629,0.2700,0.4341,27.1800,13.5600,37.6800,
2.447667,0.3058,0.2548,-0.2652,0.4629,0.2700,0.4341,27.1800,13.5600,37.6800,
2.448002,0.3058,0.2548,-0.2652,0.4629,0.2700,0.4341,27.8400,13.5000,37.6800,
2.448354,0.3058,0.2548,-0.2652,0.4623,0.2226,0.4618,27.8400,13.5000,37.6800,
2.448684,-0.3158,-0.2186,-0.3726,0.4623,0.2226,0.4618,27.8400,13.5000,37.6800,
2.466959,-0.3158,-0.2186,-0.3726,0.5412,0.1971,0.5380,27.8400,13.5000,37.6800,
2.487421,-0.3158,-0.2186,-0.3726,0.5539,0.1028,0.5891,27.8400,13.5000,37.6800,
2.508920,-0.3158,-0.2186,-0.3726,0.5539,0.1028,0.5891,27.8400,13.5000,37.6800,
2.509545,0.4612,0.5301,-0.1675,0.5539,0.1028,0.5891,27.8400,13.5000,37.6800,
2.510294,0.4612,0.5301,-0.1675,0.5539,0.1028,0.5891,28.2600,14.0400,37.8600,
2.510848,0.4612,0.5301,-0.1675,0.5715,0.2013,0.6045,28.2600,14.0400,37.8600,
2.528962,0.4612,0.5301,-0.1675,0.6221,0.3302,0.6184,28.2600,14.0400,37.8600,
2.549428,0.4612,0.5301,-0.1675,0.6179,0.3925,0.6264,28.2600,14.0400,37.8600,
2.571147,0.4612,0.5301,-0.1675,0.6179,0.3925,0.6264,28.2600,14.0400,37.8600,
2.571805,0.4612,0.5301,-0.1675,0.6179,0.3925,0.6264,28.0800,13.9800,38.1600,
2.572528,0.4612,0.5301,-0.1675,0.6706,0.4522,0.6786,28.0800,13.9800,38.1600,
2.573042,0.4392,0.0163,-0.0075,0.6706,0.4522,0.6786,28.0800,13.9800,38.1600,
2.590116,0.4392,0.0163,-0.0075,0.6429,0.2807,0.7084,28.0800,13.9800,38.1600,
2.611061,0.4392,0.0163,-0.0075,0.4788,0.0794,0.6610,28.0800,13.9800,38.1600,
2.632569,0.4392,0.0163,-0.0075,0.4788,0.0794,0.6610,28.0800,13.9800,38.1600,
2.633255,0.4392,0.0163,-0.0075,0.4788,0.0794,0.6610,27.9000,14.1600,38.5200,
2.634670,0.4392,0.0163,-0.0075,0.4820,0.0421,0.6120,27.9000,14.1600,38.5200,
2.635133,1.0464,0.0376,-0.7765,0.4820,0.0421,0.6120,27.9000,14.1600,38.5200,
2.651870,1.0464,0.0376,-0.7765,0.4900,-0.2104,0.4778,27.9000,14.1600,38.5200,
2.672761,1.0464,0.0376,-0.7765,0.4772,-0.3047,0.4389,27.9000,14.1600,38.5200,
2.694115,1.0464,0.0376,-0.7765,0.4772,-0.3047,0.4389,27.9000,14.1600,38.5200,
2.694826,1.0464,0.0376,-0.7765,0.4772,-0.3047,0.4389,28.1400,14.4000,38.5800,
2.695438,1.0464,0.0376,-0.7765,0.5667,-0.2988,0.5561,28.1400,14.4000,38.5800,
2.696089,0.4975,-1.3208,-0.6591,0.5667,-0.2988,0.5561,28.1400,14.4000,38.5800,
2.713887,0.4975,-1.3208,-0.6591,0.8272,-0.5534,0.5406,28.1400,14.4000,38.5800,
2.735152,0.4975,-1.3208,-0.6591,1.0834,-0.6152,0.3111,28.1400,14.4000,38.5800,
2.755248,0.4975,-1.3208,-0.6591,1.0834,-0.6152,0.3111,28.1400,14.4000,38.5800,
2.755823,0.4975,-1.3208,-0.6591,1.0834,-0.6152,0.3111,27.9600,14.1600,38.2800,
2.756496,0.4975,-1.3208,-0.6591,1.0818,-0.5183,0.3281,27.9600,14.1600,38.2800,
2.757293,1.4892,1.3687,-1.1932,1.0818,-0.5183,0.3281,27.9600,14.1600,38.2800,
2.776087,1.4892,1.3687,-1.1932,0.9183,-0.4149,0.5444,27.9600,14.1600,38.2800,
2.796000,1.4892,1.3687,-1.1932,0.7968,-0.2455,0.7398,27.9600,14.1600,38.2800,
2.817279,1.4892,1.3687,-1.1932,0.7968,-0.2455,0.7398,27.9600,14.1600,38.2800,
2.818423,1.4073,0.0128,-0.6236,0.7968,-0.2455,0.7398,27.9600,14.1600,38.2800,
2.819244,1.4073,0.0128,-0.6236,0.7968,-0.2455,0.7398,28.8600,14.5800,37.5600,
2.819976,1.4073,0.0128,-0.6236,0.7468,0.0069,0.8309,28.8600,14.5800,37.5600,
2.836368,1.4073,0.0128,-0.6236,0.8314,0.2551,0.9231,28.8600,14.5800,37.5600,
2.857418,1.4073,0.0128,-0.6236,1.0818,0.0847,1.0035,28.8600,14.5800,37.5600,
2.879278,1.4073,0.0128,-0.6236,1.0818,0.0847,1.0035,28.8600,14.5800,37.5600,
2.880007,1.4073,0.0128,-0.6236,1.0818,0.0847,1.0035,30.3600,15.0000,36.7800,
2.880847,1.4073,0.0128,-0.6236,1.3215,-0.4256,0.9992,30.3600,15.0000,36.7800,
2.881482,1.8435,1.0564,-1.6302,1.3215,-0.4256,0.9992,30.3600,15.0000,36.7800,
2.898192,1.8435,1.0564,-1.6302,1.3987,-0.8565,1.0413,30.3600,15.0000,36.7800,
2.919294,1.8435,1.0564,-1.6302,1.3257,-0.4288,1.1707,30.3600,15.0000,36.7800,
2.940804,1.8435,1.0564,-1.6302,1.3257,-0.4288,1.1707,30.3600,15.0000,36.7800,
2.941318,1.8435,1.0564,-1.6302,1.3257,-0.4288,1.1707,31.6200,14.8800,34.9200,
2.941669,1.8435,1.0564,-1.6302,1.1079,0.3435,1.3071,31.6200,14.8800,34.9200,
2.941923,1.3924,0.9364,-2.6280,1.1079,0.3435,1.3071,31.6200,14.8800,34.9200,
2.959938,1.3924,0.9364,-2.6280,0.8906,0.8746,1.4115,31.6200,14.8800,34.9200,
2.980954,1.3924,0.9364,-2.6280,0.8448,1.0360,1.4163,31.6200,14.8800,34.9200,
3.002121,1.3924,0.9364,-2.6280,0.8448,1.0360,1.4163,31.6200,14.8800,34.9200,
3.002973,3.6568,0.3010,-4.0869,0.8448,1.0360,1.4163,31.6200,14.8800,34.9200,
3.003922,3.6568,0.3010,-4.0869,0.8448,1.0360,1.4163,33.2400,15.2400,33.5400,
3.004832,3.6568,0.3010,-4.0869,0.9231,0.8495,1.2650,33.2400,15.2400,33.5400,
3.022745,3.6568,0.3010,-4.0869,1.0290,0.2993,1.2288,33.2400,15.2400,33.5400,
3.041942,3.6568,0.3010,-4.0869,1.1436,0.0879,1.1771,33.2400,15.2400,33.5400,
3.064120,3.6568,0.3010,-4.0869,1.1436,0.0879,1.1771,33.2400,15.2400,33.5400,
3.064846,3.6568,0.3010,-4.0869,1.1436,0.0879,1.1771,33.5400,15.1800,33.5400,
3.065323,3.6568,0.3010,-4.0869,1.3097,0.1459,1.1111,33.5400,15.1800,33.5400,
3.065887,4.5626,2.6496,-5.3921,1.3097,0.1459,1.1111,33.5400,15.1800,33.5400,
3.086156,4.5626,2.6496,-5.3921,1.5010,-0.0218,1.1308,33.5400,15.1800,33.5400,
3.103482,4.5626,2.6496,-5.3921,2.0086,-0.2242,1.3081,33.5400,15.1800,33.5400,
3.125146,4.5626,2.6496,-5.3921,2.0086,-0.2242,1.3081,33.5400,15.1800,33.5400,
3.125765,3.2655,3.9923,-2.4086,2.0086,-0.2242,1.3081,33.5400,15.1800,33.5400,
3.126442,3.2655,3.9923,-2.4086,2.0086,-0.2242,1.3081,33.7200,14.7600,33.1800,
3.126851,3.2655,3.9923,-2.4086,2.3968,-0.4091,1.6671,33.7200,14.7600,33.1800,
3.144409,3.2655,3.9923,-2.4086,2.0815,0.0069,1.9803,33.7200,14.7600,33.1800,
3.165434,3.2655,3.9923,-2.4086,1.5223,0.7787,2.0943,33.7200,14.7600,33.1800,
3.186429,3.2655,3.9923,-2.4086,1.5223,0.7787,2.0943,33.7200,14.7600,33.1800,
3.187067,3.2655,3.9923,-2.4086,1.5223,0.7787,2.0943,34.3200,14.2800,32.4600,
3.187489,3.2655,3.9923,-2.4086,1.2661,1.1201,2.0986,34.3200,14.2800,32.4600,
3.188149,3.0303,5.4132,-2.9172,1.2661,1.1201,2.0986,34.3200,14.2800,32.4600,
3.205945,3.0303,5.4132,-2.9172,1.0296,1.1244,2.1034,34.3200,14.2800,32.4600,
3.226236,3.0303,5.4132,-2.9172,1.0056,1.0594,2.0394,34.3200,14.2800,32.4600,
3.248331,3.0303,5.4132,-2.9172,1.0056,1.0594,2.0394,34.3200,14.2800,32.4600,
3.248872,2.9188,5.5340,-2.1861,1.0056,1.0594,2.0394,34.3200,14.2800,32.4600,
3.249262,2.9188,5.5340,-2.1861,1.0056,1.0594,2.0394,34.6800,13.8600,32.3400,
3.249501,2.9188,5.5340,-2.1861,1.4797,1.8466,2.1683,34.6800,13.8600,32.3400,
3.267314,2.9188,5.5340,-2.1861,0.9135,2.5502,2.7809,34.6800,13.8600,32.3400,
3.288305,2.9188,5.5340,-2.1861,-0.0043,2.7202,3.2128,34.6800,13.8600,32.3400,
3.309804,2.9188,5.5340,-2.1861,-0.0043,2.7202,3.2128,34.6800,13.8600,32.3400,
3.310626,2.9188,5.5340,-2.1861,-0.0043,2.7202,3.2128,35.4600,13.0800,31.8600,
3.311143,2.9188,5.5340,-2.1861,-1.4546,11.0196,2.6019,35.4600,13.0800,31.8600,
3.311753,-28.2078,8.7741,72.6701,-1.4546,11.0196,2.6019,35.4600,13.0800,31.8600,
3.329723,-28.2078,8.7741,72.6701,-1.6389,4.1449,2.1060,35.4600,13.0800,31.8600,
3.350548,-28.2078,8.7741,72.6701,-0.8224,-7.8158,2.2163,35.4600,13.0800,31.8600,
3.371672,-28.2078,8.7741,72.6701,-0.8224,-7.8158,2.2163,35.4600,13.0800,31.8600,
3.372680,-28.2078,8.7741,72.6701,-0.8224,-7.8158,2.2163,34.0800,11.7600,34.0800,
3.373187,-28.2078,8.7741,72.6701,4.3729,6.6148,-4.6983,34.0800,11.7600,34.0800,
3.373807,26.2882,-7.6275,27.7600,4.3729,6.6148,-4.6983,34.0800,11.7600,34.0800,
3.391165,26.2882,-7.6275,27.7600,4.1471,14.6437,-3.2560,34.0800,11.7600,34.0800,
3.411384,26.2882,-7.6275,27.7600,-5.7274,6.1791,0.7350,34.0800,11.7600,34.0800,
3.433658,26.2882,-7.6275,27.7600,-5.7274,6.1791,0.7350,34.0800,11.7600,34.0800,
3.434859,26.2882,-7.6275,27.7600,-5.7274,6.1791,0.7350,31.0800,9.7200,36.8400,
3.435590,26.2882,-7.6275,27.7600,-5.5474,-1.1398,1.1878,31.0800,9.7200,36.8400,
3.436374,9.9521,-3.8046,11.3315,-5.5474,-1.1398,1.1878,31.0800,9.7200,36.8400,
3.453817,9.9521,-3.8046,11.3315,-2.2035,-3.8456,0.6242,31.0800,9.7200,36.8400,
3.473797,9.9521,-3.8046,11.3315,0.0373,-4.8352,0.7563,31.0800,9.7200,36.8400,
3.495083,9.9521,-3.8046,11.3315,0.0373,-4.8352,0.7563,31.0800,9.7200,36.8400,
3.496120,9.9521,-3.8046,11.3315,0.0373,-4.8352,0.7563,23.7600,6.5400,41.9400,
3.496922,9.9521,-3.8046,11.3315,2.4086,-5.5314,1.5425,23.7600,6.5400,41.9400,
3.497593,-0.9877,-3.8339,-0.5523,2.4086,-5.5314,1.5425,23.7600,6.5400,41.9400,
3.514682,-0.9877,-3.8339,-0.5523,3.4552,-6.2595,1.1750,23.7600,6.5400,41.9400,
3.535200,-0.9877,-3.8339,-0.5523,2.6813,-7.1005,0.1790,23.7600,6.5400,41.9400,
3.556749,-0.9877,-3.8339,-0.5523,2.6813,-7.1005,0.1790,23.7600,6.5400,41.9400,
3.557491,-3.4113,3.5508,-3.1637,2.6813,-7.1005,0.1790,23.7600,6.5400,41.9400,
3.557836,-3.4113,3.5508,-3.1637,2.6813,-7.1005,0.1790,19.2600,3.8400,45.6000,
3.558076,-3.4113,3.5508,-3.1637,0.9998,1.1489,-0.6860,19.2600,3.8400,45.6000,
3.576346,-3.4113,3.5508,-3.1637,-0.6269,5.3807,-0.5236,19.2600,3.8400,45.6000,
3.596842,-3.4113,3.5508,-3.1637,-1.4051,4.7884,-0.1326,19.2600,3.8400,45.6000,
3.618327,-3.4113,3.5508,-3.1637,-1.4051,4.7884,-0.1326,19.2600,3.8400,45.6000,
3.619428,-3.4113,3.5508,-3.1637,-1.4051,4.7884,-0.1326,19.2000,3.4200,45.0600,
3.620628,-3.4113,3.5508,-3.1637,-1.8956,3.2235,0.2360,19.2000,3.4200,45.0600,
3.621314,5.1173,5.7740,-0.6866,-1.8956,3.2235,0.2360,19.2000,3.4200,45.0600,
3.638273,5.1173,5.7740,-0.6866,-1.6320,3.1479,0.0533,19.2000,3.4200,45.0600,
3.658808,5.1173,5.7740,-0.6866,-0.9758,2.3958,-0.5225,19.2000,3.4200,45.0600,
3.679586,5.1173,5.7740,-0.6866,-0.9758,2.3958,-0.5225,19.2000,3.4200,45.0600,
3.680940,5.1173,5.7740,-0.6866,-0.9758,2.3958,-0.5225,17.4600,2.4000,46.0800,
3.681711,5.1173,5.7740,-0.6866,-0.1177,-0.3707,-1.0610,17.4600,2.4000,46.0800,
3.682363,4.0551,1.5347,5.4476,-0.1177,-0.3707,-1.0610,17.4600,2.4000,46.0800,
3.699452,4.0551,1.5347,5.4476,0.6093,-1.6751,-1.0743,17.4600,2.4000,46.0800,
3.719954,4.0551,1.5347,5.4476,0.9081,-1.8003,-0.8410,17.4600,2.4000,46.0800,
3.742405,4.0551,1.5347,5.4476,0.9081,-1.8003,-0.8410,17.4600,2.4000,46.0800,
3.743664,4.0551,1.5347,5.4476,0.9081,-1.8003,-0.8410,18.8400,2.1600,45.6600,
3.744608,4.0551,1.5347,5.4476,0.7366,-1.6261,-0.7611,18.8400,2.1600,45.6600,
3.745250,1.1768,0.6393,-1.3506,0.7366,-1.6261,-0.7611,18.8400,2.1600,45.6600,
3.761360,1.1768,0.6393,-1.3506,0.2040,-1.5356,-0.7702,18.8400,2.1600,45.6600,
3.781814,1.1768,0.6393,-1.3506,-0.4298,-1.3385,-0.9156,18.8400,2.1600,45.6600,
3.802995,1.1768,0.6393,-1.3506,-0.4298,-1.3385,-0.9156,18.8400,2.1600,45.6600,
3.804024,1.1768,0.6393,-1.3506,-0.4298,-1.3385,-0.9156,18.4200,2.8800,45.4200,
3.805016,1.1768,0.6393,-1.3506,-0.9603,-0.8522,-1.4115,18.4200,2.8800,45.4200,
3.805815,1.4418,1.8805,-0.5530,-0.9603,-0.8522,-1.4115,18.4200,2.8800,45.4200,
3.823112,1.4418,1.8805,-0.5530,-1.1207,-0.1294,-1.9052,18.4200,2.8800,45.4200,
3.842373,1.4418,1.8805,-0.5530,-0.6450,-0.3483,-1.7849,18.4200,2.8800,45.4200,
3.864079,1.4418,1.8805,-0.5530,-0.6450,-0.3483,-1.7849,18.4200,2.8800,45.4200,
3.865421,1.4418,1.8805,-0.5530,-0.6450,-0.3483,-1.7849,16.2600,2.1600,46.8000,
3.866232,-3.7550,2.4703,3.2848,-0.6450,-0.3483,-1.7849,16.2600,2.1600,46.8000,
3.866976,-3.7550,2.4703,3.2848,0.0005,-1.3785,-1.1015,16.2600,2.1600,46.8000,
3.884589,-3.7550,2.4703,3.2848,0.1497,-1.4488,-0.9241,16.2600,2.1600,46.8000,
3.904503,-3.7550,2.4703,3.2848,-0.1630,-1.3545,-1.2235,16.2600,2.1600,46.8000,
3.926646,-3.7550,2.4703,3.2848,-0.1630,-1.3545,-1.2235,16.2600,2.1600,46.8000,
3.927970,0.9262,2.0133,-1.0988,-0.1630,-1.3545,-1.2235,16.2600,2.1600,46.8000,
3.929140,0.9262,2.0133,-1.0988,-0.1630,-1.3545,-1.2235,17.0400,2.5800,46.3800,
3.929895,0.9262,2.0133,-1.0988,-0.5060,-1.3806,-1.4882,17.0400,2.5800,46.3800,
3.947102,0.9262,2.0133,-1.0988,-0.8735,-1.4120,-1.5425,17.0400,2.5800,46.3800,
3.966388,0.9262,2.0133,-1.0988,-1.1143,-0.1955,-1.6821,17.0400,2.5800,46.3800,
3.988390,0.9262,2.0133,-1.0988,-1.1143,-0.1955,-1.6821,17.0400,2.5800,46.3800,
3.989193,0.9262,2.0133,-1.0988,-1.1143,-0.1955,-1.6821,19.9800,3.7800,44.6400,
3.989544,0.9262,2.0133,-1.0988,-0.9129,1.6016,-2.0608,19.9800,3.7800,44.6400,
3.989818,1.4638,0.9134,0.4771,-0.9129,1.6016,-2.0608,19.9800,3.7800,44.6400,
4.007367,1.4638,0.9134,0.4771,-0.6051,1.7928,-2.0927,19.9800,3.7800,44.6400,
4.028454,1.4638,0.9134,0.4771,-0.1555,1.0296,-1.2400,19.9800,3.7800,44.6400,
4.049690,1.4638,0.9134,0.4771,-0.1555,1.0296,-1.2400,19.9800,3.7800,44.6400,
4.051105,1.4638,0.9134,0.4771,-0.1555,1.0296,-1.2400,21.7200,4.2000,43.9200,
4.052332,-6.5571,-2.0231,2.4878,-0.1555,1.0296,-1.2400,21.7200,4.2000,43.9200,
4.053412,-6.5571,-2.0231,2.4878,0.3782,1.8243,0.2764,21.7200,4.2000,43.9200,
4.069736,-6.5571,-2.0231,2.4878,0.2381,1.3492,1.3065,21.7200,4.2000,43.9200,
4.089109,-6.5571,-2.0231,2.4878,-0.5406,0.4479,0.8139,21.7200,4.2000,43.9200,
4.111199,-6.5571,-2.0231,2.4878,-0.5406,0.4479,0.8139,21.7200,4.2000,43.9200,
4.112840,-6.5571,-2.0231,2.4878,-0.5406,0.4479,0.8139,21.3600,5.1000,43.9800,
4.113907,-6.5571,-2.0231,2.4878,-0.9657,1.4008,0.3702,21.3600,5.1000,43.9800,
4.114827,-1.4251,1.5558,-0.2083,-0.9657,1.4008,0.3702,21.3600,5.1000,43.9800,
4.130737,-1.4251,1.5558,-0.2083,-0.9156,1.5691,0.6370,21.3600,5.1000,43.9800,
4.151141,-1.4251,1.5558,-0.2083,-0.3989,1.0306,0.7542,21.3600,5.1000,43.9800,
4.172756,-1.4251,1.5558,-0.2083,-0.3989,1.0306,0.7542,21.3600,5.1000,43.9800,
4.173848,-1.4251,1.5558,-0.2083,-0.3989,1.0306,0.7542,20.2800,5.4000,44.5800,
4.174608,-1.4251,1.5558,-0.2083,0.3180,0.8687,0.3702,20.2800,5.4000,44.5800,
4.175231,5.7456,-2.3188,2.2560,0.3180,0.8687,0.3702,20.2800,5.4000,44.5800,
4.192570,5.7456,-2.3188,2.2560,0.5960,0.9449,-0.0442,20.2800,5.4000,44.5800,
4.213561,5.7456,-2.3188,2.2560,0.2637,-0.0660,-0.3467,20.2800,5.4000,44.5800,
4.234437,5.7456,-2.3188,2.2560,0.2637,-0.0660,-0.3467,20.2800,5.4000,44.5800,
4.235586,5.7456,-2.3188,2.2560,0.2637,-0.0660,-0.3467,18.0000,5.1000,46.3200,
4.236487,5.7456,-2.3188,2.2560,0.1848,-0.8485,-0.5097,18.0000,5.1000,46.3200,
4.237064,0.3545,0.1605,0.9320,0.1848,-0.8485,-0.5097,18.0000,5.1000,46.3200,
4.253682,0.3545,0.1605,0.9320,0.4272,-0.6045,-0.6530,18.0000,5.1000,46.3200,
4.274592,0.3545,0.1605,0.9320,0.3973,-0.1651,-0.6029,18.0000,5.1000,46.3200,
4.295537,0.3545,0.1605,0.9320,0.3973,-0.1651,-0.6029,18.0000,5.1000,46.3200,
4.296776,0.3545,0.1605,0.9320,0.3973,-0.1651,-0.6029,15.7200,5.1600,47.9400,
4.297358,0.3545,0.1605,0.9320,-0.0181,-0.0037,-0.3590,15.7200,5.1600,47.9400,
4.297906,-2.5726,0.3064,-1.4510,-0.0181,-0.0037,-0.3590,15.7200,5.1600,47.9400,
4.314887,-2.5726,0.3064,-1.4510,-0.2189,0.2642,-0.0160,15.7200,5.1600,47.9400,
4.335165,-2.5726,0.3064,-1.4510,-0.0304,0.4756,0.2173,15.7200,5.1600,47.9400,
4.356594,-2.5726,0.3064,-1.4510,-0.0304,0.4756,0.2173,15.7200,5.1600,47.9400,
4.357729,-2.5726,0.3064,-1.4510,-0.0304,0.4756,0.2173,14.7000,4.6200,48.6600,
4.358498,-2.5726,0.3064,-1.4510,0.1390,0.3382,0.3744,14.7000,4.6200,48.6600,
4.359097,-1.6065,-0.1872,0.6025,0.1390,0.3382,0.3744,14.7000,4.6200,48.6600,
4.376693,-1.6065,-0.1872,0.6025,0.1912,0.1262,0.3787,14.7000,4.6200,48.6600,
4.396404,-1.6065,-0.1872,0.6025,0.1209,0.0208,0.3084,14.7000,4.6200,48.6600,
4.418009,-1.6065,-0.1872,0.6025,0.1209,0.0208,0.3084,14.7000,4.6200,48.6600,
4.418868,1.8887,1.4265,-0.2178,0.1209,0.0208,0.3084,14.7000,4.6200,48.6600,
4.422280,1.8887,1.4265,-0.2178,0.1209,0.0208,0.3084,14.2800,5.1000,48.6600,
4.423108,1.8887,1.4265,-0.2178,0.0804,-0.0927,0.1257,14.2800,5.1000,48.6600,
4.437427,1.8887,1.4265,-0.2178,0.0495,-0.1475,-0.1081,14.2800,5.1000,48.6600,
4.458073,1.8887,1.4265,-0.2178,0.0091,-0.1635,-0.2674,14.2800,5.1000,48.6600,
4.480080,1.8887,1.4265,-0.2178,0.0091,-0.1635,-0.2674,14.2800,5.1000,48.6600,
4.481100,1.8887,1.4265,-0.2178,0.0091,-0.1635,-0.2674,13.8000,5.2800,48.2400,
4.481635,1.8887,1.4265,-0.2178,0.0144,-0.1965,-0.3334,13.8000,5.2800,48.2400,
4.482102,-0.2771,0.4558,0.1925,0.0144,-0.1965,-0.3334,13.8000,5.2800,48.2400,
4.499374,-0.2771,0.4558,0.1925,-0.0059,-0.2429,-0.2759,13.8000,5.2800,48.2400,
4.520183,-0.2771,0.4558,0.1925,-0.0581,-0.1939,-0.1832,13.8000,5.2800,48.2400,
4.541431,-0.2771,0.4558,0.1925,-0.0581,-0.1939,-0.1832,13.8000,5.2800,48.2400,
4.542418,-0.2771,0.4558,0.1925,-0.0581,-0.1939,-0.1832,14.1000,5.8800,48.4200,
4.543111,-0.2771,0.4558,0.1925,-0.0671,-0.0852,-0.0794,14.1000,5.8800,48.4200,
4.543631,-0.8784,-0.4073,0.2575,-0.0671,-0.0852,-0.0794,14.1000,5.8800,48.4200,
4.561410,-0.8784,-0.4073,0.2575,-0.0282,-0.0266,0.0378,14.1000,5.8800,48.4200,
4.581371,-0.8784,-0.4073,0.2575,0.0091,-0.0101,0.1598,14.1000,5.8800,48.4200,
4.602913,-0.8784,-0.4073,0.2575,0.0091,-0.0101,0.1598,14.1000,5.8800,48.4200,
4.603979,-0.8784,-0.4073,0.2575,0.0091,-0.0101,0.1598,13.8600,5.5800,48.1200,
4.604662,-0.8784,-0.4073,0.2575,-0.0213,0.0176,0.1944,13.8600,5.5800,48.1200,
4.605033,-0.2033,-0.3074,0.0196,-0.0213,0.0176,0.1944,13.8600,5.5800,48.1200,
4.622796,-0.2033,-0.3074,0.0196,-0.0724,0.0842,0.2147,13.8600,5.5800,48.1200,
4.643334,-0.2033,-0.3074,0.0196,-0.0905,0.1209,0.2136,13.8600,5.5800,48.1200,
4.664986,-0.2033,-0.3074,0.0196,-0.0905,0.1209,0.2136,13.8600,5.5800,48.1200,
4.666009,-0.2033,-0.3074,0.0196,-0.0905,0.1209,0.2136,13.5600,5.2200,48.4800,
4.666781,-0.2033,-0.3074,0.0196,-0.0341,0.0879,0.1587,13.5600,5.2200,48.4800,
4.667334,0.8429,0.2885,0.2318,-0.0341,0.0879,0.1587,13.5600,5.2200,48.4800,
4.684727,0.8429,0.2885,0.2318,0.0522,0.0453,0.0756,13.5600,5.2200,48.4800,
4.704628,0.8429,0.2885,0.2318,0.0746,-0.0059,0.0554,13.5600,5.2200,48.4800,
4.726555,0.8429,0.2885,0.2318,0.0746,-0.0059,0.0554,13.5600,5.2200,48.4800,
4.727574,0.8429,0.2885,0.2318,0.0746,-0.0059,0.0554,13.3800,5.1600,47.8200,
4.728291,0.8429,0.2885,0.2318,-0.0080,-0.0096,-0.0218,13.3800,5.1600,47.8200,
4.728837,0.1770,0.2313,-0.7087,-0.0080,-0.0096,-0.0218,13.3800,5.1600,47.8200,
4.745726,0.1770,0.2313,-0.7087,-0.0591,-0.0107,-0.0570,13.3800,5.1600,47.8200,
4.766852,0.1770,0.2313,-0.7087,-0.0240,-0.0032,-0.0011,13.3800,5.1600,47.8200,
4.787594,0.1770,0.2313,-0.7087,-0.0240,-0.0032,-0.0011,13.3800,5.1600,47.8200,
4.788694,0.1770,0.2313,-0.7087,-0.0240,-0.0032,-0.0011,12.9600,5.0400,47.5800,
4.789092,0.1770,0.2313,-0.7087,0.0565,-0.0064,0.0613,12.9600,5.0400,47.5800,
4.791701,-0.6084,-0.1022,0.0366,0.0565,-0.0064,0.0613,12.9600,5.0400,47.5800,
4.807295,-0.6084,-0.1022,0.0366,0.0794,-0.0059,0.0735,12.9600,5.0400,47.5800,
4.828334,-0.6084,-0.1022,0.0366,0.0208,-0.0208,0.0810,12.9600,5.0400,47.5800,
4.849787,-0.6084,-0.1022,0.0366,0.0208,-0.0208,0.0810,12.9600,5.0400,47.5800,
4.850796,-0.6084,-0.1022,0.0366,0.0208,-0.0208,0.0810,13.3800,5.2200,47.5200,
4.851402,-0.6084,-0.1022,0.0366,-0.0501,-0.0192,0.0778,13.3800,5.2200,47.5200,
4.851897,0.1266,0.0191,-0.3229,-0.0501,-0.0192,0.0778,13.3800,5.2200,47.5200,
4.869258,0.1266,0.0191,-0.3229,-0.0293,-0.0032,0.0842,13.3800,5.2200,47.5200,
4.890173,0.1266,0.0191,-0.3229,0.0357,0.0245,0.1140,13.3800,5.2200,47.5200,
4.910614,0.1266,0.0191,-0.3229,0.0357,0.0245,0.1140,13.3800,5.2200,47.5200,
4.911535,0.1266,0.0191,-0.3229,0.0357,0.0245,0.1140,13.3200,5.4000,47.2800,
4.912127,0.1266,0.0191,-0.3229,0.0863,-0.0091,0.1305,13.3200,5.4000,47.2800,
4.912694,-0.0366,0.2670,0.0046,0.0863,-0.0091,0.1305,13.3200,5.4000,47.2800,
4.931244,-0.0366,0.2670,0.0046,0.0794,-0.0676,0.1150,13.3200,5.4000,47.2800,
4.950911,-0.0366,0.2670,0.0046,-0.0213,-0.0607,0.1230,13.3200,5.4000,47.2800,
4.971827,-0.0366,0.2670,0.0046,-0.0213,-0.0607,0.1230,13.3200,5.4000,47.2800,
4.972403,-0.0366,0.2670,0.0046,-0.0213,-0.0607,0.1230,13.7400,5.7600,47.7600,
4.972728,-0.0366,0.2670,0.0046,-0.0474,-0.0842,0.1097,13.7400,5.7600,47.7600,
4.972946,0.1124,-0.1055,0.0050,-0.0474,-0.0842,0.1097,13.7400,5.7600,47.7600,
4.992201,0.1124,-0.1055,0.0050,0.0293,-0.0874,0.1156,13.7400,5.7600,47.7600,
5.013274,0.1124,-0.1055,0.0050,0.0469,-0.0405,0.1550,13.7400,5.7600,47.7600,
5.034594,0.1124,-0.1055,0.0050,0.0469,-0.0405,0.1550,13.7400,5.7600,47.7600,
5.035971,0.1561,0.1757,-0.5007,0.0469,-0.0405,0.1550,13.7400,5.7600,47.7600,
5.036913,0.1561,0.1757,-0.5007,0.0469,-0.0405,0.1550,14.0400,5.2800,47.6400,
5.037672,0.1561,0.1757,-0.5007,-0.0325,-0.0618,0.1092,14.0400,5.2800,47.6400,
5.053775,0.1561,0.1757,-0.5007,-0.1300,0.0959,0.1113,14.0400,5.2800,47.6400,
5.074311,0.1561,0.1757,-0.5007,-0.0719,0.1630,0.1534,14.0400,5.2800,47.6400,
5.096476,0.1561,0.1757,-0.5007,-0.0719,0.1630,0.1534,14.0400,5.2800,47.6400,
5.097757,0.1561,0.1757,-0.5007,-0.0410,0.1209,0.2029,14.0400,5.2800,47.6400,
5.098395,0.1561,0.1757,-0.5007,-0.0410,0.1209,0.2029,13.9800,5.2800,47.8800,
5.099183,0.1081,0.3290,0.2612,-0.0410,0.1209,0.2029,13.9800,5.2800,47.8800,
5.115006,0.1081,0.3290,0.2612,-0.0394,0.0011,0.1667,13.9800,5.2800,47.8800,
5.135671,0.1081,0.3290,0.2612,-0.1246,0.0660,0.0863,13.9800,5.2800,47.8800,
5.156688,0.1081,0.3290,0.2612,-0.1246,0.0660,0.0863,13.9800,5.2800,47.8800,
5.157465,0.1081,0.3290,0.2612,-0.1246,0.0660,0.0863,14.4000,5.2800,48.0600,
5.158098,0.1081,0.3290,0.2612,-0.1571,0.1529,0.0932,14.4000,5.2800,48.0600,
5.158533,-1.1515,-0.0262,-0.3044,-0.1571,0.1529,0.0932,14.4000,5.2800,48.0600,
5.176861,-1.1515,-0.0262,-0.3044,-0.1880,0.0533,0.1896,14.4000,5.2800,48.0600,
5.197196,-1.1515,-0.0262,-0.3044,-0.1955,-0.0240,0.2535,14.4000,5.2800,48.0600,
5.218834,-1.1515,-0.0262,-0.3044,-0.1955,-0.0240,0.2535,14.4000,5.2800,48.0600,
5.219674,-1.1515,-0.0262,-0.3044,-0.1955,-0.0240,0.2535,14.2200,4.7400,48.3600,
5.220181,-1.1515,-0.0262,-0.3044,-0.1870,0.0224,0.1545,14.2200,4.7400,48.3600,
5.220685,0.4231,0.2541,-0.3495,-0.1870,0.0224,0.1545,14.2200,4.7400,48.3600,
5.238035,0.4231,0.2541,-0.3495,-0.2562,0.0389,0.0117,14.2200,4.7400,48.3600,
5.258975,0.4231,0.2541,-0.3495,-0.3041,0.1422,-0.0756,14.2200,4.7400,48.3600,
5.280164,0.4231,0.2541,-0.3495,-0.3041,0.1422,-0.0756,14.2200,4.7400,48.3600,
5.281117,0.4231,0.2541,-0.3495,-0.3041,0.1422,-0.0756,13.8000,4.1400,47.5200,
5.281735,0.4231,0.2541,-0.3495,-0.3153,0.2184,-0.0431,13.8000,4.1400,47.5200,
5.282205,-0.2413,0.0408,0.1420,-0.3153,0.2184,-0.0431,13.8000,4.1400,47.5200,
5.299995,-0.2413,0.0408,0.1420,-0.2913,0.2168,0.0469,13.8000,4.1400,47.5200,
5.320322,-0.2413,0.0408,0.1420,-0.2312,0.1108,0.0639,13.8000,4.1400,47.5200,
5.342110,-0.2413,0.0408,0.1420,-0.2312,0.1108,0.0639,13.8000,4.1400,47.5200,
5.343215,-0.2413,0.0408,0.1420,-0.2312,0.1108,0.0639,13.3800,3.5400,47.1600,
5.343874,-0.2413,0.0408,0.1420,-0.1294,0.1044,-0.0783,13.3800,3.5400,47.1600,
5.344415,-0.1656,-0.0165,-0.0886,-0.1294,0.1044,-0.0783,13.3800,3.5400,47.1600,
5.361445,-0.1656,-0.0165,-0.0886,-0.0506,0.2567,-0.1742,13.3800,3.5400,47.1600,
5.382156,-0.1656,-0.0165,-0.0886,-0.0565,0.3057,-0.0762,13.3800,3.5400,47.1600,
5.403582,-0.1656,-0.0165,-0.0886,-0.0565,0.3057,-0.0762,13.3800,3.5400,47.1600,
5.404876,-0.1656,-0.0165,-0.0886,-0.0565,0.3057,-0.0762,12.9000,2.7600,47.1600,
5.405601,-0.1656,-0.0165,-0.0886,-0.0820,0.2429,0.0676,12.9000,2.7600,47.1600,
5.406168,-0.2548,0.1499,-0.0515,-0.0820,0.2429,0.0676,12.9000,2.7600,47.1600,
5.423104,-0.2548,0.1499,-0.0515,-0.0847,0.2807,0.1241,12.9000,2.7600,47.1600,
5.443896,-0.2548,0.1499,-0.0515,-0.0879,0.2882,0.0511,12.9000,2.7600,47.1600,
5.465345,-0.2548,0.1499,-0.0515,-0.0879,0.2882,0.0511,12.9000,2.7600,47.1600,
5.466414,-0.6848,-0.1769,0.0488,-0.0879,0.2882,0.0511,12.9000,2.7600,47.1600,
5.467203,-0.6848,-0.1769,0.0488,-0.0879,0.2882,0.0511,12.7800,2.2800,47.4000,
5.467702,-0.6848,-0.1769,0.0488,-0.0234,0.1369,-0.0783,12.7800,2.2800,47.4000,
5.485155,-0.6848,-0.1769,0.0488,0.0676,0.0447,-0.0336,12.7800,2.2800,47.4000,
5.506768,-0.6848,-0.1769,0.0488,0.0383,0.0107,0.1491,12.7800,2.2800,47.4000,
5.526958,-0.6848,-0.1769,0.0488,0.0383,0.0107,0.1491,12.7800,2.2800,47.4000,
5.528103,-0.6848,-0.1769,0.0488,0.0383,0.0107,0.1491,12.4800,2.2800,48.6000,
5.530840,-0.6848,-0.1769,0.0488,-0.0357,-0.1241,0.2125,12.4800,2.2800,48.6000,
5.532952,0.4357,-0.2469,-0.2676,-0.0357,-0.1241,0.2125,12.4800,2.2800,48.6000,
5.546876,0.4357,-0.2469,-0.2676,-0.0277,-0.1092,0.1182,12.4800,2.2800,48.6000,
5.567252,0.4357,-0.2469,-0.2676,0.0170,-0.0138,0.0282,12.4800,2.2800,48.6000,
5.588943,0.4357,-0.2469,-0.2676,0.0170,-0.0138,0.0282,12.4800,2.2800,48.6000,
5.590336,0.1406,0.0793,-0.1280,0.0170,-0.0138,0.0282,12.4800,2.2800,48.6000,
5.591335,0.1406,0.0793,-0.1280,0.0170,-0.0138,0.0282,12.0000,2.2800,49.0200,
5.592111,0.1406,0.0793,-0.1280,0.0069,0.1486,0.0224,12.0000,2.2800,49.0200,
5.610126,0.1406,0.0793,-0.1280,-0.0655,0.2365,0.1103,12.0000,2.2800,49.0200,
5.629288,0.1406,0.0793,-0.1280,-0.1188,0.0921,0.0799,12.0000,2.2800,49.0200,
5.650405,0.1406,0.0793,-0.1280,-0.1188,0.0921,0.0799,12.0000,2.2800,49.0200,
5.651652,0.1406,0.0793,-0.1280,-0.1188,0.0921,0.0799,11.4600,1.8000,49.1400,
5.652768,0.1406,0.0793,-0.1280,-0.1071,0.1305,0.0069,11.4600,1.8000,49.1400,
5.653354,-0.5170,-0.0186,0.2279,-0.1071,0.1305,0.0069,11.4600,1.8000,49.1400,
5.669271,-0.5170,-0.0186,0.2279,-0.0996,0.1694,0.0234,11.4600,1.8000,49.1400,
5.690426,-0.5170,-0.0186,0.2279,-0.1097,-0.1166,0.0756,11.4600,1.8000,49.1400,
5.712569,-0.5170,-0.0186,0.2279,-0.1097,-0.1166,0.0756,11.4600,1.8000,49.1400,
5.713456,-0.5170,-0.0186,0.2279,-0.1097,-0.1166,0.0756,10.9200,1.9800,48.9000,
5.714379,-0.5170,-0.0186,0.2279,-0.0868,-0.2700,0.0613,10.9200,1.9800,48.9000,
5.714731,0.1786,-0.3582,-0.2095,-0.0868,-0.2700,0.0613,10.9200,1.9800,48.9000,
5.730606,0.1786,-0.3582,-0.2095,-0.0597,-0.1087,0.0304,10.9200,1.9800,48.9000,
5.750993,0.1786,-0.3582,-0.2095,-0.0085,-0.0533,-0.0208,10.9200,1.9800,48.9000,
5.772655,0.1786,-0.3582,-0.2095,-0.0085,-0.0533,-0.0208,10.9200,1.9800,48.9000,
5.773303,0.1786,-0.3582,-0.2095,-0.0085,-0.0533,-0.0208,11.0400,1.9200,48.8400,
5.773758,0.1786,-0.3582,-0.2095,-0.0554,0.1800,-0.0698,11.0400,1.9200,48.8400,
5.774096,0.1419,0.2192,-0.0225,-0.0554,0.1800,-0.0698,11.0400,1.9200,48.8400,
5.792117,0.1419,0.2192,-0.0225,-0.1758,0.2093,-0.1156,11.0400,1.9200,48.8400,
5.813039,0.1419,0.2192,-0.0225,-0.2503,-0.1017,-0.1422,11.0400,1.9200,48.8400,
5.834510,0.1419,0.2192,-0.0225,-0.2503,-0.1017,-0.1422,11.0400,1.9200,48.8400,
5.835600,0.1419,0.2192,-0.0225,-0.2503,-0.1017,-0.1422,11.2200,1.5600,49.2000,
5.836424,0.1419,0.2192,-0.0225,-0.2663,-0.1768,-0.1380,11.2200,1.5600,49.2000,
5.837104,-0.4843,-0.2960,-0.1158,-0.2663,-0.1768,-0.1380,11.2200,1.5600,49.2000,
5.854295,-0.4843,-0.2960,-0.1158,-0.2860,-0.1385,-0.1582,11.2200,1.5600,49.2000,
5.875095,-0.4843,-0.2960,-0.1158,-0.2743,-0.1023,-0.2099,11.2200,1.5600,49.2000,
5.897253,-0.4843,-0.2960,-0.1158,-0.2743,-0.1023,-0.2099,11.2200,1.5600,49.2000,
5.898412,0.0149,0.1022,-0.0531,-0.2743,-0.1023,-0.2099,11.2200,1.5600,49.2000,
5.899265,0.0149,0.1022,-0.0531,-0.2743,-0.1023,-0.2099,11.8200,1.6200,49.0800,
5.899923,0.0149,0.1022,-0.0531,-0.1886,-0.1502,-0.1997,11.8200,1.6200,49.0800,
5.917707,0.0149,0.1022,-0.0531,-0.1454,-0.0410,-0.2072,11.8200,1.6200,49.0800,
5.937476,0.0149,0.1022,-0.0531,-0.1694,-0.1204,-0.2770,11.8200,1.6200,49.0800,
5.957523,0.0149,0.1022,-0.0531,-0.1694,-0.1204,-0.2770,11.8200,1.6200,49.0800,
5.958032,0.3040,-0.5801,-0.0024,-0.1694,-0.1204,-0.2770,11.8200,1.6200,49.0800,
5.958397,0.3040,-0.5801,-0.0024,-0.1694,-0.1204,-0.2770,11.8800,0.9000,49.5000,
5.958716,0.3040,-0.5801,-0.0024,-0.1609,-0.0517,-0.3760,11.8800,0.9000,49.5000,
5.977785,0.3040,-0.5801,-0.0024,-0.1252,-0.0879,-0.4197,11.8800,0.9000,49.5000,
5.998697,0.3040,-0.5801,-0.0024,-0.0597,-0.1433,-0.4719,11.8800,0.9000,49.5000,
6.020750,0.3040,-0.5801,-0.0024,-0.0597,-0.1433,-0.4719,11.8800,0.9000,49.5000,
6.022117,0.3040,-0.5801,-0.0024,-0.0597,-0.1433,-0.4719,11.9400,0.3600,48.9000,
6.022956,0.3040,-0.5801,-0.0024,-0.0021,-0.1742,-0.5720,11.9400,0.3600,48.9000,
6.023657,0.2572,-0.8727,-0.1191,-0.0021,-0.1742,-0.5720,11.9400,0.3600,48.9000,
6.041198,0.2572,-0.8727,-0.1191,-0.0357,-0.0389,-0.3617,11.9400,0.3600,48.9000,
6.059473,0.2572,-0.8727,-0.1191,0.0005,0.0501,0.0133,11.9400,0.3600,48.9000,
6.081383,0.2572,-0.8727,-0.1191,0.0005,0.0501,0.0133,11.9400,0.3600,48.9000,
6.082678,-0.3850,0.8912,-0.0894,0.0005,0.0501,0.0133,11.9400,0.3600,48.9000,
6.083641,-0.3850,0.8912,-0.0894,0.0005,0.0501,0.0133,11.8800,0.1200,48.4800,
6.084344,-0.3850,0.8912,-0.0894,0.0453,0.0879,-0.1028,11.8800,0.1200,48.4800,
6.100957,-0.3850,0.8912,-0.0894,0.0991,0.0064,-0.3132,11.8800,0.1200,48.4800,
6.121416,-0.3850,0.8912,-0.0894,0.1055,0.0128,-0.3473,11.8800,0.1200,48.4800,
6.142748,-0.3850,0.8912,-0.0894,0.1055,0.0128,-0.3473,11.8800,0.1200,48.4800,
6.143822,-0.3850,0.8912,-0.0894,0.1055,0.0128,-0.3473,12.0600,0.0600,48.9000,
6.144703,-0.3850,0.8912,-0.0894,-0.0138,0.0410,-0.4282,12.0600,0.0600,48.9000,
6.145221,-0.1929,2.3867,-0.2197,-0.0138,0.0410,-0.4282,12.0600,0.0600,48.9000,
6.162703,-0.1929,2.3867,-0.2197,-0.2716,0.1534,-0.4613,12.0600,0.0600,48.9000,
6.183175,-0.1929,2.3867,-0.2197,-0.3302,0.0692,-0.4240,12.0600,0.0600,48.9000,
6.204774,-0.1929,2.3867,-0.2197,-0.3302,0.0692,-0.4240,12.0600,0.0600,48.9000,
6.206597,-0.1929,2.3867,-0.2197,-0.3302,0.0692,-0.4240,11.9400,0.0000,48.6600,
6.207540,-0.1929,2.3867,-0.2197,-0.1806,-0.0495,-0.3728,11.9400,0.0000,48.6600,
6.208498,-2.2560,1.5123,1.2088,-0.1806,-0.0495,-0.3728,11.9400,0.0000,48.6600,
6.224489,-2.2560,1.5123,1.2088,0.0123,-0.1055,-0.4490,11.9400,0.0000,48.6600,
6.245274,-2.2560,1.5123,1.2088,0.1124,-0.3169,-0.3446,11.9400,0.0000,48.6600,
6.264876,-2.2560,1.5123,1.2088,0.1124,-0.3169,-0.3446,11.9400,0.0000,48.6600,
6.265415,-2.2560,1.5123,1.2088,0.1124,-0.3169,-0.3446,12.3000,0.4800,49.5600,
6.265780,-2.2560,1.5123,1.2088,0.2258,-0.3899,-0.2147,12.3000,0.4800,49.5600,
6.266112,-1.9791,1.8545,1.3992,0.2258,-0.3899,-0.2147,12.3000,0.4800,49.5600,
6.285420,-1.9791,1.8545,1.3992,0.0208,-0.4341,-0.1907,12.3000,0.4800,49.5600,
6.306124,-1.9791,1.8545,1.3992,-0.3249,-0.0788,-0.0831,12.3000,0.4800,49.5600,
6.327326,-1.9791,1.8545,1.3992,-0.3249,-0.0788,-0.0831,12.3000,0.4800,49.5600,
6.328534,-1.9791,1.8545,1.3992,-0.3249,-0.0788,-0.0831,13.0200,0.6600,49.3800,
6.329396,-1.9791,1.8545,1.3992,-0.5055,0.7254,0.2541,13.0200,0.6600,49.3800,
6.330044,-0.9774,1.2994,-1.0335,-0.5055,0.7254,0.2541,13.0200,0.6600,49.3800,
6.346796,-0.9774,1.2994,-1.0335,-0.6173,0.8336,0.2642,13.0200,0.6600,49.3800,
6.367283,-0.9774,1.2994,-1.0335,-0.9523,0.4847,-0.1784,13.0200,0.6600,49.3800,
6.388651,-0.9774,1.2994,-1.0335,-0.9523,0.4847,-0.1784,13.0200,0.6600,49.3800,
6.389530,-0.9774,1.2994,-1.0335,-0.9523,0.4847,-0.1784,13.0200,0.6600,49.3200,
6.390029,-0.9774,1.2994,-1.0335,-0.7388,0.3957,-0.4234,13.0200,0.6600,49.3200,
6.390495,-1.5586,-3.4689,3.2304,-0.7388,0.3957,-0.4234,13.0200,0.6600,49.3200,
6.408978,-1.5586,-3.4689,3.2304,-0.1369,0.3132,-0.6818,13.0200,0.6600,49.3200,
6.429670,-1.5586,-3.4689,3.2304,0.2344,-0.1033,-0.8911,13.0200,0.6600,49.3200,
6.450795,-1.5586,-3.4689,3.2304,0.2344,-0.1033,-0.8911,13.0200,0.6600,49.3200,
6.452373,-1.5586,-3.4689,3.2304,0.2344,-0.1033,-0.8911,13.6200,0.5400,49.4400,
6.453542,-1.5586,-3.4689,3.2304,0.2679,-0.0778,-1.0562,13.6200,0.5400,49.4400,
6.454486,-2.1246,-2.9998,1.0387,0.2679,-0.0778,-1.0562,13.6200,0.5400,49.4400,
6.470457,-2.1246,-2.9998,1.0387,0.0138,-0.0543,-1.1521,13.6200,0.5400,49.4400,
6.490821,-2.1246,-2.9998,1.0387,-0.0288,-0.2450,-1.1361,13.6200,0.5400,49.4400,
6.512536,-2.1246,-2.9998,1.0387,-0.0288,-0.2450,-1.1361,13.6200,0.5400,49.4400,
6.513713,-2.1246,-2.9998,1.0387,-0.0288,-0.2450,-1.1361,13.6200,0.4200,49.4400,
6.514400,-2.1246,-2.9998,1.0387,0.1928,-0.4698,-1.2149,13.6200,0.4200,49.4400,
6.515132,-2.7439,-1.8632,1.5140,0.1928,-0.4698,-1.2149,13.6200,0.4200,49.4400,
6.532049,-2.7439,-1.8632,1.5140,0.1747,-0.4352,-1.2629,13.6200,0.4200,49.4400,
6.552569,-2.7439,-1.8632,1.5140,0.0154,-0.3249,-1.4056,13.6200,0.4200,49.4400,
6.573495,-2.7439,-1.8632,1.5140,0.0154,-0.3249,-1.4056,13.6200,0.4200,49.4400,
6.574635,-2.7439,-1.8632,1.5140,0.0154,-0.3249,-1.4056,13.8000,0.6000,50.2800,
6.575480,-2.7439,-1.8632,1.5140,-0.1257,-0.1614,-1.5904,13.8000,0.6000,50.2800,
6.576155,1.2008,0.6011,-1.1737,-0.1257,-0.1614,-1.5904,13.8000,0.6000,50.2800,
6.593044,1.2008,0.6011,-1.1737,-0.3025,-0.1353,-1.6911,13.8000,0.6000,50.2800,
6.614041,1.2008,0.6011,-1.1737,-0.6392,-0.1917,-1.6970,13.8000,0.6000,50.2800,
6.635413,1.2008,0.6011,-1.1737,-0.6392,-0.1917,-1.6970,13.8000,0.6000,50.2800,
6.636445,1.2008,0.6011,-1.1737,-0.6392,-0.1917,-1.6970,13.9800,0.9000,50.1600,
6.637053,1.2008,0.6011,-1.1737,-0.5880,-0.1864,-1.6096,13.9800,0.9000,50.1600,
6.637615,-0.9239,-1.9665,0.9604,-0.5880,-0.1864,-1.6096,13.9800,0.9000,50.1600,
6.654886,-0.9239,-1.9665,0.9604,-0.1278,-0.5880,-1.3619,13.9800,0.9000,50.1600,
6.674838,-0.9239,-1.9665,0.9604,0.0421,-0.9012,-1.1814,13.9800,0.9000,50.1600,
6.696304,-0.9239,-1.9665,0.9604,0.0421,-0.9012,-1.1814,13.9800,0.9000,50.1600,
6.696994,-0.9239,-1.9665,0.9604,0.0421,-0.9012,-1.1814,14.6400,1.9200,49.9800,
6.697734,-0.9239,-1.9665,0.9604,-0.2940,-0.6445,-1.0461,14.6400,1.9200,49.9800,
6.698225,0.8521,3.5690,-2.8065,-0.2940,-0.6445,-1.0461,14.6400,1.9200,49.9800,
6.716170,0.8521,3.5690,-2.8065,-0.7691,-0.0948,-0.9779,14.6400,1.9200,49.9800,
6.737174,0.8521,3.5690,-2.8065,-0.9017,0.1135,-1.0780,14.6400,1.9200,49.9800,
6.758256,0.8521,3.5690,-2.8065,-0.9017,0.1135,-1.0780,14.6400,1.9200,49.9800,
6.759356,0.8521,3.5690,-2.8065,-0.9017,0.1135,-1.0780,15.3600,2.3400,49.3800,
6.760094,0.8521,3.5690,-2.8065,-0.9103,-0.2482,-1.0184,15.3600,2.3400,49.3800,
6.760903,0.7413,-0.4754,-1.2090,-0.9103,-0.2482,-1.0184,15.3600,2.3400,49.3800,
6.777680,0.7413,-0.4754,-1.2090,-0.7798,-0.1688,-0.8021,15.3600,2.3400,49.3800,
6.798440,0.7413,-0.4754,-1.2090,-0.4240,0.0959,-0.9108,15.3600,2.3400,49.3800,
6.820957,0.7413,-0.4754,-1.2090,-0.4240,0.0959,-0.9108,15.3600,2.3400,49.3800,
6.822480,0.7413,-0.4754,-1.2090,-0.4240,0.0959,-0.9108,15.3600,1.8000,48.7200,
6.823271,0.7413,-0.4754,-1.2090,-0.2631,0.0021,-0.9529,15.3600,1.8000,48.7200,
6.823985,2.1461,1.7389,-1.0550,-0.2631,0.0021,-0.9529,15.3600,1.8000,48.7200,
6.840466,2.1461,1.7389,-1.0550,-0.4346,0.1017,-0.8746,15.3600,1.8000,48.7200,
6.861342,2.1461,1.7389,-1.0550,-0.7675,0.3750,-0.8144,15.3600,1.8000,48.7200,
6.882649,2.1461,1.7389,-1.0550,-0.7675,0.3750,-0.8144,15.3600,1.8000,48.7200,
6.883425,2.1461,1.7389,-1.0550,-0.7675,0.3750,-0.8144,16.1400,1.9200,48.0600,
6.883785,1.0111,-1.4014,-0.5266,-0.7675,0.3750,-0.8144,16.1400,1.9200,48.0600,
6.884195,1.0111,-1.4014,-0.5266,-0.8069,0.5081,-0.7974,16.1400,1.9200,48.0600,
6.901252,1.0111,-1.4014,-0.5266,-0.5896,0.4911,-0.8123,16.1400,1.9200,48.0600,
6.922264,1.0111,-1.4014,-0.5266,-0.2722,0.1965,-0.9225,16.1400,1.9200,48.0600,
6.943559,1.0111,-1.4014,-0.5266,-0.2722,0.1965,-0.9225,16.1400,1.9200,48.0600,
6.944743,1.0111,-1.4014,-0.5266,-0.2722,0.1965,-0.9225,16.3800,1.2600,48.5400,
6.945493,1.0111,-1.4014,-0.5266,-0.0586,0.1971,-0.8671,16.3800,1.2600,48.5400,
6.946126,-0.4088,0.9425,-0.4158,-0.0586,0.1971,-0.8671,16.3800,1.2600,48.5400,
6.962831,-0.4088,0.9425,-0.4158,-0.0272,0.3925,-0.6695,16.3800,1.2600,48.5400,
6.983874,-0.4088,0.9425,-0.4158,-0.0826,0.6732,-0.5928,16.3800,1.2600,48.5400,
7.004392,-0.4088,0.9425,-0.4158,-0.0826,0.6732,-0.5928,16.3800,1.2600,48.5400,
7.005218,-0.4088,0.9425,-0.4158,-0.0826,0.6732,-0.5928,15.8400,0.1800,48.7200,
7.005814,-0.4088,0.9425,-0.4158,-0.0724,0.8389,-0.6615,15.8400,0.1800,48.7200,
7.006226,-0.0426,-0.3844,-0.2568,-0.0724,0.8389,-0.6615,15.8400,0.1800,48.7200,
7.025112,-0.0426,-0.3844,-0.2568,0.0218,0.7771,-0.6690,15.8400,0.1800,48.7200,
7.045033,-0.0426,-0.3844,-0.2568,0.1262,0.6972,-0.7537,15.8400,0.1800,48.7200,
7.066451,-0.0426,-0.3844,-0.2568,0.1262,0.6972,-0.7537,15.8400,0.1800,48.7200,
7.067825,-0.0426,-0.3844,-0.2568,0.1262,0.6972,-0.7537,15.2400,0.3000,48.6600,
7.068694,-0.0426,-0.3844,-0.2568,0.1390,0.8448,-0.8725,15.2400,0.3000,48.6600,
7.069299,0.4184,-0.6790,-0.1613,0.1390,0.8448,-0.8725,15.2400,0.3000,48.6600,
7.085493,0.4184,-0.6790,-0.1613,0.0485,1.0711,-0.8719,15.2400,0.3000,48.6600,
7.106031,0.4184,-0.6790,-0.1613,-0.0874,1.3065,-0.8543,15.2400,0.3000,48.6600,
7.128457,0.4184,-0.6790,-0.1613,-0.0874,1.3065,-0.8543,15.2400,0.3000,48.6600,
7.129425,0.4184,-0.6790,-0.1613,-0.0874,1.3065,-0.8543,13.8600,-0.2400,49.6800,
7.130082,0.4184,-0.6790,-0.1613,-0.2583,1.3742,-0.8847,13.8600,-0.2400,49.6800,
7.130669,0.4649,-0.5897,0.0231,-0.2583,1.3742,-0.8847,13.8600,-0.2400,49.6800,
7.148432,0.4649,-0.5897,0.0231,-0.3995,1.3987,-1.0173,13.8600,-0.2400,49.6800,
7.167706,0.4649,-0.5897,0.0231,-0.5870,1.4349,-1.0610,13.8600,-0.2400,49.6800,
7.189621,0.4649,-0.5897,0.0231,-0.5870,1.4349,-1.0610,13.8600,-0.2400,49.6800,
7.190640,-1.0680,-0.2142,-0.0823,-0.5870,1.4349,-1.0610,13.8600,-0.2400,49.6800,
7.191289,-1.0680,-0.2142,-0.0823,-0.5870,1.4349,-1.0610,12.3600,0.0000,49.1400,
7.191799,-1.0680,-0.2142,-0.0823,-0.7782,1.2346,-0.9332,12.3600,0.0000,49.1400,
7.208391,-1.0680,-0.2142,-0.0823,-0.7334,1.1974,-0.8826,12.3600,0.0000,49.1400,
7.229955,-1.0680,-0.2142,-0.0823,-0.5257,1.1148,-1.0285,12.3600,0.0000,49.1400,
7.251064,-1.0680,-0.2142,-0.0823,-0.5257,1.1148,-1.0285,12.3600,0.0000,49.1400,
7.252425,-1.0680,-0.2142,-0.0823,-0.5257,1.1148,-1.0285,10.2600,0.1200,49.1400,
7.253165,-1.0680,-0.2142,-0.0823,-0.2823,0.7318,-1.1521,10.2600,0.1200,49.1400,
7.253787,-2.1378,-0.4975,2.2040,-0.2823,0.7318,-1.1521,10.2600,0.1200,49.1400,
7.271251,-2.1378,-0.4975,2.2040,-0.0213,0.3483,-1.1926,10.2600,0.1200,49.1400,
7.290642,-2.1378,-0.4975,2.2040,0.2194,0.2642,-1.2016,10.2600,0.1200,49.1400,
7.312562,-2.1378,-0.4975,2.2040,0.2194,0.2642,-1.2016,10.2600,0.1200,49.1400,
7.313738,-2.1378,-0.4975,2.2040,0.2194,0.2642,-1.2016,7.7400,-0.6000,49.5600,
7.314477,-2.1378,-0.4975,2.2040,0.3372,0.3308,-1.2586,7.7400,-0.6000,49.5600,
7.315150,-0.1627,1.3838,1.1769,0.3372,0.3308,-1.2586,7.7400,-0.6000,49.5600,
7.332198,-0.1627,1.3838,1.1769,0.3393,0.4538,-1.3534,7.7400,-0.6000,49.5600,
7.353007,-0.1627,1.3838,1.1769,0.3132,0.5060,-1.3944,7.7400,-0.6000,49.5600,
7.374326,-0.1627,1.3838,1.1769,0.3132,0.5060,-1.3944,7.7400,-0.6000,49.5600,
7.375454,-0.1627,1.3838,1.1769,0.3132,0.5060,-1.3944,5.2200,-0.9600,49.3200,
7.376188,-0.1627,1.3838,1.1769,0.2924,0.3409,-1.4317,5.2200,-0.9600,49.3200,
7.376882,0.6403,1.1313,0.8803,0.2924,0.3409,-1.4317,5.2200,-0.9600,49.3200,
7.393306,0.6403,1.1313,0.8803,0.3398,0.3675,-1.5121,5.2200,-0.9600,49.3200,
7.414544,0.6403,1.1313,0.8803,0.4714,0.5337,-1.6842,5.2200,-0.9600,49.3200,
7.436494,0.6403,1.1313,0.8803,0.4714,0.5337,-1.6842,5.2200,-0.9600,49.3200,
7.437582,0.6403,1.1313,0.8803,0.4714,0.5337,-1.6842,2.9400,-1.7400,49.7400,
7.438369,0.6403,1.1313,0.8803,0.5875,0.4687,-1.7806,2.9400,-1.7400,49.7400,
7.439024,1.3741,0.3022,0.7801,0.5875,0.4687,-1.7806,2.9400,-1.7400,49.7400,
7.455427,1.3741,0.3022,0.7801,0.6642,0.2445,-1.7417,2.9400,-1.7400,49.7400,
7.475988,1.3741,0.3022,0.7801,0.7079,0.1204,-1.5105,2.9400,-1.7400,49.7400,
7.496922,1.3741,0.3022,0.7801,0.7079,0.1204,-1.5105,2.9400,-1.7400,49.7400,
7.497525,1.3741,0.3022,0.7801,0.7079,0.1204,-1.5105,1.0200,-1.6200,49.9800,
7.497851,1.3741,0.3022,0.7801,0.6898,0.2961,-1.1910,1.0200,-1.6200,49.9800,
7.498157,-0.3571,-0.4076,-0.0101,0.6898,0.2961,-1.1910,1.0200,-1.6200,49.9800,
7.517236,-0.3571,-0.4076,-0.0101,0.5715,0.6397,-0.9465,1.0200,-1.6200,49.9800,
7.538316,-0.3571,-0.4076,-0.0101,0.2967,0.4794,-0.8394,1.0200,-1.6200,49.9800,
7.559058,-0.3571,-0.4076,-0.0101,0.2967,0.4794,-0.8394,1.0200,-1.6200,49.9800,
7.560142,-0.3571,-0.4076,-0.0101,0.2967,0.4794,-0.8394,-0.0600,-0.7200,50.1000,
7.561124,-0.3571,-0.4076,-0.0101,0.0639,0.0751,-0.8197,-0.0600,-0.7200,50.1000,
7.561797,-0.9483,0.0111,0.6473,0.0639,0.0751,-0.8197,-0.0600,-0.7200,50.1000,
7.578542,-0.9483,0.0111,0.6473,0.0549,-0.0234,-0.7244,-0.0600,-0.7200,50.1000,
7.599359,-0.9483,0.0111,0.6473,0.1188,-0.1513,-0.4836,-0.0600,-0.7200,50.1000,
7.620474,-0.9483,0.0111,0.6473,0.1188,-0.1513,-0.4836,-0.0600,-0.7200,50.1000,
7.621782,-0.9483,0.0111,0.6473,0.1188,-0.1513,-0.4836,-1.0800,0.3000,50.2200,
7.622550,-0.9483,0.0111,0.6473,0.1678,-0.1214,-0.2780,-1.0800,0.3000,50.2200,
7.623034,-1.2454,1.4552,0.7048,0.1678,-0.1214,-0.2780,-1.0800,0.3000,50.2200,
7.641446,-1.2454,1.4552,0.7048,0.2216,0.1124,-0.1555,-1.0800,0.3000,50.2200,
7.661527,-1.2454,1.4552,0.7048,0.2344,0.3734,-0.0618,-1.0800,0.3000,50.2200,
7.682601,-1.2454,1.4552,0.7048,0.2344,0.3734,-0.0618,-1.0800,0.3000,50.2200,
7.683723,-1.2454,1.4552,0.7048,0.2344,0.3734,-0.0618,-1.5600,1.6800,50.0400,
7.684814,-0.3130,0.8685,1.0418,0.2344,0.3734,-0.0618,-1.5600,1.6800,50.0400,
7.685311,-0.3130,0.8685,1.0418,0.1337,0.4799,0.0708,-1.5600,1.6800,50.0400,
7.701933,-0.3130,0.8685,1.0418,0.0154,0.2546,0.1955,-1.5600,1.6800,50.0400,
7.721698,-0.3130,0.8685,1.0418,0.0149,0.1198,0.2573,-1.5600,1.6800,50.0400,
7.743969,-0.3130,0.8685,1.0418,0.0149,0.1198,0.2573,-1.5600,1.6800,50.0400,
7.745200,0.5130,1.9817,1.0180,0.0149,0.1198,0.2573,-1.5600,1.6800,50.0400,
7.746153,0.5130,1.9817,1.0180,0.0149,0.1198,0.2573,-1.5000,2.7000,50.0400,
7.746710,0.5130,1.9817,1.0180,0.0463,0.0650,0.3206,-1.5000,2.7000,50.0400,
7.763278,0.5130,1.9817,1.0180,0.1358,-0.0373,0.4181,-1.5000,2.7000,50.0400,
7.783694,0.5130,1.9817,1.0180,0.2642,-0.0921,0.5518,-1.5000,2.7000,50.0400,
7.804946,0.5130,1.9817,1.0180,0.2642,-0.0921,0.5518,-1.5000,2.7000,50.0400,
7.805567,0.5130,1.9817,1.0180,0.2642,-0.0921,0.5518,-1.6800,3.4200,49.9200,
7.805975,0.5130,1.9817,1.0180,0.3979,-0.2317,0.6855,-1.6800,3.4200,49.9200,
7.806296,1.8373,0.3293,1.0735,0.3979,-0.2317,0.6855,-1.6800,3.4200,49.9200,
7.825377,1.8373,0.3293,1.0735,0.4234,-0.2903,0.7020,-1.6800,3.4200,49.9200,
7.844394,1.8373,0.3293,1.0735,0.3622,-0.3563,0.5262,-1.6800,3.4200,49.9200,
7.865720,1.8373,0.3293,1.0735,0.3622,-0.3563,0.5262,-1.6800,3.4200,49.9200,
7.866318,1.8373,0.3293,1.0735,0.3622,-0.3563,0.5262,-1.5600,4.1400,49.6200,
7.866636,1.8373,0.3293,1.0735,0.2706,-0.4149,0.2061,-1.5600,4.1400,49.6200,
7.866896,1.1895,-1.4198,-0.7601,0.2706,-0.4149,0.2061,-1.5600,4.1400,49.6200,
7.885596,1.1895,-1.4198,-0.7601,0.1688,-0.4325,-0.1720,-1.5600,4.1400,49.6200,
7.906079,1.1895,-1.4198,-0.7601,0.2189,-0.4453,-0.3739,-1.5600,4.1400,49.6200,
7.927381,1.1895,-1.4198,-0.7601,0.2189,-0.4453,-0.3739,-1.5600,4.1400,49.6200,
7.928058,1.1895,-1.4198,-0.7601,0.2189,-0.4453,-0.3739,-1.3800,4.7400,49.2600,
7.928562,1.1895,-1.4198,-0.7601,0.2455,-0.4677,-0.3366,-1.3800,4.7400,49.2600,
7.928974,-1.2678,-0.2098,0.0116,0.2455,-0.4677,-0.3366,-1.3800,4.7400,49.2600,
7.947017,-1.2678,-0.2098,0.0116,0.1997,-0.4261,-0.2812,-1.3800,4.7400,49.2600,
7.967848,-1.2678,-0.2098,0.0116,0.1838,-0.4565,-0.2407,-1.3800,4.7400,49.2600,
7.989196,-1.2678,-0.2098,0.0116,0.1838,-0.4565,-0.2407,-1.3800,4.7400,49.2600,
7.989837,-1.2678,-0.2098,0.0116,0.1838,-0.4565,-0.2407,-1.0200,5.5800,48.8400,
7.990261,-1.2678,-0.2098,0.0116,0.1395,-0.5060,-0.1880,-1.0200,5.5800,48.8400,
7.990523,-0.2534,0.4320,0.1040,0.1395,-0.5060,-0.1880,-1.0200,5.5800,48.8400,
8.009038,-0.2534,0.4320,0.1040,0.1150,-0.4208,-0.1411,-1.0200,5.5800,48.8400,
8.029006,-0.2534,0.4320,0.1040,0.0453,-0.1044,-0.1113,-1.0200,5.5800,48.8400,
8.050840,-0.2534,0.4320,0.1040,0.0453,-0.1044,-0.1113,-1.0200,5.5800,48.8400,
8.051357,-0.2534,0.4320,0.1040,0.0453,-0.1044,-0.1113,-0.1200,6.4800,48.3600,
8.051656,-0.2534,0.4320,0.1040,-0.0075,0.1582,-0.1129,-0.1200,6.4800,48.3600,
8.051872,0.3443,-0.0644,-0.2719,-0.0075,0.1582,-0.1129,-0.1200,6.4800,48.3600,
8.070398,0.3443,-0.0644,-0.2719,0.0170,0.2386,-0.1848,-0.1200,6.4800,48.3600,
8.090779,0.3443,-0.0644,-0.2719,-0.0112,0.0027,-0.3222,-0.1200,6.4800,48.3600,
8.111860,0.3443,-0.0644,-0.2719,-0.0112,0.0027,-0.3222,-0.1200,6.4800,48.3600,
8.112408,0.3443,-0.0644,-0.2719,-0.0112,0.0027,-0.3222,0.6600,6.9600,48.3600,
8.112673,0.3443,-0.0644,-0.2719,0.0479,-0.2237,-0.4037,0.6600,6.9600,48.3600,
8.112866,-0.5117,-0.2282,0.9769,0.0479,-0.2237,-0.4037,0.6600,6.9600,48.3600,
8.131965,-0.5117,-0.2282,0.9769,0.1928,-0.3878,-0.3334,0.6600,6.9600,48.3600,
8.152152,-0.5117,-0.2282,0.9769,0.2077,-0.5273,-0.2866,0.6600,6.9600,48.3600,
8.173567,-0.5117,-0.2282,0.9769,0.2077,-0.5273,-0.2866,0.6600,6.9600,48.3600,
8.174093,-0.5117,-0.2282,0.9769,0.2077,-0.5273,-0.2866,1.1400,7.4400,48.4200,
8.174445,-0.5117,-0.2282,0.9769,0.1273,-0.4181,-0.2455,1.1400,7.4400,48.4200,
8.174755,-0.2787,-0.0179,0.5425,0.1273,-0.4181,-0.2455,1.1400,7.4400,48.4200,
8.193295,-0.2787,-0.0179,0.5425,0.0682,-0.2402,-0.1358,1.1400,7.4400,48.4200,
8.216436,-0.2787,-0.0179,0.5425,-0.0043,0.0985,0.0442,1.1400,7.4400,48.4200,
8.236026,-0.2787,-0.0179,0.5425,-0.0043,0.0985,0.0442,1.1400,7.4400,48.4200,
8.236705,-0.2787,-0.0179,0.5425,-0.0043,0.0985,0.0442,1.6200,7.7400,48.3000,
8.237163,-0.2787,-0.0179,0.5425,0.0144,0.7654,0.1742,1.6200,7.7400,48.3000,
8.237524,0.3254,0.1523,0.5734,0.0144,0.7654,0.1742,1.6200,7.7400,48.3000,
8.255125,0.3254,0.1523,0.5734,0.0788,1.3305,0.1965,1.6200,7.7400,48.3000,
8.275870,0.3254,0.1523,0.5734,-0.2322,1.2586,0.1278,1.6200,7.7400,48.3000,
8.296852,0.3254,0.1523,0.5734,-0.2322,1.2586,0.1278,1.6200,7.7400,48.3000,
8.297521,0.3254,0.1523,0.5734,-0.2322,1.2586,0.1278,1.8000,7.7400,48.1200,
8.297857,0.3254,0.1523,0.5734,-0.1475,1.0637,-0.0128,1.8000,7.7400,48.1200,
8.298296,1.4287,0.2564,1.1060,-0.1475,1.0637,-0.0128,1.8000,7.7400,48.1200,
8.316597,1.4287,0.2564,1.1060,0.0495,0.5598,-0.0889,1.8000,7.7400,48.1200,
8.336936,1.4287,0.2564,1.1060,0.0698,0.3244,-0.1609,1.8000,7.7400,48.1200,
8.358175,1.4287,0.2564,1.1060,0.0698,0.3244,-0.1609,1.8000,7.7400,48.1200,
8.358748,1.4287,0.2564,1.1060,0.0698,0.3244,-0.1609,1.0200,7.8000,47.6400,
8.359096,-1.2972,-0.4888,-0.5209,0.0698,0.3244,-0.1609,1.0200,7.8000,47.6400,
8.359492,-1.2972,-0.4888,-0.5209,-0.2077,-0.0250,-0.0378,1.0200,7.8000,47.6400,
8.378697,-1.2972,-0.4888,-0.5209,-0.1326,-0.1454,-0.0011,1.0200,7.8000,47.6400,
8.398470,-1.2972,-0.4888,-0.5209,0.0842,-0.0847,-0.0218,1.0200,7.8000,47.6400,
8.419833,-1.2972,-0.4888,-0.5209,0.0842,-0.0847,-0.0218,1.0200,7.8000,47.6400,
8.421998,-1.2972,-0.4888,-0.5209,0.0842,-0.0847,-0.0218,0.4800,7.8000,47.3400,
8.422373,-1.2972,-0.4888,-0.5209,0.0762,-0.1523,0.0442,0.4800,7.8000,47.3400,
8.422649,-0.4748,0.0484,0.3517,0.0762,-0.1523,0.0442,0.4800,7.8000,47.3400,
8.439771,-0.4748,0.0484,0.3517,0.0011,-0.1310,0.0479,0.4800,7.8000,47.3400,
8.460041,-0.4748,0.0484,0.3517,-0.1268,-0.0059,0.0277,0.4800,7.8000,47.3400,
8.481272,-0.4748,0.0484,0.3517,-0.1268,-0.0059,0.0277,0.4800,7.8000,47.3400,
8.481804,-0.1501,0.1427,-0.0052,-0.1268,-0.0059,0.0277,0.4800,7.8000,47.3400,
8.482041,-0.1501,0.1427,-0.0052,-0.1268,-0.0059,0.0277,-0.4800,7.0800,47.2800,
8.482366,-0.1501,0.1427,-0.0052,-0.1534,0.0879,0.0165,-0.4800,7.0800,47.2800,
8.504268,-0.1501,0.1427,-0.0052,-0.1566,-0.1028,0.0692,-0.4800,7.0800,47.2800,
8.522022,-0.1501,0.1427,-0.0052,-0.0804,-0.2450,0.0378,-0.4800,7.0800,47.2800,
8.542919,-0.1501,0.1427,-0.0052,-0.0804,-0.2450,0.0378,-0.4800,7.0800,47.2800,
8.543452,-0.2293,-0.2909,0.5788,-0.0804,-0.2450,0.0378,-0.4800,7.0800,47.2800,
8.543809,-0.2293,-0.2909,0.5788,-0.0804,-0.2450,0.0378,-1.2600,6.8400,47.1600,
8.544122,-0.2293,-0.2909,0.5788,0.0245,-0.1672,0.0357,-1.2600,6.8400,47.1600,
8.563312,-0.2293,-0.2909,0.5788,0.1438,-0.0889,0.0591,-1.2600,6.8400,47.1600,
8.583301,-0.2293,-0.2909,0.5788,0.1044,-0.2477,0.0751,-1.2600,6.8400,47.1600,
8.605463,-0.2293,-0.2909,0.5788,0.1044,-0.2477,0.0751,-1.2600,6.8400,47.1600,
8.606023,-0.2293,-0.2909,0.5788,0.1044,-0.2477,0.0751,-0.9600,6.6000,47.1600,
8.606381,0.0526,0.5106,0.0855,0.1044,-0.2477,0.0751,-0.9600,6.6000,47.1600,
8.606743,0.0526,0.5106,0.0855,0.0980,-0.4602,-0.0655,-0.9600,6.6000,47.1600,
8.624708,0.0526,0.5106,0.0855,0.1411,-0.5151,-0.0879,-0.9600,6.6000,47.1600,
8.645211,0.0526,0.5106,0.0855,0.1401,-0.4282,0.1822,-0.9600,6.6000,47.1600,
8.666032,0.0526,0.5106,0.0855,0.1401,-0.4282,0.1822,-0.9600,6.6000,47.1600,
8.666668,0.0526,0.5106,0.0855,0.1401,-0.4282,0.1822,-0.9000,6.1800,46.8600,
8.667075,0.5403,-0.5740,-0.7382,0.1401,-0.4282,0.1822,-0.9000,6.1800,46.8600,
8.667389,0.5403,-0.5740,-0.7382,0.0964,-0.2248,0.1848,-0.9000,6.1800,46.8600,
8.685859,0.5403,-0.5740,-0.7382,0.0964,-0.1545,-0.0272,-0.9000,6.1800,46.8600,
8.706724,0.5403,-0.5740,-0.7382,0.0453,-0.3350,-0.2221,-0.9000,6.1800,46.8600,
8.727656,0.5403,-0.5740,-0.7382,0.0453,-0.3350,-0.2221,-0.9000,6.1800,46.8600,
8.728272,0.5324,0.5362,-0.4030,0.0453,-0.3350,-0.2221,-0.9000,6.1800,46.8600,
8.728675,0.5324,0.5362,-0.4030,0.0453,-0.3350,-0.2221,-0.3000,7.0200,46.4400,
8.728990,0.5324,0.5362,-0.4030,0.0272,-0.5518,-0.3819,-0.3000,7.0200,46.4400,
8.747460,0.5324,0.5362,-0.4030,0.0517,-0.5965,-0.3308,-0.3000,7.0200,46.4400,
8.767898,0.5324,0.5362,-0.4030,0.0900,-0.4352,-0.2487,-0.3000,7.0200,46.4400,
8.789207,0.5324,0.5362,-0.4030,0.0900,-0.4352,-0.2487,-0.3000,7.0200,46.4400,
8.789817,0.5324,0.5362,-0.4030,0.0900,-0.4352,-0.2487,0.6000,7.2000,46.3200,
8.790176,0.5324,0.5362,-0.4030,0.0985,-0.2860,-0.2264,0.6000,7.2000,46.3200,
8.790432,-0.4800,0.3414,-0.3287,0.0985,-0.2860,-0.2264,0.6000,7.2000,46.3200,
8.809039,-0.4800,0.3414,-0.3287,0.0352,-0.2290,-0.1545,0.6000,7.2000,46.3200,
8.829770,-0.4800,0.3414,-0.3287,0.0107,-0.1449,-0.0399,0.6000,7.2000,46.3200,
8.851195,-0.4800,0.3414,-0.3287,0.0107,-0.1449,-0.0399,0.6000,7.2000,46.3200,
8.851837,-0.4800,0.3414,-0.3287,0.0107,-0.1449,-0.0399,1.3200,7.8000,46.2600,
8.852104,-0.4800,0.3414,-0.3287,0.1337,-0.0852,0.0309,1.3200,7.8000,46.2600,
8.852415,-0.4759,-0.7926,-0.1712,0.1337,-0.0852,0.0309,1.3200,7.8000,46.2600,
8.870881,-0.4759,-0.7926,-0.1712,0.2013,0.1103,0.0325,1.3200,7.8000,46.2600,
8.891041,-0.4759,-0.7926,-0.1712,0.1401,0.0581,-0.1475,1.3200,7.8000,46.2600,
8.913431,-0.4759,-0.7926,-0.1712,0.1401,0.0581,-0.1475,1.3200,7.8000,46.2600,
8.914009,-0.4567,-0.1607,-0.5157,0.1401,0.0581,-0.1475,1.3200,7.8000,46.2600,
8.914442,-0.4567,-0.1607,-0.5157,0.1401,0.0581,-0.1475,2.2200,8.5200,46.6800,
8.914770,-0.4567,-0.1607,-0.5157,0.2237,0.0842,-0.3244,2.2200,8.5200,46.6800,
8.932206,-0.4567,-0.1607,-0.5157,0.1044,-0.3558,-0.2594,2.2200,8.5200,46.6800,
8.952931,-0.4567,-0.1607,-0.5157,0.0000,-0.7020,-0.1742,2.2200,8.5200,46.6800,
8.974016,-0.4567,-0.1607,-0.5157,0.0000,-0.7020,-0.1742,2.2200,8.5200,46.6800,
8.978314,-0.4567,-0.1607,-0.5157,0.0000,-0.7020,-0.1742,2.8800,8.4600,46.8600,
8.979889,-0.8883,-0.1426,0.1662,0.0000,-0.7020,-0.1742,2.8800,8.4600,46.8600,
8.981874,-0.8883,-0.1426,0.1662,0.0597,-0.4416,-0.0133,2.8800,8.4600,46.8600,
8.993750,-0.8883,-0.1426,0.1662,0.1827,-0.1182,0.2152,2.8800,8.4600,46.8600,
9.014139,-0.8883,-0.1426,0.1662,0.2621,-0.0112,0.2977,2.8800,8.4600,46.8600,
9.035517,-0.8883,-0.1426,0.1662,0.2621,-0.0112,0.2977,2.8800,8.4600,46.8600,
9.036013,-0.8883,-0.1426,0.1662,0.2621,-0.0112,0.2977,3.6600,8.8800,47.0400,
9.036422,0.1396,-0.1042,1.0211,0.2621,-0.0112,0.2977,3.6600,8.8800,47.0400,
9.036742,0.1396,-0.1042,1.0211,0.4788,-0.2903,0.3068,3.6600,8.8800,47.0400,
9.055244,0.1396,-0.1042,1.0211,0.6754,-0.8586,0.3377,3.6600,8.8800,47.0400,
9.075919,0.1396,-0.1042,1.0211,0.7409,-1.1148,0.5678,3.6600,8.8800,47.0400,
9.096896,0.1396,-0.1042,1.0211,0.7409,-1.1148,0.5678,3.6600,8.8800,47.0400,
9.097479,-0.3029,-0.3166,-0.8512,0.7409,-1.1148,0.5678,3.6600,8.8800,47.0400,
9.097869,-0.3029,-0.3166,-0.8512,0.7409,-1.1148,0.5678,4.3200,9.5400,47.2800,
9.098150,-0.3029,-0.3166,-0.8512,0.7079,-0.8815,0.6386,4.3200,9.5400,47.2800,
9.116831,-0.3029,-0.3166,-0.8512,0.6722,-0.6669,0.6109,4.3200,9.5400,47.2800,
9.137574,-0.3029,-0.3166,-0.8512,0.5188,-0.5273,0.7025,4.3200,9.5400,47.2800,
9.158575,-0.3029,-0.3166,-0.8512,0.5188,-0.5273,0.7025,4.3200,9.5400,47.2800,
9.159205,-0.3029,-0.3166,-0.8512,0.5188,-0.5273,0.7025,5.3400,10.3200,47.1600,
9.159584,1.6303,-0.6878,-0.3682,0.5188,-0.5273,0.7025,5.3400,10.3200,47.1600,
9.159930,1.6303,-0.6878,-0.3682,0.5113,-0.4027,0.6216,5.3400,10.3200,47.1600,
9.178325,1.6303,-0.6878,-0.3682,0.3286,-0.2850,0.3409,5.3400,10.3200,47.1600,
9.199187,1.6303,-0.6878,-0.3682,0.0261,-0.2812,0.1135,5.3400,10.3200,47.1600,
9.220190,1.6303,-0.6878,-0.3682,0.0261,-0.2812,0.1135,5.3400,10.3200,47.1600,
9.220957,-0.5967,0.3882,-0.0309,0.0261,-0.2812,0.1135,5.3400,10.3200,47.1600,
9.221605,-0.5967,0.3882,-0.0309,0.0261,-0.2812,0.1135,6.9000,11.3400,47.0400,
9.222136,-0.5967,0.3882,-0.0309,0.1337,-0.3654,0.1055,6.9000,11.3400,47.0400,
9.240183,-0.5967,0.3882,-0.0309,0.3302,-0.0618,0.2482,6.9000,11.3400,47.0400,
9.260694,-0.5967,0.3882,-0.0309,0.3734,-0.0181,0.3654,6.9000,11.3400,47.0400,
9.282650,-0.5967,0.3882,-0.0309,0.3734,-0.0181,0.3654,6.9000,11.3400,47.0400,
9.283296,-0.8727,0.4315,0.0241,0.3734,-0.0181,0.3654,6.9000,11.3400,47.0400,
9.283678,-0.8727,0.4315,0.0241,0.3734,-0.0181,0.3654,7.9800,12.5400,46.5000,
9.284036,-0.8727,0.4315,0.0241,0.3675,-0.1182,0.5097,7.9800,12.5400,46.5000,
9.301669,-0.8727,0.4315,0.0241,0.3665,0.0847,0.6184,7.9800,12.5400,46.5000,
9.322337,-0.8727,0.4315,0.0241,0.3425,0.0895,0.7590,7.9800,12.5400,46.5000,
9.343370,-0.8727,0.4315,0.0241,0.3425,0.0895,0.7590,7.9800,12.5400,46.5000,
9.343828,-0.8727,0.4315,0.0241,0.3425,0.0895,0.7590,9.3000,13.3200,45.7800,
9.344112,-0.8727,0.4315,0.0241,0.2088,-0.0304,0.7617,9.3000,13.3200,45.7800,
9.344437,-0.7878,0.0941,-0.4812,0.2088,-0.0304,0.7617,9.3000,13.3200,45.7800,
9.363214,-0.7878,0.0941,-0.4812,0.0245,-0.2631,0.7776,9.3000,13.3200,45.7800,
9.383709,-0.7878,0.0941,-0.4812,0.0399,-0.4091,0.8687,9.3000,13.3200,45.7800,
9.405369,-0.7878,0.0941,-0.4812,0.0399,-0.4091,0.8687,9.3000,13.3200,45.7800,
9.405944,-0.7878,0.0941,-0.4812,0.0399,-0.4091,0.8687,10.2000,14.0400,45.3000,
9.406262,-0.7878,0.0941,-0.4812,0.0447,-0.5912,1.0301,10.2000,14.0400,45.3000,
9.406530,-1.0047,0.5177,-0.2005,0.0447,-0.5912,1.0301,10.2000,14.0400,45.3000,
9.424796,-1.0047,0.5177,-0.2005,0.0921,-0.6887,1.2277,10.2000,14.0400,45.3000,
9.445444,-1.0047,0.5177,-0.2005,0.1667,-0.4953,1.2826,10.2000,14.0400,45.3000,
9.466490,-1.0047,0.5177,-0.2005,0.1667,-0.4953,1.2826,10.2000,14.0400,45.3000,
9.467093,-1.0047,0.5177,-0.2005,0.1667,-0.4953,1.2826,11.0400,14.2200,45.5400,
9.467339,-1.0047,0.5177,-0.2005,-0.0304,-0.6562,1.0994,11.0400,14.2200,45.5400,
9.467642,0.8699,-1.9447,-1.3605,-0.0304,-0.6562,1.0994,11.0400,14.2200,45.5400,
9.486299,0.8699,-1.9447,-1.3605,-0.1172,-1.0786,0.7111,11.0400,14.2200,45.5400,
9.506807,0.8699,-1.9447,-1.3605,-0.1150,-0.9827,0.6434,11.0400,14.2200,45.5400,
9.528094,0.8699,-1.9447,-1.3605,-0.1150,-0.9827,0.6434,11.0400,14.2200,45.5400,
9.528639,0.8699,-1.9447,-1.3605,-0.1150,-0.9827,0.6434,12.8400,14.4600,45.5400,
9.528929,0.8699,-1.9447,-1.3605,-0.1678,-0.9049,0.4959,12.8400,14.4600,45.5400,
9.529272,0.4466,1.3784,0.0757,-0.1678,-0.9049,0.4959,12.8400,14.4600,45.5400,
9.547929,0.4466,1.3784,0.0757,0.0192,-0.3254,0.2892,12.8400,14.4600,45.5400,
9.568387,0.4466,1.3784,0.0757,0.2152,0.0703,0.3121,12.8400,14.4600,45.5400,
9.589628,0.4466,1.3784,0.0757,0.2152,0.0703,0.3121,12.8400,14.4600,45.5400,
9.590157,0.4466,1.3784,0.0757,0.2152,0.0703,0.3121,14.8200,14.1000,45.9000,
9.590419,0.4466,1.3784,0.0757,0.2008,-0.0490,0.5550,14.8200,14.1000,45.9000,
9.590659,-0.5520,-0.1919,-0.0489,0.2008,-0.0490,0.5550,14.8200,14.1000,45.9000,
9.609420,-0.5520,-0.1919,-0.0489,0.1417,-0.0650,0.6573,14.8200,14.1000,45.9000,
9.630015,-0.5520,-0.1919,-0.0489,0.0085,-0.1023,0.6695,14.8200,14.1000,45.9000,
9.653184,-0.5520,-0.1919,-0.0489,0.0085,-0.1023,0.6695,14.8200,14.1000,45.9000,
9.653754,-0.5520,-0.1919,-0.0489,0.0085,-0.1023,0.6695,16.7400,13.4400,45.4800,
9.654195,-0.5520,-0.1919,-0.0489,0.0186,-0.0112,0.5081,16.7400,13.4400,45.4800,
9.654514,-0.1109,-0.3498,0.4173,0.0186,-0.0112,0.5081,16.7400,13.4400,45.4800,
9.671028,-0.1109,-0.3498,0.4173,0.3361,0.2439,0.3531,16.7400,13.4400,45.4800,
9.691508,-0.1109,-0.3498,0.4173,0.2754,0.0000,0.1225,16.7400,13.4400,45.4800,
9.712722,-0.1109,-0.3498,0.4173,0.2754,0.0000,0.1225,16.7400,13.4400,45.4800,
9.713229,-0.1109,-0.3498,0.4173,0.2754,0.0000,0.1225,18.4200,13.3200,44.0400,
9.713523,-0.1109,-0.3498,0.4173,0.0591,-0.3510,0.1007,18.4200,13.3200,44.0400,
9.713799,0.8286,-0.6168,-1.0181,0.0591,-0.3510,0.1007,18.4200,13.3200,44.0400,
9.732647,0.8286,-0.6168,-1.0181,-0.0133,-0.1843,0.1539,18.4200,13.3200,44.0400,
9.753039,0.8286,-0.6168,-1.0181,-0.1603,-0.1587,0.3728,18.4200,13.3200,44.0400,
9.774900,0.8286,-0.6168,-1.0181,-0.1603,-0.1587,0.3728,18.4200,13.3200,44.0400,
9.775423,0.8286,-0.6168,-1.0181,-0.1603,-0.1587,0.3728,19.3200,12.2400,43.0200,
9.775945,0.8286,-0.6168,-1.0181,-0.1683,-0.2061,0.5167,19.3200,12.2400,43.0200,
9.776279,-0.5918,0.2803,-0.2385,-0.1683,-0.2061,0.5167,19.3200,12.2400,43.0200,
9.794096,-0.5918,0.2803,-0.2385,-0.1582,-0.1763,0.4479,19.3200,12.2400,43.0200,
9.814688,-0.5918,0.2803,-0.2385,-0.0298,-0.0650,0.3963,19.3200,12.2400,43.0200,
9.835881,-0.5918,0.2803,-0.2385,-0.0298,-0.0650,0.3963,19.3200,12.2400,43.0200,
9.836648,-0.5918,0.2803,-0.2385,-0.0298,-0.0650,0.3963,19.9800,11.8200,42.3600,
9.836968,-0.5918,0.2803,-0.2385,0.0751,0.0085,0.0394,19.9800,11.8200,42.3600,
9.837207,-0.4481,1.6566,0.1028,0.0751,0.0085,0.0394,19.9800,11.8200,42.3600,
9.855826,-0.4481,1.6566,0.1028,0.1635,0.0586,-0.1076,19.9800,11.8200,42.3600,
9.876130,-0.4481,1.6566,0.1028,0.1422,-0.1656,-0.1145,19.9800,11.8200,42.3600,
9.897438,-0.4481,1.6566,0.1028,0.1422,-0.1656,-0.1145,19.9800,11.8200,42.3600,
9.897965,-0.4481,1.6566,0.1028,0.1422,-0.1656,-0.1145,20.7000,11.7600,42.1200,
9.898288,-0.4481,1.6566,0.1028,-0.0234,-0.5758,-0.1699,20.7000,11.7600,42.1200,
9.898561,-0.0608,-0.1924,-0.4585,-0.0234,-0.5758,-0.1699,20.7000,11.7600,42.1200,
9.917164,-0.0608,-0.1924,-0.4585,-0.3105,-0.8677,-0.1917,20.7000,11.7600,42.1200,
9.937755,-0.0608,-0.1924,-0.4585,-0.4618,-1.0722,-0.0714,20.7000,11.7600,42.1200,
9.958819,-0.0608,-0.1924,-0.4585,-0.4618,-1.0722,-0.0714,20.7000,11.7600,42.1200,
9.959255,0.0176,0.0603,0.4365,-0.4618,-1.0722,-0.0714,20.7000,11.7600,42.1200,
9.959555,0.0176,0.0603,0.4365,-0.4618,-1.0722,-0.0714,20.8800,11.5200,42.4200,
9.959806,0.0176,0.0603,0.4365,-0.2898,-0.8219,0.1049,20.8800,11.5200,42.4200,
9.978780,0.0176,0.0603,0.4365,-0.1997,-0.4432,-0.0570,20.8800,11.5200,42.4200,
9.999175,0.0176,0.0603,0.4365,-0.0405,0.0660,-0.3292,20.8800,11.5200,42.4200,
10.020609,0.0176,0.0603,0.4365,-0.0405,0.0660,-0.3292,20.8800,11.5200,42.4200,
10.021262,0.0176,0.0603,0.4365,-0.0405,0.0660,-0.3292,21.7800,10.8600,42.4200,
10.021659,0.0176,0.0603,0.4365,-0.2115,-0.0043,-0.5571,21.7800,10.8600,42.4200,
10.021927,0.3397,1.1617,-1.1872,-0.2115,-0.0043,-0.5571,21.7800,10.8600,42.4200,
10.040357,0.3397,1.1617,-1.1872,-0.5673,-0.1348,-0.8021,21.7800,10.8600,42.4200,
10.060929,0.3397,1.1617,-1.1872,-0.4437,0.3712,-1.0402,21.7800,10.8600,42.4200,
10.082048,0.3397,1.1617,-1.1872,-0.4437,0.3712,-1.0402,21.7800,10.8600,42.4200,
10.082635,0.3397,1.1617,-1.1872,-0.4437,0.3712,-1.0402,22.0800,10.6800,42.2400,
10.082981,0.3397,1.1617,-1.1872,-0.2104,0.7846,-1.0514,22.0800,10.6800,42.2400,
10.083305,-0.1594,1.9776,-0.0733,-0.2104,0.7846,-1.0514,22.0800,10.6800,42.2400,
10.101891,-0.1594,1.9776,-0.0733,0.1507,1.0477,-0.6754,22.0800,10.6800,42.2400,
10.122380,-0.1594,1.9776,-0.0733,0.2450,1.2650,-0.5230,22.0800,10.6800,42.2400,
10.143709,-0.1594,1.9776,-0.0733,0.2450,1.2650,-0.5230,22.0800,10.6800,42.2400,
10.144436,-0.1594,1.9776,-0.0733,0.2450,1.2650,-0.5230,22.4400,10.9200,42.3000,
10.144806,-0.1594,1.9776,-0.0733,0.1971,1.2517,-0.4261,22.4400,10.9200,42.3000,
10.145130,0.1148,-3.2420,0.0258,0.1971,1.2517,-0.4261,22.4400,10.9200,42.3000,
10.163463,0.1148,-3.2420,0.0258,0.1710,0.8144,-0.4591,22.4400,10.9200,42.3000,
10.183942,0.1148,-3.2420,0.0258,0.0410,0.4575,-0.2754,22.4400,10.9200,42.3000,
10.205196,0.1148,-3.2420,0.0258,0.0410,0.4575,-0.2754,22.4400,10.9200,42.3000,
10.205809,0.1148,-3.2420,0.0258,0.0410,0.4575,-0.2754,22.5000,11.1600,42.6000,
10.206174,0.1148,-3.2420,0.0258,-0.1289,0.0597,0.2131,22.5000,11.1600,42.6000,
10.206434,-2.7935,-0.5380,-0.7483,-0.1289,0.0597,0.2131,22.5000,11.1600,42.6000,
10.225019,-2.7935,-0.5380,-0.7483,-0.3473,-0.2892,0.5667,22.5000,11.1600,42.6000,
10.245558,-2.7935,-0.5380,-0.7483,-0.4788,-0.3989,0.5151,22.5000,11.1600,42.6000,
10.266721,-2.7935,-0.5380,-0.7483,-0.4788,-0.3989,0.5151,22.5000,11.1600,42.6000,
10.267224,-2.7935,-0.5380,-0.7483,-0.4788,-0.3989,0.5151,20.8200,11.8200,43.4400,
10.267581,-2.7935,-0.5380,-0.7483,-0.3419,-0.3910,0.3569,20.8200,11.8200,43.4400,
10.267904,-0.3738,-0.1549,0.8972,-0.3419,-0.3910,0.3569,20.8200,11.8200,43.4400,
10.286568,-0.3738,-0.1549,0.8972,-0.2812,-0.4405,0.2653,20.8200,11.8200,43.4400,
10.307136,-0.3738,-0.1549,0.8972,-0.2477,-0.3952,0.2418,20.8200,11.8200,43.4400,
10.328368,-0.3738,-0.1549,0.8972,-0.2477,-0.3952,0.2418,20.8200,11.8200,43.4400,
10.329004,-0.3738,-0.1549,0.8972,-0.2477,-0.3952,0.2418,19.8000,11.8800,44.2800,
10.329350,-0.3738,-0.1549,0.8972,-0.1715,-0.2748,0.3324,19.8000,11.8800,44.2800,
10.329593,-0.6715,-0.5922,0.2956,-0.1715,-0.2748,0.3324,19.8000,11.8800,44.2800,
10.348387,-0.6715,-0.5922,0.2956,0.0266,-0.0160,0.5422,19.8000,11.8800,44.2800,
10.368640,-0.6715,-0.5922,0.2956,0.1800,0.1747,0.6701,19.8000,11.8800,44.2800,
10.389883,-0.6715,-0.5922,0.2956,0.1800,0.1747,0.6701,19.8000,11.8800,44.2800,
10.390421,-0.6715,-0.5922,0.2956,0.1800,0.1747,0.6701,18.9600,11.5200,44.7000,
10.390771,-0.6715,-0.5922,0.2956,0.1603,0.5534,0.7143,18.9600,11.5200,44.7000,
10.391074,0.4039,-1.2840,-0.2731,0.1603,0.5534,0.7143,18.9600,11.5200,44.7000,
10.409656,0.4039,-1.2840,-0.2731,0.2583,0.5689,0.6956,18.9600,11.5200,44.7000,
10.430229,0.4039,-1.2840,-0.2731,0.1848,0.0304,0.8266,18.9600,11.5200,44.7000,
10.451469,0.4039,-1.2840,-0.2731,0.1848,0.0304,0.8266,18.9600,11.5200,44.7000,
10.451988,0.4039,-1.2840,-0.2731,0.1848,0.0304,0.8266,19.2600,10.9200,45.1800,
10.452339,0.4039,-1.2840,-0.2731,-0.2296,-0.8554,0.7894,19.2600,10.9200,45.1800,
10.452641,0.8071,0.0470,-0.7484,-0.2296,-0.8554,0.7894,19.2600,10.9200,45.1800,
10.471296,0.8071,0.0470,-0.7484,-0.2855,-0.9071,0.7105,19.2600,10.9200,45.1800,
10.491707,0.8071,0.0470,-0.7484,-0.1848,-0.7079,0.7851,19.2600,10.9200,45.1800,
10.513094,0.8071,0.0470,-0.7484,-0.1848,-0.7079,0.7851,19.2600,10.9200,45.1800,
10.513680,0.8071,0.0470,-0.7484,-0.1848,-0.7079,0.7851,20.0400,9.6000,44.7000,
10.514064,0.8071,0.0470,-0.7484,-0.2200,-0.8740,0.8458,20.0400,9.6000,44.7000,
10.514399,0.4542,-0.8538,0.1327,-0.2200,-0.8740,0.8458,20.0400,9.6000,44.7000,
10.532940,0.4542,-0.8538,0.1327,0.0101,-0.8405,0.6615,20.0400,9.6000,44.7000,
10.553497,0.4542,-0.8538,0.1327,0.2376,-0.5635,0.7201,20.0400,9.6000,44.7000,
10.574446,0.4542,-0.8538,0.1327,0.2376,-0.5635,0.7201,20.0400,9.6000,44.7000,
10.574879,0.4542,-0.8538,0.1327,0.2376,-0.5635,0.7201,21.6000,9.0000,44.1000,
10.575164,0.4542,-0.8538,0.1327,0.2605,-0.3846,0.7952,21.6000,9.0000,44.1000,
10.575400,-0.6035,0.3247,-0.5983,0.2605,-0.3846,0.7952,21.6000,9.0000,44.1000,
10.594394,-0.6035,0.3247,-0.5983,0.2280,-0.3329,0.7574,21.6000,9.0000,44.1000,
10.614917,-0.6035,0.3247,-0.5983,0.2317,-0.3531,0.7691,21.6000,9.0000,44.1000,
10.636298,-0.6035,0.3247,-0.5983,0.2317,-0.3531,0.7691,21.6000,9.0000,44.1000,
10.637022,-0.6035,0.3247,-0.5983,0.2317,-0.3531,0.7691,23.0400,8.1000,43.8000,
10.637410,-0.6035,0.3247,-0.5983,0.4666,-0.5193,0.9433,23.0400,8.1000,43.8000,
10.637762,-0.2305,-0.2930,0.0535,0.4666,-0.5193,0.9433,23.0400,8.1000,43.8000,
10.656016,-0.2305,-0.2930,0.0535,-0.1252,0.2013,0.2700,23.0400,8.1000,43.8000,
10.676447,-0.2305,-0.2930,0.0535,-0.0442,-0.3973,-0.0181,23.0400,8.1000,43.8000,
10.697734,-0.2305,-0.2930,0.0535,-0.0442,-0.3973,-0.0181,23.0400,8.1000,43.8000,
10.698289,-0.2305,-0.2930,0.0535,-0.0442,-0.3973,-0.0181,24.4800,7.3200,43.3800,
10.698654,-0.2305,-0.2930,0.0535,0.0868,-0.2503,-0.0415,24.4800,7.3200,43.3800,
10.698944,-1.0403,0.8570,-0.4298,0.0868,-0.2503,-0.0415,24.4800,7.3200,43.3800,
10.717586,-1.0403,0.8570,-0.4298,0.1294,0.0447,-0.0495,24.4800,7.3200,43.3800,
10.738119,-1.0403,0.8570,-0.4298,0.1545,-0.0921,0.0511,24.4800,7.3200,43.3800,
10.759449,-1.0403,0.8570,-0.4298,0.1545,-0.0921,0.0511,24.4800,7.3200,43.3800,
10.759935,-1.0403,0.8570,-0.4298,0.1545,-0.0921,0.0511,25.8600,7.3200,42.8400,
10.760320,-1.0403,0.8570,-0.4298,0.0352,-0.0261,0.0629,25.8600,7.3200,42.8400,
10.760526,-0.6811,-0.4866,-0.3243,0.0352,-0.0261,0.0629,25.8600,7.3200,42.8400,
10.779208,-0.6811,-0.4866,-0.3243,-0.0522,-0.0048,-0.0218,25.8600,7.3200,42.8400,
10.799817,-0.6811,-0.4866,-0.3243,-0.1353,-0.1007,-0.1246,25.8600,7.3200,42.8400,
10.821057,-0.6811,-0.4866,-0.3243,-0.1353,-0.1007,-0.1246,25.8600,7.3200,42.8400,
10.821613,-0.6811,-0.4866,-0.3243,-0.1353,-0.1007,-0.1246,27.0000,7.3200,42.4200,
10.821847,-0.5221,0.4861,0.2752,-0.1353,-0.1007,-0.1246,27.0000,7.3200,42.4200,
10.822245,-0.5221,0.4861,0.2752,-0.0959,-0.1513,-0.1369,27.0000,7.3200,42.4200,
10.840822,-0.5221,0.4861,0.2752,0.0479,0.1609,-0.1007,27.0000,7.3200,42.4200,
10.861282,-0.5221,0.4861,0.2752,0.1896,0.5348,0.0623,27.0000,7.3200,42.4200,
10.882559,-0.5221,0.4861,0.2752,0.1896,0.5348,0.0623,27.0000,7.3200,42.4200,
10.883089,-0.5221,0.4861,0.2752,0.1896,0.5348,0.0623,27.3000,7.1400,42.0000,
10.883348,-0.5221,0.4861,0.2752,0.1561,0.4442,0.1593,27.3000,7.1400,42.0000,
10.883670,-0.2920,-0.1268,0.7705,0.1561,0.4442,0.1593,27.3000,7.1400,42.0000,
10.902282,-0.2920,-0.1268,0.7705,0.0788,0.2285,0.1704,27.3000,7.1400,42.0000,
10.922807,-0.2920,-0.1268,0.7705,0.0389,0.1529,0.1598,27.3000,7.1400,42.0000,
10.944106,-0.2920,-0.1268,0.7705,0.0389,0.1529,0.1598,27.3000,7.1400,42.0000,
10.944693,-0.2920,-0.1268,0.7705,0.0389,0.1529,0.1598,26.8200,7.6800,41.5200,
10.945045,-0.2920,-0.1268,0.7705,-0.0176,0.0607,0.1822,26.8200,7.6800,41.5200,
10.945290,-0.4847,0.3390,0.3525,-0.0176,0.0607,0.1822,26.8200,7.6800,41.5200,
10.963779,-0.4847,0.3390,0.3525,0.0117,0.0815,0.2381,26.8200,7.6800,41.5200,
10.984425,-0.4847,0.3390,0.3525,0.0479,0.1470,0.2423,26.8200,7.6800,41.5200,
11.005596,-0.4847,0.3390,0.3525,0.0479,0.1470,0.2423,26.8200,7.6800,41.5200,
11.006213,-0.1065,0.1349,0.0799,0.0479,0.1470,0.2423,26.8200,7.6800,41.5200,
11.006579,-0.1065,0.1349,0.0799,0.0479,0.1470,0.2423,26.4600,7.4400,41.3400,
11.006854,-0.1065,0.1349,0.0799,-0.0027,0.1747,0.1225,26.4600,7.4400,41.3400,
11.025338,-0.1065,0.1349,0.0799,-0.0027,0.0703,0.0309,26.4600,7.4400,41.3400,
11.045884,-0.1065,0.1349,0.0799,0.0282,0.1150,0.0256,26.4600,7.4400,41.3400,
11.067095,-0.1065,0.1349,0.0799,0.0282,0.1150,0.0256,26.4600,7.4400,41.3400,
11.067572,-0.1065,0.1349,0.0799,0.0282,0.1150,0.0256,25.8600,7.1400,41.5800,
11.067826,-0.1065,0.1349,0.0799,0.0112,0.1539,0.0980,25.8600,7.1400,41.5800,
11.068049,-0.3380,-0.2063,0.0750,0.0112,0.1539,0.0980,25.8600,7.1400,41.5800,
11.087048,-0.3380,-0.2063,0.0750,-0.0186,0.0778,0.0985,25.8600,7.1400,41.5800,
11.107519,-0.3380,-0.2063,0.0750,-0.0362,0.0016,0.0815,25.8600,7.1400,41.5800,
11.128757,-0.3380,-0.2063,0.0750,-0.0362,0.0016,0.0815,25.8600,7.1400,41.5800,
11.129368,-0.3380,-0.2063,0.0750,-0.0362,0.0016,0.0815,25.8600,7.5000,41.7000,
11.129760,-0.3380,-0.2063,0.0750,-0.0362,0.0277,0.0629,25.8600,7.5000,41.7000,
11.130032,-0.0955,-0.0243,-0.0483,-0.0362,0.0277,0.0629,25.8600,7.5000,41.7000,
11.148583,-0.0955,-0.0243,-0.0483,-0.0011,0.0874,0.0554,25.8600,7.5000,41.7000,
11.169024,-0.0955,-0.0243,-0.0483,-0.0011,0.0346,0.0405,25.8600,7.5000,41.7000,
11.190283,-0.0955,-0.0243,-0.0483,-0.0011,0.0346,0.0405,25.8600,7.5000,41.7000,
11.190884,-0.0955,-0.0243,-0.0483,-0.0011,0.0346,0.0405,25.9200,6.7200,42.4200,
11.191230,-0.0955,-0.0243,-0.0483,0.0101,-0.0719,0.0623,25.9200,6.7200,42.4200,
11.191492,-0.1484,-0.0183,0.1314,0.0101,-0.0719,0.0623,25.9200,6.7200,42.4200,
11.210105,-0.1484,-0.0183,0.1314,0.0362,-0.0650,0.0794,25.9200,6.7200,42.4200,
11.230599,-0.1484,-0.0183,0.1314,0.0325,-0.0559,0.0852,25.9200,6.7200,42.4200,
11.251976,-0.1484,-0.0183,0.1314,0.0325,-0.0559,0.0852,25.9200,6.7200,42.4200,
11.252774,-0.1484,-0.0183,0.1314,0.0325,-0.0559,0.0852,26.2800,6.6000,42.6600,
11.253214,-0.1484,-0.0183,0.1314,-0.0123,-0.0197,0.0889,26.2800,6.6000,42.6600,
11.253494,-0.0581,-0.0988,-0.1234,-0.0123,-0.0197,0.0889,26.2800,6.6000,42.6600,
11.271741,-0.0581,-0.0988,-0.1234,-0.0123,-0.0053,0.1092,26.2800,6.6000,42.6600,
11.292170,-0.0581,-0.0988,-0.1234,0.0538,0.0895,0.0863,26.2800,6.6000,42.6600,
11.313414,-0.0581,-0.0988,-0.1234,0.0538,0.0895,0.0863,26.2800,6.6000,42.6600,
11.313992,-0.0581,-0.0988,-0.1234,0.0538,0.0895,0.0863,25.7400,6.4800,42.8400,
11.314424,-0.0581,-0.0988,-0.1234,0.1012,0.2221,0.1007,25.7400,6.4800,42.8400,
11.314689,-0.0688,0.0030,-0.1377,0.1012,0.2221,0.1007,25.7400,6.4800,42.8400,
11.333295,-0.0688,0.0030,-0.1377,0.1246,0.1385,0.0767,25.7400,6.4800,42.8400,
11.353838,-0.0688,0.0030,-0.1377,0.0820,0.0501,0.0676,25.7400,6.4800,42.8400,
11.375070,-0.0688,0.0030,-0.1377,0.0820,0.0501,0.0676,25.7400,6.4800,42.8400,
11.375574,-0.0688,0.0030,-0.1377,0.0820,0.0501,0.0676,25.2600,5.8800,42.7800,
11.375904,-0.0688,0.0030,-0.1377,0.0288,-0.0197,0.0682,25.2600,5.8800,42.7800,
11.376161,-0.1620,-0.2037,-0.2424,0.0288,-0.0197,0.0682,25.2600,5.8800,42.7800,
11.395718,-0.1620,-0.2037,-0.2424,0.0123,0.0245,0.0762,25.2600,5.8800,42.7800,
11.415409,-0.1620,-0.2037,-0.2424,0.0272,0.0399,0.0921,25.2600,5.8800,42.7800,
11.436618,-0.1620,-0.2037,-0.2424,0.0272,0.0399,0.0921,25.2600,5.8800,42.7800,
11.437187,-0.1620,-0.2037,-0.2424,0.0272,0.0399,0.0921,25.3800,6.0000,42.7800,
11.437519,-0.1620,-0.2037,-0.2424,0.0330,0.0149,0.0863,25.3800,6.0000,42.7800,
11.437769,-0.0240,0.0287,0.0475,0.0330,0.0149,0.0863,25.3800,6.0000,42.7800,
11.456518,-0.0240,0.0287,0.0475,0.0421,-0.0112,0.0325,25.3800,6.0000,42.7800,
11.476908,-0.0240,0.0287,0.0475,-0.0075,-0.0352,0.0043,25.3800,6.0000,42.7800,
11.498147,-0.0240,0.0287,0.0475,-0.0075,-0.0352,0.0043,25.3800,6.0000,42.7800,
11.498615,-0.0240,0.0287,0.0475,-0.0075,-0.0352,0.0043,25.3200,5.8200,43.0800,
11.498955,-0.0240,0.0287,0.0475,-0.0277,-0.1252,-0.0607,25.3200,5.8200,43.0800,
11.499188,-0.2031,0.0532,-0.1704,-0.0277,-0.1252,-0.0607,25.3200,5.8200,43.0800,
11.517873,-0.2031,0.0532,-0.1704,-0.0234,-0.0879,-0.0858,25.3200,5.8200,43.0800,
11.538537,-0.2031,0.0532,-0.1704,0.0373,0.0447,-0.0937,25.3200,5.8200,43.0800,
11.559725,-0.2031,0.0532,-0.1704,0.0373,0.0447,-0.0937,25.3200,5.8200,43.0800,
11.560375,-0.2031,0.0532,-0.1704,0.0373,0.0447,-0.0937,25.2600,5.5200,43.0800,
11.560732,-0.2031,0.0532,-0.1704,0.1087,0.1790,-0.0064,25.2600,5.5200,43.0800,
11.560991,0.0780,-0.2225,0.0398,0.1087,0.1790,-0.0064,25.2600,5.5200,43.0800,
11.579552,0.0780,-0.2225,0.0398,0.0623,-0.1214,0.0538,25.2600,5.5200,43.0800,
11.600011,0.0780,-0.2225,0.0398,0.0826,0.0357,0.0389,25.2600,5.5200,43.0800,
11.621317,0.0780,-0.2225,0.0398,0.0826,0.0357,0.0389,25.2600,5.5200,43.0800,
11.621842,0.0780,-0.2225,0.0398,0.0826,0.0357,0.0389,25.3200,5.3400,43.1400,
11.622156,0.0780,-0.2225,0.0398,0.0463,0.0282,0.0383,25.3200,5.3400,43.1400,
11.622389,-0.0020,-0.0931,0.0466,0.0463,0.0282,0.0383,25.3200,5.3400,43.1400,
11.641046,-0.0020,-0.0931,0.0466,-0.0027,-0.0272,0.0048,25.3200,5.3400,43.1400,
11.661743,-0.0020,-0.0931,0.0466,0.0293,0.0309,-0.0389,25.3200,5.3400,43.1400,
11.682843,-0.0020,-0.0931,0.0466,0.0293,0.0309,-0.0389,25.3200,5.3400,43.1400,
11.683385,-0.0020,-0.0931,0.0466,0.0293,0.0309,-0.0389,25.0800,5.3400,42.9000,
11.683734,-0.0020,-0.0931,0.0466,0.0266,-0.0011,-0.0549,25.0800,5.3400,42.9000,
11.683993,-0.0765,-0.0322,0.1307,0.0266,-0.0011,-0.0549,25.0800,5.3400,42.9000,
11.702958,-0.0765,-0.0322,0.1307,0.0272,-0.0208,-0.0602,25.0800,5.3400,42.9000,
11.724913,-0.0765,-0.0322,0.1307,-0.0250,-0.0900,-0.0495,25.0800,5.3400,42.9000,
11.744864,-0.0765,-0.0322,0.1307,-0.0250,-0.0900,-0.0495,25.0800,5.3400,42.9000,
11.745778,-0.0765,-0.0322,0.1307,-0.0250,-0.0900,-0.0495,25.3200,5.5200,42.8400,
11.746243,-0.0765,-0.0322,0.1307,-0.0075,-0.0176,-0.0048,25.3200,5.5200,42.8400,
11.746694,-0.0494,0.0600,-0.2564,-0.0075,-0.0176,-0.0048,25.3200,5.5200,42.8400,
11.764769,-0.0494,0.0600,-0.2564,0.0069,-0.0383,0.0575,25.3200,5.5200,42.8400,
11.785507,-0.0494,0.0600,-0.2564,-0.0107,-0.0719,0.0644,25.3200,5.5200,42.8400,
11.806658,-0.0494,0.0600,-0.2564,-0.0107,-0.0719,0.0644,25.3200,5.5200,42.8400,
11.807593,-0.0889,-0.1168,0.0016,-0.0107,-0.0719,0.0644,25.3200,5.5200,42.8400,
11.808175,-0.0889,-0.1168,0.0016,-0.0107,-0.0719,0.0644,25.6200,5.8200,42.5400,
11.809037,-0.0889,-0.1168,0.0016,-0.1092,-0.1736,0.0389,25.6200,5.8200,42.5400,
11.827152,-0.0889,-0.1168,0.0016,-0.1236,-0.1364,0.0410,25.6200,5.8200,42.5400,
11.847261,-0.0889,-0.1168,0.0016,-0.0602,-0.0261,0.0597,25.6200,5.8200,42.5400,
11.867943,-0.0889,-0.1168,0.0016,-0.0602,-0.0261,0.0597,25.6200,5.8200,42.5400,
11.868655,-0.0889,-0.1168,0.0016,-0.0602,-0.0261,0.0597,25.9200,6.4200,42.7200,
11.869073,-0.0889,-0.1168,0.0016,-0.0107,0.0059,0.0650,25.9200,6.4200,42.7200,
11.869373,0.0678,0.1735,-0.1134,-0.0107,0.0059,0.0650,25.9200,6.4200,42.7200,
11.888285,0.0678,0.1735,-0.1134,-0.1124,-0.1502,0.1539,25.9200,6.4200,42.7200,
11.908526,0.0678,0.1735,-0.1134,-0.4629,-0.4634,0.2546,25.9200,6.4200,42.7200,
11.930198,0.0678,0.1735,-0.1134,-0.4629,-0.4634,0.2546,25.9200,6.4200,42.7200,
11.931313,0.0678,0.1735,-0.1134,-0.4629,-0.4634,0.2546,26.1000,6.3600,42.3600,
11.932089,0.0678,0.1735,-0.1134,-0.6248,-0.3872,0.1641,26.1000,6.3600,42.3600,
11.932733,-0.3580,-0.8198,0.1477,-0.6248,-0.3872,0.1641,26.1000,6.3600,42.3600,
11.950556,-0.3580,-0.8198,0.1477,-0.7766,-0.6706,0.0256,26.1000,6.3600,42.3600,
11.969842,-0.3580,-0.8198,0.1477,-0.2786,0.0959,-0.0160,26.1000,6.3600,42.3600,
11.991984,-0.3580,-0.8198,0.1477,-0.2786,0.0959,-0.0160,26.1000,6.3600,42.3600,
11.992917,-0.3580,-0.8198,0.1477,-0.2786,0.0959,-0.0160,25.9800,6.1800,42.3000,
11.993446,-0.3580,-0.8198,0.1477,0.1443,-0.0623,0.0293,25.9800,6.1800,42.3000,
11.993803,0.2527,0.3405,-0.2462,0.1443,-0.0623,0.0293,25.9800,6.1800,42.3000,
12.011323,0.2527,0.3405,-0.2462,0.1486,-0.0245,0.0415,25.9800,6.1800,42.3000,
12.032536,0.2527,0.3405,-0.2462,0.1017,0.1214,0.1513,25.9800,6.1800,42.3000,
12.052768,0.2527,0.3405,-0.2462,0.1017,0.1214,0.1513,25.9800,6.1800,42.3000,
12.053881,0.2527,0.3405,-0.2462,0.1017,0.1214,0.1513,26.5200,5.8200,42.1200,
12.054472,0.2527,0.3405,-0.2462,-0.0378,-0.3419,0.1507,26.5200,5.8200,42.1200,
12.054990,0.2011,-0.4826,0.3145,-0.0378,-0.3419,0.1507,26.5200,5.8200,42.1200,
12.072357,0.2011,-0.4826,0.3145,0.1641,-0.5587,0.1071,26.5200,5.8200,42.1200,
12.092697,0.2011,-0.4826,0.3145,0.2882,-0.1145,0.0959,26.5200,5.8200,42.1200,
12.114573,0.2011,-0.4826,0.3145,0.2882,-0.1145,0.0959,26.5200,5.8200,42.1200,
12.115425,0.2011,-0.4826,0.3145,0.2882,-0.1145,0.0959,26.4600,5.1000,42.1200,
12.115833,0.2011,-0.4826,0.3145,0.3201,0.0884,0.1150,26.4600,5.1000,42.1200,
12.116209,0.2554,0.0647,0.5445,0.3201,0.0884,0.1150,26.4600,5.1000,42.1200,
12.134375,0.2554,0.0647,0.5445,0.2546,-0.1209,0.1209,26.4600,5.1000,42.1200,
12.155812,0.2554,0.0647,0.5445,0.1646,-0.0708,0.0858,26.4600,5.1000,42.1200,
12.175527,0.2554,0.0647,0.5445,0.1646,-0.0708,0.0858,26.4600,5.1000,42.1200,
12.176028,0.2554,0.0647,0.5445,0.1646,-0.0708,0.0858,27.1800,4.8600,42.4200,
12.176363,0.2554,0.0647,0.5445,0.2141,-0.0272,-0.0378,27.1800,4.8600,42.4200,
12.176569,-0.3272,-0.3730,0.0403,0.2141,-0.0272,-0.0378,27.1800,4.8600,42.4200,
12.195870,-0.3272,-0.3730,0.0403,0.2855,0.2951,-0.0352,27.1800,4.8600,42.4200,
12.216451,-0.3272,-0.3730,0.0403,0.2525,0.3894,0.2040,27.1800,4.8600,42.4200,
12.238345,-0.3272,-0.3730,0.0403,0.2525,0.3894,0.2040,27.1800,4.8600,42.4200,
12.239855,-0.3272,-0.3730,0.0403,0.2525,0.3894,0.2040,27.7200,4.5600,41.5800,
12.240881,-0.0843,1.2005,0.2998,0.2525,0.3894,0.2040,27.7200,4.5600,41.5800,
12.241572,-0.0843,1.2005,0.2998,0.3276,0.3601,0.3782,27.7200,4.5600,41.5800,
12.258115,-0.0843,1.2005,0.2998,0.4085,0.4767,0.1758,27.7200,4.5600,41.5800,
12.277708,-0.0843,1.2005,0.2998,0.2855,0.5848,0.1214,27.7200,4.5600,41.5800,
12.299395,-0.0843,1.2005,0.2998,0.2855,0.5848,0.1214,27.7200,4.5600,41.5800,
12.300453,-0.0843,1.2005,0.2998,0.2855,0.5848,0.1214,27.9000,4.3200,41.8800,
12.300990,-0.0843,1.2005,0.2998,0.1635,0.3654,0.1119,27.9000,4.3200,41.8800,
12.301487,-0.0338,-0.1762,-0.1646,0.1635,0.3654,0.1119,27.9000,4.3200,41.8800,
12.319114,-0.0338,-0.1762,-0.1646,0.4378,0.2903,0.3404,27.9000,4.3200,41.8800,
12.340459,-0.0338,-0.1762,-0.1646,-0.0165,0.3649,0.0330,27.9000,4.3200,41.8800,
12.361136,-0.0338,-0.1762,-0.1646,-0.0165,0.3649,0.0330,27.9000,4.3200,41.8800,
12.362490,-0.0338,-0.1762,-0.1646,-0.0165,0.3649,0.0330,27.8400,4.8600,41.6400,
12.363399,-0.0338,-0.1762,-0.1646,0.0852,-0.0016,-0.0746,27.8400,4.8600,41.6400,
12.364111,0.4938,0.8314,0.1599,0.0852,-0.0016,-0.0746,27.8400,4.8600,41.6400,
12.380504,0.4938,0.8314,0.1599,-0.0746,0.2514,-0.0591,27.8400,4.8600,41.6400,
12.401098,0.4938,0.8314,0.1599,-0.1172,0.5198,-0.1278,27.8400,4.8600,41.6400,
12.422320,0.4938,0.8314,0.1599,-0.1172,0.5198,-0.1278,27.8400,4.8600,41.6400,
12.423438,0.4938,0.8314,0.1599,-0.1172,0.5198,-0.1278,27.3000,5.2200,41.7000,
12.423994,0.4938,0.8314,0.1599,-0.0501,0.8634,-0.0740,27.3000,5.2200,41.7000,
12.424711,0.6498,1.4262,-0.2637,-0.0501,0.8634,-0.0740,27.3000,5.2200,41.7000,
12.442555,0.6498,1.4262,-0.2637,0.4527,0.6780,-0.0559,27.3000,5.2200,41.7000,
12.463351,0.6498,1.4262,-0.2637,0.3702,1.2554,-0.0820,27.3000,5.2200,41.7000,
12.483867,0.6498,1.4262,-0.2637,0.3702,1.2554,-0.0820,27.3000,5.2200,41.7000,
12.485171,0.6498,1.4262,-0.2637,0.3702,1.2554,-0.0820,26.5200,5.5800,43.2600,
12.485863,0.6498,1.4262,-0.2637,0.1939,0.7207,-0.1816,26.5200,5.5800,43.2600,
12.486666,1.2296,-0.4026,0.2807,0.1939,0.7207,-0.1816,26.5200,5.5800,43.2600,
12.503228,1.2296,-0.4026,0.2807,0.0868,0.0975,-0.1997,26.5200,5.5800,43.2600,
12.524567,1.2296,-0.4026,0.2807,0.1960,0.2360,-0.4629,26.5200,5.5800,43.2600,
12.546235,1.2296,-0.4026,0.2807,0.1960,0.2360,-0.4629,26.5200,5.5800,43.2600,
12.547491,1.2296,-0.4026,0.2807,0.1960,0.2360,-0.4629,25.2600,6.1800,43.8000,
12.548022,1.2296,-0.4026,0.2807,0.1886,0.5939,-0.6615,25.2600,6.1800,43.8000,
12.548862,0.4575,-1.4010,-0.6016,0.1886,0.5939,-0.6615,25.2600,6.1800,43.8000,
12.565253,0.4575,-1.4010,-0.6016,0.0123,0.7633,-0.7366,25.2600,6.1800,43.8000,
12.585625,0.4575,-1.4010,-0.6016,-0.1859,0.5955,-0.2557,25.2600,6.1800,43.8000,
12.606588,0.4575,-1.4010,-0.6016,-0.1859,0.5955,-0.2557,25.2600,6.1800,43.8000,
12.607580,0.4575,-1.4010,-0.6016,-0.1859,0.5955,-0.2557,24.3000,6.3000,44.5200,
12.608408,0.4575,-1.4010,-0.6016,0.6077,-0.7856,0.4687,24.3000,6.3000,44.5200,
12.608858,-0.9357,-0.2118,3.4835,0.6077,-0.7856,0.4687,24.3000,6.3000,44.5200,
12.626383,-0.9357,-0.2118,3.4835,0.8448,-1.2112,0.8495,24.3000,6.3000,44.5200,
12.647274,-0.9357,-0.2118,3.4835,0.1284,1.6757,-0.0549,24.3000,6.3000,44.5200,
12.668460,-0.9357,-0.2118,3.4835,0.1284,1.6757,-0.0549,24.3000,6.3000,44.5200,
12.669326,-0.9357,-0.2118,3.4835,0.1284,1.6757,-0.0549,22.9200,6.3600,45.1800,
12.669642,-0.9357,-0.2118,3.4835,-0.2013,-0.7148,-0.0533,22.9200,6.3600,45.1800,
12.669923,0.3601,-1.4861,-0.6851,-0.2013,-0.7148,-0.0533,22.9200,6.3600,45.1800,
12.688393,0.3601,-1.4861,-0.6851,-0.3798,-0.8820,-0.0399,22.9200,6.3600,45.1800,
12.708976,0.3601,-1.4861,-0.6851,-0.2716,-0.7036,0.0490,22.9200,6.3600,45.1800,
12.729663,0.3601,-1.4861,-0.6851,-0.2716,-0.7036,0.0490,22.9200,6.3600,45.1800,
12.730736,0.3601,-1.4861,-0.6851,-0.2716,-0.7036,0.0490,22.0200,7.2600,45.0000,
12.731414,0.3601,-1.4861,-0.6851,-0.2898,-1.1127,0.1529,22.0200,7.2600,45.0000,
12.731973,1.0444,0.3368,-0.7295,-0.2898,-1.1127,0.1529,22.0200,7.2600,45.0000,
12.749963,1.0444,0.3368,-0.7295,-0.3414,-0.4527,0.1119,22.0200,7.2600,45.0000,
12.770449,1.0444,0.3368,-0.7295,-0.1395,-0.0346,0.3318,22.0200,7.2600,45.0000,
12.793044,1.0444,0.3368,-0.7295,-0.1395,-0.0346,0.3318,22.0200,7.2600,45.0000,
12.794206,1.0444,0.3368,-0.7295,-0.1395,-0.0346,0.3318,21.8400,7.4400,45.1200,
12.794943,1.0444,0.3368,-0.7295,-0.0410,0.0884,0.4186,21.8400,7.4400,45.1200,
12.795648,0.3183,1.1389,0.1033,-0.0410,0.0884,0.4186,21.8400,7.4400,45.1200,
12.811438,0.3183,1.1389,0.1033,-0.0522,0.0282,0.2301,21.8400,7.4400,45.1200,
12.831940,0.3183,1.1389,0.1033,-0.0170,0.0826,0.2802,21.8400,7.4400,45.1200,
12.852910,0.3183,1.1389,0.1033,-0.0170,0.0826,0.2802,21.8400,7.4400,45.1200,
12.853610,0.3183,1.1389,0.1033,-0.0170,0.0826,0.2802,22.5000,7.4400,45.1800,
12.854139,0.3183,1.1389,0.1033,0.0565,0.2722,0.2328,22.5000,7.4400,45.1800,
12.854692,-0.1345,-0.1134,-0.1671,0.0565,0.2722,0.2328,22.5000,7.4400,45.1800,
12.873401,-0.1345,-0.1134,-0.1671,-0.0085,-0.0357,0.3143,22.5000,7.4400,45.1800,
12.893794,-0.1345,-0.1134,-0.1671,0.0261,0.1523,0.1923,22.5000,7.4400,45.1800,
12.914964,-0.1345,-0.1134,-0.1671,0.0261,0.1523,0.1923,22.5000,7.4400,45.1800,
12.916022,-0.1345,-0.1134,-0.1671,0.0261,0.1523,0.1923,22.9200,7.2000,44.5200,
12.916705,-0.1345,-0.1134,-0.1671,-0.0415,0.1880,0.0756,22.9200,7.2000,44.5200,
12.917190,-0.9299,-0.0996,0.2011,-0.0415,0.1880,0.0756,22.9200,7.2000,44.5200,
12.934950,-0.9299,-0.0996,0.2011,-0.0746,0.0085,0.0549,22.9200,7.2000,44.5200,
12.955583,-0.9299,-0.0996,0.2011,-0.1033,-0.0959,0.0889,22.9200,7.2000,44.5200,
12.976302,-0.9299,-0.0996,0.2011,-0.1033,-0.0959,0.0889,22.9200,7.2000,44.5200,
12.977037,-0.9299,-0.0996,0.2011,-0.1033,-0.0959,0.0889,23.2800,6.2400,44.3400,
12.977353,-0.9299,-0.0996,0.2011,-0.0719,-0.1081,0.0852,23.2800,6.2400,44.3400,
12.977561,-0.3581,0.2694,-0.1757,-0.0719,-0.1081,0.0852,23.2800,6.2400,44.3400,
12.995986,-0.3581,0.2694,-0.1757,-0.0778,-0.0554,0.0985,23.2800,6.2400,44.3400,
13.016811,-0.3581,0.2694,-0.1757,-0.0016,0.1353,0.1364,23.2800,6.2400,44.3400,
13.038593,-0.3581,0.2694,-0.1757,-0.0016,0.1353,0.1364,23.2800,6.2400,44.3400,
13.039659,-0.3581,0.2694,-0.1757,-0.0016,0.1353,0.1364,23.7000,5.5200,43.7400,
13.040714,-0.3581,0.2694,-0.1757,0.0117,0.0714,0.1353,23.7000,5.5200,43.7400,
13.041325,-0.1487,-0.3156,0.0484,0.0117,0.0714,0.1353,23.7000,5.5200,43.7400,
13.057201,-0.1487,-0.3156,0.0484,0.0330,0.0043,0.1097,23.7000,5.5200,43.7400,
13.077828,-0.1487,-0.3156,0.0484,0.1380,0.2344,0.1284,23.7000,5.5200,43.7400,
13.099067,-0.1487,-0.3156,0.0484,0.1380,0.2344,0.1284,23.7000,5.5200,43.7400,
13.099720,-0.1487,-0.3156,0.0484,0.1380,0.2344,0.1284,23.5800,4.9800,43.9200,
13.100353,0.0669,0.1381,-0.0134,0.1380,0.2344,0.1284,23.5800,4.9800,43.9200,
13.100940,0.0669,0.1381,-0.0134,0.1204,0.2876,0.1832,23.5800,4.9800,43.9200,
13.118888,0.0669,0.1381,-0.0134,0.0921,0.2754,0.1987,23.5800,4.9800,43.9200,
13.139286,0.0669,0.1381,-0.0134,0.0000,0.1316,0.1614,23.5800,4.9800,43.9200,
13.160564,0.0669,0.1381,-0.0134,0.0000,0.1316,0.1614,23.5800,4.9800,43.9200,
13.161144,0.0669,0.1381,-0.0134,0.0000,0.1316,0.1614,23.8200,5.2800,43.9800,
13.161661,0.0669,0.1381,-0.0134,-0.1177,-0.1747,0.1230,23.8200,5.2800,43.9800,
13.162396,-0.2169,-0.2178,0.1585,-0.1177,-0.1747,0.1230,23.8200,5.2800,43.9800,
13.180355,-0.2169,-0.2178,0.1585,-0.0123,-0.1289,0.0863,23.8200,5.2800,43.9800,
13.201264,-0.2169,-0.2178,0.1585,0.1747,0.3084,0.1774,23.8200,5.2800,43.9800,
13.222521,-0.2169,-0.2178,0.1585,0.1747,0.3084,0.1774,23.8200,5.2800,43.9800,
13.223397,-0.2169,-0.2178,0.1585,0.1747,0.3084,0.1774,23.7600,5.0400,44.4000,
13.223820,-0.2169,-0.2178,0.1585,0.0884,0.2759,0.1811,23.7600,5.0400,44.4000,
13.224185,-0.4289,0.1087,0.0732,0.0884,0.2759,0.1811,23.7600,5.0400,44.4000,
13.241852,-0.4289,0.1087,0.0732,-0.1188,-0.2487,0.0858,23.7600,5.0400,44.4000,
13.262565,-0.4289,0.1087,0.0732,-0.1401,-0.1795,0.0261,23.7600,5.0400,44.4000,
13.283736,-0.4289,0.1087,0.0732,-0.1401,-0.1795,0.0261,23.7600,5.0400,44.4000,
13.284272,-0.4289,0.1087,0.0732,-0.1401,-0.1795,0.0261,23.6400,5.5200,44.9400,
13.284561,-0.4289,0.1087,0.0732,-0.0794,0.1268,0.1150,23.6400,5.5200,44.9400,
13.284750,0.0633,-0.5387,-0.2376,-0.0794,0.1268,0.1150,23.6400,5.5200,44.9400,
13.303894,0.0633,-0.5387,-0.2376,0.0437,0.2061,0.2040,23.6400,5.5200,44.9400,
13.324200,0.0633,-0.5387,-0.2376,-0.2051,-0.2322,0.1193,23.6400,5.5200,44.9400,
13.345761,0.0633,-0.5387,-0.2376,-0.2051,-0.2322,0.1193,23.6400,5.5200,44.9400,
13.346682,-0.0603,-0.2872,-0.3870,-0.2051,-0.2322,0.1193,23.6400,5.5200,44.9400,
13.347282,-0.0603,-0.2872,-0.3870,-0.2051,-0.2322,0.1193,23.3400,5.7000,44.7600,
13.347787,-0.0603,-0.2872,-0.3870,-0.1289,0.0234,0.2573,23.3400,5.7000,44.7600,
13.365327,-0.0603,-0.2872,-0.3870,0.0234,-0.0426,0.3132,23.3400,5.7000,44.7600,
13.385915,-0.0603,-0.2872,-0.3870,-0.0261,-0.0911,0.1150,23.3400,5.7000,44.7600,
13.407064,-0.0603,-0.2872,-0.3870,-0.0261,-0.0911,0.1150,23.3400,5.7000,44.7600,
13.407968,-0.0603,-0.2872,-0.3870,-0.0261,-0.0911,0.1150,22.9800,5.1000,45.2400,
13.408571,-0.0603,-0.2872,-0.3870,-0.1262,0.0554,0.1182,22.9800,5.1000,45.2400,
13.409046,-0.0790,-0.3776,0.0116,-0.1262,0.0554,0.1182,22.9800,5.1000,45.2400,
13.427150,-0.0790,-0.3776,0.0116,-0.6338,-0.1204,-0.0176,22.9800,5.1000,45.2400,
13.447698,-0.0790,-0.3776,0.0116,-0.6067,-0.1848,-0.0527,22.9800,5.1000,45.2400,
13.469223,-0.0790,-0.3776,0.0116,-0.6067,-0.1848,-0.0527,22.9800,5.1000,45.2400,
13.470107,-0.4206,-1.3460,0.0407,-0.6067,-0.1848,-0.0527,22.9800,5.1000,45.2400,
13.470845,-0.4206,-1.3460,0.0407,-0.6067,-0.1848,-0.0527,23.1000,4.9800,44.5800,
13.471398,-0.4206,-1.3460,0.0407,-0.4213,-0.0629,-0.2248,23.1000,4.9800,44.5800,
13.488121,-0.4206,-1.3460,0.0407,-0.0682,0.3297,-0.2908,23.1000,4.9800,44.5800,
13.509732,-0.4206,-1.3460,0.0407,0.0581,0.3989,-0.2333,23.1000,4.9800,44.5800,
13.530542,-0.4206,-1.3460,0.0407,0.0581,0.3989,-0.2333,23.1000,4.9800,44.5800,
13.531436,-0.4206,-1.3460,0.0407,0.0581,0.3989,-0.2333,23.2200,4.5000,44.8200,
13.532051,-0.4206,-1.3460,0.0407,-0.1598,-0.0389,-0.0889,23.2200,4.5000,44.8200,
13.532595,-0.0511,1.0052,0.8776,-0.1598,-0.0389,-0.0889,23.2200,4.5000,44.8200,
13.550303,-0.0511,1.0052,0.8776,-0.3041,-0.1790,-0.0879,23.2200,4.5000,44.8200,
13.571073,-0.0511,1.0052,0.8776,-0.2029,0.2908,-0.1747,23.2200,4.5000,44.8200,
13.592503,-0.0511,1.0052,0.8776,-0.2029,0.2908,-0.1747,23.2200,4.5000,44.8200,
13.593426,-0.0511,1.0052,0.8776,-0.2029,0.2908,-0.1747,23.3400,4.1400,44.8800,
13.593840,-0.0511,1.0052,0.8776,-0.1364,0.3196,-0.2131,23.3400,4.1400,44.8800,
13.594423,-0.7965,-0.1131,0.0380,-0.1364,0.3196,-0.2131,23.3400,4.1400,44.8800,
13.612179,-0.7965,-0.1131,0.0380,-0.3174,-0.0687,-0.1976,23.3400,4.1400,44.8800,
13.633074,-0.7965,-0.1131,0.0380,-0.5907,-0.1001,-0.2823,23.3400,4.1400,44.8800,
13.654199,-0.7965,-0.1131,0.0380,-0.5907,-0.1001,-0.2823,23.3400,4.1400,44.8800,
13.655257,-0.7965,-0.1131,0.0380,-0.5907,-0.1001,-0.2823,23.5200,3.7800,44.7600,
13.655887,-0.7965,-0.1131,0.0380,-0.7553,-0.1816,-0.3649,23.5200,3.7800,44.7600,
13.656617,-0.5669,0.2990,0.4537,-0.7553,-0.1816,-0.3649,23.5200,3.7800,44.7600,
13.673516,-0.5669,0.2990,0.4537,-0.5348,0.0794,-0.4458,23.5200,3.7800,44.7600,
13.694025,-0.5669,0.2990,0.4537,-0.2045,0.0511,-0.4016,23.5200,3.7800,44.7600,
13.715762,-0.5669,0.2990,0.4537,-0.2045,0.0511,-0.4016,23.5200,3.7800,44.7600,
13.716897,-0.5669,0.2990,0.4537,-0.2045,0.0511,-0.4016,23.6400,3.3600,44.9400,
13.717496,-0.5669,0.2990,0.4537,-0.0181,-0.0852,-0.2605,23.6400,3.3600,44.9400,
13.718062,-0.3144,-0.0293,-0.1730,-0.0181,-0.0852,-0.2605,23.6400,3.3600,44.9400,
13.735194,-0.3144,-0.0293,-0.1730,-0.0213,-0.0570,-0.0336,23.6400,3.3600,44.9400,
13.755865,-0.3144,-0.0293,-0.1730,-0.0884,-0.1044,0.1875,23.6400,3.3600,44.9400,
13.777515,-0.3144,-0.0293,-0.1730,-0.0884,-0.1044,0.1875,23.6400,3.3600,44.9400,
13.778604,-0.3144,-0.0293,-0.1730,-0.0884,-0.1044,0.1875,23.3400,2.6400,45.0000,
13.779241,-0.3144,-0.0293,-0.1730,-0.1172,-0.2354,0.3952,23.3400,2.6400,45.0000,
13.779729,0.0242,-0.4261,-0.0878,-0.1172,-0.2354,0.3952,23.3400,2.6400,45.0000,
13.797142,0.0242,-0.4261,-0.0878,-0.0107,-0.3340,0.5364,23.3400,2.6400,45.0000,
13.817429,0.0242,-0.4261,-0.0878,0.1108,-0.3915,0.6013,23.3400,2.6400,45.0000,
13.839375,0.0242,-0.4261,-0.0878,0.1108,-0.3915,0.6013,23.3400,2.6400,45.0000,
13.840786,0.0242,-0.4261,-0.0878,0.1108,-0.3915,0.6013,22.8600,2.0400,45.1200,
13.841739,0.0242,-0.4261,-0.0878,0.0698,-1.0115,0.5726,22.8600,2.0400,45.1200,
13.842550,-1.6831,-0.9705,1.1173,0.0698,-1.0115,0.5726,22.8600,2.0400,45.1200,
13.858173,-1.6831,-0.9705,1.1173,0.2999,-1.1563,0.7675,22.8600,2.0400,45.1200,
13.879078,-1.6831,-0.9705,1.1173,0.5044,-0.7968,1.0642,22.8600,2.0400,45.1200,
13.900172,-1.6831,-0.9705,1.1173,0.5044,-0.7968,1.0642,22.8600,2.0400,45.1200,
13.901245,-1.6831,-0.9705,1.1173,0.5044,-0.7968,1.0642,22.9200,1.8600,44.9400,
13.901906,-1.6831,-0.9705,1.1173,0.3707,-0.8394,1.1840,22.9200,1.8600,44.9400,
13.902557,-0.2842,-1.0077,-0.8737,0.3707,-0.8394,1.1840,22.9200,1.8600,44.9400,
13.919682,-0.2842,-1.0077,-0.8737,0.3265,-0.7009,1.0141,22.9200,1.8600,44.9400,
13.940757,-0.2842,-1.0077,-0.8737,0.4378,-0.6578,0.9358,22.9200,1.8600,44.9400,
13.961989,-0.2842,-1.0077,-0.8737,0.4378,-0.6578,0.9358,22.9200,1.8600,44.9400,
13.963366,-0.2842,-1.0077,-0.8737,0.4378,-0.6578,0.9358,23.8800,1.3800,44.4600,
13.964513,-0.2842,-1.0077,-0.8737,0.4277,-0.7095,0.8831,23.8800,1.3800,44.4600,
13.965062,0.1772,1.0808,0.3469,0.4277,-0.7095,0.8831,23.8800,1.3800,44.4600,
13.981683,0.1772,1.0808,0.3469,0.4810,-0.9284,0.7175,23.8800,1.3800,44.4600,
14.001725,0.1772,1.0808,0.3469,0.4139,-0.6296,0.7718,23.8800,1.3800,44.4600,
14.024214,0.1772,1.0808,0.3469,0.4139,-0.6296,0.7718,23.8800,1.3800,44.4600,
14.025469,0.1772,1.0808,0.3469,0.4139,-0.6296,0.7718,25.6800,0.3600,43.0200,
14.026109,0.1772,1.0808,0.3469,0.1816,-0.4724,0.6179,25.6800,0.3600,43.0200,
14.027006,1.1030,0.2905,-1.6183,0.1816,-0.4724,0.6179,25.6800,0.3600,43.0200,
14.043321,1.1030,0.2905,-1.6183,-0.0394,-0.2929,0.4096,25.6800,0.3600,43.0200,
14.063669,1.1030,0.2905,-1.6183,-0.1790,0.0538,0.2562,25.6800,0.3600,43.0200,
14.085244,1.1030,0.2905,-1.6183,-0.1790,0.0538,0.2562,25.6800,0.3600,43.0200,
14.086481,1.1030,0.2905,-1.6183,-0.1790,0.0538,0.2562,27.9000,-0.0600,42.1200,
14.087083,1.1030,0.2905,-1.6183,-0.1976,0.2466,0.2349,27.9000,-0.0600,42.1200,
14.087650,-0.7513,0.7675,0.5403,-0.1976,0.2466,0.2349,27.9000,-0.0600,42.1200,
14.104346,-0.7513,0.7675,0.5403,-0.1635,0.1475,0.2722,27.9000,-0.0600,42.1200,
14.125139,-0.7513,0.7675,0.5403,0.0133,0.1044,0.2967,27.9000,-0.0600,42.1200,
14.146663,-0.7513,0.7675,0.5403,0.0133,0.1044,0.2967,27.9000,-0.0600,42.1200,
14.147771,-0.7513,0.7675,0.5403,0.0133,0.1044,0.2967,29.7600,-0.6600,41.2800,
14.148698,-0.7513,0.7675,0.5403,0.0783,0.1742,0.3617,29.7600,-0.6600,41.2800,
14.149242,-0.1433,0.1908,0.3051,0.0783,0.1742,0.3617,29.7600,-0.6600,41.2800,
14.166341,-0.1433,0.1908,0.3051,0.0165,0.3760,0.4160,29.7600,-0.6600,41.2800,
14.186715,-0.1433,0.1908,0.3051,-0.1768,0.1092,0.2722,29.7600,-0.6600,41.2800,
14.207768,-0.1433,0.1908,0.3051,-0.1768,0.1092,0.2722,29.7600,-0.6600,41.2800,
14.208339,-0.1433,0.1908,0.3051,-0.1768,0.1092,0.2722,30.3000,-1.4400,40.8600,
14.208699,-0.1433,0.1908,0.3051,-0.2466,0.2349,0.2141,30.3000,-1.4400,40.8600,
14.208958,-0.5203,-0.2368,0.5206,-0.2466,0.2349,0.2141,30.3000,-1.4400,40.8600,
14.227720,-0.5203,-0.2368,0.5206,-0.1124,0.2365,0.2839,30.3000,-1.4400,40.8600,
14.248368,-0.5203,-0.2368,0.5206,0.0618,0.2029,0.2839,30.3000,-1.4400,40.8600,
14.269697,-0.5203,-0.2368,0.5206,0.0618,0.2029,0.2839,30.3000,-1.4400,40.8600,
14.271122,-0.5203,-0.2368,0.5206,0.0618,0.2029,0.2839,30.4800,-2.1600,40.5600,
14.272132,-0.5203,-0.2368,0.5206,0.0298,0.2754,0.2184,30.4800,-2.1600,40.5600,
14.272880,-0.3842,0.2270,-0.3320,0.0298,0.2754,0.2184,30.4800,-2.1600,40.5600,
14.289421,-0.3842,0.2270,-0.3320,-0.0399,0.4096,0.2317,30.4800,-2.1600,40.5600,
14.309409,-0.3842,0.2270,-0.3320,-0.0053,0.5017,0.1901,30.4800,-2.1600,40.5600,
14.330868,-0.3842,0.2270,-0.3320,-0.0053,0.5017,0.1901,30.4800,-2.1600,40.5600,
14.331920,-0.3842,0.2270,-0.3320,-0.0053,0.5017,0.1901,29.9400,-2.9400,40.6800,
14.332936,-0.3842,0.2270,-0.3320,0.1992,0.1374,0.0714,29.9400,-2.9400,40.6800,
14.333395,-0.0112,0.6798,0.7760,0.1992,0.1374,0.0714,29.9400,-2.9400,40.6800,
14.350721,-0.0112,0.6798,0.7760,0.2360,0.1103,-0.0149,29.9400,-2.9400,40.6800,
14.371177,-0.0112,0.6798,0.7760,0.0517,0.1997,-0.0208,29.9400,-2.9400,40.6800,
14.393131,-0.0112,0.6798,0.7760,0.0517,0.1997,-0.0208,29.9400,-2.9400,40.6800,
14.394178,-0.0112,0.6798,0.7760,0.0517,0.1997,-0.0208,29.1600,-3.9000,40.9800,
14.395289,-0.0112,0.6798,0.7760,0.0479,0.2439,-0.0245,29.1600,-3.9000,40.9800,
14.395835,-0.8160,0.4748,0.2961,0.0479,0.2439,-0.0245,29.1600,-3.9000,40.9800,
14.412044,-0.8160,0.4748,0.2961,0.0495,0.1603,0.0399,29.1600,-3.9000,40.9800,
14.432962,-0.8160,0.4748,0.2961,-0.0138,0.3531,0.0394,29.1600,-3.9000,40.9800,
14.454202,-0.8160,0.4748,0.2961,-0.0138,0.3531,0.0394,29.1600,-3.9000,40.9800,
14.455160,-0.8160,0.4748,0.2961,-0.0138,0.3531,0.0394,28.6200,-4.2600,41.4000,
14.455786,-0.8160,0.4748,0.2961,-0.0272,0.2461,-0.0240,28.6200,-4.2600,41.4000,
14.456217,0.0538,-0.1241,-0.0956,-0.0272,0.2461,-0.0240,28.6200,-4.2600,41.4000,
14.474844,0.0538,-0.1241,-0.0956,-0.0091,0.1326,-0.0240,28.6200,-4.2600,41.4000,
14.495387,0.0538,-0.1241,-0.0956,-0.0208,0.0687,0.0186,28.6200,-4.2600,41.4000,
14.516124,0.0538,-0.1241,-0.0956,-0.0208,0.0687,0.0186,28.6200,-4.2600,41.4000,
14.516892,0.0538,-0.1241,-0.0956,-0.0208,0.0687,0.0186,27.7800,-4.2000,41.8800,
14.517273,0.0538,-0.1241,-0.0956,0.0597,0.0192,0.0405,27.7800,-4.2000,41.8800,
14.517531,0.0513,0.0842,-0.2147,0.0597,0.0192,0.0405,27.7800,-4.2000,41.8800,
14.536001,0.0513,0.0842,-0.2147,0.0314,0.0320,0.0357,27.7800,-4.2000,41.8800,
14.556712,0.0513,0.0842,-0.2147,0.0123,0.0181,-0.0357,27.7800,-4.2000,41.8800,
14.577658,0.0513,0.0842,-0.2147,0.0123,0.0181,-0.0357,27.7800,-4.2000,41.8800,
14.578598,0.0513,0.0842,-0.2147,0.0123,0.0181,-0.0357,27.3000,-4.3800,42.0600,
14.579227,0.0513,0.0842,-0.2147,-0.0064,-0.0474,-0.0234,27.3000,-4.3800,42.0600,
14.579663,-0.2010,-0.1106,0.0129,-0.0064,-0.0474,-0.0234,27.3000,-4.3800,42.0600,
14.597669,-0.2010,-0.1106,0.0129,0.0181,-0.0218,0.0107,27.3000,-4.3800,42.0600,
14.618056,-0.2010,-0.1106,0.0129,0.0842,0.2045,0.0469,27.3000,-4.3800,42.0600,
14.639001,-0.2010,-0.1106,0.0129,0.0842,0.2045,0.0469,27.3000,-4.3800,42.0600,
14.639888,-0.2010,-0.1106,0.0129,0.0842,0.2045,0.0469,27.5400,-4.1400,42.5400,
14.640555,-0.2010,-0.1106,0.0129,0.2482,0.7670,0.1380,27.5400,-4.1400,42.5400,
14.641069,0.2350,0.0854,-1.3723,0.2482,0.7670,0.1380,27.5400,-4.1400,42.5400,
14.658644,0.2350,0.0854,-1.3723,-0.0575,0.2743,0.0373,27.5400,-4.1400,42.5400,
14.679585,0.2350,0.0854,-1.3723,0.0666,-0.3904,-0.0144,27.5400,-4.1400,42.5400,
