
time,ax,ay,az,wx,wy,wz,Bx,By,Bz,
0.016230,0.0000,0.0000,0.0000,-0.0112,0.0282,-0.0011,0.0000,0.0000,0.0000,
0.024009,0.0000,0.0000,0.0000,-0.0112,0.0282,-0.0011,36.6000,-9.6600,-4.5000,
0.035331,0.0000,0.0000,0.0000,-0.0112,0.0282,-0.0011,36.6000,-9.6600,-4.5000,
0.039922,0.0000,0.0000,0.0000,-0.0112,0.0282,-0.0011,36.6000,-9.6600,-4.5000,
0.056478,0.0000,0.0000,0.0000,-0.0112,0.0282,-0.0011,36.6000,-9.6600,-4.5000,
0.075933,0.0000,0.0000,0.0000,-0.0442,0.0272,-0.0064,36.6000,-9.6600,-4.5000,
0.085035,0.0000,0.0000,0.0000,-0.0442,0.0272,-0.0064,28.6200,-9.1200,13.6800,
0.096564,0.0000,0.0000,0.0000,-0.0602,0.0804,0.0160,28.6200,-9.1200,13.6800,
0.102158,0.0000,0.0000,0.0000,-0.0602,0.0804,0.0160,28.6200,-9.1200,13.6800,
0.102697,0.0826,0.0489,-0.0126,-0.0602,0.0804,0.0160,28.6200,-9.1200,13.6800,
0.118008,0.0826,0.0489,-0.0126,-0.0618,0.0591,0.0138,28.6200,-9.1200,13.6800,
0.137823,0.0826,0.0489,-0.0126,-0.0735,0.0170,0.0032,28.6200,-9.1200,13.6800,
0.146437,0.0826,0.0489,-0.0126,-0.0735,0.0170,0.0032,24.8400,-8.0400,22.3800,
0.158620,0.0826,0.0489,-0.0126,-0.0692,-0.0352,-0.0027,24.8400,-8.0400,22.3800,
0.162305,0.0826,0.0489,-0.0126,-0.0692,-0.0352,-0.0027,24.8400,-8.0400,22.3800,
0.162817,-0.1933,-0.0488,0.0423,-0.0692,-0.0352,-0.0027,24.8400,-8.0400,22.3800,
0.178517,-0.1933,-0.0488,0.0423,-0.0458,-0.0138,-0.0048,24.8400,-8.0400,22.3800,
0.199363,-0.1933,-0.0488,0.0423,-0.0368,0.0298,-0.0154,24.8400,-8.0400,22.3800,
0.208704,-0.1933,-0.0488,0.0423,-0.0368,0.0298,-0.0154,20.5800,-7.5000,30.7200,
0.219944,-0.1933,-0.0488,0.0423,-0.0607,0.0565,-0.0346,20.5800,-7.5000,30.7200,
0.225012,-0.1933,-0.0488,0.0423,-0.0607,0.0565,-0.0346,20.5800,-7.5000,30.7200,
0.225846,0.0778,-0.0985,0.0377,-0.0607,0.0565,-0.0346,20.5800,-7.5000,30.7200,
0.240492,0.0778,-0.0985,0.0377,-0.0724,0.1300,-0.0362,20.5800,-7.5000,30.7200,
0.261076,0.0778,-0.0985,0.0377,-0.0075,0.2157,-0.0298,20.5800,-7.5000,30.7200,
0.270057,0.0778,-0.0985,0.0377,-0.0075,0.2157,-0.0298,20.3400,-8.0400,30.9000,
0.281370,0.0778,-0.0985,0.0377,0.1023,0.2439,-0.0442,20.3400,-8.0400,30.9000,
0.285292,0.0778,-0.0985,0.0377,0.1023,0.2439,-0.0442,20.3400,-8.0400,30.9000,
0.285894,-0.0341,0.1316,-0.1548,0.1023,0.2439,-0.0442,20.3400,-8.0400,30.9000,
0.302026,-0.0341,0.1316,-0.1548,0.0618,0.6285,-0.1912,20.3400,-8.0400,30.9000,
0.322877,-0.0341,0.1316,-0.1548,0.1614,0.8714,-1.1739,20.3400,-8.0400,30.9000,
0.331582,-0.0341,0.1316,-0.1548,0.1614,0.8714,-1.1739,20.2200,-8.1600,31.4400,
0.343033,-0.0341,0.1316,-0.1548,0.0405,0.8852,-1.5974,20.2200,-8.1600,31.4400,
0.347246,-0.0341,0.1316,-0.1548,0.0405,0.8852,-1.5974,20.2200,-8.1600,31.4400,
0.347855,1.3075,1.4065,-0.9858,0.0405,0.8852,-1.5974,20.2200,-8.1600,31.4400,
0.363481,1.3075,1.4065,-0.9858,-0.1806,1.3465,-1.7012,20.2200,-8.1600,31.4400,
0.383911,1.3075,1.4065,-0.9858,-0.2365,0.9699,-1.8589,20.2200,-8.1600,31.4400,
0.392541,1.3075,1.4065,-0.9858,-0.2365,0.9699,-1.8589,19.8000,-7.9800,32.0400,
0.404322,1.3075,1.4065,-0.9858,0.0149,1.2725,-1.7305,19.8000,-7.9800,32.0400,
0.409237,1.3075,1.4065,-0.9858,0.0149,1.2725,-1.7305,19.8000,-7.9800,32.0400,
0.409709,-0.5354,-0.5880,0.9253,0.0149,1.2725,-1.7305,19.8000,-7.9800,32.0400,
0.425105,-0.5354,-0.5880,0.9253,0.4554,0.8155,-1.7113,19.8000,-7.9800,32.0400,
0.445723,-0.5354,-0.5880,0.9253,1.0381,0.1209,-2.0650,19.8000,-7.9800,32.0400,
0.454480,-0.5354,-0.5880,0.9253,1.0381,0.1209,-2.0650,19.1400,-7.8000,32.2200,
0.466350,-0.5354,-0.5880,0.9253,1.2389,0.4527,-2.5012,19.1400,-7.8000,32.2200,
0.470532,-0.5354,-0.5880,0.9253,1.2389,0.4527,-2.5012,19.1400,-7.8000,32.2200,
0.470997,1.2306,0.1418,-0.7922,1.2389,0.4527,-2.5012,19.1400,-7.8000,32.2200,
0.486722,1.2306,0.1418,-0.7922,0.6786,0.9859,-2.6770,19.1400,-7.8000,32.2200,
0.507262,1.2306,0.1418,-0.7922,-0.1571,0.5827,-2.9071,19.1400,-7.8000,32.2200,
0.516227,1.2306,0.1418,-0.7922,-0.1571,0.5827,-2.9071,18.1200,-5.5800,33.3600,
0.528005,1.2306,0.1418,-0.7922,-0.6914,-0.1571,-3.0930,18.1200,-5.5800,33.3600,
0.533575,1.2306,0.1418,-0.7922,-0.6914,-0.1571,-3.0930,18.1200,-5.5800,33.3600,
0.534296,-0.1116,-0.4646,0.0572,-0.6914,-0.1571,-3.0930,18.1200,-5.5800,33.3600,
0.548554,-0.1116,-0.4646,0.0572,-0.5790,-0.4868,-3.0701,18.1200,-5.5800,33.3600,
0.570309,-0.1116,-0.4646,0.0572,-0.3835,-0.4075,-2.7947,18.1200,-5.5800,33.3600,
0.578626,-0.1116,-0.4646,0.0572,-0.3835,-0.4075,-2.7947,16.8000,-2.4000,34.3800,
0.589866,-0.1116,-0.4646,0.0572,-0.2226,-0.2120,-2.6706,16.8000,-2.4000,34.3800,
0.593915,-0.1116,-0.4646,0.0572,-0.2226,-0.2120,-2.6706,16.8000,-2.4000,34.3800,
0.594621,-0.2888,-1.5483,0.0356,-0.2226,-0.2120,-2.6706,16.8000,-2.4000,34.3800,
0.610251,-0.2888,-1.5483,0.0356,0.0170,0.0091,-2.6472,16.8000,-2.4000,34.3800,
0.630839,-0.2888,-1.5483,0.0356,0.2967,0.1246,-2.3590,16.8000,-2.4000,34.3800,
0.639604,-0.2888,-1.5483,0.0356,0.2967,0.1246,-2.3590,15.8400,1.1400,34.6800,
0.651581,-0.2888,-1.5483,0.0356,0.4953,0.0810,-1.9580,15.8400,1.1400,34.6800,
0.655859,-0.2888,-1.5483,0.0356,0.4953,0.0810,-1.9580,15.8400,1.1400,34.6800,
0.656720,-0.3352,-0.5152,0.6594,0.4953,0.0810,-1.9580,15.8400,1.1400,34.6800,
0.671596,-0.3352,-0.5152,0.6594,0.5976,0.0767,-1.5984,15.8400,1.1400,34.6800,
0.692143,-0.3352,-0.5152,0.6594,0.4218,-0.0431,-1.3497,15.8400,1.1400,34.6800,
0.701037,-0.3352,-0.5152,0.6594,0.4218,-0.0431,-1.3497,15.0000,5.4600,35.8200,
0.712733,-0.3352,-0.5152,0.6594,0.3579,0.0437,-1.4488,15.0000,5.4600,35.8200,
0.716952,-0.3352,-0.5152,0.6594,0.3579,0.0437,-1.4488,15.0000,5.4600,35.8200,
0.717752,1.3084,-1.5284,-0.1497,0.3579,0.0437,-1.4488,15.0000,5.4600,35.8200,
0.733266,1.3084,-1.5284,-0.1497,0.5332,-0.2913,-1.3699,15.0000,5.4600,35.8200,
0.753745,1.3084,-1.5284,-0.1497,0.4991,-0.2413,-1.2421,15.0000,5.4600,35.8200,
0.762752,1.3084,-1.5284,-0.1497,0.4991,-0.2413,-1.2421,14.7000,8.8800,36.2400,
0.774386,1.3084,-1.5284,-0.1497,0.2621,-0.2796,-1.1180,14.7000,8.8800,36.2400,
0.778694,1.3084,-1.5284,-0.1497,0.2621,-0.2796,-1.1180,14.7000,8.8800,36.2400,
0.779586,-0.1590,-0.1450,-1.1367,0.2621,-0.2796,-1.1180,14.7000,8.8800,36.2400,
0.799147,-0.1590,-0.1450,-1.1367,0.0586,-0.8197,-0.9316,14.7000,8.8800,36.2400,
0.815559,-0.1590,-0.1450,-1.1367,-0.1518,-1.0504,-0.5662,14.7000,8.8800,36.2400,
0.824620,-0.1590,-0.1450,-1.1367,-0.1518,-1.0504,-0.5662,14.0400,11.7000,36.1800,
0.835717,-0.1590,-0.1450,-1.1367,-0.2514,-1.2597,0.0543,14.0400,11.7000,36.1800,
0.840452,-0.1590,-0.1450,-1.1367,-0.2514,-1.2597,0.0543,14.0400,11.7000,36.1800,
0.841284,-0.1109,-2.2664,1.0226,-0.2514,-1.2597,0.0543,14.0400,11.7000,36.1800,
0.856681,-0.1109,-2.2664,1.0226,-0.1449,-0.8847,0.3979,14.0400,11.7000,36.1800,
0.876589,-0.1109,-2.2664,1.0226,-0.0016,-0.4719,0.9998,14.0400,11.7000,36.1800,
0.885457,-0.1109,-2.2664,1.0226,-0.0016,-0.4719,0.9998,13.6200,13.8000,36.0600,
0.898386,-0.1109,-2.2664,1.0226,0.1342,-0.0959,1.7614,13.6200,13.8000,36.0600,
0.901286,-0.1109,-2.2664,1.0226,0.1342,-0.0959,1.7614,13.6200,13.8000,36.0600,
0.901831,1.0431,-1.7082,-0.3609,0.1342,-0.0959,1.7614,13.6200,13.8000,36.0600,
0.918007,1.0431,-1.7082,-0.3609,-0.3334,-0.9199,2.7090,13.6200,13.8000,36.0600,
0.938962,1.0431,-1.7082,-0.3609,-0.3531,-1.3886,2.6749,13.6200,13.8000,36.0600,
0.948451,1.0431,-1.7082,-0.3609,-0.3531,-1.3886,2.6749,14.2800,14.8800,35.4000,
0.959010,1.0431,-1.7082,-0.3609,0.0202,-0.3265,1.8493,14.2800,14.8800,35.4000,
0.963461,1.0431,-1.7082,-0.3609,0.0202,-0.3265,1.8493,14.2800,14.8800,35.4000,
0.964118,2.9434,4.1554,-0.1102,0.0202,-0.3265,1.8493,14.2800,14.8800,35.4000,
0.979840,2.9434,4.1554,-0.1102,0.6930,0.9752,0.6706,14.2800,14.8800,35.4000,
1.000189,2.9434,4.1554,-0.1102,0.7984,0.9673,-0.0948,14.2800,14.8800,35.4000,
1.008924,2.9434,4.1554,-0.1102,0.7984,0.9673,-0.0948,15.2400,14.3400,34.2600,
1.020654,2.9434,4.1554,-0.1102,0.4139,0.2940,0.1092,15.2400,14.3400,34.2600,
1.024853,2.9434,4.1554,-0.1102,0.4139,0.2940,0.1092,15.2400,14.3400,34.2600,
1.025617,-1.3572,-0.8903,-0.0366,0.4139,0.2940,0.1092,15.2400,14.3400,34.2600,
1.044332,-1.3572,-0.8903,-0.0366,0.2482,0.0378,0.2541,15.2400,14.3400,34.2600,
1.061871,-1.3572,-0.8903,-0.0366,0.3595,-0.0629,0.2802,15.2400,14.3400,34.2600,
1.070767,-1.3572,-0.8903,-0.0366,0.3595,-0.0629,0.2802,16.2600,13.0200,33.5400,
1.082481,-1.3572,-0.8903,-0.0366,0.4384,-0.2200,0.3212,16.2600,13.0200,33.5400,
1.087011,-1.3572,-0.8903,-0.0366,0.4384,-0.2200,0.3212,16.2600,13.0200,33.5400,
1.087713,-0.2447,-0.4917,0.3452,0.4384,-0.2200,0.3212,16.2600,13.0200,33.5400,
1.103108,-0.2447,-0.4917,0.3452,0.4053,-0.3015,0.3904,16.2600,13.0200,33.5400,
1.123670,-0.2447,-0.4917,0.3452,0.3665,-0.2802,0.4394,16.2600,13.0200,33.5400,
1.132660,-0.2447,-0.4917,0.3452,0.3665,-0.2802,0.4394,17.5800,12.0600,33.3600,
1.144197,-0.2447,-0.4917,0.3452,0.3590,-0.2445,0.3915,17.5800,12.0600,33.3600,
1.149047,-0.2447,-0.4917,0.3452,0.3590,-0.2445,0.3915,17.5800,12.0600,33.3600,
1.150032,0.4132,0.1834,-0.0545,0.3590,-0.2445,0.3915,17.5800,12.0600,33.3600,
1.164211,0.4132,0.1834,-0.0545,0.3665,-0.2860,0.3164,17.5800,12.0600,33.3600,
1.185091,0.4132,0.1834,-0.0545,0.3915,-0.3196,0.2828,17.5800,12.0600,33.3600,
1.194202,0.4132,0.1834,-0.0545,0.3915,-0.3196,0.2828,17.9400,11.0400,32.6400,
1.205504,0.4132,0.1834,-0.0545,0.4245,-0.2977,0.3121,17.9400,11.0400,32.6400,
1.209808,0.4132,0.1834,-0.0545,0.4245,-0.2977,0.3121,17.9400,11.0400,32.6400,
1.210783,-0.1911,0.3609,0.3488,0.4245,-0.2977,0.3121,17.9400,11.0400,32.6400,
1.226134,-0.1911,0.3609,0.3488,0.4501,-0.2216,0.3712,17.9400,11.0400,32.6400,
1.246895,-0.1911,0.3609,0.3488,0.4964,-0.1577,0.4437,17.9400,11.0400,32.6400,
1.255513,-0.1911,0.3609,0.3488,0.4964,-0.1577,0.4437,18.2400,11.7000,32.2200,
1.267059,-0.1911,0.3609,0.3488,0.5364,-0.1630,0.5268,18.2400,11.7000,32.2200,
1.273778,-0.1911,0.3609,0.3488,0.5364,-0.1630,0.5268,18.2400,11.7000,32.2200,
1.274625,-0.2220,0.9576,0.9223,0.5364,-0.1630,0.5268,18.2400,11.7000,32.2200,
1.287206,-0.2220,0.9576,0.9223,0.6179,-0.1917,0.5417,18.2400,11.7000,32.2200,
1.308368,-0.2220,0.9576,0.9223,0.8085,-0.1646,0.5364,18.2400,11.7000,32.2200,
1.316641,-0.2220,0.9576,0.9223,0.8085,-0.1646,0.5364,19.2000,12.0600,31.8600,
1.328554,-0.2220,0.9576,0.9223,0.9278,-0.0953,0.6493,19.2000,12.0600,31.8600,
1.333084,-0.2220,0.9576,0.9223,0.9278,-0.0953,0.6493,19.2000,12.0600,31.8600,
1.333897,-0.9478,-0.5587,0.8653,0.9278,-0.0953,0.6493,19.2000,12.0600,31.8600,
1.348976,-0.9478,-0.5587,0.8653,0.9811,-0.0602,0.7691,19.2000,12.0600,31.8600,
1.369425,-0.9478,-0.5587,0.8653,1.0812,0.0788,0.7329,19.2000,12.0600,31.8600,
1.378145,-0.9478,-0.5587,0.8653,1.0812,0.0788,0.7329,20.1600,12.1200,31.0200,
1.390097,-0.9478,-0.5587,0.8653,1.3108,0.1795,0.7302,20.1600,12.1200,31.0200,
1.394209,-0.9478,-0.5587,0.8653,1.3108,0.1795,0.7302,20.1600,12.1200,31.0200,
1.394779,0.1058,0.9778,0.9337,1.3108,0.1795,0.7302,20.1600,12.1200,31.0200,
1.410435,0.1058,0.9778,0.9337,1.5473,0.1486,0.7835,20.1600,12.1200,31.0200,
1.431635,0.1058,0.9778,0.9337,1.5505,0.1209,0.7654,20.1600,12.1200,31.0200,
1.440087,0.1058,0.9778,0.9337,1.5505,0.1209,0.7654,21.2400,13.0800,30.4200,
1.451849,0.1058,0.9778,0.9337,1.2964,0.2929,0.7521,21.2400,13.0800,30.4200,
1.457600,0.1058,0.9778,0.9337,1.2964,0.2929,0.7521,21.2400,13.0800,30.4200,
1.458345,1.0029,0.8973,-1.9805,1.2964,0.2929,0.7521,21.2400,13.0800,30.4200,
1.471929,1.0029,0.8973,-1.9805,1.2048,0.4698,0.7856,21.2400,13.0800,30.4200,
1.492466,1.0029,0.8973,-1.9805,1.3960,0.4985,0.8671,21.2400,13.0800,30.4200,
1.501269,1.0029,0.8973,-1.9805,1.3960,0.4985,0.8671,21.7200,13.9200,29.9400,
1.513229,1.0029,0.8973,-1.9805,1.5329,0.5257,1.1196,21.7200,13.9200,29.9400,
1.517545,1.0029,0.8973,-1.9805,1.5329,0.5257,1.1196,21.7200,13.9200,29.9400,
1.518373,-1.5452,0.9036,-0.8166,1.5329,0.5257,1.1196,21.7200,13.9200,29.9400,
1.533832,-1.5452,0.9036,-0.8166,1.3731,0.5715,1.3028,21.7200,13.9200,29.9400,
1.554265,-1.5452,0.9036,-0.8166,1.2964,0.2061,1.3571,21.7200,13.9200,29.9400,
1.563652,-1.5452,0.9036,-0.8166,1.2964,0.2061,1.3571,21.9600,15.3000,28.6800,
1.575040,-1.5452,0.9036,-0.8166,1.2687,-0.2386,1.3428,21.9600,15.3000,28.6800,
1.580002,-1.5452,0.9036,-0.8166,1.2687,-0.2386,1.3428,21.9600,15.3000,28.6800,
1.580846,-0.1450,0.3187,0.1655,1.2687,-0.2386,1.3428,21.9600,15.3000,28.6800,
1.595326,-0.1450,0.3187,0.1655,1.2943,-0.5028,1.3508,21.9600,15.3000,28.6800,
1.616168,-0.1450,0.3187,0.1655,1.3018,-0.5795,1.3353,21.9600,15.3000,28.6800,
1.624617,-0.1450,0.3187,0.1655,1.3018,-0.5795,1.3353,22.2000,17.1600,27.7200,
1.637242,-0.1450,0.3187,0.1655,1.3848,-0.6413,1.3215,22.2000,17.1600,27.7200,
1.640718,-0.1450,0.3187,0.1655,1.3848,-0.6413,1.3215,22.2000,17.1600,27.7200,
1.641699,1.0772,1.1084,-0.9305,1.3848,-0.6413,1.3215,22.2000,17.1600,27.7200,
1.656993,1.0772,1.1084,-0.9305,1.3875,-0.6056,1.3097,22.2000,17.1600,27.7200,
1.678173,1.0772,1.1084,-0.9305,1.4392,-0.3760,1.3422,22.2000,17.1600,27.7200,
1.687145,1.0772,1.1084,-0.9305,1.4392,-0.3760,1.3422,22.9200,18.2400,26.4000,
1.699178,1.0772,1.1084,-0.9305,1.5521,-0.2200,1.4253,22.9200,18.2400,26.4000,
1.703195,1.0772,1.1084,-0.9305,1.5521,-0.2200,1.4253,22.9200,18.2400,26.4000,
1.704069,1.7562,-1.3161,-0.8650,1.5521,-0.2200,1.4253,22.9200,18.2400,26.4000,
1.718905,1.7562,-1.3161,-0.8650,1.6064,-0.1358,1.4509,22.9200,18.2400,26.4000,
1.739362,1.7562,-1.3161,-0.8650,1.7113,0.0921,1.5010,22.9200,18.2400,26.4000,
1.748300,1.7562,-1.3161,-0.8650,1.7113,0.0921,1.5010,24.6600,19.0800,24.4200,
1.759619,1.7562,-1.3161,-0.8650,1.8285,0.1971,1.6096,24.6600,19.0800,24.4200,
1.763744,1.7562,-1.3161,-0.8650,1.8285,0.1971,1.6096,24.6600,19.0800,24.4200,
1.764549,1.4075,-2.4474,-1.4371,1.8285,0.1971,1.6096,24.6600,19.0800,24.4200,
1.780138,1.4075,-2.4474,-1.4371,1.8552,0.0676,1.7124,24.6600,19.0800,24.4200,
1.801548,1.4075,-2.4474,-1.4371,1.9068,0.0149,1.8141,24.6600,19.0800,24.4200,
1.809727,1.4075,-2.4474,-1.4371,1.9068,0.0149,1.8141,26.2200,19.6200,22.8600,
1.821181,1.4075,-2.4474,-1.4371,2.0576,-0.1145,1.8589,26.2200,19.6200,22.8600,
1.825703,1.4075,-2.4474,-1.4371,2.0576,-0.1145,1.8589,26.2200,19.6200,22.8600,
1.826626,2.1056,-3.4376,-0.6430,2.0576,-0.1145,1.8589,26.2200,19.6200,22.8600,
1.842308,2.1056,-3.4376,-0.6430,2.2568,-0.2455,1.8216,26.2200,19.6200,22.8600,
1.863006,2.1056,-3.4376,-0.6430,2.4975,-0.2450,1.6975,26.2200,19.6200,22.8600,
1.871005,2.1056,-3.4376,-0.6430,2.4975,-0.2450,1.6975,28.0200,19.2000,20.9400,
1.883267,2.1056,-3.4376,-0.6430,2.6424,-0.2317,1.6634,28.0200,19.2000,20.9400,
1.887369,2.1056,-3.4376,-0.6430,2.6424,-0.2317,1.6634,28.0200,19.2000,20.9400,
1.888444,2.7443,-3.2921,-2.0404,2.6424,-0.2317,1.6634,28.0200,19.2000,20.9400,
1.903840,2.7443,-3.2921,-2.0404,2.6530,-0.0453,1.7412,28.0200,19.2000,20.9400,
1.923952,2.7443,-3.2921,-2.0404,2.6781,0.1337,1.8797,28.0200,19.2000,20.9400,
1.932685,2.7443,-3.2921,-2.0404,2.6781,0.1337,1.8797,29.7000,18.6600,19.2000,
1.944531,2.7443,-3.2921,-2.0404,2.7319,0.1555,1.8903,29.7000,18.6600,19.2000,
1.948732,2.7443,-3.2921,-2.0404,2.7319,0.1555,1.8903,29.7000,18.6600,19.2000,
1.949736,2.2723,-2.7745,-2.5173,2.7319,0.1555,1.8903,29.7000,18.6600,19.2000,
1.965878,2.2723,-2.7745,-2.5173,2.6371,0.0517,1.7097,29.7000,18.6600,19.2000,
1.986325,2.2723,-2.7745,-2.5173,2.4309,-0.0868,1.4264,29.7000,18.6600,19.2000,
1.995168,2.2723,-2.7745,-2.5173,2.4309,-0.0868,1.4264,31.2600,18.0600,17.1000,
2.007086,2.2723,-2.7745,-2.5173,2.1827,-0.1795,1.0599,31.2600,18.0600,17.1000,
2.010641,2.2723,-2.7745,-2.5173,2.1827,-0.1795,1.0599,31.2600,18.0600,17.1000,
2.011482,5.3807,-2.1367,-8.3151,2.1827,-0.1795,1.0599,31.2600,18.0600,17.1000,
2.026675,5.3807,-2.1367,-8.3151,1.8557,0.1246,0.7238,31.2600,18.0600,17.1000,
2.047096,5.3807,-2.1367,-8.3151,1.4525,0.7867,0.4911,31.2600,18.0600,17.1000,
2.056729,5.3807,-2.1367,-8.3151,1.4525,0.7867,0.4911,32.8800,17.5800,14.6400,
2.067914,5.3807,-2.1367,-8.3151,1.0956,1.6927,0.4128,32.8800,17.5800,14.6400,
2.072387,5.3807,-2.1367,-8.3151,1.0956,1.6927,0.4128,32.8800,17.5800,14.6400,
2.073138,6.3508,0.6133,-8.2306,1.0956,1.6927,0.4128,32.8800,17.5800,14.6400,
2.088443,6.3508,0.6133,-8.2306,1.2480,2.8821,0.4815,32.8800,17.5800,14.6400,
2.108418,6.3508,0.6133,-8.2306,1.9755,5.2842,0.5944,32.8800,17.5800,14.6400,
2.117792,6.3508,0.6133,-8.2306,1.9755,5.2842,0.5944,34.0200,17.7000,12.3600,
2.129592,6.3508,0.6133,-8.2306,-3.5708,-1.8584,0.6429,34.0200,17.7000,12.3600,
2.134761,6.3508,0.6133,-8.2306,-3.5708,-1.8584,0.6429,34.0200,17.7000,12.3600,
2.135521,-34.3600,37.1100,32.4387,-3.5708,-1.8584,0.6429,34.0200,17.7000,12.3600,
2.149621,-34.3600,37.1100,32.4387,0.7100,4.1135,1.5707,34.0200,17.7000,12.3600,
2.170667,-34.3600,37.1100,32.4387,-0.6365,4.8757,5.7226,34.0200,17.7000,12.3600,
2.178967,-34.3600,37.1100,32.4387,-0.6365,4.8757,5.7226,34.1400,17.9400,12.4800,
2.190789,-34.3600,37.1100,32.4387,-0.5294,4.4672,6.1700,34.1400,17.9400,12.4800,
2.195110,-34.3600,37.1100,32.4387,-0.5294,4.4672,6.1700,34.1400,17.9400,12.4800,
2.195977,-9.0474,0.0985,-1.7746,-0.5294,4.4672,6.1700,34.1400,17.9400,12.4800,
2.211289,-9.0474,0.0985,-1.7746,0.1135,4.6408,5.9436,34.1400,17.9400,12.4800,
2.232178,-9.0474,0.0985,-1.7746,1.0504,4.5316,5.4313,34.1400,17.9400,12.4800,
2.241037,-9.0474,0.0985,-1.7746,1.0504,4.5316,5.4313,31.8000,16.1400,15.1200,
2.252613,-9.0474,0.0985,-1.7746,1.2650,2.4054,4.9013,31.8000,16.1400,15.1200,
2.257184,-9.0474,0.0985,-1.7746,1.2650,2.4054,4.9013,31.8000,16.1400,15.1200,
2.258306,0.4347,-5.3961,3.0311,1.2650,2.4054,4.9013,31.8000,16.1400,15.1200,
2.273256,0.4347,-5.3961,3.0311,0.8059,1.4109,4.8741,31.8000,16.1400,15.1200,
2.293888,0.4347,-5.3961,3.0311,-0.6221,1.7849,5.4147,31.8000,16.1400,15.1200,
2.302479,0.4347,-5.3961,3.0311,-0.6221,1.7849,5.4147,28.3200,11.7600,19.9800,
2.314102,0.4347,-5.3961,3.0311,-1.8749,1.7332,5.2779,28.3200,11.7600,19.9800,
2.318634,0.4347,-5.3961,3.0311,-1.8749,1.7332,5.2779,28.3200,11.7600,19.9800,
2.319629,-1.7528,-4.2034,3.9321,-1.8749,1.7332,5.2779,28.3200,11.7600,19.9800,
2.334735,-1.7528,-4.2034,3.9321,-2.2466,0.8091,4.4880,28.3200,11.7600,19.9800,
2.355136,-1.7528,-4.2034,3.9321,-2.3846,0.2178,3.6895,28.3200,11.7600,19.9800,
2.365996,-1.7528,-4.2034,3.9321,-2.3846,0.2178,3.6895,22.7400,5.4600,25.8600,
2.375982,-1.7528,-4.2034,3.9321,-2.0341,0.1609,2.8448,22.7400,5.4600,25.8600,
2.380184,-1.7528,-4.2034,3.9321,-2.0341,0.1609,2.8448,22.7400,5.4600,25.8600,
2.381092,5.3700,-8.9890,0.8138,-2.0341,0.1609,2.8448,22.7400,5.4600,25.8600,
2.396371,5.3700,-8.9890,0.8138,-1.5340,0.7638,1.8994,22.7400,5.4600,25.8600,
2.416610,5.3700,-8.9890,0.8138,-0.1417,0.4272,-0.3174,22.7400,5.4600,25.8600,
2.425465,5.3700,-8.9890,0.8138,-0.1417,0.4272,-0.3174,17.1600,-2.8200,29.8800,
2.437182,5.3700,-8.9890,0.8138,1.6139,-1.0189,1.5819,17.1600,-2.8200,29.8800,
2.441638,5.3700,-8.9890,0.8138,1.6139,-1.0189,1.5819,17.1600,-2.8200,29.8800,
2.442485,-2.0500,53.6572,2.0672,1.6139,-1.0189,1.5819,17.1600,-2.8200,29.8800,
2.457835,-2.0500,53.6572,2.0672,1.3801,0.2658,3.6011,17.1600,-2.8200,29.8800,
2.478004,-2.0500,53.6572,2.0672,1.6874,0.6796,3.7146,17.1600,-2.8200,29.8800,
2.487010,-2.0500,53.6572,2.0672,1.6874,0.6796,3.7146,12.4200,-9.4800,31.8600,
2.498961,-2.0500,53.6572,2.0672,1.9137,0.9603,3.6837,12.4200,-9.4800,31.8600,
2.503017,-2.0500,53.6572,2.0672,1.9137,0.9603,3.6837,12.4200,-9.4800,31.8600,
2.505186,-2.0864,-10.5892,-1.0891,1.9137,0.9603,3.6837,12.4200,-9.4800,31.8600,
2.521492,-2.0864,-10.5892,-1.0891,1.7896,1.2762,3.7636,12.4200,-9.4800,31.8600,
2.541028,-2.0864,-10.5892,-1.0891,1.2538,2.1422,4.3591,12.4200,-9.4800,31.8600,
2.549009,-2.0864,-10.5892,-1.0891,1.2538,2.1422,4.3591,7.8000,-13.9200,33.1200,
2.560137,-2.0864,-10.5892,-1.0891,0.9619,1.9782,5.2006,7.8000,-13.9200,33.1200,
2.564696,-2.0864,-10.5892,-1.0891,0.9619,1.9782,5.2006,7.8000,-13.9200,33.1200,
2.565492,2.2558,6.7688,-1.7200,0.9619,1.9782,5.2006,7.8000,-13.9200,33.1200,
2.581853,2.2558,6.7688,-1.7200,0.4421,1.8386,6.1338,7.8000,-13.9200,33.1200,
2.601953,2.2558,6.7688,-1.7200,0.0511,1.8882,6.4646,7.8000,-13.9200,33.1200,
2.610070,2.2558,6.7688,-1.7200,0.0511,1.8882,6.4646,3.3000,-16.1400,33.5400,
2.621971,2.2558,6.7688,-1.7200,-0.0783,2.5391,3.9202,3.3000,-16.1400,33.5400,
2.626301,2.2558,6.7688,-1.7200,-0.0783,2.5391,3.9202,3.3000,-16.1400,33.5400,
2.627069,16.5245,-13.2808,-0.1930,-0.0783,2.5391,3.9202,3.3000,-16.1400,33.5400,
2.642388,16.5245,-13.2808,-0.1930,0.4432,4.1130,0.4240,3.3000,-16.1400,33.5400,
2.662902,16.5245,-13.2808,-0.1930,0.4975,4.7090,-0.7164,3.3000,-16.1400,33.5400,
2.672181,16.5245,-13.2808,-0.1930,0.4975,4.7090,-0.7164,-2.2800,-15.8400,34.4400,
2.683481,16.5245,-13.2808,-0.1930,0.2189,5.2214,-1.9462,-2.2800,-15.8400,34.4400,
2.687653,16.5245,-13.2808,-0.1930,0.2189,5.2214,-1.9462,-2.2800,-15.8400,34.4400,
2.688729,4.8750,0.3970,-3.4283,0.2189,5.2214,-1.9462,-2.2800,-15.8400,34.4400,
2.704298,4.8750,0.3970,-3.4283,0.1577,6.3452,-2.0096,-2.2800,-15.8400,34.4400,
2.724385,4.8750,0.3970,-3.4283,-0.0027,7.7791,-1.7508,-2.2800,-15.8400,34.4400,
2.733236,4.8750,0.3970,-3.4283,-0.0027,7.7791,-1.7508,-10.2600,-14.4000,34.9200,
2.744959,4.8750,0.3970,-3.4283,-0.2956,8.8577,-1.7305,-10.2600,-14.4000,34.9200,
2.749108,4.8750,0.3970,-3.4283,-0.2956,8.8577,-1.7305,-10.2600,-14.4000,34.9200,
2.750202,-1.5696,-3.2478,-6.9768,-0.2956,8.8577,-1.7305,-10.2600,-14.4000,34.9200,
2.765533,-1.5696,-3.2478,-6.9768,-0.6706,9.9240,-1.9798,-10.2600,-14.4000,34.9200,
2.786505,-1.5696,-3.2478,-6.9768,-1.8434,-1.8264,-0.0826,-10.2600,-14.4000,34.9200,
2.795212,-1.5696,-3.2478,-6.9768,-1.8434,-1.8264,-0.0826,-19.8000,-14.3400,31.9200,
2.806588,-1.5696,-3.2478,-6.9768,-1.6687,-4.2291,0.5438,-19.8000,-14.3400,31.9200,
2.810835,-1.5696,-3.2478,-6.9768,-1.6687,-4.2291,0.5438,-19.8000,-14.3400,31.9200,
2.811467,1.8187,1.2365,1.5668,-1.6687,-4.2291,0.5438,-19.8000,-14.3400,31.9200,
2.827027,1.8187,1.2365,1.5668,-1.5548,-3.9777,0.5539,-19.8000,-14.3400,31.9200,
2.848446,1.8187,1.2365,1.5668,-0.6802,-2.2781,0.3206,-19.8000,-14.3400,31.9200,
2.857434,1.8187,1.2365,1.5668,-0.6802,-2.2781,0.3206,-29.1000,-14.6400,27.2400,
2.868915,1.8187,1.2365,1.5668,0.1550,-0.0123,0.1609,-29.1000,-14.6400,27.2400,
2.872447,1.8187,1.2365,1.5668,0.1550,-0.0123,0.1609,-29.1000,-14.6400,27.2400,
2.873288,3.7735,-1.0338,-1.7480,0.1550,-0.0123,0.1609,-29.1000,-14.6400,27.2400,
2.890173,3.7735,-1.0338,-1.7480,0.1667,1.0722,-0.0921,-29.1000,-14.6400,27.2400,
2.908866,3.7735,-1.0338,-1.7480,0.2115,1.0434,-0.2631,-29.1000,-14.6400,27.2400,
2.913032,3.7735,-1.0338,-1.7480,0.2115,1.0434,-0.2631,-29.1000,-14.6400,27.2400,
2.913375,1.3945,-1.5515,1.5446,0.2115,1.0434,-0.2631,-29.1000,-14.6400,27.2400,
2.917649,1.3945,-1.5515,1.5446,0.2115,1.0434,-0.2631,-35.0400,-15.8400,23.2200,
2.929420,1.3945,-1.5515,1.5446,0.2109,0.3324,-0.2823,-35.0400,-15.8400,23.2200,
2.933786,1.3945,-1.5515,1.5446,0.2109,0.3324,-0.2823,-35.0400,-15.8400,23.2200,
2.934131,1.0661,-1.1537,1.7644,0.2109,0.3324,-0.2823,-35.0400,-15.8400,23.2200,
2.952319,1.0661,-1.1537,1.7644,0.1065,-0.4112,-0.2642,-35.0400,-15.8400,23.2200,
2.953957,1.0661,-1.1537,1.7644,0.1065,-0.4112,-0.2642,-35.0400,-15.8400,23.2200,
2.954260,1.0196,-0.7071,0.9969,0.1065,-0.4112,-0.2642,-35.0400,-15.8400,23.2200,
2.970231,1.0196,-0.7071,0.9969,-0.0170,-0.9183,-0.1965,-35.0400,-15.8400,23.2200,
2.979288,1.0196,-0.7071,0.9969,-0.0170,-0.9183,-0.1965,-38.4000,-17.8200,19.1400,
2.991022,1.0196,-0.7071,0.9969,-0.1411,-1.4381,-0.0698,-38.4000,-17.8200,19.1400,
2.995120,1.0196,-0.7071,0.9969,-0.1411,-1.4381,-0.0698,-38.4000,-17.8200,19.1400,
2.995411,0.1961,-0.7610,0.5433,-0.1411,-1.4381,-0.0698,-38.4000,-17.8200,19.1400,
3.011621,0.1961,-0.7610,0.5433,-0.2658,-1.7172,0.0740,-38.4000,-17.8200,19.1400,
3.032422,0.1961,-0.7610,0.5433,-0.4224,-1.6080,0.2471,-38.4000,-17.8200,19.1400,
3.041057,0.1961,-0.7610,0.5433,-0.4224,-1.6080,0.2471,-38.4600,-18.8400,18.0600,
3.052619,0.1961,-0.7610,0.5433,-0.4570,-1.1143,0.4016,-38.4600,-18.8400,18.0600,
3.056974,0.1961,-0.7610,0.5433,-0.4570,-1.1143,0.4016,-38.4600,-18.8400,18.0600,
3.057264,0.4460,-1.2968,-0.5603,-0.4570,-1.1143,0.4016,-38.4600,-18.8400,18.0600,
3.074046,0.4460,-1.2968,-0.5603,-0.1662,-0.5348,0.3867,-38.4600,-18.8400,18.0600,
3.093577,0.4460,-1.2968,-0.5603,0.1976,-0.0948,0.2839,-38.4600,-18.8400,18.0600,
3.102283,0.4460,-1.2968,-0.5603,0.1976,-0.0948,0.2839,-36.8400,-19.2600,19.5000,
3.114090,0.4460,-1.2968,-0.5603,0.2961,-0.2147,0.1614,-36.8400,-19.2600,19.5000,
3.118360,0.4460,-1.2968,-0.5603,0.2961,-0.2147,0.1614,-36.8400,-19.2600,19.5000,
3.118681,1.6674,-1.1937,0.6202,0.2961,-0.2147,0.1614,-36.8400,-19.2600,19.5000,
3.134593,1.6674,-1.1937,0.6202,0.3297,-0.3228,0.1241,-36.8400,-19.2600,19.5000,
3.155789,1.6674,-1.1937,0.6202,0.4751,-0.1720,0.1481,-36.8400,-19.2600,19.5000,
3.164199,1.6674,-1.1937,0.6202,0.4751,-0.1720,0.1481,-36.1200,-19.8000,19.8600,
3.175761,1.6674,-1.1937,0.6202,0.5960,0.1976,0.2232,-36.1200,-19.8000,19.8600,
3.180353,1.6674,-1.1937,0.6202,0.5960,0.1976,0.2232,-36.1200,-19.8000,19.8600,
3.180691,0.7300,-0.3609,-0.5014,0.5960,0.1976,0.2232,-36.1200,-19.8000,19.8600,
3.196471,0.7300,-0.3609,-0.5014,0.5795,0.8709,0.3638,-36.1200,-19.8000,19.8600,
3.216869,0.7300,-0.3609,-0.5014,0.5992,1.7481,0.4245,-36.1200,-19.8000,19.8600,
3.225943,0.7300,-0.3609,-0.5014,0.5992,1.7481,0.4245,-35.2800,-19.6800,21.3600,
3.237567,0.7300,-0.3609,-0.5014,0.5454,2.6605,0.5172,-35.2800,-19.6800,21.3600,
3.242217,0.7300,-0.3609,-0.5014,0.5454,2.6605,0.5172,-35.2800,-19.6800,21.3600,
3.242545,0.4859,-0.6018,-1.9331,0.5454,2.6605,0.5172,-35.2800,-19.6800,21.3600,
3.258267,0.4859,-0.6018,-1.9331,0.3547,3.5718,0.6365,-35.2800,-19.6800,21.3600,
3.278540,0.4859,-0.6018,-1.9331,0.1550,4.7990,0.6951,-35.2800,-19.6800,21.3600,
3.287260,0.4859,-0.6018,-1.9331,0.1550,4.7990,0.6951,-34.8000,-18.6000,22.2600,
3.298979,0.4859,-0.6018,-1.9331,-0.0101,6.8795,0.6258,-34.8000,-18.6000,22.2600,
3.303232,0.4859,-0.6018,-1.9331,-0.0101,6.8795,0.6258,-34.8000,-18.6000,22.2600,
3.303554,0.9777,-1.6762,-5.2653,-0.0101,6.8795,0.6258,-34.8000,-18.6000,22.2600,
3.319598,0.9777,-1.6762,-5.2653,-0.3617,9.7711,0.2653,-34.8000,-18.6000,22.2600,
3.340019,0.9777,-1.6762,-5.2653,-1.1052,12.3059,-0.3787,-34.8000,-18.6000,22.2600,
3.348825,0.9777,-1.6762,-5.2653,-1.1052,12.3059,-0.3787,-37.2600,-17.5200,20.1000,
3.360587,0.9777,-1.6762,-5.2653,-4.4954,6.8619,-0.7468,-37.2600,-17.5200,20.1000,
3.364854,0.9777,-1.6762,-5.2653,-4.4954,6.8619,-0.7468,-37.2600,-17.5200,20.1000,
3.365366,-8.4115,-0.6859,18.2937,-4.4954,6.8619,-0.7468,-37.2600,-17.5200,20.1000,
3.381340,-8.4115,-0.6859,18.2937,-1.4797,-4.3500,0.9204,-37.2600,-17.5200,20.1000,
3.402772,-8.4115,-0.6859,18.2937,1.2469,-1.9995,0.1731,-37.2600,-17.5200,20.1000,
3.410785,-8.4115,-0.6859,18.2937,1.2469,-1.9995,0.1731,-40.9800,-16.0800,12.3000,
3.422635,-8.4115,-0.6859,18.2937,0.3728,0.6535,0.1800,-40.9800,-16.0800,12.3000,
3.426958,-8.4115,-0.6859,18.2937,0.3728,0.6535,0.1800,-40.9800,-16.0800,12.3000,
3.427678,2.1883,-2.3795,-1.5333,0.3728,0.6535,0.1800,-40.9800,-16.0800,12.3000,
3.443181,2.1883,-2.3795,-1.5333,0.6940,0.3611,0.0953,-40.9800,-16.0800,12.3000,
3.463812,2.1883,-2.3795,-1.5333,-0.4852,-0.0117,-0.0426,-40.9800,-16.0800,12.3000,
3.473205,2.1883,-2.3795,-1.5333,-0.4852,-0.0117,-0.0426,-44.1000,-14.2200,4.1400,
3.484577,2.1883,-2.3795,-1.5333,-0.3659,-0.2802,0.0101,-44.1000,-14.2200,4.1400,
3.488641,2.1883,-2.3795,-1.5333,-0.3659,-0.2802,0.0101,-44.1000,-14.2200,4.1400,
3.489585,-0.0779,-1.4459,2.8027,-0.3659,-0.2802,0.0101,-44.1000,-14.2200,4.1400,
3.505858,-0.0779,-1.4459,2.8027,-0.0463,-0.0900,0.0740,-44.1000,-14.2200,4.1400,
3.526497,-0.0779,-1.4459,2.8027,0.0320,0.0405,-0.0266,-44.1000,-14.2200,4.1400,
3.536249,-0.0779,-1.4459,2.8027,0.0320,0.0405,-0.0266,-47.2800,-13.6200,-4.0200,
3.546013,-0.0779,-1.4459,2.8027,0.0336,0.0991,-0.0985,-47.2800,-13.6200,-4.0200,
3.550070,-0.0779,-1.4459,2.8027,0.0336,0.0991,-0.0985,-47.2800,-13.6200,-4.0200,
3.550944,0.9595,-1.3124,0.2972,0.0336,0.0991,-0.0985,-47.2800,-13.6200,-4.0200,
3.567572,0.9595,-1.3124,0.2972,0.0314,0.0937,-0.0746,-47.2800,-13.6200,-4.0200,
3.587901,0.9595,-1.3124,0.2972,0.0378,0.0048,-0.0064,-47.2800,-13.6200,-4.0200,
3.596087,0.9595,-1.3124,0.2972,0.0378,0.0048,-0.0064,-48.7800,-13.2000,-9.7200,
3.607931,0.9595,-1.3124,0.2972,0.0581,0.0746,-0.0202,-48.7800,-13.2000,-9.7200,
3.612049,0.9595,-1.3124,0.2972,0.0581,0.0746,-0.0202,-48.7800,-13.2000,-9.7200,
3.613000,0.2619,0.3465,-0.0117,0.0581,0.0746,-0.0202,-48.7800,-13.2000,-9.7200,
3.628846,0.2619,0.3465,-0.0117,0.0666,0.0495,-0.0527,-48.7800,-13.2000,-9.7200,
3.652150,0.2619,0.3465,-0.0117,0.0655,0.0666,-0.0746,-48.7800,-13.2000,-9.7200,
3.659151,0.2619,0.3465,-0.0117,0.0655,0.0666,-0.0746,-48.7200,-12.5400,-9.7200,
3.668794,0.2619,0.3465,-0.0117,0.0522,0.1081,-0.0549,-48.7200,-12.5400,-9.7200,
3.675556,0.2619,0.3465,-0.0117,0.0522,0.1081,-0.0549,-48.7200,-12.5400,-9.7200,
3.676368,-0.4162,0.2565,-0.0638,0.0522,0.1081,-0.0549,-48.7200,-12.5400,-9.7200,
3.689084,-0.4162,0.2565,-0.0638,0.0703,0.0916,0.0075,-48.7200,-12.5400,-9.7200,
3.709776,-0.4162,0.2565,-0.0638,0.0240,0.0932,0.0202,-48.7200,-12.5400,-9.7200,
3.718954,-0.4162,0.2565,-0.0638,0.0240,0.0932,0.0202,-49.2600,-12.5400,-10.2000,
3.730317,-0.4162,0.2565,-0.0638,0.1854,-1.0892,-1.6741,-49.2600,-12.5400,-10.2000,
3.734999,-0.4162,0.2565,-0.0638,0.1854,-1.0892,-1.6741,-49.2600,-12.5400,-10.2000,
3.735439,15.1826,-1.0021,6.6332,0.1854,-1.0892,-1.6741,-49.2600,-12.5400,-10.2000,
3.750748,15.1826,-1.0021,6.6332,0.7665,-1.1452,-1.5516,-49.2600,-12.5400,-10.2000,
3.771173,15.1826,-1.0021,6.6332,1.0812,-0.2226,-1.2634,-49.2600,-12.5400,-10.2000,
3.779876,15.1826,-1.0021,6.6332,1.0812,-0.2226,-1.2634,-49.2600,-12.6600,-10.2000,
3.791645,15.1826,-1.0021,6.6332,1.6831,0.3792,-1.3571,-49.2600,-12.6600,-10.2000,
3.795846,15.1826,-1.0021,6.6332,1.6831,0.3792,-1.3571,-49.2600,-12.6600,-10.2000,
3.796236,-5.7606,-0.3109,11.6266,1.6831,0.3792,-1.3571,-49.2600,-12.6600,-10.2000,
3.812249,-5.7606,-0.3109,11.6266,2.0709,-2.3777,-0.8000,-49.2600,-12.6600,-10.2000,
3.833108,-5.7606,-0.3109,11.6266,1.8243,-2.4485,-0.1784,-49.2600,-12.6600,-10.2000,
3.841868,-5.7606,-0.3109,11.6266,1.8243,-2.4485,-0.1784,-48.5400,-13.5600,-10.0200,
3.854150,-5.7606,-0.3109,11.6266,1.6698,-2.7841,-0.6035,-48.5400,-13.5600,-10.0200,
3.857984,-5.7606,-0.3109,11.6266,1.6698,-2.7841,-0.6035,-48.5400,-13.5600,-10.0200,
3.858824,2.7192,-2.5438,5.1647,1.6698,-2.7841,-0.6035,-48.5400,-13.5600,-10.0200,
3.874261,2.7192,-2.5438,5.1647,2.1742,-3.1803,-1.7976,-48.5400,-13.5600,-10.0200,
3.895508,2.7192,-2.5438,5.1647,2.8602,-3.8307,-3.0483,-48.5400,-13.5600,-10.0200,
3.903906,2.7192,-2.5438,5.1647,2.8602,-3.8307,-3.0483,-48.1200,-15.4200,-7.7400,
3.915829,2.7192,-2.5438,5.1647,3.4477,-3.8674,-3.9367,-48.1200,-15.4200,-7.7400,
3.919806,2.7192,-2.5438,5.1647,3.4477,-3.8674,-3.9367,-48.1200,-15.4200,-7.7400,
3.920610,-3.0007,-2.3388,3.3570,3.4477,-3.8674,-3.9367,-48.1200,-15.4200,-7.7400,
3.937161,-3.0007,-2.3388,3.3570,3.8440,-3.0211,-4.0491,-48.1200,-15.4200,-7.7400,
3.958173,-3.0007,-2.3388,3.3570,3.6917,-1.7422,-3.5228,-48.1200,-15.4200,-7.7400,
3.966521,-3.0007,-2.3388,3.3570,3.6917,-1.7422,-3.5228,-46.5600,-17.7000,-2.5800,
3.977895,-3.0007,-2.3388,3.3570,2.6392,-1.3854,-1.7289,-46.5600,-17.7000,-2.5800,
3.981996,-3.0007,-2.3388,3.3570,2.6392,-1.3854,-1.7289,-46.5600,-17.7000,-2.5800,
3.982917,-8.5646,-1.8428,-5.0690,2.6392,-1.3854,-1.7289,-46.5600,-17.7000,-2.5800,
3.998680,-8.5646,-1.8428,-5.0690,1.8323,-1.9755,-0.1332,-46.5600,-17.7000,-2.5800,
4.018729,-8.5646,-1.8428,-5.0690,1.2043,-2.0032,0.4613,-46.5600,-17.7000,-2.5800,
4.027633,-8.5646,-1.8428,-5.0690,1.2043,-2.0032,0.4613,-43.3800,-20.7000,5.3400,
4.038534,-8.5646,-1.8428,-5.0690,1.1489,-2.3361,-0.4155,-43.3800,-20.7000,5.3400,
4.043540,-8.5646,-1.8428,-5.0690,1.1489,-2.3361,-0.4155,-43.3800,-20.7000,5.3400,
4.044454,2.1700,0.2465,0.2990,1.1489,-2.3361,-0.4155,-43.3800,-20.7000,5.3400,
4.059311,2.1700,0.2465,0.2990,1.3646,-2.0863,-1.7092,-43.3800,-20.7000,5.3400,
4.080011,2.1700,0.2465,0.2990,1.4743,-1.6863,-2.6211,-43.3800,-20.7000,5.3400,
4.089453,2.1700,0.2465,0.2990,1.4743,-1.6863,-2.6211,-39.4800,-22.3800,13.8000,
4.101591,2.1700,0.2465,0.2990,1.2852,-1.4850,-2.8522,-39.4800,-22.3800,13.8000,
4.105673,2.1700,0.2465,0.2990,1.2852,-1.4850,-2.8522,-39.4800,-22.3800,13.8000,
4.106623,0.6089,-1.9354,-0.5618,1.2852,-1.4850,-2.8522,-39.4800,-22.3800,13.8000,
4.121383,0.6089,-1.9354,-0.5618,1.0216,-1.3822,-2.7542,-39.4800,-22.3800,13.8000,
4.141692,0.6089,-1.9354,-0.5618,1.0029,-1.4903,-2.4208,-39.4800,-22.3800,13.8000,
4.150332,0.6089,-1.9354,-0.5618,1.0029,-1.4903,-2.4208,-34.0800,-23.4600,21.0000,
4.162252,0.6089,-1.9354,-0.5618,1.1739,-1.4360,-2.2344,-34.0800,-23.4600,21.0000,
4.166395,0.6089,-1.9354,-0.5618,1.1739,-1.4360,-2.2344,-34.0800,-23.4600,21.0000,
4.167501,-2.4626,-2.0554,-0.8180,1.1739,-1.4360,-2.2344,-34.0800,-23.4600,21.0000,
4.183865,-2.4626,-2.0554,-0.8180,1.3412,-1.5201,-2.2493,-34.0800,-23.4600,21.0000,
4.203413,-2.4626,-2.0554,-0.8180,1.1931,-1.2948,-2.4688,-34.0800,-23.4600,21.0000,
4.212406,-2.4626,-2.0554,-0.8180,1.1931,-1.2948,-2.4688,-27.7800,-24.1800,26.8200,
4.223668,-2.4626,-2.0554,-0.8180,0.8581,-0.7057,-1.8674,-27.7800,-24.1800,26.8200,
4.227832,-2.4626,-2.0554,-0.8180,0.8581,-0.7057,-1.8674,-27.7800,-24.1800,26.8200,
4.228704,-6.1309,-1.4222,-2.4970,0.8581,-0.7057,-1.8674,-27.7800,-24.1800,26.8200,
4.243569,-6.1309,-1.4222,-2.4970,0.7201,-0.3398,-0.8810,-27.7800,-24.1800,26.8200,
4.266121,-6.1309,-1.4222,-2.4970,0.5609,-0.3505,-0.1609,-27.7800,-24.1800,26.8200,
4.275240,-6.1309,-1.4222,-2.4970,0.5609,-0.3505,-0.1609,-21.9600,-23.1000,30.3000,
4.285827,-6.1309,-1.4222,-2.4970,0.3499,-0.4325,0.0597,-21.9600,-23.1000,30.3000,
4.291893,-6.1309,-1.4222,-2.4970,0.3499,-0.4325,0.0597,-21.9600,-23.1000,30.3000,
4.293637,-1.3450,-0.7704,-2.0636,0.3499,-0.4325,0.0597,-21.9600,-23.1000,30.3000,
4.305768,-1.3450,-0.7704,-2.0636,0.2061,-0.5491,-0.0996,-21.9600,-23.1000,30.3000,
4.326216,-1.3450,-0.7704,-2.0636,0.1603,-0.4762,-0.3467,-21.9600,-23.1000,30.3000,
4.335363,-1.3450,-0.7704,-2.0636,0.1603,-0.4762,-0.3467,-16.5600,-22.4400,33.3600,
4.346667,-1.3450,-0.7704,-2.0636,0.2248,-0.5017,-0.5662,-16.5600,-22.4400,33.3600,
4.350530,-1.3450,-0.7704,-2.0636,0.2248,-0.5017,-0.5662,-16.5600,-22.4400,33.3600,
4.351411,0.2228,0.3795,0.5273,0.2248,-0.5017,-0.5662,-16.5600,-22.4400,33.3600,
4.367487,0.2228,0.3795,0.5273,0.5390,-0.4373,-0.7750,-16.5600,-22.4400,33.3600,
4.387328,0.2228,0.3795,0.5273,0.9071,-0.3808,-0.9353,-16.5600,-22.4400,33.3600,
4.396506,0.2228,0.3795,0.5273,0.9071,-0.3808,-0.9353,-12.4800,-21.6600,34.9200,
4.408838,0.2228,0.3795,0.5273,1.1105,-0.5145,-0.8810,-12.4800,-21.6600,34.9200,
4.413485,0.2228,0.3795,0.5273,1.1105,-0.5145,-0.8810,-12.4800,-21.6600,34.9200,
4.414479,-0.7418,0.1569,0.1124,1.1105,-0.5145,-0.8810,-12.4800,-21.6600,34.9200,
4.430168,-0.7418,0.1569,0.1124,1.1681,-0.6727,-0.5465,-12.4800,-21.6600,34.9200,
4.450194,-0.7418,0.1569,0.1124,1.2698,-0.7073,-0.3665,-12.4800,-21.6600,34.9200,
4.457857,-0.7418,0.1569,0.1124,1.2698,-0.7073,-0.3665,-9.6000,-20.4600,36.0000,
4.470281,-0.7418,0.1569,0.1124,1.2709,-0.9752,-0.4554,-9.6000,-20.4600,36.0000,
4.475267,-0.7418,0.1569,0.1124,1.2709,-0.9752,-0.4554,-9.6000,-20.4600,36.0000,
4.476791,2.5962,-0.4438,0.6493,1.2709,-0.9752,-0.4554,-9.6000,-20.4600,36.0000,
4.491923,2.5962,-0.4438,0.6493,1.2980,-1.1324,-0.5204,-9.6000,-20.4600,36.0000,
4.511854,2.5962,-0.4438,0.6493,1.4232,-1.1292,-0.5225,-9.6000,-20.4600,36.0000,
4.520552,2.5962,-0.4438,0.6493,1.4232,-1.1292,-0.5225,-7.4400,-19.0800,37.0200,
4.531916,2.5962,-0.4438,0.6493,1.5196,-1.2213,-0.4634,-7.4400,-19.0800,37.0200,
4.536808,2.5962,-0.4438,0.6493,1.5196,-1.2213,-0.4634,-7.4400,-19.0800,37.0200,
4.537949,0.1573,1.1687,0.7540,1.5196,-1.2213,-0.4634,-7.4400,-19.0800,37.0200,
4.552753,0.1573,1.1687,0.7540,1.8967,-1.5899,-0.5113,-7.4400,-19.0800,37.0200,
4.572110,0.1573,1.1687,0.7540,2.4080,-1.9004,-0.8916,-7.4400,-19.0800,37.0200,
4.582039,0.1573,1.1687,0.7540,2.4080,-1.9004,-0.8916,-4.7400,-17.3400,38.1000,
4.593947,0.1573,1.1687,0.7540,2.9140,-2.0858,-1.3300,-4.7400,-17.3400,38.1000,
4.598179,0.1573,1.1687,0.7540,2.9140,-2.0858,-1.3300,-4.7400,-17.3400,38.1000,
4.599157,0.0501,-0.4106,1.1154,2.9140,-2.0858,-1.3300,-4.7400,-17.3400,38.1000,
4.614316,0.0501,-0.4106,1.1154,3.1724,-2.2962,-1.8109,-4.7400,-17.3400,38.1000,
4.634516,0.0501,-0.4106,1.1154,2.3862,-2.2115,-2.5556,-4.7400,-17.3400,38.1000,
4.644406,0.0501,-0.4106,1.1154,2.3862,-2.2115,-2.5556,-1.4400,-13.8600,39.5400,
4.655277,0.0501,-0.4106,1.1154,0.9816,-1.6602,-2.8496,-1.4400,-13.8600,39.5400,
4.659371,0.0501,-0.4106,1.1154,0.9816,-1.6602,-2.8496,-1.4400,-13.8600,39.5400,
4.660914,-0.4386,0.0404,-5.9708,0.9816,-1.6602,-2.8496,-1.4400,-13.8600,39.5400,
4.675394,-0.4386,0.0404,-5.9708,-0.1758,-1.3886,-2.8512,-1.4400,-13.8600,39.5400,
4.695206,-0.4386,0.0404,-5.9708,-0.3174,-1.0695,-2.4405,-1.4400,-13.8600,39.5400,
4.704080,-0.4386,0.0404,-5.9708,-0.3174,-1.0695,-2.4405,3.1200,-8.5800,39.7800,
4.715907,-0.4386,0.0404,-5.9708,-0.4218,-0.7803,-2.1145,3.1200,-8.5800,39.7800,
4.720056,-0.4386,0.0404,-5.9708,-0.4218,-0.7803,-2.1145,3.1200,-8.5800,39.7800,
4.720735,-3.2763,0.8313,-0.8974,-0.4218,-0.7803,-2.1145,3.1200,-8.5800,39.7800,
4.736623,-3.2763,0.8313,-0.8974,-0.5092,-0.4980,-2.0608,3.1200,-8.5800,39.7800,
4.757077,-3.2763,0.8313,-0.8974,-0.4101,-0.2344,-2.1050,3.1200,-8.5800,39.7800,
4.765608,-3.2763,0.8313,-0.8974,-0.4101,-0.2344,-2.1050,7.6200,-3.1800,39.1800,
4.777477,-3.2763,0.8313,-0.8974,-0.3430,-0.0479,-1.9681,7.6200,-3.1800,39.1800,
4.781815,-3.2763,0.8313,-0.8974,-0.3430,-0.0479,-1.9681,7.6200,-3.1800,39.1800,
4.782522,-2.3779,-2.4777,-1.6167,-0.3430,-0.0479,-1.9681,7.6200,-3.1800,39.1800,
4.798222,-2.3779,-2.4777,-1.6167,-0.4730,0.0746,-1.6677,7.6200,-3.1800,39.1800,
4.818788,-2.3779,-2.4777,-1.6167,-0.9087,-0.1278,-1.4541,7.6200,-3.1800,39.1800,
4.827251,-2.3779,-2.4777,-1.6167,-0.9087,-0.1278,-1.4541,10.9200,1.5000,37.9800,
4.839971,-2.3779,-2.4777,-1.6167,-0.9641,-0.2642,-1.4200,10.9200,1.5000,37.9800,
4.843569,-2.3779,-2.4777,-1.6167,-0.9641,-0.2642,-1.4200,10.9200,1.5000,37.9800,
4.844910,-1.7393,-0.5854,0.3388,-0.9641,-0.2642,-1.4200,10.9200,1.5000,37.9800,
4.860306,-1.7393,-0.5854,0.3388,-0.5380,-0.2764,-1.4488,10.9200,1.5000,37.9800,
4.881698,-1.7393,-0.5854,0.3388,-0.2189,0.1092,-1.4354,10.9200,1.5000,37.9800,
4.889448,-1.7393,-0.5854,0.3388,-0.2189,0.1092,-1.4354,13.2000,4.7400,37.0200,
4.901621,-1.7393,-0.5854,0.3388,-0.2120,0.2860,-1.2874,13.2000,4.7400,37.0200,
4.906401,-1.7393,-0.5854,0.3388,-0.2120,0.2860,-1.2874,13.2000,4.7400,37.0200,
4.907479,-3.2794,-2.0114,-0.8180,-0.2120,0.2860,-1.2874,13.2000,4.7400,37.0200,
4.921879,-3.2794,-2.0114,-0.8180,-0.0304,0.1337,-0.9827,13.2000,4.7400,37.0200,
4.942921,-3.2794,-2.0114,-0.8180,0.2200,-0.0229,-0.6253,13.2000,4.7400,37.0200,
4.951925,-3.2794,-2.0114,-0.8180,0.2200,-0.0229,-0.6253,13.9200,5.1000,37.0800,
4.962911,-3.2794,-2.0114,-0.8180,0.1992,0.0048,-0.5380,13.9200,5.1000,37.0800,
4.967082,-3.2794,-2.0114,-0.8180,0.1992,0.0048,-0.5380,13.9200,5.1000,37.0800,
4.967992,-0.0649,-3.0598,-1.7288,0.1992,0.0048,-0.5380,13.9200,5.1000,37.0800,
4.983605,-0.0649,-3.0598,-1.7288,-0.0682,0.0692,-0.7681,13.9200,5.1000,37.0800,
5.004458,-0.0649,-3.0598,-1.7288,-0.1001,-0.0431,-1.2703,13.9200,5.1000,37.0800,
5.013032,-0.0649,-3.0598,-1.7288,-0.1001,-0.0431,-1.2703,13.4400,5.5200,36.9600,
5.025853,-0.0649,-3.0598,-1.7288,-0.1625,-0.2727,-1.9473,13.4400,5.5200,36.9600,
5.029499,-0.0649,-3.0598,-1.7288,-0.1625,-0.2727,-1.9473,13.4400,5.5200,36.9600,
5.030456,0.5680,-2.3542,-1.0053,-0.1625,-0.2727,-1.9473,13.4400,5.5200,36.9600,
5.045469,0.5680,-2.3542,-1.0053,-0.5385,-0.4208,-2.8022,13.4400,5.5200,36.9600,
5.066338,0.5680,-2.3542,-1.0053,-0.9971,0.3121,-3.2672,13.4400,5.5200,36.9600,
5.077161,0.5680,-2.3542,-1.0053,-0.9971,0.3121,-3.2672,13.1400,6.1800,36.6000,
5.086509,0.5680,-2.3542,-1.0053,-1.1089,0.4053,-3.5729,13.1400,6.1800,36.6000,
5.090035,0.5680,-2.3542,-1.0053,-1.1089,0.4053,-3.5729,13.1400,6.1800,36.6000,
5.090972,1.5722,-3.6157,-1.7807,-1.1089,0.4053,-3.5729,13.1400,6.1800,36.6000,
5.107070,1.5722,-3.6157,-1.7807,-1.0168,0.1742,-3.7577,13.1400,6.1800,36.6000,
5.127034,1.5722,-3.6157,-1.7807,-0.6807,0.1364,-3.9756,13.1400,6.1800,36.6000,
5.136194,1.5722,-3.6157,-1.7807,-0.6807,0.1364,-3.9756,13.2600,6.6000,37.4400,
5.148772,1.5722,-3.6157,-1.7807,-0.5172,0.2754,-4.0272,13.2600,6.6000,37.4400,
5.151896,1.5722,-3.6157,-1.7807,-0.5172,0.2754,-4.0272,13.2600,6.6000,37.4400,
5.152844,0.0364,0.2239,-0.1994,-0.5172,0.2754,-4.0272,13.2600,6.6000,37.4400,
5.168255,0.0364,0.2239,-0.1994,-0.3340,-0.5342,-3.6501,13.2600,6.6000,37.4400,
5.187430,0.0364,0.2239,-0.1994,-0.2003,-0.7723,-2.9018,13.2600,6.6000,37.4400,
5.196614,0.0364,0.2239,-0.1994,-0.2003,-0.7723,-2.9018,12.1800,8.2200,37.8600,
5.209475,0.0364,0.2239,-0.1994,-0.0218,-0.5779,-2.8064,12.1800,8.2200,37.8600,
5.212936,0.0364,0.2239,-0.1994,-0.0218,-0.5779,-2.8064,12.1800,8.2200,37.8600,
5.213938,1.1712,-4.1296,0.8881,-0.0218,-0.5779,-2.8064,12.1800,8.2200,37.8600,
5.229883,1.1712,-4.1296,0.8881,0.0165,0.2061,-3.1436,12.1800,8.2200,37.8600,
5.249993,1.1712,-4.1296,0.8881,0.1678,0.1976,-3.4440,12.1800,8.2200,37.8600,
5.258757,1.1712,-4.1296,0.8881,0.1678,0.1976,-3.4440,10.6200,8.7600,38.4000,
5.270387,1.1712,-4.1296,0.8881,0.0655,0.0346,-3.5175,10.6200,8.7600,38.4000,
5.279433,1.1712,-4.1296,0.8881,0.0655,0.0346,-3.5175,10.6200,8.7600,38.4000,
5.280840,-0.7982,-3.1951,-1.3367,0.0655,0.0346,-3.5175,10.6200,8.7600,38.4000,
5.291516,-0.7982,-3.1951,-1.3367,-0.1550,0.0075,-3.0397,10.6200,8.7600,38.4000,
5.312322,-0.7982,-3.1951,-1.3367,-0.2493,-0.2961,-2.0730,10.6200,8.7600,38.4000,
5.320283,-0.7982,-3.1951,-1.3367,-0.2493,-0.2961,-2.0730,8.7600,10.4400,39.0600,
5.332291,-0.7982,-3.1951,-1.3367,0.1252,-0.0373,-1.1643,8.7600,10.4400,39.0600,
5.336608,-0.7982,-3.1951,-1.3367,0.1252,-0.0373,-1.1643,8.7600,10.4400,39.0600,
5.337562,4.3993,-4.7451,1.0696,0.1252,-0.0373,-1.1643,8.7600,10.4400,39.0600,
5.352617,4.3993,-4.7451,1.0696,0.6919,-0.3201,-1.4280,8.7600,10.4400,39.0600,
5.372733,4.3993,-4.7451,1.0696,1.0967,0.2115,-1.4157,8.7600,10.4400,39.0600,
5.381961,4.3993,-4.7451,1.0696,1.0967,0.2115,-1.4157,6.4800,12.7200,38.5800,
5.393406,4.3993,-4.7451,1.0696,0.8378,0.2461,-1.2400,6.4800,12.7200,38.5800,
5.397632,4.3993,-4.7451,1.0696,0.8378,0.2461,-1.2400,6.4800,12.7200,38.5800,
5.398448,-0.1656,-5.9531,-3.1831,0.8378,0.2461,-1.2400,6.4800,12.7200,38.5800,
5.414999,-0.1656,-5.9531,-3.1831,0.2503,-0.2125,-0.8836,6.4800,12.7200,38.5800,
5.434784,-0.1656,-5.9531,-3.1831,-0.1241,-0.6812,-0.4543,6.4800,12.7200,38.5800,
5.444366,-0.1656,-5.9531,-3.1831,-0.1241,-0.6812,-0.4543,4.6800,14.3400,38.3400,
5.455736,-0.1656,-5.9531,-3.1831,0.3190,-1.1025,-0.3004,4.6800,14.3400,38.3400,
5.459447,-0.1656,-5.9531,-3.1831,0.3190,-1.1025,-0.3004,4.6800,14.3400,38.3400,
5.460760,5.6130,-4.7297,-0.3040,0.3190,-1.1025,-0.3004,4.6800,14.3400,38.3400,
5.475805,5.6130,-4.7297,-0.3040,0.8549,-0.6205,-0.4879,4.6800,14.3400,38.3400,
5.496121,5.6130,-4.7297,-0.3040,0.8224,-0.5438,-0.7931,4.6800,14.3400,38.3400,
5.505701,5.6130,-4.7297,-0.3040,0.8224,-0.5438,-0.7931,3.7800,16.6200,38.6400,
5.516945,5.6130,-4.7297,-0.3040,0.0916,-0.7867,-1.0727,3.7800,16.6200,38.6400,
5.520943,5.6130,-4.7297,-0.3040,0.0916,-0.7867,-1.0727,3.7800,16.6200,38.6400,
5.521973,1.8520,-3.7936,-2.7783,0.0916,-0.7867,-1.0727,3.7800,16.6200,38.6400,
5.537816,1.8520,-3.7936,-2.7783,-0.4581,-1.0466,-1.3007,3.7800,16.6200,38.6400,
5.559055,1.8520,-3.7936,-2.7783,-0.4517,-0.8080,-1.4839,3.7800,16.6200,38.6400,
5.566922,1.8520,-3.7936,-2.7783,-0.4517,-0.8080,-1.4839,3.1200,18.2400,38.2200,
5.578954,1.8520,-3.7936,-2.7783,-0.4485,-0.4373,-1.4243,3.1200,18.2400,38.2200,
5.582569,1.8520,-3.7936,-2.7783,-0.4485,-0.4373,-1.4243,3.1200,18.2400,38.2200,
5.583482,-2.4175,-4.1320,-0.0585,-0.4485,-0.4373,-1.4243,3.1200,18.2400,38.2200,
5.599428,-2.4175,-4.1320,-0.0585,-0.5598,0.0410,-0.9694,3.1200,18.2400,38.2200,
5.619815,-2.4175,-4.1320,-0.0585,-0.3654,0.2024,-0.5332,3.1200,18.2400,38.2200,
5.628722,-2.4175,-4.1320,-0.0585,-0.3654,0.2024,-0.5332,2.7000,18.9000,38.2200,
5.639948,-2.4175,-4.1320,-0.0585,0.1188,0.4325,-0.4362,2.7000,18.9000,38.2200,
5.644714,-2.4175,-4.1320,-0.0585,0.1188,0.4325,-0.4362,2.7000,18.9000,38.2200,
5.646309,0.4996,-2.2736,1.4632,0.1188,0.4325,-0.4362,2.7000,18.9000,38.2200,
5.661288,0.4996,-2.2736,1.4632,0.4762,0.4794,-0.7776,2.7000,18.9000,38.2200,
5.681799,0.4996,-2.2736,1.4632,0.1241,0.4634,-1.1771,2.7000,18.9000,38.2200,
5.690423,0.4996,-2.2736,1.4632,0.1241,0.4634,-1.1771,2.2800,19.5600,37.7400,
5.701520,0.4996,-2.2736,1.4632,-0.4171,0.5396,-1.3460,2.2800,19.5600,37.7400,
5.705909,0.4996,-2.2736,1.4632,-0.4171,0.5396,-1.3460,2.2800,19.5600,37.7400,
5.706823,-0.9989,0.5085,-2.0573,-0.4171,0.5396,-1.3460,2.2800,19.5600,37.7400,
5.723190,-0.9989,0.5085,-2.0573,-0.4943,0.4799,-1.0780,2.2800,19.5600,37.7400,
5.742960,-0.9989,0.5085,-2.0573,-0.0117,0.5944,-0.6727,2.2800,19.5600,37.7400,
5.751245,-0.9989,0.5085,-2.0573,-0.0117,0.5944,-0.6727,1.8000,20.5800,37.2000,
5.763726,-0.9989,0.5085,-2.0573,0.3398,0.6402,-0.5241,1.8000,20.5800,37.2000,
5.767389,-0.9989,0.5085,-2.0573,0.3398,0.6402,-0.5241,1.8000,20.5800,37.2000,
5.768289,0.8086,0.3523,-1.0032,0.3398,0.6402,-0.5241,1.8000,20.5800,37.2000,
5.784305,0.8086,0.3523,-1.0032,0.1609,0.6141,-0.7776,1.8000,20.5800,37.2000,
5.804809,0.8086,0.3523,-1.0032,-0.1566,0.8703,-1.3683,1.8000,20.5800,37.2000,
5.813523,0.8086,0.3523,-1.0032,-0.1566,0.8703,-1.3683,0.3000,20.2800,37.3200,
5.825971,0.8086,0.3523,-1.0032,-0.3174,0.8085,-1.4344,0.3000,20.2800,37.3200,
5.828895,0.8086,0.3523,-1.0032,-0.3174,0.8085,-1.4344,0.3000,20.2800,37.3200,
5.829963,-0.1328,-1.5794,0.0786,-0.3174,0.8085,-1.4344,0.3000,20.2800,37.3200,
5.846189,-0.1328,-1.5794,0.0786,-0.3143,0.8208,-1.0615,0.3000,20.2800,37.3200,
5.866764,-0.1328,-1.5794,0.0786,-0.1651,0.9886,-0.5912,0.3000,20.2800,37.3200,
5.876754,-0.1328,-1.5794,0.0786,-0.1651,0.9886,-0.5912,-2.0400,20.2200,37.0200,
5.887445,-0.1328,-1.5794,0.0786,0.0458,0.9204,-0.7015,-2.0400,20.2200,37.0200,
5.894843,-0.1328,-1.5794,0.0786,0.0458,0.9204,-0.7015,-2.0400,20.2200,37.0200,
5.896326,4.7474,-1.4279,0.9629,0.0458,0.9204,-0.7015,-2.0400,20.2200,37.0200,
5.908235,4.7474,-1.4279,0.9629,-0.2376,0.6306,-1.1840,-2.0400,20.2200,37.0200,
5.928038,4.7474,-1.4279,0.9629,-0.5614,0.6280,-1.2991,-2.0400,20.2200,37.0200,
5.936515,4.7474,-1.4279,0.9629,-0.5614,0.6280,-1.2991,-4.1400,20.1600,37.5000,
5.948691,4.7474,-1.4279,0.9629,-0.2423,0.8480,-1.1334,-4.1400,20.1600,37.5000,
5.952649,4.7474,-1.4279,0.9629,-0.2423,0.8480,-1.1334,-4.1400,20.1600,37.5000,
5.953622,0.7494,-0.7864,2.1255,-0.2423,0.8480,-1.1334,-4.1400,20.1600,37.5000,
5.969155,0.7494,-0.7864,2.1255,-0.0623,0.9241,-0.7670,-4.1400,20.1600,37.5000,
5.990718,0.7494,-0.7864,2.1255,0.0080,0.8432,-0.4186,-4.1400,20.1600,37.5000,
5.999107,0.7494,-0.7864,2.1255,0.0080,0.8432,-0.4186,-7.3800,18.8400,37.2600,
6.009166,0.7494,-0.7864,2.1255,-0.0442,0.5971,-0.2434,-7.3800,18.8400,37.2600,
6.014919,0.7494,-0.7864,2.1255,-0.0442,0.5971,-0.2434,-7.3800,18.8400,37.2600,
6.015899,3.3714,-0.2279,-1.2570,-0.0442,0.5971,-0.2434,-7.3800,18.8400,37.2600,
6.031045,3.3714,-0.2279,-1.2570,-0.2434,0.5033,-0.4740,-7.3800,18.8400,37.2600,
6.050797,3.3714,-0.2279,-1.2570,-0.2184,0.5965,-0.6482,-7.3800,18.8400,37.2600,
6.058975,3.3714,-0.2279,-1.2570,-0.2184,0.5965,-0.6482,-11.0400,18.0000,36.9600,
6.071335,3.3714,-0.2279,-1.2570,0.1353,0.8410,-0.3148,-11.0400,18.0000,36.9600,
6.075545,3.3714,-0.2279,-1.2570,0.1353,0.8410,-0.3148,-11.0400,18.0000,36.9600,
6.077087,1.3047,0.2801,1.0096,0.1353,0.8410,-0.3148,-11.0400,18.0000,36.9600,
6.092952,1.3047,0.2801,1.0096,0.5587,0.8970,0.0937,-11.0400,18.0000,36.9600,
6.112732,1.3047,0.2801,1.0096,0.7089,0.5507,0.4240,-11.0400,18.0000,36.9600,
6.121176,1.3047,0.2801,1.0096,0.7089,0.5507,0.4240,-13.9800,16.6800,37.2000,
6.131786,1.3047,0.2801,1.0096,0.1901,0.2200,0.2141,-13.9800,16.6800,37.2000,
6.136056,1.3047,0.2801,1.0096,0.1901,0.2200,0.2141,-13.9800,16.6800,37.2000,
6.136327,4.3177,-0.1891,-3.2992,0.1901,0.2200,0.2141,-13.9800,16.6800,37.2000,
6.153482,4.3177,-0.1891,-3.2992,-0.2653,0.3696,-0.1875,-13.9800,16.6800,37.2000,
6.174884,4.3177,-0.1891,-3.2992,-0.1449,0.6296,-0.2354,-13.9800,16.6800,37.2000,
6.182325,4.3177,-0.1891,-3.2992,-0.1449,0.6296,-0.2354,-16.8600,16.0200,36.6000,
6.194739,4.3177,-0.1891,-3.2992,0.2802,0.6780,-0.0032,-16.8600,16.0200,36.6000,
6.198247,4.3177,-0.1891,-3.2992,0.2802,0.6780,-0.0032,-16.8600,16.0200,36.6000,
6.199161,2.5317,0.8971,0.2816,0.2802,0.6780,-0.0032,-16.8600,16.0200,36.6000,
6.214570,2.5317,0.8971,0.2816,0.6834,0.5113,0.2876,-16.8600,16.0200,36.6000,
6.235238,2.5317,0.8971,0.2816,0.6930,0.2301,0.2722,-16.8600,16.0200,36.6000,
6.244384,2.5317,0.8971,0.2816,0.6930,0.2301,0.2722,-18.5400,15.9000,36.3600,
6.257244,2.5317,0.8971,0.2816,0.1417,0.0021,-0.0197,-18.5400,15.9000,36.3600,
6.260453,2.5317,0.8971,0.2816,0.1417,0.0021,-0.0197,-18.5400,15.9000,36.3600,
6.262259,2.3311,0.5337,-3.4531,0.1417,0.0021,-0.0197,-18.5400,15.9000,36.3600,
6.276513,2.3311,0.5337,-3.4531,-0.4682,0.0288,-0.2173,-18.5400,15.9000,36.3600,
6.297455,2.3311,0.5337,-3.4531,-0.3979,0.0011,-0.2317,-18.5400,15.9000,36.3600,
6.306884,2.3311,0.5337,-3.4531,-0.3979,0.0011,-0.2317,-19.2000,16.3800,35.5800,
6.316940,2.3311,0.5337,-3.4531,-0.1438,-0.0575,-0.2695,-19.2000,16.3800,35.5800,
6.321931,2.3311,0.5337,-3.4531,-0.1438,-0.0575,-0.2695,-19.2000,16.3800,35.5800,
6.322937,2.3944,0.2738,0.4083,-0.1438,-0.0575,-0.2695,-19.2000,16.3800,35.5800,
6.338829,2.3944,0.2738,0.4083,-0.0282,-0.0613,-0.2514,-19.2000,16.3800,35.5800,
6.359505,2.3944,0.2738,0.4083,0.0538,-0.0778,-0.1081,-19.2000,16.3800,35.5800,
6.367498,2.3944,0.2738,0.4083,0.0538,-0.0778,-0.1081,-20.1000,16.9800,34.6200,
6.378769,2.3944,0.2738,0.4083,0.2402,-0.0421,0.0905,-20.1000,16.9800,34.6200,
6.383008,2.3944,0.2738,0.4083,0.2402,-0.0421,0.0905,-20.1000,16.9800,34.6200,
6.383932,0.3179,-1.3927,-0.7764,0.2402,-0.0421,0.0905,-20.1000,16.9800,34.6200,
6.400029,0.3179,-1.3927,-0.7764,0.1949,0.0815,0.3680,-20.1000,16.9800,34.6200,
6.419399,0.3179,-1.3927,-0.7764,-0.0714,0.0511,0.5097,-20.1000,16.9800,34.6200,
6.428543,0.3179,-1.3927,-0.7764,-0.0714,0.0511,0.5097,-20.4000,16.9800,34.6800,
6.440485,0.3179,-1.3927,-0.7764,-0.1901,0.0352,0.3856,-20.4000,16.9800,34.6800,
6.444542,0.3179,-1.3927,-0.7764,-0.1901,0.0352,0.3856,-20.4000,16.9800,34.6800,
6.445376,3.1475,-2.3003,-1.8016,-0.1901,0.0352,0.3856,-20.4000,16.9800,34.6800,
6.460465,3.1475,-2.3003,-1.8016,-0.2684,0.0133,0.1465,-20.4000,16.9800,34.6800,
6.485852,3.1475,-2.3003,-1.8016,-0.4751,-0.1534,0.1513,-20.4000,16.9800,34.6800,
6.492614,3.1475,-2.3003,-1.8016,-0.4751,-0.1534,0.1513,-20.5200,17.1600,34.4400,
6.502399,3.1475,-2.3003,-1.8016,-0.5236,-0.3356,0.2738,-20.5200,17.1600,34.4400,
6.507854,3.1475,-2.3003,-1.8016,-0.5236,-0.3356,0.2738,-20.5200,17.1600,34.4400,
6.509258,1.7107,-1.1421,-1.1997,-0.5236,-0.3356,0.2738,-20.5200,17.1600,34.4400,
6.522611,1.7107,-1.1421,-1.1997,-0.3973,-0.3228,0.4043,-20.5200,17.1600,34.4400,
6.542613,1.7107,-1.1421,-1.1997,-0.3249,-0.1784,0.3963,-20.5200,17.1600,34.4400,
6.551808,1.7107,-1.1421,-1.1997,-0.3249,-0.1784,0.3963,-20.4000,16.9800,34.9200,
6.563140,1.7107,-1.1421,-1.1997,-0.3499,0.0362,0.2173,-20.4000,16.9800,34.9200,
6.567086,1.7107,-1.1421,-1.1997,-0.3499,0.0362,0.2173,-20.4000,16.9800,34.9200,
6.567637,1.7638,-0.5907,-0.4791,-0.3499,0.0362,0.2173,-20.4000,16.9800,34.9200,
6.583482,1.7638,-0.5907,-0.4791,-0.3531,0.0016,0.0762,-20.4000,16.9800,34.9200,
6.603956,1.7638,-0.5907,-0.4791,-0.3404,-0.0085,0.0298,-20.4000,16.9800,34.9200,
6.612588,1.7638,-0.5907,-0.4791,-0.3404,-0.0085,0.0298,-19.6200,17.0400,35.2800,
6.624344,1.7638,-0.5907,-0.4791,-0.2807,-0.0293,0.1907,-19.6200,17.0400,35.2800,
6.628760,1.7638,-0.5907,-0.4791,-0.2807,-0.0293,0.1907,-19.6200,17.0400,35.2800,
6.629067,0.7413,1.3604,0.0595,-0.2807,-0.0293,0.1907,-19.6200,17.0400,35.2800,
6.644993,0.7413,1.3604,0.0595,-0.1656,-0.2913,0.4655,-19.6200,17.0400,35.2800,
6.665577,0.7413,1.3604,0.0595,-0.0192,-0.7649,0.6035,-19.6200,17.0400,35.2800,
6.674251,0.7413,1.3604,0.0595,-0.0192,-0.7649,0.6035,-19.1400,16.9200,34.8000,
6.685999,0.7413,1.3604,0.0595,-0.0165,-1.0775,0.4479,-19.1400,16.9200,34.8000,
6.690448,0.7413,1.3604,0.0595,-0.0165,-1.0775,0.4479,-19.1400,16.9200,34.8000,
6.690917,3.1499,0.5681,-0.1348,-0.0165,-1.0775,0.4479,-19.1400,16.9200,34.8000,
6.707253,3.1499,0.5681,-0.1348,-0.1992,-1.0647,0.3803,-19.1400,16.9200,34.8000,
6.727954,3.1499,0.5681,-0.1348,-0.2482,-1.0653,0.4469,-19.1400,16.9200,34.8000,
6.736030,3.1499,0.5681,-0.1348,-0.2482,-1.0653,0.4469,-18.6600,16.2000,34.8600,
6.747443,3.1499,0.5681,-0.1348,-0.0847,-1.2277,0.6589,-18.6600,16.2000,34.8600,
6.751796,3.1499,0.5681,-0.1348,-0.0847,-1.2277,0.6589,-18.6600,16.2000,34.8600,
6.752057,1.3721,0.5961,2.1267,-0.0847,-1.2277,0.6589,-18.6600,16.2000,34.8600,
6.768151,1.3721,0.5961,2.1267,0.0575,-1.5825,0.8687,-18.6600,16.2000,34.8600,
6.788766,1.3721,0.5961,2.1267,0.1364,-1.9745,0.9912,-18.6600,16.2000,34.8600,
6.797557,1.3721,0.5961,2.1267,0.1364,-1.9745,0.9912,-17.0400,15.7200,34.8600,
6.809432,1.3721,0.5961,2.1267,0.1917,-2.0837,1.1345,-17.0400,15.7200,34.8600,
6.813531,1.3721,0.5961,2.1267,0.1917,-2.0837,1.1345,-17.0400,15.7200,34.8600,
6.813932,0.9234,-1.3625,1.4608,0.1917,-2.0837,1.1345,-17.0400,15.7200,34.8600,
6.829932,0.9234,-1.3625,1.4608,0.1987,-1.9931,1.3822,-17.0400,15.7200,34.8600,
6.850345,0.9234,-1.3625,1.4608,0.1198,-1.7295,1.6277,-17.0400,15.7200,34.8600,
6.861018,0.9234,-1.3625,1.4608,0.1198,-1.7295,1.6277,-14.6400,15.4200,35.3400,
6.870997,0.9234,-1.3625,1.4608,-0.0490,-1.6453,1.5313,-14.6400,15.4200,35.3400,
6.875311,0.9234,-1.3625,1.4608,-0.0490,-1.6453,1.5313,-14.6400,15.4200,35.3400,
6.876255,0.8868,-1.2274,0.2890,-0.0490,-1.6453,1.5313,-14.6400,15.4200,35.3400,
6.891325,0.8868,-1.2274,0.2890,-0.1848,-1.9116,1.2719,-14.6400,15.4200,35.3400,
6.911883,0.8868,-1.2274,0.2890,-0.1390,-2.0576,1.3705,-14.6400,15.4200,35.3400,
6.920720,0.8868,-1.2274,0.2890,-0.1390,-2.0576,1.3705,-10.4400,15.3000,36.1800,
6.932555,0.8868,-1.2274,0.2890,-0.0064,-1.8472,1.6954,-10.4400,15.3000,36.1800,
6.936668,0.8868,-1.2274,0.2890,-0.0064,-1.8472,1.6954,-10.4400,15.3000,36.1800,
6.937233,-1.8821,-1.7373,0.5157,-0.0064,-1.8472,1.6954,-10.4400,15.3000,36.1800,
6.953158,-1.8821,-1.7373,0.5157,-0.0549,-1.6570,1.9782,-10.4400,15.3000,36.1800,
6.973452,-1.8821,-1.7373,0.5157,-0.1901,-1.9665,2.1465,-10.4400,15.3000,36.1800,
6.982674,-1.8821,-1.7373,0.5157,-0.1901,-1.9665,2.1465,-4.7400,15.1200,36.4200,
6.993901,-1.8821,-1.7373,0.5157,-0.2439,-2.4911,2.4400,-4.7400,15.1200,36.4200,
6.998431,-1.8821,-1.7373,0.5157,-0.2439,-2.4911,2.4400,-4.7400,15.1200,36.4200,
6.999114,-1.7447,-2.6280,-0.0538,-0.2439,-2.4911,2.4400,-4.7400,15.1200,36.4200,
7.014433,-1.7447,-2.6280,-0.0538,-0.1912,-2.4970,2.8981,-4.7400,15.1200,36.4200,
7.034984,-1.7447,-2.6280,-0.0538,-0.2599,-1.7875,3.0232,-4.7400,15.1200,36.4200,
7.043694,-1.7447,-2.6280,-0.0538,-0.2599,-1.7875,3.0232,1.2000,14.5200,36.1800,
7.057846,-1.7447,-2.6280,-0.0538,-0.4469,-1.4125,2.6712,1.2000,14.5200,36.1800,
7.059797,-1.7447,-2.6280,-0.0538,-0.4469,-1.4125,2.6712,1.2000,14.5200,36.1800,
7.060109,0.0530,-1.5523,-0.4912,-0.4469,-1.4125,2.6712,1.2000,14.5200,36.1800,
7.075977,0.0530,-1.5523,-0.4912,-0.6621,-1.5260,2.2184,1.2000,14.5200,36.1800,
7.096602,0.0530,-1.5523,-0.4912,-0.7968,-1.8296,2.0272,1.2000,14.5200,36.1800,
7.107851,0.0530,-1.5523,-0.4912,-0.7968,-1.8296,2.0272,7.8600,13.0800,34.8600,
7.117112,0.0530,-1.5523,-0.4912,-0.7297,-1.8839,2.2807,7.8600,13.0800,34.8600,
7.121898,0.0530,-1.5523,-0.4912,-0.7297,-1.8839,2.2807,7.8600,13.0800,34.8600,
7.122505,-2.2790,-0.2537,-0.1934,-0.7297,-1.8839,2.2807,7.8600,13.0800,34.8600,
7.137624,-2.2790,-0.2537,-0.1934,-0.5859,-1.7193,2.6600,7.8600,13.0800,34.8600,
7.158505,-2.2790,-0.2537,-0.1934,-0.4186,-1.5856,2.4368,7.8600,13.0800,34.8600,
7.168043,-2.2790,-0.2537,-0.1934,-0.4186,-1.5856,2.4368,13.6800,10.4400,32.5800,
7.178828,-2.2790,-0.2537,-0.1934,-0.2615,-1.6203,2.0293,13.6800,10.4400,32.5800,
7.183320,-2.2790,-0.2537,-0.1934,-0.2615,-1.6203,2.0293,13.6800,10.4400,32.5800,
7.183710,0.6382,0.8432,0.6743,-0.2615,-1.6203,2.0293,13.6800,10.4400,32.5800,
7.199348,0.6382,0.8432,0.6743,-0.3041,-2.0900,2.3862,13.6800,10.4400,32.5800,
7.219885,0.6382,0.8432,0.6743,-0.6892,-3.0530,2.9577,13.6800,10.4400,32.5800,
7.228638,0.6382,0.8432,0.6743,-0.6892,-3.0530,2.9577,18.9000,6.1800,30.3000,
7.240230,0.6382,0.8432,0.6743,-0.1822,-4.1982,3.0728,18.9000,6.1800,30.3000,
7.244593,0.6382,0.8432,0.6743,-0.1822,-4.1982,3.0728,18.9000,6.1800,30.3000,
7.244817,5.0503,1.3835,2.5854,-0.1822,-4.1982,3.0728,18.9000,6.1800,30.3000,
7.261283,5.0503,1.3835,2.5854,0.7819,-4.2659,2.3798,18.9000,6.1800,30.3000,
7.282453,5.0503,1.3835,2.5854,1.4828,-4.3287,1.8530,18.9000,6.1800,30.3000,
7.292974,5.0503,1.3835,2.5854,1.4828,-4.3287,1.8530,23.5800,1.4400,27.4200,
7.302623,5.0503,1.3835,2.5854,2.0773,-4.2989,1.1366,23.5800,1.4400,27.4200,
7.307387,5.0503,1.3835,2.5854,2.0773,-4.2989,1.1366,23.5800,1.4400,27.4200,
7.308237,-1.8525,-1.8436,-0.2477,2.0773,-4.2989,1.1366,23.5800,1.4400,27.4200,
7.323909,-1.8525,-1.8436,-0.2477,2.2845,-3.9713,0.4277,23.5800,1.4400,27.4200,
7.343371,-1.8525,-1.8436,-0.2477,2.3324,-3.0035,0.1262,23.5800,1.4400,27.4200,
7.353000,-1.8525,-1.8436,-0.2477,2.3324,-3.0035,0.1262,27.4200,-3.6600,22.6200,
7.364060,-1.8525,-1.8436,-0.2477,2.1630,-2.2546,0.0346,27.4200,-3.6600,22.6200,
7.368615,-1.8525,-1.8436,-0.2477,2.1630,-2.2546,0.0346,27.4200,-3.6600,22.6200,
7.369488,-1.6029,-1.8191,-0.3089,2.1630,-2.2546,0.0346,27.4200,-3.6600,22.6200,
7.385069,-1.6029,-1.8191,-0.3089,1.8765,-1.4813,-0.0602,27.4200,-3.6600,22.6200,
7.405838,-1.6029,-1.8191,-0.3089,1.4701,-1.4077,-0.0453,27.4200,-3.6600,22.6200,
7.414997,-1.6029,-1.8191,-0.3089,1.4701,-1.4077,-0.0453,31.2000,-7.3800,16.3800,
7.426606,-1.6029,-1.8191,-0.3089,0.9268,-2.1774,-0.0325,31.2000,-7.3800,16.3800,
7.431121,-1.6029,-1.8191,-0.3089,0.9268,-2.1774,-0.0325,31.2000,-7.3800,16.3800,
7.432095,-2.1907,0.1384,-1.7915,0.9268,-2.1774,-0.0325,31.2000,-7.3800,16.3800,
7.447136,-2.1907,0.1384,-1.7915,0.0634,-2.6972,0.1417,31.2000,-7.3800,16.3800,
7.466884,-2.1907,0.1384,-1.7915,-0.6780,-3.1042,0.2258,31.2000,-7.3800,16.3800,
7.475993,-2.1907,0.1384,-1.7915,-0.6780,-3.1042,0.2258,33.4800,-9.3000,9.9600,
7.488014,-2.1907,0.1384,-1.7915,-1.1792,-3.2826,0.2051,33.4800,-9.3000,9.9600,
7.492368,-2.1907,0.1384,-1.7915,-1.1792,-3.2826,0.2051,33.4800,-9.3000,9.9600,
7.493874,0.2501,-0.4578,-0.3601,-1.1792,-3.2826,0.2051,33.4800,-9.3000,9.9600,
7.508187,0.2501,-0.4578,-0.3601,-1.3545,-3.0589,0.0682,33.4800,-9.3000,9.9600,
7.528248,0.2501,-0.4578,-0.3601,-1.4056,-2.5763,-0.2306,33.4800,-9.3000,9.9600,
7.536241,0.2501,-0.4578,-0.3601,-1.4056,-2.5763,-0.2306,35.2800,-10.1400,2.5200,
7.548567,0.2501,-0.4578,-0.3601,-1.2980,-2.2797,-0.5555,35.2800,-10.1400,2.5200,
7.552534,0.2501,-0.4578,-0.3601,-1.2980,-2.2797,-0.5555,35.2800,-10.1400,2.5200,
7.553165,0.5468,-0.3586,0.5861,-1.2980,-2.2797,-0.5555,35.2800,-10.1400,2.5200,
7.569229,0.5468,-0.3586,0.5861,-0.9806,-1.9404,-0.6487,35.2800,-10.1400,2.5200,
7.590251,0.5468,-0.3586,0.5861,-0.4234,-1.6070,-0.4320,35.2800,-10.1400,2.5200,
7.599504,0.5468,-0.3586,0.5861,-0.4234,-1.6070,-0.4320,35.9400,-9.7200,-4.6200,
7.610615,0.5468,-0.3586,0.5861,0.1166,-1.3449,-0.1875,35.9400,-9.7200,-4.6200,
7.614928,0.5468,-0.3586,0.5861,0.1166,-1.3449,-0.1875,35.9400,-9.7200,-4.6200,
7.615863,-0.5882,0.9298,0.5087,0.1166,-1.3449,-0.1875,35.9400,-9.7200,-4.6200,
7.631518,-0.5882,0.9298,0.5087,0.4469,-0.9119,-0.0692,35.9400,-9.7200,-4.6200,
7.651485,-0.5882,0.9298,0.5087,0.4831,-0.4155,-0.0916,35.9400,-9.7200,-4.6200,
7.660422,-0.5882,0.9298,0.5087,0.4831,-0.4155,-0.0916,35.4600,-8.8800,-10.2000,
7.672655,-0.5882,0.9298,0.5087,0.3356,-0.2514,-0.1539,35.4600,-8.8800,-10.2000,
7.675604,-0.5882,0.9298,0.5087,0.3356,-0.2514,-0.1539,35.4600,-8.8800,-10.2000,
7.676569,0.0013,0.7456,-1.4132,0.3356,-0.2514,-0.1539,35.4600,-8.8800,-10.2000,
7.692569,0.0013,0.7456,-1.4132,0.1055,-0.1443,-0.1465,35.4600,-8.8800,-10.2000,
7.713017,0.0013,0.7456,-1.4132,-0.0043,-0.0437,-0.0879,35.4600,-8.8800,-10.2000,
7.722356,0.0013,0.7456,-1.4132,-0.0043,-0.0437,-0.0879,34.9200,-8.4000,-15.5400,
7.733522,0.0013,0.7456,-1.4132,0.0746,0.0815,-0.0394,34.9200,-8.4000,-15.5400,
7.737726,0.0013,0.7456,-1.4132,0.0746,0.0815,-0.0394,34.9200,-8.4000,-15.5400,
7.738611,-0.1957,0.9427,-0.0199,0.0746,0.0815,-0.0394,34.9200,-8.4000,-15.5400,
7.754075,-0.1957,0.9427,-0.0199,0.2013,0.1688,-0.0005,34.9200,-8.4000,-15.5400,
7.775051,-0.1957,0.9427,-0.0199,0.3084,0.2823,0.0117,34.9200,-8.4000,-15.5400,
7.784023,-0.1957,0.9427,-0.0199,0.3084,0.2823,0.0117,33.6600,-7.8000,-18.7800,
7.795881,-0.1957,0.9427,-0.0199,0.3553,0.4314,-0.0309,33.6600,-7.8000,-18.7800,
7.800273,-0.1957,0.9427,-0.0199,0.3553,0.4314,-0.0309,33.6600,-7.8000,-18.7800,
7.801169,0.4381,0.5823,-0.2251,0.3553,0.4314,-0.0309,33.6600,-7.8000,-18.7800,
7.816324,0.4381,0.5823,-0.2251,0.3153,0.4469,-0.0921,33.6600,-7.8000,-18.7800,
7.836269,0.4381,0.5823,-0.2251,0.2535,0.4000,-0.0826,33.6600,-7.8000,-18.7800,
7.844884,0.4381,0.5823,-0.2251,0.2535,0.4000,-0.0826,33.0000,-7.4400,-19.6200,
7.858694,0.4381,0.5823,-0.2251,0.1641,0.3766,-0.0655,33.0000,-7.4400,-19.6200,
7.861803,0.4381,0.5823,-0.2251,0.1641,0.3766,-0.0655,33.0000,-7.4400,-19.6200,
7.862753,-0.0873,0.1057,-0.1258,0.1641,0.3766,-0.0655,33.0000,-7.4400,-19.6200,
7.877866,-0.0873,0.1057,-0.1258,0.1257,0.3920,-0.0921,33.0000,-7.4400,-19.6200,
7.898806,-0.0873,0.1057,-0.1258,0.1886,0.4533,-0.1225,33.0000,-7.4400,-19.6200,
7.909454,-0.0873,0.1057,-0.1258,0.1886,0.4533,-0.1225,32.4600,-7.5000,-19.9200,
7.918883,-0.0873,0.1057,-0.1258,0.2924,0.4831,-0.1321,32.4600,-7.5000,-19.9200,
7.923682,-0.0873,0.1057,-0.1258,0.2924,0.4831,-0.1321,32.4600,-7.5000,-19.9200,
7.924712,0.1387,-0.1842,0.5979,0.2924,0.4831,-0.1321,32.4600,-7.5000,-19.9200,
7.938489,0.1387,-0.1842,0.5979,0.2951,0.4735,-0.1182,32.4600,-7.5000,-19.9200,
7.960012,0.1387,-0.1842,0.5979,0.2546,0.4149,-0.1103,32.4600,-7.5000,-19.9200,
7.969180,0.1387,-0.1842,0.5979,0.2546,0.4149,-0.1103,33.0000,-7.5600,-19.4400,
7.979741,0.1387,-0.1842,0.5979,0.2274,0.2631,-0.0852,33.0000,-7.5600,-19.4400,
7.983693,0.1387,-0.1842,0.5979,0.2274,0.2631,-0.0852,33.0000,-7.5600,-19.4400,
7.984573,-0.4405,0.0079,0.4220,0.2274,0.2631,-0.0852,33.0000,-7.5600,-19.4400,
8.000275,-0.4405,0.0079,0.4220,0.2418,0.1534,-0.0085,33.0000,-7.5600,-19.4400,
8.020879,-0.4405,0.0079,0.4220,0.2898,0.2205,0.0522,33.0000,-7.5600,-19.4400,
8.029633,-0.4405,0.0079,0.4220,0.2898,0.2205,0.0522,33.6600,-7.6200,-18.3600,
8.041110,-0.4405,0.0079,0.4220,0.3318,0.2503,0.0815,33.6600,-7.6200,-18.3600,
8.045747,-0.4405,0.0079,0.4220,0.3318,0.2503,0.0815,33.6600,-7.6200,-18.3600,
8.046706,-0.1430,0.0627,0.2283,0.3318,0.2503,0.0815,33.6600,-7.6200,-18.3600,
8.061781,-0.1430,0.0627,0.2283,0.3814,0.2567,0.0522,33.6600,-7.6200,-18.3600,
8.082070,-0.1430,0.0627,0.2283,0.3526,0.2120,0.0314,33.6600,-7.6200,-18.3600,
8.092319,-0.1430,0.0627,0.2283,0.3526,0.2120,0.0314,34.3200,-7.5000,-17.5200,
8.102587,-0.1430,0.0627,0.2283,0.2376,0.1699,0.0410,34.3200,-7.5000,-17.5200,
8.107085,-0.1430,0.0627,0.2283,0.2376,0.1699,0.0410,34.3200,-7.5000,-17.5200,
8.108419,0.0037,-0.1036,0.2054,0.2376,0.1699,0.0410,34.3200,-7.5000,-17.5200,
8.123576,0.0037,-0.1036,0.2054,0.1571,0.1305,0.0810,34.3200,-7.5000,-17.5200,
8.144587,0.0037,-0.1036,0.2054,0.1971,0.1305,0.1369,34.3200,-7.5000,-17.5200,
8.152883,0.0037,-0.1036,0.2054,0.1971,0.1305,0.1369,35.2800,-7.5000,-16.1400,
8.164336,0.0037,-0.1036,0.2054,0.2684,0.1507,0.1832,35.2800,-7.5000,-16.1400,
8.169217,0.0037,-0.1036,0.2054,0.2684,0.1507,0.1832,35.2800,-7.5000,-16.1400,
8.170151,-0.0206,-0.2967,0.4121,0.2684,0.1507,0.1832,35.2800,-7.5000,-16.1400,
8.184906,-0.0206,-0.2967,0.4121,0.6456,0.3606,0.0794,35.2800,-7.5000,-16.1400,
8.207796,-0.0206,-0.2967,0.4121,0.5529,0.3318,0.0037,35.2800,-7.5000,-16.1400,
8.214454,-0.0206,-0.2967,0.4121,0.5529,0.3318,0.0037,35.5800,-7.4400,-15.3000,
8.225829,-0.0206,-0.2967,0.4121,0.3228,0.1699,0.0378,35.5800,-7.4400,-15.3000,
8.230115,-0.0206,-0.2967,0.4121,0.3228,0.1699,0.0378,35.5800,-7.4400,-15.3000,
8.230705,-0.2470,-0.1570,0.0057,0.3228,0.1699,0.0378,35.5800,-7.4400,-15.3000,
8.246264,-0.2470,-0.1570,0.0057,0.0708,-0.0767,0.1028,35.5800,-7.4400,-15.3000,
8.266837,-0.2470,-0.1570,0.0057,-0.1353,-0.2557,0.1742,35.5800,-7.4400,-15.3000,
