
time,ax,ay,az,wx,wy,wz,Bx,By,Bz,
0.147189,0.0000,0.0000,0.0000,0.0000,0.0000,0.0000,26.6625,12.0188,-13.0688,
0.167446,0.0000,0.0000,0.0000,-0.0130,0.0011,-0.0031,26.6625,12.0188,-13.0688,
0.206321,0.0000,0.0000,0.0000,-0.0130,0.0011,-0.0031,40.1438,10.8000,-11.0063,
0.228548,0.0000,0.0000,0.0000,-0.0077,0.0007,-0.0005,40.1438,10.8000,-11.0063,
0.249750,0.0000,0.0000,0.0000,-0.0077,0.0007,-0.0005,40.1438,10.8000,-11.0063,
0.266538,0.0000,0.0000,0.0000,-0.0077,0.0007,-0.0005,45.0188,10.6125,-9.8813,
0.289789,0.0000,0.0000,0.0000,-0.0073,0.0007,0.0061,45.0188,10.6125,-9.8813,
0.310086,0.0000,0.0000,0.0000,-0.0073,0.0007,0.0061,45.0188,10.6125,-9.8813,
0.326827,0.0000,0.0000,0.0000,-0.0073,0.0007,0.0061,47.3813,10.4438,-9.4500,
0.351246,0.0000,0.0000,0.0000,-0.0073,0.0007,0.0061,47.3813,10.4438,-9.4500,
0.352173,0.0000,0.0000,0.0000,0.0016,-0.0079,0.0087,47.3813,10.4438,-9.4500,
0.371113,0.0000,0.0000,0.0000,0.0016,-0.0079,0.0087,47.3813,10.4438,-9.4500,
0.387059,0.0000,0.0000,0.0000,0.0016,-0.0079,0.0087,48.7500,10.2750,-9.2438,
0.411349,0.0000,0.0000,0.0000,-0.0041,0.0134,0.0033,48.7500,10.2750,-9.2438,
0.412182,0.0350,0.0359,-0.0099,-0.0041,0.0134,0.0033,48.7500,10.2750,-9.2438,
0.431698,0.0350,0.0359,-0.0099,-0.0041,0.0134,0.0033,48.7500,10.2750,-9.2438,
0.446736,0.0350,0.0359,-0.0099,-0.0041,0.0134,0.0033,49.6313,10.2188,-8.9438,
0.471609,0.0350,0.0359,-0.0099,-0.0003,-0.0025,0.0104,49.6313,10.2188,-8.9438,
0.472922,-0.0202,-0.0020,0.0087,-0.0003,-0.0025,0.0104,49.6313,10.2188,-8.9438,
0.491884,-0.0202,-0.0020,0.0087,-0.0003,-0.0025,0.0104,49.6313,10.2188,-8.9438,
0.505528,-0.0202,-0.0020,0.0087,-0.0003,-0.0025,0.0104,50.2313,10.2750,-8.8500,
0.533291,-0.0202,-0.0020,0.0087,-0.0141,0.0092,-0.0180,50.2313,10.2750,-8.8500,
0.553742,-0.0202,-0.0020,0.0087,-0.0141,0.0092,-0.0180,50.2313,10.2750,-8.8500,
0.554339,0.0339,0.0049,0.0202,-0.0141,0.0092,-0.0180,50.2313,10.2750,-8.8500,
0.566746,0.0339,0.0049,0.0202,-0.0141,0.0092,-0.0180,50.6063,10.2563,-9.0000,
0.594874,0.0339,0.0049,0.0202,-0.0109,0.0490,-0.0450,50.6063,10.2563,-9.0000,
0.615197,0.0339,0.0049,0.0202,-0.0109,0.0490,-0.0450,50.6063,10.2563,-9.0000,
0.616777,-0.0488,0.0113,0.0204,-0.0109,0.0490,-0.0450,50.6063,10.2563,-9.0000,
0.626192,-0.0488,0.0113,0.0204,-0.0109,0.0490,-0.0450,53.9813,9.8438,-8.3813,
0.658499,-0.0488,0.0113,0.0204,-0.0056,0.0017,-0.0154,53.9813,9.8438,-8.3813,
0.675793,-0.0488,0.0113,0.0204,-0.0056,0.0017,-0.0154,53.9813,9.8438,-8.3813,
0.676487,-0.0549,-0.0134,-0.0163,-0.0056,0.0017,-0.0154,53.9813,9.8438,-8.3813,
0.686700,-0.0549,-0.0134,-0.0163,-0.0056,0.0017,-0.0154,54.0375,9.9938,-8.2313,
0.716996,-0.0549,-0.0134,-0.0163,-0.0059,-0.0053,-0.0080,54.0375,9.9938,-8.2313,
0.736140,0.0404,0.0158,0.0018,-0.0059,-0.0053,-0.0080,54.0375,9.9938,-8.2313,
0.737302,0.0404,0.0158,0.0018,-0.0059,-0.0053,-0.0080,54.0375,9.9938,-8.2313,
0.746440,0.0404,0.0158,0.0018,-0.0059,-0.0053,-0.0080,53.9438,9.9938,-8.2125,
0.778878,0.0404,0.0158,0.0018,-0.0031,0.0039,0.0019,53.9438,9.9938,-8.2125,
0.796966,0.0404,0.0158,0.0018,-0.0031,0.0039,0.0019,53.9438,9.9938,-8.2125,
0.807662,0.0404,0.0158,0.0018,-0.0031,0.0039,0.0019,54.0000,9.9938,-8.0625,
0.820943,0.0272,-0.0025,-0.0114,-0.0031,0.0039,0.0019,54.0000,9.9938,-8.0625,
0.838613,0.0272,-0.0025,-0.0114,-0.0084,-0.0132,-0.0091,54.0000,9.9938,-8.0625,
0.858660,0.0272,-0.0025,-0.0114,-0.0084,-0.0132,-0.0091,54.0000,9.9938,-8.0625,
0.867904,0.0272,-0.0025,-0.0114,-0.0084,-0.0132,-0.0091,53.9625,9.9563,-7.8938,
0.878329,-0.0195,0.0057,0.0081,-0.0084,-0.0132,-0.0091,53.9625,9.9563,-7.8938,
0.900740,-0.0195,0.0057,0.0081,-0.0027,0.0096,0.0037,53.9625,9.9563,-7.8938,
0.919799,-0.0195,0.0057,0.0081,-0.0027,0.0096,0.0037,53.9625,9.9563,-7.8938,
0.926409,-0.0195,0.0057,0.0081,-0.0027,0.0096,0.0037,54.0375,9.9375,-7.9875,
0.939860,0.0332,-0.0141,0.0034,-0.0027,0.0096,0.0037,54.0375,9.9375,-7.9875,
0.959545,0.0332,-0.0141,0.0034,0.0140,-0.0100,0.0023,54.0375,9.9375,-7.9875,
0.980163,0.0332,-0.0141,0.0034,0.0140,-0.0100,0.0023,54.0375,9.9375,-7.9875,
0.985204,0.0332,-0.0141,0.0034,0.0140,-0.0100,0.0023,54.2438,9.8813,-8.0063,
1.025019,0.0332,-0.0141,0.0034,-0.0020,0.0024,0.0033,54.2438,9.8813,-8.0063,
1.027158,0.0312,-0.0131,-0.0480,-0.0020,0.0024,0.0033,54.2438,9.8813,-8.0063,
1.041711,0.0312,-0.0131,-0.0480,-0.0020,0.0024,0.0033,54.2438,9.8813,-8.0063,
1.045937,0.0312,-0.0131,-0.0480,-0.0020,0.0024,0.0033,54.3750,9.8813,-7.7063,
1.081658,0.0312,-0.0131,-0.0480,0.0044,-0.0019,0.0012,54.3750,9.8813,-7.7063,
1.083275,-0.0175,0.0191,0.0353,0.0044,-0.0019,0.0012,54.3750,9.8813,-7.7063,
1.102083,-0.0175,0.0191,0.0353,0.0044,-0.0019,0.0012,54.3750,9.8813,-7.7063,
1.106241,-0.0175,0.0191,0.0353,0.0044,-0.0019,0.0012,54.4125,10.1438,-7.8563,
1.142274,-0.0175,0.0191,0.0353,0.0144,0.0013,0.0044,54.4125,10.1438,-7.8563,
1.143647,0.0080,0.0008,-0.0199,0.0144,0.0013,0.0044,54.4125,10.1438,-7.8563,
1.163951,0.0080,0.0008,-0.0199,0.0144,0.0013,0.0044,54.4125,10.1438,-7.8563,
1.166902,0.0080,0.0008,-0.0199,0.0144,0.0013,0.0044,54.4500,10.0500,-7.8563,
1.203061,0.0080,0.0008,-0.0199,0.0012,0.0064,0.0005,54.4500,10.0500,-7.8563,
1.203846,0.0210,-0.0086,0.0168,0.0012,0.0064,0.0005,54.4500,10.0500,-7.8563,
1.223458,0.0210,-0.0086,0.0168,0.0012,0.0064,0.0005,54.4500,10.0500,-7.8563,
1.226440,0.0210,-0.0086,0.0168,0.0012,0.0064,0.0005,54.3938,10.0500,-8.0625,
1.263920,0.0210,-0.0086,0.0168,0.0044,0.0043,0.0012,54.3938,10.0500,-8.0625,
1.284690,-0.0168,-0.0040,-0.0071,0.0044,0.0043,0.0012,54.3938,10.0500,-8.0625,
1.286730,-0.0168,-0.0040,-0.0071,0.0044,0.0043,0.0012,54.3938,10.0500,-8.0625,
1.287737,-0.0168,-0.0040,-0.0071,0.0044,0.0043,0.0012,54.4313,10.1438,-8.2688,
1.326910,-0.0168,-0.0040,-0.0071,0.0108,0.0011,-0.0041,54.4313,10.1438,-8.2688,
1.345700,-0.0168,-0.0040,-0.0071,0.0108,0.0011,-0.0041,54.4313,10.1438,-8.2688,
1.346648,-0.0168,-0.0040,-0.0071,0.0108,0.0011,-0.0041,54.5063,10.2563,-8.3438,
1.347589,0.0220,0.0046,0.0020,0.0108,0.0011,-0.0041,54.5063,10.2563,-8.3438,
1.387225,0.0220,0.0046,0.0020,0.0087,-0.0068,-0.0005,54.5063,10.2563,-8.3438,
1.408263,0.0220,0.0046,0.0020,0.0087,-0.0068,-0.0005,54.5625,10.2188,-8.3625,
1.409055,0.0220,0.0046,0.0020,0.0087,-0.0068,-0.0005,54.5625,10.2188,-8.3625,
1.409433,-0.0075,-0.0119,-0.0123,0.0087,-0.0068,-0.0005,54.5625,10.2188,-8.3625,
1.447220,-0.0075,-0.0119,-0.0123,-0.0003,0.0096,-0.0112,54.5625,10.2188,-8.3625,
1.467330,-0.0075,-0.0119,-0.0123,-0.0003,0.0096,-0.0112,54.5625,10.2188,-8.3625,
1.467959,-0.0075,-0.0119,-0.0123,-0.0003,0.0096,-0.0112,54.3750,10.2563,-8.4188,
1.468540,-0.0139,0.0190,0.0064,-0.0003,0.0096,-0.0112,54.3750,10.2563,-8.4188,
1.508312,-0.0139,0.0190,0.0064,0.0208,-0.0153,-0.0141,54.3750,10.2563,-8.4188,
1.526260,-0.0139,0.0190,0.0064,0.0208,-0.0153,-0.0141,54.3375,10.2563,-8.4750,
1.527273,-0.0139,0.0190,0.0064,0.0208,-0.0153,-0.0141,54.3375,10.2563,-8.4750,
1.548443,-0.0023,-0.0069,-0.0463,0.0208,-0.0153,-0.0141,54.3375,10.2563,-8.4750,
1.569264,-0.0023,-0.0069,-0.0463,0.0146,-0.0083,-0.0165,54.3375,10.2563,-8.4750,
1.587049,-0.0023,-0.0069,-0.0463,0.0146,-0.0083,-0.0165,54.4125,9.9938,-8.2313,
1.588197,-0.0023,-0.0069,-0.0463,0.0146,-0.0083,-0.0165,54.4125,9.9938,-8.2313,
1.610126,-0.0231,0.0124,0.0074,0.0146,-0.0083,-0.0165,54.4125,9.9938,-8.2313,
1.629504,-0.0231,0.0124,0.0074,0.0178,-0.0145,-0.0158,54.4125,9.9938,-8.2313,
1.646809,-0.0231,0.0124,0.0074,0.0178,-0.0145,-0.0158,54.3375,10.0688,-8.3063,
1.652747,-0.0231,0.0124,0.0074,0.0178,-0.0145,-0.0158,54.3375,10.0688,-8.3063,
1.670622,0.0013,-0.0192,-0.0184,0.0178,-0.0145,-0.0158,54.3375,10.0688,-8.3063,
1.691409,0.0013,-0.0192,-0.0184,0.0027,0.0184,-0.0158,54.3375,10.0688,-8.3063,
1.706925,0.0013,-0.0192,-0.0184,0.0027,0.0184,-0.0158,54.3188,10.0875,-8.2500,
1.709812,0.0013,-0.0192,-0.0184,0.0027,0.0184,-0.0158,54.3188,10.0875,-8.2500,
1.751746,0.0013,-0.0192,-0.0184,0.0200,-0.0341,-0.0293,54.3188,10.0875,-8.2500,
1.753763,-0.0344,0.0116,0.0303,0.0200,-0.0341,-0.0293,54.3188,10.0875,-8.2500,
1.765142,-0.0344,0.0116,0.0303,0.0200,-0.0341,-0.0293,54.3563,10.1063,-8.1750,
1.771601,-0.0344,0.0116,0.0303,0.0200,-0.0341,-0.0293,54.3563,10.1063,-8.1750,
1.814034,-0.0344,0.0116,0.0303,0.0161,-0.0043,-0.0254,54.3563,10.1063,-8.1750,
1.815018,0.0210,-0.0018,-0.0245,0.0161,-0.0043,-0.0254,54.3563,10.1063,-8.1750,
1.826108,0.0210,-0.0018,-0.0245,0.0161,-0.0043,-0.0254,54.2813,10.0875,-8.1562,
1.832524,0.0210,-0.0018,-0.0245,0.0161,-0.0043,-0.0254,54.2813,10.0875,-8.1562,
1.874057,0.0210,-0.0018,-0.0245,0.0310,0.0021,-0.0250,54.2813,10.0875,-8.1562,
1.875322,-0.0557,-0.0003,-0.0007,0.0310,0.0021,-0.0250,54.2813,10.0875,-8.1562,
1.886505,-0.0557,-0.0003,-0.0007,0.0310,0.0021,-0.0250,54.2250,10.2375,-8.1750,
1.894212,-0.0557,-0.0003,-0.0007,0.0310,0.0021,-0.0250,54.2250,10.2375,-8.1750,
1.934442,-0.0557,-0.0003,-0.0007,0.0804,-0.0419,-0.0240,54.2250,10.2375,-8.1750,
1.935544,0.0305,-0.0075,-0.0474,0.0804,-0.0419,-0.0240,54.2250,10.2375,-8.1750,
1.946134,0.0305,-0.0075,-0.0474,0.0804,-0.0419,-0.0240,54.3563,10.1813,-8.0813,
1.954802,0.0305,-0.0075,-0.0474,0.0804,-0.0419,-0.0240,54.3563,10.1813,-8.0813,
1.995110,0.0305,-0.0075,-0.0474,0.0896,0.0184,0.0027,54.3563,10.1813,-8.0813,
2.007476,0.0305,-0.0075,-0.0474,0.0896,0.0184,0.0027,54.4313,10.2750,-8.1375,
2.015448,0.0305,-0.0075,-0.0474,0.0896,0.0184,0.0027,54.4313,10.2750,-8.1375,
2.016233,0.0365,-0.0253,-0.0623,0.0896,0.0184,0.0027,54.4313,10.2750,-8.1375,
2.056109,0.0365,-0.0253,-0.0623,0.1169,-0.0451,-0.0250,54.4313,10.2750,-8.1375,
2.066804,0.0365,-0.0253,-0.0623,0.1169,-0.0451,-0.0250,54.4313,10.5750,-8.2313,
2.076384,0.0365,-0.0253,-0.0623,0.1169,-0.0451,-0.0250,54.4313,10.5750,-8.2313,
2.077313,-0.0252,-0.0151,-0.0900,0.1169,-0.0451,-0.0250,54.4313,10.5750,-8.2313,
2.116347,-0.0252,-0.0151,-0.0900,0.1368,-0.0057,-0.0194,54.4313,10.5750,-8.2313,
2.126060,-0.0252,-0.0151,-0.0900,0.1368,-0.0057,-0.0194,54.5063,10.4625,-8.2688,
2.137309,-0.0252,-0.0151,-0.0900,0.1368,-0.0057,-0.0194,54.5063,10.4625,-8.2688,
2.138330,0.0037,-0.0199,-0.0458,0.1368,-0.0057,-0.0194,54.5063,10.4625,-8.2688,
2.177479,0.0037,-0.0199,-0.0458,0.2320,-0.0533,-0.0229,54.5063,10.4625,-8.2688,
2.186566,0.0037,-0.0199,-0.0458,0.2320,-0.0533,-0.0229,54.6000,10.5375,-8.3250,
2.198509,0.0037,-0.0199,-0.0458,0.2320,-0.0533,-0.0229,54.6000,10.5375,-8.3250,
2.218549,-0.0290,-0.0212,-0.1828,0.2320,-0.0533,-0.0229,54.6000,10.5375,-8.3250,
2.239165,-0.0290,-0.0212,-0.1828,0.3111,-0.0475,-0.0244,54.6000,10.5375,-8.3250,
2.247008,-0.0290,-0.0212,-0.1828,0.3111,-0.0475,-0.0244,54.4125,10.4438,-8.4750,
2.259227,-0.0290,-0.0212,-0.1828,0.3111,-0.0475,-0.0244,54.4125,10.4438,-8.4750,
2.279716,0.0345,-0.0560,-0.1951,0.3111,-0.0475,-0.0244,54.4125,10.4438,-8.4750,
2.299721,0.0345,-0.0560,-0.1951,0.2987,-0.0590,-0.0016,54.4125,10.4438,-8.4750,
2.307073,0.0345,-0.0560,-0.1951,0.2987,-0.0590,-0.0016,54.4313,10.5375,-8.5875,
2.320167,0.0345,-0.0560,-0.1951,0.2987,-0.0590,-0.0016,54.4313,10.5375,-8.5875,
2.339148,0.0225,-0.0209,-0.1107,0.2987,-0.0590,-0.0016,54.4313,10.5375,-8.5875,
2.360400,0.0225,-0.0209,-0.1107,0.3121,-0.0419,-0.0116,54.4313,10.5375,-8.5875,
2.366923,0.0225,-0.0209,-0.1107,0.3121,-0.0419,-0.0116,54.3188,10.5750,-8.9625,
2.381807,0.0225,-0.0209,-0.1107,0.3121,-0.0419,-0.0116,54.3188,10.5750,-8.9625,
2.401934,-0.0206,-0.0545,-0.1940,0.3121,-0.0419,-0.0116,54.3188,10.5750,-8.9625,
2.421874,-0.0206,-0.0545,-0.1940,0.3754,0.0130,-0.0077,54.3188,10.5750,-8.9625,
2.427375,-0.0206,-0.0545,-0.1940,0.3754,0.0130,-0.0077,54.2625,10.8000,-9.2250,
2.441903,-0.0206,-0.0545,-0.1940,0.3754,0.0130,-0.0077,54.2625,10.8000,-9.2250,
2.483437,0.0247,-0.0695,-0.2153,0.3754,0.0130,-0.0077,54.2625,10.8000,-9.2250,
2.484830,0.0247,-0.0695,-0.2153,0.4393,-0.0015,-0.0035,54.2625,10.8000,-9.2250,
2.485866,0.0247,-0.0695,-0.2153,0.4393,-0.0015,-0.0035,54.1688,10.7250,-9.4875,
2.503003,0.0247,-0.0695,-0.2153,0.4393,-0.0015,-0.0035,54.1688,10.7250,-9.4875,
2.543651,0.0247,-0.0695,-0.2153,0.5518,-0.0782,0.0136,54.1688,10.7250,-9.4875,
2.545464,0.0485,-0.0706,-0.2407,0.5518,-0.0782,0.0136,54.1688,10.7250,-9.4875,
2.547570,0.0485,-0.0706,-0.2407,0.5518,-0.0782,0.0136,54.2438,10.7625,-9.8438,
2.562489,0.0485,-0.0706,-0.2407,0.5518,-0.0782,0.0136,54.2438,10.7625,-9.8438,
2.603838,0.0485,-0.0706,-0.2407,0.6778,-0.0515,0.0300,54.2438,10.7625,-9.8438,
2.605504,-0.0509,-0.0979,-0.2877,0.6778,-0.0515,0.0300,54.2438,10.7625,-9.8438,
2.606622,-0.0509,-0.0979,-0.2877,0.6778,-0.0515,0.0300,54.1500,10.9688,-10.2750,
2.625259,-0.0509,-0.0979,-0.2877,0.6778,-0.0515,0.0300,54.1500,10.9688,-10.2750,
2.664489,-0.0509,-0.0979,-0.2877,0.9679,-0.3025,-0.0088,54.1500,10.9688,-10.2750,
2.666199,-0.0509,-0.0979,-0.2877,0.9679,-0.3025,-0.0088,54.1688,11.1000,-10.9125,
2.685230,-0.0509,-0.0979,-0.2877,0.9679,-0.3025,-0.0088,54.1688,11.1000,-10.9125,
2.686882,-0.0392,-0.0035,-0.5148,0.9679,-0.3025,-0.0088,54.1688,11.1000,-10.9125,
2.727262,-0.0392,-0.0035,-0.5148,0.9679,-0.3025,-0.0088,54.2063,11.1375,-11.4000,
2.728751,-0.0392,-0.0035,-0.5148,1.2963,-0.0806,0.0285,54.2063,11.1375,-11.4000,
2.747316,-0.0392,-0.0035,-0.5148,1.2963,-0.0806,0.0285,54.2063,11.1375,-11.4000,
2.748357,0.0095,-0.3024,-0.6642,1.2963,-0.0806,0.0285,54.2063,11.1375,-11.4000,
2.787366,0.0095,-0.3024,-0.6642,1.2963,-0.0806,0.0285,54.1875,11.1000,-12.4313,
2.787951,0.0095,-0.3024,-0.6642,2.0683,-0.3661,-0.0815,54.1875,11.1000,-12.4313,
2.808673,0.0095,-0.3024,-0.6642,2.0683,-0.3661,-0.0815,54.1875,11.1000,-12.4313,
2.809052,-0.2159,-0.5973,-1.2701,2.0683,-0.3661,-0.0815,54.1875,11.1000,-12.4313,
2.847080,-0.2159,-0.5973,-1.2701,2.0683,-0.3661,-0.0815,54.1500,11.0250,-13.4250,
2.848532,-0.2159,-0.5973,-1.2701,2.5622,-0.0411,-0.2253,54.1500,11.0250,-13.4250,
2.868608,-0.2159,-0.5973,-1.2701,2.5622,-0.0411,-0.2253,54.1500,11.0250,-13.4250,
2.870156,0.6419,-2.5121,-1.3218,2.5622,-0.0411,-0.2253,54.1500,11.0250,-13.4250,
2.906370,0.6419,-2.5121,-1.3218,2.5622,-0.0411,-0.2253,54.1313,10.8000,-14.4563,
2.908160,0.6419,-2.5121,-1.3218,2.6130,0.5623,-0.3776,54.1313,10.8000,-14.4563,
2.929164,0.6419,-2.5121,-1.3218,2.6130,0.5623,-0.3776,54.1313,10.8000,-14.4563,
2.949037,1.6873,-0.9174,-0.2282,2.6130,0.5623,-0.3776,54.1313,10.8000,-14.4563,
2.966217,1.6873,-0.9174,-0.2282,2.6130,0.5623,-0.3776,54.3188,10.7625,-15.1688,
2.969340,1.6873,-0.9174,-0.2282,3.4834,2.6945,-0.5991,54.3188,10.7625,-15.1688,
2.989408,1.6873,-0.9174,-0.2282,3.4834,2.6945,-0.5991,54.3188,10.7625,-15.1688,
3.010952,4.4651,-4.9958,1.7536,3.4834,2.6945,-0.5991,54.3188,10.7625,-15.1688,
3.027608,4.4651,-4.9958,1.7536,3.4834,2.6945,-0.5991,54.7688,10.4062,-15.2250,
3.031279,4.4651,-4.9958,1.7536,2.9978,1.2719,1.0470,54.7688,10.4062,-15.2250,
3.053002,4.4651,-4.9958,1.7536,2.9978,1.2719,1.0470,54.7688,10.4062,-15.2250,
3.071322,-0.0605,-0.9630,-9.2376,2.9978,1.2719,1.0470,54.7688,10.4062,-15.2250,
3.087375,-0.0605,-0.9630,-9.2376,2.9978,1.2719,1.0470,55.6313,9.9563,-14.8875,
3.092573,-0.0605,-0.9630,-9.2376,3.8746,1.9227,0.1840,55.6313,9.9563,-14.8875,
3.112179,-0.0605,-0.9630,-9.2376,3.8746,1.9227,0.1840,55.6313,9.9563,-14.8875,
3.147516,-0.0605,-0.9630,-9.2376,3.8746,1.9227,0.1840,56.5125,9.0188,-14.0813,
3.152831,-0.0605,-0.9630,-9.2376,0.7677,1.8317,1.7169,56.5125,9.0188,-14.0813,
3.153998,1.3202,-5.3613,-2.5958,0.7677,1.8317,1.7169,56.5125,9.0188,-14.0813,
3.172995,1.3202,-5.3613,-2.5958,0.7677,1.8317,1.7169,56.5125,9.0188,-14.0813,
3.207980,1.3202,-5.3613,-2.5958,0.7677,1.8317,1.7169,56.3250,7.4063,-0.3750,
3.212344,1.3202,-5.3613,-2.5958,2.9562,2.2877,2.3901,56.3250,7.4063,-0.3750,
3.213360,-5.0415,18.7968,9.4308,2.9562,2.2877,2.3901,56.3250,7.4063,-0.3750,
3.233990,-5.0415,18.7968,9.4308,2.9562,2.2877,2.3901,56.3250,7.4063,-0.3750,
3.267305,-5.0415,18.7968,9.4308,2.9562,2.2877,2.3901,54.6563,12.3375,4.8375,
3.274088,-5.0415,18.7968,9.4308,3.2122,-0.4023,1.8450,54.6563,12.3375,4.8375,
3.275202,-5.6262,-18.8371,11.4703,3.2122,-0.4023,1.8450,54.6563,12.3375,4.8375,
3.293942,-5.6262,-18.8371,11.4703,3.2122,-0.4023,1.8450,54.6563,12.3375,4.8375,
3.328070,-5.6262,-18.8371,11.4703,3.2122,-0.4023,1.8450,55.5563,10.2563,6.9188,
3.336134,-5.6262,-18.8371,11.4703,2.4717,-3.9331,2.6034,55.5563,10.2563,6.9188,
3.337929,-7.0239,-9.0187,-0.5445,2.4717,-3.9331,2.6034,55.5563,10.2563,6.9188,
3.355917,-7.0239,-9.0187,-0.5445,2.4717,-3.9331,2.6034,55.5563,10.2563,6.9188,
3.387174,-7.0239,-9.0187,-0.5445,2.4717,-3.9331,2.6034,54.9563,10.5563,10.5000,
3.396270,-7.0239,-9.0187,-0.5445,-2.5289,-1.7875,-2.2389,54.9563,10.5563,10.5000,
3.416304,-7.0239,-9.0187,-0.5445,-2.5289,-1.7875,-2.2389,54.9563,10.5563,10.5000,
3.418712,-0.1226,-5.6106,-18.1102,-2.5289,-1.7875,-2.2389,54.9563,10.5563,10.5000,
3.446599,-0.1226,-5.6106,-18.1102,-2.5289,-1.7875,-2.2389,55.3313,9.5813,11.3813,
3.457473,-0.1226,-5.6106,-18.1102,-1.7220,0.3567,-3.0628,55.3313,9.5813,11.3813,
3.477978,-0.1226,-5.6106,-18.1102,-1.7220,0.3567,-3.0628,55.3313,9.5813,11.3813,
3.480416,4.0683,4.1459,-17.2174,-1.7220,0.3567,-3.0628,55.3313,9.5813,11.3813,
3.507319,4.0683,4.1459,-17.2174,-1.7220,0.3567,-3.0628,55.3313,10.2375,10.2938,
3.518583,4.0683,4.1459,-17.2174,2.4446,-6.0094,-2.7913,55.3313,10.2375,10.2938,
3.538213,4.0683,4.1459,-17.2174,2.4446,-6.0094,-2.7913,55.3313,10.2375,10.2938,
3.539816,-1.3362,0.2464,2.5553,2.4446,-6.0094,-2.7913,55.3313,10.2375,10.2938,
3.566390,-1.3362,0.2464,2.5553,2.4446,-6.0094,-2.7913,53.4375,11.5875,6.8250,
3.578830,-1.3362,0.2464,2.5553,1.5064,-7.2658,-3.3606,53.4375,11.5875,6.8250,
3.599621,-1.3362,0.2464,2.5553,1.5064,-7.2658,-3.3606,53.4375,11.5875,6.8250,
3.618877,-3.7623,-2.7539,-4.1477,1.5064,-7.2658,-3.3606,53.4375,11.5875,6.8250,
3.628323,-3.7623,-2.7539,-4.1477,1.5064,-7.2658,-3.3606,48.9563,13.9125,2.9438,
3.639196,-3.7623,-2.7539,-4.1477,-0.5025,-1.2689,-3.9421,48.9563,13.9125,2.9438,
3.659969,-3.7623,-2.7539,-4.1477,-0.5025,-1.2689,-3.9421,48.9563,13.9125,2.9438,
3.680628,0.4898,18.2574,8.3008,-0.5025,-1.2689,-3.9421,48.9563,13.9125,2.9438,
3.686126,0.4898,18.2574,8.3008,-0.5025,-1.2689,-3.9421,44.3250,17.5125,-2.3625,
3.700284,0.4898,18.2574,8.3008,-1.7167,-2.2774,-3.1175,44.3250,17.5125,-2.3625,
3.720599,0.4898,18.2574,8.3008,-1.7167,-2.2774,-3.1175,44.3250,17.5125,-2.3625,
3.740926,-3.3312,9.9258,1.6715,-1.7167,-2.2774,-3.1175,44.3250,17.5125,-2.3625,
3.746972,-3.3312,9.9258,1.6715,-1.7167,-2.2774,-3.1175,38.6063,21.9563,-7.4625,
3.760801,-3.3312,9.9258,1.6715,-2.0904,-1.8805,-2.9762,38.6063,21.9563,-7.4625,
3.782462,-3.3312,9.9258,1.6715,-2.0904,-1.8805,-2.9762,38.6063,21.9563,-7.4625,
3.801789,-1.9432,-5.2577,-6.1717,-2.0904,-1.8805,-2.9762,38.6063,21.9563,-7.4625,
3.806246,-1.9432,-5.2577,-6.1717,-2.0904,-1.8805,-2.9762,31.6313,26.8500,-11.6625,
3.821969,-1.9432,-5.2577,-6.1717,3.2448,-0.7409,-1.4546,31.6313,26.8500,-11.6625,
3.842222,-1.9432,-5.2577,-6.1717,3.2448,-0.7409,-1.4546,31.6313,26.8500,-11.6625,
3.866853,-1.9432,-5.2577,-6.1717,3.2448,-0.7409,-1.4546,24.9188,30.1500,-15.5625,
3.883659,-1.9432,-5.2577,-6.1717,5.5346,0.5041,0.0643,24.9188,30.1500,-15.5625,
3.885838,-4.1598,-6.4216,16.0448,5.5346,0.5041,0.0643,24.9188,30.1500,-15.5625,
3.903256,-4.1598,-6.4216,16.0448,5.5346,0.5041,0.0643,24.9188,30.1500,-15.5625,
3.926936,-4.1598,-6.4216,16.0448,5.5346,0.5041,0.0643,18.2625,31.3313,-19.9313,
3.944314,0.5270,-3.1856,-3.2655,5.5346,0.5041,0.0643,18.2625,31.3313,-19.9313,
3.945893,0.5270,-3.1856,-3.2655,0.1197,-0.0784,-0.2051,18.2625,31.3313,-19.9313,
3.963303,0.5270,-3.1856,-3.2655,0.1197,-0.0784,-0.2051,18.2625,31.3313,-19.9313,
3.986789,0.5270,-3.1856,-3.2655,0.1197,-0.0784,-0.2051,11.4938,31.2000,-23.5875,
4.004733,0.5270,-3.1856,-3.2655,-1.3492,0.5424,-0.7997,11.4938,31.2000,-23.5875,
4.006725,2.4780,5.4163,-5.2866,-1.3492,0.5424,-0.7997,11.4938,31.2000,-23.5875,
4.025389,2.4780,5.4163,-5.2866,-1.3492,0.5424,-0.7997,11.4938,31.2000,-23.5875,
4.046593,2.4780,5.4163,-5.2866,-1.3492,0.5424,-0.7997,6.2063,31.1625,-24.6000,
4.065974,2.4780,5.4163,-5.2866,-2.6726,-1.7584,-0.5969,6.2063,31.1625,-24.6000,
4.087354,2.4780,5.4163,-5.2866,-2.6726,-1.7584,-0.5969,6.2063,31.1625,-24.6000,
4.088545,0.8141,3.1841,-5.1353,-2.6726,-1.7584,-0.5969,6.2063,31.1625,-24.6000,
4.107955,0.8141,3.1841,-5.1353,-2.6726,-1.7584,-0.5969,2.3250,30.9375,-24.3375,
4.127596,0.8141,3.1841,-5.1353,0.1525,0.4093,-0.2609,2.3250,30.9375,-24.3375,
4.147878,0.8141,3.1841,-5.1353,0.1525,0.4093,-0.2609,2.3250,30.9375,-24.3375,
4.149235,-2.0746,-3.0595,7.3305,0.1525,0.4093,-0.2609,2.3250,30.9375,-24.3375,
4.168443,-2.0746,-3.0595,7.3305,0.1525,0.4093,-0.2609,-0.3563,30.1500,-24.4313,
4.188644,-2.0746,-3.0595,7.3305,-0.1756,-0.0920,0.1233,-0.3563,30.1500,-24.4313,
4.208712,-2.0746,-3.0595,7.3305,-0.1756,-0.0920,0.1233,-0.3563,30.1500,-24.4313,
4.210895,-0.0889,3.1569,-0.1081,-0.1756,-0.0920,0.1233,-0.3563,30.1500,-24.4313,
4.227480,-0.0889,3.1569,-0.1081,-0.1756,-0.0920,0.1233,-1.8000,28.9313,-24.9563,
4.248938,-0.0889,3.1569,-0.1081,0.0242,0.0053,0.0140,-1.8000,28.9313,-24.9563,
4.269783,-0.0889,3.1569,-0.1081,0.0242,0.0053,0.0140,-1.8000,28.9313,-24.9563,
4.271684,-0.1097,0.0155,1.0531,0.0242,0.0053,0.0140,-1.8000,28.9313,-24.9563,
4.287896,-0.1097,0.0155,1.0531,0.0242,0.0053,0.0140,-2.1188,27.6563,-25.7438,
4.310816,-0.1097,0.0155,1.0531,0.1208,0.0390,-0.0851,-2.1188,27.6563,-25.7438,
4.330056,-0.1097,0.0155,1.0531,0.1208,0.0390,-0.0851,-2.1188,27.6563,-25.7438,
4.347150,-0.1097,0.0155,1.0531,0.1208,0.0390,-0.0851,-2.5875,27.6750,-25.5000,
4.350442,0.1033,0.4172,0.8038,0.1208,0.0390,-0.0851,-2.5875,27.6750,-25.5000,
4.370250,0.1033,0.4172,0.8038,0.0772,0.0376,-0.0563,-2.5875,27.6750,-25.5000,
4.391564,0.1033,0.4172,0.8038,0.0772,0.0376,-0.0563,-2.5875,27.6750,-25.5000,
4.408196,0.1033,0.4172,0.8038,0.0772,0.0376,-0.0563,-3.0938,28.8000,-24.8813,
4.410867,-0.1227,0.5468,0.4032,0.0772,0.0376,-0.0563,-3.0938,28.8000,-24.8813,
4.432235,-0.1227,0.5468,0.4032,-0.0314,0.0071,-0.0144,-3.0938,28.8000,-24.8813,
4.451801,-0.1227,0.5468,0.4032,-0.0314,0.0071,-0.0144,-3.0938,28.8000,-24.8813,
4.467317,-0.1227,0.5468,0.4032,-0.0314,0.0071,-0.0144,-3.3563,29.8313,-24.0563,
4.471875,-0.1012,0.5291,0.1528,-0.0314,0.0071,-0.0144,-3.3563,29.8313,-24.0563,
4.492199,-0.1012,0.5291,0.1528,-0.0376,-0.0051,0.0044,-3.3563,29.8313,-24.0563,
4.513311,-0.1012,0.5291,0.1528,-0.0376,-0.0051,0.0044,-3.3563,29.8313,-24.0563,
4.527313,-0.1012,0.5291,0.1528,-0.0376,-0.0051,0.0044,-3.5250,30.2625,-23.8313,
4.554777,-0.1012,0.5291,0.1528,-0.0233,-0.0083,0.0193,-3.5250,30.2625,-23.8313,
4.557162,-0.1456,0.4235,0.4306,-0.0233,-0.0083,0.0193,-3.5250,30.2625,-23.8313,
4.574618,-0.1456,0.4235,0.4306,-0.0233,-0.0083,0.0193,-3.5250,30.2625,-23.8313,
4.588653,-0.1456,0.4235,0.4306,-0.0233,-0.0083,0.0193,-3.6750,30.3000,-23.9438,
4.615830,-0.1456,0.4235,0.4306,-0.0165,-0.0029,0.0076,-3.6750,30.3000,-23.9438,
4.617943,-0.0790,0.3569,0.2984,-0.0165,-0.0029,0.0076,-3.6750,30.3000,-23.9438,
4.635089,-0.0790,0.3569,0.2984,-0.0165,-0.0029,0.0076,-3.6750,30.3000,-23.9438,
4.647587,-0.0790,0.3569,0.2984,-0.0165,-0.0029,0.0076,-3.8063,30.2813,-23.9438,
4.674897,-0.0790,0.3569,0.2984,0.0338,0.1810,-0.0152,-3.8063,30.2813,-23.9438,
4.676435,0.0122,0.3001,0.3284,0.0338,0.1810,-0.0152,-3.8063,30.2813,-23.9438,
4.696680,0.0122,0.3001,0.3284,0.0338,0.1810,-0.0152,-3.8063,30.2813,-23.9438,
4.708509,0.0122,0.3001,0.3284,0.0338,0.1810,-0.0152,-3.7688,30.1500,-23.9438,
4.737779,0.0122,0.3001,0.3284,0.0221,0.6866,0.0790,-3.7688,30.1500,-23.9438,
4.739857,0.1222,0.1650,0.0243,0.0221,0.6866,0.0790,-3.7688,30.1500,-23.9438,
4.756841,0.1222,0.1650,0.0243,0.0221,0.6866,0.0790,-3.7688,30.1500,-23.9438,
4.766921,0.1222,0.1650,0.0243,0.0221,0.6866,0.0790,-3.5625,30.1500,-24.2438,
4.797179,0.1222,0.1650,0.0243,-0.0893,-0.2887,-0.1842,-3.5625,30.1500,-24.2438,
4.817925,0.1222,0.1650,0.0243,-0.0893,-0.2887,-0.1842,-3.5625,30.1500,-24.2438,
4.820098,0.4378,0.4337,0.4038,-0.0893,-0.2887,-0.1842,-3.5625,30.1500,-24.2438,
4.826682,0.4378,0.4337,0.4038,-0.0893,-0.2887,-0.1842,-3.5625,30.2625,-24.2813,
4.858115,0.4378,0.4337,0.4038,-1.5328,-0.6493,-0.9651,-3.5625,30.2625,-24.2813,
4.878384,0.4378,0.4337,0.4038,-1.5328,-0.6493,-0.9651,-3.5625,30.2625,-24.2813,
4.879822,-0.1691,0.3803,0.1684,-1.5328,-0.6493,-0.9651,-3.5625,30.2625,-24.2813,
4.888259,-0.1691,0.3803,0.1684,-1.5328,-0.6493,-0.9651,-3.8063,30.4688,-24.0000,
4.919107,-0.1691,0.3803,0.1684,-0.8053,-1.8321,3.1606,-3.8063,30.4688,-24.0000,
4.939044,-0.1691,0.3803,0.1684,-0.8053,-1.8321,3.1606,-3.8063,30.4688,-24.0000,
4.940107,-5.8801,1.5051,0.6241,-0.8053,-1.8321,3.1606,-3.8063,30.4688,-24.0000,
4.946989,-5.8801,1.5051,0.6241,-0.8053,-1.8321,3.1606,-3.8625,31.5375,-23.5688,
4.979740,-5.8801,1.5051,0.6241,1.2586,0.1562,4.2126,-3.8625,31.5375,-23.5688,
4.999808,-5.8801,1.5051,0.6241,1.2586,0.1562,4.2126,-3.8625,31.5375,-23.5688,
5.007685,-5.8801,1.5051,0.6241,1.2586,0.1562,4.2126,-3.0563,32.4188,-23.4563,
5.020135,-6.8797,0.6571,4.0585,1.2586,0.1562,4.2126,-3.0563,32.4188,-23.4563,
5.039898,-6.8797,0.6571,4.0585,1.1670,0.9900,3.8263,-3.0563,32.4188,-23.4563,
5.060206,-6.8797,0.6571,4.0585,1.1670,0.9900,3.8263,-3.0563,32.4188,-23.4563,
5.066195,-6.8797,0.6571,4.0585,1.1670,0.9900,3.8263,-1.1813,33.2250,-23.7938,
5.080577,-2.2928,-1.7717,-0.2455,1.1670,0.9900,3.8263,-1.1813,33.2250,-23.7938,
5.100643,-2.2928,-1.7717,-0.2455,1.1316,1.1040,3.5913,-1.1813,33.2250,-23.7938,
5.121803,-2.2928,-1.7717,-0.2455,1.1316,1.1040,3.5913,-1.1813,33.2250,-23.7938,
5.126839,-2.2928,-1.7717,-0.2455,1.1316,1.1040,3.5913,1.6313,33.5438,-24.2813,
5.142269,-0.6582,-0.5499,0.0966,1.1316,1.1040,3.5913,1.6313,33.5438,-24.2813,
5.163615,-0.6582,-0.5499,0.0966,0.9565,1.1270,4.3070,1.6313,33.5438,-24.2813,
5.183332,-0.6582,-0.5499,0.0966,0.9565,1.1270,4.3070,1.6313,33.5438,-24.2813,
5.186613,-0.6582,-0.5499,0.0966,0.9565,1.1270,4.3070,5.0063,33.1688,-24.6938,
5.203590,0.1424,-1.9135,-0.0389,0.9565,1.1270,4.3070,5.0063,33.1688,-24.6938,
5.223347,0.1424,-1.9135,-0.0389,1.0445,0.5637,3.6598,5.0063,33.1688,-24.6938,
5.242627,0.1424,-1.9135,-0.0389,1.0445,0.5637,3.6598,5.0063,33.1688,-24.6938,
5.245483,0.1424,-1.9135,-0.0389,1.0445,0.5637,3.6598,8.7563,31.8188,-24.9750,
5.286018,1.2250,-2.5082,0.2843,1.0445,0.5637,3.6598,8.7563,31.8188,-24.9750,
5.289140,1.2250,-2.5082,0.2843,-0.1220,-0.1161,2.7419,8.7563,31.8188,-24.9750,
5.304246,1.2250,-2.5082,0.2843,-0.1220,-0.1161,2.7419,8.7563,31.8188,-24.9750,
5.307584,1.2250,-2.5082,0.2843,-0.1220,-0.1161,2.7419,12.6375,29.9250,-25.5750,
5.345246,1.2250,-2.5082,0.2843,-0.1439,-0.5779,1.3225,12.6375,29.9250,-25.5750,
5.347330,2.9634,-2.3680,-1.1052,-0.1439,-0.5779,1.3225,12.6375,29.9250,-25.5750,
5.364913,2.9634,-2.3680,-1.1052,-0.1439,-0.5779,1.3225,12.6375,29.9250,-25.5750,
5.366453,2.9634,-2.3680,-1.1052,-0.1439,-0.5779,1.3225,16.8375,27.6000,-26.6063,
5.408148,2.9634,-2.3680,-1.1052,-0.1380,0.0028,0.5305,16.8375,27.6000,-26.6063,
5.410626,1.4224,-2.3535,0.9401,-0.1380,0.0028,0.5305,16.8375,27.6000,-26.6063,
5.427113,1.4224,-2.3535,0.9401,-0.1380,0.0028,0.5305,20.7375,24.6938,-27.7875,
5.428485,1.4224,-2.3535,0.9401,-0.1380,0.0028,0.5305,20.7375,24.6938,-27.7875,
5.467544,1.4224,-2.3535,0.9401,-0.1735,0.0032,0.2969,20.7375,24.6938,-27.7875,
5.490518,1.4224,-2.3535,0.9401,-0.1735,0.0032,0.2969,20.7375,24.6938,-27.7875,
5.491909,1.4224,-2.3535,0.9401,-0.1735,0.0032,0.2969,23.7563,21.7688,-28.6500,
5.492741,0.2624,-1.2618,-0.5908,-0.1735,0.0032,0.2969,23.7563,21.7688,-28.6500,
5.528353,0.2624,-1.2618,-0.5908,-0.1639,0.0369,0.0664,23.7563,21.7688,-28.6500,
5.547282,0.2624,-1.2618,-0.5908,-0.1639,0.0369,0.0664,25.9313,18.8625,-29.1188,
5.548549,0.2624,-1.2618,-0.5908,-0.1639,0.0369,0.0664,25.9313,18.8625,-29.1188,
5.548982,-0.0020,-0.4312,-0.2502,-0.1639,0.0369,0.0664,25.9313,18.8625,-29.1188,
5.590140,-0.0020,-0.4312,-0.2502,-0.1429,0.0269,-0.2083,25.9313,18.8625,-29.1188,
5.608841,-0.0020,-0.4312,-0.2502,-0.1429,0.0269,-0.2083,27.2063,16.6688,-29.4563,
5.611394,-0.0020,-0.4312,-0.2502,-0.1429,0.0269,-0.2083,27.2063,16.6688,-29.4563,
5.612699,0.3627,-0.2329,0.3126,-0.1429,0.0269,-0.2083,27.2063,16.6688,-29.4563,
5.649058,0.3627,-0.2329,0.3126,-0.1852,-0.0629,-0.1991,27.2063,16.6688,-29.4563,
5.666319,0.3627,-0.2329,0.3126,-0.1852,-0.0629,-0.1991,27.6375,15.2438,-29.8313,
5.668951,0.3627,-0.2329,0.3126,-0.1852,-0.0629,-0.1991,27.6375,15.2438,-29.8313,
5.670026,0.1004,-0.0635,0.2893,-0.1852,-0.0629,-0.1991,27.6375,15.2438,-29.8313,
5.709177,0.1004,-0.0635,0.2893,-0.3627,-0.0803,-0.3108,27.6375,15.2438,-29.8313,
5.727020,0.1004,-0.0635,0.2893,-0.3627,-0.0803,-0.3108,27.3188,14.8313,-30.3938,
5.731090,0.1004,-0.0635,0.2893,-0.3627,-0.0803,-0.3108,27.3188,14.8313,-30.3938,
5.751152,0.2319,-0.0492,-0.2510,-0.3627,-0.0803,-0.3108,27.3188,14.8313,-30.3938,
5.771095,0.2319,-0.0492,-0.2510,-0.7254,-0.4036,-0.3382,27.3188,14.8313,-30.3938,
5.788706,0.2319,-0.0492,-0.2510,-0.7254,-0.4036,-0.3382,27.1313,15.0750,-30.6375,
5.790509,0.2319,-0.0492,-0.2510,-0.7254,-0.4036,-0.3382,27.1313,15.0750,-30.6375,
5.811881,0.1143,-0.2384,0.4690,-0.7254,-0.4036,-0.3382,27.1313,15.0750,-30.6375,
5.832100,0.1143,-0.2384,0.4690,-0.4787,-0.2804,0.0442,27.1313,15.0750,-30.6375,
5.846500,0.1143,-0.2384,0.4690,-0.4787,-0.2804,0.0442,26.7188,15.8250,-30.6750,
5.852439,0.1143,-0.2384,0.4690,-0.4787,-0.2804,0.0442,26.7188,15.8250,-30.6750,
5.873680,-0.7568,-0.5480,1.0117,-0.4787,-0.2804,0.0442,26.7188,15.8250,-30.6750,
5.894705,-0.7568,-0.5480,1.0117,-0.1699,0.3603,0.7854,26.7188,15.8250,-30.6750,
5.907563,-0.7568,-0.5480,1.0117,-0.1699,0.3603,0.7854,26.4938,16.3875,-30.8063,
5.913831,-0.7568,-0.5480,1.0117,-0.1699,0.3603,0.7854,26.4938,16.3875,-30.8063,
5.954653,-0.7568,-0.5480,1.0117,0.1162,-0.1963,1.0555,26.4938,16.3875,-30.8063,
5.956356,-1.0631,0.8350,-0.1651,0.1162,-0.1963,1.0555,26.4938,16.3875,-30.8063,
5.968770,-1.0631,0.8350,-0.1651,0.1162,-0.1963,1.0555,26.2313,16.9125,-30.9000,
5.976083,-1.0631,0.8350,-0.1651,0.1162,-0.1963,1.0555,26.2313,16.9125,-30.9000,
6.015856,-1.0631,0.8350,-0.1651,-0.0186,-0.3475,0.8482,26.2313,16.9125,-30.9000,
6.018142,0.8511,0.4281,0.8089,-0.0186,-0.3475,0.8482,26.2313,16.9125,-30.9000,
6.026801,0.8511,0.4281,0.8089,-0.0186,-0.3475,0.8482,25.8938,17.1000,-31.0125,
6.035445,0.8511,0.4281,0.8089,-0.0186,-0.3475,0.8482,25.8938,17.1000,-31.0125,
6.076149,0.8511,0.4281,0.8089,-0.4557,-0.2357,-0.3843,25.8938,17.1000,-31.0125,
6.078366,1.1611,-0.9290,-0.8098,-0.4557,-0.2357,-0.3843,25.8938,17.1000,-31.0125,
6.088386,1.1611,-0.9290,-0.8098,-0.4557,-0.2357,-0.3843,25.5188,17.4563,-31.2375,
6.096419,1.1611,-0.9290,-0.8098,-0.4557,-0.2357,-0.3843,25.5188,17.4563,-31.2375,
6.137951,1.1611,-0.9290,-0.8098,-0.4880,0.1249,-0.8767,25.5188,17.4563,-31.2375,
6.140845,1.6176,-0.4115,-0.2715,-0.4880,0.1249,-0.8767,25.5188,17.4563,-31.2375,
6.147345,1.6176,-0.4115,-0.2715,-0.4880,0.1249,-0.8767,25.3125,17.9438,-31.2188,
6.157234,1.6176,-0.4115,-0.2715,-0.4880,0.1249,-0.8767,25.3125,17.9438,-31.2188,
6.197253,1.6176,-0.4115,-0.2715,-0.1245,0.2340,-0.4567,25.3125,17.9438,-31.2188,
6.205735,1.6176,-0.4115,-0.2715,-0.1245,0.2340,-0.4567,25.2563,18.4500,-31.1625,
6.216834,1.6176,-0.4115,-0.2715,-0.1245,0.2340,-0.4567,25.2563,18.4500,-31.1625,
6.218322,-0.7974,0.1993,-0.1210,-0.1245,0.2340,-0.4567,25.2563,18.4500,-31.1625,
6.258149,-0.7974,0.1993,-0.1210,0.4431,0.1792,0.5330,25.2563,18.4500,-31.1625,
6.266146,-0.7974,0.1993,-0.1210,0.4431,0.1792,0.5330,25.2000,18.7875,-31.3688,
6.278370,-1.7400,0.6057,1.1117,0.4431,0.1792,0.5330,25.2000,18.7875,-31.3688,
6.278931,-1.7400,0.6057,1.1117,0.4431,0.1792,0.5330,25.2000,18.7875,-31.3688,
6.318758,-1.7400,0.6057,1.1117,0.1517,0.2012,0.3278,25.2000,18.7875,-31.3688,
6.325771,-1.7400,0.6057,1.1117,0.1517,0.2012,0.3278,25.3875,18.7125,-31.6500,
6.338687,-1.7400,0.6057,1.1117,0.1517,0.2012,0.3278,25.3875,18.7125,-31.6500,
6.339369,-0.4415,-0.7290,-0.4065,0.1517,0.2012,0.3278,25.3875,18.7125,-31.6500,
6.379865,-0.4415,-0.7290,-0.4065,-0.5147,0.1057,0.0949,25.3875,18.7125,-31.6500,
6.386522,-0.4415,-0.7290,-0.4065,-0.5147,0.1057,0.0949,25.5563,18.6000,-31.8563,
6.400329,-0.4415,-0.7290,-0.4065,-0.5147,0.1057,0.0949,25.5563,18.6000,-31.8563,
6.420200,0.6407,-0.4072,-0.9961,-0.5147,0.1057,0.0949,25.5563,18.6000,-31.8563,
6.440607,0.6407,-0.4072,-0.9961,-0.6882,0.0433,-0.4103,25.5563,18.6000,-31.8563,
6.447127,0.6407,-0.4072,-0.9961,-0.6882,0.0433,-0.4103,25.6500,18.9000,-31.8375,
6.460622,0.6407,-0.4072,-0.9961,-0.6882,0.0433,-0.4103,25.6500,18.9000,-31.8375,
6.482232,1.6598,-0.2337,-0.3705,-0.6882,0.0433,-0.4103,25.6500,18.9000,-31.8375,
6.502311,1.6598,-0.2337,-0.3705,-0.5160,0.3614,0.2028,25.6500,18.9000,-31.8375,
6.507060,1.6598,-0.2337,-0.3705,-0.5160,0.3614,0.2028,25.8000,19.6125,-31.7063,
6.522394,1.6598,-0.2337,-0.3705,-0.5160,0.3614,0.2028,25.8000,19.6125,-31.7063,
6.541745,-1.3890,0.0488,0.3148,-0.5160,0.3614,0.2028,25.8000,19.6125,-31.7063,
6.563266,-1.3890,0.0488,0.3148,-0.3617,0.2044,0.2774,25.8000,19.6125,-31.7063,
6.565781,-1.3890,0.0488,0.3148,-0.3617,0.2044,0.2774,26.2313,20.2313,-31.2938,
6.582816,-1.3890,0.0488,0.3148,-0.3617,0.2044,0.2774,26.2313,20.2313,-31.2938,
6.603713,0.4933,-0.4551,0.6681,-0.3617,0.2044,0.2774,26.2313,20.2313,-31.2938,
6.623507,0.4933,-0.4551,0.6681,0.1602,0.3202,0.2784,26.2313,20.2313,-31.2938,
6.627182,0.4933,-0.4551,0.6681,0.1602,0.3202,0.2784,26.6438,20.5688,-31.1625,
6.644361,0.4933,-0.4551,0.6681,0.1602,0.3202,0.2784,26.6438,20.5688,-31.1625,
6.686232,0.4933,-0.4551,0.6681,0.0662,0.0731,-0.2083,26.6438,20.5688,-31.1625,
6.688170,0.4933,-0.4551,0.6681,0.0662,0.0731,-0.2083,27.2438,20.6625,-30.8063,
6.689200,-0.8717,0.4492,0.8979,0.0662,0.0731,-0.2083,27.2438,20.6625,-30.8063,
6.704941,-0.8717,0.4492,0.8979,0.0662,0.0731,-0.2083,27.2438,20.6625,-30.8063,
6.746613,-0.8717,0.4492,0.8979,0.0662,0.0731,-0.2083,27.7875,20.8500,-30.2438,
6.748904,-0.8717,0.4492,0.8979,-0.1213,0.0897,-0.1266,27.7875,20.8500,-30.2438,
6.750334,1.1793,-0.2654,-0.4446,-0.1213,0.0897,-0.1266,27.7875,20.8500,-30.2438,
6.766898,1.1793,-0.2654,-0.4446,-0.1213,0.0897,-0.1266,27.7875,20.8500,-30.2438,
6.807045,1.1793,-0.2654,-0.4446,-0.1213,0.0897,-0.1266,28.2563,21.2250,-29.8125,
6.808927,1.1793,-0.2654,-0.4446,0.1719,0.1001,-0.0563,28.2563,21.2250,-29.8125,
6.810144,-0.2283,-0.1082,-0.1406,0.1719,0.1001,-0.0563,28.2563,21.2250,-29.8125,
6.826914,-0.2283,-0.1082,-0.1406,0.1719,0.1001,-0.0563,28.2563,21.2250,-29.8125,
6.866714,-0.2283,-0.1082,-0.1406,0.1719,0.1001,-0.0563,28.4625,21.6938,-29.4938,
6.868841,-0.2283,-0.1082,-0.1406,0.2352,0.0369,-0.1848,28.4625,21.6938,-29.4938,
6.889934,-0.2283,-0.1082,-0.1406,0.2352,0.0369,-0.1848,28.4625,21.6938,-29.4938,
6.891209,-0.0364,0.0128,0.0307,0.2352,0.0369,-0.1848,28.4625,21.6938,-29.4938,
6.926838,-0.0364,0.0128,0.0307,0.2352,0.0369,-0.1848,28.7813,21.7313,-29.4000,
6.927873,-0.0364,0.0128,0.0307,-0.1262,-0.2546,0.0395,28.7813,21.7313,-29.4000,
6.947559,-0.0364,0.0128,0.0307,-0.1262,-0.2546,0.0395,28.7813,21.7313,-29.4000,
6.948278,0.0208,0.0302,-0.4693,-0.1262,-0.2546,0.0395,28.7813,21.7313,-29.4000,
6.986481,0.0208,0.0302,-0.4693,-0.1262,-0.2546,0.0395,28.9688,21.8250,-29.4000,
6.989401,0.0208,0.0302,-0.4693,0.1559,-0.1133,-0.3836,28.9688,21.8250,-29.4000,
7.009145,0.0208,0.0302,-0.4693,0.1559,-0.1133,-0.3836,28.9688,21.8250,-29.4000,
7.010558,0.2612,-0.0883,-0.0209,0.1559,-0.1133,-0.3836,28.9688,21.8250,-29.4000,
7.047202,0.2612,-0.0883,-0.0209,0.1559,-0.1133,-0.3836,29.0063,21.6938,-29.4938,
7.049707,0.2612,-0.0883,-0.0209,0.2533,0.1931,0.0722,29.0063,21.6938,-29.4938,
7.071643,0.2612,-0.0883,-0.0209,0.2533,0.1931,0.0722,29.0063,21.6938,-29.4938,
7.072672,-0.3323,-0.2230,0.1713,0.2533,0.1931,0.0722,29.0063,21.6938,-29.4938,
7.107207,-0.3323,-0.2230,0.1713,0.2533,0.1931,0.0722,29.1000,21.4875,-29.3438,
7.110009,-0.3323,-0.2230,0.1713,0.3164,0.5907,0.0971,29.1000,21.4875,-29.3438,
7.131915,-0.3323,-0.2230,0.1713,0.3164,0.5907,0.0971,29.1000,21.4875,-29.3438,
7.152207,0.2896,-0.2806,-0.3693,0.3164,0.5907,0.0971,29.1000,21.4875,-29.3438,
7.167618,0.2896,-0.2806,-0.3693,0.3164,0.5907,0.0971,29.1750,21.1125,-29.2688,
7.172586,0.2896,-0.2806,-0.3693,-0.0123,0.6084,-0.0585,29.1750,21.1125,-29.2688,
7.193386,0.2896,-0.2806,-0.3693,-0.0123,0.6084,-0.0585,29.1750,21.1125,-29.2688,
7.213153,0.5885,0.1219,-0.3373,-0.0123,0.6084,-0.0585,29.1750,21.1125,-29.2688,
7.226605,0.5885,0.1219,-0.3373,-0.0123,0.6084,-0.0585,29.3250,20.7375,-29.1938,
7.232249,0.5885,0.1219,-0.3373,0.4429,0.4722,0.0935,29.3250,20.7375,-29.1938,
7.252510,0.5885,0.1219,-0.3373,0.4429,0.4722,0.0935,29.3250,20.7375,-29.1938,
7.274207,0.3029,-0.2202,0.1208,0.4429,0.4722,0.0935,29.3250,20.7375,-29.1938,
7.286787,0.3029,-0.2202,0.1208,0.4429,0.4722,0.0935,29.8875,20.0813,-29.0625,
7.292702,0.3029,-0.2202,0.1208,1.7843,0.2233,-0.1111,29.8875,20.0813,-29.0625,
7.315153,0.3029,-0.2202,0.1208,1.7843,0.2233,-0.1111,29.8875,20.0813,-29.0625,
7.334395,-0.0123,-1.3203,0.9108,1.7843,0.2233,-0.1111,29.8875,20.0813,-29.0625,
7.346351,-0.0123,-1.3203,0.9108,1.7843,0.2233,-0.1111,30.4688,19.0688,-28.9125,
7.355503,-0.0123,-1.3203,0.9108,0.2124,-0.3266,-0.9890,30.4688,19.0688,-28.9125,
7.375162,-0.0123,-1.3203,0.9108,0.2124,-0.3266,-0.9890,30.4688,19.0688,-28.9125,
7.407123,-0.0123,-1.3203,0.9108,0.2124,-0.3266,-0.9890,30.9750,18.3188,-28.7063,
7.415392,-0.0123,-1.3203,0.9108,0.2823,0.7188,-0.0431,30.9750,18.3188,-28.7063,
7.416143,0.2760,-0.1934,-0.9457,0.2823,0.7188,-0.0431,30.9750,18.3188,-28.7063,
7.435661,0.2760,-0.1934,-0.9457,0.2823,0.7188,-0.0431,30.9750,18.3188,-28.7063,
7.466718,0.2760,-0.1934,-0.9457,0.2823,0.7188,-0.0431,31.9125,17.3813,-28.2938,
7.475308,0.2760,-0.1934,-0.9457,0.4493,1.6084,0.2738,31.9125,17.3813,-28.2938,
7.476093,-0.8316,0.3539,-0.2905,0.4493,1.6084,0.2738,31.9125,17.3813,-28.2938,
7.496630,-0.8316,0.3539,-0.2905,0.4493,1.6084,0.2738,31.9125,17.3813,-28.2938,
7.526625,-0.8316,0.3539,-0.2905,0.4493,1.6084,0.2738,33.3938,16.5375,-27.4313,
7.536768,-0.8316,0.3539,-0.2905,-0.3041,1.6382,0.0197,33.3938,16.5375,-27.4313,
7.539016,0.0831,0.5375,-1.0982,-0.3041,1.6382,0.0197,33.3938,16.5375,-27.4313,
7.558229,0.0831,0.5375,-1.0982,-0.3041,1.6382,0.0197,33.3938,16.5375,-27.4313,
7.586887,0.0831,0.5375,-1.0982,-0.3041,1.6382,0.0197,35.0063,15.7688,-26.5500,
7.598778,0.0831,0.5375,-1.0982,0.1770,0.3933,-0.3574,35.0063,15.7688,-26.5500,
7.619213,0.0831,0.5375,-1.0982,0.1770,0.3933,-0.3574,35.0063,15.7688,-26.5500,
7.621877,0.0715,-0.2721,0.2051,0.1770,0.3933,-0.3574,35.0063,15.7688,-26.5500,
7.647049,0.0715,-0.2721,0.2051,0.1770,0.3933,-0.3574,36.4875,15.0750,-25.5188,
7.659539,0.0715,-0.2721,0.2051,0.5554,0.1332,-0.3293,36.4875,15.0750,-25.5188,
7.679853,0.0715,-0.2721,0.2051,0.5554,0.1332,-0.3293,36.4875,15.0750,-25.5188,
7.680827,0.5249,0.4012,1.1685,0.5554,0.1332,-0.3293,36.4875,15.0750,-25.5188,
7.708304,0.5249,0.4012,1.1685,0.5554,0.1332,-0.3293,37.8938,14.2688,-24.4500,
7.720755,0.5249,0.4012,1.1685,0.5117,1.0341,-0.0485,37.8938,14.2688,-24.4500,
7.740890,0.5249,0.4012,1.1685,0.5117,1.0341,-0.0485,37.8938,14.2688,-24.4500,
7.742632,-0.0310,-0.5746,0.2059,0.5117,1.0341,-0.0485,37.8938,14.2688,-24.4500,
7.765028,-0.0310,-0.5746,0.2059,0.5117,1.0341,-0.0485,39.2250,13.7438,-23.1000,
7.780195,-0.0310,-0.5746,0.2059,-0.0272,0.7827,0.0413,39.2250,13.7438,-23.1000,
7.800819,-0.0310,-0.5746,0.2059,-0.0272,0.7827,0.0413,39.2250,13.7438,-23.1000,
7.802398,-0.2435,0.5076,-1.5115,-0.0272,0.7827,0.0413,39.2250,13.7438,-23.1000,
7.826041,-0.2435,0.5076,-1.5115,-0.0272,0.7827,0.0413,40.7438,13.5375,-21.7125,
7.841070,-0.2435,0.5076,-1.5115,0.4854,0.2361,-0.0727,40.7438,13.5375,-21.7125,
7.861393,-0.2435,0.5076,-1.5115,0.4854,0.2361,-0.0727,40.7438,13.5375,-21.7125,
7.881832,0.0782,1.2102,0.1590,0.4854,0.2361,-0.0727,40.7438,13.5375,-21.7125,
7.885862,0.0782,1.2102,0.1590,0.4854,0.2361,-0.0727,42.3563,13.3500,-20.3063,
7.901627,0.0782,1.2102,0.1590,-1.2835,0.6063,0.2079,42.3563,13.3500,-20.3063,
7.922666,0.0782,1.2102,0.1590,-1.2835,0.6063,0.2079,42.3563,13.3500,-20.3063,
7.942642,-0.1393,0.9077,-1.6918,-1.2835,0.6063,0.2079,42.3563,13.3500,-20.3063,
7.947631,-0.1393,0.9077,-1.6918,-1.2835,0.6063,0.2079,43.9313,13.4813,-18.7688,
7.963441,-0.1393,0.9077,-1.6918,-2.1601,0.1587,0.0611,43.9313,13.4813,-18.7688,
7.984137,-0.1393,0.9077,-1.6918,-2.1601,0.1587,0.0611,43.9313,13.4813,-18.7688,
8.003884,-0.5139,1.5888,-0.0826,-2.1601,0.1587,0.0611,43.9313,13.4813,-18.7688,
8.006226,-0.5139,1.5888,-0.0826,-2.1601,0.1587,0.0611,44.6063,13.8375,-18.1875,
8.024273,-0.5139,1.5888,-0.0826,-1.7135,-1.9252,-0.0983,44.6063,13.8375,-18.1875,
8.044244,-0.5139,1.5888,-0.0826,-1.7135,-1.9252,-0.0983,44.6063,13.8375,-18.1875,
8.066670,-0.5139,1.5888,-0.0826,-1.7135,-1.9252,-0.0983,44.9250,14.7938,-18.8250,
8.085753,-0.5139,1.5888,-0.0826,-1.4216,-3.1982,0.2277,44.9250,14.7938,-18.8250,
8.088275,-0.4385,-0.0751,3.0892,-1.4216,-3.1982,0.2277,44.9250,14.7938,-18.8250,
8.106477,-0.4385,-0.0751,3.0892,-1.4216,-3.1982,0.2277,44.9250,14.7938,-18.8250,
8.126749,-0.4385,-0.0751,3.0892,-1.4216,-3.1982,0.2277,44.1188,15.6750,-19.5000,
8.147009,-0.4385,-0.0751,3.0892,-0.7152,-2.2003,0.7467,44.1188,15.6750,-19.5000,
8.148653,-0.5769,1.6943,3.1627,-0.7152,-2.2003,0.7467,44.1188,15.6750,-19.5000,
8.168019,-0.5769,1.6943,3.1627,-0.7152,-2.2003,0.7467,44.1188,15.6750,-19.5000,
8.189019,-0.5769,1.6943,3.1627,-0.7152,-2.2003,0.7467,43.1625,16.7438,-20.4000,
8.207735,-0.5769,1.6943,3.1627,-0.6783,1.1492,0.8056,43.1625,16.7438,-20.4000,
8.209219,1.0668,2.2119,-0.5504,-0.6783,1.1492,0.8056,43.1625,16.7438,-20.4000,
8.228224,1.0668,2.2119,-0.5504,-0.6783,1.1492,0.8056,43.1625,16.7438,-20.4000,
8.247728,1.0668,2.2119,-0.5504,-0.6783,1.1492,0.8056,42.3188,17.4750,-21.1500,
8.268084,1.0668,2.2119,-0.5504,0.5948,1.0784,1.5344,42.3188,17.4750,-21.1500,
8.270330,-2.8306,1.5265,-0.5530,0.5948,1.0784,1.5344,42.3188,17.4750,-21.1500,
8.289437,-2.8306,1.5265,-0.5530,0.5948,1.0784,1.5344,42.3188,17.4750,-21.1500,
8.306830,-2.8306,1.5265,-0.5530,0.5948,1.0784,1.5344,41.6438,17.7188,-21.4688,
8.329275,-2.8306,1.5265,-0.5530,-0.3623,0.9354,1.2288,41.6438,17.7188,-21.4688,
8.350319,-2.8306,1.5265,-0.5530,-0.3623,0.9354,1.2288,41.6438,17.7188,-21.4688,
8.352460,0.8064,-1.3877,-0.0971,-0.3623,0.9354,1.2288,41.6438,17.7188,-21.4688,
8.367322,0.8064,-1.3877,-0.0971,-0.3623,0.9354,1.2288,41.3250,17.7750,-21.5625,
8.390621,0.8064,-1.3877,-0.0971,-1.8984,1.6340,1.6931,41.3250,17.7750,-21.5625,
8.410830,0.8064,-1.3877,-0.0971,-1.8984,1.6340,1.6931,41.3250,17.7750,-21.5625,
8.412100,-1.2540,-1.4047,-1.6793,-1.8984,1.6340,1.6931,41.3250,17.7750,-21.5625,
8.426792,-1.2540,-1.4047,-1.6793,-1.8984,1.6340,1.6931,40.8375,18.1688,-22.3313,
8.451206,-1.2540,-1.4047,-1.6793,-3.6730,1.1396,0.4943,40.8375,18.1688,-22.3313,
8.471684,-1.2540,-1.4047,-1.6793,-3.6730,1.1396,0.4943,40.8375,18.1688,-22.3313,
8.472741,0.9037,-1.1060,-0.5031,-3.6730,1.1396,0.4943,40.8375,18.1688,-22.3313,
8.487714,0.9037,-1.1060,-0.5031,-3.6730,1.1396,0.4943,40.8750,18.2063,-21.5250,
8.512008,0.9037,-1.1060,-0.5031,-3.7437,0.6784,0.7755,40.8750,18.2063,-21.5250,
8.532192,0.9037,-1.1060,-0.5031,-3.7437,0.6784,0.7755,40.8750,18.2063,-21.5250,
8.548636,0.9037,-1.1060,-0.5031,-3.7437,0.6784,0.7755,41.5688,17.5500,-20.9062,
8.551948,0.4075,-0.5330,-0.9856,-3.7437,0.6784,0.7755,41.5688,17.5500,-20.9062,
8.572734,0.4075,-0.5330,-0.9856,-1.4533,0.5530,0.8983,41.5688,17.5500,-20.9062,
8.593299,0.4075,-0.5330,-0.9856,-1.4533,0.5530,0.8983,41.5688,17.5500,-20.9062,
8.606847,0.4075,-0.5330,-0.9856,-1.4533,0.5530,0.8983,43.2750,17.4188,-18.3750,
8.614882,0.5863,-0.7756,1.8328,-1.4533,0.5530,0.8983,43.2750,17.4188,-18.3750,
8.634197,0.5863,-0.7756,1.8328,0.0687,0.1664,0.5689,43.2750,17.4188,-18.3750,
8.654386,0.5863,-0.7756,1.8328,0.0687,0.1664,0.5689,43.2750,17.4188,-18.3750,
8.666995,0.5863,-0.7756,1.8328,0.0687,0.1664,0.5689,45.0750,17.0625,-15.7125,
8.674352,1.4300,-0.4366,0.5836,0.0687,0.1664,0.5689,45.0750,17.0625,-15.7125,
8.694578,1.4300,-0.4366,0.5836,-1.2498,0.2481,0.3509,45.0750,17.0625,-15.7125,
8.716268,1.4300,-0.4366,0.5836,-1.2498,0.2481,0.3509,45.0750,17.0625,-15.7125,
8.726982,1.4300,-0.4366,0.5836,-1.2498,0.2481,0.3509,46.7250,17.1000,-13.0688,
8.735382,0.5193,0.8716,-0.3846,-1.2498,0.2481,0.3509,46.7250,17.1000,-13.0688,
8.755489,0.5193,0.8716,-0.3846,-2.1145,1.1040,-0.0474,46.7250,17.1000,-13.0688,
8.775825,0.5193,0.8716,-0.3846,-2.1145,1.1040,-0.0474,46.7250,17.1000,-13.0688,
8.787802,0.5193,0.8716,-0.3846,-2.1145,1.1040,-0.0474,48.0188,17.7375,-10.5750,
8.816174,0.5193,0.8716,-0.3846,-1.5185,-0.1051,0.6281,48.0188,17.7375,-10.5750,
8.817858,-0.0391,3.5886,3.3960,-1.5185,-0.1051,0.6281,48.0188,17.7375,-10.5750,
8.837004,-0.0391,3.5886,3.3960,-1.5185,-0.1051,0.6281,48.0188,17.7375,-10.5750,
8.847025,-0.0391,3.5886,3.3960,-1.5185,-0.1051,0.6281,48.9375,18.4688,-8.2500,
8.877525,-0.0391,3.5886,3.3960,-0.1258,0.2766,-0.6645,48.9375,18.4688,-8.2500,
8.880416,0.3027,0.6511,-0.8996,-0.1258,0.2766,-0.6645,48.9375,18.4688,-8.2500,
8.897972,0.3027,0.6511,-0.8996,-0.1258,0.2766,-0.6645,48.9375,18.4688,-8.2500,
8.907775,0.3027,0.6511,-0.8996,-0.1258,0.2766,-0.6645,48.9188,15.4313,-7.7438,
8.938799,0.3027,0.6511,-0.8996,0.0911,0.3816,-0.6457,48.9188,15.4313,-7.7438,
8.940052,0.3181,-1.4771,1.1605,0.0911,0.3816,-0.6457,48.9188,15.4313,-7.7438,
8.959522,0.3181,-1.4771,1.1605,0.0911,0.3816,-0.6457,48.9188,15.4313,-7.7438,
8.965297,0.3181,-1.4771,1.1605,0.0911,0.3816,-0.6457,49.2750,15.8250,-6.2813,
8.999121,0.3181,-1.4771,1.1605,-0.6918,0.1392,0.0218,49.2750,15.8250,-6.2813,
9.020562,0.3181,-1.4771,1.1605,-0.6918,0.1392,0.0218,49.2750,15.8250,-6.2813,
9.022574,-2.3720,-1.6919,-2.3499,-0.6918,0.1392,0.0218,49.2750,15.8250,-6.2813,
9.026988,-2.3720,-1.6919,-2.3499,-0.6918,0.1392,0.0218,49.5375,15.7875,-4.8563,
9.060637,-2.3720,-1.6919,-2.3499,-0.1162,-0.1306,0.2079,49.5375,15.7875,-4.8563,
9.081040,-2.3720,-1.6919,-2.3499,-0.1162,-0.1306,0.2079,49.5375,15.7875,-4.8563,
9.082593,0.2124,-0.8989,-1.6463,-0.1162,-0.1306,0.2079,49.5375,15.7875,-4.8563,
9.087731,0.2124,-0.8989,-1.6463,-0.1162,-0.1306,0.2079,49.6125,15.9000,-3.7500,
9.121207,0.2124,-0.8989,-1.6463,0.3864,-0.4451,-0.4936,49.6125,15.9000,-3.7500,
9.142168,0.2124,-0.8989,-1.6463,0.3864,-0.4451,-0.4936,49.6125,15.9000,-3.7500,
9.144004,0.4700,0.4295,-1.2320,0.3864,-0.4451,-0.4936,49.6125,15.9000,-3.7500,
9.149869,0.4700,0.4295,-1.2320,0.3864,-0.4451,-0.4936,49.6125,16.2563,-2.9813,
9.182349,0.4700,0.4295,-1.2320,0.1133,-0.2819,0.3502,49.6125,16.2563,-2.9813,
9.202948,0.4700,0.4295,-1.2320,0.1133,-0.2819,0.3502,49.6125,16.2563,-2.9813,
9.205196,-0.8657,-0.1810,-1.6945,0.1133,-0.2819,0.3502,49.6125,16.2563,-2.9813,
9.206870,-0.8657,-0.1810,-1.6945,0.1133,-0.2819,0.3502,49.3688,16.3125,-2.6250,
9.242666,-0.8657,-0.1810,-1.6945,0.1009,-0.0656,-0.0471,49.3688,16.3125,-2.6250,
9.263887,-0.8657,-0.1810,-1.6945,0.1009,-0.0656,-0.0471,49.3688,16.3125,-2.6250,
9.265506,-0.8657,-0.1810,-1.6945,0.1009,-0.0656,-0.0471,49.2563,16.5000,-2.4750,
9.283112,-0.3643,0.0371,-1.0599,0.1009,-0.0656,-0.0471,49.2563,16.5000,-2.4750,
9.303326,-0.3643,0.0371,-1.0599,-0.4394,-0.1423,-0.0112,49.2563,16.5000,-2.4750,
9.324019,-0.3643,0.0371,-1.0599,-0.4394,-0.1423,-0.0112,49.2563,16.5000,-2.4750,
9.326401,-0.3643,0.0371,-1.0599,-0.4394,-0.1423,-0.0112,49.0125,16.8375,-2.5688,
9.344456,-0.6621,-0.1365,-0.7884,-0.4394,-0.1423,-0.0112,49.0125,16.8375,-2.5688,
9.365448,-0.6621,-0.1365,-0.7884,-0.3928,0.0901,-0.0957,49.0125,16.8375,-2.5688,
9.384723,-0.6621,-0.1365,-0.7884,-0.3928,0.0901,-0.0957,49.0125,16.8375,-2.5688,
9.385682,-0.6621,-0.1365,-0.7884,-0.3928,0.0901,-0.0957,48.7875,16.8563,-2.4375,
9.404655,-0.3644,-0.2599,0.0004,-0.3928,0.0901,-0.0957,48.7875,16.8563,-2.4375,
9.425979,-0.3644,-0.2599,0.0004,-0.0080,0.1068,0.0871,48.7875,16.8563,-2.4375,
9.446091,-0.3644,-0.2599,0.0004,-0.0080,0.1068,0.0871,48.7875,16.8563,-2.4375,
9.447355,-0.3644,-0.2599,0.0004,-0.0080,0.1068,0.0871,48.8438,16.8938,-2.5875,
9.490020,-0.3644,-0.2599,0.0004,-0.0329,0.0429,0.0559,48.8438,16.8938,-2.5875,
9.492040,0.2770,-0.1735,-0.1549,-0.0329,0.0429,0.0559,48.8438,16.8938,-2.5875,
9.508088,0.2770,-0.1735,-0.1549,-0.0329,0.0429,0.0559,48.8438,16.8938,-2.5875,
9.509845,0.2770,-0.1735,-0.1549,-0.0329,0.0429,0.0559,48.5625,16.8000,-2.8500,
9.548080,0.2770,-0.1735,-0.1549,0.6338,-0.0277,0.0406,48.5625,16.8000,-2.8500,
9.550013,0.3082,-0.1091,-0.0620,0.6338,-0.0277,0.0406,48.5625,16.8000,-2.8500,
9.567474,0.3082,-0.1091,-0.0620,0.6338,-0.0277,0.0406,48.6188,16.8188,-3.0188,
9.568360,0.3082,-0.1091,-0.0620,0.6338,-0.0277,0.0406,48.6188,16.8188,-3.0188,
