
time,ax,ay,az,wx,wy,wz,Bx,By,Bz,
0.076932,0.0000,0.0000,0.0000,0.0000,0.0000,0.0000,0.0000,0.0000,0.0000,
0.108806,0.0000,0.0000,0.0000,0.0000,0.0000,0.0000,45.6562,17.4188,1.1250,
0.117364,0.0000,0.0000,0.0000,0.0390,-0.0181,-0.0226,45.6562,17.4188,1.1250,
0.137465,0.0000,0.0000,0.0000,0.0390,-0.0181,-0.0226,45.6562,17.4188,1.1250,
0.168313,0.0000,0.0000,0.0000,0.0390,-0.0181,-0.0226,46.6875,17.4563,1.5188,
0.178716,0.0000,0.0000,0.0000,0.0390,-0.0181,-0.0226,46.6875,17.4563,1.5188,
0.180182,0.0000,0.0000,0.0000,0.0479,-0.0266,-0.0158,46.6875,17.4563,1.5188,
0.200143,0.0000,0.0000,0.0000,0.0479,-0.0266,-0.0158,46.6875,17.4563,1.5188,
0.228047,0.0000,0.0000,0.0000,0.0479,-0.0266,-0.0158,46.4813,17.5500,1.3875,
0.238878,0.0000,0.0000,0.0000,0.0501,0.0152,-0.0013,46.4813,17.5500,1.3875,
0.240148,0.0102,-0.0027,0.0046,0.0501,0.0152,-0.0013,46.4813,17.5500,1.3875,
0.260259,0.0102,-0.0027,0.0046,0.0501,0.0152,-0.0013,46.4813,17.5500,1.3875,
0.287236,0.0102,-0.0027,0.0046,0.0501,0.0152,-0.0013,46.7625,17.7188,1.4250,
0.299810,0.0102,-0.0027,0.0046,0.0533,0.0482,0.0149,46.7625,17.7188,1.4250,
0.301654,0.0374,-0.0145,-0.0122,0.0533,0.0482,0.0149,46.7625,17.7188,1.4250,
0.320518,0.0374,-0.0145,-0.0122,0.0533,0.0482,0.0149,46.7625,17.7188,1.4250,
0.348928,0.0374,-0.0145,-0.0122,0.0533,0.0482,0.0149,46.8188,17.9813,1.1813,
0.360951,0.0374,-0.0145,-0.0122,0.0475,-0.0543,-0.0337,46.8188,17.9813,1.1813,
0.382955,0.0374,-0.0145,-0.0122,0.0475,-0.0543,-0.0337,46.8188,17.9813,1.1813,
0.384189,-0.0648,0.0109,0.0123,0.0475,-0.0543,-0.0337,46.8188,17.9813,1.1813,
0.410435,-0.0648,0.0109,0.0123,0.0475,-0.0543,-0.0337,46.7812,17.8125,1.2938,
0.421503,-0.0648,0.0109,0.0123,0.0663,-0.0146,-0.0177,46.7812,17.8125,1.2938,
0.442474,-0.0648,0.0109,0.0123,0.0663,-0.0146,-0.0177,46.7812,17.8125,1.2938,
0.443980,-0.0143,0.0309,-0.0110,0.0663,-0.0146,-0.0177,46.7812,17.8125,1.2938,
0.467686,-0.0143,0.0309,-0.0110,0.0663,-0.0146,-0.0177,46.6125,17.8125,1.2750,
0.482509,-0.0143,0.0309,-0.0110,0.0791,-0.0430,-0.0340,46.6125,17.8125,1.2750,
0.503401,-0.0143,0.0309,-0.0110,0.0791,-0.0430,-0.0340,46.6125,17.8125,1.2750,
0.504361,-0.0537,-0.0166,-0.0175,0.0791,-0.0430,-0.0340,46.6125,17.8125,1.2750,
0.528762,-0.0537,-0.0166,-0.0175,0.0791,-0.0430,-0.0340,46.6500,17.7938,1.2000,
0.543648,-0.0537,-0.0166,-0.0175,0.1722,-0.0281,-0.0361,46.6500,17.7938,1.2000,
0.564919,-0.0537,-0.0166,-0.0175,0.1722,-0.0281,-0.0361,46.6500,17.7938,1.2000,
0.583860,0.1004,-0.0580,0.0224,0.1722,-0.0281,-0.0361,46.6500,17.7938,1.2000,
0.586898,0.1004,-0.0580,0.0224,0.1722,-0.0281,-0.0361,46.7625,17.8875,1.1813,
0.604727,0.1004,-0.0580,0.0224,0.2208,-0.1027,-0.0557,46.7625,17.8875,1.1813,
0.624809,0.1004,-0.0580,0.0224,0.2208,-0.1027,-0.0557,46.7625,17.8875,1.1813,
0.645621,-0.0534,0.0169,-0.1262,0.2208,-0.1027,-0.0557,46.7625,17.8875,1.1813,
0.646949,-0.0534,0.0169,-0.1262,0.2208,-0.1027,-0.0557,46.6688,17.9625,0.9563,
0.665177,-0.0534,0.0169,-0.1262,0.1711,-0.0594,-0.0241,46.6688,17.9625,0.9563,
0.685626,-0.0534,0.0169,-0.1262,0.1711,-0.0594,-0.0241,46.6688,17.9625,0.9563,
0.706856,-0.0094,0.0709,-0.0578,0.1711,-0.0594,-0.0241,46.6688,17.9625,0.9563,
0.709218,-0.0094,0.0709,-0.0578,0.1711,-0.0594,-0.0241,46.6688,18.0750,0.8625,
0.725978,-0.0094,0.0709,-0.0578,0.1044,-0.0636,-0.0382,46.6688,18.0750,0.8625,
0.745647,-0.0094,0.0709,-0.0578,0.1044,-0.0636,-0.0382,46.6688,18.0750,0.8625,
0.767045,-0.0094,0.0709,-0.0578,0.1044,-0.0636,-0.0382,46.4625,18.1125,0.4875,
0.767772,-0.0814,0.0344,-0.0059,0.1044,-0.0636,-0.0382,46.4625,18.1125,0.4875,
0.789799,-0.0814,0.0344,-0.0059,0.0748,-0.0164,-0.0145,46.4625,18.1125,0.4875,
0.807369,-0.0814,0.0344,-0.0059,0.0748,-0.0164,-0.0145,46.4625,18.1125,0.4875,
0.829227,-0.0814,0.0344,-0.0059,0.0748,-0.0164,-0.0145,46.4438,18.1125,0.2812,
0.847836,-0.0814,0.0344,-0.0059,0.0550,0.0107,0.0047,46.4438,18.1125,0.2812,
0.848965,0.0393,0.0276,0.0063,0.0550,0.0107,0.0047,46.4438,18.1125,0.2812,
0.868223,0.0393,0.0276,0.0063,0.0550,0.0107,0.0047,46.4438,18.1125,0.2812,
0.889234,0.0393,0.0276,0.0063,0.0550,0.0107,0.0047,46.3688,18.4313,-0.0750,
0.909144,0.0393,0.0276,0.0063,0.0479,0.0241,0.0057,46.3688,18.4313,-0.0750,
0.910141,0.0554,0.0136,0.0388,0.0479,0.0241,0.0057,46.3688,18.4313,-0.0750,
0.929764,0.0554,0.0136,0.0388,0.0479,0.0241,0.0057,46.3688,18.4313,-0.0750,
0.947565,0.0554,0.0136,0.0388,0.0479,0.0241,0.0057,46.4438,18.5625,-0.3375,
0.969898,0.0554,0.0136,0.0388,0.0859,-0.0136,0.0011,46.4438,18.5625,-0.3375,
0.970892,-0.0290,-0.0190,0.0283,0.0859,-0.0136,0.0011,46.4438,18.5625,-0.3375,
0.989942,-0.0290,-0.0190,0.0283,0.0859,-0.0136,0.0011,46.4438,18.5625,-0.3375,
1.007072,-0.0290,-0.0190,0.0283,0.0859,-0.0136,0.0011,46.4625,18.8625,-0.6562,
1.030537,-0.0290,-0.0190,0.0283,0.1289,-0.0149,-0.0067,46.4625,18.8625,-0.6562,
1.051663,-0.0290,-0.0190,0.0283,0.1289,-0.0149,-0.0067,46.4625,18.8625,-0.6562,
1.052833,0.0445,-0.0157,0.0241,0.1289,-0.0149,-0.0067,46.4625,18.8625,-0.6562,
1.067810,0.0445,-0.0157,0.0241,0.1289,-0.0149,-0.0067,46.4250,18.8625,-0.8063,
1.091927,0.0445,-0.0157,0.0241,0.1807,-0.0426,-0.0148,46.4250,18.8625,-0.8063,
1.112692,-0.0387,0.0130,-0.0462,0.1807,-0.0426,-0.0148,46.4250,18.8625,-0.8063,
1.113767,-0.0387,0.0130,-0.0462,0.1807,-0.0426,-0.0148,46.4250,18.8625,-0.8063,
1.127776,-0.0387,0.0130,-0.0462,0.1807,-0.0426,-0.0148,46.2750,18.9938,-1.0312,
1.152361,-0.0387,0.0130,-0.0462,0.2811,-0.0920,-0.0134,46.2750,18.9938,-1.0312,
1.172697,-0.0387,0.0130,-0.0462,0.2811,-0.0920,-0.0134,46.2750,18.9938,-1.0312,
1.173714,0.0118,-0.0351,-0.1076,0.2811,-0.0920,-0.0134,46.2750,18.9938,-1.0312,
1.188232,0.0118,-0.0351,-0.1076,0.2811,-0.0920,-0.0134,46.4062,19.1063,-1.3688,
1.213422,0.0118,-0.0351,-0.1076,0.3358,-0.0515,-0.0003,46.4062,19.1063,-1.3688,
1.234237,0.0308,-0.0196,-0.1751,0.3358,-0.0515,-0.0003,46.4062,19.1063,-1.3688,
1.235284,0.0308,-0.0196,-0.1751,0.3358,-0.0515,-0.0003,46.4062,19.1063,-1.3688,
1.247640,0.0308,-0.0196,-0.1751,0.3358,-0.0515,-0.0003,46.4250,19.1063,-1.5563,
1.274332,0.0308,-0.0196,-0.1751,0.2751,-0.0083,0.0051,46.4250,19.1063,-1.5563,
1.296493,0.0308,-0.0196,-0.1751,0.2751,-0.0083,0.0051,46.4250,19.1063,-1.5563,
1.307322,0.0308,-0.0196,-0.1751,0.2751,-0.0083,0.0051,46.3688,19.0125,-1.5938,
1.314782,0.0183,0.0334,0.0294,0.2751,-0.0083,0.0051,46.3688,19.0125,-1.5938,
1.335630,0.0183,0.0334,0.0294,0.2613,-0.0238,-0.0052,46.3688,19.0125,-1.5938,
1.355710,0.0183,0.0334,0.0294,0.2613,-0.0238,-0.0052,46.3688,19.0125,-1.5938,
1.367824,0.0183,0.0334,0.0294,0.2613,-0.0238,-0.0052,46.5188,18.9188,-1.8563,
1.375867,-0.0217,0.0386,0.0020,0.2613,-0.0238,-0.0052,46.5188,18.9188,-1.8563,
1.396379,-0.0217,0.0386,0.0020,0.2868,0.0075,0.0083,46.5188,18.9188,-1.8563,
1.416395,-0.0217,0.0386,0.0020,0.2868,0.0075,0.0083,46.5188,18.9188,-1.8563,
1.429456,-0.0217,0.0386,0.0020,0.2868,0.0075,0.0083,46.6875,18.8813,-2.1375,
1.438642,0.0409,0.0176,-0.0183,0.2868,0.0075,0.0083,46.6875,18.8813,-2.1375,
1.456979,0.0409,0.0176,-0.0183,0.3597,0.0024,0.0053,46.6875,18.8813,-2.1375,
1.477702,0.0409,0.0176,-0.0183,0.3597,0.0024,0.0053,46.6875,18.8813,-2.1375,
1.487645,0.0409,0.0176,-0.0183,0.3597,0.0024,0.0053,46.6125,18.7125,-2.3063,
1.519452,0.0409,0.0176,-0.0183,0.4270,0.0280,0.0089,46.6125,18.7125,-2.3063,
1.521104,0.0002,-0.0534,-0.1281,0.4270,0.0280,0.0089,46.6125,18.7125,-2.3063,
1.538153,0.0002,-0.0534,-0.1281,0.4270,0.0280,0.0089,46.6125,18.7125,-2.3063,
1.547878,0.0002,-0.0534,-0.1281,0.4270,0.0280,0.0089,46.6500,18.8813,-2.7188,
1.579531,0.0002,-0.0534,-0.1281,0.5009,-0.0234,-0.0077,46.6500,18.8813,-2.7188,
1.581154,-0.0183,-0.0083,-0.1105,0.5009,-0.0234,-0.0077,46.6500,18.8813,-2.7188,
1.599712,-0.0183,-0.0083,-0.1105,0.5009,-0.0234,-0.0077,46.6500,18.8813,-2.7188,
1.608464,-0.0183,-0.0083,-0.1105,0.5009,-0.0234,-0.0077,46.6875,18.8625,-3.0188,
1.639986,-0.0183,-0.0083,-0.1105,0.6060,-0.0324,-0.0244,46.6875,18.8625,-3.0188,
1.642599,0.0179,-0.0048,-0.1917,0.6060,-0.0324,-0.0244,46.6875,18.8625,-3.0188,
1.662213,0.0179,-0.0048,-0.1917,0.6060,-0.0324,-0.0244,46.6875,18.8625,-3.0188,
1.667745,0.0179,-0.0048,-0.1917,0.6060,-0.0324,-0.0244,46.7063,18.8250,-3.4688,
1.701005,0.0179,-0.0048,-0.1917,0.7689,-0.0185,-0.0194,46.7063,18.8250,-3.4688,
1.702558,-0.0561,-0.0471,-0.2990,0.7689,-0.0185,-0.0194,46.7063,18.8250,-3.4688,
1.721022,-0.0561,-0.0471,-0.2990,0.7689,-0.0185,-0.0194,46.7063,18.8250,-3.4688,
1.729100,-0.0561,-0.0471,-0.2990,0.7689,-0.0185,-0.0194,46.6500,18.8625,-3.7500,
1.761506,-0.0561,-0.0471,-0.2990,0.9653,0.0663,-0.0120,46.6500,18.8625,-3.7500,
1.781595,-0.0561,-0.0471,-0.2990,0.9653,0.0663,-0.0120,46.6500,18.8625,-3.7500,
1.782333,0.1047,-0.1435,-0.3948,0.9653,0.0663,-0.0120,46.6500,18.8625,-3.7500,
1.787194,0.1047,-0.1435,-0.3948,0.9653,0.0663,-0.0120,46.6313,19.0500,-4.3500,
1.822454,0.1047,-0.1435,-0.3948,1.2201,0.0806,-0.0433,46.6313,19.0500,-4.3500,
1.842804,0.1047,-0.1435,-0.3948,1.2201,0.0806,-0.0433,46.6313,19.0500,-4.3500,
1.844091,-0.0106,-0.2954,-0.6517,1.2201,0.0806,-0.0433,46.6313,19.0500,-4.3500,
1.848175,-0.0106,-0.2954,-0.6517,1.2201,0.0806,-0.0433,46.5375,18.9563,-4.7250,
1.883463,-0.0106,-0.2954,-0.6517,1.4824,-0.0025,-0.0944,46.5375,18.9563,-4.7250,
1.903700,-0.0106,-0.2954,-0.6517,1.4824,-0.0025,-0.0944,46.5375,18.9563,-4.7250,
1.904651,-0.2206,-0.7153,-0.5482,1.4824,-0.0025,-0.0944,46.5375,18.9563,-4.7250,
1.907073,-0.2206,-0.7153,-0.5482,1.4824,-0.0025,-0.0944,46.3875,19.0500,-5.3813,
1.944024,-0.2206,-0.7153,-0.5482,1.6851,0.0535,-0.0720,46.3875,19.0500,-5.3813,
1.963612,-0.2206,-0.7153,-0.5482,1.6851,0.0535,-0.0720,46.3875,19.0500,-5.3813,
1.966334,-0.2206,-0.7153,-0.5482,1.6851,0.0535,-0.0720,46.2000,19.0312,-6.2250,
1.984505,-0.3692,-0.7579,-0.3550,1.6851,0.0535,-0.0720,46.2000,19.0312,-6.2250,
2.003937,-0.3692,-0.7579,-0.3550,2.1307,0.4856,-0.1384,46.2000,19.0312,-6.2250,
2.024414,-0.3692,-0.7579,-0.3550,2.1307,0.4856,-0.1384,46.2000,19.0312,-6.2250,
2.025888,-0.3692,-0.7579,-0.3550,2.1307,0.4856,-0.1384,45.8813,18.9188,-7.2563,
2.045034,0.2044,-1.6302,-1.0552,2.1307,0.4856,-0.1384,45.8813,18.9188,-7.2563,
2.065188,0.2044,-1.6302,-1.0552,2.6235,0.2886,-0.2804,45.8813,18.9188,-7.2563,
2.085482,0.2044,-1.6302,-1.0552,2.6235,0.2886,-0.2804,45.8813,18.9188,-7.2563,
2.086780,0.2044,-1.6302,-1.0552,2.6235,0.2886,-0.2804,45.5063,18.9563,-8.3438,
2.105883,-0.2056,-2.0798,-1.6736,2.6235,0.2886,-0.2804,45.5063,18.9563,-8.3438,
2.127355,-0.2056,-2.0798,-1.6736,3.2092,0.5208,-0.3507,45.5063,18.9563,-8.3438,
2.147875,-0.2056,-2.0798,-1.6736,3.2092,0.5208,-0.3507,45.5063,18.9563,-8.3438,
2.148947,-0.2056,-2.0798,-1.6736,3.2092,0.5208,-0.3507,45.0188,18.9375,-9.3750,
2.168188,0.2492,-1.9869,-1.6403,3.2092,0.5208,-0.3507,45.0188,18.9375,-9.3750,
2.186838,0.2492,-1.9869,-1.6403,4.3182,0.6261,-0.2764,45.0188,18.9375,-9.3750,
2.208057,0.2492,-1.9869,-1.6403,4.3182,0.6261,-0.2764,44.6625,18.8625,-10.6500,
2.209490,0.2492,-1.9869,-1.6403,4.3182,0.6261,-0.2764,44.6625,18.8625,-10.6500,
2.248195,0.2492,-1.9869,-1.6403,3.7260,-0.2710,-0.1051,44.6625,18.8625,-10.6500,
2.250341,-0.7534,-5.9176,-4.3426,3.7260,-0.2710,-0.1051,44.6625,18.8625,-10.6500,
2.268485,-0.7534,-5.9176,-4.3426,3.7260,-0.2710,-0.1051,44.0625,18.4313,-12.2813,
2.269739,-0.7534,-5.9176,-4.3426,3.7260,-0.2710,-0.1051,44.0625,18.4313,-12.2813,
2.308790,-0.7534,-5.9176,-4.3426,3.5802,5.5713,-0.2154,44.0625,18.4313,-12.2813,
2.310219,0.8037,-1.7584,-8.1769,3.5802,5.5713,-0.2154,44.0625,18.4313,-12.2813,
2.327103,0.8037,-1.7584,-8.1769,3.5802,5.5713,-0.2154,43.7438,18.2250,-12.1688,
2.328463,0.8037,-1.7584,-8.1769,3.5802,5.5713,-0.2154,43.7438,18.2250,-12.1688,
2.370030,8.4730,10.6191,8.6772,3.5802,5.5713,-0.2154,43.7438,18.2250,-12.1688,
2.371775,8.4730,10.6191,8.6772,1.0085,6.0122,-0.2796,43.7438,18.2250,-12.1688,
2.386769,8.4730,10.6191,8.6772,1.0085,6.0122,-0.2796,43.3688,17.8313,-9.9375,
2.389573,8.4730,10.6191,8.6772,1.0085,6.0122,-0.2796,43.3688,17.8313,-9.9375,
2.431755,8.4730,10.6191,8.6772,1.8903,0.7774,1.7829,43.3688,17.8313,-9.9375,
2.447997,8.4730,10.6191,8.6772,1.8903,0.7774,1.7829,43.1438,17.0063,-7.1063,
2.450908,8.4730,10.6191,8.6772,1.8903,0.7774,1.7829,43.1438,17.0063,-7.1063,
2.451578,-8.1795,16.5267,5.9003,1.8903,0.7774,1.7829,43.1438,17.0063,-7.1063,
2.492880,-8.1795,16.5267,5.9003,1.6876,0.6429,2.7528,43.1438,17.0063,-7.1063,
2.507610,-8.1795,16.5267,5.9003,1.6876,0.6429,2.7528,42.9563,15.5438,-3.8625,
2.512179,-8.1795,16.5267,5.9003,1.6876,0.6429,2.7528,42.9563,15.5438,-3.8625,
2.512981,-1.3608,-9.4069,0.0999,1.6876,0.6429,2.7528,42.9563,15.5438,-3.8625,
2.553191,-1.3608,-9.4069,0.0999,0.7139,-2.7353,0.7771,42.9563,15.5438,-3.8625,
2.567490,-1.3608,-9.4069,0.0999,0.7139,-2.7353,0.7771,42.9750,13.8375,-1.6125,
2.573381,-1.3608,-9.4069,0.0999,0.7139,-2.7353,0.7771,42.9750,13.8375,-1.6125,
2.573987,0.9398,-12.0107,-5.5152,0.7139,-2.7353,0.7771,42.9750,13.8375,-1.6125,
2.614032,0.9398,-12.0107,-5.5152,0.4256,-1.6810,0.3075,42.9750,13.8375,-1.6125,
2.628998,0.9398,-12.0107,-5.5152,0.4256,-1.6810,0.3075,43.1438,12.2250,0.2250,
2.634564,0.9398,-12.0107,-5.5152,0.4256,-1.6810,0.3075,43.1438,12.2250,0.2250,
2.635754,3.2399,-8.6793,-11.2796,0.4256,-1.6810,0.3075,43.1438,12.2250,0.2250,
2.675892,3.2399,-8.6793,-11.2796,-1.3260,4.7480,0.4044,43.1438,12.2250,0.2250,
2.687578,3.2399,-8.6793,-11.2796,-1.3260,4.7480,0.4044,43.0312,10.3688,3.7313,
2.695459,3.2399,-8.6793,-11.2796,-1.3260,4.7480,0.4044,43.0312,10.3688,3.7313,
2.715781,3.6693,2.2517,-6.1007,-1.3260,4.7480,0.4044,43.0312,10.3688,3.7313,
2.737468,3.6693,2.2517,-6.1007,-4.2774,6.8720,1.3530,43.0312,10.3688,3.7313,
2.747969,3.6693,2.2517,-6.1007,-4.2774,6.8720,1.3530,42.0000,6.8438,10.9500,
2.754888,3.6693,2.2517,-6.1007,-4.2774,6.8720,1.3530,42.0000,6.8438,10.9500,
2.776457,-0.5882,9.7010,-0.2726,-4.2774,6.8720,1.3530,42.0000,6.8438,10.9500,
2.796830,-0.5882,9.7010,-0.2726,-3.0484,4.9021,5.3603,42.0000,6.8438,10.9500,
2.808708,-0.5882,9.7010,-0.2726,-3.0484,4.9021,5.3603,38.7188,2.4750,16.1250,
2.817895,-0.5882,9.7010,-0.2726,-3.0484,4.9021,5.3603,38.7188,2.4750,16.1250,
2.837815,-2.3532,-3.9121,0.4963,-3.0484,4.9021,5.3603,38.7188,2.4750,16.1250,
2.857856,-2.3532,-3.9121,0.4963,-2.0043,1.5932,2.1336,38.7188,2.4750,16.1250,
2.868196,-2.3532,-3.9121,0.4963,-2.0043,1.5932,2.1336,34.8750,-2.1750,19.2000,
2.879723,-2.3532,-3.9121,0.4963,-2.0043,1.5932,2.1336,34.8750,-2.1750,19.2000,
2.919073,-2.3532,-3.9121,0.4963,3.1701,-1.3043,-5.0561,34.8750,-2.1750,19.2000,
2.921145,-1.0073,12.9722,0.7678,3.1701,-1.3043,-5.0561,34.8750,-2.1750,19.2000,
2.926406,-1.0073,12.9722,0.7678,3.1701,-1.3043,-5.0561,32.0063,-5.5500,22.2375,
2.938690,-1.0073,12.9722,0.7678,3.1701,-1.3043,-5.0561,32.0063,-5.5500,22.2375,
2.980138,-1.0073,12.9722,0.7678,-0.4971,-8.2659,-5.9472,32.0063,-5.5500,22.2375,
2.981171,6.6997,-2.6936,10.1967,-0.4971,-8.2659,-5.9472,32.0063,-5.5500,22.2375,
2.987098,6.6997,-2.6936,10.1967,-0.4971,-8.2659,-5.9472,31.3500,-6.8438,23.6438,
2.999900,6.6997,-2.6936,10.1967,-0.4971,-8.2659,-5.9472,31.3500,-6.8438,23.6438,
3.041923,1.7604,0.7673,-7.2359,-0.4971,-8.2659,-5.9472,31.3500,-6.8438,23.6438,
3.044103,1.7604,0.7673,-7.2359,-1.7874,-15.0514,-2.6557,31.3500,-6.8438,23.6438,
3.052251,1.7604,0.7673,-7.2359,-1.7874,-15.0514,-2.6557,31.8375,-7.7250,22.1438,
3.061005,1.7604,0.7673,-7.2359,-1.7874,-15.0514,-2.6557,31.8375,-7.7250,22.1438,
3.101797,-9.7901,-2.0773,12.1499,-1.7874,-15.0514,-2.6557,31.8375,-7.7250,22.1438,
3.103643,-9.7901,-2.0773,12.1499,0.3887,6.6214,0.2642,31.8375,-7.7250,22.1438,
3.109849,-9.7901,-2.0773,12.1499,0.3887,6.6214,0.2642,31.9313,-8.3625,21.5625,
3.121440,-9.7901,-2.0773,12.1499,0.3887,6.6214,0.2642,31.9313,-8.3625,21.5625,
3.162268,-9.7901,-2.0773,12.1499,-0.6695,-5.1362,-0.1202,31.9313,-8.3625,21.5625,
3.167520,-9.7901,-2.0773,12.1499,-0.6695,-5.1362,-0.1202,32.3250,-8.3625,18.3750,
3.182126,-9.7901,-2.0773,12.1499,-0.6695,-5.1362,-0.1202,32.3250,-8.3625,18.3750,
3.182926,3.3289,-0.8744,-1.5847,-0.6695,-5.1362,-0.1202,32.3250,-8.3625,18.3750,
3.223956,3.3289,-0.8744,-1.5847,0.3450,1.3521,-0.0209,32.3250,-8.3625,18.3750,
3.227080,3.3289,-0.8744,-1.5847,0.3450,1.3521,-0.0209,34.0500,-7.3688,13.1250,
3.244211,0.5929,-0.3151,3.0570,0.3450,1.3521,-0.0209,34.0500,-7.3688,13.1250,
3.245156,0.5929,-0.3151,3.0570,0.3450,1.3521,-0.0209,34.0500,-7.3688,13.1250,
3.283746,0.5929,-0.3151,3.0570,0.0439,-0.0274,0.0061,34.0500,-7.3688,13.1250,
3.286914,0.5929,-0.3151,3.0570,0.0439,-0.0274,0.0061,37.4625,-4.5750,6.8813,
3.304447,0.5929,-0.3151,3.0570,0.0439,-0.0274,0.0061,37.4625,-4.5750,6.8813,
3.305115,-0.9242,0.2742,-1.3639,0.0439,-0.0274,0.0061,37.4625,-4.5750,6.8813,
3.345742,-0.9242,0.2742,-1.3639,-0.0515,-0.1668,0.0004,37.4625,-4.5750,6.8813,
3.349422,-0.9242,0.2742,-1.3639,-0.0515,-0.1668,0.0004,41.7000,-0.9750,0.5813,
3.365045,-0.9242,0.2742,-1.3639,-0.0515,-0.1668,0.0004,41.7000,-0.9750,0.5813,
3.385199,0.1863,-0.0932,0.3724,-0.0515,-0.1668,0.0004,41.7000,-0.9750,0.5813,
3.404429,0.1863,-0.0932,0.3724,-0.0121,-0.0196,0.0072,41.7000,-0.9750,0.5813,
3.407326,0.1863,-0.0932,0.3724,-0.0121,-0.0196,0.0072,44.8500,1.3125,-5.7000,
3.424930,0.1863,-0.0932,0.3724,-0.0121,-0.0196,0.0072,44.8500,1.3125,-5.7000,
3.445386,0.1484,-0.1135,0.7204,-0.0121,-0.0196,0.0072,44.8500,1.3125,-5.7000,
3.466944,0.1484,-0.1135,0.7204,-0.0121,-0.0196,0.0072,45.6562,2.0813,-10.6688,
3.468088,0.1484,-0.1135,0.7204,-0.0028,0.0013,0.0025,45.6562,2.0813,-10.6688,
3.487591,0.1484,-0.1135,0.7204,-0.0028,0.0013,0.0025,45.6562,2.0813,-10.6688,
3.508252,0.1300,-0.1249,0.6155,-0.0028,0.0013,0.0025,45.6562,2.0813,-10.6688,
3.527928,0.1300,-0.1249,0.6155,-0.0039,-0.0064,-0.0007,45.6562,2.0813,-10.6688,
3.529595,0.1300,-0.1249,0.6155,-0.0039,-0.0064,-0.0007,45.6750,2.0625,-11.1938,
3.549311,0.1300,-0.1249,0.6155,-0.0039,-0.0064,-0.0007,45.6750,2.0625,-11.1938,
3.568856,0.0928,-0.0976,0.5169,-0.0039,-0.0064,-0.0007,45.6750,2.0625,-11.1938,
3.587998,0.0928,-0.0976,0.5169,-0.0039,-0.0064,-0.0007,45.6375,2.2313,-12.4125,
3.589608,0.0928,-0.0976,0.5169,-0.0007,0.0028,0.0008,45.6375,2.2313,-12.4125,
3.608520,0.0928,-0.0976,0.5169,-0.0007,0.0028,0.0008,45.6375,2.2313,-12.4125,
3.648275,0.0928,-0.0976,0.5169,-0.0007,0.0028,0.0008,45.5625,2.1750,-12.3750,
3.649876,0.0928,-0.0976,0.5169,-0.0004,0.0024,0.0004,45.5625,2.1750,-12.3750,
3.650728,0.0871,-0.0855,0.4636,-0.0004,0.0024,0.0004,45.5625,2.1750,-12.3750,
3.670661,0.0871,-0.0855,0.4636,-0.0004,0.0024,0.0004,45.5625,2.1750,-12.3750,
3.707719,0.0871,-0.0855,0.4636,-0.0004,0.0024,0.0004,45.3938,2.1750,-12.5438,
3.709386,0.0871,-0.0855,0.4636,-0.0007,-0.0011,0.0004,45.3938,2.1750,-12.5438,
3.710015,0.0714,-0.0715,0.4059,-0.0007,-0.0011,0.0004,45.3938,2.1750,-12.5438,
3.730658,0.0714,-0.0715,0.4059,-0.0007,-0.0011,0.0004,45.3938,2.1750,-12.5438,
3.768513,0.0714,-0.0715,0.4059,-0.0007,-0.0011,0.0004,45.3375,2.1375,-12.5438,
3.770778,0.0664,-0.0532,0.3620,-0.0007,-0.0011,0.0004,45.3375,2.1375,-12.5438,
3.772225,0.0664,-0.0532,0.3620,-0.0007,-0.0047,0.0008,45.3375,2.1375,-12.5438,
3.793002,0.0664,-0.0532,0.3620,-0.0007,-0.0047,0.0008,45.3375,2.1375,-12.5438,
3.827795,0.0664,-0.0532,0.3620,-0.0007,-0.0047,0.0008,45.3375,1.9313,-12.5250,
3.832735,0.0664,-0.0532,0.3620,-0.0000,0.0013,0.0011,45.3375,1.9313,-12.5250,
3.852190,0.0664,-0.0532,0.3620,-0.0000,0.0013,0.0011,45.3375,1.9313,-12.5250,
3.853297,0.0528,-0.0560,0.3244,-0.0000,0.0013,0.0011,45.3375,1.9313,-12.5250,
3.887632,0.0528,-0.0560,0.3244,-0.0000,0.0013,0.0011,45.2250,1.9688,-12.4875,
3.893425,0.0528,-0.0560,0.3244,-0.0011,0.0017,0.0011,45.2250,1.9688,-12.4875,
3.913492,0.0528,-0.0560,0.3244,-0.0011,0.0017,0.0011,45.2250,1.9688,-12.4875,
3.914619,0.0431,-0.0442,0.2886,-0.0011,0.0017,0.0011,45.2250,1.9688,-12.4875,
3.948947,0.0431,-0.0442,0.2886,-0.0011,0.0017,0.0011,45.3938,2.0813,-12.2438,
3.955703,0.0431,-0.0442,0.2886,-0.0007,-0.0000,0.0011,45.3938,2.0813,-12.2438,
3.974787,0.0431,-0.0442,0.2886,-0.0007,-0.0000,0.0011,45.3938,2.0813,-12.2438,
3.976209,0.0430,-0.0455,0.2561,-0.0007,-0.0000,0.0011,45.3938,2.0813,-12.2438,
4.007685,0.0430,-0.0455,0.2561,-0.0007,-0.0000,0.0011,45.4313,2.0625,-12.3188,
4.014600,0.0430,-0.0455,0.2561,-0.0011,-0.0000,0.0004,45.4313,2.0625,-12.3188,
4.035281,0.0430,-0.0455,0.2561,-0.0011,-0.0000,0.0004,45.4313,2.0625,-12.3188,
4.036543,0.0472,-0.0418,0.2224,-0.0011,-0.0000,0.0004,45.4313,2.0625,-12.3188,
4.068576,0.0472,-0.0418,0.2224,-0.0011,-0.0000,0.0004,45.4125,2.1938,-12.2813,
4.074754,0.0472,-0.0418,0.2224,-0.0004,-0.0011,0.0008,45.4125,2.1938,-12.2813,
4.096713,0.0472,-0.0418,0.2224,-0.0004,-0.0011,0.0008,45.4125,2.1938,-12.2813,
4.118204,0.0350,-0.0281,0.2029,-0.0004,-0.0011,0.0008,45.4125,2.1938,-12.2813,
4.129667,0.0350,-0.0281,0.2029,-0.0004,-0.0011,0.0008,45.3563,2.1750,-12.5063,
4.137412,0.0350,-0.0281,0.2029,0.0004,0.0053,0.0051,45.3563,2.1750,-12.5063,
4.156701,0.0350,-0.0281,0.2029,0.0004,0.0053,0.0051,45.3563,2.1750,-12.5063,
4.177228,0.0337,-0.0385,0.1827,0.0004,0.0053,0.0051,45.3563,2.1750,-12.5063,
4.188647,0.0337,-0.0385,0.1827,0.0004,0.0053,0.0051,45.3563,2.1750,-12.4688,
4.197997,0.0337,-0.0385,0.1827,0.0011,0.0043,0.0051,45.3563,2.1750,-12.4688,
4.217651,0.0337,-0.0385,0.1827,0.0011,0.0043,0.0051,45.3563,2.1750,-12.4688,
4.238761,0.0275,-0.0162,0.1603,0.0011,0.0043,0.0051,45.3563,2.1750,-12.4688,
4.247579,0.0275,-0.0162,0.1603,0.0011,0.0043,0.0051,45.5438,2.2313,-12.1875,
4.258404,0.0275,-0.0162,0.1603,-0.0036,-0.0096,-0.0049,45.5438,2.2313,-12.1875,
4.278953,0.0275,-0.0162,0.1603,-0.0036,-0.0096,-0.0049,45.5438,2.2313,-12.1875,
4.297794,0.0183,-0.0302,0.1473,-0.0036,-0.0096,-0.0049,45.5438,2.2313,-12.1875,
4.307612,0.0183,-0.0302,0.1473,-0.0036,-0.0096,-0.0049,45.6562,2.2500,-12.2438,
4.319551,0.0183,-0.0302,0.1473,-0.0015,-0.0040,-0.0003,45.6562,2.2500,-12.2438,
4.339593,0.0183,-0.0302,0.1473,-0.0015,-0.0040,-0.0003,45.6562,2.2500,-12.2438,
4.367437,0.0183,-0.0302,0.1473,-0.0015,-0.0040,-0.0003,45.5625,2.4000,-12.3563,
4.380715,0.0392,-0.0158,0.1364,-0.0015,-0.0040,-0.0003,45.5625,2.4000,-12.3563,
4.382970,0.0392,-0.0158,0.1364,-0.0011,0.0021,0.0019,45.5625,2.4000,-12.3563,
4.399898,0.0392,-0.0158,0.1364,-0.0011,0.0021,0.0019,45.5625,2.4000,-12.3563,
4.428001,0.0392,-0.0158,0.1364,-0.0011,0.0021,0.0019,45.6562,2.3250,-12.4688,
4.441209,0.0392,-0.0158,0.1364,-0.0007,0.0028,0.0025,45.6562,2.3250,-12.4688,
4.442221,0.0196,-0.0238,0.1020,-0.0007,0.0028,0.0025,45.6562,2.3250,-12.4688,
4.461194,0.0196,-0.0238,0.1020,-0.0007,0.0028,0.0025,45.6562,2.3250,-12.4688,
4.487410,0.0196,-0.0238,0.1020,-0.0007,0.0028,0.0025,45.5813,2.2688,-12.5063,
4.502022,0.0303,-0.0159,0.0850,-0.0007,0.0028,0.0025,45.5813,2.2688,-12.5063,
4.503075,0.0303,-0.0159,0.0850,0.0043,0.0433,-0.0382,45.5813,2.2688,-12.5063,
4.522353,0.0303,-0.0159,0.0850,0.0043,0.0433,-0.0382,45.5813,2.2688,-12.5063,
4.548100,0.0303,-0.0159,0.0850,0.0043,0.0433,-0.0382,45.6000,2.1188,-12.4313,
4.563061,0.0303,-0.0159,0.0850,-0.0060,-0.2222,-0.0312,45.6000,2.1188,-12.4313,
4.583746,0.0303,-0.0159,0.0850,-0.0060,-0.2222,-0.0312,45.6000,2.1188,-12.4313,
4.585054,0.0760,-0.0451,0.0725,-0.0060,-0.2222,-0.0312,45.6000,2.1188,-12.4313,
4.607356,0.0760,-0.0451,0.0725,-0.0060,-0.2222,-0.0312,45.6750,2.3063,-12.3375,
4.623645,0.0760,-0.0451,0.0725,-0.0138,0.1317,0.0075,45.6750,2.3063,-12.3375,
4.645569,0.0760,-0.0451,0.0725,-0.0138,0.1317,0.0075,45.6750,2.3063,-12.3375,
4.647106,-0.1286,0.0327,0.0771,-0.0138,0.1317,0.0075,45.6750,2.3063,-12.3375,
4.668136,-0.1286,0.0327,0.0771,-0.0138,0.1317,0.0075,45.6000,2.1750,-12.4500,
4.687024,-0.1286,0.0327,0.0771,-0.4466,-0.6682,0.4669,45.6000,2.1750,-12.4500,
4.705376,-0.1286,0.0327,0.0771,-0.4466,-0.6682,0.4669,45.6000,2.1750,-12.4500,
4.706609,-0.1712,-0.1879,-0.1917,-0.4466,-0.6682,0.4669,45.6000,2.1750,-12.4500,
4.728224,-0.1712,-0.1879,-0.1917,-0.4466,-0.6682,0.4669,45.4125,2.0438,-12.7875,
4.746301,-0.1712,-0.1879,-0.1917,-0.7107,0.7756,0.0402,45.4125,2.0438,-12.7875,
4.767094,0.8299,1.5444,0.3316,-0.7107,0.7756,0.0402,45.4125,2.0438,-12.7875,
4.769048,0.8299,1.5444,0.3316,-0.7107,0.7756,0.0402,45.4125,2.0438,-12.7875,
4.787739,0.8299,1.5444,0.3316,-0.7107,0.7756,0.0402,45.1875,2.2313,-12.6750,
4.806492,0.8299,1.5444,0.3316,-0.1200,0.6123,-1.7444,45.1875,2.2313,-12.6750,
4.828713,0.8299,1.5444,0.3316,-0.1200,0.6123,-1.7444,45.1875,2.2313,-12.6750,
4.848695,0.8299,1.5444,0.3316,-0.1200,0.6123,-1.7444,45.4313,2.7000,-12.3563,
4.850899,3.4234,-0.4872,0.5081,-0.1200,0.6123,-1.7444,45.4313,2.7000,-12.3563,
4.870291,3.4234,-0.4872,0.5081,-0.9507,1.2943,-0.8253,45.4313,2.7000,-12.3563,
4.890158,3.4234,-0.4872,0.5081,-0.9507,1.2943,-0.8253,45.4313,2.7000,-12.3563,
4.909129,3.4234,-0.4872,0.5081,-0.9507,1.2943,-0.8253,45.5250,3.5625,-11.5875,
4.910858,-3.5542,2.6480,0.8269,-0.9507,1.2943,-0.8253,45.5250,3.5625,-11.5875,
4.928880,-3.5542,2.6480,0.8269,-0.5123,1.7171,1.0115,45.5250,3.5625,-11.5875,
4.948196,-3.5542,2.6480,0.8269,-0.5123,1.7171,1.0115,45.5250,3.5625,-11.5875,
4.971516,-3.5542,2.6480,0.8269,-0.5123,1.7171,1.0115,45.8250,4.2000,-10.1250,
4.973105,-2.4145,-0.1912,2.5362,-0.5123,1.7171,1.0115,45.8250,4.2000,-10.1250,
4.991060,-2.4145,-0.1912,2.5362,1.1360,0.6080,0.2529,45.8250,4.2000,-10.1250,
5.010506,-2.4145,-0.1912,2.5362,1.1360,0.6080,0.2529,45.8250,4.2000,-10.1250,
5.028139,-2.4145,-0.1912,2.5362,1.1360,0.6080,0.2529,46.1438,4.7250,-8.7375,
5.050617,-2.4145,-0.1912,2.5362,0.7306,0.8505,0.1545,46.1438,4.7250,-8.7375,
5.052208,1.6536,-1.2875,2.5945,0.7306,0.8505,0.1545,46.1438,4.7250,-8.7375,
5.070894,1.6536,-1.2875,2.5945,0.7306,0.8505,0.1545,46.1438,4.7250,-8.7375,
5.089271,1.6536,-1.2875,2.5945,0.7306,0.8505,0.1545,46.4062,4.9125,-6.8813,
5.111378,1.6536,-1.2875,2.5945,-0.5587,0.3752,-0.4579,46.4062,4.9125,-6.8813,
5.113089,0.6865,2.1932,-2.2160,-0.5587,0.3752,-0.4579,46.4062,4.9125,-6.8813,
5.132570,0.6865,2.1932,-2.2160,-0.5587,0.3752,-0.4579,46.4062,4.9125,-6.8813,
5.148411,0.6865,2.1932,-2.2160,-0.5587,0.3752,-0.4579,46.6313,5.3250,-4.9875,
5.172358,0.6865,2.1932,-2.2160,0.2318,-0.0224,0.0945,46.6313,5.3250,-4.9875,
5.173608,0.9109,-1.0489,-1.9371,0.2318,-0.0224,0.0945,46.6313,5.3250,-4.9875,
5.192237,0.9109,-1.0489,-1.9371,0.2318,-0.0224,0.0945,46.6313,5.3250,-4.9875,
5.207597,0.9109,-1.0489,-1.9371,0.2318,-0.0224,0.0945,46.9313,5.6438,-3.2063,
5.232674,0.9109,-1.0489,-1.9371,0.0848,0.1788,0.2838,46.9313,5.6438,-3.2063,
5.233851,-0.0920,-2.2427,-0.8928,0.0848,0.1788,0.2838,46.9313,5.6438,-3.2063,
5.252749,-0.0920,-2.2427,-0.8928,0.0848,0.1788,0.2838,46.9313,5.6438,-3.2063,
5.268341,-0.0920,-2.2427,-0.8928,0.0848,0.1788,0.2838,47.0625,5.7563,-1.8375,
5.293273,-0.0920,-2.2427,-0.8928,-0.6767,0.0862,-0.2189,47.0625,5.7563,-1.8375,
5.313433,-0.0920,-2.2427,-0.8928,-0.6767,0.0862,-0.2189,47.0625,5.7563,-1.8375,
5.314177,0.0245,-0.1463,-1.4235,-0.6767,0.0862,-0.2189,47.0625,5.7563,-1.8375,
5.326743,0.0245,-0.1463,-1.4235,-0.6767,0.0862,-0.2189,47.1375,5.4000,-0.3188,
5.354499,0.0245,-0.1463,-1.4235,-0.6575,0.2847,-0.0770,47.1375,5.4000,-0.3188,
5.374643,0.6440,-0.7512,-0.2547,-0.6575,0.2847,-0.0770,47.1375,5.4000,-0.3188,
5.375737,0.6440,-0.7512,-0.2547,-0.6575,0.2847,-0.0770,47.1375,5.4000,-0.3188,
5.387861,0.6440,-0.7512,-0.2547,-0.6575,0.2847,-0.0770,47.1562,4.8188,0.7875,
5.415432,0.6440,-0.7512,-0.2547,-1.0923,0.2864,1.0920,47.1562,4.8188,0.7875,
5.435810,0.6440,-0.7512,-0.2547,-1.0923,0.2864,1.0920,47.1562,4.8188,0.7875,
5.436718,0.8674,-1.0023,0.9338,-1.0923,0.2864,1.0920,47.1562,4.8188,0.7875,
5.447201,0.8674,-1.0023,0.9338,-1.0923,0.2864,1.0920,47.1375,4.0312,1.2750,
5.476155,0.8674,-1.0023,0.9338,-1.9689,0.3617,-0.1479,47.1375,4.0312,1.2750,
5.501160,0.8674,-1.0023,0.9338,-1.9689,0.3617,-0.1479,47.1375,4.0312,1.2750,
5.524813,0.8674,-1.0023,0.9338,-1.9689,0.3617,-0.1479,47.0250,3.3750,1.8750,
5.527962,1.1442,2.1899,-0.7001,-1.9689,0.3617,-0.1479,47.0250,3.3750,1.8750,
7.480971,1.1442,2.1899,-0.7001,-1.9689,0.3617,-0.1479,47.0250,3.3750,1.8750,
7.510201,1.1442,2.1899,-0.7001,-1.9689,0.3617,-0.1479,47.0250,3.3750,1.8750,
7.538939,1.1442,2.1899,-0.7001,-1.9689,0.3617,-0.1479,40.2750,23.4375,5.4563,
7.546000,1.1442,2.1899,-0.7001,-0.2169,0.0901,0.2248,40.2750,23.4375,5.4563,
7.568250,1.1442,2.1899,-0.7001,-0.2169,0.0901,0.2248,40.2750,23.4375,5.4563,
7.599339,1.1442,2.1899,-0.7001,-0.2169,0.0901,0.2248,40.5938,22.6313,5.7188,
7.607030,1.1442,2.1899,-0.7001,-0.7505,-0.2471,-0.0838,40.5938,22.6313,5.7188,
7.607769,0.0000,0.0000,0.0000,-0.7505,-0.2471,-0.0838,40.5938,22.6313,5.7188,
7.628341,0.0000,0.0000,0.0000,-0.7505,-0.2471,-0.0838,40.5938,22.6313,5.7188,
7.666118,0.0000,0.0000,0.0000,-0.7505,-0.2471,-0.0838,40.8000,21.8250,6.1688,
7.667981,0.0000,0.0000,0.0000,-0.2105,-0.1453,0.1634,40.8000,21.8250,6.1688,
7.669403,0.2823,-0.7783,0.2032,-0.2105,-0.1453,0.1634,40.8000,21.8250,6.1688,
7.689067,0.2823,-0.7783,0.2032,-0.2105,-0.1453,0.1634,40.8000,21.8250,6.1688,
7.718660,0.2823,-0.7783,0.2032,-0.2105,-0.1453,0.1634,40.9688,21.4125,6.5063,
7.729584,0.2823,-0.7783,0.2032,-0.2308,0.2754,0.0884,40.9688,21.4125,6.5063,
7.730548,-0.1357,-0.6740,-0.2283,-0.2308,0.2754,0.0884,40.9688,21.4125,6.5063,
7.749794,-0.1357,-0.6740,-0.2283,-0.2308,0.2754,0.0884,40.9688,21.4125,6.5063,
7.786118,-0.1357,-0.6740,-0.2283,-0.2308,0.2754,0.0884,40.7438,21.2063,6.5438,
7.790460,-0.1357,-0.6740,-0.2283,0.2549,-0.5830,-0.6559,40.7438,21.2063,6.5438,
7.790917,-0.1150,0.2502,-0.0649,0.2549,-0.5830,-0.6559,40.7438,21.2063,6.5438,
7.810214,-0.1150,0.2502,-0.0649,0.2549,-0.5830,-0.6559,40.7438,21.2063,6.5438,
7.838916,-0.1150,0.2502,-0.0649,0.2549,-0.5830,-0.6559,40.8375,21.5438,6.5813,
7.851320,-0.1150,0.2502,-0.0649,-0.3117,-0.7718,-1.3883,40.8375,21.5438,6.5813,
7.871484,-0.1150,0.2502,-0.0649,-0.3117,-0.7718,-1.3883,40.8375,21.5438,6.5813,
7.872941,-0.4497,-0.0224,1.0156,-0.3117,-0.7718,-1.3883,40.8375,21.5438,6.5813,
7.898793,-0.4497,-0.0224,1.0156,-0.3117,-0.7718,-1.3883,40.7812,22.1438,6.3938,
7.911739,-0.4497,-0.0224,1.0156,-0.4153,-0.2684,-0.0344,40.7812,22.1438,6.3938,
7.932558,-0.4497,-0.0224,1.0156,-0.4153,-0.2684,-0.0344,40.7812,22.1438,6.3938,
7.934539,-1.6006,0.8989,0.8339,-0.4153,-0.2684,-0.0344,40.7812,22.1438,6.3938,
7.958505,-1.6006,0.8989,0.8339,-0.4153,-0.2684,-0.0344,40.7063,22.3688,6.3375,
7.973332,-1.6006,0.8989,0.8339,-0.4502,0.6883,1.3899,40.7063,22.3688,6.3375,
7.992898,-1.6006,0.8989,0.8339,-0.4502,0.6883,1.3899,40.7063,22.3688,6.3375,
7.994310,-0.4988,0.7867,-0.5142,-0.4502,0.6883,1.3899,40.7063,22.3688,6.3375,
8.019007,-0.4988,0.7867,-0.5142,-0.4502,0.6883,1.3899,40.7812,22.1250,6.5438,
8.033944,-0.4988,0.7867,-0.5142,-0.6107,-0.2024,0.4832,40.7812,22.1250,6.5438,
8.054594,-0.4988,0.7867,-0.5142,-0.6107,-0.2024,0.4832,40.7812,22.1250,6.5438,
8.077274,2.1266,0.0080,-0.9768,-0.6107,-0.2024,0.4832,40.7812,22.1250,6.5438,
8.081431,2.1266,0.0080,-0.9768,-0.6107,-0.2024,0.4832,40.9500,21.7875,6.8625,
8.094513,2.1266,0.0080,-0.9768,0.0539,-0.0138,0.2688,40.9500,21.7875,6.8625,
8.116475,2.1266,0.0080,-0.9768,0.0539,-0.0138,0.2688,40.9500,21.7875,6.8625,
