
time,ax,ay,az,wx,wy,wz,Bx,By,Bz,
0.090596,0.0000,0.0000,0.0000,0.0000,0.0000,0.0000,0.0000,0.0000,0.0000,
0.109658,0.0000,0.0000,0.0000,0.0000,0.0000,0.0000,39.6188,21.7875,5.3063,
0.129565,0.0000,0.0000,0.0000,0.0000,0.0000,0.0000,39.6188,21.7875,5.3063,
0.150447,0.0000,0.0000,0.0000,-0.0039,0.0012,-0.0085,39.6188,21.7875,5.3063,
0.169180,0.0274,0.0241,0.0017,-0.0039,0.0012,-0.0085,39.6188,21.7875,5.3063,
0.169782,0.0274,0.0241,0.0017,-0.0039,0.0012,-0.0085,39.3375,22.3125,5.2688,
0.191108,0.0274,0.0241,0.0017,-0.0039,0.0012,-0.0085,39.3375,22.3125,5.2688,
0.210234,0.0274,0.0241,0.0017,-0.0117,-0.0041,0.0029,39.3375,22.3125,5.2688,
0.227564,0.0274,0.0241,0.0017,-0.0117,-0.0041,0.0029,39.3188,22.4250,5.1938,
0.251107,0.0274,0.0241,0.0017,-0.0117,-0.0041,0.0029,39.3188,22.4250,5.1938,
0.253396,0.0161,0.0084,0.0025,-0.0117,-0.0041,0.0029,39.3188,22.4250,5.1938,
0.270501,0.0161,0.0084,0.0025,-0.0164,0.0087,0.0206,39.3188,22.4250,5.1938,
0.287383,0.0161,0.0084,0.0025,-0.0164,0.0087,0.0206,39.6188,22.4250,4.9875,
0.311474,0.0161,0.0084,0.0025,-0.0164,0.0087,0.0206,39.6188,22.4250,4.9875,
0.312349,0.0059,-0.0008,-0.0121,-0.0164,0.0087,0.0206,39.6188,22.4250,4.9875,
0.332428,0.0059,-0.0008,-0.0121,-0.0053,0.0204,0.0302,39.6188,22.4250,4.9875,
0.349420,0.0059,-0.0008,-0.0121,-0.0053,0.0204,0.0302,39.8250,22.5000,5.0813,
0.375356,0.0156,0.0256,-0.0111,-0.0053,0.0204,0.0302,39.8250,22.5000,5.0813,
0.376565,0.0156,0.0256,-0.0111,-0.0053,0.0204,0.0302,39.8250,22.5000,5.0813,
0.392880,0.0156,0.0256,-0.0111,0.0064,0.0228,0.0422,39.8250,22.5000,5.0813,
0.408063,0.0156,0.0256,-0.0111,0.0064,0.0228,0.0422,39.9000,22.3688,5.0813,
0.434003,0.0156,0.0256,-0.0111,0.0064,0.0228,0.0422,39.9000,22.3688,5.0813,
0.435019,-0.0182,-0.0206,0.0001,0.0064,0.0228,0.0422,39.9000,22.3688,5.0813,
0.453966,-0.0182,-0.0206,0.0001,0.0103,0.0072,0.0366,39.9000,22.3688,5.0813,
0.468072,-0.0182,-0.0206,0.0001,0.0103,0.0072,0.0366,40.0312,22.3500,5.2125,
0.494681,-0.0182,-0.0206,0.0001,0.0103,0.0072,0.0366,40.0312,22.3500,5.2125,
0.516200,-0.0323,0.0049,0.0185,0.0103,0.0072,0.0366,40.0312,22.3500,5.2125,
0.518638,-0.0323,0.0049,0.0185,0.0017,-0.0393,-0.0085,40.0312,22.3500,5.2125,
0.528335,-0.0323,0.0049,0.0185,0.0017,-0.0393,-0.0085,40.0875,22.1813,5.2500,
0.555349,-0.0323,0.0049,0.0185,0.0017,-0.0393,-0.0085,40.0875,22.1813,5.2500,
0.575363,-0.0323,0.0049,0.0185,0.0092,0.0321,0.0373,40.0875,22.1813,5.2500,
0.575917,0.1123,0.0101,-0.0145,0.0092,0.0321,0.0373,40.0875,22.1813,5.2500,
0.587397,0.1123,0.0101,-0.0145,0.0092,0.0321,0.0373,40.2000,22.2938,5.2125,
0.616040,0.1123,0.0101,-0.0145,0.0092,0.0321,0.0373,40.2000,22.2938,5.2125,
0.636749,0.1123,0.0101,-0.0145,-0.0021,-0.0212,-0.0024,40.2000,22.2938,5.2125,
0.637845,-0.0774,-0.0079,0.0145,-0.0021,-0.0212,-0.0024,40.2000,22.2938,5.2125,
0.647896,-0.0774,-0.0079,0.0145,-0.0021,-0.0212,-0.0024,40.3875,22.2563,5.2688,
0.678294,-0.0774,-0.0079,0.0145,-0.0021,-0.0212,-0.0024,40.3875,22.2563,5.2688,
0.696439,-0.0774,-0.0079,0.0145,0.0153,0.0196,0.0238,40.3875,22.2563,5.2688,
0.706867,-0.0774,-0.0079,0.0145,0.0153,0.0196,0.0238,40.5000,22.2750,5.2500,
0.716824,-0.0560,-0.0042,0.0036,0.0153,0.0196,0.0238,40.5000,22.2750,5.2500,
0.736995,-0.0560,-0.0042,0.0036,0.0153,0.0196,0.0238,40.5000,22.2750,5.2500,
0.757521,-0.0560,-0.0042,0.0036,0.0085,0.0008,0.0064,40.5000,22.2750,5.2500,
0.767394,-0.0560,-0.0042,0.0036,0.0085,0.0008,0.0064,40.3688,22.2375,5.3438,
0.777713,0.0329,0.0080,0.0073,0.0085,0.0008,0.0064,40.3688,22.2375,5.3438,
0.798407,0.0329,0.0080,0.0073,0.0085,0.0008,0.0064,40.3688,22.2375,5.3438,
0.819093,0.0329,0.0080,0.0073,0.0007,-0.0071,0.0043,40.3688,22.2375,5.3438,
0.827211,0.0329,0.0080,0.0073,0.0007,-0.0071,0.0043,40.2750,22.2000,5.0250,
0.839504,0.0232,0.0136,0.0217,0.0007,-0.0071,0.0043,40.2750,22.2000,5.0250,
0.860343,0.0232,0.0136,0.0217,0.0007,-0.0071,0.0043,40.2750,22.2000,5.0250,
0.880301,0.0232,0.0136,0.0217,-0.0039,0.0136,0.0202,40.2750,22.2000,5.0250,
0.889681,0.0232,0.0136,0.0217,-0.0039,0.0136,0.0202,40.1250,22.2000,4.9500,
0.900657,-0.0154,0.0019,-0.0041,-0.0039,0.0136,0.0202,40.1250,22.2000,4.9500,
0.920764,-0.0154,0.0019,-0.0041,-0.0039,0.0136,0.0202,40.1250,22.2000,4.9500,
0.940371,-0.0154,0.0019,-0.0041,-0.0017,0.0004,0.0043,40.1250,22.2000,4.9500,
0.947888,-0.0154,0.0019,-0.0041,-0.0017,0.0004,0.0043,40.1250,22.2188,4.8563,
0.981802,-0.0154,0.0019,-0.0041,-0.0017,0.0004,0.0043,40.1250,22.2188,4.8563,
0.983083,0.0089,-0.0046,-0.0072,-0.0017,0.0004,0.0043,40.1250,22.2188,4.8563,
1.001797,0.0089,-0.0046,-0.0072,0.0028,-0.0028,0.0032,40.1250,22.2188,4.8563,
1.007692,0.0089,-0.0046,-0.0072,0.0028,-0.0028,0.0032,39.9563,22.3875,4.7063,
1.042098,0.0089,-0.0046,-0.0072,0.0028,-0.0028,0.0032,39.9563,22.3875,4.7063,
1.043140,0.0034,0.0002,-0.0063,0.0028,-0.0028,0.0032,39.9563,22.3875,4.7063,
1.063248,0.0034,0.0002,-0.0063,0.0079,-0.0028,0.0011,39.9563,22.3875,4.7063,
1.066655,0.0034,0.0002,-0.0063,0.0079,-0.0028,0.0011,39.8813,22.2563,4.6875,
1.104337,0.0034,0.0002,-0.0063,0.0079,-0.0028,0.0011,39.8813,22.2563,4.6875,
1.106347,0.0146,0.0083,0.0065,0.0079,-0.0028,0.0011,39.8813,22.2563,4.6875,
1.123461,0.0146,0.0083,0.0065,0.0064,-0.0007,0.0019,39.8813,22.2563,4.6875,
1.130362,0.0146,0.0083,0.0065,0.0064,-0.0007,0.0019,39.7688,22.1813,4.5750,
1.165083,0.0146,0.0083,0.0065,0.0064,-0.0007,0.0019,39.7688,22.1813,4.5750,
1.185844,0.0146,0.0083,0.0065,0.0004,-0.0031,0.0004,39.7688,22.1813,4.5750,
1.187060,-0.0085,-0.0039,-0.0046,0.0004,-0.0031,0.0004,39.7688,22.1813,4.5750,
1.187835,-0.0085,-0.0039,-0.0046,0.0004,-0.0031,0.0004,39.8250,22.0688,4.7625,
1.226507,-0.0085,-0.0039,-0.0046,0.0004,-0.0031,0.0004,39.8250,22.0688,4.7625,
1.248195,-0.0085,-0.0039,-0.0046,0.0017,0.0004,0.0008,39.8250,22.0688,4.7625,
1.250108,0.0042,0.0029,-0.0011,0.0017,0.0004,0.0008,39.8250,22.0688,4.7625,
1.251057,0.0042,0.0029,-0.0011,0.0017,0.0004,0.0008,39.9375,22.0500,4.8563,
1.287884,0.0042,0.0029,-0.0011,0.0017,0.0004,0.0008,39.9375,22.0500,4.8563,
1.307451,0.0042,0.0029,-0.0011,-0.0036,0.0057,0.0043,39.9375,22.0500,4.8563,
1.308037,0.0042,0.0029,-0.0011,-0.0036,0.0057,0.0043,40.0125,21.9375,5.0625,
1.308677,0.0044,0.0058,0.0179,-0.0036,0.0057,0.0043,40.0125,21.9375,5.0625,
1.348918,0.0044,0.0058,0.0179,-0.0036,0.0057,0.0043,40.0125,21.9375,5.0625,
1.368821,0.0044,0.0058,0.0179,-0.0057,0.0029,0.0015,40.0125,21.9375,5.0625,
1.369471,0.0044,0.0058,0.0179,-0.0057,0.0029,0.0015,40.1625,21.9938,5.1938,
1.369996,0.0088,0.0023,0.0056,-0.0057,0.0029,0.0015,40.1625,21.9938,5.1938,
1.411007,0.0088,0.0023,0.0056,-0.0057,0.0029,0.0015,40.1625,21.9938,5.1938,
1.432951,0.0088,0.0023,0.0056,-0.0057,0.0029,0.0015,40.1813,21.9375,5.3250,
1.437055,0.0088,0.0023,0.0056,-0.0124,0.0089,0.0036,40.1813,21.9375,5.3250,
1.449192,0.0013,-0.0051,0.0176,-0.0124,0.0089,0.0036,40.1813,21.9375,5.3250,
1.470244,0.0013,-0.0051,0.0176,-0.0124,0.0089,0.0036,40.1813,21.9375,5.3250,
1.489271,0.0013,-0.0051,0.0176,-0.0124,0.0089,0.0036,40.3125,21.7500,5.4375,
1.490384,0.0013,-0.0051,0.0176,-0.0192,0.0115,0.0128,40.3125,21.7500,5.4375,
1.510470,0.0038,0.0055,0.0025,-0.0192,0.0115,0.0128,40.3125,21.7500,5.4375,
1.529950,0.0038,0.0055,0.0025,-0.0192,0.0115,0.0128,40.3125,21.7500,5.4375,
1.550181,0.0038,0.0055,0.0025,-0.0192,0.0115,0.0128,40.3313,21.8625,5.5125,
1.551305,0.0038,0.0055,0.0025,-0.0170,-0.0007,0.0029,40.3313,21.8625,5.5125,
1.570991,0.0110,-0.0029,-0.0119,-0.0170,-0.0007,0.0029,40.3313,21.8625,5.5125,
1.590123,0.0110,-0.0029,-0.0119,-0.0170,-0.0007,0.0029,40.3313,21.8625,5.5125,
1.608975,0.0110,-0.0029,-0.0119,-0.0170,-0.0007,0.0029,40.3125,21.8625,5.5125,
1.612396,0.0110,-0.0029,-0.0119,-0.0117,0.0044,0.0083,40.3125,21.8625,5.5125,
1.652953,0.0110,-0.0029,-0.0119,-0.0117,0.0044,0.0083,40.3125,21.8625,5.5125,
1.654476,-0.0103,0.0015,-0.0005,-0.0117,0.0044,0.0083,40.3125,21.8625,5.5125,
1.668294,-0.0103,0.0015,-0.0005,-0.0117,0.0044,0.0083,40.2000,21.7875,5.4188,
1.671572,-0.0103,0.0015,-0.0005,-0.0217,-0.0031,0.0015,40.2000,21.7875,5.4188,
1.713820,-0.0103,0.0015,-0.0005,-0.0217,-0.0031,0.0015,40.2000,21.7875,5.4188,
1.715496,0.0357,0.0177,0.0489,-0.0217,-0.0031,0.0015,40.2000,21.7875,5.4188,
1.728245,0.0357,0.0177,0.0489,-0.0217,-0.0031,0.0015,40.0875,21.6375,5.3625,
1.733449,0.0357,0.0177,0.0489,-0.0447,0.0072,0.0217,40.0875,21.6375,5.3625,
1.773879,0.0357,0.0177,0.0489,-0.0447,0.0072,0.0217,40.0875,21.6375,5.3625,
1.774700,0.0147,-0.0240,0.0004,-0.0447,0.0072,0.0217,40.0875,21.6375,5.3625,
1.788272,0.0147,-0.0240,0.0004,-0.0447,0.0072,0.0217,40.0500,21.7500,5.4938,
1.795086,0.0147,-0.0240,0.0004,-0.0426,0.0228,0.0256,40.0500,21.7500,5.4938,
1.835910,0.0147,-0.0240,0.0004,-0.0426,0.0228,0.0256,40.0500,21.7500,5.4938,
1.837084,-0.0240,-0.0169,-0.0852,-0.0426,0.0228,0.0256,40.0500,21.7500,5.4938,
1.849734,-0.0240,-0.0169,-0.0852,-0.0426,0.0228,0.0256,39.9938,21.5813,5.5312,
1.854856,-0.0240,-0.0169,-0.0852,-0.0032,-0.0045,-0.0107,39.9938,21.5813,5.5312,
1.895760,-0.0240,-0.0169,-0.0852,-0.0032,-0.0045,-0.0107,39.9938,21.5813,5.5312,
1.908274,-0.0240,-0.0169,-0.0852,-0.0032,-0.0045,-0.0107,39.9563,21.6188,5.3813,
1.916684,-0.0240,-0.0169,-0.0852,0.0196,-0.0290,-0.0373,39.9563,21.6188,5.3813,
1.917265,-0.0335,-0.0070,-0.0292,0.0196,-0.0290,-0.0373,39.9563,21.6188,5.3813,
1.957458,-0.0335,-0.0070,-0.0292,0.0196,-0.0290,-0.0373,39.9563,21.6188,5.3813,
1.968689,-0.0335,-0.0070,-0.0292,0.0196,-0.0290,-0.0373,39.8625,21.7125,5.3063,
1.977967,-0.0335,-0.0070,-0.0292,0.0107,-0.0145,-0.0301,39.8625,21.7125,5.3063,
1.978872,0.0121,0.0213,0.0304,0.0107,-0.0145,-0.0301,39.8625,21.7125,5.3063,
2.017550,0.0121,0.0213,0.0304,0.0107,-0.0145,-0.0301,39.8625,21.7125,5.3063,
2.028554,0.0121,0.0213,0.0304,0.0107,-0.0145,-0.0301,39.9188,21.5625,5.2500,
2.038042,0.0121,0.0213,0.0304,0.0206,-0.0013,-0.0301,39.9188,21.5625,5.2500,
2.038856,-0.0094,0.0015,-0.0051,0.0206,-0.0013,-0.0301,39.9188,21.5625,5.2500,
2.078200,-0.0094,0.0015,-0.0051,0.0206,-0.0013,-0.0301,39.9188,21.5625,5.2500,
2.088238,-0.0094,0.0015,-0.0051,0.0206,-0.0013,-0.0301,39.9750,21.6188,5.3625,
2.098253,-0.0094,0.0015,-0.0051,0.0298,-0.0088,-0.0405,39.9750,21.6188,5.3625,
2.119114,-0.0132,-0.0177,-0.0213,0.0298,-0.0088,-0.0405,39.9750,21.6188,5.3625,
2.139718,-0.0132,-0.0177,-0.0213,0.0298,-0.0088,-0.0405,39.9750,21.6188,5.3625,
2.147953,-0.0132,-0.0177,-0.0213,0.0298,-0.0088,-0.0405,40.0125,21.6188,5.2500,
2.160377,-0.0132,-0.0177,-0.0213,0.0266,-0.0188,-0.0383,40.0125,21.6188,5.2500,
2.179501,0.0104,0.0199,-0.0012,0.0266,-0.0188,-0.0383,40.0125,21.6188,5.2500,
2.201923,0.0104,0.0199,-0.0012,0.0266,-0.0188,-0.0383,40.0125,21.6188,5.2500,
2.210186,0.0104,0.0199,-0.0012,0.0266,-0.0188,-0.0383,39.8625,21.7313,5.2125,
2.220343,0.0104,0.0199,-0.0012,0.0206,-0.0081,-0.0256,39.8625,21.7313,5.2125,
2.240986,0.0034,0.0008,-0.0023,0.0206,-0.0081,-0.0256,39.8625,21.7313,5.2125,
2.261838,0.0034,0.0008,-0.0023,0.0206,-0.0081,-0.0256,39.8625,21.7313,5.2125,
2.268225,0.0034,0.0008,-0.0023,0.0206,-0.0081,-0.0256,39.7500,21.6750,5.1000,
2.281449,0.0034,0.0008,-0.0023,0.0234,-0.0039,-0.0230,39.7500,21.6750,5.1000,
2.301472,-0.0086,-0.0050,-0.0296,0.0234,-0.0039,-0.0230,39.7500,21.6750,5.1000,
2.321932,-0.0086,-0.0050,-0.0296,0.0234,-0.0039,-0.0230,39.7500,21.6750,5.1000,
2.328270,-0.0086,-0.0050,-0.0296,0.0234,-0.0039,-0.0230,39.6375,21.7313,4.9688,
2.342969,-0.0086,-0.0050,-0.0296,0.0337,0.0023,-0.0277,39.6375,21.7313,4.9688,
2.384799,-0.0086,-0.0050,-0.0296,0.0337,0.0023,-0.0277,39.6375,21.7313,4.9688,
2.385910,-0.0318,-0.0107,0.0081,0.0337,0.0023,-0.0277,39.6375,21.7313,4.9688,
2.388545,-0.0318,-0.0107,0.0081,0.0337,0.0023,-0.0277,39.4313,21.6938,5.0063,
2.403180,-0.0318,-0.0107,0.0081,0.0277,0.0047,-0.0376,39.4313,21.6938,5.0063,
2.443871,-0.0318,-0.0107,0.0081,0.0277,0.0047,-0.0376,39.4313,21.6938,5.0063,
2.445115,-0.0264,-0.0011,-0.0001,0.0277,0.0047,-0.0376,39.4313,21.6938,5.0063,
2.448189,-0.0264,-0.0011,-0.0001,0.0277,0.0047,-0.0376,39.5063,21.7500,5.1750,
2.464054,-0.0264,-0.0011,-0.0001,0.0313,0.0019,-0.0439,39.5063,21.7500,5.1750,
2.505561,-0.0264,-0.0011,-0.0001,0.0313,0.0019,-0.0439,39.5063,21.7500,5.1750,
2.506677,-0.0758,-0.0487,-0.1147,0.0313,0.0019,-0.0439,39.5063,21.7500,5.1750,
2.507692,-0.0758,-0.0487,-0.1147,0.0313,0.0019,-0.0439,39.4688,21.9750,5.1562,
2.525079,-0.0758,-0.0487,-0.1147,0.0948,-0.0723,-0.0933,39.4688,21.9750,5.1562,
2.565656,-0.0758,-0.0487,-0.1147,0.0948,-0.0723,-0.0933,39.4688,21.9750,5.1562,
2.567076,-0.0758,-0.0487,-0.1147,0.0948,-0.0723,-0.0933,39.5063,22.0312,5.0438,
2.586433,-0.0758,-0.0487,-0.1147,0.1839,-0.0252,-0.1029,39.5063,22.0312,5.0438,
2.587877,0.0291,-0.0308,-0.1275,0.1839,-0.0252,-0.1029,39.5063,22.0312,5.0438,
2.626207,0.0291,-0.0308,-0.1275,0.1839,-0.0252,-0.1029,39.5063,22.0312,5.0438,
2.626965,0.0291,-0.0308,-0.1275,0.1839,-0.0252,-0.1029,39.6750,22.2938,5.1938,
2.647432,0.0291,-0.0308,-0.1275,0.1917,0.0349,-0.0610,39.6750,22.2938,5.1938,
2.648724,0.0052,-0.0042,0.0049,0.1917,0.0349,-0.0610,39.6750,22.2938,5.1938,
2.687452,0.0052,-0.0042,0.0049,0.1917,0.0349,-0.0610,39.6750,22.2938,5.1938,
2.688320,0.0052,-0.0042,0.0049,0.1917,0.0349,-0.0610,39.8250,22.4813,5.0438,
2.710500,0.0052,-0.0042,0.0049,0.2112,0.0055,-0.0738,39.8250,22.4813,5.0438,
2.711676,0.0521,-0.0316,-0.1071,0.2112,0.0055,-0.0738,39.8250,22.4813,5.0438,
2.750144,0.0521,-0.0316,-0.1071,0.2112,0.0055,-0.0738,39.8625,22.6313,5.0438,
2.751495,0.0521,-0.0316,-0.1071,0.2112,0.0055,-0.0738,39.8625,22.6313,5.0438,
2.769046,0.0521,-0.0316,-0.1071,0.2691,0.0690,-0.0525,39.8625,22.6313,5.0438,
2.769869,-0.0740,0.0359,-0.0261,0.2691,0.0690,-0.0525,39.8625,22.6313,5.0438,
2.810758,-0.0740,0.0359,-0.0261,0.2691,0.0690,-0.0525,39.9000,22.8938,4.8563,
2.811822,-0.0740,0.0359,-0.0261,0.2691,0.0690,-0.0525,39.9000,22.8938,4.8563,
2.830571,-0.0740,0.0359,-0.0261,0.2655,0.0566,-0.0386,39.9000,22.8938,4.8563,
2.850322,0.0624,0.0679,0.0643,0.2655,0.0566,-0.0386,39.9000,22.8938,4.8563,
2.869845,0.0624,0.0679,0.0643,0.2655,0.0566,-0.0386,40.0125,23.2688,4.7250,
2.871207,0.0624,0.0679,0.0643,0.2655,0.0566,-0.0386,40.0125,23.2688,4.7250,
2.890866,0.0624,0.0679,0.0643,0.2510,0.0537,-0.0202,40.0125,23.2688,4.7250,
2.911373,0.0070,-0.0307,-0.0189,0.2510,0.0537,-0.0202,40.0125,23.2688,4.7250,
2.929034,0.0070,-0.0307,-0.0189,0.2510,0.0537,-0.0202,39.8250,23.4938,4.3688,
2.930256,0.0070,-0.0307,-0.0189,0.2510,0.0537,-0.0202,39.8250,23.4938,4.3688,
2.951187,0.0070,-0.0307,-0.0189,0.3003,0.0724,-0.0237,39.8250,23.4938,4.3688,
2.971578,-0.0376,-0.1106,-0.1107,0.3003,0.0724,-0.0237,39.8250,23.4938,4.3688,
2.988242,-0.0376,-0.1106,-0.1107,0.3003,0.0724,-0.0237,39.7875,23.7375,4.1250,
2.991789,-0.0376,-0.1106,-0.1107,0.3003,0.0724,-0.0237,39.7875,23.7375,4.1250,
3.012012,-0.0376,-0.1106,-0.1107,0.4256,0.0700,-0.0482,39.7875,23.7375,4.1250,
3.048581,-0.0376,-0.1106,-0.1107,0.4256,0.0700,-0.0482,39.6375,24.0188,4.0125,
3.053255,-0.0376,-0.1106,-0.1107,0.4256,0.0700,-0.0482,39.6375,24.0188,4.0125,
3.054224,-0.3428,-0.2366,-0.0063,0.4256,0.0700,-0.0482,39.6375,24.0188,4.0125,
3.074133,-0.3428,-0.2366,-0.0063,0.6340,0.0083,-0.1236,39.6375,24.0188,4.0125,
3.109055,-0.3428,-0.2366,-0.0063,0.6340,0.0083,-0.1236,39.3563,24.2063,3.6188,
3.113285,-0.3428,-0.2366,-0.0063,0.6340,0.0083,-0.1236,39.3563,24.2063,3.6188,
3.114376,0.1047,0.0022,-0.2999,0.6340,0.0083,-0.1236,39.3563,24.2063,3.6188,
3.134267,0.1047,0.0022,-0.2999,0.6258,0.0115,-0.1441,39.3563,24.2063,3.6188,
3.168835,0.1047,0.0022,-0.2999,0.6258,0.0115,-0.1441,39.1688,24.4500,3.2625,
3.174452,0.1047,0.0022,-0.2999,0.6258,0.0115,-0.1441,39.1688,24.4500,3.2625,
3.175211,0.0721,0.0028,0.0873,0.6258,0.0115,-0.1441,39.1688,24.4500,3.2625,
3.194420,0.0721,0.0028,0.0873,0.5623,0.1613,-0.0181,39.1688,24.4500,3.2625,
3.228925,0.0721,0.0028,0.0873,0.5623,0.1613,-0.0181,38.8875,24.7313,2.7000,
3.235688,0.0721,0.0028,0.0873,0.5623,0.1613,-0.0181,38.8875,24.7313,2.7000,
3.236427,-0.5648,-0.1328,0.2115,0.5623,0.1613,-0.0181,38.8875,24.7313,2.7000,
3.256761,-0.5648,-0.1328,0.2115,0.8304,0.1137,-0.0411,38.8875,24.7313,2.7000,
3.289226,-0.5648,-0.1328,0.2115,0.8304,0.1137,-0.0411,38.7375,24.9750,2.2500,
3.301615,-0.5648,-0.1328,0.2115,0.8304,0.1137,-0.0411,38.7375,24.9750,2.2500,
3.316788,0.0308,0.5030,-0.3448,0.8304,0.1137,-0.0411,38.7375,24.9750,2.2500,
3.317564,0.0308,0.5030,-0.3448,1.1051,-0.0478,-0.1313,38.7375,24.9750,2.2500,
3.348126,0.0308,0.5030,-0.3448,1.1051,-0.0478,-0.1313,38.5500,25.1813,1.4062,
3.357913,0.0308,0.5030,-0.3448,1.1051,-0.0478,-0.1313,38.5500,25.1813,1.4062,
3.378618,0.7009,0.8767,-0.0371,1.1051,-0.0478,-0.1313,38.5500,25.1813,1.4062,
3.380211,0.7009,0.8767,-0.0371,1.2056,0.3213,-0.0614,38.5500,25.1813,1.4062,
3.408937,0.7009,0.8767,-0.0371,1.2056,0.3213,-0.0614,38.4563,25.3313,0.6750,
3.418231,0.7009,0.8767,-0.0371,1.2056,0.3213,-0.0614,38.4563,25.3313,0.6750,
3.438740,0.7009,0.8767,-0.0371,1.3418,-0.0148,-0.1402,38.4563,25.3313,0.6750,
3.440733,0.2445,-0.4020,-0.6237,1.3418,-0.0148,-0.1402,38.4563,25.3313,0.6750,
3.469101,0.2445,-0.4020,-0.6237,1.3418,-0.0148,-0.1402,38.2125,25.4063,-0.3000,
3.480010,0.2445,-0.4020,-0.6237,1.3418,-0.0148,-0.1402,38.2125,25.4063,-0.3000,
3.499480,0.2445,-0.4020,-0.6237,1.7019,0.6543,-0.3563,38.2125,25.4063,-0.3000,
3.520047,2.5488,-3.1508,0.7454,1.7019,0.6543,-0.3563,38.2125,25.4063,-0.3000,
3.529001,2.5488,-3.1508,0.7454,1.7019,0.6543,-0.3563,37.9875,25.5750,-1.5563,
3.540212,2.5488,-3.1508,0.7454,1.7019,0.6543,-0.3563,37.9875,25.5750,-1.5563,
3.559941,2.5488,-3.1508,0.7454,2.2879,1.6424,-0.2425,37.9875,25.5750,-1.5563,
3.581072,-1.3290,-2.3869,-1.8796,2.2879,1.6424,-0.2425,37.9875,25.5750,-1.5563,
3.589921,-1.3290,-2.3869,-1.8796,2.2879,1.6424,-0.2425,37.8188,25.8563,-2.5500,
3.600298,-1.3290,-2.3869,-1.8796,2.2879,1.6424,-0.2425,37.8188,25.8563,-2.5500,
3.619782,-1.3290,-2.3869,-1.8796,2.4232,0.3732,-0.3855,37.8188,25.8563,-2.5500,
3.641071,-1.5736,-2.2093,-3.1830,2.4232,0.3732,-0.3855,37.8188,25.8563,-2.5500,
3.647638,-1.5736,-2.2093,-3.1830,2.4232,0.3732,-0.3855,37.5750,26.0250,-3.5438,
3.661916,-1.5736,-2.2093,-3.1830,2.4232,0.3732,-0.3855,37.5750,26.0250,-3.5438,
3.682459,-1.5736,-2.2093,-3.1830,2.8155,0.7698,-0.0748,37.5750,26.0250,-3.5438,
3.702679,-5.1887,-4.3375,-1.5718,2.8155,0.7698,-0.0748,37.5750,26.0250,-3.5438,
3.707004,-5.1887,-4.3375,-1.5718,2.8155,0.7698,-0.0748,37.2938,26.0813,-4.8188,
3.722472,-5.1887,-4.3375,-1.5718,2.8155,0.7698,-0.0748,37.2938,26.0813,-4.8188,
3.743449,-5.1887,-4.3375,-1.5718,3.2638,-3.9155,-0.9037,37.2938,26.0813,-4.8188,
3.768302,-5.1887,-4.3375,-1.5718,3.2638,-3.9155,-0.9037,36.1125,26.3250,-7.5750,
3.784421,-0.3242,-5.3937,-14.6428,3.2638,-3.9155,-0.9037,36.1125,26.3250,-7.5750,
3.786779,-0.3242,-5.3937,-14.6428,3.2638,-3.9155,-0.9037,36.1125,26.3250,-7.5750,
3.803867,-0.3242,-5.3937,-14.6428,3.3572,-2.6131,-3.3160,36.1125,26.3250,-7.5750,
3.829187,-0.3242,-5.3937,-14.6428,3.3572,-2.6131,-3.3160,33.8250,26.6438,-11.3625,
3.844188,-1.3920,12.4688,13.8161,3.3572,-2.6131,-3.3160,33.8250,26.6438,-11.3625,
3.846096,-1.3920,12.4688,13.8161,3.3572,-2.6131,-3.3160,33.8250,26.6438,-11.3625,
3.864199,-1.3920,12.4688,13.8161,1.6742,-3.9781,-0.2297,33.8250,26.6438,-11.3625,
3.889401,-1.3920,12.4688,13.8161,1.6742,-3.9781,-0.2297,30.5250,26.7188,-15.7500,
3.906278,-1.3920,12.4688,13.8161,1.6742,-3.9781,-0.2297,30.5250,26.7188,-15.7500,
3.907713,5.5594,-6.5882,2.4389,1.6742,-3.9781,-0.2297,30.5250,26.7188,-15.7500,
3.926247,5.5594,-6.5882,2.4389,1.4513,-1.7554,-3.2082,30.5250,26.7188,-15.7500,
3.949040,5.5594,-6.5882,2.4389,1.4513,-1.7554,-3.2082,26.3813,26.9250,-19.6875,
3.968952,5.5594,-6.5882,2.4389,1.4513,-1.7554,-3.2082,26.3813,26.9250,-19.6875,
3.988125,5.5594,-6.5882,2.4389,-1.1573,2.8532,1.2077,26.3813,26.9250,-19.6875,
3.989977,-10.8968,8.9474,-9.7373,-1.1573,2.8532,1.2077,26.3813,26.9250,-19.6875,
4.008417,-10.8968,8.9474,-9.7373,-1.1573,2.8532,1.2077,23.2500,26.9063,-23.4938,
4.027524,-10.8968,8.9474,-9.7373,-1.1573,2.8532,1.2077,23.2500,26.9063,-23.4938,
4.048884,-10.8968,8.9474,-9.7373,-0.9744,1.3725,2.8783,23.2500,26.9063,-23.4938,
4.050453,-1.8146,3.5498,-5.0486,-0.9744,1.3725,2.8783,23.2500,26.9063,-23.4938,
4.068751,-1.8146,3.5498,-5.0486,-0.9744,1.3725,2.8783,20.9062,26.6250,-26.9250,
4.089174,-1.8146,3.5498,-5.0486,-0.9744,1.3725,2.8783,20.9062,26.6250,-26.9250,
4.109991,-1.8146,3.5498,-5.0486,-0.2314,0.6952,0.7456,20.9062,26.6250,-26.9250,
4.112413,-0.1164,1.2597,0.2813,-0.2314,0.6952,0.7456,20.9062,26.6250,-26.9250,
4.130267,-0.1164,1.2597,0.2813,-0.2314,0.6952,0.7456,19.1250,26.4563,-29.9063,
4.152793,-0.1164,1.2597,0.2813,-0.2314,0.6952,0.7456,19.1250,26.4563,-29.9063,
4.170628,-0.1164,1.2597,0.2813,0.6716,-3.4392,-1.1928,19.1250,26.4563,-29.9063,
4.172071,7.4429,3.9892,8.0361,0.6716,-3.4392,-1.1928,19.1250,26.4563,-29.9063,
4.188992,7.4429,3.9892,8.0361,0.6716,-3.4392,-1.1928,16.5188,26.3438,-32.9813,
4.210516,7.4429,3.9892,8.0361,0.6716,-3.4392,-1.1928,16.5188,26.3438,-32.9813,
4.231103,7.4429,3.9892,8.0361,0.4328,-1.6890,-1.7026,16.5188,26.3438,-32.9813,
4.250689,7.4429,3.9892,8.0361,0.4328,-1.6890,-1.7026,14.1188,26.0813,-34.8188,
4.253227,0.2449,1.9284,-3.5649,0.4328,-1.6890,-1.7026,14.1188,26.0813,-34.8188,
4.272600,0.2449,1.9284,-3.5649,0.4328,-1.6890,-1.7026,14.1188,26.0813,-34.8188,
4.291357,0.2449,1.9284,-3.5649,-0.3089,0.0728,0.1615,14.1188,26.0813,-34.8188,
4.309332,0.2449,1.9284,-3.5649,-0.3089,0.0728,0.1615,12.6563,25.7625,-35.2688,
4.311028,-1.6611,1.8547,-1.3238,-0.3089,0.0728,0.1615,12.6563,25.7625,-35.2688,
4.330487,-1.6611,1.8547,-1.3238,-0.3089,0.0728,0.1615,12.6563,25.7625,-35.2688,
4.351420,-1.6611,1.8547,-1.3238,-0.1672,-0.7280,-0.1633,12.6563,25.7625,-35.2688,
4.368389,-1.6611,1.8547,-1.3238,-0.1672,-0.7280,-0.1633,12.0750,25.9125,-35.2688,
4.372211,3.2551,-0.8768,1.6178,-0.1672,-0.7280,-0.1633,12.0750,25.9125,-35.2688,
4.393623,3.2551,-0.8768,1.6178,-0.1672,-0.7280,-0.1633,12.0750,25.9125,-35.2688,
4.413066,3.2551,-0.8768,1.6178,-0.2350,0.4549,-0.0965,12.0750,25.9125,-35.2688,
4.431390,3.2551,-0.8768,1.6178,-0.2350,0.4549,-0.0965,12.3000,26.1188,-34.8938,
4.434147,-0.2300,-1.6317,-0.5182,-0.2350,0.4549,-0.0965,12.3000,26.1188,-34.8938,
4.453718,-0.2300,-1.6317,-0.5182,-0.2350,0.4549,-0.0965,12.3000,26.1188,-34.8938,
4.474146,-0.2300,-1.6317,-0.5182,-0.2027,0.3722,0.0326,12.3000,26.1188,-34.8938,
4.488622,-0.2300,-1.6317,-0.5182,-0.2027,0.3722,0.0326,11.8125,26.4563,-34.8750,
4.514754,-0.2300,-1.6317,-0.5182,-0.2027,0.3722,0.0326,11.8125,26.4563,-34.8750,
4.516403,0.7107,-1.1560,0.2768,-0.2027,0.3722,0.0326,11.8125,26.4563,-34.8750,
4.535516,0.7107,-1.1560,0.2768,-0.1360,0.7705,0.2237,11.8125,26.4563,-34.8750,
4.549476,0.7107,-1.1560,0.2768,-0.1360,0.7705,0.2237,10.6125,26.9625,-35.2875,
4.575537,0.7107,-1.1560,0.2768,-0.1360,0.7705,0.2237,10.6125,26.9625,-35.2875,
4.577068,-0.2514,-0.2701,-0.3367,-0.1360,0.7705,0.2237,10.6125,26.9625,-35.2875,
4.595441,-0.2514,-0.2701,-0.3367,-0.2184,1.1084,0.3593,10.6125,26.9625,-35.2875,
4.608867,-0.2514,-0.2701,-0.3367,-0.2184,1.1084,0.3593,9.3375,27.4313,-35.9813,
4.636659,-0.2514,-0.2701,-0.3367,-0.2184,1.1084,0.3593,9.3375,27.4313,-35.9813,
4.638384,0.0015,0.4017,0.1082,-0.2184,1.1084,0.3593,9.3375,27.4313,-35.9813,
4.656259,0.0015,0.4017,0.1082,0.0912,-0.0610,0.0874,9.3375,27.4313,-35.9813,
4.668740,0.0015,0.4017,0.1082,0.0912,-0.0610,0.0874,9.0563,27.7500,-35.8500,
4.698456,0.0015,0.4017,0.1082,0.0912,-0.0610,0.0874,9.0563,27.7500,-35.8500,
4.718208,0.0015,0.4017,0.1082,-0.0071,0.3490,-0.0354,9.0563,27.7500,-35.8500,
4.720405,1.0884,0.0524,-0.8507,-0.0071,0.3490,-0.0354,9.0563,27.7500,-35.8500,
4.728673,1.0884,0.0524,-0.8507,-0.0071,0.3490,-0.0354,9.6000,28.1813,-35.4938,
4.759502,1.0884,0.0524,-0.8507,-0.0071,0.3490,-0.0354,9.6000,28.1813,-35.4938,
4.778373,-0.9258,0.1936,0.7818,-0.0071,0.3490,-0.0354,9.6000,28.1813,-35.4938,
4.780213,-0.9258,0.1936,0.7818,0.0188,-0.0734,-0.2059,9.6000,28.1813,-35.4938,
4.788689,-0.9258,0.1936,0.7818,0.0188,-0.0734,-0.2059,10.0688,28.4063,-35.4188,
4.820108,-0.9258,0.1936,0.7818,0.0188,-0.0734,-0.2059,10.0688,28.4063,-35.4188,
4.841717,-0.9258,0.1936,0.7818,0.0220,-0.3045,-0.2222,10.0688,28.4063,-35.4188,
4.845289,0.7965,-0.5153,-0.2422,0.0220,-0.3045,-0.2222,10.0688,28.4063,-35.4188,
4.849925,0.7965,-0.5153,-0.2422,0.0220,-0.3045,-0.2222,10.7625,28.5188,-34.9688,
4.879642,0.7965,-0.5153,-0.2422,0.0220,-0.3045,-0.2222,10.7625,28.5188,-34.9688,
4.900913,0.7965,-0.5153,-0.2422,0.0241,-0.0712,-0.2751,10.7625,28.5188,-34.9688,
4.902819,0.7048,-1.0357,0.1505,0.0241,-0.0712,-0.2751,10.7625,28.5188,-34.9688,
4.908820,0.7048,-1.0357,0.1505,0.0241,-0.0712,-0.2751,11.4188,28.7438,-34.5938,
4.941239,0.7048,-1.0357,0.1505,0.0241,-0.0712,-0.2751,11.4188,28.7438,-34.5938,
4.961333,0.7048,-1.0357,0.1505,-0.0228,0.1240,-0.2127,11.4188,28.7438,-34.5938,
4.970953,0.7048,-1.0357,0.1505,-0.0228,0.1240,-0.2127,11.8875,28.7625,-34.4062,
4.981888,-0.0826,0.0901,-0.1693,-0.0228,0.1240,-0.2127,11.8875,28.7625,-34.4062,
5.002021,-0.0826,0.0901,-0.1693,-0.0228,0.1240,-0.2127,11.8875,28.7625,-34.4062,
5.023571,-0.0826,0.0901,-0.1693,-0.0326,0.1683,-0.1863,11.8875,28.7625,-34.4062,
5.028058,-0.0826,0.0901,-0.1693,-0.0326,0.1683,-0.1863,12.0188,28.7063,-34.3313,
5.043154,-0.6486,-0.1312,0.7872,-0.0326,0.1683,-0.1863,12.0188,28.7063,-34.3313,
5.062431,-0.6486,-0.1312,0.7872,-0.0326,0.1683,-0.1863,12.0188,28.7063,-34.3313,
5.083216,-0.6486,-0.1312,0.7872,0.2822,-0.4100,-0.1161,12.0188,28.7063,-34.3313,
5.088133,-0.6486,-0.1312,0.7872,0.2822,-0.4100,-0.1161,11.9438,28.7063,-34.0875,
5.103188,-0.1123,-0.4652,-0.0880,0.2822,-0.4100,-0.1161,11.9438,28.7063,-34.0875,
5.123732,-0.1123,-0.4652,-0.0880,0.2822,-0.4100,-0.1161,11.9438,28.7063,-34.0875,
5.144904,-0.1123,-0.4652,-0.0880,0.1136,-0.2847,-0.1225,11.9438,28.7063,-34.0875,
5.148071,-0.1123,-0.4652,-0.0880,0.1136,-0.2847,-0.1225,11.7000,28.9313,-34.3875,
5.186216,-0.1123,-0.4652,-0.0880,0.1136,-0.2847,-0.1225,11.7000,28.9313,-34.3875,
5.188151,1.5940,0.4094,-0.8891,0.1136,-0.2847,-0.1225,11.7000,28.9313,-34.3875,
5.205065,1.5940,0.4094,-0.8891,-0.0633,0.0786,-0.2577,11.7000,28.9313,-34.3875,
5.209772,1.5940,0.4094,-0.8891,-0.0633,0.0786,-0.2577,10.9875,28.9875,-34.5375,
5.246445,1.5940,0.4094,-0.8891,-0.0633,0.0786,-0.2577,10.9875,28.9875,-34.5375,
5.247621,-0.0696,0.4309,0.1321,-0.0633,0.0786,-0.2577,10.9875,28.9875,-34.5375,
5.265236,-0.0696,0.4309,0.1321,-0.0426,-0.1047,-0.3816,10.9875,28.9875,-34.5375,
5.268799,-0.0696,0.4309,0.1321,-0.0426,-0.1047,-0.3816,10.5563,29.1188,-34.4813,
5.307124,-0.0696,0.4309,0.1321,-0.0426,-0.1047,-0.3816,10.5563,29.1188,-34.4813,
5.309145,-0.0017,0.5409,0.3002,-0.0426,-0.1047,-0.3816,10.5563,29.1188,-34.4813,
5.326902,-0.0017,0.5409,0.3002,0.0262,-0.5843,-0.6233,10.5563,29.1188,-34.4813,
5.329402,-0.0017,0.5409,0.3002,0.0262,-0.5843,-0.6233,9.8625,29.2313,-34.7438,
5.367225,-0.0017,0.5409,0.3002,0.0262,-0.5843,-0.6233,9.8625,29.2313,-34.7438,
5.368594,0.5077,0.3342,-0.6182,0.0262,-0.5843,-0.6233,9.8625,29.2313,-34.7438,
5.386440,0.5077,0.3342,-0.6182,-0.2336,-0.2200,-0.8219,9.8625,29.2313,-34.7438,
5.387726,0.5077,0.3342,-0.6182,-0.2336,-0.2200,-0.8219,9.0188,29.4000,-34.9688,
5.430923,0.5077,0.3342,-0.6182,-0.2336,-0.2200,-0.8219,9.0188,29.4000,-34.9688,
5.452362,0.5077,0.3342,-0.6182,-0.2336,-0.2200,-0.8219,7.9500,29.5500,-34.9688,
5.455063,-2.2542,-1.4287,0.0801,-0.2336,-0.2200,-0.8219,7.9500,29.5500,-34.9688,
5.456253,-2.2542,-1.4287,0.0801,-0.2201,-0.3489,-0.3610,7.9500,29.5500,-34.9688,
5.489637,-2.2542,-1.4287,0.0801,-0.2201,-0.3489,-0.3610,7.9500,29.5500,-34.9688,
5.509503,-2.2542,-1.4287,0.0801,0.1664,-0.7838,-0.1289,7.9500,29.5500,-34.9688,
5.511200,-2.2542,-1.4287,0.0801,0.1664,-0.7838,-0.1289,6.8438,29.9438,-34.9500,
5.512544,0.4077,-0.7021,2.5686,0.1664,-0.7838,-0.1289,6.8438,29.9438,-34.9500,
5.552172,0.4077,-0.7021,2.5686,0.1664,-0.7838,-0.1289,6.8438,29.9438,-34.9500,
5.570265,0.4077,-0.7021,2.5686,0.1664,-0.7838,-0.1289,5.3438,30.1313,-35.1750,
5.571925,0.4077,-0.7021,2.5686,0.4384,-1.0075,-0.5591,5.3438,30.1313,-35.1750,
5.573135,1.7496,-0.0549,-0.5173,0.4384,-1.0075,-0.5591,5.3438,30.1313,-35.1750,
5.613912,1.7496,-0.0549,-0.5173,0.4384,-1.0075,-0.5591,5.3438,30.1313,-35.1750,
5.627950,1.7496,-0.0549,-0.5173,0.4384,-1.0075,-0.5591,3.6375,30.1875,-35.2688,
5.631064,1.7496,-0.0549,-0.5173,0.4192,-0.5200,-0.8598,3.6375,30.1875,-35.2688,
5.652644,1.6545,-0.6837,-0.1004,0.4192,-0.5200,-0.8598,3.6375,30.1875,-35.2688,
5.671948,1.6545,-0.6837,-0.1004,0.4192,-0.5200,-0.8598,3.6375,30.1875,-35.2688,
5.688840,1.6545,-0.6837,-0.1004,0.4192,-0.5200,-0.8598,1.8375,30.2438,-35.4938,
5.692000,1.6545,-0.6837,-0.1004,0.2649,-0.5136,-0.8125,1.8375,30.2438,-35.4938,
5.711918,-5.0054,1.0796,-0.9336,0.2649,-0.5136,-0.8125,1.8375,30.2438,-35.4938,
5.733359,-5.0054,1.0796,-0.9336,0.2649,-0.5136,-0.8125,1.8375,30.2438,-35.4938,
5.750699,-5.0054,1.0796,-0.9336,0.2649,-0.5136,-0.8125,-0.4500,30.1313,-35.7375,
5.753951,-5.0054,1.0796,-0.9336,-0.2474,-2.1661,-0.2872,-0.4500,30.1313,-35.7375,
5.773574,-2.7207,-0.1810,-1.2665,-0.2474,-2.1661,-0.2872,-0.4500,30.1313,-35.7375,
5.794310,-2.7207,-0.1810,-1.2665,-0.2474,-2.1661,-0.2872,-0.4500,30.1313,-35.7375,
5.808898,-2.7207,-0.1810,-1.2665,-0.2474,-2.1661,-0.2872,-3.2813,30.0938,-35.6438,
5.816390,-2.7207,-0.1810,-1.2665,-0.1229,-2.1245,-0.6691,-3.2813,30.0938,-35.6438,
5.834122,1.4010,0.1181,0.4577,-0.1229,-2.1245,-0.6691,-3.2813,30.0938,-35.6438,
5.854575,1.4010,0.1181,0.4577,-0.1229,-2.1245,-0.6691,-3.2813,30.0938,-35.6438,
5.869247,1.4010,0.1181,0.4577,-0.1229,-2.1245,-0.6691,-6.4875,29.9438,-35.2500,
5.874286,1.4010,0.1181,0.4577,0.1477,-1.6425,0.3153,-6.4875,29.9438,-35.2500,
5.915677,1.4010,0.1181,0.4577,0.1477,-1.6425,0.3153,-6.4875,29.9438,-35.2500,
5.918564,1.5370,0.0231,1.0989,0.1477,-1.6425,0.3153,-6.4875,29.9438,-35.2500,
5.928588,1.5370,0.0231,1.0989,0.1477,-1.6425,0.3153,-8.9813,29.5688,-35.0625,
5.935292,1.5370,0.0231,1.0989,0.1818,-0.3925,0.8044,-8.9813,29.5688,-35.0625,
5.975546,1.5370,0.0231,1.0989,0.1818,-0.3925,0.8044,-8.9813,29.5688,-35.0625,
5.977036,1.6446,-0.4094,0.3504,0.1818,-0.3925,0.8044,-8.9813,29.5688,-35.0625,
5.987275,1.6446,-0.4094,0.3504,0.1818,-0.3925,0.8044,-11.8313,29.3250,-34.8375,
5.995074,1.6446,-0.4094,0.3504,0.3810,-0.2854,0.5344,-11.8313,29.3250,-34.8375,
6.036011,1.6446,-0.4094,0.3504,0.3810,-0.2854,0.5344,-11.8313,29.3250,-34.8375,
6.037779,0.0976,0.2472,-1.0387,0.3810,-0.2854,0.5344,-11.8313,29.3250,-34.8375,
6.047741,0.0976,0.2472,-1.0387,0.3810,-0.2854,0.5344,-14.3813,29.1938,-34.5000,
6.056791,0.0976,0.2472,-1.0387,0.1886,0.2486,0.1549,-14.3813,29.1938,-34.5000,
6.097343,0.0976,0.2472,-1.0387,0.1886,0.2486,0.1549,-14.3813,29.1938,-34.5000,
6.107402,0.0976,0.2472,-1.0387,0.1886,0.2486,0.1549,-16.5375,29.2875,-34.4813,
6.117724,0.0976,0.2472,-1.0387,0.3983,-0.1061,0.1502,-16.5375,29.2875,-34.4813,
6.119052,0.1170,-0.3103,0.3454,0.3983,-0.1061,0.1502,-16.5375,29.2875,-34.4813,
6.158273,0.1170,-0.3103,0.3454,0.3983,-0.1061,0.1502,-16.5375,29.2875,-34.4813,
6.167653,0.1170,-0.3103,0.3454,0.3983,-0.1061,0.1502,-18.2063,29.2125,-34.1813,
6.177983,0.1170,-0.3103,0.3454,0.4157,-0.4603,0.1314,-18.2063,29.2125,-34.1813,
6.179626,-0.1880,0.3188,-0.0972,0.4157,-0.4603,0.1314,-18.2063,29.2125,-34.1813,
6.219498,-0.1880,0.3188,-0.0972,0.4157,-0.4603,0.1314,-18.2063,29.2125,-34.1813,
6.227398,-0.1880,0.3188,-0.0972,0.4157,-0.4603,0.1314,-19.6500,29.2500,-33.9750,
6.239743,-0.1880,0.3188,-0.0972,0.3987,-0.1185,0.2186,-19.6500,29.2500,-33.9750,
6.241825,0.2595,0.0144,-0.5729,0.3987,-0.1185,0.2186,-19.6500,29.2500,-33.9750,
6.285965,0.2595,0.0144,-0.5729,0.3987,-0.1185,0.2186,-19.6500,29.2500,-33.9750,
6.288531,0.2595,0.0144,-0.5729,0.3987,-0.1185,0.2186,-20.3813,29.1563,-34.1063,
6.300750,-0.3203,0.6081,-0.2133,0.3987,-0.1185,0.2186,-20.3813,29.1563,-34.1063,
6.302404,-0.3203,0.6081,-0.2133,0.3245,-0.1490,0.1634,-20.3813,29.1563,-34.1063,
6.341039,-0.3203,0.6081,-0.2133,0.3245,-0.1490,0.1634,-20.3813,29.1563,-34.1063,
6.348245,-0.3203,0.6081,-0.2133,0.3245,-0.1490,0.1634,-20.4750,29.0063,-34.5938,
6.360626,-0.3203,0.6081,-0.2133,0.3163,-0.2272,0.4065,-20.4750,29.0063,-34.5938,
6.381344,0.2597,1.6330,0.7056,0.3163,-0.2272,0.4065,-20.4750,29.0063,-34.5938,
6.401596,0.2597,1.6330,0.7056,0.3163,-0.2272,0.4065,-20.4750,29.0063,-34.5938,
6.409334,0.2597,1.6330,0.7056,0.3163,-0.2272,0.4065,-20.2313,28.8938,-35.5125,
6.421866,0.2597,1.6330,0.7056,0.2740,1.0466,0.3398,-20.2313,28.8938,-35.5125,
6.442786,-2.1641,3.6822,-0.9313,0.2740,1.0466,0.3398,-20.2313,28.8938,-35.5125,
6.463003,-2.1641,3.6822,-0.9313,0.2740,1.0466,0.3398,-20.2313,28.8938,-35.5125,
6.467953,-2.1641,3.6822,-0.9313,0.2740,1.0466,0.3398,-19.8563,28.5563,-36.1875,
6.483730,-2.1641,3.6822,-0.9313,0.2246,0.0033,1.1424,-19.8563,28.5563,-36.1875,
6.504408,0.9622,1.8000,-0.5021,0.2246,0.0033,1.1424,-19.8563,28.5563,-36.1875,
6.524282,0.9622,1.8000,-0.5021,0.2246,0.0033,1.1424,-19.8563,28.5563,-36.1875,
6.527952,0.9622,1.8000,-0.5021,0.2246,0.0033,1.1424,-19.2188,28.2188,-36.6000,
6.546555,0.9622,1.8000,-0.5021,0.2393,-0.2871,0.6539,-19.2188,28.2188,-36.6000,
6.586151,2.5512,-5.1128,-2.3332,0.2393,-0.2871,0.6539,-19.2188,28.2188,-36.6000,
6.588217,2.5512,-5.1128,-2.3332,0.2393,-0.2871,0.6539,-19.2188,28.2188,-36.6000,
6.589246,2.5512,-5.1128,-2.3332,0.2393,-0.2871,0.6539,-19.1813,27.5250,-36.7500,
6.605809,2.5512,-5.1128,-2.3332,0.4437,-1.8044,0.1811,-19.1813,27.5250,-36.7500,
6.646512,2.5512,-5.1128,-2.3332,0.4437,-1.8044,0.1811,-19.1813,27.5250,-36.7500,
6.648548,-2.2303,2.7266,2.3560,0.4437,-1.8044,0.1811,-19.1813,27.5250,-36.7500,
6.650162,-2.2303,2.7266,2.3560,0.4437,-1.8044,0.1811,-19.3688,27.1688,-37.1250,
6.666648,-2.2303,2.7266,2.3560,-0.0369,-0.3474,2.3147,-19.3688,27.1688,-37.1250,
6.707517,-2.2303,2.7266,2.3560,-0.0369,-0.3474,2.3147,-19.3688,27.1688,-37.1250,
6.709745,-2.2303,2.7266,2.3560,-0.0369,-0.3474,2.3147,-18.9750,27.1125,-37.2938,
6.710906,-0.8323,-1.8107,1.0392,-0.0369,-0.3474,2.3147,-18.9750,27.1125,-37.2938,
6.726987,-0.8323,-1.8107,1.0392,-0.1385,-0.2818,1.6791,-18.9750,27.1125,-37.2938,
6.770041,-0.8323,-1.8107,1.0392,-0.1385,-0.2818,1.6791,-18.9750,27.1125,-37.2938,
6.771620,-0.8323,-1.8107,1.0392,-0.1385,-0.2818,1.6791,-18.2063,27.4313,-37.2750,
6.772725,-0.0929,-1.0646,0.3222,-0.1385,-0.2818,1.6791,-18.2063,27.4313,-37.2750,
6.790337,-0.0929,-1.0646,0.3222,-0.3337,-0.0862,1.7786,-18.2063,27.4313,-37.2750,
6.829513,-0.0929,-1.0646,0.3222,-0.3337,-0.0862,1.7786,-17.2688,27.9375,-37.3313,
6.831948,-0.0929,-1.0646,0.3222,-0.3337,-0.0862,1.7786,-17.2688,27.9375,-37.3313,
6.849579,-0.0929,-1.0646,0.3222,-0.4360,-0.1561,1.7609,-17.2688,27.9375,-37.3313,
6.852333,-0.1811,0.4533,-0.5677,-0.4360,-0.1561,1.7609,-17.2688,27.9375,-37.3313,
6.889288,-0.1811,0.4533,-0.5677,-0.4360,-0.1561,1.7609,-17.2688,27.9375,-37.3313,
6.890916,-0.1811,0.4533,-0.5677,-0.4360,-0.1561,1.7609,-16.0312,28.6313,-37.0125,
6.909820,-0.1811,0.4533,-0.5677,-0.3834,-0.2108,1.8176,-16.0312,28.6313,-37.0125,
6.911429,-0.0686,0.0913,-0.1794,-0.3834,-0.2108,1.8176,-16.0312,28.6313,-37.0125,
6.949076,-0.0686,0.0913,-0.1794,-0.3834,-0.2108,1.8176,-14.7375,29.6625,-36.5063,
6.951005,-0.0686,0.0913,-0.1794,-0.3834,-0.2108,1.8176,-14.7375,29.6625,-36.5063,
6.971526,-0.0686,0.0913,-0.1794,-0.4609,0.0622,1.9568,-14.7375,29.6625,-36.5063,
6.973624,0.4432,-0.0243,-1.1056,-0.4609,0.0622,1.9568,-14.7375,29.6625,-36.5063,
7.008890,0.4432,-0.0243,-1.1056,-0.4609,0.0622,1.9568,-13.0125,30.9938,-36.0375,
7.011620,0.4432,-0.0243,-1.1056,-0.4609,0.0622,1.9568,-13.0125,30.9938,-36.0375,
7.031771,0.4432,-0.0243,-1.1056,-0.7782,0.4807,2.2518,-13.0125,30.9938,-36.0375,
7.052990,-0.1153,0.1546,0.3602,-0.7782,0.4807,2.2518,-13.0125,30.9938,-36.0375,
7.068988,-0.1153,0.1546,0.3602,-0.7782,0.4807,2.2518,-10.0688,32.6250,-35.2500,
7.071054,-0.1153,0.1546,0.3602,-0.7782,0.4807,2.2518,-10.0688,32.6250,-35.2500,
7.094338,-0.1153,0.1546,0.3602,-0.8076,0.4431,2.1775,-10.0688,32.6250,-35.2500,
7.113176,-0.5399,-0.0527,-0.1734,-0.8076,0.4431,2.1775,-10.0688,32.6250,-35.2500,
7.127748,-0.5399,-0.0527,-0.1734,-0.8076,0.4431,2.1775,-6.5438,34.2000,-34.3875,
7.132351,-0.5399,-0.0527,-0.1734,-0.8076,0.4431,2.1775,-6.5438,34.2000,-34.3875,
7.154097,-0.5399,-0.0527,-0.1734,-0.5076,0.0072,1.8833,-6.5438,34.2000,-34.3875,
7.174930,-0.6414,-2.0509,-0.4523,-0.5076,0.0072,1.8833,-6.5438,34.2000,-34.3875,
7.189708,-0.6414,-2.0509,-0.4523,-0.5076,0.0072,1.8833,-2.9438,35.3813,-33.4875,
7.195251,-0.6414,-2.0509,-0.4523,-0.5076,0.0072,1.8833,-2.9438,35.3813,-33.4875,
7.214733,-0.6414,-2.0509,-0.4523,-0.0138,-0.3059,1.4988,-2.9438,35.3813,-33.4875,
7.235422,-0.5239,-0.9037,-0.2899,-0.0138,-0.3059,1.4988,-2.9438,35.3813,-33.4875,
7.249263,-0.5239,-0.9037,-0.2899,-0.0138,-0.3059,1.4988,0.5813,36.1500,-32.7563,
7.254876,-0.5239,-0.9037,-0.2899,-0.0138,-0.3059,1.4988,0.5813,36.1500,-32.7563,
7.274698,-0.5239,-0.9037,-0.2899,0.1824,-0.6340,0.6646,0.5813,36.1500,-32.7563,
7.309609,-0.5239,-0.9037,-0.2899,0.1824,-0.6340,0.6646,4.0312,36.6750,-32.0063,
7.316725,-0.5239,-0.9037,-0.2899,0.1824,-0.6340,0.6646,4.0312,36.6750,-32.0063,
7.317281,0.2537,0.3358,-0.0949,0.1824,-0.6340,0.6646,4.0312,36.6750,-32.0063,
7.337254,0.2537,0.3358,-0.0949,-0.0731,-0.1142,0.4353,4.0312,36.6750,-32.0063,
7.369761,0.2537,0.3358,-0.0949,-0.0731,-0.1142,0.4353,7.1250,36.9000,-31.2938,
7.376930,0.2537,0.3358,-0.0949,-0.0731,-0.1142,0.4353,7.1250,36.9000,-31.2938,
7.377662,-0.0852,-0.1025,-0.1793,-0.0731,-0.1142,0.4353,7.1250,36.9000,-31.2938,
7.397393,-0.0852,-0.1025,-0.1793,-0.1378,0.1666,0.4828,7.1250,36.9000,-31.2938,
7.428200,-0.0852,-0.1025,-0.1793,-0.1378,0.1666,0.4828,9.9563,37.0125,-30.8813,
7.438151,-0.0852,-0.1025,-0.1793,-0.1378,0.1666,0.4828,9.9563,37.0125,-30.8813,
7.439476,-0.2861,-0.0983,-0.1108,-0.1378,0.1666,0.4828,9.9563,37.0125,-30.8813,
7.458083,-0.2861,-0.0983,-0.1108,0.0788,-0.2236,0.1023,9.9563,37.0125,-30.8813,
7.489629,-0.2861,-0.0983,-0.1108,0.0788,-0.2236,0.1023,12.0938,36.5063,-30.6188,
7.498121,-0.2861,-0.0983,-0.1108,0.0788,-0.2236,0.1023,12.0938,36.5063,-30.6188,
7.518864,-0.2861,-0.0983,-0.1108,-0.0153,-0.0887,0.0810,12.0938,36.5063,-30.6188,
7.520563,0.2817,0.3230,0.0653,-0.0153,-0.0887,0.0810,12.0938,36.5063,-30.6188,
7.548415,0.2817,0.3230,0.0653,-0.0153,-0.0887,0.0810,13.6125,36.0938,-30.5625,
7.561087,0.2817,0.3230,0.0653,-0.0153,-0.0887,0.0810,13.6125,36.0938,-30.5625,
7.579487,0.2817,0.3230,0.0653,-0.0543,0.0274,0.2730,13.6125,36.0938,-30.5625,
7.581478,0.2258,0.2226,-0.0201,-0.0543,0.0274,0.2730,13.6125,36.0938,-30.5625,
7.609203,0.2258,0.2226,-0.0201,-0.0543,0.0274,0.2730,14.7375,35.7000,-30.6188,
7.620147,0.2258,0.2226,-0.0201,-0.0543,0.0274,0.2730,14.7375,35.7000,-30.6188,
7.640377,-0.0562,-0.1196,0.0182,-0.0543,0.0274,0.2730,14.7375,35.7000,-30.6188,
7.641763,-0.0562,-0.1196,0.0182,-0.0788,0.0796,0.2996,14.7375,35.7000,-30.6188,
7.668706,-0.0562,-0.1196,0.0182,-0.0788,0.0796,0.2996,15.4875,35.3063,-30.9000,
7.681206,-0.0562,-0.1196,0.0182,-0.0788,0.0796,0.2996,15.4875,35.3063,-30.9000,
7.701659,-0.0562,-0.1196,0.0182,-0.0537,0.0767,0.2261,15.4875,35.3063,-30.9000,
7.703239,-0.0662,0.0384,-0.0743,-0.0537,0.0767,0.2261,15.4875,35.3063,-30.9000,
7.728225,-0.0662,0.0384,-0.0743,-0.0537,0.0767,0.2261,16.0500,34.9875,-30.9000,
7.742544,-0.0662,0.0384,-0.0743,-0.0537,0.0767,0.2261,16.0500,34.9875,-30.9000,
7.762425,-0.0662,0.0384,-0.0743,-0.0217,0.0513,0.1662,16.0500,34.9875,-30.9000,
7.783433,-0.1961,-0.1330,-0.0791,-0.0217,0.0513,0.1662,16.0500,34.9875,-30.9000,
7.788806,-0.1961,-0.1330,-0.0791,-0.0217,0.0513,0.1662,16.5188,34.7438,-30.7313,
7.803569,-0.1961,-0.1330,-0.0791,-0.0217,0.0513,0.1662,16.5188,34.7438,-30.7313,
7.823213,-0.1961,-0.1330,-0.0791,0.0213,-0.0450,0.0358,16.5188,34.7438,-30.7313,
7.842903,0.1089,0.1940,-0.2150,0.0213,-0.0450,0.0358,16.5188,34.7438,-30.7313,
7.847870,0.1089,0.1940,-0.2150,0.0213,-0.0450,0.0358,17.1375,34.6500,-30.7875,
7.864283,0.1089,0.1940,-0.2150,0.0213,-0.0450,0.0358,17.1375,34.6500,-30.7875,
7.885226,0.1089,0.1940,-0.2150,-0.0511,0.1772,0.1698,17.1375,34.6500,-30.7875,
7.904398,-0.0510,0.0726,0.2841,-0.0511,0.1772,0.1698,17.1375,34.6500,-30.7875,
7.909060,-0.0510,0.0726,0.2841,-0.0511,0.1772,0.1698,17.5875,34.3500,-30.7125,
7.924934,-0.0510,0.0726,0.2841,-0.0511,0.1772,0.1698,17.5875,34.3500,-30.7125,
7.946105,-0.0510,0.0726,0.2841,-0.0238,-0.0205,0.1527,17.5875,34.3500,-30.7125,
7.970786,-0.0510,0.0726,0.2841,-0.0238,-0.0205,0.1527,18.1875,34.3875,-30.6188,
7.986831,-0.0510,0.0726,0.2841,-0.0238,-0.0205,0.1527,18.1875,34.3875,-30.6188,
7.988797,-0.1070,-0.1547,-0.1704,-0.0238,-0.0205,0.1527,18.1875,34.3875,-30.6188,
8.006393,-0.1070,-0.1547,-0.1704,0.0326,-0.0358,-0.0035,18.1875,34.3875,-30.6188,
8.028418,-0.1070,-0.1547,-0.1704,0.0326,-0.0358,-0.0035,18.5813,34.1625,-30.6188,
8.048442,-0.1070,-0.1547,-0.1704,0.0326,-0.0358,-0.0035,18.5813,34.1625,-30.6188,
8.051203,-0.0371,-0.0601,0.0021,0.0326,-0.0358,-0.0035,18.5813,34.1625,-30.6188,
8.068247,-0.0371,-0.0601,0.0021,0.0174,-0.0105,-0.0269,18.5813,34.1625,-30.6188,
8.089615,-0.0371,-0.0601,0.0021,0.0174,-0.0105,-0.0269,18.9375,33.9375,-30.6000,
8.109292,-0.0371,-0.0601,0.0021,0.0174,-0.0105,-0.0269,18.9375,33.9375,-30.6000,
8.110866,0.1866,0.2008,0.0247,0.0174,-0.0105,-0.0269,18.9375,33.9375,-30.6000,
8.129038,0.1866,0.2008,0.0247,-0.0369,0.1240,0.0895,18.9375,33.9375,-30.6000,
8.149618,0.1866,0.2008,0.0247,-0.0369,0.1240,0.0895,19.1813,33.7688,-30.4500,
8.170642,0.1866,0.2008,0.0247,-0.0369,0.1240,0.0895,19.1813,33.7688,-30.4500,
8.172743,-0.0544,-0.1041,0.0253,-0.0369,0.1240,0.0895,19.1813,33.7688,-30.4500,
8.190818,-0.0544,-0.1041,0.0253,-0.0196,0.0545,0.0912,19.1813,33.7688,-30.4500,
8.209100,-0.0544,-0.1041,0.0253,-0.0196,0.0545,0.0912,19.3500,33.6938,-30.5625,
8.228345,-0.0544,-0.1041,0.0253,-0.0196,0.0545,0.0912,19.3500,33.6938,-30.5625,
8.248857,-0.0544,-0.1041,0.0253,0.2208,0.0377,0.0334,19.3500,33.6938,-30.5625,
8.250491,0.0100,0.1424,0.0109,0.2208,0.0377,0.0334,19.3500,33.6938,-30.5625,
8.269390,0.0100,0.1424,0.0109,0.2208,0.0377,0.0334,19.5188,33.5250,-30.8250,
8.291385,0.0100,0.1424,0.0109,0.2208,0.0377,0.0334,19.5188,33.5250,-30.8250,
