
time,ax,ay,az,wx,wy,wz,Bx,By,Bz,
0.057884,0.0000,0.0000,0.0000,-0.0153,-0.0182,-0.0146,0.0000,0.0000,0.0000,
0.115984,0.0000,0.0000,0.0000,-0.0153,-0.0182,-0.0146,-11.3625,21.2063,-42.8625,
0.150464,0.0000,0.0000,0.0000,-0.0136,-0.0057,-0.0047,-11.3625,21.2063,-42.8625,
0.174794,0.0000,0.0000,0.0000,-0.0136,-0.0057,-0.0047,-10.8750,21.7313,-42.9938,
0.211351,0.0000,0.0000,0.0000,-0.0149,-0.0040,-0.0008,-10.8750,21.7313,-42.9938,
0.230786,0.0000,0.0000,0.0000,-0.0149,-0.0040,-0.0008,-10.8750,21.7313,-42.9938,
0.234534,0.0000,0.0000,0.0000,-0.0149,-0.0040,-0.0008,-10.9313,22.0500,-42.9563,
0.271929,0.0000,0.0000,0.0000,-0.0100,0.0017,0.0020,-10.9313,22.0500,-42.9563,
0.292300,0.0000,0.0000,0.0000,-0.0100,0.0017,0.0020,-10.9313,22.0500,-42.9563,
0.294978,0.0000,0.0000,0.0000,-0.0100,0.0017,0.0020,-10.9688,22.1438,-42.9563,
0.332886,0.0000,0.0000,0.0000,-0.0079,0.0017,0.0039,-10.9688,22.1438,-42.9563,
0.334472,0.0000,0.0000,0.0000,-0.0079,0.0017,0.0039,-10.9688,22.1438,-42.9563,
0.352882,0.0000,0.0000,0.0000,-0.0079,0.0017,0.0039,-10.9688,22.1438,-42.9563,
0.353844,0.0000,0.0000,0.0000,-0.0079,0.0017,0.0039,-10.9688,22.0688,-42.9375,
0.392780,0.0000,0.0000,0.0000,-0.0121,-0.0047,0.0013,-10.9688,22.0688,-42.9375,
0.413951,0.0000,0.0000,0.0000,-0.0121,-0.0047,0.0013,-11.0625,22.1063,-43.0688,
0.415264,-0.0006,0.0004,0.0055,-0.0121,-0.0047,0.0013,-11.0625,22.1063,-43.0688,
0.416249,-0.0006,0.0004,0.0055,-0.0121,-0.0047,0.0013,-11.0625,22.1063,-43.0688,
0.457928,-0.0006,0.0004,0.0055,-0.0083,-0.0033,0.0039,-11.0625,22.1063,-43.0688,
0.474960,-0.0006,0.0004,0.0055,-0.0083,-0.0033,0.0039,-11.0625,22.1063,-43.0688,
0.475822,-0.0046,-0.0016,0.0023,-0.0083,-0.0033,0.0039,-11.0625,22.1063,-43.0688,
0.476322,-0.0046,-0.0016,0.0023,-0.0083,-0.0033,0.0039,-11.0813,22.0125,-43.0500,
0.516828,-0.0046,-0.0016,0.0023,-0.0019,0.0013,0.0081,-11.0813,22.0125,-43.0500,
0.536471,-0.0046,-0.0016,0.0023,-0.0019,0.0013,0.0081,-11.0813,22.0125,-43.0500,
0.537516,0.0071,-0.0063,-0.0122,-0.0019,0.0013,0.0081,-11.0813,22.0125,-43.0500,
0.538149,0.0071,-0.0063,-0.0122,-0.0019,0.0013,0.0081,-11.0813,22.0500,-43.0688,
0.576405,0.0071,-0.0063,-0.0122,0.0011,0.0017,0.0103,-11.0813,22.0500,-43.0688,
0.593419,0.0071,-0.0063,-0.0122,0.0011,0.0017,0.0103,-11.0250,22.1813,-43.0500,
0.594276,0.0071,-0.0063,-0.0122,0.0011,0.0017,0.0103,-11.0250,22.1813,-43.0500,
0.594732,0.0079,0.0025,-0.0075,0.0011,0.0017,0.0103,-11.0250,22.1813,-43.0500,
0.637188,0.0079,0.0025,-0.0075,0.0060,0.0056,0.0103,-11.0250,22.1813,-43.0500,
0.655125,0.0079,0.0025,-0.0075,0.0060,0.0056,0.0103,-11.0250,22.2750,-42.9375,
0.659131,0.0079,0.0025,-0.0075,0.0060,0.0056,0.0103,-11.0250,22.2750,-42.9375,
0.676655,0.0061,0.0021,-0.0050,0.0060,0.0056,0.0103,-11.0250,22.2750,-42.9375,
0.697248,0.0061,0.0021,-0.0050,0.0032,0.0017,0.0084,-11.0250,22.2750,-42.9375,
0.715970,0.0061,0.0021,-0.0050,0.0032,0.0017,0.0084,-11.0063,22.3125,-43.0312,
0.717489,0.0061,0.0021,-0.0050,0.0032,0.0017,0.0084,-11.0063,22.3125,-43.0312,
0.738007,-0.0094,-0.0045,0.0114,0.0032,0.0017,0.0084,-11.0063,22.3125,-43.0312,
0.758552,-0.0094,-0.0045,0.0114,0.0028,0.0009,0.0071,-11.0063,22.3125,-43.0312,
0.774550,-0.0094,-0.0045,0.0114,0.0028,0.0009,0.0071,-10.8750,22.3313,-43.2188,
0.778982,-0.0094,-0.0045,0.0114,0.0028,0.0009,0.0071,-10.8750,22.3313,-43.2188,
0.799590,-0.0024,-0.0019,-0.0100,0.0028,0.0009,0.0071,-10.8750,22.3313,-43.2188,
0.819330,-0.0024,-0.0019,-0.0100,-0.0019,-0.0008,0.0017,-10.8750,22.3313,-43.2188,
0.834875,-0.0024,-0.0019,-0.0100,-0.0019,-0.0008,0.0017,-10.8000,22.4438,-43.2188,
0.838960,-0.0024,-0.0019,-0.0100,-0.0019,-0.0008,0.0017,-10.8000,22.4438,-43.2188,
0.881151,-0.0024,-0.0019,-0.0100,0.0024,0.0009,0.0052,-10.8000,22.4438,-43.2188,
0.882609,-0.0101,-0.0010,-0.0010,0.0024,0.0009,0.0052,-10.8000,22.4438,-43.2188,
0.893701,-0.0101,-0.0010,-0.0010,0.0024,0.0009,0.0052,-10.7250,22.4250,-43.1063,
0.900532,-0.0101,-0.0010,-0.0010,0.0024,0.0009,0.0052,-10.7250,22.4250,-43.1063,
0.941720,-0.0101,-0.0010,-0.0010,0.0056,0.0024,0.0067,-10.7250,22.4250,-43.1063,
0.942897,0.0092,-0.0002,-0.0103,0.0056,0.0024,0.0067,-10.7250,22.4250,-43.1063,
0.955967,0.0092,-0.0002,-0.0103,0.0056,0.0024,0.0067,-10.5375,22.5000,-43.1250,
0.961447,0.0092,-0.0002,-0.0103,0.0056,0.0024,0.0067,-10.5375,22.5000,-43.1250,
1.002376,0.0092,-0.0002,-0.0103,0.0064,0.0031,0.0049,-10.5375,22.5000,-43.1250,
1.003638,-0.0005,0.0004,-0.0109,0.0064,0.0031,0.0049,-10.5375,22.5000,-43.1250,
1.014909,-0.0005,0.0004,-0.0109,0.0064,0.0031,0.0049,-10.4438,22.5188,-43.0125,
1.023146,-0.0005,0.0004,-0.0109,0.0064,0.0031,0.0049,-10.4438,22.5188,-43.0125,
1.062883,-0.0005,0.0004,-0.0109,0.0049,0.0028,0.0041,-10.4438,22.5188,-43.0125,
1.064393,-0.0027,-0.0003,0.0036,0.0049,0.0028,0.0041,-10.4438,22.5188,-43.0125,
1.075178,-0.0027,-0.0003,0.0036,0.0049,0.0028,0.0041,-10.3688,22.4250,-43.0875,
1.083847,-0.0027,-0.0003,0.0036,0.0049,0.0028,0.0041,-10.3688,22.4250,-43.0875,
1.124314,-0.0027,-0.0003,0.0036,0.0075,0.0049,0.0045,-10.3688,22.4250,-43.0875,
1.135105,-0.0027,-0.0003,0.0036,0.0075,0.0049,0.0045,-10.4062,22.4438,-43.3875,
1.144210,-0.0027,-0.0003,0.0036,0.0075,0.0049,0.0045,-10.4062,22.4438,-43.3875,
1.145095,0.0083,0.0000,-0.0151,0.0075,0.0049,0.0045,-10.4062,22.4438,-43.3875,
1.185406,0.0083,0.0000,-0.0151,0.0092,0.0039,0.0052,-10.4062,22.4438,-43.3875,
1.194459,0.0083,0.0000,-0.0151,0.0092,0.0039,0.0052,-10.4250,22.3875,-43.4250,
1.205841,0.0083,0.0000,-0.0151,0.0092,0.0039,0.0052,-10.4250,22.3875,-43.4250,
1.206926,0.0047,0.0001,-0.0035,0.0092,0.0039,0.0052,-10.4250,22.3875,-43.4250,
1.245296,0.0047,0.0001,-0.0035,0.0088,0.0013,0.0045,-10.4250,22.3875,-43.4250,
1.254392,0.0047,0.0001,-0.0035,0.0088,0.0013,0.0045,-10.4625,22.3500,-43.2375,
1.267318,0.0047,0.0001,-0.0035,0.0088,0.0013,0.0045,-10.4625,22.3500,-43.2375,
1.268429,-0.0035,0.0020,0.0013,0.0088,0.0013,0.0045,-10.4625,22.3500,-43.2375,
1.306194,-0.0035,0.0020,0.0013,0.0053,0.0041,0.0049,-10.4625,22.3500,-43.2375,
1.315299,-0.0035,0.0020,0.0013,0.0053,0.0041,0.0049,-10.4625,22.3688,-43.2750,
1.326428,-0.0035,0.0020,0.0013,0.0053,0.0041,0.0049,-10.4625,22.3688,-43.2750,
1.347134,0.0080,-0.0011,0.0062,0.0053,0.0041,0.0049,-10.4625,22.3688,-43.2750,
1.368016,0.0080,-0.0011,0.0062,-0.0011,-0.0008,0.0028,-10.4625,22.3688,-43.2750,
1.376372,0.0080,-0.0011,0.0062,-0.0011,-0.0008,0.0028,-10.4625,22.4250,-43.4062,
1.388064,0.0080,-0.0011,0.0062,-0.0011,-0.0008,0.0028,-10.4625,22.4250,-43.4062,
1.408625,-0.0132,0.0047,0.0173,-0.0011,-0.0008,0.0028,-10.4625,22.4250,-43.4062,
1.428526,-0.0132,0.0047,0.0173,-0.0008,-0.0008,0.0060,-10.4625,22.4250,-43.4062,
1.433882,-0.0132,0.0047,0.0173,-0.0008,-0.0008,0.0060,-10.6313,22.5375,-43.5563,
1.448227,-0.0132,0.0047,0.0173,-0.0008,-0.0008,0.0060,-10.6313,22.5375,-43.5563,
1.474090,0.0149,-0.0003,-0.0030,-0.0008,-0.0008,0.0060,-10.6313,22.5375,-43.5563,
1.489840,0.0149,-0.0003,-0.0030,-0.0011,-0.0008,0.0060,-10.6313,22.5375,-43.5563,
1.498450,0.0149,-0.0003,-0.0030,-0.0011,-0.0008,0.0060,-10.8563,22.4813,-43.6688,
1.515059,0.0149,-0.0003,-0.0030,-0.0011,-0.0008,0.0060,-10.8563,22.4813,-43.6688,
1.532002,0.0080,0.0005,0.0075,-0.0011,-0.0008,0.0060,-10.8563,22.4813,-43.6688,
1.556576,0.0080,0.0005,0.0075,0.0007,0.0007,0.0084,-10.8563,22.4813,-43.6688,
1.557160,0.0080,0.0005,0.0075,0.0007,0.0007,0.0084,-10.9313,22.4813,-43.6688,
1.574053,0.0080,0.0005,0.0075,0.0007,0.0007,0.0084,-10.9313,22.4813,-43.6688,
1.616129,0.0080,0.0005,0.0075,0.0035,0.0045,0.0092,-10.9313,22.4813,-43.6688,
1.617839,0.0038,0.0007,-0.0010,0.0035,0.0045,0.0092,-10.9313,22.4813,-43.6688,
1.619012,0.0038,0.0007,-0.0010,0.0035,0.0045,0.0092,-10.9500,22.2563,-43.4625,
1.633376,0.0038,0.0007,-0.0010,0.0035,0.0045,0.0092,-10.9500,22.2563,-43.4625,
1.673954,0.0038,0.0007,-0.0010,-0.0025,0.0007,0.0039,-10.9500,22.2563,-43.4625,
1.675553,0.0038,-0.0050,-0.0036,-0.0025,0.0007,0.0039,-10.9500,22.2563,-43.4625,
1.677440,0.0038,-0.0050,-0.0036,-0.0025,0.0007,0.0039,-10.9313,22.1813,-43.3313,
1.692455,0.0038,-0.0050,-0.0036,-0.0025,0.0007,0.0039,-10.9313,22.1813,-43.3313,
1.735613,0.0038,-0.0050,-0.0036,-0.0061,-0.0029,0.0024,-10.9313,22.1813,-43.3313,
1.737720,-0.0062,0.0023,0.0123,-0.0061,-0.0029,0.0024,-10.9313,22.1813,-43.3313,
1.739438,-0.0062,0.0023,0.0123,-0.0061,-0.0029,0.0024,-10.8938,22.2375,-43.3500,
1.753138,-0.0062,0.0023,0.0123,-0.0061,-0.0029,0.0024,-10.8938,22.2375,-43.3500,
1.794653,-0.0062,0.0023,0.0123,-0.0100,-0.0025,-0.0019,-10.8938,22.2375,-43.3500,
1.796553,-0.0062,0.0023,0.0123,-0.0100,-0.0025,-0.0019,-10.7625,22.2563,-43.4062,
1.817713,-0.0062,0.0023,0.0123,-0.0100,-0.0025,-0.0019,-10.7625,22.2563,-43.4062,
1.819252,-0.0074,0.0057,0.0118,-0.0100,-0.0025,-0.0019,-10.7625,22.2563,-43.4062,
1.855405,-0.0074,0.0057,0.0118,-0.0100,-0.0025,-0.0019,-10.6875,22.2563,-43.3500,
1.856920,-0.0074,0.0057,0.0118,-0.0075,0.0003,0.0013,-10.6875,22.2563,-43.3500,
1.876108,-0.0074,0.0057,0.0118,-0.0075,0.0003,0.0013,-10.6875,22.2563,-43.3500,
1.876724,-0.0047,0.0004,0.0116,-0.0075,0.0003,0.0013,-10.6875,22.2563,-43.3500,
1.915582,-0.0047,0.0004,0.0116,-0.0075,0.0003,0.0013,-10.5750,22.2563,-43.2188,
1.916942,-0.0047,0.0004,0.0116,-0.0032,0.0028,0.0031,-10.5750,22.2563,-43.2188,
1.936202,-0.0047,0.0004,0.0116,-0.0032,0.0028,0.0031,-10.5750,22.2563,-43.2188,
1.937073,0.0100,-0.0087,-0.0055,-0.0032,0.0028,0.0031,-10.5750,22.2563,-43.2188,
1.975933,0.0100,-0.0087,-0.0055,-0.0079,-0.0019,-0.0008,-10.5750,22.2563,-43.2188,
1.976570,0.0100,-0.0087,-0.0055,-0.0079,-0.0019,-0.0008,-10.2750,22.3688,-43.2375,
1.997662,0.0100,-0.0087,-0.0055,-0.0079,-0.0019,-0.0008,-10.2750,22.3688,-43.2375,
1.998785,-0.0044,-0.0042,-0.0044,-0.0079,-0.0019,-0.0008,-10.2750,22.3688,-43.2375,
2.035582,-0.0044,-0.0042,-0.0044,-0.0079,-0.0019,-0.0008,-10.1625,22.5188,-43.2188,
2.037720,-0.0044,-0.0042,-0.0044,-0.0132,-0.0047,-0.0055,-10.1625,22.5188,-43.2188,
2.057851,-0.0044,-0.0042,-0.0044,-0.0132,-0.0047,-0.0055,-10.1625,22.5188,-43.2188,
2.078184,-0.0118,0.0026,0.0142,-0.0132,-0.0047,-0.0055,-10.1625,22.5188,-43.2188,
2.095115,-0.0118,0.0026,0.0142,-0.0132,-0.0047,-0.0055,-10.1250,22.7812,-43.2188,
2.096912,-0.0118,0.0026,0.0142,-0.0111,-0.0051,-0.0065,-10.1250,22.7812,-43.2188,
2.118689,-0.0118,0.0026,0.0142,-0.0111,-0.0051,-0.0065,-10.1250,22.7812,-43.2188,
2.140650,-0.0116,-0.0036,-0.0024,-0.0111,-0.0051,-0.0065,-10.1250,22.7812,-43.2188,
2.155120,-0.0116,-0.0036,-0.0024,-0.0111,-0.0051,-0.0065,-10.1438,22.8188,-43.1813,
2.160358,-0.0116,-0.0036,-0.0024,-0.0019,-0.0001,-0.0025,-10.1438,22.8188,-43.1813,
2.179897,-0.0116,-0.0036,-0.0024,-0.0019,-0.0001,-0.0025,-10.1438,22.8188,-43.1813,
2.202005,0.0140,-0.0033,-0.0105,-0.0019,-0.0001,-0.0025,-10.1438,22.8188,-43.1813,
2.215134,0.0140,-0.0033,-0.0105,-0.0019,-0.0001,-0.0025,-10.1813,22.7063,-43.2563,
2.218579,0.0140,-0.0033,-0.0105,-0.0015,0.0009,-0.0044,-10.1813,22.7063,-43.2563,
2.242884,0.0140,-0.0033,-0.0105,-0.0015,0.0009,-0.0044,-10.1813,22.7063,-43.2563,
2.276252,0.0140,-0.0033,-0.0105,-0.0015,0.0009,-0.0044,-10.4438,22.7063,-43.2000,
2.280829,-0.0072,0.0008,-0.0028,-0.0015,0.0009,-0.0044,-10.4438,22.7063,-43.2000,
2.281762,-0.0072,0.0008,-0.0028,-0.0061,-0.0015,-0.0115,-10.4438,22.7063,-43.2000,
2.301706,-0.0072,0.0008,-0.0028,-0.0061,-0.0015,-0.0115,-10.4438,22.7063,-43.2000,
2.334743,-0.0072,0.0008,-0.0028,-0.0061,-0.0015,-0.0115,-10.5000,22.7250,-43.3125,
2.342722,-0.0072,0.0008,-0.0028,-0.0019,0.0020,-0.0100,-10.5000,22.7250,-43.3125,
2.343214,-0.0229,-0.0007,0.0054,-0.0019,0.0020,-0.0100,-10.5000,22.7250,-43.3125,
2.362315,-0.0229,-0.0007,0.0054,-0.0019,0.0020,-0.0100,-10.5000,22.7250,-43.3125,
2.395690,-0.0229,-0.0007,0.0054,-0.0019,0.0020,-0.0100,-10.6500,22.6688,-43.5000,
2.402638,-0.0229,-0.0007,0.0054,-0.0040,-0.0012,-0.0142,-10.6500,22.6688,-43.5000,
2.403472,0.0179,-0.0012,-0.0126,-0.0040,-0.0012,-0.0142,-10.6500,22.6688,-43.5000,
2.423368,0.0179,-0.0012,-0.0126,-0.0040,-0.0012,-0.0142,-10.6500,22.6688,-43.5000,
2.455288,0.0179,-0.0012,-0.0126,-0.0040,-0.0012,-0.0142,-10.7812,22.6125,-43.4250,
2.463619,0.0179,-0.0012,-0.0126,-0.0036,0.0020,-0.0150,-10.7812,22.6125,-43.4250,
2.464621,-0.0114,-0.0004,-0.0013,-0.0036,0.0020,-0.0150,-10.7812,22.6125,-43.4250,
2.485814,-0.0114,-0.0004,-0.0013,-0.0036,0.0020,-0.0150,-10.7812,22.6125,-43.4250,
2.515397,-0.0114,-0.0004,-0.0013,-0.0036,0.0020,-0.0150,-10.8375,22.5375,-43.5375,
2.526248,-0.0114,-0.0004,-0.0013,-0.0072,-0.0019,-0.0182,-10.8375,22.5375,-43.5375,
2.546413,-0.0114,-0.0004,-0.0013,-0.0072,-0.0019,-0.0182,-10.8375,22.5375,-43.5375,
2.547623,-0.0150,0.0040,0.0109,-0.0072,-0.0019,-0.0182,-10.8375,22.5375,-43.5375,
2.574550,-0.0150,0.0040,0.0109,-0.0072,-0.0019,-0.0182,-10.8938,22.3875,-43.5375,
2.585298,-0.0150,0.0040,0.0109,-0.0075,-0.0036,-0.0193,-10.8938,22.3875,-43.5375,
2.606730,-0.0150,0.0040,0.0109,-0.0075,-0.0036,-0.0193,-10.8938,22.3875,-43.5375,
2.607983,0.0008,0.0018,0.0104,-0.0075,-0.0036,-0.0193,-10.8938,22.3875,-43.5375,
2.635360,0.0008,0.0018,0.0104,-0.0075,-0.0036,-0.0193,-10.9313,22.2938,-43.5938,
2.646342,0.0008,0.0018,0.0104,-0.0061,-0.0029,-0.0178,-10.9313,22.2938,-43.5938,
2.668302,0.0008,0.0018,0.0104,-0.0061,-0.0029,-0.0178,-10.9313,22.2938,-43.5938,
2.669504,-0.0007,0.0018,0.0049,-0.0061,-0.0029,-0.0178,-10.9313,22.2938,-43.5938,
2.695520,-0.0007,0.0018,0.0049,-0.0061,-0.0029,-0.0178,-11.0063,22.3500,-43.5000,
2.707340,-0.0007,0.0018,0.0049,-0.0051,-0.0025,-0.0142,-11.0063,22.3500,-43.5000,
2.727290,-0.0007,0.0018,0.0049,-0.0051,-0.0025,-0.0142,-11.0063,22.3500,-43.5000,
2.746815,0.0022,0.0079,-0.0025,-0.0051,-0.0025,-0.0142,-11.0063,22.3500,-43.5000,
2.754145,0.0022,0.0079,-0.0025,-0.0051,-0.0025,-0.0142,-10.9313,22.3125,-43.3688,
2.768771,0.0022,0.0079,-0.0025,-0.0008,-0.0008,-0.0115,-10.9313,22.3125,-43.3688,
2.789136,0.0022,0.0079,-0.0025,-0.0008,-0.0008,-0.0115,-10.9313,22.3125,-43.3688,
2.810530,0.0047,-0.0011,-0.0106,-0.0008,-0.0008,-0.0115,-10.9313,22.3125,-43.3688,
2.815347,0.0047,-0.0011,-0.0106,-0.0008,-0.0008,-0.0115,-10.9125,22.3125,-43.3125,
2.829299,0.0047,-0.0011,-0.0106,-0.0025,0.0003,-0.0097,-10.9125,22.3125,-43.3125,
2.849307,0.0047,-0.0011,-0.0106,-0.0025,0.0003,-0.0097,-10.9125,22.3125,-43.3125,
2.869771,0.0081,-0.0065,-0.0026,-0.0025,0.0003,-0.0097,-10.9125,22.3125,-43.3125,
2.876310,0.0081,-0.0065,-0.0026,-0.0025,0.0003,-0.0097,-10.7812,22.3875,-43.1813,
2.890444,0.0081,-0.0065,-0.0026,-0.0047,-0.0008,-0.0076,-10.7812,22.3875,-43.1813,
2.911221,0.0081,-0.0065,-0.0026,-0.0047,-0.0008,-0.0076,-10.7812,22.3875,-43.1813,
2.930951,0.0126,-0.0032,0.0096,-0.0047,-0.0008,-0.0076,-10.7812,22.3875,-43.1813,
2.935135,0.0126,-0.0032,0.0096,-0.0047,-0.0008,-0.0076,-10.7812,22.3875,-43.2188,
2.951077,0.0126,-0.0032,0.0096,-0.0025,-0.0001,-0.0051,-10.7812,22.3875,-43.2188,
2.971032,0.0126,-0.0032,0.0096,-0.0025,-0.0001,-0.0051,-10.7812,22.3875,-43.2188,
2.995479,0.0126,-0.0032,0.0096,-0.0025,-0.0001,-0.0051,-10.7625,22.4250,-43.1438,
3.012544,0.0126,-0.0032,0.0096,-0.0011,0.0013,-0.0012,-10.7625,22.4250,-43.1438,
3.013590,0.0093,-0.0044,-0.0039,-0.0011,0.0013,-0.0012,-10.7625,22.4250,-43.1438,
3.032995,0.0093,-0.0044,-0.0039,-0.0011,0.0013,-0.0012,-10.7625,22.4250,-43.1438,
3.054368,0.0093,-0.0044,-0.0039,-0.0011,0.0013,-0.0012,-10.7625,22.3500,-43.0875,
3.072131,0.0093,-0.0044,-0.0039,-0.0011,0.0028,-0.0001,-10.7625,22.3500,-43.0875,
3.073916,0.0050,0.0016,-0.0082,-0.0011,0.0028,-0.0001,-10.7625,22.3500,-43.0875,
3.093347,0.0050,0.0016,-0.0082,-0.0011,0.0028,-0.0001,-10.7625,22.3500,-43.0875,
3.115399,0.0050,0.0016,-0.0082,-0.0011,0.0028,-0.0001,-10.7250,22.4438,-43.1063,
3.138327,0.0050,0.0016,-0.0082,-0.0021,0.0013,-0.0001,-10.7250,22.4438,-43.1063,
3.140054,0.0064,0.0008,0.0076,-0.0021,0.0013,-0.0001,-10.7250,22.4438,-43.1063,
3.153360,0.0064,0.0008,0.0076,-0.0021,0.0013,-0.0001,-10.7250,22.4438,-43.1063,
3.175236,0.0064,0.0008,0.0076,-0.0021,0.0013,-0.0001,-10.7250,22.4625,-43.0875,
3.197882,0.0064,0.0008,0.0076,-0.0036,-0.0004,0.0007,-10.7250,22.4625,-43.0875,
3.215776,0.0064,0.0008,0.0076,-0.0036,-0.0004,0.0007,-10.7250,22.4625,-43.0875,
3.216464,0.0067,-0.0066,0.0003,-0.0036,-0.0004,0.0007,-10.7250,22.4625,-43.0875,
3.235361,0.0067,-0.0066,0.0003,-0.0036,-0.0004,0.0007,-10.7250,22.4250,-43.2563,
3.255101,0.0067,-0.0066,0.0003,-0.0068,-0.0040,-0.0012,-10.7250,22.4250,-43.2563,
3.276631,0.0067,-0.0066,0.0003,-0.0068,-0.0040,-0.0012,-10.7250,22.4250,-43.2563,
3.277812,0.0108,-0.0016,0.0010,-0.0068,-0.0040,-0.0012,-10.7250,22.4250,-43.2563,
3.295562,0.0108,-0.0016,0.0010,-0.0068,-0.0040,-0.0012,-10.7812,22.5000,-43.2188,
3.315865,0.0108,-0.0016,0.0010,-0.0064,-0.0008,-0.0001,-10.7812,22.5000,-43.2188,
3.336261,0.0108,-0.0016,0.0010,-0.0064,-0.0008,-0.0001,-10.7812,22.5000,-43.2188,
3.337693,0.0060,-0.0035,-0.0049,-0.0064,-0.0008,-0.0001,-10.7812,22.5000,-43.2188,
3.354314,0.0060,-0.0035,-0.0049,-0.0064,-0.0008,-0.0001,-10.7438,22.4062,-43.2000,
3.378099,0.0060,-0.0035,-0.0049,-0.0064,-0.0001,0.0017,-10.7438,22.4062,-43.2000,
3.397749,0.0060,-0.0035,-0.0049,-0.0064,-0.0001,0.0017,-10.7438,22.4062,-43.2000,
3.399226,0.0062,0.0043,0.0053,-0.0064,-0.0001,0.0017,-10.7438,22.4062,-43.2000,
3.415002,0.0062,0.0043,0.0053,-0.0064,-0.0001,0.0017,-10.7250,22.5563,-43.1063,
3.439011,0.0062,0.0043,0.0053,-0.0021,0.0007,0.0056,-10.7250,22.5563,-43.1063,
3.458252,0.0062,0.0043,0.0053,-0.0021,0.0007,0.0056,-10.7250,22.5563,-43.1063,
3.474878,0.0062,0.0043,0.0053,-0.0021,0.0007,0.0056,-10.7625,22.5938,-42.9938,
3.478010,0.0134,-0.0056,-0.0058,-0.0021,0.0007,0.0056,-10.7625,22.5938,-42.9938,
3.499306,0.0134,-0.0056,-0.0058,-0.0000,0.0007,0.0084,-10.7625,22.5938,-42.9938,
3.520296,0.0134,-0.0056,-0.0058,-0.0000,0.0007,0.0084,-10.7625,22.5938,-42.9938,
3.536090,0.0134,-0.0056,-0.0058,-0.0000,0.0007,0.0084,-10.6313,22.8000,-42.9938,
3.539090,0.0136,0.0006,-0.0014,-0.0000,0.0007,0.0084,-10.6313,22.8000,-42.9938,
3.559919,0.0136,0.0006,-0.0014,-0.0015,-0.0023,0.0081,-10.6313,22.8000,-42.9938,
3.580630,0.0136,0.0006,-0.0014,-0.0015,-0.0023,0.0081,-10.6313,22.8000,-42.9938,
3.595960,0.0136,0.0006,-0.0014,-0.0015,-0.0023,0.0081,-10.6500,22.7812,-43.0312,
3.602444,0.0031,0.0027,0.0087,-0.0015,-0.0023,0.0081,-10.6500,22.7812,-43.0312,
3.620822,0.0031,0.0027,0.0087,-0.0064,-0.0051,0.0049,-10.6500,22.7812,-43.0312,
3.641503,0.0031,0.0027,0.0087,-0.0064,-0.0051,0.0049,-10.6500,22.7812,-43.0312,
3.656238,0.0031,0.0027,0.0087,-0.0064,-0.0051,0.0049,-10.5563,22.7625,-43.0125,
3.683345,0.0031,0.0027,0.0087,-0.0061,-0.0072,0.0035,-10.5563,22.7625,-43.0125,
3.686115,-0.0072,0.0004,0.0092,-0.0061,-0.0072,0.0035,-10.5563,22.7625,-43.0125,
3.703278,-0.0072,0.0004,0.0092,-0.0061,-0.0072,0.0035,-10.5563,22.7625,-43.0125,
3.715032,-0.0072,0.0004,0.0092,-0.0061,-0.0072,0.0035,-10.5563,22.7250,-42.8813,
3.742906,-0.0072,0.0004,0.0092,-0.0036,-0.0025,0.0060,-10.5563,22.7250,-42.8813,
3.745213,0.0023,0.0076,-0.0100,-0.0036,-0.0025,0.0060,-10.5563,22.7250,-42.8813,
3.763989,0.0023,0.0076,-0.0100,-0.0036,-0.0025,0.0060,-10.5563,22.7250,-42.8813,
3.774482,0.0023,0.0076,-0.0100,-0.0036,-0.0025,0.0060,-10.4813,22.7250,-42.7313,
3.804746,0.0023,0.0076,-0.0100,-0.0004,0.0009,0.0092,-10.4813,22.7250,-42.7313,
3.806403,0.0099,-0.0027,-0.0010,-0.0004,0.0009,0.0092,-10.4813,22.7250,-42.7313,
3.823639,0.0099,-0.0027,-0.0010,-0.0004,0.0009,0.0092,-10.4813,22.7250,-42.7313,
3.836179,0.0099,-0.0027,-0.0010,-0.0004,0.0009,0.0092,-10.6313,22.6500,-42.6562,
3.865415,0.0099,-0.0027,-0.0010,0.0039,0.0056,0.0148,-10.6313,22.6500,-42.6562,
3.869441,0.0198,-0.0014,-0.0122,0.0039,0.0056,0.0148,-10.6313,22.6500,-42.6562,
3.885245,0.0198,-0.0014,-0.0122,0.0039,0.0056,0.0148,-10.6313,22.6500,-42.6562,
3.895456,0.0198,-0.0014,-0.0122,0.0039,0.0056,0.0148,-10.7438,22.5938,-42.7125,
3.928985,0.0198,-0.0014,-0.0122,0.0060,0.0095,0.0177,-10.7438,22.5938,-42.7125,
3.946060,0.0198,-0.0014,-0.0122,0.0060,0.0095,0.0177,-10.7438,22.5938,-42.7125,
3.947500,0.0185,-0.0004,-0.0075,0.0060,0.0095,0.0177,-10.7438,22.5938,-42.7125,
3.954582,0.0185,-0.0004,-0.0075,0.0060,0.0095,0.0177,-10.7438,22.5938,-42.7500,
3.986813,0.0185,-0.0004,-0.0075,0.0067,0.0067,0.0152,-10.7438,22.5938,-42.7500,
4.007940,0.0121,-0.0054,0.0003,0.0067,0.0067,0.0152,-10.7438,22.5938,-42.7500,
4.009271,0.0121,-0.0054,0.0003,0.0067,0.0067,0.0152,-10.7438,22.5938,-42.7500,
4.015033,0.0121,-0.0054,0.0003,0.0067,0.0067,0.0152,-10.8750,22.5563,-42.8625,
4.048381,0.0121,-0.0054,0.0003,0.0024,0.0007,0.0092,-10.8750,22.5563,-42.8625,
4.068475,0.0121,-0.0054,0.0003,0.0024,0.0007,0.0092,-10.8750,22.5563,-42.8625,
4.069778,-0.0051,0.0025,0.0002,0.0024,0.0007,0.0092,-10.8750,22.5563,-42.8625,
4.074289,-0.0051,0.0025,0.0002,0.0024,0.0007,0.0092,-10.8000,22.5563,-42.7500,
4.108781,-0.0051,0.0025,0.0002,-0.0051,-0.0061,0.0017,-10.8000,22.5563,-42.7500,
4.128635,-0.0051,0.0025,0.0002,-0.0051,-0.0061,0.0017,-10.8000,22.5563,-42.7500,
4.136212,-0.0051,0.0025,0.0002,-0.0051,-0.0061,0.0017,-10.8188,22.5375,-42.7313,
4.149684,-0.0032,0.0061,0.0117,-0.0051,-0.0061,0.0017,-10.8188,22.5375,-42.7313,
4.169415,-0.0032,0.0061,0.0117,-0.0061,-0.0055,-0.0029,-10.8188,22.5375,-42.7313,
4.190331,-0.0032,0.0061,0.0117,-0.0061,-0.0055,-0.0029,-10.8188,22.5375,-42.7313,
4.195286,-0.0032,0.0061,0.0117,-0.0061,-0.0055,-0.0029,-10.8000,22.5563,-42.6938,
4.209834,0.0033,-0.0026,0.0065,-0.0061,-0.0055,-0.0029,-10.8000,22.5563,-42.6938,
4.230654,0.0033,-0.0026,0.0065,-0.0032,-0.0025,-0.0040,-10.8000,22.5563,-42.6938,
4.250184,0.0033,-0.0026,0.0065,-0.0032,-0.0025,-0.0040,-10.8000,22.5563,-42.6938,
4.254350,0.0033,-0.0026,0.0065,-0.0032,-0.0025,-0.0040,-10.7063,22.4813,-42.7500,
4.270696,-0.0115,-0.0023,-0.0055,-0.0032,-0.0025,-0.0040,-10.7063,22.4813,-42.7500,
4.290750,-0.0115,-0.0023,-0.0055,-0.0032,-0.0001,-0.0029,-10.7063,22.4813,-42.7500,
4.312297,-0.0115,-0.0023,-0.0055,-0.0032,-0.0001,-0.0029,-10.7063,22.4813,-42.7500,
4.314528,-0.0115,-0.0023,-0.0055,-0.0032,-0.0001,-0.0029,-10.5000,22.6500,-42.9750,
4.331553,0.0009,-0.0039,-0.0074,-0.0032,-0.0001,-0.0029,-10.5000,22.6500,-42.9750,
4.351594,0.0009,-0.0039,-0.0074,-0.0015,0.0013,-0.0015,-10.5000,22.6500,-42.9750,
4.371802,0.0009,-0.0039,-0.0074,-0.0015,0.0013,-0.0015,-10.5000,22.6500,-42.9750,
4.374747,0.0009,-0.0039,-0.0074,-0.0015,0.0013,-0.0015,-10.3688,22.7063,-43.1438,
4.412807,0.0009,-0.0039,-0.0074,0.0007,0.0063,0.0031,-10.3688,22.7063,-43.1438,
4.414647,0.0087,0.0020,0.0010,0.0007,0.0063,0.0031,-10.3688,22.7063,-43.1438,
4.431929,0.0087,0.0020,0.0010,0.0007,0.0063,0.0031,-10.3688,22.7063,-43.1438,
4.436155,0.0087,0.0020,0.0010,0.0007,0.0063,0.0031,-10.4062,22.6875,-43.1625,
4.473107,0.0087,0.0020,0.0010,-0.0004,0.0013,0.0039,-10.4062,22.6875,-43.1625,
4.474108,0.0085,0.0002,-0.0022,-0.0004,0.0013,0.0039,-10.4062,22.6875,-43.1625,
4.494243,0.0085,0.0002,-0.0022,-0.0004,0.0013,0.0039,-10.4062,22.6875,-43.1625,
4.495508,0.0085,0.0002,-0.0022,-0.0004,0.0013,0.0039,-10.3313,22.6875,-43.2000,
4.535848,0.0085,0.0002,-0.0022,0.0024,0.0028,0.0063,-10.3313,22.6875,-43.2000,
4.537178,-0.0029,-0.0010,0.0014,0.0024,0.0028,0.0063,-10.3313,22.6875,-43.2000,
4.555066,-0.0029,-0.0010,0.0014,0.0024,0.0028,0.0063,-10.3313,22.6875,-43.2000,
4.556447,-0.0029,-0.0010,0.0014,0.0024,0.0028,0.0063,-10.3500,22.8000,-43.3875,
4.597240,-0.0029,-0.0010,0.0014,0.0007,0.0007,0.0073,-10.3500,22.8000,-43.3875,
4.618444,-0.0029,-0.0010,0.0014,0.0007,0.0007,0.0073,-10.4250,22.7625,-43.4250,
4.620195,-0.0029,-0.0010,0.0014,0.0007,0.0007,0.0073,-10.4250,22.7625,-43.4250,
4.620898,0.0141,-0.0030,-0.0024,0.0007,0.0007,0.0073,-10.4250,22.7625,-43.4250,
4.656014,0.0141,-0.0030,-0.0024,-0.0085,-0.0015,0.0073,-10.4250,22.7625,-43.4250,
4.675513,0.0141,-0.0030,-0.0024,-0.0085,-0.0015,0.0073,-10.4250,22.8750,-43.6688,
4.677698,0.0141,-0.0030,-0.0024,-0.0085,-0.0015,0.0073,-10.4250,22.8750,-43.6688,
4.678332,0.0085,-0.0068,0.0165,-0.0085,-0.0015,0.0073,-10.4250,22.8750,-43.6688,
4.720511,0.0085,-0.0068,0.0165,-0.0206,-0.0068,0.0073,-10.4250,22.8750,-43.6688,
4.735291,0.0085,-0.0068,0.0165,-0.0206,-0.0068,0.0073,-10.4813,22.9125,-43.6500,
4.737373,0.0085,-0.0068,0.0165,-0.0206,-0.0068,0.0073,-10.4813,22.9125,-43.6500,
4.738111,-0.0008,-0.0027,0.0068,-0.0206,-0.0068,0.0073,-10.4813,22.9125,-43.6500,
4.778355,-0.0008,-0.0027,0.0068,-0.0296,-0.0161,0.0166,-10.4813,22.9125,-43.6500,
4.797117,-0.0008,-0.0027,0.0068,-0.0296,-0.0161,0.0166,-10.6125,22.8375,-43.4062,
4.799347,-0.0008,-0.0027,0.0068,-0.0296,-0.0161,0.0166,-10.6125,22.8375,-43.4062,
4.800558,0.0184,0.0042,0.0282,-0.0296,-0.0161,0.0166,-10.6125,22.8375,-43.4062,
4.838953,0.0184,0.0042,0.0282,-0.0547,-0.0206,0.0276,-10.6125,22.8375,-43.4062,
4.854806,0.0184,0.0042,0.0282,-0.0547,-0.0206,0.0276,-10.7063,22.8750,-43.2375,
4.860033,0.0184,0.0042,0.0282,-0.0547,-0.0206,0.0276,-10.7063,22.8750,-43.2375,
4.879379,0.0186,0.0018,0.0311,-0.0547,-0.0206,0.0276,-10.7063,22.8750,-43.2375,
4.900094,0.0186,0.0018,0.0311,-0.0760,-0.0087,0.0410,-10.7063,22.8750,-43.2375,
4.915070,0.0186,0.0018,0.0311,-0.0760,-0.0087,0.0410,-10.6125,23.0813,-43.1813,
4.919864,0.0186,0.0018,0.0311,-0.0760,-0.0087,0.0410,-10.6125,23.0813,-43.1813,
4.940787,0.0943,0.0062,0.0690,-0.0760,-0.0087,0.0410,-10.6125,23.0813,-43.1813,
4.961828,0.0943,0.0062,0.0690,-0.0991,-0.0029,0.0674,-10.6125,23.0813,-43.1813,
4.974484,0.0943,0.0062,0.0690,-0.0991,-0.0029,0.0674,-10.6688,23.0438,-43.0688,
4.980873,0.0943,0.0062,0.0690,-0.0991,-0.0029,0.0674,-10.6688,23.0438,-43.0688,
5.002057,0.0373,0.0151,0.0548,-0.0991,-0.0029,0.0674,-10.6688,23.0438,-43.0688,
5.021537,0.0373,0.0151,0.0548,-0.1233,-0.0174,0.1185,-10.6688,23.0438,-43.0688,
5.034240,0.0373,0.0151,0.0548,-0.1233,-0.0174,0.1185,-10.6500,23.1750,-42.9375,
5.040916,0.0373,0.0151,0.0548,-0.1233,-0.0174,0.1185,-10.6500,23.1750,-42.9375,
5.082493,0.0373,0.0151,0.0548,-0.1907,-0.1173,0.1185,-10.6500,23.1750,-42.9375,
5.084479,0.1451,0.0149,0.0998,-0.1907,-0.1173,0.1185,-10.6500,23.1750,-42.9375,
5.096350,0.1451,0.0149,0.0998,-0.1907,-0.1173,0.1185,-10.5938,23.4750,-43.0125,
5.103262,0.1451,0.0149,0.0998,-0.1907,-0.1173,0.1185,-10.5938,23.4750,-43.0125,
5.144909,0.1451,0.0149,0.0998,-0.2557,-0.0935,0.0915,-10.5938,23.4750,-43.0125,
5.146748,0.0848,0.0260,0.1881,-0.2557,-0.0935,0.0915,-10.5938,23.4750,-43.0125,
5.154175,0.0848,0.0260,0.1881,-0.2557,-0.0935,0.0915,-10.6313,23.6813,-42.7500,
5.164672,0.0848,0.0260,0.1881,-0.2557,-0.0935,0.0915,-10.6313,23.6813,-42.7500,
5.204071,0.0848,0.0260,0.1881,-0.2226,-0.1233,0.0659,-10.6313,23.6813,-42.7500,
5.205485,-0.0080,-0.0267,0.0736,-0.2226,-0.1233,0.0659,-10.6313,23.6813,-42.7500,
5.214493,-0.0080,-0.0267,0.0736,-0.2226,-0.1233,0.0659,-10.7250,24.1313,-42.5625,
5.224753,-0.0080,-0.0267,0.0736,-0.2226,-0.1233,0.0659,-10.7250,24.1313,-42.5625,
5.265231,-0.0080,-0.0267,0.0736,-0.1583,-0.1144,0.0216,-10.7250,24.1313,-42.5625,
5.267067,-0.1018,-0.0718,-0.0473,-0.1583,-0.1144,0.0216,-10.7250,24.1313,-42.5625,
5.277021,-0.1018,-0.0718,-0.0473,-0.1583,-0.1144,0.0216,-10.6313,24.5625,-42.4125,
5.285883,-0.1018,-0.0718,-0.0473,-0.1583,-0.1144,0.0216,-10.6313,24.5625,-42.4125,
5.326900,-0.1018,-0.0718,-0.0473,-0.0541,-0.0008,-0.0285,-10.6313,24.5625,-42.4125,
5.334946,-0.1018,-0.0718,-0.0473,-0.0541,-0.0008,-0.0285,-10.6875,24.7875,-42.0750,
5.346429,-0.1018,-0.0718,-0.0473,-0.0541,-0.0008,-0.0285,-10.6875,24.7875,-42.0750,
5.347570,-0.0979,-0.0719,-0.1502,-0.0541,-0.0008,-0.0285,-10.6875,24.7875,-42.0750,
5.387210,-0.0979,-0.0719,-0.1502,-0.0419,0.0152,-0.0896,-10.6875,24.7875,-42.0750,
5.397023,-0.0979,-0.0719,-0.1502,-0.0419,0.0152,-0.0896,-10.8375,25.0875,-42.0375,
5.407008,-0.0979,-0.0719,-0.1502,-0.0419,0.0152,-0.0896,-10.8375,25.0875,-42.0375,
5.408445,-0.2217,-0.0040,-0.1384,-0.0419,0.0152,-0.0896,-10.8375,25.0875,-42.0375,
5.447612,-0.2217,-0.0040,-0.1384,-0.0178,0.0695,-0.0945,-10.8375,25.0875,-42.0375,
5.453916,-0.2217,-0.0040,-0.1384,-0.0178,0.0695,-0.0945,-10.8750,25.6688,-41.9438,
5.467947,-0.2217,-0.0040,-0.1384,-0.0178,0.0695,-0.0945,-10.8750,25.6688,-41.9438,
5.469451,-0.0162,-0.0037,-0.0337,-0.0178,0.0695,-0.0945,-10.8750,25.6688,-41.9438,
5.509684,-0.0162,-0.0037,-0.0337,0.0099,0.0698,-0.1680,-10.8750,25.6688,-41.9438,
5.515509,-0.0162,-0.0037,-0.0337,0.0099,0.0698,-0.1680,-11.1000,26.0625,-41.7375,
5.530024,-0.0162,-0.0037,-0.0337,0.0099,0.0698,-0.1680,-11.1000,26.0625,-41.7375,
5.548242,-0.1971,-0.0168,-0.1291,0.0099,0.0698,-0.1680,-11.1000,26.0625,-41.7375,
5.569764,-0.1971,-0.0168,-0.1291,-0.0309,0.0305,-0.1932,-11.1000,26.0625,-41.7375,
5.574206,-0.1971,-0.0168,-0.1291,-0.0309,0.0305,-0.1932,-11.2500,26.2875,-41.5875,
5.590046,-0.1971,-0.0168,-0.1291,-0.0309,0.0305,-0.1932,-11.2500,26.2875,-41.5875,
5.610220,-0.1779,0.0489,0.0007,-0.0309,0.0305,-0.1932,-11.2500,26.2875,-41.5875,
5.629844,-0.1779,0.0489,0.0007,-0.0675,-0.0210,-0.1971,-11.2500,26.2875,-41.5875,
5.634610,-0.1779,0.0489,0.0007,-0.0675,-0.0210,-0.1971,-11.4375,26.3625,-41.4750,
5.650284,-0.1779,0.0489,0.0007,-0.0675,-0.0210,-0.1971,-11.4375,26.3625,-41.4750,
5.670849,-0.0581,0.0209,0.0785,-0.0675,-0.0210,-0.1971,-11.4375,26.3625,-41.4750,
5.692277,-0.0581,0.0209,0.0785,-0.0501,0.0471,-0.1630,-11.4375,26.3625,-41.4750,
5.696822,-0.0581,0.0209,0.0785,-0.0501,0.0471,-0.1630,-11.7000,26.3063,-41.5875,
5.711309,-0.0581,0.0209,0.0785,-0.0501,0.0471,-0.1630,-11.7000,26.3063,-41.5875,
5.732202,0.0177,-0.0169,-0.0393,-0.0501,0.0471,-0.1630,-11.7000,26.3063,-41.5875,
5.752007,0.0177,-0.0169,-0.0393,-0.0803,0.0365,-0.1894,-11.7000,26.3063,-41.5875,
5.754539,0.0177,-0.0169,-0.0393,-0.0803,0.0365,-0.1894,-12.1125,26.3625,-41.6625,
5.773135,0.0177,-0.0169,-0.0393,-0.0803,0.0365,-0.1894,-12.1125,26.3625,-41.6625,
5.813163,0.0177,-0.0169,-0.0393,-0.0988,0.0209,-0.2021,-12.1125,26.3625,-41.6625,
5.815324,-0.1471,0.0308,0.0407,-0.0988,0.0209,-0.2021,-12.1125,26.3625,-41.6625,
5.816430,-0.1471,0.0308,0.0407,-0.0988,0.0209,-0.2021,-12.1500,26.6250,-41.8875,
5.833701,-0.1471,0.0308,0.0407,-0.0988,0.0209,-0.2021,-12.1500,26.6250,-41.8875,
5.874880,-0.1471,0.0308,0.0407,-0.0988,0.0209,-0.2021,-12.3188,26.7563,-41.8313,
5.877071,-0.1471,0.0308,0.0407,-0.1055,0.0563,-0.2049,-12.3188,26.7563,-41.8313,
5.878483,-0.0594,-0.0199,0.0656,-0.1055,0.0563,-0.2049,-12.3188,26.7563,-41.8313,
5.897412,-0.0594,-0.0199,0.0656,-0.1055,0.0563,-0.2049,-12.3188,26.7563,-41.8313,
5.936105,-0.0594,-0.0199,0.0656,-0.0820,0.0862,-0.2162,-12.3188,26.7563,-41.8313,
5.938214,-0.0594,-0.0199,0.0656,-0.0820,0.0862,-0.2162,-12.5250,26.7750,-41.6813,
5.939408,-0.0113,-0.0992,0.0255,-0.0820,0.0862,-0.2162,-12.5250,26.7750,-41.6813,
5.955442,-0.0113,-0.0992,0.0255,-0.0820,0.0862,-0.2162,-12.5250,26.7750,-41.6813,
6.001256,-0.0113,-0.0992,0.0255,-0.0820,0.0862,-0.2162,-12.6000,26.7375,-41.6438,
6.006338,-0.0113,-0.0992,0.0255,-0.1293,0.0947,-0.2533,-12.6000,26.7375,-41.6438,
6.017463,-0.0113,-0.0992,0.0255,-0.1293,0.0947,-0.2533,-12.6000,26.7375,-41.6438,
6.019024,-0.1242,-0.1151,-0.0454,-0.1293,0.0947,-0.2533,-12.6000,26.7375,-41.6438,
6.055570,-0.1242,-0.1151,-0.0454,-0.1293,0.0947,-0.2533,-12.6188,26.7938,-41.4000,
6.057866,-0.1242,-0.1151,-0.0454,-0.2105,0.0787,-0.2923,-12.6188,26.7938,-41.4000,
6.077654,-0.1242,-0.1151,-0.0454,-0.2105,0.0787,-0.2923,-12.6188,26.7938,-41.4000,
6.079314,-0.1880,0.0205,0.1174,-0.2105,0.0787,-0.2923,-12.6188,26.7938,-41.4000,
6.116126,-0.1880,0.0205,0.1174,-0.2105,0.0787,-0.2923,-12.5625,26.9625,-41.2125,
6.119234,-0.1880,0.0205,0.1174,-0.3047,0.0684,-0.3036,-12.5625,26.9625,-41.2125,
6.138760,-0.1880,0.0205,0.1174,-0.3047,0.0684,-0.3036,-12.5625,26.9625,-41.2125,
6.140731,-0.0363,0.0424,0.1869,-0.3047,0.0684,-0.3036,-12.5625,26.9625,-41.2125,
6.177306,-0.0363,0.0424,0.1869,-0.3047,0.0684,-0.3036,-12.6563,27.1125,-40.6875,
6.182723,-0.0363,0.0424,0.1869,-0.2744,-0.0104,-0.2852,-12.6563,27.1125,-40.6875,
6.199692,-0.0363,0.0424,0.1869,-0.2744,-0.0104,-0.2852,-12.6563,27.1125,-40.6875,
6.201734,0.2002,-0.0479,0.2695,-0.2744,-0.0104,-0.2852,-12.6563,27.1125,-40.6875,
6.235667,0.2002,-0.0479,0.2695,-0.2744,-0.0104,-0.2852,-12.7500,27.1500,-40.3500,
6.241374,0.2002,-0.0479,0.2695,-0.2720,0.0751,-0.2884,-12.7500,27.1500,-40.3500,
6.260625,0.2002,-0.0479,0.2695,-0.2720,0.0751,-0.2884,-12.7500,27.1500,-40.3500,
6.281005,-0.1641,0.1128,-0.0212,-0.2720,0.0751,-0.2884,-12.7500,27.1500,-40.3500,
6.297114,-0.1641,0.1128,-0.0212,-0.2720,0.0751,-0.2884,-12.8813,27.2250,-39.7313,
6.299912,-0.1641,0.1128,-0.0212,-0.2198,0.3069,-0.2716,-12.8813,27.2250,-39.7313,
6.321954,-0.1641,0.1128,-0.0212,-0.2198,0.3069,-0.2716,-12.8813,27.2250,-39.7313,
6.342006,-0.2445,-0.0133,-0.2887,-0.2198,0.3069,-0.2716,-12.8813,27.2250,-39.7313,
6.355231,-0.2445,-0.0133,-0.2887,-0.2198,0.3069,-0.2716,-12.9938,27.4500,-39.3938,
6.361999,-0.2445,-0.0133,-0.2887,-0.1679,0.3706,-0.2976,-12.9938,27.4500,-39.3938,
6.383175,-0.2445,-0.0133,-0.2887,-0.1679,0.3706,-0.2976,-12.9938,27.4500,-39.3938,
6.402477,-0.1441,-0.2995,-0.0879,-0.1679,0.3706,-0.2976,-12.9938,27.4500,-39.3938,
6.415618,-0.1441,-0.2995,-0.0879,-0.1679,0.3706,-0.2976,-12.9188,27.6375,-39.0563,
6.423604,-0.1441,-0.2995,-0.0879,-0.1392,0.4682,-0.2720,-12.9188,27.6375,-39.0563,
6.443285,-0.1441,-0.2995,-0.0879,-0.1392,0.4682,-0.2720,-12.9188,27.6375,-39.0563,
6.463635,-0.0052,-0.1876,0.1603,-0.1392,0.4682,-0.2720,-12.9188,27.6375,-39.0563,
6.476997,-0.0052,-0.1876,0.1603,-0.1392,0.4682,-0.2720,-12.7313,27.9938,-38.6625,
6.485463,-0.0052,-0.1876,0.1603,-0.1999,0.3567,-0.3451,-12.7313,27.9938,-38.6625,
6.508733,-0.0052,-0.1876,0.1603,-0.1999,0.3567,-0.3451,-12.7313,27.9938,-38.6625,
6.537558,-0.0052,-0.1876,0.1603,-0.1999,0.3567,-0.3451,-12.8063,28.3688,-38.4188,
6.548238,-0.0052,-0.1876,0.1603,-0.2787,0.0535,-0.5642,-12.8063,28.3688,-38.4188,
6.549789,-0.1074,-0.0617,0.3118,-0.2787,0.0535,-0.5642,-12.8063,28.3688,-38.4188,
6.564981,-0.1074,-0.0617,0.3118,-0.2787,0.0535,-0.5642,-12.8063,28.3688,-38.4188,
6.598611,-0.1074,-0.0617,0.3118,-0.2787,0.0535,-0.5642,-12.9938,28.6875,-38.2125,
6.606324,-0.3085,0.4147,0.2405,-0.2787,0.0535,-0.5642,-12.9938,28.6875,-38.2125,
6.607994,-0.3085,0.4147,0.2405,-0.3661,0.3077,-0.6132,-12.9938,28.6875,-38.2125,
6.625793,-0.3085,0.4147,0.2405,-0.3661,0.3077,-0.6132,-12.9938,28.6875,-38.2125,
6.657338,-0.3085,0.4147,0.2405,-0.3661,0.3077,-0.6132,-12.8813,28.9313,-38.1938,
6.668104,-0.3085,0.4147,0.2405,-0.3100,0.6638,-1.0059,-12.8813,28.9313,-38.1938,
6.670008,-1.2154,-0.9486,-0.3040,-0.3100,0.6638,-1.0059,-12.8813,28.9313,-38.1938,
6.686700,-1.2154,-0.9486,-0.3040,-0.3100,0.6638,-1.0059,-12.8813,28.9313,-38.1938,
6.717306,-1.2154,-0.9486,-0.3040,-0.3100,0.6638,-1.0059,-12.9000,29.1938,-37.8938,
6.727090,-1.2154,-0.9486,-0.3040,-0.4093,-0.0622,-1.4204,-12.9000,29.1938,-37.8938,
6.750083,-0.0591,-0.6155,1.3833,-0.4093,-0.0622,-1.4204,-12.9000,29.1938,-37.8938,
6.753399,-0.0591,-0.6155,1.3833,-0.4093,-0.0622,-1.4204,-12.9000,29.1938,-37.8938,
6.775173,-0.0591,-0.6155,1.3833,-0.4093,-0.0622,-1.4204,-13.3500,29.4000,-37.9500,
6.788768,-0.0591,-0.6155,1.3833,-0.8378,0.2061,-1.7308,-13.3500,29.4000,-37.9500,
6.808481,-0.0591,-0.6155,1.3833,-0.8378,0.2061,-1.7308,-13.3500,29.4000,-37.9500,
6.809855,-0.3276,-0.3287,0.2034,-0.8378,0.2061,-1.7308,-13.3500,29.4000,-37.9500,
6.835150,-0.3276,-0.3287,0.2034,-0.8378,0.2061,-1.7308,-13.9500,29.3063,-37.4625,
6.849037,-0.3276,-0.3287,0.2034,-1.2955,0.5669,-2.3534,-13.9500,29.3063,-37.4625,
6.871111,-0.3276,-0.3287,0.2034,-1.2955,0.5669,-2.3534,-13.9500,29.3063,-37.4625,
6.873079,-2.4320,-2.0113,0.2086,-1.2955,0.5669,-2.3534,-13.9500,29.3063,-37.4625,
6.897878,-2.4320,-2.0113,0.2086,-1.2955,0.5669,-2.3534,-14.8875,29.3813,-36.8063,
6.909864,-2.4320,-2.0113,0.2086,-1.4751,0.6943,-2.2753,-14.8875,29.3813,-36.8063,
6.929912,-2.4320,-2.0113,0.2086,-1.4751,0.6943,-2.2753,-14.8875,29.3813,-36.8063,
6.931071,-1.5506,-1.6898,1.3937,-1.4751,0.6943,-2.2753,-14.8875,29.3813,-36.8063,
6.955098,-1.5506,-1.6898,1.3937,-1.4751,0.6943,-2.2753,-16.3313,29.2688,-36.0563,
6.972333,-1.5506,-1.6898,1.3937,-1.5599,1.3052,-2.6126,-16.3313,29.2688,-36.0563,
6.993402,-1.5506,-1.6898,1.3937,-1.5599,1.3052,-2.6126,-16.3313,29.2688,-36.0563,
7.011813,-5.1400,-1.6386,-3.8089,-1.5599,1.3052,-2.6126,-16.3313,29.2688,-36.0563,
7.015542,-5.1400,-1.6386,-3.8089,-1.5599,1.3052,-2.6126,-17.6063,29.0813,-35.2500,
7.031899,-5.1400,-1.6386,-3.8089,-1.1662,1.5888,-2.2462,-17.6063,29.0813,-35.2500,
7.051380,-5.1400,-1.6386,-3.8089,-1.1662,1.5888,-2.2462,-17.6063,29.0813,-35.2500,
7.073127,-1.7182,-0.7283,-0.0685,-1.1662,1.5888,-2.2462,-17.6063,29.0813,-35.2500,
7.075652,-1.7182,-0.7283,-0.0685,-1.1662,1.5888,-2.2462,-18.6938,28.7438,-34.4813,
7.092995,-1.7182,-0.7283,-0.0685,-0.4566,1.0979,-2.0588,-18.6938,28.7438,-34.4813,
7.113465,-1.7182,-0.7283,-0.0685,-0.4566,1.0979,-2.0588,-18.6938,28.7438,-34.4813,
7.133634,1.7911,1.4404,3.0789,-0.4566,1.0979,-2.0588,-18.6938,28.7438,-34.4813,
7.136382,1.7911,1.4404,3.0789,-0.4566,1.0979,-2.0588,-19.7625,28.4063,-33.9188,
7.152905,1.7911,1.4404,3.0789,-0.3814,0.9155,-0.6586,-19.7625,28.4063,-33.9188,
7.173913,1.7911,1.4404,3.0789,-0.3814,0.9155,-0.6586,-19.7625,28.4063,-33.9188,
7.198289,1.7911,1.4404,3.0789,-0.3814,0.9155,-0.6586,-20.9438,27.9938,-33.2250,
7.216739,1.7911,1.4404,3.0789,0.5214,-2.5252,-0.2092,-20.9438,27.9938,-33.2250,
7.219361,1.8855,4.3421,4.9440,0.5214,-2.5252,-0.2092,-20.9438,27.9938,-33.2250,
7.236967,1.8855,4.3421,4.9440,0.5214,-2.5252,-0.2092,-20.9438,27.9938,-33.2250,
7.256907,1.8855,4.3421,4.9440,0.5214,-2.5252,-0.2092,-22.1438,27.2625,-32.3813,
7.276311,1.8855,4.3421,4.9440,-0.0132,0.4684,0.2466,-22.1438,27.2625,-32.3813,
7.278905,5.7987,-1.4355,-2.3162,-0.0132,0.4684,0.2466,-22.1438,27.2625,-32.3813,
7.297725,5.7987,-1.4355,-2.3162,-0.0132,0.4684,0.2466,-22.1438,27.2625,-32.3813,
7.314830,5.7987,-1.4355,-2.3162,-0.0132,0.4684,0.2466,-22.8750,26.6813,-31.8750,
7.336328,5.7987,-1.4355,-2.3162,-0.5581,-0.6778,-0.7573,-22.8750,26.6813,-31.8750,
7.337976,-6.7048,3.9970,0.0993,-0.5581,-0.6778,-0.7573,-22.8750,26.6813,-31.8750,
7.356858,-6.7048,3.9970,0.0993,-0.5581,-0.6778,-0.7573,-22.8750,26.6813,-31.8750,
7.376752,-6.7048,3.9970,0.0993,-0.5581,-0.6778,-0.7573,-23.8688,26.1000,-31.5188,
7.398142,-6.7048,3.9970,0.0993,-0.5482,0.2229,-1.5653,-23.8688,26.1000,-31.5188,
7.400097,-1.8263,2.2259,-0.2116,-0.5482,0.2229,-1.5653,-23.8688,26.1000,-31.5188,
7.417697,-1.8263,2.2259,-0.2116,-0.5482,0.2229,-1.5653,-23.8688,26.1000,-31.5188,
7.435161,-1.8263,2.2259,-0.2116,-0.5482,0.2229,-1.5653,-24.3563,25.4625,-31.1063,
7.457939,-1.8263,2.2259,-0.2116,0.1888,0.0957,0.6161,-24.3563,25.4625,-31.1063,
7.479254,-1.8263,2.2259,-0.2116,0.1888,0.0957,0.6161,-24.3563,25.4625,-31.1063,
7.481003,5.2292,2.3674,-0.5785,0.1888,0.0957,0.6161,-24.3563,25.4625,-31.1063,
7.495545,5.2292,2.3674,-0.5785,0.1888,0.0957,0.6161,-24.9000,25.0125,-30.9000,
7.519595,5.2292,2.3674,-0.5785,0.0578,-0.6724,-0.1184,-24.9000,25.0125,-30.9000,
7.540334,5.2292,2.3674,-0.5785,0.0578,-0.6724,-0.1184,-24.9000,25.0125,-30.9000,
7.542341,-0.9000,0.6220,2.1733,0.0578,-0.6724,-0.1184,-24.9000,25.0125,-30.9000,
7.556288,-0.9000,0.6220,2.1733,0.0578,-0.6724,-0.1184,-25.5188,24.6750,-30.3750,
7.579861,-0.9000,0.6220,2.1733,-0.1555,0.1752,0.0378,-25.5188,24.6750,-30.3750,
7.600400,-0.9000,0.6220,2.1733,-0.1555,0.1752,0.0378,-25.5188,24.6750,-30.3750,
7.601664,-0.3308,-0.8339,-0.6456,-0.1555,0.1752,0.0378,-25.5188,24.6750,-30.3750,
7.615413,-0.3308,-0.8339,-0.6456,-0.1555,0.1752,0.0378,-26.2125,24.5063,-29.7563,
7.641057,-0.3308,-0.8339,-0.6456,-0.0515,0.5878,0.1720,-26.2125,24.5063,-29.7563,
7.661313,-0.3308,-0.8339,-0.6456,-0.0515,0.5878,0.1720,-26.2125,24.5063,-29.7563,
7.676688,-0.3308,-0.8339,-0.6456,-0.0515,0.5878,0.1720,-26.4938,24.5063,-29.5125,
7.681627,0.7714,-0.5445,-1.8387,-0.0515,0.5878,0.1720,-26.4938,24.5063,-29.5125,
7.703046,0.7714,-0.5445,-1.8387,-0.0373,0.6996,0.0052,-26.4938,24.5063,-29.5125,
7.722561,0.7714,-0.5445,-1.8387,-0.0373,0.6996,0.0052,-26.4938,24.5063,-29.5125,
7.735415,0.7714,-0.5445,-1.8387,-0.0373,0.6996,0.0052,-26.4750,24.6750,-29.4938,
7.742202,-0.4002,-0.3939,-0.3648,-0.0373,0.6996,0.0052,-26.4750,24.6750,-29.4938,
7.762535,-0.4002,-0.3939,-0.3648,-0.0242,0.5072,0.0261,-26.4750,24.6750,-29.4938,
7.782805,-0.4002,-0.3939,-0.3648,-0.0242,0.5072,0.0261,-26.4750,24.6750,-29.4938,
7.796715,-0.4002,-0.3939,-0.3648,-0.0242,0.5072,0.0261,-26.4188,24.7500,-29.4375,
7.802800,0.1528,-0.0783,-0.1298,-0.0242,0.5072,0.0261,-26.4188,24.7500,-29.4375,
7.824008,0.1528,-0.0783,-0.1298,0.0184,0.1256,0.0222,-26.4188,24.7500,-29.4375,
7.845220,0.1528,-0.0783,-0.1298,0.0184,0.1256,0.0222,-26.4188,24.7500,-29.4375,
7.856851,0.1528,-0.0783,-0.1298,0.0184,0.1256,0.0222,-25.8375,24.9375,-29.4750,
7.864137,0.0247,0.6008,0.4503,0.0184,0.1256,0.0222,-25.8375,24.9375,-29.4750,
7.883261,0.0247,0.6008,0.4503,-0.0447,0.1238,-0.0015,-25.8375,24.9375,-29.4750,
7.906173,0.0247,0.6008,0.4503,-0.0447,0.1238,-0.0015,-25.8375,24.9375,-29.4750,
7.915525,0.0247,0.6008,0.4503,-0.0447,0.1238,-0.0015,-25.4250,25.2000,-29.7375,
7.946178,0.0247,0.6008,0.4503,-0.0551,-0.0438,-0.0441,-25.4250,25.2000,-29.7375,
7.949318,0.0630,0.3084,0.2000,-0.0551,-0.0438,-0.0441,-25.4250,25.2000,-29.7375,
7.966443,0.0630,0.3084,0.2000,-0.0551,-0.0438,-0.0441,-25.4250,25.2000,-29.7375,
7.979577,0.0630,0.3084,0.2000,-0.0551,-0.0438,-0.0441,-24.8438,25.3500,-29.7000,
8.005566,0.0630,0.3084,0.2000,-0.0654,0.0617,0.0229,-24.8438,25.3500,-29.7000,
8.007232,0.1513,0.2690,0.2176,-0.0654,0.0617,0.0229,-24.8438,25.3500,-29.7000,
8.025898,0.1513,0.2690,0.2176,-0.0654,0.0617,0.0229,-24.8438,25.3500,-29.7000,
8.035579,0.1513,0.2690,0.2176,-0.0654,0.0617,0.0229,-24.3375,25.4813,-30.0938,
8.067681,0.1513,0.2690,0.2176,-0.1020,0.1021,-0.0345,-24.3375,25.4813,-30.0938,
8.070064,0.0780,0.1846,-0.0726,-0.1020,0.1021,-0.0345,-24.3375,25.4813,-30.0938,
8.086565,0.0780,0.1846,-0.0726,-0.1020,0.1021,-0.0345,-24.3375,25.4813,-30.0938,
8.097137,0.0780,0.1846,-0.0726,-0.1020,0.1021,-0.0345,-24.0000,25.4625,-30.4688,
8.129293,0.0780,0.1846,-0.0726,-0.1080,-0.0089,-0.0939,-24.0000,25.4625,-30.4688,
8.149000,0.0780,0.1846,-0.0726,-0.1080,-0.0089,-0.0939,-24.0000,25.4625,-30.4688,
8.151089,0.0562,-0.1475,0.1158,-0.1080,-0.0089,-0.0939,-24.0000,25.4625,-30.4688,
8.154671,0.0562,-0.1475,0.1158,-0.1080,-0.0089,-0.0939,-23.6813,25.2750,-30.5250,
8.189280,0.0562,-0.1475,0.1158,-0.0792,-0.0023,-0.0643,-23.6813,25.2750,-30.5250,
8.208998,0.0562,-0.1475,0.1158,-0.0792,-0.0023,-0.0643,-23.6813,25.2750,-30.5250,
8.210357,0.2597,0.1219,0.1911,-0.0792,-0.0023,-0.0643,-23.6813,25.2750,-30.5250,
8.215827,0.2597,0.1219,0.1911,-0.0792,-0.0023,-0.0643,-23.3625,25.3688,-30.5813,
8.251148,0.2597,0.1219,0.1911,-0.1101,0.0390,-0.0523,-23.3625,25.3688,-30.5813,
8.270707,0.2597,0.1219,0.1911,-0.1101,0.0390,-0.0523,-23.3625,25.3688,-30.5813,
8.271868,-0.1252,0.1797,0.0965,-0.1101,0.0390,-0.0523,-23.3625,25.3688,-30.5813,
8.273195,-0.1252,0.1797,0.0965,-0.1101,0.0390,-0.0523,-23.3625,25.5563,-30.5813,
8.310493,-0.1252,0.1797,0.0965,-0.1353,-0.0483,-0.0984,-23.3625,25.5563,-30.5813,
8.331570,0.1472,0.1307,-0.0752,-0.1353,-0.0483,-0.0984,-23.3625,25.5563,-30.5813,
8.333485,0.1472,0.1307,-0.0752,-0.1353,-0.0483,-0.0984,-23.3625,25.5563,-30.5813,
8.334743,0.1472,0.1307,-0.0752,-0.1353,-0.0483,-0.0984,-23.5875,25.5000,-30.6188,
8.371572,0.1472,0.1307,-0.0752,-0.1619,0.1202,-0.0057,-23.5875,25.5000,-30.6188,
8.392585,0.1472,0.1307,-0.0752,-0.1619,0.1202,-0.0057,-23.5875,25.5000,-30.6188,
8.393920,0.1472,0.1307,-0.0752,-0.1619,0.1202,-0.0057,-23.6625,25.5563,-30.5813,
8.411986,-0.2318,0.0132,-0.2381,-0.1619,0.1202,-0.0057,-23.6625,25.5563,-30.5813,
8.432385,-0.2318,0.0132,-0.2381,-0.2031,0.2534,0.0003,-23.6625,25.5563,-30.5813,
8.452950,-0.2318,0.0132,-0.2381,-0.2031,0.2534,0.0003,-23.6625,25.5563,-30.5813,
8.454651,-0.2318,0.0132,-0.2381,-0.2031,0.2534,0.0003,-23.7563,25.6500,-30.7125,
8.472930,0.0830,0.2234,-0.8679,-0.2031,0.2534,0.0003,-23.7563,25.6500,-30.7125,
8.496193,0.0830,0.2234,-0.8679,-0.2510,0.5121,0.1618,-23.7563,25.6500,-30.7125,
8.513977,0.0830,0.2234,-0.8679,-0.2510,0.5121,0.1618,-23.7563,25.6500,-30.7125,
8.515410,0.0830,0.2234,-0.8679,-0.2510,0.5121,0.1618,-23.6250,25.9313,-30.7125,
8.534274,-0.4192,0.0246,-0.7101,-0.2510,0.5121,0.1618,-23.6250,25.9313,-30.7125,
8.553942,-0.4192,0.0246,-0.7101,-0.1758,0.1096,-0.0055,-23.6250,25.9313,-30.7125,
8.575646,-0.4192,0.0246,-0.7101,-0.1758,0.1096,-0.0055,-23.6250,25.9313,-30.7125,
8.577267,-0.4192,0.0246,-0.7101,-0.1758,0.1096,-0.0055,-23.4375,26.2875,-30.6563,
8.617369,-0.4192,0.0246,-0.7101,-0.1027,-0.4087,-0.2156,-23.4375,26.2875,-30.6563,
8.619582,0.3631,-0.5582,0.9062,-0.1027,-0.4087,-0.2156,-23.4375,26.2875,-30.6563,
8.636617,0.3631,-0.5582,0.9062,-0.1027,-0.4087,-0.2156,-23.3813,26.7188,-30.5625,
8.638712,0.3631,-0.5582,0.9062,-0.1027,-0.4087,-0.2156,-23.3813,26.7188,-30.5625,
8.676328,0.3631,-0.5582,0.9062,-0.0096,-0.5169,-0.2252,-23.3813,26.7188,-30.5625,
8.678280,0.6547,-0.5733,1.4748,-0.0096,-0.5169,-0.2252,-23.3813,26.7188,-30.5625,
8.697834,0.6547,-0.5733,1.4748,-0.0096,-0.5169,-0.2252,-23.3813,26.7188,-30.5625,
8.699802,0.6547,-0.5733,1.4748,-0.0096,-0.5169,-0.2252,-23.5125,26.9813,-30.3375,
8.738278,0.6547,-0.5733,1.4748,0.0060,-0.5919,-0.3125,-23.5125,26.9813,-30.3375,
8.740340,-0.0311,-0.0404,1.0800,0.0060,-0.5919,-0.3125,-23.5125,26.9813,-30.3375,
8.756623,-0.0311,-0.0404,1.0800,0.0060,-0.5919,-0.3125,-23.8313,26.9063,-30.0375,
8.758057,-0.0311,-0.0404,1.0800,0.0060,-0.5919,-0.3125,-23.8313,26.9063,-30.0375,
8.799141,-0.0311,-0.0404,1.0800,-0.0643,-0.2152,-0.2993,-23.8313,26.9063,-30.0375,
8.802560,0.5683,-0.5308,-0.3103,-0.0643,-0.2152,-0.2993,-23.8313,26.9063,-30.0375,
8.815851,0.5683,-0.5308,-0.3103,-0.0643,-0.2152,-0.2993,-24.1688,26.9250,-29.6625,
8.818331,0.5683,-0.5308,-0.3103,-0.0643,-0.2152,-0.2993,-24.1688,26.9250,-29.6625,
8.859039,0.5683,-0.5308,-0.3103,-0.1041,-0.0715,-0.2354,-24.1688,26.9250,-29.6625,
8.874934,0.5683,-0.5308,-0.3103,-0.1041,-0.0715,-0.2354,-24.6563,26.8500,-29.2875,
8.878629,0.5683,-0.5308,-0.3103,-0.1041,-0.0715,-0.2354,-24.6563,26.8500,-29.2875,
8.879367,-0.8180,0.3146,-0.4176,-0.1041,-0.0715,-0.2354,-24.6563,26.8500,-29.2875,
8.920626,-0.8180,0.3146,-0.4176,-0.0423,0.0589,-0.1222,-24.6563,26.8500,-29.2875,
8.935208,-0.8180,0.3146,-0.4176,-0.0423,0.0589,-0.1222,-25.2563,26.7375,-28.9313,
8.941341,-0.8180,0.3146,-0.4176,-0.0423,0.0589,-0.1222,-25.2563,26.7375,-28.9313,
8.942374,0.4841,0.1569,-0.2553,-0.0423,0.0589,-0.1222,-25.2563,26.7375,-28.9313,
8.981693,0.4841,0.1569,-0.2553,-0.1084,0.0088,-0.1290,-25.2563,26.7375,-28.9313,
8.996611,0.4841,0.1569,-0.2553,-0.1084,0.0088,-0.1290,-25.8563,26.6438,-28.6313,
9.002373,0.4841,0.1569,-0.2553,-0.1084,0.0088,-0.1290,-25.8563,26.6438,-28.6313,
9.002881,-0.2931,-0.0871,-0.1195,-0.1084,0.0088,-0.1290,-25.8563,26.6438,-28.6313,
9.040634,-0.2931,-0.0871,-0.1195,-0.1577,0.1838,-0.0142,-25.8563,26.6438,-28.6313,
9.054336,-0.2931,-0.0871,-0.1195,-0.1577,0.1838,-0.0142,-26.4000,26.6063,-28.2938,
9.062814,-0.2931,-0.0871,-0.1195,-0.1577,0.1838,-0.0142,-26.4000,26.6063,-28.2938,
9.082164,-0.4060,0.1791,-0.6264,-0.1577,0.1838,-0.0142,-26.4000,26.6063,-28.2938,
9.102424,-0.4060,0.1791,-0.6264,-0.1917,0.3003,0.0372,-26.4000,26.6063,-28.2938,
9.115291,-0.4060,0.1791,-0.6264,-0.1917,0.3003,0.0372,-26.7188,26.6438,-28.1438,
9.124613,-0.4060,0.1791,-0.6264,-0.1917,0.3003,0.0372,-26.7188,26.6438,-28.1438,
9.143293,-0.2631,0.4755,-0.1357,-0.1917,0.3003,0.0372,-26.7188,26.6438,-28.1438,
9.162935,-0.2631,0.4755,-0.1357,-0.2216,0.3144,0.0431,-26.7188,26.6438,-28.1438,
9.175031,-0.2631,0.4755,-0.1357,-0.2216,0.3144,0.0431,-27.0000,26.5688,-28.0500,
9.183868,-0.2631,0.4755,-0.1357,-0.2216,0.3144,0.0431,-27.0000,26.5688,-28.0500,
9.203683,-0.1847,0.0196,-0.2933,-0.2216,0.3144,0.0431,-27.0000,26.5688,-28.0500,
9.224535,-0.1847,0.0196,-0.2933,-0.1566,0.1696,0.0386,-27.0000,26.5688,-28.0500,
9.235688,-0.1847,0.0196,-0.2933,-0.1566,0.1696,0.0386,-27.0375,26.6625,-27.9750,
9.245843,-0.1847,0.0196,-0.2933,-0.1566,0.1696,0.0386,-27.0375,26.6625,-27.9750,
9.266567,0.1384,-0.3263,0.1306,-0.1566,0.1696,0.0386,-27.0375,26.6625,-27.9750,
9.285358,0.1384,-0.3263,0.1306,-0.0888,0.0031,-0.1389,-27.0375,26.6625,-27.9750,
9.296217,0.1384,-0.3263,0.1306,-0.0888,0.0031,-0.1389,-26.8125,26.8688,-27.8438,
9.304303,0.1384,-0.3263,0.1306,-0.0888,0.0031,-0.1389,-26.8125,26.8688,-27.8438,
9.347526,0.1384,-0.3263,0.1306,-0.0846,-0.2944,-0.4517,-26.8125,26.8688,-27.8438,
9.349710,0.8715,-0.1761,0.7679,-0.0846,-0.2944,-0.4517,-26.8125,26.8688,-27.8438,
9.355500,0.8715,-0.1761,0.7679,-0.0846,-0.2944,-0.4517,-26.5688,27.0188,-27.8250,
9.366698,0.8715,-0.1761,0.7679,-0.0846,-0.2944,-0.4517,-26.5688,27.0188,-27.8250,
9.407252,0.8715,-0.1761,0.7679,-0.0072,-0.2838,-0.3969,-26.5688,27.0188,-27.8250,
9.408919,0.4907,-0.5298,0.7236,-0.0072,-0.2838,-0.3969,-26.5688,27.0188,-27.8250,
9.416608,0.4907,-0.5298,0.7236,-0.0072,-0.2838,-0.3969,-26.4375,27.0750,-27.5250,
9.426651,0.4907,-0.5298,0.7236,-0.0072,-0.2838,-0.3969,-26.4375,27.0750,-27.5250,
9.468305,-0.0178,0.0185,0.1849,-0.0072,-0.2838,-0.3969,-26.4375,27.0750,-27.5250,
9.470665,-0.0178,0.0185,0.1849,-0.0597,-0.2493,-0.3108,-26.4375,27.0750,-27.5250,
9.475481,-0.0178,0.0185,0.1849,-0.0597,-0.2493,-0.3108,-26.7000,26.9250,-27.2813,
9.490256,-0.0178,0.0185,0.1849,-0.0597,-0.2493,-0.3108,-26.7000,26.9250,-27.2813,
9.528851,-0.0178,0.0185,0.1849,-0.0722,-0.0427,-0.1581,-26.7000,26.9250,-27.2813,
9.535465,-0.0178,0.0185,0.1849,-0.0722,-0.0427,-0.1581,-26.9625,26.6250,-27.0188,
9.549726,-0.0178,0.0185,0.1849,-0.0722,-0.0427,-0.1581,-26.9625,26.6250,-27.0188,
9.550706,-0.5033,0.0046,-0.2277,-0.0722,-0.0427,-0.1581,-26.9625,26.6250,-27.0188,
9.589807,-0.5033,0.0046,-0.2277,-0.1346,0.1501,-0.0129,-26.9625,26.6250,-27.0188,
9.595559,-0.5033,0.0046,-0.2277,-0.1346,0.1501,-0.0129,-27.6563,26.3063,-26.9250,
9.610319,-0.5033,0.0046,-0.2277,-0.1346,0.1501,-0.0129,-27.6563,26.3063,-26.9250,
9.612038,-0.5327,0.1555,-0.6209,-0.1346,0.1501,-0.0129,-27.6563,26.3063,-26.9250,
9.650785,-0.5327,0.1555,-0.6209,-0.0871,0.1238,0.0840,-27.6563,26.3063,-26.9250,
9.655990,-0.5327,0.1555,-0.6209,-0.0871,0.1238,0.0840,-27.9375,26.0250,-26.4563,
9.672471,-0.5327,0.1555,-0.6209,-0.0871,0.1238,0.0840,-27.9375,26.0250,-26.4563,
9.674658,-0.3936,0.2406,-0.2450,-0.0871,0.1238,0.0840,-27.9375,26.0250,-26.4563,
9.712641,-0.3936,0.2406,-0.2450,0.0205,0.0262,0.0105,-27.9375,26.0250,-26.4563,
9.716727,-0.3936,0.2406,-0.2450,0.0205,0.0262,0.0105,-28.2188,25.8375,-26.2688,
9.732179,-0.3936,0.2406,-0.2450,0.0205,0.0262,0.0105,-28.2188,25.8375,-26.2688,
9.733881,-0.0397,-0.0019,0.4417,0.0205,0.0262,0.0105,-28.2188,25.8375,-26.2688,
9.772417,-0.0397,-0.0019,0.4417,0.0415,-0.0971,-0.2554,-28.2188,25.8375,-26.2688,
9.774904,-0.0397,-0.0019,0.4417,0.0415,-0.0971,-0.2554,-28.6500,25.5188,-26.1750,
9.792762,-0.0397,-0.0019,0.4417,0.0415,-0.0971,-0.2554,-28.6500,25.5188,-26.1750,
9.813189,1.2140,-0.2006,0.0415,0.0415,-0.0971,-0.2554,-28.6500,25.5188,-26.1750,
9.833305,1.2140,-0.2006,0.0415,0.0077,-0.1463,-0.2929,-28.6500,25.5188,-26.1750,
9.835080,1.2140,-0.2006,0.0415,0.0077,-0.1463,-0.2929,-29.2500,25.1438,-26.0250,
9.853461,1.2140,-0.2006,0.0415,0.0077,-0.1463,-0.2929,-29.2500,25.1438,-26.0250,
9.874211,0.1474,-0.2469,0.3406,0.0077,-0.1463,-0.2929,-29.2500,25.1438,-26.0250,
9.895225,0.1474,-0.2469,0.3406,-0.1225,-0.2226,-0.1350,-29.2500,25.1438,-26.0250,
9.896605,0.1474,-0.2469,0.3406,-0.1225,-0.2226,-0.1350,-29.6813,24.8438,-25.8188,
9.916262,0.1474,-0.2469,0.3406,-0.1225,-0.2226,-0.1350,-29.6813,24.8438,-25.8188,
9.935923,-0.7761,0.4030,-0.6617,-0.1225,-0.2226,-0.1350,-29.6813,24.8438,-25.8188,
9.956712,-0.7761,0.4030,-0.6617,-0.0551,-0.1523,0.0052,-29.6813,24.8438,-25.8188,
9.958562,-0.7761,0.4030,-0.6617,-0.0551,-0.1523,0.0052,-30.0375,24.5813,-25.5563,
9.976840,-0.7761,0.4030,-0.6617,-0.0551,-0.1523,0.0052,-30.0375,24.5813,-25.5563,
10.016887,-0.7761,0.4030,-0.6617,-0.0551,-0.1523,0.0052,-30.2063,24.5063,-25.3313,
10.019204,-0.2993,-0.0897,0.4333,-0.0551,-0.1523,0.0052,-30.2063,24.5063,-25.3313,
10.020805,-0.2993,-0.0897,0.4333,0.0497,-0.0811,0.0567,-30.2063,24.5063,-25.3313,
10.037735,-0.2993,-0.0897,0.4333,0.0497,-0.0811,0.0567,-30.2063,24.5063,-25.3313,
10.077894,-0.2993,-0.0897,0.4333,0.0497,-0.0811,0.0567,-30.3000,24.3375,-25.1063,
10.080311,-0.2628,0.4118,0.3832,0.0497,-0.0811,0.0567,-30.3000,24.3375,-25.1063,
10.082018,-0.2628,0.4118,0.3832,0.0702,-0.0364,0.0872,-30.3000,24.3375,-25.1063,
10.096985,-0.2628,0.4118,0.3832,0.0702,-0.0364,0.0872,-30.3000,24.3375,-25.1063,
10.135214,-0.2628,0.4118,0.3832,0.0702,-0.0364,0.0872,-30.4500,24.3000,-25.1063,
10.136935,-0.2628,0.4118,0.3832,0.0337,0.0162,0.1827,-30.4500,24.3000,-25.1063,
10.137683,-0.0008,-0.0020,-0.1850,0.0337,0.0162,0.1827,-30.4500,24.3000,-25.1063,
10.157796,-0.0008,-0.0020,-0.1850,0.0337,0.0162,0.1827,-30.4500,24.3000,-25.1063,
10.196557,-0.0008,-0.0020,-0.1850,0.0337,0.0162,0.1827,-30.6938,24.3188,-24.9750,
10.198427,-0.0008,-0.0020,-0.1850,0.0503,-0.0569,0.2630,-30.6938,24.3188,-24.9750,
10.199469,-0.4512,-0.0346,-0.2514,0.0503,-0.0569,0.2630,-30.6938,24.3188,-24.9750,
10.218990,-0.4512,-0.0346,-0.2514,0.0503,-0.0569,0.2630,-30.6938,24.3188,-24.9750,
10.255108,-0.4512,-0.0346,-0.2514,0.0503,-0.0569,0.2630,-30.7875,24.4125,-24.7313,
10.259181,-0.4512,-0.0346,-0.2514,0.1164,-0.1719,0.2108,-30.7875,24.4125,-24.7313,
10.279893,-0.4512,-0.0346,-0.2514,0.1164,-0.1719,0.2108,-30.7875,24.4125,-24.7313,
10.281300,-0.0409,0.0769,0.3926,0.1164,-0.1719,0.2108,-30.7875,24.4125,-24.7313,
10.314706,-0.0409,0.0769,0.3926,0.1164,-0.1719,0.2108,-30.8063,24.5438,-24.4313,
10.321157,-0.0409,0.0769,0.3926,0.1483,-0.3296,0.2854,-30.8063,24.5438,-24.4313,
10.340722,-0.0409,0.0769,0.3926,0.1483,-0.3296,0.2854,-30.8063,24.5438,-24.4313,
10.342267,0.6002,0.3166,0.3931,0.1483,-0.3296,0.2854,-30.8063,24.5438,-24.4313,
10.378304,0.6002,0.3166,0.3931,0.1483,-0.3296,0.2854,-30.8250,24.9000,-24.3750,
10.380748,0.6002,0.3166,0.3931,0.2328,-0.5518,0.6023,-30.8250,24.9000,-24.3750,
10.401970,0.6002,0.3166,0.3931,0.2328,-0.5518,0.6023,-30.8250,24.9000,-24.3750,
10.403105,-0.3685,0.5760,0.4529,0.2328,-0.5518,0.6023,-30.8250,24.9000,-24.3750,
10.435148,-0.3685,0.5760,0.4529,0.2328,-0.5518,0.6023,-30.6750,25.3500,-24.2625,
10.441827,-0.3685,0.5760,0.4529,0.0691,-0.5013,0.2579,-30.6750,25.3500,-24.2625,
10.462082,-0.3685,0.5760,0.4529,0.0691,-0.5013,0.2579,-30.6750,25.3500,-24.2625,
10.483106,0.7226,0.2525,-0.3988,0.0691,-0.5013,0.2579,-30.6750,25.3500,-24.2625,
10.496542,0.7226,0.2525,-0.3988,0.0691,-0.5013,0.2579,-30.6750,25.7438,-24.0938,
10.501689,0.7226,0.2525,-0.3988,0.2381,-0.9454,0.2739,-30.6750,25.7438,-24.0938,
10.523959,0.7226,0.2525,-0.3988,0.2381,-0.9454,0.2739,-30.6750,25.7438,-24.0938,
10.544343,0.0377,0.1571,1.2264,0.2381,-0.9454,0.2739,-30.6750,25.7438,-24.0938,
10.553895,0.0377,0.1571,1.2264,0.2381,-0.9454,0.2739,-30.7313,26.2875,-23.7000,
10.564149,0.0377,0.1571,1.2264,0.1718,-0.8478,0.2679,-30.7313,26.2875,-23.7000,
10.584356,0.0377,0.1571,1.2264,0.1718,-0.8478,0.2679,-30.7313,26.2875,-23.7000,
10.604551,0.4041,0.2471,-0.0287,0.1718,-0.8478,0.2679,-30.7313,26.2875,-23.7000,
10.615332,0.4041,0.2471,-0.0287,0.1718,-0.8478,0.2679,-30.6938,26.5875,-22.4062,
10.625826,0.4041,0.2471,-0.0287,0.1469,-0.5450,0.5462,-30.6938,26.5875,-22.4062,
10.646583,0.4041,0.2471,-0.0287,0.1469,-0.5450,0.5462,-30.6938,26.5875,-22.4062,
10.665584,-0.1466,0.6500,-0.3787,0.1469,-0.5450,0.5462,-30.6938,26.5875,-22.4062,
10.676334,-0.1466,0.6500,-0.3787,0.1469,-0.5450,0.5462,-30.6938,27.3188,-21.6562,
10.685611,-0.1466,0.6500,-0.3787,0.1388,-0.2386,0.5611,-30.6938,27.3188,-21.6562,
10.706019,-0.1466,0.6500,-0.3787,0.1388,-0.2386,0.5611,-30.6938,27.3188,-21.6562,
10.735475,-0.1466,0.6500,-0.3787,0.1388,-0.2386,0.5611,-30.9375,28.0313,-20.9625,
10.748059,0.1068,-0.0330,-0.1542,0.1388,-0.2386,0.5611,-30.9375,28.0313,-20.9625,
10.749684,0.1068,-0.0330,-0.1542,0.0426,-0.0108,0.3949,-30.9375,28.0313,-20.9625,
10.767118,0.1068,-0.0330,-0.1542,0.0426,-0.0108,0.3949,-30.9375,28.0313,-20.9625,
10.796000,0.1068,-0.0330,-0.1542,0.0426,-0.0108,0.3949,-30.9563,28.6688,-20.4750,
10.807044,0.1447,-0.2352,-0.8961,0.0426,-0.0108,0.3949,-30.9563,28.6688,-20.4750,
10.808279,0.1447,-0.2352,-0.8961,0.0198,-0.0675,0.1469,-30.9563,28.6688,-20.4750,
10.828162,0.1447,-0.2352,-0.8961,0.0198,-0.0675,0.1469,-30.9563,28.6688,-20.4750,
10.854312,0.1447,-0.2352,-0.8961,0.0198,-0.0675,0.1469,-31.0688,29.3250,-19.8563,
10.868006,0.1447,-0.2352,-0.8961,0.0490,-0.3558,-0.0598,-31.0688,29.3250,-19.8563,
10.870106,-0.1236,-0.5571,0.0014,0.0490,-0.3558,-0.0598,-31.0688,29.3250,-19.8563,
10.888106,-0.1236,-0.5571,0.0014,0.0490,-0.3558,-0.0598,-31.0688,29.3250,-19.8563,
10.915348,-0.1236,-0.5571,0.0014,0.0490,-0.3558,-0.0598,-31.3688,29.8125,-19.2938,
10.929251,-0.1236,-0.5571,0.0014,0.0184,-0.2927,-0.0992,-31.3688,29.8125,-19.2938,
10.949922,-0.1236,-0.5571,0.0014,0.0184,-0.2927,-0.0992,-31.3688,29.8125,-19.2938,
10.952065,0.2546,-0.0487,0.2676,0.0184,-0.2927,-0.0992,-31.3688,29.8125,-19.2938,
10.976009,0.2546,-0.0487,0.2676,0.0184,-0.2927,-0.0992,-31.5563,30.2063,-18.6562,
10.989501,0.2546,-0.0487,0.2676,0.0109,-0.4342,-0.0643,-31.5563,30.2063,-18.6562,
11.009614,0.2546,-0.0487,0.2676,0.0109,-0.4342,-0.0643,-31.5563,30.2063,-18.6562,
11.011228,0.0977,0.5311,0.3043,0.0109,-0.4342,-0.0643,-31.5563,30.2063,-18.6562,
11.034541,0.0977,0.5311,0.3043,0.0109,-0.4342,-0.0643,-31.7063,30.5813,-18.1500,
11.050538,0.0977,0.5311,0.3043,0.2534,-0.0711,-0.0328,-31.7063,30.5813,-18.1500,
11.071268,0.2643,-0.2638,-0.0916,0.2534,-0.0711,-0.0328,-31.7063,30.5813,-18.1500,
11.073070,0.2643,-0.2638,-0.0916,0.2534,-0.0711,-0.0328,-31.7063,30.5813,-18.1500,
11.095204,0.2643,-0.2638,-0.0916,0.2534,-0.0711,-0.0328,-31.6313,30.9938,-17.7938,
11.111864,0.2643,-0.2638,-0.0916,0.5555,-0.0395,0.1497,-31.6313,30.9938,-17.7938,
11.132073,0.2643,-0.2638,-0.0916,0.5555,-0.0395,0.1497,-31.6313,30.9938,-17.7938,
11.133936,-0.3104,0.5370,-0.4732,0.5555,-0.0395,0.1497,-31.6313,30.9938,-17.7938,
11.154422,-0.3104,0.5370,-0.4732,0.5555,-0.0395,0.1497,-32.0250,30.8625,-18.0000,
11.172029,-0.3104,0.5370,-0.4732,0.9655,0.1784,0.3802,-32.0250,30.8625,-18.0000,
11.192730,-0.3104,0.5370,-0.4732,0.9655,0.1784,0.3802,-32.0250,30.8625,-18.0000,
11.212777,-0.3133,1.0475,-1.0541,0.9655,0.1784,0.3802,-32.0250,30.8625,-18.0000,
11.214638,-0.3133,1.0475,-1.0541,0.9655,0.1784,0.3802,-32.2313,30.6188,-18.5250,
11.233102,-0.3133,1.0475,-1.0541,1.1541,-0.4329,0.5718,-32.2313,30.6188,-18.5250,
11.252840,-0.3133,1.0475,-1.0541,1.1541,-0.4329,0.5718,-32.2313,30.6188,-18.5250,
11.277806,0.8689,1.5822,0.7244,1.1541,-0.4329,0.5718,-32.2313,30.6188,-18.5250,
11.281106,0.8689,1.5822,0.7244,1.1541,-0.4329,0.5718,-32.4563,30.4125,-18.7125,
11.296973,0.8689,1.5822,0.7244,1.2432,-0.9661,1.0898,-32.4563,30.4125,-18.7125,
11.315866,0.8689,1.5822,0.7244,1.2432,-0.9661,1.0898,-32.4563,30.4125,-18.7125,
11.336081,0.8689,1.5822,0.7244,1.2432,-0.9661,1.0898,-32.6063,30.0750,-18.9750,
11.337996,0.7265,1.7166,1.1839,1.2432,-0.9661,1.0898,-32.6063,30.0750,-18.9750,
11.356121,0.7265,1.7166,1.1839,1.3199,-0.6490,1.2528,-32.6063,30.0750,-18.9750,
11.376926,0.7265,1.7166,1.1839,1.3199,-0.6490,1.2528,-32.6063,30.0750,-18.9750,
11.397084,0.7265,1.7166,1.1839,1.3199,-0.6490,1.2528,-32.4375,29.6438,-19.2938,
11.416634,-0.1245,0.4028,0.4681,1.3199,-0.6490,1.2528,-32.4375,29.6438,-19.2938,
11.418961,-0.1245,0.4028,0.4681,1.1161,-0.3413,1.3155,-32.4375,29.6438,-19.2938,
11.437235,-0.1245,0.4028,0.4681,1.1161,-0.3413,1.3155,-32.4375,29.6438,-19.2938,
11.455323,-0.1245,0.4028,0.4681,1.1161,-0.3413,1.3155,-31.9500,29.4563,-19.8938,
11.477984,-0.1245,0.4028,0.4681,0.7111,-0.3696,1.3233,-31.9500,29.4563,-19.8938,
11.481014,-0.2571,0.0214,0.0248,0.7111,-0.3696,1.3233,-31.9500,29.4563,-19.8938,
11.498086,-0.2571,0.0214,0.0248,0.7111,-0.3696,1.3233,-31.9500,29.4563,-19.8938,
11.514915,-0.2571,0.0214,0.0248,0.7111,-0.3696,1.3233,-31.2563,29.3625,-20.4750,
11.539345,-0.2571,0.0214,0.0248,0.6457,-0.1427,1.2091,-31.2563,29.3625,-20.4750,
11.542693,-0.1980,0.2761,0.6215,0.6457,-0.1427,1.2091,-31.2563,29.3625,-20.4750,
11.558568,-0.1980,0.2761,0.6215,0.6457,-0.1427,1.2091,-31.2563,29.3625,-20.4750,
11.576742,-0.1980,0.2761,0.6215,0.6457,-0.1427,1.2091,-30.2625,29.4938,-21.3750,
11.599955,-0.1980,0.2761,0.6215,0.6898,-0.0498,1.1494,-30.2625,29.4938,-21.3750,
11.601716,-1.3188,-0.3759,-1.0238,0.6898,-0.0498,1.1494,-30.2625,29.4938,-21.3750,
11.621968,-1.3188,-0.3759,-1.0238,0.6898,-0.0498,1.1494,-30.2625,29.4938,-21.3750,
11.635089,-1.3188,-0.3759,-1.0238,0.6898,-0.0498,1.1494,-29.0063,30.0375,-22.0500,
11.660834,-1.3188,-0.3759,-1.0238,0.7848,0.1507,1.5967,-29.0063,30.0375,-22.0500,
11.680652,-1.3188,-0.3759,-1.0238,0.7848,0.1507,1.5967,-29.0063,30.0375,-22.0500,
11.682319,-0.4954,1.4343,-0.5357,0.7848,0.1507,1.5967,-29.0063,30.0375,-22.0500,
11.695045,-0.4954,1.4343,-0.5357,0.7848,0.1507,1.5967,-27.3000,30.8063,-22.4813,
11.721015,-0.4954,1.4343,-0.5357,0.6077,-0.2096,2.0691,-27.3000,30.8063,-22.4813,
11.742360,-0.4954,1.4343,-0.5357,0.6077,-0.2096,2.0691,-27.3000,30.8063,-22.4813,
11.745533,-0.4285,1.0657,-0.1462,0.6077,-0.2096,2.0691,-27.3000,30.8063,-22.4813,
11.754172,-0.4285,1.0657,-0.1462,0.6077,-0.2096,2.0691,-25.2188,31.8188,-23.4375,
11.782087,-0.4285,1.0657,-0.1462,0.7695,-0.1016,1.2850,-25.2188,31.8188,-23.4375,
11.805385,-0.4285,1.0657,-0.1462,0.7695,-0.1016,1.2850,-25.2188,31.8188,-23.4375,
11.806918,1.3068,-5.2321,-0.2816,0.7695,-0.1016,1.2850,-25.2188,31.8188,-23.4375,
11.815113,1.3068,-5.2321,-0.2816,0.7695,-0.1016,1.2850,-22.8375,32.8125,-24.6000,
11.843471,1.3068,-5.2321,-0.2816,0.6898,0.0567,1.3457,-22.8375,32.8125,-24.6000,
11.863621,1.3068,-5.2321,-0.2816,0.6898,0.0567,1.3457,-22.8375,32.8125,-24.6000,
11.865633,0.6763,1.2066,0.0155,0.6898,0.0567,1.3457,-22.8375,32.8125,-24.6000,
11.875307,0.6763,1.2066,0.0155,0.6898,0.0567,1.3457,-20.4563,33.8250,-25.8563,
11.903282,0.6763,1.2066,0.0155,0.8065,0.1831,1.2236,-20.4563,33.8250,-25.8563,
11.924453,0.6763,1.2066,0.0155,0.8065,0.1831,1.2236,-20.4563,33.8250,-25.8563,
11.936609,0.6763,1.2066,0.0155,0.8065,0.1831,1.2236,-18.2063,34.4625,-27.2250,
11.944574,-0.5566,0.2892,-0.1267,0.8065,0.1831,1.2236,-18.2063,34.4625,-27.2250,
11.964937,-0.5566,0.2892,-0.1267,0.7522,0.1032,1.0721,-18.2063,34.4625,-27.2250,
11.985572,-0.5566,0.2892,-0.1267,0.7522,0.1032,1.0721,-18.2063,34.4625,-27.2250,
11.995579,-0.5566,0.2892,-0.1267,0.7522,0.1032,1.0721,-15.7313,34.8938,-28.6125,
12.009909,-0.5623,0.2434,0.0424,0.7522,0.1032,1.0721,-15.7313,34.8938,-28.6125,
12.025943,-0.5623,0.2434,0.0424,0.5187,0.2867,0.9491,-15.7313,34.8938,-28.6125,
12.046473,-0.5623,0.2434,0.0424,0.5187,0.2867,0.9491,-15.7313,34.8938,-28.6125,
12.053752,-0.5623,0.2434,0.0424,0.5187,0.2867,0.9491,-11.1750,36.4125,-29.8125,
12.065979,-0.1140,0.0659,0.3642,0.5187,0.2867,0.9491,-11.1750,36.4125,-29.8125,
12.086697,-0.1140,0.0659,0.3642,0.4241,0.3099,0.7763,-11.1750,36.4125,-29.8125,
12.106708,-0.1140,0.0659,0.3642,0.4241,0.3099,0.7763,-11.1750,36.4125,-29.8125,
12.115483,-0.1140,0.0659,0.3642,0.4241,0.3099,0.7763,-8.6250,36.2063,-31.2000,
12.148130,-0.1140,0.0659,0.3642,0.3376,0.3393,0.4908,-8.6250,36.2063,-31.2000,
12.150096,-0.2788,0.0848,-0.3900,0.3376,0.3393,0.4908,-8.6250,36.2063,-31.2000,
12.168789,-0.2788,0.0848,-0.3900,0.3376,0.3393,0.4908,-8.6250,36.2063,-31.2000,
12.175109,-0.2788,0.0848,-0.3900,0.3376,0.3393,0.4908,-6.5625,35.6625,-32.7000,
12.208946,-0.8182,0.1562,-0.4926,0.3376,0.3393,0.4908,-6.5625,35.6625,-32.7000,
12.210059,-0.8182,0.1562,-0.4926,0.4128,0.0627,0.4181,-6.5625,35.6625,-32.7000,
12.227998,-0.8182,0.1562,-0.4926,0.4128,0.0627,0.4181,-6.5625,35.6625,-32.7000,
12.236058,-0.8182,0.1562,-0.4926,0.4128,0.0627,0.4181,-4.7625,34.8750,-33.9563,
12.269601,-0.8182,0.1562,-0.4926,0.3880,0.1388,0.6261,-4.7625,34.8750,-33.9563,
12.272085,0.1615,-0.0926,-0.0702,0.3880,0.1388,0.6261,-4.7625,34.8750,-33.9563,
12.289649,0.1615,-0.0926,-0.0702,0.3880,0.1388,0.6261,-4.7625,34.8750,-33.9563,
12.300399,0.1615,-0.0926,-0.0702,0.3880,0.1388,0.6261,-3.0188,34.0500,-35.1375,
12.330187,0.1615,-0.0926,-0.0702,0.3201,0.2200,0.5417,-3.0188,34.0500,-35.1375,
12.332853,-0.1394,0.3526,0.4030,0.3201,0.2200,0.5417,-3.0188,34.0500,-35.1375,
12.351021,-0.1394,0.3526,0.4030,0.3201,0.2200,0.5417,-3.0188,34.0500,-35.1375,
12.353562,-0.1394,0.3526,0.4030,0.3201,0.2200,0.5417,-1.3313,33.2625,-36.1313,
12.393146,-0.1394,0.3526,0.4030,0.1554,0.1170,0.4269,-1.3313,33.2625,-36.1313,
12.413711,-0.1394,0.3526,0.4030,0.1554,0.1170,0.4269,0.2438,32.4750,-36.8438,
12.415169,-0.5381,0.0241,0.2196,0.1554,0.1170,0.4269,0.2438,32.4750,-36.8438,
12.415875,-0.5381,0.0241,0.2196,0.1554,0.1170,0.4269,0.2438,32.4750,-36.8438,
12.452770,-0.5381,0.0241,0.2196,-0.0292,-0.2188,0.0198,0.2438,32.4750,-36.8438,
12.472241,-0.5381,0.0241,0.2196,-0.0292,-0.2188,0.0198,0.2438,32.4750,-36.8438,
12.473209,-0.4390,0.1221,0.1485,-0.0292,-0.2188,0.0198,0.2438,32.4750,-36.8438,
12.474228,-0.4390,0.1221,0.1485,-0.0292,-0.2188,0.0198,1.2188,31.6875,-37.5188,
12.511959,-0.4390,0.1221,0.1485,0.0525,-0.1894,-0.0856,1.2188,31.6875,-37.5188,
12.532297,-0.4390,0.1221,0.1485,0.0525,-0.1894,-0.0856,1.2188,31.6875,-37.5188,
12.533741,-0.9455,0.5104,-0.2107,0.0525,-0.1894,-0.0856,1.2188,31.6875,-37.5188,
12.534650,-0.9455,0.5104,-0.2107,0.0525,-0.1894,-0.0856,1.9313,31.2000,-38.2313,
12.572943,-0.9455,0.5104,-0.2107,-0.0015,-0.1357,-0.0108,1.9313,31.2000,-38.2313,
12.593625,-0.9455,0.5104,-0.2107,-0.0015,-0.1357,-0.0108,1.9313,31.2000,-38.2313,
12.594815,-0.9455,0.5104,-0.2107,-0.0015,-0.1357,-0.0108,2.4563,30.6938,-38.6813,
12.615880,0.4880,-0.4725,0.5621,-0.0015,-0.1357,-0.0108,2.4563,30.6938,-38.6813,
12.635047,0.4880,-0.4725,0.5621,0.0181,0.0794,0.1409,2.4563,30.6938,-38.6813,
12.655101,0.4880,-0.4725,0.5621,0.0181,0.0794,0.1409,2.9250,30.5063,-39.2063,
12.657163,0.4880,-0.4725,0.5621,0.0181,0.0794,0.1409,2.9250,30.5063,-39.2063,
12.677146,0.1261,-0.0509,-0.0228,0.0181,0.0794,0.1409,2.9250,30.5063,-39.2063,
12.695628,0.1261,-0.0509,-0.0228,-0.0288,-0.1449,-0.0611,2.9250,30.5063,-39.2063,
12.715054,0.1261,-0.0509,-0.0228,-0.0288,-0.1449,-0.0611,3.1313,30.4875,-39.5250,
12.716941,0.1261,-0.0509,-0.0228,-0.0288,-0.1449,-0.0611,3.1313,30.4875,-39.5250,
12.735516,-1.2505,0.4117,0.0759,-0.0288,-0.1449,-0.0611,3.1313,30.4875,-39.5250,
12.756102,-1.2505,0.4117,0.0759,-0.0402,0.0337,0.0180,3.1313,30.4875,-39.5250,
12.775081,-1.2505,0.4117,0.0759,-0.0402,0.0337,0.0180,3.2250,30.2250,-39.5625,
12.780911,-1.2505,0.4117,0.0759,-0.0402,0.0337,0.0180,3.2250,30.2250,-39.5625,
12.797168,0.1063,-0.1330,0.2663,-0.0402,0.0337,0.0180,3.2250,30.2250,-39.5625,
12.816140,0.1063,-0.1330,0.2663,-0.0629,0.0422,-0.0174,3.2250,30.2250,-39.5625,
12.834020,0.1063,-0.1330,0.2663,-0.0629,0.0422,-0.0174,3.1313,30.2063,-39.7875,
12.836317,0.1063,-0.1330,0.2663,-0.0629,0.0422,-0.0174,3.1313,30.2063,-39.7875,
12.877654,0.1063,-0.1330,0.2663,-0.0224,0.0308,-0.0409,3.1313,30.2063,-39.7875,
12.879516,-0.0833,-0.0947,0.1263,-0.0224,0.0308,-0.0409,3.1313,30.2063,-39.7875,
12.894846,-0.0833,-0.0947,0.1263,-0.0224,0.0308,-0.0409,3.0188,30.4125,-39.9938,
12.897783,-0.0833,-0.0947,0.1263,-0.0224,0.0308,-0.0409,3.0188,30.4125,-39.9938,
12.939510,-0.0833,-0.0947,0.1263,0.0028,0.0358,-0.0238,3.0188,30.4125,-39.9938,
12.942179,-0.3240,0.0211,-0.0032,0.0028,0.0358,-0.0238,3.0188,30.4125,-39.9938,
12.955087,-0.3240,0.0211,-0.0032,0.0028,0.0358,-0.0238,3.1875,30.5625,-39.9750,
12.960957,-0.3240,0.0211,-0.0032,0.0028,0.0358,-0.0238,3.1875,30.5625,-39.9750,
13.002077,-0.3240,0.0211,-0.0032,0.0354,0.0851,-0.0302,3.1875,30.5625,-39.9750,
13.005512,-0.0314,-0.0178,-0.0014,0.0354,0.0851,-0.0302,3.1875,30.5625,-39.9750,
13.015359,-0.0314,-0.0178,-0.0014,0.0354,0.0851,-0.0302,3.3563,30.4688,-39.6375,
13.020406,-0.0314,-0.0178,-0.0014,0.0354,0.0851,-0.0302,3.3563,30.4688,-39.6375,
13.062070,-0.0314,-0.0178,-0.0014,0.0663,0.1075,0.0113,3.3563,30.4688,-39.6375,
13.075532,-0.0314,-0.0178,-0.0014,0.0663,0.1075,0.0113,3.4500,30.4500,-39.4500,
13.080390,-0.0314,-0.0178,-0.0014,0.0663,0.1075,0.0113,3.4500,30.4500,-39.4500,
13.081093,0.0350,-0.0408,0.0818,0.0663,0.1075,0.0113,3.4500,30.4500,-39.4500,
13.123688,0.0350,-0.0408,0.0818,0.0514,0.0951,-0.0012,3.4500,30.4500,-39.4500,
13.135899,0.0350,-0.0408,0.0818,0.0514,0.0951,-0.0012,3.5813,30.2813,-39.1500,
13.141747,0.0350,-0.0408,0.0818,0.0514,0.0951,-0.0012,3.5813,30.2813,-39.1500,
13.142661,-0.1346,-0.0008,0.0707,0.0514,0.0951,-0.0012,3.5813,30.2813,-39.1500,
13.184438,-0.1346,-0.0008,0.0707,0.0443,0.0804,-0.0040,3.5813,30.2813,-39.1500,
13.197854,-0.1346,-0.0008,0.0707,0.0443,0.0804,-0.0040,3.9563,30.0750,-38.9438,
13.203106,-0.1346,-0.0008,0.0707,0.0443,0.0804,-0.0040,3.9563,30.0750,-38.9438,
13.204196,-0.0899,0.0371,0.0422,0.0443,0.0804,-0.0040,3.9563,30.0750,-38.9438,
13.244240,-0.0899,0.0371,0.0422,0.0290,0.0663,-0.0146,3.9563,30.0750,-38.9438,
13.255172,-0.0899,0.0371,0.0422,0.0290,0.0663,-0.0146,4.1438,30.1688,-38.8313,
13.263674,-0.0899,0.0371,0.0422,0.0290,0.0663,-0.0146,4.1438,30.1688,-38.8313,
13.264709,-0.1091,0.0128,0.0863,0.0290,0.0663,-0.0146,4.1438,30.1688,-38.8313,
13.305808,-0.1091,0.0128,0.0863,0.0358,0.0638,0.0035,4.1438,30.1688,-38.8313,
13.315061,-0.1091,0.0128,0.0863,0.0358,0.0638,0.0035,4.2938,30.0188,-38.5875,
13.325501,-0.1091,0.0128,0.0863,0.0358,0.0638,0.0035,4.2938,30.0188,-38.5875,
13.345710,-0.0471,0.0110,0.0521,0.0358,0.0638,0.0035,4.2938,30.0188,-38.5875,
13.365266,-0.0471,0.0110,0.0521,0.0216,0.0798,0.0084,4.2938,30.0188,-38.5875,
13.375947,-0.0471,0.0110,0.0521,0.0216,0.0798,0.0084,4.3875,29.7750,-38.5125,
13.385908,-0.0471,0.0110,0.0521,0.0216,0.0798,0.0084,4.3875,29.7750,-38.5125,
13.405943,-0.0454,0.0068,0.0767,0.0216,0.0798,0.0084,4.3875,29.7750,-38.5125,
13.426618,-0.0454,0.0068,0.0767,0.0226,0.0623,-0.0023,4.3875,29.7750,-38.5125,
13.436842,-0.0454,0.0068,0.0767,0.0226,0.0623,-0.0023,4.5000,29.8875,-38.7375,
13.447639,-0.0454,0.0068,0.0767,0.0226,0.0623,-0.0023,4.5000,29.8875,-38.7375,
13.466570,-0.0888,0.0167,0.0424,0.0226,0.0623,-0.0023,4.5000,29.8875,-38.7375,
13.487257,-0.0888,0.0167,0.0424,0.0284,0.0844,0.0286,4.5000,29.8875,-38.7375,
13.495048,-0.0888,0.0167,0.0424,0.0284,0.0844,0.0286,4.6125,29.7750,-38.8875,
13.505883,-0.0888,0.0167,0.0424,0.0284,0.0844,0.0286,4.6125,29.7750,-38.8875,
13.548773,-0.0888,0.0167,0.0424,0.0280,0.0932,-0.0036,4.6125,29.7750,-38.8875,
13.551076,-0.0120,-0.0122,0.0483,0.0280,0.0932,-0.0036,4.6125,29.7750,-38.8875,
13.554629,-0.0120,-0.0122,0.0483,0.0280,0.0932,-0.0036,4.7812,29.6625,-39.0000,
13.569571,-0.0120,-0.0122,0.0483,0.0280,0.0932,-0.0036,4.7812,29.6625,-39.0000,
13.608520,-0.1101,0.0456,0.0253,0.0280,0.0932,-0.0036,4.7812,29.6625,-39.0000,
13.610027,-0.1101,0.0456,0.0253,0.0606,0.2027,0.0145,4.7812,29.6625,-39.0000,
13.614124,-0.1101,0.0456,0.0253,0.0606,0.2027,0.0145,5.1188,29.6250,-39.1125,
13.628557,-0.1101,0.0456,0.0253,0.0606,0.2027,0.0145,5.1188,29.6250,-39.1125,
13.670575,-0.1101,0.0456,0.0253,0.0599,0.1880,0.0216,5.1188,29.6250,-39.1125,
13.672452,0.0618,0.0308,0.0315,0.0599,0.1880,0.0216,5.1188,29.6250,-39.1125,
13.675547,0.0618,0.0308,0.0315,0.0599,0.1880,0.0216,5.1938,29.4188,-39.2812,
13.690329,0.0618,0.0308,0.0315,0.0599,0.1880,0.0216,5.1938,29.4188,-39.2812,
13.730894,0.0618,0.0308,0.0315,0.0490,0.1064,0.0130,5.1938,29.4188,-39.2812,
13.732836,-0.0819,-0.0304,-0.0154,0.0490,0.1064,0.0130,5.1938,29.4188,-39.2812,
13.736460,-0.0819,-0.0304,-0.0154,0.0490,0.1064,0.0130,5.3813,29.3813,-39.5625,
13.751289,-0.0819,-0.0304,-0.0154,0.0490,0.1064,0.0130,5.3813,29.3813,-39.5625,
13.792247,-0.0819,-0.0304,-0.0154,0.0450,0.0478,0.0399,5.3813,29.3813,-39.5625,
13.795236,-0.0819,-0.0304,-0.0154,0.0450,0.0478,0.0399,5.6813,29.3813,-39.6938,
13.812895,-0.0819,-0.0304,-0.0154,0.0450,0.0478,0.0399,5.6813,29.3813,-39.6938,
13.814555,0.0015,0.0305,0.0206,0.0450,0.0478,0.0399,5.6813,29.3813,-39.6938,
13.853229,0.0015,0.0305,0.0206,0.0450,0.0333,0.0535,5.6813,29.3813,-39.6938,
13.855681,0.0015,0.0305,0.0206,0.0450,0.0333,0.0535,5.9625,29.2500,-39.6938,
13.874282,0.0015,0.0305,0.0206,0.0450,0.0333,0.0535,5.9625,29.2500,-39.6938,
13.876060,-0.0385,-0.0367,-0.0051,0.0450,0.0333,0.0535,5.9625,29.2500,-39.6938,
13.916196,-0.0385,-0.0367,-0.0051,0.0486,0.0376,0.0759,5.9625,29.2500,-39.6938,
13.918063,-0.0385,-0.0367,-0.0051,0.0486,0.0376,0.0759,6.2438,28.8563,-39.7125,
13.935346,-0.0385,-0.0367,-0.0051,0.0486,0.0376,0.0759,6.2438,28.8563,-39.7125,
13.938363,0.0397,0.0020,0.0238,0.0486,0.0376,0.0759,6.2438,28.8563,-39.7125,
13.976323,0.0397,0.0020,0.0238,0.0386,0.0276,0.0549,6.2438,28.8563,-39.7125,
13.977935,0.0397,0.0020,0.0238,0.0386,0.0276,0.0549,6.6000,28.7063,-39.7500,
13.997707,0.0397,0.0020,0.0238,0.0386,0.0276,0.0549,6.6000,28.7063,-39.7500,
14.016727,-0.0400,0.0050,0.0177,0.0386,0.0276,0.0549,6.6000,28.7063,-39.7500,
14.036189,-0.0400,0.0050,0.0177,0.0273,0.0316,0.0623,6.6000,28.7063,-39.7500,
14.038483,-0.0400,0.0050,0.0177,0.0273,0.0316,0.0623,6.9188,28.6125,-39.7500,
14.056088,-0.0400,0.0050,0.0177,0.0273,0.0316,0.0623,6.9188,28.6125,-39.7500,
14.077945,0.0132,0.0094,0.0208,0.0273,0.0316,0.0623,6.9188,28.6125,-39.7500,
14.096663,0.0132,0.0094,0.0208,0.0184,0.0188,0.0442,6.9188,28.6125,-39.7500,
14.098678,0.0132,0.0094,0.0208,0.0184,0.0188,0.0442,6.9938,28.5563,-39.7875,
14.117099,0.0132,0.0094,0.0208,0.0184,0.0188,0.0442,6.9938,28.5563,-39.7875,
14.137523,-0.0488,0.0061,0.0023,0.0184,0.0188,0.0442,6.9938,28.5563,-39.7875,
14.157204,-0.0488,0.0061,0.0023,0.0184,0.0188,0.0442,7.1813,28.4438,-39.6750,
14.159943,-0.0488,0.0061,0.0023,0.0130,0.0105,0.0389,7.1813,28.4438,-39.6750,
14.178939,-0.0488,0.0061,0.0023,0.0130,0.0105,0.0389,7.1813,28.4438,-39.6750,
14.198970,-0.0105,-0.0003,0.0139,0.0130,0.0105,0.0389,7.1813,28.4438,-39.6750,
14.215174,-0.0105,-0.0003,0.0139,0.0130,0.0105,0.0389,7.3500,28.2750,-39.5625,
14.217279,-0.0105,-0.0003,0.0139,0.0241,0.0290,0.0542,7.3500,28.2750,-39.5625,
14.238528,-0.0105,-0.0003,0.0139,0.0241,0.0290,0.0542,7.3500,28.2750,-39.5625,
14.275302,-0.0105,-0.0003,0.0139,0.0241,0.0290,0.0542,7.4813,28.0125,-39.5813,
14.278023,-0.0105,-0.0003,0.0139,0.0209,0.0024,0.0269,7.4813,28.0125,-39.5813,
14.278664,0.0120,-0.0113,0.0089,0.0209,0.0024,0.0269,7.4813,28.0125,-39.5813,
14.300723,0.0120,-0.0113,0.0089,0.0209,0.0024,0.0269,7.4813,28.0125,-39.5813,
14.335544,0.0120,-0.0113,0.0089,0.0209,0.0024,0.0269,7.5750,27.9188,-39.6188,
14.339455,0.0120,-0.0113,0.0089,0.0177,-0.0029,0.0095,7.5750,27.9188,-39.6188,
14.340977,-0.0673,0.0046,0.0026,0.0177,-0.0029,0.0095,7.5750,27.9188,-39.6188,
14.361105,-0.0673,0.0046,0.0026,0.0177,-0.0029,0.0095,7.5750,27.9188,-39.6188,
14.396602,-0.0673,0.0046,0.0026,0.0177,-0.0029,0.0095,7.8188,27.9188,-39.5438,
14.405739,-0.0328,0.0059,0.0067,0.0177,-0.0029,0.0095,7.8188,27.9188,-39.5438,
14.406467,-0.0328,0.0059,0.0067,0.0188,-0.0228,-0.0119,7.8188,27.9188,-39.5438,
14.421078,-0.0328,0.0059,0.0067,0.0188,-0.0228,-0.0119,7.8188,27.9188,-39.5438,
14.456154,-0.0328,0.0059,0.0067,0.0188,-0.0228,-0.0119,7.7438,27.8813,-39.5250,
14.463673,-0.0328,0.0059,0.0067,0.0188,-0.0402,-0.0364,7.7438,27.8813,-39.5250,
14.482061,-0.0328,0.0059,0.0067,0.0188,-0.0402,-0.0364,7.7438,27.8813,-39.5250,
14.483498,-0.0764,0.0132,-0.0018,0.0188,-0.0402,-0.0364,7.7438,27.8813,-39.5250,
14.515358,-0.0764,0.0132,-0.0018,0.0188,-0.0402,-0.0364,7.5938,27.7688,-39.6000,
14.522529,-0.0764,0.0132,-0.0018,0.0170,-0.0296,-0.0089,7.5938,27.7688,-39.6000,
14.543217,-0.0764,0.0132,-0.0018,0.0170,-0.0296,-0.0089,7.5938,27.7688,-39.6000,
14.544934,0.0088,0.0058,-0.0015,0.0170,-0.0296,-0.0089,7.5938,27.7688,-39.6000,
14.575249,0.0088,0.0058,-0.0015,0.0170,-0.0296,-0.0089,7.7250,27.7688,-39.7125,
14.583411,0.0088,0.0058,-0.0015,0.0152,-0.0387,0.0009,7.7250,27.7688,-39.7125,
14.604600,0.0088,0.0058,-0.0015,0.0152,-0.0387,0.0009,7.7250,27.7688,-39.7125,
14.606338,-0.0116,-0.0059,0.0166,0.0152,-0.0387,0.0009,7.7250,27.7688,-39.7125,
14.635457,-0.0116,-0.0059,0.0166,0.0152,-0.0387,0.0009,7.6125,27.7688,-39.6938,
14.646889,-0.0116,-0.0059,0.0166,0.0245,-0.0292,0.0226,7.6125,27.7688,-39.6938,
14.664987,-0.0116,-0.0059,0.0166,0.0245,-0.0292,0.0226,7.6125,27.7688,-39.6938,
14.666340,0.0312,-0.0010,-0.0073,0.0245,-0.0292,0.0226,7.6125,27.7688,-39.6938,
14.695671,0.0312,-0.0010,-0.0073,0.0245,-0.0292,0.0226,7.4625,27.7688,-39.7688,
14.705928,0.0312,-0.0010,-0.0073,0.0145,-0.0068,0.0261,7.4625,27.7688,-39.7688,
14.725603,0.0312,-0.0010,-0.0073,0.0145,-0.0068,0.0261,7.4625,27.7688,-39.7688,
14.747598,0.0376,-0.0190,0.0499,0.0145,-0.0068,0.0261,7.4625,27.7688,-39.7688,
14.757100,0.0376,-0.0190,0.0499,0.0145,-0.0068,0.0261,7.4438,27.7125,-39.8813,
14.766024,0.0376,-0.0190,0.0499,0.0184,0.0134,0.0527,7.4438,27.7125,-39.8813,
14.786534,0.0376,-0.0190,0.0499,0.0184,0.0134,0.0527,7.4438,27.7125,-39.8813,
14.806697,0.0292,-0.0056,-0.0116,0.0184,0.0134,0.0527,7.4438,27.7125,-39.8813,
14.815265,0.0292,-0.0056,-0.0116,0.0184,0.0134,0.0527,7.4250,27.6000,-39.9375,
14.829090,0.0292,-0.0056,-0.0116,0.0120,0.0162,0.0463,7.4250,27.6000,-39.9375,
14.847702,0.0292,-0.0056,-0.0116,0.0120,0.0162,0.0463,7.4250,27.6000,-39.9375,
14.867161,0.0003,0.0065,0.0337,0.0120,0.0162,0.0463,7.4250,27.6000,-39.9375,
14.875388,0.0003,0.0065,0.0337,0.0120,0.0162,0.0463,7.2938,27.5813,-40.0688,
14.888002,0.0003,0.0065,0.0337,0.0043,0.0071,0.0386,7.2938,27.5813,-40.0688,
14.908944,0.0003,0.0065,0.0337,0.0043,0.0071,0.0386,7.2938,27.5813,-40.0688,
14.936825,0.0003,0.0065,0.0337,0.0043,0.0071,0.0386,7.3688,27.5250,-40.2000,
14.950104,0.0003,0.0065,0.0337,0.0429,0.0265,0.0964,7.3688,27.5250,-40.2000,
14.952518,0.0155,-0.0144,0.0037,0.0429,0.0265,0.0964,7.3688,27.5250,-40.2000,
14.969657,0.0155,-0.0144,0.0037,0.0429,0.0265,0.0964,7.3688,27.5250,-40.2000,
14.995240,0.0155,-0.0144,0.0037,0.0429,0.0265,0.0964,7.6500,27.6000,-40.2000,
15.010223,0.0155,-0.0144,0.0037,0.0493,0.0265,0.0887,7.6500,27.6000,-40.2000,
15.012270,0.1319,-0.0358,-0.0425,0.0493,0.0265,0.0887,7.6500,27.6000,-40.2000,
15.032457,0.1319,-0.0358,-0.0425,0.0493,0.0265,0.0887,7.6500,27.6000,-40.2000,
15.055854,0.1319,-0.0358,-0.0425,0.0493,0.0265,0.0887,7.6875,27.3938,-40.1063,
15.070734,0.1319,-0.0358,-0.0425,0.0209,-0.0023,0.0403,7.6875,27.3938,-40.1063,
15.072213,-0.0557,0.0427,-0.0246,0.0209,-0.0023,0.0403,7.6875,27.3938,-40.1063,
15.091217,-0.0557,0.0427,-0.0246,0.0209,-0.0023,0.0403,7.6875,27.3938,-40.1063,
15.115282,-0.0557,0.0427,-0.0246,0.0209,-0.0023,0.0403,7.9875,27.4125,-40.1438,
15.131396,-0.0557,0.0427,-0.0246,-0.0051,-0.0012,0.0013,7.9875,27.4125,-40.1438,
15.132943,-0.1465,0.0322,0.0085,-0.0051,-0.0012,0.0013,7.9875,27.4125,-40.1438,
15.152325,-0.1465,0.0322,0.0085,-0.0051,-0.0012,0.0013,7.9875,27.4125,-40.1438,
15.175619,-0.1465,0.0322,0.0085,-0.0051,-0.0012,0.0013,8.2125,27.2813,-40.1250,
15.192320,-0.1465,0.0322,0.0085,0.0043,0.0273,0.0265,8.2125,27.2813,-40.1250,
15.213618,-0.1465,0.0322,0.0085,0.0043,0.0273,0.0265,8.2125,27.2813,-40.1250,
15.215432,-0.0198,0.0130,0.0506,0.0043,0.0273,0.0265,8.2125,27.2813,-40.1250,
15.235240,-0.0198,0.0130,0.0506,0.0043,0.0273,0.0265,8.3625,27.3938,-39.9750,
15.253603,-0.0198,0.0130,0.0506,0.0039,0.0655,0.0570,8.3625,27.3938,-39.9750,
15.274922,-0.0198,0.0130,0.0506,0.0039,0.0655,0.0570,8.3625,27.3938,-39.9750,
15.278756,0.1150,-0.0262,-0.0166,0.0039,0.0655,0.0570,8.3625,27.3938,-39.9750,
15.295973,0.1150,-0.0262,-0.0166,0.0039,0.0655,0.0570,8.4938,27.5063,-40.0312,
15.315307,0.1150,-0.0262,-0.0166,-0.0036,0.0610,0.0344,8.4938,27.5063,-40.0312,
15.336828,0.1150,-0.0262,-0.0166,-0.0036,0.0610,0.0344,8.4938,27.5063,-40.0312,
15.338503,-0.0624,0.0065,0.0623,-0.0036,0.0610,0.0344,8.4938,27.5063,-40.0312,
15.357509,-0.0624,0.0065,0.0623,-0.0036,0.0610,0.0344,8.5875,27.4688,-39.8813,
15.376482,-0.0624,0.0065,0.0623,0.0152,0.0418,0.0357,8.5875,27.4688,-39.8813,
15.397248,-0.0624,0.0065,0.0623,0.0152,0.0418,0.0357,8.5875,27.4688,-39.8813,
15.415628,-0.0624,0.0065,0.0623,0.0152,0.0418,0.0357,8.7563,27.4313,-39.8438,
15.416652,-0.0062,-0.0098,-0.0249,0.0152,0.0418,0.0357,8.7563,27.4313,-39.8438,
15.435835,-0.0062,-0.0098,-0.0249,0.0216,0.0028,0.0201,8.7563,27.4313,-39.8438,
15.457427,-0.0062,-0.0098,-0.0249,0.0216,0.0028,0.0201,8.7563,27.4313,-39.8438,
15.476347,-0.0062,-0.0098,-0.0249,0.0216,0.0028,0.0201,8.6813,27.3000,-39.8813,
15.477830,-0.0207,-0.0068,0.0097,0.0216,0.0028,0.0201,8.6813,27.3000,-39.8813,
15.497087,-0.0207,-0.0068,0.0097,0.0365,0.0120,-0.0087,8.6813,27.3000,-39.8813,
15.517655,-0.0207,-0.0068,0.0097,0.0365,0.0120,-0.0087,8.6813,27.3000,-39.8813,
15.535370,-0.0207,-0.0068,0.0097,0.0365,0.0120,-0.0087,8.6625,27.1688,-39.7875,
15.539339,-0.0440,-0.0027,-0.0502,0.0365,0.0120,-0.0087,8.6625,27.1688,-39.7875,
15.558243,-0.0440,-0.0027,-0.0502,0.0269,0.0212,-0.0214,8.6625,27.1688,-39.7875,
15.579355,-0.0440,-0.0027,-0.0502,0.0269,0.0212,-0.0214,8.6625,27.1688,-39.7875,
15.596111,-0.0440,-0.0027,-0.0502,0.0269,0.0212,-0.0214,8.6250,27.0563,-39.9188,
15.598303,-0.0310,0.0133,0.0138,0.0269,0.0212,-0.0214,8.6250,27.0563,-39.9188,
15.624035,-0.0310,0.0133,0.0138,0.0521,0.0947,-0.0289,8.6250,27.0563,-39.9188,
15.638587,-0.0310,0.0133,0.0138,0.0521,0.0947,-0.0289,8.6250,27.0563,-39.9188,
15.654681,-0.0310,0.0133,0.0138,0.0521,0.0947,-0.0289,8.7563,27.0188,-40.0125,
15.679694,-0.0310,0.0133,0.0138,0.0947,0.2059,-0.0864,8.7563,27.0188,-40.0125,
15.681291,-0.0522,0.0026,-0.0584,0.0947,0.2059,-0.0864,8.7563,27.0188,-40.0125,
15.700525,-0.0522,0.0026,-0.0584,0.0947,0.2059,-0.0864,8.7563,27.0188,-40.0125,
15.714947,-0.0522,0.0026,-0.0584,0.0947,0.2059,-0.0864,8.7938,26.8313,-40.2750,
15.740158,-0.0876,0.1514,0.0788,0.0947,0.2059,-0.0864,8.7938,26.8313,-40.2750,
15.740849,-0.0876,0.1514,0.0788,0.0056,-0.0161,0.0606,8.7938,26.8313,-40.2750,
15.760501,-0.0876,0.1514,0.0788,0.0056,-0.0161,0.0606,8.7938,26.8313,-40.2750,
15.775962,-0.0876,0.1514,0.0788,0.0056,-0.0161,0.0606,8.8688,26.7938,-40.2188,
