
time,ax,ay,az,wx,wy,wz,Bx,By,Bz,
0.051258,0.0000,0.0000,0.0000,0.0000,0.0000,0.0000,44.2500,14.8500,-1.3500,
0.066735,0.0000,0.0000,0.0000,0.0000,0.0000,0.0000,44.2500,14.8500,-1.3500,
0.068420,-0.0006,0.0143,0.0364,0.0000,0.0000,0.0000,44.2500,14.8500,-1.3500,
0.085409,-0.0006,0.0143,0.0364,0.0000,0.0000,0.0000,44.2500,14.8500,-1.3500,
0.087162,0.0123,0.0461,0.1084,0.0000,0.0000,0.0000,44.2500,14.8500,-1.3500,
0.090561,0.0123,0.0461,0.1084,0.0035,0.0038,-0.0060,44.2500,14.8500,-1.3500,
0.110424,0.0123,0.0461,0.1084,0.0035,0.0038,-0.0060,44.2500,14.8500,-1.3500,
0.112033,-0.0027,0.0976,0.0747,0.0035,0.0038,-0.0060,44.2500,14.8500,-1.3500,
0.119862,-0.0027,0.0976,0.0747,0.0035,0.0038,-0.0060,43.3500,13.9500,-1.3500,
0.125954,-0.0027,0.0976,0.0747,0.0035,0.0038,-0.0060,43.3500,13.9500,-1.3500,
0.127567,-0.0266,0.0893,0.0685,0.0035,0.0038,-0.0060,43.3500,13.9500,-1.3500,
0.150698,-0.0266,0.0893,0.0685,0.0035,0.0038,-0.0060,43.3500,13.9500,-1.3500,
0.154000,0.0241,0.0685,0.0606,0.0035,0.0038,-0.0060,43.3500,13.9500,-1.3500,
0.173339,0.0241,0.0685,0.0606,0.0057,0.0218,-0.0115,43.3500,13.9500,-1.3500,
0.177198,0.0241,0.0685,0.0606,0.0057,0.0218,-0.0115,43.3500,13.9500,-1.3500,
0.180215,0.0761,0.0619,-0.0158,0.0057,0.0218,-0.0115,43.3500,13.9500,-1.3500,
0.189629,0.0761,0.0619,-0.0158,0.0057,0.0218,-0.0115,43.3500,13.9500,-1.3500,
0.191774,0.0546,0.1240,-0.0393,0.0057,0.0218,-0.0115,43.3500,13.9500,-1.3500,
0.193499,0.0546,0.1240,-0.0393,0.0057,0.0218,-0.0115,42.4500,13.9500,-1.5000,
0.206590,0.0546,0.1240,-0.0393,0.0057,0.0218,-0.0115,42.4500,13.9500,-1.5000,
0.208378,-0.0309,0.0913,-0.0204,0.0057,0.0218,-0.0115,42.4500,13.9500,-1.5000,
0.226637,-0.0309,0.0913,-0.0204,0.0057,0.0218,-0.0115,42.4500,13.9500,-1.5000,
0.228826,-0.0695,0.0664,0.0373,0.0057,0.0218,-0.0115,42.4500,13.9500,-1.5000,
0.231256,-0.0695,0.0664,0.0373,-0.0330,0.0351,-0.0276,42.4500,13.9500,-1.5000,
0.248336,-0.0695,0.0664,0.0373,-0.0330,0.0351,-0.0276,42.4500,13.9500,-1.5000,
0.251256,-0.0518,0.0391,0.0680,-0.0330,0.0351,-0.0276,42.4500,13.9500,-1.5000,
0.259225,-0.0518,0.0391,0.0680,-0.0330,0.0351,-0.0276,43.0500,14.4000,-0.9000,
0.267802,-0.0518,0.0391,0.0680,-0.0330,0.0351,-0.0276,43.0500,14.4000,-0.9000,
0.269341,-0.0291,0.0568,0.0839,-0.0330,0.0351,-0.0276,43.0500,14.4000,-0.9000,
0.286878,-0.0291,0.0568,0.0839,-0.0330,0.0351,-0.0276,43.0500,14.4000,-0.9000,
0.288740,-0.0280,0.0692,0.2040,-0.0330,0.0351,-0.0276,43.0500,14.4000,-0.9000,
0.300194,-0.0280,0.0692,0.2040,-0.0328,0.0336,-0.0321,43.0500,14.4000,-0.9000,
0.305917,-0.0280,0.0692,0.2040,-0.0328,0.0336,-0.0321,43.0500,14.4000,-0.9000,
0.307377,-0.0255,0.0546,-0.0709,-0.0328,0.0336,-0.0321,43.0500,14.4000,-0.9000,
0.320982,-0.0255,0.0546,-0.0709,-0.0328,0.0336,-0.0321,43.0500,14.4000,-0.9000,
0.322517,-0.0996,0.0080,0.0693,-0.0328,0.0336,-0.0321,43.0500,14.4000,-0.9000,
0.332373,-0.0996,0.0080,0.0693,-0.0328,0.0336,-0.0321,43.2000,14.9250,-0.6000,
0.345636,-0.0996,0.0080,0.0693,-0.0328,0.0336,-0.0321,43.2000,14.9250,-0.6000,
0.347307,-0.0865,-0.0055,0.2750,-0.0328,0.0336,-0.0321,43.2000,14.9250,-0.6000,
0.371024,-0.0865,-0.0055,0.2750,-0.0328,0.0336,-0.0321,43.2000,14.9250,-0.6000,
0.372822,-0.0075,-0.0114,0.0025,-0.0328,0.0336,-0.0321,43.2000,14.9250,-0.6000,
0.374427,-0.0075,-0.0114,0.0025,-0.0266,0.0191,-0.0302,43.2000,14.9250,-0.6000,
0.389086,-0.0075,-0.0114,0.0025,-0.0266,0.0191,-0.0302,43.2000,14.9250,-0.6000,
0.390784,-0.0962,0.2371,-0.1024,-0.0266,0.0191,-0.0302,43.2000,14.9250,-0.6000,
0.399484,-0.0962,0.2371,-0.1024,-0.0266,0.0191,-0.0302,42.9000,13.9500,-0.9000,
0.409197,-0.0962,0.2371,-0.1024,-0.0266,0.0191,-0.0302,42.9000,13.9500,-0.9000,
0.412276,0.0008,0.1287,0.2290,-0.0266,0.0191,-0.0302,42.9000,13.9500,-0.9000,
0.426774,0.0008,0.1287,0.2290,-0.0266,0.0191,-0.0302,42.9000,13.9500,-0.9000,
0.428938,0.0969,-0.0956,0.0929,-0.0266,0.0191,-0.0302,42.9000,13.9500,-0.9000,
0.441305,0.0969,-0.0956,0.0929,-0.0185,-0.0246,-0.0186,42.9000,13.9500,-0.9000,
0.449941,0.0969,-0.0956,0.0929,-0.0185,-0.0246,-0.0186,42.9000,13.9500,-0.9000,
0.451537,0.0846,-0.0599,0.0295,-0.0185,-0.0246,-0.0186,42.9000,13.9500,-0.9000,
0.466751,0.0846,-0.0599,0.0295,-0.0185,-0.0246,-0.0186,42.9000,13.9500,-0.9000,
0.470346,0.0603,0.0092,0.0034,-0.0185,-0.0246,-0.0186,42.9000,13.9500,-0.9000,
0.472463,0.0603,0.0092,0.0034,-0.0185,-0.0246,-0.0186,42.7500,14.5500,-0.6000,
0.486400,0.0603,0.0092,0.0034,-0.0185,-0.0246,-0.0186,42.7500,14.5500,-0.6000,
0.488793,-0.1143,0.0921,-0.0154,-0.0185,-0.0246,-0.0186,42.7500,14.5500,-0.6000,
0.505362,-0.1143,0.0921,-0.0154,-0.0185,-0.0246,-0.0186,42.7500,14.5500,-0.6000,
0.507720,-0.1600,0.1111,0.0289,-0.0185,-0.0246,-0.0186,42.7500,14.5500,-0.6000,
0.510263,-0.1600,0.1111,0.0289,-0.0203,-0.0159,-0.0284,42.7500,14.5500,-0.6000,
0.520737,-0.1600,0.1111,0.0289,-0.0203,-0.0159,-0.0284,42.7500,14.5500,-0.6000,
0.523231,-0.1307,0.1151,0.0288,-0.0203,-0.0159,-0.0284,42.7500,14.5500,-0.6000,
0.538608,-0.1307,0.1151,0.0288,-0.0203,-0.0159,-0.0284,42.5250,14.8500,-0.4500,
0.547065,-0.1307,0.1151,0.0288,-0.0203,-0.0159,-0.0284,42.5250,14.8500,-0.4500,
0.549371,-0.0450,0.0353,0.0931,-0.0203,-0.0159,-0.0284,42.5250,14.8500,-0.4500,
0.564772,-0.0450,0.0353,0.0931,-0.0203,-0.0159,-0.0284,42.5250,14.8500,-0.4500,
0.567496,0.0827,-0.0471,0.0958,-0.0203,-0.0159,-0.0284,42.5250,14.8500,-0.4500,
0.584254,0.0827,-0.0471,0.0958,-0.0047,-0.0111,-0.0099,42.5250,14.8500,-0.4500,
0.586752,0.0827,-0.0471,0.0958,-0.0047,-0.0111,-0.0099,42.5250,14.8500,-0.4500,
0.588438,-0.0432,0.0479,-0.1239,-0.0047,-0.0111,-0.0099,42.5250,14.8500,-0.4500,
0.605910,-0.0432,0.0479,-0.1239,-0.0047,-0.0111,-0.0099,42.5250,14.8500,-0.4500,
0.610597,-0.0401,0.1090,0.0693,-0.0047,-0.0111,-0.0099,42.5250,14.8500,-0.4500,
0.612618,-0.0401,0.1090,0.0693,-0.0047,-0.0111,-0.0099,42.7500,14.7000,-1.0500,
0.620561,-0.0401,0.1090,0.0693,-0.0047,-0.0111,-0.0099,42.7500,14.7000,-1.0500,
0.621856,-0.0289,-0.0011,0.0981,-0.0047,-0.0111,-0.0099,42.7500,14.7000,-1.0500,
0.643355,-0.0289,-0.0011,0.0981,-0.0047,-0.0111,-0.0099,42.7500,14.7000,-1.0500,
0.645338,-0.0545,-0.0625,0.1922,-0.0047,-0.0111,-0.0099,42.7500,14.7000,-1.0500,
0.647204,-0.0545,-0.0625,0.1922,0.0038,-0.0330,-0.0035,42.7500,14.7000,-1.0500,
0.663776,-0.0545,-0.0625,0.1922,0.0038,-0.0330,-0.0035,42.7500,14.7000,-1.0500,
0.665593,-0.0285,-0.0651,0.1630,0.0038,-0.0330,-0.0035,42.7500,14.7000,-1.0500,
0.681453,-0.0285,-0.0651,0.1630,0.0038,-0.0330,-0.0035,42.8250,14.5500,-1.5000,
0.683441,-0.0285,-0.0651,0.1630,0.0038,-0.0330,-0.0035,42.8250,14.5500,-1.5000,
0.684788,-0.0318,-0.0497,0.0293,0.0038,-0.0330,-0.0035,42.8250,14.5500,-1.5000,
0.701012,-0.0318,-0.0497,0.0293,0.0038,-0.0330,-0.0035,42.8250,14.5500,-1.5000,
0.703548,-0.0457,0.0445,-0.0372,0.0038,-0.0330,-0.0035,42.8250,14.5500,-1.5000,
0.716625,-0.0457,0.0445,-0.0372,0.0363,-0.0313,0.0041,42.8250,14.5500,-1.5000,
0.720369,-0.0457,0.0445,-0.0372,0.0363,-0.0313,0.0041,42.8250,14.5500,-1.5000,
0.721941,-0.0739,0.1154,-0.0962,0.0363,-0.0313,0.0041,42.8250,14.5500,-1.5000,
0.746142,-0.0739,0.1154,-0.0962,0.0363,-0.0313,0.0041,42.8250,14.5500,-1.5000,
0.749032,-0.0923,0.0834,0.0230,0.0363,-0.0313,0.0041,42.8250,14.5500,-1.5000,
0.751171,-0.0923,0.0834,0.0230,0.0363,-0.0313,0.0041,43.0500,14.3250,-0.7500,
0.769291,-0.0923,0.0834,0.0230,0.0363,-0.0313,0.0041,43.0500,14.3250,-0.7500,
0.772697,-0.0353,0.0514,0.0082,0.0363,-0.0313,0.0041,43.0500,14.3250,-0.7500,
0.783958,-0.0353,0.0514,0.0082,0.0363,-0.0313,0.0041,43.0500,14.3250,-0.7500,
0.786204,0.0135,0.0688,-0.0450,0.0363,-0.0313,0.0041,43.0500,14.3250,-0.7500,
0.788930,0.0135,0.0688,-0.0450,0.0208,-0.0356,0.0021,43.0500,14.3250,-0.7500,
0.803925,0.0135,0.0688,-0.0450,0.0208,-0.0356,0.0021,43.0500,14.3250,-0.7500,
0.805960,0.0225,0.0276,-0.0277,0.0208,-0.0356,0.0021,43.0500,14.3250,-0.7500,
0.818564,0.0225,0.0276,-0.0277,0.0208,-0.0356,0.0021,43.0500,14.3250,-0.7500,
0.820994,0.0098,0.0278,0.0414,0.0208,-0.0356,0.0021,43.0500,14.3250,-0.7500,
0.822609,0.0098,0.0278,0.0414,0.0208,-0.0356,0.0021,43.4250,14.6250,-1.3500,
0.843003,0.0098,0.0278,0.0414,0.0208,-0.0356,0.0021,43.4250,14.6250,-1.3500,
0.845437,-0.0712,0.0316,0.0452,0.0208,-0.0356,0.0021,43.4250,14.6250,-1.3500,
0.857534,-0.0712,0.0316,0.0452,0.0182,-0.0173,0.0003,43.4250,14.6250,-1.3500,
0.866962,-0.0712,0.0316,0.0452,0.0182,-0.0173,0.0003,43.4250,14.6250,-1.3500,
0.868746,-0.0632,0.0313,0.0845,0.0182,-0.0173,0.0003,43.4250,14.6250,-1.3500,
0.881922,-0.0632,0.0313,0.0845,0.0182,-0.0173,0.0003,43.4250,14.6250,-1.3500,
0.884181,-0.0164,-0.0013,-0.2055,0.0182,-0.0173,0.0003,43.4250,14.6250,-1.3500,
0.888168,-0.0164,-0.0013,-0.2055,0.0182,-0.0173,0.0003,43.1250,14.5500,-0.9000,
0.901661,-0.0164,-0.0013,-0.2055,0.0182,-0.0173,0.0003,43.1250,14.5500,-0.9000,
0.903780,-0.0599,0.0426,-0.0208,0.0182,-0.0173,0.0003,43.1250,14.5500,-0.9000,
0.921504,-0.0599,0.0426,-0.0208,0.0182,-0.0173,0.0003,43.1250,14.5500,-0.9000,
0.922956,0.0101,0.1010,0.0560,0.0182,-0.0173,0.0003,43.1250,14.5500,-0.9000,
0.926230,0.0101,0.1010,0.0560,-0.0176,-0.0125,-0.0009,43.1250,14.5500,-0.9000,
0.942101,0.0101,0.1010,0.0560,-0.0176,-0.0125,-0.0009,43.1250,14.5500,-0.9000,
0.943696,0.0056,0.0996,-0.2750,-0.0176,-0.0125,-0.0009,43.1250,14.5500,-0.9000,
0.959328,0.0056,0.0996,-0.2750,-0.0176,-0.0125,-0.0009,43.1250,14.5500,-0.9000,
0.960977,-0.0651,0.1102,-0.3530,-0.0176,-0.0125,-0.0009,43.1250,14.5500,-0.9000,
0.962603,-0.0651,0.1102,-0.3530,-0.0176,-0.0125,-0.0009,42.7500,15.0000,-1.9500,
0.980594,-0.0651,0.1102,-0.3530,-0.0176,-0.0125,-0.0009,42.7500,15.0000,-1.9500,
0.983757,-0.0401,-0.0203,0.0033,-0.0176,-0.0125,-0.0009,42.7500,15.0000,-1.9500,
1.001235,-0.0401,-0.0203,0.0033,-0.0440,-0.0234,0.0035,42.7500,15.0000,-1.9500,
1.004572,-0.0401,-0.0203,0.0033,-0.0440,-0.0234,0.0035,42.7500,15.0000,-1.9500,
1.006272,-0.0363,-0.0386,0.0090,-0.0440,-0.0234,0.0035,42.7500,15.0000,-1.9500,
1.019889,-0.0363,-0.0386,0.0090,-0.0440,-0.0234,0.0035,42.7500,15.0000,-1.9500,
1.022183,-0.0006,-0.0467,-0.0644,-0.0440,-0.0234,0.0035,42.7500,15.0000,-1.9500,
1.034164,-0.0006,-0.0467,-0.0644,-0.0440,-0.0234,0.0035,42.7500,14.5500,-1.6500,
1.042826,-0.0006,-0.0467,-0.0644,-0.0440,-0.0234,0.0035,42.7500,14.5500,-1.6500,
1.044692,-0.0413,0.0199,-0.2970,-0.0440,-0.0234,0.0035,42.7500,14.5500,-1.6500,
1.062732,-0.0413,0.0199,-0.2970,-0.0440,-0.0234,0.0035,42.7500,14.5500,-1.6500,
1.064903,-0.1151,0.1273,-0.2292,-0.0440,-0.0234,0.0035,42.7500,14.5500,-1.6500,
1.067448,-0.1151,0.1273,-0.2292,-0.0527,-0.0116,0.0119,42.7500,14.5500,-1.6500,
1.086263,-0.1151,0.1273,-0.2292,-0.0527,-0.0116,0.0119,42.7500,14.5500,-1.6500,
1.088417,-0.1632,0.0553,-0.2365,-0.0527,-0.0116,0.0119,42.7500,14.5500,-1.6500,
1.093900,-0.1632,0.0553,-0.2365,-0.0527,-0.0116,0.0119,42.9000,14.8500,-1.5000,
1.102856,-0.1632,0.0553,-0.2365,-0.0527,-0.0116,0.0119,42.9000,14.8500,-1.5000,
1.104525,-0.1509,-0.0017,-0.2749,-0.0527,-0.0116,0.0119,42.9000,14.8500,-1.5000,
1.119858,-0.1509,-0.0017,-0.2749,-0.0527,-0.0116,0.0119,42.9000,14.8500,-1.5000,
1.121825,-0.2284,-0.0945,-0.2455,-0.0527,-0.0116,0.0119,42.9000,14.8500,-1.5000,
1.136577,-0.2284,-0.0945,-0.2455,-0.0647,-0.0417,0.0047,42.9000,14.8500,-1.5000,
1.141038,-0.2284,-0.0945,-0.2455,-0.0647,-0.0417,0.0047,42.9000,14.8500,-1.5000,
1.142842,-0.2825,0.0900,-0.3607,-0.0647,-0.0417,0.0047,42.9000,14.8500,-1.5000,
1.162578,-0.2825,0.0900,-0.3607,-0.0647,-0.0417,0.0047,42.4500,14.3250,-1.2000,
1.165985,-0.2825,0.0900,-0.3607,-0.0647,-0.0417,0.0047,42.4500,14.3250,-1.2000,
1.167844,-0.3035,0.0875,-0.4051,-0.0647,-0.0417,0.0047,42.4500,14.3250,-1.2000,
1.181420,-0.3035,0.0875,-0.4051,-0.0647,-0.0417,0.0047,42.4500,14.3250,-1.2000,
1.184563,-0.1505,0.0510,-0.3339,-0.0647,-0.0417,0.0047,42.4500,14.3250,-1.2000,
1.202244,-0.1505,0.0510,-0.3339,-0.0647,-0.0417,0.0047,42.4500,14.3250,-1.2000,
1.204947,-0.1393,0.0802,-0.4730,-0.0647,-0.0417,0.0047,42.4500,14.3250,-1.2000,
1.206710,-0.1393,0.0802,-0.4730,-0.0447,-0.1138,-0.0200,42.4500,14.3250,-1.2000,
1.220377,-0.1393,0.0802,-0.4730,-0.0447,-0.1138,-0.0200,42.4500,14.3250,-1.2000,
1.223155,-0.1228,0.1998,-0.3993,-0.0447,-0.1138,-0.0200,42.4500,14.3250,-1.2000,
1.230505,-0.1228,0.1998,-0.3993,-0.0447,-0.1138,-0.0200,42.2250,14.3250,-2.1000,
1.238796,-0.1228,0.1998,-0.3993,-0.0447,-0.1138,-0.0200,42.2250,14.3250,-2.1000,
1.241236,-0.1376,0.1456,-0.3997,-0.0447,-0.1138,-0.0200,42.2250,14.3250,-2.1000,
1.258438,-0.1376,0.1456,-0.3997,-0.0447,-0.1138,-0.0200,42.2250,14.3250,-2.1000,
1.263385,-0.1138,0.1288,-0.3794,-0.0447,-0.1138,-0.0200,42.2250,14.3250,-2.1000,
1.284883,-0.1138,0.1288,-0.3794,0.0237,-0.1365,-0.0680,42.2250,14.3250,-2.1000,
1.287638,-0.1138,0.1288,-0.3794,0.0237,-0.1365,-0.0680,42.2250,14.3250,-2.1000,
1.289225,-0.1004,0.1658,-0.5101,0.0237,-0.1365,-0.0680,42.2250,14.3250,-2.1000,
1.303074,-0.1004,0.1658,-0.5101,0.0237,-0.1365,-0.0680,42.7500,14.8500,-2.5500,
1.305397,-0.1004,0.1658,-0.5101,0.0237,-0.1365,-0.0680,42.7500,14.8500,-2.5500,
1.306879,-0.0797,0.0998,-0.4955,0.0237,-0.1365,-0.0680,42.7500,14.8500,-2.5500,
1.320159,-0.0797,0.0998,-0.4955,0.0237,-0.1365,-0.0680,42.7500,14.8500,-2.5500,
1.322263,-0.0957,-0.0082,-0.5045,0.0237,-0.1365,-0.0680,42.7500,14.8500,-2.5500,
1.342251,-0.0957,-0.0082,-0.5045,0.0237,-0.1365,-0.0680,42.7500,14.8500,-2.5500,
1.344880,-0.1102,0.0696,-0.5641,0.0237,-0.1365,-0.0680,42.7500,14.8500,-2.5500,
1.352282,-0.1102,0.0696,-0.5641,0.0706,-0.1222,-0.1055,42.7500,14.8500,-2.5500,
1.366354,-0.1102,0.0696,-0.5641,0.0706,-0.1222,-0.1055,42.7500,14.8500,-2.5500,
1.368737,-0.1224,0.0856,-0.5992,0.0706,-0.1222,-0.1055,42.7500,14.8500,-2.5500,
1.371042,-0.1224,0.0856,-0.5992,0.0706,-0.1222,-0.1055,41.5500,15.3000,-2.8500,
1.383210,-0.1224,0.0856,-0.5992,0.0706,-0.1222,-0.1055,41.5500,15.3000,-2.8500,
1.385550,-0.0623,0.0626,-0.4565,0.0706,-0.1222,-0.1055,41.5500,15.3000,-2.8500,
1.400961,-0.0623,0.0626,-0.4565,0.0706,-0.1222,-0.1055,41.5500,15.3000,-2.8500,
1.404410,-0.0214,-0.0414,-0.3584,0.0706,-0.1222,-0.1055,41.5500,15.3000,-2.8500,
1.415165,-0.0214,-0.0414,-0.3584,0.1283,-0.0567,-0.1127,41.5500,15.3000,-2.8500,
1.420449,-0.0214,-0.0414,-0.3584,0.1283,-0.0567,-0.1127,41.5500,15.3000,-2.8500,
1.422080,-0.0436,-0.0445,-0.6945,0.1283,-0.0567,-0.1127,41.5500,15.3000,-2.8500,
1.439990,-0.0436,-0.0445,-0.6945,0.1283,-0.0567,-0.1127,41.5500,15.3000,-2.8500,
1.442539,-0.1072,0.0575,-0.4503,0.1283,-0.0567,-0.1127,41.5500,15.3000,-2.8500,
1.444913,-0.1072,0.0575,-0.4503,0.1283,-0.0567,-0.1127,42.2250,15.1500,-3.1500,
1.460440,-0.1072,0.0575,-0.4503,0.1283,-0.0567,-0.1127,42.2250,15.1500,-3.1500,
1.463557,-0.1489,0.0970,-0.2767,0.1283,-0.0567,-0.1127,42.2250,15.1500,-3.1500,
1.481604,-0.1489,0.0970,-0.2767,0.1283,-0.0567,-0.1127,42.2250,15.1500,-3.1500,
1.484611,-0.0982,0.0618,-0.5683,0.1283,-0.0567,-0.1127,42.2250,15.1500,-3.1500,
1.486642,-0.0982,0.0618,-0.5683,0.1796,0.0148,-0.1167,42.2250,15.1500,-3.1500,
1.501303,-0.0982,0.0618,-0.5683,0.1796,0.0148,-0.1167,42.2250,15.1500,-3.1500,
1.504168,-0.0556,0.1729,-0.8227,0.1796,0.0148,-0.1167,42.2250,15.1500,-3.1500,
1.508527,-0.0556,0.1729,-0.8227,0.1796,0.0148,-0.1167,42.2250,14.4000,-3.0000,
1.517578,-0.0556,0.1729,-0.8227,0.1796,0.0148,-0.1167,42.2250,14.4000,-3.0000,
1.519799,-0.0669,0.1883,-0.5306,0.1796,0.0148,-0.1167,42.2250,14.4000,-3.0000,
1.537224,-0.0669,0.1883,-0.5306,0.1796,0.0148,-0.1167,42.2250,14.4000,-3.0000,
1.540785,-0.0726,0.0239,-0.5103,0.1796,0.0148,-0.1167,42.2250,14.4000,-3.0000,
1.551696,-0.0726,0.0239,-0.5103,0.2106,0.0467,-0.1119,42.2250,14.4000,-3.0000,
1.556685,-0.0726,0.0239,-0.5103,0.2106,0.0467,-0.1119,42.2250,14.4000,-3.0000,
1.558621,-0.1507,0.0914,-0.5122,0.2106,0.0467,-0.1119,42.2250,14.4000,-3.0000,
1.576046,-0.1507,0.0914,-0.5122,0.2106,0.0467,-0.1119,42.2250,14.4000,-3.0000,
1.578030,-0.1874,0.4381,-0.3657,0.2106,0.0467,-0.1119,42.2250,14.4000,-3.0000,
1.580303,-0.1874,0.4381,-0.3657,0.2106,0.0467,-0.1119,41.9250,15.3000,-2.7000,
1.595958,-0.1874,0.4381,-0.3657,0.2106,0.0467,-0.1119,41.9250,15.3000,-2.7000,
1.599417,-0.3259,0.3841,-0.3467,0.2106,0.0467,-0.1119,41.9250,15.3000,-2.7000,
1.616516,-0.3259,0.3841,-0.3467,0.2106,0.0467,-0.1119,41.9250,15.3000,-2.7000,
1.620295,-0.2876,0.1743,-0.2984,0.2106,0.0467,-0.1119,41.9250,15.3000,-2.7000,
1.622020,-0.2876,0.1743,-0.2984,0.2117,0.0852,-0.0864,41.9250,15.3000,-2.7000,
1.635186,-0.2876,0.1743,-0.2984,0.2117,0.0852,-0.0864,41.9250,15.3000,-2.7000,
1.637856,-0.2397,0.2274,-0.3843,0.2117,0.0852,-0.0864,41.9250,15.3000,-2.7000,
1.648188,-0.2397,0.2274,-0.3843,0.2117,0.0852,-0.0864,41.2500,15.3000,-3.1500,
1.654993,-0.2397,0.2274,-0.3843,0.2117,0.0852,-0.0864,41.2500,15.3000,-3.1500,
1.656461,-0.2931,0.1408,-0.2823,0.2117,0.0852,-0.0864,41.2500,15.3000,-3.1500,
1.679216,-0.2931,0.1408,-0.2823,0.2117,0.0852,-0.0864,41.2500,15.3000,-3.1500,
1.681468,-0.3707,0.0782,-0.2166,0.2117,0.0852,-0.0864,41.2500,15.3000,-3.1500,
1.693269,-0.3707,0.0782,-0.2166,0.2155,0.0499,-0.0599,41.2500,15.3000,-3.1500,
1.699300,-0.3707,0.0782,-0.2166,0.2155,0.0499,-0.0599,41.2500,15.3000,-3.1500,
1.701293,-0.3796,0.0579,-0.3761,0.2155,0.0499,-0.0599,41.2500,15.3000,-3.1500,
1.718072,-0.3796,0.0579,-0.3761,0.2155,0.0499,-0.0599,41.2500,15.3000,-3.1500,
1.721193,-0.1105,0.2880,-0.1440,0.2155,0.0499,-0.0599,41.2500,15.3000,-3.1500,
1.723347,-0.1105,0.2880,-0.1440,0.2155,0.0499,-0.0599,41.5500,15.3000,-3.4500,
1.739461,-0.1105,0.2880,-0.1440,0.2155,0.0499,-0.0599,41.5500,15.3000,-3.4500,
1.742095,0.0597,0.4124,-0.3969,0.2155,0.0499,-0.0599,41.5500,15.3000,-3.4500,
1.757755,0.0597,0.4124,-0.3969,0.2155,0.0499,-0.0599,41.5500,15.3000,-3.4500,
1.760684,0.1999,0.3388,-0.4845,0.2155,0.0499,-0.0599,41.5500,15.3000,-3.4500,
1.762721,0.1999,0.3388,-0.4845,0.2149,0.0322,-0.0562,41.5500,15.3000,-3.4500,
1.777563,0.1999,0.3388,-0.4845,0.2149,0.0322,-0.0562,41.5500,15.3000,-3.4500,
1.780306,0.1962,0.4423,-0.3538,0.2149,0.0322,-0.0562,41.5500,15.3000,-3.4500,
1.788238,0.1962,0.4423,-0.3538,0.2149,0.0322,-0.0562,41.7000,15.0000,-3.0000,
1.796469,0.1962,0.4423,-0.3538,0.2149,0.0322,-0.0562,41.7000,15.0000,-3.0000,
1.797891,0.0843,0.4983,-0.4446,0.2149,0.0322,-0.0562,41.7000,15.0000,-3.0000,
1.816366,0.0843,0.4983,-0.4446,0.2149,0.0322,-0.0562,41.7000,15.0000,-3.0000,
1.818024,-0.0574,0.4041,-0.5678,0.2149,0.0322,-0.0562,41.7000,15.0000,-3.0000,
1.833022,-0.0574,0.4041,-0.5678,0.1794,0.0107,-0.1032,41.7000,15.0000,-3.0000,
1.835558,-0.0574,0.4041,-0.5678,0.1794,0.0107,-0.1032,41.7000,15.0000,-3.0000,
1.836664,-0.0748,0.6149,-0.5243,0.1794,0.0107,-0.1032,41.7000,15.0000,-3.0000,
1.855526,-0.0748,0.6149,-0.5243,0.1794,0.0107,-0.1032,41.7000,15.0000,-3.0000,
1.857396,-0.0841,0.8674,-0.4959,0.1794,0.0107,-0.1032,41.7000,15.0000,-3.0000,
1.859372,-0.0841,0.8674,-0.4959,0.1794,0.0107,-0.1032,41.5500,15.1500,-3.0750,
1.870143,-0.0841,0.8674,-0.4959,0.1794,0.0107,-0.1032,41.5500,15.1500,-3.0750,
1.872181,-0.0872,0.5509,-0.8191,0.1794,0.0107,-0.1032,41.5500,15.1500,-3.0750,
1.896383,-0.0872,0.5509,-0.8191,0.1794,0.0107,-0.1032,41.5500,15.1500,-3.0750,
1.899745,-0.0818,0.2952,-0.6137,0.1794,0.0107,-0.1032,41.5500,15.1500,-3.0750,
1.902389,-0.0818,0.2952,-0.6137,0.1307,-0.0495,-0.1246,41.5500,15.1500,-3.0750,
1.918625,-0.0818,0.2952,-0.6137,0.1307,-0.0495,-0.1246,41.5500,15.1500,-3.0750,
1.920772,-0.1061,0.2530,-0.4549,0.1307,-0.0495,-0.1246,41.5500,15.1500,-3.0750,
1.939151,-0.1061,0.2530,-0.4549,0.1307,-0.0495,-0.1246,41.1000,15.7500,-3.6000,
1.941179,-0.1061,0.2530,-0.4549,0.1307,-0.0495,-0.1246,41.1000,15.7500,-3.6000,
1.942268,-0.1828,0.0430,-0.5700,0.1307,-0.0495,-0.1246,41.1000,15.7500,-3.6000,
1.957265,-0.1828,0.0430,-0.5700,0.1307,-0.0495,-0.1246,41.1000,15.7500,-3.6000,
1.959284,-0.1891,0.3568,-0.8165,0.1307,-0.0495,-0.1246,41.1000,15.7500,-3.6000,
1.972142,-0.1891,0.3568,-0.8165,0.1620,-0.1429,-0.1272,41.1000,15.7500,-3.6000,
1.977182,-0.1891,0.3568,-0.8165,0.1620,-0.1429,-0.1272,41.1000,15.7500,-3.6000,
1.978545,-0.2676,0.6371,-0.6815,0.1620,-0.1429,-0.1272,41.1000,15.7500,-3.6000,
1.996847,-0.2676,0.6371,-0.6815,0.1620,-0.1429,-0.1272,41.1000,15.7500,-3.6000,
2.000084,-0.2496,0.9278,-0.7084,0.1620,-0.1429,-0.1272,41.1000,15.7500,-3.6000,
2.002200,-0.2496,0.9278,-0.7084,0.1620,-0.1429,-0.1272,41.2500,15.1500,-3.6750,
2.017262,-0.2496,0.9278,-0.7084,0.1620,-0.1429,-0.1272,41.2500,15.1500,-3.6750,
2.018979,-0.1542,0.8195,-1.1110,0.1620,-0.1429,-0.1272,41.2500,15.1500,-3.6750,
2.036786,-0.1542,0.8195,-1.1110,0.1620,-0.1429,-0.1272,41.2500,15.1500,-3.6750,
2.038179,-0.0739,1.1114,-1.1992,0.1620,-0.1429,-0.1272,41.2500,15.1500,-3.6750,
2.042823,-0.0739,1.1114,-1.1992,0.1071,-0.1953,-0.1342,41.2500,15.1500,-3.6750,
2.052444,-0.0739,1.1114,-1.1992,0.1071,-0.1953,-0.1342,41.2500,15.1500,-3.6750,
2.053862,0.0070,1.4798,-1.0176,0.1071,-0.1953,-0.1342,41.2500,15.1500,-3.6750,
2.068900,0.0070,1.4798,-1.0176,0.1071,-0.1953,-0.1342,41.1000,15.3000,-4.5000,
2.071380,0.0070,1.4798,-1.0176,0.1071,-0.1953,-0.1342,41.1000,15.3000,-4.5000,
2.072709,-0.1155,1.6210,-1.2189,0.1071,-0.1953,-0.1342,41.1000,15.3000,-4.5000,
2.095734,-0.1155,1.6210,-1.2189,0.1071,-0.1953,-0.1342,41.1000,15.3000,-4.5000,
2.099260,-0.3850,1.8475,-1.3418,0.1071,-0.1953,-0.1342,41.1000,15.3000,-4.5000,
2.109070,-0.3850,1.8475,-1.3418,-0.0093,-0.2730,-0.1752,41.1000,15.3000,-4.5000,
2.118005,-0.3850,1.8475,-1.3418,-0.0093,-0.2730,-0.1752,41.1000,15.3000,-4.5000,
2.120436,-0.4076,2.3591,-1.1377,-0.0093,-0.2730,-0.1752,41.1000,15.3000,-4.5000,
2.133770,-0.4076,2.3591,-1.1377,-0.0093,-0.2730,-0.1752,41.1000,15.3000,-4.5000,
2.136453,-0.3273,2.9077,-1.0794,-0.0093,-0.2730,-0.1752,41.1000,15.3000,-4.5000,
2.138829,-0.3273,2.9077,-1.0794,-0.0093,-0.2730,-0.1752,40.8000,15.2250,-4.5000,
2.153318,-0.3273,2.9077,-1.0794,-0.0093,-0.2730,-0.1752,40.8000,15.2250,-4.5000,
2.156035,-0.3967,3.3868,-1.0487,-0.0093,-0.2730,-0.1752,40.8000,15.2250,-4.5000,
2.177870,-0.3967,3.3868,-1.0487,-0.0093,-0.2730,-0.1752,40.8000,15.2250,-4.5000,
2.181316,-0.6138,4.0981,-0.4543,-0.0093,-0.2730,-0.1752,40.8000,15.2250,-4.5000,
2.183616,-0.6138,4.0981,-0.4543,-0.1306,-0.3094,-0.2031,40.8000,15.2250,-4.5000,
2.197408,-0.6138,4.0981,-0.4543,-0.1306,-0.3094,-0.2031,40.8000,15.2250,-4.5000,
2.200376,-0.7620,4.8743,-0.1112,-0.1306,-0.3094,-0.2031,40.8000,15.2250,-4.5000,
2.208320,-0.7620,4.8743,-0.1112,-0.1306,-0.3094,-0.2031,40.3500,15.4500,-4.6500,
2.218172,-0.7620,4.8743,-0.1112,-0.1306,-0.3094,-0.2031,40.3500,15.4500,-4.6500,
2.220593,-0.6817,6.2661,-0.6480,-0.1306,-0.3094,-0.2031,40.3500,15.4500,-4.6500,
2.236603,-0.6817,6.2661,-0.6480,-0.1306,-0.3094,-0.2031,40.3500,15.4500,-4.6500,
2.239315,-0.7753,6.9657,-0.1789,-0.1306,-0.3094,-0.2031,40.3500,15.4500,-4.6500,
2.251278,-0.7753,6.9657,-0.1789,-0.1322,-0.3532,-0.2508,40.3500,15.4500,-4.6500,
2.256629,-0.7753,6.9657,-0.1789,-0.1322,-0.3532,-0.2508,40.3500,15.4500,-4.6500,
2.258478,-1.2245,6.5671,-0.5094,-0.1322,-0.3532,-0.2508,40.3500,15.4500,-4.6500,
2.275863,-1.2245,6.5671,-0.5094,-0.1322,-0.3532,-0.2508,40.3500,15.4500,-4.6500,
2.278451,-1.4026,6.2816,0.5334,-0.1322,-0.3532,-0.2508,40.3500,15.4500,-4.6500,
2.280556,-1.4026,6.2816,0.5334,-0.1322,-0.3532,-0.2508,40.0500,16.1250,-5.4750,
2.297062,-1.4026,6.2816,0.5334,-0.1322,-0.3532,-0.2508,40.0500,16.1250,-5.4750,
2.299733,-0.9190,7.4606,-0.5324,-0.1322,-0.3532,-0.2508,40.0500,16.1250,-5.4750,
2.318156,-0.9190,7.4606,-0.5324,-0.1322,-0.3532,-0.2508,40.0500,16.1250,-5.4750,
2.320845,-0.8268,9.5002,-2.0167,-0.1322,-0.3532,-0.2508,40.0500,16.1250,-5.4750,
2.322463,-0.8268,9.5002,-2.0167,-0.6605,-0.3383,-0.3696,40.0500,16.1250,-5.4750,
2.334309,-0.8268,9.5002,-2.0167,-0.6605,-0.3383,-0.3696,40.0500,16.1250,-5.4750,
2.336664,-1.4259,9.3721,-1.6752,-0.6605,-0.3383,-0.3696,40.0500,16.1250,-5.4750,
2.348825,-1.4259,9.3721,-1.6752,-0.6605,-0.3383,-0.3696,39.5250,16.9500,-5.7750,
2.353650,-1.4259,9.3721,-1.6752,-0.6605,-0.3383,-0.3696,39.5250,16.9500,-5.7750,
2.355187,-1.4082,8.7496,-0.9934,-0.6605,-0.3383,-0.3696,39.5250,16.9500,-5.7750,
2.369660,-1.4082,8.7496,-0.9934,-0.6605,-0.3383,-0.3696,39.5250,16.9500,-5.7750,
2.372830,-0.6598,8.1966,-1.4390,-0.6605,-0.3383,-0.3696,39.5250,16.9500,-5.7750,
2.388702,-0.6598,8.1966,-1.4390,-1.3613,-0.3254,-0.6799,39.5250,16.9500,-5.7750,
2.393019,-0.6598,8.1966,-1.4390,-1.3613,-0.3254,-0.6799,39.5250,16.9500,-5.7750,
2.394665,-0.4584,6.0150,-1.8187,-1.3613,-0.3254,-0.6799,39.5250,16.9500,-5.7750,
2.413010,-0.4584,6.0150,-1.8187,-1.3613,-0.3254,-0.6799,39.5250,16.9500,-5.7750,
2.415904,-0.2833,3.6405,-1.0984,-1.3613,-0.3254,-0.6799,39.5250,16.9500,-5.7750,
2.418426,-0.2833,3.6405,-1.0984,-1.3613,-0.3254,-0.6799,39.2250,19.6500,-4.5750,
2.433746,-0.2833,3.6405,-1.0984,-1.3613,-0.3254,-0.6799,39.2250,19.6500,-4.5750,
2.436096,-2.6007,3.2686,-2.5649,-1.3613,-0.3254,-0.6799,39.2250,19.6500,-4.5750,
2.452103,-2.6007,3.2686,-2.5649,-1.3613,-0.3254,-0.6799,39.2250,19.6500,-4.5750,
2.454980,-4.5451,2.6963,-4.5703,-1.3613,-0.3254,-0.6799,39.2250,19.6500,-4.5750,
2.457164,-4.5451,2.6963,-4.5703,-0.5340,-0.5398,-1.1705,39.2250,19.6500,-4.5750,
2.470448,-4.5451,2.6963,-4.5703,-0.5340,-0.5398,-1.1705,39.2250,19.6500,-4.5750,
2.473187,-1.7359,1.8572,-6.7990,-0.5340,-0.5398,-1.1705,39.2250,19.6500,-4.5750,
2.488871,-1.7359,1.8572,-6.7990,-0.5340,-0.5398,-1.1705,38.2500,21.7500,-3.3750,
2.496735,-1.7359,1.8572,-6.7990,-0.5340,-0.5398,-1.1705,38.2500,21.7500,-3.3750,
2.498776,-0.9939,3.1354,-5.1615,-0.5340,-0.5398,-1.1705,38.2500,21.7500,-3.3750,
2.517613,-0.9939,3.1354,-5.1615,-0.5340,-0.5398,-1.1705,38.2500,21.7500,-3.3750,
2.520301,-2.9901,4.1215,-4.4626,-0.5340,-0.5398,-1.1705,38.2500,21.7500,-3.3750,
2.534278,-2.9901,4.1215,-4.4626,1.0644,-0.0513,-1.5207,38.2500,21.7500,-3.3750,
2.540314,-2.9901,4.1215,-4.4626,1.0644,-0.0513,-1.5207,38.2500,21.7500,-3.3750,
2.542319,-5.7159,1.4901,-1.2140,1.0644,-0.0513,-1.5207,38.2500,21.7500,-3.3750,
2.554628,-5.7159,1.4901,-1.2140,1.0644,-0.0513,-1.5207,38.2500,21.7500,-3.3750,
2.556923,-3.8161,-3.7252,2.9066,1.0644,-0.0513,-1.5207,38.2500,21.7500,-3.3750,
2.558860,-3.8161,-3.7252,2.9066,1.0644,-0.0513,-1.5207,36.1500,24.4500,-3.4500,
2.570165,-3.8161,-3.7252,2.9066,1.0644,-0.0513,-1.5207,36.1500,24.4500,-3.4500,
2.572744,-0.0692,-15.0691,4.4760,1.0644,-0.0513,-1.5207,36.1500,24.4500,-3.4500,
2.593829,-0.0692,-15.0691,4.4760,1.0644,-0.0513,-1.5207,36.1500,24.4500,-3.4500,
2.597098,18.6501,-0.8838,-3.1229,1.0644,-0.0513,-1.5207,36.1500,24.4500,-3.4500,
2.599255,18.6501,-0.8838,-3.1229,2.8155,1.0743,1.8324,36.1500,24.4500,-3.4500,
2.613360,18.6501,-0.8838,-3.1229,2.8155,1.0743,1.8324,36.1500,24.4500,-3.4500,
2.615527,16.4489,-34.3157,-32.0145,2.8155,1.0743,1.8324,36.1500,24.4500,-3.4500,
2.634074,16.4489,-34.3157,-32.0145,2.8155,1.0743,1.8324,36.9000,21.7500,-4.9500,
2.635169,16.4489,-34.3157,-32.0145,2.8155,1.0743,1.8324,36.9000,21.7500,-4.9500,
2.635767,7.8114,-29.4183,30.4490,2.8155,1.0743,1.8324,36.9000,21.7500,-4.9500,
2.652641,7.8114,-29.4183,30.4490,2.8155,1.0743,1.8324,36.9000,21.7500,-4.9500,
2.653719,6.3525,-3.5902,41.1882,2.8155,1.0743,1.8324,36.9000,21.7500,-4.9500,
2.667666,6.3525,-3.5902,41.1882,6.2323,2.5767,-1.5644,36.9000,21.7500,-4.9500,
2.669842,6.3525,-3.5902,41.1882,6.2323,2.5767,-1.5644,36.9000,21.7500,-4.9500,
2.670391,20.5448,-8.5898,-13.1641,6.2323,2.5767,-1.5644,36.9000,21.7500,-4.9500,
2.692720,20.5448,-8.5898,-13.1641,6.2323,2.5767,-1.5644,36.9000,21.7500,-4.9500,
2.693703,-4.8873,20.8081,-25.2574,6.2323,2.5767,-1.5644,36.9000,21.7500,-4.9500,
2.699727,-4.8873,20.8081,-25.2574,6.2323,2.5767,-1.5644,37.7250,20.3250,-4.9500,
2.711746,-4.8873,20.8081,-25.2574,6.2323,2.5767,-1.5644,37.7250,20.3250,-4.9500,
2.713269,-7.8554,30.4839,-0.4681,6.2323,2.5767,-1.5644,37.7250,20.3250,-4.9500,
2.736343,-7.8554,30.4839,-0.4681,6.2323,2.5767,-1.5644,37.7250,20.3250,-4.9500,
2.737898,-7.2590,8.4652,-3.3950,6.2323,2.5767,-1.5644,37.7250,20.3250,-4.9500,
2.741613,-7.2590,8.4652,-3.3950,4.7214,3.0361,0.2065,37.7250,20.3250,-4.9500,
2.756765,-7.2590,8.4652,-3.3950,4.7214,3.0361,0.2065,37.7250,20.3250,-4.9500,
2.758239,-5.4850,-5.2836,-2.4067,4.7214,3.0361,0.2065,37.7250,20.3250,-4.9500,
2.769169,-5.4850,-5.2836,-2.4067,4.7214,3.0361,0.2065,39.1500,16.6500,-5.8500,
2.770605,-5.4850,-5.2836,-2.4067,4.7214,3.0361,0.2065,39.1500,16.6500,-5.8500,
2.771852,-7.4147,-3.0923,3.0083,4.7214,3.0361,0.2065,39.1500,16.6500,-5.8500,
2.796063,-7.4147,-3.0923,3.0083,4.7214,3.0361,0.2065,39.1500,16.6500,-5.8500,
2.798693,-5.9468,2.0831,3.9127,4.7214,3.0361,0.2065,39.1500,16.6500,-5.8500,
2.808519,-5.9468,2.0831,3.9127,4.5574,0.0753,0.0447,39.1500,16.6500,-5.8500,
2.817332,-5.9468,2.0831,3.9127,4.5574,0.0753,0.0447,39.1500,16.6500,-5.8500,
2.819453,-2.3853,3.1571,13.3942,4.5574,0.0753,0.0447,39.1500,16.6500,-5.8500,
2.833611,-2.3853,3.1571,13.3942,4.5574,0.0753,0.0447,39.1500,16.6500,-5.8500,
2.835952,0.8045,-2.6965,26.0774,4.5574,0.0753,0.0447,39.1500,16.6500,-5.8500,
2.838612,0.8045,-2.6965,26.0774,4.5574,0.0753,0.0447,39.3000,14.8500,-7.0500,
2.855744,0.8045,-2.6965,26.0774,4.5574,0.0753,0.0447,39.3000,14.8500,-7.0500,
2.857673,4.4894,-2.3162,21.9958,4.5574,0.0753,0.0447,39.3000,14.8500,-7.0500,
2.869382,4.4894,-2.3162,21.9958,4.5574,0.0753,0.0447,39.3000,14.8500,-7.0500,
2.871241,-1.6219,15.0110,4.3208,4.5574,0.0753,0.0447,39.3000,14.8500,-7.0500,
2.876783,-1.6219,15.0110,4.3208,3.8712,-0.1251,0.8245,39.3000,14.8500,-7.0500,
2.892111,-1.6219,15.0110,4.3208,3.8712,-0.1251,0.8245,39.3000,14.8500,-7.0500,
2.893963,1.5843,25.4751,-1.6102,3.8712,-0.1251,0.8245,39.3000,14.8500,-7.0500,
2.908862,1.5843,25.4751,-1.6102,3.8712,-0.1251,0.8245,39.1500,10.0500,-11.7750,
2.911871,1.5843,25.4751,-1.6102,3.8712,-0.1251,0.8245,39.1500,10.0500,-11.7750,
2.913560,0.0255,10.3412,-1.0400,3.8712,-0.1251,0.8245,39.1500,10.0500,-11.7750,
2.930874,0.0255,10.3412,-1.0400,3.8712,-0.1251,0.8245,39.1500,10.0500,-11.7750,
2.934043,-4.4515,2.2068,-3.8083,3.8712,-0.1251,0.8245,39.1500,10.0500,-11.7750,
2.951165,-4.4515,2.2068,-3.8083,-0.2115,0.0140,0.4407,39.1500,10.0500,-11.7750,
2.953598,-4.4515,2.2068,-3.8083,-0.2115,0.0140,0.4407,39.1500,10.0500,-11.7750,
2.955383,-3.4859,0.2523,-5.3083,-0.2115,0.0140,0.4407,39.1500,10.0500,-11.7750,
2.970016,-3.4859,0.2523,-5.3083,-0.2115,0.0140,0.4407,39.1500,10.0500,-11.7750,
2.972005,-2.2225,2.2082,-4.5980,-0.2115,0.0140,0.4407,39.1500,10.0500,-11.7750,
2.979446,-2.2225,2.2082,-4.5980,-0.2115,0.0140,0.4407,39.3000,7.7250,-12.1500,
2.989559,-2.2225,2.2082,-4.5980,-0.2115,0.0140,0.4407,39.3000,7.7250,-12.1500,
2.991883,-2.2942,1.3883,-1.8304,-0.2115,0.0140,0.4407,39.3000,7.7250,-12.1500,
3.014429,-2.2942,1.3883,-1.8304,-0.2115,0.0140,0.4407,39.3000,7.7250,-12.1500,
3.017093,0.1583,1.3940,0.3253,-0.2115,0.0140,0.4407,39.3000,7.7250,-12.1500,
3.019943,0.1583,1.3940,0.3253,-0.1553,-0.2924,0.3535,39.3000,7.7250,-12.1500,
3.035517,0.1583,1.3940,0.3253,-0.1553,-0.2924,0.3535,39.3000,7.7250,-12.1500,
3.037111,0.9900,-0.2688,2.7457,-0.1553,-0.2924,0.3535,39.3000,7.7250,-12.1500,
3.044211,0.9900,-0.2688,2.7457,-0.1553,-0.2924,0.3535,39.1500,7.4250,-13.0500,
3.053337,0.9900,-0.2688,2.7457,-0.1553,-0.2924,0.3535,39.1500,7.4250,-13.0500,
3.055533,1.5236,0.5185,3.0584,-0.1553,-0.2924,0.3535,39.1500,7.4250,-13.0500,
3.069398,1.5236,0.5185,3.0584,-0.1553,-0.2924,0.3535,39.1500,7.4250,-13.0500,
3.070985,2.6416,2.9453,1.7628,-0.1553,-0.2924,0.3535,39.1500,7.4250,-13.0500,
3.087997,2.6416,2.9453,1.7628,0.4111,-0.4645,0.0643,39.1500,7.4250,-13.0500,
3.093069,2.6416,2.9453,1.7628,0.4111,-0.4645,0.0643,39.1500,7.4250,-13.0500,
3.094194,1.8130,4.4833,-0.2594,0.4111,-0.4645,0.0643,39.1500,7.4250,-13.0500,
3.113718,1.8130,4.4833,-0.2594,0.4111,-0.4645,0.0643,39.1500,7.4250,-13.0500,
3.115386,-0.1589,4.1383,-2.3301,0.4111,-0.4645,0.0643,39.1500,7.4250,-13.0500,
3.116965,-0.1589,4.1383,-2.3301,0.4111,-0.4645,0.0643,39.0000,6.8250,-14.7000,
3.133516,-0.1589,4.1383,-2.3301,0.4111,-0.4645,0.0643,39.0000,6.8250,-14.7000,
3.135241,0.1491,4.3222,-1.8355,0.4111,-0.4645,0.0643,39.0000,6.8250,-14.7000,
3.151262,0.1491,4.3222,-1.8355,0.4111,-0.4645,0.0643,39.0000,6.8250,-14.7000,
3.152906,0.9239,2.4535,-0.2190,0.4111,-0.4645,0.0643,39.0000,6.8250,-14.7000,
3.156703,0.9239,2.4535,-0.2190,0.0069,-0.2395,0.0783,39.0000,6.8250,-14.7000,
3.170432,0.9239,2.4535,-0.2190,0.0069,-0.2395,0.0783,39.0000,6.8250,-14.7000,
3.173568,1.0200,-0.1764,0.8401,0.0069,-0.2395,0.0783,39.0000,6.8250,-14.7000,
3.185962,1.0200,-0.1764,0.8401,0.0069,-0.2395,0.0783,38.8500,6.4500,-16.0500,
3.191507,1.0200,-0.1764,0.8401,0.0069,-0.2395,0.0783,38.8500,6.4500,-16.0500,
3.194241,1.2465,1.1694,0.6328,0.0069,-0.2395,0.0783,38.8500,6.4500,-16.0500,
3.210099,1.2465,1.1694,0.6328,0.0069,-0.2395,0.0783,38.8500,6.4500,-16.0500,
3.212910,1.6825,1.7360,0.7360,0.0069,-0.2395,0.0783,38.8500,6.4500,-16.0500,
3.224524,1.6825,1.7360,0.7360,-0.1490,0.0435,0.0418,38.8500,6.4500,-16.0500,
3.234237,1.6825,1.7360,0.7360,-0.1490,0.0435,0.0418,38.8500,6.4500,-16.0500,
3.236303,1.3200,0.8220,0.2157,-0.1490,0.0435,0.0418,38.8500,6.4500,-16.0500,
3.253888,1.3200,0.8220,0.2157,-0.1490,0.0435,0.0418,38.8500,6.4500,-16.0500,
3.256323,0.2897,-0.2822,-0.1739,-0.1490,0.0435,0.0418,38.8500,6.4500,-16.0500,
3.259322,0.2897,-0.2822,-0.1739,-0.1490,0.0435,0.0418,38.5500,6.4500,-16.0500,
3.270100,0.2897,-0.2822,-0.1739,-0.1490,0.0435,0.0418,38.5500,6.4500,-16.0500,
3.272249,-0.0023,-0.1081,-0.3916,-0.1490,0.0435,0.0418,38.5500,6.4500,-16.0500,
3.292843,-0.0023,-0.1081,-0.3916,-0.1490,0.0435,0.0418,38.5500,6.4500,-16.0500,
3.295563,0.1928,0.5041,-0.3373,-0.1490,0.0435,0.0418,38.5500,6.4500,-16.0500,
3.297518,0.1928,0.5041,-0.3373,-0.0988,0.1976,0.0507,38.5500,6.4500,-16.0500,
3.313541,0.1928,0.5041,-0.3373,-0.0988,0.1976,0.0507,38.5500,6.4500,-16.0500,
3.315615,0.1019,-0.0548,0.3236,-0.0988,0.1976,0.0507,38.5500,6.4500,-16.0500,
3.322201,0.1019,-0.0548,0.3236,-0.0988,0.1976,0.0507,38.5500,6.1500,-15.4500,
3.334402,0.1019,-0.0548,0.3236,-0.0988,0.1976,0.0507,38.5500,6.1500,-15.4500,
3.335760,0.2916,-0.2825,0.4541,-0.0988,0.1976,0.0507,38.5500,6.1500,-15.4500,
3.352093,0.2916,-0.2825,0.4541,-0.0988,0.1976,0.0507,38.5500,6.1500,-15.4500,
3.353710,0.1004,-0.7187,0.3635,-0.0988,0.1976,0.0507,38.5500,6.1500,-15.4500,
3.366401,0.1004,-0.7187,0.3635,-0.1141,0.1232,0.0148,38.5500,6.1500,-15.4500,
3.373114,0.1004,-0.7187,0.3635,-0.1141,0.1232,0.0148,38.5500,6.1500,-15.4500,
3.374472,0.1549,-0.7365,-0.0380,-0.1141,0.1232,0.0148,38.5500,6.1500,-15.4500,
3.391382,0.1549,-0.7365,-0.0380,-0.1141,0.1232,0.0148,38.5500,6.1500,-15.4500,
3.393143,0.0460,-0.8217,0.3017,-0.1141,0.1232,0.0148,38.5500,6.1500,-15.4500,
3.394437,0.0460,-0.8217,0.3017,-0.1141,0.1232,0.0148,39.1500,6.3000,-15.0750,
3.411800,0.0460,-0.8217,0.3017,-0.1141,0.1232,0.0148,39.1500,6.3000,-15.0750,
3.416104,-0.2952,-0.7881,0.0773,-0.1141,0.1232,0.0148,39.1500,6.3000,-15.0750,
3.436994,-0.2952,-0.7881,0.0773,-0.1141,0.1232,0.0148,39.1500,6.3000,-15.0750,
3.439855,-0.5548,-0.6582,-0.1109,-0.1141,0.1232,0.0148,39.1500,6.3000,-15.0750,
3.442084,-0.5548,-0.6582,-0.1109,0.0092,0.1892,-0.0250,39.1500,6.3000,-15.0750,
3.455426,-0.5548,-0.6582,-0.1109,0.0092,0.1892,-0.0250,39.1500,6.3000,-15.0750,
3.458540,-0.5888,-0.4975,-0.1444,0.0092,0.1892,-0.0250,39.1500,6.3000,-15.0750,
3.461060,-0.5888,-0.4975,-0.1444,0.0092,0.1892,-0.0250,39.6000,6.1500,-14.4000,
3.468655,-0.5888,-0.4975,-0.1444,0.0092,0.1892,-0.0250,39.6000,6.1500,-14.4000,
3.470534,-0.9728,-0.0744,-0.5884,0.0092,0.1892,-0.0250,39.6000,6.1500,-14.4000,
3.488416,-0.9728,-0.0744,-0.5884,0.0092,0.1892,-0.0250,39.6000,6.1500,-14.4000,
3.491816,-1.0425,-0.1267,0.2972,0.0092,0.1892,-0.0250,39.6000,6.1500,-14.4000,
3.507966,-1.0425,-0.1267,0.2972,0.0614,0.0874,-0.0415,39.6000,6.1500,-14.4000,
3.516653,-1.0425,-0.1267,0.2972,0.0614,0.0874,-0.0415,39.6000,6.1500,-14.4000,
3.519240,-0.2992,0.3836,0.0299,0.0614,0.0874,-0.0415,39.6000,6.1500,-14.4000,
3.533775,-0.2992,0.3836,0.0299,0.0614,0.0874,-0.0415,39.6000,6.1500,-14.4000,
3.536180,-0.1512,0.9197,0.0818,0.0614,0.0874,-0.0415,39.6000,6.1500,-14.4000,
3.538496,-0.1512,0.9197,0.0818,0.0614,0.0874,-0.0415,39.6000,6.0000,-14.1000,
3.552261,-0.1512,0.9197,0.0818,0.0614,0.0874,-0.0415,39.6000,6.0000,-14.1000,
3.554349,-0.4008,0.9731,0.3064,0.0614,0.0874,-0.0415,39.6000,6.0000,-14.1000,
3.569706,-0.4008,0.9731,0.3064,0.0614,0.0874,-0.0415,39.6000,6.0000,-14.1000,
3.572171,-0.2242,0.5910,0.3840,0.0614,0.0874,-0.0415,39.6000,6.0000,-14.1000,
3.576451,-0.2242,0.5910,0.3840,-0.0292,-0.0481,-0.0571,39.6000,6.0000,-14.1000,
3.591142,-0.2242,0.5910,0.3840,-0.0292,-0.0481,-0.0571,39.6000,6.0000,-14.1000,
3.593164,0.1027,0.1757,0.2649,-0.0292,-0.0481,-0.0571,39.6000,6.0000,-14.1000,
3.601048,0.1027,0.1757,0.2649,-0.0292,-0.0481,-0.0571,39.6000,6.7500,-13.8750,
3.610367,0.1027,0.1757,0.2649,-0.0292,-0.0481,-0.0571,39.6000,6.7500,-13.8750,
3.612581,-0.1679,0.6967,-0.2301,-0.0292,-0.0481,-0.0571,39.6000,6.7500,-13.8750,
3.629916,-0.1679,0.6967,-0.2301,-0.0292,-0.0481,-0.0571,39.6000,6.7500,-13.8750,
3.632186,-0.1703,0.8100,0.0898,-0.0292,-0.0481,-0.0571,39.6000,6.7500,-13.8750,
3.651531,-0.1703,0.8100,0.0898,-0.1138,-0.1142,-0.0724,39.6000,6.7500,-13.8750,
3.654979,-0.1703,0.8100,0.0898,-0.1138,-0.1142,-0.0724,39.6000,6.7500,-13.8750,
3.656525,0.1753,0.6881,-0.0514,-0.1138,-0.1142,-0.0724,39.6000,6.7500,-13.8750,
3.668926,0.1753,0.6881,-0.0514,-0.1138,-0.1142,-0.0724,39.6000,6.7500,-13.8750,
3.670605,-0.0117,0.8510,-0.3734,-0.1138,-0.1142,-0.0724,39.6000,6.7500,-13.8750,
3.672033,-0.0117,0.8510,-0.3734,-0.1138,-0.1142,-0.0724,38.9250,6.2250,-13.6500,
3.688469,-0.0117,0.8510,-0.3734,-0.1138,-0.1142,-0.0724,38.9250,6.2250,-13.6500,
3.690630,-0.2478,0.7140,0.4760,-0.1138,-0.1142,-0.0724,38.9250,6.2250,-13.6500,
3.708461,-0.2478,0.7140,0.4760,-0.1138,-0.1142,-0.0724,38.9250,6.2250,-13.6500,
3.711150,-0.0264,0.6845,0.3181,-0.1138,-0.1142,-0.0724,38.9250,6.2250,-13.6500,
3.713579,-0.0264,0.6845,0.3181,-0.2482,-0.1122,-0.0183,38.9250,6.2250,-13.6500,
3.727846,-0.0264,0.6845,0.3181,-0.2482,-0.1122,-0.0183,38.9250,6.2250,-13.6500,
3.730219,-0.1125,0.6579,0.1691,-0.2482,-0.1122,-0.0183,38.9250,6.2250,-13.6500,
3.738701,-0.1125,0.6579,0.1691,-0.2482,-0.1122,-0.0183,39.1500,6.7500,-14.1750,
3.753251,-0.1125,0.6579,0.1691,-0.2482,-0.1122,-0.0183,39.1500,6.7500,-14.1750,
3.756725,-0.2129,1.3678,-0.6805,-0.2482,-0.1122,-0.0183,39.1500,6.7500,-14.1750,
3.767505,-0.2129,1.3678,-0.6805,-0.2482,-0.1122,-0.0183,39.1500,6.7500,-14.1750,
3.770246,-0.3296,1.1337,0.2059,-0.2482,-0.1122,-0.0183,39.1500,6.7500,-14.1750,
3.788494,-0.3296,1.1337,0.2059,-0.4184,-0.1106,0.0183,39.1500,6.7500,-14.1750,
3.790649,-0.3296,1.1337,0.2059,-0.4184,-0.1106,0.0183,39.1500,6.7500,-14.1750,
3.791909,0.1039,0.4389,0.6256,-0.4184,-0.1106,0.0183,39.1500,6.7500,-14.1750,
3.806003,0.1039,0.4389,0.6256,-0.4184,-0.1106,0.0183,39.1500,6.7500,-14.1750,
3.807630,-0.0938,0.7285,0.5965,-0.4184,-0.1106,0.0183,39.1500,6.7500,-14.1750,
3.809017,-0.0938,0.7285,0.5965,-0.4184,-0.1106,0.0183,38.2500,7.6500,-14.5500,
3.830667,-0.0938,0.7285,0.5965,-0.4184,-0.1106,0.0183,38.2500,7.6500,-14.5500,
3.833530,-0.2235,0.2682,0.9609,-0.4184,-0.1106,0.0183,38.2500,7.6500,-14.5500,
3.851046,-0.2235,0.2682,0.9609,-0.4184,-0.1106,0.0183,38.2500,7.6500,-14.5500,
3.853660,0.1001,0.3085,0.4217,-0.4184,-0.1106,0.0183,38.2500,7.6500,-14.5500,
3.855804,0.1001,0.3085,0.4217,-0.5574,-0.0237,0.0611,38.2500,7.6500,-14.5500,
3.869677,0.1001,0.3085,0.4217,-0.5574,-0.0237,0.0611,38.2500,7.6500,-14.5500,
3.871316,0.2969,0.5343,0.2975,-0.5574,-0.0237,0.0611,38.2500,7.6500,-14.5500,
3.888603,0.2969,0.5343,0.2975,-0.5574,-0.0237,0.0611,38.9250,7.0500,-14.4750,
3.891220,0.2969,0.5343,0.2975,-0.5574,-0.0237,0.0611,38.9250,7.0500,-14.4750,
3.892569,0.4605,0.3104,0.3845,-0.5574,-0.0237,0.0611,38.9250,7.0500,-14.4750,
3.908993,0.4605,0.3104,0.3845,-0.5574,-0.0237,0.0611,38.9250,7.0500,-14.4750,
3.911336,0.4139,0.7861,-0.3339,-0.5574,-0.0237,0.0611,38.9250,7.0500,-14.4750,
3.923837,0.4139,0.7861,-0.3339,-0.5725,-0.0577,0.0478,38.9250,7.0500,-14.4750,
3.932320,0.4139,0.7861,-0.3339,-0.5725,-0.0577,0.0478,38.9250,7.0500,-14.4750,
3.934460,-0.2475,0.5634,0.0370,-0.5725,-0.0577,0.0478,38.9250,7.0500,-14.4750,
3.951113,-0.2475,0.5634,0.0370,-0.5725,-0.0577,0.0478,38.9250,7.0500,-14.4750,
3.953501,-0.0523,-0.1904,0.2851,-0.5725,-0.0577,0.0478,38.9250,7.0500,-14.4750,
3.955877,-0.0523,-0.1904,0.2851,-0.5725,-0.0577,0.0478,38.5500,8.0250,-13.9500,
3.967677,-0.0523,-0.1904,0.2851,-0.5725,-0.0577,0.0478,38.5500,8.0250,-13.9500,
3.970048,-0.0952,0.6265,-0.2859,-0.5725,-0.0577,0.0478,38.5500,8.0250,-13.9500,
3.987729,-0.0952,0.6265,-0.2859,-0.5725,-0.0577,0.0478,38.5500,8.0250,-13.9500,
3.990199,-0.2172,-0.0935,0.6980,-0.5725,-0.0577,0.0478,38.5500,8.0250,-13.9500,
3.992605,-0.2172,-0.0935,0.6980,-0.7286,-0.0337,0.0469,38.5500,8.0250,-13.9500,
4.006333,-0.2172,-0.0935,0.6980,-0.7286,-0.0337,0.0469,38.5500,8.0250,-13.9500,
4.008742,0.1223,-0.2147,0.6124,-0.7286,-0.0337,0.0469,38.5500,8.0250,-13.9500,
4.023858,0.1223,-0.2147,0.6124,-0.7286,-0.0337,0.0469,38.5500,8.6250,-14.1000,
4.026562,0.1223,-0.2147,0.6124,-0.7286,-0.0337,0.0469,38.5500,8.6250,-14.1000,
4.028079,-0.2086,0.4837,-0.1232,-0.7286,-0.0337,0.0469,38.5500,8.6250,-14.1000,
4.046019,-0.2086,0.4837,-0.1232,-0.7286,-0.0337,0.0469,38.5500,8.6250,-14.1000,
4.048476,-0.0183,-0.4269,0.4106,-0.7286,-0.0337,0.0469,38.5500,8.6250,-14.1000,
4.068033,-0.0183,-0.4269,0.4106,-0.7487,-0.0806,0.0027,38.5500,8.6250,-14.1000,
4.072307,-0.0183,-0.4269,0.4106,-0.7487,-0.0806,0.0027,38.5500,8.6250,-14.1000,
4.073978,0.2817,-0.0726,0.6562,-0.7487,-0.0806,0.0027,38.5500,8.6250,-14.1000,
4.090210,0.2817,-0.0726,0.6562,-0.7487,-0.0806,0.0027,38.5500,8.6250,-14.1000,
4.092374,0.1717,-0.5138,0.7035,-0.7487,-0.0806,0.0027,38.5500,8.6250,-14.1000,
4.094312,0.1717,-0.5138,0.7035,-0.7487,-0.0806,0.0027,38.6250,8.8500,-13.9500,
4.109685,0.1717,-0.5138,0.7035,-0.7487,-0.0806,0.0027,38.6250,8.8500,-13.9500,
4.112590,-0.0989,-0.4620,-0.0258,-0.7487,-0.0806,0.0027,38.6250,8.8500,-13.9500,
4.138088,-0.0989,-0.4620,-0.0258,-0.7487,-0.0806,0.0027,38.6250,8.8500,-13.9500,
4.142444,-0.0894,0.6977,-0.2772,-0.7487,-0.0806,0.0027,38.6250,8.8500,-13.9500,
4.145810,-0.0894,0.6977,-0.2772,-0.6696,-0.0183,-0.0878,38.6250,8.8500,-13.9500,
4.148622,-0.0894,0.6977,-0.2772,-0.6696,-0.0183,-0.0878,38.6250,8.8500,-13.9500,
4.151268,-0.3220,0.0834,-0.3012,-0.6696,-0.0183,-0.0878,38.6250,8.8500,-13.9500,
4.160719,-0.3220,0.0834,-0.3012,-0.6696,-0.0183,-0.0878,38.9250,9.3000,-13.2750,
4.169954,-0.3220,0.0834,-0.3012,-0.6696,-0.0183,-0.0878,38.9250,9.3000,-13.2750,
4.172827,0.0870,-0.6038,0.2133,-0.6696,-0.0183,-0.0878,38.9250,9.3000,-13.2750,
4.188259,0.0870,-0.6038,0.2133,-0.6696,-0.0183,-0.0878,38.9250,9.3000,-13.2750,
4.190059,0.2844,-0.2543,0.2637,-0.6696,-0.0183,-0.0878,38.9250,9.3000,-13.2750,
4.202096,0.2844,-0.2543,0.2637,-0.5470,-0.0411,-0.1086,38.9250,9.3000,-13.2750,
4.207317,0.2844,-0.2543,0.2637,-0.5470,-0.0411,-0.1086,38.9250,9.3000,-13.2750,
4.209244,-0.4698,0.2894,0.7127,-0.5470,-0.0411,-0.1086,38.9250,9.3000,-13.2750,
4.226779,-0.4698,0.2894,0.7127,-0.5470,-0.0411,-0.1086,38.9250,9.3000,-13.2750,
4.228893,-0.8522,0.9259,-0.7519,-0.5470,-0.0411,-0.1086,38.9250,9.3000,-13.2750,
4.230691,-0.8522,0.9259,-0.7519,-0.5470,-0.0411,-0.1086,38.3250,10.5000,-12.3750,
4.246454,-0.8522,0.9259,-0.7519,-0.5470,-0.0411,-0.1086,38.3250,10.5000,-12.3750,
4.249021,0.1580,0.2799,-0.4052,-0.5470,-0.0411,-0.1086,38.3250,10.5000,-12.3750,
4.269028,0.1580,0.2799,-0.4052,-0.5470,-0.0411,-0.1086,38.3250,10.5000,-12.3750,
4.271632,0.3408,-0.4800,0.8362,-0.5470,-0.0411,-0.1086,38.3250,10.5000,-12.3750,
4.273587,0.3408,-0.4800,0.8362,-0.5197,-0.1263,0.0254,38.3250,10.5000,-12.3750,
4.285588,0.3408,-0.4800,0.8362,-0.5197,-0.1263,0.0254,38.3250,10.5000,-12.3750,
4.287811,0.2378,-0.9668,1.9674,-0.5197,-0.1263,0.0254,38.3250,10.5000,-12.3750,
4.298248,0.2378,-0.9668,1.9674,-0.5197,-0.1263,0.0254,38.8500,11.1000,-11.8500,
4.305109,0.2378,-0.9668,1.9674,-0.5197,-0.1263,0.0254,38.8500,11.1000,-11.8500,
4.307461,0.2631,-0.4041,0.9450,-0.5197,-0.1263,0.0254,38.8500,11.1000,-11.8500,
4.320498,0.2631,-0.4041,0.9450,-0.5197,-0.1263,0.0254,38.8500,11.1000,-11.8500,
4.323415,0.1396,0.1855,0.1611,-0.5197,-0.1263,0.0254,38.8500,11.1000,-11.8500,
4.344470,0.1396,0.1855,0.1611,-0.6319,-0.0597,0.0649,38.8500,11.1000,-11.8500,
4.349306,0.1396,0.1855,0.1611,-0.6319,-0.0597,0.0649,38.8500,11.1000,-11.8500,
4.351307,0.1806,0.0062,0.5538,-0.6319,-0.0597,0.0649,38.8500,11.1000,-11.8500,
4.369496,0.1806,0.0062,0.5538,-0.6319,-0.0597,0.0649,38.8500,11.1000,-11.8500,
4.373344,0.2004,0.2150,0.5171,-0.6319,-0.0597,0.0649,38.8500,11.1000,-11.8500,
4.376462,0.2004,0.2150,0.5171,-0.6319,-0.0597,0.0649,38.6250,11.2500,-11.5500,
4.388464,0.2004,0.2150,0.5171,-0.6319,-0.0597,0.0649,38.6250,11.2500,-11.5500,
4.391306,0.1337,0.4884,0.4706,-0.6319,-0.0597,0.0649,38.6250,11.2500,-11.5500,
4.408168,0.1337,0.4884,0.4706,-0.6319,-0.0597,0.0649,38.6250,11.2500,-11.5500,
4.411353,0.1972,0.3852,0.1672,-0.6319,-0.0597,0.0649,38.6250,11.2500,-11.5500,
4.413085,0.1972,0.3852,0.1672,-0.6754,0.0725,0.0771,38.6250,11.2500,-11.5500,
4.427374,0.1972,0.3852,0.1672,-0.6754,0.0725,0.0771,38.6250,11.2500,-11.5500,
4.429631,-0.0887,0.3605,0.4460,-0.6754,0.0725,0.0771,38.6250,11.2500,-11.5500,
4.438444,-0.0887,0.3605,0.4460,-0.6754,0.0725,0.0771,38.9250,11.2500,-11.5500,
4.446764,-0.0887,0.3605,0.4460,-0.6754,0.0725,0.0771,38.9250,11.2500,-11.5500,
4.449103,0.1510,0.2169,0.2842,-0.6754,0.0725,0.0771,38.9250,11.2500,-11.5500,
4.468416,0.1510,0.2169,0.2842,-0.6754,0.0725,0.0771,38.9250,11.2500,-11.5500,
4.471041,-0.0636,-0.2977,0.3059,-0.6754,0.0725,0.0771,38.9250,11.2500,-11.5500,
4.485212,-0.0636,-0.2977,0.3059,-0.7228,0.0860,0.0589,38.9250,11.2500,-11.5500,
4.486337,-0.0636,-0.2977,0.3059,-0.7228,0.0860,0.0589,38.9250,11.2500,-11.5500,
4.487095,0.2162,-0.7017,0.5899,-0.7228,0.0860,0.0589,38.9250,11.2500,-11.5500,
4.506156,0.2162,-0.7017,0.5899,-0.7228,0.0860,0.0589,38.9250,11.2500,-11.5500,
4.507077,0.0452,0.3542,0.4764,-0.7228,0.0860,0.0589,38.9250,11.2500,-11.5500,
4.508926,0.0452,0.3542,0.4764,-0.7228,0.0860,0.0589,39.7500,11.6250,-10.8000,
4.521604,0.0452,0.3542,0.4764,-0.7228,0.0860,0.0589,39.7500,11.6250,-10.8000,
4.522505,-0.1985,0.7774,-0.1228,-0.7228,0.0860,0.0589,39.7500,11.6250,-10.8000,
4.542587,-0.1985,0.7774,-0.1228,-0.7228,0.0860,0.0589,39.7500,11.6250,-10.8000,
4.544459,-0.1103,0.8822,-0.9458,-0.7228,0.0860,0.0589,39.7500,11.6250,-10.8000,
4.553945,-0.1103,0.8822,-0.9458,-0.6614,0.0075,0.0415,39.7500,11.6250,-10.8000,
4.561619,-0.1103,0.8822,-0.9458,-0.6614,0.0075,0.0415,39.7500,11.6250,-10.8000,
4.563124,-0.1080,0.3536,-0.4336,-0.6614,0.0075,0.0415,39.7500,11.6250,-10.8000,
4.580850,-0.1080,0.3536,-0.4336,-0.6614,0.0075,0.0415,40.3500,12.1500,-9.9000,
4.584610,-0.1080,0.3536,-0.4336,-0.6614,0.0075,0.0415,40.3500,12.1500,-9.9000,
4.586103,-0.1545,-0.4864,0.6882,-0.6614,0.0075,0.0415,40.3500,12.1500,-9.9000,
4.604933,-0.1545,-0.4864,0.6882,-0.6614,0.0075,0.0415,40.3500,12.1500,-9.9000,
4.606542,-0.0539,-0.1837,1.0564,-0.6614,0.0075,0.0415,40.3500,12.1500,-9.9000,
4.623032,-0.0539,-0.1837,1.0564,-0.7802,0.0664,0.0006,40.3500,12.1500,-9.9000,
4.626533,-0.0539,-0.1837,1.0564,-0.7802,0.0664,0.0006,40.3500,12.1500,-9.9000,
4.628396,0.1290,0.0838,-0.5725,-0.7802,0.0664,0.0006,40.3500,12.1500,-9.9000,
4.648063,0.1290,0.0838,-0.5725,-0.7802,0.0664,0.0006,40.3500,12.1500,-9.9000,
4.651230,0.0535,0.2874,-0.6162,-0.7802,0.0664,0.0006,40.3500,12.1500,-9.9000,
4.653288,0.0535,0.2874,-0.6162,-0.7802,0.0664,0.0006,40.6500,12.7500,-9.1500,
4.667096,0.0535,0.2874,-0.6162,-0.7802,0.0664,0.0006,40.6500,12.7500,-9.1500,
4.670111,-0.1973,-0.0626,0.5837,-0.7802,0.0664,0.0006,40.6500,12.7500,-9.1500,
4.687178,-0.1973,-0.0626,0.5837,-0.7802,0.0664,0.0006,40.6500,12.7500,-9.1500,
4.689230,-0.1324,-0.0504,0.8731,-0.7802,0.0664,0.0006,40.6500,12.7500,-9.1500,
4.691157,-0.1324,-0.0504,0.8731,-0.7151,0.0710,-0.0034,40.6500,12.7500,-9.1500,
4.706219,-0.1324,-0.0504,0.8731,-0.7151,0.0710,-0.0034,40.6500,12.7500,-9.1500,
4.708503,0.1379,0.3296,-0.0206,-0.7151,0.0710,-0.0034,40.6500,12.7500,-9.1500,
4.719084,0.1379,0.3296,-0.0206,-0.7151,0.0710,-0.0034,40.6500,13.4250,-7.9500,
4.726059,0.1379,0.3296,-0.0206,-0.7151,0.0710,-0.0034,40.6500,13.4250,-7.9500,
4.727487,-0.1902,0.6159,-0.1837,-0.7151,0.0710,-0.0034,40.6500,13.4250,-7.9500,
4.746348,-0.1902,0.6159,-0.1837,-0.7151,0.0710,-0.0034,40.6500,13.4250,-7.9500,
4.748853,-0.5235,0.3642,-0.8111,-0.7151,0.0710,-0.0034,40.6500,13.4250,-7.9500,
4.759614,-0.5235,0.3642,-0.8111,-0.6544,0.0101,-0.0147,40.6500,13.4250,-7.9500,
4.768775,-0.5235,0.3642,-0.8111,-0.6544,0.0101,-0.0147,40.6500,13.4250,-7.9500,
4.770603,-0.2826,-0.1796,0.2852,-0.6544,0.0101,-0.0147,40.6500,13.4250,-7.9500,
4.784853,-0.2826,-0.1796,0.2852,-0.6544,0.0101,-0.0147,40.6500,13.4250,-7.9500,
4.787055,-0.0315,-0.4090,1.6241,-0.6544,0.0101,-0.0147,40.6500,13.4250,-7.9500,
4.788839,-0.0315,-0.4090,1.6241,-0.6544,0.0101,-0.0147,40.8000,13.5000,-7.5000,
4.804938,-0.0315,-0.4090,1.6241,-0.6544,0.0101,-0.0147,40.8000,13.5000,-7.5000,
4.807897,0.0343,0.2839,0.3092,-0.6544,0.0101,-0.0147,40.8000,13.5000,-7.5000,
4.820711,0.0343,0.2839,0.3092,-0.6544,0.0101,-0.0147,40.8000,13.5000,-7.5000,
4.822752,0.0549,0.5181,-0.8377,-0.6544,0.0101,-0.0147,40.8000,13.5000,-7.5000,
4.834243,0.0549,0.5181,-0.8377,-0.5592,-0.0631,-0.0232,40.8000,13.5000,-7.5000,
4.843106,0.0549,0.5181,-0.8377,-0.5592,-0.0631,-0.0232,40.8000,13.5000,-7.5000,
4.844717,-0.0842,0.0797,0.0999,-0.5592,-0.0631,-0.0232,40.8000,13.5000,-7.5000,
4.858283,-0.0842,0.0797,0.0999,-0.5592,-0.0631,-0.0232,40.8000,13.5000,-7.5000,
4.861022,-0.2725,-0.0197,0.6409,-0.5592,-0.0631,-0.0232,40.8000,13.5000,-7.5000,
4.863164,-0.2725,-0.0197,0.6409,-0.5592,-0.0631,-0.0232,40.6500,13.9500,-6.6000,
4.882355,-0.2725,-0.0197,0.6409,-0.5592,-0.0631,-0.0232,40.6500,13.9500,-6.6000,
4.884964,-0.0997,0.1147,1.0281,-0.5592,-0.0631,-0.0232,40.6500,13.9500,-6.6000,
4.900162,-0.0997,0.1147,1.0281,-0.7280,-0.1391,0.0105,40.6500,13.9500,-6.6000,
4.903100,-0.0997,0.1147,1.0281,-0.7280,-0.1391,0.0105,40.6500,13.9500,-6.6000,
4.904485,-0.1064,0.1208,-0.1456,-0.7280,-0.1391,0.0105,40.6500,13.9500,-6.6000,
4.920469,-0.1064,0.1208,-0.1456,-0.7280,-0.1391,0.0105,40.6500,13.9500,-6.6000,
4.922697,-0.1224,0.1382,0.1576,-0.7280,-0.1391,0.0105,40.6500,13.9500,-6.6000,
4.932636,-0.1224,0.1382,0.1576,-0.7280,-0.1391,0.0105,40.9500,14.9250,-6.4500,
4.941063,-0.1224,0.1382,0.1576,-0.7280,-0.1391,0.0105,40.9500,14.9250,-6.4500,
4.942645,0.1957,0.1542,1.0950,-0.7280,-0.1391,0.0105,40.9500,14.9250,-6.4500,
4.960621,0.1957,0.1542,1.0950,-0.7280,-0.1391,0.0105,40.9500,14.9250,-6.4500,
4.962338,0.0739,0.2437,0.4965,-0.7280,-0.1391,0.0105,40.9500,14.9250,-6.4500,
4.966154,0.0739,0.2437,0.4965,-0.9012,-0.2628,0.0805,40.9500,14.9250,-6.4500,
4.983481,0.0739,0.2437,0.4965,-0.9012,-0.2628,0.0805,40.9500,14.9250,-6.4500,
4.985555,0.0734,0.0902,-0.3302,-0.9012,-0.2628,0.0805,40.9500,14.9250,-6.4500,
5.001377,0.0734,0.0902,-0.3302,-0.9012,-0.2628,0.0805,40.3500,15.1500,-6.1500,
5.003871,0.0734,0.0902,-0.3302,-0.9012,-0.2628,0.0805,40.3500,15.1500,-6.1500,
5.005382,0.3522,0.1912,0.6481,-0.9012,-0.2628,0.0805,40.3500,15.1500,-6.1500,
5.020331,0.3522,0.1912,0.6481,-0.9012,-0.2628,0.0805,40.3500,15.1500,-6.1500,
5.022488,0.2214,0.5045,0.5419,-0.9012,-0.2628,0.0805,40.3500,15.1500,-6.1500,
5.038737,0.2214,0.5045,0.5419,-1.0885,-0.2196,0.1214,40.3500,15.1500,-6.1500,
5.043773,0.2214,0.5045,0.5419,-1.0885,-0.2196,0.1214,40.3500,15.1500,-6.1500,
5.044900,-0.0755,0.2856,-0.1104,-1.0885,-0.2196,0.1214,40.3500,15.1500,-6.1500,
5.063242,-0.0755,0.2856,-0.1104,-1.0885,-0.2196,0.1214,40.3500,15.1500,-6.1500,
5.066548,0.0168,0.0141,-0.2512,-1.0885,-0.2196,0.1214,40.3500,15.1500,-6.1500,
5.069773,0.0168,0.0141,-0.2512,-1.0885,-0.2196,0.1214,40.6500,15.5250,-6.3750,
5.084446,0.0168,0.0141,-0.2512,-1.0885,-0.2196,0.1214,40.6500,15.5250,-6.3750,
5.087270,-0.0176,0.0661,0.7682,-1.0885,-0.2196,0.1214,40.6500,15.5250,-6.3750,
5.102540,-0.0176,0.0661,0.7682,-1.0885,-0.2196,0.1214,40.6500,15.5250,-6.3750,
5.104268,0.0500,0.2937,1.6325,-1.0885,-0.2196,0.1214,40.6500,15.5250,-6.3750,
5.106544,0.0500,0.2937,1.6325,-1.1980,-0.0939,0.1315,40.6500,15.5250,-6.3750,
5.120572,0.0500,0.2937,1.6325,-1.1980,-0.0939,0.1315,40.6500,15.5250,-6.3750,
5.122781,-0.0637,0.8487,0.4034,-1.1980,-0.0939,0.1315,40.6500,15.5250,-6.3750,
5.134643,-0.0637,0.8487,0.4034,-1.1980,-0.0939,0.1315,41.0250,16.0500,-4.6500,
5.141427,-0.0637,0.8487,0.4034,-1.1980,-0.0939,0.1315,41.0250,16.0500,-4.6500,
5.143651,-0.4076,0.7529,-0.0399,-1.1980,-0.0939,0.1315,41.0250,16.0500,-4.6500,
5.161791,-0.4076,0.7529,-0.0399,-1.1980,-0.0939,0.1315,41.0250,16.0500,-4.6500,
5.165576,-0.3360,0.2234,0.6619,-1.1980,-0.0939,0.1315,41.0250,16.0500,-4.6500,
5.175515,-0.3360,0.2234,0.6619,-1.0740,-0.0812,0.1377,41.0250,16.0500,-4.6500,
5.185155,-0.3360,0.2234,0.6619,-1.0740,-0.0812,0.1377,41.0250,16.0500,-4.6500,
5.187103,-0.1586,-0.0273,1.2161,-1.0740,-0.0812,0.1377,41.0250,16.0500,-4.6500,
5.200578,-0.1586,-0.0273,1.2161,-1.0740,-0.0812,0.1377,41.0250,16.0500,-4.6500,
5.202666,-0.1723,0.3541,1.0055,-1.0740,-0.0812,0.1377,41.0250,16.0500,-4.6500,
5.204562,-0.1723,0.3541,1.0055,-1.0740,-0.0812,0.1377,40.9500,15.7500,-4.0500,
5.220631,-0.1723,0.3541,1.0055,-1.0740,-0.0812,0.1377,40.9500,15.7500,-4.0500,
5.223344,-0.4741,0.6017,0.2483,-1.0740,-0.0812,0.1377,40.9500,15.7500,-4.0500,
5.239456,-0.4741,0.6017,0.2483,-1.0740,-0.0812,0.1377,40.9500,15.7500,-4.0500,
5.242138,-0.4612,0.2674,-0.1824,-1.0740,-0.0812,0.1377,40.9500,15.7500,-4.0500,
5.244415,-0.4612,0.2674,-0.1824,-1.0830,-0.1411,0.1133,40.9500,15.7500,-4.0500,
5.263908,-0.4612,0.2674,-0.1824,-1.0830,-0.1411,0.1133,40.9500,15.7500,-4.0500,
5.266490,-0.1301,0.0643,0.5770,-1.0830,-0.1411,0.1133,40.9500,15.7500,-4.0500,
5.273754,-0.1301,0.0643,0.5770,-1.0830,-0.1411,0.1133,41.0250,15.6000,-3.9000,
5.284742,-0.1301,0.0643,0.5770,-1.0830,-0.1411,0.1133,41.0250,15.6000,-3.9000,
5.286893,-0.2454,0.0017,0.6150,-1.0830,-0.1411,0.1133,41.0250,15.6000,-3.9000,
5.302861,-0.2454,0.0017,0.6150,-1.0830,-0.1411,0.1133,41.0250,15.6000,-3.9000,
5.305537,-0.5114,0.0466,0.2170,-1.0830,-0.1411,0.1133,41.0250,15.6000,-3.9000,
5.317077,-0.5114,0.0466,0.2170,-1.4031,-0.2069,0.1156,41.0250,15.6000,-3.9000,
5.319664,-0.5114,0.0466,0.2170,-1.4031,-0.2069,0.1156,41.0250,15.6000,-3.9000,
5.320712,-0.4532,0.3870,-0.5701,-1.4031,-0.2069,0.1156,41.0250,15.6000,-3.9000,
5.342554,-0.4532,0.3870,-0.5701,-1.4031,-0.2069,0.1156,41.0250,15.6000,-3.9000,
5.346063,-0.7925,0.3649,0.2215,-1.4031,-0.2069,0.1156,41.0250,15.6000,-3.9000,
5.348104,-0.7925,0.3649,0.2215,-1.4031,-0.2069,0.1156,40.4250,15.8250,-2.5500,
5.361384,-0.7925,0.3649,0.2215,-1.4031,-0.2069,0.1156,40.4250,15.8250,-2.5500,
5.364359,-0.6603,-0.3263,0.4804,-1.4031,-0.2069,0.1156,40.4250,15.8250,-2.5500,
5.384854,-0.6603,-0.3263,0.4804,-1.4031,-0.2069,0.1156,40.4250,15.8250,-2.5500,
5.387762,-1.0443,-0.8928,0.9581,-1.4031,-0.2069,0.1156,40.4250,15.8250,-2.5500,
5.389709,-1.0443,-0.8928,0.9581,-1.5306,-0.0722,0.0402,40.4250,15.8250,-2.5500,
5.401706,-1.0443,-0.8928,0.9581,-1.5306,-0.0722,0.0402,40.4250,15.8250,-2.5500,
5.403905,-0.7709,0.0463,-0.5025,-1.5306,-0.0722,0.0402,40.4250,15.8250,-2.5500,
5.415187,-0.7709,0.0463,-0.5025,-1.5306,-0.0722,0.0402,40.7250,16.0500,-2.2500,
5.420591,-0.7709,0.0463,-0.5025,-1.5306,-0.0722,0.0402,40.7250,16.0500,-2.2500,
5.423109,-0.7046,0.3553,0.1768,-1.5306,-0.0722,0.0402,40.7250,16.0500,-2.2500,
5.439566,-0.7046,0.3553,0.1768,-1.5306,-0.0722,0.0402,40.7250,16.0500,-2.2500,
5.441037,-0.8578,0.1175,0.2498,-1.5306,-0.0722,0.0402,40.7250,16.0500,-2.2500,
5.455695,-0.8578,0.1175,0.2498,-1.5112,0.0205,0.0644,40.7250,16.0500,-2.2500,
5.459385,-0.8578,0.1175,0.2498,-1.5112,0.0205,0.0644,40.7250,16.0500,-2.2500,
5.460739,-1.0609,-0.1514,0.4537,-1.5112,0.0205,0.0644,40.7250,16.0500,-2.2500,
5.478557,-1.0609,-0.1514,0.4537,-1.5112,0.0205,0.0644,40.7250,16.0500,-2.2500,
5.482065,-1.0533,0.0506,-0.3108,-1.5112,0.0205,0.0644,40.7250,16.0500,-2.2500,
5.484591,-1.0533,0.0506,-0.3108,-1.5112,0.0205,0.0644,41.5500,15.6000,-0.3000,
5.501524,-1.0533,0.0506,-0.3108,-1.5112,0.0205,0.0644,41.5500,15.6000,-0.3000,
5.504454,-0.3686,0.9664,-0.7383,-1.5112,0.0205,0.0644,41.5500,15.6000,-0.3000,
5.516148,-0.3686,0.9664,-0.7383,-1.5112,0.0205,0.0644,41.5500,15.6000,-0.3000,
5.519722,-1.1214,1.1127,-0.4715,-1.5112,0.0205,0.0644,41.5500,15.6000,-0.3000,
5.522385,-1.1214,1.1127,-0.4715,-1.7634,-0.0079,-0.0017,41.5500,15.6000,-0.3000,
5.533760,-1.1214,1.1127,-0.4715,-1.7634,-0.0079,-0.0017,41.5500,15.6000,-0.3000,
5.536061,-0.7451,0.6054,0.0954,-1.7634,-0.0079,-0.0017,41.5500,15.6000,-0.3000,
5.550264,-0.7451,0.6054,0.0954,-1.7634,-0.0079,-0.0017,40.7250,16.0500,1.9500,
5.556837,-0.7451,0.6054,0.0954,-1.7634,-0.0079,-0.0017,40.7250,16.0500,1.9500,
5.558230,-0.8859,0.1192,1.1888,-1.7634,-0.0079,-0.0017,40.7250,16.0500,1.9500,
5.571962,-0.8859,0.1192,1.1888,-1.7634,-0.0079,-0.0017,40.7250,16.0500,1.9500,
5.574397,-0.0497,-0.0377,0.3716,-1.7634,-0.0079,-0.0017,40.7250,16.0500,1.9500,
5.592180,-0.0497,-0.0377,0.3716,-1.7634,-0.0079,-0.0017,40.7250,16.0500,1.9500,
5.593763,0.4054,0.7035,0.0703,-1.7634,-0.0079,-0.0017,40.7250,16.0500,1.9500,
5.595176,0.4054,0.7035,0.0703,-1.8738,-0.0107,-0.0324,40.7250,16.0500,1.9500,
5.616751,0.4054,0.7035,0.0703,-1.8738,-0.0107,-0.0324,40.7250,16.0500,1.9500,
5.618462,0.3688,1.0083,0.0324,-1.8738,-0.0107,-0.0324,40.7250,16.0500,1.9500,
5.619919,0.3688,1.0083,0.0324,-1.8738,-0.0107,-0.0324,41.2500,16.6500,3.9000,
5.641759,0.3688,1.0083,0.0324,-1.8738,-0.0107,-0.0324,41.2500,16.6500,3.9000,
5.643630,-0.5405,-0.0087,-0.5164,-1.8738,-0.0107,-0.0324,41.2500,16.6500,3.9000,
5.662804,-0.5405,-0.0087,-0.5164,-1.8738,-0.0107,-0.0324,41.2500,16.6500,3.9000,
5.667470,-0.7691,-0.1347,-0.2903,-1.8738,-0.0107,-0.0324,41.2500,16.6500,3.9000,
5.671057,-0.7691,-0.1347,-0.2903,-1.5398,-0.7156,-0.3723,41.2500,16.6500,3.9000,
5.680153,-0.7691,-0.1347,-0.2903,-1.5398,-0.7156,-0.3723,41.2500,16.6500,3.9000,
5.682609,-0.4961,-0.0603,-0.2327,-1.5398,-0.7156,-0.3723,41.2500,16.6500,3.9000,
5.689977,-0.4961,-0.0603,-0.2327,-1.5398,-0.7156,-0.3723,41.6250,16.6500,5.1000,
5.700204,-0.4961,-0.0603,-0.2327,-1.5398,-0.7156,-0.3723,41.6250,16.6500,5.1000,
5.704792,-0.3112,-0.2228,0.3499,-1.5398,-0.7156,-0.3723,41.6250,16.6500,5.1000,
5.718547,-0.3112,-0.2228,0.3499,-1.5398,-0.7156,-0.3723,41.6250,16.6500,5.1000,
5.720372,0.2471,0.6518,0.2708,-1.5398,-0.7156,-0.3723,41.6250,16.6500,5.1000,
5.732785,0.2471,0.6518,0.2708,-1.2113,-1.1718,-0.5450,41.6250,16.6500,5.1000,
5.737609,0.2471,0.6518,0.2708,-1.2113,-1.1718,-0.5450,41.6250,16.6500,5.1000,
5.738750,1.3706,1.1959,-0.0263,-1.2113,-1.1718,-0.5450,41.6250,16.6500,5.1000,
5.757817,1.3706,1.1959,-0.0263,-1.2113,-1.1718,-0.5450,41.6250,16.6500,5.1000,
5.760612,0.9279,0.3151,-0.7226,-1.2113,-1.1718,-0.5450,41.6250,16.6500,5.1000,
5.762131,0.9279,0.3151,-0.7226,-1.2113,-1.1718,-0.5450,39.9000,18.1500,3.7500,
5.777522,0.9279,0.3151,-0.7226,-1.2113,-1.1718,-0.5450,39.9000,18.1500,3.7500,
5.780781,1.4310,-0.4354,-1.3345,-1.2113,-1.1718,-0.5450,39.9000,18.1500,3.7500,
5.801803,1.4310,-0.4354,-1.3345,-1.2113,-1.1718,-0.5450,39.9000,18.1500,3.7500,
5.803883,1.2219,-0.5103,-1.8575,-1.2113,-1.1718,-0.5450,39.9000,18.1500,3.7500,
5.805795,1.2219,-0.5103,-1.8575,-0.7680,-1.1773,-0.7472,39.9000,18.1500,3.7500,
5.818119,1.2219,-0.5103,-1.8575,-0.7680,-1.1773,-0.7472,39.9000,18.1500,3.7500,
5.821185,1.4466,-1.5378,-1.6977,-0.7680,-1.1773,-0.7472,39.9000,18.1500,3.7500,
5.829942,1.4466,-1.5378,-1.6977,-0.7680,-1.1773,-0.7472,39.3000,19.7250,1.3500,
5.832884,1.4466,-1.5378,-1.6977,-0.7680,-1.1773,-0.7472,39.3000,19.7250,1.3500,
5.834166,1.8847,-1.9127,-1.8371,-0.7680,-1.1773,-0.7472,39.3000,19.7250,1.3500,
5.856143,1.8847,-1.9127,-1.8371,-0.7680,-1.1773,-0.7472,39.3000,19.7250,1.3500,
5.858227,1.1310,-1.8609,-1.6067,-0.7680,-1.1773,-0.7472,39.3000,19.7250,1.3500,
5.870198,1.1310,-1.8609,-1.6067,-0.6867,-0.9865,-0.8479,39.3000,19.7250,1.3500,
5.873676,1.1310,-1.8609,-1.6067,-0.6867,-0.9865,-0.8479,39.3000,19.7250,1.3500,
5.875868,1.8316,-1.3251,-0.6615,-0.6867,-0.9865,-0.8479,39.3000,19.7250,1.3500,
5.894744,1.8316,-1.3251,-0.6615,-0.6867,-0.9865,-0.8479,39.3000,19.7250,1.3500,
5.897591,3.1763,-1.4237,-0.8400,-0.6867,-0.9865,-0.8479,39.3000,19.7250,1.3500,
5.899383,3.1763,-1.4237,-0.8400,-0.6867,-0.9865,-0.8479,37.6500,22.3500,-0.7500,
5.919895,3.1763,-1.4237,-0.8400,-0.6867,-0.9865,-0.8479,37.6500,22.3500,-0.7500,
5.921805,2.5411,-0.8435,-1.3778,-0.6867,-0.9865,-0.8479,37.6500,22.3500,-0.7500,
5.939437,2.5411,-0.8435,-1.3778,-0.6867,-0.9865,-0.8479,37.6500,22.3500,-0.7500,
5.941483,2.1173,-1.2137,-0.9216,-0.6867,-0.9865,-0.8479,37.6500,22.3500,-0.7500,
5.944602,2.1173,-1.2137,-0.9216,-0.8301,-0.1547,-0.7243,37.6500,22.3500,-0.7500,
5.958611,2.1173,-1.2137,-0.9216,-0.8301,-0.1547,-0.7243,37.6500,22.3500,-0.7500,
5.961812,2.6962,-1.2285,-1.6374,-0.8301,-0.1547,-0.7243,37.6500,22.3500,-0.7500,
5.970558,2.6962,-1.2285,-1.6374,-0.8301,-0.1547,-0.7243,36.7500,24.1500,-0.6750,
5.977353,2.6962,-1.2285,-1.6374,-0.8301,-0.1547,-0.7243,36.7500,24.1500,-0.6750,
5.979310,2.1751,-1.2309,-2.7603,-0.8301,-0.1547,-0.7243,36.7500,24.1500,-0.6750,
5.997931,2.1751,-1.2309,-2.7603,-0.8301,-0.1547,-0.7243,36.7500,24.1500,-0.6750,
6.001704,2.2639,-0.9713,-2.8056,-0.8301,-0.1547,-0.7243,36.7500,24.1500,-0.6750,
6.013351,2.2639,-0.9713,-2.8056,-1.2474,0.2970,-0.7009,36.7500,24.1500,-0.6750,
6.017389,2.2639,-0.9713,-2.8056,-1.2474,0.2970,-0.7009,36.7500,24.1500,-0.6750,
6.019264,2.2524,-0.8593,-1.5876,-1.2474,0.2970,-0.7009,36.7500,24.1500,-0.6750,
6.038206,2.2524,-0.8593,-1.5876,-1.2474,0.2970,-0.7009,36.7500,24.1500,-0.6750,
6.041812,1.3870,-1.8758,-0.6928,-1.2474,0.2970,-0.7009,36.7500,24.1500,-0.6750,
6.043924,1.3870,-1.8758,-0.6928,-1.2474,0.2970,-0.7009,34.9500,26.3250,1.0500,
6.056197,1.3870,-1.8758,-0.6928,-1.2474,0.2970,-0.7009,34.9500,26.3250,1.0500,
6.058866,0.8176,-1.3671,-1.0875,-1.2474,0.2970,-0.7009,34.9500,26.3250,1.0500,
6.075757,0.8176,-1.3671,-1.0875,-1.2474,0.2970,-0.7009,34.9500,26.3250,1.0500,
6.078466,-0.0996,0.1618,-0.2331,-1.2474,0.2970,-0.7009,34.9500,26.3250,1.0500,
6.086721,-0.0996,0.1618,-0.2331,-1.3411,0.2508,-0.8228,34.9500,26.3250,1.0500,
6.096426,-0.0996,0.1618,-0.2331,-1.3411,0.2508,-0.8228,34.9500,26.3250,1.0500,
6.098103,0.3862,1.0719,-1.0464,-1.3411,0.2508,-0.8228,34.9500,26.3250,1.0500,
6.108431,0.3862,1.0719,-1.0464,-1.3411,0.2508,-0.8228,32.8500,28.7250,5.2500,
6.116967,0.3862,1.0719,-1.0464,-1.3411,0.2508,-0.8228,32.8500,28.7250,5.2500,
6.119620,-0.1037,0.6801,-1.0796,-1.3411,0.2508,-0.8228,32.8500,28.7250,5.2500,
6.135508,-0.1037,0.6801,-1.0796,-1.3411,0.2508,-0.8228,32.8500,28.7250,5.2500,
6.138293,-1.2285,0.1040,-0.0824,-1.3411,0.2508,-0.8228,32.8500,28.7250,5.2500,
6.149428,-1.2285,0.1040,-0.0824,-1.4288,-0.0102,-0.7368,32.8500,28.7250,5.2500,
6.155662,-1.2285,0.1040,-0.0824,-1.4288,-0.0102,-0.7368,32.8500,28.7250,5.2500,
6.157164,-1.8775,-0.3100,0.4206,-1.4288,-0.0102,-0.7368,32.8500,28.7250,5.2500,
6.181056,-1.8775,-0.3100,0.4206,-1.4288,-0.0102,-0.7368,32.8500,28.7250,5.2500,
6.182249,-2.4593,-0.1603,-1.1250,-1.4288,-0.0102,-0.7368,32.8500,28.7250,5.2500,
6.183194,-2.4593,-0.1603,-1.1250,-1.4288,-0.0102,-0.7368,31.3500,30.1500,8.5500,
6.200591,-2.4593,-0.1603,-1.1250,-1.4288,-0.0102,-0.7368,31.3500,30.1500,8.5500,
6.201993,-1.9892,-0.0947,-0.9752,-1.4288,-0.0102,-0.7368,31.3500,30.1500,8.5500,
6.218821,-1.9892,-0.0947,-0.9752,-1.4288,-0.0102,-0.7368,31.3500,30.1500,8.5500,
6.221078,-0.7171,-0.7198,0.2388,-1.4288,-0.0102,-0.7368,31.3500,30.1500,8.5500,
6.224012,-0.7171,-0.7198,0.2388,-0.9239,-0.5727,-0.3903,31.3500,30.1500,8.5500,
6.237694,-0.7171,-0.7198,0.2388,-0.9239,-0.5727,-0.3903,31.3500,30.1500,8.5500,
6.239605,1.0404,-0.5518,0.6815,-0.9239,-0.5727,-0.3903,31.3500,30.1500,8.5500,
6.249474,1.0404,-0.5518,0.6815,-0.9239,-0.5727,-0.3903,30.5250,31.6500,10.1250,
6.257543,1.0404,-0.5518,0.6815,-0.9239,-0.5727,-0.3903,30.5250,31.6500,10.1250,
6.259078,1.2762,-0.2308,0.2189,-0.9239,-0.5727,-0.3903,30.5250,31.6500,10.1250,
6.277354,1.2762,-0.2308,0.2189,-0.9239,-0.5727,-0.3903,30.5250,31.6500,10.1250,
6.279320,0.7828,0.1305,-0.5795,-0.9239,-0.5727,-0.3903,30.5250,31.6500,10.1250,
6.292013,0.7828,0.1305,-0.5795,0.1518,-0.8291,-0.2081,30.5250,31.6500,10.1250,
6.300190,0.7828,0.1305,-0.5795,0.1518,-0.8291,-0.2081,30.5250,31.6500,10.1250,
6.303310,0.6351,0.2738,-0.0234,0.1518,-0.8291,-0.2081,30.5250,31.6500,10.1250,
6.315731,0.6351,0.2738,-0.0234,0.1518,-0.8291,-0.2081,30.5250,31.6500,10.1250,
6.318585,-0.6531,-0.3392,0.7116,0.1518,-0.8291,-0.2081,30.5250,31.6500,10.1250,
6.320952,-0.6531,-0.3392,0.7116,0.1518,-0.8291,-0.2081,30.4500,31.5000,8.7000,
6.334777,-0.6531,-0.3392,0.7116,0.1518,-0.8291,-0.2081,30.4500,31.5000,8.7000,
6.338759,-2.2960,-0.4438,0.6705,0.1518,-0.8291,-0.2081,30.4500,31.5000,8.7000,
6.354785,-2.2960,-0.4438,0.6705,0.1518,-0.8291,-0.2081,30.4500,31.5000,8.7000,
6.357419,-2.3023,0.3791,-0.0818,0.1518,-0.8291,-0.2081,30.4500,31.5000,8.7000,
6.359299,-2.3023,0.3791,-0.0818,0.7411,-0.6475,0.3208,30.4500,31.5000,8.7000,
6.370210,-2.3023,0.3791,-0.0818,0.7411,-0.6475,0.3208,30.4500,31.5000,8.7000,
6.372700,-2.0129,1.0837,0.1944,0.7411,-0.6475,0.3208,30.4500,31.5000,8.7000,
6.389051,-2.0129,1.0837,0.1944,0.7411,-0.6475,0.3208,30.4500,31.5000,8.7000,
6.392219,-1.4165,1.2499,-0.0008,0.7411,-0.6475,0.3208,30.4500,31.5000,8.7000,
6.394181,-1.4165,1.2499,-0.0008,0.7411,-0.6475,0.3208,30.4500,31.6500,4.9500,
6.412956,-1.4165,1.2499,-0.0008,0.7411,-0.6475,0.3208,30.4500,31.6500,4.9500,
6.415465,-0.7885,0.6835,-0.0407,0.7411,-0.6475,0.3208,30.4500,31.6500,4.9500,
6.428085,-0.7885,0.6835,-0.0407,1.0514,-0.5704,0.7886,30.4500,31.6500,4.9500,
6.437569,-0.7885,0.6835,-0.0407,1.0514,-0.5704,0.7886,30.4500,31.6500,4.9500,
6.439500,-0.3530,0.1537,-0.6290,1.0514,-0.5704,0.7886,30.4500,31.6500,4.9500,
6.452128,-0.3530,0.1537,-0.6290,1.0514,-0.5704,0.7886,30.4500,31.6500,4.9500,
6.454061,0.7802,-0.7040,0.2905,1.0514,-0.5704,0.7886,30.4500,31.6500,4.9500,
6.458536,0.7802,-0.7040,0.2905,1.0514,-0.5704,0.7886,31.6500,30.4500,1.5000,
6.469813,0.7802,-0.7040,0.2905,1.0514,-0.5704,0.7886,31.6500,30.4500,1.5000,
6.471949,1.0006,-0.3785,0.4694,1.0514,-0.5704,0.7886,31.6500,30.4500,1.5000,
6.491492,1.0006,-0.3785,0.4694,1.0514,-0.5704,0.7886,31.6500,30.4500,1.5000,
6.494094,0.5760,0.5551,-0.1277,1.0514,-0.5704,0.7886,31.6500,30.4500,1.5000,
6.496024,0.5760,0.5551,-0.1277,1.1065,-0.2275,0.8886,31.6500,30.4500,1.5000,
6.511172,0.5760,0.5551,-0.1277,1.1065,-0.2275,0.8886,31.6500,30.4500,1.5000,
6.513918,0.2187,0.7349,-1.0058,1.1065,-0.2275,0.8886,31.6500,30.4500,1.5000,
6.530716,0.2187,0.7349,-1.0058,1.1065,-0.2275,0.8886,32.0250,29.2500,-0.6750,
6.535818,0.2187,0.7349,-1.0058,1.1065,-0.2275,0.8886,32.0250,29.2500,-0.6750,
6.537480,0.1950,-0.1843,-1.2895,1.1065,-0.2275,0.8886,32.0250,29.2500,-0.6750,
6.555085,0.1950,-0.1843,-1.2895,1.1065,-0.2275,0.8886,32.0250,29.2500,-0.6750,
6.557531,0.5793,-1.0102,-1.2933,1.1065,-0.2275,0.8886,32.0250,29.2500,-0.6750,
6.569195,0.5793,-1.0102,-1.2933,1.1015,-0.0032,0.9335,32.0250,29.2500,-0.6750,
6.572202,0.5793,-1.0102,-1.2933,1.1015,-0.0032,0.9335,32.0250,29.2500,-0.6750,
6.573680,0.9231,-1.4168,-0.3584,1.1015,-0.0032,0.9335,32.0250,29.2500,-0.6750,
6.593950,0.9231,-1.4168,-0.3584,1.1015,-0.0032,0.9335,32.0250,29.2500,-0.6750,
6.596992,0.5378,-0.7388,-0.5308,1.1015,-0.0032,0.9335,32.0250,29.2500,-0.6750,
6.600586,0.5378,-0.7388,-0.5308,1.1015,-0.0032,0.9335,34.8000,26.5500,-3.6000,
6.618161,0.5378,-0.7388,-0.5308,1.1015,-0.0032,0.9335,34.8000,26.5500,-3.6000,
6.620978,0.3527,0.0484,-1.4495,1.1015,-0.0032,0.9335,34.8000,26.5500,-3.6000,
6.633939,0.3527,0.0484,-1.4495,1.1015,-0.0032,0.9335,34.8000,26.5500,-3.6000,
6.637811,-0.0105,0.1229,-0.8998,1.1015,-0.0032,0.9335,34.8000,26.5500,-3.6000,
6.639805,-0.0105,0.1229,-0.8998,1.0491,0.1083,0.9137,34.8000,26.5500,-3.6000,
6.652501,-0.0105,0.1229,-0.8998,1.0491,0.1083,0.9137,34.8000,26.5500,-3.6000,
6.654410,-0.1572,-0.1930,-0.7611,1.0491,0.1083,0.9137,34.8000,26.5500,-3.6000,
6.668647,-0.1572,-0.1930,-0.7611,1.0491,0.1083,0.9137,34.8000,26.5500,-3.6000,
6.670668,0.3468,-0.5851,0.2576,1.0491,0.1083,0.9137,34.8000,26.5500,-3.6000,
6.672773,0.3468,-0.5851,0.2576,1.0491,0.1083,0.9137,36.1500,23.9250,-5.2500,
6.691662,0.3468,-0.5851,0.2576,1.0491,0.1083,0.9137,36.1500,23.9250,-5.2500,
6.693403,0.6321,-0.4247,0.6230,1.0491,0.1083,0.9137,36.1500,23.9250,-5.2500,
6.705966,0.6321,-0.4247,0.6230,0.8541,0.4276,0.9743,36.1500,23.9250,-5.2500,
6.716426,0.6321,-0.4247,0.6230,0.8541,0.4276,0.9743,36.1500,23.9250,-5.2500,
6.718465,0.5806,0.3158,0.3379,0.8541,0.4276,0.9743,36.1500,23.9250,-5.2500,
6.733819,0.5806,0.3158,0.3379,0.8541,0.4276,0.9743,36.1500,23.9250,-5.2500,
6.735981,0.4154,0.4572,1.0265,0.8541,0.4276,0.9743,36.1500,23.9250,-5.2500,
6.738186,0.4154,0.4572,1.0265,0.8541,0.4276,0.9743,37.6500,21.7500,-5.7000,
6.750041,0.4154,0.4572,1.0265,0.8541,0.4276,0.9743,37.6500,21.7500,-5.7000,
6.752126,0.2839,0.7461,1.1206,0.8541,0.4276,0.9743,37.6500,21.7500,-5.7000,
6.770598,0.2839,0.7461,1.1206,0.8541,0.4276,0.9743,37.6500,21.7500,-5.7000,
6.772579,0.3827,1.5085,0.7515,0.8541,0.4276,0.9743,37.6500,21.7500,-5.7000,
6.776494,0.3827,1.5085,0.7515,0.8854,0.2346,0.8720,37.6500,21.7500,-5.7000,
6.795220,0.3827,1.5085,0.7515,0.8854,0.2346,0.8720,37.6500,21.7500,-5.7000,
6.797499,0.3983,1.0328,1.3052,0.8854,0.2346,0.8720,37.6500,21.7500,-5.7000,
6.809026,0.3983,1.0328,1.3052,0.8854,0.2346,0.8720,38.8500,19.0500,-6.7500,
6.814424,0.3983,1.0328,1.3052,0.8854,0.2346,0.8720,38.8500,19.0500,-6.7500,
6.816717,-0.5520,-0.0614,1.1622,0.8854,0.2346,0.8720,38.8500,19.0500,-6.7500,
6.833418,-0.5520,-0.0614,1.1622,0.8854,0.2346,0.8720,38.8500,19.0500,-6.7500,
6.835939,-0.8666,-0.4669,1.8001,0.8854,0.2346,0.8720,38.8500,19.0500,-6.7500,
6.848055,-0.8666,-0.4669,1.8001,0.8158,-0.2269,0.8094,38.8500,19.0500,-6.7500,
6.853404,-0.8666,-0.4669,1.8001,0.8158,-0.2269,0.8094,38.8500,19.0500,-6.7500,
6.855332,-0.6418,-0.3951,0.7197,0.8158,-0.2269,0.8094,38.8500,19.0500,-6.7500,
6.869942,-0.6418,-0.3951,0.7197,0.8158,-0.2269,0.8094,38.8500,19.0500,-6.7500,
6.872610,0.3793,0.3007,-0.7922,0.8158,-0.2269,0.8094,38.8500,19.0500,-6.7500,
6.882457,0.3793,0.3007,-0.7922,0.8158,-0.2269,0.8094,40.0500,16.6500,-7.8750,
6.892122,0.3793,0.3007,-0.7922,0.8158,-0.2269,0.8094,40.0500,16.6500,-7.8750,
6.894123,1.7398,0.2097,0.6103,0.8158,-0.2269,0.8094,40.0500,16.6500,-7.8750,
6.912493,1.7398,0.2097,0.6103,0.8158,-0.2269,0.8094,40.0500,16.6500,-7.8750,
6.914281,2.0287,-1.0664,0.3908,0.8158,-0.2269,0.8094,40.0500,16.6500,-7.8750,
6.917703,2.0287,-1.0664,0.3908,0.6712,0.0035,0.5963,40.0500,16.6500,-7.8750,
6.934852,2.0287,-1.0664,0.3908,0.6712,0.0035,0.5963,40.0500,16.6500,-7.8750,
6.936152,1.5907,-1.5887,0.8914,0.6712,0.0035,0.5963,40.0500,16.6500,-7.8750,
6.941883,1.5907,-1.5887,0.8914,0.6712,0.0035,0.5963,39.4500,14.8500,-9.1500,
6.950877,1.5907,-1.5887,0.8914,0.6712,0.0035,0.5963,39.4500,14.8500,-9.1500,
6.951763,0.7348,-0.7782,1.5768,0.6712,0.0035,0.5963,39.4500,14.8500,-9.1500,
6.970063,0.7348,-0.7782,1.5768,0.6712,0.0035,0.5963,39.4500,14.8500,-9.1500,
6.970829,0.3146,0.4281,1.2535,0.6712,0.0035,0.5963,39.4500,14.8500,-9.1500,
6.985239,0.3146,0.4281,1.2535,0.7614,0.3207,0.3118,39.4500,14.8500,-9.1500,
6.990116,0.3146,0.4281,1.2535,0.7614,0.3207,0.3118,39.4500,14.8500,-9.1500,
6.990617,0.2645,1.0129,1.0896,0.7614,0.3207,0.3118,39.4500,14.8500,-9.1500,
7.010518,0.2645,1.0129,1.0896,0.7614,0.3207,0.3118,39.4500,14.8500,-9.1500,
7.012663,0.6159,1.2005,0.9674,0.7614,0.3207,0.3118,39.4500,14.8500,-9.1500,
7.013987,0.6159,1.2005,0.9674,0.7614,0.3207,0.3118,40.7250,12.8250,-9.6000,
7.028697,0.6159,1.2005,0.9674,0.7614,0.3207,0.3118,40.7250,12.8250,-9.6000,
7.031107,0.9723,2.0150,1.0309,0.7614,0.3207,0.3118,40.7250,12.8250,-9.6000,
7.048721,0.9723,2.0150,1.0309,0.7614,0.3207,0.3118,40.7250,12.8250,-9.6000,
7.050697,0.4765,3.5223,-0.5858,0.7614,0.3207,0.3118,40.7250,12.8250,-9.6000,
7.053099,0.4765,3.5223,-0.5858,0.8618,0.5108,0.1147,40.7250,12.8250,-9.6000,
7.069784,0.4765,3.5223,-0.5858,0.8618,0.5108,0.1147,40.7250,12.8250,-9.6000,
7.072352,-0.9775,4.2814,-1.5208,0.8618,0.5108,0.1147,40.7250,12.8250,-9.6000,
7.084441,-0.9775,4.2814,-1.5208,0.8618,0.5108,0.1147,41.6250,13.0500,-8.4750,
7.093091,-0.9775,4.2814,-1.5208,0.8618,0.5108,0.1147,41.6250,13.0500,-8.4750,
7.096050,-2.2563,3.3883,-1.9681,0.8618,0.5108,0.1147,41.6250,13.0500,-8.4750,
7.112795,-2.2563,3.3883,-1.9681,0.8618,0.5108,0.1147,41.6250,13.0500,-8.4750,
7.116172,-2.4748,2.4821,-1.5050,0.8618,0.5108,0.1147,41.6250,13.0500,-8.4750,
7.127588,-2.4748,2.4821,-1.5050,0.4213,0.0825,0.0240,41.6250,13.0500,-8.4750,
7.141185,-2.4748,2.4821,-1.5050,0.4213,0.0825,0.0240,41.6250,13.0500,-8.4750,
7.146109,-2.2933,2.3867,-0.8135,0.4213,0.0825,0.0240,41.6250,13.0500,-8.4750,
7.152501,-2.2933,2.3867,-0.8135,0.4213,0.0825,0.0240,41.6250,13.0500,-8.4750,
7.155424,-2.1768,2.7599,-1.4884,0.4213,0.0825,0.0240,41.6250,13.0500,-8.4750,
7.158124,-2.1768,2.7599,-1.4884,0.4213,0.0825,0.0240,42.3000,12.8250,-8.7750,
7.170480,-2.1768,2.7599,-1.4884,0.4213,0.0825,0.0240,42.3000,12.8250,-8.7750,
7.173194,-1.4607,2.7796,-1.7903,0.4213,0.0825,0.0240,42.3000,12.8250,-8.7750,
7.190403,-1.4607,2.7796,-1.7903,0.4213,0.0825,0.0240,42.3000,12.8250,-8.7750,
7.192981,-1.1673,2.2895,-1.5275,0.4213,0.0825,0.0240,42.3000,12.8250,-8.7750,
7.199804,-1.1673,2.2895,-1.5275,0.2964,-0.5586,-0.1191,42.3000,12.8250,-8.7750,
7.209860,-1.1673,2.2895,-1.5275,0.2964,-0.5586,-0.1191,42.3000,12.8250,-8.7750,
7.212687,-1.1301,1.5100,-0.9165,0.2964,-0.5586,-0.1191,42.3000,12.8250,-8.7750,
7.222027,-1.1301,1.5100,-0.9165,0.2964,-0.5586,-0.1191,41.3250,13.3500,-9.7500,
7.230988,-1.1301,1.5100,-0.9165,0.2964,-0.5586,-0.1191,41.3250,13.3500,-9.7500,
7.233248,-1.0323,0.7354,-0.4092,0.2964,-0.5586,-0.1191,41.3250,13.3500,-9.7500,
7.250649,-1.0323,0.7354,-0.4092,0.2964,-0.5586,-0.1191,41.3250,13.3500,-9.7500,
7.252698,-0.9643,0.6940,-0.4493,0.2964,-0.5586,-0.1191,41.3250,13.3500,-9.7500,
7.263705,-0.9643,0.6940,-0.4493,0.1475,-0.3431,-0.1692,41.3250,13.3500,-9.7500,
7.268601,-0.9643,0.6940,-0.4493,0.1475,-0.3431,-0.1692,41.3250,13.3500,-9.7500,
7.270230,-1.1539,0.8938,-0.7087,0.1475,-0.3431,-0.1692,41.3250,13.3500,-9.7500,
7.288513,-1.1539,0.8938,-0.7087,0.1475,-0.3431,-0.1692,41.3250,13.3500,-9.7500,
7.290567,-1.2788,0.7583,-0.9034,0.1475,-0.3431,-0.1692,41.3250,13.3500,-9.7500,
7.292934,-1.2788,0.7583,-0.9034,0.1475,-0.3431,-0.1692,40.9500,13.1250,-12.3750,
7.308381,-1.2788,0.7583,-0.9034,0.1475,-0.3431,-0.1692,40.9500,13.1250,-12.3750,
7.310385,-1.3054,0.6507,-0.9997,0.1475,-0.3431,-0.1692,40.9500,13.1250,-12.3750,
7.328967,-1.3054,0.6507,-0.9997,0.1475,-0.3431,-0.1692,40.9500,13.1250,-12.3750,
7.332244,-1.1138,0.6681,-0.6891,0.1475,-0.3431,-0.1692,40.9500,13.1250,-12.3750,
7.334021,-1.1138,0.6681,-0.6891,0.0736,-0.2723,-0.2408,40.9500,13.1250,-12.3750,
7.349346,-1.1138,0.6681,-0.6891,0.0736,-0.2723,-0.2408,40.9500,13.1250,-12.3750,
7.351377,-0.7630,0.5306,-0.1713,0.0736,-0.2723,-0.2408,40.9500,13.1250,-12.3750,
7.358110,-0.7630,0.5306,-0.1713,0.0736,-0.2723,-0.2408,41.0250,14.1000,-12.9750,
7.366525,-0.7630,0.5306,-0.1713,0.0736,-0.2723,-0.2408,41.0250,14.1000,-12.9750,
7.368705,-0.6450,0.6853,-0.1688,0.0736,-0.2723,-0.2408,41.0250,14.1000,-12.9750,
7.386591,-0.6450,0.6853,-0.1688,0.0736,-0.2723,-0.2408,41.0250,14.1000,-12.9750,
7.388895,-0.7834,0.7639,0.0362,0.0736,-0.2723,-0.2408,41.0250,14.1000,-12.9750,
7.400355,-0.7834,0.7639,0.0362,0.0458,-0.0693,-0.3321,41.0250,14.1000,-12.9750,
7.405689,-0.7834,0.7639,0.0362,0.0458,-0.0693,-0.3321,41.0250,14.1000,-12.9750,
7.407326,-0.8890,0.5314,0.3347,0.0458,-0.0693,-0.3321,41.0250,14.1000,-12.9750,
7.431663,-0.8890,0.5314,0.3347,0.0458,-0.0693,-0.3321,41.0250,14.1000,-12.9750,
7.435380,-0.6377,0.3321,0.1867,0.0458,-0.0693,-0.3321,41.0250,14.1000,-12.9750,
7.438182,-0.6377,0.3321,0.1867,0.0458,-0.0693,-0.3321,40.1250,15.2250,-12.7500,
7.449476,-0.6377,0.3321,0.1867,0.0458,-0.0693,-0.3321,40.1250,15.2250,-12.7500,
7.451979,-0.2019,0.4390,-0.3246,0.0458,-0.0693,-0.3321,40.1250,15.2250,-12.7500,
7.468921,-0.2019,0.4390,-0.3246,0.0458,-0.0693,-0.3321,40.1250,15.2250,-12.7500,
7.470975,-0.0123,0.4763,-0.5263,0.0458,-0.0693,-0.3321,40.1250,15.2250,-12.7500,
7.473516,-0.0123,0.4763,-0.5263,0.1046,0.4306,-0.2660,40.1250,15.2250,-12.7500,
7.488486,-0.0123,0.4763,-0.5263,0.1046,0.4306,-0.2660,40.1250,15.2250,-12.7500,
7.490106,0.0728,0.1216,-0.4185,0.1046,0.4306,-0.2660,40.1250,15.2250,-12.7500,
7.499973,0.0728,0.1216,-0.4185,0.1046,0.4306,-0.2660,39.8250,16.3500,-13.0500,
7.507911,0.0728,0.1216,-0.4185,0.1046,0.4306,-0.2660,39.8250,16.3500,-13.0500,
7.509341,0.2544,-0.0622,0.0261,0.1046,0.4306,-0.2660,39.8250,16.3500,-13.0500,
7.528753,0.2544,-0.0622,0.0261,0.1046,0.4306,-0.2660,39.8250,16.3500,-13.0500,
7.531178,-0.0410,0.3494,-0.3557,0.1046,0.4306,-0.2660,39.8250,16.3500,-13.0500,
7.543561,-0.0410,0.3494,-0.3557,0.3961,1.1821,-0.1883,39.8250,16.3500,-13.0500,
7.558646,-0.0410,0.3494,-0.3557,0.3961,1.1821,-0.1883,39.8250,16.3500,-13.0500,
7.562174,-0.9146,0.9868,-0.2256,0.3961,1.1821,-0.1883,39.8250,16.3500,-13.0500,
7.568046,-0.9146,0.9868,-0.2256,0.3961,1.1821,-0.1883,39.8250,16.3500,-13.0500,
7.570856,-1.3954,1.1040,1.0921,0.3961,1.1821,-0.1883,39.8250,16.3500,-13.0500,
7.573343,-1.3954,1.1040,1.0921,0.3961,1.1821,-0.1883,40.0500,16.8000,-10.0500,
7.587187,-1.3954,1.1040,1.0921,0.3961,1.1821,-0.1883,40.0500,16.8000,-10.0500,
7.588993,-1.0425,0.8814,0.4157,0.3961,1.1821,-0.1883,40.0500,16.8000,-10.0500,
7.606774,-1.0425,0.8814,0.4157,0.3961,1.1821,-0.1883,40.0500,16.8000,-10.0500,
7.609760,-0.6590,0.4856,-0.3179,0.3961,1.1821,-0.1883,40.0500,16.8000,-10.0500,
7.612824,-0.6590,0.4856,-0.3179,0.7225,1.7922,0.1365,40.0500,16.8000,-10.0500,
7.626417,-0.6590,0.4856,-0.3179,0.7225,1.7922,0.1365,40.0500,16.8000,-10.0500,
7.629025,-0.1284,0.1978,-0.4594,0.7225,1.7922,0.1365,40.0500,16.8000,-10.0500,
7.638709,-0.1284,0.1978,-0.4594,0.7225,1.7922,0.1365,41.3250,16.9500,-5.5500,
7.641411,-0.1284,0.1978,-0.4594,0.7225,1.7922,0.1365,41.3250,16.9500,-5.5500,
7.643620,0.3059,-0.1318,-1.1371,0.7225,1.7922,0.1365,41.3250,16.9500,-5.5500,
7.660454,0.3059,-0.1318,-1.1371,0.7225,1.7922,0.1365,41.3250,16.9500,-5.5500,
7.662121,0.4368,-0.4311,-1.2193,0.7225,1.7922,0.1365,41.3250,16.9500,-5.5500,
7.680744,0.4368,-0.4311,-1.2193,0.5501,1.5842,0.1216,41.3250,16.9500,-5.5500,
7.685032,0.4368,-0.4311,-1.2193,0.5501,1.5842,0.1216,41.3250,16.9500,-5.5500,
7.685818,0.8374,-0.7330,-2.5409,0.5501,1.5842,0.1216,41.3250,16.9500,-5.5500,
7.709673,0.8374,-0.7330,-2.5409,0.5501,1.5842,0.1216,41.3250,16.9500,-5.5500,
7.711125,0.9926,-0.7021,-0.8148,0.5501,1.5842,0.1216,41.3250,16.9500,-5.5500,
7.712439,0.9926,-0.7021,-0.8148,0.5501,1.5842,0.1216,42.2250,15.6000,-1.8750,
7.728730,0.9926,-0.7021,-0.8148,0.5501,1.5842,0.1216,42.2250,15.6000,-1.8750,
7.730240,1.5449,0.1713,-1.1653,0.5501,1.5842,0.1216,42.2250,15.6000,-1.8750,
7.755138,1.5449,0.1713,-1.1653,0.5501,1.5842,0.1216,42.2250,15.6000,-1.8750,
7.756995,1.7167,0.1933,-0.3610,0.5501,1.5842,0.1216,42.2250,15.6000,-1.8750,
7.759320,1.7167,0.1933,-0.3610,0.2120,0.7495,-0.1242,42.2250,15.6000,-1.8750,
7.767966,1.7167,0.1933,-0.3610,0.2120,0.7495,-0.1242,42.2250,15.6000,-1.8750,
7.769462,1.1499,-0.2038,0.4655,0.2120,0.7495,-0.1242,42.2250,15.6000,-1.8750,
7.782206,1.1499,-0.2038,0.4655,0.2120,0.7495,-0.1242,42.1500,15.4500,0.4500,
7.787724,1.1499,-0.2038,0.4655,0.2120,0.7495,-0.1242,42.1500,15.4500,0.4500,
7.789662,0.6069,0.0948,0.5537,0.2120,0.7495,-0.1242,42.1500,15.4500,0.4500,
7.806584,0.6069,0.0948,0.5537,0.2120,0.7495,-0.1242,42.1500,15.4500,0.4500,
7.808852,0.1219,0.3828,-0.1453,0.2120,0.7495,-0.1242,42.1500,15.4500,0.4500,
7.820996,0.1219,0.3828,-0.1453,0.3412,0.3989,-0.0324,42.1500,15.4500,0.4500,
7.826035,0.1219,0.3828,-0.1453,0.3412,0.3989,-0.0324,42.1500,15.4500,0.4500,
7.827482,0.2956,0.3731,-0.2656,0.3412,0.3989,-0.0324,42.1500,15.4500,0.4500,
7.846357,0.2956,0.3731,-0.2656,0.3412,0.3989,-0.0324,42.1500,15.4500,0.4500,
7.849630,0.3961,0.8398,-0.2809,0.3412,0.3989,-0.0324,42.1500,15.4500,0.4500,
7.851752,0.3961,0.8398,-0.2809,0.3412,0.3989,-0.0324,42.4500,16.0500,2.1000,
7.867512,0.3961,0.8398,-0.2809,0.3412,0.3989,-0.0324,42.4500,16.0500,2.1000,
7.870529,0.1632,0.7961,-0.2853,0.3412,0.3989,-0.0324,42.4500,16.0500,2.1000,
7.884741,0.1632,0.7961,-0.2853,0.3412,0.3989,-0.0324,42.4500,16.0500,2.1000,
7.887164,0.1696,0.5132,-0.5982,0.3412,0.3989,-0.0324,42.4500,16.0500,2.1000,
7.889784,0.1696,0.5132,-0.5982,0.2081,0.2489,-0.0144,42.4500,16.0500,2.1000,
7.904713,0.1696,0.5132,-0.5982,0.2081,0.2489,-0.0144,42.4500,16.0500,2.1000,
7.906987,0.1975,0.4420,-0.9747,0.2081,0.2489,-0.0144,42.4500,16.0500,2.1000,
7.918321,0.1975,0.4420,-0.9747,0.2081,0.2489,-0.0144,41.8500,16.4250,3.4500,
7.920997,0.1975,0.4420,-0.9747,0.2081,0.2489,-0.0144,41.8500,16.4250,3.4500,
7.922385,-0.0369,0.1593,-0.6791,0.2081,0.2489,-0.0144,41.8500,16.4250,3.4500,
7.949455,-0.0369,0.1593,-0.6791,0.2081,0.2489,-0.0144,41.8500,16.4250,3.4500,
7.952599,-0.1321,0.0435,-0.4269,0.2081,0.2489,-0.0144,41.8500,16.4250,3.4500,
7.965976,-0.1321,0.0435,-0.4269,-0.0128,0.0832,0.0625,41.8500,16.4250,3.4500,
7.970279,-0.1321,0.0435,-0.4269,-0.0128,0.0832,0.0625,41.8500,16.4250,3.4500,
7.972093,0.0325,-0.0262,-0.1780,-0.0128,0.0832,0.0625,41.8500,16.4250,3.4500,
7.987784,0.0325,-0.0262,-0.1780,-0.0128,0.0832,0.0625,41.8500,16.4250,3.4500,
7.989800,0.2199,0.0599,-0.0226,-0.0128,0.0832,0.0625,41.8500,16.4250,3.4500,
7.991262,0.2199,0.0599,-0.0226,-0.0128,0.0832,0.0625,42.0000,16.6500,3.4500,
8.007155,0.2199,0.0599,-0.0226,-0.0128,0.0832,0.0625,42.0000,16.6500,3.4500,
8.008941,0.1877,0.2445,0.3012,-0.0128,0.0832,0.0625,42.0000,16.6500,3.4500,
8.026456,0.1877,0.2445,0.3012,-0.0128,0.0832,0.0625,42.0000,16.6500,3.4500,
8.028430,0.0858,0.3686,0.1342,-0.0128,0.0832,0.0625,42.0000,16.6500,3.4500,
8.031553,0.0858,0.3686,0.1342,-0.1095,0.0179,0.0583,42.0000,16.6500,3.4500,
8.048110,0.0858,0.3686,0.1342,-0.1095,0.0179,0.0583,42.0000,16.6500,3.4500,
8.049667,0.2218,-0.0546,-0.1174,-0.1095,0.0179,0.0583,42.0000,16.6500,3.4500,
8.058104,0.2218,-0.0546,-0.1174,-0.1095,0.0179,0.0583,42.3000,16.0500,2.9250,
8.065583,0.2218,-0.0546,-0.1174,-0.1095,0.0179,0.0583,42.3000,16.0500,2.9250,
8.067755,0.2319,-0.0758,0.4498,-0.1095,0.0179,0.0583,42.3000,16.0500,2.9250,
8.085078,0.2319,-0.0758,0.4498,-0.1095,0.0179,0.0583,42.3000,16.0500,2.9250,
8.086856,0.1404,-0.0608,-0.0285,-0.1095,0.0179,0.0583,42.3000,16.0500,2.9250,
8.100102,0.1404,-0.0608,-0.0285,-0.1891,0.0237,-0.0107,42.3000,16.0500,2.9250,
8.105057,0.1404,-0.0608,-0.0285,-0.1891,0.0237,-0.0107,42.3000,16.0500,2.9250,
8.107405,0.1496,0.0828,0.0537,-0.1891,0.0237,-0.0107,42.3000,16.0500,2.9250,
8.119768,0.1496,0.0828,0.0537,-0.1891,0.0237,-0.0107,42.3000,16.0500,2.9250,
8.121554,-0.1065,0.1459,0.0594,-0.1891,0.0237,-0.0107,42.3000,16.0500,2.9250,
8.131897,-0.1065,0.1459,0.0594,-0.1891,0.0237,-0.0107,42.2250,16.0500,3.2250,
8.144030,-0.1065,0.1459,0.0594,-0.1891,0.0237,-0.0107,42.2250,16.0500,3.2250,
8.145978,-0.2838,0.0340,0.1426,-0.1891,0.0237,-0.0107,42.2250,16.0500,3.2250,
8.164798,-0.2838,0.0340,0.1426,-0.1891,0.0237,-0.0107,42.2250,16.0500,3.2250,
8.168947,-0.3374,-0.0897,-0.0163,-0.1891,0.0237,-0.0107,42.2250,16.0500,3.2250,
8.172171,-0.3374,-0.0897,-0.0163,-0.1326,-0.0211,-0.0003,42.2250,16.0500,3.2250,
8.183928,-0.3374,-0.0897,-0.0163,-0.1326,-0.0211,-0.0003,42.2250,16.0500,3.2250,
8.186672,-0.2046,-0.2056,-0.3423,-0.1326,-0.0211,-0.0003,42.2250,16.0500,3.2250,
8.198581,-0.2046,-0.2056,-0.3423,-0.1326,-0.0211,-0.0003,42.3000,16.1250,3.4500,
8.207730,-0.2046,-0.2056,-0.3423,-0.1326,-0.0211,-0.0003,42.3000,16.1250,3.4500,
8.209499,-0.3652,0.0274,-0.0232,-0.1326,-0.0211,-0.0003,42.3000,16.1250,3.4500,
8.229932,-0.3652,0.0274,-0.0232,-0.1326,-0.0211,-0.0003,42.3000,16.1250,3.4500,
8.232784,-0.5022,0.0877,0.0210,-0.1326,-0.0211,-0.0003,42.3000,16.1250,3.4500,
8.241541,-0.5022,0.0877,0.0210,-0.1579,-0.0060,0.0162,42.3000,16.1250,3.4500,
8.251758,-0.5022,0.0877,0.0210,-0.1579,-0.0060,0.0162,42.3000,16.1250,3.4500,
8.253455,-0.3965,0.0220,-0.0383,-0.1579,-0.0060,0.0162,42.3000,16.1250,3.4500,
8.266360,-0.3965,0.0220,-0.0383,-0.1579,-0.0060,0.0162,42.3000,16.1250,3.4500,
8.269158,-0.3054,0.1189,0.0944,-0.1579,-0.0060,0.0162,42.3000,16.1250,3.4500,
8.270532,-0.3054,0.1189,0.0944,-0.1579,-0.0060,0.0162,41.8500,15.7500,3.2250,
8.285645,-0.3054,0.1189,0.0944,-0.1579,-0.0060,0.0162,41.8500,15.7500,3.2250,
8.287285,-0.1939,-0.0187,0.0240,-0.1579,-0.0060,0.0162,41.8500,15.7500,3.2250,
8.305030,-0.1939,-0.0187,0.0240,-0.1579,-0.0060,0.0162,41.8500,15.7500,3.2250,
8.306979,-0.2598,-0.0528,-0.1451,-0.1579,-0.0060,0.0162,41.8500,15.7500,3.2250,
8.309845,-0.2598,-0.0528,-0.1451,-0.1219,0.0150,0.0484,41.8500,15.7500,3.2250,
8.320217,-0.2598,-0.0528,-0.1451,-0.1219,0.0150,0.0484,41.8500,15.7500,3.2250,
8.320980,-0.2511,-0.1057,0.1019,-0.1219,0.0150,0.0484,41.8500,15.7500,3.2250,
8.338664,-0.2511,-0.1057,0.1019,-0.1219,0.0150,0.0484,41.8500,15.4500,4.3500,
8.347765,-0.2511,-0.1057,0.1019,-0.1219,0.0150,0.0484,41.8500,15.4500,4.3500,
8.348840,-0.1878,-0.0487,-0.0263,-0.1219,0.0150,0.0484,41.8500,15.4500,4.3500,
8.365829,-0.1878,-0.0487,-0.0263,-0.1219,0.0150,0.0484,41.8500,15.4500,4.3500,
8.367404,-0.1948,0.0541,-0.0715,-0.1219,0.0150,0.0484,41.8500,15.4500,4.3500,
8.380854,-0.1948,0.0541,-0.0715,-0.0461,0.0298,0.0654,41.8500,15.4500,4.3500,
8.383587,-0.1948,0.0541,-0.0715,-0.0461,0.0298,0.0654,41.8500,15.4500,4.3500,
8.384876,-0.1033,0.1622,0.1210,-0.0461,0.0298,0.0654,41.8500,15.4500,4.3500,
8.403572,-0.1033,0.1622,0.1210,-0.0461,0.0298,0.0654,41.8500,15.4500,4.3500,
8.405206,-0.1159,0.1054,0.0521,-0.0461,0.0298,0.0654,41.8500,15.4500,4.3500,
8.408839,-0.1159,0.1054,0.0521,-0.0461,0.0298,0.0654,42.1500,14.9250,4.1250,
8.420675,-0.1159,0.1054,0.0521,-0.0461,0.0298,0.0654,42.1500,14.9250,4.1250,
8.423936,-0.1718,-0.0218,0.0354,-0.0461,0.0298,0.0654,42.1500,14.9250,4.1250,
8.443300,-0.1718,-0.0218,0.0354,-0.0461,0.0298,0.0654,42.1500,14.9250,4.1250,
8.445723,-0.1967,-0.0549,0.1199,-0.0461,0.0298,0.0654,42.1500,14.9250,4.1250,
8.447892,-0.1967,-0.0549,0.1199,-0.0507,0.0738,0.0632,42.1500,14.9250,4.1250,
8.462342,-0.1967,-0.0549,0.1199,-0.0507,0.0738,0.0632,42.1500,14.9250,4.1250,
8.465013,-0.2341,-0.0805,-0.0239,-0.0507,0.0738,0.0632,42.1500,14.9250,4.1250,
8.484626,-0.2341,-0.0805,-0.0239,-0.0507,0.0738,0.0632,42.1500,15.3000,4.6500,
8.487044,-0.2341,-0.0805,-0.0239,-0.0507,0.0738,0.0632,42.1500,15.3000,4.6500,
8.488496,-0.2211,-0.0455,-0.1538,-0.0507,0.0738,0.0632,42.1500,15.3000,4.6500,
8.501183,-0.2211,-0.0455,-0.1538,-0.0507,0.0738,0.0632,42.1500,15.3000,4.6500,
8.503327,-0.2330,0.0610,0.1788,-0.0507,0.0738,0.0632,42.1500,15.3000,4.6500,
8.515693,-0.2330,0.0610,0.1788,-0.0189,0.0551,0.0667,42.1500,15.3000,4.6500,
8.519590,-0.2330,0.0610,0.1788,-0.0189,0.0551,0.0667,42.1500,15.3000,4.6500,
8.520913,-0.1263,0.0171,-0.1415,-0.0189,0.0551,0.0667,42.1500,15.3000,4.6500,
8.545208,-0.1263,0.0171,-0.1415,-0.0189,0.0551,0.0667,42.1500,15.3000,4.6500,
8.547697,-0.1395,0.0741,0.3621,-0.0189,0.0551,0.0667,42.1500,15.3000,4.6500,
8.549583,-0.1395,0.0741,0.3621,-0.0189,0.0551,0.0667,42.1500,15.2250,4.2000,
8.565350,-0.1395,0.0741,0.3621,-0.0189,0.0551,0.0667,42.1500,15.2250,4.2000,
8.568648,-0.0752,0.1045,-0.0270,-0.0189,0.0551,0.0667,42.1500,15.2250,4.2000,
8.584730,-0.0752,0.1045,-0.0270,-0.0189,0.0551,0.0667,42.1500,15.2250,4.2000,
8.587620,0.0011,0.1000,-0.3524,-0.0189,0.0551,0.0667,42.1500,15.2250,4.2000,
8.589459,0.0011,0.1000,-0.3524,-0.0125,0.0646,0.0548,42.1500,15.2250,4.2000,
8.603996,0.0011,0.1000,-0.3524,-0.0125,0.0646,0.0548,42.1500,15.2250,4.2000,
8.605896,0.0440,0.1843,0.0820,-0.0125,0.0646,0.0548,42.1500,15.2250,4.2000,
8.618434,0.0440,0.1843,0.0820,-0.0125,0.0646,0.0548,42.3000,14.8500,4.2000,
8.620834,0.0440,0.1843,0.0820,-0.0125,0.0646,0.0548,42.3000,14.8500,4.2000,
8.622214,-0.0395,0.0422,0.2727,-0.0125,0.0646,0.0548,42.3000,14.8500,4.2000,
8.642753,-0.0395,0.0422,0.2727,-0.0125,0.0646,0.0548,42.3000,14.8500,4.2000,
8.645358,-0.1383,-0.1177,0.1847,-0.0125,0.0646,0.0548,42.3000,14.8500,4.2000,
8.656947,-0.1383,-0.1177,0.1847,0.0252,0.0075,0.0357,42.3000,14.8500,4.2000,
8.662385,-0.1383,-0.1177,0.1847,0.0252,0.0075,0.0357,42.3000,14.8500,4.2000,
8.664461,-0.2936,-0.0197,0.1127,0.0252,0.0075,0.0357,42.3000,14.8500,4.2000,
8.685072,-0.2936,-0.0197,0.1127,0.0252,0.0075,0.0357,42.3000,14.8500,4.2000,
8.687774,-0.2798,0.1237,-0.0791,0.0252,0.0075,0.0357,42.3000,14.8500,4.2000,
8.689624,-0.2798,0.1237,-0.0791,0.0252,0.0075,0.0357,42.4500,14.6250,3.8250,
8.702842,-0.2798,0.1237,-0.0791,0.0252,0.0075,0.0357,42.4500,14.6250,3.8250,
8.705284,-0.2230,0.1853,0.1149,0.0252,0.0075,0.0357,42.4500,14.6250,3.8250,
8.719953,-0.2230,0.1853,0.1149,0.0252,0.0075,0.0357,42.4500,14.6250,3.8250,
8.721977,-0.0990,0.1212,-0.4086,0.0252,0.0075,0.0357,42.4500,14.6250,3.8250,
8.725728,-0.0990,0.1212,-0.4086,0.0921,-0.0105,0.0160,42.4500,14.6250,3.8250,
8.740532,-0.0990,0.1212,-0.4086,0.0921,-0.0105,0.0160,42.4500,14.6250,3.8250,
8.742361,-0.0301,0.2195,0.1535,0.0921,-0.0105,0.0160,42.4500,14.6250,3.8250,
8.758173,-0.0301,0.2195,0.1535,0.0921,-0.0105,0.0160,42.4500,14.6250,3.8250,
8.760163,-0.2709,-0.0216,0.1002,0.0921,-0.0105,0.0160,42.4500,14.6250,3.8250,
8.761866,-0.2709,-0.0216,0.1002,0.0921,-0.0105,0.0160,42.4500,14.5500,4.3500,
8.780329,-0.2709,-0.0216,0.1002,0.0921,-0.0105,0.0160,42.4500,14.5500,4.3500,
8.782798,-0.1766,-0.1452,0.2524,0.0921,-0.0105,0.0160,42.4500,14.5500,4.3500,
8.801677,-0.1766,-0.1452,0.2524,-0.0258,-0.0878,0.0121,42.4500,14.5500,4.3500,
8.804095,-0.1766,-0.1452,0.2524,-0.0258,-0.0878,0.0121,42.4500,14.5500,4.3500,
8.805773,-0.0417,0.2048,-0.1535,-0.0258,-0.0878,0.0121,42.4500,14.5500,4.3500,
