
time,ax,ay,az,wx,wy,wz,Bx,By,Bz,
0.051429,0.0000,0.0000,0.0000,0.0000,0.0000,0.0000,42.0000,13.0500,0.0750,
0.064460,0.0000,0.0000,0.0000,0.0000,0.0000,0.0000,42.0000,13.0500,0.0750,
0.065564,-0.1638,0.4364,0.1959,0.0000,0.0000,0.0000,42.0000,13.0500,0.0750,
0.083362,-0.1638,0.4364,0.1959,0.0000,0.0000,0.0000,42.0000,13.0500,0.0750,
0.084458,-0.0384,0.5091,0.3381,0.0000,0.0000,0.0000,42.0000,13.0500,0.0750,
0.088260,-0.0384,0.5091,0.3381,0.1408,0.0495,-0.0076,42.0000,13.0500,0.0750,
0.106958,-0.0384,0.5091,0.3381,0.1408,0.0495,-0.0076,42.0000,13.0500,0.0750,
0.107899,0.0547,0.2882,0.5263,0.1408,0.0495,-0.0076,42.0000,13.0500,0.0750,
0.124173,0.0547,0.2882,0.5263,0.1408,0.0495,-0.0076,41.8500,13.0500,0.1500,
0.125242,0.0547,0.2882,0.5263,0.1408,0.0495,-0.0076,41.8500,13.0500,0.1500,
0.125922,0.0882,0.1921,0.6760,0.1408,0.0495,-0.0076,41.8500,13.0500,0.1500,
0.146888,0.0882,0.1921,0.6760,0.1408,0.0495,-0.0076,41.8500,13.0500,0.1500,
0.148906,0.2036,0.2086,0.4669,0.1408,0.0495,-0.0076,41.8500,13.0500,0.1500,
0.161059,0.2036,0.2086,0.4669,0.1124,0.0017,0.0090,41.8500,13.0500,0.1500,
0.165637,0.2036,0.2086,0.4669,0.1124,0.0017,0.0090,41.8500,13.0500,0.1500,
0.167412,0.3742,0.2889,0.4604,0.1124,0.0017,0.0090,41.8500,13.0500,0.1500,
0.185475,0.3742,0.2889,0.4604,0.1124,0.0017,0.0090,41.8500,13.0500,0.1500,
0.187868,0.3180,0.2749,0.6827,0.1124,0.0017,0.0090,41.8500,13.0500,0.1500,
0.189800,0.3180,0.2749,0.6827,0.1124,0.0017,0.0090,41.7750,12.6000,0.1500,
0.205699,0.3180,0.2749,0.6827,0.1124,0.0017,0.0090,41.7750,12.6000,0.1500,
0.208153,0.2057,0.1390,0.4191,0.1124,0.0017,0.0090,41.7750,12.6000,0.1500,
0.219210,0.2057,0.1390,0.4191,0.1124,0.0017,0.0090,41.7750,12.6000,0.1500,
0.220593,0.0376,0.0620,0.7730,0.1124,0.0017,0.0090,41.7750,12.6000,0.1500,
0.228958,0.0376,0.0620,0.7730,0.1350,0.0354,-0.0276,41.7750,12.6000,0.1500,
0.244268,0.0376,0.0620,0.7730,0.1350,0.0354,-0.0276,41.7750,12.6000,0.1500,
0.245858,0.1565,0.2490,0.2427,0.1350,0.0354,-0.0276,41.7750,12.6000,0.1500,
0.255277,0.1565,0.2490,0.2427,0.1350,0.0354,-0.0276,41.4750,12.8250,-0.1500,
0.263394,0.1565,0.2490,0.2427,0.1350,0.0354,-0.0276,41.4750,12.8250,-0.1500,
0.265072,0.1038,0.3843,0.4165,0.1350,0.0354,-0.0276,41.4750,12.8250,-0.1500,
0.283580,0.1038,0.3843,0.4165,0.1350,0.0354,-0.0276,41.4750,12.8250,-0.1500,
0.285733,0.0251,0.3894,0.3867,0.1350,0.0354,-0.0276,41.4750,12.8250,-0.1500,
0.297899,0.0251,0.3894,0.3867,0.1034,-0.0017,-0.0351,41.4750,12.8250,-0.1500,
0.302471,0.0251,0.3894,0.3867,0.1034,-0.0017,-0.0351,41.4750,12.8250,-0.1500,
0.304121,-0.1237,0.3590,0.4353,0.1034,-0.0017,-0.0351,41.4750,12.8250,-0.1500,
0.320390,-0.1237,0.3590,0.4353,0.1034,-0.0017,-0.0351,41.4750,12.8250,-0.1500,
0.321942,-0.2216,0.2052,0.7167,0.1034,-0.0017,-0.0351,41.4750,12.8250,-0.1500,
0.323468,-0.2216,0.2052,0.7167,0.1034,-0.0017,-0.0351,41.2500,12.5250,-0.4500,
0.344262,-0.2216,0.2052,0.7167,0.1034,-0.0017,-0.0351,41.2500,12.5250,-0.4500,
0.345879,-0.1406,0.1700,0.3123,0.1034,-0.0017,-0.0351,41.2500,12.5250,-0.4500,
0.367891,-0.1406,0.1700,0.3123,0.1034,-0.0017,-0.0351,41.2500,12.5250,-0.4500,
0.369510,0.0511,0.3363,0.0299,0.1034,-0.0017,-0.0351,41.2500,12.5250,-0.4500,
0.376017,0.0511,0.3363,0.0299,0.0803,-0.0628,0.0079,41.2500,12.5250,-0.4500,
0.387538,0.0511,0.3363,0.0299,0.0803,-0.0628,0.0079,41.2500,12.5250,-0.4500,
0.388846,0.1659,0.4098,0.1072,0.0803,-0.0628,0.0079,41.2500,12.5250,-0.4500,
0.397725,0.1659,0.4098,0.1072,0.0803,-0.0628,0.0079,41.7750,12.9000,0.0750,
0.407438,0.1659,0.4098,0.1072,0.0803,-0.0628,0.0079,41.7750,12.9000,0.0750,
0.408891,0.0655,0.4954,0.2597,0.0803,-0.0628,0.0079,41.7750,12.9000,0.0750,
0.425084,0.0655,0.4954,0.2597,0.0803,-0.0628,0.0079,41.7750,12.9000,0.0750,
0.427653,0.1590,0.5003,0.4256,0.0803,-0.0628,0.0079,41.7750,12.9000,0.0750,
0.440841,0.1590,0.5003,0.4256,0.0324,-0.0825,0.0895,41.7750,12.9000,0.0750,
0.444238,0.1590,0.5003,0.4256,0.0324,-0.0825,0.0895,41.7750,12.9000,0.0750,
0.445891,0.4423,0.2048,0.2851,0.0324,-0.0825,0.0895,41.7750,12.9000,0.0750,
0.464375,0.4423,0.2048,0.2851,0.0324,-0.0825,0.0895,41.7750,12.9000,0.0750,
0.466902,0.3848,0.0307,0.3421,0.0324,-0.0825,0.0895,41.7750,12.9000,0.0750,
0.468870,0.3848,0.0307,0.3421,0.0324,-0.0825,0.0895,40.9500,12.8250,-0.4500,
0.483569,0.3848,0.0307,0.3421,0.0324,-0.0825,0.0895,40.9500,12.8250,-0.4500,
0.485700,0.1820,0.0065,0.3825,0.0324,-0.0825,0.0895,40.9500,12.8250,-0.4500,
0.503289,0.1820,0.0065,0.3825,0.0324,-0.0825,0.0895,40.9500,12.8250,-0.4500,
0.506408,0.0888,0.0271,0.5831,0.0324,-0.0825,0.0895,40.9500,12.8250,-0.4500,
0.508655,0.0888,0.0271,0.5831,0.0776,-0.1025,0.0956,40.9500,12.8250,-0.4500,
0.518804,0.0888,0.0271,0.5831,0.0776,-0.1025,0.0956,40.9500,12.8250,-0.4500,
0.520633,0.2276,-0.1370,0.7850,0.0776,-0.1025,0.0956,40.9500,12.8250,-0.4500,
0.532604,0.2276,-0.1370,0.7850,0.0776,-0.1025,0.0956,40.9500,12.1500,-1.0500,
0.541923,0.2276,-0.1370,0.7850,0.0776,-0.1025,0.0956,40.9500,12.1500,-1.0500,
0.543798,0.4713,-0.3327,0.8814,0.0776,-0.1025,0.0956,40.9500,12.1500,-1.0500,
0.561680,0.4713,-0.3327,0.8814,0.0776,-0.1025,0.0956,40.9500,12.1500,-1.0500,
0.564066,0.6355,-0.1620,0.5734,0.0776,-0.1025,0.0956,40.9500,12.1500,-1.0500,
0.576506,0.6355,-0.1620,0.5734,0.2341,-0.0321,0.0548,40.9500,12.1500,-1.0500,
0.581108,0.6355,-0.1620,0.5734,0.2341,-0.0321,0.0548,40.9500,12.1500,-1.0500,
0.583249,0.4990,0.1497,0.3909,0.2341,-0.0321,0.0548,40.9500,12.1500,-1.0500,
0.600833,0.4990,0.1497,0.3909,0.2341,-0.0321,0.0548,40.9500,12.1500,-1.0500,
0.602670,0.3552,0.2936,0.1130,0.2341,-0.0321,0.0548,40.9500,12.1500,-1.0500,
0.604249,0.3552,0.2936,0.1130,0.2341,-0.0321,0.0548,40.6500,12.1500,-0.8250,
0.620219,0.3552,0.2936,0.1130,0.2341,-0.0321,0.0548,40.6500,12.1500,-0.8250,
0.621534,0.2183,0.1351,0.2924,0.2341,-0.0321,0.0548,40.6500,12.1500,-0.8250,
0.643772,0.2183,0.1351,0.2924,0.2341,-0.0321,0.0548,40.6500,12.1500,-0.8250,
0.645195,0.1789,-0.0140,0.4168,0.2341,-0.0321,0.0548,40.6500,12.1500,-0.8250,
0.646835,0.1789,-0.0140,0.4168,0.3074,0.0396,0.0066,40.6500,12.1500,-0.8250,
0.660439,0.1789,-0.0140,0.4168,0.3074,0.0396,0.0066,40.6500,12.1500,-0.8250,
0.662075,0.1687,0.0783,0.3698,0.3074,0.0396,0.0066,40.6500,12.1500,-0.8250,
0.673911,0.1687,0.0783,0.3698,0.3074,0.0396,0.0066,41.7000,12.0000,-0.7500,
0.679858,0.1687,0.0783,0.3698,0.3074,0.0396,0.0066,41.7000,12.0000,-0.7500,
0.681167,0.1103,0.1957,0.2958,0.3074,0.0396,0.0066,41.7000,12.0000,-0.7500,
0.699364,0.1103,0.1957,0.2958,0.3074,0.0396,0.0066,41.7000,12.0000,-0.7500,
0.700866,-0.0016,0.3255,0.2507,0.3074,0.0396,0.0066,41.7000,12.0000,-0.7500,
0.714897,-0.0016,0.3255,0.2507,0.3602,0.0738,0.0188,41.7000,12.0000,-0.7500,
0.718551,-0.0016,0.3255,0.2507,0.3602,0.0738,0.0188,41.7000,12.0000,-0.7500,
0.721656,-0.0342,0.3137,0.0607,0.3602,0.0738,0.0188,41.7000,12.0000,-0.7500,
0.741842,-0.0342,0.3137,0.0607,0.3602,0.0738,0.0188,41.7000,12.0000,-0.7500,
0.744129,-0.0199,0.2005,0.0542,0.3602,0.0738,0.0188,41.7000,12.0000,-0.7500,
0.745674,-0.0199,0.2005,0.0542,0.3602,0.0738,0.0188,41.2500,11.8500,-0.7500,
0.757078,-0.0199,0.2005,0.0542,0.3602,0.0738,0.0188,41.2500,11.8500,-0.7500,
0.758946,0.0176,0.0704,0.1378,0.3602,0.0738,0.0188,41.2500,11.8500,-0.7500,
0.782067,0.0176,0.0704,0.1378,0.3602,0.0738,0.0188,41.2500,11.8500,-0.7500,
0.784819,0.0199,0.0070,0.2157,0.3602,0.0738,0.0188,41.2500,11.8500,-0.7500,
0.790310,0.0199,0.0070,0.2157,0.3431,0.0166,0.0478,41.2500,11.8500,-0.7500,
0.802418,0.0199,0.0070,0.2157,0.3431,0.0166,0.0478,41.2500,11.8500,-0.7500,
0.804629,0.1323,0.1251,0.3287,0.3431,0.0166,0.0478,41.2500,11.8500,-0.7500,
0.815008,0.1323,0.1251,0.3287,0.3431,0.0166,0.0478,41.1750,11.7000,-1.6500,
0.819305,0.1323,0.1251,0.3287,0.3431,0.0166,0.0478,41.1750,11.7000,-1.6500,
0.821463,0.1973,0.2600,-0.4654,0.3431,0.0166,0.0478,41.1750,11.7000,-1.6500,
0.841218,0.1973,0.2600,-0.4654,0.3431,0.0166,0.0478,41.1750,11.7000,-1.6500,
0.843650,-0.0099,0.2922,0.2297,0.3431,0.0166,0.0478,41.1750,11.7000,-1.6500,
0.859908,-0.0099,0.2922,0.2297,0.3439,-0.0183,0.0279,41.1750,11.7000,-1.6500,
0.863293,-0.0099,0.2922,0.2297,0.3439,-0.0183,0.0279,41.1750,11.7000,-1.6500,
0.864788,0.0722,0.2187,-0.0554,0.3439,-0.0183,0.0279,41.1750,11.7000,-1.6500,
0.880526,0.0722,0.2187,-0.0554,0.3439,-0.0183,0.0279,41.1750,11.7000,-1.6500,
0.883008,0.0345,0.1356,0.0533,0.3439,-0.0183,0.0279,41.1750,11.7000,-1.6500,
0.885366,0.0345,0.1356,0.0533,0.3439,-0.0183,0.0279,41.8500,11.5500,-1.5750,
0.899523,0.0345,0.1356,0.0533,0.3439,-0.0183,0.0279,41.8500,11.5500,-1.5750,
0.901647,-0.1154,0.1012,-0.0465,0.3439,-0.0183,0.0279,41.8500,11.5500,-1.5750,
0.920510,-0.1154,0.1012,-0.0465,0.3439,-0.0183,0.0279,41.8500,11.5500,-1.5750,
0.922170,-0.1342,0.0643,0.1683,0.3439,-0.0183,0.0279,41.8500,11.5500,-1.5750,
0.923808,-0.1342,0.0643,0.1683,0.3076,-0.1367,0.0437,41.8500,11.5500,-1.5750,
0.939653,-0.1342,0.0643,0.1683,0.3076,-0.1367,0.0437,41.8500,11.5500,-1.5750,
0.941176,-0.3134,-0.0608,0.1692,0.3076,-0.1367,0.0437,41.8500,11.5500,-1.5750,
0.952781,-0.3134,-0.0608,0.1692,0.3076,-0.1367,0.0437,40.9500,11.8500,-1.7250,
0.959437,-0.3134,-0.0608,0.1692,0.3076,-0.1367,0.0437,40.9500,11.8500,-1.7250,
0.961102,-0.4075,0.0895,-0.2571,0.3076,-0.1367,0.0437,40.9500,11.8500,-1.7250,
0.977584,-0.4075,0.0895,-0.2571,0.3076,-0.1367,0.0437,40.9500,11.8500,-1.7250,
0.979260,-0.3628,0.1831,-0.1421,0.3076,-0.1367,0.0437,40.9500,11.8500,-1.7250,
0.994425,-0.3628,0.1831,-0.1421,0.3222,-0.1761,0.0727,40.9500,11.8500,-1.7250,
0.998392,-0.3628,0.1831,-0.1421,0.3222,-0.1761,0.0727,40.9500,11.8500,-1.7250,
1.000716,-0.2446,0.0689,0.0195,0.3222,-0.1761,0.0727,40.9500,11.8500,-1.7250,
1.017057,-0.2446,0.0689,0.0195,0.3222,-0.1761,0.0727,40.9500,11.8500,-1.7250,
1.020630,-0.1437,-0.0228,-0.1679,0.3222,-0.1761,0.0727,40.9500,11.8500,-1.7250,
1.023346,-0.1437,-0.0228,-0.1679,0.3222,-0.1761,0.0727,41.1000,10.9500,-2.6250,
1.040923,-0.1437,-0.0228,-0.1679,0.3222,-0.1761,0.0727,41.1000,10.9500,-2.6250,
1.043281,0.0370,-0.0624,-0.1460,0.3222,-0.1761,0.0727,41.1000,10.9500,-2.6250,
1.060697,0.0370,-0.0624,-0.1460,0.3222,-0.1761,0.0727,41.1000,10.9500,-2.6250,
1.063007,0.1600,-0.0617,-0.0562,0.3222,-0.1761,0.0727,41.1000,10.9500,-2.6250,
1.065203,0.1600,-0.0617,-0.0562,0.3308,-0.2011,0.0608,41.1000,10.9500,-2.6250,
1.080760,0.1600,-0.0617,-0.0562,0.3308,-0.2011,0.0608,41.1000,10.9500,-2.6250,
1.083416,0.3207,0.1049,-0.4003,0.3308,-0.2011,0.0608,41.1000,10.9500,-2.6250,
1.092615,0.3207,0.1049,-0.4003,0.3308,-0.2011,0.0608,41.4000,10.6500,-2.9250,
1.099794,0.3207,0.1049,-0.4003,0.3308,-0.2011,0.0608,41.4000,10.6500,-2.9250,
1.101853,0.3778,0.1809,-0.1374,0.3308,-0.2011,0.0608,41.4000,10.6500,-2.9250,
1.119717,0.3778,0.1809,-0.1374,0.3308,-0.2011,0.0608,41.4000,10.6500,-2.9250,
1.122410,0.1509,-0.0262,-0.1465,0.3308,-0.2011,0.0608,41.4000,10.6500,-2.9250,
1.133626,0.1509,-0.0262,-0.1465,0.3157,-0.1930,0.0137,41.4000,10.6500,-2.9250,
1.143340,0.1509,-0.0262,-0.1465,0.3157,-0.1930,0.0137,41.4000,10.6500,-2.9250,
1.145263,-0.1464,-0.1942,-0.2355,0.3157,-0.1930,0.0137,41.4000,10.6500,-2.9250,
1.159254,-0.1464,-0.1942,-0.2355,0.3157,-0.1930,0.0137,41.4000,10.6500,-2.9250,
1.161058,-0.0189,-0.2326,-0.2316,0.3157,-0.1930,0.0137,41.4000,10.6500,-2.9250,
1.162346,-0.0189,-0.2326,-0.2316,0.3157,-0.1930,0.0137,41.7000,10.9500,-4.2750,
1.177590,-0.0189,-0.2326,-0.2316,0.3157,-0.1930,0.0137,41.7000,10.9500,-4.2750,
1.179434,0.3071,-0.1201,-0.3597,0.3157,-0.1930,0.0137,41.7000,10.9500,-4.2750,
1.197460,0.3071,-0.1201,-0.3597,0.3157,-0.1930,0.0137,41.7000,10.9500,-4.2750,
1.199394,0.3066,-0.2193,-0.2601,0.3157,-0.1930,0.0137,41.7000,10.9500,-4.2750,
1.202238,0.3066,-0.2193,-0.2601,0.3167,-0.1999,-0.0321,41.7000,10.9500,-4.2750,
1.216938,0.3066,-0.2193,-0.2601,0.3167,-0.1999,-0.0321,41.7000,10.9500,-4.2750,
1.219108,-0.0001,-0.2768,-0.5491,0.3167,-0.1999,-0.0321,41.7000,10.9500,-4.2750,
1.231984,-0.0001,-0.2768,-0.5491,0.3167,-0.1999,-0.0321,41.4750,10.2000,-4.6500,
1.238676,-0.0001,-0.2768,-0.5491,0.3167,-0.1999,-0.0321,41.4750,10.2000,-4.6500,
1.241279,-0.2087,-0.1951,-0.6702,0.3167,-0.1999,-0.0321,41.4750,10.2000,-4.6500,
1.257585,-0.2087,-0.1951,-0.6702,0.3167,-0.1999,-0.0321,41.4750,10.2000,-4.6500,
1.259188,-0.3055,-0.0920,-0.9331,0.3167,-0.1999,-0.0321,41.4750,10.2000,-4.6500,
1.274193,-0.3055,-0.0920,-0.9331,0.3260,-0.2039,-0.0195,41.4750,10.2000,-4.6500,
1.279913,-0.3055,-0.0920,-0.9331,0.3260,-0.2039,-0.0195,41.4750,10.2000,-4.6500,
1.281572,-0.1124,0.0300,-1.0339,0.3260,-0.2039,-0.0195,41.4750,10.2000,-4.6500,
1.300453,-0.1124,0.0300,-1.0339,0.3260,-0.2039,-0.0195,41.4750,10.2000,-4.6500,
1.303544,0.1048,0.0139,-0.9892,0.3260,-0.2039,-0.0195,41.4750,10.2000,-4.6500,
1.305375,0.1048,0.0139,-0.9892,0.3260,-0.2039,-0.0195,40.5750,11.1000,-5.0250,
1.318974,0.1048,0.0139,-0.9892,0.3260,-0.2039,-0.0195,40.5750,11.1000,-5.0250,
1.321810,0.2099,0.0948,-1.3282,0.3260,-0.2039,-0.0195,40.5750,11.1000,-5.0250,
1.334973,0.2099,0.0948,-1.3282,0.3260,-0.2039,-0.0195,40.5750,11.1000,-5.0250,
1.337209,-0.0042,0.3896,-1.9172,0.3260,-0.2039,-0.0195,40.5750,11.1000,-5.0250,
1.345419,-0.0042,0.3896,-1.9172,0.2660,-0.1933,-0.0275,40.5750,11.1000,-5.0250,
1.355935,-0.0042,0.3896,-1.9172,0.2660,-0.1933,-0.0275,40.5750,11.1000,-5.0250,
1.358190,0.0551,0.6768,-1.9957,0.2660,-0.1933,-0.0275,40.5750,11.1000,-5.0250,
1.377413,0.0551,0.6768,-1.9957,0.2660,-0.1933,-0.0275,41.1000,10.6500,-5.8500,
1.379763,0.0551,0.6768,-1.9957,0.2660,-0.1933,-0.0275,41.1000,10.6500,-5.8500,
1.381174,0.3027,0.7998,-2.2578,0.2660,-0.1933,-0.0275,41.1000,10.6500,-5.8500,
1.398094,0.3027,0.7998,-2.2578,0.2660,-0.1933,-0.0275,41.1000,10.6500,-5.8500,
1.400347,1.1136,1.0329,-2.9032,0.2660,-0.1933,-0.0275,41.1000,10.6500,-5.8500,
1.412484,1.1136,1.0329,-2.9032,0.1089,-0.1515,-0.0498,41.1000,10.6500,-5.8500,
1.417447,1.1136,1.0329,-2.9032,0.1089,-0.1515,-0.0498,41.1000,10.6500,-5.8500,
1.418991,1.1285,1.2771,-3.1087,0.1089,-0.1515,-0.0498,41.1000,10.6500,-5.8500,
1.440126,1.1285,1.2771,-3.1087,0.1089,-0.1515,-0.0498,41.1000,10.6500,-5.8500,
1.442693,-0.3051,1.3588,-2.1534,0.1089,-0.1515,-0.0498,41.1000,10.6500,-5.8500,
1.445071,-0.3051,1.3588,-2.1534,0.1089,-0.1515,-0.0498,41.4750,10.6500,-6.2250,
1.461169,-0.3051,1.3588,-2.1534,0.1089,-0.1515,-0.0498,41.4750,10.6500,-6.2250,
1.464347,-0.9371,1.5217,-2.8832,0.1089,-0.1515,-0.0498,41.4750,10.6500,-6.2250,
1.476265,-0.9371,1.5217,-2.8832,0.1089,-0.1515,-0.0498,41.4750,10.6500,-6.2250,
1.478185,-0.5190,2.3631,-3.6564,0.1089,-0.1515,-0.0498,41.4750,10.6500,-6.2250,
1.480679,-0.5190,2.3631,-3.6564,0.0092,-0.1095,0.0388,41.4750,10.6500,-6.2250,
1.496756,-0.5190,2.3631,-3.6564,0.0092,-0.1095,0.0388,41.4750,10.6500,-6.2250,
1.497907,0.3874,3.3417,-3.7384,0.0092,-0.1095,0.0388,41.4750,10.6500,-6.2250,
1.512088,0.3874,3.3417,-3.7384,0.0092,-0.1095,0.0388,40.5000,10.8000,-6.0750,
1.513915,0.3874,3.3417,-3.7384,0.0092,-0.1095,0.0388,40.5000,10.8000,-6.0750,
1.515387,0.6833,3.7361,-3.3147,0.0092,-0.1095,0.0388,40.5000,10.8000,-6.0750,
1.536327,0.6833,3.7361,-3.3147,0.0092,-0.1095,0.0388,40.5000,10.8000,-6.0750,
1.538019,0.0547,3.8629,-3.6946,0.0092,-0.1095,0.0388,40.5000,10.8000,-6.0750,
1.551152,0.0547,3.8629,-3.6946,-0.0163,-0.2207,-0.0525,40.5000,10.8000,-6.0750,
1.557172,0.0547,3.8629,-3.6946,-0.0163,-0.2207,-0.0525,40.5000,10.8000,-6.0750,
1.558828,-1.0660,5.2056,-5.3130,-0.0163,-0.2207,-0.0525,40.5000,10.8000,-6.0750,
1.571301,-1.0660,5.2056,-5.3130,-0.0163,-0.2207,-0.0525,40.5000,10.8000,-6.0750,
1.573008,-0.8142,7.8395,-7.3249,-0.0163,-0.2207,-0.0525,40.5000,10.8000,-6.0750,
1.582030,-0.8142,7.8395,-7.3249,-0.0163,-0.2207,-0.0525,41.4750,11.2500,-6.0750,
1.594812,-0.8142,7.8395,-7.3249,-0.0163,-0.2207,-0.0525,41.4750,11.2500,-6.0750,
1.596532,0.3270,9.7970,-6.2626,-0.0163,-0.2207,-0.0525,41.4750,11.2500,-6.0750,
1.613333,0.3270,9.7970,-6.2626,-0.0163,-0.2207,-0.0525,41.4750,11.2500,-6.0750,
1.615649,0.9429,8.7892,-5.6303,-0.0163,-0.2207,-0.0525,41.4750,11.2500,-6.0750,
1.618177,0.9429,8.7892,-5.6303,-0.5611,-0.4340,-0.0400,41.4750,11.2500,-6.0750,
1.633158,0.9429,8.7892,-5.6303,-0.5611,-0.4340,-0.0400,41.4750,11.2500,-6.0750,
1.635741,0.4070,6.5541,-5.1732,-0.5611,-0.4340,-0.0400,41.4750,11.2500,-6.0750,
1.652058,0.4070,6.5541,-5.1732,-0.5611,-0.4340,-0.0400,41.4750,11.2500,-6.0750,
1.654427,-0.3668,5.1051,-4.6276,-0.5611,-0.4340,-0.0400,41.4750,11.2500,-6.0750,
1.656798,-0.3668,5.1051,-4.6276,-0.5611,-0.4340,-0.0400,41.1000,11.2500,-6.2250,
1.678942,-0.3668,5.1051,-4.6276,-0.5611,-0.4340,-0.0400,41.1000,11.2500,-6.2250,
1.680191,0.3133,4.7045,-4.0635,-0.5611,-0.4340,-0.0400,41.1000,11.2500,-6.2250,
1.694065,0.3133,4.7045,-4.0635,-0.6990,-0.4186,-0.0710,41.1000,11.2500,-6.2250,
1.697084,0.3133,4.7045,-4.0635,-0.6990,-0.4186,-0.0710,41.1000,11.2500,-6.2250,
1.698620,1.8153,2.0559,-2.9888,-0.6990,-0.4186,-0.0710,41.1000,11.2500,-6.2250,
1.717783,1.8153,2.0559,-2.9888,-0.6990,-0.4186,-0.0710,41.1000,11.2500,-6.2250,
1.719550,2.1926,-2.2544,-4.0386,-0.6990,-0.4186,-0.0710,41.1000,11.2500,-6.2250,
1.721273,2.1926,-2.2544,-4.0386,-0.6990,-0.4186,-0.0710,40.8750,11.8500,-7.1250,
1.736219,2.1926,-2.2544,-4.0386,-0.6990,-0.4186,-0.0710,40.8750,11.8500,-7.1250,
1.739363,1.0829,-4.8000,-5.9330,-0.6990,-0.4186,-0.0710,40.8750,11.8500,-7.1250,
1.756571,1.0829,-4.8000,-5.9330,-0.6990,-0.4186,-0.0710,40.8750,11.8500,-7.1250,
1.759383,-0.6481,-3.4720,-7.0022,-0.6990,-0.4186,-0.0710,40.8750,11.8500,-7.1250,
1.761512,-0.6481,-3.4720,-7.0022,0.2138,-0.1947,-0.1336,40.8750,11.8500,-7.1250,
1.776925,-0.6481,-3.4720,-7.0022,0.2138,-0.1947,-0.1336,40.8750,11.8500,-7.1250,
1.779571,-0.0895,-3.0921,-5.4137,0.2138,-0.1947,-0.1336,40.8750,11.8500,-7.1250,
1.784577,-0.0895,-3.0921,-5.4137,0.2138,-0.1947,-0.1336,40.5750,12.6000,-6.5250,
1.794525,-0.0895,-3.0921,-5.4137,0.2138,-0.1947,-0.1336,40.5750,12.6000,-6.5250,
1.796937,0.3287,-3.8509,-10.2335,0.2138,-0.1947,-0.1336,40.5750,12.6000,-6.5250,
1.814869,0.3287,-3.8509,-10.2335,0.2138,-0.1947,-0.1336,40.5750,12.6000,-6.5250,
1.816360,-0.8069,-1.5147,-8.3520,0.2138,-0.1947,-0.1336,40.5750,12.6000,-6.5250,
1.828849,-0.8069,-1.5147,-8.3520,0.9037,0.5606,0.0901,40.5750,12.6000,-6.5250,
1.833707,-0.8069,-1.5147,-8.3520,0.9037,0.5606,0.0901,40.5750,12.6000,-6.5250,
1.835017,0.2315,0.8615,-3.0326,0.9037,0.5606,0.0901,40.5750,12.6000,-6.5250,
1.854106,0.2315,0.8615,-3.0326,0.9037,0.5606,0.0901,40.5750,12.6000,-6.5250,
1.855534,-1.4068,0.7623,-2.3630,0.9037,0.5606,0.0901,40.5750,12.6000,-6.5250,
1.856780,-1.4068,0.7623,-2.3630,0.9037,0.5606,0.0901,40.3500,12.7500,-5.8500,
1.870522,-1.4068,0.7623,-2.3630,0.9037,0.5606,0.0901,40.3500,12.7500,-5.8500,
1.872555,-5.1986,-0.9026,11.6262,0.9037,0.5606,0.0901,40.3500,12.7500,-5.8500,
1.894649,-5.1986,-0.9026,11.6262,0.9037,0.5606,0.0901,40.3500,12.7500,-5.8500,
1.895635,-0.6362,-5.1823,17.5864,0.9037,0.5606,0.0901,40.3500,12.7500,-5.8500,
1.896856,-0.6362,-5.1823,17.5864,0.1666,0.2973,-0.4054,40.3500,12.7500,-5.8500,
1.913765,-0.6362,-5.1823,17.5864,0.1666,0.2973,-0.4054,40.3500,12.7500,-5.8500,
1.915157,-0.8130,-21.5050,37.4629,0.1666,0.2973,-0.4054,40.3500,12.7500,-5.8500,
1.922679,-0.8130,-21.5050,37.4629,0.1666,0.2973,-0.4054,40.9500,12.7500,-3.4500,
1.937562,-0.8130,-21.5050,37.4629,0.1666,0.2973,-0.4054,40.9500,12.7500,-3.4500,
1.939201,-0.0990,-66.6505,18.8648,0.1666,0.2973,-0.4054,40.9500,12.7500,-3.4500,
1.959087,-0.0990,-66.6505,18.8648,0.1666,0.2973,-0.4054,40.9500,12.7500,-3.4500,
1.960692,-3.8779,-26.7891,26.2818,0.1666,0.2973,-0.4054,40.9500,12.7500,-3.4500,
1.972138,-3.8779,-26.7891,26.2818,6.0924,-0.4137,-0.3664,40.9500,12.7500,-3.4500,
1.977119,-3.8779,-26.7891,26.2818,6.0924,-0.4137,-0.3664,40.9500,12.7500,-3.4500,
1.978866,9.2727,14.6214,-22.4896,6.0924,-0.4137,-0.3664,40.9500,12.7500,-3.4500,
1.995260,9.2727,14.6214,-22.4896,6.0924,-0.4137,-0.3664,40.9500,12.7500,-3.4500,
1.996664,6.6043,52.0281,-23.9752,6.0924,-0.4137,-0.3664,40.9500,12.7500,-3.4500,
1.998016,6.6043,52.0281,-23.9752,6.0924,-0.4137,-0.3664,39.3000,12.7500,-6.7500,
2.014644,6.6043,52.0281,-23.9752,6.0924,-0.4137,-0.3664,39.3000,12.7500,-6.7500,
2.018626,-4.7325,27.6086,-7.4067,6.0924,-0.4137,-0.3664,39.3000,12.7500,-6.7500,
2.033701,-4.7325,27.6086,-7.4067,6.0924,-0.4137,-0.3664,39.3000,12.7500,-6.7500,
2.036946,-3.6756,12.0032,-8.9369,6.0924,-0.4137,-0.3664,39.3000,12.7500,-6.7500,
2.039586,-3.6756,12.0032,-8.9369,3.1048,0.7952,0.0304,39.3000,12.7500,-6.7500,
2.054349,-3.6756,12.0032,-8.9369,3.1048,0.7952,0.0304,39.3000,12.7500,-6.7500,
2.056572,-3.5390,2.0011,-0.9558,3.1048,0.7952,0.0304,39.3000,12.7500,-6.7500,
2.063391,-3.5390,2.0011,-0.9558,3.1048,0.7952,0.0304,39.7500,9.2250,-9.9750,
2.069203,-3.5390,2.0011,-0.9558,3.1048,0.7952,0.0304,39.7500,9.2250,-9.9750,
2.071266,-3.9981,-1.7927,1.0448,3.1048,0.7952,0.0304,39.7500,9.2250,-9.9750,
2.092431,-3.9981,-1.7927,1.0448,3.1048,0.7952,0.0304,39.7500,9.2250,-9.9750,
2.094785,-1.6795,-1.0130,3.0908,3.1048,0.7952,0.0304,39.7500,9.2250,-9.9750,
2.108041,-1.6795,-1.0130,3.0908,1.7675,0.1342,0.1280,39.7500,9.2250,-9.9750,
2.112330,-1.6795,-1.0130,3.0908,1.7675,0.1342,0.1280,39.7500,9.2250,-9.9750,
2.113769,3.2702,2.4038,8.5951,1.7675,0.1342,0.1280,39.7500,9.2250,-9.9750,
2.131726,3.2702,2.4038,8.5951,1.7675,0.1342,0.1280,39.7500,9.2250,-9.9750,
2.132901,6.9284,7.9337,12.2374,1.7675,0.1342,0.1280,39.7500,9.2250,-9.9750,
2.134231,6.9284,7.9337,12.2374,1.7675,0.1342,0.1280,39.3000,7.2000,-9.6750,
2.150996,6.9284,7.9337,12.2374,1.7675,0.1342,0.1280,39.3000,7.2000,-9.6750,
2.152347,9.8400,10.9605,13.2454,1.7675,0.1342,0.1280,39.3000,7.2000,-9.6750,
2.168804,9.8400,10.9605,13.2454,1.7675,0.1342,0.1280,39.3000,7.2000,-9.6750,
2.170588,7.0555,9.9749,10.0472,1.7675,0.1342,0.1280,39.3000,7.2000,-9.6750,
2.179791,7.0555,9.9749,10.0472,2.2023,0.5869,-0.3325,39.3000,7.2000,-9.6750,
2.192205,7.0555,9.9749,10.0472,2.2023,0.5869,-0.3325,39.3000,7.2000,-9.6750,
2.193944,0.3569,7.9071,3.1487,2.2023,0.5869,-0.3325,39.3000,7.2000,-9.6750,
2.200718,0.3569,7.9071,3.1487,2.2023,0.5869,-0.3325,40.0500,6.1500,-9.7500,
2.209526,0.3569,7.9071,3.1487,2.2023,0.5869,-0.3325,40.0500,6.1500,-9.7500,
2.211109,-1.8227,4.4647,-0.9663,2.2023,0.5869,-0.3325,40.0500,6.1500,-9.7500,
2.234689,-1.8227,4.4647,-0.9663,2.2023,0.5869,-0.3325,40.0500,6.1500,-9.7500,
2.237734,-1.0351,2.3443,-3.5304,2.2023,0.5869,-0.3325,40.0500,6.1500,-9.7500,
2.248498,-1.0351,2.3443,-3.5304,0.5918,0.4183,-0.3619,40.0500,6.1500,-9.7500,
2.258025,-1.0351,2.3443,-3.5304,0.5918,0.4183,-0.3619,40.0500,6.1500,-9.7500,
2.259559,-0.2612,0.5017,-2.7681,0.5918,0.4183,-0.3619,40.0500,6.1500,-9.7500,
2.268809,-0.2612,0.5017,-2.7681,0.5918,0.4183,-0.3619,40.0500,6.1500,-9.7500,
2.270273,0.1025,-0.7271,-0.7394,0.5918,0.4183,-0.3619,40.0500,6.1500,-9.7500,
2.279493,0.1025,-0.7271,-0.7394,0.5918,0.4183,-0.3619,39.6000,7.0500,-8.8500,
2.293369,0.1025,-0.7271,-0.7394,0.5918,0.4183,-0.3619,39.6000,7.0500,-8.8500,
2.295936,-0.0505,-1.4238,-0.2177,0.5918,0.4183,-0.3619,39.6000,7.0500,-8.8500,
2.313312,-0.0505,-1.4238,-0.2177,0.5918,0.4183,-0.3619,39.6000,7.0500,-8.8500,
2.316262,-1.0286,-1.4743,-0.6829,0.5918,0.4183,-0.3619,39.6000,7.0500,-8.8500,
2.318896,-1.0286,-1.4743,-0.6829,0.6843,0.4080,-0.1002,39.6000,7.0500,-8.8500,
2.332603,-1.0286,-1.4743,-0.6829,0.6843,0.4080,-0.1002,39.6000,7.0500,-8.8500,
2.334842,-2.3542,-0.4198,-0.0823,0.6843,0.4080,-0.1002,39.6000,7.0500,-8.8500,
2.342172,-2.3542,-0.4198,-0.0823,0.6843,0.4080,-0.1002,39.7500,7.7250,-7.7250,
2.352002,-2.3542,-0.4198,-0.0823,0.6843,0.4080,-0.1002,39.7500,7.7250,-7.7250,
2.354160,-3.0334,1.3475,1.1984,0.6843,0.4080,-0.1002,39.7500,7.7250,-7.7250,
2.371612,-3.0334,1.3475,1.1984,0.6843,0.4080,-0.1002,39.7500,7.7250,-7.7250,
2.373897,-2.9629,2.8661,1.4351,0.6843,0.4080,-0.1002,39.7500,7.7250,-7.7250,
2.385746,-2.9629,2.8661,1.4351,1.0821,-0.1547,0.0029,39.7500,7.7250,-7.7250,
2.392914,-2.9629,2.8661,1.4351,1.0821,-0.1547,0.0029,39.7500,7.7250,-7.7250,
2.394241,-2.1954,3.3736,-0.3611,1.0821,-0.1547,0.0029,39.7500,7.7250,-7.7250,
2.410903,-2.1954,3.3736,-0.3611,1.0821,-0.1547,0.0029,39.7500,7.7250,-7.7250,
2.413471,-1.3833,3.3142,-1.6519,1.0821,-0.1547,0.0029,39.7500,7.7250,-7.7250,
2.415366,-1.3833,3.3142,-1.6519,1.0821,-0.1547,0.0029,40.0500,7.5000,-7.8750,
2.432029,-1.3833,3.3142,-1.6519,1.0821,-0.1547,0.0029,40.0500,7.5000,-7.8750,
2.433465,-0.7944,3.1287,-2.1340,1.0821,-0.1547,0.0029,40.0500,7.5000,-7.8750,
2.445729,-0.7944,3.1287,-2.1340,1.0821,-0.1547,0.0029,40.0500,7.5000,-7.8750,
2.447176,-0.2256,2.5065,-2.1917,1.0821,-0.1547,0.0029,40.0500,7.5000,-7.8750,
2.456607,-0.2256,2.5065,-2.1917,0.5458,-0.2831,0.0678,40.0500,7.5000,-7.8750,
2.465515,-0.2256,2.5065,-2.1917,0.5458,-0.2831,0.0678,40.0500,7.5000,-7.8750,
2.467047,0.2146,1.7764,-1.1975,0.5458,-0.2831,0.0678,40.0500,7.5000,-7.8750,
2.482303,0.2146,1.7764,-1.1975,0.5458,-0.2831,0.0678,39.4500,7.0500,-8.9250,
2.487133,0.2146,1.7764,-1.1975,0.5458,-0.2831,0.0678,39.4500,7.0500,-8.9250,
2.488436,0.6852,1.1341,0.1065,0.5458,-0.2831,0.0678,39.4500,7.0500,-8.9250,
2.511822,0.6852,1.1341,0.1065,0.5458,-0.2831,0.0678,39.4500,7.0500,-8.9250,
2.513502,1.0592,0.6471,0.5722,0.5458,-0.2831,0.0678,39.4500,7.0500,-8.9250,
2.522399,1.0592,0.6471,0.5722,-0.1025,0.0269,0.0567,39.4500,7.0500,-8.9250,
2.527640,1.0592,0.6471,0.5722,-0.1025,0.0269,0.0567,39.4500,7.0500,-8.9250,
2.529086,1.1216,0.4511,0.2059,-0.1025,0.0269,0.0567,39.4500,7.0500,-8.9250,
2.547498,1.1216,0.4511,0.2059,-0.1025,0.0269,0.0567,39.4500,7.0500,-8.9250,
2.549048,0.8868,0.3204,0.3429,-0.1025,0.0269,0.0567,39.4500,7.0500,-8.9250,
2.551272,0.8868,0.3204,0.3429,-0.1025,0.0269,0.0567,40.0500,6.3000,-9.2250,
2.568984,0.8868,0.3204,0.3429,-0.1025,0.0269,0.0567,40.0500,6.3000,-9.2250,
2.570943,0.2065,-0.3144,0.6713,-0.1025,0.0269,0.0567,40.0500,6.3000,-9.2250,
2.587406,0.2065,-0.3144,0.6713,-0.1025,0.0269,0.0567,40.0500,6.3000,-9.2250,
2.589218,0.1964,-0.9111,1.3657,-0.1025,0.0269,0.0567,40.0500,6.3000,-9.2250,
2.595987,0.1964,-0.9111,1.3657,-0.1694,-0.1564,-0.0119,40.0500,6.3000,-9.2250,
2.610326,0.1964,-0.9111,1.3657,-0.1694,-0.1564,-0.0119,40.0500,6.3000,-9.2250,
2.613052,0.4008,-1.2023,1.5606,-0.1694,-0.1564,-0.0119,40.0500,6.3000,-9.2250,
2.624977,0.4008,-1.2023,1.5606,-0.1694,-0.1564,-0.0119,39.7500,7.0500,-9.4500,
2.630264,0.4008,-1.2023,1.5606,-0.1694,-0.1564,-0.0119,39.7500,7.0500,-9.4500,
2.632034,0.5050,-0.8505,0.1266,-0.1694,-0.1564,-0.0119,39.7500,7.0500,-9.4500,
2.649995,0.5050,-0.8505,0.1266,-0.1694,-0.1564,-0.0119,39.7500,7.0500,-9.4500,
2.652684,0.3323,0.1432,-0.2727,-0.1694,-0.1564,-0.0119,39.7500,7.0500,-9.4500,
2.664583,0.3323,0.1432,-0.2727,0.0246,-0.1778,0.0774,39.7500,7.0500,-9.4500,
2.669033,0.3323,0.1432,-0.2727,0.0246,-0.1778,0.0774,39.7500,7.0500,-9.4500,
2.670562,0.2224,0.7639,-0.0476,0.0246,-0.1778,0.0774,39.7500,7.0500,-9.4500,
2.691027,0.2224,0.7639,-0.0476,0.0246,-0.1778,0.0774,39.7500,7.0500,-9.4500,
2.693612,0.2014,0.3392,-0.1034,0.0246,-0.1778,0.0774,39.7500,7.0500,-9.4500,
2.695462,0.2014,0.3392,-0.1034,0.0246,-0.1778,0.0774,39.9000,6.4500,-10.1250,
2.709118,0.2014,0.3392,-0.1034,0.0246,-0.1778,0.0774,39.9000,6.4500,-10.1250,
2.711782,0.6650,-0.1172,0.1374,0.0246,-0.1778,0.0774,39.9000,6.4500,-10.1250,
2.726552,0.6650,-0.1172,0.1374,0.0246,-0.1778,0.0774,39.9000,6.4500,-10.1250,
2.729777,0.8114,-0.1619,-0.6513,0.0246,-0.1778,0.0774,39.9000,6.4500,-10.1250,
2.733287,0.8114,-0.1619,-0.6513,-0.0646,0.0814,0.0851,39.9000,6.4500,-10.1250,
2.747862,0.8114,-0.1619,-0.6513,-0.0646,0.0814,0.0851,39.9000,6.4500,-10.1250,
2.749661,0.6271,0.1552,-0.7788,-0.0646,0.0814,0.0851,39.9000,6.4500,-10.1250,
2.760988,0.6271,0.1552,-0.7788,-0.0646,0.0814,0.0851,40.2000,6.1500,-9.7500,
2.767113,0.6271,0.1552,-0.7788,-0.0646,0.0814,0.0851,40.2000,6.1500,-9.7500,
2.768415,0.6261,0.3962,-0.2639,-0.0646,0.0814,0.0851,40.2000,6.1500,-9.7500,
2.787765,0.6261,0.3962,-0.2639,-0.0646,0.0814,0.0851,40.2000,6.1500,-9.7500,
2.790444,0.2695,0.4303,0.7019,-0.0646,0.0814,0.0851,40.2000,6.1500,-9.7500,
2.812632,0.2695,0.4303,0.7019,-0.0443,0.0293,-0.1087,40.2000,6.1500,-9.7500,
2.815806,0.2695,0.4303,0.7019,-0.0443,0.0293,-0.1087,40.2000,6.1500,-9.7500,
2.818304,0.1144,0.4509,-0.4443,-0.0443,0.0293,-0.1087,40.2000,6.1500,-9.7500,
2.831678,0.1144,0.4509,-0.4443,-0.0443,0.0293,-0.1087,40.2000,6.1500,-9.7500,
2.833721,0.2177,0.8971,-0.4369,-0.0443,0.0293,-0.1087,40.2000,6.1500,-9.7500,
2.835841,0.2177,0.8971,-0.4369,-0.0443,0.0293,-0.1087,40.0500,6.5250,-10.0500,
2.846040,0.2177,0.8971,-0.4369,-0.0443,0.0293,-0.1087,40.0500,6.5250,-10.0500,
2.848551,0.2850,1.4322,-0.5723,-0.0443,0.0293,-0.1087,40.0500,6.5250,-10.0500,
2.869221,0.2850,1.4322,-0.5723,-0.0443,0.0293,-0.1087,40.0500,6.5250,-10.0500,
2.873122,0.2960,1.4419,-1.2660,-0.0443,0.0293,-0.1087,40.0500,6.5250,-10.0500,
2.876978,0.2960,1.4419,-1.2660,-0.0476,-0.0770,-0.0470,40.0500,6.5250,-10.0500,
2.890335,0.2960,1.4419,-1.2660,-0.0476,-0.0770,-0.0470,40.0500,6.5250,-10.0500,
2.893399,0.1532,0.7692,-0.6839,-0.0476,-0.0770,-0.0470,40.0500,6.5250,-10.0500,
2.901803,0.1532,0.7692,-0.6839,-0.0476,-0.0770,-0.0470,39.9000,6.6000,-10.8750,
2.909403,0.1532,0.7692,-0.6839,-0.0476,-0.0770,-0.0470,39.9000,6.6000,-10.8750,
2.912255,-0.1639,-0.0780,-0.3664,-0.0476,-0.0770,-0.0470,39.9000,6.6000,-10.8750,
2.929114,-0.1639,-0.0780,-0.3664,-0.0476,-0.0770,-0.0470,39.9000,6.6000,-10.8750,
2.932637,0.0953,-0.6834,-0.3666,-0.0476,-0.0770,-0.0470,39.9000,6.6000,-10.8750,
2.943454,0.0953,-0.6834,-0.3666,-0.3922,-0.0683,0.0403,39.9000,6.6000,-10.8750,
2.947960,0.0953,-0.6834,-0.3666,-0.3922,-0.0683,0.0403,39.9000,6.6000,-10.8750,
2.949667,0.7027,-0.8772,0.1551,-0.3922,-0.0683,0.0403,39.9000,6.6000,-10.8750,
2.967928,0.7027,-0.8772,0.1551,-0.3922,-0.0683,0.0403,39.9000,6.6000,-10.8750,
2.969548,0.3986,-0.7669,0.8607,-0.3922,-0.0683,0.0403,39.9000,6.6000,-10.8750,
2.973469,0.3986,-0.7669,0.8607,-0.3922,-0.0683,0.0403,39.3750,6.3000,-9.9750,
2.989595,0.3986,-0.7669,0.8607,-0.3922,-0.0683,0.0403,39.3750,6.3000,-9.9750,
2.992651,-0.0796,-0.0305,0.9843,-0.3922,-0.0683,0.0403,39.3750,6.3000,-9.9750,
3.010333,-0.0796,-0.0305,0.9843,-0.3922,-0.0683,0.0403,39.3750,6.3000,-9.9750,
3.012934,0.2324,1.0732,-0.1333,-0.3922,-0.0683,0.0403,39.3750,6.3000,-9.9750,
3.014587,0.2324,1.0732,-0.1333,-0.3160,-0.0086,0.0305,39.3750,6.3000,-9.9750,
3.026578,0.2324,1.0732,-0.1333,-0.3160,-0.0086,0.0305,39.3750,6.3000,-9.9750,
3.029028,0.1936,1.7586,-0.5034,-0.3160,-0.0086,0.0305,39.3750,6.3000,-9.9750,
3.041895,0.1936,1.7586,-0.5034,-0.3160,-0.0086,0.0305,39.7500,6.6000,-10.3500,
3.044317,0.1936,1.7586,-0.5034,-0.3160,-0.0086,0.0305,39.7500,6.6000,-10.3500,
3.045693,0.3055,1.6507,-0.8050,-0.3160,-0.0086,0.0305,39.7500,6.6000,-10.3500,
3.068815,0.3055,1.6507,-0.8050,-0.3160,-0.0086,0.0305,39.7500,6.6000,-10.3500,
3.071316,-0.2186,1.9397,-1.4916,-0.3160,-0.0086,0.0305,39.7500,6.6000,-10.3500,
3.085253,-0.2186,1.9397,-1.4916,-0.6441,-0.0307,-0.1258,39.7500,6.6000,-10.3500,
3.090403,-0.2186,1.9397,-1.4916,-0.6441,-0.0307,-0.1258,39.7500,6.6000,-10.3500,
3.092360,-0.4212,3.9726,-1.5987,-0.6441,-0.0307,-0.1258,39.7500,6.6000,-10.3500,
3.109478,-0.4212,3.9726,-1.5987,-0.6441,-0.0307,-0.1258,39.7500,6.6000,-10.3500,
3.111933,-0.4125,3.8613,-1.2475,-0.6441,-0.0307,-0.1258,39.7500,6.6000,-10.3500,
3.114060,-0.4125,3.8613,-1.2475,-0.6441,-0.0307,-0.1258,39.7500,7.0500,-9.5250,
3.130674,-0.4125,3.8613,-1.2475,-0.6441,-0.0307,-0.1258,39.7500,7.0500,-9.5250,
3.133219,-0.4771,1.9703,-0.9943,-0.6441,-0.0307,-0.1258,39.7500,7.0500,-9.5250,
3.148967,-0.4771,1.9703,-0.9943,-0.6441,-0.0307,-0.1258,39.7500,7.0500,-9.5250,
3.151658,-1.0888,0.0854,1.8757,-0.6441,-0.0307,-0.1258,39.7500,7.0500,-9.5250,
3.159938,-1.0888,0.0854,1.8757,-1.2971,-0.1266,-0.1523,39.7500,7.0500,-9.5250,
3.169081,-1.0888,0.0854,1.8757,-1.2971,-0.1266,-0.1523,39.7500,7.0500,-9.5250,
3.171092,-0.3410,-1.6951,2.6152,-1.2971,-0.1266,-0.1523,39.7500,7.0500,-9.5250,
3.181155,-0.3410,-1.6951,2.6152,-1.2971,-0.1266,-0.1523,38.8500,8.5500,-9.3750,
3.189189,-0.3410,-1.6951,2.6152,-1.2971,-0.1266,-0.1523,38.8500,8.5500,-9.3750,
3.191252,-0.2546,-1.6528,1.9655,-1.2971,-0.1266,-0.1523,38.8500,8.5500,-9.3750,
3.212287,-0.2546,-1.6528,1.9655,-1.2971,-0.1266,-0.1523,38.8500,8.5500,-9.3750,
3.214397,-0.7063,0.4112,2.2764,-1.2971,-0.1266,-0.1523,38.8500,8.5500,-9.3750,
3.226121,-0.7063,0.4112,2.2764,-1.0646,0.0476,0.1498,38.8500,8.5500,-9.3750,
3.229494,-0.7063,0.4112,2.2764,-1.0646,0.0476,0.1498,38.8500,8.5500,-9.3750,
3.231276,0.0405,2.3373,1.8723,-1.0646,0.0476,0.1498,38.8500,8.5500,-9.3750,
3.246758,0.0405,2.3373,1.8723,-1.0646,0.0476,0.1498,38.8500,8.5500,-9.3750,
3.248489,0.5088,2.4221,1.7909,-1.0646,0.0476,0.1498,38.8500,8.5500,-9.3750,
3.251578,0.5088,2.4221,1.7909,-1.0646,0.0476,0.1498,39.3750,9.1500,-8.2500,
3.266858,0.5088,2.4221,1.7909,-1.0646,0.0476,0.1498,39.3750,9.1500,-8.2500,
3.269284,0.4727,1.6761,1.6007,-1.0646,0.0476,0.1498,39.3750,9.1500,-8.2500,
3.285721,0.4727,1.6761,1.6007,-1.0646,0.0476,0.1498,39.3750,9.1500,-8.2500,
3.287739,0.4083,1.8202,1.8505,-1.0646,0.0476,0.1498,39.3750,9.1500,-8.2500,
3.293080,0.4083,1.8202,1.8505,-1.2298,0.1300,0.1674,39.3750,9.1500,-8.2500,
3.311491,0.4083,1.8202,1.8505,-1.2298,0.1300,0.1674,39.3750,9.1500,-8.2500,
3.314640,0.2812,2.1068,1.6977,-1.2298,0.1300,0.1674,39.3750,9.1500,-8.2500,
3.323238,0.2812,2.1068,1.6977,-1.2298,0.1300,0.1674,39.6750,9.5250,-7.9500,
3.331837,0.2812,2.1068,1.6977,-1.2298,0.1300,0.1674,39.6750,9.5250,-7.9500,
3.333791,0.1494,1.7987,0.0927,-1.2298,0.1300,0.1674,39.6750,9.5250,-7.9500,
3.349666,0.1494,1.7987,0.0927,-1.2298,0.1300,0.1674,39.6750,9.5250,-7.9500,
3.352137,0.1971,1.0509,0.3871,-1.2298,0.1300,0.1674,39.6750,9.5250,-7.9500,
3.364523,0.1971,1.0509,0.3871,-1.4390,0.0017,0.1202,39.6750,9.5250,-7.9500,
3.369016,0.1971,1.0509,0.3871,-1.4390,0.0017,0.1202,39.6750,9.5250,-7.9500,
3.370274,-0.5768,0.1524,1.2382,-1.4390,0.0017,0.1202,39.6750,9.5250,-7.9500,
3.388654,-0.5768,0.1524,1.2382,-1.4390,0.0017,0.1202,39.6750,9.5250,-7.9500,
3.391129,-0.6745,0.3617,-0.4768,-1.4390,0.0017,0.1202,39.6750,9.5250,-7.9500,
3.392427,-0.6745,0.3617,-0.4768,-1.4390,0.0017,0.1202,39.9750,9.2250,-6.0750,
3.411202,-0.6745,0.3617,-0.4768,-1.4390,0.0017,0.1202,39.9750,9.2250,-6.0750,
3.412988,0.1480,1.1284,-0.3190,-1.4390,0.0017,0.1202,39.9750,9.2250,-6.0750,
3.427918,0.1480,1.1284,-0.3190,-1.4390,0.0017,0.1202,39.9750,9.2250,-6.0750,
3.429663,0.0223,0.8139,-0.3929,-1.4390,0.0017,0.1202,39.9750,9.2250,-6.0750,
3.432327,0.0223,0.8139,-0.3929,-1.6763,-0.2492,0.0928,39.9750,9.2250,-6.0750,
3.447507,0.0223,0.8139,-0.3929,-1.6763,-0.2492,0.0928,39.9750,9.2250,-6.0750,
3.449706,-0.2811,-0.7598,0.1676,-1.6763,-0.2492,0.0928,39.9750,9.2250,-6.0750,
3.461369,-0.2811,-0.7598,0.1676,-1.6763,-0.2492,0.0928,40.0500,9.6000,-6.3750,
3.466480,-0.2811,-0.7598,0.1676,-1.6763,-0.2492,0.0928,40.0500,9.6000,-6.3750,
3.467986,-0.3502,-1.2238,0.4167,-1.6763,-0.2492,0.0928,40.0500,9.6000,-6.3750,
3.486912,-0.3502,-1.2238,0.4167,-1.6763,-0.2492,0.0928,40.0500,9.6000,-6.3750,
3.488097,0.2056,0.4140,-0.7156,-1.6763,-0.2492,0.0928,40.0500,9.6000,-6.3750,
3.501387,0.2056,0.4140,-0.7156,-1.6934,-0.3444,-0.0510,40.0500,9.6000,-6.3750,
3.506362,0.2056,0.4140,-0.7156,-1.6934,-0.3444,-0.0510,40.0500,9.6000,-6.3750,
3.508293,0.6298,0.9218,-0.8113,-1.6934,-0.3444,-0.0510,40.0500,9.6000,-6.3750,
3.526058,0.6298,0.9218,-0.8113,-1.6934,-0.3444,-0.0510,40.0500,9.6000,-6.3750,
3.527830,0.2009,-0.6470,0.0253,-1.6934,-0.3444,-0.0510,40.0500,9.6000,-6.3750,
3.532901,0.2009,-0.6470,0.0253,-1.6934,-0.3444,-0.0510,40.0500,11.1000,-5.8500,
3.545616,0.2009,-0.6470,0.0253,-1.6934,-0.3444,-0.0510,40.0500,11.1000,-5.8500,
3.547102,-0.0511,-1.7160,0.0739,-1.6934,-0.3444,-0.0510,40.0500,11.1000,-5.8500,
3.565079,-0.0511,-1.7160,0.0739,-1.6934,-0.3444,-0.0510,40.0500,11.1000,-5.8500,
3.566628,-0.2514,-0.4591,-0.5336,-1.6934,-0.3444,-0.0510,40.0500,11.1000,-5.8500,
3.569989,-0.2514,-0.4591,-0.5336,-1.7634,-0.2201,-0.0675,40.0500,11.1000,-5.8500,
3.584994,-0.2514,-0.4591,-0.5336,-1.7634,-0.2201,-0.0675,40.0500,11.1000,-5.8500,
3.587221,0.0549,0.8092,-1.3021,-1.7634,-0.2201,-0.0675,40.0500,11.1000,-5.8500,
3.601770,0.0549,0.8092,-1.3021,-1.7634,-0.2201,-0.0675,40.3500,11.8500,-5.3250,
3.604342,0.0549,0.8092,-1.3021,-1.7634,-0.2201,-0.0675,40.3500,11.8500,-5.3250,
3.606319,-0.3822,0.2893,-0.1868,-1.7634,-0.2201,-0.0675,40.3500,11.8500,-5.3250,
3.619287,-0.3822,0.2893,-0.1868,-1.7634,-0.2201,-0.0675,40.3500,11.8500,-5.3250,
3.622153,-0.2751,-0.7158,0.2603,-1.7634,-0.2201,-0.0675,40.3500,11.8500,-5.3250,
3.637797,-0.2751,-0.7158,0.2603,-1.8367,-0.0950,0.0234,40.3500,11.8500,-5.3250,
3.642644,-0.2751,-0.7158,0.2603,-1.8367,-0.0950,0.0234,40.3500,11.8500,-5.3250,
3.644409,-0.3231,-0.8346,0.0583,-1.8367,-0.0950,0.0234,40.3500,11.8500,-5.3250,
3.662490,-0.3231,-0.8346,0.0583,-1.8367,-0.0950,0.0234,40.3500,11.8500,-5.3250,
3.665145,-0.5518,0.0610,-0.5933,-1.8367,-0.0950,0.0234,40.3500,11.8500,-5.3250,
3.675737,-0.5518,0.0610,-0.5933,-1.8367,-0.0950,0.0234,39.6750,12.1500,-4.2750,
3.688586,-0.5518,0.0610,-0.5933,-1.8367,-0.0950,0.0234,39.6750,12.1500,-4.2750,
3.691354,0.0624,0.8566,-0.4414,-1.8367,-0.0950,0.0234,39.6750,12.1500,-4.2750,
3.702164,0.0624,0.8566,-0.4414,-1.8367,-0.0950,0.0234,39.6750,12.1500,-4.2750,
3.704060,0.4385,0.8641,-0.0944,-1.8367,-0.0950,0.0234,39.6750,12.1500,-4.2750,
3.713065,0.4385,0.8641,-0.0944,-1.7295,-0.0415,0.1463,39.6750,12.1500,-4.2750,
3.726583,0.4385,0.8641,-0.0944,-1.7295,-0.0415,0.1463,39.6750,12.1500,-4.2750,
3.728966,-0.0570,-0.0645,0.0421,-1.7295,-0.0415,0.1463,39.6750,12.1500,-4.2750,
3.736792,-0.0570,-0.0645,0.0421,-1.7295,-0.0415,0.1463,39.7500,12.5250,-2.9250,
3.745626,-0.0570,-0.0645,0.0421,-1.7295,-0.0415,0.1463,39.7500,12.5250,-2.9250,
3.746818,-0.2575,-0.2849,-0.4569,-1.7295,-0.0415,0.1463,39.7500,12.5250,-2.9250,
3.766518,-0.2575,-0.2849,-0.4569,-1.7295,-0.0415,0.1463,39.7500,12.5250,-2.9250,
3.768489,0.0045,0.4434,-0.7665,-1.7295,-0.0415,0.1463,39.7500,12.5250,-2.9250,
3.780863,0.0045,0.4434,-0.7665,-1.6662,-0.0174,0.1410,39.7500,12.5250,-2.9250,
3.786109,0.0045,0.4434,-0.7665,-1.6662,-0.0174,0.1410,39.7500,12.5250,-2.9250,
3.787534,-0.2054,0.9943,-0.3959,-1.6662,-0.0174,0.1410,39.7500,12.5250,-2.9250,
3.806857,-0.2054,0.9943,-0.3959,-1.6662,-0.0174,0.1410,39.7500,12.5250,-2.9250,
3.808872,-0.2706,1.0632,-0.4235,-1.6662,-0.0174,0.1410,39.7500,12.5250,-2.9250,
3.810526,-0.2706,1.0632,-0.4235,-1.6662,-0.0174,0.1410,40.2750,12.5250,-1.5750,
3.820646,-0.2706,1.0632,-0.4235,-1.6662,-0.0174,0.1410,40.2750,12.5250,-1.5750,
3.822044,0.0586,0.6196,-0.2700,-1.6662,-0.0174,0.1410,40.2750,12.5250,-1.5750,
3.844650,0.0586,0.6196,-0.2700,-1.6662,-0.0174,0.1410,40.2750,12.5250,-1.5750,
3.847858,0.3450,0.1200,-0.3382,-1.6662,-0.0174,0.1410,40.2750,12.5250,-1.5750,
3.849887,0.3450,0.1200,-0.3382,-1.6849,-0.0730,0.1859,40.2750,12.5250,-1.5750,
3.863909,0.3450,0.1200,-0.3382,-1.6849,-0.0730,0.1859,40.2750,12.5250,-1.5750,
3.867537,0.2333,0.1276,-0.1485,-1.6849,-0.0730,0.1859,40.2750,12.5250,-1.5750,
3.876360,0.2333,0.1276,-0.1485,-1.6849,-0.0730,0.1859,40.3500,12.4500,-0.3750,
3.883205,0.2333,0.1276,-0.1485,-1.6849,-0.0730,0.1859,40.3500,12.4500,-0.3750,
3.885293,0.2232,0.4985,-0.1007,-1.6849,-0.0730,0.1859,40.3500,12.4500,-0.3750,
3.902534,0.2232,0.4985,-0.1007,-1.6849,-0.0730,0.1859,40.3500,12.4500,-0.3750,
3.905907,0.2955,0.7769,-0.1816,-1.6849,-0.0730,0.1859,40.3500,12.4500,-0.3750,
3.917220,0.2955,0.7769,-0.1816,-1.6475,0.0202,0.1258,40.3500,12.4500,-0.3750,
3.920529,0.2955,0.7769,-0.1816,-1.6475,0.0202,0.1258,40.3500,12.4500,-0.3750,
3.922456,0.3161,0.9187,-0.2900,-1.6475,0.0202,0.1258,40.3500,12.4500,-0.3750,
3.941047,0.3161,0.9187,-0.2900,-1.6475,0.0202,0.1258,40.3500,12.4500,-0.3750,
3.943955,0.2532,0.8690,-0.0951,-1.6475,0.0202,0.1258,40.3500,12.4500,-0.3750,
3.945749,0.2532,0.8690,-0.0951,-1.6475,0.0202,0.1258,40.8750,11.4000,0.2250,
3.961538,0.2532,0.8690,-0.0951,-1.6475,0.0202,0.1258,40.8750,11.4000,0.2250,
3.965475,0.1701,0.6184,0.0088,-1.6475,0.0202,0.1258,40.8750,11.4000,0.2250,
3.980377,0.1701,0.6184,0.0088,-1.6475,0.0202,0.1258,40.8750,11.4000,0.2250,
3.981951,0.1329,0.4851,-0.3258,-1.6475,0.0202,0.1258,40.8750,11.4000,0.2250,
3.985102,0.1329,0.4851,-0.3258,-1.5700,0.0493,0.1374,40.8750,11.4000,0.2250,
4.000191,0.1329,0.4851,-0.3258,-1.5700,0.0493,0.1374,40.8750,11.4000,0.2250,
4.002543,0.0870,0.5340,-0.4924,-1.5700,0.0493,0.1374,40.8750,11.4000,0.2250,
4.011549,0.0870,0.5340,-0.4924,-1.5700,0.0493,0.1374,41.1000,11.0250,1.9500,
4.019499,0.0870,0.5340,-0.4924,-1.5700,0.0493,0.1374,41.1000,11.0250,1.9500,
4.021481,-0.0031,0.5858,-0.0681,-1.5700,0.0493,0.1374,41.1000,11.0250,1.9500,
4.038931,-0.0031,0.5858,-0.0681,-1.5700,0.0493,0.1374,41.1000,11.0250,1.9500,
4.041022,-0.0092,0.4379,0.2711,-1.5700,0.0493,0.1374,41.1000,11.0250,1.9500,
4.058184,-0.0092,0.4379,0.2711,-1.6554,0.0501,0.0757,41.1000,11.0250,1.9500,
4.060094,-0.0092,0.4379,0.2711,-1.6554,0.0501,0.0757,41.1000,11.0250,1.9500,
4.061149,0.0351,0.4405,0.5811,-1.6554,0.0501,0.0757,41.1000,11.0250,1.9500,
4.078550,0.0351,0.4405,0.5811,-1.6554,0.0501,0.0757,41.1000,11.0250,1.9500,
4.080556,0.1052,0.6416,0.7782,-1.6554,0.0501,0.0757,41.1000,11.0250,1.9500,
4.082351,0.1052,0.6416,0.7782,-1.6554,0.0501,0.0757,41.2500,10.5000,3.7500,
4.098034,0.1052,0.6416,0.7782,-1.6554,0.0501,0.0757,41.2500,10.5000,3.7500,
4.100467,0.5036,0.6628,0.4519,-1.6554,0.0501,0.0757,41.2500,10.5000,3.7500,
4.119082,0.5036,0.6628,0.4519,-1.6554,0.0501,0.0757,41.2500,10.5000,3.7500,
4.121717,0.2320,0.3326,0.8646,-1.6554,0.0501,0.0757,41.2500,10.5000,3.7500,
4.126866,0.2320,0.3326,0.8646,-1.5274,0.2172,0.0790,41.2500,10.5000,3.7500,
4.143946,0.2320,0.3326,0.8646,-1.5274,0.2172,0.0790,41.2500,10.5000,3.7500,
4.145974,0.2810,-0.2199,0.4138,-1.5274,0.2172,0.0790,41.2500,10.5000,3.7500,
4.152006,0.2810,-0.2199,0.4138,-1.5274,0.2172,0.0790,40.9500,10.9500,5.5500,
4.161321,0.2810,-0.2199,0.4138,-1.5274,0.2172,0.0790,40.9500,10.9500,5.5500,
4.163298,0.4346,-0.4916,0.2070,-1.5274,0.2172,0.0790,40.9500,10.9500,5.5500,
4.180673,0.4346,-0.4916,0.2070,-1.5274,0.2172,0.0790,40.9500,10.9500,5.5500,
4.183628,0.1398,-0.2697,0.5705,-1.5274,0.2172,0.0790,40.9500,10.9500,5.5500,
4.195907,0.1398,-0.2697,0.5705,-1.5725,0.4294,-0.0380,40.9500,10.9500,5.5500,
4.199943,0.1398,-0.2697,0.5705,-1.5725,0.4294,-0.0380,40.9500,10.9500,5.5500,
4.201495,0.0303,0.0803,0.5139,-1.5725,0.4294,-0.0380,40.9500,10.9500,5.5500,
4.219432,0.0303,0.0803,0.5139,-1.5725,0.4294,-0.0380,40.9500,10.9500,5.5500,
4.222867,-0.6614,0.2571,1.0719,-1.5725,0.4294,-0.0380,40.9500,10.9500,5.5500,
4.225039,-0.6614,0.2571,1.0719,-1.5725,0.4294,-0.0380,40.5750,10.0500,7.1250,
4.241069,-0.6614,0.2571,1.0719,-1.5725,0.4294,-0.0380,40.5750,10.0500,7.1250,
4.243955,-1.1943,0.2286,1.2244,-1.5725,0.4294,-0.0380,40.5750,10.0500,7.1250,
4.261718,-1.1943,0.2286,1.2244,-1.5725,0.4294,-0.0380,40.5750,10.0500,7.1250,
4.263869,-0.9259,0.2767,0.6421,-1.5725,0.4294,-0.0380,40.5750,10.0500,7.1250,
4.265716,-0.9259,0.2767,0.6421,-1.8716,0.0858,-0.2303,40.5750,10.0500,7.1250,
4.279253,-0.9259,0.2767,0.6421,-1.8716,0.0858,-0.2303,40.5750,10.0500,7.1250,
4.281529,-0.0475,0.5911,1.3780,-1.8716,0.0858,-0.2303,40.5750,10.0500,7.1250,
4.291568,-0.0475,0.5911,1.3780,-1.8716,0.0858,-0.2303,40.3500,9.4500,10.0500,
4.294526,-0.0475,0.5911,1.3780,-1.8716,0.0858,-0.2303,40.3500,9.4500,10.0500,
4.296821,0.5101,2.2065,0.4011,-1.8716,0.0858,-0.2303,40.3500,9.4500,10.0500,
4.313512,0.5101,2.2065,0.4011,-1.8716,0.0858,-0.2303,40.3500,9.4500,10.0500,
4.315959,0.0168,1.4574,-1.8273,-1.8716,0.0858,-0.2303,40.3500,9.4500,10.0500,
4.333070,0.0168,1.4574,-1.8273,-1.2625,-0.2115,0.0226,40.3500,9.4500,10.0500,
4.338590,0.0168,1.4574,-1.8273,-1.2625,-0.2115,0.0226,40.3500,9.4500,10.0500,
4.340805,-0.6873,-2.5120,-1.6225,-1.2625,-0.2115,0.0226,40.3500,9.4500,10.0500,
4.360298,-0.6873,-2.5120,-1.6225,-1.2625,-0.2115,0.0226,40.3500,9.4500,10.0500,
4.363738,-1.5690,-4.8773,-1.6148,-1.2625,-0.2115,0.0226,40.3500,9.4500,10.0500,
4.365374,-1.5690,-4.8773,-1.6148,-1.2625,-0.2115,0.0226,40.8000,9.4500,10.2750,
4.376593,-1.5690,-4.8773,-1.6148,-1.2625,-0.2115,0.0226,40.8000,9.4500,10.2750,
4.378573,-0.5435,-4.0397,-1.4195,-1.2625,-0.2115,0.0226,40.8000,9.4500,10.2750,
4.400833,-0.5435,-4.0397,-1.4195,-1.2625,-0.2115,0.0226,40.8000,9.4500,10.2750,
4.403197,-0.5097,-3.7915,0.7957,-1.2625,-0.2115,0.0226,40.8000,9.4500,10.2750,
4.407848,-0.5097,-3.7915,0.7957,-0.2243,-0.2462,0.2711,40.8000,9.4500,10.2750,
4.418895,-0.5097,-3.7915,0.7957,-0.2243,-0.2462,0.2711,40.8000,9.4500,10.2750,
4.420966,-0.3230,-2.5054,-1.0867,-0.2243,-0.2462,0.2711,40.8000,9.4500,10.2750,
4.431765,-0.3230,-2.5054,-1.0867,-0.2243,-0.2462,0.2711,41.4000,8.8500,9.7500,
4.440128,-0.3230,-2.5054,-1.0867,-0.2243,-0.2462,0.2711,41.4000,8.8500,9.7500,
4.442270,1.0063,0.5546,-2.1657,-0.2243,-0.2462,0.2711,41.4000,8.8500,9.7500,
4.459580,1.0063,0.5546,-2.1657,-0.2243,-0.2462,0.2711,41.4000,8.8500,9.7500,
4.461948,1.8360,1.7245,-2.4298,-0.2243,-0.2462,0.2711,41.4000,8.8500,9.7500,
4.475111,1.8360,1.7245,-2.4298,0.8213,0.0293,0.0428,41.4000,8.8500,9.7500,
4.479411,1.8360,1.7245,-2.4298,0.8213,0.0293,0.0428,41.4000,8.8500,9.7500,
4.481041,0.2130,0.2687,-1.1086,0.8213,0.0293,0.0428,41.4000,8.8500,9.7500,
4.494882,0.2130,0.2687,-1.1086,0.8213,0.0293,0.0428,41.4000,8.8500,9.7500,
4.496243,-1.0579,-0.5305,-0.3686,0.8213,0.0293,0.0428,41.4000,8.8500,9.7500,
4.502488,-1.0579,-0.5305,-0.3686,0.8213,0.0293,0.0428,41.4000,8.6250,9.7500,
4.519879,-1.0579,-0.5305,-0.3686,0.8213,0.0293,0.0428,41.4000,8.6250,9.7500,
4.521667,-0.5559,-0.4953,0.3555,0.8213,0.0293,0.0428,41.4000,8.6250,9.7500,
4.538437,-0.5559,-0.4953,0.3555,0.8213,0.0293,0.0428,41.4000,8.6250,9.7500,
4.540227,-0.3524,0.6268,-0.2191,0.8213,0.0293,0.0428,41.4000,8.6250,9.7500,
4.543242,-0.3524,0.6268,-0.2191,1.0829,-0.0677,-0.0541,41.4000,8.6250,9.7500,
4.557558,-0.3524,0.6268,-0.2191,1.0829,-0.0677,-0.0541,41.4000,8.6250,9.7500,
4.559150,-1.4866,0.5370,0.1813,1.0829,-0.0677,-0.0541,41.4000,8.6250,9.7500,
4.575049,-1.4866,0.5370,0.1813,1.0829,-0.0677,-0.0541,41.4750,9.8250,8.3250,
4.576841,-1.4866,0.5370,0.1813,1.0829,-0.0677,-0.0541,41.4750,9.8250,8.3250,
4.578025,-0.8647,-0.1261,0.3825,1.0829,-0.0677,-0.0541,41.4750,9.8250,8.3250,
4.597546,-0.8647,-0.1261,0.3825,1.0829,-0.0677,-0.0541,41.4750,9.8250,8.3250,
4.599359,0.0746,0.4481,0.3740,1.0829,-0.0677,-0.0541,41.4750,9.8250,8.3250,
4.611800,0.0746,0.4481,0.3740,1.0016,-0.2697,-0.0247,41.4750,9.8250,8.3250,
4.613286,0.0746,0.4481,0.3740,1.0016,-0.2697,-0.0247,41.4750,9.8250,8.3250,
4.614352,-0.1099,1.6280,0.8547,1.0016,-0.2697,-0.0247,41.4750,9.8250,8.3250,
4.631625,-0.1099,1.6280,0.8547,1.0016,-0.2697,-0.0247,41.4750,9.8250,8.3250,
4.634556,-0.4240,1.4643,0.6875,1.0016,-0.2697,-0.0247,41.4750,9.8250,8.3250,
4.641816,-0.4240,1.4643,0.6875,1.0016,-0.2697,-0.0247,41.8500,11.0250,7.0500,
4.656185,-0.4240,1.4643,0.6875,1.0016,-0.2697,-0.0247,41.8500,11.0250,7.0500,
4.658942,-0.8608,1.5499,0.9651,1.0016,-0.2697,-0.0247,41.8500,11.0250,7.0500,
4.679616,-0.8608,1.5499,0.9651,1.0016,-0.2697,-0.0247,41.8500,11.0250,7.0500,
4.681925,-1.3238,2.4054,1.7931,1.0016,-0.2697,-0.0247,41.8500,11.0250,7.0500,
4.684153,-1.3238,2.4054,1.7931,0.5522,-0.4184,-0.0531,41.8500,11.0250,7.0500,
4.699330,-1.3238,2.4054,1.7931,0.5522,-0.4184,-0.0531,41.8500,11.0250,7.0500,
4.701454,-1.1519,2.8986,1.2028,0.5522,-0.4184,-0.0531,41.8500,11.0250,7.0500,
4.711917,-1.1519,2.8986,1.2028,0.5522,-0.4184,-0.0531,41.8500,12.3000,5.3250,
4.719268,-1.1519,2.8986,1.2028,0.5522,-0.4184,-0.0531,41.8500,12.3000,5.3250,
4.721964,0.0892,3.6233,-0.0580,0.5522,-0.4184,-0.0531,41.8500,12.3000,5.3250,
4.738268,0.0892,3.6233,-0.0580,0.5522,-0.4184,-0.0531,41.8500,12.3000,5.3250,
4.741422,0.6831,3.7896,0.6698,0.5522,-0.4184,-0.0531,41.8500,12.3000,5.3250,
4.761189,0.6831,3.7896,0.6698,-0.1429,-0.5748,-0.0272,41.8500,12.3000,5.3250,
4.763575,0.6831,3.7896,0.6698,-0.1429,-0.5748,-0.0272,41.8500,12.3000,5.3250,
4.764965,0.8814,2.9234,2.4730,-0.1429,-0.5748,-0.0272,41.8500,12.3000,5.3250,
4.777513,0.8814,2.9234,2.4730,-0.1429,-0.5748,-0.0272,41.8500,12.3000,5.3250,
4.779773,0.8498,2.9008,0.4930,-0.1429,-0.5748,-0.0272,41.8500,12.3000,5.3250,
4.781565,0.8498,2.9008,0.4930,-0.1429,-0.5748,-0.0272,42.0750,12.7500,3.9750,
4.797088,0.8498,2.9008,0.4930,-0.1429,-0.5748,-0.0272,42.0750,12.7500,3.9750,
4.799730,-0.2942,3.2027,-2.7498,-0.1429,-0.5748,-0.0272,42.0750,12.7500,3.9750,
4.816801,-0.2942,3.2027,-2.7498,-0.1429,-0.5748,-0.0272,42.0750,12.7500,3.9750,
4.820002,-0.9543,2.4723,-3.3000,-0.1429,-0.5748,-0.0272,42.0750,12.7500,3.9750,
4.822250,-0.9543,2.4723,-3.3000,-1.0016,-0.7251,-0.3372,42.0750,12.7500,3.9750,
4.838007,-0.9543,2.4723,-3.3000,-1.0016,-0.7251,-0.3372,42.0750,12.7500,3.9750,
4.841210,0.0709,0.3235,-2.0408,-1.0016,-0.7251,-0.3372,42.0750,12.7500,3.9750,
4.852076,0.0709,0.3235,-2.0408,-1.0016,-0.7251,-0.3372,42.0750,12.7500,3.9750,
4.854436,1.8185,-1.4723,-1.3911,-1.0016,-0.7251,-0.3372,42.0750,12.7500,3.9750,
4.858324,1.8185,-1.4723,-1.3911,-1.0016,-0.7251,-0.3372,41.7750,13.6500,2.5500,
4.880203,1.8185,-1.4723,-1.3911,-1.0016,-0.7251,-0.3372,41.7750,13.6500,2.5500,
4.882939,2.4104,-3.1150,-2.1314,-1.0016,-0.7251,-0.3372,41.7750,13.6500,2.5500,
4.893157,2.4104,-3.1150,-2.1314,-1.9529,-0.3766,0.0092,41.7750,13.6500,2.5500,
4.895812,2.4104,-3.1150,-2.1314,-1.9529,-0.3766,0.0092,41.7750,13.6500,2.5500,
4.897270,0.8833,-3.3613,-1.6038,-1.9529,-0.3766,0.0092,41.7750,13.6500,2.5500,
4.914863,0.8833,-3.3613,-1.6038,-1.9529,-0.3766,0.0092,41.7750,13.6500,2.5500,
4.917609,0.5141,-2.5399,-1.4320,-1.9529,-0.3766,0.0092,41.7750,13.6500,2.5500,
4.922091,0.5141,-2.5399,-1.4320,-1.9529,-0.3766,0.0092,41.7750,14.4000,2.4750,
4.934048,0.5141,-2.5399,-1.4320,-1.9529,-0.3766,0.0092,41.7750,14.4000,2.4750,
4.936805,0.9064,-1.7659,-1.6075,-1.9529,-0.3766,0.0092,41.7750,14.4000,2.4750,
4.953483,0.9064,-1.7659,-1.6075,-1.9529,-0.3766,0.0092,41.7750,14.4000,2.4750,
4.956899,0.6876,-0.7032,-1.0874,-1.9529,-0.3766,0.0092,41.7750,14.4000,2.4750,
4.959412,0.6876,-0.7032,-1.0874,-1.8719,0.0890,-0.1752,41.7750,14.4000,2.4750,
4.968747,0.6876,-0.7032,-1.0874,-1.8719,0.0890,-0.1752,41.7750,14.4000,2.4750,
4.970349,0.6232,-1.1275,-1.8359,-1.8719,0.0890,-0.1752,41.7750,14.4000,2.4750,
4.991889,0.6232,-1.1275,-1.8359,-1.8719,0.0890,-0.1752,41.7000,14.5500,4.0500,
4.994941,0.6232,-1.1275,-1.8359,-1.8719,0.0890,-0.1752,41.7000,14.5500,4.0500,
4.996666,-0.7118,-2.3786,-2.3103,-1.8719,0.0890,-0.1752,41.7000,14.5500,4.0500,
5.016999,-0.7118,-2.3786,-2.3103,-1.8719,0.0890,-0.1752,41.7000,14.5500,4.0500,
5.019539,-3.6344,-3.2407,-2.3233,-1.8719,0.0890,-0.1752,41.7000,14.5500,4.0500,
5.031458,-3.6344,-3.2407,-2.3233,-1.2038,0.2362,0.1489,41.7000,14.5500,4.0500,
5.036378,-3.6344,-3.2407,-2.3233,-1.2038,0.2362,0.1489,41.7000,14.5500,4.0500,
5.038152,-3.7354,-2.9239,-3.6584,-1.2038,0.2362,0.1489,41.7000,14.5500,4.0500,
5.056414,-3.7354,-2.9239,-3.6584,-1.2038,0.2362,0.1489,41.7000,14.5500,4.0500,
5.059893,-2.3920,-2.4154,-4.7054,-1.2038,0.2362,0.1489,41.7000,14.5500,4.0500,
5.062097,-2.3920,-2.4154,-4.7054,-1.2038,0.2362,0.1489,42.1500,14.3250,5.1750,
5.075913,-2.3920,-2.4154,-4.7054,-1.2038,0.2362,0.1489,42.1500,14.3250,5.1750,
5.078968,-1.0698,-2.0739,-3.7845,-1.2038,0.2362,0.1489,42.1500,14.3250,5.1750,
5.094955,-1.0698,-2.0739,-3.7845,-1.2038,0.2362,0.1489,42.1500,14.3250,5.1750,
5.097463,-0.0830,-2.0577,-3.4613,-1.2038,0.2362,0.1489,42.1500,14.3250,5.1750,
5.100013,-0.0830,-2.0577,-3.4613,-1.1030,-0.1177,0.4458,42.1500,14.3250,5.1750,
5.115147,-0.0830,-2.0577,-3.4613,-1.1030,-0.1177,0.4458,42.1500,14.3250,5.1750,
5.117823,0.1535,-2.4468,-2.3405,-1.1030,-0.1177,0.4458,42.1500,14.3250,5.1750,
5.127825,0.1535,-2.4468,-2.3405,-1.1030,-0.1177,0.4458,42.0000,12.9000,6.4500,
5.135600,0.1535,-2.4468,-2.3405,-1.1030,-0.1177,0.4458,42.0000,12.9000,6.4500,
5.137355,-0.0420,-2.6198,-1.8917,-1.1030,-0.1177,0.4458,42.0000,12.9000,6.4500,
5.154504,-0.0420,-2.6198,-1.8917,-1.1030,-0.1177,0.4458,42.0000,12.9000,6.4500,
5.157150,-0.3855,-2.2122,-1.8216,-1.1030,-0.1177,0.4458,42.0000,12.9000,6.4500,
5.168410,-0.3855,-2.2122,-1.8216,-0.9338,-0.3832,0.1232,42.0000,12.9000,6.4500,
5.170349,-0.3855,-2.2122,-1.8216,-0.9338,-0.3832,0.1232,42.0000,12.9000,6.4500,
5.172571,-0.4364,-2.1410,-1.4765,-0.9338,-0.3832,0.1232,42.0000,12.9000,6.4500,
5.193438,-0.4364,-2.1410,-1.4765,-0.9338,-0.3832,0.1232,42.0000,12.9000,6.4500,
5.196760,0.5350,-1.8559,-1.4550,-0.9338,-0.3832,0.1232,42.0000,12.9000,6.4500,
5.198906,0.5350,-1.8559,-1.4550,-0.9338,-0.3832,0.1232,42.9750,12.6000,5.8500,
5.213516,0.5350,-1.8559,-1.4550,-0.9338,-0.3832,0.1232,42.9750,12.6000,5.8500,
5.216213,0.5956,-1.4981,-1.7877,-0.9338,-0.3832,0.1232,42.9750,12.6000,5.8500,
5.232276,0.5956,-1.4981,-1.7877,-0.9338,-0.3832,0.1232,42.9750,12.6000,5.8500,
5.234122,-0.2486,-1.9293,-1.7139,-0.9338,-0.3832,0.1232,42.9750,12.6000,5.8500,
5.241878,-0.2486,-1.9293,-1.7139,-0.6057,0.0903,0.3247,42.9750,12.6000,5.8500,
5.251674,-0.2486,-1.9293,-1.7139,-0.6057,0.0903,0.3247,42.9750,12.6000,5.8500,
5.253686,-0.5504,-2.5241,-0.4903,-0.6057,0.0903,0.3247,42.9750,12.6000,5.8500,
5.261742,-0.5504,-2.5241,-0.4903,-0.6057,0.0903,0.3247,42.6000,10.2000,5.3250,
5.268868,-0.5504,-2.5241,-0.4903,-0.6057,0.0903,0.3247,42.6000,10.2000,5.3250,
5.271089,-0.7725,-2.2800,0.3123,-0.6057,0.0903,0.3247,42.6000,10.2000,5.3250,
5.295973,-0.7725,-2.2800,0.3123,-0.6057,0.0903,0.3247,42.6000,10.2000,5.3250,
5.299725,-0.5580,-1.3060,-0.0602,-0.6057,0.0903,0.3247,42.6000,10.2000,5.3250,
5.310403,-0.5580,-1.3060,-0.0602,-0.3314,-0.1484,0.0828,42.6000,10.2000,5.3250,
5.315733,-0.5580,-1.3060,-0.0602,-0.3314,-0.1484,0.0828,42.6000,10.2000,5.3250,
5.317774,0.2269,-0.7913,-0.1740,-0.3314,-0.1484,0.0828,42.6000,10.2000,5.3250,
5.335141,0.2269,-0.7913,-0.1740,-0.3314,-0.1484,0.0828,42.6000,10.2000,5.3250,
5.337374,0.7017,-0.5707,0.2933,-0.3314,-0.1484,0.0828,42.6000,10.2000,5.3250,
5.339312,0.7017,-0.5707,0.2933,-0.3314,-0.1484,0.0828,42.6000,9.7500,5.4750,
5.354171,0.7017,-0.5707,0.2933,-0.3314,-0.1484,0.0828,42.6000,9.7500,5.4750,
5.357333,0.4848,-0.5700,0.2302,-0.3314,-0.1484,0.0828,42.6000,9.7500,5.4750,
5.369375,0.4848,-0.5700,0.2302,-0.3314,-0.1484,0.0828,42.6000,9.7500,5.4750,
5.371177,0.2823,-0.3939,-0.0647,-0.3314,-0.1484,0.0828,42.6000,9.7500,5.4750,
5.379794,0.2823,-0.3939,-0.0647,0.0020,-0.0414,0.0467,42.6000,9.7500,5.4750,
5.389444,0.2823,-0.3939,-0.0647,0.0020,-0.0414,0.0467,42.6000,9.7500,5.4750,
5.393585,0.0285,-0.2825,0.0082,0.0020,-0.0414,0.0467,42.6000,9.7500,5.4750,
5.414261,0.0285,-0.2825,0.0082,0.0020,-0.0414,0.0467,42.6750,9.6000,5.0250,
5.416071,0.0285,-0.2825,0.0082,0.0020,-0.0414,0.0467,42.6750,9.6000,5.0250,
5.417162,-0.5392,-0.4724,-0.5462,0.0020,-0.0414,0.0467,42.6750,9.6000,5.0250,
5.434236,-0.5392,-0.4724,-0.5462,0.0020,-0.0414,0.0467,42.6750,9.6000,5.0250,
5.436106,-0.8005,-0.6179,-0.6896,0.0020,-0.0414,0.0467,42.6750,9.6000,5.0250,
5.448894,-0.8005,-0.6179,-0.6896,0.1662,0.1174,-0.0643,42.6750,9.6000,5.0250,
5.453884,-0.8005,-0.6179,-0.6896,0.1662,0.1174,-0.0643,42.6750,9.6000,5.0250,
5.455451,-0.7992,-0.7346,0.1910,0.1662,0.1174,-0.0643,42.6750,9.6000,5.0250,
5.470078,-0.7992,-0.7346,0.1910,0.1662,0.1174,-0.0643,42.6750,9.6000,5.0250,
5.472286,-0.6108,-0.9550,0.7859,0.1662,0.1174,-0.0643,42.6750,9.6000,5.0250,
5.480684,-0.6108,-0.9550,0.7859,0.1662,0.1174,-0.0643,42.7500,10.1250,4.0500,
5.492561,-0.6108,-0.9550,0.7859,0.1662,0.1174,-0.0643,42.7500,10.1250,4.0500,
5.494187,-0.2916,-0.9123,0.0644,0.1662,0.1174,-0.0643,42.7500,10.1250,4.0500,
5.511081,-0.2916,-0.9123,0.0644,0.1662,0.1174,-0.0643,42.7500,10.1250,4.0500,
5.512486,-0.0560,-0.7237,-0.0978,0.1662,0.1174,-0.0643,42.7500,10.1250,4.0500,
5.516644,-0.0560,-0.7237,-0.0978,0.3543,0.1170,-0.0301,42.7500,10.1250,4.0500,
5.531910,-0.0560,-0.7237,-0.0978,0.3543,0.1170,-0.0301,42.7500,10.1250,4.0500,
5.533709,0.0338,-0.6194,0.1090,0.3543,0.1170,-0.0301,42.7500,10.1250,4.0500,
5.543055,0.0338,-0.6194,0.1090,0.3543,0.1170,-0.0301,42.7500,10.6500,4.6500,
5.551195,0.0338,-0.6194,0.1090,0.3543,0.1170,-0.0301,42.7500,10.6500,4.6500,
5.552649,0.0294,-0.4299,0.5743,0.3543,0.1170,-0.0301,42.7500,10.6500,4.6500,
5.570444,0.0294,-0.4299,0.5743,0.3543,0.1170,-0.0301,42.7500,10.6500,4.6500,
5.572724,0.0795,-0.0718,1.1129,0.3543,0.1170,-0.0301,42.7500,10.6500,4.6500,
5.593554,0.0795,-0.0718,1.1129,0.7303,0.0367,-0.0116,42.7500,10.6500,4.6500,
5.595620,0.0795,-0.0718,1.1129,0.7303,0.0367,-0.0116,42.7500,10.6500,4.6500,
5.596808,0.4882,0.5721,1.1168,0.7303,0.0367,-0.0116,42.7500,10.6500,4.6500,
5.611922,0.4882,0.5721,1.1168,0.7303,0.0367,-0.0116,42.7500,10.6500,4.6500,
5.613363,0.7933,1.3596,1.3090,0.7303,0.0367,-0.0116,42.7500,10.6500,4.6500,
5.614676,0.7933,1.3596,1.3090,0.7303,0.0367,-0.0116,41.8500,10.4250,4.0500,
5.629262,0.7933,1.3596,1.3090,0.7303,0.0367,-0.0116,41.8500,10.4250,4.0500,
5.632440,0.8024,2.1294,1.7376,0.7303,0.0367,-0.0116,41.8500,10.4250,4.0500,
5.652459,0.8024,2.1294,1.7376,0.7303,0.0367,-0.0116,41.8500,10.4250,4.0500,
5.654775,0.8773,2.8048,1.3970,0.7303,0.0367,-0.0116,41.8500,10.4250,4.0500,
5.657306,0.8773,2.8048,1.3970,1.0916,0.2016,-0.0822,41.8500,10.4250,4.0500,
5.669057,0.8773,2.8048,1.3970,1.0916,0.2016,-0.0822,41.8500,10.4250,4.0500,
5.670896,1.0124,3.2684,0.6360,1.0916,0.2016,-0.0822,41.8500,10.4250,4.0500,
5.687284,1.0124,3.2684,0.6360,1.0916,0.2016,-0.0822,42.1500,11.5500,3.3750,
5.691367,1.0124,3.2684,0.6360,1.0916,0.2016,-0.0822,42.1500,11.5500,3.3750,
5.692750,0.9509,3.3098,0.0314,1.0916,0.2016,-0.0822,42.1500,11.5500,3.3750,
5.712273,0.9509,3.3098,0.0314,1.0916,0.2016,-0.0822,42.1500,11.5500,3.3750,
5.716676,0.5804,2.7910,-0.3064,1.0916,0.2016,-0.0822,42.1500,11.5500,3.3750,
5.727371,0.5804,2.7910,-0.3064,1.2495,0.3558,-0.1547,42.1500,11.5500,3.3750,
5.732246,0.5804,2.7910,-0.3064,1.2495,0.3558,-0.1547,42.1500,11.5500,3.3750,
5.733931,0.1109,1.8971,-0.4711,1.2495,0.3558,-0.1547,42.1500,11.5500,3.3750,
5.750607,0.1109,1.8971,-0.4711,1.2495,0.3558,-0.1547,42.1500,11.5500,3.3750,
5.753124,-0.2364,0.7067,-0.2728,1.2495,0.3558,-0.1547,42.1500,11.5500,3.3750,
5.755210,-0.2364,0.7067,-0.2728,1.2495,0.3558,-0.1547,41.7750,12.0000,3.1500,
5.769115,-0.2364,0.7067,-0.2728,1.2495,0.3558,-0.1547,41.7750,12.0000,3.1500,
5.771779,-0.4612,-0.3190,-0.2072,1.2495,0.3558,-0.1547,41.7750,12.0000,3.1500,
5.789836,-0.4612,-0.3190,-0.2072,1.2495,0.3558,-0.1547,41.7750,12.0000,3.1500,
5.793271,-0.5656,-0.5891,-0.4925,1.2495,0.3558,-0.1547,41.7750,12.0000,3.1500,
5.796027,-0.5656,-0.5891,-0.4925,1.2522,0.3740,-0.1347,41.7750,12.0000,3.1500,
5.805810,-0.5656,-0.5891,-0.4925,1.2522,0.3740,-0.1347,41.7750,12.0000,3.1500,
5.808476,-0.5263,-0.2735,-0.5648,1.2522,0.3740,-0.1347,41.7750,12.0000,3.1500,
5.822523,-0.5263,-0.2735,-0.5648,1.2522,0.3740,-0.1347,42.1500,12.5250,3.2250,
5.826793,-0.5263,-0.2735,-0.5648,1.2522,0.3740,-0.1347,42.1500,12.5250,3.2250,
5.828809,-0.3908,-0.0326,-0.8694,1.2522,0.3740,-0.1347,42.1500,12.5250,3.2250,
5.850606,-0.3908,-0.0326,-0.8694,1.2522,0.3740,-0.1347,42.1500,12.5250,3.2250,
5.853186,-0.0823,0.1768,-0.7396,1.2522,0.3740,-0.1347,42.1500,12.5250,3.2250,
5.864138,-0.0823,0.1768,-0.7396,1.2935,0.3537,0.0163,42.1500,12.5250,3.2250,
5.869724,-0.0823,0.1768,-0.7396,1.2935,0.3537,0.0163,42.1500,12.5250,3.2250,
5.871015,0.3183,0.6070,-0.3046,1.2935,0.3537,0.0163,42.1500,12.5250,3.2250,
5.889147,0.3183,0.6070,-0.3046,1.2935,0.3537,0.0163,42.1500,12.5250,3.2250,
5.890664,-0.2370,1.1517,-0.6989,1.2935,0.3537,0.0163,42.1500,12.5250,3.2250,
5.892411,-0.2370,1.1517,-0.6989,1.2935,0.3537,0.0163,41.7750,12.6000,1.7250,
5.911760,-0.2370,1.1517,-0.6989,1.2935,0.3537,0.0163,41.7750,12.6000,1.7250,
5.913056,-0.9245,1.2950,-0.1176,1.2935,0.3537,0.0163,41.7750,12.6000,1.7250,
5.928051,-0.9245,1.2950,-0.1176,1.2935,0.3537,0.0163,41.7750,12.6000,1.7250,
5.930363,-0.6698,1.6082,-0.7250,1.2935,0.3537,0.0163,41.7750,12.6000,1.7250,
5.936803,-0.6698,1.6082,-0.7250,1.1331,0.1330,0.0574,41.7750,12.6000,1.7250,
5.951443,-0.6698,1.6082,-0.7250,1.1331,0.1330,0.0574,41.7750,12.6000,1.7250,
5.954051,-0.3278,1.9072,-0.4181,1.1331,0.1330,0.0574,41.7750,12.6000,1.7250,
5.961619,-0.3278,1.9072,-0.4181,1.1331,0.1330,0.0574,41.1000,13.1250,1.3500,
5.968838,-0.3278,1.9072,-0.4181,1.1331,0.1330,0.0574,41.1000,13.1250,1.3500,
5.970982,0.1806,1.8763,-0.1672,1.1331,0.1330,0.0574,41.1000,13.1250,1.3500,
5.989954,0.1806,1.8763,-0.1672,1.1331,0.1330,0.0574,41.1000,13.1250,1.3500,
5.992420,0.4610,1.5518,-0.1811,1.1331,0.1330,0.0574,41.1000,13.1250,1.3500,
6.010391,0.4610,1.5518,-0.1811,1.0641,0.0690,0.0780,41.1000,13.1250,1.3500,
6.012818,0.4610,1.5518,-0.1811,1.0641,0.0690,0.0780,41.1000,13.1250,1.3500,
6.014277,0.2510,1.3965,-0.3552,1.0641,0.0690,0.0780,41.1000,13.1250,1.3500,
6.029331,0.2510,1.3965,-0.3552,1.0641,0.0690,0.0780,41.1000,13.1250,1.3500,
6.032523,-0.2887,1.8459,-0.7869,1.0641,0.0690,0.0780,41.1000,13.1250,1.3500,
6.034974,-0.2887,1.8459,-0.7869,1.0641,0.0690,0.0780,41.8500,13.1250,1.0500,
6.048975,-0.2887,1.8459,-0.7869,1.0641,0.0690,0.0780,41.8500,13.1250,1.0500,
6.051334,-0.5077,2.2592,-0.6563,1.0641,0.0690,0.0780,41.8500,13.1250,1.0500,
6.068244,-0.5077,2.2592,-0.6563,1.0641,0.0690,0.0780,41.8500,13.1250,1.0500,
6.071595,-0.5566,2.0953,-0.3252,1.0641,0.0690,0.0780,41.8500,13.1250,1.0500,
6.074155,-0.5566,2.0953,-0.3252,0.9329,0.1521,0.0846,41.8500,13.1250,1.0500,
6.095524,-0.5566,2.0953,-0.3252,0.9329,0.1521,0.0846,41.8500,13.1250,1.0500,
6.099664,-0.5339,1.8812,-0.1013,0.9329,0.1521,0.0846,41.8500,13.1250,1.0500,
6.102516,-0.5339,1.8812,-0.1013,0.9329,0.1521,0.0846,41.5500,13.4250,0.2250,
6.112400,-0.5339,1.8812,-0.1013,0.9329,0.1521,0.0846,41.5500,13.4250,0.2250,
6.114498,-0.3651,1.8782,0.0342,0.9329,0.1521,0.0846,41.5500,13.4250,0.2250,
6.127451,-0.3651,1.8782,0.0342,0.9329,0.1521,0.0846,41.5500,13.4250,0.2250,
6.130014,-0.1715,1.8955,-0.2615,0.9329,0.1521,0.0846,41.5500,13.4250,0.2250,
6.142700,-0.1715,1.8955,-0.2615,0.7724,0.0762,0.1561,41.5500,13.4250,0.2250,
6.147134,-0.1715,1.8955,-0.2615,0.7724,0.0762,0.1561,41.5500,13.4250,0.2250,
6.149329,-0.2970,1.8919,-0.1918,0.7724,0.0762,0.1561,41.5500,13.4250,0.2250,
6.168983,-0.2970,1.8919,-0.1918,0.7724,0.0762,0.1561,41.5500,13.4250,0.2250,
6.170591,0.3922,1.1766,-0.0975,0.7724,0.0762,0.1561,41.5500,13.4250,0.2250,
6.181388,0.3922,1.1766,-0.0975,0.7724,0.0762,0.1561,41.4000,12.7500,-0.4500,
6.190889,0.3922,1.1766,-0.0975,0.7724,0.0762,0.1561,41.4000,12.7500,-0.4500,
6.192827,-0.0099,0.9963,-0.2043,0.7724,0.0762,0.1561,41.4000,12.7500,-0.4500,
6.210136,-0.0099,0.9963,-0.2043,0.7724,0.0762,0.1561,41.4000,12.7500,-0.4500,
6.212924,0.0727,0.8977,0.1162,0.7724,0.0762,0.1561,41.4000,12.7500,-0.4500,
6.214943,0.0727,0.8977,0.1162,0.6225,-0.0925,0.0542,41.4000,12.7500,-0.4500,
6.230254,0.0727,0.8977,0.1162,0.6225,-0.0925,0.0542,41.4000,12.7500,-0.4500,
6.232742,0.1520,0.6050,-0.0958,0.6225,-0.0925,0.0542,41.4000,12.7500,-0.4500,
6.242143,0.1520,0.6050,-0.0958,0.6225,-0.0925,0.0542,41.1000,12.4500,-1.0500,
6.251321,0.1520,0.6050,-0.0958,0.6225,-0.0925,0.0542,41.1000,12.4500,-1.0500,
6.253449,0.5539,0.0843,-0.1610,0.6225,-0.0925,0.0542,41.1000,12.4500,-1.0500,
6.269220,0.5539,0.0843,-0.1610,0.6225,-0.0925,0.0542,41.1000,12.4500,-1.0500,
6.271928,0.4872,0.0971,-0.2318,0.6225,-0.0925,0.0542,41.1000,12.4500,-1.0500,
6.283852,0.4872,0.0971,-0.2318,0.5107,0.0806,-0.0281,41.1000,12.4500,-1.0500,
6.292857,0.4872,0.0971,-0.2318,0.5107,0.0806,-0.0281,41.1000,12.4500,-1.0500,
6.294509,0.0340,0.4455,-0.1452,0.5107,0.0806,-0.0281,41.1000,12.4500,-1.0500,
6.305142,0.0340,0.4455,-0.1452,0.5107,0.0806,-0.0281,41.1000,12.4500,-1.0500,
6.306948,-0.3661,0.6668,-0.3300,0.5107,0.0806,-0.0281,41.1000,12.4500,-1.0500,
6.311607,-0.3661,0.6668,-0.3300,0.5107,0.0806,-0.0281,41.7000,12.5250,-1.0500,
6.326418,-0.3661,0.6668,-0.3300,0.5107,0.0806,-0.0281,41.7000,12.5250,-1.0500,
6.327876,-0.4489,0.7216,-0.3929,0.5107,0.0806,-0.0281,41.7000,12.5250,-1.0500,
6.349532,-0.4489,0.7216,-0.3929,0.5107,0.0806,-0.0281,41.7000,12.5250,-1.0500,
6.351323,-0.2292,0.5891,-0.3415,0.5107,0.0806,-0.0281,41.7000,12.5250,-1.0500,
6.357157,-0.2292,0.5891,-0.3415,0.3746,0.2222,-0.0027,41.7000,12.5250,-1.0500,
6.368620,-0.2292,0.5891,-0.3415,0.3746,0.2222,-0.0027,41.7000,12.5250,-1.0500,
6.370197,-0.2132,0.3927,-0.2033,0.3746,0.2222,-0.0027,41.7000,12.5250,-1.0500,
6.383106,-0.2132,0.3927,-0.2033,0.3746,0.2222,-0.0027,41.4000,12.5250,-1.0500,
6.384896,-0.2132,0.3927,-0.2033,0.3746,0.2222,-0.0027,41.4000,12.5250,-1.0500,
6.386013,-0.3385,0.1786,0.1305,0.3746,0.2222,-0.0027,41.4000,12.5250,-1.0500,
6.407268,-0.3385,0.1786,0.1305,0.3746,0.2222,-0.0027,41.4000,12.5250,-1.0500,
6.409213,-0.2861,0.0512,0.1778,0.3746,0.2222,-0.0027,41.4000,12.5250,-1.0500,
6.423787,-0.2861,0.0512,0.1778,0.2472,0.1900,0.0469,41.4000,12.5250,-1.0500,
6.428092,-0.2861,0.0512,0.1778,0.2472,0.1900,0.0469,41.4000,12.5250,-1.0500,
6.431243,-0.0562,-0.0724,0.0499,0.2472,0.1900,0.0469,41.4000,12.5250,-1.0500,
6.446381,-0.0562,-0.0724,0.0499,0.2472,0.1900,0.0469,41.4000,12.5250,-1.0500,
6.450615,0.0260,-0.0047,-0.1338,0.2472,0.1900,0.0469,41.4000,12.5250,-1.0500,
6.453105,0.0260,-0.0047,-0.1338,0.2472,0.1900,0.0469,41.8500,12.4500,-0.5250,
6.464899,0.0260,-0.0047,-0.1338,0.2472,0.1900,0.0469,41.8500,12.4500,-0.5250,
6.466875,-0.2769,0.1106,0.1210,0.2472,0.1900,0.0469,41.8500,12.4500,-0.5250,
6.489387,-0.2769,0.1106,0.1210,0.2472,0.1900,0.0469,41.8500,12.4500,-0.5250,
6.492589,-0.2436,0.1803,-0.0332,0.2472,0.1900,0.0469,41.8500,12.4500,-0.5250,
6.495548,-0.2436,0.1803,-0.0332,0.2127,0.2277,0.0053,41.8500,12.4500,-0.5250,
6.511415,-0.2436,0.1803,-0.0332,0.2127,0.2277,0.0053,41.8500,12.4500,-0.5250,
6.513381,-0.2393,0.2103,-0.1058,0.2127,0.2277,0.0053,41.8500,12.4500,-0.5250,
6.521644,-0.2393,0.2103,-0.1058,0.2127,0.2277,0.0053,41.5500,12.2250,0.1500,
6.528034,-0.2393,0.2103,-0.1058,0.2127,0.2277,0.0053,41.5500,12.2250,0.1500,
6.529611,-0.3185,0.1981,0.1123,0.2127,0.2277,0.0053,41.5500,12.2250,0.1500,
6.547777,-0.3185,0.1981,0.1123,0.2127,0.2277,0.0053,41.5500,12.2250,0.1500,
6.549586,-0.3555,0.2643,0.1744,0.2127,0.2277,0.0053,41.5500,12.2250,0.1500,
6.562574,-0.3555,0.2643,0.1744,0.1681,0.2346,-0.0183,41.5500,12.2250,0.1500,
6.568396,-0.3555,0.2643,0.1744,0.1681,0.2346,-0.0183,41.5500,12.2250,0.1500,
6.570039,-0.4424,0.0513,0.1936,0.1681,0.2346,-0.0183,41.5500,12.2250,0.1500,
6.588268,-0.4424,0.0513,0.1936,0.1681,0.2346,-0.0183,41.5500,12.2250,0.1500,
6.591473,-0.1116,0.1619,-0.1932,0.1681,0.2346,-0.0183,41.5500,12.2250,0.1500,
6.593402,-0.1116,0.1619,-0.1932,0.1681,0.2346,-0.0183,41.8500,11.5500,0.0750,
6.610394,-0.1116,0.1619,-0.1932,0.1681,0.2346,-0.0183,41.8500,11.5500,0.0750,
6.612605,-0.2921,0.2139,-0.1362,0.1681,0.2346,-0.0183,41.8500,11.5500,0.0750,
6.626234,-0.2921,0.2139,-0.1362,0.1681,0.2346,-0.0183,41.8500,11.5500,0.0750,
6.629155,-0.3880,0.0617,0.2105,0.1681,0.2346,-0.0183,41.8500,11.5500,0.0750,
6.631377,-0.3880,0.0617,0.2105,0.1318,0.2104,0.0208,41.8500,11.5500,0.0750,
6.645637,-0.3880,0.0617,0.2105,0.1318,0.2104,0.0208,41.8500,11.5500,0.0750,
6.647887,-0.3470,0.1839,-0.0604,0.1318,0.2104,0.0208,41.8500,11.5500,0.0750,
6.664585,-0.3470,0.1839,-0.0604,0.1318,0.2104,0.0208,41.8500,11.5500,0.0750,
6.666531,0.3833,0.0189,-0.0955,0.1318,0.2104,0.0208,41.8500,11.5500,0.0750,
6.669021,0.3833,0.0189,-0.0955,0.1318,0.2104,0.0208,42.0750,12.1500,0.7500,
