
time,ax,ay,az,wx,wy,wz,Bx,By,Bz,
0.040111,0.0000,0.0000,0.0000,0.0000,0.0000,0.0000,0.0000,0.0000,0.0000,
0.066698,0.0000,0.0000,0.0000,0.0000,0.0000,0.0000,40.8750,18.4500,9.5250,
0.080578,0.0000,0.0000,0.0000,0.0000,0.0000,0.0000,40.8750,18.4500,9.5250,
0.082153,-0.0144,0.1289,-0.0096,0.0000,0.0000,0.0000,40.8750,18.4500,9.5250,
0.099254,-0.0144,0.1289,-0.0096,0.0000,0.0000,0.0000,40.8750,18.4500,9.5250,
0.101008,-0.0072,0.1506,0.0338,0.0000,0.0000,0.0000,40.8750,18.4500,9.5250,
0.103666,-0.0072,0.1506,0.0338,0.0313,-0.0162,-0.0015,40.8750,18.4500,9.5250,
0.118383,-0.0072,0.1506,0.0338,0.0313,-0.0162,-0.0015,40.8750,18.4500,9.5250,
0.120057,0.0239,0.1270,0.0051,0.0313,-0.0162,-0.0015,40.8750,18.4500,9.5250,
0.134056,0.0239,0.1270,0.0051,0.0313,-0.0162,-0.0015,40.8750,18.4500,9.5250,
0.136360,0.0285,0.1209,-0.0192,0.0313,-0.0162,-0.0015,40.8750,18.4500,9.5250,
0.138539,0.0285,0.1209,-0.0192,0.0313,-0.0162,-0.0015,39.7500,18.5250,8.7000,
0.162236,0.0285,0.1209,-0.0192,0.0313,-0.0162,-0.0015,39.7500,18.5250,8.7000,
0.164934,-0.0540,0.0590,0.0369,0.0313,-0.0162,-0.0015,39.7500,18.5250,8.7000,
0.175301,-0.0540,0.0590,0.0369,-0.0043,0.0057,0.0024,39.7500,18.5250,8.7000,
0.186396,-0.0540,0.0590,0.0369,-0.0043,0.0057,0.0024,39.7500,18.5250,8.7000,
0.189294,-0.1019,0.0191,0.1075,-0.0043,0.0057,0.0024,39.7500,18.5250,8.7000,
0.199987,-0.1019,0.0191,0.1075,-0.0043,0.0057,0.0024,39.7500,18.5250,8.7000,
0.201745,-0.0614,0.0408,0.0468,-0.0043,0.0057,0.0024,39.7500,18.5250,8.7000,
0.205257,-0.0614,0.0408,0.0468,-0.0043,0.0057,0.0024,39.8250,18.6000,9.5250,
0.219588,-0.0614,0.0408,0.0468,-0.0043,0.0057,0.0024,39.8250,18.6000,9.5250,
0.221807,-0.0179,0.0537,-0.0112,-0.0043,0.0057,0.0024,39.8250,18.6000,9.5250,
0.239277,-0.0179,0.0537,-0.0112,-0.0043,0.0057,0.0024,39.8250,18.6000,9.5250,
0.242022,-0.0245,-0.0201,-0.0127,-0.0043,0.0057,0.0024,39.8250,18.6000,9.5250,
0.250740,-0.0245,-0.0201,-0.0127,-0.0307,0.0038,-0.0093,39.8250,18.6000,9.5250,
0.259193,-0.0245,-0.0201,-0.0127,-0.0307,0.0038,-0.0093,39.8250,18.6000,9.5250,
0.261258,-0.0073,-0.0780,0.0171,-0.0307,0.0038,-0.0093,39.8250,18.6000,9.5250,
0.269533,-0.0073,-0.0780,0.0171,-0.0307,0.0038,-0.0093,39.9750,18.6000,9.5250,
0.279233,-0.0073,-0.0780,0.0171,-0.0307,0.0038,-0.0093,39.9750,18.6000,9.5250,
0.281725,0.0089,0.0313,0.0010,-0.0307,0.0038,-0.0093,39.9750,18.6000,9.5250,
0.298006,0.0089,0.0313,0.0010,-0.0307,0.0038,-0.0093,39.9750,18.6000,9.5250,
0.300024,-0.0895,0.1748,-0.0646,-0.0307,0.0038,-0.0093,39.9750,18.6000,9.5250,
0.315361,-0.0895,0.1748,-0.0646,-0.0658,0.0014,-0.0137,39.9750,18.6000,9.5250,
0.318498,-0.0895,0.1748,-0.0646,-0.0658,0.0014,-0.0137,39.9750,18.6000,9.5250,
0.320531,-0.1226,0.2744,-0.0223,-0.0658,0.0014,-0.0137,39.9750,18.6000,9.5250,
0.333877,-0.1226,0.2744,-0.0223,-0.0658,0.0014,-0.0137,39.9750,18.6000,9.5250,
0.335198,-0.0776,0.3289,-0.0037,-0.0658,0.0014,-0.0137,39.9750,18.6000,9.5250,
0.337778,-0.0776,0.3289,-0.0037,-0.0658,0.0014,-0.0137,40.0500,18.9000,9.0000,
0.358055,-0.0776,0.3289,-0.0037,-0.0658,0.0014,-0.0137,40.0500,18.9000,9.0000,
0.359752,-0.0712,0.3652,-0.1231,-0.0658,0.0014,-0.0137,40.0500,18.9000,9.0000,
0.379657,-0.0712,0.3652,-0.1231,-0.0658,0.0014,-0.0137,40.0500,18.9000,9.0000,
0.381230,-0.1351,0.3244,-0.0630,-0.0658,0.0014,-0.0137,40.0500,18.9000,9.0000,
0.382657,-0.1351,0.3244,-0.0630,-0.1301,-0.0315,-0.0287,40.0500,18.9000,9.0000,
0.398743,-0.1351,0.3244,-0.0630,-0.1301,-0.0315,-0.0287,40.0500,18.9000,9.0000,
0.400466,-0.1381,0.1925,-0.0530,-0.1301,-0.0315,-0.0287,40.0500,18.9000,9.0000,
0.406611,-0.1381,0.1925,-0.0530,-0.1301,-0.0315,-0.0287,40.0500,18.4500,8.7750,
0.415870,-0.1381,0.1925,-0.0530,-0.1301,-0.0315,-0.0287,40.0500,18.4500,8.7750,
0.418156,-0.0658,0.1462,-0.1207,-0.1301,-0.0315,-0.0287,40.0500,18.4500,8.7750,
0.440725,-0.0658,0.1462,-0.1207,-0.1301,-0.0315,-0.0287,40.0500,18.4500,8.7750,
0.443430,-0.0562,0.2189,-0.1834,-0.1301,-0.0315,-0.0287,40.0500,18.4500,8.7750,
0.454423,-0.0562,0.2189,-0.1834,-0.2495,-0.0647,-0.0447,40.0500,18.4500,8.7750,
0.459237,-0.0562,0.2189,-0.1834,-0.2495,-0.0647,-0.0447,40.0500,18.4500,8.7750,
0.461006,-0.1619,0.2528,-0.1319,-0.2495,-0.0647,-0.0447,40.0500,18.4500,8.7750,
0.479469,-0.1619,0.2528,-0.1319,-0.2495,-0.0647,-0.0447,40.0500,18.4500,8.7750,
0.482225,-0.2133,0.2733,-0.0896,-0.2495,-0.0647,-0.0447,40.0500,18.4500,8.7750,
0.484572,-0.2133,0.2733,-0.0896,-0.2495,-0.0647,-0.0447,39.7500,18.4500,9.3000,
0.501002,-0.2133,0.2733,-0.0896,-0.2495,-0.0647,-0.0447,39.7500,18.4500,9.3000,
0.504032,-0.2378,0.2991,-0.1370,-0.2495,-0.0647,-0.0447,39.7500,18.4500,9.3000,
0.518345,-0.2378,0.2991,-0.1370,-0.2495,-0.0647,-0.0447,39.7500,18.4500,9.3000,
0.520830,-0.1983,0.3365,-0.1056,-0.2495,-0.0647,-0.0447,39.7500,18.4500,9.3000,
0.522947,-0.1983,0.3365,-0.1056,-0.3268,-0.1403,-0.0461,39.7500,18.4500,9.3000,
0.533330,-0.1983,0.3365,-0.1056,-0.3268,-0.1403,-0.0461,39.7500,18.4500,9.3000,
0.535965,-0.2184,0.3519,-0.1368,-0.3268,-0.1403,-0.0461,39.7500,18.4500,9.3000,
0.548253,-0.2184,0.3519,-0.1368,-0.3268,-0.1403,-0.0461,39.7500,18.8250,8.7000,
0.557159,-0.2184,0.3519,-0.1368,-0.3268,-0.1403,-0.0461,39.7500,18.8250,8.7000,
0.559046,-0.2128,0.3365,-0.2354,-0.3268,-0.1403,-0.0461,39.7500,18.8250,8.7000,
0.580673,-0.2128,0.3365,-0.2354,-0.3268,-0.1403,-0.0461,39.7500,18.8250,8.7000,
0.585677,-0.1832,0.3286,-0.2996,-0.3268,-0.1403,-0.0461,39.7500,18.8250,8.7000,
0.592767,-0.1832,0.3286,-0.2996,-0.3862,-0.2314,-0.0385,39.7500,18.8250,8.7000,
0.599820,-0.1832,0.3286,-0.2996,-0.3862,-0.2314,-0.0385,39.7500,18.8250,8.7000,
0.601920,-0.1081,0.3107,-0.3509,-0.3862,-0.2314,-0.0385,39.7500,18.8250,8.7000,
0.619291,-0.1081,0.3107,-0.3509,-0.3862,-0.2314,-0.0385,39.7500,18.8250,8.7000,
0.620923,-0.0563,0.3077,-0.2926,-0.3862,-0.2314,-0.0385,39.7500,18.8250,8.7000,
0.622430,-0.0563,0.3077,-0.2926,-0.3862,-0.2314,-0.0385,39.6750,18.4500,8.8500,
0.634280,-0.0563,0.3077,-0.2926,-0.3862,-0.2314,-0.0385,39.6750,18.4500,8.8500,
0.635925,-0.0505,0.3906,-0.3117,-0.3862,-0.2314,-0.0385,39.6750,18.4500,8.8500,
0.656469,-0.0505,0.3906,-0.3117,-0.3862,-0.2314,-0.0385,39.6750,18.4500,8.8500,
0.658169,-0.1389,0.4303,-0.2700,-0.3862,-0.2314,-0.0385,39.6750,18.4500,8.8500,
0.659761,-0.1389,0.4303,-0.2700,-0.4983,-0.2501,-0.0286,39.6750,18.4500,8.8500,
0.676386,-0.1389,0.4303,-0.2700,-0.4983,-0.2501,-0.0286,39.6750,18.4500,8.8500,
0.678202,0.0852,0.5097,-0.1347,-0.4983,-0.2501,-0.0286,39.6750,18.4500,8.8500,
0.690405,0.0852,0.5097,-0.1347,-0.4983,-0.2501,-0.0286,40.4250,17.9250,8.5500,
0.699801,0.0852,0.5097,-0.1347,-0.4983,-0.2501,-0.0286,40.4250,17.9250,8.5500,
0.701481,0.0699,0.4623,-0.1953,-0.4983,-0.2501,-0.0286,40.4250,17.9250,8.5500,
0.720109,0.0699,0.4623,-0.1953,-0.4983,-0.2501,-0.0286,40.4250,17.9250,8.5500,
0.723920,0.0435,0.3153,-0.1444,-0.4983,-0.2501,-0.0286,40.4250,17.9250,8.5500,
0.733254,0.0435,0.3153,-0.1444,-0.5742,-0.2338,-0.0189,40.4250,17.9250,8.5500,
0.736897,0.0435,0.3153,-0.1444,-0.5742,-0.2338,-0.0189,40.4250,17.9250,8.5500,
0.738970,0.2292,0.3648,-0.1183,-0.5742,-0.2338,-0.0189,40.4250,17.9250,8.5500,
0.758017,0.2292,0.3648,-0.1183,-0.5742,-0.2338,-0.0189,40.4250,17.9250,8.5500,
0.761073,0.3798,0.4764,-0.2381,-0.5742,-0.2338,-0.0189,40.4250,17.9250,8.5500,
0.764273,0.3798,0.4764,-0.2381,-0.5742,-0.2338,-0.0189,40.1250,18.3000,8.6250,
0.777760,0.3798,0.4764,-0.2381,-0.5742,-0.2338,-0.0189,40.1250,18.3000,8.6250,
0.780780,0.4428,0.4610,-0.3904,-0.5742,-0.2338,-0.0189,40.1250,18.3000,8.6250,
0.796885,0.4428,0.4610,-0.3904,-0.5742,-0.2338,-0.0189,40.1250,18.3000,8.6250,
0.799017,0.5610,0.3148,-0.4465,-0.5742,-0.2338,-0.0189,40.1250,18.3000,8.6250,
0.801488,0.5610,0.3148,-0.4465,-0.5433,-0.1414,-0.0408,40.1250,18.3000,8.6250,
0.816533,0.5610,0.3148,-0.4465,-0.5433,-0.1414,-0.0408,40.1250,18.3000,8.6250,
0.818543,0.5772,0.2601,-0.5682,-0.5433,-0.1414,-0.0408,40.1250,18.3000,8.6250,
0.826281,0.5772,0.2601,-0.5682,-0.5433,-0.1414,-0.0408,39.9750,17.5500,7.9500,
0.833254,0.5772,0.2601,-0.5682,-0.5433,-0.1414,-0.0408,39.9750,17.5500,7.9500,
0.835062,0.4545,0.2748,-0.6005,-0.5433,-0.1414,-0.0408,39.9750,17.5500,7.9500,
0.855406,0.4545,0.2748,-0.6005,-0.5433,-0.1414,-0.0408,39.9750,17.5500,7.9500,
0.858419,0.3580,0.2623,-0.4575,-0.5433,-0.1414,-0.0408,39.9750,17.5500,7.9500,
0.869755,0.3580,0.2623,-0.4575,-0.6374,-0.0820,-0.0849,39.9750,17.5500,7.9500,
0.875115,0.3580,0.2623,-0.4575,-0.6374,-0.0820,-0.0849,39.9750,17.5500,7.9500,
0.877019,0.3215,0.3215,-0.3305,-0.6374,-0.0820,-0.0849,39.9750,17.5500,7.9500,
0.894735,0.3215,0.3215,-0.3305,-0.6374,-0.0820,-0.0849,39.9750,17.5500,7.9500,
0.897546,0.2417,0.5497,-0.1978,-0.6374,-0.0820,-0.0849,39.9750,17.5500,7.9500,
0.899774,0.2417,0.5497,-0.1978,-0.6374,-0.0820,-0.0849,39.1500,18.1500,8.4750,
0.914523,0.2417,0.5497,-0.1978,-0.6374,-0.0820,-0.0849,39.1500,18.1500,8.4750,
0.917775,0.1931,0.5723,-0.1250,-0.6374,-0.0820,-0.0849,39.1500,18.1500,8.4750,
0.933617,0.1931,0.5723,-0.1250,-0.6374,-0.0820,-0.0849,39.1500,18.1500,8.4750,
0.936228,0.1921,0.4402,-0.2804,-0.6374,-0.0820,-0.0849,39.1500,18.1500,8.4750,
0.938485,0.1921,0.4402,-0.2804,-0.6484,-0.0333,-0.0307,39.1500,18.1500,8.4750,
0.953792,0.1921,0.4402,-0.2804,-0.6484,-0.0333,-0.0307,39.1500,18.1500,8.4750,
0.956392,0.2566,0.4186,-0.4037,-0.6484,-0.0333,-0.0307,39.1500,18.1500,8.4750,
0.965479,0.2566,0.4186,-0.4037,-0.6484,-0.0333,-0.0307,39.4500,17.8500,9.2250,
0.972665,0.2566,0.4186,-0.4037,-0.6484,-0.0333,-0.0307,39.4500,17.8500,9.2250,
0.974645,0.1941,0.5927,-0.2691,-0.6484,-0.0333,-0.0307,39.4500,17.8500,9.2250,
0.992937,0.1941,0.5927,-0.2691,-0.6484,-0.0333,-0.0307,39.4500,17.8500,9.2250,
0.997102,0.0745,0.8426,-0.0966,-0.6484,-0.0333,-0.0307,39.4500,17.8500,9.2250,
1.007299,0.0745,0.8426,-0.0966,-0.6880,-0.0075,0.0373,39.4500,17.8500,9.2250,
1.012374,0.0745,0.8426,-0.0966,-0.6880,-0.0075,0.0373,39.4500,17.8500,9.2250,
1.014039,0.0044,1.1224,-0.0174,-0.6880,-0.0075,0.0373,39.4500,17.8500,9.2250,
1.030082,0.0044,1.1224,-0.0174,-0.6880,-0.0075,0.0373,39.4500,17.8500,9.2250,
1.032693,0.0045,1.3214,-0.0496,-0.6880,-0.0075,0.0373,39.4500,17.8500,9.2250,
1.035586,0.0045,1.3214,-0.0496,-0.6880,-0.0075,0.0373,40.0500,16.7250,9.7500,
1.051430,0.0045,1.3214,-0.0496,-0.6880,-0.0075,0.0373,40.0500,16.7250,9.7500,
1.053991,0.0291,1.5052,-0.0291,-0.6880,-0.0075,0.0373,40.0500,16.7250,9.7500,
1.075458,0.0291,1.5052,-0.0291,-0.6880,-0.0075,0.0373,40.0500,16.7250,9.7500,
1.078259,0.1148,1.7242,-0.0261,-0.6880,-0.0075,0.0373,40.0500,16.7250,9.7500,
1.083425,0.1148,1.7242,-0.0261,-0.6757,-0.0350,0.0809,40.0500,16.7250,9.7500,
1.096212,0.1148,1.7242,-0.0261,-0.6757,-0.0350,0.0809,40.0500,16.7250,9.7500,
1.098543,0.3058,1.9643,-0.1223,-0.6757,-0.0350,0.0809,40.0500,16.7250,9.7500,
1.105540,0.3058,1.9643,-0.1223,-0.6757,-0.0350,0.0809,39.6750,15.7500,10.3500,
1.114409,0.3058,1.9643,-0.1223,-0.6757,-0.0350,0.0809,39.6750,15.7500,10.3500,
1.116564,0.3602,2.0856,-0.2104,-0.6757,-0.0350,0.0809,39.6750,15.7500,10.3500,
1.134241,0.3602,2.0856,-0.2104,-0.6757,-0.0350,0.0809,39.6750,15.7500,10.3500,
1.137207,0.2964,1.9656,-0.0676,-0.6757,-0.0350,0.0809,39.6750,15.7500,10.3500,
1.148970,0.2964,1.9656,-0.0676,-0.6510,0.0877,0.0220,39.6750,15.7500,10.3500,
1.154161,0.2964,1.9656,-0.0676,-0.6510,0.0877,0.0220,39.6750,15.7500,10.3500,
1.155886,0.3691,1.6715,0.2867,-0.6510,0.0877,0.0220,39.6750,15.7500,10.3500,
1.173279,0.3691,1.6715,0.2867,-0.6510,0.0877,0.0220,39.6750,15.7500,10.3500,
1.176114,0.3751,1.4803,0.4218,-0.6510,0.0877,0.0220,39.6750,15.7500,10.3500,
1.177879,0.3751,1.4803,0.4218,-0.6510,0.0877,0.0220,40.3500,15.1500,10.5750,
1.193103,0.3751,1.4803,0.4218,-0.6510,0.0877,0.0220,40.3500,15.1500,10.5750,
1.195357,0.2255,1.4419,0.2454,-0.6510,0.0877,0.0220,40.3500,15.1500,10.5750,
1.212505,0.2255,1.4419,0.2454,-0.6510,0.0877,0.0220,40.3500,15.1500,10.5750,
1.214594,-0.1104,1.4180,-0.2362,-0.6510,0.0877,0.0220,40.3500,15.1500,10.5750,
1.217102,-0.1104,1.4180,-0.2362,-0.5174,0.1611,-0.0189,40.3500,15.1500,10.5750,
1.233878,-0.1104,1.4180,-0.2362,-0.5174,0.1611,-0.0189,40.3500,15.1500,10.5750,
1.236351,-0.3390,1.3978,-0.4205,-0.5174,0.1611,-0.0189,40.3500,15.1500,10.5750,
1.250102,-0.3390,1.3978,-0.4205,-0.5174,0.1611,-0.0189,39.6750,14.7000,11.2500,
1.253190,-0.3390,1.3978,-0.4205,-0.5174,0.1611,-0.0189,39.6750,14.7000,11.2500,
1.254786,-0.4068,1.2986,-0.0492,-0.5174,0.1611,-0.0189,39.6750,14.7000,11.2500,
1.271858,-0.4068,1.2986,-0.0492,-0.5174,0.1611,-0.0189,39.6750,14.7000,11.2500,
1.273906,-0.3327,1.3767,0.3120,-0.5174,0.1611,-0.0189,39.6750,14.7000,11.2500,
1.285679,-0.3327,1.3767,0.3120,-0.3599,0.1199,-0.0211,39.6750,14.7000,11.2500,
1.290508,-0.3327,1.3767,0.3120,-0.3599,0.1199,-0.0211,39.6750,14.7000,11.2500,
1.292623,-0.3775,1.4747,0.1343,-0.3599,0.1199,-0.0211,39.6750,14.7000,11.2500,
1.316132,-0.3775,1.4747,0.1343,-0.3599,0.1199,-0.0211,39.6750,14.7000,11.2500,
1.319467,-0.3127,1.4681,-0.2546,-0.3599,0.1199,-0.0211,39.6750,14.7000,11.2500,
1.321929,-0.3127,1.4681,-0.2546,-0.3599,0.1199,-0.0211,39.3750,14.0250,12.0000,
1.333883,-0.3127,1.4681,-0.2546,-0.3599,0.1199,-0.0211,39.3750,14.0250,12.0000,
1.336472,-0.1063,1.1969,-0.5655,-0.3599,0.1199,-0.0211,39.3750,14.0250,12.0000,
1.354114,-0.1063,1.1969,-0.5655,-0.3599,0.1199,-0.0211,39.3750,14.0250,12.0000,
1.356540,-0.1266,0.8770,-0.7332,-0.3599,0.1199,-0.0211,39.3750,14.0250,12.0000,
1.358781,-0.1266,0.8770,-0.7332,-0.0399,0.0715,-0.1002,39.3750,14.0250,12.0000,
1.373843,-0.1266,0.8770,-0.7332,-0.0399,0.0715,-0.1002,39.3750,14.0250,12.0000,
1.376570,-0.2981,0.6088,-0.3218,-0.0399,0.0715,-0.1002,39.3750,14.0250,12.0000,
1.385013,-0.2981,0.6088,-0.3218,-0.0399,0.0715,-0.1002,39.0750,14.2500,13.5000,
1.388700,-0.2981,0.6088,-0.3218,-0.0399,0.0715,-0.1002,39.0750,14.2500,13.5000,
1.389896,-0.3925,0.4463,-0.0797,-0.0399,0.0715,-0.1002,39.0750,14.2500,13.5000,
1.408592,-0.3925,0.4463,-0.0797,-0.0399,0.0715,-0.1002,39.0750,14.2500,13.5000,
1.411652,-0.3263,0.6057,-0.3877,-0.0399,0.0715,-0.1002,39.0750,14.2500,13.5000,
1.429335,-0.3263,0.6057,-0.3877,0.4595,0.1009,-0.1611,39.0750,14.2500,13.5000,
1.433273,-0.3263,0.6057,-0.3877,0.4595,0.1009,-0.1611,39.0750,14.2500,13.5000,
1.434639,-0.1562,0.8751,-0.8524,0.4595,0.1009,-0.1611,39.0750,14.2500,13.5000,
1.453277,-0.1562,0.8751,-0.8524,0.4595,0.1009,-0.1611,39.0750,14.2500,13.5000,
1.454979,-0.0961,1.0043,-0.9909,0.4595,0.1009,-0.1611,39.0750,14.2500,13.5000,
1.456741,-0.0961,1.0043,-0.9909,0.4595,0.1009,-0.1611,39.6750,14.7000,13.8750,
1.473478,-0.0961,1.0043,-0.9909,0.4595,0.1009,-0.1611,39.6750,14.7000,13.8750,
1.475154,0.0787,1.1123,-0.8355,0.4595,0.1009,-0.1611,39.6750,14.7000,13.8750,
1.493147,0.0787,1.1123,-0.8355,0.4595,0.1009,-0.1611,39.6750,14.7000,13.8750,
1.497441,0.0273,1.3699,-0.8229,0.4595,0.1009,-0.1611,39.6750,14.7000,13.8750,
1.500359,0.0273,1.3699,-0.8229,0.8781,0.0531,-0.1468,39.6750,14.7000,13.8750,
1.508687,0.0273,1.3699,-0.8229,0.8781,0.0531,-0.1468,39.6750,14.7000,13.8750,
1.510303,0.0607,1.7940,-0.7059,0.8781,0.0531,-0.1468,39.6750,14.7000,13.8750,
1.525246,0.0607,1.7940,-0.7059,0.8781,0.0531,-0.1468,39.6750,14.7000,13.8750,
1.526819,0.1848,1.9218,-0.4492,0.8781,0.0531,-0.1468,39.6750,14.7000,13.8750,
1.528350,0.1848,1.9218,-0.4492,0.8781,0.0531,-0.1468,39.4500,15.4500,13.5000,
1.550394,0.1848,1.9218,-0.4492,0.8781,0.0531,-0.1468,39.4500,15.4500,13.5000,
1.552848,0.2585,1.8879,-0.6567,0.8781,0.0531,-0.1468,39.4500,15.4500,13.5000,
1.564400,0.2585,1.8879,-0.6567,1.0894,0.1628,-0.1385,39.4500,15.4500,13.5000,
1.569851,0.2585,1.8879,-0.6567,1.0894,0.1628,-0.1385,39.4500,15.4500,13.5000,
1.571716,0.5656,2.0778,-0.9711,1.0894,0.1628,-0.1385,39.4500,15.4500,13.5000,
1.595419,0.5656,2.0778,-0.9711,1.0894,0.1628,-0.1385,39.4500,15.4500,13.5000,
1.597725,0.5587,2.5734,-0.9237,1.0894,0.1628,-0.1385,39.4500,15.4500,13.5000,
1.599995,0.5587,2.5734,-0.9237,1.0894,0.1628,-0.1385,38.1750,16.3500,13.3500,
1.615739,0.5587,2.5734,-0.9237,1.0894,0.1628,-0.1385,38.1750,16.3500,13.3500,
1.617704,0.0636,3.0407,-0.5000,1.0894,0.1628,-0.1385,38.1750,16.3500,13.3500,
1.633136,0.0636,3.0407,-0.5000,1.0894,0.1628,-0.1385,38.1750,16.3500,13.3500,
1.635379,-0.3604,3.5037,-0.7933,1.0894,0.1628,-0.1385,38.1750,16.3500,13.3500,
1.638323,-0.3604,3.5037,-0.7933,1.2133,0.2176,-0.1669,38.1750,16.3500,13.3500,
1.652979,-0.3604,3.5037,-0.7933,1.2133,0.2176,-0.1669,38.1750,16.3500,13.3500,
1.655143,-0.5487,3.6908,-1.4424,1.2133,0.2176,-0.1669,38.1750,16.3500,13.3500,
1.665782,-0.5487,3.6908,-1.4424,1.2133,0.2176,-0.1669,38.6250,17.3250,13.2000,
1.672635,-0.5487,3.6908,-1.4424,1.2133,0.2176,-0.1669,38.6250,17.3250,13.2000,
1.674615,-0.5090,3.8940,-1.8539,1.2133,0.2176,-0.1669,38.6250,17.3250,13.2000,
1.692107,-0.5090,3.8940,-1.8539,1.2133,0.2176,-0.1669,38.6250,17.3250,13.2000,
1.695243,0.0262,3.5439,-1.7628,1.2133,0.2176,-0.1669,38.6250,17.3250,13.2000,
1.706351,0.0262,3.5439,-1.7628,1.3652,0.3308,0.1228,38.6250,17.3250,13.2000,
1.716029,0.0262,3.5439,-1.7628,1.3652,0.3308,0.1228,38.6250,17.3250,13.2000,
1.717714,0.1367,2.4892,-2.5820,1.3652,0.3308,0.1228,38.6250,17.3250,13.2000,
1.731295,0.1367,2.4892,-2.5820,1.3652,0.3308,0.1228,38.6250,17.3250,13.2000,
1.733422,0.2224,1.6607,-3.3613,1.3652,0.3308,0.1228,38.6250,17.3250,13.2000,
1.736227,0.2224,1.6607,-3.3613,1.3652,0.3308,0.1228,38.0250,18.7500,13.9500,
1.752205,0.2224,1.6607,-3.3613,1.3652,0.3308,0.1228,38.0250,18.7500,13.9500,
1.754221,0.4754,0.8782,-4.5229,1.3652,0.3308,0.1228,38.0250,18.7500,13.9500,
1.770280,0.4754,0.8782,-4.5229,1.3652,0.3308,0.1228,38.0250,18.7500,13.9500,
1.772601,0.3979,0.1301,-5.4864,1.3652,0.3308,0.1228,38.0250,18.7500,13.9500,
1.774638,0.3979,0.1301,-5.4864,1.9622,0.1703,0.3181,38.0250,18.7500,13.9500,
1.789401,0.3979,0.1301,-5.4864,1.9622,0.1703,0.3181,38.0250,18.7500,13.9500,
1.791953,0.1680,-0.1797,-5.4870,1.9622,0.1703,0.3181,38.0250,18.7500,13.9500,
1.805735,0.1680,-0.1797,-5.4870,1.9622,0.1703,0.3181,38.6250,19.0500,13.9500,
1.807869,0.1680,-0.1797,-5.4870,1.9622,0.1703,0.3181,38.6250,19.0500,13.9500,
1.809056,0.0820,-0.0252,-5.0187,1.9622,0.1703,0.3181,38.6250,19.0500,13.9500,
1.824379,0.0820,-0.0252,-5.0187,1.9622,0.1703,0.3181,38.6250,19.0500,13.9500,
1.826769,-0.1338,1.3642,-4.6574,1.9622,0.1703,0.3181,38.6250,19.0500,13.9500,
1.846243,-0.1338,1.3642,-4.6574,1.9622,0.1703,0.3181,38.6250,19.0500,13.9500,
1.847387,-0.4642,3.5397,-4.2097,1.9622,0.1703,0.3181,38.6250,19.0500,13.9500,
1.848441,-0.4642,3.5397,-4.2097,2.9217,-0.0629,0.7851,38.6250,19.0500,13.9500,
1.866651,-0.4642,3.5397,-4.2097,2.9217,-0.0629,0.7851,38.6250,19.0500,13.9500,
1.868174,-0.0804,5.7726,-3.3788,2.9217,-0.0629,0.7851,38.6250,19.0500,13.9500,
1.876545,-0.0804,5.7726,-3.3788,2.9217,-0.0629,0.7851,38.1750,18.8250,11.7000,
1.884727,-0.0804,5.7726,-3.3788,2.9217,-0.0629,0.7851,38.1750,18.8250,11.7000,
1.886288,0.6283,5.7254,-1.9155,2.9217,-0.0629,0.7851,38.1750,18.8250,11.7000,
1.906843,0.6283,5.7254,-1.9155,2.9217,-0.0629,0.7851,38.1750,18.8250,11.7000,
1.908956,-3.8303,-38.3134,21.6290,2.9217,-0.0629,0.7851,38.1750,18.8250,11.7000,
1.918055,-3.8303,-38.3134,21.6290,5.0089,0.0312,1.3958,38.1750,18.8250,11.7000,
1.933956,-3.8303,-38.3134,21.6290,5.0089,0.0312,1.3958,38.1750,18.8250,11.7000,
1.937062,-4.8525,-43.2822,-5.2292,5.0089,0.0312,1.3958,38.1750,18.8250,11.7000,
1.947200,-4.8525,-43.2822,-5.2292,5.0089,0.0312,1.3958,39.6750,18.0000,9.3750,
1.951414,-4.8525,-43.2822,-5.2292,5.0089,0.0312,1.3958,39.6750,18.0000,9.3750,
1.953261,1.9815,-11.6719,13.7367,5.0089,0.0312,1.3958,39.6750,18.0000,9.3750,
1.970630,1.9815,-11.6719,13.7367,5.0089,0.0312,1.3958,39.6750,18.0000,9.3750,
1.972774,-0.8536,-1.8183,13.9280,5.0089,0.0312,1.3958,39.6750,18.0000,9.3750,
1.984755,-0.8536,-1.8183,13.9280,5.7785,0.2521,1.4222,39.6750,18.0000,9.3750,
1.990065,-0.8536,-1.8183,13.9280,5.7785,0.2521,1.4222,39.6750,18.0000,9.3750,
1.992566,-1.0208,12.7980,-16.3341,5.7785,0.2521,1.4222,39.6750,18.0000,9.3750,
2.009325,-1.0208,12.7980,-16.3341,5.7785,0.2521,1.4222,39.6750,18.0000,9.3750,
2.011403,3.0277,25.7205,-11.2320,5.7785,0.2521,1.4222,39.6750,18.0000,9.3750,
2.013298,3.0277,25.7205,-11.2320,5.7785,0.2521,1.4222,40.3500,15.0000,6.7500,
2.029731,3.0277,25.7205,-11.2320,5.7785,0.2521,1.4222,40.3500,15.0000,6.7500,
2.031646,5.4873,19.4109,-10.8168,5.7785,0.2521,1.4222,40.3500,15.0000,6.7500,
2.048768,5.4873,19.4109,-10.8168,5.7785,0.2521,1.4222,40.3500,15.0000,6.7500,
2.050683,-2.4617,10.3443,-7.6150,5.7785,0.2521,1.4222,40.3500,15.0000,6.7500,
2.053516,-2.4617,10.3443,-7.6150,3.6185,-0.2437,0.7692,40.3500,15.0000,6.7500,
2.069435,-2.4617,10.3443,-7.6150,3.6185,-0.2437,0.7692,40.3500,15.0000,6.7500,
2.073245,-5.9744,3.4564,12.1361,3.6185,-0.2437,0.7692,40.3500,15.0000,6.7500,
2.082906,-5.9744,3.4564,12.1361,3.6185,-0.2437,0.7692,39.7500,11.8500,4.7250,
2.085446,-5.9744,3.4564,12.1361,3.6185,-0.2437,0.7692,39.7500,11.8500,4.7250,
2.086932,-6.2364,-3.8373,14.2641,3.6185,-0.2437,0.7692,39.7500,11.8500,4.7250,
2.107778,-6.2364,-3.8373,14.2641,3.6185,-0.2437,0.7692,39.7500,11.8500,4.7250,
2.110495,-3.0921,-5.9165,6.2174,3.6185,-0.2437,0.7692,39.7500,11.8500,4.7250,
2.122120,-3.0921,-5.9165,6.2174,3.0457,-0.5580,0.5311,39.7500,11.8500,4.7250,
2.127759,-3.0921,-5.9165,6.2174,3.0457,-0.5580,0.5311,39.7500,11.8500,4.7250,
2.129283,-1.5595,-0.1470,5.5038,3.0457,-0.5580,0.5311,39.7500,11.8500,4.7250,
2.147299,-1.5595,-0.1470,5.5038,3.0457,-0.5580,0.5311,39.7500,11.8500,4.7250,
2.149769,1.8422,5.3714,7.3440,3.0457,-0.5580,0.5311,39.7500,11.8500,4.7250,
2.151637,1.8422,5.3714,7.3440,3.0457,-0.5580,0.5311,39.6750,11.0250,1.6500,
2.167829,1.8422,5.3714,7.3440,3.0457,-0.5580,0.5311,39.6750,11.0250,1.6500,
2.169596,2.0032,8.3611,3.1952,3.0457,-0.5580,0.5311,39.6750,11.0250,1.6500,
2.183754,2.0032,8.3611,3.1952,3.0457,-0.5580,0.5311,39.6750,11.0250,1.6500,
2.185407,3.7293,11.9204,-0.7772,3.0457,-0.5580,0.5311,39.6750,11.0250,1.6500,
2.190012,3.7293,11.9204,-0.7772,1.8918,-0.3546,0.9083,39.6750,11.0250,1.6500,
2.206002,3.7293,11.9204,-0.7772,1.8918,-0.3546,0.9083,39.6750,11.0250,1.6500,
2.208056,3.9265,12.9457,-2.0126,1.8918,-0.3546,0.9083,39.6750,11.0250,1.6500,
2.215898,3.9265,12.9457,-2.0126,1.8918,-0.3546,0.9083,40.0500,8.2500,-0.3750,
2.225309,3.9265,12.9457,-2.0126,1.8918,-0.3546,0.9083,40.0500,8.2500,-0.3750,
2.227293,3.3336,8.3542,-2.7072,1.8918,-0.3546,0.9083,40.0500,8.2500,-0.3750,
2.249689,3.3336,8.3542,-2.7072,1.8918,-0.3546,0.9083,40.0500,8.2500,-0.3750,
2.252496,2.8287,3.2843,-1.7458,1.8918,-0.3546,0.9083,40.0500,8.2500,-0.3750,
2.264593,2.8287,3.2843,-1.7458,0.1515,-0.4807,-0.0667,40.0500,8.2500,-0.3750,
2.268887,2.8287,3.2843,-1.7458,0.1515,-0.4807,-0.0667,40.0500,8.2500,-0.3750,
2.270539,1.5330,2.9376,0.7986,0.1515,-0.4807,-0.0667,40.0500,8.2500,-0.3750,
2.284025,1.5330,2.9376,0.7986,0.1515,-0.4807,-0.0667,40.0500,8.2500,-0.3750,
2.286020,0.9401,3.4663,2.4157,0.1515,-0.4807,-0.0667,40.0500,8.2500,-0.3750,
2.289177,0.9401,3.4663,2.4157,0.1515,-0.4807,-0.0667,40.2750,7.3500,-1.8750,
2.309026,0.9401,3.4663,2.4157,0.1515,-0.4807,-0.0667,40.2750,7.3500,-1.8750,
2.311304,-0.0883,2.5432,2.4422,0.1515,-0.4807,-0.0667,40.2750,7.3500,-1.8750,
2.327989,-0.0883,2.5432,2.4422,0.1515,-0.4807,-0.0667,40.2750,7.3500,-1.8750,
2.330297,-0.6786,1.0046,0.7450,0.1515,-0.4807,-0.0667,40.2750,7.3500,-1.8750,
2.332645,-0.6786,1.0046,0.7450,-0.0564,-0.2311,-0.0738,40.2750,7.3500,-1.8750,
2.350496,-0.6786,1.0046,0.7450,-0.0564,-0.2311,-0.0738,40.2750,7.3500,-1.8750,
2.353119,-0.2339,0.2139,-1.4250,-0.0564,-0.2311,-0.0738,40.2750,7.3500,-1.8750,
2.357847,-0.2339,0.2139,-1.4250,-0.0564,-0.2311,-0.0738,40.0500,7.1250,-1.8750,
2.367055,-0.2339,0.2139,-1.4250,-0.0564,-0.2311,-0.0738,40.0500,7.1250,-1.8750,
2.369488,0.4426,0.5712,-1.1418,-0.0564,-0.2311,-0.0738,40.0500,7.1250,-1.8750,
2.383369,0.4426,0.5712,-1.1418,-0.0564,-0.2311,-0.0738,40.0500,7.1250,-1.8750,
2.385548,0.4591,0.9771,-0.4504,-0.0564,-0.2311,-0.0738,40.0500,7.1250,-1.8750,
2.401099,0.4591,0.9771,-0.4504,0.2169,-0.1510,0.2555,40.0500,7.1250,-1.8750,
2.403683,0.4591,0.9771,-0.4504,0.2169,-0.1510,0.2555,40.0500,7.1250,-1.8750,
2.405859,-0.3584,1.3917,0.3994,0.2169,-0.1510,0.2555,40.0500,7.1250,-1.8750,
2.425308,-0.3584,1.3917,0.3994,0.2169,-0.1510,0.2555,40.0500,7.1250,-1.8750,
2.428515,-0.7637,1.8063,0.3440,0.2169,-0.1510,0.2555,40.0500,7.1250,-1.8750,
2.430657,-0.7637,1.8063,0.3440,0.2169,-0.1510,0.2555,40.0500,6.9000,-2.2500,
2.449417,-0.7637,1.8063,0.3440,0.2169,-0.1510,0.2555,40.0500,6.9000,-2.2500,
2.450973,-0.4760,2.0990,-0.9519,0.2169,-0.1510,0.2555,40.0500,6.9000,-2.2500,
2.464461,-0.4760,2.0990,-0.9519,0.2169,-0.1510,0.2555,40.0500,6.9000,-2.2500,
2.465537,-0.3829,1.7423,-1.1606,0.2169,-0.1510,0.2555,40.0500,6.9000,-2.2500,
2.469404,-0.3829,1.7423,-1.1606,0.0557,-0.1139,0.1967,40.0500,6.9000,-2.2500,
2.484495,-0.3829,1.7423,-1.1606,0.0557,-0.1139,0.1967,40.0500,6.9000,-2.2500,
2.485703,-0.0388,0.8326,-0.5382,0.0557,-0.1139,0.1967,40.0500,6.9000,-2.2500,
2.497473,-0.0388,0.8326,-0.5382,0.0557,-0.1139,0.1967,39.7500,5.8500,-3.1500,
2.503952,-0.0388,0.8326,-0.5382,0.0557,-0.1139,0.1967,39.7500,5.8500,-3.1500,
2.505233,0.0526,-0.0043,0.4949,0.0557,-0.1139,0.1967,39.7500,5.8500,-3.1500,
2.523117,0.0526,-0.0043,0.4949,0.0557,-0.1139,0.1967,39.7500,5.8500,-3.1500,
2.524328,0.1237,-0.1725,0.5910,0.0557,-0.1139,0.1967,39.7500,5.8500,-3.1500,
2.538381,0.1237,-0.1725,0.5910,-0.2714,-0.0287,0.0658,39.7500,5.8500,-3.1500,
2.542968,0.1237,-0.1725,0.5910,-0.2714,-0.0287,0.0658,39.7500,5.8500,-3.1500,
2.544413,0.1608,0.1482,0.3563,-0.2714,-0.0287,0.0658,39.7500,5.8500,-3.1500,
2.562941,0.1608,0.1482,0.3563,-0.2714,-0.0287,0.0658,39.7500,5.8500,-3.1500,
2.564560,0.0427,0.6482,-0.1911,-0.2714,-0.0287,0.0658,39.7500,5.8500,-3.1500,
2.566012,0.0427,0.6482,-0.1911,-0.2714,-0.0287,0.0658,40.3500,5.9250,-3.4500,
2.583046,0.0427,0.6482,-0.1911,-0.2714,-0.0287,0.0658,40.3500,5.9250,-3.4500,
2.586141,-0.1242,1.1052,-0.2509,-0.2714,-0.0287,0.0658,40.3500,5.9250,-3.4500,
2.601308,-0.1242,1.1052,-0.2509,-0.2714,-0.0287,0.0658,40.3500,5.9250,-3.4500,
2.603865,-0.3908,1.3205,-0.3495,-0.2714,-0.0287,0.0658,40.3500,5.9250,-3.4500,
2.613211,-0.3908,1.3205,-0.3495,-0.3129,-0.0176,0.0032,40.3500,5.9250,-3.4500,
2.626089,-0.3908,1.3205,-0.3495,-0.3129,-0.0176,0.0032,40.3500,5.9250,-3.4500,
2.628465,-0.3899,1.4319,-0.5296,-0.3129,-0.0176,0.0032,40.3500,5.9250,-3.4500,
2.645615,-0.3899,1.4319,-0.5296,-0.3129,-0.0176,0.0032,40.3500,6.1500,-3.9750,
2.648778,-0.3899,1.4319,-0.5296,-0.3129,-0.0176,0.0032,40.3500,6.1500,-3.9750,
2.650377,-0.4133,2.0095,0.9572,-0.3129,-0.0176,0.0032,40.3500,6.1500,-3.9750,
2.666383,-0.4133,2.0095,0.9572,-0.3129,-0.0176,0.0032,40.3500,6.1500,-3.9750,
2.669068,0.0861,2.4329,2.1644,-0.3129,-0.0176,0.0032,40.3500,6.1500,-3.9750,
2.683179,0.0861,2.4329,2.1644,-0.5896,0.0125,0.0377,40.3500,6.1500,-3.9750,
2.685711,0.0861,2.4329,2.1644,-0.5896,0.0125,0.0377,40.3500,6.1500,-3.9750,
2.687156,0.5714,1.7027,1.9467,-0.5896,0.0125,0.0377,40.3500,6.1500,-3.9750,
2.704578,0.5714,1.7027,1.9467,-0.5896,0.0125,0.0377,40.3500,6.1500,-3.9750,
2.706304,0.7606,1.2078,0.6147,-0.5896,0.0125,0.0377,40.3500,6.1500,-3.9750,
2.707750,0.7606,1.2078,0.6147,-0.5896,0.0125,0.0377,40.0500,5.9250,-3.7500,
2.723390,0.7606,1.2078,0.6147,-0.5896,0.0125,0.0377,40.0500,5.9250,-3.7500,
2.725246,0.5151,1.8170,-0.3092,-0.5896,0.0125,0.0377,40.0500,5.9250,-3.7500,
2.744172,0.5151,1.8170,-0.3092,-0.5896,0.0125,0.0377,40.0500,5.9250,-3.7500,
2.745550,0.2843,2.3633,0.1468,-0.5896,0.0125,0.0377,40.0500,5.9250,-3.7500,
2.751238,0.2843,2.3633,0.1468,-0.8656,0.1226,-0.0582,40.0500,5.9250,-3.7500,
2.765774,0.2843,2.3633,0.1468,-0.8656,0.1226,-0.0582,40.0500,5.9250,-3.7500,
2.768001,0.1688,1.9769,1.0079,-0.8656,0.1226,-0.0582,40.0500,5.9250,-3.7500,
2.776142,0.1688,1.9769,1.0079,-0.8656,0.1226,-0.0582,39.7500,6.0000,-4.1250,
2.783679,0.1688,1.9769,1.0079,-0.8656,0.1226,-0.0582,39.7500,6.0000,-4.1250,
2.784370,0.0712,1.3985,1.2073,-0.8656,0.1226,-0.0582,39.7500,6.0000,-4.1250,
2.803806,0.0712,1.3985,1.2073,-0.8656,0.1226,-0.0582,39.7500,6.0000,-4.1250,
2.804557,-0.0548,1.4192,0.9968,-0.8656,0.1226,-0.0582,39.7500,6.0000,-4.1250,
2.821482,-0.0548,1.4192,0.9968,-1.1125,0.2031,-0.1804,39.7500,6.0000,-4.1250,
2.823181,-0.0548,1.4192,0.9968,-1.1125,0.2031,-0.1804,39.7500,6.0000,-4.1250,
2.824243,-0.1460,1.8247,1.2231,-1.1125,0.2031,-0.1804,39.7500,6.0000,-4.1250,
2.842339,-0.1460,1.8247,1.2231,-1.1125,0.2031,-0.1804,39.7500,6.0000,-4.1250,
2.844028,-0.1967,1.8598,1.0485,-1.1125,0.2031,-0.1804,39.7500,6.0000,-4.1250,
2.848378,-0.1967,1.8598,1.0485,-1.1125,0.2031,-0.1804,40.6500,6.9000,-3.3750,
2.864033,-0.1967,1.8598,1.0485,-1.1125,0.2031,-0.1804,40.6500,6.9000,-3.3750,
2.865563,-0.1261,1.4739,1.1036,-1.1125,0.2031,-0.1804,40.6500,6.9000,-3.3750,
2.884119,-0.1261,1.4739,1.1036,-1.1125,0.2031,-0.1804,40.6500,6.9000,-3.3750,
2.885664,-0.2659,1.2175,1.7382,-1.1125,0.2031,-0.1804,40.6500,6.9000,-3.3750,
2.890901,-0.2659,1.2175,1.7382,-1.4784,0.1229,-0.3838,40.6500,6.9000,-3.3750,
2.905480,-0.2659,1.2175,1.7382,-1.4784,0.1229,-0.3838,40.6500,6.9000,-3.3750,
2.908136,-0.8097,1.0452,1.5067,-1.4784,0.1229,-0.3838,40.6500,6.9000,-3.3750,
2.915354,-0.8097,1.0452,1.5067,-1.4784,0.1229,-0.3838,40.9500,8.6250,-1.9500,
2.924811,-0.8097,1.0452,1.5067,-1.4784,0.1229,-0.3838,40.9500,8.6250,-1.9500,
2.926857,-1.3399,0.8525,0.5962,-1.4784,0.1229,-0.3838,40.9500,8.6250,-1.9500,
2.945002,-1.3399,0.8525,0.5962,-1.4784,0.1229,-0.3838,40.9500,8.6250,-1.9500,
2.947395,-1.7310,0.3245,-0.1580,-1.4784,0.1229,-0.3838,40.9500,8.6250,-1.9500,
2.958394,-1.7310,0.3245,-0.1580,-1.7602,-0.3129,-0.5482,40.9500,8.6250,-1.9500,
2.966942,-1.7310,0.3245,-0.1580,-1.7602,-0.3129,-0.5482,40.9500,8.6250,-1.9500,
2.968960,-1.4387,-0.2408,-0.5671,-1.7602,-0.3129,-0.5482,40.9500,8.6250,-1.9500,
2.982853,-1.4387,-0.2408,-0.5671,-1.7602,-0.3129,-0.5482,40.9500,8.6250,-1.9500,
2.985140,-1.1576,-0.4013,-0.8319,-1.7602,-0.3129,-0.5482,40.9500,8.6250,-1.9500,
2.986647,-1.1576,-0.4013,-0.8319,-1.7602,-0.3129,-0.5482,40.3500,10.6500,-2.7000,
3.003474,-1.1576,-0.4013,-0.8319,-1.7602,-0.3129,-0.5482,40.3500,10.6500,-2.7000,
3.004789,-0.7083,-0.6465,-0.9147,-1.7602,-0.3129,-0.5482,40.3500,10.6500,-2.7000,
3.023346,-0.7083,-0.6465,-0.9147,-1.7602,-0.3129,-0.5482,40.3500,10.6500,-2.7000,
3.026043,-0.4962,-1.3455,-0.1094,-1.7602,-0.3129,-0.5482,40.3500,10.6500,-2.7000,
3.027935,-0.4962,-1.3455,-0.1094,-1.8203,-0.6469,-0.4226,40.3500,10.6500,-2.7000,
3.041349,-0.4962,-1.3455,-0.1094,-1.8203,-0.6469,-0.4226,40.3500,10.6500,-2.7000,
3.043966,-0.1212,-1.8678,1.0560,-1.8203,-0.6469,-0.4226,40.3500,10.6500,-2.7000,
3.055600,-0.1212,-1.8678,1.0560,-1.8203,-0.6469,-0.4226,40.0500,12.4500,-3.1500,
3.063057,-0.1212,-1.8678,1.0560,-1.8203,-0.6469,-0.4226,40.0500,12.4500,-3.1500,
3.065321,0.3510,-1.5563,-0.0863,-1.8203,-0.6469,-0.4226,40.0500,12.4500,-3.1500,
3.084232,0.3510,-1.5563,-0.0863,-1.8203,-0.6469,-0.4226,40.0500,12.4500,-3.1500,
3.087110,0.5522,-0.6856,-0.4025,-1.8203,-0.6469,-0.4226,40.0500,12.4500,-3.1500,
3.097017,0.5522,-0.6856,-0.4025,-1.6253,-0.4705,-0.1894,40.0500,12.4500,-3.1500,
3.101291,0.5522,-0.6856,-0.4025,-1.6253,-0.4705,-0.1894,40.0500,12.4500,-3.1500,
3.102831,0.6850,-0.3342,-0.4055,-1.6253,-0.4705,-0.1894,40.0500,12.4500,-3.1500,
3.120534,0.6850,-0.3342,-0.4055,-1.6253,-0.4705,-0.1894,40.0500,12.4500,-3.1500,
3.122151,0.3325,-0.1261,0.0005,-1.6253,-0.4705,-0.1894,40.0500,12.4500,-3.1500,
3.126437,0.3325,-0.1261,0.0005,-1.6253,-0.4705,-0.1894,38.7750,13.9500,-3.3750,
3.145239,0.3325,-0.1261,0.0005,-1.6253,-0.4705,-0.1894,38.7750,13.9500,-3.3750,
3.146658,0.2095,0.3757,-0.5863,-1.6253,-0.4705,-0.1894,38.7750,13.9500,-3.3750,
3.169644,0.2095,0.3757,-0.5863,-1.6253,-0.4705,-0.1894,38.7750,13.9500,-3.3750,
3.172293,0.2843,0.7338,-1.5597,-1.6253,-0.4705,-0.1894,38.7750,13.9500,-3.3750,
3.174385,0.2843,0.7338,-1.5597,-1.5343,-0.1642,-0.1194,38.7750,13.9500,-3.3750,
3.183100,0.2843,0.7338,-1.5597,-1.5343,-0.1642,-0.1194,38.7750,13.9500,-3.3750,
3.185061,0.2510,0.9838,-1.1342,-1.5343,-0.1642,-0.1194,38.7750,13.9500,-3.3750,
3.200538,0.2510,0.9838,-1.1342,-1.5343,-0.1642,-0.1194,38.9250,15.2250,-3.5250,
3.203396,0.2510,0.9838,-1.1342,-1.5343,-0.1642,-0.1194,38.9250,15.2250,-3.5250,
3.205068,0.1959,0.6545,-0.5232,-1.5343,-0.1642,-0.1194,38.9250,15.2250,-3.5250,
3.222088,0.1959,0.6545,-0.5232,-1.5343,-0.1642,-0.1194,38.9250,15.2250,-3.5250,
3.223951,-0.2451,0.0192,-0.4001,-1.5343,-0.1642,-0.1194,38.9250,15.2250,-3.5250,
3.237058,-0.2451,0.0192,-0.4001,-1.5787,0.1935,-0.1544,38.9250,15.2250,-3.5250,
3.239722,-0.2451,0.0192,-0.4001,-1.5787,0.1935,-0.1544,38.9250,15.2250,-3.5250,
3.241007,-0.3989,-0.0414,-1.0413,-1.5787,0.1935,-0.1544,38.9250,15.2250,-3.5250,
3.256922,-0.3989,-0.0414,-1.0413,-1.5787,0.1935,-0.1544,38.9250,15.2250,-3.5250,
3.259684,-0.5708,0.0791,-1.0678,-1.5787,0.1935,-0.1544,38.9250,15.2250,-3.5250,
3.267762,-0.5708,0.0791,-1.0678,-1.5787,0.1935,-0.1544,39.0750,16.6500,-3.3000,
3.281200,-0.5708,0.0791,-1.0678,-1.5787,0.1935,-0.1544,39.0750,16.6500,-3.3000,
3.282560,-0.9006,0.1209,-1.2402,-1.5787,0.1935,-0.1544,39.0750,16.6500,-3.3000,
3.301227,-0.9006,0.1209,-1.2402,-1.5787,0.1935,-0.1544,39.0750,16.6500,-3.3000,
3.302789,-0.7467,-0.0394,-1.6837,-1.5787,0.1935,-0.1544,39.0750,16.6500,-3.3000,
3.305533,-0.7467,-0.0394,-1.6837,-1.4573,0.1779,-0.1833,39.0750,16.6500,-3.3000,
3.320886,-0.7467,-0.0394,-1.6837,-1.4573,0.1779,-0.1833,39.0750,16.6500,-3.3000,
3.322427,-0.9830,-0.3176,-1.0514,-1.4573,0.1779,-0.1833,39.0750,16.6500,-3.3000,
3.336190,-0.9830,-0.3176,-1.0514,-1.4573,0.1779,-0.1833,39.7500,17.7000,-0.9000,
3.337900,-0.9830,-0.3176,-1.0514,-1.4573,0.1779,-0.1833,39.7500,17.7000,-0.9000,
3.339167,-1.2902,-0.7454,-0.5090,-1.4573,0.1779,-0.1833,39.7500,17.7000,-0.9000,
3.359800,-1.2902,-0.7454,-0.5090,-1.4573,0.1779,-0.1833,39.7500,17.7000,-0.9000,
3.363987,-1.1507,-0.9190,-0.8029,-1.4573,0.1779,-0.1833,39.7500,17.7000,-0.9000,
3.377594,-1.1507,-0.9190,-0.8029,-1.3335,-0.1625,-0.3538,39.7500,17.7000,-0.9000,
3.380439,-1.1507,-0.9190,-0.8029,-1.3335,-0.1625,-0.3538,39.7500,17.7000,-0.9000,
3.382122,-0.8127,-0.4800,-1.9888,-1.3335,-0.1625,-0.3538,39.7500,17.7000,-0.9000,
3.398337,-0.8127,-0.4800,-1.9888,-1.3335,-0.1625,-0.3538,39.7500,17.7000,-0.9000,
3.401199,-0.6977,0.1078,-2.0999,-1.3335,-0.1625,-0.3538,39.7500,17.7000,-0.9000,
3.405589,-0.6977,0.1078,-2.0999,-1.3335,-0.1625,-0.3538,39.4500,18.8250,0.1500,
3.418170,-0.6977,0.1078,-2.0999,-1.3335,-0.1625,-0.3538,39.4500,18.8250,0.1500,
3.420653,-0.3511,-0.0870,-2.5602,-1.3335,-0.1625,-0.3538,39.4500,18.8250,0.1500,
3.433039,-0.3511,-0.0870,-2.5602,-1.3335,-0.1625,-0.3538,39.4500,18.8250,0.1500,
3.434885,-0.6851,-0.4015,-2.2288,-1.3335,-0.1625,-0.3538,39.4500,18.8250,0.1500,
3.442098,-0.6851,-0.4015,-2.2288,-1.5186,-0.4001,-0.5178,39.4500,18.8250,0.1500,
3.457253,-0.6851,-0.4015,-2.2288,-1.5186,-0.4001,-0.5178,39.4500,18.8250,0.1500,
3.460242,-1.7561,-0.4976,-1.1258,-1.5186,-0.4001,-0.5178,39.4500,18.8250,0.1500,
3.476205,-1.7561,-0.4976,-1.1258,-1.5186,-0.4001,-0.5178,38.2500,20.4000,0.3750,
3.479146,-1.7561,-0.4976,-1.1258,-1.5186,-0.4001,-0.5178,38.2500,20.4000,0.3750,
3.481087,-1.3016,-1.3580,-0.9884,-1.5186,-0.4001,-0.5178,38.2500,20.4000,0.3750,
3.502053,-1.3016,-1.3580,-0.9884,-1.5186,-0.4001,-0.5178,38.2500,20.4000,0.3750,
3.504272,0.0428,-1.2512,-0.7467,-1.5186,-0.4001,-0.5178,38.2500,20.4000,0.3750,
3.516756,0.0428,-1.2512,-0.7467,-1.4905,-0.9186,-0.5502,38.2500,20.4000,0.3750,
3.521772,0.0428,-1.2512,-0.7467,-1.4905,-0.9186,-0.5502,38.2500,20.4000,0.3750,
3.523157,-0.3516,-0.0827,1.3270,-1.4905,-0.9186,-0.5502,38.2500,20.4000,0.3750,
3.541552,-0.3516,-0.0827,1.3270,-1.4905,-0.9186,-0.5502,38.2500,20.4000,0.3750,
3.545490,1.5198,-0.0871,-0.0884,-1.4905,-0.9186,-0.5502,38.2500,20.4000,0.3750,
3.548359,1.5198,-0.0871,-0.0884,-1.4905,-0.9186,-0.5502,38.5500,22.1250,0.1500,
3.560166,1.5198,-0.0871,-0.0884,-1.4905,-0.9186,-0.5502,38.5500,22.1250,0.1500,
3.562370,2.6504,-0.1295,-1.8861,-1.4905,-0.9186,-0.5502,38.5500,22.1250,0.1500,
3.580458,2.6504,-0.1295,-1.8861,-1.4905,-0.9186,-0.5502,38.5500,22.1250,0.1500,
3.583242,1.6714,0.2614,-1.9291,-1.4905,-0.9186,-0.5502,38.5500,22.1250,0.1500,
3.585359,1.6714,0.2614,-1.9291,-0.8633,-0.8471,-0.4248,38.5500,22.1250,0.1500,
3.600649,1.6714,0.2614,-1.9291,-0.8633,-0.8471,-0.4248,38.5500,22.1250,0.1500,
3.603317,1.0552,0.3791,-1.6118,-0.8633,-0.8471,-0.4248,38.5500,22.1250,0.1500,
3.615819,1.0552,0.3791,-1.6118,-0.8633,-0.8471,-0.4248,38.5500,22.1250,0.1500,
3.618209,0.7351,0.0908,-0.8782,-0.8633,-0.8471,-0.4248,38.5500,22.1250,0.1500,
3.620127,0.7351,0.0908,-0.8782,-0.8633,-0.8471,-0.4248,36.9750,24.0000,-1.4250,
3.633440,0.7351,0.0908,-0.8782,-0.8633,-0.8471,-0.4248,36.9750,24.0000,-1.4250,
3.635350,0.3064,-0.2751,0.0948,-0.8633,-0.8471,-0.4248,36.9750,24.0000,-1.4250,
3.652802,0.3064,-0.2751,0.0948,-0.6722,-0.2833,-0.2060,36.9750,24.0000,-1.4250,
3.657349,0.3064,-0.2751,0.0948,-0.6722,-0.2833,-0.2060,36.9750,24.0000,-1.4250,
3.659051,0.3925,-0.5925,0.3273,-0.6722,-0.2833,-0.2060,36.9750,24.0000,-1.4250,
3.678771,0.3925,-0.5925,0.3273,-0.6722,-0.2833,-0.2060,36.9750,24.0000,-1.4250,
3.685060,0.8934,-0.7598,0.2044,-0.6722,-0.2833,-0.2060,36.9750,24.0000,-1.4250,
3.688220,0.8934,-0.7598,0.2044,-0.6722,-0.2833,-0.2060,36.4500,25.8000,-1.5750,
3.696987,0.8934,-0.7598,0.2044,-0.6722,-0.2833,-0.2060,36.4500,25.8000,-1.5750,
3.699185,0.8888,-0.8716,0.0676,-0.6722,-0.2833,-0.2060,36.4500,25.8000,-1.5750,
3.716484,0.8888,-0.8716,0.0676,-0.6722,-0.2833,-0.2060,36.4500,25.8000,-1.5750,
3.718931,0.9287,-0.4126,-0.0134,-0.6722,-0.2833,-0.2060,36.4500,25.8000,-1.5750,
3.721258,0.9287,-0.4126,-0.0134,-0.2897,0.1355,0.1926,36.4500,25.8000,-1.5750,
3.740405,0.9287,-0.4126,-0.0134,-0.2897,0.1355,0.1926,36.4500,25.8000,-1.5750,
3.742144,0.8444,0.4022,-0.2543,-0.2897,0.1355,0.1926,36.4500,25.8000,-1.5750,
3.751066,0.8444,0.4022,-0.2543,-0.2897,0.1355,0.1926,36.2250,26.3250,-1.4250,
3.762230,0.8444,0.4022,-0.2543,-0.2897,0.1355,0.1926,36.2250,26.3250,-1.4250,
3.764169,0.5525,0.9194,-0.6751,-0.2897,0.1355,0.1926,36.2250,26.3250,-1.4250,
3.780691,0.5525,0.9194,-0.6751,-0.2897,0.1355,0.1926,36.2250,26.3250,-1.4250,
3.783930,-0.0491,0.9927,-0.9101,-0.2897,0.1355,0.1926,36.2250,26.3250,-1.4250,
3.803873,-0.0491,0.9927,-0.9101,0.0820,0.2091,-0.2062,36.2250,26.3250,-1.4250,
3.807114,-0.0491,0.9927,-0.9101,0.0820,0.2091,-0.2062,36.2250,26.3250,-1.4250,
3.809527,-0.4460,0.9456,-0.9441,0.0820,0.2091,-0.2062,36.2250,26.3250,-1.4250,
3.819986,-0.4460,0.9456,-0.9441,0.0820,0.2091,-0.2062,36.2250,26.3250,-1.4250,
3.822054,-0.2582,0.5452,-0.9795,0.0820,0.2091,-0.2062,36.2250,26.3250,-1.4250,
3.824030,-0.2582,0.5452,-0.9795,0.0820,0.2091,-0.2062,37.3500,25.6500,-1.2750,
3.834163,-0.2582,0.5452,-0.9795,0.0820,0.2091,-0.2062,37.3500,25.6500,-1.2750,
3.837187,0.1684,0.1981,-0.8926,0.0820,0.2091,-0.2062,37.3500,25.6500,-1.2750,
3.858563,0.1684,0.1981,-0.8926,0.0820,0.2091,-0.2062,37.3500,25.6500,-1.2750,
3.861209,0.5476,-0.2097,-0.5979,0.0820,0.2091,-0.2062,37.3500,25.6500,-1.2750,
3.863654,0.5476,-0.2097,-0.5979,0.1115,0.3525,-0.0843,37.3500,25.6500,-1.2750,
3.879460,0.5476,-0.2097,-0.5979,0.1115,0.3525,-0.0843,37.3500,25.6500,-1.2750,
3.883179,0.7385,-0.3527,-0.6215,0.1115,0.3525,-0.0843,37.3500,25.6500,-1.2750,
3.888008,0.7385,-0.3527,-0.6215,0.1115,0.3525,-0.0843,36.6750,26.2500,-0.2250,
3.897872,0.7385,-0.3527,-0.6215,0.1115,0.3525,-0.0843,36.6750,26.2500,-0.2250,
3.900402,0.4791,-0.2488,-0.6224,0.1115,0.3525,-0.0843,36.6750,26.2500,-0.2250,
3.917359,0.4791,-0.2488,-0.6224,0.1115,0.3525,-0.0843,36.6750,26.2500,-0.2250,
3.920306,0.2658,-0.1926,-0.5001,0.1115,0.3525,-0.0843,36.6750,26.2500,-0.2250,
3.931700,0.2658,-0.1926,-0.5001,0.0440,0.3454,-0.2274,36.6750,26.2500,-0.2250,
3.934557,0.2658,-0.1926,-0.5001,0.0440,0.3454,-0.2274,36.6750,26.2500,-0.2250,
3.936394,0.1607,-0.0941,0.0078,0.0440,0.3454,-0.2274,36.6750,26.2500,-0.2250,
3.956451,0.1607,-0.0941,0.0078,0.0440,0.3454,-0.2274,36.6750,26.2500,-0.2250,
3.958533,0.2462,-0.1875,0.4004,0.0440,0.3454,-0.2274,36.6750,26.2500,-0.2250,
3.960529,0.2462,-0.1875,0.4004,0.0440,0.3454,-0.2274,35.8500,26.0250,0.2250,
3.976740,0.2462,-0.1875,0.4004,0.0440,0.3454,-0.2274,35.8500,26.0250,0.2250,
3.980523,-0.2455,-0.2473,1.4199,0.0440,0.3454,-0.2274,35.8500,26.0250,0.2250,
4.001736,-0.2455,-0.2473,1.4199,0.0440,0.3454,-0.2274,35.8500,26.0250,0.2250,
4.004103,0.2232,-0.3063,0.9633,0.0440,0.3454,-0.2274,35.8500,26.0250,0.2250,
4.005974,0.2232,-0.3063,0.9633,0.0583,0.2590,-0.2712,35.8500,26.0250,0.2250,
4.016921,0.2232,-0.3063,0.9633,0.0583,0.2590,-0.2712,35.8500,26.0250,0.2250,
4.018893,0.3588,-0.4877,-0.2774,0.0583,0.2590,-0.2712,35.8500,26.0250,0.2250,
4.025007,0.3588,-0.4877,-0.2774,0.0583,0.2590,-0.2712,35.5500,27.1500,1.1250,
4.033488,0.3588,-0.4877,-0.2774,0.0583,0.2590,-0.2712,35.5500,27.1500,1.1250,
4.035402,-0.2094,-0.0914,0.3630,0.0583,0.2590,-0.2712,35.5500,27.1500,1.1250,
4.059201,-0.2094,-0.0914,0.3630,0.0583,0.2590,-0.2712,35.5500,27.1500,1.1250,
4.062155,-1.0182,-0.0082,0.7610,0.0583,0.2590,-0.2712,35.5500,27.1500,1.1250,
4.073363,-1.0182,-0.0082,0.7610,-0.0032,-0.0814,-0.1875,35.5500,27.1500,1.1250,
4.078517,-1.0182,-0.0082,0.7610,-0.0032,-0.0814,-0.1875,35.5500,27.1500,1.1250,
4.080767,-1.0977,0.0799,0.7080,-0.0032,-0.0814,-0.1875,35.5500,27.1500,1.1250,
4.103922,-1.0977,0.0799,0.7080,-0.0032,-0.0814,-0.1875,35.5500,27.1500,1.1250,
4.106860,-0.9742,0.3675,0.8619,-0.0032,-0.0814,-0.1875,35.5500,27.1500,1.1250,
4.109655,-0.9742,0.3675,0.8619,-0.0032,-0.0814,-0.1875,35.5500,27.6000,1.6500,
4.117633,-0.9742,0.3675,0.8619,-0.0032,-0.0814,-0.1875,35.5500,27.6000,1.6500,
4.120433,-0.8617,0.9861,1.7169,-0.0032,-0.0814,-0.1875,35.5500,27.6000,1.6500,
4.136403,-0.8617,0.9861,1.7169,-0.0032,-0.0814,-0.1875,35.5500,27.6000,1.6500,
4.139212,0.1750,0.3547,0.5817,-0.0032,-0.0814,-0.1875,35.5500,27.6000,1.6500,
4.141558,0.1750,0.3547,0.5817,0.0261,-0.4290,0.1184,35.5500,27.6000,1.6500,
4.157013,0.1750,0.3547,0.5817,0.0261,-0.4290,0.1184,35.5500,27.6000,1.6500,
4.158802,0.2916,0.2447,0.7885,0.0261,-0.4290,0.1184,35.5500,27.6000,1.6500,
4.166800,0.2916,0.2447,0.7885,0.0261,-0.4290,0.1184,34.7250,28.0500,0.5250,
4.176462,0.2916,0.2447,0.7885,0.0261,-0.4290,0.1184,34.7250,28.0500,0.5250,
4.178099,0.3643,0.0412,0.4334,0.0261,-0.4290,0.1184,34.7250,28.0500,0.5250,
4.195957,0.3643,0.0412,0.4334,0.0261,-0.4290,0.1184,34.7250,28.0500,0.5250,
4.198515,0.3044,0.2045,0.4080,0.0261,-0.4290,0.1184,34.7250,28.0500,0.5250,
4.212657,0.3044,0.2045,0.4080,-0.1498,-0.6594,0.2495,34.7250,28.0500,0.5250,
4.216652,0.3044,0.2045,0.4080,-0.1498,-0.6594,0.2495,34.7250,28.0500,0.5250,
4.218056,0.3166,-0.1263,1.1821,-0.1498,-0.6594,0.2495,34.7250,28.0500,0.5250,
4.233762,0.3166,-0.1263,1.1821,-0.1498,-0.6594,0.2495,34.7250,28.0500,0.5250,
4.236864,0.1303,-0.5697,1.7266,-0.1498,-0.6594,0.2495,34.7250,28.0500,0.5250,
4.238767,0.1303,-0.5697,1.7266,-0.1498,-0.6594,0.2495,35.2500,27.0000,-1.0500,
4.254304,0.1303,-0.5697,1.7266,-0.1498,-0.6594,0.2495,35.2500,27.0000,-1.0500,
4.257607,0.7366,-0.6013,1.7875,-0.1498,-0.6594,0.2495,35.2500,27.0000,-1.0500,
4.273914,0.7366,-0.6013,1.7875,-0.1498,-0.6594,0.2495,35.2500,27.0000,-1.0500,
4.277272,1.0955,-0.7616,1.1585,-0.1498,-0.6594,0.2495,35.2500,27.0000,-1.0500,
4.282169,1.0955,-0.7616,1.1585,-0.0467,-0.8535,0.3493,35.2500,27.0000,-1.0500,
4.295000,1.0955,-0.7616,1.1585,-0.0467,-0.8535,0.3493,35.2500,27.0000,-1.0500,
4.298167,1.0286,-0.6542,-0.0446,-0.0467,-0.8535,0.3493,35.2500,27.0000,-1.0500,
4.305294,1.0286,-0.6542,-0.0446,-0.0467,-0.8535,0.3493,36.1500,26.7000,-3.3000,
4.316723,1.0286,-0.6542,-0.0446,-0.0467,-0.8535,0.3493,36.1500,26.7000,-3.3000,
4.318665,0.8176,-0.7425,-0.4303,-0.0467,-0.8535,0.3493,36.1500,26.7000,-3.3000,
4.332877,0.8176,-0.7425,-0.4303,-0.0467,-0.8535,0.3493,36.1500,26.7000,-3.3000,
4.336272,0.4332,-1.1760,0.2966,-0.0467,-0.8535,0.3493,36.1500,26.7000,-3.3000,
4.349282,0.4332,-1.1760,0.2966,0.0368,-1.1626,0.0754,36.1500,26.7000,-3.3000,
4.353055,0.4332,-1.1760,0.2966,0.0368,-1.1626,0.0754,36.1500,26.7000,-3.3000,
4.354505,0.3986,-1.6922,0.6801,0.0368,-1.1626,0.0754,36.1500,26.7000,-3.3000,
4.367845,0.3986,-1.6922,0.6801,0.0368,-1.1626,0.0754,36.1500,26.7000,-3.3000,
4.369306,-0.2502,-1.3905,0.9716,0.0368,-1.1626,0.0754,36.1500,26.7000,-3.3000,
4.375964,-0.2502,-1.3905,0.9716,0.0368,-1.1626,0.0754,35.7750,26.2500,-6.2250,
4.397382,-0.2502,-1.3905,0.9716,0.0368,-1.1626,0.0754,35.7750,26.2500,-6.2250,
4.399606,-0.3347,-0.9607,0.5590,0.0368,-1.1626,0.0754,35.7750,26.2500,-6.2250,
4.416714,-0.3347,-0.9607,0.5590,0.0368,-1.1626,0.0754,35.7750,26.2500,-6.2250,
4.418521,-0.5292,-0.4285,-0.1345,0.0368,-1.1626,0.0754,35.7750,26.2500,-6.2250,
4.422027,-0.5292,-0.4285,-0.1345,0.1159,-0.8711,-0.2155,35.7750,26.2500,-6.2250,
4.432058,-0.5292,-0.4285,-0.1345,0.1159,-0.8711,-0.2155,35.7750,26.2500,-6.2250,
4.433784,-0.8604,0.1359,-1.0232,0.1159,-0.8711,-0.2155,35.7750,26.2500,-6.2250,
4.450629,-0.8604,0.1359,-1.0232,0.1159,-0.8711,-0.2155,34.9500,26.7000,-9.3000,
4.456285,-0.8604,0.1359,-1.0232,0.1159,-0.8711,-0.2155,34.9500,26.7000,-9.3000,
4.457711,-0.6422,0.3451,-1.7347,0.1159,-0.8711,-0.2155,34.9500,26.7000,-9.3000,
4.471477,-0.6422,0.3451,-1.7347,0.1159,-0.8711,-0.2155,34.9500,26.7000,-9.3000,
4.474864,-0.8413,0.0195,-0.7207,0.1159,-0.8711,-0.2155,34.9500,26.7000,-9.3000,
4.489357,-0.8413,0.0195,-0.7207,0.2150,-0.6670,-0.4013,34.9500,26.7000,-9.3000,
4.495475,-0.8413,0.0195,-0.7207,0.2150,-0.6670,-0.4013,34.9500,26.7000,-9.3000,
4.497844,-0.2611,-1.0553,0.1539,0.2150,-0.6670,-0.4013,34.9500,26.7000,-9.3000,
4.519131,-0.2611,-1.0553,0.1539,0.2150,-0.6670,-0.4013,34.9500,26.7000,-9.3000,
4.521593,0.6815,-1.3235,0.5118,0.2150,-0.6670,-0.4013,34.9500,26.7000,-9.3000,
4.523656,0.6815,-1.3235,0.5118,0.2150,-0.6670,-0.4013,33.4500,27.2250,-11.1000,
4.533049,0.6815,-1.3235,0.5118,0.2150,-0.6670,-0.4013,33.4500,27.2250,-11.1000,
4.535463,0.7784,-0.1481,0.0107,0.2150,-0.6670,-0.4013,33.4500,27.2250,-11.1000,
4.553090,0.7784,-0.1481,0.0107,0.2150,-0.6670,-0.4013,33.4500,27.2250,-11.1000,
4.555010,-0.0296,0.5264,-0.3189,0.2150,-0.6670,-0.4013,33.4500,27.2250,-11.1000,
4.558035,-0.0296,0.5264,-0.3189,0.4387,-0.4670,-0.5403,33.4500,27.2250,-11.1000,
4.572554,-0.0296,0.5264,-0.3189,0.4387,-0.4670,-0.5403,33.4500,27.2250,-11.1000,
4.574829,-0.3096,0.2216,0.0279,0.4387,-0.4670,-0.5403,33.4500,27.2250,-11.1000,
4.585369,-0.3096,0.2216,0.0279,0.4387,-0.4670,-0.5403,32.2500,27.6000,-13.3500,
4.591259,-0.3096,0.2216,0.0279,0.4387,-0.4670,-0.5403,32.2500,27.6000,-13.3500,
4.593219,0.2008,-0.1791,0.8280,0.4387,-0.4670,-0.5403,32.2500,27.6000,-13.3500,
4.611422,0.2008,-0.1791,0.8280,0.4387,-0.4670,-0.5403,32.2500,27.6000,-13.3500,
4.613742,0.1254,0.2800,1.2841,0.4387,-0.4670,-0.5403,32.2500,27.6000,-13.3500,
4.625867,0.1254,0.2800,1.2841,0.4587,-0.5288,-0.5650,32.2500,27.6000,-13.3500,
4.632937,0.1254,0.2800,1.2841,0.4587,-0.5288,-0.5650,32.2500,27.6000,-13.3500,
4.635010,-0.2528,0.8076,1.8320,0.4587,-0.5288,-0.5650,32.2500,27.6000,-13.3500,
4.650474,-0.2528,0.8076,1.8320,0.4587,-0.5288,-0.5650,32.2500,27.6000,-13.3500,
4.652625,0.5107,0.7780,2.7501,0.4587,-0.5288,-0.5650,32.2500,27.6000,-13.3500,
4.655397,0.5107,0.7780,2.7501,0.4587,-0.5288,-0.5650,30.6750,29.1000,-15.9000,
4.674758,0.5107,0.7780,2.7501,0.4587,-0.5288,-0.5650,30.6750,29.1000,-15.9000,
4.676950,1.7730,0.6479,2.2564,0.4587,-0.5288,-0.5650,30.6750,29.1000,-15.9000,
4.694197,1.7730,0.6479,2.2564,0.4587,-0.5288,-0.5650,30.6750,29.1000,-15.9000,
4.698001,2.5524,0.9858,1.0446,0.4587,-0.5288,-0.5650,30.6750,29.1000,-15.9000,
4.702274,2.5524,0.9858,1.0446,0.6154,-0.1952,-0.8411,30.6750,29.1000,-15.9000,
4.713351,2.5524,0.9858,1.0446,0.6154,-0.1952,-0.8411,30.6750,29.1000,-15.9000,
4.716799,2.1735,1.2076,0.3207,0.6154,-0.1952,-0.8411,30.6750,29.1000,-15.9000,
4.725236,2.1735,1.2076,0.3207,0.6154,-0.1952,-0.8411,28.5750,30.2250,-17.3250,
4.734270,2.1735,1.2076,0.3207,0.6154,-0.1952,-0.8411,28.5750,30.2250,-17.3250,
4.737115,1.6522,0.4186,1.3098,0.6154,-0.1952,-0.8411,28.5750,30.2250,-17.3250,
4.749192,1.6522,0.4186,1.3098,0.6154,-0.1952,-0.8411,28.5750,30.2250,-17.3250,
4.751969,1.4245,-0.6312,3.0409,0.6154,-0.1952,-0.8411,28.5750,30.2250,-17.3250,
4.768957,1.4245,-0.6312,3.0409,0.2196,-0.4972,-1.1183,28.5750,30.2250,-17.3250,
4.771779,1.4245,-0.6312,3.0409,0.2196,-0.4972,-1.1183,28.5750,30.2250,-17.3250,
4.773104,0.9249,-1.0328,3.4862,0.2196,-0.4972,-1.1183,28.5750,30.2250,-17.3250,
4.792867,0.9249,-1.0328,3.4862,0.2196,-0.4972,-1.1183,28.5750,30.2250,-17.3250,
4.797138,-0.2733,-0.1964,1.7812,0.2196,-0.4972,-1.1183,28.5750,30.2250,-17.3250,
4.800129,-0.2733,-0.1964,1.7812,0.2196,-0.4972,-1.1183,25.9500,31.2000,-19.1250,
4.817787,-0.2733,-0.1964,1.7812,0.2196,-0.4972,-1.1183,25.9500,31.2000,-19.1250,
4.819781,-2.1084,1.8910,-0.0657,0.2196,-0.4972,-1.1183,25.9500,31.2000,-19.1250,
4.833617,-2.1084,1.8910,-0.0657,0.2196,-0.4972,-1.1183,25.9500,31.2000,-19.1250,
4.836653,-2.2724,3.8044,-0.3351,0.2196,-0.4972,-1.1183,25.9500,31.2000,-19.1250,
4.838867,-2.2724,3.8044,-0.3351,0.5592,-0.7486,-0.6964,25.9500,31.2000,-19.1250,
4.851109,-2.2724,3.8044,-0.3351,0.5592,-0.7486,-0.6964,25.9500,31.2000,-19.1250,
4.853339,-2.1419,5.1660,0.5112,0.5592,-0.7486,-0.6964,25.9500,31.2000,-19.1250,
4.865580,-2.1419,5.1660,0.5112,0.5592,-0.7486,-0.6964,23.3250,31.9500,-21.6750,
4.868009,-2.1419,5.1660,0.5112,0.5592,-0.7486,-0.6964,23.3250,31.9500,-21.6750,
4.869596,-2.1555,4.9698,0.4693,0.5592,-0.7486,-0.6964,23.3250,31.9500,-21.6750,
4.889998,-2.1555,4.9698,0.4693,0.5592,-0.7486,-0.6964,23.3250,31.9500,-21.6750,
4.892678,-2.1574,4.1517,0.4901,0.5592,-0.7486,-0.6964,23.3250,31.9500,-21.6750,
4.905128,-2.1574,4.1517,0.4901,-0.2480,-1.4546,-0.2598,23.3250,31.9500,-21.6750,
4.909983,-2.1574,4.1517,0.4901,-0.2480,-1.4546,-0.2598,23.3250,31.9500,-21.6750,
4.912196,-1.7318,4.0625,0.9364,-0.2480,-1.4546,-0.2598,23.3250,31.9500,-21.6750,
4.929034,-1.7318,4.0625,0.9364,-0.2480,-1.4546,-0.2598,23.3250,31.9500,-21.6750,
4.931889,-2.0709,5.0277,0.6373,-0.2480,-1.4546,-0.2598,23.3250,31.9500,-21.6750,
4.935100,-2.0709,5.0277,0.6373,-0.2480,-1.4546,-0.2598,19.6500,32.8500,-24.3750,
4.954544,-2.0709,5.0277,0.6373,-0.2480,-1.4546,-0.2598,19.6500,32.8500,-24.3750,
4.956120,-2.1259,3.9283,4.0162,-0.2480,-1.4546,-0.2598,19.6500,32.8500,-24.3750,
4.974353,-2.1259,3.9283,4.0162,-0.2480,-1.4546,-0.2598,19.6500,32.8500,-24.3750,
4.976398,0.1336,-2.6241,6.7786,-0.2480,-1.4546,-0.2598,19.6500,32.8500,-24.3750,
4.978487,0.1336,-2.6241,6.7786,-1.1372,-1.1860,0.4462,19.6500,32.8500,-24.3750,
4.994239,0.1336,-2.6241,6.7786,-1.1372,-1.1860,0.4462,19.6500,32.8500,-24.3750,
4.997923,0.4944,0.4699,0.9516,-1.1372,-1.1860,0.4462,19.6500,32.8500,-24.3750,
5.007262,0.4944,0.4699,0.9516,-1.1372,-1.1860,0.4462,17.2500,33.8250,-24.6750,
5.014071,0.4944,0.4699,0.9516,-1.1372,-1.1860,0.4462,17.2500,33.8250,-24.6750,
5.016221,-2.5347,3.6674,-5.1799,-1.1372,-1.1860,0.4462,17.2500,33.8250,-24.6750,
5.034102,-2.5347,3.6674,-5.1799,-1.1372,-1.1860,0.4462,17.2500,33.8250,-24.6750,
5.037513,-5.2408,0.0783,-5.1405,-1.1372,-1.1860,0.4462,17.2500,33.8250,-24.6750,
5.048004,-5.2408,0.0783,-5.1405,-1.3677,-0.7071,1.0962,17.2500,33.8250,-24.6750,
5.051961,-5.2408,0.0783,-5.1405,-1.3677,-0.7071,1.0962,17.2500,33.8250,-24.6750,
5.053625,-1.3031,-3.4714,-2.9861,-1.3677,-0.7071,1.0962,17.2500,33.8250,-24.6750,
5.070700,-1.3031,-3.4714,-2.9861,-1.3677,-0.7071,1.0962,17.2500,33.8250,-24.6750,
5.072998,2.7768,-3.7656,-3.7205,-1.3677,-0.7071,1.0962,17.2500,33.8250,-24.6750,
5.075178,2.7768,-3.7656,-3.7205,-1.3677,-0.7071,1.0962,17.5500,35.4000,-23.7000,
5.091218,2.7768,-3.7656,-3.7205,-1.3677,-0.7071,1.0962,17.5500,35.4000,-23.7000,
5.094072,4.9743,-4.0653,-3.9419,-1.3677,-0.7071,1.0962,17.5500,35.4000,-23.7000,
5.110101,4.9743,-4.0653,-3.9419,-1.3677,-0.7071,1.0962,17.5500,35.4000,-23.7000,
5.113271,4.0623,-4.8119,-3.4102,-1.3677,-0.7071,1.0962,17.5500,35.4000,-23.7000,
5.115860,4.0623,-4.8119,-3.4102,-2.2887,-0.2909,1.9262,17.5500,35.4000,-23.7000,
5.133744,4.0623,-4.8119,-3.4102,-2.2887,-0.2909,1.9262,17.5500,35.4000,-23.7000,
5.136844,1.9517,-3.5869,-2.6123,-2.2887,-0.2909,1.9262,17.5500,35.4000,-23.7000,
5.149140,1.9517,-3.5869,-2.6123,-2.2887,-0.2909,1.9262,19.6500,36.2250,-20.1000,
5.152981,1.9517,-3.5869,-2.6123,-2.2887,-0.2909,1.9262,19.6500,36.2250,-20.1000,
5.155464,0.0412,-3.3807,-4.5080,-2.2887,-0.2909,1.9262,19.6500,36.2250,-20.1000,
5.168695,0.0412,-3.3807,-4.5080,-2.2887,-0.2909,1.9262,19.6500,36.2250,-20.1000,
5.170851,0.6516,-2.1257,-4.1353,-2.2887,-0.2909,1.9262,19.6500,36.2250,-20.1000,
5.183796,0.6516,-2.1257,-4.1353,-2.2207,0.2966,1.8298,19.6500,36.2250,-20.1000,
5.186433,0.6516,-2.1257,-4.1353,-2.2207,0.2966,1.8298,19.6500,36.2250,-20.1000,
5.187857,1.2427,-1.9656,-3.4144,-2.2207,0.2966,1.8298,19.6500,36.2250,-20.1000,
5.209170,1.2427,-1.9656,-3.4144,-2.2207,0.2966,1.8298,19.6500,36.2250,-20.1000,
5.213352,1.2141,-2.5689,-2.4164,-2.2207,0.2966,1.8298,19.6500,36.2250,-20.1000,
5.216594,1.2141,-2.5689,-2.4164,-2.2207,0.2966,1.8298,24.7500,36.1500,-13.8750,
5.229566,1.2141,-2.5689,-2.4164,-2.2207,0.2966,1.8298,24.7500,36.1500,-13.8750,
5.232684,1.3051,-3.5971,-3.3300,-2.2207,0.2966,1.8298,24.7500,36.1500,-13.8750,
5.247034,1.3051,-3.5971,-3.3300,-2.2207,0.2966,1.8298,24.7500,36.1500,-13.8750,
5.249859,1.0897,-3.0799,-2.6505,-2.2207,0.2966,1.8298,24.7500,36.1500,-13.8750,
5.252344,1.0897,-3.0799,-2.6505,-1.7817,0.7265,1.7702,24.7500,36.1500,-13.8750,
5.266799,1.0897,-3.0799,-2.6505,-1.7817,0.7265,1.7702,24.7500,36.1500,-13.8750,
5.268779,0.6539,-2.8475,-1.6467,-1.7817,0.7265,1.7702,24.7500,36.1500,-13.8750,
5.285607,0.6539,-2.8475,-1.6467,-1.7817,0.7265,1.7702,29.0250,34.5000,-9.0000,
5.291709,0.6539,-2.8475,-1.6467,-1.7817,0.7265,1.7702,29.0250,34.5000,-9.0000,
5.293397,-0.9198,-2.6671,-1.9202,-1.7817,0.7265,1.7702,29.0250,34.5000,-9.0000,
5.311900,-0.9198,-2.6671,-1.9202,-1.7817,0.7265,1.7702,29.0250,34.5000,-9.0000,
5.314738,-2.1638,-2.2967,-0.5113,-1.7817,0.7265,1.7702,29.0250,34.5000,-9.0000,
5.325429,-2.1638,-2.2967,-0.5113,-0.7507,0.8642,1.5448,29.0250,34.5000,-9.0000,
5.336487,-2.1638,-2.2967,-0.5113,-0.7507,0.8642,1.5448,29.0250,34.5000,-9.0000,
5.338546,-2.2399,-2.1639,-0.8327,-0.7507,0.8642,1.5448,29.0250,34.5000,-9.0000,
5.349957,-2.2399,-2.1639,-0.8327,-0.7507,0.8642,1.5448,29.0250,34.5000,-9.0000,
5.352773,-0.9731,-2.1049,-1.1351,-0.7507,0.8642,1.5448,29.0250,34.5000,-9.0000,
5.355278,-0.9731,-2.1049,-1.1351,-0.7507,0.8642,1.5448,33.1500,31.2000,-4.7250,
5.369071,-0.9731,-2.1049,-1.1351,-0.7507,0.8642,1.5448,33.1500,31.2000,-4.7250,
5.370953,0.9955,-2.5517,-1.1645,-0.7507,0.8642,1.5448,33.1500,31.2000,-4.7250,
5.384119,0.9955,-2.5517,-1.1645,-0.7507,0.8642,1.5448,33.1500,31.2000,-4.7250,
5.386105,1.8500,-3.0908,-0.8470,-0.7507,0.8642,1.5448,33.1500,31.2000,-4.7250,
5.399861,1.8500,-3.0908,-0.8470,-0.2340,0.5546,1.1275,33.1500,31.2000,-4.7250,
5.409053,1.8500,-3.0908,-0.8470,-0.2340,0.5546,1.1275,33.1500,31.2000,-4.7250,
5.410921,2.2844,-2.9683,-0.9798,-0.2340,0.5546,1.1275,33.1500,31.2000,-4.7250,
5.421467,2.2844,-2.9683,-0.9798,-0.2340,0.5546,1.1275,34.9500,29.0250,-3.4500,
5.428947,2.2844,-2.9683,-0.9798,-0.2340,0.5546,1.1275,34.9500,29.0250,-3.4500,
5.430575,2.4827,-1.7694,-1.1376,-0.2340,0.5546,1.1275,34.9500,29.0250,-3.4500,
5.447226,2.4827,-1.7694,-1.1376,-0.2340,0.5546,1.1275,34.9500,29.0250,-3.4500,
5.448699,2.2553,-0.5010,-0.3499,-0.2340,0.5546,1.1275,34.9500,29.0250,-3.4500,
5.463841,2.2553,-0.5010,-0.3499,-0.0185,0.7859,0.8934,34.9500,29.0250,-3.4500,
5.468001,2.2553,-0.5010,-0.3499,-0.0185,0.7859,0.8934,34.9500,29.0250,-3.4500,
5.469433,1.6499,-0.6062,0.2986,-0.0185,0.7859,0.8934,34.9500,29.0250,-3.4500,
5.483443,1.6499,-0.6062,0.2986,-0.0185,0.7859,0.8934,34.9500,29.0250,-3.4500,
5.485107,0.3273,-1.0794,0.2088,-0.0185,0.7859,0.8934,34.9500,29.0250,-3.4500,
5.487660,0.3273,-1.0794,0.2088,-0.0185,0.7859,0.8934,36.1500,26.0250,-0.8250,
5.506198,0.3273,-1.0794,0.2088,-0.0185,0.7859,0.8934,36.1500,26.0250,-0.8250,
5.508916,-0.4153,-0.8354,-0.5346,-0.0185,0.7859,0.8934,36.1500,26.0250,-0.8250,
5.525436,-0.4153,-0.8354,-0.5346,-0.0185,0.7859,0.8934,36.1500,26.0250,-0.8250,
5.527330,-0.5628,-0.2431,-0.8074,-0.0185,0.7859,0.8934,36.1500,26.0250,-0.8250,
5.531398,-0.5628,-0.2431,-0.8074,0.3711,1.0994,0.8414,36.1500,26.0250,-0.8250,
5.550664,-0.5628,-0.2431,-0.8074,0.3711,1.0994,0.8414,36.1500,26.0250,-0.8250,
5.553119,-0.3350,0.5800,-0.4352,0.3711,1.0994,0.8414,36.1500,26.0250,-0.8250,
5.565778,-0.3350,0.5800,-0.4352,0.3711,1.0994,0.8414,38.2500,23.6250,1.2750,
5.568469,-0.3350,0.5800,-0.4352,0.3711,1.0994,0.8414,38.2500,23.6250,1.2750,
5.570317,-0.0748,0.6824,-0.1553,0.3711,1.0994,0.8414,38.2500,23.6250,1.2750,
5.584462,-0.0748,0.6824,-0.1553,0.3711,1.0994,0.8414,38.2500,23.6250,1.2750,
5.586487,1.0659,0.0612,-0.5396,0.3711,1.0994,0.8414,38.2500,23.6250,1.2750,
5.604557,1.0659,0.0612,-0.5396,0.7836,0.7457,1.0146,38.2500,23.6250,1.2750,
5.609313,1.0659,0.0612,-0.5396,0.7836,0.7457,1.0146,38.2500,23.6250,1.2750,
5.610460,2.0253,-0.0785,-1.1014,0.7836,0.7457,1.0146,38.2500,23.6250,1.2750,
5.628762,2.0253,-0.0785,-1.1014,0.7836,0.7457,1.0146,38.2500,23.6250,1.2750,
5.630959,2.1059,0.6868,-0.9346,0.7836,0.7457,1.0146,38.2500,23.6250,1.2750,
5.632737,2.1059,0.6868,-0.9346,0.7836,0.7457,1.0146,39.0750,20.7000,2.4750,
5.649435,2.1059,0.6868,-0.9346,0.7836,0.7457,1.0146,39.0750,20.7000,2.4750,
5.651262,1.8214,1.3842,-0.4708,0.7836,0.7457,1.0146,39.0750,20.7000,2.4750,
5.663005,1.8214,1.3842,-0.4708,0.7836,0.7457,1.0146,39.0750,20.7000,2.4750,
5.664947,1.0271,1.7370,-0.0766,0.7836,0.7457,1.0146,39.0750,20.7000,2.4750,
5.672629,1.0271,1.7370,-0.0766,0.9948,0.5971,0.7600,39.0750,20.7000,2.4750,
5.687242,1.0271,1.7370,-0.0766,0.9948,0.5971,0.7600,39.0750,20.7000,2.4750,
5.689249,0.2969,1.7447,-0.1403,0.9948,0.5971,0.7600,39.0750,20.7000,2.4750,
5.697370,0.2969,1.7447,-0.1403,0.9948,0.5971,0.7600,40.2750,18.5250,3.9000,
5.706692,0.2969,1.7447,-0.1403,0.9948,0.5971,0.7600,40.2750,18.5250,3.9000,
5.709287,-0.0864,1.7310,-0.4757,0.9948,0.5971,0.7600,40.2750,18.5250,3.9000,
5.728039,-0.0864,1.7310,-0.4757,0.9948,0.5971,0.7600,40.2750,18.5250,3.9000,
5.731650,-0.4515,2.0521,-1.1563,0.9948,0.5971,0.7600,40.2750,18.5250,3.9000,
5.741599,-0.4515,2.0521,-1.1563,0.8572,0.5537,0.5586,40.2750,18.5250,3.9000,
5.750651,-0.4515,2.0521,-1.1563,0.8572,0.5537,0.5586,40.2750,18.5250,3.9000,
5.752664,-0.8570,2.5632,-1.5640,0.8572,0.5537,0.5586,40.2750,18.5250,3.9000,
5.766131,-0.8570,2.5632,-1.5640,0.8572,0.5537,0.5586,40.2750,18.5250,3.9000,
5.768647,-1.1499,3.0038,-1.0905,0.8572,0.5537,0.5586,40.2750,18.5250,3.9000,
5.770418,-1.1499,3.0038,-1.0905,0.8572,0.5537,0.5586,40.8750,17.2500,4.4250,
5.783436,-1.1499,3.0038,-1.0905,0.8572,0.5537,0.5586,40.8750,17.2500,4.4250,
5.785595,-1.2401,3.4766,-0.5521,0.8572,0.5537,0.5586,40.8750,17.2500,4.4250,
5.805341,-1.2401,3.4766,-0.5521,0.8572,0.5537,0.5586,40.8750,17.2500,4.4250,
5.807815,-1.2449,3.9629,-0.3051,0.8572,0.5537,0.5586,40.8750,17.2500,4.4250,
5.809726,-1.2449,3.9629,-0.3051,0.5397,0.2584,0.4635,40.8750,17.2500,4.4250,
5.824006,-1.2449,3.9629,-0.3051,0.5397,0.2584,0.4635,40.8750,17.2500,4.4250,
5.826220,-1.1409,4.2654,0.2052,0.5397,0.2584,0.4635,40.8750,17.2500,4.4250,
5.835197,-1.1409,4.2654,0.2052,0.5397,0.2584,0.4635,40.8750,15.1500,4.6500,
5.847271,-1.1409,4.2654,0.2052,0.5397,0.2584,0.4635,40.8750,15.1500,4.6500,
5.849466,-1.1402,4.2570,0.5638,0.5397,0.2584,0.4635,40.8750,15.1500,4.6500,
5.864630,-1.1402,4.2570,0.5638,0.5397,0.2584,0.4635,40.8750,15.1500,4.6500,
5.867178,-1.1536,3.8571,0.4360,0.5397,0.2584,0.4635,40.8750,15.1500,4.6500,
5.880410,-1.1536,3.8571,0.4360,0.4499,0.2854,0.2694,40.8750,15.1500,4.6500,
5.885076,-1.1536,3.8571,0.4360,0.4499,0.2854,0.2694,40.8750,15.1500,4.6500,
5.886511,-1.3641,3.0382,0.2955,0.4499,0.2854,0.2694,40.8750,15.1500,4.6500,
5.902377,-1.3641,3.0382,0.2955,0.4499,0.2854,0.2694,40.8750,15.1500,4.6500,
5.904168,-1.5355,2.1265,0.3673,0.4499,0.2854,0.2694,40.8750,15.1500,4.6500,
5.905814,-1.5355,2.1265,0.3673,0.4499,0.2854,0.2694,40.8750,14.2500,5.2500,
5.922585,-1.5355,2.1265,0.3673,0.4499,0.2854,0.2694,40.8750,14.2500,5.2500,
5.925626,-1.3201,1.8443,0.5298,0.4499,0.2854,0.2694,40.8750,14.2500,5.2500,
5.941568,-1.3201,1.8443,0.5298,0.4499,0.2854,0.2694,40.8750,14.2500,5.2500,
5.943401,-1.1226,1.7779,0.5422,0.4499,0.2854,0.2694,40.8750,14.2500,5.2500,
5.947457,-1.1226,1.7779,0.5422,0.2033,0.1964,0.1434,40.8750,14.2500,5.2500,
5.966950,-1.1226,1.7779,0.5422,0.2033,0.1964,0.1434,40.8750,14.2500,5.2500,
5.969197,-1.0350,1.7740,0.3488,0.2033,0.1964,0.1434,40.8750,14.2500,5.2500,
5.975909,-1.0350,1.7740,0.3488,0.2033,0.1964,0.1434,41.2500,13.8000,5.4750,
5.983327,-1.0350,1.7740,0.3488,0.2033,0.1964,0.1434,41.2500,13.8000,5.4750,
5.985061,-1.2349,1.6844,-0.0774,0.2033,0.1964,0.1434,41.2500,13.8000,5.4750,
6.005327,-1.2349,1.6844,-0.0774,0.2033,0.1964,0.1434,41.2500,13.8000,5.4750,
6.008182,-1.6704,1.6940,-0.5151,0.2033,0.1964,0.1434,41.2500,13.8000,5.4750,
6.020066,-1.6704,1.6940,-0.5151,0.2863,0.1051,0.0692,41.2500,13.8000,5.4750,
6.024788,-1.6704,1.6940,-0.5151,0.2863,0.1051,0.0692,41.2500,13.8000,5.4750,
6.026355,-1.8593,2.1139,-0.6682,0.2863,0.1051,0.0692,41.2500,13.8000,5.4750,
6.044757,-1.8593,2.1139,-0.6682,0.2863,0.1051,0.0692,41.2500,13.8000,5.4750,
6.048164,-1.8947,2.3454,-0.5990,0.2863,0.1051,0.0692,41.2500,13.8000,5.4750,
6.050315,-1.8947,2.3454,-0.5990,0.2863,0.1051,0.0692,40.9500,14.0250,5.7000,
6.063756,-1.8947,2.3454,-0.5990,0.2863,0.1051,0.0692,40.9500,14.0250,5.7000,
6.066818,-1.4670,2.1915,-0.0497,0.2863,0.1051,0.0692,40.9500,14.0250,5.7000,
6.083377,-1.4670,2.1915,-0.0497,0.2863,0.1051,0.0692,40.9500,14.0250,5.7000,
6.085894,-0.9405,1.8335,0.3994,0.2863,0.1051,0.0692,40.9500,14.0250,5.7000,
6.087996,-0.9405,1.8335,0.3994,0.0228,0.0835,-0.0070,40.9500,14.0250,5.7000,
6.102677,-0.9405,1.8335,0.3994,0.0228,0.0835,-0.0070,40.9500,14.0250,5.7000,
6.104540,-0.4257,1.6611,0.1954,0.0228,0.0835,-0.0070,40.9500,14.0250,5.7000,
6.115403,-0.4257,1.6611,0.1954,0.0228,0.0835,-0.0070,40.5750,13.9500,6.7500,
6.122068,-0.4257,1.6611,0.1954,0.0228,0.0835,-0.0070,40.5750,13.9500,6.7500,
6.123333,0.0096,1.3830,0.2697,0.0228,0.0835,-0.0070,40.5750,13.9500,6.7500,
6.142673,0.0096,1.3830,0.2697,0.0228,0.0835,-0.0070,40.5750,13.9500,6.7500,
6.145172,-0.1971,0.7764,0.2303,0.0228,0.0835,-0.0070,40.5750,13.9500,6.7500,
6.157349,-0.1971,0.7764,0.2303,-0.0373,0.4587,-0.3830,40.5750,13.9500,6.7500,
6.161992,-0.1971,0.7764,0.2303,-0.0373,0.4587,-0.3830,40.5750,13.9500,6.7500,
6.163950,-0.7489,0.4553,-0.0563,-0.0373,0.4587,-0.3830,40.5750,13.9500,6.7500,
6.184170,-0.7489,0.4553,-0.0563,-0.0373,0.4587,-0.3830,40.5750,13.9500,6.7500,
6.186814,-1.6711,0.0954,-0.3254,-0.0373,0.4587,-0.3830,40.5750,13.9500,6.7500,
6.188871,-1.6711,0.0954,-0.3254,-0.0373,0.4587,-0.3830,40.6500,14.9250,6.9750,
6.200679,-1.6711,0.0954,-0.3254,-0.0373,0.4587,-0.3830,40.6500,14.9250,6.9750,
6.202840,-2.7613,-0.5010,-0.4338,-0.0373,0.4587,-0.3830,40.6500,14.9250,6.9750,
6.224684,-2.7613,-0.5010,-0.4338,-0.0373,0.4587,-0.3830,40.6500,14.9250,6.9750,
6.226789,-3.3259,-0.9986,-0.3230,-0.0373,0.4587,-0.3830,40.6500,14.9250,6.9750,
6.230919,-3.3259,-0.9986,-0.3230,0.0582,0.7193,-0.3210,40.6500,14.9250,6.9750,
6.240074,-3.3259,-0.9986,-0.3230,0.0582,0.7193,-0.3210,40.6500,14.9250,6.9750,
6.242879,-2.9625,-1.0498,-0.0381,0.0582,0.7193,-0.3210,40.6500,14.9250,6.9750,
6.255820,-2.9625,-1.0498,-0.0381,0.0582,0.7193,-0.3210,40.3500,16.2000,9.3750,
6.259892,-2.9625,-1.0498,-0.0381,0.0582,0.7193,-0.3210,40.3500,16.2000,9.3750,
6.261583,-2.0378,-0.7930,0.3095,0.0582,0.7193,-0.3210,40.3500,16.2000,9.3750,
6.284987,-2.0378,-0.7930,0.3095,0.0582,0.7193,-0.3210,40.3500,16.2000,9.3750,
6.286962,-1.4276,-0.6075,0.3123,0.0582,0.7193,-0.3210,40.3500,16.2000,9.3750,
6.299597,-1.4276,-0.6075,0.3123,0.3283,0.7454,0.1403,40.3500,16.2000,9.3750,
6.303717,-1.4276,-0.6075,0.3123,0.3283,0.7454,0.1403,40.3500,16.2000,9.3750,
6.305044,-1.0669,-0.5437,-0.0593,0.3283,0.7454,0.1403,40.3500,16.2000,9.3750,
6.323398,-1.0669,-0.5437,-0.0593,0.3283,0.7454,0.1403,40.3500,16.2000,9.3750,
6.325235,-0.7331,-0.4501,-0.4504,0.3283,0.7454,0.1403,40.3500,16.2000,9.3750,
6.326742,-0.7331,-0.4501,-0.4504,0.3283,0.7454,0.1403,39.7500,16.3500,11.0250,
6.342762,-0.7331,-0.4501,-0.4504,0.3283,0.7454,0.1403,39.7500,16.3500,11.0250,
6.347057,-0.5217,-0.2672,-0.6423,0.3283,0.7454,0.1403,39.7500,16.3500,11.0250,
6.365632,-0.5217,-0.2672,-0.6423,0.3283,0.7454,0.1403,39.7500,16.3500,11.0250,
6.372914,-0.1776,0.1341,-0.8963,0.3283,0.7454,0.1403,39.7500,16.3500,11.0250,
6.377789,-0.1776,0.1341,-0.8963,0.5368,0.6005,0.1258,39.7500,16.3500,11.0250,
6.393069,-0.1776,0.1341,-0.8963,0.5368,0.6005,0.1258,39.7500,16.3500,11.0250,
6.395135,-0.1080,0.2466,-0.9005,0.5368,0.6005,0.1258,39.7500,16.3500,11.0250,
6.397144,-0.1080,0.2466,-0.9005,0.5368,0.6005,0.1258,39.8250,16.2000,12.3750,
6.405407,-0.1080,0.2466,-0.9005,0.5368,0.6005,0.1258,39.8250,16.2000,12.3750,
6.407404,-0.1437,0.1344,-0.8321,0.5368,0.6005,0.1258,39.8250,16.2000,12.3750,
6.423563,-0.1437,0.1344,-0.8321,0.5368,0.6005,0.1258,39.8250,16.2000,12.3750,
6.425305,-0.3068,0.0853,-0.8912,0.5368,0.6005,0.1258,39.8250,16.2000,12.3750,
6.435401,-0.3068,0.0853,-0.8912,0.4620,0.2336,-0.0855,39.8250,16.2000,12.3750,
6.442108,-0.3068,0.0853,-0.8912,0.4620,0.2336,-0.0855,39.8250,16.2000,12.3750,
6.442980,-0.2204,0.1120,-0.3085,0.4620,0.2336,-0.0855,39.8250,16.2000,12.3750,
6.462378,-0.2204,0.1120,-0.3085,0.4620,0.2336,-0.0855,39.8250,16.2000,12.3750,
6.464085,0.3365,-0.0056,0.3177,0.4620,0.2336,-0.0855,39.8250,16.2000,12.3750,
6.468755,0.3365,-0.0056,0.3177,0.4620,0.2336,-0.0855,40.4250,16.5000,14.0250,
6.480103,0.3365,-0.0056,0.3177,0.4620,0.2336,-0.0855,40.4250,16.5000,14.0250,
6.481916,0.8923,0.2026,0.2524,0.4620,0.2336,-0.0855,40.4250,16.5000,14.0250,
6.505117,0.8923,0.2026,0.2524,0.4620,0.2336,-0.0855,40.4250,16.5000,14.0250,
6.506787,1.2639,0.5560,-0.1044,0.4620,0.2336,-0.0855,40.4250,16.5000,14.0250,
6.509260,1.2639,0.5560,-0.1044,0.4006,0.2834,-0.0509,40.4250,16.5000,14.0250,
6.525281,1.2639,0.5560,-0.1044,0.4006,0.2834,-0.0509,40.4250,16.5000,14.0250,
6.527005,1.5118,0.8252,-0.3437,0.4006,0.2834,-0.0509,40.4250,16.5000,14.0250,
6.536243,1.5118,0.8252,-0.3437,0.4006,0.2834,-0.0509,39.4500,17.8500,13.7250,
6.543734,1.5118,0.8252,-0.3437,0.4006,0.2834,-0.0509,39.4500,17.8500,13.7250,
6.544955,1.3799,0.9838,-0.3083,0.4006,0.2834,-0.0509,39.4500,17.8500,13.7250,
6.562813,1.3799,0.9838,-0.3083,0.4006,0.2834,-0.0509,39.4500,17.8500,13.7250,
6.566904,1.0675,0.7766,-0.0430,0.4006,0.2834,-0.0509,39.4500,17.8500,13.7250,
6.580282,1.0675,0.7766,-0.0430,0.1820,0.4077,-0.0811,39.4500,17.8500,13.7250,
6.584324,1.0675,0.7766,-0.0430,0.1820,0.4077,-0.0811,39.4500,17.8500,13.7250,
6.586795,0.5578,0.3882,0.0942,0.1820,0.4077,-0.0811,39.4500,17.8500,13.7250,
6.601806,0.5578,0.3882,0.0942,0.1820,0.4077,-0.0811,39.4500,17.8500,13.7250,
6.604052,0.3582,0.1507,0.1786,0.1820,0.4077,-0.0811,39.4500,17.8500,13.7250,
6.605797,0.3582,0.1507,0.1786,0.1820,0.4077,-0.0811,39.4500,17.7000,15.0000,
6.621495,0.3582,0.1507,0.1786,0.1820,0.4077,-0.0811,39.4500,17.7000,15.0000,
6.623789,0.3171,0.1259,0.1051,0.1820,0.4077,-0.0811,39.4500,17.7000,15.0000,
6.640969,0.3171,0.1259,0.1051,0.1820,0.4077,-0.0811,39.4500,17.7000,15.0000,
6.643297,0.3779,0.3119,0.0726,0.1820,0.4077,-0.0811,39.4500,17.7000,15.0000,
6.648153,0.3779,0.3119,0.0726,0.1695,0.1180,-0.0880,39.4500,17.7000,15.0000,
6.661394,0.3779,0.3119,0.0726,0.1695,0.1180,-0.0880,39.4500,17.7000,15.0000,
6.663122,0.5665,0.4296,0.1582,0.1695,0.1180,-0.0880,39.4500,17.7000,15.0000,
6.675468,0.5665,0.4296,0.1582,0.1695,0.1180,-0.0880,38.5500,17.5500,15.0750,
6.677738,0.5665,0.4296,0.1582,0.1695,0.1180,-0.0880,38.5500,17.5500,15.0750,
6.679440,1.0300,0.4779,0.3874,0.1695,0.1180,-0.0880,38.5500,17.5500,15.0750,
6.699432,1.0300,0.4779,0.3874,0.1695,0.1180,-0.0880,38.5500,17.5500,15.0750,
6.701560,1.5171,0.3104,0.8757,0.1695,0.1180,-0.0880,38.5500,17.5500,15.0750,
6.714489,1.5171,0.3104,0.8757,0.1800,-0.0195,-0.0049,38.5500,17.5500,15.0750,
6.719053,1.5171,0.3104,0.8757,0.1800,-0.0195,-0.0049,38.5500,17.5500,15.0750,
6.721029,1.6348,-0.0792,1.2306,0.1800,-0.0195,-0.0049,38.5500,17.5500,15.0750,
6.734095,1.6348,-0.0792,1.2306,0.1800,-0.0195,-0.0049,38.5500,17.5500,15.0750,
6.736561,1.5726,-0.4610,0.8191,0.1800,-0.0195,-0.0049,38.5500,17.5500,15.0750,
6.746478,1.5726,-0.4610,0.8191,0.1800,-0.0195,-0.0049,38.5500,18.1500,14.6250,
6.758745,1.5726,-0.4610,0.8191,0.1800,-0.0195,-0.0049,38.5500,18.1500,14.6250,
6.760842,1.1633,-0.4279,0.4912,0.1800,-0.0195,-0.0049,38.5500,18.1500,14.6250,
6.777636,1.1633,-0.4279,0.4912,0.1800,-0.0195,-0.0049,38.5500,18.1500,14.6250,
6.780108,0.5531,-0.0167,0.0630,0.1800,-0.0195,-0.0049,38.5500,18.1500,14.6250,
6.782352,0.5531,-0.0167,0.0630,0.3456,-0.1457,-0.0252,38.5500,18.1500,14.6250,
6.800515,0.5531,-0.0167,0.0630,0.3456,-0.1457,-0.0252,38.5500,18.1500,14.6250,
6.802448,-0.1073,0.1801,-0.5843,0.3456,-0.1457,-0.0252,38.5500,18.1500,14.6250,
6.817241,-0.1073,0.1801,-0.5843,0.3456,-0.1457,-0.0252,38.5500,18.1500,14.6250,
6.819277,-0.4228,0.0024,-0.7807,0.3456,-0.1457,-0.0252,38.5500,18.1500,14.6250,
6.820874,-0.4228,0.0024,-0.7807,0.3456,-0.1457,-0.0252,38.5500,18.7500,14.0250,
6.833742,-0.4228,0.0024,-0.7807,0.3456,-0.1457,-0.0252,38.5500,18.7500,14.0250,
6.836832,-0.5070,0.0390,-0.5034,0.3456,-0.1457,-0.0252,38.5500,18.7500,14.0250,
6.855905,-0.5070,0.0390,-0.5034,0.1820,-0.0860,0.0916,38.5500,18.7500,14.0250,
6.864719,-0.5070,0.0390,-0.5034,0.1820,-0.0860,0.0916,38.5500,18.7500,14.0250,
6.866459,-0.1707,-0.0352,0.0404,0.1820,-0.0860,0.0916,38.5500,18.7500,14.0250,
6.886074,-0.1707,-0.0352,0.0404,0.1820,-0.0860,0.0916,38.5500,18.7500,14.0250,
6.888408,-0.1698,-0.3183,0.2870,0.1820,-0.0860,0.0916,38.5500,18.7500,14.0250,
6.890428,-0.1698,-0.3183,0.2870,0.1820,-0.0860,0.0916,38.5500,18.7500,13.4250,
6.899976,-0.1698,-0.3183,0.2870,0.1820,-0.0860,0.0916,38.5500,18.7500,13.4250,
6.901576,-0.2915,-0.2310,0.3699,0.1820,-0.0860,0.0916,38.5500,18.7500,13.4250,
6.919641,-0.2915,-0.2310,0.3699,0.1820,-0.0860,0.0916,38.5500,18.7500,13.4250,
6.922015,-0.7305,0.0937,0.3628,0.1820,-0.0860,0.0916,38.5500,18.7500,13.4250,
6.924736,-0.7305,0.0937,0.3628,-0.0130,0.0247,0.0890,38.5500,18.7500,13.4250,
6.939922,-0.7305,0.0937,0.3628,-0.0130,0.0247,0.0890,38.5500,18.7500,13.4250,
6.942248,-0.9498,0.3173,0.5918,-0.0130,0.0247,0.0890,38.5500,18.7500,13.4250,
6.949251,-0.9498,0.3173,0.5918,-0.0130,0.0247,0.0890,38.4750,18.6000,13.9500,
6.958726,-0.9498,0.3173,0.5918,-0.0130,0.0247,0.0890,38.4750,18.6000,13.9500,
6.960723,-0.9507,0.3429,0.5939,-0.0130,0.0247,0.0890,38.4750,18.6000,13.9500,
6.978364,-0.9507,0.3429,0.5939,-0.0130,0.0247,0.0890,38.4750,18.6000,13.9500,
6.981493,-0.7460,0.3164,0.2534,-0.0130,0.0247,0.0890,38.4750,18.6000,13.9500,
6.992790,-0.7460,0.3164,0.2534,0.0971,-0.1235,0.1145,38.4750,18.6000,13.9500,
7.002376,-0.7460,0.3164,0.2534,0.0971,-0.1235,0.1145,38.4750,18.6000,13.9500,
7.004429,-0.4923,0.4654,-0.0861,0.0971,-0.1235,0.1145,38.4750,18.6000,13.9500,
7.017779,-0.4923,0.4654,-0.0861,0.0971,-0.1235,0.1145,38.4750,18.6000,13.9500,
7.020431,-0.3251,0.6097,-0.2352,0.0971,-0.1235,0.1145,38.4750,18.6000,13.9500,
7.022454,-0.3251,0.6097,-0.2352,0.0971,-0.1235,0.1145,39.1500,17.7000,13.8750,
7.033488,-0.3251,0.6097,-0.2352,0.0971,-0.1235,0.1145,39.1500,17.7000,13.8750,
7.036504,-0.2465,0.5166,-0.2177,0.0971,-0.1235,0.1145,39.1500,17.7000,13.8750,
7.056829,-0.2465,0.5166,-0.2177,0.0971,-0.1235,0.1145,39.1500,17.7000,13.8750,
7.059622,-0.3262,0.2352,-0.1157,0.0971,-0.1235,0.1145,39.1500,17.7000,13.8750,
7.061733,-0.3262,0.2352,-0.1157,0.1155,-0.2054,0.0588,39.1500,17.7000,13.8750,
7.080071,-0.3262,0.2352,-0.1157,0.1155,-0.2054,0.0588,39.1500,17.7000,13.8750,
7.082437,-0.2918,-0.0813,-0.3323,0.1155,-0.2054,0.0588,39.1500,17.7000,13.8750,
7.090445,-0.2918,-0.0813,-0.3323,0.1155,-0.2054,0.0588,39.7500,18.1500,12.6750,
7.100947,-0.2918,-0.0813,-0.3323,0.1155,-0.2054,0.0588,39.7500,18.1500,12.6750,
7.103833,0.1101,-0.2824,-1.0399,0.1155,-0.2054,0.0588,39.7500,18.1500,12.6750,
7.120667,0.1101,-0.2824,-1.0399,0.1155,-0.2054,0.0588,39.7500,18.1500,12.6750,
7.122806,-0.2972,0.2252,0.0959,0.1155,-0.2054,0.0588,39.7500,18.1500,12.6750,
7.137436,-0.2972,0.2252,0.0959,-0.0724,-0.1402,-0.0026,39.7500,18.1500,12.6750,
7.139648,-0.2972,0.2252,0.0959,-0.0724,-0.1402,-0.0026,39.7500,18.1500,12.6750,
7.140966,-0.5781,0.5083,0.3346,-0.0724,-0.1402,-0.0026,39.7500,18.1500,12.6750,
