
time,ax,ay,az,wx,wy,wz,Bx,By,Bz,
0.060512,0.0000,0.0000,0.0000,0.0000,0.0000,0.0000,39.7500,14.2500,5.7000,
0.077341,0.0000,0.0000,0.0000,0.0000,0.0000,0.0000,39.7500,14.2500,5.7000,
0.094593,0.0000,0.0000,0.0000,0.0000,0.0000,0.0000,39.7500,14.2500,5.7000,
0.096304,0.0079,-0.0786,0.0123,0.0000,0.0000,0.0000,39.7500,14.2500,5.7000,
0.098047,0.0079,-0.0786,0.0123,-0.0350,0.1040,-0.1596,39.7500,14.2500,5.7000,
0.113266,0.0079,-0.0786,0.0123,-0.0350,0.1040,-0.1596,39.7500,14.2500,5.7000,
0.115916,0.1084,0.1580,-0.1469,-0.0350,0.1040,-0.1596,39.7500,14.2500,5.7000,
0.128733,0.1084,0.1580,-0.1469,-0.0350,0.1040,-0.1596,39.7500,14.2500,5.7000,
0.132445,-0.0267,0.2030,0.0047,-0.0350,0.1040,-0.1596,39.7500,14.2500,5.7000,
0.134020,-0.0267,0.2030,0.0047,-0.0350,0.1040,-0.1596,40.6500,14.2500,5.1000,
0.152013,-0.0267,0.2030,0.0047,-0.0350,0.1040,-0.1596,40.6500,14.2500,5.1000,
0.154757,-0.4005,0.0369,0.3065,-0.0350,0.1040,-0.1596,40.6500,14.2500,5.1000,
0.166401,-0.4005,0.0369,0.3065,-0.1006,0.0852,-0.1735,40.6500,14.2500,5.1000,
0.176112,-0.4005,0.0369,0.3065,-0.1006,0.0852,-0.1735,40.6500,14.2500,5.1000,
0.178374,-0.5578,-0.0441,0.3519,-0.1006,0.0852,-0.1735,40.6500,14.2500,5.1000,
0.195532,-0.5578,-0.0441,0.3519,-0.1006,0.0852,-0.1735,40.6500,14.2500,5.1000,
0.197236,-0.3802,0.2094,0.2462,-0.1006,0.0852,-0.1735,40.6500,14.2500,5.1000,
0.200203,-0.3802,0.2094,0.2462,-0.1006,0.0852,-0.1735,40.4250,14.7000,5.2500,
0.214171,-0.3802,0.2094,0.2462,-0.1006,0.0852,-0.1735,40.4250,14.7000,5.2500,
0.216495,-0.1836,0.4151,0.1812,-0.1006,0.0852,-0.1735,40.4250,14.7000,5.2500,
0.235792,-0.1836,0.4151,0.1812,-0.1006,0.0852,-0.1735,40.4250,14.7000,5.2500,
0.237669,-0.1148,0.4829,0.2280,-0.1006,0.0852,-0.1735,40.4250,14.7000,5.2500,
0.244148,-0.1148,0.4829,0.2280,-0.0994,-0.0101,-0.1619,40.4250,14.7000,5.2500,
0.258009,-0.1148,0.4829,0.2280,-0.0994,-0.0101,-0.1619,40.4250,14.7000,5.2500,
0.259615,-0.1174,0.3269,0.2522,-0.0994,-0.0101,-0.1619,40.4250,14.7000,5.2500,
0.266042,-0.1174,0.3269,0.2522,-0.0994,-0.0101,-0.1619,40.2000,15.4500,5.7000,
0.275368,-0.1174,0.3269,0.2522,-0.0994,-0.0101,-0.1619,40.2000,15.4500,5.7000,
0.276917,-0.1566,0.1925,0.1349,-0.0994,-0.0101,-0.1619,40.2000,15.4500,5.7000,
0.293890,-0.1566,0.1925,0.1349,-0.0994,-0.0101,-0.1619,40.2000,15.4500,5.7000,
0.296655,-0.0638,0.2011,-0.2112,-0.0994,-0.0101,-0.1619,40.2000,15.4500,5.7000,
0.308879,-0.0638,0.2011,-0.2112,-0.0826,-0.0536,-0.1336,40.2000,15.4500,5.7000,
0.313328,-0.0638,0.2011,-0.2112,-0.0826,-0.0536,-0.1336,40.2000,15.4500,5.7000,
0.315072,0.0389,0.1794,-0.3999,-0.0826,-0.0536,-0.1336,40.2000,15.4500,5.7000,
0.328468,0.0389,0.1794,-0.3999,-0.0826,-0.0536,-0.1336,40.2000,15.4500,5.7000,
0.330737,0.0755,0.1043,-0.2793,-0.0826,-0.0536,-0.1336,40.2000,15.4500,5.7000,
0.332959,0.0755,0.1043,-0.2793,-0.0826,-0.0536,-0.1336,40.5000,15.9750,5.2500,
0.353846,0.0755,0.1043,-0.2793,-0.0826,-0.0536,-0.1336,40.5000,15.9750,5.2500,
0.356022,0.2022,-0.1526,0.0182,-0.0826,-0.0536,-0.1336,40.5000,15.9750,5.2500,
0.374459,0.2022,-0.1526,0.0182,-0.0826,-0.0536,-0.1336,40.5000,15.9750,5.2500,
0.375747,0.1024,-0.2794,0.0699,-0.0826,-0.0536,-0.1336,40.5000,15.9750,5.2500,
0.376662,0.1024,-0.2794,0.0699,-0.1730,-0.0964,-0.0464,40.5000,15.9750,5.2500,
0.393289,0.1024,-0.2794,0.0699,-0.1730,-0.0964,-0.0464,40.5000,15.9750,5.2500,
0.394509,-0.1985,-0.1201,-0.1548,-0.1730,-0.0964,-0.0464,40.5000,15.9750,5.2500,
0.402717,-0.1985,-0.1201,-0.1548,-0.1730,-0.0964,-0.0464,40.1250,16.1250,5.1750,
0.411930,-0.1985,-0.1201,-0.1548,-0.1730,-0.0964,-0.0464,40.1250,16.1250,5.1750,
0.413409,0.2745,0.0808,-0.2974,-0.1730,-0.0964,-0.0464,40.1250,16.1250,5.1750,
0.429314,0.2745,0.0808,-0.2974,-0.1730,-0.0964,-0.0464,40.1250,16.1250,5.1750,
0.431107,0.0002,0.2505,-0.1752,-0.1730,-0.0964,-0.0464,40.1250,16.1250,5.1750,
0.451095,0.0002,0.2505,-0.1752,-0.1095,-0.2036,0.0362,40.1250,16.1250,5.1750,
0.459098,0.0002,0.2505,-0.1752,-0.1095,-0.2036,0.0362,40.1250,16.1250,5.1750,
0.461199,-0.0628,0.0003,0.4631,-0.1095,-0.2036,0.0362,40.1250,16.1250,5.1750,
0.475998,-0.0628,0.0003,0.4631,-0.1095,-0.2036,0.0362,40.1250,16.1250,5.1750,
0.479197,-0.0324,-0.0559,0.5827,-0.1095,-0.2036,0.0362,40.1250,16.1250,5.1750,
0.482132,-0.0324,-0.0559,0.5827,-0.1095,-0.2036,0.0362,40.1250,16.2750,5.2500,
0.494601,-0.0324,-0.0559,0.5827,-0.1095,-0.2036,0.0362,40.1250,16.2750,5.2500,
0.496640,0.1787,0.0338,0.3143,-0.1095,-0.2036,0.0362,40.1250,16.2750,5.2500,
0.513384,0.1787,0.0338,0.3143,-0.1095,-0.2036,0.0362,40.1250,16.2750,5.2500,
0.515442,0.4493,-0.0042,0.0113,-0.1095,-0.2036,0.0362,40.1250,16.2750,5.2500,
0.518519,0.4493,-0.0042,0.0113,0.0464,-0.2266,0.1162,40.1250,16.2750,5.2500,
0.528865,0.4493,-0.0042,0.0113,0.0464,-0.2266,0.1162,40.1250,16.2750,5.2500,
0.530766,0.6456,-0.2105,-0.0643,0.0464,-0.2266,0.1162,40.1250,16.2750,5.2500,
0.543743,0.6456,-0.2105,-0.0643,0.0464,-0.2266,0.1162,40.2000,15.6000,4.3500,
0.553954,0.6456,-0.2105,-0.0643,0.0464,-0.2266,0.1162,40.2000,15.6000,4.3500,
0.555836,0.4602,-0.5496,0.0913,0.0464,-0.2266,0.1162,40.2000,15.6000,4.3500,
0.575951,0.4602,-0.5496,0.0913,0.0464,-0.2266,0.1162,40.2000,15.6000,4.3500,
0.578088,-0.1051,-0.7588,0.2175,0.0464,-0.2266,0.1162,40.2000,15.6000,4.3500,
0.588296,-0.1051,-0.7588,0.2175,0.1264,-0.2853,0.1345,40.2000,15.6000,4.3500,
0.591878,-0.1051,-0.7588,0.2175,0.1264,-0.2853,0.1345,40.2000,15.6000,4.3500,
0.593229,-0.9037,-0.7332,0.1209,0.1264,-0.2853,0.1345,40.2000,15.6000,4.3500,
0.611625,-0.9037,-0.7332,0.1209,0.1264,-0.2853,0.1345,40.2000,15.6000,4.3500,
0.613999,-2.0886,-0.0830,-0.2119,0.1264,-0.2853,0.1345,40.2000,15.6000,4.3500,
0.616089,-2.0886,-0.0830,-0.2119,0.1264,-0.2853,0.1345,40.2000,14.9250,3.3750,
0.628404,-2.0886,-0.0830,-0.2119,0.1264,-0.2853,0.1345,40.2000,14.9250,3.3750,
0.630675,-2.9665,0.6877,-0.3509,0.1264,-0.2853,0.1345,40.2000,14.9250,3.3750,
0.652004,-2.9665,0.6877,-0.3509,0.1264,-0.2853,0.1345,40.2000,14.9250,3.3750,
0.653460,-3.1039,0.8993,-0.5136,0.1264,-0.2853,0.1345,40.2000,14.9250,3.3750,
0.657388,-3.1039,0.8993,-0.5136,0.0501,-0.5035,0.2792,40.2000,14.9250,3.3750,
0.671363,-3.1039,0.8993,-0.5136,0.0501,-0.5035,0.2792,40.2000,14.9250,3.3750,
0.672870,-2.6108,0.4981,-0.5439,0.0501,-0.5035,0.2792,40.2000,14.9250,3.3750,
0.686430,-2.6108,0.4981,-0.5439,0.0501,-0.5035,0.2792,40.3500,15.1500,2.4000,
0.696644,-2.6108,0.4981,-0.5439,0.0501,-0.5035,0.2792,40.3500,15.1500,2.4000,
0.698262,-1.9206,-0.5768,-0.0298,0.0501,-0.5035,0.2792,40.3500,15.1500,2.4000,
0.715251,-1.9206,-0.5768,-0.0298,0.0501,-0.5035,0.2792,40.3500,15.1500,2.4000,
0.716808,-1.3398,-0.9993,0.3646,0.0501,-0.5035,0.2792,40.3500,15.1500,2.4000,
0.728669,-1.3398,-0.9993,0.3646,-0.0058,-0.7324,0.2457,40.3500,15.1500,2.4000,
0.731926,-1.3398,-0.9993,0.3646,-0.0058,-0.7324,0.2457,40.3500,15.1500,2.4000,
0.734005,-1.0732,-0.7229,0.1514,-0.0058,-0.7324,0.2457,40.3500,15.1500,2.4000,
0.753440,-1.0732,-0.7229,0.1514,-0.0058,-0.7324,0.2457,40.3500,15.1500,2.4000,
0.756328,-1.3032,-0.3061,0.0361,-0.0058,-0.7324,0.2457,40.3500,15.1500,2.4000,
0.758576,-1.3032,-0.3061,0.0361,-0.0058,-0.7324,0.2457,41.0250,14.4750,0.1500,
0.773820,-1.3032,-0.3061,0.0361,-0.0058,-0.7324,0.2457,41.0250,14.4750,0.1500,
0.776181,-1.4537,-0.1006,0.0977,-0.0058,-0.7324,0.2457,41.0250,14.4750,0.1500,
0.793236,-1.4537,-0.1006,0.0977,-0.0058,-0.7324,0.2457,41.0250,14.4750,0.1500,
0.796477,-1.8671,0.0658,0.3000,-0.0058,-0.7324,0.2457,41.0250,14.4750,0.1500,
0.798659,-1.8671,0.0658,0.3000,0.1109,-1.0267,-0.0864,41.0250,14.4750,0.1500,
0.811943,-1.8671,0.0658,0.3000,0.1109,-1.0267,-0.0864,41.0250,14.4750,0.1500,
0.813757,-1.8787,0.0708,0.3064,0.1109,-1.0267,-0.0864,41.0250,14.4750,0.1500,
0.822625,-1.8787,0.0708,0.3064,0.1109,-1.0267,-0.0864,41.5500,13.9500,-3.0000,
0.828308,-1.8787,0.0708,0.3064,0.1109,-1.0267,-0.0864,41.5500,13.9500,-3.0000,
0.829543,-1.8146,-0.3176,0.2990,0.1109,-1.0267,-0.0864,41.5500,13.9500,-3.0000,
0.851120,-1.8146,-0.3176,0.2990,0.1109,-1.0267,-0.0864,41.5500,13.9500,-3.0000,
0.853189,-2.7479,-0.3796,-0.0778,0.1109,-1.0267,-0.0864,41.5500,13.9500,-3.0000,
0.865972,-2.7479,-0.3796,-0.0778,0.2479,-1.2278,-0.3584,41.5500,13.9500,-3.0000,
0.873216,-2.7479,-0.3796,-0.0778,0.2479,-1.2278,-0.3584,41.5500,13.9500,-3.0000,
0.875928,-3.0283,-0.0821,-0.8285,0.2479,-1.2278,-0.3584,41.5500,13.9500,-3.0000,
0.890478,-3.0283,-0.0821,-0.8285,0.2479,-1.2278,-0.3584,41.5500,13.9500,-3.0000,
0.893227,-1.9166,-0.1648,-1.2343,0.2479,-1.2278,-0.3584,41.5500,13.9500,-3.0000,
0.895555,-1.9166,-0.1648,-1.2343,0.2479,-1.2278,-0.3584,41.2500,15.4500,-6.4500,
0.910802,-1.9166,-0.1648,-1.2343,0.2479,-1.2278,-0.3584,41.2500,15.4500,-6.4500,
0.913131,-0.5993,0.0103,-0.2490,0.2479,-1.2278,-0.3584,41.2500,15.4500,-6.4500,
0.928592,-0.5993,0.0103,-0.2490,0.2479,-1.2278,-0.3584,41.2500,15.4500,-6.4500,
0.931544,-0.4037,-0.1109,-0.2574,0.2479,-1.2278,-0.3584,41.2500,15.4500,-6.4500,
0.939161,-0.4037,-0.1109,-0.2574,0.2479,-1.2838,-0.4426,41.2500,15.4500,-6.4500,
0.954932,-0.4037,-0.1109,-0.2574,0.2479,-1.2838,-0.4426,41.2500,15.4500,-6.4500,
0.957932,-0.6398,-0.2333,0.1310,0.2479,-1.2838,-0.4426,41.2500,15.4500,-6.4500,
0.963820,-0.6398,-0.2333,0.1310,0.2479,-1.2838,-0.4426,40.3500,15.6750,-9.8250,
0.975975,-0.6398,-0.2333,0.1310,0.2479,-1.2838,-0.4426,40.3500,15.6750,-9.8250,
0.977306,-0.9598,-0.1021,0.1492,0.2479,-1.2838,-0.4426,40.3500,15.6750,-9.8250,
0.994327,-0.9598,-0.1021,0.1492,0.2479,-1.2838,-0.4426,40.3500,15.6750,-9.8250,
0.995907,-1.2608,0.2017,-0.1345,0.2479,-1.2838,-0.4426,40.3500,15.6750,-9.8250,
1.008948,-1.2608,0.2017,-0.1345,0.3111,-0.8575,-0.4059,40.3500,15.6750,-9.8250,
1.013265,-1.2608,0.2017,-0.1345,0.3111,-0.8575,-0.4059,40.3500,15.6750,-9.8250,
1.014953,-1.0893,0.5531,-0.4400,0.3111,-0.8575,-0.4059,40.3500,15.6750,-9.8250,
1.029020,-1.0893,0.5531,-0.4400,0.3111,-0.8575,-0.4059,40.3500,15.6750,-9.8250,
1.031699,-0.8847,0.4979,-0.7505,0.3111,-0.8575,-0.4059,40.3500,15.6750,-9.8250,
1.033761,-0.8847,0.4979,-0.7505,0.3111,-0.8575,-0.4059,38.2500,16.6500,-13.0500,
1.052058,-0.8847,0.4979,-0.7505,0.3111,-0.8575,-0.4059,38.2500,16.6500,-13.0500,
1.054895,-0.3644,0.2365,-0.4690,0.3111,-0.8575,-0.4059,38.2500,16.6500,-13.0500,
1.072218,-0.3644,0.2365,-0.4690,0.3111,-0.8575,-0.4059,38.2500,16.6500,-13.0500,
1.076243,0.2845,-0.0195,-0.6283,0.3111,-0.8575,-0.4059,38.2500,16.6500,-13.0500,
1.079146,0.2845,-0.0195,-0.6283,0.2291,-0.4290,-0.1923,38.2500,16.6500,-13.0500,
1.092656,0.2845,-0.0195,-0.6283,0.2291,-0.4290,-0.1923,38.2500,16.6500,-13.0500,
1.095429,0.4665,0.2290,-0.7437,0.2291,-0.4290,-0.1923,38.2500,16.6500,-13.0500,
1.100917,0.4665,0.2290,-0.7437,0.2291,-0.4290,-0.1923,37.8000,17.7750,-15.3000,
1.110440,0.4665,0.2290,-0.7437,0.2291,-0.4290,-0.1923,37.8000,17.7750,-15.3000,
1.112315,0.1735,0.5506,-0.7023,0.2291,-0.4290,-0.1923,37.8000,17.7750,-15.3000,
1.128592,0.1735,0.5506,-0.7023,0.2291,-0.4290,-0.1923,37.8000,17.7750,-15.3000,
1.131036,-0.0959,0.6479,-0.4500,0.2291,-0.4290,-0.1923,37.8000,17.7750,-15.3000,
1.144206,-0.0959,0.6479,-0.4500,-0.1206,-0.0512,-0.1379,37.8000,17.7750,-15.3000,
1.149281,-0.0959,0.6479,-0.4500,-0.1206,-0.0512,-0.1379,37.8000,17.7750,-15.3000,
1.151166,-0.2228,0.4416,-0.1353,-0.1206,-0.0512,-0.1379,37.8000,17.7750,-15.3000,
1.171201,-0.2228,0.4416,-0.1353,-0.1206,-0.0512,-0.1379,36.9000,18.3000,-15.9000,
1.174684,-0.2228,0.4416,-0.1353,-0.1206,-0.0512,-0.1379,36.9000,18.3000,-15.9000,
1.176331,-0.2488,0.1830,0.0641,-0.1206,-0.0512,-0.1379,36.9000,18.3000,-15.9000,
1.192036,-0.2488,0.1830,0.0641,-0.1206,-0.0512,-0.1379,36.9000,18.3000,-15.9000,
1.194533,-0.3407,0.1192,0.0711,-0.1206,-0.0512,-0.1379,36.9000,18.3000,-15.9000,
1.208720,-0.3407,0.1192,0.0711,-0.1206,-0.0512,-0.1379,36.9000,18.3000,-15.9000,
1.211606,-0.4479,0.1008,0.0630,-0.1206,-0.0512,-0.1379,36.9000,18.3000,-15.9000,
1.213938,-0.4479,0.1008,0.0630,-0.2789,0.1793,-0.0860,36.9000,18.3000,-15.9000,
1.228135,-0.4479,0.1008,0.0630,-0.2789,0.1793,-0.0860,36.9000,18.3000,-15.9000,
1.231045,-0.4528,0.3153,-0.0348,-0.2789,0.1793,-0.0860,36.9000,18.3000,-15.9000,
1.241178,-0.4528,0.3153,-0.0348,-0.2789,0.1793,-0.0860,36.5250,18.3750,-16.0500,
1.247476,-0.4528,0.3153,-0.0348,-0.2789,0.1793,-0.0860,36.5250,18.3750,-16.0500,
1.249007,-0.3221,0.5911,-0.1771,-0.2789,0.1793,-0.0860,36.5250,18.3750,-16.0500,
1.268639,-0.3221,0.5911,-0.1771,-0.2789,0.1793,-0.0860,36.5250,18.3750,-16.0500,
1.271609,-0.2413,0.5811,-0.1392,-0.2789,0.1793,-0.0860,36.5250,18.3750,-16.0500,
1.281605,-0.2413,0.5811,-0.1392,-0.4873,0.4102,0.0005,36.5250,18.3750,-16.0500,
1.290420,-0.2413,0.5811,-0.1392,-0.4873,0.4102,0.0005,36.5250,18.3750,-16.0500,
1.292244,-0.2520,0.2311,0.0419,-0.4873,0.4102,0.0005,36.5250,18.3750,-16.0500,
1.311368,-0.2520,0.2311,0.0419,-0.4873,0.4102,0.0005,36.5250,18.3750,-16.0500,
1.313312,-0.3057,0.0715,0.3369,-0.4873,0.4102,0.0005,36.5250,18.3750,-16.0500,
1.315250,-0.3057,0.0715,0.3369,-0.4873,0.4102,0.0005,37.3500,18.8250,-13.7250,
1.330947,-0.3057,0.0715,0.3369,-0.4873,0.4102,0.0005,37.3500,18.8250,-13.7250,
1.332139,-0.2590,0.2633,0.1675,-0.4873,0.4102,0.0005,37.3500,18.8250,-13.7250,
1.350505,-0.2590,0.2633,0.1675,-0.4873,0.4102,0.0005,37.3500,18.8250,-13.7250,
1.351366,-0.2485,0.5768,-0.1910,-0.4873,0.4102,0.0005,37.3500,18.8250,-13.7250,
1.355824,-0.2485,0.5768,-0.1910,-0.5600,0.6415,0.0826,37.3500,18.8250,-13.7250,
1.372351,-0.2485,0.5768,-0.1910,-0.5600,0.6415,0.0826,37.3500,18.8250,-13.7250,
1.373530,-0.4054,0.3818,0.0860,-0.5600,0.6415,0.0826,37.3500,18.8250,-13.7250,
1.381760,-0.4054,0.3818,0.0860,-0.5600,0.6415,0.0826,38.4000,19.7250,-10.9500,
1.389662,-0.4054,0.3818,0.0860,-0.5600,0.6415,0.0826,38.4000,19.7250,-10.9500,
1.391248,-0.5767,0.1429,0.1859,-0.5600,0.6415,0.0826,38.4000,19.7250,-10.9500,
1.409528,-0.5767,0.1429,0.1859,-0.5600,0.6415,0.0826,38.4000,19.7250,-10.9500,
1.411298,-0.6261,0.4738,-0.0319,-0.5600,0.6415,0.0826,38.4000,19.7250,-10.9500,
1.429932,-0.6261,0.4738,-0.0319,-0.6573,0.6292,0.1127,38.4000,19.7250,-10.9500,
1.432049,-0.6261,0.4738,-0.0319,-0.6573,0.6292,0.1127,38.4000,19.7250,-10.9500,
1.433380,-0.9602,0.7818,-0.1315,-0.6573,0.6292,0.1127,38.4000,19.7250,-10.9500,
1.449296,-0.9602,0.7818,-0.1315,-0.6573,0.6292,0.1127,38.4000,19.7250,-10.9500,
1.451015,-1.1460,0.8105,-0.0829,-0.6573,0.6292,0.1127,38.4000,19.7250,-10.9500,
1.452498,-1.1460,0.8105,-0.0829,-0.6573,0.6292,0.1127,38.0250,19.1250,-8.2500,
1.468374,-1.1460,0.8105,-0.0829,-0.6573,0.6292,0.1127,38.0250,19.1250,-8.2500,
1.472100,-0.9988,0.4141,0.0527,-0.6573,0.6292,0.1127,38.0250,19.1250,-8.2500,
1.491673,-0.9988,0.4141,0.0527,-0.6573,0.6292,0.1127,38.0250,19.1250,-8.2500,
1.494567,-0.6392,0.1755,0.1412,-0.6573,0.6292,0.1127,38.0250,19.1250,-8.2500,
1.496533,-0.6392,0.1755,0.1412,-0.8097,0.5310,0.1736,38.0250,19.1250,-8.2500,
1.508567,-0.6392,0.1755,0.1412,-0.8097,0.5310,0.1736,38.0250,19.1250,-8.2500,
1.510263,-0.4552,0.5060,0.0199,-0.8097,0.5310,0.1736,38.0250,19.1250,-8.2500,
1.521676,-0.4552,0.5060,0.0199,-0.8097,0.5310,0.1736,38.8500,18.8250,-6.6000,
1.525821,-0.4552,0.5060,0.0199,-0.8097,0.5310,0.1736,38.8500,18.8250,-6.6000,
1.527256,-0.5338,0.9777,-0.1947,-0.8097,0.5310,0.1736,38.8500,18.8250,-6.6000,
1.546125,-0.5338,0.9777,-0.1947,-0.8097,0.5310,0.1736,38.8500,18.8250,-6.6000,
1.548354,-0.5088,1.2759,-0.4113,-0.8097,0.5310,0.1736,38.8500,18.8250,-6.6000,
1.565244,-0.5088,1.2759,-0.4113,-0.8677,0.5747,0.2457,38.8500,18.8250,-6.6000,
1.568067,-0.5088,1.2759,-0.4113,-0.8677,0.5747,0.2457,38.8500,18.8250,-6.6000,
1.569511,-0.4663,1.2643,-0.1736,-0.8677,0.5747,0.2457,38.8500,18.8250,-6.6000,
1.589515,-0.4663,1.2643,-0.1736,-0.8677,0.5747,0.2457,38.8500,18.8250,-6.6000,
1.592788,-0.5497,1.2238,-0.1510,-0.8677,0.5747,0.2457,38.8500,18.8250,-6.6000,
1.594583,-0.5497,1.2238,-0.1510,-0.8677,0.5747,0.2457,39.5250,18.5250,-3.7500,
1.609633,-0.5497,1.2238,-0.1510,-0.8677,0.5747,0.2457,39.5250,18.5250,-3.7500,
1.611686,-0.6871,1.3956,-0.1423,-0.8677,0.5747,0.2457,39.5250,18.5250,-3.7500,
1.629091,-0.6871,1.3956,-0.1423,-0.8677,0.5747,0.2457,39.5250,18.5250,-3.7500,
1.631738,-0.6527,1.3572,-0.2967,-0.8677,0.5747,0.2457,39.5250,18.5250,-3.7500,
1.633937,-0.6527,1.3572,-0.2967,-0.9120,0.5238,0.2307,39.5250,18.5250,-3.7500,
1.648553,-0.6527,1.3572,-0.2967,-0.9120,0.5238,0.2307,39.5250,18.5250,-3.7500,
1.651041,-0.5321,1.4183,-0.1138,-0.9120,0.5238,0.2307,39.5250,18.5250,-3.7500,
1.660035,-0.5321,1.4183,-0.1138,-0.9120,0.5238,0.2307,40.0500,17.2500,-0.3000,
1.667915,-0.5321,1.4183,-0.1138,-0.9120,0.5238,0.2307,40.0500,17.2500,-0.3000,
1.669436,-0.5561,1.4779,0.1632,-0.9120,0.5238,0.2307,40.0500,17.2500,-0.3000,
1.688138,-0.5561,1.4779,0.1632,-0.9120,0.5238,0.2307,40.0500,17.2500,-0.3000,
1.691206,-0.7295,1.3545,-0.1681,-0.9120,0.5238,0.2307,40.0500,17.2500,-0.3000,
1.702727,-0.7295,1.3545,-0.1681,-0.9793,0.4436,0.1466,40.0500,17.2500,-0.3000,
1.714866,-0.7295,1.3545,-0.1681,-0.9793,0.4436,0.1466,40.0500,17.2500,-0.3000,
1.717754,-0.8844,1.5065,0.2190,-0.9793,0.4436,0.1466,40.0500,17.2500,-0.3000,
1.726808,-0.8844,1.5065,0.2190,-0.9793,0.4436,0.1466,40.0500,17.2500,-0.3000,
1.729186,-1.0282,1.5763,0.3159,-0.9793,0.4436,0.1466,40.0500,17.2500,-0.3000,
1.731624,-1.0282,1.5763,0.3159,-0.9793,0.4436,0.1466,39.9000,17.1750,1.8750,
1.747185,-1.0282,1.5763,0.3159,-0.9793,0.4436,0.1466,39.9000,17.1750,1.8750,
1.749631,-0.8757,1.7403,-0.1752,-0.9793,0.4436,0.1466,39.9000,17.1750,1.8750,
1.766048,-0.8757,1.7403,-0.1752,-0.9793,0.4436,0.1466,39.9000,17.1750,1.8750,
1.768476,-0.6138,1.7675,-0.4923,-0.9793,0.4436,0.1466,39.9000,17.1750,1.8750,
1.773280,-0.6138,1.7675,-0.4923,-0.9940,0.3830,0.1345,39.9000,17.1750,1.8750,
1.785045,-0.6138,1.7675,-0.4923,-0.9940,0.3830,0.1345,39.9000,17.1750,1.8750,
1.787630,-0.4300,1.5475,-0.4504,-0.9940,0.3830,0.1345,39.9000,17.1750,1.8750,
1.800684,-0.4300,1.5475,-0.4504,-0.9940,0.3830,0.1345,40.9500,15.6000,4.6500,
1.809874,-0.4300,1.5475,-0.4504,-0.9940,0.3830,0.1345,40.9500,15.6000,4.6500,
1.811850,-0.4246,1.2347,-0.3512,-0.9940,0.3830,0.1345,40.9500,15.6000,4.6500,
1.828784,-0.4246,1.2347,-0.3512,-0.9940,0.3830,0.1345,40.9500,15.6000,4.6500,
1.831057,-0.3754,1.1888,0.0794,-0.9940,0.3830,0.1345,40.9500,15.6000,4.6500,
1.843664,-0.3754,1.1888,0.0794,-0.8500,0.3027,0.0638,40.9500,15.6000,4.6500,
1.848434,-0.3754,1.1888,0.0794,-0.8500,0.3027,0.0638,40.9500,15.6000,4.6500,
1.849998,-0.4563,1.3587,-0.3228,-0.8500,0.3027,0.0638,40.9500,15.6000,4.6500,
1.868712,-0.4563,1.3587,-0.3228,-0.8500,0.3027,0.0638,40.9500,15.6000,4.6500,
1.871914,-0.6743,1.6709,-0.9660,-0.8500,0.3027,0.0638,40.9500,15.6000,4.6500,
1.874772,-0.6743,1.6709,-0.9660,-0.8500,0.3027,0.0638,40.9500,14.9250,6.1500,
1.887705,-0.6743,1.6709,-0.9660,-0.8500,0.3027,0.0638,40.9500,14.9250,6.1500,
1.889877,-0.6524,1.5687,-0.8499,-0.8500,0.3027,0.0638,40.9500,14.9250,6.1500,
1.907939,-0.6524,1.5687,-0.8499,-0.8500,0.3027,0.0638,40.9500,14.9250,6.1500,
1.910397,-0.5595,1.3098,-0.6131,-0.8500,0.3027,0.0638,40.9500,14.9250,6.1500,
1.912437,-0.5595,1.3098,-0.6131,-0.6611,0.2892,0.0064,40.9500,14.9250,6.1500,
1.927275,-0.5595,1.3098,-0.6131,-0.6611,0.2892,0.0064,40.9500,14.9250,6.1500,
1.929544,-0.8238,1.0815,-0.3886,-0.6611,0.2892,0.0064,40.9500,14.9250,6.1500,
1.940087,-0.8238,1.0815,-0.3886,-0.6611,0.2892,0.0064,40.4250,13.6500,8.4750,
1.947061,-0.8238,1.0815,-0.3886,-0.6611,0.2892,0.0064,40.4250,13.6500,8.4750,
1.948645,-1.2538,1.2418,-0.0051,-0.6611,0.2892,0.0064,40.4250,13.6500,8.4750,
1.966773,-1.2538,1.2418,-0.0051,-0.6611,0.2892,0.0064,40.4250,13.6500,8.4750,
1.968847,-1.4297,1.6095,-0.8703,-0.6611,0.2892,0.0064,40.4250,13.6500,8.4750,
1.980408,-1.4297,1.6095,-0.8703,-0.3941,0.1712,0.0478,40.4250,13.6500,8.4750,
1.992008,-1.4297,1.6095,-0.8703,-0.3941,0.1712,0.0478,40.4250,13.6500,8.4750,
1.994555,-0.9015,1.8622,-2.0706,-0.3941,0.1712,0.0478,40.4250,13.6500,8.4750,
2.005565,-0.9015,1.8622,-2.0706,-0.3941,0.1712,0.0478,40.4250,13.6500,8.4750,
2.008504,-0.1414,1.3727,-1.7351,-0.3941,0.1712,0.0478,40.4250,13.6500,8.4750,
2.010562,-0.1414,1.3727,-1.7351,-0.3941,0.1712,0.0478,40.4250,13.2000,9.6750,
2.024735,-0.1414,1.3727,-1.7351,-0.3941,0.1712,0.0478,40.4250,13.2000,9.6750,
2.026506,-0.1436,0.5945,-0.8791,-0.3941,0.1712,0.0478,40.4250,13.2000,9.6750,
2.040695,-0.1436,0.5945,-0.8791,-0.3941,0.1712,0.0478,40.4250,13.2000,9.6750,
2.043203,-0.6803,0.7730,-0.7565,-0.3941,0.1712,0.0478,40.4250,13.2000,9.6750,
2.049419,-0.6803,0.7730,-0.7565,-0.0808,-0.0011,0.0377,40.4250,13.2000,9.6750,
2.059835,-0.6803,0.7730,-0.7565,-0.0808,-0.0011,0.0377,40.4250,13.2000,9.6750,
2.062003,-0.1664,1.1771,-0.4126,-0.0808,-0.0011,0.0377,40.4250,13.2000,9.6750,
2.078950,-0.1664,1.1771,-0.4126,-0.0808,-0.0011,0.0377,40.4250,13.2000,9.6750,
2.080864,0.5923,1.6315,-0.0256,-0.0808,-0.0011,0.0377,40.4250,13.2000,9.6750,
2.082641,0.5923,1.6315,-0.0256,-0.0808,-0.0011,0.0377,40.8000,12.3000,10.6500,
2.099289,0.5923,1.6315,-0.0256,-0.0808,-0.0011,0.0377,40.8000,12.3000,10.6500,
2.100650,-0.1740,2.1883,-0.1221,-0.0808,-0.0011,0.0377,40.8000,12.3000,10.6500,
2.118373,-0.1740,2.1883,-0.1221,0.4804,0.0163,-0.1193,40.8000,12.3000,10.6500,
2.124187,-0.1740,2.1883,-0.1221,0.4804,0.0163,-0.1193,40.8000,12.3000,10.6500,
2.125688,-1.5396,2.8698,0.7347,0.4804,0.0163,-0.1193,40.8000,12.3000,10.6500,
2.143350,-1.5396,2.8698,0.7347,0.4804,0.0163,-0.1193,40.8000,12.3000,10.6500,
2.144710,-2.4284,3.5611,1.4328,0.4804,0.0163,-0.1193,40.8000,12.3000,10.6500,
2.151599,-2.4284,3.5611,1.4328,0.4804,0.0163,-0.1193,40.9500,12.0750,11.1750,
2.162774,-2.4284,3.5611,1.4328,0.4804,0.0163,-0.1193,40.9500,12.0750,11.1750,
2.166144,-2.4495,4.7408,0.8006,0.4804,0.0163,-0.1193,40.9500,12.0750,11.1750,
2.180356,-2.4495,4.7408,0.8006,0.4804,0.0163,-0.1193,40.9500,12.0750,11.1750,
2.183495,-2.3699,5.9791,-0.7047,0.4804,0.0163,-0.1193,40.9500,12.0750,11.1750,
2.192290,-2.3699,5.9791,-0.7047,1.0374,-0.4419,-0.1503,40.9500,12.0750,11.1750,
2.208980,-2.3699,5.9791,-0.7047,1.0374,-0.4419,-0.1503,40.9500,12.0750,11.1750,
2.211199,-1.2011,5.8245,-2.1111,1.0374,-0.4419,-0.1503,40.9500,12.0750,11.1750,
2.226572,-1.2011,5.8245,-2.1111,1.0374,-0.4419,-0.1503,40.9500,12.0750,11.1750,
2.228442,-0.8040,4.3358,-1.4251,1.0374,-0.4419,-0.1503,40.9500,12.0750,11.1750,
2.229859,-0.8040,4.3358,-1.4251,1.0374,-0.4419,-0.1503,40.3500,12.9000,10.2750,
2.244564,-0.8040,4.3358,-1.4251,1.0374,-0.4419,-0.1503,40.3500,12.9000,10.2750,
2.246381,-0.9584,2.3327,-2.4907,1.0374,-0.4419,-0.1503,40.3500,12.9000,10.2750,
2.259224,-0.9584,2.3327,-2.4907,1.2533,-0.2654,-0.1991,40.3500,12.9000,10.2750,
2.264706,-0.9584,2.3327,-2.4907,1.2533,-0.2654,-0.1991,40.3500,12.9000,10.2750,
2.266260,-0.9659,0.6071,-4.3597,1.2533,-0.2654,-0.1991,40.3500,12.9000,10.2750,
2.279543,-0.9659,0.6071,-4.3597,1.2533,-0.2654,-0.1991,40.3500,12.9000,10.2750,
2.282466,-0.2416,-1.0502,-4.5659,1.2533,-0.2654,-0.1991,40.3500,12.9000,10.2750,
2.284477,-0.2416,-1.0502,-4.5659,1.2533,-0.2654,-0.1991,40.7250,13.4250,8.2500,
2.304051,-0.2416,-1.0502,-4.5659,1.2533,-0.2654,-0.1991,40.7250,13.4250,8.2500,
2.306584,0.0415,1.5752,-4.4632,1.2533,-0.2654,-0.1991,40.7250,13.4250,8.2500,
2.324636,0.0415,1.5752,-4.4632,1.2533,-0.2654,-0.1991,40.7250,13.4250,8.2500,
2.326677,-0.4276,7.7647,-6.3405,1.2533,-0.2654,-0.1991,40.7250,13.4250,8.2500,
2.328588,-0.4276,7.7647,-6.3405,1.9428,0.1959,0.1990,40.7250,13.4250,8.2500,
2.343417,-0.4276,7.7647,-6.3405,1.9428,0.1959,0.1990,40.7250,13.4250,8.2500,
2.345450,0.7468,9.4531,-6.4390,1.9428,0.1959,0.1990,40.7250,13.4250,8.2500,
2.358145,0.7468,9.4531,-6.4390,1.9428,0.1959,0.1990,40.9500,14.4000,7.6500,
2.362981,0.7468,9.4531,-6.4390,1.9428,0.1959,0.1990,40.9500,14.4000,7.6500,
2.364267,0.6586,6.2402,-2.8092,1.9428,0.1959,0.1990,40.9500,14.4000,7.6500,
2.379046,0.6586,6.2402,-2.8092,1.9428,0.1959,0.1990,40.9500,14.4000,7.6500,
2.381122,-1.4433,-0.1381,-0.6689,1.9428,0.1959,0.1990,40.9500,14.4000,7.6500,
2.396616,-1.4433,-0.1381,-0.6689,3.9096,0.0414,-0.1190,40.9500,14.4000,7.6500,
2.400947,-1.4433,-0.1381,-0.6689,3.9096,0.0414,-0.1190,40.9500,14.4000,7.6500,
2.402325,-1.0687,-23.8878,-3.3006,3.9096,0.0414,-0.1190,40.9500,14.4000,7.6500,
2.420724,-1.0687,-23.8878,-3.3006,3.9096,0.0414,-0.1190,40.9500,14.4000,7.6500,
2.423581,7.9100,-63.5930,-19.7576,3.9096,0.0414,-0.1190,40.9500,14.4000,7.6500,
2.426077,7.9100,-63.5930,-19.7576,3.9096,0.0414,-0.1190,40.9500,7.6500,12.7500,
2.445571,7.9100,-63.5930,-19.7576,3.9096,0.0414,-0.1190,40.9500,7.6500,12.7500,
2.447613,4.6375,-15.3034,32.1061,3.9096,0.0414,-0.1190,40.9500,7.6500,12.7500,
2.465036,4.6375,-15.3034,32.1061,3.9096,0.0414,-0.1190,40.9500,7.6500,12.7500,
2.468084,-5.1367,-4.3897,34.7161,3.9096,0.0414,-0.1190,40.9500,7.6500,12.7500,
2.470631,-5.1367,-4.3897,34.7161,5.3416,0.2818,-0.1744,40.9500,7.6500,12.7500,
2.484464,-5.1367,-4.3897,34.7161,5.3416,0.2818,-0.1744,40.9500,7.6500,12.7500,
2.486847,-8.1548,13.5882,-13.5942,5.3416,0.2818,-0.1744,40.9500,7.6500,12.7500,
2.494974,-8.1548,13.5882,-13.5942,5.3416,0.2818,-0.1744,67.9500,-82.6500,-31.3500,
2.504650,-8.1548,13.5882,-13.5942,5.3416,0.2818,-0.1744,67.9500,-82.6500,-31.3500,
2.506911,-4.2308,17.5883,-15.5070,5.3416,0.2818,-0.1744,67.9500,-82.6500,-31.3500,
2.524019,-4.2308,17.5883,-15.5070,5.3416,0.2818,-0.1744,67.9500,-82.6500,-31.3500,
2.526601,4.0569,4.2526,-0.6402,5.3416,0.2818,-0.1744,67.9500,-82.6500,-31.3500,
2.542041,4.0569,4.2526,-0.6402,4.2381,-0.7165,-0.0632,67.9500,-82.6500,-31.3500,
2.545014,4.0569,4.2526,-0.6402,4.2381,-0.7165,-0.0632,67.9500,-82.6500,-31.3500,
2.546964,2.5408,-0.3556,1.1670,4.2381,-0.7165,-0.0632,67.9500,-82.6500,-31.3500,
2.563723,2.5408,-0.3556,1.1670,4.2381,-0.7165,-0.0632,43.9500,-3.6000,8.1750,
2.566147,2.5408,-0.3556,1.1670,4.2381,-0.7165,-0.0632,43.9500,-3.6000,8.1750,
2.567855,-1.1087,6.3414,-2.5352,4.2381,-0.7165,-0.0632,43.9500,-3.6000,8.1750,
2.578669,-1.1087,6.3414,-2.5352,4.2381,-0.7165,-0.0632,43.9500,-3.6000,8.1750,
2.581159,1.9819,7.1376,-0.2148,4.2381,-0.7165,-0.0632,43.9500,-3.6000,8.1750,
2.598398,1.9819,7.1376,-0.2148,4.2381,-0.7165,-0.0632,43.9500,-3.6000,8.1750,
2.601245,1.2960,3.9182,1.5880,4.2381,-0.7165,-0.0632,43.9500,-3.6000,8.1750,
2.609751,1.2960,3.9182,1.5880,2.9363,0.3099,-0.4508,43.9500,-3.6000,8.1750,
2.621729,1.2960,3.9182,1.5880,2.9363,0.3099,-0.4508,43.9500,-3.6000,8.1750,
2.624022,1.9568,-1.4180,2.3537,2.9363,0.3099,-0.4508,43.9500,-3.6000,8.1750,
2.631914,1.9568,-1.4180,2.3537,2.9363,0.3099,-0.4508,41.1000,0.0750,8.1000,
2.641539,1.9568,-1.4180,2.3537,2.9363,0.3099,-0.4508,41.1000,0.0750,8.1000,
2.643452,0.8516,-2.5079,5.6426,2.9363,0.3099,-0.4508,41.1000,0.0750,8.1000,
2.660977,0.8516,-2.5079,5.6426,2.9363,0.3099,-0.4508,41.1000,0.0750,8.1000,
2.663695,0.0130,0.8829,3.9330,2.9363,0.3099,-0.4508,41.1000,0.0750,8.1000,
2.675298,0.0130,0.8829,3.9330,3.8787,1.4103,-0.1162,41.1000,0.0750,8.1000,
2.678716,0.0130,0.8829,3.9330,3.8787,1.4103,-0.1162,41.1000,0.0750,8.1000,
2.680183,-0.4353,3.9972,2.4008,3.8787,1.4103,-0.1162,41.1000,0.0750,8.1000,
2.705850,-0.4353,3.9972,2.4008,3.8787,1.4103,-0.1162,41.1000,0.0750,8.1000,
2.708356,0.3385,4.0127,1.4214,3.8787,1.4103,-0.1162,41.1000,0.0750,8.1000,
2.710998,0.3385,4.0127,1.4214,3.8787,1.4103,-0.1162,41.3250,3.0750,0.7500,
2.726929,0.3385,4.0127,1.4214,3.8787,1.4103,-0.1162,41.3250,3.0750,0.7500,
2.729268,0.7957,3.2064,2.6531,3.8787,1.4103,-0.1162,41.3250,3.0750,0.7500,
2.743489,0.7957,3.2064,2.6531,3.8787,1.4103,-0.1162,41.3250,3.0750,0.7500,
2.744876,0.1550,2.3944,3.5882,3.8787,1.4103,-0.1162,41.3250,3.0750,0.7500,
2.748040,0.1550,2.3944,3.5882,2.9131,1.1707,-0.1721,41.3250,3.0750,0.7500,
2.763674,0.1550,2.3944,3.5882,2.9131,1.1707,-0.1721,41.3250,3.0750,0.7500,
2.765561,-0.1481,2.9046,2.3103,2.9131,1.1707,-0.1721,41.3250,3.0750,0.7500,
2.773658,-0.1481,2.9046,2.3103,2.9131,1.1707,-0.1721,40.6500,9.3000,-5.0250,
2.779193,-0.1481,2.9046,2.3103,2.9131,1.1707,-0.1721,40.6500,9.3000,-5.0250,
2.780580,-1.7095,5.6617,1.2738,2.9131,1.1707,-0.1721,40.6500,9.3000,-5.0250,
2.804494,-1.7095,5.6617,1.2738,2.9131,1.1707,-0.1721,40.6500,9.3000,-5.0250,
2.806907,-2.6653,5.5084,3.2081,2.9131,1.1707,-0.1721,40.6500,9.3000,-5.0250,
2.817374,-2.6653,5.5084,3.2081,0.8938,0.4879,-0.1770,40.6500,9.3000,-5.0250,
2.827417,-2.6653,5.5084,3.2081,0.8938,0.4879,-0.1770,40.6500,9.3000,-5.0250,
2.829668,-3.0781,3.4529,2.4396,0.8938,0.4879,-0.1770,40.6500,9.3000,-5.0250,
2.842551,-3.0781,3.4529,2.4396,0.8938,0.4879,-0.1770,40.6500,9.3000,-5.0250,
2.845052,-1.7530,3.2399,-2.3653,0.8938,0.4879,-0.1770,40.6500,9.3000,-5.0250,
2.847212,-1.7530,3.2399,-2.3653,0.8938,0.4879,-0.1770,40.2000,11.3250,-6.0000,
2.861893,-1.7530,3.2399,-2.3653,0.8938,0.4879,-0.1770,40.2000,11.3250,-6.0000,
2.864515,-0.7739,4.2434,-1.1029,0.8938,0.4879,-0.1770,40.2000,11.3250,-6.0000,
2.879378,-0.7739,4.2434,-1.1029,0.8938,0.4879,-0.1770,40.2000,11.3250,-6.0000,
2.881792,-0.7036,3.3246,0.0156,0.8938,0.4879,-0.1770,40.2000,11.3250,-6.0000,
2.887296,-0.7036,3.3246,0.0156,0.3425,0.0020,0.4222,40.2000,11.3250,-6.0000,
2.900692,-0.7036,3.3246,0.0156,0.3425,0.0020,0.4222,40.2000,11.3250,-6.0000,
2.903151,-1.8024,1.3545,1.9301,0.3425,0.0020,0.4222,40.2000,11.3250,-6.0000,
2.910902,-1.8024,1.3545,1.9301,0.3425,0.0020,0.4222,40.6500,11.2500,-6.8250,
2.922037,-1.8024,1.3545,1.9301,0.3425,0.0020,0.4222,40.6500,11.2500,-6.8250,
2.925090,-2.6300,-1.1157,0.7757,0.3425,0.0020,0.4222,40.6500,11.2500,-6.8250,
2.940516,-2.6300,-1.1157,0.7757,0.3425,0.0020,0.4222,40.6500,11.2500,-6.8250,
2.944938,-2.8846,-0.7942,-1.1427,0.3425,0.0020,0.4222,40.6500,11.2500,-6.8250,
2.959002,-2.8846,-0.7942,-1.1427,0.4899,0.0606,0.2474,40.6500,11.2500,-6.8250,
2.961968,-2.8846,-0.7942,-1.1427,0.4899,0.0606,0.2474,40.6500,11.2500,-6.8250,
2.963802,-1.7116,1.8292,-0.6741,0.4899,0.0606,0.2474,40.6500,11.2500,-6.8250,
2.979024,-1.7116,1.8292,-0.6741,0.4899,0.0606,0.2474,40.6500,11.2500,-6.8250,
2.981605,-0.3945,3.4618,-0.3705,0.4899,0.0606,0.2474,40.6500,11.2500,-6.8250,
2.984224,-0.3945,3.4618,-0.3705,0.4899,0.0606,0.2474,40.6500,10.2000,-7.3500,
2.998755,-0.3945,3.4618,-0.3705,0.4899,0.0606,0.2474,40.6500,10.2000,-7.3500,
3.001210,-0.6198,2.5590,0.5913,0.4899,0.0606,0.2474,40.6500,10.2000,-7.3500,
3.018046,-0.6198,2.5590,0.5913,0.4899,0.0606,0.2474,40.6500,10.2000,-7.3500,
3.020399,1.9508,1.7662,0.3378,0.4899,0.0606,0.2474,40.6500,10.2000,-7.3500,
3.028687,1.9508,1.7662,0.3378,0.0495,-0.0084,0.0713,40.6500,10.2000,-7.3500,
3.041444,1.9508,1.7662,0.3378,0.0495,-0.0084,0.0713,40.6500,10.2000,-7.3500,
3.043495,-0.9378,2.0583,1.2481,0.0495,-0.0084,0.0713,40.6500,10.2000,-7.3500,
3.050622,-0.9378,2.0583,1.2481,0.0495,-0.0084,0.0713,40.9500,9.6750,-6.9000,
3.059514,-0.9378,2.0583,1.2481,0.0495,-0.0084,0.0713,40.9500,9.6750,-6.9000,
3.061205,-0.4608,1.7895,-1.2246,0.0495,-0.0084,0.0713,40.9500,9.6750,-6.9000,
3.077506,-0.4608,1.7895,-1.2246,0.0495,-0.0084,0.0713,40.9500,9.6750,-6.9000,
3.080625,-0.2247,0.3124,-1.0846,0.0495,-0.0084,0.0713,40.9500,9.6750,-6.9000,
3.097064,-0.2247,0.3124,-1.0846,-0.2648,0.0956,-0.1652,40.9500,9.6750,-6.9000,
3.101780,-0.2247,0.3124,-1.0846,-0.2648,0.0956,-0.1652,40.9500,9.6750,-6.9000,
3.103491,-0.4983,-0.5835,1.6613,-0.2648,0.0956,-0.1652,40.9500,9.6750,-6.9000,
3.122054,-0.4983,-0.5835,1.6613,-0.2648,0.0956,-0.1652,40.9500,9.6750,-6.9000,
3.123947,0.1639,-0.6216,0.9547,-0.2648,0.0956,-0.1652,40.9500,9.6750,-6.9000,
3.125436,0.1639,-0.6216,0.9547,-0.2648,0.0956,-0.1652,41.1000,9.8250,-7.3500,
3.144721,0.1639,-0.6216,0.9547,-0.2648,0.0956,-0.1652,41.1000,9.8250,-7.3500,
3.147343,-0.2934,-0.9548,-0.2956,-0.2648,0.0956,-0.1652,41.1000,9.8250,-7.3500,
3.159849,-0.2934,-0.9548,-0.2956,-0.2648,0.0956,-0.1652,41.1000,9.8250,-7.3500,
3.163226,-0.2585,-0.8369,-0.1202,-0.2648,0.0956,-0.1652,41.1000,9.8250,-7.3500,
3.166055,-0.2585,-0.8369,-0.1202,-0.2098,0.0373,-0.1579,41.1000,9.8250,-7.3500,
3.179778,-0.2585,-0.8369,-0.1202,-0.2098,0.0373,-0.1579,41.1000,9.8250,-7.3500,
3.183196,-0.1051,-0.4769,-0.0982,-0.2098,0.0373,-0.1579,41.1000,9.8250,-7.3500,
3.190500,-0.1051,-0.4769,-0.0982,-0.2098,0.0373,-0.1579,41.2500,10.1250,-6.6000,
3.199483,-0.1051,-0.4769,-0.0982,-0.2098,0.0373,-0.1579,41.2500,10.1250,-6.6000,
3.201699,-0.4986,0.0753,0.4840,-0.2098,0.0373,-0.1579,41.2500,10.1250,-6.6000,
3.218147,-0.4986,0.0753,0.4840,-0.2098,0.0373,-0.1579,41.2500,10.1250,-6.6000,
3.220248,-0.7003,-0.0373,0.2006,-0.2098,0.0373,-0.1579,41.2500,10.1250,-6.6000,
3.232713,-0.7003,-0.0373,0.2006,-0.2443,-0.0119,-0.1965,41.2500,10.1250,-6.6000,
3.238454,-0.7003,-0.0373,0.2006,-0.2443,-0.0119,-0.1965,41.2500,10.1250,-6.6000,
3.240224,-0.2106,-0.6920,-0.5479,-0.2443,-0.0119,-0.1965,41.2500,10.1250,-6.6000,
3.261323,-0.2106,-0.6920,-0.5479,-0.2443,-0.0119,-0.1965,41.2500,10.1250,-6.6000,
3.263047,-0.0190,-0.7114,-0.4305,-0.2443,-0.0119,-0.1965,41.2500,10.1250,-6.6000,
3.264407,-0.0190,-0.7114,-0.4305,-0.2443,-0.0119,-0.1965,40.6500,11.1000,-6.1500,
3.277712,-0.0190,-0.7114,-0.4305,-0.2443,-0.0119,-0.1965,40.6500,11.1000,-6.1500,
3.279595,-0.0638,-0.5715,0.1254,-0.2443,-0.0119,-0.1965,40.6500,11.1000,-6.1500,
3.297216,-0.0638,-0.5715,0.1254,-0.2443,-0.0119,-0.1965,40.6500,11.1000,-6.1500,
3.301303,-0.0923,-0.2239,0.5860,-0.2443,-0.0119,-0.1965,40.6500,11.1000,-6.1500,
3.303638,-0.0923,-0.2239,0.5860,-0.1553,-0.0301,-0.0880,40.6500,11.1000,-6.1500,
3.316589,-0.0923,-0.2239,0.5860,-0.1553,-0.0301,-0.0880,40.6500,11.1000,-6.1500,
3.319362,-0.1629,-0.4411,0.2184,-0.1553,-0.0301,-0.0880,40.6500,11.1000,-6.1500,
3.331131,-0.1629,-0.4411,0.2184,-0.1553,-0.0301,-0.0880,40.6500,11.3250,-6.0000,
3.334084,-0.1629,-0.4411,0.2184,-0.1553,-0.0301,-0.0880,40.6500,11.3250,-6.0000,
3.335777,-0.0720,-0.8919,0.1930,-0.1553,-0.0301,-0.0880,40.6500,11.3250,-6.0000,
3.360743,-0.0720,-0.8919,0.1930,-0.1553,-0.0301,-0.0880,40.6500,11.3250,-6.0000,
3.364008,0.3443,-0.3832,-0.3910,-0.1553,-0.0301,-0.0880,40.6500,11.3250,-6.0000,
3.375255,0.3443,-0.3832,-0.3910,-0.0892,-0.0057,-0.0330,40.6500,11.3250,-6.0000,
3.379328,0.3443,-0.3832,-0.3910,-0.0892,-0.0057,-0.0330,40.6500,11.3250,-6.0000,
3.380962,-0.0617,0.5517,0.0249,-0.0892,-0.0057,-0.0330,40.6500,11.3250,-6.0000,
3.398908,-0.0617,0.5517,0.0249,-0.0892,-0.0057,-0.0330,40.6500,11.3250,-6.0000,
3.401050,-0.2365,0.4291,0.5311,-0.0892,-0.0057,-0.0330,40.6500,11.3250,-6.0000,
3.402714,-0.2365,0.4291,0.5311,-0.0892,-0.0057,-0.0330,40.9500,12.0000,-6.3000,
3.418119,-0.2365,0.4291,0.5311,-0.0892,-0.0057,-0.0330,40.9500,12.0000,-6.3000,
3.420437,-0.3626,-0.3472,0.5762,-0.0892,-0.0057,-0.0330,40.9500,12.0000,-6.3000,
3.441596,-0.3626,-0.3472,0.5762,-0.0892,-0.0057,-0.0330,40.9500,12.0000,-6.3000,
3.445987,-0.5397,-0.5928,-0.1845,-0.0892,-0.0057,-0.0330,40.9500,12.0000,-6.3000,
3.450332,-0.5397,-0.5928,-0.1845,-0.0973,0.0095,0.0394,40.9500,12.0000,-6.3000,
3.459306,-0.5397,-0.5928,-0.1845,-0.0973,0.0095,0.0394,40.9500,12.0000,-6.3000,
3.462395,-0.4873,0.0894,-0.0100,-0.0973,0.0095,0.0394,40.9500,12.0000,-6.3000,
3.472995,-0.4873,0.0894,-0.0100,-0.0973,0.0095,0.0394,40.6500,11.4750,-6.1500,
3.477066,-0.4873,0.0894,-0.0100,-0.0973,0.0095,0.0394,40.6500,11.4750,-6.1500,
3.479024,-0.1953,0.9646,0.3829,-0.0973,0.0095,0.0394,40.6500,11.4750,-6.1500,
3.496809,-0.1953,0.9646,0.3829,-0.0973,0.0095,0.0394,40.6500,11.4750,-6.1500,
3.499448,-0.1241,0.9854,0.4518,-0.0973,0.0095,0.0394,40.6500,11.4750,-6.1500,
3.511703,-0.1241,0.9854,0.4518,-0.2291,0.0217,0.0050,40.6500,11.4750,-6.1500,
3.516677,-0.1241,0.9854,0.4518,-0.2291,0.0217,0.0050,40.6500,11.4750,-6.1500,
3.518099,-0.2350,0.5707,0.3730,-0.2291,0.0217,0.0050,40.6500,11.4750,-6.1500,
3.537112,-0.2350,0.5707,0.3730,-0.2291,0.0217,0.0050,40.6500,11.4750,-6.1500,
3.540199,-0.4006,0.8207,0.2457,-0.2291,0.0217,0.0050,40.6500,11.4750,-6.1500,
3.541726,-0.4006,0.8207,0.2457,-0.2291,0.0217,0.0050,40.0500,11.6250,-6.6000,
3.555795,-0.4006,0.8207,0.2457,-0.2291,0.0217,0.0050,40.0500,11.6250,-6.6000,
3.558259,-0.2828,1.5189,0.1483,-0.2291,0.0217,0.0050,40.0500,11.6250,-6.6000,
3.575816,-0.2828,1.5189,0.1483,-0.2291,0.0217,0.0050,40.0500,11.6250,-6.6000,
3.579541,-0.3292,2.0655,0.2703,-0.2291,0.0217,0.0050,40.0500,11.6250,-6.6000,
3.582911,-0.3292,2.0655,0.2703,-0.4467,0.0180,-0.0090,40.0500,11.6250,-6.6000,
3.595181,-0.3292,2.0655,0.2703,-0.4467,0.0180,-0.0090,40.0500,11.6250,-6.6000,
3.598496,-0.6586,1.7010,0.6664,-0.4467,0.0180,-0.0090,40.0500,11.6250,-6.6000,
3.610699,-0.6586,1.7010,0.6664,-0.4467,0.0180,-0.0090,40.0500,11.6250,-6.6000,
3.612839,-0.6662,1.0823,1.2371,-0.4467,0.0180,-0.0090,40.0500,11.6250,-6.6000,
3.614793,-0.6662,1.0823,1.2371,-0.4467,0.0180,-0.0090,40.2000,11.4750,-5.9250,
3.629029,-0.6662,1.0823,1.2371,-0.4467,0.0180,-0.0090,40.2000,11.4750,-5.9250,
3.631530,-0.6532,0.8666,1.1177,-0.4467,0.0180,-0.0090,40.2000,11.4750,-5.9250,
3.649061,-0.6532,0.8666,1.1177,-0.7382,-0.0102,-0.0296,40.2000,11.4750,-5.9250,
3.653883,-0.6532,0.8666,1.1177,-0.7382,-0.0102,-0.0296,40.2000,11.4750,-5.9250,
3.655856,-0.3684,0.9168,1.0189,-0.7382,-0.0102,-0.0296,40.2000,11.4750,-5.9250,
3.672812,-0.3684,0.9168,1.0189,-0.7382,-0.0102,-0.0296,40.2000,11.4750,-5.9250,
3.675053,-0.3848,0.9164,1.0217,-0.7382,-0.0102,-0.0296,40.2000,11.4750,-5.9250,
3.680450,-0.3848,0.9164,1.0217,-0.7382,-0.0102,-0.0296,40.0500,11.4750,-4.6500,
3.697439,-0.3848,0.9164,1.0217,-0.7382,-0.0102,-0.0296,40.0500,11.4750,-4.6500,
3.700567,-0.6618,0.8173,1.1080,-0.7382,-0.0102,-0.0296,40.0500,11.4750,-4.6500,
3.717205,-0.6618,0.8173,1.1080,-0.7382,-0.0102,-0.0296,40.0500,11.4750,-4.6500,
3.720785,-0.6340,0.7805,0.8522,-0.7382,-0.0102,-0.0296,40.0500,11.4750,-4.6500,
3.724668,-0.6340,0.7805,0.8522,-1.0047,-0.0765,-0.1092,40.0500,11.4750,-4.6500,
3.739112,-0.6340,0.7805,0.8522,-1.0047,-0.0765,-0.1092,40.0500,11.4750,-4.6500,
3.743353,-0.2869,0.7312,0.4326,-1.0047,-0.0765,-0.1092,40.0500,11.4750,-4.6500,
3.750639,-0.2869,0.7312,0.4326,-1.0047,-0.0765,-0.1092,40.4250,11.6250,-4.5000,
3.757263,-0.2869,0.7312,0.4326,-1.0047,-0.0765,-0.1092,40.4250,11.6250,-4.5000,
3.761521,-0.3231,0.4327,0.1051,-1.0047,-0.0765,-0.1092,40.4250,11.6250,-4.5000,
3.775562,-0.3231,0.4327,0.1051,-1.0047,-0.0765,-0.1092,40.4250,11.6250,-4.5000,
3.778117,-0.5408,0.0257,0.8788,-1.0047,-0.0765,-0.1092,40.4250,11.6250,-4.5000,
3.791113,-0.5408,0.0257,0.8788,-1.2953,-0.1293,-0.1587,40.4250,11.6250,-4.5000,
3.795470,-0.5408,0.0257,0.8788,-1.2953,-0.1293,-0.1587,40.4250,11.6250,-4.5000,
3.797055,-0.3831,-0.5194,1.3107,-1.2953,-0.1293,-0.1587,40.4250,11.6250,-4.5000,
3.814680,-0.3831,-0.5194,1.3107,-1.2953,-0.1293,-0.1587,40.4250,11.6250,-4.5000,
3.816771,-0.3206,-0.5752,0.7066,-1.2953,-0.1293,-0.1587,40.4250,11.6250,-4.5000,
3.819974,-0.3206,-0.5752,0.7066,-1.2953,-0.1293,-0.1587,41.0250,12.3000,-3.2250,
3.834105,-0.3206,-0.5752,0.7066,-1.2953,-0.1293,-0.1587,41.0250,12.3000,-3.2250,
3.836278,-0.5158,0.5646,0.3091,-1.2953,-0.1293,-0.1587,41.0250,12.3000,-3.2250,
3.854003,-0.5158,0.5646,0.3091,-1.2953,-0.1293,-0.1587,41.0250,12.3000,-3.2250,
3.857499,-0.8146,1.2684,0.2891,-1.2953,-0.1293,-0.1587,41.0250,12.3000,-3.2250,
3.860618,-0.8146,1.2684,0.2891,-1.4653,-0.2112,-0.1655,41.0250,12.3000,-3.2250,
3.873703,-0.8146,1.2684,0.2891,-1.4653,-0.2112,-0.1655,41.0250,12.3000,-3.2250,
3.876650,-0.4655,0.5684,-0.1595,-1.4653,-0.2112,-0.1655,41.0250,12.3000,-3.2250,
3.894042,-0.4655,0.5684,-0.1595,-1.4653,-0.2112,-0.1655,40.3500,12.5250,-2.8500,
3.898136,-0.4655,0.5684,-0.1595,-1.4653,-0.2112,-0.1655,40.3500,12.5250,-2.8500,
3.900724,-0.1911,-0.2735,0.8142,-1.4653,-0.2112,-0.1655,40.3500,12.5250,-2.8500,
3.912746,-0.1911,-0.2735,0.8142,-1.4653,-0.2112,-0.1655,40.3500,12.5250,-2.8500,
3.915793,-0.0522,0.1337,0.3608,-1.4653,-0.2112,-0.1655,40.3500,12.5250,-2.8500,
3.927462,-0.0522,0.1337,0.3608,-1.7027,-0.3065,-0.0534,40.3500,12.5250,-2.8500,
3.930576,-0.0522,0.1337,0.3608,-1.7027,-0.3065,-0.0534,40.3500,12.5250,-2.8500,
3.932445,-1.7052,0.0581,-0.1283,-1.7027,-0.3065,-0.0534,40.3500,12.5250,-2.8500,
3.951459,-1.7052,0.0581,-0.1283,-1.7027,-0.3065,-0.0534,40.3500,12.5250,-2.8500,
3.953671,0.5887,1.0107,-0.2598,-1.7027,-0.3065,-0.0534,40.3500,12.5250,-2.8500,
3.960244,0.5887,1.0107,-0.2598,-1.7027,-0.3065,-0.0534,40.5000,12.5250,-1.6500,
3.976323,0.5887,1.0107,-0.2598,-1.7027,-0.3065,-0.0534,40.5000,12.5250,-1.6500,
3.978928,0.5815,0.3836,0.3144,-1.7027,-0.3065,-0.0534,40.5000,12.5250,-1.6500,
3.996669,0.5815,0.3836,0.3144,-1.7027,-0.3065,-0.0534,40.5000,12.5250,-1.6500,
3.999238,-0.2049,-1.2888,-0.0245,-1.7027,-0.3065,-0.0534,40.5000,12.5250,-1.6500,
4.001714,-0.2049,-1.2888,-0.0245,-1.7131,-0.1903,0.1112,40.5000,12.5250,-1.6500,
4.015701,-0.2049,-1.2888,-0.0245,-1.7131,-0.1903,0.1112,40.5000,12.5250,-1.6500,
4.018117,-0.0158,-0.2081,-0.8378,-1.7131,-0.1903,0.1112,40.5000,12.5250,-1.6500,
4.030425,-0.0158,-0.2081,-0.8378,-1.7131,-0.1903,0.1112,40.5000,12.5250,-1.6500,
4.032749,-2.0438,0.3893,-0.7521,-1.7131,-0.1903,0.1112,40.5000,12.5250,-1.6500,
4.034809,-2.0438,0.3893,-0.7521,-1.7131,-0.1903,0.1112,41.2500,12.4500,-0.9000,
4.057683,-2.0438,0.3893,-0.7521,-1.7131,-0.1903,0.1112,41.2500,12.4500,-0.9000,
4.061515,2.2497,-0.6152,-1.1693,-1.7131,-0.1903,0.1112,41.2500,12.4500,-0.9000,
4.078461,2.2497,-0.6152,-1.1693,-1.7673,-0.1188,0.2158,41.2500,12.4500,-0.9000,
4.082644,2.2497,-0.6152,-1.1693,-1.7673,-0.1188,0.2158,41.2500,12.4500,-0.9000,
4.085556,0.1895,-0.5190,0.5575,-1.7673,-0.1188,0.2158,41.2500,12.4500,-0.9000,
4.096668,0.1895,-0.5190,0.5575,-1.7673,-0.1188,0.2158,41.2500,12.4500,-0.9000,
4.098789,-0.7954,-1.1224,1.6712,-1.7673,-0.1188,0.2158,41.2500,12.4500,-0.9000,
4.100643,-0.7954,-1.1224,1.6712,-1.7673,-0.1188,0.2158,41.4000,11.6250,-0.5250,
4.114097,-0.7954,-1.1224,1.6712,-1.7673,-0.1188,0.2158,41.4000,11.6250,-0.5250,
4.115293,-0.5798,0.0497,-0.2128,-1.7673,-0.1188,0.2158,41.4000,11.6250,-0.5250,
4.128901,-0.5798,0.0497,-0.2128,-1.7673,-0.1188,0.2158,41.4000,11.6250,-0.5250,
4.132136,0.0169,0.9515,-1.0289,-1.7673,-0.1188,0.2158,41.4000,11.6250,-0.5250,
4.141229,0.0169,0.9515,-1.0289,-1.5761,-0.0583,-0.0018,41.4000,11.6250,-0.5250,
4.152228,0.0169,0.9515,-1.0289,-1.5761,-0.0583,-0.0018,41.4000,11.6250,-0.5250,
4.154170,-0.0085,0.1301,-0.2867,-1.5761,-0.0583,-0.0018,41.4000,11.6250,-0.5250,
4.162900,-0.0085,0.1301,-0.2867,-1.5761,-0.0583,-0.0018,41.5500,9.7500,1.0500,
4.172323,-0.0085,0.1301,-0.2867,-1.5761,-0.0583,-0.0018,41.5500,9.7500,1.0500,
4.175144,-0.1409,-0.7710,1.1415,-1.5761,-0.0583,-0.0018,41.5500,9.7500,1.0500,
4.192697,-0.1409,-0.7710,1.1415,-1.5761,-0.0583,-0.0018,41.5500,9.7500,1.0500,
4.194955,-0.1418,-0.5490,0.5879,-1.5761,-0.0583,-0.0018,41.5500,9.7500,1.0500,
4.206300,-0.1418,-0.5490,0.5879,-1.5574,-0.0525,0.1151,41.5500,9.7500,1.0500,
4.207659,-0.1418,-0.5490,0.5879,-1.5574,-0.0525,0.1151,41.5500,9.7500,1.0500,
4.208631,-0.4519,0.9746,-0.9420,-1.5574,-0.0525,0.1151,41.5500,9.7500,1.0500,
4.225725,-0.4519,0.9746,-0.9420,-1.5574,-0.0525,0.1151,41.5500,9.7500,1.0500,
4.227370,-0.6440,1.3546,-1.5032,-1.5574,-0.0525,0.1151,41.5500,9.7500,1.0500,
4.238373,-0.6440,1.3546,-1.5032,-1.5574,-0.0525,0.1151,41.7000,9.9000,2.7000,
4.256989,-0.6440,1.3546,-1.5032,-1.5574,-0.0525,0.1151,41.7000,9.9000,2.7000,
4.259000,-0.4348,0.6448,-0.3580,-1.5574,-0.0525,0.1151,41.7000,9.9000,2.7000,
4.276655,-0.4348,0.6448,-0.3580,-1.5574,-0.0525,0.1151,41.7000,9.9000,2.7000,
4.278657,0.0277,0.4847,-0.2558,-1.5574,-0.0525,0.1151,41.7000,9.9000,2.7000,
4.281208,0.0277,0.4847,-0.2558,-1.4233,-0.2074,-0.0596,41.7000,9.9000,2.7000,
4.293567,0.0277,0.4847,-0.2558,-1.4233,-0.2074,-0.0596,41.7000,9.9000,2.7000,
4.296306,0.0109,0.3172,-0.8861,-1.4233,-0.2074,-0.0596,41.7000,9.9000,2.7000,
4.305037,0.0109,0.3172,-0.8861,-1.4233,-0.2074,-0.0596,41.8500,9.9000,3.1500,
4.308972,0.0109,0.3172,-0.8861,-1.4233,-0.2074,-0.0596,41.8500,9.9000,3.1500,
4.310484,-0.0929,-0.2185,-0.8110,-1.4233,-0.2074,-0.0596,41.8500,9.9000,3.1500,
4.328857,-0.0929,-0.2185,-0.8110,-1.4233,-0.2074,-0.0596,41.8500,9.9000,3.1500,
4.331141,-0.1780,-0.2999,-0.4746,-1.4233,-0.2074,-0.0596,41.8500,9.9000,3.1500,
4.347742,-0.1780,-0.2999,-0.4746,-1.1983,-0.2547,0.0687,41.8500,9.9000,3.1500,
4.353813,-0.1780,-0.2999,-0.4746,-1.1983,-0.2547,0.0687,41.8500,9.9000,3.1500,
4.356249,-0.3433,0.0650,-0.7138,-1.1983,-0.2547,0.0687,41.8500,9.9000,3.1500,
4.374001,-0.3433,0.0650,-0.7138,-1.1983,-0.2547,0.0687,41.8500,9.9000,3.1500,
4.376114,-0.6150,0.4382,-1.1482,-1.1983,-0.2547,0.0687,41.8500,9.9000,3.1500,
4.377924,-0.6150,0.4382,-1.1482,-1.1983,-0.2547,0.0687,41.6250,9.0000,3.3000,
4.395403,-0.6150,0.4382,-1.1482,-1.1983,-0.2547,0.0687,41.6250,9.0000,3.3000,
4.396871,-0.5433,0.3396,-1.1756,-1.1983,-0.2547,0.0687,41.6250,9.0000,3.3000,
4.412402,-0.5433,0.3396,-1.1756,-1.1983,-0.2547,0.0687,41.6250,9.0000,3.3000,
4.414249,-0.3729,-0.0846,-0.6113,-1.1983,-0.2547,0.0687,41.6250,9.0000,3.3000,
4.416556,-0.3729,-0.0846,-0.6113,-1.0772,-0.3021,-0.0455,41.6250,9.0000,3.3000,
4.429098,-0.3729,-0.0846,-0.6113,-1.0772,-0.3021,-0.0455,41.6250,9.0000,3.3000,
4.430403,-0.3410,-0.7006,-0.3102,-1.0772,-0.3021,-0.0455,41.6250,9.0000,3.3000,
4.441594,-0.3410,-0.7006,-0.3102,-1.0772,-0.3021,-0.0455,42.5250,8.6250,4.0500,
4.451154,-0.3410,-0.7006,-0.3102,-1.0772,-0.3021,-0.0455,42.5250,8.6250,4.0500,
4.452049,0.0470,-0.9718,-0.2855,-1.0772,-0.3021,-0.0455,42.5250,8.6250,4.0500,
4.472620,0.0470,-0.9718,-0.2855,-1.0772,-0.3021,-0.0455,42.5250,8.6250,4.0500,
4.476903,0.2015,-0.6680,-1.0426,-1.0772,-0.3021,-0.0455,42.5250,8.6250,4.0500,
4.486523,0.2015,-0.6680,-1.0426,-1.0303,-0.3045,-0.0593,42.5250,8.6250,4.0500,
4.491717,0.2015,-0.6680,-1.0426,-1.0303,-0.3045,-0.0593,42.5250,8.6250,4.0500,
4.493546,0.0306,0.2089,-2.0923,-1.0303,-0.3045,-0.0593,42.5250,8.6250,4.0500,
4.509761,0.0306,0.2089,-2.0923,-1.0303,-0.3045,-0.0593,42.5250,8.6250,4.0500,
4.511336,-0.2917,0.7740,-1.7891,-1.0303,-0.3045,-0.0593,42.5250,8.6250,4.0500,
4.512602,-0.2917,0.7740,-1.7891,-1.0303,-0.3045,-0.0593,42.6000,8.5500,3.1500,
4.529885,-0.2917,0.7740,-1.7891,-1.0303,-0.3045,-0.0593,42.6000,8.5500,3.1500,
4.531235,-0.3177,0.7863,-1.0190,-1.0303,-0.3045,-0.0593,42.6000,8.5500,3.1500,
4.549268,-0.3177,0.7863,-1.0190,-1.0303,-0.3045,-0.0593,42.6000,8.5500,3.1500,
4.551184,-0.1203,0.4720,-0.3184,-1.0303,-0.3045,-0.0593,42.6000,8.5500,3.1500,
4.556939,-0.1203,0.4720,-0.3184,-1.4156,-0.1726,-0.0060,42.6000,8.5500,3.1500,
4.567950,-0.1203,0.4720,-0.3184,-1.4156,-0.1726,-0.0060,42.6000,8.5500,3.1500,
4.569955,0.1191,-0.0032,0.1000,-1.4156,-0.1726,-0.0060,42.6000,8.5500,3.1500,
4.580513,0.1191,-0.0032,0.1000,-1.4156,-0.1726,-0.0060,42.5250,8.3250,3.7500,
4.588194,0.1191,-0.0032,0.1000,-1.4156,-0.1726,-0.0060,42.5250,8.3250,3.7500,
4.590597,0.3263,-0.5452,-0.0132,-1.4156,-0.1726,-0.0060,42.5250,8.3250,3.7500,
4.608754,0.3263,-0.5452,-0.0132,-1.4156,-0.1726,-0.0060,42.5250,8.3250,3.7500,
4.611292,0.2638,-0.7454,-0.6176,-1.4156,-0.1726,-0.0060,42.5250,8.3250,3.7500,
4.622988,0.2638,-0.7454,-0.6176,-0.9795,0.0389,-0.0363,42.5250,8.3250,3.7500,
4.626602,0.2638,-0.7454,-0.6176,-0.9795,0.0389,-0.0363,42.5250,8.3250,3.7500,
4.628291,0.0279,-0.4129,-0.8794,-0.9795,0.0389,-0.0363,42.5250,8.3250,3.7500,
4.650870,0.0279,-0.4129,-0.8794,-0.9795,0.0389,-0.0363,42.5250,8.3250,3.7500,
4.653782,-0.1790,0.0893,-0.7644,-0.9795,0.0389,-0.0363,42.5250,8.3250,3.7500,
4.656090,-0.1790,0.0893,-0.7644,-0.9795,0.0389,-0.0363,41.4000,8.6250,4.9500,
4.678437,-0.1790,0.0893,-0.7644,-0.9795,0.0389,-0.0363,41.4000,8.6250,4.9500,
4.681363,-0.2002,0.5212,-0.1187,-0.9795,0.0389,-0.0363,41.4000,8.6250,4.9500,
4.691725,-0.2002,0.5212,-0.1187,-0.9795,0.0389,-0.0363,41.4000,8.6250,4.9500,
4.693802,-0.5694,0.4068,-0.8146,-0.9795,0.0389,-0.0363,41.4000,8.6250,4.9500,
4.696016,-0.5694,0.4068,-0.8146,-0.6125,0.1243,-0.0292,41.4000,8.6250,4.9500,
4.711520,-0.5694,0.4068,-0.8146,-0.6125,0.1243,-0.0292,41.4000,8.6250,4.9500,
4.714292,-0.5185,0.1935,-0.3695,-0.6125,0.1243,-0.0292,41.4000,8.6250,4.9500,
4.721300,-0.5185,0.1935,-0.3695,-0.6125,0.1243,-0.0292,41.8500,7.8750,6.0750,
4.729013,-0.5185,0.1935,-0.3695,-0.6125,0.1243,-0.0292,41.8500,7.8750,6.0750,
4.731056,-0.6873,-0.0066,-0.8239,-0.6125,0.1243,-0.0292,41.8500,7.8750,6.0750,
4.748833,-0.6873,-0.0066,-0.8239,-0.6125,0.1243,-0.0292,41.8500,7.8750,6.0750,
4.751613,-0.8059,0.0809,-1.2489,-0.6125,0.1243,-0.0292,41.8500,7.8750,6.0750,
4.763632,-0.8059,0.0809,-1.2489,-0.4977,0.0951,-0.0811,41.8500,7.8750,6.0750,
4.768186,-0.8059,0.0809,-1.2489,-0.4977,0.0951,-0.0811,41.8500,7.8750,6.0750,
4.769663,-0.5546,0.0277,-1.1628,-0.4977,0.0951,-0.0811,41.8500,7.8750,6.0750,
4.787732,-0.5546,0.0277,-1.1628,-0.4977,0.0951,-0.0811,41.8500,7.8750,6.0750,
4.789785,-0.5774,0.3409,0.7403,-0.4977,0.0951,-0.0811,41.8500,7.8750,6.0750,
4.791585,-0.5774,0.3409,0.7403,-0.4977,0.0951,-0.0811,41.1000,7.5000,6.7500,
4.811344,-0.5774,0.3409,0.7403,-0.4977,0.0951,-0.0811,41.1000,7.5000,6.7500,
4.817030,0.2561,-0.7277,-0.9219,-0.4977,0.0951,-0.0811,41.1000,7.5000,6.7500,
4.829195,0.2561,-0.7277,-0.9219,-0.4977,0.0951,-0.0811,41.1000,7.5000,6.7500,
4.831318,0.3259,-0.5379,-1.4284,-0.4977,0.0951,-0.0811,41.1000,7.5000,6.7500,
4.833238,0.3259,-0.5379,-1.4284,-0.1680,0.0541,-0.0023,41.1000,7.5000,6.7500,
4.847108,0.3259,-0.5379,-1.4284,-0.1680,0.0541,-0.0023,41.1000,7.5000,6.7500,
4.849903,-0.0214,-0.6666,-1.4465,-0.1680,0.0541,-0.0023,41.1000,7.5000,6.7500,
4.860482,-0.0214,-0.6666,-1.4465,-0.1680,0.0541,-0.0023,40.7250,7.2750,7.6500,
4.866620,-0.0214,-0.6666,-1.4465,-0.1680,0.0541,-0.0023,40.7250,7.2750,7.6500,
4.868459,-0.5737,-0.2299,-0.7876,-0.1680,0.0541,-0.0023,40.7250,7.2750,7.6500,
4.887293,-0.5737,-0.2299,-0.7876,-0.1680,0.0541,-0.0023,40.7250,7.2750,7.6500,
4.891401,-0.8560,-0.4102,-1.3658,-0.1680,0.0541,-0.0023,40.7250,7.2750,7.6500,
4.908095,-0.8560,-0.4102,-1.3658,-0.0342,-0.0463,0.0560,40.7250,7.2750,7.6500,
4.911899,-0.8560,-0.4102,-1.3658,-0.0342,-0.0463,0.0560,40.7250,7.2750,7.6500,
4.914060,-0.7961,-0.6502,-0.3397,-0.0342,-0.0463,0.0560,40.7250,7.2750,7.6500,
4.929118,-0.7961,-0.6502,-0.3397,-0.0342,-0.0463,0.0560,40.7250,7.2750,7.6500,
4.931784,0.0948,-0.5796,0.6271,-0.0342,-0.0463,0.0560,40.7250,7.2750,7.6500,
4.933197,0.0948,-0.5796,0.6271,-0.0342,-0.0463,0.0560,40.3500,7.5000,7.9500,
4.949719,0.0948,-0.5796,0.6271,-0.0342,-0.0463,0.0560,40.3500,7.5000,7.9500,
4.951816,1.1505,0.1624,-0.4467,-0.0342,-0.0463,0.0560,40.3500,7.5000,7.9500,
4.969264,1.1505,0.1624,-0.4467,-0.0342,-0.0463,0.0560,40.3500,7.5000,7.9500,
4.971802,1.6320,1.1062,-1.8627,-0.0342,-0.0463,0.0560,40.3500,7.5000,7.9500,
4.973748,1.6320,1.1062,-1.8627,0.3555,0.0157,0.2254,40.3500,7.5000,7.9500,
4.984455,1.6320,1.1062,-1.8627,0.3555,0.0157,0.2254,40.3500,7.5000,7.9500,
4.987125,1.1819,1.5455,-1.5319,0.3555,0.0157,0.2254,40.3500,7.5000,7.9500,
5.000885,1.1819,1.5455,-1.5319,0.3555,0.0157,0.2254,41.2500,7.1250,7.0500,
5.003510,1.1819,1.5455,-1.5319,0.3555,0.0157,0.2254,41.2500,7.1250,7.0500,
5.005397,0.2675,0.9153,-0.5212,0.3555,0.0157,0.2254,41.2500,7.1250,7.0500,
5.028416,0.2675,0.9153,-0.5212,0.3555,0.0157,0.2254,41.2500,7.1250,7.0500,
5.031450,-0.1689,0.1147,-0.6041,0.3555,0.0157,0.2254,41.2500,7.1250,7.0500,
5.042392,-0.1689,0.1147,-0.6041,0.2527,0.2199,0.1799,41.2500,7.1250,7.0500,
5.044517,-0.1689,0.1147,-0.6041,0.2527,0.2199,0.1799,41.2500,7.1250,7.0500,
5.046163,-0.1202,-0.1115,-0.7721,0.2527,0.2199,0.1799,41.2500,7.1250,7.0500,
5.062302,-0.1202,-0.1115,-0.7721,0.2527,0.2199,0.1799,41.2500,7.1250,7.0500,
5.064044,-0.1253,-0.1080,-0.5437,0.2527,0.2199,0.1799,41.2500,7.1250,7.0500,
5.072968,-0.1253,-0.1080,-0.5437,0.2527,0.2199,0.1799,41.5500,7.5750,7.8750,
5.088199,-0.1253,-0.1080,-0.5437,0.2527,0.2199,0.1799,41.5500,7.5750,7.8750,
5.091682,-0.0919,-0.3405,-0.0379,0.2527,0.2199,0.1799,41.5500,7.5750,7.8750,
5.107181,-0.0919,-0.3405,-0.0379,0.2527,0.2199,0.1799,41.5500,7.5750,7.8750,
5.109983,0.1686,-0.3625,-0.2789,0.2527,0.2199,0.1799,41.5500,7.5750,7.8750,
5.111930,0.1686,-0.3625,-0.2789,0.2158,0.1495,0.2036,41.5500,7.5750,7.8750,
5.125271,0.1686,-0.3625,-0.2789,0.2158,0.1495,0.2036,41.5500,7.5750,7.8750,
5.127324,0.2830,-0.1813,-0.1142,0.2158,0.1495,0.2036,41.5500,7.5750,7.8750,
5.140708,0.2830,-0.1813,-0.1142,0.2158,0.1495,0.2036,41.5500,7.5750,7.8750,
5.142549,0.2371,-0.0356,0.1917,0.2158,0.1495,0.2036,41.5500,7.5750,7.8750,
5.144330,0.2371,-0.0356,0.1917,0.2158,0.1495,0.2036,41.5500,6.8250,8.4000,
5.166288,0.2371,-0.0356,0.1917,0.2158,0.1495,0.2036,41.5500,6.8250,8.4000,
5.167835,0.2729,0.1047,0.3860,0.2158,0.1495,0.2036,41.5500,6.8250,8.4000,
5.185236,0.2729,0.1047,0.3860,0.1260,0.1213,0.0863,41.5500,6.8250,8.4000,
5.191339,0.2729,0.1047,0.3860,0.1260,0.1213,0.0863,41.5500,6.8250,8.4000,
5.193566,0.4958,0.3088,0.4154,0.1260,0.1213,0.0863,41.5500,6.8250,8.4000,
5.209106,0.4958,0.3088,0.4154,0.1260,0.1213,0.0863,41.5500,6.8250,8.4000,
5.212226,0.2018,0.5075,0.7141,0.1260,0.1213,0.0863,41.5500,6.8250,8.4000,
5.214454,0.2018,0.5075,0.7141,0.1260,0.1213,0.0863,42.2250,6.4500,8.7000,
5.228247,0.2018,0.5075,0.7141,0.1260,0.1213,0.0863,42.2250,6.4500,8.7000,
5.230726,-0.0399,0.4366,0.5766,0.1260,0.1213,0.0863,42.2250,6.4500,8.7000,
5.248247,-0.0399,0.4366,0.5766,0.1260,0.1213,0.0863,42.2250,6.4500,8.7000,
5.251038,-0.5921,0.4950,0.5520,0.1260,0.1213,0.0863,42.2250,6.4500,8.7000,
5.253845,-0.5921,0.4950,0.5520,-0.0087,0.1132,-0.0855,42.2250,6.4500,8.7000,
5.267938,-0.5921,0.4950,0.5520,-0.0087,0.1132,-0.0855,42.2250,6.4500,8.7000,
5.271024,-0.7980,0.4686,0.6892,-0.0087,0.1132,-0.0855,42.2250,6.4500,8.7000,
5.281238,-0.7980,0.4686,0.6892,-0.0087,0.1132,-0.0855,41.5500,7.1250,9.3750,
5.287970,-0.7980,0.4686,0.6892,-0.0087,0.1132,-0.0855,41.5500,7.1250,9.3750,
5.289972,-1.0199,0.3648,0.7571,-0.0087,0.1132,-0.0855,41.5500,7.1250,9.3750,
5.307217,-1.0199,0.3648,0.7571,-0.0087,0.1132,-0.0855,41.5500,7.1250,9.3750,
5.308799,-0.8656,0.4493,0.5100,-0.0087,0.1132,-0.0855,41.5500,7.1250,9.3750,
5.324212,-0.8656,0.4493,0.5100,-0.2043,-0.1428,-0.2440,41.5500,7.1250,9.3750,
5.326741,-0.8656,0.4493,0.5100,-0.2043,-0.1428,-0.2440,41.5500,7.1250,9.3750,
5.328442,-0.5663,0.4885,0.0578,-0.2043,-0.1428,-0.2440,41.5500,7.1250,9.3750,
5.345381,-0.5663,0.4885,0.0578,-0.2043,-0.1428,-0.2440,41.5500,7.1250,9.3750,
5.347777,-1.0986,0.6760,1.1589,-0.2043,-0.1428,-0.2440,41.5500,7.1250,9.3750,
5.350627,-1.0986,0.6760,1.1589,-0.2043,-0.1428,-0.2440,41.0250,8.0250,9.4500,
5.364731,-1.0986,0.6760,1.1589,-0.2043,-0.1428,-0.2440,41.0250,8.0250,9.4500,
5.367857,-1.5816,0.4822,1.3358,-0.2043,-0.1428,-0.2440,41.0250,8.0250,9.4500,
5.384458,-1.5816,0.4822,1.3358,-0.2043,-0.1428,-0.2440,41.0250,8.0250,9.4500,
5.386483,-1.1594,-0.3932,0.6291,-0.2043,-0.1428,-0.2440,41.0250,8.0250,9.4500,
5.393770,-1.1594,-0.3932,0.6291,-0.4255,-0.3167,-0.3934,41.0250,8.0250,9.4500,
5.405840,-1.1594,-0.3932,0.6291,-0.4255,-0.3167,-0.3934,41.0250,8.0250,9.4500,
5.408215,-1.0165,-0.5189,0.5866,-0.4255,-0.3167,-0.3934,41.0250,8.0250,9.4500,
5.420634,-1.0165,-0.5189,0.5866,-0.4255,-0.3167,-0.3934,40.2000,9.1500,9.9000,
5.423416,-1.0165,-0.5189,0.5866,-0.4255,-0.3167,-0.3934,40.2000,9.1500,9.9000,
5.424936,-0.7459,-0.3716,0.6215,-0.4255,-0.3167,-0.3934,40.2000,9.1500,9.9000,
5.443438,-0.7459,-0.3716,0.6215,-0.4255,-0.3167,-0.3934,40.2000,9.1500,9.9000,
5.445955,-1.7865,0.3424,1.4587,-0.4255,-0.3167,-0.3934,40.2000,9.1500,9.9000,
5.457764,-1.7865,0.3424,1.4587,-0.5669,-0.4558,-0.4632,40.2000,9.1500,9.9000,
5.463065,-1.7865,0.3424,1.4587,-0.5669,-0.4558,-0.4632,40.2000,9.1500,9.9000,
5.464742,-0.8075,0.1007,0.4013,-0.5669,-0.4558,-0.4632,40.2000,9.1500,9.9000,
5.487467,-0.8075,0.1007,0.4013,-0.5669,-0.4558,-0.4632,40.2000,9.1500,9.9000,
5.492091,-0.9770,0.2297,0.6133,-0.5669,-0.4558,-0.4632,40.2000,9.1500,9.9000,
5.495404,-0.9770,0.2297,0.6133,-0.5669,-0.4558,-0.4632,40.2000,10.4250,8.8500,
5.508351,-0.9770,0.2297,0.6133,-0.5669,-0.4558,-0.4632,40.2000,10.4250,8.8500,
5.512567,-1.1014,0.4045,1.7710,-0.5669,-0.4558,-0.4632,40.2000,10.4250,8.8500,
5.526754,-1.1014,0.4045,1.7710,-0.5669,-0.4558,-0.4632,40.2000,10.4250,8.8500,
5.528672,-2.0612,0.5178,2.0749,-0.5669,-0.4558,-0.4632,40.2000,10.4250,8.8500,
5.530978,-2.0612,0.5178,2.0749,-0.6889,-0.5571,-0.4274,40.2000,10.4250,8.8500,
5.545799,-2.0612,0.5178,2.0749,-0.6889,-0.5571,-0.4274,40.2000,10.4250,8.8500,
5.547955,-1.1596,0.1889,0.8367,-0.6889,-0.5571,-0.4274,40.2000,10.4250,8.8500,
5.560893,-1.1596,0.1889,0.8367,-0.6889,-0.5571,-0.4274,40.0500,11.8500,8.2500,
5.563456,-1.1596,0.1889,0.8367,-0.6889,-0.5571,-0.4274,40.0500,11.8500,8.2500,
5.565114,-1.4301,0.2206,0.6221,-0.6889,-0.5571,-0.4274,40.0500,11.8500,8.2500,
5.586345,-1.4301,0.2206,0.6221,-0.6889,-0.5571,-0.4274,40.0500,11.8500,8.2500,
5.590801,-1.5856,0.0222,0.9477,-0.6889,-0.5571,-0.4274,40.0500,11.8500,8.2500,
5.601380,-1.5856,0.0222,0.9477,-0.7561,-0.6142,-0.2463,40.0500,11.8500,8.2500,
5.604964,-1.5856,0.0222,0.9477,-0.7561,-0.6142,-0.2463,40.0500,11.8500,8.2500,
5.607087,-1.4419,-0.8741,1.5900,-0.7561,-0.6142,-0.2463,40.0500,11.8500,8.2500,
5.624268,-1.4419,-0.8741,1.5900,-0.7561,-0.6142,-0.2463,40.0500,11.8500,8.2500,
5.626602,-1.0147,-1.5127,1.6023,-0.7561,-0.6142,-0.2463,40.0500,11.8500,8.2500,
5.630359,-1.0147,-1.5127,1.6023,-0.7561,-0.6142,-0.2463,40.3500,13.6500,7.0500,
5.643910,-1.0147,-1.5127,1.6023,-0.7561,-0.6142,-0.2463,40.3500,13.6500,7.0500,
5.646004,-0.3383,-1.6922,0.2994,-0.7561,-0.6142,-0.2463,40.3500,13.6500,7.0500,
5.663874,-0.3383,-1.6922,0.2994,-0.7561,-0.6142,-0.2463,40.3500,13.6500,7.0500,
5.665927,-0.1985,-0.8549,-0.3344,-0.7561,-0.6142,-0.2463,40.3500,13.6500,7.0500,
5.668035,-0.1985,-0.8549,-0.3344,-0.7729,-0.7420,0.2425,40.3500,13.6500,7.0500,
5.678581,-0.1985,-0.8549,-0.3344,-0.7729,-0.7420,0.2425,40.3500,13.6500,7.0500,
5.681045,1.3482,-0.1133,-0.0292,-0.7729,-0.7420,0.2425,40.3500,13.6500,7.0500,
5.700809,1.3482,-0.1133,-0.0292,-0.7729,-0.7420,0.2425,40.6500,13.6500,5.5500,
5.704002,1.3482,-0.1133,-0.0292,-0.7729,-0.7420,0.2425,40.6500,13.6500,5.5500,
5.705659,0.3486,-0.8599,0.7588,-0.7729,-0.7420,0.2425,40.6500,13.6500,5.5500,
5.717129,0.3486,-0.8599,0.7588,-0.7729,-0.7420,0.2425,40.6500,13.6500,5.5500,
5.719434,-0.0551,-2.0784,-0.0504,-0.7729,-0.7420,0.2425,40.6500,13.6500,5.5500,
5.736818,-0.0551,-2.0784,-0.0504,-0.6916,-0.7917,0.4004,40.6500,13.6500,5.5500,
5.740518,-0.0551,-2.0784,-0.0504,-0.6916,-0.7917,0.4004,40.6500,13.6500,5.5500,
5.742121,1.6860,-0.5895,-0.6881,-0.6916,-0.7917,0.4004,40.6500,13.6500,5.5500,
5.766554,1.6860,-0.5895,-0.6881,-0.6916,-0.7917,0.4004,40.6500,13.6500,5.5500,
5.769388,1.9136,0.1700,-0.3082,-0.6916,-0.7917,0.4004,40.6500,13.6500,5.5500,
5.781897,1.9136,0.1700,-0.3082,-0.6916,-0.7917,0.4004,41.2500,12.5250,3.4500,
5.784824,1.9136,0.1700,-0.3082,-0.6916,-0.7917,0.4004,41.2500,12.5250,3.4500,
5.787047,-0.2239,-0.4736,-0.7782,-0.6916,-0.7917,0.4004,41.2500,12.5250,3.4500,
5.800676,-0.2239,-0.4736,-0.7782,-0.6916,-0.7917,0.4004,41.2500,12.5250,3.4500,
5.804853,-0.4503,-0.8505,-1.5209,-0.6916,-0.7917,0.4004,41.2500,12.5250,3.4500,
5.811169,-0.4503,-0.8505,-1.5209,-0.4209,-1.0137,0.1727,41.2500,12.5250,3.4500,
5.825093,-0.4503,-0.8505,-1.5209,-0.4209,-1.0137,0.1727,41.2500,12.5250,3.4500,
5.827532,0.3168,-0.7529,-1.0586,-0.4209,-1.0137,0.1727,41.2500,12.5250,3.4500,
5.835340,0.3168,-0.7529,-1.0586,-0.4209,-1.0137,0.1727,41.7000,12.0000,1.3500,
5.844638,0.3168,-0.7529,-1.0586,-0.4209,-1.0137,0.1727,41.7000,12.0000,1.3500,
5.845696,1.8461,0.2195,-0.9713,-0.4209,-1.0137,0.1727,41.7000,12.0000,1.3500,
5.866006,1.8461,0.2195,-0.9713,-0.4209,-1.0137,0.1727,41.7000,12.0000,1.3500,
5.867770,1.7073,0.5557,-1.9932,-0.4209,-1.0137,0.1727,41.7000,12.0000,1.3500,
5.879994,1.7073,0.5557,-1.9932,-0.2233,-1.4243,-0.2850,41.7000,12.0000,1.3500,
5.882004,1.7073,0.5557,-1.9932,-0.2233,-1.4243,-0.2850,41.7000,12.0000,1.3500,
5.883484,1.0828,0.2218,-1.1271,-0.2233,-1.4243,-0.2850,41.7000,12.0000,1.3500,
5.903802,1.0828,0.2218,-1.1271,-0.2233,-1.4243,-0.2850,41.7000,12.0000,1.3500,
5.905607,0.3418,0.5093,-0.5205,-0.2233,-1.4243,-0.2850,41.7000,12.0000,1.3500,
5.907298,0.3418,0.5093,-0.5205,-0.2233,-1.4243,-0.2850,41.6250,11.9250,-2.0250,
5.928646,0.3418,0.5093,-0.5205,-0.2233,-1.4243,-0.2850,41.6250,11.9250,-2.0250,
5.931370,0.4817,-0.3360,0.0143,-0.2233,-1.4243,-0.2850,41.6250,11.9250,-2.0250,
5.942635,0.4817,-0.3360,0.0143,-0.2233,-1.4243,-0.2850,41.6250,11.9250,-2.0250,
5.944397,0.9230,-0.4622,0.1450,-0.2233,-1.4243,-0.2850,41.6250,11.9250,-2.0250,
5.946864,0.9230,-0.4622,0.1450,0.1394,-1.0757,-0.6383,41.6250,11.9250,-2.0250,
5.957126,0.9230,-0.4622,0.1450,0.1394,-1.0757,-0.6383,41.6250,11.9250,-2.0250,
5.958794,1.4092,-0.3050,-0.4223,0.1394,-1.0757,-0.6383,41.6250,11.9250,-2.0250,
5.974396,1.4092,-0.3050,-0.4223,0.1394,-1.0757,-0.6383,40.9500,13.2750,-5.7000,
5.978724,1.4092,-0.3050,-0.4223,0.1394,-1.0757,-0.6383,40.9500,13.2750,-5.7000,
5.980019,1.8816,-0.8393,-0.2104,0.1394,-1.0757,-0.6383,40.9500,13.2750,-5.7000,
6.000949,1.8816,-0.8393,-0.2104,0.1394,-1.0757,-0.6383,40.9500,13.2750,-5.7000,
6.003579,1.6135,-0.7245,-0.1438,0.1394,-1.0757,-0.6383,40.9500,13.2750,-5.7000,
6.021722,1.6135,-0.7245,-0.1438,0.4331,-0.7886,-0.7286,40.9500,13.2750,-5.7000,
6.027056,1.6135,-0.7245,-0.1438,0.4331,-0.7886,-0.7286,40.9500,13.2750,-5.7000,
6.028903,1.3596,0.1841,0.4315,0.4331,-0.7886,-0.7286,40.9500,13.2750,-5.7000,
6.045117,1.3596,0.1841,0.4315,0.4331,-0.7886,-0.7286,40.9500,13.2750,-5.7000,
6.047358,1.8131,-0.0856,1.5710,0.4331,-0.7886,-0.7286,40.9500,13.2750,-5.7000,
6.049286,1.8131,-0.0856,1.5710,0.4331,-0.7886,-0.7286,38.6250,14.7750,-8.5500,
6.064512,1.8131,-0.0856,1.5710,0.4331,-0.7886,-0.7286,38.6250,14.7750,-8.5500,
6.066512,2.6215,0.1761,1.0914,0.4331,-0.7886,-0.7286,38.6250,14.7750,-8.5500,
6.080103,2.6215,0.1761,1.0914,0.4331,-0.7886,-0.7286,38.6250,14.7750,-8.5500,
6.082048,1.8156,1.0752,1.2357,0.4331,-0.7886,-0.7286,38.6250,14.7750,-8.5500,
6.088643,1.8156,1.0752,1.2357,0.2356,-0.2537,-0.7442,38.6250,14.7750,-8.5500,
6.108012,1.8156,1.0752,1.2357,0.2356,-0.2537,-0.7442,38.6250,14.7750,-8.5500,
6.109841,-0.1799,1.0016,1.6620,0.2356,-0.2537,-0.7442,38.6250,14.7750,-8.5500,
6.113795,-0.1799,1.0016,1.6620,0.2356,-0.2537,-0.7442,36.7500,16.6500,-9.4500,
6.125444,-0.1799,1.0016,1.6620,0.2356,-0.2537,-0.7442,36.7500,16.6500,-9.4500,
6.126698,-0.5521,-0.0505,0.8098,0.2356,-0.2537,-0.7442,36.7500,16.6500,-9.4500,
6.143576,-0.5521,-0.0505,0.8098,0.2356,-0.2537,-0.7442,36.7500,16.6500,-9.4500,
6.145452,1.0727,-0.1404,0.7895,0.2356,-0.2537,-0.7442,36.7500,16.6500,-9.4500,
6.158774,1.0727,-0.1404,0.7895,-0.1735,0.0725,-0.7736,36.7500,16.6500,-9.4500,
6.163260,1.0727,-0.1404,0.7895,-0.1735,0.0725,-0.7736,36.7500,16.6500,-9.4500,
6.164671,2.1683,-0.3456,0.0471,-0.1735,0.0725,-0.7736,36.7500,16.6500,-9.4500,
6.179827,2.1683,-0.3456,0.0471,-0.1735,0.0725,-0.7736,36.7500,16.6500,-9.4500,
6.181741,1.5343,1.2427,0.0778,-0.1735,0.0725,-0.7736,36.7500,16.6500,-9.4500,
6.183226,1.5343,1.2427,0.0778,-0.1735,0.0725,-0.7736,36.1500,20.1750,-10.5000,
6.201802,1.5343,1.2427,0.0778,-0.1735,0.0725,-0.7736,36.1500,20.1750,-10.5000,
6.206860,0.4835,1.4435,-0.4337,-0.1735,0.0725,-0.7736,36.1500,20.1750,-10.5000,
6.221015,0.4835,1.4435,-0.4337,-0.1735,0.0725,-0.7736,36.1500,20.1750,-10.5000,
6.224131,-0.9771,0.5407,1.1172,-0.1735,0.0725,-0.7736,36.1500,20.1750,-10.5000,
6.226475,-0.9771,0.5407,1.1172,-0.8645,0.4583,-0.8140,36.1500,20.1750,-10.5000,
6.243502,-0.9771,0.5407,1.1172,-0.8645,0.4583,-0.8140,36.1500,20.1750,-10.5000,
6.245610,-1.5151,-1.3973,1.2382,-0.8645,0.4583,-0.8140,36.1500,20.1750,-10.5000,
6.250954,-1.5151,-1.3973,1.2382,-0.8645,0.4583,-0.8140,34.8000,24.0000,-9.1500,
6.259861,-1.5151,-1.3973,1.2382,-0.8645,0.4583,-0.8140,34.8000,24.0000,-9.1500,
6.261567,-0.8603,-1.9420,0.8969,-0.8645,0.4583,-0.8140,34.8000,24.0000,-9.1500,
6.274988,-0.8603,-1.9420,0.8969,-0.8645,0.4583,-0.8140,34.8000,24.0000,-9.1500,
6.276963,0.7952,-0.3954,-3.3428,-0.8645,0.4583,-0.8140,34.8000,24.0000,-9.1500,
6.299386,0.7952,-0.3954,-3.3428,-1.1904,0.3187,-0.5950,34.8000,24.0000,-9.1500,
6.301950,0.7952,-0.3954,-3.3428,-1.1904,0.3187,-0.5950,34.8000,24.0000,-9.1500,
6.304468,0.9171,1.6139,-2.8681,-1.1904,0.3187,-0.5950,34.8000,24.0000,-9.1500,
6.324802,0.9171,1.6139,-2.8681,-1.1904,0.3187,-0.5950,34.8000,24.0000,-9.1500,
6.328092,0.9190,0.1050,-1.9425,-1.1904,0.3187,-0.5950,34.8000,24.0000,-9.1500,
6.330628,0.9190,0.1050,-1.9425,-1.1904,0.3187,-0.5950,34.0500,27.0000,-7.1250,
6.343681,0.9190,0.1050,-1.9425,-1.1904,0.3187,-0.5950,34.0500,27.0000,-7.1250,
6.346605,-0.3524,-1.5082,-1.5908,-1.1904,0.3187,-0.5950,34.0500,27.0000,-7.1250,
6.363571,-0.3524,-1.5082,-1.5908,-1.1904,0.3187,-0.5950,34.0500,27.0000,-7.1250,
6.365162,-0.4701,-2.0868,-1.4897,-1.1904,0.3187,-0.5950,34.0500,27.0000,-7.1250,
6.368277,-0.4701,-2.0868,-1.4897,-1.5922,0.4212,-0.1393,34.0500,27.0000,-7.1250,
6.379025,-0.4701,-2.0868,-1.4897,-1.5922,0.4212,-0.1393,34.0500,27.0000,-7.1250,
6.381033,-0.5302,-1.4352,-1.5868,-1.5922,0.4212,-0.1393,34.0500,27.0000,-7.1250,
6.393214,-0.5302,-1.4352,-1.5868,-1.5922,0.4212,-0.1393,33.7500,28.1250,-4.0500,
6.402148,-0.5302,-1.4352,-1.5868,-1.5922,0.4212,-0.1393,33.7500,28.1250,-4.0500,
6.403839,-0.7179,-1.0449,-1.6759,-1.5922,0.4212,-0.1393,33.7500,28.1250,-4.0500,
6.417345,-0.7179,-1.0449,-1.6759,-1.5922,0.4212,-0.1393,33.7500,28.1250,-4.0500,
6.419371,-1.2277,-0.9803,-2.2211,-1.5922,0.4212,-0.1393,33.7500,28.1250,-4.0500,
6.439667,-1.2277,-0.9803,-2.2211,-1.2846,0.3349,0.1539,33.7500,28.1250,-4.0500,
6.441192,-1.2277,-0.9803,-2.2211,-1.2846,0.3349,0.1539,33.7500,28.1250,-4.0500,
6.442159,-1.3873,-1.6580,-3.2102,-1.2846,0.3349,0.1539,33.7500,28.1250,-4.0500,
6.459511,-1.3873,-1.6580,-3.2102,-1.2846,0.3349,0.1539,33.7500,28.1250,-4.0500,
6.461080,-1.3966,-2.2427,-3.0291,-1.2846,0.3349,0.1539,33.7500,28.1250,-4.0500,
6.462600,-1.3966,-2.2427,-3.0291,-1.2846,0.3349,0.1539,33.6000,28.4250,-0.6000,
6.479014,-1.3966,-2.2427,-3.0291,-1.2846,0.3349,0.1539,33.6000,28.4250,-0.6000,
6.482562,-0.9849,-2.5049,-2.3653,-1.2846,0.3349,0.1539,33.6000,28.4250,-0.6000,
6.499465,-0.9849,-2.5049,-2.3653,-1.2846,0.3349,0.1539,33.6000,28.4250,-0.6000,
6.502304,-0.3375,-2.3181,-1.3529,-1.2846,0.3349,0.1539,33.6000,28.4250,-0.6000,
6.504153,-0.3375,-2.3181,-1.3529,-1.0019,0.0115,0.6121,33.6000,28.4250,-0.6000,
6.519418,-0.3375,-2.3181,-1.3529,-1.0019,0.0115,0.6121,33.6000,28.4250,-0.6000,
6.521792,0.0333,-1.8569,-0.7681,-1.0019,0.0115,0.6121,33.6000,28.4250,-0.6000,
6.530270,0.0333,-1.8569,-0.7681,-1.0019,0.0115,0.6121,33.6000,26.9250,2.7000,
6.541061,0.0333,-1.8569,-0.7681,-1.0019,0.0115,0.6121,33.6000,26.9250,2.7000,
6.543062,-0.1430,-1.3903,-1.5340,-1.0019,0.0115,0.6121,33.6000,26.9250,2.7000,
6.563584,-0.1430,-1.3903,-1.5340,-1.0019,0.0115,0.6121,33.6000,26.9250,2.7000,
6.567169,0.1488,-0.6229,-1.6818,-1.0019,0.0115,0.6121,33.6000,26.9250,2.7000,
6.578692,0.1488,-0.6229,-1.6818,-0.6403,-0.2081,0.6542,33.6000,26.9250,2.7000,
6.580365,0.1488,-0.6229,-1.6818,-0.6403,-0.2081,0.6542,33.6000,26.9250,2.7000,
6.581562,0.2094,-0.0624,-1.7369,-0.6403,-0.2081,0.6542,33.6000,26.9250,2.7000,
6.598339,0.2094,-0.0624,-1.7369,-0.6403,-0.2081,0.6542,33.6000,26.9250,2.7000,
6.599609,-0.0263,-0.2709,-1.3821,-0.6403,-0.2081,0.6542,33.6000,26.9250,2.7000,
6.606154,-0.0263,-0.2709,-1.3821,-0.6403,-0.2081,0.6542,34.6500,25.7250,2.8500,
6.618526,-0.0263,-0.2709,-1.3821,-0.6403,-0.2081,0.6542,34.6500,25.7250,2.8500,
6.619751,-0.3316,-0.7419,-1.2675,-0.6403,-0.2081,0.6542,34.6500,25.7250,2.8500,
6.641577,-0.3316,-0.7419,-1.2675,-0.6403,-0.2081,0.6542,34.6500,25.7250,2.8500,
6.643944,-0.5513,-1.0002,-1.1542,-0.6403,-0.2081,0.6542,34.6500,25.7250,2.8500,
6.647549,-0.5513,-1.0002,-1.1542,-0.3215,0.2314,0.7049,34.6500,25.7250,2.8500,
6.661533,-0.5513,-1.0002,-1.1542,-0.3215,0.2314,0.7049,34.6500,25.7250,2.8500,
6.663433,-0.7739,-1.2724,-1.1598,-0.3215,0.2314,0.7049,34.6500,25.7250,2.8500,
6.672542,-0.7739,-1.2724,-1.1598,-0.3215,0.2314,0.7049,36.7500,24.0750,2.7000,
6.679889,-0.7739,-1.2724,-1.1598,-0.3215,0.2314,0.7049,36.7500,24.0750,2.7000,
6.681434,-0.3945,-1.2279,-1.5097,-0.3215,0.2314,0.7049,36.7500,24.0750,2.7000,
6.699996,-0.3945,-1.2279,-1.5097,-0.3215,0.2314,0.7049,36.7500,24.0750,2.7000,
6.702708,-0.4889,-0.6489,-0.5522,-0.3215,0.2314,0.7049,36.7500,24.0750,2.7000,
6.715476,-0.4889,-0.6489,-0.5522,0.0710,0.2303,0.6310,36.7500,24.0750,2.7000,
6.725729,-0.4889,-0.6489,-0.5522,0.0710,0.2303,0.6310,36.7500,24.0750,2.7000,
6.728047,-0.0403,-0.2478,-0.9705,0.0710,0.2303,0.6310,36.7500,24.0750,2.7000,
6.740412,-0.0403,-0.2478,-0.9705,0.0710,0.2303,0.6310,36.7500,24.0750,2.7000,
6.743276,0.1991,-0.3088,-1.2703,0.0710,0.2303,0.6310,36.7500,24.0750,2.7000,
6.745079,0.1991,-0.3088,-1.2703,0.0710,0.2303,0.6310,37.0500,22.2750,3.0000,
6.759566,0.1991,-0.3088,-1.2703,0.0710,0.2303,0.6310,37.0500,22.2750,3.0000,
6.761746,0.2701,-0.7749,-0.5178,0.0710,0.2303,0.6310,37.0500,22.2750,3.0000,
6.778776,0.2701,-0.7749,-0.5178,0.0710,0.2303,0.6310,37.0500,22.2750,3.0000,
6.781153,0.0941,-1.1048,0.3928,0.0710,0.2303,0.6310,37.0500,22.2750,3.0000,
6.783392,0.0941,-1.1048,0.3928,0.3879,0.3071,0.6638,37.0500,22.2750,3.0000,
6.797829,0.0941,-1.1048,0.3928,0.3879,0.3071,0.6638,37.0500,22.2750,3.0000,
6.800000,0.2335,-1.3001,-0.5413,0.3879,0.3071,0.6638,37.0500,22.2750,3.0000,
6.810862,0.2335,-1.3001,-0.5413,0.3879,0.3071,0.6638,38.2500,20.4000,3.3000,
6.817402,0.2335,-1.3001,-0.5413,0.3879,0.3071,0.6638,38.2500,20.4000,3.3000,
6.818552,-0.2967,-1.1536,-0.5659,0.3879,0.3071,0.6638,38.2500,20.4000,3.3000,
6.837883,-0.2967,-1.1536,-0.5659,0.3879,0.3071,0.6638,38.2500,20.4000,3.3000,
6.840470,-0.6760,-0.6859,-0.1296,0.3879,0.3071,0.6638,38.2500,20.4000,3.3000,
6.851930,-0.6760,-0.6859,-0.1296,0.7933,0.4142,0.7240,38.2500,20.4000,3.3000,
6.861200,-0.6760,-0.6859,-0.1296,0.7933,0.4142,0.7240,38.2500,20.4000,3.3000,
6.863257,-0.6304,-0.1495,-0.2301,0.7933,0.4142,0.7240,38.2500,20.4000,3.3000,
6.879205,-0.6304,-0.1495,-0.2301,0.7933,0.4142,0.7240,38.2500,20.4000,3.3000,
6.882704,-0.2758,0.7467,-0.2471,0.7933,0.4142,0.7240,38.2500,20.4000,3.3000,
6.892305,-0.2758,0.7467,-0.2471,0.7933,0.4142,0.7240,39.1500,19.5000,2.8500,
6.900424,-0.2758,0.7467,-0.2471,0.7933,0.4142,0.7240,39.1500,19.5000,2.8500,
6.901984,0.1027,1.3475,-0.2354,0.7933,0.4142,0.7240,39.1500,19.5000,2.8500,
6.919647,0.1027,1.3475,-0.2354,0.7933,0.4142,0.7240,39.1500,19.5000,2.8500,
6.921611,0.1820,1.5363,-0.3420,0.7933,0.4142,0.7240,39.1500,19.5000,2.8500,
6.924874,0.1820,1.5363,-0.3420,1.1733,0.3572,0.7307,39.1500,19.5000,2.8500,
6.941935,0.1820,1.5363,-0.3420,1.1733,0.3572,0.7307,39.1500,19.5000,2.8500,
6.944043,0.1954,1.4534,-0.8328,1.1733,0.3572,0.7307,39.1500,19.5000,2.8500,
6.950108,0.1954,1.4534,-0.8328,1.1733,0.3572,0.7307,40.6500,18.0000,1.9500,
6.959334,0.1954,1.4534,-0.8328,1.1733,0.3572,0.7307,40.6500,18.0000,1.9500,
6.961350,0.2814,1.1882,-0.8359,1.1733,0.3572,0.7307,40.6500,18.0000,1.9500,
6.974994,0.2814,1.1882,-0.8359,1.1733,0.3572,0.7307,40.6500,18.0000,1.9500,
6.977000,0.5982,1.5265,-0.1377,1.1733,0.3572,0.7307,40.6500,18.0000,1.9500,
6.993995,0.5982,1.5265,-0.1377,1.1543,0.3201,0.5455,40.6500,18.0000,1.9500,
6.997727,0.5982,1.5265,-0.1377,1.1543,0.3201,0.5455,40.6500,18.0000,1.9500,
6.999620,0.8281,1.8360,0.0137,1.1543,0.3201,0.5455,40.6500,18.0000,1.9500,
7.018013,0.8281,1.8360,0.0137,1.1543,0.3201,0.5455,40.6500,18.0000,1.9500,
7.020342,0.6171,1.8456,-0.4147,1.1543,0.3201,0.5455,40.6500,18.0000,1.9500,
7.028616,0.6171,1.8456,-0.4147,1.1543,0.3201,0.5455,40.9500,16.5750,1.2750,
7.037989,0.6171,1.8456,-0.4147,1.1543,0.3201,0.5455,40.9500,16.5750,1.2750,
7.040044,0.0386,1.7907,-0.7193,1.1543,0.3201,0.5455,40.9500,16.5750,1.2750,
7.057640,0.0386,1.7907,-0.7193,1.1543,0.3201,0.5455,40.9500,16.5750,1.2750,
7.059902,-0.5837,1.8557,-0.7184,1.1543,0.3201,0.5455,40.9500,16.5750,1.2750,
7.061517,-0.5837,1.8557,-0.7184,1.2606,0.4035,0.3592,40.9500,16.5750,1.2750,
7.076922,-0.5837,1.8557,-0.7184,1.2606,0.4035,0.3592,40.9500,16.5750,1.2750,
7.079356,-0.8802,1.8722,-0.4787,1.2606,0.4035,0.3592,40.9500,16.5750,1.2750,
7.091019,-0.8802,1.8722,-0.4787,1.2606,0.4035,0.3592,40.5000,15.9000,0.6750,
7.096090,-0.8802,1.8722,-0.4787,1.2606,0.4035,0.3592,40.5000,15.9000,0.6750,
7.097776,-0.6148,2.0457,-0.6522,1.2606,0.4035,0.3592,40.5000,15.9000,0.6750,
7.116309,-0.6148,2.0457,-0.6522,1.2606,0.4035,0.3592,40.5000,15.9000,0.6750,
7.119004,-0.2425,2.0206,-0.8205,1.2606,0.4035,0.3592,40.5000,15.9000,0.6750,
7.135690,-0.2425,2.0206,-0.8205,1.1464,0.4253,0.3573,40.5000,15.9000,0.6750,
7.139844,-0.2425,2.0206,-0.8205,1.1464,0.4253,0.3573,40.5000,15.9000,0.6750,
7.141531,-0.1642,2.0250,-0.4807,1.1464,0.4253,0.3573,40.5000,15.9000,0.6750,
7.162001,-0.1642,2.0250,-0.4807,1.1464,0.4253,0.3573,40.5000,15.9000,0.6750,
7.165799,-0.2373,2.1601,-0.2126,1.1464,0.4253,0.3573,40.5000,15.9000,0.6750,
7.169282,-0.2373,2.1601,-0.2126,1.1464,0.4253,0.3573,41.7000,15.1500,0.4500,
7.181032,-0.2373,2.1601,-0.2126,1.1464,0.4253,0.3573,41.7000,15.1500,0.4500,
7.184871,-0.3090,2.2150,-0.0370,1.1464,0.4253,0.3573,41.7000,15.1500,0.4500,
7.199270,-0.3090,2.2150,-0.0370,1.1464,0.4253,0.3573,41.7000,15.1500,0.4500,
7.202040,-0.1891,2.2103,-0.1420,1.1464,0.4253,0.3573,41.7000,15.1500,0.4500,
7.209788,-0.1891,2.2103,-0.1420,0.9112,0.5256,0.2770,41.7000,15.1500,0.4500,
7.220628,-0.1891,2.2103,-0.1420,0.9112,0.5256,0.2770,41.7000,15.1500,0.4500,
7.222687,-0.1754,2.3865,-0.4347,0.9112,0.5256,0.2770,41.7000,15.1500,0.4500,
7.231065,-0.1754,2.3865,-0.4347,0.9112,0.5256,0.2770,41.5500,14.4000,0.9750,
7.239789,-0.1754,2.3865,-0.4347,0.9112,0.5256,0.2770,41.5500,14.4000,0.9750,
7.241369,-0.1693,2.4863,-0.7989,0.9112,0.5256,0.2770,41.5500,14.4000,0.9750,
7.257867,-0.1693,2.4863,-0.7989,0.9112,0.5256,0.2770,41.5500,14.4000,0.9750,
7.260299,-0.3117,2.3988,-0.8698,0.9112,0.5256,0.2770,41.5500,14.4000,0.9750,
7.273907,-0.3117,2.3988,-0.8698,0.7469,0.5441,0.2242,41.5500,14.4000,0.9750,
7.277279,-0.3117,2.3988,-0.8698,0.7469,0.5441,0.2242,41.5500,14.4000,0.9750,
7.278989,-0.5822,2.0406,-0.5355,0.7469,0.5441,0.2242,41.5500,14.4000,0.9750,
7.296638,-0.5822,2.0406,-0.5355,0.7469,0.5441,0.2242,41.5500,14.4000,0.9750,
7.298864,-0.8350,1.3954,-0.2441,0.7469,0.5441,0.2242,41.5500,14.4000,0.9750,
7.300494,-0.8350,1.3954,-0.2441,0.7469,0.5441,0.2242,40.9500,13.5750,2.1000,
7.316861,-0.8350,1.3954,-0.2441,0.7469,0.5441,0.2242,40.9500,13.5750,2.1000,
7.319873,-0.7447,0.9130,-0.1900,0.7469,0.5441,0.2242,40.9500,13.5750,2.1000,
7.337301,-0.7447,0.9130,-0.1900,0.7469,0.5441,0.2242,40.9500,13.5750,2.1000,
7.341233,-0.8292,0.8095,0.0126,0.7469,0.5441,0.2242,40.9500,13.5750,2.1000,
7.343998,-0.8292,0.8095,0.0126,0.5907,0.4826,0.2524,40.9500,13.5750,2.1000,
7.357025,-0.8292,0.8095,0.0126,0.5907,0.4826,0.2524,40.9500,13.5750,2.1000,
7.359484,-0.9878,0.6884,-0.0838,0.5907,0.4826,0.2524,40.9500,13.5750,2.1000,
7.372928,-0.9878,0.6884,-0.0838,0.5907,0.4826,0.2524,41.8500,13.5000,2.7750,
7.378468,-0.9878,0.6884,-0.0838,0.5907,0.4826,0.2524,41.8500,13.5000,2.7750,
7.380319,-0.1016,1.0616,-0.2968,0.5907,0.4826,0.2524,41.8500,13.5000,2.7750,
7.399524,-0.1016,1.0616,-0.2968,0.5907,0.4826,0.2524,41.8500,13.5000,2.7750,
7.401243,-0.4177,1.4289,-0.4666,0.5907,0.4826,0.2524,41.8500,13.5000,2.7750,
7.414682,-0.4177,1.4289,-0.4666,0.5253,0.4012,0.3118,41.8500,13.5000,2.7750,
7.419015,-0.4177,1.4289,-0.4666,0.5253,0.4012,0.3118,41.8500,13.5000,2.7750,
7.421013,-0.3303,1.3516,-0.4971,0.5253,0.4012,0.3118,41.8500,13.5000,2.7750,
7.438824,-0.3303,1.3516,-0.4971,0.5253,0.4012,0.3118,41.8500,13.5000,2.7750,
7.441556,-0.3465,0.9049,-0.1064,0.5253,0.4012,0.3118,41.8500,13.5000,2.7750,
7.443728,-0.3465,0.9049,-0.1064,0.5253,0.4012,0.3118,42.1500,12.9000,4.0500,
7.459323,-0.3465,0.9049,-0.1064,0.5253,0.4012,0.3118,42.1500,12.9000,4.0500,
7.461668,-0.3074,0.6005,0.1771,0.5253,0.4012,0.3118,42.1500,12.9000,4.0500,
7.477999,-0.3074,0.6005,0.1771,0.5253,0.4012,0.3118,42.1500,12.9000,4.0500,
7.480227,-0.3397,0.5716,0.0287,0.5253,0.4012,0.3118,42.1500,12.9000,4.0500,
7.483018,-0.3397,0.5716,0.0287,0.3001,0.2185,0.2419,42.1500,12.9000,4.0500,
7.497396,-0.3397,0.5716,0.0287,0.3001,0.2185,0.2419,42.1500,12.9000,4.0500,
7.499384,-0.2142,0.6135,-0.1685,0.3001,0.2185,0.2419,42.1500,12.9000,4.0500,
7.510314,-0.2142,0.6135,-0.1685,0.3001,0.2185,0.2419,41.2500,11.6250,4.3500,
7.516401,-0.2142,0.6135,-0.1685,0.3001,0.2185,0.2419,41.2500,11.6250,4.3500,
7.517906,-0.3221,0.7647,-0.0930,0.3001,0.2185,0.2419,41.2500,11.6250,4.3500,
7.532458,-0.3221,0.7647,-0.0930,0.3001,0.2185,0.2419,41.2500,11.6250,4.3500,
7.536613,-0.3933,0.7497,-0.2000,0.3001,0.2185,0.2419,41.2500,11.6250,4.3500,
7.551399,-0.3933,0.7497,-0.2000,0.2909,0.2744,0.1802,41.2500,11.6250,4.3500,
7.553567,-0.3933,0.7497,-0.2000,0.2909,0.2744,0.1802,41.2500,11.6250,4.3500,
7.555017,-0.4707,0.6977,-0.1905,0.2909,0.2744,0.1802,41.2500,11.6250,4.3500,
7.576659,-0.4707,0.6977,-0.1905,0.2909,0.2744,0.1802,41.2500,11.6250,4.3500,
7.578154,-0.3963,0.6224,-0.2069,0.2909,0.2744,0.1802,41.2500,11.6250,4.3500,
7.580796,-0.3963,0.6224,-0.2069,0.2909,0.2744,0.1802,42.4500,10.8750,5.2500,
7.595930,-0.3963,0.6224,-0.2069,0.2909,0.2744,0.1802,42.4500,10.8750,5.2500,
7.597790,-0.3499,0.5465,-0.2372,0.2909,0.2744,0.1802,42.4500,10.8750,5.2500,
7.615969,-0.3499,0.5465,-0.2372,0.2909,0.2744,0.1802,42.4500,10.8750,5.2500,
7.619946,-0.3633,0.4724,-0.1370,0.2909,0.2744,0.1802,42.4500,10.8750,5.2500,
7.622712,-0.3633,0.4724,-0.1370,0.1836,0.2123,0.1431,42.4500,10.8750,5.2500,
7.640116,-0.3633,0.4724,-0.1370,0.1836,0.2123,0.1431,42.4500,10.8750,5.2500,
7.643218,-0.2938,0.1920,-0.1221,0.1836,0.2123,0.1431,42.4500,10.8750,5.2500,
7.650258,-0.2938,0.1920,-0.1221,0.1836,0.2123,0.1431,42.2250,10.8750,4.9500,
7.658758,-0.2938,0.1920,-0.1221,0.1836,0.2123,0.1431,42.2250,10.8750,4.9500,
7.660545,-0.1844,0.0104,-0.0631,0.1836,0.2123,0.1431,42.2250,10.8750,4.9500,
7.678963,-0.1844,0.0104,-0.0631,0.1836,0.2123,0.1431,42.2250,10.8750,4.9500,
7.680900,-0.1507,0.0972,-0.1892,0.1836,0.2123,0.1431,42.2250,10.8750,4.9500,
7.692572,-0.1507,0.0972,-0.1892,0.0525,0.1970,0.0724,42.2250,10.8750,4.9500,
7.697344,-0.1507,0.0972,-0.1892,0.0525,0.1970,0.0724,42.2250,10.8750,4.9500,
7.698975,-0.2547,0.1727,-0.1611,0.0525,0.1970,0.0724,42.2250,10.8750,4.9500,
7.717586,-0.2547,0.1727,-0.1611,0.0525,0.1970,0.0724,42.2250,10.8750,4.9500,
7.720522,-0.3217,0.1350,0.0099,0.0525,0.1970,0.0724,42.2250,10.8750,4.9500,
7.724061,-0.3217,0.1350,0.0099,0.0525,0.1970,0.0724,41.8500,10.8750,6.0750,
7.740316,-0.3217,0.1350,0.0099,0.0525,0.1970,0.0724,41.8500,10.8750,6.0750,
7.743786,-0.3259,0.0484,0.0744,0.0525,0.1970,0.0724,41.8500,10.8750,6.0750,
7.759091,-0.3259,0.0484,0.0744,0.0525,0.1970,0.0724,41.8500,10.8750,6.0750,
7.763594,-0.3475,0.1324,0.0196,0.0525,0.1970,0.0724,41.8500,10.8750,6.0750,
7.766077,-0.3475,0.1324,0.0196,-0.0127,0.1361,0.0258,41.8500,10.8750,6.0750,
7.776389,-0.3475,0.1324,0.0196,-0.0127,0.1361,0.0258,41.8500,10.8750,6.0750,
7.779820,-0.3805,0.2996,-0.1416,-0.0127,0.1361,0.0258,41.8500,10.8750,6.0750,
7.791710,-0.3805,0.2996,-0.1416,-0.0127,0.1361,0.0258,42.2250,10.7250,6.1500,
7.794372,-0.3805,0.2996,-0.1416,-0.0127,0.1361,0.0258,42.2250,10.7250,6.1500,
7.795916,-0.3345,0.3469,-0.2707,-0.0127,0.1361,0.0258,42.2250,10.7250,6.1500,
7.815996,-0.3345,0.3469,-0.2707,-0.0127,0.1361,0.0258,42.2250,10.7250,6.1500,
7.819359,-0.2160,0.2053,-0.2803,-0.0127,0.1361,0.0258,42.2250,10.7250,6.1500,
7.829954,-0.2160,0.2053,-0.2803,-0.0122,0.0715,0.0505,42.2250,10.7250,6.1500,
7.835302,-0.2160,0.2053,-0.2803,-0.0122,0.0715,0.0505,42.2250,10.7250,6.1500,
7.837057,-0.1014,0.0662,-0.1706,-0.0122,0.0715,0.0505,42.2250,10.7250,6.1500,
7.854400,-0.1014,0.0662,-0.1706,-0.0122,0.0715,0.0505,42.2250,10.7250,6.1500,
7.857029,-0.1641,0.0009,-0.1515,-0.0122,0.0715,0.0505,42.2250,10.7250,6.1500,
7.860431,-0.1641,0.0009,-0.1515,-0.0122,0.0715,0.0505,42.1500,10.2000,6.9000,
7.874981,-0.1641,0.0009,-0.1515,-0.0122,0.0715,0.0505,42.1500,10.2000,6.9000,
7.876675,-0.1627,0.0403,-0.2040,-0.0122,0.0715,0.0505,42.1500,10.2000,6.9000,
7.893417,-0.1627,0.0403,-0.2040,-0.0122,0.0715,0.0505,42.1500,10.2000,6.9000,
7.895805,-0.2060,0.0825,-0.2373,-0.0122,0.0715,0.0505,42.1500,10.2000,6.9000,
7.898756,-0.2060,0.0825,-0.2373,-0.0678,0.0631,0.0269,42.1500,10.2000,6.9000,
7.913699,-0.2060,0.0825,-0.2373,-0.0678,0.0631,0.0269,42.1500,10.2000,6.9000,
7.917077,-0.2009,0.0632,-0.2548,-0.0678,0.0631,0.0269,42.1500,10.2000,6.9000,
7.928852,-0.2009,0.0632,-0.2548,-0.0678,0.0631,0.0269,42.1500,10.2000,6.9000,
7.931879,-0.2507,0.0611,-0.0138,-0.0678,0.0631,0.0269,42.1500,10.2000,6.9000,
7.933893,-0.2507,0.0611,-0.0138,-0.0678,0.0631,0.0269,42.4500,9.8250,6.6750,
7.952233,-0.2507,0.0611,-0.0138,-0.0678,0.0631,0.0269,42.4500,9.8250,6.6750,
7.954998,-0.3067,-0.0338,0.0544,-0.0678,0.0631,0.0269,42.4500,9.8250,6.6750,
7.967869,-0.3067,-0.0338,0.0544,-0.1177,0.0316,0.0162,42.4500,9.8250,6.6750,
7.979617,-0.3067,-0.0338,0.0544,-0.1177,0.0316,0.0162,42.4500,9.8250,6.6750,
7.982909,-0.3874,-0.0693,-0.0394,-0.1177,0.0316,0.0162,42.4500,9.8250,6.6750,
7.997070,-0.3874,-0.0693,-0.0394,-0.1177,0.0316,0.0162,42.4500,9.8250,6.6750,
8.000458,-0.3305,0.0263,-0.1929,-0.1177,0.0316,0.0162,42.4500,9.8250,6.6750,
8.003388,-0.3305,0.0263,-0.1929,-0.1177,0.0316,0.0162,42.1500,10.2750,7.2000,
8.016940,-0.3305,0.0263,-0.1929,-0.1177,0.0316,0.0162,42.1500,10.2750,7.2000,
8.018508,-0.2602,0.0539,-0.1017,-0.1177,0.0316,0.0162,42.1500,10.2750,7.2000,
8.036359,-0.2602,0.0539,-0.1017,-0.1177,0.0316,0.0162,42.1500,10.2750,7.2000,
8.037644,-0.1626,0.0551,-0.0864,-0.1177,0.0316,0.0162,42.1500,10.2750,7.2000,
8.044431,-0.1626,0.0551,-0.0864,-0.1087,-0.0157,0.0283,42.1500,10.2750,7.2000,
8.055502,-0.1626,0.0551,-0.0864,-0.1087,-0.0157,0.0283,42.1500,10.2750,7.2000,
8.056410,-0.0386,0.1067,-0.1256,-0.1087,-0.0157,0.0283,42.1500,10.2750,7.2000,
8.070670,-0.0386,0.1067,-0.1256,-0.1087,-0.0157,0.0283,42.0000,9.9000,7.3500,
8.072017,-0.0386,0.1067,-0.1256,-0.1087,-0.0157,0.0283,42.0000,9.9000,7.3500,
8.072741,0.0388,0.0064,-0.0932,-0.1087,-0.0157,0.0283,42.0000,9.9000,7.3500,
8.096162,0.0388,0.0064,-0.0932,-0.1087,-0.0157,0.0283,42.0000,9.9000,7.3500,
8.097815,-0.0651,-0.0246,-0.0434,-0.1087,-0.0157,0.0283,42.0000,9.9000,7.3500,
8.110597,-0.0651,-0.0246,-0.0434,-0.0886,0.0012,0.0160,42.0000,9.9000,7.3500,
8.115225,-0.0651,-0.0246,-0.0434,-0.0886,0.0012,0.0160,42.0000,9.9000,7.3500,
8.116728,-0.0909,0.0058,-0.0638,-0.0886,0.0012,0.0160,42.0000,9.9000,7.3500,
8.129344,-0.0909,0.0058,-0.0638,-0.0886,0.0012,0.0160,42.0000,9.9000,7.3500,
8.130906,-0.1592,0.0926,-0.0613,-0.0886,0.0012,0.0160,42.0000,9.9000,7.3500,
8.134359,-0.1592,0.0926,-0.0613,-0.0886,0.0012,0.0160,42.0000,10.1250,7.5000,
8.154639,-0.1592,0.0926,-0.0613,-0.0886,0.0012,0.0160,42.0000,10.1250,7.5000,
8.156540,-0.1629,0.1038,-0.0861,-0.0886,0.0012,0.0160,42.0000,10.1250,7.5000,
8.177006,-0.1629,0.1038,-0.0861,-0.0886,0.0012,0.0160,42.0000,10.1250,7.5000,
8.183296,-0.1323,0.0492,-0.0119,-0.0886,0.0012,0.0160,42.0000,10.1250,7.5000,
8.186807,-0.1323,0.0492,-0.0119,-0.0652,0.0047,-0.0070,42.0000,10.1250,7.5000,
8.199423,-0.1323,0.0492,-0.0119,-0.0652,0.0047,-0.0070,42.0000,10.1250,7.5000,
8.204232,-0.1416,-0.0201,-0.0257,-0.0652,0.0047,-0.0070,42.0000,10.1250,7.5000,
8.206929,-0.1416,-0.0201,-0.0257,-0.0652,0.0047,-0.0070,42.4500,10.2000,7.2750,
8.214579,-0.1416,-0.0201,-0.0257,-0.0652,0.0047,-0.0070,42.4500,10.2000,7.2750,
8.216344,-0.1265,0.0193,-0.0556,-0.0652,0.0047,-0.0070,42.4500,10.2000,7.2750,
8.228235,-0.1265,0.0193,-0.0556,-0.0652,0.0047,-0.0070,42.4500,10.2000,7.2750,
8.229977,-0.1013,0.0478,0.0336,-0.0652,0.0047,-0.0070,42.4500,10.2000,7.2750,
8.246016,-0.1013,0.0478,0.0336,-0.0519,0.0426,-0.0652,42.4500,10.2000,7.2750,
8.255725,-0.1013,0.0478,0.0336,-0.0519,0.0426,-0.0652,42.4500,10.2000,7.2750,
8.257734,-0.0568,-0.0218,-0.0209,-0.0519,0.0426,-0.0652,42.4500,10.2000,7.2750,
8.275177,-0.0568,-0.0218,-0.0209,-0.0519,0.0426,-0.0652,42.4500,10.2000,7.2750,
8.277291,0.0609,-0.0107,0.0488,-0.0519,0.0426,-0.0652,42.4500,10.2000,7.2750,
8.279007,0.0609,-0.0107,0.0488,-0.0519,0.0426,-0.0652,42.2250,10.2750,7.3500,
8.294708,0.0609,-0.0107,0.0488,-0.0519,0.0426,-0.0652,42.2250,10.2750,7.3500,
8.296850,0.0906,0.0251,0.0259,-0.0519,0.0426,-0.0652,42.2250,10.2750,7.3500,
8.314658,0.0906,0.0251,0.0259,-0.0519,0.0426,-0.0652,42.2250,10.2750,7.3500,
8.317246,-0.0358,0.0127,-0.0570,-0.0519,0.0426,-0.0652,42.2250,10.2750,7.3500,
8.320407,-0.0358,0.0127,-0.0570,-0.0247,0.0370,-0.0826,42.2250,10.2750,7.3500,
8.328832,-0.0358,0.0127,-0.0570,-0.0247,0.0370,-0.0826,42.2250,10.2750,7.3500,
8.331445,-0.0171,-0.0681,-0.0764,-0.0247,0.0370,-0.0826,42.2250,10.2750,7.3500,
8.344003,-0.0171,-0.0681,-0.0764,-0.0247,0.0370,-0.0826,42.1500,10.4250,7.2000,
8.355189,-0.0171,-0.0681,-0.0764,-0.0247,0.0370,-0.0826,42.1500,10.4250,7.2000,
8.358794,-0.2202,0.0048,0.0615,-0.0247,0.0370,-0.0826,42.1500,10.4250,7.2000,
8.373424,-0.2202,0.0048,0.0615,-0.0247,0.0370,-0.0826,42.1500,10.4250,7.2000,
8.375330,-0.3511,0.0543,-0.0314,-0.0247,0.0370,-0.0826,42.1500,10.4250,7.2000,
8.390845,-0.3511,0.0543,-0.0314,0.0721,0.0108,-0.1122,42.1500,10.4250,7.2000,
8.393236,-0.3511,0.0543,-0.0314,0.0721,0.0108,-0.1122,42.1500,10.4250,7.2000,
8.395045,-0.3488,0.1056,-0.0709,0.0721,0.0108,-0.1122,42.1500,10.4250,7.2000,
8.411568,-0.3488,0.1056,-0.0709,0.0721,0.0108,-0.1122,42.1500,10.4250,7.2000,
8.413407,-0.2561,0.0403,0.1085,0.0721,0.0108,-0.1122,42.1500,10.4250,7.2000,
8.414908,-0.2561,0.0403,0.1085,0.0721,0.0108,-0.1122,41.9250,11.1750,7.3500,
8.428161,-0.2561,0.0403,0.1085,0.0721,0.0108,-0.1122,41.9250,11.1750,7.3500,
8.429881,-0.1296,0.0142,0.1511,0.0721,0.0108,-0.1122,41.9250,11.1750,7.3500,
8.451398,-0.1296,0.0142,0.1511,0.0721,0.0108,-0.1122,41.9250,11.1750,7.3500,
8.454276,-0.0386,0.0521,-0.0744,0.0721,0.0108,-0.1122,41.9250,11.1750,7.3500,
8.456766,-0.0386,0.0521,-0.0744,0.0866,-0.0588,-0.0751,41.9250,11.1750,7.3500,
8.476267,-0.0386,0.0521,-0.0744,0.0866,-0.0588,-0.0751,41.9250,11.1750,7.3500,
8.478337,0.0067,0.0872,-0.3016,0.0866,-0.0588,-0.0751,41.9250,11.1750,7.3500,
8.480716,0.0067,0.0872,-0.3016,0.0866,-0.0588,-0.0751,41.7000,11.0250,7.2000,
8.489894,0.0067,0.0872,-0.3016,0.0866,-0.0588,-0.0751,41.7000,11.0250,7.2000,
8.491755,-0.0672,0.0710,-0.2779,0.0866,-0.0588,-0.0751,41.7000,11.0250,7.2000,
8.509466,-0.0672,0.0710,-0.2779,0.0866,-0.0588,-0.0751,41.7000,11.0250,7.2000,
8.512294,-0.1126,0.0155,0.0594,0.0866,-0.0588,-0.0751,41.7000,11.0250,7.2000,
8.524073,-0.1126,0.0155,0.0594,0.0570,-0.1012,-0.0768,41.7000,11.0250,7.2000,
8.528904,-0.1126,0.0155,0.0594,0.0570,-0.1012,-0.0768,41.7000,11.0250,7.2000,
8.530569,-0.1034,0.0143,0.2013,0.0570,-0.1012,-0.0768,41.7000,11.0250,7.2000,
8.548752,-0.1034,0.0143,0.2013,0.0570,-0.1012,-0.0768,41.7000,11.0250,7.2000,
8.551258,-0.1418,0.1052,-0.0204,0.0570,-0.1012,-0.0768,41.7000,11.0250,7.2000,
8.553008,-0.1418,0.1052,-0.0204,0.0570,-0.1012,-0.0768,42.1500,11.1000,6.9000,
8.568348,-0.1418,0.1052,-0.0204,0.0570,-0.1012,-0.0768,42.1500,11.1000,6.9000,
8.570766,-0.1170,0.1831,-0.1868,0.0570,-0.1012,-0.0768,42.1500,11.1000,6.9000,
8.587642,-0.1170,0.1831,-0.1868,0.0570,-0.1012,-0.0768,42.1500,11.1000,6.9000,
8.590117,-0.1138,0.1423,-0.1501,0.0570,-0.1012,-0.0768,42.1500,11.1000,6.9000,
8.592652,-0.1138,0.1423,-0.1501,0.0858,-0.1077,-0.0704,42.1500,11.1000,6.9000,
8.611938,-0.1138,0.1423,-0.1501,0.0858,-0.1077,-0.0704,42.1500,11.1000,6.9000,
8.613871,-0.1496,0.1243,-0.2362,0.0858,-0.1077,-0.0704,42.1500,11.1000,6.9000,
8.622821,-0.1496,0.1243,-0.2362,0.0858,-0.1077,-0.0704,41.5500,11.7000,6.7500,
8.628171,-0.1496,0.1243,-0.2362,0.0858,-0.1077,-0.0704,41.5500,11.7000,6.7500,
8.629431,-0.1274,0.0924,-0.1197,0.0858,-0.1077,-0.0704,41.5500,11.7000,6.7500,
8.651619,-0.1274,0.0924,-0.1197,0.0858,-0.1077,-0.0704,41.5500,11.7000,6.7500,
8.654549,-0.1384,-0.0708,-0.0905,0.0858,-0.1077,-0.0704,41.5500,11.7000,6.7500,
8.665933,-0.1384,-0.0708,-0.0905,0.0286,-0.1125,-0.0463,41.5500,11.7000,6.7500,
8.671528,-0.1384,-0.0708,-0.0905,0.0286,-0.1125,-0.0463,41.5500,11.7000,6.7500,
8.673549,-0.0312,-0.1399,-0.0156,0.0286,-0.1125,-0.0463,41.5500,11.7000,6.7500,
8.691811,-0.0312,-0.1399,-0.0156,0.0286,-0.1125,-0.0463,42.1500,11.5500,6.1500,
8.695486,-0.0312,-0.1399,-0.0156,0.0286,-0.1125,-0.0463,42.1500,11.5500,6.1500,
8.697181,0.0787,0.0088,0.0029,0.0286,-0.1125,-0.0463,42.1500,11.5500,6.1500,
8.710118,0.0787,0.0088,0.0029,0.0286,-0.1125,-0.0463,42.1500,11.5500,6.1500,
8.712845,0.1643,0.1947,-0.1999,0.0286,-0.1125,-0.0463,42.1500,11.5500,6.1500,
8.728594,0.1643,0.1947,-0.1999,0.0286,-0.1125,-0.0463,42.1500,11.5500,6.1500,
8.730616,0.2401,0.2153,-0.1830,0.0286,-0.1125,-0.0463,42.1500,11.5500,6.1500,
8.734390,0.2401,0.2153,-0.1830,0.0328,-0.0797,-0.0457,42.1500,11.5500,6.1500,
8.749523,0.2401,0.2153,-0.1830,0.0328,-0.0797,-0.0457,42.1500,11.5500,6.1500,
8.752875,0.2151,0.0277,0.0181,0.0328,-0.0797,-0.0457,42.1500,11.5500,6.1500,
8.761996,0.2151,0.0277,0.0181,0.0328,-0.0797,-0.0457,41.4000,11.7000,5.5500,
8.770609,0.2151,0.0277,0.0181,0.0328,-0.0797,-0.0457,41.4000,11.7000,5.5500,
8.772621,0.1350,-0.1593,-0.0330,0.0328,-0.0797,-0.0457,41.4000,11.7000,5.5500,
8.792854,0.1350,-0.1593,-0.0330,0.0328,-0.0797,-0.0457,41.4000,11.7000,5.5500,
8.795532,0.0325,-0.1736,-0.1263,0.0328,-0.0797,-0.0457,41.4000,11.7000,5.5500,
8.803781,0.0325,-0.1736,-0.1263,0.0159,-0.0252,-0.0516,41.4000,11.7000,5.5500,
8.807898,0.0325,-0.1736,-0.1263,0.0159,-0.0252,-0.0516,41.4000,11.7000,5.5500,
8.809542,-0.0383,0.2658,-0.1214,0.0159,-0.0252,-0.0516,41.4000,11.7000,5.5500,
8.827506,-0.0383,0.2658,-0.1214,0.0159,-0.0252,-0.0516,41.4000,11.7000,5.5500,
8.829077,0.1012,0.2897,-0.4440,0.0159,-0.0252,-0.0516,41.4000,11.7000,5.5500,
8.830691,0.1012,0.2897,-0.4440,0.0159,-0.0252,-0.0516,41.8500,12.0000,5.1000,
8.847633,0.1012,0.2897,-0.4440,0.0159,-0.0252,-0.0516,41.8500,12.0000,5.1000,
8.849590,0.0029,0.2054,-0.2533,0.0159,-0.0252,-0.0516,41.8500,12.0000,5.1000,
8.866888,0.0029,0.2054,-0.2533,0.0159,-0.0252,-0.0516,41.8500,12.0000,5.1000,
8.869256,-0.0758,0.0480,-0.0432,0.0159,-0.0252,-0.0516,41.8500,12.0000,5.1000,
8.871394,-0.0758,0.0480,-0.0432,-0.0101,-0.0006,-0.0292,41.8500,12.0000,5.1000,
8.891178,-0.0758,0.0480,-0.0432,-0.0101,-0.0006,-0.0292,41.8500,12.0000,5.1000,
8.894254,-0.0719,0.0431,-0.0507,-0.0101,-0.0006,-0.0292,41.8500,12.0000,5.1000,
8.901122,-0.0719,0.0431,-0.0507,-0.0101,-0.0006,-0.0292,41.2500,12.4500,5.2500,
8.911345,-0.0719,0.0431,-0.0507,-0.0101,-0.0006,-0.0292,41.2500,12.4500,5.2500,
8.914057,0.0826,-0.0321,-0.0433,-0.0101,-0.0006,-0.0292,41.2500,12.4500,5.2500,
8.928586,0.0826,-0.0321,-0.0433,-0.0101,-0.0006,-0.0292,41.2500,12.4500,5.2500,
8.930997,0.1153,-0.0720,-0.0336,-0.0101,-0.0006,-0.0292,41.2500,12.4500,5.2500,
8.945279,0.1153,-0.0720,-0.0336,0.0015,0.0240,-0.0510,41.2500,12.4500,5.2500,
8.949906,0.1153,-0.0720,-0.0336,0.0015,0.0240,-0.0510,41.2500,12.4500,5.2500,
8.951742,0.0049,0.0064,-0.1011,0.0015,0.0240,-0.0510,41.2500,12.4500,5.2500,
8.970421,0.0049,0.0064,-0.1011,0.0015,0.0240,-0.0510,41.2500,12.4500,5.2500,
8.973468,0.0815,0.0651,-0.2899,0.0015,0.0240,-0.0510,41.2500,12.4500,5.2500,
8.975391,0.0815,0.0651,-0.2899,0.0015,0.0240,-0.0510,41.6250,12.4500,5.5500,
8.992137,0.0815,0.0651,-0.2899,0.0015,0.0240,-0.0510,41.6250,12.4500,5.5500,
8.994099,0.1778,0.1725,-0.3609,0.0015,0.0240,-0.0510,41.6250,12.4500,5.5500,
9.008420,0.1778,0.1725,-0.3609,0.0015,0.0240,-0.0510,41.6250,12.4500,5.5500,
9.010582,-0.0643,-0.1420,0.2281,0.0015,0.0240,-0.0510,41.6250,12.4500,5.5500,
9.012989,-0.0643,-0.1420,0.2281,0.0634,0.0785,-0.0538,41.6250,12.4500,5.5500,
9.028849,-0.0643,-0.1420,0.2281,0.0634,0.0785,-0.0538,41.6250,12.4500,5.5500,
9.031403,0.0455,0.1993,-0.3037,0.0634,0.0785,-0.0538,41.6250,12.4500,5.5500,
9.040586,0.0455,0.1993,-0.3037,0.0634,0.0785,-0.0538,41.6250,12.5250,6.0750,
9.049646,0.0455,0.1993,-0.3037,0.0634,0.0785,-0.0538,41.6250,12.5250,6.0750,
9.050891,0.0642,0.2678,-0.6323,0.0634,0.0785,-0.0538,41.6250,12.5250,6.0750,
9.067635,0.0642,0.2678,-0.6323,0.0634,0.0785,-0.0538,41.6250,12.5250,6.0750,
9.069535,-0.0242,-0.0643,-0.0589,0.0634,0.0785,-0.0538,41.6250,12.5250,6.0750,
9.083063,-0.0242,-0.0643,-0.0589,-0.1313,0.0137,-0.0377,41.6250,12.5250,6.0750,
9.095371,-0.0242,-0.0643,-0.0589,-0.1313,0.0137,-0.0377,41.6250,12.5250,6.0750,
9.097193,-0.1596,-0.2402,0.4154,-0.1313,0.0137,-0.0377,41.6250,12.5250,6.0750,
