
time,ax,ay,az,wx,wy,wz,Bx,By,Bz,
0.130435,0.0000,0.0000,0.0000,0.0000,0.0000,0.0000,40.7250,17.4750,8.7750,
0.137063,0.0000,0.0000,0.0000,0.0000,0.0000,0.0000,40.7250,17.4750,8.7750,
0.152193,0.0000,0.0000,0.0000,0.0026,0.0342,0.0165,40.7250,17.4750,8.7750,
0.181171,0.0000,0.0000,0.0000,0.0026,0.0342,0.0165,40.7250,17.4750,8.7750,
0.182448,-0.0030,0.0882,-0.0251,0.0026,0.0342,0.0165,40.7250,17.4750,8.7750,
0.196315,-0.0030,0.0882,-0.0251,0.0026,0.0342,0.0165,41.0250,17.5500,9.1500,
0.219277,-0.0030,0.0882,-0.0251,-0.0292,0.0629,-0.0029,41.0250,17.5500,9.1500,
0.228583,-0.0030,0.0882,-0.0251,-0.0292,0.0629,-0.0029,41.0250,17.5500,9.1500,
0.232713,-0.0905,0.0570,-0.0314,-0.0292,0.0629,-0.0029,41.0250,17.5500,9.1500,
0.266022,-0.0905,0.0570,-0.0314,-0.0292,0.0629,-0.0029,41.0250,17.2500,9.2250,
0.282813,-0.0905,0.0570,-0.0314,-0.0292,0.0629,-0.0029,41.0250,17.2500,9.2250,
0.284516,-0.1322,0.0491,0.0327,-0.0292,0.0629,-0.0029,41.0250,17.2500,9.2250,
0.288052,-0.1322,0.0491,0.0327,-0.0316,0.0987,-0.0116,41.0250,17.2500,9.2250,
0.332307,-0.1322,0.0491,0.0327,-0.0316,0.0987,-0.0116,41.0250,17.2500,9.2250,
0.336984,-0.1682,0.0600,-0.0591,-0.0316,0.0987,-0.0116,41.0250,17.2500,9.2250,
0.343210,-0.1682,0.0600,-0.0591,-0.0316,0.0987,-0.0116,41.5500,17.5500,10.0500,
0.358719,-0.1682,0.0600,-0.0591,-0.0455,0.0977,-0.0191,41.5500,17.5500,10.0500,
0.375983,-0.1682,0.0600,-0.0591,-0.0455,0.0977,-0.0191,41.5500,17.5500,10.0500,
0.377483,-0.1833,0.0365,0.0340,-0.0455,0.0977,-0.0191,41.5500,17.5500,10.0500,
0.403461,-0.1833,0.0365,0.0340,-0.0455,0.0977,-0.0191,40.6500,17.5500,10.3500,
0.428928,-0.1833,0.0365,0.0340,-0.0304,0.1155,0.0014,40.6500,17.5500,10.3500,
0.431152,-0.1833,0.0365,0.0340,-0.0304,0.1155,0.0014,40.6500,17.5500,10.3500,
0.432439,-0.1832,-0.0488,0.0197,-0.0304,0.1155,0.0014,40.6500,17.5500,10.3500,
0.474025,-0.1832,-0.0488,0.0197,-0.0304,0.1155,0.0014,39.5250,17.5500,10.2750,
0.477698,-0.1832,-0.0488,0.0197,-0.0304,0.1155,0.0014,39.5250,17.5500,10.2750,
0.479013,-0.1108,0.0749,-0.0291,-0.0304,0.1155,0.0014,39.5250,17.5500,10.2750,
0.500096,-0.1108,0.0749,-0.0291,-0.0127,0.0770,-0.0110,39.5250,17.5500,10.2750,
0.527207,-0.1108,0.0749,-0.0291,-0.0127,0.0770,-0.0110,39.5250,17.5500,10.2750,
0.529764,-0.2955,-0.0455,0.0164,-0.0127,0.0770,-0.0110,39.5250,17.5500,10.2750,
0.549209,-0.2955,-0.0455,0.0164,-0.0127,0.0770,-0.0110,40.2750,18.2250,10.6500,
0.566308,-0.2955,-0.0455,0.0164,0.0043,0.0721,0.0144,40.2750,18.2250,10.6500,
0.582290,-0.2955,-0.0455,0.0164,0.0043,0.0721,0.0144,40.2750,18.2250,10.6500,
0.584483,-0.1415,-0.0028,0.0991,0.0043,0.0721,0.0144,40.2750,18.2250,10.6500,
0.613764,-0.1415,-0.0028,0.0991,0.0043,0.0721,0.0144,40.6500,18.2250,10.9500,
0.624560,-0.1415,-0.0028,0.0991,0.0043,0.0721,0.0144,40.6500,18.2250,10.9500,
0.626347,-0.2783,0.0452,-0.0158,0.0043,0.0721,0.0144,40.6500,18.2250,10.9500,
0.635513,-0.2783,0.0452,-0.0158,0.0593,0.0023,-0.0096,40.6500,18.2250,10.9500,
0.678665,-0.2783,0.0452,-0.0158,0.0593,0.0023,-0.0096,40.6500,18.2250,10.9500,
0.681438,-0.1367,0.1077,0.0411,0.0593,0.0023,-0.0096,40.6500,18.2250,10.9500,
0.683709,-0.1367,0.1077,0.0411,0.0593,0.0023,-0.0096,40.3500,17.8500,11.3250,
0.707904,-0.1367,0.1077,0.0411,0.0640,-0.0221,-0.0041,40.3500,17.8500,11.3250,
0.728982,-0.1367,0.1077,0.0411,0.0640,-0.0221,-0.0041,40.3500,17.8500,11.3250,
0.731650,-0.1215,0.0376,-0.1120,0.0640,-0.0221,-0.0041,40.3500,17.8500,11.3250,
0.753641,-0.1215,0.0376,-0.1120,0.0640,-0.0221,-0.0041,40.0500,17.4750,10.6500,
0.777294,-0.1215,0.0376,-0.1120,0.0108,-0.0066,-0.0192,40.0500,17.4750,10.6500,
0.780219,-0.1215,0.0376,-0.1120,0.0108,-0.0066,-0.0192,40.0500,17.4750,10.6500,
0.782213,-0.1126,0.0423,-0.0590,0.0108,-0.0066,-0.0192,40.0500,17.4750,10.6500,
0.824572,-0.1126,0.0423,-0.0590,0.0108,-0.0066,-0.0192,40.8000,17.7750,10.5750,
0.827497,-0.1126,0.0423,-0.0590,0.0108,-0.0066,-0.0192,40.8000,17.7750,10.5750,
0.829057,-0.0621,0.0085,0.0233,0.0108,-0.0066,-0.0192,40.8000,17.7750,10.5750,
0.847791,-0.0621,0.0085,0.0233,0.0325,0.0159,-0.0215,40.8000,17.7750,10.5750,
0.874725,-0.0621,0.0085,0.0233,0.0325,0.0159,-0.0215,40.8000,17.7750,10.5750,
0.877531,-0.1528,0.0514,-0.0927,0.0325,0.0159,-0.0215,40.8000,17.7750,10.5750,
0.895904,-0.1528,0.0514,-0.0927,0.0325,0.0159,-0.0215,40.3500,17.6250,10.6500,
0.918796,-0.1528,0.0514,-0.0927,0.0188,0.0301,-0.0188,40.3500,17.6250,10.6500,
0.931544,-0.1528,0.0514,-0.0927,0.0188,0.0301,-0.0188,40.3500,17.6250,10.6500,
0.933653,-0.1667,0.0743,-0.1232,0.0188,0.0301,-0.0188,40.3500,17.6250,10.6500,
0.963844,-0.1667,0.0743,-0.1232,0.0188,0.0301,-0.0188,40.4250,17.4750,10.6500,
0.980503,-0.1667,0.0743,-0.1232,0.0188,0.0301,-0.0188,40.4250,17.4750,10.6500,
0.983214,-0.1794,-0.0002,-0.1631,0.0188,0.0301,-0.0188,40.4250,17.4750,10.6500,
0.986573,-0.1794,-0.0002,-0.1631,0.0000,0.0348,-0.0224,40.4250,17.4750,10.6500,
1.028028,-0.1794,-0.0002,-0.1631,0.0000,0.0348,-0.0224,40.4250,17.4750,10.6500,
1.032138,-0.1482,0.0233,-0.2631,0.0000,0.0348,-0.0224,40.4250,17.4750,10.6500,
1.035226,-0.1482,0.0233,-0.2631,0.0000,0.0348,-0.0224,40.2000,17.3250,10.6500,
1.055358,-0.1482,0.0233,-0.2631,0.0003,0.0024,-0.0336,40.2000,17.3250,10.6500,
1.076097,-0.1482,0.0233,-0.2631,0.0003,0.0024,-0.0336,40.2000,17.3250,10.6500,
1.078815,-0.1500,0.0063,-0.1982,0.0003,0.0024,-0.0336,40.2000,17.3250,10.6500,
1.104059,-0.1500,0.0063,-0.1982,0.0003,0.0024,-0.0336,40.1250,18.3750,10.6500,
1.123756,-0.1500,0.0063,-0.1982,-0.0203,-0.0189,-0.0255,40.1250,18.3750,10.6500,
1.126506,-0.1500,0.0063,-0.1982,-0.0203,-0.0189,-0.0255,40.1250,18.3750,10.6500,
1.128408,-0.1148,-0.0159,-0.1105,-0.0203,-0.0189,-0.0255,40.1250,18.3750,10.6500,
1.173746,-0.1148,-0.0159,-0.1105,-0.0203,-0.0189,-0.0255,40.1250,18.3750,10.6500,
1.177249,-0.1594,-0.0352,-0.0816,-0.0203,-0.0189,-0.0255,40.1250,18.3750,10.6500,
1.181083,-0.1594,-0.0352,-0.0816,-0.0203,-0.0189,-0.0255,40.0500,18.1500,10.6500,
1.201350,-0.1594,-0.0352,-0.0816,-0.0162,-0.0304,0.0128,40.0500,18.1500,10.6500,
1.221407,-0.1594,-0.0352,-0.0816,-0.0162,-0.0304,0.0128,40.0500,18.1500,10.6500,
1.223774,-0.1896,-0.0124,-0.0203,-0.0162,-0.0304,0.0128,40.0500,18.1500,10.6500,
1.244038,-0.1896,-0.0124,-0.0203,-0.0162,-0.0304,0.0128,39.7500,17.7750,10.5750,
1.265955,-0.1896,-0.0124,-0.0203,0.0165,-0.0484,0.0383,39.7500,17.7750,10.5750,
1.281264,-0.1896,-0.0124,-0.0203,0.0165,-0.0484,0.0383,39.7500,17.7750,10.5750,
1.283681,-0.1878,0.0084,-0.0742,0.0165,-0.0484,0.0383,39.7500,17.7750,10.5750,
1.314110,-0.1878,0.0084,-0.0742,0.0165,-0.0484,0.0383,40.1250,17.8500,11.1750,
1.324150,-0.1878,0.0084,-0.0742,0.0165,-0.0484,0.0383,40.1250,17.8500,11.1750,
1.326994,-0.1659,0.0572,-0.1285,0.0165,-0.0484,0.0383,40.1250,17.8500,11.1750,
1.333463,-0.1659,0.0572,-0.1285,0.0011,-0.0518,0.0429,40.1250,17.8500,11.1750,
1.373127,-0.1659,0.0572,-0.1285,0.0011,-0.0518,0.0429,40.1250,17.8500,11.1750,
1.375781,-0.1848,0.0211,-0.0564,0.0011,-0.0518,0.0429,40.1250,17.8500,11.1750,
1.383571,-0.1848,0.0211,-0.0564,0.0011,-0.0518,0.0429,40.5000,17.6250,10.1250,
1.402994,-0.1848,0.0211,-0.0564,-0.0185,-0.0528,0.0292,40.5000,17.6250,10.1250,
1.422357,-0.1848,0.0211,-0.0564,-0.0185,-0.0528,0.0292,40.5000,17.6250,10.1250,
1.424730,-0.1027,0.0237,-0.0624,-0.0185,-0.0528,0.0292,40.5000,17.6250,10.1250,
1.453832,-0.1027,0.0237,-0.0624,-0.0185,-0.0528,0.0292,40.3500,17.9250,10.3500,
1.471467,-0.1027,0.0237,-0.0624,0.0049,-0.0147,0.0194,40.3500,17.9250,10.3500,
1.474872,-0.1027,0.0237,-0.0624,0.0049,-0.0147,0.0194,40.3500,17.9250,10.3500,
1.477399,-0.0372,-0.0187,-0.0595,0.0049,-0.0147,0.0194,40.3500,17.9250,10.3500,
1.519700,-0.0372,-0.0187,-0.0595,0.0049,-0.0147,0.0194,40.3500,17.9250,10.3500,
1.522073,-0.1239,-0.0040,0.0033,0.0049,-0.0147,0.0194,40.3500,17.9250,10.3500,
1.523797,-0.1239,-0.0040,0.0033,0.0049,-0.0147,0.0194,40.8000,17.5500,10.0500,
1.543913,-0.1239,-0.0040,0.0033,-0.0002,0.0122,0.0293,40.8000,17.5500,10.0500,
1.573486,-0.1239,-0.0040,0.0033,-0.0002,0.0122,0.0293,40.8000,17.5500,10.0500,
1.576827,-0.2071,-0.0097,0.0279,-0.0002,0.0122,0.0293,40.8000,17.5500,10.0500,
1.588865,-0.2071,-0.0097,0.0279,-0.0002,0.0122,0.0293,40.5000,17.6250,10.8750,
1.614817,-0.2071,-0.0097,0.0279,0.0252,-0.0090,0.0450,40.5000,17.6250,10.8750,
1.624083,-0.2071,-0.0097,0.0279,0.0252,-0.0090,0.0450,40.5000,17.6250,10.8750,
1.627104,-0.1521,0.0270,0.0231,0.0252,-0.0090,0.0450,40.5000,17.6250,10.8750,
1.657296,-0.1521,0.0270,0.0231,0.0252,-0.0090,0.0450,40.2750,17.1750,10.6500,
1.671799,-0.1521,0.0270,0.0231,0.0252,-0.0090,0.0450,40.2750,17.1750,10.6500,
1.674169,-0.1100,0.0182,0.0429,0.0252,-0.0090,0.0450,40.2750,17.1750,10.6500,
1.680764,-0.1100,0.0182,0.0429,0.0318,-0.0035,0.0411,40.2750,17.1750,10.6500,
1.720225,-0.1100,0.0182,0.0429,0.0318,-0.0035,0.0411,40.2750,17.1750,10.6500,
1.722083,-0.2203,0.0087,0.0293,0.0318,-0.0035,0.0411,40.2750,17.1750,10.6500,
1.731004,-0.2203,0.0087,0.0293,0.0318,-0.0035,0.0411,39.9750,17.3250,10.0500,
1.750042,-0.2203,0.0087,0.0293,0.0505,-0.0133,0.0492,39.9750,17.3250,10.0500,
1.769280,-0.2203,0.0087,0.0293,0.0505,-0.0133,0.0492,39.9750,17.3250,10.0500,
1.771367,-0.2314,0.0318,0.0163,0.0505,-0.0133,0.0492,39.9750,17.3250,10.0500,
1.800160,-0.2314,0.0318,0.0163,0.0505,-0.0133,0.0492,40.1250,17.3250,10.0500,
1.824057,-0.2314,0.0318,0.0163,0.0516,-0.0305,0.0596,40.1250,17.3250,10.0500,
1.828422,-0.2314,0.0318,0.0163,0.0516,-0.0305,0.0596,40.1250,17.3250,10.0500,
1.830785,-0.1840,0.0422,0.0543,0.0516,-0.0305,0.0596,40.1250,17.3250,10.0500,
1.867063,-0.1840,0.0422,0.0543,0.0516,-0.0305,0.0596,40.5000,16.8750,9.6750,
1.872034,-0.1840,0.0422,0.0543,0.0516,-0.0305,0.0596,40.5000,16.8750,9.6750,
1.874137,-0.1766,0.0986,-0.0757,0.0516,-0.0305,0.0596,40.5000,16.8750,9.6750,
1.893688,-0.1766,0.0986,-0.0757,0.0626,-0.0189,0.0565,40.5000,16.8750,9.6750,
1.921523,-0.1766,0.0986,-0.0757,0.0626,-0.0189,0.0565,40.5000,16.8750,9.6750,
1.925777,-0.0938,0.1331,-0.0449,0.0626,-0.0189,0.0565,40.5000,16.8750,9.6750,
1.935765,-0.0938,0.1331,-0.0449,0.0626,-0.0189,0.0565,40.8000,17.2500,9.7500,
1.963387,-0.0938,0.1331,-0.0449,0.0188,-0.0133,0.0400,40.8000,17.2500,9.7500,
1.970191,-0.0938,0.1331,-0.0449,0.0188,-0.0133,0.0400,40.8000,17.2500,9.7500,
1.971853,-0.0897,0.0191,-0.0017,0.0188,-0.0133,0.0400,40.8000,17.2500,9.7500,
2.004597,-0.0897,0.0191,-0.0017,0.0188,-0.0133,0.0400,40.6500,16.9500,9.7500,
2.018831,-0.0897,0.0191,-0.0017,0.0188,-0.0133,0.0400,40.6500,16.9500,9.7500,
2.020960,-0.0898,0.0469,-0.1197,0.0188,-0.0133,0.0400,40.6500,16.9500,9.7500,
2.029189,-0.0898,0.0469,-0.1197,0.0162,-0.0009,0.0295,40.6500,16.9500,9.7500,
2.067747,-0.0898,0.0469,-0.1197,0.0162,-0.0009,0.0295,40.6500,16.9500,9.7500,
2.070575,-0.1342,0.0419,-0.1702,0.0162,-0.0009,0.0295,40.6500,16.9500,9.7500,
2.073600,-0.1342,0.0419,-0.1702,0.0162,-0.0009,0.0295,40.5750,16.4250,9.7500,
2.096441,-0.1342,0.0419,-0.1702,-0.0127,0.0009,0.0205,40.5750,16.4250,9.7500,
2.116146,-0.1342,0.0419,-0.1702,-0.0127,0.0009,0.0205,40.5750,16.4250,9.7500,
2.118412,-0.1558,0.0505,-0.2694,-0.0127,0.0009,0.0205,40.5750,16.4250,9.7500,
2.145379,-0.1558,0.0505,-0.2694,-0.0127,0.0009,0.0205,40.6500,16.9500,9.7500,
2.166325,-0.1558,0.0505,-0.2694,-0.0452,-0.0095,0.0206,40.6500,16.9500,9.7500,
2.168908,-0.1558,0.0505,-0.2694,-0.0452,-0.0095,0.0206,40.6500,16.9500,9.7500,
2.171203,-0.1360,-0.0284,-0.2724,-0.0452,-0.0095,0.0206,40.6500,16.9500,9.7500,
2.214686,-0.1360,-0.0284,-0.2724,-0.0452,-0.0095,0.0206,41.4750,16.7250,10.0500,
2.220363,-0.1360,-0.0284,-0.2724,-0.0452,-0.0095,0.0206,41.4750,16.7250,10.0500,
2.222521,-0.1296,-0.0171,-0.3011,-0.0452,-0.0095,0.0206,41.4750,16.7250,10.0500,
2.238448,-0.1296,-0.0171,-0.3011,-0.0409,-0.0279,0.0133,41.4750,16.7250,10.0500,
2.268356,-0.1296,-0.0171,-0.3011,-0.0409,-0.0279,0.0133,41.4750,16.7250,10.0500,
2.271057,-0.0831,-0.0344,-0.3957,-0.0409,-0.0279,0.0133,41.4750,16.7250,10.0500,
2.284816,-0.0831,-0.0344,-0.3957,-0.0409,-0.0279,0.0133,41.4750,16.2750,10.4250,
2.307193,-0.0831,-0.0344,-0.3957,-0.0464,-0.0209,0.0046,41.4750,16.2750,10.4250,
2.318244,-0.0831,-0.0344,-0.3957,-0.0464,-0.0209,0.0046,41.4750,16.2750,10.4250,
2.321058,-0.0410,-0.0251,-0.5161,-0.0464,-0.0209,0.0046,41.4750,16.2750,10.4250,
2.354296,-0.0410,-0.0251,-0.5161,-0.0464,-0.0209,0.0046,41.4750,17.1750,9.7500,
2.366243,-0.0410,-0.0251,-0.5161,-0.0464,-0.0209,0.0046,41.4750,17.1750,9.7500,
2.368716,-0.0896,-0.0680,-0.4709,-0.0464,-0.0209,0.0046,41.4750,17.1750,9.7500,
2.381206,-0.0896,-0.0680,-0.4709,-0.0751,0.0151,-0.0029,41.4750,17.1750,9.7500,
2.414659,-0.0896,-0.0680,-0.4709,-0.0751,0.0151,-0.0029,41.4750,17.1750,9.7500,
2.417413,-0.1173,-0.1524,-0.3425,-0.0751,0.0151,-0.0029,41.4750,17.1750,9.7500,
2.423907,-0.1173,-0.1524,-0.3425,-0.0751,0.0151,-0.0029,40.8750,16.6500,10.2750,
2.448764,-0.1173,-0.1524,-0.3425,-0.0137,0.0432,-0.0027,40.8750,16.6500,10.2750,
2.468656,-0.1173,-0.1524,-0.3425,-0.0137,0.0432,-0.0027,40.8750,16.6500,10.2750,
2.470704,-0.1558,-0.1587,-0.3976,-0.0137,0.0432,-0.0027,40.8750,16.6500,10.2750,
2.496084,-0.1558,-0.1587,-0.3976,-0.0137,0.0432,-0.0027,40.5750,16.7250,10.4250,
2.518032,-0.1558,-0.1587,-0.3976,-0.0137,0.0432,-0.0027,40.5750,16.7250,10.4250,
2.520369,-0.1725,-0.1304,-0.3541,-0.0137,0.0432,-0.0027,40.5750,16.7250,10.4250,
2.522261,-0.1725,-0.1304,-0.3541,0.0657,0.0651,0.0034,40.5750,16.7250,10.4250,
2.564449,-0.1725,-0.1304,-0.3541,0.0657,0.0651,0.0034,40.8000,15.8250,10.0500,
2.568704,-0.1725,-0.1304,-0.3541,0.0657,0.0651,0.0034,40.8000,15.8250,10.0500,
2.570558,-0.1435,-0.2545,-0.4208,0.0657,0.0651,0.0034,40.8000,15.8250,10.0500,
2.585908,-0.1435,-0.2545,-0.4208,0.1759,0.0501,-0.0026,40.8000,15.8250,10.0500,
2.615734,-0.1435,-0.2545,-0.4208,0.1759,0.0501,-0.0026,40.8000,15.8250,10.0500,
2.618658,-0.1448,-0.1979,-0.5803,0.1759,0.0501,-0.0026,40.8000,15.8250,10.0500,
2.634787,-0.1448,-0.1979,-0.5803,0.1759,0.0501,-0.0026,40.8750,16.6500,10.3500,
2.655102,-0.1448,-0.1979,-0.5803,0.2420,0.0602,-0.0050,40.8750,16.6500,10.3500,
2.666656,-0.1448,-0.1979,-0.5803,0.2420,0.0602,-0.0050,40.8750,16.6500,10.3500,
2.669508,-0.1252,-0.2030,-0.4592,0.2420,0.0602,-0.0050,40.8750,16.6500,10.3500,
2.703556,-0.1252,-0.2030,-0.4592,0.2420,0.0602,-0.0050,40.7250,16.7250,10.1250,
2.712850,-0.1252,-0.2030,-0.4592,0.2420,0.0602,-0.0050,40.7250,16.7250,10.1250,
2.715317,-0.1268,-0.0545,-0.4633,0.2420,0.0602,-0.0050,40.7250,16.7250,10.1250,
2.723020,-0.1268,-0.0545,-0.4633,0.3054,0.0655,0.0229,40.7250,16.7250,10.1250,
2.762431,-0.1268,-0.0545,-0.4633,0.3054,0.0655,0.0229,40.7250,16.7250,10.1250,
2.765465,-0.1693,0.0355,-0.4753,0.3054,0.0655,0.0229,40.7250,16.7250,10.1250,
2.774103,-0.1693,0.0355,-0.4753,0.3054,0.0655,0.0229,40.7250,16.9500,9.8250,
2.791835,-0.1693,0.0355,-0.4753,0.3013,0.0628,0.0606,40.7250,16.9500,9.8250,
2.813361,-0.1693,0.0355,-0.4753,0.3013,0.0628,0.0606,40.7250,16.9500,9.8250,
2.816854,-0.1483,-0.0115,-0.8113,0.3013,0.0628,0.0606,40.7250,16.9500,9.8250,
2.844132,-0.1483,-0.0115,-0.8113,0.3013,0.0628,0.0606,40.5750,16.8750,10.1250,
2.865562,-0.1483,-0.0115,-0.8113,0.1568,0.0101,0.0643,40.5750,16.8750,10.1250,
2.868359,-0.1483,-0.0115,-0.8113,0.1568,0.0101,0.0643,40.5750,16.8750,10.1250,
2.870486,-0.2471,0.2456,-0.8579,0.1568,0.0101,0.0643,40.5750,16.8750,10.1250,
2.914701,-0.2471,0.2456,-0.8579,0.1568,0.0101,0.0643,40.5750,16.8750,10.1250,
2.917105,0.0201,1.3050,-1.3816,0.1568,0.0101,0.0643,40.5750,16.8750,10.1250,
2.919129,0.0201,1.3050,-1.3816,0.1568,0.0101,0.0643,40.4250,15.4500,9.5250,
2.932457,0.0201,1.3050,-1.3816,0.0444,-0.0192,0.0371,40.4250,15.4500,9.5250,
2.963536,0.0201,1.3050,-1.3816,0.0444,-0.0192,0.0371,40.4250,15.4500,9.5250,
2.965532,0.0706,2.0467,-2.0098,0.0444,-0.0192,0.0371,40.4250,15.4500,9.5250,
2.981655,0.0706,2.0467,-2.0098,0.0444,-0.0192,0.0371,40.6500,15.4500,9.7500,
3.002081,0.0706,2.0467,-2.0098,-0.1843,-0.0308,0.0363,40.6500,15.4500,9.7500,
3.016185,0.0706,2.0467,-2.0098,-0.1843,-0.0308,0.0363,40.6500,15.4500,9.7500,
3.018891,0.1161,3.2787,-2.3583,-0.1843,-0.0308,0.0363,40.6500,15.4500,9.7500,
3.046454,0.1161,3.2787,-2.3583,-0.1843,-0.0308,0.0363,41.1000,15.4500,10.3500,
3.063304,0.1161,3.2787,-2.3583,-0.1843,-0.0308,0.0363,41.1000,15.4500,10.3500,
3.065911,-0.4024,3.6825,-2.0297,-0.1843,-0.0308,0.0363,41.1000,15.4500,10.3500,
3.069482,-0.4024,3.6825,-2.0297,-0.4157,-0.1190,0.0777,41.1000,15.4500,10.3500,
3.111303,-0.4024,3.6825,-2.0297,-0.4157,-0.1190,0.0777,41.1000,15.4500,10.3500,
3.115939,-0.2819,5.1338,-1.7221,-0.4157,-0.1190,0.0777,41.1000,15.4500,10.3500,
3.120373,-0.2819,5.1338,-1.7221,-0.4157,-0.1190,0.0777,40.8750,15.0750,10.6500,
3.143347,-0.2819,5.1338,-1.7221,-0.9577,-0.1445,0.1472,40.8750,15.0750,10.6500,
3.163558,-0.2819,5.1338,-1.7221,-0.9577,-0.1445,0.1472,40.8750,15.0750,10.6500,
3.165914,0.2929,7.4243,-1.0525,-0.9577,-0.1445,0.1472,40.8750,15.0750,10.6500,
3.188181,0.2929,7.4243,-1.0525,-0.9577,-0.1445,0.1472,40.8750,13.8750,11.0250,
3.212800,0.2929,7.4243,-1.0525,-0.9577,-0.1445,0.1472,40.8750,13.8750,11.0250,
3.215499,0.3598,8.4664,0.9229,-0.9577,-0.1445,0.1472,40.8750,13.8750,11.0250,
3.217530,0.3598,8.4664,0.9229,-1.9494,0.1503,-0.0846,40.8750,13.8750,11.0250,
3.256185,0.3598,8.4664,0.9229,-1.9494,0.1503,-0.0846,40.8750,13.1250,13.4250,
3.260518,0.3598,8.4664,0.9229,-1.9494,0.1503,-0.0846,40.8750,13.1250,13.4250,
3.261983,0.6420,6.1938,-0.5328,-1.9494,0.1503,-0.0846,40.8750,13.1250,13.4250,
3.283061,0.6420,6.1938,-0.5328,-2.4109,-0.1226,0.2559,40.8750,13.1250,13.4250,
3.313135,0.6420,6.1938,-0.5328,-2.4109,-0.1226,0.2559,40.8750,13.1250,13.4250,
3.316522,-1.1056,0.5366,-2.8150,-2.4109,-0.1226,0.2559,40.8750,13.1250,13.4250,
3.324859,-1.1056,0.5366,-2.8150,-2.4109,-0.1226,0.2559,40.7250,9.7500,16.0500,
3.349172,-1.1056,0.5366,-2.8150,-1.5512,-0.2194,0.8045,40.7250,9.7500,16.0500,
3.362797,-1.1056,0.5366,-2.8150,-1.5512,-0.2194,0.8045,40.7250,9.7500,16.0500,
3.365641,-0.0197,-5.0833,-6.3026,-1.5512,-0.2194,0.8045,40.7250,9.7500,16.0500,
3.394240,-0.0197,-5.0833,-6.3026,-1.5512,-0.2194,0.8045,41.7000,5.9250,16.8750,
3.412974,-0.0197,-5.0833,-6.3026,-1.5512,-0.2194,0.8045,41.7000,5.9250,16.8750,
3.415931,-0.4232,-5.2914,-4.8236,-1.5512,-0.2194,0.8045,41.7000,5.9250,16.8750,
3.418270,-0.4232,-5.2914,-4.8236,0.3205,-0.4963,-0.1913,41.7000,5.9250,16.8750,
3.457392,-0.4232,-5.2914,-4.8236,0.3205,-0.4963,-0.1913,41.7000,5.9250,16.8750,
3.463550,-0.4133,0.7251,-5.7861,0.3205,-0.4963,-0.1913,41.7000,5.9250,16.8750,
3.467237,-0.4133,0.7251,-5.7861,0.3205,-0.4963,-0.1913,42.1500,7.0500,16.9500,
3.485536,-0.4133,0.7251,-5.7861,2.6497,-0.4134,-0.6794,42.1500,7.0500,16.9500,
3.505117,-0.4133,0.7251,-5.7861,2.6497,-0.4134,-0.6794,42.1500,7.0500,16.9500,
3.507354,0.8271,4.1511,-3.6359,2.6497,-0.4134,-0.6794,42.1500,7.0500,16.9500,
3.535079,0.8271,4.1511,-3.6359,2.6497,-0.4134,-0.6794,41.5500,10.2750,15.3750,
3.559593,0.8271,4.1511,-3.6359,2.6497,-0.4134,-0.6794,41.5500,10.2750,15.3750,
3.562784,-0.7131,-16.8760,6.5476,2.6497,-0.4134,-0.6794,41.5500,10.2750,15.3750,
3.565011,-0.7131,-16.8760,6.5476,4.9708,-0.1626,-0.6790,41.5500,10.2750,15.3750,
3.604313,-0.7131,-16.8760,6.5476,4.9708,-0.1626,-0.6790,40.5750,14.5500,13.0500,
3.610884,-0.7131,-16.8760,6.5476,4.9708,-0.1626,-0.6790,40.5750,14.5500,13.0500,
3.613755,-4.4821,-25.0682,20.0958,4.9708,-0.1626,-0.6790,40.5750,14.5500,13.0500,
3.635702,-4.4821,-25.0682,20.0958,6.2067,-0.2665,0.1355,40.5750,14.5500,13.0500,
3.657200,-4.4821,-25.0682,20.0958,6.2067,-0.2665,0.1355,40.5750,14.5500,13.0500,
3.659912,3.1688,12.9470,-19.0460,6.2067,-0.2665,0.1355,40.5750,14.5500,13.0500,
3.674476,3.1688,12.9470,-19.0460,6.2067,-0.2665,0.1355,40.2750,16.0500,6.6750,
3.696522,3.1688,12.9470,-19.0460,3.8465,0.0733,-0.3777,40.2750,16.0500,6.6750,
3.705651,3.1688,12.9470,-19.0460,3.8465,0.0733,-0.3777,40.2750,16.0500,6.6750,
3.707403,-3.3487,13.5053,-3.0779,3.8465,0.0733,-0.3777,40.2750,16.0500,6.6750,
3.743935,-3.3487,13.5053,-3.0779,3.8465,0.0733,-0.3777,39.8250,17.5500,1.3500,
3.754518,-3.3487,13.5053,-3.0779,3.8465,0.0733,-0.3777,39.8250,17.5500,1.3500,
3.757097,2.2713,-5.4708,2.4525,3.8465,0.0733,-0.3777,39.8250,17.5500,1.3500,
3.765677,2.2713,-5.4708,2.4525,2.6331,-0.5727,-0.1968,39.8250,17.5500,1.3500,
3.809460,2.2713,-5.4708,2.4525,2.6331,-0.5727,-0.1968,39.8250,17.5500,1.3500,
3.815307,5.8453,3.6792,1.0221,2.6331,-0.5727,-0.1968,39.8250,17.5500,1.3500,
3.817585,5.8453,3.6792,1.0221,2.6331,-0.5727,-0.1968,39.8250,17.1750,-3.0750,
3.838335,5.8453,3.6792,1.0221,3.2071,0.7174,-0.2336,39.8250,17.1750,-3.0750,
3.858960,5.8453,3.6792,1.0221,3.2071,0.7174,-0.2336,39.8250,17.1750,-3.0750,
3.861987,4.5410,2.9340,1.5834,3.2071,0.7174,-0.2336,39.8250,17.1750,-3.0750,
3.884719,4.5410,2.9340,1.5834,3.2071,0.7174,-0.2336,39.4500,16.0500,-4.6500,
3.908726,4.5410,2.9340,1.5834,2.3325,1.5842,-0.5805,39.4500,16.0500,-4.6500,
3.912957,4.5410,2.9340,1.5834,2.3325,1.5842,-0.5805,39.4500,16.0500,-4.6500,
3.914925,0.1505,6.0823,1.7827,2.3325,1.5842,-0.5805,39.4500,16.0500,-4.6500,
3.956305,0.1505,6.0823,1.7827,2.3325,1.5842,-0.5805,39.4500,16.0500,-4.6500,
3.960804,-3.7822,6.0042,5.3028,2.3325,1.5842,-0.5805,39.4500,16.0500,-4.6500,
3.965397,-3.7822,6.0042,5.3028,2.3325,1.5842,-0.5805,39.0750,16.6500,-2.9250,
3.975137,-3.7822,6.0042,5.3028,0.5771,0.9586,-0.1944,39.0750,16.6500,-2.9250,
4.007169,-3.7822,6.0042,5.3028,0.5771,0.9586,-0.1944,39.0750,16.6500,-2.9250,
4.013759,-0.9359,3.5034,-1.6099,0.5771,0.9586,-0.1944,39.0750,16.6500,-2.9250,
4.023405,-0.9359,3.5034,-1.6099,0.5771,0.9586,-0.1944,39.3000,16.7250,-1.2750,
4.042878,-0.9359,3.5034,-1.6099,-0.1642,0.4946,0.3549,39.3000,16.7250,-1.2750,
4.053370,-0.9359,3.5034,-1.6099,-0.1642,0.4946,0.3549,39.3000,16.7250,-1.2750,
4.055480,-0.5304,1.6968,-1.5072,-0.1642,0.4946,0.3549,39.3000,16.7250,-1.2750,
4.093492,-0.5304,1.6968,-1.5072,-0.1642,0.4946,0.3549,39.7500,15.3750,0.1500,
4.101585,-0.5304,1.6968,-1.5072,-0.1642,0.4946,0.3549,39.7500,15.3750,0.1500,
4.103243,-2.9392,0.5139,-0.4115,-0.1642,0.4946,0.3549,39.7500,15.3750,0.1500,
4.114798,-2.9392,0.5139,-0.4115,-0.0409,0.1787,0.2934,39.7500,15.3750,0.1500,
4.152301,-2.9392,0.5139,-0.4115,-0.0409,0.1787,0.2934,39.7500,15.3750,0.1500,
4.156991,-1.1439,1.2735,0.3609,-0.0409,0.1787,0.2934,39.7500,15.3750,0.1500,
4.172154,-1.1439,1.2735,0.3609,-0.0409,0.1787,0.2934,39.5250,14.9250,0.6750,
4.180189,-1.1439,1.2735,0.3609,0.0556,0.0603,-0.0591,39.5250,14.9250,0.6750,
4.204174,-1.1439,1.2735,0.3609,0.0556,0.0603,-0.0591,39.5250,14.9250,0.6750,
4.205974,0.3375,1.3577,-0.6305,0.0556,0.0603,-0.0591,39.5250,14.9250,0.6750,
4.236340,0.3375,1.3577,-0.6305,0.0556,0.0603,-0.0591,40.2750,14.9250,1.2750,
4.253477,0.3375,1.3577,-0.6305,-0.1843,-0.1249,-0.4697,40.2750,14.9250,1.2750,
4.256424,0.3375,1.3577,-0.6305,-0.1843,-0.1249,-0.4697,40.2750,14.9250,1.2750,
4.258017,-0.4784,-0.3026,0.7342,-0.1843,-0.1249,-0.4697,40.2750,14.9250,1.2750,
4.299747,-0.4784,-0.3026,0.7342,-0.1843,-0.1249,-0.4697,39.6750,16.2750,0.4500,
4.304780,-0.4784,-0.3026,0.7342,-0.1843,-0.1249,-0.4697,39.6750,16.2750,0.4500,
4.307433,-0.3239,0.2876,0.1334,-0.1843,-0.1249,-0.4697,39.6750,16.2750,0.4500,
4.323228,-0.3239,0.2876,0.1334,-0.2278,-0.2129,-0.1678,39.6750,16.2750,0.4500,
4.351732,-0.3239,0.2876,0.1334,-0.2278,-0.2129,-0.1678,39.6750,16.2750,0.4500,
4.355690,0.4623,0.7518,-0.1166,-0.2278,-0.2129,-0.1678,39.6750,16.2750,0.4500,
4.366216,0.4623,0.7518,-0.1166,-0.2278,-0.2129,-0.1678,39.1500,17.3250,0.2250,
4.390673,0.4623,0.7518,-0.1166,-0.3493,-0.2158,-0.1335,39.1500,17.3250,0.2250,
4.400385,0.4623,0.7518,-0.1166,-0.3493,-0.2158,-0.1335,39.1500,17.3250,0.2250,
4.402399,0.2402,0.6114,0.7866,-0.3493,-0.2158,-0.1335,39.1500,17.3250,0.2250,
4.434853,0.2402,0.6114,0.7866,-0.3493,-0.2158,-0.1335,39.3000,17.2500,0.1500,
4.454523,0.2402,0.6114,0.7866,-0.3493,-0.2158,-0.1335,39.3000,17.2500,0.1500,
4.457621,-0.1244,1.2127,0.9121,-0.3493,-0.2158,-0.1335,39.3000,17.2500,0.1500,
4.471010,-0.1244,1.2127,0.9121,-0.4090,-0.3607,-0.0550,39.3000,17.2500,0.1500,
4.503696,-0.1244,1.2127,0.9121,-0.4090,-0.3607,-0.0550,39.3000,17.2500,0.1500,
4.507096,-0.9184,2.1607,-0.1551,-0.4090,-0.3607,-0.0550,39.3000,17.2500,0.1500,
4.509589,-0.9184,2.1607,-0.1551,-0.4090,-0.3607,-0.0550,38.7750,17.3250,0.1500,
4.532344,-0.9184,2.1607,-0.1551,-0.8691,-0.2837,0.1460,38.7750,17.3250,0.1500,
4.552052,-0.9184,2.1607,-0.1551,-0.8691,-0.2837,0.1460,38.7750,17.3250,0.1500,
4.554144,0.2673,-0.6372,0.1939,-0.8691,-0.2837,0.1460,38.7750,17.3250,0.1500,
4.578158,0.2673,-0.6372,0.1939,-0.8691,-0.2837,0.1460,40.6500,17.4750,0.0750,
4.601010,0.2673,-0.6372,0.1939,-0.8253,-0.2445,-0.1855,40.6500,17.4750,0.0750,
4.604737,0.2673,-0.6372,0.1939,-0.8253,-0.2445,-0.1855,40.6500,17.4750,0.0750,
4.607142,0.2214,-0.7823,0.2315,-0.8253,-0.2445,-0.1855,40.6500,17.4750,0.0750,
4.646051,0.2214,-0.7823,0.2315,-0.8253,-0.2445,-0.1855,40.2000,17.8500,0.5250,
4.649276,0.2214,-0.7823,0.2315,-0.8253,-0.2445,-0.1855,40.2000,17.8500,0.5250,
4.650860,0.6272,-0.6632,-0.1068,-0.8253,-0.2445,-0.1855,40.2000,17.8500,0.5250,
4.668768,0.6272,-0.6632,-0.1068,-0.6159,-0.0657,-0.1820,40.2000,17.8500,0.5250,
4.699057,0.6272,-0.6632,-0.1068,-0.6159,-0.0657,-0.1820,40.2000,17.8500,0.5250,
4.703128,0.1845,-0.1323,0.1858,-0.6159,-0.0657,-0.1820,40.2000,17.8500,0.5250,
4.715858,0.1845,-0.1323,0.1858,-0.6159,-0.0657,-0.1820,39.4500,19.3500,0.9750,
4.738079,0.1845,-0.1323,0.1858,-0.5904,0.0334,-0.2462,39.4500,19.3500,0.9750,
4.747655,0.1845,-0.1323,0.1858,-0.5904,0.0334,-0.2462,39.4500,19.3500,0.9750,
4.750740,0.1417,0.5008,0.1296,-0.5904,0.0334,-0.2462,39.4500,19.3500,0.9750,
4.784311,0.1417,0.5008,0.1296,-0.5904,0.0334,-0.2462,39.4500,20.2500,2.1750,
4.796978,0.1417,0.5008,0.1296,-0.5904,0.0334,-0.2462,39.4500,20.2500,2.1750,
4.802349,0.0623,0.6698,0.2949,-0.5904,0.0334,-0.2462,39.4500,20.2500,2.1750,
4.807340,0.0623,0.6698,0.2949,-0.6472,-0.2256,-0.0449,39.4500,20.2500,2.1750,
4.851431,0.0623,0.6698,0.2949,-0.6472,-0.2256,-0.0449,39.4500,20.2500,2.1750,
4.856677,-0.5089,0.4842,0.6700,-0.6472,-0.2256,-0.0449,39.4500,20.2500,2.1750,
4.861478,-0.5089,0.4842,0.6700,-0.6472,-0.2256,-0.0449,39.0750,19.8750,1.9500,
4.880497,-0.5089,0.4842,0.6700,-0.7491,-0.3454,-0.1081,39.0750,19.8750,1.9500,
4.899230,-0.5089,0.4842,0.6700,-0.7491,-0.3454,-0.1081,39.0750,19.8750,1.9500,
4.902424,0.1595,0.4348,0.3163,-0.7491,-0.3454,-0.1081,39.0750,19.8750,1.9500,
4.923919,0.1595,0.4348,0.3163,-0.7491,-0.3454,-0.1081,39.6000,20.2500,2.0250,
4.947988,0.1595,0.4348,0.3163,-0.7461,-0.1923,-0.0200,39.6000,20.2500,2.0250,
4.951921,0.1595,0.4348,0.3163,-0.7461,-0.1923,-0.0200,39.6000,20.2500,2.0250,
4.953854,0.3228,0.4446,0.2788,-0.7461,-0.1923,-0.0200,39.6000,20.2500,2.0250,
4.994231,0.3228,0.4446,0.2788,-0.7461,-0.1923,-0.0200,39.3000,20.8500,2.4750,
4.999164,0.3228,0.4446,0.2788,-0.7461,-0.1923,-0.0200,39.3000,20.8500,2.4750,
5.002679,0.2034,0.5275,0.0450,-0.7461,-0.1923,-0.0200,39.3000,20.8500,2.4750,
5.015995,0.2034,0.5275,0.0450,-0.8294,-0.0159,-0.0286,39.3000,20.8500,2.4750,
5.046344,0.2034,0.5275,0.0450,-0.8294,-0.0159,-0.0286,39.3000,20.8500,2.4750,
5.048830,-0.4651,0.7153,-0.0356,-0.8294,-0.0159,-0.0286,39.3000,20.8500,2.4750,
5.066252,-0.4651,0.7153,-0.0356,-0.8294,-0.0159,-0.0286,38.7000,20.1750,2.9250,
5.084673,-0.4651,0.7153,-0.0356,-0.9485,-0.1321,-0.1026,38.7000,20.1750,2.9250,
5.100328,-0.4651,0.7153,-0.0356,-0.9485,-0.1321,-0.1026,38.7000,20.1750,2.9250,
5.104668,-0.8774,0.6270,0.1214,-0.9485,-0.1321,-0.1026,38.7000,20.1750,2.9250,
5.134884,-0.8774,0.6270,0.1214,-0.9485,-0.1321,-0.1026,38.9250,20.8500,4.7250,
5.148576,-0.8774,0.6270,0.1214,-0.9485,-0.1321,-0.1026,38.9250,20.8500,4.7250,
5.151515,-0.3711,0.4208,-0.0526,-0.9485,-0.1321,-0.1026,38.9250,20.8500,4.7250,
5.164993,-0.3711,0.4208,-0.0526,-1.1343,-0.1898,-0.2362,38.9250,20.8500,4.7250,
5.198495,-0.3711,0.4208,-0.0526,-1.1343,-0.1898,-0.2362,38.9250,20.8500,4.7250,
5.202801,-0.0652,0.2446,1.0045,-1.1343,-0.1898,-0.2362,38.9250,20.8500,4.7250,
5.205412,-0.0652,0.2446,1.0045,-1.1343,-0.1898,-0.2362,38.7750,21.1500,4.7250,
5.226618,-0.0652,0.2446,1.0045,-1.2816,-0.0736,-0.3625,38.7750,21.1500,4.7250,
5.247429,-0.0652,0.2446,1.0045,-1.2816,-0.0736,-0.3625,38.7750,21.1500,4.7250,
5.249140,-0.0731,0.3039,0.1924,-1.2816,-0.0736,-0.3625,38.7750,21.1500,4.7250,
5.274502,-0.0731,0.3039,0.1924,-1.2816,-0.0736,-0.3625,38.4750,21.7500,7.1250,
5.296485,-0.0731,0.3039,0.1924,-1.3323,-0.0231,-0.3128,38.4750,21.7500,7.1250,
5.298580,-0.0731,0.3039,0.1924,-1.3323,-0.0231,-0.3128,38.4750,21.7500,7.1250,
5.299780,-0.0932,0.2605,0.4368,-1.3323,-0.0231,-0.3128,38.4750,21.7500,7.1250,
5.345158,-0.0932,0.2605,0.4368,-1.3323,-0.0231,-0.3128,38.4750,21.7500,7.1250,
5.350495,-0.0587,0.4645,0.0441,-1.3323,-0.0231,-0.3128,38.4750,21.7500,7.1250,
5.354655,-0.0587,0.4645,0.0441,-1.3323,-0.0231,-0.3128,38.5500,21.9750,8.4750,
5.370497,-0.0587,0.4645,0.0441,-1.4483,-0.1005,-0.3593,38.5500,21.9750,8.4750,
5.398078,-0.0587,0.4645,0.0441,-1.4483,-0.1005,-0.3593,38.5500,21.9750,8.4750,
5.401427,-0.6486,0.5978,0.0418,-1.4483,-0.1005,-0.3593,38.5500,21.9750,8.4750,
5.413776,-0.6486,0.5978,0.0418,-1.4483,-0.1005,-0.3593,38.1000,22.6500,10.7250,
5.436744,-0.6486,0.5978,0.0418,-1.6230,-0.4664,-0.4569,38.1000,22.6500,10.7250,
5.446832,-0.6486,0.5978,0.0418,-1.6230,-0.4664,-0.4569,38.1000,22.6500,10.7250,
5.450335,-1.3165,0.6860,0.2598,-1.6230,-0.4664,-0.4569,38.1000,22.6500,10.7250,
5.484622,-1.3165,0.6860,0.2598,-1.6230,-0.4664,-0.4569,37.7250,23.1750,12.0750,
5.497298,-1.3165,0.6860,0.2598,-1.6230,-0.4664,-0.4569,37.7250,23.1750,12.0750,
5.500571,-1.7932,0.7638,0.2471,-1.6230,-0.4664,-0.4569,37.7250,23.1750,12.0750,
5.505171,-1.7932,0.7638,0.2471,-1.6922,-0.9687,-0.5701,37.7250,23.1750,12.0750,
5.546158,-1.7932,0.7638,0.2471,-1.6922,-0.9687,-0.5701,37.7250,23.1750,12.0750,
5.548507,-1.5075,1.0238,0.6725,-1.6922,-0.9687,-0.5701,37.7250,23.1750,12.0750,
5.553896,-1.5075,1.0238,0.6725,-1.6922,-0.9687,-0.5701,38.1750,23.7750,11.4750,
5.573953,-1.5075,1.0238,0.6725,-1.8419,-1.0586,-0.5685,38.1750,23.7750,11.4750,
5.595598,-1.5075,1.0238,0.6725,-1.8419,-1.0586,-0.5685,38.1750,23.7750,11.4750,
5.600220,-0.6258,0.8091,1.2850,-1.8419,-1.0586,-0.5685,38.1750,23.7750,11.4750,
5.624280,-0.6258,0.8091,1.2850,-1.8419,-1.0586,-0.5685,36.9750,23.6250,11.8500,
5.646327,-0.6258,0.8091,1.2850,-2.2691,-0.5421,-0.2570,36.9750,23.6250,11.8500,
5.650880,-0.6258,0.8091,1.2850,-2.2691,-0.5421,-0.2570,36.9750,23.6250,11.8500,
5.653195,0.6669,-0.1418,1.0488,-2.2691,-0.5421,-0.2570,36.9750,23.6250,11.8500,
5.691740,0.6669,-0.1418,1.0488,-2.2691,-0.5421,-0.2570,36.9750,23.6250,11.8500,
5.694909,-0.2773,0.4103,1.3877,-2.2691,-0.5421,-0.2570,36.9750,23.6250,11.8500,
5.697732,-0.2773,0.4103,1.3877,-2.2691,-0.5421,-0.2570,37.3500,23.5500,13.8750,
5.716290,-0.2773,0.4103,1.3877,-2.6211,-0.6327,-0.0399,37.3500,23.5500,13.8750,
5.740991,-0.2773,0.4103,1.3877,-2.6211,-0.6327,-0.0399,37.3500,23.5500,13.8750,
5.744774,0.0389,2.1799,0.7480,-2.6211,-0.6327,-0.0399,37.3500,23.5500,13.8750,
5.766607,0.0389,2.1799,0.7480,-2.6211,-0.6327,-0.0399,37.8000,21.0750,15.8250,
5.784420,0.0389,2.1799,0.7480,-1.9174,-1.4705,-0.0565,37.8000,21.0750,15.8250,
5.794193,0.0389,2.1799,0.7480,-1.9174,-1.4705,-0.0565,37.8000,21.0750,15.8250,
5.797167,-1.1737,0.9717,1.3688,-1.9174,-1.4705,-0.0565,37.8000,21.0750,15.8250,
5.828678,-1.1737,0.9717,1.3688,-1.9174,-1.4705,-0.0565,38.0250,20.6250,16.0500,
5.844253,-1.1737,0.9717,1.3688,-1.9174,-1.4705,-0.0565,38.0250,20.6250,16.0500,
5.847634,0.7333,-2.0712,-1.7198,-1.9174,-1.4705,-0.0565,38.0250,20.6250,16.0500,
5.852449,0.7333,-2.0712,-1.7198,-0.8369,-1.7521,0.6736,38.0250,20.6250,16.0500,
5.892696,0.7333,-2.0712,-1.7198,-0.8369,-1.7521,0.6736,38.0250,20.6250,16.0500,
5.897082,2.6093,-0.8184,-2.7611,-0.8369,-1.7521,0.6736,38.0250,20.6250,16.0500,
5.900705,2.6093,-0.8184,-2.7611,-0.8369,-1.7521,0.6736,40.4250,19.4250,12.0750,
5.921708,2.6093,-0.8184,-2.7611,-0.4210,-1.8361,0.4383,40.4250,19.4250,12.0750,
5.940861,2.6093,-0.8184,-2.7611,-0.4210,-1.8361,0.4383,40.4250,19.4250,12.0750,
5.943802,1.6284,-1.9857,-1.9294,-0.4210,-1.8361,0.4383,40.4250,19.4250,12.0750,
5.965604,1.6284,-1.9857,-1.9294,-0.4210,-1.8361,0.4383,42.3000,18.8250,7.3500,
5.991730,1.6284,-1.9857,-1.9294,0.3083,-1.3990,-0.5379,42.3000,18.8250,7.3500,
5.998794,1.6284,-1.9857,-1.9294,0.3083,-1.3990,-0.5379,42.3000,18.8250,7.3500,
6.003953,0.1822,0.1835,-0.5335,0.3083,-1.3990,-0.5379,42.3000,18.8250,7.3500,
6.039209,0.1822,0.1835,-0.5335,0.3083,-1.3990,-0.5379,41.6250,20.4750,2.8500,
6.043617,0.1822,0.1835,-0.5335,0.3083,-1.3990,-0.5379,41.6250,20.4750,2.8500,
6.045662,1.2702,0.4569,-1.2832,0.3083,-1.3990,-0.5379,41.6250,20.4750,2.8500,
6.062647,1.2702,0.4569,-1.2832,0.6399,-0.9172,-0.8530,41.6250,20.4750,2.8500,
6.093203,1.2702,0.4569,-1.2832,0.6399,-0.9172,-0.8530,41.6250,20.4750,2.8500,
6.097995,1.1494,0.5016,-0.7383,0.6399,-0.9172,-0.8530,41.6250,20.4750,2.8500,
6.108739,1.1494,0.5016,-0.7383,0.6399,-0.9172,-0.8530,40.4250,23.3250,-1.0500,
6.132107,1.1494,0.5016,-0.7383,0.4610,-0.6072,-0.8870,40.4250,23.3250,-1.0500,
6.142470,1.1494,0.5016,-0.7383,0.4610,-0.6072,-0.8870,40.4250,23.3250,-1.0500,
6.145731,0.7567,0.0349,-0.1048,0.4610,-0.6072,-0.8870,40.4250,23.3250,-1.0500,
6.176038,0.7567,0.0349,-0.1048,0.4610,-0.6072,-0.8870,38.9250,24.8250,-3.2250,
6.191264,0.7567,0.0349,-0.1048,0.4610,-0.6072,-0.8870,38.9250,24.8250,-3.2250,
6.194651,1.0993,0.1490,-0.1240,0.4610,-0.6072,-0.8870,38.9250,24.8250,-3.2250,
6.202312,1.0993,0.1490,-0.1240,0.0811,-0.6907,-0.8086,38.9250,24.8250,-3.2250,
6.239311,1.0993,0.1490,-0.1240,0.0811,-0.6907,-0.8086,38.9250,24.8250,-3.2250,
6.242524,0.1571,-0.8422,-0.6902,0.0811,-0.6907,-0.8086,38.9250,24.8250,-3.2250,
6.245136,0.1571,-0.8422,-0.6902,0.0811,-0.6907,-0.8086,36.3750,27.6750,-5.6250,
6.268874,0.1571,-0.8422,-0.6902,-0.9946,-0.3011,-0.8120,36.3750,27.6750,-5.6250,
6.288551,0.1571,-0.8422,-0.6902,-0.9946,-0.3011,-0.8120,36.3750,27.6750,-5.6250,
6.289927,0.6966,-2.5629,-1.6965,-0.9946,-0.3011,-0.8120,36.3750,27.6750,-5.6250,
6.315031,0.6966,-2.5629,-1.6965,-0.9946,-0.3011,-0.8120,34.2750,30.6750,-5.1750,
6.337992,0.6966,-2.5629,-1.6965,-1.8051,-0.2949,-0.6443,34.2750,30.6750,-5.1750,
6.340054,0.6966,-2.5629,-1.6965,-1.8051,-0.2949,-0.6443,34.2750,30.6750,-5.1750,
6.341370,-1.6275,-1.9630,-0.3042,-1.8051,-0.2949,-0.6443,34.2750,30.6750,-5.1750,
6.384507,-1.6275,-1.9630,-0.3042,-1.8051,-0.2949,-0.6443,32.1750,32.8500,-2.4750,
6.386705,-1.6275,-1.9630,-0.3042,-1.8051,-0.2949,-0.6443,32.1750,32.8500,-2.4750,
6.388125,-2.6825,-0.7765,-1.0293,-1.8051,-0.2949,-0.6443,32.1750,32.8500,-2.4750,
6.412003,-2.6825,-0.7765,-1.0293,-1.7557,-0.1956,-0.1414,32.1750,32.8500,-2.4750,
6.439856,-2.6825,-0.7765,-1.0293,-1.7557,-0.1956,-0.1414,32.1750,32.8500,-2.4750,
6.442317,-2.7909,-3.0835,-1.6907,-1.7557,-0.1956,-0.1414,32.1750,32.8500,-2.4750,
6.454840,-2.7909,-3.0835,-1.6907,-1.7557,-0.1956,-0.1414,32.0250,33.7500,1.4250,
6.479508,-2.7909,-3.0835,-1.6907,-0.8440,-1.1434,1.1052,32.0250,33.7500,1.4250,
6.489006,-2.7909,-3.0835,-1.6907,-0.8440,-1.1434,1.1052,32.0250,33.7500,1.4250,
6.492970,-2.2201,-1.5444,-1.0151,-0.8440,-1.1434,1.1052,32.0250,33.7500,1.4250,
6.524591,-2.2201,-1.5444,-1.0151,-0.8440,-1.1434,1.1052,33.7500,31.2750,0.1500,
6.539356,-2.2201,-1.5444,-1.0151,-0.8440,-1.1434,1.1052,33.7500,31.2750,0.1500,
6.544464,0.4121,-1.0554,-0.1968,-0.8440,-1.1434,1.1052,33.7500,31.2750,0.1500,
6.550136,0.4121,-1.0554,-0.1968,-0.3248,-1.1939,1.1684,33.7500,31.2750,0.1500,
6.586269,0.4121,-1.0554,-0.1968,-0.3248,-1.1939,1.1684,33.7500,31.2750,0.1500,
6.589532,2.7668,-0.0967,-0.2133,-0.3248,-1.1939,1.1684,33.7500,31.2750,0.1500,
6.595933,2.7668,-0.0967,-0.2133,-0.3248,-1.1939,1.1684,36.4500,28.8750,-1.6500,
6.615892,2.7668,-0.0967,-0.2133,-0.2549,0.0907,0.5591,36.4500,28.8750,-1.6500,
6.635107,2.7668,-0.0967,-0.2133,-0.2549,0.0907,0.5591,36.4500,28.8750,-1.6500,
6.638111,-0.2982,-0.0362,-0.6235,-0.2549,0.0907,0.5591,36.4500,28.8750,-1.6500,
6.664498,-0.2982,-0.0362,-0.6235,-0.2549,0.0907,0.5591,36.3750,27.1500,-2.0250,
6.688508,-0.2982,-0.0362,-0.6235,0.0354,0.8291,0.4395,36.3750,27.1500,-2.0250,
6.693759,-0.2982,-0.0362,-0.6235,0.0354,0.8291,0.4395,36.3750,27.1500,-2.0250,
6.696936,-0.9991,-0.5139,-1.4554,0.0354,0.8291,0.4395,36.3750,27.1500,-2.0250,
6.734605,-0.9991,-0.5139,-1.4554,0.0354,0.8291,0.4395,37.7250,26.6250,-0.3750,
6.739169,-0.9991,-0.5139,-1.4554,0.0354,0.8291,0.4395,37.7250,26.6250,-0.3750,
6.742862,0.0961,-0.1965,-1.1748,0.0354,0.8291,0.4395,37.7250,26.6250,-0.3750,
6.757783,0.0961,-0.1965,-1.1748,0.0652,1.0928,0.4430,37.7250,26.6250,-0.3750,
6.787315,0.0961,-0.1965,-1.1748,0.0652,1.0928,0.4430,37.7250,26.6250,-0.3750,
6.791248,-0.0543,-0.1168,-0.6977,0.0652,1.0928,0.4430,37.7250,26.6250,-0.3750,
6.805676,-0.0543,-0.1168,-0.6977,0.0652,1.0928,0.4430,38.4750,25.6500,1.6500,
6.826507,-0.0543,-0.1168,-0.6977,0.4389,0.7265,0.5094,38.4750,25.6500,1.6500,
6.835375,-0.0543,-0.1168,-0.6977,0.4389,0.7265,0.5094,38.4750,25.6500,1.6500,
6.836679,-0.9166,-0.9592,-1.0540,0.4389,0.7265,0.5094,38.4750,25.6500,1.6500,
6.875534,-0.9166,-0.9592,-1.0540,0.4389,0.7265,0.5094,38.7750,24.0750,3.1500,
6.885150,-0.9166,-0.9592,-1.0540,0.4389,0.7265,0.5094,38.7750,24.0750,3.1500,
6.889007,-0.3433,-2.0384,-0.5016,0.4389,0.7265,0.5094,38.7750,24.0750,3.1500,
6.899028,-0.3433,-2.0384,-0.5016,0.6793,0.5565,0.9263,38.7750,24.0750,3.1500,
6.938560,-0.3433,-2.0384,-0.5016,0.6793,0.5565,0.9263,38.7750,24.0750,3.1500,
6.941860,0.8086,-1.6979,-0.8555,0.6793,0.5565,0.9263,38.7750,24.0750,3.1500,
6.951533,0.8086,-1.6979,-0.8555,0.6793,0.5565,0.9263,40.0500,21.1500,2.8500,
6.967102,0.8086,-1.6979,-0.8555,1.2408,0.4481,0.8104,40.0500,21.1500,2.8500,
6.986838,0.8086,-1.6979,-0.8555,1.2408,0.4481,0.8104,40.0500,21.1500,2.8500,
6.988454,0.4447,-0.2687,-0.6349,1.2408,0.4481,0.8104,40.0500,21.1500,2.8500,
7.013973,0.4447,-0.2687,-0.6349,1.2408,0.4481,0.8104,41.4000,19.6500,2.4750,
7.042608,0.4447,-0.2687,-0.6349,1.6392,0.5994,0.7032,41.4000,19.6500,2.4750,
7.043777,0.4447,-0.2687,-0.6349,1.6392,0.5994,0.7032,41.4000,19.6500,2.4750,
7.044340,0.5126,1.0708,-0.8087,1.6392,0.5994,0.7032,41.4000,19.6500,2.4750,
7.084501,0.5126,1.0708,-0.8087,1.6392,0.5994,0.7032,42.6000,17.7750,1.6500,
7.088350,0.5126,1.0708,-0.8087,1.6392,0.5994,0.7032,42.6000,17.7750,1.6500,
7.091290,-0.6997,2.8682,-1.0256,1.6392,0.5994,0.7032,42.6000,17.7750,1.6500,
7.104729,-0.6997,2.8682,-1.0256,1.6470,0.4875,0.3900,42.6000,17.7750,1.6500,
7.134638,-0.6997,2.8682,-1.0256,1.6470,0.4875,0.3900,42.6000,17.7750,1.6500,
7.139500,-0.4521,3.1118,-0.4194,1.6470,0.4875,0.3900,42.6000,17.7750,1.6500,
7.154421,-0.4521,3.1118,-0.4194,1.6470,0.4875,0.3900,42.6000,16.0500,1.3500,
7.173696,-0.4521,3.1118,-0.4194,1.3820,0.7038,0.0921,42.6000,16.0500,1.3500,
7.183770,-0.4521,3.1118,-0.4194,1.3820,0.7038,0.0921,42.6000,16.0500,1.3500,
7.186449,0.3457,3.5684,-0.2784,1.3820,0.7038,0.0921,42.6000,16.0500,1.3500,
7.224122,0.3457,3.5684,-0.2784,1.3820,0.7038,0.0921,42.9000,16.1250,1.5750,
7.233759,0.3457,3.5684,-0.2784,1.3820,0.7038,0.0921,42.9000,16.1250,1.5750,
7.237274,-0.5672,4.0396,-1.4844,1.3820,0.7038,0.0921,42.9000,16.1250,1.5750,
7.242422,-0.5672,4.0396,-1.4844,1.2102,1.0172,-0.1217,42.9000,16.1250,1.5750,
7.281590,-0.5672,4.0396,-1.4844,1.2102,1.0172,-0.1217,42.9000,16.1250,1.5750,
7.285368,-0.5852,3.0706,-0.7443,1.2102,1.0172,-0.1217,42.9000,16.1250,1.5750,
7.293891,-0.5852,3.0706,-0.7443,1.2102,1.0172,-0.1217,41.6250,16.0500,3.4500,
7.312710,-0.5852,3.0706,-0.7443,0.7122,1.4805,-0.0199,41.6250,16.0500,3.4500,
7.334196,-0.5852,3.0706,-0.7443,0.7122,1.4805,-0.0199,41.6250,16.0500,3.4500,
7.336644,-1.0043,1.1102,-0.6035,0.7122,1.4805,-0.0199,41.6250,16.0500,3.4500,
7.364235,-1.0043,1.1102,-0.6035,0.7122,1.4805,-0.0199,41.5500,16.7250,6.9750,
7.384813,-1.0043,1.1102,-0.6035,0.7122,1.4805,-0.0199,41.5500,16.7250,6.9750,
7.388700,-0.7683,1.2579,-0.3385,0.7122,1.4805,-0.0199,41.5500,16.7250,6.9750,
7.391567,-0.7683,1.2579,-0.3385,0.6993,1.6365,0.1118,41.5500,16.7250,6.9750,
7.432900,-0.7683,1.2579,-0.3385,0.6993,1.6365,0.1118,41.6250,16.7250,10.3500,
7.437771,-0.7683,1.2579,-0.3385,0.6993,1.6365,0.1118,41.6250,16.7250,10.3500,
7.440690,0.2522,0.9723,-0.8209,0.6993,1.6365,0.1118,41.6250,16.7250,10.3500,
7.452595,0.2522,0.9723,-0.8209,0.4203,1.1711,0.0295,41.6250,16.7250,10.3500,
7.482174,0.2522,0.9723,-0.8209,0.4203,1.1711,0.0295,41.6250,16.7250,10.3500,
7.484912,-0.7107,1.1508,-0.9425,0.4203,1.1711,0.0295,41.6250,16.7250,10.3500,
7.500117,-0.7107,1.1508,-0.9425,0.4203,1.1711,0.0295,40.9500,16.8750,13.0500,
7.521075,-0.7107,1.1508,-0.9425,0.2114,1.0566,0.0328,40.9500,16.8750,13.0500,
7.532223,-0.7107,1.1508,-0.9425,0.2114,1.0566,0.0328,40.9500,16.8750,13.0500,
7.535367,-0.6770,0.3957,-0.2130,0.2114,1.0566,0.0328,40.9500,16.8750,13.0500,
7.564996,-0.6770,0.3957,-0.2130,0.2114,1.0566,0.0328,39.6000,16.6500,16.2750,
7.583197,-0.6770,0.3957,-0.2130,0.2114,1.0566,0.0328,39.6000,16.6500,16.2750,
7.587135,-1.1512,1.0094,-1.1875,0.2114,1.0566,0.0328,39.6000,16.6500,16.2750,
7.600429,-1.1512,1.0094,-1.1875,0.1379,0.6144,0.1921,39.6000,16.6500,16.2750,
7.633059,-1.1512,1.0094,-1.1875,0.1379,0.6144,0.1921,39.6000,16.6500,16.2750,
7.635182,-0.7219,-0.7392,0.2132,0.1379,0.6144,0.1921,39.6000,16.6500,16.2750,
7.638047,-0.7219,-0.7392,0.2132,0.1379,0.6144,0.1921,38.8500,16.6500,17.9250,
7.663171,-0.7219,-0.7392,0.2132,0.1703,0.2796,0.1649,38.8500,16.6500,17.9250,
7.681626,-0.7219,-0.7392,0.2132,0.1703,0.2796,0.1649,38.8500,16.6500,17.9250,
7.684142,0.1102,-0.3756,0.3320,0.1703,0.2796,0.1649,38.8500,16.6500,17.9250,
7.707310,0.1102,-0.3756,0.3320,0.1703,0.2796,0.1649,38.4000,16.0500,18.9750,
7.730847,0.1102,-0.3756,0.3320,0.0663,0.2642,0.1075,38.4000,16.0500,18.9750,
7.734390,0.1102,-0.3756,0.3320,0.0663,0.2642,0.1075,38.4000,16.0500,18.9750,
7.736069,0.0401,0.6547,-0.1477,0.0663,0.2642,0.1075,38.4000,16.0500,18.9750,
7.775611,0.0401,0.6547,-0.1477,0.0663,0.2642,0.1075,38.4750,15.7500,18.9750,
7.780299,0.0401,0.6547,-0.1477,0.0663,0.2642,0.1075,38.4750,15.7500,18.9750,
7.781990,-0.3975,0.7143,-0.4055,0.0663,0.2642,0.1075,38.4750,15.7500,18.9750,
7.799525,-0.3975,0.7143,-0.4055,-0.0739,0.2011,0.1365,38.4750,15.7500,18.9750,
7.829451,-0.3975,0.7143,-0.4055,-0.0739,0.2011,0.1365,38.4750,15.7500,18.9750,
7.833560,-0.3878,-0.2172,-0.5259,-0.0739,0.2011,0.1365,38.4750,15.7500,18.9750,
7.848151,-0.3878,-0.2172,-0.5259,-0.0739,0.2011,0.1365,38.4750,15.7500,19.9500,
7.867328,-0.3878,-0.2172,-0.5259,-0.1089,0.1003,0.1058,38.4750,15.7500,19.9500,
7.877284,-0.3878,-0.2172,-0.5259,-0.1089,0.1003,0.1058,38.4750,15.7500,19.9500,
7.881059,0.0863,-0.4317,0.0821,-0.1089,0.1003,0.1058,38.4750,15.7500,19.9500,
7.913755,0.0863,-0.4317,0.0821,-0.1089,0.1003,0.1058,38.5500,14.9250,20.6250,
7.928786,0.0863,-0.4317,0.0821,-0.1089,0.1003,0.1058,38.5500,14.9250,20.6250,
7.932490,-0.1936,0.1460,-0.0043,-0.1089,0.1003,0.1058,38.5500,14.9250,20.6250,
7.936119,-0.1936,0.1460,-0.0043,0.0367,0.1720,0.0730,38.5500,14.9250,20.6250,
7.977386,-0.1936,0.1460,-0.0043,0.0367,0.1720,0.0730,38.5500,14.9250,20.6250,
7.983377,0.3010,0.0922,-0.1688,0.0367,0.1720,0.0730,38.5500,14.9250,20.6250,
7.987084,0.3010,0.0922,-0.1688,0.0367,0.1720,0.0730,38.4000,14.5500,21.1500,
8.014202,0.3010,0.0922,-0.1688,-0.0202,0.2953,0.0857,38.4000,14.5500,21.1500,
8.035281,0.3010,0.0922,-0.1688,-0.0202,0.2953,0.0857,38.4000,14.5500,21.1500,
8.037374,-0.2338,-0.3081,-0.4416,-0.0202,0.2953,0.0857,38.4000,14.5500,21.1500,
8.054378,-0.2338,-0.3081,-0.4416,-0.0202,0.2953,0.0857,37.9500,14.4750,21.7500,
8.077636,-0.2338,-0.3081,-0.4416,-0.0765,0.2694,0.0089,37.9500,14.4750,21.7500,
8.080686,-0.2338,-0.3081,-0.4416,-0.0765,0.2694,0.0089,37.9500,14.4750,21.7500,
8.082741,-0.2494,0.1335,-0.6420,-0.0765,0.2694,0.0089,37.9500,14.4750,21.7500,
8.124442,-0.2494,0.1335,-0.6420,-0.0765,0.2694,0.0089,37.4250,14.0250,22.2750,
8.128857,-0.2494,0.1335,-0.6420,-0.0765,0.2694,0.0089,37.4250,14.0250,22.2750,
8.131724,-0.0573,0.1640,-0.1241,-0.0765,0.2694,0.0089,37.4250,14.0250,22.2750,
8.149727,-0.0573,0.1640,-0.1241,0.0554,0.2636,-0.0215,37.4250,14.0250,22.2750,
8.175619,-0.0573,0.1640,-0.1241,0.0554,0.2636,-0.0215,37.4250,14.0250,22.2750,
8.178518,0.3353,0.3724,-0.3414,0.0554,0.2636,-0.0215,37.4250,14.0250,22.2750,
8.201082,0.3353,0.3724,-0.3414,0.0554,0.2636,-0.0215,37.2000,14.0250,22.9500,
8.214898,0.3353,0.3724,-0.3414,-0.0026,0.3664,-0.0725,37.2000,14.0250,22.9500,
8.224022,0.3353,0.3724,-0.3414,-0.0026,0.3664,-0.0725,37.2000,14.0250,22.9500,
8.225641,0.0585,-0.0143,-0.0307,-0.0026,0.3664,-0.0725,37.2000,14.0250,22.9500,
8.264207,0.0585,-0.0143,-0.0307,-0.0026,0.3664,-0.0725,36.8250,15.2250,23.3250,
8.279791,0.0585,-0.0143,-0.0307,-0.0026,0.3664,-0.0725,36.8250,15.2250,23.3250,
8.284622,-0.7327,-0.3459,-0.5776,-0.0026,0.3664,-0.0725,36.8250,15.2250,23.3250,
8.290401,-0.7327,-0.3459,-0.5776,0.0154,0.3318,-0.1200,36.8250,15.2250,23.3250,
8.331355,-0.7327,-0.3459,-0.5776,0.0154,0.3318,-0.1200,36.8250,15.2250,23.3250,
8.336825,-0.3965,-0.1454,-0.3968,0.0154,0.3318,-0.1200,36.8250,15.2250,23.3250,
8.340095,-0.3965,-0.1454,-0.3968,0.0154,0.3318,-0.1200,35.7750,15.2250,24.4500,
8.357065,-0.3965,-0.1454,-0.3968,0.0999,0.0629,-0.1125,35.7750,15.2250,24.4500,
8.386313,-0.3965,-0.1454,-0.3968,0.0999,0.0629,-0.1125,35.7750,15.2250,24.4500,
8.389175,-0.1012,0.0649,-0.2201,0.0999,0.0629,-0.1125,35.7750,15.2250,24.4500,
8.404166,-0.1012,0.0649,-0.2201,0.0999,0.0629,-0.1125,35.6250,15.4500,24.5250,
8.425197,-0.1012,0.0649,-0.2201,0.1370,-0.0046,-0.0615,35.6250,15.4500,24.5250,
8.427731,-0.1012,0.0649,-0.2201,0.1370,-0.0046,-0.0615,35.6250,15.4500,24.5250,
8.429028,-0.3172,-0.2564,-0.3086,0.1370,-0.0046,-0.0615,35.6250,15.4500,24.5250,
8.475786,-0.3172,-0.2564,-0.3086,0.1370,-0.0046,-0.0615,35.5500,15.3750,24.1500,
8.482802,-0.3172,-0.2564,-0.3086,0.1370,-0.0046,-0.0615,35.5500,15.3750,24.1500,
8.486924,-0.3515,-0.2026,-0.1794,0.1370,-0.0046,-0.0615,35.5500,15.3750,24.1500,
8.494648,-0.3515,-0.2026,-0.1794,0.0915,-0.0527,-0.0089,35.5500,15.3750,24.1500,
8.523156,-0.3515,-0.2026,-0.1794,0.0915,-0.0527,-0.0089,35.5500,15.3750,24.1500,
8.526536,0.0338,0.1942,-0.1629,0.0915,-0.0527,-0.0089,35.5500,15.3750,24.1500,
8.548756,0.0338,0.1942,-0.1629,0.0915,-0.0527,-0.0089,36.0000,15.7500,23.7750,
8.562125,0.0338,0.1942,-0.1629,0.0855,-0.1306,-0.0461,36.0000,15.7500,23.7750,
8.572151,0.0338,0.1942,-0.1629,0.0855,-0.1306,-0.0461,36.0000,15.7500,23.7750,
8.574217,-0.0248,0.1211,-0.0199,0.0855,-0.1306,-0.0461,36.0000,15.7500,23.7750,
8.615129,-0.0248,0.1211,-0.0199,0.0855,-0.1306,-0.0461,36.2250,16.3500,23.5500,
8.620718,-0.0248,0.1211,-0.0199,0.0855,-0.1306,-0.0461,36.2250,16.3500,23.5500,
8.623708,0.0672,0.0245,-0.1208,0.0855,-0.1306,-0.0461,36.2250,16.3500,23.5500,
8.635202,0.0672,0.0245,-0.1208,0.1217,-0.1814,-0.0860,36.2250,16.3500,23.5500,
8.674344,0.0672,0.0245,-0.1208,0.1217,-0.1814,-0.0860,36.2250,16.3500,23.5500,
8.677462,-0.1313,0.0543,0.0609,0.1217,-0.1814,-0.0860,36.2250,16.3500,23.5500,
8.683947,-0.1313,0.0543,0.0609,0.1217,-0.1814,-0.0860,36.0000,16.3500,23.2500,
8.704005,-0.1313,0.0543,0.0609,0.1119,-0.2213,-0.0951,36.0000,16.3500,23.2500,
8.723432,-0.1313,0.0543,0.0609,0.1119,-0.2213,-0.0951,36.0000,16.3500,23.2500,
8.726153,-0.2709,0.1284,-0.1400,0.1119,-0.2213,-0.0951,36.0000,16.3500,23.2500,
8.754412,-0.2709,0.1284,-0.1400,0.1119,-0.2213,-0.0951,36.2250,16.9500,22.6500,
8.772670,-0.2709,0.1284,-0.1400,0.1095,-0.2272,-0.0308,36.2250,16.9500,22.6500,
8.776488,-0.2709,0.1284,-0.1400,0.1095,-0.2272,-0.0308,36.2250,16.9500,22.6500,
8.778806,-0.1281,0.0342,-0.0584,0.1095,-0.2272,-0.0308,36.2250,16.9500,22.6500,
8.822290,-0.1281,0.0342,-0.0584,0.1095,-0.2272,-0.0308,36.2250,16.9500,22.6500,
8.827006,-0.0884,0.0178,0.0203,0.1095,-0.2272,-0.0308,36.2250,16.9500,22.6500,
8.829230,-0.0884,0.0178,0.0203,0.1095,-0.2272,-0.0308,36.9750,17.7750,22.0500,
8.841415,-0.0884,0.0178,0.0203,0.0889,-0.1745,-0.0325,36.9750,17.7750,22.0500,
8.871004,-0.0884,0.0178,0.0203,0.0889,-0.1745,-0.0325,36.9750,17.7750,22.0500,
8.873637,-0.1346,-0.1002,0.0980,0.0889,-0.1745,-0.0325,36.9750,17.7750,22.0500,
8.895176,-0.1346,-0.1002,0.0980,0.0889,-0.1745,-0.0325,36.9000,17.3250,21.2250,
8.914531,-0.1346,-0.1002,0.0980,0.0715,-0.1704,0.0356,36.9000,17.3250,21.2250,
8.924359,-0.1346,-0.1002,0.0980,0.0715,-0.1704,0.0356,36.9000,17.3250,21.2250,
8.926383,-0.0459,0.2303,-0.1195,0.0715,-0.1704,0.0356,36.9000,17.3250,21.2250,
8.959047,-0.0459,0.2303,-0.1195,0.0715,-0.1704,0.0356,37.2000,16.8750,21.1500,
8.974183,-0.0459,0.2303,-0.1195,0.0715,-0.1704,0.0356,37.2000,16.8750,21.1500,
8.977395,-0.1330,0.1767,-0.0518,0.0715,-0.1704,0.0356,37.2000,16.8750,21.1500,
8.990885,-0.1330,0.1767,-0.0518,0.0530,-0.1779,0.0363,37.2000,16.8750,21.1500,
9.022085,-0.1330,0.1767,-0.0518,0.0530,-0.1779,0.0363,37.2000,16.8750,21.1500,
9.025361,-0.1287,0.0420,-0.0195,0.0530,-0.1779,0.0363,37.2000,16.8750,21.1500,
9.027448,-0.1287,0.0420,-0.0195,0.0530,-0.1779,0.0363,37.3500,17.8500,20.5500,
9.051026,-0.1287,0.0420,-0.0195,0.0273,-0.1629,0.0038,37.3500,17.8500,20.5500,
9.070732,-0.1287,0.0420,-0.0195,0.0273,-0.1629,0.0038,37.3500,17.8500,20.5500,
9.072707,-0.1485,-0.0652,0.0521,0.0273,-0.1629,0.0038,37.3500,17.8500,20.5500,
9.095484,-0.1485,-0.0652,0.0521,0.0273,-0.1629,0.0038,37.6500,17.4750,20.8500,
9.121048,-0.1485,-0.0652,0.0521,0.0881,-0.1225,0.0131,37.6500,17.4750,20.8500,
9.126212,-0.1485,-0.0652,0.0521,0.0881,-0.1225,0.0131,37.6500,17.4750,20.8500,
9.129158,-0.2621,-0.0035,-0.1798,0.0881,-0.1225,0.0131,37.6500,17.4750,20.8500,
9.170212,-0.2621,-0.0035,-0.1798,0.0881,-0.1225,0.0131,37.5750,16.9500,19.8750,
9.176842,-0.2621,-0.0035,-0.1798,0.0881,-0.1225,0.0131,37.5750,16.9500,19.8750,
9.181178,0.0016,0.1208,-0.1398,0.0881,-0.1225,0.0131,37.5750,16.9500,19.8750,
9.194410,0.0016,0.1208,-0.1398,0.0224,-0.0276,0.0098,37.5750,16.9500,19.8750,
9.222044,0.0016,0.1208,-0.1398,0.0224,-0.0276,0.0098,37.5750,16.9500,19.8750,
9.225745,-0.0443,0.1117,-0.1455,0.0224,-0.0276,0.0098,37.5750,16.9500,19.8750,
9.237357,-0.0443,0.1117,-0.1455,0.0224,-0.0276,0.0098,38.0250,17.8500,19.8750,
9.261279,-0.0443,0.1117,-0.1455,-0.0037,0.0586,-0.0509,38.0250,17.8500,19.8750,
9.272141,-0.0443,0.1117,-0.1455,-0.0037,0.0586,-0.0509,38.0250,17.8500,19.8750,
9.275699,-0.0935,-0.0736,-0.1967,-0.0037,0.0586,-0.0509,38.0250,17.8500,19.8750,
9.306235,-0.0935,-0.0736,-0.1967,-0.0037,0.0586,-0.0509,37.4250,17.2500,19.9500,
9.320385,-0.0935,-0.0736,-0.1967,-0.0037,0.0586,-0.0509,37.4250,17.2500,19.9500,
9.324995,-0.2671,0.0139,-0.0439,-0.0037,0.0586,-0.0509,37.4250,17.2500,19.9500,
9.335327,-0.2671,0.0139,-0.0439,-0.0391,0.1041,-0.0444,37.4250,17.2500,19.9500,
9.369067,-0.2671,0.0139,-0.0439,-0.0391,0.1041,-0.0444,37.4250,17.2500,19.9500,
9.374503,-0.1612,-0.0406,0.1523,-0.0391,0.1041,-0.0444,37.4250,17.2500,19.9500,
9.377921,-0.1612,-0.0406,0.1523,-0.0391,0.1041,-0.0444,37.1250,18.1500,20.0250,
9.400444,-0.1612,-0.0406,0.1523,0.0260,0.0579,-0.0509,37.1250,18.1500,20.0250,
9.417742,-0.1612,-0.0406,0.1523,0.0260,0.0579,-0.0509,37.1250,18.1500,20.0250,
9.419640,-0.2059,-0.0881,-0.0581,0.0260,0.0579,-0.0509,37.1250,18.1500,20.0250,
9.444040,-0.2059,-0.0881,-0.0581,0.0260,0.0579,-0.0509,36.5250,18.0750,20.0250,
9.467564,-0.2059,-0.0881,-0.0581,0.0443,0.0614,0.0032,36.5250,18.0750,20.0250,
9.471439,-0.2059,-0.0881,-0.0581,0.0443,0.0614,0.0032,36.5250,18.0750,20.0250,
9.473099,-0.1260,-0.0802,0.0793,0.0443,0.0614,0.0032,36.5250,18.0750,20.0250,
9.514917,-0.1260,-0.0802,0.0793,0.0443,0.0614,0.0032,37.2750,18.1500,19.6500,
9.521065,-0.1260,-0.0802,0.0793,0.0443,0.0614,0.0032,37.2750,18.1500,19.6500,
9.524506,-0.1915,-0.0482,-0.1770,0.0443,0.0614,0.0032,37.2750,18.1500,19.6500,
9.540405,-0.1915,-0.0482,-0.1770,0.0695,0.0235,0.0064,37.2750,18.1500,19.6500,
9.570625,-0.1915,-0.0482,-0.1770,0.0695,0.0235,0.0064,37.2750,18.1500,19.6500,
9.576003,-0.0943,0.0832,-0.2115,0.0695,0.0235,0.0064,37.2750,18.1500,19.6500,
9.587758,-0.0943,0.0832,-0.2115,0.0695,0.0235,0.0064,36.9750,18.3750,20.4750,
9.608930,-0.0943,0.0832,-0.2115,-0.0084,-0.0231,-0.0150,36.9750,18.3750,20.4750,
9.618109,-0.0943,0.0832,-0.2115,-0.0084,-0.0231,-0.0150,36.9750,18.3750,20.4750,
9.619717,-0.1337,0.0199,0.0556,-0.0084,-0.0231,-0.0150,36.9750,18.3750,20.4750,
9.653630,-0.1337,0.0199,0.0556,-0.0084,-0.0231,-0.0150,37.0500,18.0750,20.3250,
9.667684,-0.1337,0.0199,0.0556,-0.0084,-0.0231,-0.0150,37.0500,18.0750,20.3250,
9.670833,-0.1417,-0.0873,0.1804,-0.0084,-0.0231,-0.0150,37.0500,18.0750,20.3250,
9.683810,-0.1417,-0.0873,0.1804,0.0250,-0.0449,0.0000,37.0500,18.0750,20.3250,
9.717207,-0.1417,-0.0873,0.1804,0.0250,-0.0449,0.0000,37.0500,18.0750,20.3250,
9.721999,-0.0619,0.0668,-0.2339,0.0250,-0.0449,0.0000,37.0500,18.0750,20.3250,
9.725385,-0.0619,0.0668,-0.2339,0.0250,-0.0449,0.0000,37.0500,17.8500,19.9500,
9.746687,-0.0619,0.0668,-0.2339,0.0066,-0.0530,-0.0061,37.0500,17.8500,19.9500,
9.766758,-0.0619,0.0668,-0.2339,0.0066,-0.0530,-0.0061,37.0500,17.8500,19.9500,
9.771100,-0.0662,0.3442,-0.1142,0.0066,-0.0530,-0.0061,37.0500,17.8500,19.9500,
9.794779,-0.0662,0.3442,-0.1142,0.0066,-0.0530,-0.0061,36.6000,18.1500,19.5750,
9.818902,-0.0662,0.3442,-0.1142,0.0165,-0.0796,-0.0647,36.6000,18.1500,19.5750,
9.822100,-0.0662,0.3442,-0.1142,0.0165,-0.0796,-0.0647,36.6000,18.1500,19.5750,
9.824015,-0.2009,0.1550,-0.0431,0.0165,-0.0796,-0.0647,36.6000,18.1500,19.5750,
9.864734,-0.2009,0.1550,-0.0431,0.0165,-0.0796,-0.0647,37.1250,18.3750,19.1250,
9.869282,-0.2009,0.1550,-0.0431,0.0165,-0.0796,-0.0647,37.1250,18.3750,19.1250,
9.872203,-0.1710,0.0160,-0.0355,0.0165,-0.0796,-0.0647,37.1250,18.3750,19.1250,
9.887951,-0.1710,0.0160,-0.0355,0.0444,-0.1063,-0.0583,37.1250,18.3750,19.1250,
9.916649,-0.1710,0.0160,-0.0355,0.0444,-0.1063,-0.0583,37.1250,18.3750,19.1250,
9.919751,-0.2020,0.1578,-0.4915,0.0444,-0.1063,-0.0583,37.1250,18.3750,19.1250,
9.934310,-0.2020,0.1578,-0.4915,0.0444,-0.1063,-0.0583,37.2750,18.7500,19.0500,
9.955887,-0.2020,0.1578,-0.4915,-0.0790,-0.0580,-0.0205,37.2750,18.7500,19.0500,
9.965447,-0.2020,0.1578,-0.4915,-0.0790,-0.0580,-0.0205,37.2750,18.7500,19.0500,
9.967967,-0.2029,-0.0113,0.1552,-0.0790,-0.0580,-0.0205,37.2750,18.7500,19.0500,
10.004596,-0.2029,-0.0113,0.1552,-0.0790,-0.0580,-0.0205,36.9750,18.4500,18.7500,
10.014640,-0.2029,-0.0113,0.1552,-0.0790,-0.0580,-0.0205,36.9750,18.4500,18.7500,
10.018136,-0.0785,-0.0818,0.0284,-0.0790,-0.0580,-0.0205,36.9750,18.4500,18.7500,
10.032866,-0.0785,-0.0818,0.0284,-0.0782,-0.1161,-0.0220,36.9750,18.4500,18.7500,
10.068384,-0.0785,-0.0818,0.0284,-0.0782,-0.1161,-0.0220,36.9750,18.4500,18.7500,
10.074031,-0.1704,0.0069,0.0412,-0.0782,-0.1161,-0.0220,36.9750,18.4500,18.7500,
10.077282,-0.1704,0.0069,0.0412,-0.0782,-0.1161,-0.0220,37.3500,18.2250,19.2750,
10.097762,-0.1704,0.0069,0.0412,-0.0686,-0.0779,-0.0092,37.3500,18.2250,19.2750,
10.117140,-0.1704,0.0069,0.0412,-0.0686,-0.0779,-0.0092,37.3500,18.2250,19.2750,
10.120310,-0.0779,-0.0177,-0.0051,-0.0686,-0.0779,-0.0092,37.3500,18.2250,19.2750,
10.143730,-0.0779,-0.0177,-0.0051,-0.0686,-0.0779,-0.0092,37.5000,18.7500,18.7500,
10.166289,-0.0779,-0.0177,-0.0051,-0.0076,-0.0518,-0.0192,37.5000,18.7500,18.7500,
10.169124,-0.0779,-0.0177,-0.0051,-0.0076,-0.0518,-0.0192,37.5000,18.7500,18.7500,
10.171100,-0.0696,0.0927,-0.1381,-0.0076,-0.0518,-0.0192,37.5000,18.7500,18.7500,
10.215437,-0.0696,0.0927,-0.1381,-0.0076,-0.0518,-0.0192,37.7250,18.4500,18.7500,
10.221778,-0.0696,0.0927,-0.1381,-0.0076,-0.0518,-0.0192,37.7250,18.4500,18.7500,
10.225683,0.0170,-0.0982,0.0127,-0.0076,-0.0518,-0.0192,37.7250,18.4500,18.7500,
10.238052,0.0170,-0.0982,0.0127,0.0452,-0.0079,-0.0333,37.7250,18.4500,18.7500,
10.263914,0.0170,-0.0982,0.0127,0.0452,-0.0079,-0.0333,37.7250,18.4500,18.7500,
10.267718,0.0021,-0.1637,-0.0375,0.0452,-0.0079,-0.0333,37.7250,18.4500,18.7500,
10.284313,0.0021,-0.1637,-0.0375,0.0452,-0.0079,-0.0333,38.2500,18.6750,18.5250,
10.307879,0.0021,-0.1637,-0.0375,0.1155,0.0699,-0.0301,38.2500,18.6750,18.5250,
10.318384,0.0021,-0.1637,-0.0375,0.1155,0.0699,-0.0301,38.2500,18.6750,18.5250,
10.320390,-0.0563,0.1770,-0.3579,0.1155,0.0699,-0.0301,38.2500,18.6750,18.5250,
10.354562,-0.0563,0.1770,-0.3579,0.1155,0.0699,-0.0301,36.9750,18.8250,18.1500,
10.366797,-0.0563,0.1770,-0.3579,0.1155,0.0699,-0.0301,36.9750,18.8250,18.1500,
10.369137,-0.1554,-0.1152,0.0086,0.1155,0.0699,-0.0301,36.9750,18.8250,18.1500,
10.381118,-0.1554,-0.1152,0.0086,0.0209,0.0832,-0.0444,36.9750,18.8250,18.1500,
10.415388,-0.1554,-0.1152,0.0086,0.0209,0.0832,-0.0444,36.9750,18.8250,18.1500,
10.418168,-0.1085,0.2121,-0.2551,0.0209,0.0832,-0.0444,36.9750,18.8250,18.1500,
10.423771,-0.1085,0.2121,-0.2551,0.0209,0.0832,-0.0444,37.4250,19.4250,18.5250,
