
time,ax,ay,az,wx,wy,wz,Bx,By,Bz,
0.071517,0.0000,0.0000,0.0000,0.0000,0.0000,0.0000,0.0000,0.0000,0.0000,
0.105517,0.0000,0.0000,0.0000,0.0000,0.0000,0.0000,14.3625,3.6750,-40.5188,
0.133399,0.0000,0.0000,0.0000,0.0000,0.0000,0.0000,14.3625,3.6750,-40.5188,
0.135540,0.0000,0.0000,0.0000,0.0144,-0.0193,-0.0296,14.3625,3.6750,-40.5188,
0.166518,0.0000,0.0000,0.0000,0.0144,-0.0193,-0.0296,14.6063,3.3375,-40.0875,
0.174965,0.0000,0.0000,0.0000,0.0144,-0.0193,-0.0296,14.6063,3.3375,-40.0875,
0.194224,0.0000,0.0000,0.0000,0.0041,0.0101,-0.0012,14.6063,3.3375,-40.0875,
0.195170,0.0000,0.0000,0.0000,0.0041,0.0101,-0.0012,14.6063,3.3375,-40.0875,
0.226584,0.0000,0.0000,0.0000,0.0041,0.0101,-0.0012,14.2688,4.0688,-37.8750,
0.233776,0.0912,-0.0395,-0.0048,0.0041,0.0101,-0.0012,14.2688,4.0688,-37.8750,
0.257622,0.0912,-0.0395,-0.0048,0.0013,0.0080,-0.0001,14.2688,4.0688,-37.8750,
0.258431,0.0912,-0.0395,-0.0048,0.0013,0.0080,-0.0001,14.2688,4.0688,-37.8750,
0.286129,0.0912,-0.0395,-0.0048,0.0013,0.0080,-0.0001,14.2500,3.9750,-37.8375,
0.314490,0.0912,-0.0395,-0.0048,0.0052,0.0024,-0.0029,14.2500,3.9750,-37.8375,
0.315060,0.0399,-0.0082,0.0011,0.0052,0.0024,-0.0029,14.2500,3.9750,-37.8375,
0.315557,0.0399,-0.0082,0.0011,0.0052,0.0024,-0.0029,14.2500,3.9750,-37.8375,
0.347162,0.0399,-0.0082,0.0011,0.0052,0.0024,-0.0029,14.1938,3.9188,-37.8000,
0.375989,0.0399,-0.0082,0.0011,0.0056,0.0027,-0.0037,14.1938,3.9188,-37.8000,
0.377867,0.0170,-0.0013,-0.0018,0.0056,0.0027,-0.0037,14.1938,3.9188,-37.8000,
0.379381,0.0170,-0.0013,-0.0018,0.0056,0.0027,-0.0037,14.1938,3.9188,-37.8000,
0.406113,0.0170,-0.0013,-0.0018,0.0056,0.0027,-0.0037,14.2313,3.9938,-37.8188,
0.437233,0.0170,-0.0013,-0.0018,-0.0008,0.0031,-0.0016,14.2313,3.9938,-37.8188,
0.438033,0.0170,-0.0013,-0.0018,-0.0008,0.0031,-0.0016,14.2313,3.9938,-37.8188,
0.438851,0.0208,-0.0050,-0.0003,-0.0008,0.0031,-0.0016,14.2313,3.9938,-37.8188,
0.466100,0.0208,-0.0050,-0.0003,-0.0008,0.0031,-0.0016,14.1188,3.9563,-37.8750,
0.497837,0.0208,-0.0050,-0.0003,-0.0008,0.0031,-0.0016,14.1188,3.9563,-37.8750,
0.499081,0.0208,-0.0050,-0.0003,0.0112,0.0137,-0.0019,14.1188,3.9563,-37.8750,
0.500047,0.0181,-0.0130,-0.0035,0.0112,0.0137,-0.0019,14.1188,3.9563,-37.8750,
0.528806,0.0181,-0.0130,-0.0035,0.0112,0.0137,-0.0019,14.1000,3.9375,-37.8750,
0.559109,0.0181,-0.0130,-0.0035,0.0073,-0.0027,-0.0101,14.1000,3.9375,-37.8750,
0.559892,0.0181,-0.0130,-0.0035,0.0073,-0.0027,-0.0101,14.1000,3.9375,-37.8750,
0.579076,0.0134,-0.0014,-0.0194,0.0073,-0.0027,-0.0101,14.1000,3.9375,-37.8750,
0.586282,0.0134,-0.0014,-0.0194,0.0073,-0.0027,-0.0101,14.1375,3.8813,-37.6688,
0.620073,0.0134,-0.0014,-0.0194,0.0073,-0.0027,-0.0101,14.1375,3.8813,-37.6688,
0.621008,0.0134,-0.0014,-0.0194,-0.0061,-0.0168,-0.0204,14.1375,3.8813,-37.6688,
0.640018,-0.0489,0.0076,0.0241,-0.0061,-0.0168,-0.0204,14.1375,3.8813,-37.6688,
0.648113,-0.0489,0.0076,0.0241,-0.0061,-0.0168,-0.0204,14.0625,3.8625,-37.5000,
0.680870,-0.0489,0.0076,0.0241,-0.0123,-0.0178,-0.0264,14.0625,3.8625,-37.5000,
0.682066,-0.0489,0.0076,0.0241,-0.0123,-0.0178,-0.0264,14.0625,3.8625,-37.5000,
0.700531,-0.0136,0.0121,0.0119,-0.0123,-0.0178,-0.0264,14.0625,3.8625,-37.5000,
0.707786,-0.0136,0.0121,0.0119,-0.0123,-0.0178,-0.0264,14.0438,3.8063,-37.5375,
0.741550,-0.0136,0.0121,0.0119,-0.0274,-0.0285,-0.0336,14.0438,3.8063,-37.5375,
0.742641,-0.0136,0.0121,0.0119,-0.0274,-0.0285,-0.0336,14.0438,3.8063,-37.5375,
0.766453,-0.0136,0.0121,0.0119,-0.0274,-0.0285,-0.0336,14.0625,3.7688,-37.4250,
0.781764,-0.0249,0.0047,0.0268,-0.0274,-0.0285,-0.0336,14.0625,3.7688,-37.4250,
0.802066,-0.0249,0.0047,0.0268,-0.0253,-0.0115,-0.0353,14.0625,3.7688,-37.4250,
0.803510,-0.0249,0.0047,0.0268,-0.0253,-0.0115,-0.0353,14.0625,3.7688,-37.4250,
0.826460,-0.0249,0.0047,0.0268,-0.0253,-0.0115,-0.0353,14.1375,3.9375,-37.4813,
0.843442,0.0066,-0.0147,-0.0025,-0.0253,-0.0115,-0.0353,14.1375,3.9375,-37.4813,
0.864093,0.0066,-0.0147,-0.0025,-0.0253,-0.0115,-0.0353,14.1375,3.9375,-37.4813,
0.865955,0.0066,-0.0147,-0.0025,0.0077,-0.0016,-0.0459,14.1375,3.9375,-37.4813,
0.886459,0.0066,-0.0147,-0.0025,0.0077,-0.0016,-0.0459,14.1000,3.8438,-37.4062,
0.905136,0.0178,-0.0355,-0.0520,0.0077,-0.0016,-0.0459,14.1000,3.8438,-37.4062,
0.924122,0.0178,-0.0355,-0.0520,0.0077,-0.0016,-0.0459,14.1000,3.8438,-37.4062,
0.924916,0.0178,-0.0355,-0.0520,0.0425,-0.0146,-0.0658,14.1000,3.8438,-37.4062,
0.947628,0.0178,-0.0355,-0.0520,0.0425,-0.0146,-0.0658,14.0625,3.9000,-37.4062,
0.965380,-0.0557,-0.0123,-0.0637,0.0425,-0.0146,-0.0658,14.0625,3.9000,-37.4062,
0.985980,-0.0557,-0.0123,-0.0637,0.0521,-0.0140,-0.0666,14.0625,3.9000,-37.4062,
0.987343,-0.0557,-0.0123,-0.0637,0.0521,-0.0140,-0.0666,14.0625,3.9000,-37.4062,
1.006424,-0.0557,-0.0123,-0.0637,0.0521,-0.0140,-0.0666,14.1938,4.0500,-37.2750,
1.052819,-0.0557,-0.0123,-0.0637,0.0397,0.0099,-0.0513,14.1938,4.0500,-37.2750,
1.054405,-0.0557,-0.0123,-0.0637,0.0397,0.0099,-0.0513,14.1938,4.0500,-37.2750,
1.057909,0.0082,0.0123,-0.0331,0.0397,0.0099,-0.0513,14.1938,4.0500,-37.2750,
1.066511,0.0082,0.0123,-0.0331,0.0397,0.0099,-0.0513,14.0438,3.9750,-37.5000,
1.106615,0.0082,0.0123,-0.0331,0.0186,0.0180,-0.0410,14.0438,3.9750,-37.5000,
1.107743,0.0321,-0.0014,-0.0127,0.0186,0.0180,-0.0410,14.0438,3.9750,-37.5000,
1.109822,0.0321,-0.0014,-0.0127,0.0186,0.0180,-0.0410,14.0438,3.9750,-37.5000,
1.125612,0.0321,-0.0014,-0.0127,0.0186,0.0180,-0.0410,14.0438,3.9563,-37.5000,
1.168465,0.0321,-0.0014,-0.0127,0.0105,0.0244,-0.0325,14.0438,3.9563,-37.5000,
1.169982,0.0136,0.0180,0.0216,0.0105,0.0244,-0.0325,14.0438,3.9563,-37.5000,
1.171352,0.0136,0.0180,0.0216,0.0105,0.0244,-0.0325,14.0438,3.9563,-37.5000,
1.186127,0.0136,0.0180,0.0216,0.0105,0.0244,-0.0325,13.9500,4.0312,-37.5000,
1.229283,0.0136,0.0180,0.0216,0.0158,-0.0225,-0.0474,13.9500,4.0312,-37.5000,
1.230477,0.0136,0.0180,0.0216,0.0158,-0.0225,-0.0474,13.9500,4.0312,-37.5000,
1.246109,0.0136,0.0180,0.0216,0.0158,-0.0225,-0.0474,13.8750,4.0875,-37.6125,
1.247762,0.0018,-0.0121,-0.0219,0.0158,-0.0225,-0.0474,13.8750,4.0875,-37.6125,
1.290711,0.0018,-0.0121,-0.0219,-0.0059,0.0162,-0.0250,13.8750,4.0875,-37.6125,
1.291848,0.0018,-0.0121,-0.0219,-0.0059,0.0162,-0.0250,13.8750,4.0875,-37.6125,
1.306335,0.0018,-0.0121,-0.0219,-0.0059,0.0162,-0.0250,13.8375,4.0875,-37.4438,
1.310098,-0.0344,0.0222,0.0188,-0.0059,0.0162,-0.0250,13.8375,4.0875,-37.4438,
1.351278,-0.0344,0.0222,0.0188,-0.0250,0.0471,-0.0019,13.8375,4.0875,-37.4438,
1.352454,-0.0344,0.0222,0.0188,-0.0250,0.0471,-0.0019,13.8375,4.0875,-37.4438,
1.366693,-0.0344,0.0222,0.0188,-0.0250,0.0471,-0.0019,13.7625,4.0500,-37.5188,
1.370078,0.1134,-0.0050,0.0294,-0.0250,0.0471,-0.0019,13.7625,4.0500,-37.5188,
1.411704,0.1134,-0.0050,0.0294,-0.0250,0.0471,-0.0019,13.7625,4.0500,-37.5188,
1.412423,0.1134,-0.0050,0.0294,-0.0165,0.1142,0.0095,13.7625,4.0500,-37.5188,
1.425947,0.1134,-0.0050,0.0294,-0.0165,0.1142,0.0095,13.7813,3.9938,-37.4625,
1.431359,0.1480,-0.0284,-0.0235,-0.0165,0.1142,0.0095,13.7813,3.9938,-37.4625,
1.472378,0.1480,-0.0284,-0.0235,-0.0242,0.1309,0.0184,13.7813,3.9938,-37.4625,
1.473490,0.1480,-0.0284,-0.0235,-0.0242,0.1309,0.0184,13.7813,3.9938,-37.4625,
1.486941,0.1480,-0.0284,-0.0235,-0.0242,0.1309,0.0184,13.6688,3.8250,-37.3500,
1.512733,0.1039,-0.0272,0.0162,-0.0242,0.1309,0.0184,13.6688,3.8250,-37.3500,
1.532820,0.1039,-0.0272,0.0162,-0.0423,0.1823,0.0201,13.6688,3.8250,-37.3500,
1.533981,0.1039,-0.0272,0.0162,-0.0423,0.1823,0.0201,13.6688,3.8250,-37.3500,
1.545577,0.1039,-0.0272,0.0162,-0.0423,0.1823,0.0201,13.9125,4.0312,-37.1250,
1.574648,0.0203,0.0022,0.0354,-0.0423,0.1823,0.0201,13.9125,4.0312,-37.1250,
1.596013,0.0203,0.0022,0.0354,-0.0357,0.0397,-0.0325,13.9125,4.0312,-37.1250,
1.597332,0.0203,0.0022,0.0354,-0.0357,0.0397,-0.0325,13.9125,4.0312,-37.1250,
1.605886,0.0203,0.0022,0.0354,-0.0357,0.0397,-0.0325,13.9500,4.1063,-37.2563,
1.635980,-0.3154,0.0533,0.0590,-0.0357,0.0397,-0.0325,13.9500,4.1063,-37.2563,
1.655654,-0.3154,0.0533,0.0590,-0.0097,-0.0001,-0.0573,13.9500,4.1063,-37.2563,
1.656566,-0.3154,0.0533,0.0590,-0.0097,-0.0001,-0.0573,13.9500,4.1063,-37.2563,
1.666924,-0.3154,0.0533,0.0590,-0.0097,-0.0001,-0.0573,14.0813,4.1250,-37.2938,
1.715390,-0.3154,0.0533,0.0590,0.0212,0.0389,-0.0605,14.0813,4.1250,-37.2938,
1.716181,-0.0808,0.0113,-0.0272,0.0212,0.0389,-0.0605,14.0813,4.1250,-37.2938,
1.717268,-0.0808,0.0113,-0.0272,0.0212,0.0389,-0.0605,14.0813,4.1250,-37.2938,
1.727729,-0.0808,0.0113,-0.0272,0.0212,0.0389,-0.0605,14.1563,4.2000,-37.3125,
1.777903,-0.0808,0.0113,-0.0272,0.0212,0.0389,-0.0605,14.1563,4.2000,-37.3125,
1.778777,-0.0808,0.0113,-0.0272,0.0169,-0.0072,-0.0647,14.1563,4.2000,-37.3125,
1.779429,0.0333,-0.0126,-0.0730,0.0169,-0.0072,-0.0647,14.1563,4.2000,-37.3125,
1.785786,0.0333,-0.0126,-0.0730,0.0169,-0.0072,-0.0647,14.2313,4.0312,-37.2938,
1.839074,0.0333,-0.0126,-0.0730,-0.0545,0.0538,-0.0438,14.2313,4.0312,-37.2938,
1.839717,0.0333,-0.0126,-0.0730,-0.0545,0.0538,-0.0438,14.2313,4.0312,-37.2938,
1.840136,-0.0320,-0.0217,0.0986,-0.0545,0.0538,-0.0438,14.2313,4.0312,-37.2938,
1.845074,-0.0320,-0.0217,0.0986,-0.0545,0.0538,-0.0438,14.3438,4.2188,-37.2375,
1.900587,-0.0320,-0.0217,0.0986,-0.1003,0.0169,-0.0630,14.3438,4.2188,-37.2375,
1.902643,-0.0320,-0.0217,0.0986,-0.1003,0.0169,-0.0630,14.3438,4.2188,-37.2375,
1.903544,0.0824,-0.0567,0.1176,-0.1003,0.0169,-0.0630,14.3438,4.2188,-37.2375,
1.906710,0.0824,-0.0567,0.1176,-0.1003,0.0169,-0.0630,14.5688,4.3125,-37.1250,
1.960901,0.0824,-0.0567,0.1176,-0.0920,0.0482,-0.0730,14.5688,4.3125,-37.1250,
1.962370,0.0824,-0.0567,0.1176,-0.0920,0.0482,-0.0730,14.5688,4.3125,-37.1250,
1.966085,0.0824,-0.0567,0.1176,-0.0920,0.0482,-0.0730,14.6063,4.5750,-37.1813,
1.979989,-0.1544,0.0706,0.0916,-0.0920,0.0482,-0.0730,14.6063,4.5750,-37.1813,
2.020249,-0.1544,0.0706,0.0916,-0.0864,0.0254,-0.0860,14.6063,4.5750,-37.1813,
2.021167,-0.1544,0.0706,0.0916,-0.0864,0.0254,-0.0860,14.6063,4.5750,-37.1813,
2.026585,-0.1544,0.0706,0.0916,-0.0864,0.0254,-0.0860,14.7188,4.7625,-37.0500,
2.040779,0.0398,-0.0316,-0.0348,-0.0864,0.0254,-0.0860,14.7188,4.7625,-37.0500,
2.082070,0.0398,-0.0316,-0.0348,-0.1258,-0.0651,-0.1318,14.7188,4.7625,-37.0500,
2.083114,0.0398,-0.0316,-0.0348,-0.1258,-0.0651,-0.1318,14.7188,4.7625,-37.0500,
2.085904,0.0398,-0.0316,-0.0348,-0.1258,-0.0651,-0.1318,14.8500,5.0625,-36.8625,
2.102435,-0.0078,-0.1547,0.1285,-0.1258,-0.0651,-0.1318,14.8500,5.0625,-36.8625,
2.143085,-0.0078,-0.1547,0.1285,-0.1258,-0.0651,-0.1318,14.8500,5.0625,-36.8625,
2.144042,-0.0078,-0.1547,0.1285,-0.1407,-0.0483,-0.1557,14.8500,5.0625,-36.8625,
2.145065,-0.0078,-0.1547,0.1285,-0.1407,-0.0483,-0.1557,14.8125,5.2313,-36.7875,
2.184383,-0.0380,-0.3279,0.1586,-0.1407,-0.0483,-0.1557,14.8125,5.2313,-36.7875,
2.203713,-0.0380,-0.3279,0.1586,-0.1407,-0.0483,-0.1557,14.8125,5.2313,-36.7875,
2.204549,-0.0380,-0.3279,0.1586,-0.1080,-0.0289,-0.1652,14.8125,5.2313,-36.7875,
2.206996,-0.0380,-0.3279,0.1586,-0.1080,-0.0289,-0.1652,14.7375,5.4750,-36.6188,
2.244624,-0.0352,0.0911,0.0510,-0.1080,-0.0289,-0.1652,14.7375,5.4750,-36.6188,
2.264715,-0.0352,0.0911,0.0510,-0.1080,-0.0289,-0.1652,14.7375,5.4750,-36.6188,
2.265462,-0.0352,0.0911,0.0510,-0.0338,-0.0093,-0.1964,14.7375,5.4750,-36.6188,
2.266028,-0.0352,0.0911,0.0510,-0.0338,-0.0093,-0.1964,14.6625,5.9625,-36.4875,
2.306709,-0.1278,0.1692,-0.1758,-0.0338,-0.0093,-0.1964,14.6625,5.9625,-36.4875,
2.325772,-0.1278,0.1692,-0.1758,-0.0338,-0.0093,-0.1964,14.6625,5.9625,-36.4875,
2.327438,-0.1278,0.1692,-0.1758,-0.0338,-0.0093,-0.1964,14.5125,6.2250,-36.4313,
2.329163,-0.1278,0.1692,-0.1758,-0.0008,-0.1137,-0.2696,14.5125,6.2250,-36.4313,
2.368765,-0.0585,0.1960,-0.2777,-0.0008,-0.1137,-0.2696,14.5125,6.2250,-36.4313,
2.388493,-0.0585,0.1960,-0.2777,-0.0101,-0.1591,-0.2991,14.5125,6.2250,-36.4313,
2.389394,-0.0585,0.1960,-0.2777,-0.0101,-0.1591,-0.2991,14.3250,6.6750,-36.3938,
2.389927,-0.0585,0.1960,-0.2777,-0.0101,-0.1591,-0.2991,14.3250,6.6750,-36.3938,
2.447250,-0.0585,0.1960,-0.2777,-0.0101,-0.1591,-0.2991,14.0813,6.9750,-36.3563,
2.448959,-0.2625,0.3566,-0.1341,-0.0101,-0.1591,-0.2991,14.0813,6.9750,-36.3563,
2.450048,-0.2625,0.3566,-0.1341,-0.0101,-0.1591,-0.2991,14.0813,6.9750,-36.3563,
2.450895,-0.2625,0.3566,-0.1341,-0.1190,-0.2720,-0.3569,14.0813,6.9750,-36.3563,
2.508676,-0.2625,0.3566,-0.1341,-0.1190,-0.2720,-0.3569,14.0813,6.9750,-36.3563,
2.510138,-0.2625,0.3566,-0.1341,-0.1190,-0.2720,-0.3569,13.5188,7.3313,-36.3938,
2.511517,-0.2625,0.3566,-0.1341,-0.2143,-0.3246,-0.5113,13.5188,7.3313,-36.3938,
2.514130,-0.3735,0.5363,-0.1604,-0.2143,-0.3246,-0.5113,13.5188,7.3313,-36.3938,
2.569430,-0.3735,0.5363,-0.1604,-0.2143,-0.3246,-0.5113,12.9750,8.1188,-36.4313,
2.570638,-0.3735,0.5363,-0.1604,-0.4282,-0.1706,-0.5593,12.9750,8.1188,-36.4313,
2.571363,-0.3735,0.5363,-0.1604,-0.4282,-0.1706,-0.5593,12.9750,8.1188,-36.4313,
2.571945,-0.7633,-0.1863,0.3137,-0.4282,-0.1706,-0.5593,12.9750,8.1188,-36.4313,
2.626678,-0.7633,-0.1863,0.3137,-0.4282,-0.1706,-0.5593,12.2438,9.0375,-36.3563,
2.630543,-0.7633,-0.1863,0.3137,-0.5156,0.0003,-0.5103,12.2438,9.0375,-36.3563,
2.631696,-0.7633,-0.1863,0.3137,-0.5156,0.0003,-0.5103,12.2438,9.0375,-36.3563,
2.650520,-0.3106,0.1701,0.9685,-0.5156,0.0003,-0.5103,12.2438,9.0375,-36.3563,
2.686974,-0.3106,0.1701,0.9685,-0.5156,0.0003,-0.5103,11.7938,10.2375,-36.1875,
2.691918,-0.3106,0.1701,0.9685,-0.4687,0.2995,-0.5774,11.7938,10.2375,-36.1875,
2.692617,-0.3106,0.1701,0.9685,-0.4687,0.2995,-0.5774,11.7938,10.2375,-36.1875,
2.710698,0.4979,-0.0132,-0.2655,-0.4687,0.2995,-0.5774,11.7938,10.2375,-36.1875,
2.745571,0.4979,-0.0132,-0.2655,-0.4687,0.2995,-0.5774,11.1188,11.4375,-36.2438,
2.751726,0.4979,-0.0132,-0.2655,-0.2465,0.2941,-0.6718,11.1188,11.4375,-36.2438,
2.753377,0.4979,-0.0132,-0.2655,-0.2465,0.2941,-0.6718,11.1188,11.4375,-36.2438,
2.771471,-0.3580,-0.1965,0.1035,-0.2465,0.2941,-0.6718,11.1188,11.4375,-36.2438,
2.807989,-0.3580,-0.1965,0.1035,-0.2465,0.2941,-0.6718,10.3500,12.8438,-35.9813,
2.812910,-0.3580,-0.1965,0.1035,-0.2465,0.2941,-0.6718,10.3500,12.8438,-35.9813,
2.814055,-0.3580,-0.1965,0.1035,-0.2788,-0.1031,-0.9839,10.3500,12.8438,-35.9813,
2.832887,0.3326,-0.0895,0.0919,-0.2788,-0.1031,-0.9839,10.3500,12.8438,-35.9813,
2.867334,0.3326,-0.0895,0.0919,-0.2788,-0.1031,-0.9839,9.1875,14.3625,-35.6813,
2.874877,0.3326,-0.0895,0.0919,-0.2788,-0.1031,-0.9839,9.1875,14.3625,-35.6813,
2.875643,0.3326,-0.0895,0.0919,-0.3068,-0.9784,-1.4908,9.1875,14.3625,-35.6813,
2.914270,0.8024,-0.0409,0.2333,-0.3068,-0.9784,-1.4908,9.1875,14.3625,-35.6813,
2.926547,0.8024,-0.0409,0.2333,-0.3068,-0.9784,-1.4908,7.5375,16.0500,-35.4563,
2.934477,0.8024,-0.0409,0.2333,0.0099,-1.1133,-2.0673,7.5375,16.0500,-35.4563,
2.935159,0.8024,-0.0409,0.2333,0.0099,-1.1133,-2.0673,7.5375,16.0500,-35.4563,
2.980663,1.0839,-0.1960,1.4820,0.0099,-1.1133,-2.0673,7.5375,16.0500,-35.4563,
2.988933,1.0839,-0.1960,1.4820,0.0099,-1.1133,-2.0673,5.1375,17.3250,-35.2688,
2.997238,1.0839,-0.1960,1.4820,0.7408,-0.3182,-2.7514,5.1375,17.3250,-35.2688,
2.998659,1.0839,-0.1960,1.4820,0.7408,-0.3182,-2.7514,5.1375,17.3250,-35.2688,
3.039406,-0.0937,-1.0498,2.0855,0.7408,-0.3182,-2.7514,5.1375,17.3250,-35.2688,
3.048108,-0.0937,-1.0498,2.0855,0.7408,-0.3182,-2.7514,2.6813,17.1188,-34.6688,
3.064236,-0.0937,-1.0498,2.0855,1.4618,-1.4613,-3.1685,2.6813,17.1188,-34.6688,
3.065809,-0.0937,-1.0498,2.0855,1.4618,-1.4613,-3.1685,2.6813,17.1188,-34.6688,
3.113997,-0.0937,-1.0498,2.0855,1.4618,-1.4613,-3.1685,-1.1250,16.5188,-34.7063,
3.122150,-6.8694,-8.0191,-0.7880,1.4618,-1.4613,-3.1685,-1.1250,16.5188,-34.7063,
3.123736,-6.8694,-8.0191,-0.7880,1.4597,-0.4495,-2.1585,-1.1250,16.5188,-34.7063,
3.124768,-6.8694,-8.0191,-0.7880,1.4597,-0.4495,-2.1585,-1.1250,16.5188,-34.7063,
3.172499,-6.8694,-8.0191,-0.7880,1.4597,-0.4495,-2.1585,-4.9875,15.0375,-35.0625,
3.179439,-6.8694,-8.0191,-0.7880,0.9200,0.9999,-2.4638,-4.9875,15.0375,-35.0625,
3.181189,-6.8694,-8.0191,-0.7880,0.9200,0.9999,-2.4638,-4.9875,15.0375,-35.0625,
3.182504,-1.0868,-5.0010,-6.3851,0.9200,0.9999,-2.4638,-4.9875,15.0375,-35.0625,
3.226896,-1.0868,-5.0010,-6.3851,0.9200,0.9999,-2.4638,-8.5312,13.2375,-35.3250,
3.239654,-1.0868,-5.0010,-6.3851,0.9200,0.9999,-2.4638,-8.5312,13.2375,-35.3250,
3.240173,-1.0868,-5.0010,-6.3851,0.4490,1.4111,-2.2924,-8.5312,13.2375,-35.3250,
3.240689,2.8980,-2.9537,-5.5585,0.4490,1.4111,-2.2924,-8.5312,13.2375,-35.3250,
3.287129,2.8980,-2.9537,-5.5585,0.4490,1.4111,-2.2924,-11.1375,11.1188,-35.9438,
3.299525,2.8980,-2.9537,-5.5585,0.2115,2.0873,-1.8493,-11.1375,11.1188,-35.9438,
3.300771,2.8980,-2.9537,-5.5585,0.2115,2.0873,-1.8493,-11.1375,11.1188,-35.9438,
3.301578,-0.7269,-3.7363,-3.7339,0.2115,2.0873,-1.8493,-11.1375,11.1188,-35.9438,
3.346387,-0.7269,-3.7363,-3.7339,0.2115,2.0873,-1.8493,-12.9188,8.7563,-36.6188,
3.361598,-0.7269,-3.7363,-3.7339,-0.0410,0.4341,-0.2249,-12.9188,8.7563,-36.6188,
3.363198,-0.7269,-3.7363,-3.7339,-0.0410,0.4341,-0.2249,-12.9188,8.7563,-36.6188,
3.381117,-3.3084,0.3512,-1.4601,-0.0410,0.4341,-0.2249,-12.9188,8.7563,-36.6188,
3.406816,-3.3084,0.3512,-1.4601,-0.0410,0.4341,-0.2249,-14.0250,6.5250,-36.9938,
3.423303,-3.3084,0.3512,-1.4601,-1.2569,-1.5205,-2.7766,-14.0250,6.5250,-36.9938,
3.424661,-3.3084,0.3512,-1.4601,-1.2569,-1.5205,-2.7766,-14.0250,6.5250,-36.9938,
3.442136,5.5361,8.3767,0.0403,-1.2569,-1.5205,-2.7766,-14.0250,6.5250,-36.9938,
3.466068,5.5361,8.3767,0.0403,-1.2569,-1.5205,-2.7766,-14.8688,5.0250,-37.1250,
3.481230,5.5361,8.3767,0.0403,-2.4138,-0.7180,-0.7617,-14.8688,5.0250,-37.1250,
3.482070,5.5361,8.3767,0.0403,-2.4138,-0.7180,-0.7617,-14.8688,5.0250,-37.1250,
3.501947,0.2925,-4.1659,-0.3292,-2.4138,-0.7180,-0.7617,-14.8688,5.0250,-37.1250,
3.525432,0.2925,-4.1659,-0.3292,-2.4138,-0.7180,-0.7617,-15.0000,4.8938,-36.8625,
3.543003,0.2925,-4.1659,-0.3292,-1.9701,0.1188,-0.4687,-15.0000,4.8938,-36.8625,
3.544276,0.2925,-4.1659,-0.3292,-1.9701,0.1188,-0.4687,-15.0000,4.8938,-36.8625,
3.585086,-8.2738,0.8968,4.5290,-1.9701,0.1188,-0.4687,-15.0000,4.8938,-36.8625,
3.587719,-8.2738,0.8968,4.5290,-1.9701,0.1188,-0.4687,-14.0813,6.0375,-36.1688,
3.604176,-8.2738,0.8968,4.5290,-1.6281,0.5760,0.5880,-14.0813,6.0375,-36.1688,
3.605153,-8.2738,0.8968,4.5290,-1.6281,0.5760,0.5880,-14.0813,6.0375,-36.1688,
3.647048,-7.8690,3.2212,4.6413,-1.6281,0.5760,0.5880,-14.0813,6.0375,-36.1688,
3.649371,-7.8690,3.2212,4.6413,-1.6281,0.5760,0.5880,-12.8625,8.1188,-35.0438,
3.665215,-7.8690,3.2212,4.6413,-0.9362,0.9261,1.3034,-12.8625,8.1188,-35.0438,
3.666511,-7.8690,3.2212,4.6413,-0.9362,0.9261,1.3034,-12.8625,8.1188,-35.0438,
3.708070,-7.8690,3.2212,4.6413,-0.9362,0.9261,1.3034,-11.1938,10.7250,-33.6750,
3.710501,-5.0900,3.8809,5.0293,-0.9362,0.9261,1.3034,-11.1938,10.7250,-33.6750,
3.727259,-5.0900,3.8809,5.0293,-0.3462,0.6246,1.2705,-11.1938,10.7250,-33.6750,
3.728884,-5.0900,3.8809,5.0293,-0.3462,0.6246,1.2705,-11.1938,10.7250,-33.6750,
3.770986,-5.0900,3.8809,5.0293,-0.3462,0.6246,1.2705,-9.8250,13.5188,-31.8000,
3.772434,0.3049,1.8309,4.2850,-0.3462,0.6246,1.2705,-9.8250,13.5188,-31.8000,
3.788655,0.3049,1.8309,4.2850,-0.3462,0.6246,1.2705,-9.8250,13.5188,-31.8000,
3.789643,0.3049,1.8309,4.2850,-0.1783,0.2270,0.7677,-9.8250,13.5188,-31.8000,
3.827497,0.3049,1.8309,4.2850,-0.1783,0.2270,0.7677,-8.9438,16.4438,-30.0375,
3.848070,0.3049,1.8309,4.2850,-0.1783,0.2270,0.7677,-8.9438,16.4438,-30.0375,
3.849236,1.3516,1.4461,2.4906,-0.1783,0.2270,0.7677,-8.9438,16.4438,-30.0375,
3.850032,1.3516,1.4461,2.4906,-0.0176,-0.1553,0.4642,-8.9438,16.4438,-30.0375,
3.889090,1.3516,1.4461,2.4906,-0.0176,-0.1553,0.4642,-7.9500,19.0312,-28.6125,
3.909517,1.3516,1.4461,2.4906,-0.0176,-0.1553,0.4642,-7.9500,19.0312,-28.6125,
3.910882,-0.6538,0.9723,1.7125,-0.0176,-0.1553,0.4642,-7.9500,19.0312,-28.6125,
3.911523,-0.6538,0.9723,1.7125,0.3559,-0.1005,0.7433,-7.9500,19.0312,-28.6125,
3.946553,-0.6538,0.9723,1.7125,0.3559,-0.1005,0.7433,-6.1500,21.0375,-27.3375,
3.970772,-0.6538,0.9723,1.7125,0.4309,0.4955,0.9978,-6.1500,21.0375,-27.3375,
3.972869,-0.6538,0.9723,1.7125,0.4309,0.4955,0.9978,-6.1500,21.0375,-27.3375,
3.973695,-0.6599,-0.0934,0.7598,0.4309,0.4955,0.9978,-6.1500,21.0375,-27.3375,
4.007088,-0.6599,-0.0934,0.7598,0.4309,0.4955,0.9978,-3.9000,22.4062,-26.4000,
4.031093,-0.6599,-0.0934,0.7598,0.3555,-0.1578,0.7269,-3.9000,22.4062,-26.4000,
4.032903,-0.6599,-0.0934,0.7598,0.3555,-0.1578,0.7269,-3.9000,22.4062,-26.4000,
4.051476,0.9896,-1.0672,-0.5693,0.3555,-0.1578,0.7269,-3.9000,22.4062,-26.4000,
4.071571,0.9896,-1.0672,-0.5693,0.3555,-0.1578,0.7269,-1.9313,23.2125,-26.1563,
4.091515,0.9896,-1.0672,-0.5693,0.3555,-0.1578,0.7269,-1.9313,23.2125,-26.1563,
4.093392,0.9896,-1.0672,-0.5693,0.3020,-0.8113,0.4507,-1.9313,23.2125,-26.1563,
4.112708,2.7784,-1.6114,-1.2116,0.3020,-0.8113,0.4507,-1.9313,23.2125,-26.1563,
4.127300,2.7784,-1.6114,-1.2116,0.3020,-0.8113,0.4507,-0.5438,23.4563,-26.0438,
4.152930,2.7784,-1.6114,-1.2116,0.3020,-0.8113,0.4507,-0.5438,23.4563,-26.0438,
4.155414,2.7784,-1.6114,-1.2116,0.0250,-1.0240,-0.1148,-0.5438,23.4563,-26.0438,
4.172919,5.4104,-2.0642,-1.4967,0.0250,-1.0240,-0.1148,-0.5438,23.4563,-26.0438,
4.188031,5.4104,-2.0642,-1.4967,0.0250,-1.0240,-0.1148,-0.0563,23.4750,-26.2875,
4.213422,5.4104,-2.0642,-1.4967,-0.0346,0.2630,-0.2170,-0.0563,23.4750,-26.2875,
4.214991,5.4104,-2.0642,-1.4967,-0.0346,0.2630,-0.2170,-0.0563,23.4750,-26.2875,
4.234813,5.6287,-2.9504,-1.2670,-0.0346,0.2630,-0.2170,-0.0563,23.4750,-26.2875,
4.246533,5.6287,-2.9504,-1.2670,-0.0346,0.2630,-0.2170,0.2438,23.4000,-26.7188,
4.274935,5.6287,-2.9504,-1.2670,-0.0346,0.2630,-0.2170,0.2438,23.4000,-26.7188,
4.276275,5.6287,-2.9504,-1.2670,-0.1354,0.7131,-0.3321,0.2438,23.4000,-26.7188,
4.307700,5.6287,-2.9504,-1.2670,-0.1354,0.7131,-0.3321,0.4500,23.2125,-27.0938,
4.314028,2.6390,-0.7955,-2.1111,-0.1354,0.7131,-0.3321,0.4500,23.2125,-27.0938,
4.336004,2.6390,-0.7955,-2.1111,-0.3807,0.0368,-0.5618,0.4500,23.2125,-27.0938,
4.339265,2.6390,-0.7955,-2.1111,-0.3807,0.0368,-0.5618,0.4500,23.2125,-27.0938,
4.366645,2.6390,-0.7955,-2.1111,-0.3807,0.0368,-0.5618,0.4313,23.2313,-27.3000,
4.374754,0.6243,-0.1917,-3.0682,-0.3807,0.0368,-0.5618,0.4313,23.2313,-27.3000,
4.396123,0.6243,-0.1917,-3.0682,-0.8968,0.3858,-0.5493,0.4313,23.2313,-27.3000,
4.397867,0.6243,-0.1917,-3.0682,-0.8968,0.3858,-0.5493,0.4313,23.2313,-27.3000,
4.426794,0.6243,-0.1917,-3.0682,-0.8968,0.3858,-0.5493,0.1688,23.5500,-27.2625,
4.438398,-0.4938,0.1001,-3.6940,-0.8968,0.3858,-0.5493,0.1688,23.5500,-27.2625,
4.458315,-0.4938,0.1001,-3.6940,-1.6356,0.3598,-0.2298,0.1688,23.5500,-27.2625,
4.460488,-0.4938,0.1001,-3.6940,-1.6356,0.3598,-0.2298,0.1688,23.5500,-27.2625,
4.487753,-0.4938,0.1001,-3.6940,-1.6356,0.3598,-0.2298,-0.2063,24.1500,-26.4188,
4.517592,-0.4938,0.1001,-3.6940,-2.2963,0.8189,0.2306,-0.2063,24.1500,-26.4188,
4.519152,-0.4938,0.1001,-3.6940,-2.2963,0.8189,0.2306,-0.2063,24.1500,-26.4188,
4.519682,-2.9034,-0.3468,-4.1748,-2.2963,0.8189,0.2306,-0.2063,24.1500,-26.4188,
4.545523,-2.9034,-0.3468,-4.1748,-2.2963,0.8189,0.2306,1.5938,26.5125,-24.8625,
4.578655,-2.9034,-0.3468,-4.1748,-2.6456,0.6222,0.7709,1.5938,26.5125,-24.8625,
4.580382,-2.9034,-0.3468,-4.1748,-2.6456,0.6222,0.7709,1.5938,26.5125,-24.8625,
4.581234,-3.7801,-0.5590,-2.8962,-2.6456,0.6222,0.7709,1.5938,26.5125,-24.8625,
4.606424,-3.7801,-0.5590,-2.8962,-2.6456,0.6222,0.7709,2.2313,28.0313,-22.4250,
4.639726,-3.7801,-0.5590,-2.8962,-2.5746,0.3904,1.2818,2.2313,28.0313,-22.4250,
4.642877,-4.0211,-1.1875,0.0860,-2.5746,0.3904,1.2818,2.2313,28.0313,-22.4250,
4.644855,-4.0211,-1.1875,0.0860,-2.5746,0.3904,1.2818,2.2313,28.0313,-22.4250,
4.665400,-4.0211,-1.1875,0.0860,-2.5746,0.3904,1.2818,3.5625,29.3625,-18.9375,
4.699870,-4.0211,-1.1875,0.0860,-2.4067,0.0670,1.6006,3.5625,29.3625,-18.9375,
4.701459,-4.0211,-1.1875,0.0860,-2.4067,0.0670,1.6006,3.5625,29.3625,-18.9375,
4.702079,-2.9914,-1.2689,2.1153,-2.4067,0.0670,1.6006,3.5625,29.3625,-18.9375,
4.726088,-2.9914,-1.2689,2.1153,-2.4067,0.0670,1.6006,5.5312,30.4875,-14.9438,
4.760864,-2.9914,-1.2689,2.1153,-2.0982,0.2981,1.9570,5.5312,30.4875,-14.9438,
4.762903,-2.9914,-1.2689,2.1153,-2.0982,0.2981,1.9570,5.5312,30.4875,-14.9438,
4.781408,-1.5857,-1.9414,3.2602,-2.0982,0.2981,1.9570,5.5312,30.4875,-14.9438,
4.785437,-1.5857,-1.9414,3.2602,-2.0982,0.2981,1.9570,8.1562,32.2313,-11.1000,
4.821500,-1.5857,-1.9414,3.2602,-1.7268,-0.0558,1.9232,8.1562,32.2313,-11.1000,
4.823447,-1.5857,-1.9414,3.2602,-1.7268,-0.0558,1.9232,8.1562,32.2313,-11.1000,
4.842477,0.0210,-1.8871,3.6855,-1.7268,-0.0558,1.9232,8.1562,32.2313,-11.1000,
4.845525,0.0210,-1.8871,3.6855,-1.7268,-0.0558,1.9232,11.6250,32.1750,-6.2813,
4.883303,0.0210,-1.8871,3.6855,-1.7268,-0.0558,1.9232,11.6250,32.1750,-6.2813,
4.885098,0.0210,-1.8871,3.6855,-1.3633,-0.4214,1.7227,11.6250,32.1750,-6.2813,
4.903164,1.3648,-1.7355,3.4765,-1.3633,-0.4214,1.7227,11.6250,32.1750,-6.2813,
4.906277,1.3648,-1.7355,3.4765,-1.3633,-0.4214,1.7227,15.5625,31.5563,-1.8563,
4.943706,1.3648,-1.7355,3.4765,-0.9948,-0.4815,1.4192,15.5625,31.5563,-1.8563,
4.945458,1.3648,-1.7355,3.4765,-0.9948,-0.4815,1.4192,15.5625,31.5563,-1.8563,
4.965705,1.3648,-1.7355,3.4765,-0.9948,-0.4815,1.4192,19.7625,30.1500,1.9125,
4.985544,1.2147,-1.7382,2.5836,-0.9948,-0.4815,1.4192,19.7625,30.1500,1.9125,
5.005883,1.2147,-1.7382,2.5836,-0.7830,-0.2077,1.2601,19.7625,30.1500,1.9125,
5.007979,1.2147,-1.7382,2.5836,-0.7830,-0.2077,1.2601,19.7625,30.1500,1.9125,
5.026740,1.2147,-1.7382,2.5836,-0.7830,-0.2077,1.2601,23.7563,27.7500,4.9875,
5.047706,1.2302,-1.8647,1.4744,-0.7830,-0.2077,1.2601,23.7563,27.7500,4.9875,
5.067824,1.2302,-1.8647,1.4744,-0.9128,-0.4989,1.3314,23.7563,27.7500,4.9875,
5.069874,1.2302,-1.8647,1.4744,-0.9128,-0.4989,1.3314,23.7563,27.7500,4.9875,
5.087747,1.2302,-1.8647,1.4744,-0.9128,-0.4989,1.3314,27.6938,24.6750,7.4438,
5.108053,-1.0460,-1.9129,-0.3664,-0.9128,-0.4989,1.3314,27.6938,24.6750,7.4438,
5.127591,-1.0460,-1.9129,-0.3664,-0.9128,-0.4989,1.3314,27.6938,24.6750,7.4438,
5.128760,-1.0460,-1.9129,-0.3664,-1.0683,-0.4155,1.3872,27.6938,24.6750,7.4438,
5.147269,-1.0460,-1.9129,-0.3664,-1.0683,-0.4155,1.3872,31.4813,21.4125,8.6813,
5.168110,-0.9600,-1.8073,-0.8356,-1.0683,-0.4155,1.3872,31.4813,21.4125,8.6813,
5.187689,-0.9600,-1.8073,-0.8356,-0.5852,-0.8535,0.7687,31.4813,21.4125,8.6813,
5.189398,-0.9600,-1.8073,-0.8356,-0.5852,-0.8535,0.7687,31.4813,21.4125,8.6813,
5.208549,-0.9600,-1.8073,-0.8356,-0.5852,-0.8535,0.7687,34.2750,18.0000,9.1313,
5.249763,-0.9600,-1.8073,-0.8356,0.1120,-0.3651,0.3943,34.2750,18.0000,9.1313,
5.251808,-0.9600,-1.8073,-0.8356,0.1120,-0.3651,0.3943,34.2750,18.0000,9.1313,
5.252631,4.7871,-0.9505,2.7153,0.1120,-0.3651,0.3943,34.2750,18.0000,9.1313,
5.266501,4.7871,-0.9505,2.7153,0.1120,-0.3651,0.3943,36.5438,14.8688,8.7375,
5.311007,4.7871,-0.9505,2.7153,0.1120,-0.3651,0.3943,36.5438,14.8688,8.7375,
5.314290,4.7871,-0.9505,2.7153,-0.1389,-0.3445,0.3704,36.5438,14.8688,8.7375,
5.316412,1.0464,0.3989,2.5038,-0.1389,-0.3445,0.3704,36.5438,14.8688,8.7375,
5.327158,1.0464,0.3989,2.5038,-0.1389,-0.3445,0.3704,38.2125,12.1313,7.9500,
5.371469,1.0464,0.3989,2.5038,-0.1943,-0.5670,0.3129,38.2125,12.1313,7.9500,
5.373258,-1.0025,0.4188,-3.5217,-0.1943,-0.5670,0.3129,38.2125,12.1313,7.9500,
5.374375,-1.0025,0.4188,-3.5217,-0.1943,-0.5670,0.3129,38.2125,12.1313,7.9500,
5.386322,-1.0025,0.4188,-3.5217,-0.1943,-0.5670,0.3129,39.6188,9.8438,7.1625,
5.433612,-1.0025,0.4188,-3.5217,-0.2695,-0.0771,0.4241,39.6188,9.8438,7.1625,
5.436155,-1.0025,0.4188,-3.5217,-0.2695,-0.0771,0.4241,39.6188,9.8438,7.1625,
5.437917,-0.8022,0.3708,-0.1504,-0.2695,-0.0771,0.4241,39.6188,9.8438,7.1625,
5.447183,-0.8022,0.3708,-0.1504,-0.2695,-0.0771,0.4241,40.5188,7.7063,6.1313,
5.493380,-0.8022,0.3708,-0.1504,-0.4169,-0.0385,0.3489,40.5188,7.7063,6.1313,
5.495739,-0.8022,0.3708,-0.1504,-0.4169,-0.0385,0.3489,40.5188,7.7063,6.1313,
5.507702,-0.8022,0.3708,-0.1504,-0.4169,-0.0385,0.3489,41.1750,5.9250,5.1375,
5.511659,0.0071,0.2137,-0.3532,-0.4169,-0.0385,0.3489,41.1750,5.9250,5.1375,
5.554793,0.0071,0.2137,-0.3532,-0.4169,-0.0385,0.3489,41.1750,5.9250,5.1375,
5.558561,0.0071,0.2137,-0.3532,-0.5561,0.1884,0.3282,41.1750,5.9250,5.1375,
5.568021,0.0071,0.2137,-0.3532,-0.5561,0.1884,0.3282,41.4563,4.3125,4.2750,
5.575272,-0.0668,0.1667,-0.1288,-0.5561,0.1884,0.3282,41.4563,4.3125,4.2750,
5.614772,-0.0668,0.1667,-0.1288,-0.7858,-0.0594,0.1652,41.4563,4.3125,4.2750,
5.617064,-0.0668,0.1667,-0.1288,-0.7858,-0.0594,0.1652,41.4563,4.3125,4.2750,
5.627595,-0.0668,0.1667,-0.1288,-0.7858,-0.0594,0.1652,41.5875,2.8313,3.6938,
5.633832,0.3195,0.5414,-0.8930,-0.7858,-0.0594,0.1652,41.5875,2.8313,3.6938,
5.675866,0.3195,0.5414,-0.8930,-0.8710,-0.1407,0.0826,41.5875,2.8313,3.6938,
5.678120,0.3195,0.5414,-0.8930,-0.8710,-0.1407,0.0826,41.5875,2.8313,3.6938,
5.686589,0.3195,0.5414,-0.8930,-0.8710,-0.1407,0.0826,41.7000,1.7625,3.2250,
5.716913,-0.1947,0.4690,-0.1231,-0.8710,-0.1407,0.0826,41.7000,1.7625,3.2250,
5.735381,-0.1947,0.4690,-0.1231,-0.9132,-0.0569,0.0896,41.7000,1.7625,3.2250,
5.736807,-0.1947,0.4690,-0.1231,-0.9132,-0.0569,0.0896,41.7000,1.7625,3.2250,
5.746425,-0.1947,0.4690,-0.1231,-0.9132,-0.0569,0.0896,41.8125,0.9750,2.8500,
5.777482,-0.3901,0.4665,0.0230,-0.9132,-0.0569,0.0896,41.8125,0.9750,2.8500,
5.796985,-0.3901,0.4665,0.0230,-0.8199,-0.0302,0.2132,41.8125,0.9750,2.8500,
5.798980,-0.3901,0.4665,0.0230,-0.8199,-0.0302,0.2132,41.8125,0.9750,2.8500,
5.808137,-0.3901,0.4665,0.0230,-0.8199,-0.0302,0.2132,41.8688,0.2438,2.8313,
5.837730,-0.6243,0.3367,0.1839,-0.8199,-0.0302,0.2132,41.8688,0.2438,2.8313,
5.858298,-0.6243,0.3367,0.1839,-0.8418,-0.2139,0.2952,41.8688,0.2438,2.8313,
5.859931,-0.6243,0.3367,0.1839,-0.8418,-0.2139,0.2952,41.8688,0.2438,2.8313,
5.866572,-0.6243,0.3367,0.1839,-0.8418,-0.2139,0.2952,41.7188,-0.6000,2.7750,
5.898484,0.2621,0.0682,-0.1610,-0.8418,-0.2139,0.2952,41.7188,-0.6000,2.7750,
5.919278,0.2621,0.0682,-0.1610,-0.8031,-0.5493,0.2402,41.7188,-0.6000,2.7750,
5.921661,0.2621,0.0682,-0.1610,-0.8031,-0.5493,0.2402,41.7188,-0.6000,2.7750,
5.927926,0.2621,0.0682,-0.1610,-0.8031,-0.5493,0.2402,41.8500,-1.1813,2.8125,
5.980738,0.2621,0.0682,-0.1610,-0.6537,-0.6952,0.2771,41.8500,-1.1813,2.8125,
5.983059,1.0501,-0.8722,-0.8772,-0.6537,-0.6952,0.2771,41.8500,-1.1813,2.8125,
5.984098,1.0501,-0.8722,-0.8772,-0.6537,-0.6952,0.2771,41.8500,-1.1813,2.8125,
5.985042,1.0501,-0.8722,-0.8772,-0.6537,-0.6952,0.2771,41.7375,-1.7063,2.5875,
6.041024,1.0501,-0.8722,-0.8772,-0.5997,-0.8056,0.3151,41.7375,-1.7063,2.5875,
6.044467,1.0501,-0.8722,-0.8772,-0.5997,-0.8056,0.3151,41.7375,-1.7063,2.5875,
6.045926,0.0618,0.0340,0.0744,-0.5997,-0.8056,0.3151,41.7375,-1.7063,2.5875,
6.047803,0.0618,0.0340,0.0744,-0.5997,-0.8056,0.3151,41.6063,-2.2688,2.0625,
6.102579,0.0618,0.0340,0.0744,-0.6760,-0.9614,0.3836,41.6063,-2.2688,2.0625,
6.104977,0.9156,0.7479,-0.3135,-0.6760,-0.9614,0.3836,41.6063,-2.2688,2.0625,
6.106492,0.9156,0.7479,-0.3135,-0.6760,-0.9614,0.3836,41.6063,-2.2688,2.0625,
6.107542,0.9156,0.7479,-0.3135,-0.6760,-0.9614,0.3836,41.4188,-2.6063,1.2375,
6.163352,0.9156,0.7479,-0.3135,-0.6760,-0.9614,0.3836,41.4188,-2.6063,1.2375,
6.165038,0.9156,0.7479,-0.3135,-0.8361,-1.1674,0.3406,41.4188,-2.6063,1.2375,
6.166440,0.9156,0.7479,-0.3135,-0.8361,-1.1674,0.3406,41.2313,-3.1313,0.1688,
6.183497,1.0164,0.2956,-0.1777,-0.8361,-1.1674,0.3406,41.2313,-3.1313,0.1688,
6.224383,1.0164,0.2956,-0.1777,-0.8361,-1.1674,0.3406,41.2313,-3.1313,0.1688,
6.225694,1.0164,0.2956,-0.1777,-0.8297,-1.4223,0.3740,41.2313,-3.1313,0.1688,
6.226695,1.0164,0.2956,-0.1777,-0.8297,-1.4223,0.3740,40.9125,-3.6750,-1.1438,
6.244044,0.6617,-0.0186,0.0747,-0.8297,-1.4223,0.3740,40.9125,-3.6750,-1.1438,
6.285540,0.6617,-0.0186,0.0747,-0.8297,-1.4223,0.3740,40.9125,-3.6750,-1.1438,
6.287343,0.6617,-0.0186,0.0747,-0.8297,-1.4223,0.3740,40.5563,-4.0688,-3.1125,
6.288100,0.6617,-0.0186,0.0747,-0.5216,-1.5322,0.2051,40.5563,-4.0688,-3.1125,
6.305166,0.4412,0.2223,0.1215,-0.5216,-1.5322,0.2051,40.5563,-4.0688,-3.1125,
6.345888,0.4412,0.2223,0.1215,0.0889,-1.2508,0.5147,40.5563,-4.0688,-3.1125,
6.348120,0.4412,0.2223,0.1215,0.0889,-1.2508,0.5147,40.5563,-4.0688,-3.1125,
6.349016,0.4412,0.2223,0.1215,0.0889,-1.2508,0.5147,39.8625,-4.6125,-5.2688,
6.366628,-1.0325,0.5433,0.4048,0.0889,-1.2508,0.5147,39.8625,-4.6125,-5.2688,
6.408208,-1.0325,0.5433,0.4048,0.1461,-1.1783,-0.0246,39.8625,-4.6125,-5.2688,
6.411137,-1.0325,0.5433,0.4048,0.1461,-1.1783,-0.0246,39.8625,-4.6125,-5.2688,
6.413091,-1.0325,0.5433,0.4048,0.1461,-1.1783,-0.0246,38.9062,-5.2313,-7.6875,
6.447708,0.2792,2.2710,-0.8156,0.1461,-1.1783,-0.0246,38.9062,-5.2313,-7.6875,
6.467494,0.2792,2.2710,-0.8156,0.1461,-1.1783,-0.0246,38.4750,-3.9750,-12.6000,
6.470058,0.2792,2.2710,-0.8156,0.1461,-1.1783,-0.0246,38.4750,-3.9750,-12.6000,
6.471166,0.2792,2.2710,-0.8156,-0.6394,-1.6725,-0.5642,38.4750,-3.9750,-12.6000,
6.508791,2.9155,1.2239,-2.7110,-0.6394,-1.6725,-0.5642,38.4750,-3.9750,-12.6000,
6.528583,2.9155,1.2239,-2.7110,0.1028,-0.5380,-0.5742,38.4750,-3.9750,-12.6000,
6.530747,2.9155,1.2239,-2.7110,0.1028,-0.5380,-0.5742,38.4750,-3.9750,-12.6000,
6.531722,2.9155,1.2239,-2.7110,0.1028,-0.5380,-0.5742,37.3875,-3.7688,-15.2813,
6.568911,-5.3521,-0.4186,5.5094,0.1028,-0.5380,-0.5742,37.3875,-3.7688,-15.2813,
6.588472,-5.3521,-0.4186,5.5094,0.1028,-0.5380,-0.5742,37.3875,-3.7688,-15.2813,
6.590052,-5.3521,-0.4186,5.5094,0.4341,-0.0200,-0.3782,37.3875,-3.7688,-15.2813,
6.591217,-5.3521,-0.4186,5.5094,0.4341,-0.0200,-0.3782,36.1875,-3.4500,-17.8313,
6.646616,-5.3521,-0.4186,5.5094,0.4341,-0.0200,-0.3782,35.1000,-2.9813,-20.1938,
6.649817,-5.3521,-0.4186,5.5094,0.6647,-0.1293,-0.4248,35.1000,-2.9813,-20.1938,
6.651086,1.4910,0.7417,-1.7267,0.6647,-0.1293,-0.4248,35.1000,-2.9813,-20.1938,
6.652420,1.4910,0.7417,-1.7267,0.6647,-0.1293,-0.4248,35.1000,-2.9813,-20.1938,
6.707193,1.4910,0.7417,-1.7267,0.6647,-0.1293,-0.4248,34.0312,-2.4188,-22.1250,
6.711204,1.4910,0.7417,-1.7267,0.6647,-0.1293,-0.4248,34.0312,-2.4188,-22.1250,
6.713986,-1.9640,-0.1090,0.9165,0.6647,-0.1293,-0.4248,34.0312,-2.4188,-22.1250,
6.715689,-1.9640,-0.1090,0.9165,1.0354,0.4610,-0.5961,34.0312,-2.4188,-22.1250,
6.766945,-1.9640,-0.1090,0.9165,1.0354,0.4610,-0.5961,33.1875,-2.1750,-23.4938,
6.771038,-1.9640,-0.1090,0.9165,1.0354,0.4610,-0.5961,33.1875,-2.1750,-23.4938,
6.772265,-1.9640,-0.1090,0.9165,1.3400,0.7254,-0.6856,33.1875,-2.1750,-23.4938,
6.773319,-0.7491,1.6713,0.2569,1.3400,0.7254,-0.6856,33.1875,-2.1750,-23.4938,
6.827304,-0.7491,1.6713,0.2569,1.3400,0.7254,-0.6856,32.7938,-1.7063,-24.3563,
6.831901,-0.7491,1.6713,0.2569,1.3400,0.7254,-0.6856,32.7938,-1.7063,-24.3563,
6.832491,0.0241,1.9223,-0.3949,1.3400,0.7254,-0.6856,32.7938,-1.7063,-24.3563,
6.833236,0.0241,1.9223,-0.3949,1.4337,0.5597,-1.1280,32.7938,-1.7063,-24.3563,
6.887990,0.0241,1.9223,-0.3949,1.4337,0.5597,-1.1280,32.6813,-0.9188,-24.6750,
6.898381,0.0241,1.9223,-0.3949,1.4337,0.5597,-1.1280,32.6813,-0.9188,-24.6750,
6.899840,0.0241,1.9223,-0.3949,0.9104,-0.0758,-1.2902,32.6813,-0.9188,-24.6750,
6.913459,-0.0588,0.4016,-0.2690,0.9104,-0.0758,-1.2902,32.6813,-0.9188,-24.6750,
6.946730,-0.0588,0.4016,-0.2690,0.9104,-0.0758,-1.2902,32.6063,-0.2063,-24.9188,
6.954258,-0.0588,0.4016,-0.2690,0.9104,-0.0758,-1.2902,32.6063,-0.2063,-24.9188,
6.955563,-0.0588,0.4016,-0.2690,-0.1226,-6.7660,-0.9302,32.6063,-0.2063,-24.9188,
6.975091,0.8308,-0.9588,-0.9560,-0.1226,-6.7660,-0.9302,32.6063,-0.2063,-24.9188,
7.007563,0.8308,-0.9588,-0.9560,-0.1226,-6.7660,-0.9302,31.4063,0.8250,-25.9875,
7.015103,0.8308,-0.9588,-0.9560,-0.3108,1.5215,-1.9221,31.4063,0.8250,-25.9875,
7.016555,0.8308,-0.9588,-0.9560,-0.3108,1.5215,-1.9221,31.4063,0.8250,-25.9875,
7.035657,-0.6120,-1.0038,-3.0230,-0.3108,1.5215,-1.9221,31.4063,0.8250,-25.9875,
7.067160,-0.6120,-1.0038,-3.0230,-0.3108,1.5215,-1.9221,30.1875,1.9688,-27.0188,
7.076065,-0.6120,-1.0038,-3.0230,-0.4772,-0.0168,-0.2827,30.1875,1.9688,-27.0188,
7.077580,-0.6120,-1.0038,-3.0230,-0.4772,-0.0168,-0.2827,30.1875,1.9688,-27.0188,
7.117056,-0.1500,-0.6740,1.5856,-0.4772,-0.0168,-0.2827,30.1875,1.9688,-27.0188,
7.126864,-0.1500,-0.6740,1.5856,-0.4772,-0.0168,-0.2827,29.0625,3.3000,-27.9000,
7.137458,-0.1500,-0.6740,1.5856,-0.2132,0.2278,0.1716,29.0625,3.3000,-27.9000,
7.139237,-0.1500,-0.6740,1.5856,-0.2132,0.2278,0.1716,29.0625,3.3000,-27.9000,
7.177847,0.3476,-0.4046,0.2760,-0.2132,0.2278,0.1716,29.0625,3.3000,-27.9000,
7.187137,0.3476,-0.4046,0.2760,-0.2132,0.2278,0.1716,28.0125,4.6125,-28.8000,
7.198437,0.3476,-0.4046,0.2760,-0.1027,0.0308,-0.1039,28.0125,4.6125,-28.8000,
7.199753,0.3476,-0.4046,0.2760,-0.1027,0.0308,-0.1039,28.0125,4.6125,-28.8000,
7.239329,-0.4123,-2.6954,0.0275,-0.1027,0.0308,-0.1039,28.0125,4.6125,-28.8000,
7.248632,-0.4123,-2.6954,0.0275,-0.1027,0.0308,-0.1039,26.8688,6.0188,-29.6625,
7.258498,-0.4123,-2.6954,0.0275,-0.1176,0.3702,0.1320,26.8688,6.0188,-29.6625,
7.259593,-0.4123,-2.6954,0.0275,-0.1176,0.3702,0.1320,26.8688,6.0188,-29.6625,
7.300197,1.1274,-2.0013,0.3831,-0.1176,0.3702,0.1320,26.8688,6.0188,-29.6625,
7.307150,1.1274,-2.0013,0.3831,-0.1176,0.3702,0.1320,25.4063,7.1813,-30.5063,
7.320994,1.1274,-2.0013,0.3831,-0.0210,-0.2567,-0.7286,25.4063,7.1813,-30.5063,
7.323410,1.1274,-2.0013,0.3831,-0.0210,-0.2567,-0.7286,25.4063,7.1813,-30.5063,
7.372500,1.1274,-2.0013,0.3831,-0.0210,-0.2567,-0.7286,23.7188,8.2688,-31.6125,
7.381583,1.1274,-2.0013,0.3831,1.1537,-0.5550,-1.6952,23.7188,8.2688,-31.6125,
7.384429,0.7021,1.1799,3.3885,1.1537,-0.5550,-1.6952,23.7188,8.2688,-31.6125,
7.385374,0.7021,1.1799,3.3885,1.1537,-0.5550,-1.6952,23.7188,8.2688,-31.6125,
7.427888,0.7021,1.1799,3.3885,1.1537,-0.5550,-1.6952,21.7688,8.7938,-32.7563,
7.443049,0.7021,1.1799,3.3885,1.8878,-0.9008,-2.4869,21.7688,8.7938,-32.7563,
7.444888,0.7021,1.1799,3.3885,1.8878,-0.9008,-2.4869,21.7688,8.7938,-32.7563,
7.445921,3.7848,1.0933,6.2413,1.8878,-0.9008,-2.4869,21.7688,8.7938,-32.7563,
7.486818,3.7848,1.0933,6.2413,1.8878,-0.9008,-2.4869,20.8500,8.1938,-33.1875,
7.502940,3.7848,1.0933,6.2413,1.8878,-0.9008,-2.4869,20.8500,8.1938,-33.1875,
7.504737,-0.3867,-0.7321,0.8666,1.8878,-0.9008,-2.4869,20.8500,8.1938,-33.1875,
7.506447,-0.3867,-0.7321,0.8666,0.8558,-0.0931,-0.2241,20.8500,8.1938,-33.1875,
7.547007,-0.3867,-0.7321,0.8666,0.8558,-0.0931,-0.2241,20.4000,7.1438,-33.3563,
7.564328,-0.3867,-0.7321,0.8666,0.0834,1.1959,2.1007,20.4000,7.1438,-33.3563,
7.565459,-0.3867,-0.7321,0.8666,0.0834,1.1959,2.1007,20.4000,7.1438,-33.3563,
7.584833,-7.6574,1.6069,-13.6925,0.0834,1.1959,2.1007,20.4000,7.1438,-33.3563,
7.606733,-7.6574,1.6069,-13.6925,0.0834,1.1959,2.1007,19.8750,5.6813,-33.6188,
7.624938,-7.6574,1.6069,-13.6925,0.0834,1.1959,2.1007,19.8750,5.6813,-33.6188,
7.626916,-7.6574,1.6069,-13.6925,-0.0875,-1.2103,0.0904,19.8750,5.6813,-33.6188,
7.644392,-0.0779,0.9161,2.9234,-0.0875,-1.2103,0.0904,19.8750,5.6813,-33.6188,
7.667296,-0.0779,0.9161,2.9234,-0.0875,-1.2103,0.0904,19.3313,4.1250,-33.8625,
7.684832,-0.0779,0.9161,2.9234,0.3272,0.4188,0.4209,19.3313,4.1250,-33.8625,
7.686045,-0.0779,0.9161,2.9234,0.3272,0.4188,0.4209,19.3313,4.1250,-33.8625,
7.706106,0.7910,-0.9118,-1.2163,0.3272,0.4188,0.4209,19.3313,4.1250,-33.8625,
7.727683,0.7910,-0.9118,-1.2163,0.3272,0.4188,0.4209,18.6188,2.4938,-34.2938,
7.747709,0.7910,-0.9118,-1.2163,0.3272,0.4188,0.4209,18.6188,2.4938,-34.2938,
7.748944,0.7910,-0.9118,-1.2163,0.2537,0.1117,0.0248,18.6188,2.4938,-34.2938,
7.768462,-0.5136,-0.2269,0.0118,0.2537,0.1117,0.0248,18.6188,2.4938,-34.2938,
7.786977,-0.5136,-0.2269,0.0118,0.2537,0.1117,0.0248,18.1313,0.9938,-34.8375,
7.807887,-0.5136,-0.2269,0.0118,0.2537,0.1117,0.0248,18.1313,0.9938,-34.8375,
7.809475,-0.5136,-0.2269,0.0118,0.3372,-0.0875,-0.3878,18.1313,0.9938,-34.8375,
7.848672,-0.5136,-0.2269,0.0118,0.3372,-0.0875,-0.3878,17.6438,-0.6000,-35.3250,
7.850782,-0.0934,0.1915,0.3044,0.3372,-0.0875,-0.3878,17.6438,-0.6000,-35.3250,
7.867726,-0.0934,0.1915,0.3044,0.3638,-0.0633,-0.5230,17.6438,-0.6000,-35.3250,
7.869499,-0.0934,0.1915,0.3044,0.3638,-0.0633,-0.5230,17.6438,-0.6000,-35.3250,
7.908201,-0.0934,0.1915,0.3044,0.3638,-0.0633,-0.5230,17.6625,-1.8375,-35.4563,
7.911037,-0.0228,0.4088,0.0005,0.3638,-0.0633,-0.5230,17.6625,-1.8375,-35.4563,
7.928847,-0.0228,0.4088,0.0005,0.3638,-0.0633,-0.5230,17.6625,-1.8375,-35.4563,
7.930501,-0.0228,0.4088,0.0005,0.3300,0.0474,-0.4677,17.6625,-1.8375,-35.4563,
7.966910,-0.0228,0.4088,0.0005,0.3300,0.0474,-0.4677,18.1313,-2.4563,-35.2875,
7.973007,0.1789,0.1956,0.0522,0.3300,0.0474,-0.4677,18.1313,-2.4563,-35.2875,
7.988653,0.1789,0.1956,0.0522,0.3300,0.0474,-0.4677,18.1313,-2.4563,-35.2875,
7.990044,0.1789,0.1956,0.0522,0.2988,0.1196,-0.4088,18.1313,-2.4563,-35.2875,
8.027513,0.1789,0.1956,0.0522,0.2988,0.1196,-0.4088,18.0563,-2.9250,-35.3438,
8.050849,0.1789,0.1956,0.0522,0.1358,0.1174,-0.2629,18.0563,-2.9250,-35.3438,
8.053386,0.3516,0.1976,0.1301,0.1358,0.1174,-0.2629,18.0563,-2.9250,-35.3438,
8.055418,0.3516,0.1976,0.1301,0.1358,0.1174,-0.2629,18.0563,-2.9250,-35.3438,
8.086899,0.3516,0.1976,0.1301,0.1358,0.1174,-0.2629,18.0375,-3.2250,-35.1750,
8.111700,0.3516,0.1976,0.1301,0.1358,0.1174,-0.2629,18.0375,-3.2250,-35.1750,
8.113275,0.2230,0.2492,0.5361,0.1358,0.1174,-0.2629,18.0375,-3.2250,-35.1750,
8.114414,0.2230,0.2492,0.5361,-0.0336,0.0591,-0.1358,18.0375,-3.2250,-35.1750,
8.146756,0.2230,0.2492,0.5361,-0.0336,0.0591,-0.1358,18.0188,-3.4125,-35.1750,
8.172384,0.2230,0.2492,0.5361,-0.0903,0.0425,-0.1808,18.0188,-3.4125,-35.1750,
8.174667,0.0880,0.2899,0.7788,-0.0903,0.0425,-0.1808,18.0188,-3.4125,-35.1750,
8.175509,0.0880,0.2899,0.7788,-0.0903,0.0425,-0.1808,18.0188,-3.4125,-35.1750,
8.206946,0.0880,0.2899,0.7788,-0.0903,0.0425,-0.1808,18.0750,-3.4875,-35.1375,
8.233917,0.0880,0.2899,0.7788,-0.0800,0.0567,-0.2302,18.0750,-3.4875,-35.1375,
8.236552,0.0880,0.2899,0.7788,-0.0800,0.0567,-0.2302,18.0750,-3.4875,-35.1375,
8.237400,0.2070,-0.0083,0.2367,-0.0800,0.0567,-0.2302,18.0750,-3.4875,-35.1375,
8.266970,0.2070,-0.0083,0.2367,-0.0800,0.0567,-0.2302,18.1313,-3.3563,-35.0813,
8.294350,0.2070,-0.0083,0.2367,-0.0800,0.0567,-0.2302,18.1313,-3.3563,-35.0813,
8.295870,0.2070,-0.0083,0.2367,-0.0495,0.1543,-0.1344,18.1313,-3.3563,-35.0813,
8.314610,0.0801,0.0385,0.3188,-0.0495,0.1543,-0.1344,18.1313,-3.3563,-35.0813,
8.326821,0.0801,0.0385,0.3188,-0.0495,0.1543,-0.1344,18.4500,-3.1875,-34.8188,
8.355283,0.0801,0.0385,0.3188,-0.1361,0.1320,-0.0466,18.4500,-3.1875,-34.8188,
8.357150,0.0801,0.0385,0.3188,-0.1361,0.1320,-0.0466,18.4500,-3.1875,-34.8188,
8.375394,0.3295,-0.0101,0.0233,-0.1361,0.1320,-0.0466,18.4500,-3.1875,-34.8188,
8.386654,0.3295,-0.0101,0.0233,-0.1361,0.1320,-0.0466,18.6188,-2.9062,-34.8563,
8.416214,0.3295,-0.0101,0.0233,-0.1361,0.1320,-0.0466,18.6188,-2.9062,-34.8563,
8.417924,0.3295,-0.0101,0.0233,-0.1467,0.0056,-0.0758,18.6188,-2.9062,-34.8563,
8.436145,0.2463,0.0702,0.3202,-0.1467,0.0056,-0.0758,18.6188,-2.9062,-34.8563,
8.448696,0.2463,0.0702,0.3202,-0.1467,0.0056,-0.0758,18.8063,-2.6250,-34.7625,
8.476560,0.2463,0.0702,0.3202,0.0133,0.4085,0.0201,18.8063,-2.6250,-34.7625,
8.478582,0.2463,0.0702,0.3202,0.0133,0.4085,0.0201,18.8063,-2.6250,-34.7625,
8.506959,0.2463,0.0702,0.3202,0.0133,0.4085,0.0201,19.2000,-2.4000,-34.5188,
8.517380,0.2220,0.0308,0.1400,0.0133,0.4085,0.0201,19.2000,-2.4000,-34.5188,
8.538110,0.2220,0.0308,0.1400,0.0133,0.4085,0.0201,19.2000,-2.4000,-34.5188,
8.539915,0.2220,0.0308,0.1400,0.0154,0.0940,-0.1273,19.2000,-2.4000,-34.5188,
8.567267,0.2220,0.0308,0.1400,0.0154,0.0940,-0.1273,19.4813,-2.0625,-34.4625,
8.579155,-0.0600,-0.0571,0.3389,0.0154,0.0940,-0.1273,19.4813,-2.0625,-34.4625,
8.598938,-0.0600,-0.0571,0.3389,0.0154,0.0940,-0.1273,19.4813,-2.0625,-34.4625,
8.600321,-0.0600,-0.0571,0.3389,0.0755,0.1373,-0.0442,19.4813,-2.0625,-34.4625,
8.627543,-0.0600,-0.0571,0.3389,0.0755,0.1373,-0.0442,19.9313,-1.6125,-34.2938,
8.639621,0.3396,-0.0009,0.0717,0.0755,0.1373,-0.0442,19.9313,-1.6125,-34.2938,
8.659342,0.3396,-0.0009,0.0717,-0.0527,0.1972,-0.1506,19.9313,-1.6125,-34.2938,
8.660888,0.3396,-0.0009,0.0717,-0.0527,0.1972,-0.1506,19.9313,-1.6125,-34.2938,
8.686811,0.3396,-0.0009,0.0717,-0.0527,0.1972,-0.1506,20.2688,-1.3313,-33.9750,
8.700397,0.0264,-0.7541,0.0486,-0.0527,0.1972,-0.1506,20.2688,-1.3313,-33.9750,
8.721132,0.0264,-0.7541,0.0486,-0.2230,0.4075,-0.5710,20.2688,-1.3313,-33.9750,
8.724109,0.0264,-0.7541,0.0486,-0.2230,0.4075,-0.5710,20.2688,-1.3313,-33.9750,
8.746012,0.0264,-0.7541,0.0486,-0.2230,0.4075,-0.5710,20.6063,-0.8438,-33.7500,
8.780702,0.0264,-0.7541,0.0486,-0.5661,0.4844,-0.9541,20.6063,-0.8438,-33.7500,
8.783335,0.0264,-0.7541,0.0486,-0.5661,0.4844,-0.9541,20.6063,-0.8438,-33.7500,
8.784270,-0.4297,-0.3027,0.0335,-0.5661,0.4844,-0.9541,20.6063,-0.8438,-33.7500,
8.805719,-0.4297,-0.3027,0.0335,-0.5661,0.4844,-0.9541,20.7938,0.0563,-33.5063,
8.842061,-0.4297,-0.3027,0.0335,-0.8230,-0.0356,-0.1254,20.7938,0.0563,-33.5063,
8.844406,-0.5485,-1.3127,0.3410,-0.8230,-0.0356,-0.1254,20.7938,0.0563,-33.5063,
8.845478,-0.5485,-1.3127,0.3410,-0.8230,-0.0356,-0.1254,20.7938,0.0563,-33.5063,
8.865854,-0.5485,-1.3127,0.3410,-0.8230,-0.0356,-0.1254,21.0375,1.2188,-32.9438,
8.902960,-0.5485,-1.3127,0.3410,-1.1734,0.0738,-0.3882,21.0375,1.2188,-32.9438,
8.904675,-0.5485,-1.3127,0.3410,-1.1734,0.0738,-0.3882,21.0375,1.2188,-32.9438,
8.905388,-0.0353,-1.1309,0.7065,-1.1734,0.0738,-0.3882,21.0375,1.2188,-32.9438,
8.926393,-0.0353,-1.1309,0.7065,-1.1734,0.0738,-0.3882,21.3375,2.7000,-32.2125,
8.964494,-0.0353,-1.1309,0.7065,-1.1578,0.0077,-0.3438,21.3375,2.7000,-32.2125,
8.966725,-0.0353,-1.1309,0.7065,-1.1578,0.0077,-0.3438,21.3375,2.7000,-32.2125,
8.984146,0.1254,-0.5352,0.8414,-1.1578,0.0077,-0.3438,21.3375,2.7000,-32.2125,
8.985819,0.1254,-0.5352,0.8414,-1.1578,0.0077,-0.3438,21.5813,4.6313,-31.3688,
9.025929,0.1254,-0.5352,0.8414,-1.3040,0.2249,-0.3423,21.5813,4.6313,-31.3688,
9.029125,0.1254,-0.5352,0.8414,-1.3040,0.2249,-0.3423,21.5813,4.6313,-31.3688,
9.046364,-0.4431,-0.1853,0.8904,-1.3040,0.2249,-0.3423,21.5813,4.6313,-31.3688,
9.048350,-0.4431,-0.1853,0.8904,-1.3040,0.2249,-0.3423,21.6938,6.8250,-30.2250,
9.088393,-0.4431,-0.1853,0.8904,-1.3040,0.2249,-0.3423,21.6938,6.8250,-30.2250,
9.090321,-0.4431,-0.1853,0.8904,-0.4726,0.2381,-0.6360,21.6938,6.8250,-30.2250,
9.107671,-0.4431,-0.1853,0.8904,-0.4726,0.2381,-0.6360,21.7313,9.0563,-28.7813,
9.109000,0.0833,0.2434,0.5558,-0.4726,0.2381,-0.6360,21.7313,9.0563,-28.7813,
9.149274,0.0833,0.2434,0.5558,2.0468,0.2321,-0.5752,21.7313,9.0563,-28.7813,
9.152257,0.0833,0.2434,0.5558,2.0468,0.2321,-0.5752,21.7313,9.0563,-28.7813,
9.168793,0.0833,0.2434,0.5558,2.0468,0.2321,-0.5752,21.8813,11.1375,-27.7688,
9.171850,0.2276,1.5875,2.7112,2.0468,0.2321,-0.5752,21.8813,11.1375,-27.7688,
9.208187,0.2276,1.5875,2.7112,2.0429,0.0940,-0.2458,21.8813,11.1375,-27.7688,
9.210079,0.2276,1.5875,2.7112,2.0429,0.0940,-0.2458,21.8813,11.1375,-27.7688,
9.227235,0.2276,1.5875,2.7112,2.0429,0.0940,-0.2458,21.9375,12.6938,-27.1125,
9.248805,-0.7581,1.4055,-1.5729,2.0429,0.0940,-0.2458,21.9375,12.6938,-27.1125,
9.269333,-0.7581,1.4055,-1.5729,0.2483,0.2931,-0.1517,21.9375,12.6938,-27.1125,
9.272672,-0.7581,1.4055,-1.5729,0.2483,0.2931,-0.1517,21.9375,12.6938,-27.1125,
9.286734,-0.7581,1.4055,-1.5729,0.2483,0.2931,-0.1517,21.9563,13.7438,-26.6063,
9.309643,-0.2614,0.7751,-3.3301,0.2483,0.2931,-0.1517,21.9563,13.7438,-26.6063,
9.327803,-0.2614,0.7751,-3.3301,-1.2356,0.2792,-0.4304,21.9563,13.7438,-26.6063,
9.329312,-0.2614,0.7751,-3.3301,-1.2356,0.2792,-0.4304,21.9563,13.7438,-26.6063,
9.348573,-0.2614,0.7751,-3.3301,-1.2356,0.2792,-0.4304,21.9750,14.7000,-26.0063,
9.370686,0.1691,0.0343,-1.4063,-1.2356,0.2792,-0.4304,21.9750,14.7000,-26.0063,
9.390504,0.1691,0.0343,-1.4063,-0.5603,0.1639,-0.0048,21.9750,14.7000,-26.0063,
9.392330,0.1691,0.0343,-1.4063,-0.5603,0.1639,-0.0048,21.9750,14.7000,-26.0063,
9.407162,0.1691,0.0343,-1.4063,-0.5603,0.1639,-0.0048,21.7875,15.4500,-25.5188,
9.451817,0.1691,0.0343,-1.4063,0.3286,0.1706,-0.1435,21.7875,15.4500,-25.5188,
9.454060,0.1691,0.0343,-1.4063,0.3286,0.1706,-0.1435,21.7875,15.4500,-25.5188,
9.455330,-0.3766,0.4457,1.8914,0.3286,0.1706,-0.1435,21.7875,15.4500,-25.5188,
9.467137,-0.3766,0.4457,1.8914,0.3286,0.1706,-0.1435,21.7688,15.8438,-25.1625,
9.512912,-0.3766,0.4457,1.8914,0.0727,0.1923,-0.0711,21.7688,15.8438,-25.1625,
9.516486,0.2925,-0.3938,0.9859,0.0727,0.1923,-0.0711,21.7688,15.8438,-25.1625,
9.518540,0.2925,-0.3938,0.9859,0.0727,0.1923,-0.0711,21.7688,15.8438,-25.1625,
9.531518,0.2925,-0.3938,0.9859,0.0727,0.1923,-0.0711,21.9188,15.9375,-24.9750,
9.572485,0.2925,-0.3938,0.9859,-0.1244,0.3779,0.0272,21.9188,15.9375,-24.9750,
9.574109,-0.3658,-0.0383,-0.7018,-0.1244,0.3779,0.0272,21.9188,15.9375,-24.9750,
9.575147,-0.3658,-0.0383,-0.7018,-0.1244,0.3779,0.0272,21.9188,15.9375,-24.9750,
9.585534,-0.3658,-0.0383,-0.7018,-0.1244,0.3779,0.0272,22.0125,15.8063,-25.2188,
