
time,ax,ay,az,wx,wy,wz,Bx,By,Bz,
0.069436,0.0000,0.0000,0.0000,-0.0072,-0.0274,0.0186,0.0000,0.0000,0.0000,
0.129373,0.0000,0.0000,0.0000,-0.0072,-0.0274,0.0186,16.4625,21.9563,-43.9500,
0.157926,0.0000,0.0000,0.0000,0.0035,-0.0310,-0.0176,16.4625,21.9563,-43.9500,
0.191575,0.0000,0.0000,0.0000,0.0035,-0.0310,-0.0176,16.3875,21.6000,-43.7812,
0.199258,0.0000,0.0000,0.0000,0.0084,-0.0274,-0.0051,16.3875,21.6000,-43.7812,
0.249583,0.0000,0.0000,0.0000,0.0084,-0.0274,-0.0051,16.9500,21.9375,-43.7625,
0.259502,0.0000,0.0000,0.0000,0.0084,-0.0274,-0.0051,16.9500,21.9375,-43.7625,
0.260608,0.0000,0.0000,0.0000,0.0084,0.0009,0.0067,16.9500,21.9375,-43.7625,
0.299859,0.0000,0.0000,0.0000,0.0084,0.0009,0.0067,16.9500,21.9375,-43.7625,
0.309515,0.0000,0.0000,0.0000,0.0084,0.0009,0.0067,17.0813,21.6938,-43.7812,
0.319735,0.0000,0.0000,0.0000,0.0020,0.0024,-0.0001,17.0813,21.6938,-43.7812,
0.320221,0.0000,0.0000,0.0000,0.0020,0.0024,-0.0001,17.0813,21.6938,-43.7812,
0.360964,0.0145,0.0048,-0.0004,0.0020,0.0024,-0.0001,17.0813,21.6938,-43.7812,
0.370454,0.0145,0.0048,-0.0004,0.0020,0.0024,-0.0001,17.2313,21.6938,-43.7812,
0.381576,0.0145,0.0048,-0.0004,0.0020,0.0024,-0.0001,17.2313,21.6938,-43.7812,
0.382610,0.0145,0.0048,-0.0004,-0.0019,0.0261,-0.0016,17.2313,21.6938,-43.7812,
0.421716,0.0241,-0.0061,-0.0234,-0.0019,0.0261,-0.0016,17.2313,21.6938,-43.7812,
0.429376,0.0241,-0.0061,-0.0234,-0.0019,0.0261,-0.0016,17.2500,21.7125,-43.6875,
0.444841,0.0241,-0.0061,-0.0234,-0.0019,0.0261,-0.0016,17.2500,21.7125,-43.6875,
0.446232,0.0241,-0.0061,-0.0234,-0.0029,0.0648,-0.0097,17.2500,21.7125,-43.6875,
0.482510,-0.0208,-0.0008,-0.0062,-0.0029,0.0648,-0.0097,17.2500,21.7125,-43.6875,
0.489307,-0.0208,-0.0008,-0.0062,-0.0029,0.0648,-0.0097,17.3063,21.5813,-43.7063,
0.502503,-0.0208,-0.0008,-0.0062,0.0091,0.0056,-0.0104,17.3063,21.5813,-43.7063,
0.503660,-0.0208,-0.0008,-0.0062,0.0091,0.0056,-0.0104,17.3063,21.5813,-43.7063,
0.550807,-0.0208,-0.0008,-0.0062,0.0091,0.0056,-0.0104,17.3438,21.4688,-43.5000,
0.565547,-0.0208,-0.0008,-0.0062,0.0073,0.0095,-0.0072,17.3438,21.4688,-43.5000,
0.566418,-0.0208,-0.0008,-0.0062,0.0073,0.0095,-0.0072,17.3438,21.4688,-43.5000,
0.566977,0.0092,0.0125,0.0016,0.0073,0.0095,-0.0072,17.3438,21.4688,-43.5000,
0.610330,0.0092,0.0125,0.0016,0.0073,0.0095,-0.0072,17.5312,21.4125,-43.3313,
0.625772,0.0092,0.0125,0.0016,0.0080,0.0037,-0.0119,17.5312,21.4125,-43.3313,
0.626635,0.0010,0.0129,-0.0014,0.0080,0.0037,-0.0119,17.5312,21.4125,-43.3313,
0.627328,0.0010,0.0129,-0.0014,0.0080,0.0037,-0.0119,17.5312,21.4125,-43.3313,
0.670800,0.0010,0.0129,-0.0014,0.0080,0.0037,-0.0119,17.8500,21.4688,-43.1250,
0.686352,0.0010,0.0129,-0.0014,0.0056,0.0045,-0.0136,17.8500,21.4688,-43.1250,
0.687119,0.0010,0.0129,-0.0014,0.0056,0.0045,-0.0136,17.8500,21.4688,-43.1250,
0.687507,0.0187,0.0057,-0.0022,0.0056,0.0045,-0.0136,17.8500,21.4688,-43.1250,
0.729883,0.0187,0.0057,-0.0022,0.0056,0.0045,-0.0136,17.7375,21.1875,-43.0125,
0.748630,0.0187,0.0057,-0.0022,-0.0001,0.0041,-0.0119,17.7375,21.1875,-43.0125,
0.749354,0.0187,0.0057,-0.0022,-0.0001,0.0041,-0.0119,17.7375,21.1875,-43.0125,
0.768105,-0.0054,0.0060,-0.0111,-0.0001,0.0041,-0.0119,17.7375,21.1875,-43.0125,
0.790694,-0.0054,0.0060,-0.0111,-0.0001,0.0041,-0.0119,17.9062,21.2438,-42.8250,
0.808594,-0.0054,0.0060,-0.0111,0.0073,0.0123,-0.0154,17.9062,21.2438,-42.8250,
0.809424,-0.0054,0.0060,-0.0111,0.0073,0.0123,-0.0154,17.9062,21.2438,-42.8250,
0.828721,0.0092,-0.0100,-0.0159,0.0073,0.0123,-0.0154,17.9062,21.2438,-42.8250,
0.852141,0.0092,-0.0100,-0.0159,0.0073,0.0123,-0.0154,17.9062,21.2250,-42.5813,
0.869415,0.0092,-0.0100,-0.0159,0.0169,0.0130,-0.0197,17.9062,21.2250,-42.5813,
0.870532,0.0092,-0.0100,-0.0159,0.0169,0.0130,-0.0197,17.9062,21.2250,-42.5813,
0.891432,-0.0146,-0.0186,-0.0407,0.0169,0.0130,-0.0197,17.9062,21.2250,-42.5813,
0.911257,-0.0146,-0.0186,-0.0407,0.0169,0.0130,-0.0197,18.0000,21.1688,-42.5625,
0.932107,-0.0146,-0.0186,-0.0407,0.0250,0.0045,-0.0296,18.0000,21.1688,-42.5625,
0.934141,-0.0146,-0.0186,-0.0407,0.0250,0.0045,-0.0296,18.0000,21.1688,-42.5625,
0.953693,-0.0183,0.0131,0.0272,0.0250,0.0045,-0.0296,18.0000,21.1688,-42.5625,
0.973932,-0.0183,0.0131,0.0272,0.0250,0.0045,-0.0296,18.0938,21.1125,-42.3750,
0.992751,-0.0183,0.0131,0.0272,0.0180,-0.0051,-0.0317,18.0938,21.1125,-42.3750,
0.993929,-0.0183,0.0131,0.0272,0.0180,-0.0051,-0.0317,18.0938,21.1125,-42.3750,
1.031092,-0.0183,0.0131,0.0272,0.0180,-0.0051,-0.0317,18.2250,21.2812,-42.3750,
1.032030,0.0011,0.0149,0.0002,0.0180,-0.0051,-0.0317,18.2250,21.2812,-42.3750,
1.052997,0.0011,0.0149,0.0002,0.0137,0.0045,-0.0328,18.2250,21.2812,-42.3750,
1.055404,0.0011,0.0149,0.0002,0.0137,0.0045,-0.0328,18.2250,21.2812,-42.3750,
1.091852,-0.0104,-0.0046,0.0092,0.0137,0.0045,-0.0328,18.2250,21.2812,-42.3750,
1.092677,-0.0104,-0.0046,0.0092,0.0137,0.0045,-0.0328,18.2812,21.2438,-42.3000,
1.113448,-0.0104,-0.0046,0.0092,0.0137,0.0045,-0.0328,18.2812,21.2438,-42.3000,
1.114544,-0.0104,-0.0046,0.0092,0.0063,0.0027,-0.0332,18.2812,21.2438,-42.3000,
1.152919,-0.0104,-0.0046,0.0092,0.0063,0.0027,-0.0332,18.1500,21.0938,-42.3750,
1.153845,-0.0037,-0.0215,-0.0053,0.0063,0.0027,-0.0332,18.1500,21.0938,-42.3750,
1.175534,-0.0037,-0.0215,-0.0053,0.0063,0.0027,-0.0332,18.1500,21.0938,-42.3750,
1.176553,-0.0037,-0.0215,-0.0053,-0.0019,-0.0119,-0.0353,18.1500,21.0938,-42.3750,
1.211155,-0.0037,-0.0215,-0.0053,-0.0019,-0.0119,-0.0353,18.2812,21.1688,-42.4125,
1.234622,-0.0037,-0.0215,-0.0053,-0.0123,-0.0246,-0.0463,18.2812,21.1688,-42.4125,
1.235529,-0.0037,-0.0215,-0.0053,-0.0123,-0.0246,-0.0463,18.2812,21.1688,-42.4125,
1.236018,-0.0591,0.0312,0.0289,-0.0123,-0.0246,-0.0463,18.2812,21.1688,-42.4125,
1.271638,-0.0591,0.0312,0.0289,-0.0123,-0.0246,-0.0463,18.0750,21.0750,-42.2812,
1.296568,-0.0591,0.0312,0.0289,-0.0123,-0.0246,-0.0463,18.0750,21.0750,-42.2812,
1.297511,-0.0591,0.0312,0.0289,-0.0278,-0.0278,-0.0423,18.0750,21.0750,-42.2812,
1.298194,-0.0000,0.0350,0.0457,-0.0278,-0.0278,-0.0423,18.0750,21.0750,-42.2812,
1.331158,-0.0000,0.0350,0.0457,-0.0278,-0.0278,-0.0423,17.9625,20.9438,-42.3750,
1.358631,-0.0000,0.0350,0.0457,-0.0336,-0.0189,-0.0336,17.9625,20.9438,-42.3750,
1.360159,0.0120,-0.0009,0.0170,-0.0336,-0.0189,-0.0336,17.9625,20.9438,-42.3750,
1.361645,0.0120,-0.0009,0.0170,-0.0336,-0.0189,-0.0336,17.9625,20.9438,-42.3750,
1.390899,0.0120,-0.0009,0.0170,-0.0336,-0.0189,-0.0336,17.9062,20.9438,-42.4313,
1.417436,0.0120,-0.0009,0.0170,-0.0336,-0.0189,-0.0336,17.9062,20.9438,-42.4313,
1.418254,0.0120,-0.0009,0.0170,-0.0278,-0.0108,-0.0282,17.9062,20.9438,-42.4313,
1.419064,0.0319,-0.0388,-0.0348,-0.0278,-0.0108,-0.0282,17.9062,20.9438,-42.4313,
1.450253,0.0319,-0.0388,-0.0348,-0.0278,-0.0108,-0.0282,17.7938,21.0750,-42.5438,
1.477419,0.0319,-0.0388,-0.0348,-0.0278,-0.0108,-0.0282,17.7938,21.0750,-42.5438,
1.477926,0.0319,-0.0388,-0.0348,-0.0104,0.0354,-0.0182,17.7938,21.0750,-42.5438,
1.498915,0.1930,-0.0607,-0.1346,-0.0104,0.0354,-0.0182,17.7938,21.0750,-42.5438,
1.509866,0.1930,-0.0607,-0.1346,-0.0104,0.0354,-0.0182,17.6813,21.1125,-42.6562,
1.539315,0.1930,-0.0607,-0.1346,0.0123,0.1209,-0.0061,17.6813,21.1125,-42.6562,
1.540467,0.1930,-0.0607,-0.1346,0.0123,0.1209,-0.0061,17.6813,21.1125,-42.6562,
1.559674,-0.0994,-0.0330,0.0724,0.0123,0.1209,-0.0061,17.6813,21.1125,-42.6562,
1.570751,-0.0994,-0.0330,0.0724,0.0123,0.1209,-0.0061,17.5500,21.0750,-42.6750,
1.601265,-0.0994,-0.0330,0.0724,0.0365,0.0485,-0.0385,17.5500,21.0750,-42.6750,
1.602571,-0.0994,-0.0330,0.0724,0.0365,0.0485,-0.0385,17.5500,21.0750,-42.6750,
1.619951,-0.1037,0.0586,-0.0809,0.0365,0.0485,-0.0385,17.5500,21.0750,-42.6750,
1.631319,-0.1037,0.0586,-0.0809,0.0365,0.0485,-0.0385,17.5688,21.1688,-42.6375,
1.661094,-0.1037,0.0586,-0.0809,0.0439,0.0830,-0.0491,17.5688,21.1688,-42.6375,
1.662651,-0.1037,0.0586,-0.0809,0.0439,0.0830,-0.0491,17.5688,21.1688,-42.6375,
1.691527,-0.1037,0.0586,-0.0809,0.0439,0.0830,-0.0491,17.5875,21.1875,-42.5438,
1.701932,0.0003,0.0212,-0.0434,0.0439,0.0830,-0.0491,17.5875,21.1875,-42.5438,
1.723850,0.0003,0.0212,-0.0434,0.0439,0.0830,-0.0491,17.5875,21.1875,-42.5438,
1.724807,0.0003,0.0212,-0.0434,0.0154,0.0893,-0.0485,17.5875,21.1875,-42.5438,
1.750697,0.0003,0.0212,-0.0434,0.0154,0.0893,-0.0485,17.6250,21.2438,-42.6375,
1.763212,-0.1020,-0.0065,0.1002,0.0154,0.0893,-0.0485,17.6250,21.2438,-42.6375,
1.783139,-0.1020,-0.0065,0.1002,-0.0197,0.0280,-0.0602,17.6250,21.2438,-42.6375,
1.783977,-0.1020,-0.0065,0.1002,-0.0197,0.0280,-0.0602,17.6250,21.2438,-42.6375,
1.810592,-0.1020,-0.0065,0.1002,-0.0197,0.0280,-0.0602,17.8688,21.4688,-42.4125,
1.824709,0.0424,-0.0234,-0.0018,-0.0197,0.0280,-0.0602,17.8688,21.4688,-42.4125,
1.844404,0.0424,-0.0234,-0.0018,-0.0197,0.0280,-0.0602,17.8688,21.4688,-42.4125,
1.845092,0.0424,-0.0234,-0.0018,-0.0325,0.0527,-0.0591,17.8688,21.4688,-42.4125,
1.870340,0.0424,-0.0234,-0.0018,-0.0325,0.0527,-0.0591,18.0563,21.5063,-42.1688,
1.884970,-0.0834,-0.0871,0.0641,-0.0325,0.0527,-0.0591,18.0563,21.5063,-42.1688,
1.904219,-0.0834,-0.0871,0.0641,-0.0257,0.0439,-0.0651,18.0563,21.5063,-42.1688,
1.905248,-0.0834,-0.0871,0.0641,-0.0257,0.0439,-0.0651,18.0563,21.5063,-42.1688,
1.931256,-0.0834,-0.0871,0.0641,-0.0257,0.0439,-0.0651,18.0188,21.5625,-42.0000,
1.965934,-0.0834,-0.0871,0.0641,-0.0257,0.0439,-0.0651,18.0188,21.5625,-42.0000,
1.967449,-0.0834,-0.0871,0.0641,-0.0161,-0.0498,-0.0924,18.0188,21.5625,-42.0000,
1.969088,-0.0336,-0.0532,0.0052,-0.0161,-0.0498,-0.0924,18.0188,21.5625,-42.0000,
1.991584,-0.0336,-0.0532,0.0052,-0.0161,-0.0498,-0.0924,18.0375,21.5813,-41.7750,
2.026611,-0.0336,-0.0532,0.0052,-0.0274,-0.0515,-0.0975,18.0375,21.5813,-41.7750,
2.027717,-0.1048,0.1087,0.0688,-0.0274,-0.0515,-0.0975,18.0375,21.5813,-41.7750,
2.028463,-0.1048,0.1087,0.0688,-0.0274,-0.0515,-0.0975,18.0375,21.5813,-41.7750,
2.050807,-0.1048,0.1087,0.0688,-0.0274,-0.0515,-0.0975,18.0188,21.7313,-41.6813,
2.087855,-0.1048,0.1087,0.0688,-0.0459,-0.0249,-0.1035,18.0188,21.7313,-41.6813,
2.089544,-0.1048,0.1087,0.0688,-0.0459,-0.0249,-0.1035,18.0188,21.7313,-41.6813,
2.090537,-0.0783,-0.0064,0.0273,-0.0459,-0.0249,-0.1035,18.0188,21.7313,-41.6813,
2.110638,-0.0783,-0.0064,0.0273,-0.0459,-0.0249,-0.1035,17.9625,21.7125,-41.7375,
2.150016,-0.0783,-0.0064,0.0273,-0.1027,-0.1045,-0.1169,17.9625,21.7125,-41.7375,
2.151943,-0.0783,-0.0064,0.0273,-0.1027,-0.1045,-0.1169,17.9625,21.7125,-41.7375,
2.169646,-0.0783,-0.0064,0.0273,-0.1027,-0.1045,-0.1169,17.9062,22.0125,-41.6438,
2.170854,-0.0751,-0.0884,0.3148,-0.1027,-0.1045,-0.1169,17.9062,22.0125,-41.6438,
2.218853,-0.0751,-0.0884,0.3148,-0.1027,-0.1045,-0.1169,17.9062,22.0125,-41.6438,
2.220416,-0.0751,-0.0884,0.3148,-0.2294,-0.2397,-0.1190,17.9062,22.0125,-41.6438,
2.229456,-0.0751,-0.0884,0.3148,-0.2294,-0.2397,-0.1190,17.9625,22.3125,-41.4750,
2.229997,0.0119,0.0329,0.0475,-0.2294,-0.2397,-0.1190,17.9625,22.3125,-41.4750,
2.272714,0.0119,0.0329,0.0475,-0.2294,-0.2397,-0.1190,17.9625,22.3125,-41.4750,
2.273901,0.0119,0.0329,0.0475,-0.3519,-0.3835,-0.1836,17.9625,22.3125,-41.4750,
2.291785,0.0119,0.0329,0.0475,-0.3519,-0.3835,-0.1836,17.6625,22.6125,-41.4750,
2.292984,0.0255,-0.1265,0.0647,-0.3519,-0.3835,-0.1836,17.6625,22.6125,-41.4750,
2.331399,0.0255,-0.1265,0.0647,-0.3519,-0.3835,-0.1836,17.6625,22.6125,-41.4750,
2.332075,0.0255,-0.1265,0.0647,-0.3675,-0.2667,-0.2060,17.6625,22.6125,-41.4750,
2.352462,0.0255,-0.1265,0.0647,-0.3675,-0.2667,-0.2060,17.0625,23.0438,-41.5312,
2.353701,0.0961,0.0187,-0.1216,-0.3675,-0.2667,-0.2060,17.0625,23.0438,-41.5312,
2.393169,0.0961,0.0187,-0.1216,-0.3579,-0.1759,-0.2597,17.0625,23.0438,-41.5312,
2.394250,0.0961,0.0187,-0.1216,-0.3579,-0.1759,-0.2597,17.0625,23.0438,-41.5312,
2.411313,0.0961,0.0187,-0.1216,-0.3579,-0.1759,-0.2597,16.6688,23.6438,-41.4375,
2.432026,-0.3399,0.2858,-0.0844,-0.3579,-0.1759,-0.2597,16.6688,23.6438,-41.4375,
2.452255,-0.3399,0.2858,-0.0844,-0.3253,-0.2021,-0.3419,16.6688,23.6438,-41.4375,
2.453972,-0.3399,0.2858,-0.0844,-0.3253,-0.2021,-0.3419,16.6688,23.6438,-41.4375,
2.472801,-0.3399,0.2858,-0.0844,-0.3253,-0.2021,-0.3419,16.0312,24.3750,-41.3625,
2.493142,-0.1664,0.2746,-0.0342,-0.3253,-0.2021,-0.3419,16.0312,24.3750,-41.3625,
2.514048,-0.1664,0.2746,-0.0342,-0.2927,0.0538,-0.3760,16.0312,24.3750,-41.3625,
2.515072,-0.1664,0.2746,-0.0342,-0.2927,0.0538,-0.3760,16.0312,24.3750,-41.3625,
2.530214,-0.1664,0.2746,-0.0342,-0.2927,0.0538,-0.3760,15.4500,25.2563,-41.1000,
2.553614,-0.2677,-0.3214,-0.0282,-0.2927,0.0538,-0.3760,15.4500,25.2563,-41.1000,
2.574162,-0.2677,-0.3214,-0.0282,-0.2447,0.0936,-0.4706,15.4500,25.2563,-41.1000,
2.575581,-0.2677,-0.3214,-0.0282,-0.2447,0.0936,-0.4706,15.4500,25.2563,-41.1000,
2.591522,-0.2677,-0.3214,-0.0282,-0.2447,0.0936,-0.4706,14.7000,26.3438,-40.7812,
2.636798,-0.2677,-0.3214,-0.0282,-0.2209,0.2807,-0.5135,14.7000,26.3438,-40.7812,
2.638063,-0.2677,-0.3214,-0.0282,-0.2209,0.2807,-0.5135,14.7000,26.3438,-40.7812,
2.638832,-0.0474,0.2641,-0.1287,-0.2209,0.2807,-0.5135,14.7000,26.3438,-40.7812,
2.649689,-0.0474,0.2641,-0.1287,-0.2209,0.2807,-0.5135,13.7250,27.3563,-40.8375,
2.696938,-0.0474,0.2641,-0.1287,-0.1453,0.5494,-0.6029,13.7250,27.3563,-40.8375,
2.698226,-0.2051,0.1716,-0.2792,-0.1453,0.5494,-0.6029,13.7250,27.3563,-40.8375,
2.699068,-0.2051,0.1716,-0.2792,-0.1453,0.5494,-0.6029,13.7250,27.3563,-40.8375,
2.712082,-0.2051,0.1716,-0.2792,-0.1453,0.5494,-0.6029,13.0688,28.3313,-40.5000,
2.758135,-0.2051,0.1716,-0.2792,-0.1453,0.5494,-0.6029,13.0688,28.3313,-40.5000,
2.759386,0.7443,1.6215,-1.2198,-0.1453,0.5494,-0.6029,13.0688,28.3313,-40.5000,
2.760704,0.7443,1.6215,-1.2198,-0.0981,-0.4677,-1.1308,13.0688,28.3313,-40.5000,
2.771161,0.7443,1.6215,-1.2198,-0.0981,-0.4677,-1.1308,12.1688,29.4750,-40.0688,
2.820925,0.7443,1.6215,-1.2198,-0.3147,-1.5948,-1.7809,12.1688,29.4750,-40.0688,
2.822790,0.7443,1.6215,-1.2198,-0.3147,-1.5948,-1.7809,12.1688,29.4750,-40.0688,
2.824112,2.3795,0.2685,0.4489,-0.3147,-1.5948,-1.7809,12.1688,29.4750,-40.0688,
2.830395,2.3795,0.2685,0.4489,-0.3147,-1.5948,-1.7809,10.5750,30.6188,-39.5438,
2.879005,2.3795,0.2685,0.4489,-0.3147,-1.5948,-1.7809,10.5750,30.6188,-39.5438,
2.880757,2.3795,0.2685,0.4489,-0.3459,-1.9352,-2.1114,10.5750,30.6188,-39.5438,
2.890875,2.3795,0.2685,0.4489,-0.3459,-1.9352,-2.1114,7.8938,31.7250,-38.9813,
2.899154,0.5524,-0.7209,2.2004,-0.3459,-1.9352,-2.1114,7.8938,31.7250,-38.9813,
2.940663,0.5524,-0.7209,2.2004,-0.3459,-1.9352,-2.1114,7.8938,31.7250,-38.9813,
2.941804,0.5524,-0.7209,2.2004,-0.1169,-0.6579,-2.3954,7.8938,31.7250,-38.9813,
2.950484,0.5524,-0.7209,2.2004,-0.1169,-0.6579,-2.3954,4.1813,32.4750,-38.6625,
2.961526,1.9110,-2.2542,2.5093,-0.1169,-0.6579,-2.3954,4.1813,32.4750,-38.6625,
3.000744,1.9110,-2.2542,2.5093,-0.1169,-0.6579,-2.3954,4.1813,32.4750,-38.6625,
3.001449,1.9110,-2.2542,2.5093,0.4539,0.4181,-2.9974,4.1813,32.4750,-38.6625,
3.010758,1.9110,-2.2542,2.5093,0.4539,0.4181,-2.9974,0.1500,32.3438,-38.4188,
3.021979,-3.7839,-11.2526,0.5409,0.4539,0.4181,-2.9974,0.1500,32.3438,-38.4188,
3.062014,-3.7839,-11.2526,0.5409,0.4539,0.4181,-2.9974,0.1500,32.3438,-38.4188,
3.063629,-3.7839,-11.2526,0.5409,1.3322,-1.5167,-2.8661,0.1500,32.3438,-38.4188,
3.071228,-3.7839,-11.2526,0.5409,1.3322,-1.5167,-2.8661,-4.7063,31.1813,-38.0625,
3.102576,-2.8300,-5.6592,-7.0764,1.3322,-1.5167,-2.8661,-4.7063,31.1813,-38.0625,
3.123029,-2.8300,-5.6592,-7.0764,1.3322,-1.5167,-2.8661,-4.7063,31.1813,-38.0625,
3.124137,-2.8300,-5.6592,-7.0764,0.2820,-0.3895,-1.5930,-4.7063,31.1813,-38.0625,
3.130407,-2.8300,-5.6592,-7.0764,0.2820,-0.3895,-1.5930,-9.5438,29.3813,-37.3688,
3.163516,-0.7142,2.8461,-3.4247,0.2820,-0.3895,-1.5930,-9.5438,29.3813,-37.3688,
3.183684,-0.7142,2.8461,-3.4247,0.2820,-0.3895,-1.5930,-9.5438,29.3813,-37.3688,
3.184542,-0.7142,2.8461,-3.4247,-0.1919,1.2566,-1.5703,-9.5438,29.3813,-37.3688,
3.190875,-0.7142,2.8461,-3.4247,-0.1919,1.2566,-1.5703,-14.3813,27.5438,-37.1063,
3.224751,0.1440,-0.0133,-0.7670,-0.1919,1.2566,-1.5703,-14.3813,27.5438,-37.1063,
3.244709,0.1440,-0.0133,-0.7670,-0.0023,1.1827,-1.7091,-14.3813,27.5438,-37.1063,
3.246471,0.1440,-0.0133,-0.7670,-0.0023,1.1827,-1.7091,-14.3813,27.5438,-37.1063,
3.250265,0.1440,-0.0133,-0.7670,-0.0023,1.1827,-1.7091,-18.5813,25.1250,-37.0688,
3.285494,0.9886,-1.7782,-0.9799,-0.0023,1.1827,-1.7091,-18.5813,25.1250,-37.0688,
3.305672,0.9886,-1.7782,-0.9799,0.0557,2.7544,-2.1188,-18.5813,25.1250,-37.0688,
3.306672,0.9886,-1.7782,-0.9799,0.0557,2.7544,-2.1188,-18.5813,25.1250,-37.0688,
3.310186,0.9886,-1.7782,-0.9799,0.0557,2.7544,-2.1188,-21.0750,22.4250,-37.3688,
3.370589,-7.6714,2.8188,-2.2354,0.0557,2.7544,-2.1188,-21.0750,22.4250,-37.3688,
3.372709,-7.6714,2.8188,-2.2354,0.0329,3.0479,-0.5823,-21.0750,22.4250,-37.3688,
3.373838,-7.6714,2.8188,-2.2354,0.0329,3.0479,-0.5823,-21.0750,22.4250,-37.3688,
3.374525,-7.6714,2.8188,-2.2354,0.0329,3.0479,-0.5823,-21.3563,19.4813,-38.0813,
3.428183,-7.6714,2.8188,-2.2354,0.0329,3.0479,-0.5823,-21.3563,19.4813,-38.0813,
3.431177,-7.6714,2.8188,-2.2354,-0.0886,-0.0800,-0.5352,-21.3563,19.4813,-38.0813,
3.432797,3.3060,7.7159,-4.2572,-0.0886,-0.0800,-0.5352,-21.3563,19.4813,-38.0813,
3.434087,3.3060,7.7159,-4.2572,-0.0886,-0.0800,-0.5352,-20.6438,16.7438,-38.9625,
3.489625,3.3060,7.7159,-4.2572,-0.0886,-0.0800,-0.5352,-20.6438,16.7438,-38.9625,
3.491695,3.3060,7.7159,-4.2572,-0.0886,-0.0800,-0.5352,-19.7438,15.0750,-39.3000,
3.493443,3.3060,7.7159,-4.2572,-1.7585,-1.9296,-0.7378,-19.7438,15.0750,-39.3000,
3.494769,0.0370,-3.2355,-1.6079,-1.7585,-1.9296,-0.7378,-19.7438,15.0750,-39.3000,
3.550750,0.0370,-3.2355,-1.6079,-2.4365,0.4273,0.6278,-19.7438,15.0750,-39.3000,
3.553089,0.0370,-3.2355,-1.6079,-2.4365,0.4273,0.6278,-19.7438,15.0750,-39.3000,
3.554011,0.0370,-3.2355,-1.6079,-2.4365,0.4273,0.6278,-17.9062,15.1125,-39.3375,
3.555119,-3.4123,0.0028,4.6190,-2.4365,0.4273,0.6278,-17.9062,15.1125,-39.3375,
3.611398,-3.4123,0.0028,4.6190,-1.6289,0.4177,0.4819,-17.9062,15.1125,-39.3375,
3.613237,-3.4123,0.0028,4.6190,-1.6289,0.4177,0.4819,-17.9062,15.1125,-39.3375,
3.614029,-3.4123,0.0028,4.6190,-1.6289,0.4177,0.4819,-15.5250,16.0312,-39.0375,
3.631366,-4.2644,2.4326,5.6627,-1.6289,0.4177,0.4819,-15.5250,16.0312,-39.0375,
3.672061,-4.2644,2.4326,5.6627,-0.8557,0.4823,0.7348,-15.5250,16.0312,-39.0375,
3.675924,-4.2644,2.4326,5.6627,-0.8557,0.4823,0.7348,-13.0125,17.4938,-38.5688,
3.677185,-4.2644,2.4326,5.6627,-0.8557,0.4823,0.7348,-13.0125,17.4938,-38.5688,
3.692255,-1.6599,0.0847,3.6033,-0.8557,0.4823,0.7348,-13.0125,17.4938,-38.5688,
3.731759,-1.6599,0.0847,3.6033,-0.8557,0.4823,0.7348,-10.2938,19.5188,-37.9313,
3.733848,-1.6599,0.0847,3.6033,-0.8557,0.4823,0.7348,-10.2938,19.5188,-37.9313,
3.734690,-1.6599,0.0847,3.6033,-0.4723,1.2654,1.1405,-10.2938,19.5188,-37.9313,
3.752491,1.0062,-0.2184,0.4595,-0.4723,1.2654,1.1405,-10.2938,19.5188,-37.9313,
3.792093,1.0062,-0.2184,0.4595,-0.4723,1.2654,1.1405,-7.8188,21.8813,-36.6750,
3.794512,1.0062,-0.2184,0.4595,-0.6735,0.8558,1.0197,-7.8188,21.8813,-36.6750,
3.795592,1.0062,-0.2184,0.4595,-0.6735,0.8558,1.0197,-7.8188,21.8813,-36.6750,
3.832996,0.2146,0.8571,0.1263,-0.6735,0.8558,1.0197,-7.8188,21.8813,-36.6750,
3.850483,0.2146,0.8571,0.1263,-0.6735,0.8558,1.0197,-6.2813,24.4125,-35.1375,
3.853451,0.2146,0.8571,0.1263,-0.6735,0.8558,1.0197,-6.2813,24.4125,-35.1375,
3.853915,0.2146,0.8571,0.1263,-0.7911,-0.3633,0.5696,-6.2813,24.4125,-35.1375,
3.894322,0.0469,2.3425,1.3855,-0.7911,-0.3633,0.5696,-6.2813,24.4125,-35.1375,
3.910829,0.0469,2.3425,1.3855,-0.7911,-0.3633,0.5696,-4.4062,27.3000,-33.2438,
3.913176,0.0469,2.3425,1.3855,-0.6204,0.0130,0.6229,-4.4062,27.3000,-33.2438,
3.913695,0.0469,2.3425,1.3855,-0.6204,0.0130,0.6229,-4.4062,27.3000,-33.2438,
3.955573,-0.0419,0.5905,1.4514,-0.6204,0.0130,0.6229,-4.4062,27.3000,-33.2438,
3.970832,-0.0419,0.5905,1.4514,-0.6204,0.0130,0.6229,-2.0063,29.7563,-31.4063,
3.975277,-0.0419,0.5905,1.4514,-0.4386,0.4071,0.7131,-2.0063,29.7563,-31.4063,
3.976643,-0.0419,0.5905,1.4514,-0.4386,0.4071,0.7131,-2.0063,29.7563,-31.4063,
4.016638,-0.2208,-0.6213,1.3527,-0.4386,0.4071,0.7131,-2.0063,29.7563,-31.4063,
4.030705,-0.2208,-0.6213,1.3527,-0.4386,0.4071,0.7131,0.8625,31.5000,-29.8125,
4.036604,-0.2208,-0.6213,1.3527,-0.3523,0.2423,0.6048,0.8625,31.5000,-29.8125,
4.037315,-0.2208,-0.6213,1.3527,-0.3523,0.2423,0.6048,0.8625,31.5000,-29.8125,
4.094515,-0.2208,-0.6213,1.3527,-0.3523,0.2423,0.6048,3.2250,32.7938,-28.5375,
4.097857,-0.2208,-0.6213,1.3527,-0.2043,-0.1876,0.4838,3.2250,32.7938,-28.5375,
4.099765,-0.2208,-0.6213,1.3527,-0.2043,-0.1876,0.4838,3.2250,32.7938,-28.5375,
4.101004,-0.5085,-0.6887,1.4301,-0.2043,-0.1876,0.4838,3.2250,32.7938,-28.5375,
4.150868,-0.5085,-0.6887,1.4301,-0.2043,-0.1876,0.4838,5.2688,33.5438,-27.4875,
4.158527,-0.5085,-0.6887,1.4301,-0.0204,-0.1453,0.4113,5.2688,33.5438,-27.4875,
4.159732,-0.5085,-0.6887,1.4301,-0.0204,-0.1453,0.4113,5.2688,33.5438,-27.4875,
4.160453,0.5927,-0.9335,0.7932,-0.0204,-0.1453,0.4113,5.2688,33.5438,-27.4875,
4.211012,0.5927,-0.9335,0.7932,-0.0204,-0.1453,0.4113,7.0313,34.1625,-26.3625,
4.220461,0.5927,-0.9335,0.7932,0.0389,-0.0526,0.2437,7.0313,34.1625,-26.3625,
4.221528,1.0236,-0.6610,-0.1061,0.0389,-0.0526,0.2437,7.0313,34.1625,-26.3625,
4.222023,1.0236,-0.6610,-0.1061,0.0389,-0.0526,0.2437,7.0313,34.1625,-26.3625,
4.270901,1.0236,-0.6610,-0.1061,0.0389,-0.0526,0.2437,8.2875,34.6313,-25.4250,
4.280058,1.0236,-0.6610,-0.1061,0.1948,-0.1595,0.0708,8.2875,34.6313,-25.4250,
4.281393,1.0236,-0.6610,-0.1061,0.1948,-0.1595,0.0708,8.2875,34.6313,-25.4250,
4.300342,0.0797,-0.9285,-0.0540,0.1948,-0.1595,0.0708,8.2875,34.6313,-25.4250,
4.331177,0.0797,-0.9285,-0.0540,0.1948,-0.1595,0.0708,9.3750,34.9313,-24.5625,
4.342791,0.0797,-0.9285,-0.0540,0.1948,-0.1595,0.0708,9.3750,34.9313,-24.5625,
4.344722,0.0797,-0.9285,-0.0540,0.3534,-0.0782,0.1618,9.3750,34.9313,-24.5625,
4.361662,-0.1264,-0.8640,-0.4322,0.3534,-0.0782,0.1618,9.3750,34.9313,-24.5625,
4.391308,-0.1264,-0.8640,-0.4322,0.3534,-0.0782,0.1618,10.1625,34.9125,-24.2250,
4.402334,-0.1264,-0.8640,-0.4322,0.3534,-0.0782,0.1618,10.1625,34.9125,-24.2250,
4.403312,-0.1264,-0.8640,-0.4322,0.4269,-0.1819,0.1827,10.1625,34.9125,-24.2250,
4.424789,0.7554,-0.6219,-0.9319,0.4269,-0.1819,0.1827,10.1625,34.9125,-24.2250,
4.452441,0.7554,-0.6219,-0.9319,0.4269,-0.1819,0.1827,10.6125,34.8750,-24.2438,
4.464852,0.7554,-0.6219,-0.9319,0.2995,0.0772,0.0826,10.6125,34.8750,-24.2438,
4.466139,0.7554,-0.6219,-0.9319,0.2995,0.0772,0.0826,10.6125,34.8750,-24.2438,
4.483118,0.9915,-0.8469,-1.1835,0.2995,0.0772,0.0826,10.6125,34.8750,-24.2438,
4.509873,0.9915,-0.8469,-1.1835,0.2995,0.0772,0.0826,10.7625,34.7625,-24.4875,
4.523582,0.9915,-0.8469,-1.1835,0.2995,0.0772,0.0826,10.7625,34.7625,-24.4875,
4.524536,0.9915,-0.8469,-1.1835,0.1987,-0.1574,-0.0764,10.7625,34.7625,-24.4875,
4.564185,1.2812,-0.9292,-0.9513,0.1987,-0.1574,-0.0764,10.7625,34.7625,-24.4875,
4.571230,1.2812,-0.9292,-0.9513,0.1987,-0.1574,-0.0764,10.7438,34.7063,-24.8813,
4.586195,1.2812,-0.9292,-0.9513,0.1415,-0.2000,-0.1983,10.7438,34.7063,-24.8813,
4.587762,1.2812,-0.9292,-0.9513,0.1415,-0.2000,-0.1983,10.7438,34.7063,-24.8813,
4.625679,1.4229,-0.4409,-1.3151,0.1415,-0.2000,-0.1983,10.7438,34.7063,-24.8813,
4.631747,1.4229,-0.4409,-1.3151,0.1415,-0.2000,-0.1983,10.7625,34.6875,-25.2375,
4.646071,1.4229,-0.4409,-1.3151,0.1415,-0.2000,-0.1983,10.7625,34.6875,-25.2375,
4.646913,1.4229,-0.4409,-1.3151,0.0840,-0.0140,-0.1932,10.7625,34.6875,-25.2375,
4.687340,0.3883,-0.2418,-1.9800,0.0840,-0.0140,-0.1932,10.7625,34.6875,-25.2375,
4.690037,0.3883,-0.2418,-1.9800,0.0840,-0.0140,-0.1932,10.3125,34.5188,-25.7813,
4.706211,0.3883,-0.2418,-1.9800,-0.0807,-0.1024,-0.1617,10.3125,34.5188,-25.7813,
4.707420,0.3883,-0.2418,-1.9800,-0.0807,-0.1024,-0.1617,10.3125,34.5188,-25.7813,
4.751384,0.3883,-0.2418,-1.9800,-0.0807,-0.1024,-0.1617,9.7875,34.2563,-26.4750,
4.768640,0.3883,-0.2418,-1.9800,-0.0807,-0.1024,-0.1617,9.7875,34.2563,-26.4750,
4.769557,-0.3243,0.8080,-2.8241,-0.0807,-0.1024,-0.1617,9.7875,34.2563,-26.4750,
4.769910,-0.3243,0.8080,-2.8241,-0.4365,0.1678,-0.0336,9.7875,34.2563,-26.4750,
4.810452,-0.3243,0.8080,-2.8241,-0.4365,0.1678,-0.0336,9.4500,34.4438,-26.9438,
4.828000,-0.3243,0.8080,-2.8241,-0.9249,-0.0178,0.0712,9.4500,34.4438,-26.9438,
4.829300,-0.3243,0.8080,-2.8241,-0.9249,-0.0178,0.0712,9.4500,34.4438,-26.9438,
4.829739,-1.3720,0.9089,-3.0831,-0.9249,-0.0178,0.0712,9.4500,34.4438,-26.9438,
4.871894,-1.3720,0.9089,-3.0831,-0.9249,-0.0178,0.0712,9.2250,34.6500,-26.6063,
4.890393,-1.3720,0.9089,-3.0831,-0.9249,-0.0178,0.0712,9.2250,34.6500,-26.6063,
4.892176,-1.5629,0.7030,-2.4560,-0.9249,-0.0178,0.0712,9.2250,34.6500,-26.6063,
4.893419,-1.5629,0.7030,-2.4560,-1.4237,-0.2475,0.2643,9.2250,34.6500,-26.6063,
4.931022,-1.5629,0.7030,-2.4560,-1.4237,-0.2475,0.2643,9.3000,35.1562,-25.7813,
4.950916,-1.5629,0.7030,-2.4560,-1.4237,-0.2475,0.2643,9.3000,35.1562,-25.7813,
4.951698,-1.9547,-0.0308,-1.2890,-1.4237,-0.2475,0.2643,9.3000,35.1562,-25.7813,
4.952108,-1.9547,-0.0308,-1.2890,-1.8352,-0.4506,0.5377,9.3000,35.1562,-25.7813,
4.992228,-1.9547,-0.0308,-1.2890,-1.8352,-0.4506,0.5377,9.4875,35.8500,-24.2250,
5.013290,-1.9547,-0.0308,-1.2890,-1.8352,-0.4506,0.5377,9.4875,35.8500,-24.2250,
5.015387,-1.9547,-0.0308,-1.2890,-2.0325,-0.6213,0.9818,9.4875,35.8500,-24.2250,
5.031406,-2.2001,-0.8154,0.2772,-2.0325,-0.6213,0.9818,9.4875,35.8500,-24.2250,
5.051764,-2.2001,-0.8154,0.2772,-2.0325,-0.6213,0.9818,10.6688,36.0938,-21.5438,
5.071693,-2.2001,-0.8154,0.2772,-2.0325,-0.6213,0.9818,10.6688,36.0938,-21.5438,
5.073119,-2.2001,-0.8154,0.2772,-2.0406,-0.6611,1.5296,10.6688,36.0938,-21.5438,
5.091816,-1.7106,-2.1324,0.7448,-2.0406,-0.6611,1.5296,10.6688,36.0938,-21.5438,
5.111700,-1.7106,-2.1324,0.7448,-2.0406,-0.6611,1.5296,12.0375,36.5250,-19.1625,
5.133510,-1.7106,-2.1324,0.7448,-2.0406,-0.6611,1.5296,12.0375,36.5250,-19.1625,
5.134738,-1.7106,-2.1324,0.7448,-1.9633,-1.0555,1.9562,12.0375,36.5250,-19.1625,
5.153244,-0.4265,-3.4715,0.4909,-1.9633,-1.0555,1.9562,12.0375,36.5250,-19.1625,
5.169635,-0.4265,-3.4715,0.4909,-1.9633,-1.0555,1.9562,14.2125,36.6000,-16.4625,
5.193143,-0.4265,-3.4715,0.4909,-1.8280,-1.4155,2.2484,14.2125,36.6000,-16.4625,
5.195333,-0.4265,-3.4715,0.4909,-1.8280,-1.4155,2.2484,14.2125,36.6000,-16.4625,
5.230243,-0.4265,-3.4715,0.4909,-1.8280,-1.4155,2.2484,16.8000,36.4875,-14.0813,
5.233392,1.0627,-4.7689,0.5383,-1.8280,-1.4155,2.2484,16.8000,36.4875,-14.0813,
5.253493,1.0627,-4.7689,0.5383,-1.8280,-1.4155,2.2484,16.8000,36.4875,-14.0813,
5.254740,1.0627,-4.7689,0.5383,-1.7442,-1.0432,2.5839,16.8000,36.4875,-14.0813,
5.291066,1.0627,-4.7689,0.5383,-1.7442,-1.0432,2.5839,19.8375,35.7188,-11.9250,
5.294035,2.0116,-5.0078,2.0073,-1.7442,-1.0432,2.5839,19.8375,35.7188,-11.9250,
5.314607,2.0116,-5.0078,2.0073,-1.2092,-1.2671,2.7011,19.8375,35.7188,-11.9250,
5.317237,2.0116,-5.0078,2.0073,-1.2092,-1.2671,2.7011,19.8375,35.7188,-11.9250,
5.350594,2.0116,-5.0078,2.0073,-1.2092,-1.2671,2.7011,22.9500,34.3688,-10.3313,
5.355884,6.5204,-1.6432,4.3121,-1.2092,-1.2671,2.7011,22.9500,34.3688,-10.3313,
5.375726,6.5204,-1.6432,4.3121,-0.4237,-0.5621,1.8635,22.9500,34.3688,-10.3313,
5.378122,6.5204,-1.6432,4.3121,-0.4237,-0.5621,1.8635,22.9500,34.3688,-10.3313,
5.410513,6.5204,-1.6432,4.3121,-0.4237,-0.5621,1.8635,26.0813,32.2875,-9.3375,
5.415935,7.0873,0.2537,0.4903,-0.4237,-0.5621,1.8635,26.0813,32.2875,-9.3375,
5.436822,7.0873,0.2537,0.4903,-0.2614,-0.0835,0.4816,26.0813,32.2875,-9.3375,
5.438296,7.0873,0.2537,0.4903,-0.2614,-0.0835,0.4816,26.0813,32.2875,-9.3375,
5.470638,7.0873,0.2537,0.4903,-0.2614,-0.0835,0.4816,29.2313,30.0375,-8.8688,
5.498548,7.0873,0.2537,0.4903,-0.2614,-0.0835,0.4816,29.2313,30.0375,-8.8688,
5.500410,-1.8156,-0.5369,0.2236,-0.2614,-0.0835,0.4816,29.2313,30.0375,-8.8688,
5.501779,-1.8156,-0.5369,0.2236,-0.2983,-0.3534,0.1475,29.2313,30.0375,-8.8688,
5.530818,-1.8156,-0.5369,0.2236,-0.2983,-0.3534,0.1475,32.0250,27.9000,-8.7750,
5.559103,-1.8156,-0.5369,0.2236,-0.3374,0.3694,0.3655,32.0250,27.9000,-8.7750,
5.560624,-1.8156,-0.5369,0.2236,-0.3374,0.3694,0.3655,32.0250,27.9000,-8.7750,
5.561396,-2.3629,0.2210,-0.4812,-0.3374,0.3694,0.3655,32.0250,27.9000,-8.7750,
5.590955,-2.3629,0.2210,-0.4812,-0.3374,0.3694,0.3655,34.4062,25.8000,-9.0188,
5.620817,-2.3629,0.2210,-0.4812,-0.3374,0.3694,0.3655,34.4062,25.8000,-9.0188,
5.622978,-2.3629,0.2210,-0.4812,-0.4617,-0.2799,0.4305,34.4062,25.8000,-9.0188,
5.624614,-1.3437,-0.5562,0.2344,-0.4617,-0.2799,0.4305,34.4062,25.8000,-9.0188,
5.651275,-1.3437,-0.5562,0.2344,-0.4617,-0.2799,0.4305,36.1500,23.9625,-9.2625,
5.682137,-1.3437,-0.5562,0.2344,-0.5188,-0.0260,0.5424,36.1500,23.9625,-9.2625,
5.685361,-1.3437,-0.5562,0.2344,-0.5188,-0.0260,0.5424,36.1500,23.9625,-9.2625,
5.700973,0.3365,1.0278,-0.2415,-0.5188,-0.0260,0.5424,36.1500,23.9625,-9.2625,
5.710699,0.3365,1.0278,-0.2415,-0.5188,-0.0260,0.5424,37.6313,22.1813,-9.0938,
5.741669,0.3365,1.0278,-0.2415,-0.6938,-0.5720,0.6208,37.6313,22.1813,-9.0938,
5.742682,0.3365,1.0278,-0.2415,-0.6938,-0.5720,0.6208,37.6313,22.1813,-9.0938,
5.762697,-0.8125,1.2964,0.0951,-0.6938,-0.5720,0.6208,37.6313,22.1813,-9.0938,
5.770556,-0.8125,1.2964,0.0951,-0.6938,-0.5720,0.6208,38.5500,20.8125,-9.0563,
5.803857,-0.8125,1.2964,0.0951,-0.6938,-0.5720,0.6208,38.5500,20.8125,-9.0563,
5.805752,-0.8125,1.2964,0.0951,-0.9330,-0.9618,0.9012,38.5500,20.8125,-9.0563,
5.823237,0.4028,0.2423,-0.4851,-0.9330,-0.9618,0.9012,38.5500,20.8125,-9.0563,
5.831031,0.4028,0.2423,-0.4851,-0.9330,-0.9618,0.9012,39.2250,19.5563,-9.0750,
5.863341,0.4028,0.2423,-0.4851,-0.6931,-0.8337,0.9470,39.2250,19.5563,-9.0750,
5.865239,0.4028,0.2423,-0.4851,-0.6931,-0.8337,0.9470,39.2250,19.5563,-9.0750,
5.883891,0.2224,-0.3643,-0.2289,-0.6931,-0.8337,0.9470,39.2250,19.5563,-9.0750,
5.890401,0.2224,-0.3643,-0.2289,-0.6931,-0.8337,0.9470,39.8813,18.5438,-9.1688,
5.925501,0.2224,-0.3643,-0.2289,-0.6931,-0.8337,0.9470,39.8813,18.5438,-9.1688,
5.927483,0.2224,-0.3643,-0.2289,-0.3300,-1.4368,0.9534,39.8813,18.5438,-9.1688,
5.949760,0.2224,-0.3643,-0.2289,-0.3300,-1.4368,0.9534,40.2375,17.3250,-9.5063,
5.964026,-0.1027,1.1543,-0.2507,-0.3300,-1.4368,0.9534,40.2375,17.3250,-9.5063,
5.985111,-0.1027,1.1543,-0.2507,-0.1830,-1.4947,1.0410,40.2375,17.3250,-9.5063,
5.986548,-0.1027,1.1543,-0.2507,-0.1830,-1.4947,1.0410,40.2375,17.3250,-9.5063,
6.009840,-0.1027,1.1543,-0.2507,-0.1830,-1.4947,1.0410,40.4062,15.7875,-10.5750,
6.025138,-0.6516,0.2689,0.5362,-0.1830,-1.4947,1.0410,40.4062,15.7875,-10.5750,
6.045461,-0.6516,0.2689,0.5362,-0.1830,-1.4947,1.0410,40.4062,15.7875,-10.5750,
6.046752,-0.6516,0.2689,0.5362,-0.0349,-1.9775,1.2605,40.4062,15.7875,-10.5750,
6.070122,-0.6516,0.2689,0.5362,-0.0349,-1.9775,1.2605,40.0875,13.9500,-12.4313,
6.086432,1.0391,0.3223,-0.9487,-0.0349,-1.9775,1.2605,40.0875,13.9500,-12.4313,
6.106445,1.0391,0.3223,-0.9487,0.2036,-2.0560,1.3020,40.0875,13.9500,-12.4313,
6.108138,1.0391,0.3223,-0.9487,0.2036,-2.0560,1.3020,40.0875,13.9500,-12.4313,
6.130805,1.0391,0.3223,-0.9487,0.2036,-2.0560,1.3020,39.4688,11.9438,-14.9625,
6.167428,1.0391,0.3223,-0.9487,0.2036,-2.0560,1.3020,39.4688,11.9438,-14.9625,
6.169472,0.9961,0.1413,-1.2151,0.2036,-2.0560,1.3020,39.4688,11.9438,-14.9625,
6.170771,0.9961,0.1413,-1.2151,0.5579,-1.5891,1.2072,39.4688,11.9438,-14.9625,
6.189752,0.9961,0.1413,-1.2151,0.5579,-1.5891,1.2072,38.4750,9.5438,-17.7750,
6.228072,0.9961,0.1413,-1.2151,0.5579,-1.5891,1.2072,38.4750,9.5438,-17.7750,
6.229681,0.9961,0.1413,-1.2151,1.0776,-0.9111,1.2579,38.4750,9.5438,-17.7750,
6.230527,0.7695,0.0657,-1.7312,1.0776,-0.9111,1.2579,38.4750,9.5438,-17.7750,
6.250365,0.7695,0.0657,-1.7312,1.0776,-0.9111,1.2579,37.2000,6.6750,-20.7188,
6.289383,0.7695,0.0657,-1.7312,0.8420,-0.8944,1.0695,37.2000,6.6750,-20.7188,
6.291348,0.7695,0.0657,-1.7312,0.8420,-0.8944,1.0695,37.2000,6.6750,-20.7188,
6.292177,-1.7037,0.8297,2.3520,0.8420,-0.8944,1.0695,37.2000,6.6750,-20.7188,
6.310843,-1.7037,0.8297,2.3520,0.8420,-0.8944,1.0695,35.7188,3.8063,-23.8313,
6.350918,-1.7037,0.8297,2.3520,0.3410,-0.1932,0.3513,35.7188,3.8063,-23.8313,
6.353004,-1.7037,0.8297,2.3520,0.3410,-0.1932,0.3513,35.7188,3.8063,-23.8313,
6.353918,0.2505,0.8870,-0.5352,0.3410,-0.1932,0.3513,35.7188,3.8063,-23.8313,
6.370884,0.2505,0.8870,-0.5352,0.3410,-0.1932,0.3513,33.9750,0.8063,-26.6625,
6.413010,0.2505,0.8870,-0.5352,-0.2558,-0.2557,-0.1968,33.9750,0.8063,-26.6625,
6.417091,0.2505,0.8870,-0.5352,-0.2558,-0.2557,-0.1968,33.9750,0.8063,-26.6625,
6.432177,-1.1508,0.4559,1.7196,-0.2558,-0.2557,-0.1968,33.9750,0.8063,-26.6625,
6.434785,-1.1508,0.4559,1.7196,-0.2558,-0.2557,-0.1968,32.2875,-1.9313,-29.2313,
6.472745,-1.1508,0.4559,1.7196,-0.3981,0.0467,-0.4527,32.2875,-1.9313,-29.2313,
6.474443,-1.1508,0.4559,1.7196,-0.3981,0.0467,-0.4527,32.2875,-1.9313,-29.2313,
6.490900,-1.1508,0.4559,1.7196,-0.3981,0.0467,-0.4527,30.7313,-4.2000,-31.2563,
6.492210,-0.2261,0.8771,-0.0099,-0.3981,0.0467,-0.4527,30.7313,-4.2000,-31.2563,
6.533754,-0.2261,0.8771,-0.0099,-0.4768,-0.1290,-0.7566,30.7313,-4.2000,-31.2563,
6.537290,-0.2261,0.8771,-0.0099,-0.4768,-0.1290,-0.7566,30.7313,-4.2000,-31.2563,
6.550615,-0.2261,0.8771,-0.0099,-0.4768,-0.1290,-0.7566,29.7375,-5.7375,-32.5125,
6.553821,-0.1810,0.3859,0.2489,-0.4768,-0.1290,-0.7566,29.7375,-5.7375,-32.5125,
6.594166,-0.1810,0.3859,0.2489,-0.3455,0.0506,-0.7502,29.7375,-5.7375,-32.5125,
6.595654,-0.1810,0.3859,0.2489,-0.3455,0.0506,-0.7502,29.7375,-5.7375,-32.5125,
6.611370,-0.1810,0.3859,0.2489,-0.3455,0.0506,-0.7502,28.9688,-6.8438,-33.3375,
6.635342,0.0939,0.4812,-0.4111,-0.3455,0.0506,-0.7502,28.9688,-6.8438,-33.3375,
6.657241,0.0939,0.4812,-0.4111,-0.3455,0.0506,-0.7502,28.9688,-6.8438,-33.3375,
6.659926,0.0939,0.4812,-0.4111,-0.1623,-0.0040,-0.7485,28.9688,-6.8438,-33.3375,
6.670843,0.0939,0.4812,-0.4111,-0.1623,-0.0040,-0.7485,28.6688,-6.8813,-33.8438,
6.696461,-0.2349,-0.0950,-0.1077,-0.1623,-0.0040,-0.7485,28.6688,-6.8813,-33.8438,
6.716660,-0.2349,-0.0950,-0.1077,0.3041,0.1827,-0.7751,28.6688,-6.8813,-33.8438,
6.717887,-0.2349,-0.0950,-0.1077,0.3041,0.1827,-0.7751,28.6688,-6.8813,-33.8438,
6.729909,-0.2349,-0.0950,-0.1077,0.3041,0.1827,-0.7751,28.5000,-6.4313,-33.9750,
6.756194,1.5553,-2.3618,-3.0814,0.3041,0.1827,-0.7751,28.5000,-6.4313,-33.9750,
6.776996,1.5553,-2.3618,-3.0814,0.6772,0.2822,-0.4770,28.5000,-6.4313,-33.9750,
6.778856,1.5553,-2.3618,-3.0814,0.6772,0.2822,-0.4770,28.5000,-6.4313,-33.9750,
6.789921,1.5553,-2.3618,-3.0814,0.6772,0.2822,-0.4770,28.5000,-5.5500,-33.9938,
6.818232,0.7395,-6.0142,-4.5682,0.6772,0.2822,-0.4770,28.5000,-5.5500,-33.9938,
6.837781,0.7395,-6.0142,-4.5682,0.0027,-0.2550,-0.8695,28.5000,-5.5500,-33.9938,
6.839353,0.7395,-6.0142,-4.5682,0.0027,-0.2550,-0.8695,28.5000,-5.5500,-33.9938,
6.850697,0.7395,-6.0142,-4.5682,0.0027,-0.2550,-0.8695,28.8563,-4.3875,-33.8813,
6.899283,0.7395,-6.0142,-4.5682,0.0027,-0.2550,-0.8695,28.8563,-4.3875,-33.8813,
6.900933,7.2159,0.1272,4.3402,0.0027,-0.2550,-0.8695,28.8563,-4.3875,-33.8813,
6.901801,7.2159,0.1272,4.3402,0.0804,3.2194,-3.3439,28.8563,-4.3875,-33.8813,
6.910557,7.2159,0.1272,4.3402,0.0804,3.2194,-3.3439,29.6438,-2.6063,-33.2250,
6.962507,7.2159,0.1272,4.3402,0.0804,3.2194,-3.3439,29.6438,-2.6063,-33.2250,
6.965656,3.6658,2.9206,8.9760,0.0804,3.2194,-3.3439,29.6438,-2.6063,-33.2250,
6.967498,3.6658,2.9206,8.9760,1.6734,0.3680,-2.6197,29.6438,-2.6063,-33.2250,
6.970504,3.6658,2.9206,8.9760,1.6734,0.3680,-2.6197,30.6938,-0.5063,-31.9688,
7.023410,3.6658,2.9206,8.9760,1.6734,0.3680,-2.6197,30.6938,-0.5063,-31.9688,
7.027750,3.6658,2.9206,8.9760,1.6038,1.5743,-1.3080,30.6938,-0.5063,-31.9688,
7.031214,-14.0632,-0.3915,-11.1316,1.6038,1.5743,-1.3080,30.6938,-0.5063,-31.9688,
7.034383,-14.0632,-0.3915,-11.1316,1.6038,1.5743,-1.3080,31.6313,1.3500,-30.6000,
7.082202,-14.0632,-0.3915,-11.1316,-0.0112,0.0389,4.1239,31.6313,1.3500,-30.6000,
7.084908,-14.0632,-0.3915,-11.1316,-0.0112,0.0389,4.1239,31.6313,1.3500,-30.6000,
7.091348,-14.0632,-0.3915,-11.1316,-0.0112,0.0389,4.1239,32.9625,2.2313,-29.1188,
7.102041,-5.7428,6.0368,3.2259,-0.0112,0.0389,4.1239,32.9625,2.2313,-29.1188,
7.142861,-5.7428,6.0368,3.2259,0.2786,-0.8944,-0.5951,32.9625,2.2313,-29.1188,
7.145332,-5.7428,6.0368,3.2259,0.2786,-0.8944,-0.5951,32.9625,2.2313,-29.1188,
7.150506,-5.7428,6.0368,3.2259,0.2786,-0.8944,-0.5951,34.0312,2.2313,-27.8813,
7.162881,0.6531,-4.1471,-2.2951,0.2786,-0.8944,-0.5951,34.0312,2.2313,-27.8813,
7.203835,0.6531,-4.1471,-2.2951,0.2455,0.2189,0.5669,34.0312,2.2313,-27.8813,
7.205871,0.6531,-4.1471,-2.2951,0.2455,0.2189,0.5669,34.0312,2.2313,-27.8813,
7.209261,0.6531,-4.1471,-2.2951,0.2455,0.2189,0.5669,35.2875,1.9875,-26.6063,
7.224221,0.1556,-0.0372,0.1520,0.2455,0.2189,0.5669,35.2875,1.9875,-26.6063,
7.264612,0.1556,-0.0372,0.1520,0.0957,-0.1960,0.0435,35.2875,1.9875,-26.6063,
7.266450,0.1556,-0.0372,0.1520,0.0957,-0.1960,0.0435,35.2875,1.9875,-26.6063,
7.270465,0.1556,-0.0372,0.1520,0.0957,-0.1960,0.0435,36.6938,1.7250,-25.0125,
7.285182,0.1504,0.0682,-0.0571,0.0957,-0.1960,0.0435,36.6938,1.7250,-25.0125,
7.326840,0.1504,0.0682,-0.0571,0.2487,-0.0455,-0.1060,36.6938,1.7250,-25.0125,
7.329088,0.1504,0.0682,-0.0571,0.2487,-0.0455,-0.1060,36.6938,1.7250,-25.0125,
7.335129,0.1504,0.0682,-0.0571,0.2487,-0.0455,-0.1060,37.7250,1.5375,-23.9062,
7.366959,0.5278,-0.3302,-0.4708,0.2487,-0.0455,-0.1060,37.7250,1.5375,-23.9062,
7.386209,0.5278,-0.3302,-0.4708,0.4024,0.1844,0.0758,37.7250,1.5375,-23.9062,
7.387739,0.5278,-0.3302,-0.4708,0.4024,0.1844,0.0758,37.7250,1.5375,-23.9062,
7.390170,0.5278,-0.3302,-0.4708,0.4024,0.1844,0.0758,38.1562,0.4313,-23.1188,
7.428061,0.4270,0.4463,-0.2883,0.4024,0.1844,0.0758,38.1562,0.4313,-23.1188,
7.447811,0.4270,0.4463,-0.2883,0.4681,0.0840,-0.0764,38.1562,0.4313,-23.1188,
7.450055,0.4270,0.4463,-0.2883,0.4681,0.0840,-0.0764,38.1562,0.4313,-23.1188,
7.452211,0.4270,0.4463,-0.2883,0.4681,0.0840,-0.0764,38.4000,-1.1250,-23.0813,
7.487960,0.2503,-0.4624,-0.2239,0.4681,0.0840,-0.0764,38.4000,-1.1250,-23.0813,
7.507974,0.2503,-0.4624,-0.2239,0.3257,0.0229,-0.1198,38.4000,-1.1250,-23.0813,
7.509460,0.2503,-0.4624,-0.2239,0.3257,0.0229,-0.1198,38.4000,-1.1250,-23.0813,
7.509919,0.2503,-0.4624,-0.2239,0.3257,0.0229,-0.1198,38.4750,-2.6438,-23.1188,
7.568500,0.2503,-0.4624,-0.2239,0.1049,0.1650,-0.1712,38.4750,-2.6438,-23.1188,
7.570578,0.2503,-0.4624,-0.2239,0.1049,0.1650,-0.1712,38.4750,-2.6438,-23.1188,
7.571337,0.3105,0.2345,0.2784,0.1049,0.1650,-0.1712,38.4750,-2.6438,-23.1188,
7.572199,0.3105,0.2345,0.2784,0.1049,0.1650,-0.1712,38.2500,-3.3750,-23.2688,
7.630829,0.3105,0.2345,0.2784,0.0559,-0.0726,-0.3438,38.2500,-3.3750,-23.2688,
7.633321,0.3105,0.2345,0.2784,0.0559,-0.0726,-0.3438,38.1562,-5.2875,-21.9000,
7.634290,-0.0412,1.6210,0.4028,0.0559,-0.0726,-0.3438,38.1562,-5.2875,-21.9000,
7.635209,-0.0412,1.6210,0.4028,0.0559,-0.0726,-0.3438,38.1562,-5.2875,-21.9000,
7.692269,-0.0412,1.6210,0.4028,-0.0240,0.1763,-0.3977,38.1562,-5.2875,-21.9000,
7.694458,-0.0412,1.6210,0.4028,-0.0240,0.1763,-0.3977,38.1562,-5.2875,-21.9000,
7.695273,-0.0412,1.6210,0.4028,-0.0240,0.1763,-0.3977,38.1188,-5.3063,-21.9563,
7.696212,0.3730,-1.7145,-0.4512,-0.0240,0.1763,-0.3977,38.1188,-5.3063,-21.9563,
7.754942,0.3730,-1.7145,-0.4512,-0.0240,0.1763,-0.3977,38.1000,-5.2125,-22.0125,
7.757881,0.3730,-1.7145,-0.4512,0.0077,0.3312,-0.2324,38.1000,-5.2125,-22.0125,
7.759114,0.3730,-1.7145,-0.4512,0.0077,0.3312,-0.2324,38.1000,-5.2125,-22.0125,
7.760006,0.3013,-0.8071,0.3667,0.0077,0.3312,-0.2324,38.1000,-5.2125,-22.0125,
7.810947,0.3013,-0.8071,0.3667,0.0077,0.3312,-0.2324,38.2125,-4.9688,-21.5813,
7.813024,0.3013,-0.8071,0.3667,-0.0129,0.3361,-0.3995,38.2125,-4.9688,-21.5813,
7.814082,0.3013,-0.8071,0.3667,-0.0129,0.3361,-0.3995,38.2125,-4.9688,-21.5813,
7.833691,-0.6964,-0.8975,0.0703,-0.0129,0.3361,-0.3995,38.2125,-4.9688,-21.5813,
7.871993,-0.6964,-0.8975,0.0703,-0.0129,0.3361,-0.3995,38.5688,-4.2750,-21.2812,
7.876209,-0.6964,-0.8975,0.0703,-0.1911,0.2832,-0.7300,38.5688,-4.2750,-21.2812,
7.880452,-0.6964,-0.8975,0.0703,-0.1911,0.2832,-0.7300,38.5688,-4.2750,-21.2812,
7.892540,-1.7388,-0.4972,1.2520,-0.1911,0.2832,-0.7300,38.5688,-4.2750,-21.2812,
7.931275,-1.7388,-0.4972,1.2520,-0.1911,0.2832,-0.7300,38.8688,-3.2813,-20.7563,
7.933260,-1.7388,-0.4972,1.2520,-0.3700,-0.0664,-0.8497,38.8688,-3.2813,-20.7563,
7.934316,-1.7388,-0.4972,1.2520,-0.3700,-0.0664,-0.8497,38.8688,-3.2813,-20.7563,
7.954874,-1.5171,1.3241,1.4232,-0.3700,-0.0664,-0.8497,38.8688,-3.2813,-20.7563,
7.991963,-1.5171,1.3241,1.4232,-0.3700,-0.0664,-0.8497,39.0188,-2.1562,-20.4188,
7.994529,-1.5171,1.3241,1.4232,-0.1674,-0.8020,-0.5416,39.0188,-2.1562,-20.4188,
7.996879,-1.5171,1.3241,1.4232,-0.1674,-0.8020,-0.5416,39.0188,-2.1562,-20.4188,
8.038623,0.8418,2.2084,1.3869,-0.1674,-0.8020,-0.5416,39.0188,-2.1562,-20.4188,
8.051401,0.8418,2.2084,1.3869,-0.1674,-0.8020,-0.5416,39.2438,-1.0312,-19.9500,
8.054946,0.8418,2.2084,1.3869,-0.1674,-0.8020,-0.5416,39.2438,-1.0312,-19.9500,
8.055808,0.8418,2.2084,1.3869,0.7145,1.2647,-0.0591,39.2438,-1.0312,-19.9500,
8.095592,0.4604,-0.0226,-0.3646,0.7145,1.2647,-0.0591,39.2438,-1.0312,-19.9500,
8.110731,0.4604,-0.0226,-0.3646,0.7145,1.2647,-0.0591,39.4875,-0.0938,-19.6313,
8.116156,0.4604,-0.0226,-0.3646,0.5754,-1.1595,0.2025,39.4875,-0.0938,-19.6313,
8.116983,0.4604,-0.0226,-0.3646,0.5754,-1.1595,0.2025,39.4875,-0.0938,-19.6313,
8.157072,0.8596,-0.9401,-1.2332,0.5754,-1.1595,0.2025,39.4875,-0.0938,-19.6313,
8.170991,0.8596,-0.9401,-1.2332,0.5754,-1.1595,0.2025,39.4125,0.6938,-19.6688,
8.179192,0.8596,-0.9401,-1.2332,0.5430,-1.2235,-0.6820,39.4125,0.6938,-19.6688,
8.182214,0.8596,-0.9401,-1.2332,0.5430,-1.2235,-0.6820,39.4125,0.6938,-19.6688,
8.218473,1.1077,0.0781,-0.2571,0.5430,-1.2235,-0.6820,39.4125,0.6938,-19.6688,
8.230396,1.1077,0.0781,-0.2571,0.5430,-1.2235,-0.6820,39.1125,1.4625,-19.8375,
8.238085,1.1077,0.0781,-0.2571,0.7361,-0.5563,-0.3630,39.1125,1.4625,-19.8375,
8.239028,1.1077,0.0781,-0.2571,0.7361,-0.5563,-0.3630,39.1125,1.4625,-19.8375,
8.290898,1.1077,0.0781,-0.2571,0.7361,-0.5563,-0.3630,38.7000,1.8188,-20.4938,
8.300524,1.1077,0.0781,-0.2571,0.7617,-0.2895,-0.2742,38.7000,1.8188,-20.4938,
8.301669,1.1077,0.0781,-0.2571,0.7617,-0.2895,-0.2742,38.7000,1.8188,-20.4938,
8.302047,0.6549,-0.2380,-0.6815,0.7617,-0.2895,-0.2742,38.7000,1.8188,-20.4938,
8.351243,0.6549,-0.2380,-0.6815,0.7617,-0.2895,-0.2742,38.0438,2.1188,-21.2438,
8.361329,0.6549,-0.2380,-0.6815,0.7617,-0.2895,-0.2742,38.0438,2.1188,-21.2438,
8.362547,0.6549,-0.2380,-0.6815,0.6626,-0.3771,-0.3952,38.0438,2.1188,-21.2438,
8.363667,0.5304,-0.4049,-0.8544,0.6626,-0.3771,-0.3952,38.0438,2.1188,-21.2438,
8.410899,0.5304,-0.4049,-0.8544,0.6626,-0.3771,-0.3952,37.2938,1.7813,-22.0312,
8.422727,0.5304,-0.4049,-0.8544,0.6626,-0.3771,-0.3952,37.2938,1.7813,-22.0312,
8.424027,0.1625,-0.0600,-0.5413,0.6626,-0.3771,-0.3952,37.2938,1.7813,-22.0312,
8.425157,0.1625,-0.0600,-0.5413,0.6297,-0.2557,-0.2384,37.2938,1.7813,-22.0312,
8.471371,0.1625,-0.0600,-0.5413,0.6297,-0.2557,-0.2384,36.7125,1.3125,-22.8375,
8.482382,0.1625,-0.0600,-0.5413,0.7358,0.1198,-0.1823,36.7125,1.3125,-22.8375,
8.484060,0.1625,-0.0600,-0.5413,0.7358,0.1198,-0.1823,36.7125,1.3125,-22.8375,
8.485063,0.0685,0.4030,-0.9021,0.7358,0.1198,-0.1823,36.7125,1.3125,-22.8375,
8.530767,0.0685,0.4030,-0.9021,0.7358,0.1198,-0.1823,36.3188,0.8063,-23.4188,
8.543513,0.0685,0.4030,-0.9021,0.7553,0.2960,-0.0764,36.3188,0.8063,-23.4188,
8.545178,0.0685,0.4030,-0.9021,0.7553,0.2960,-0.0764,36.3188,0.8063,-23.4188,
8.564155,0.6241,0.3669,-0.8520,0.7553,0.2960,-0.0764,36.3188,0.8063,-23.4188,
8.591451,0.6241,0.3669,-0.8520,0.7553,0.2960,-0.0764,35.8875,0.3938,-23.9250,
8.604094,0.6241,0.3669,-0.8520,0.7045,0.9069,-0.2224,35.8875,0.3938,-23.9250,
8.605558,0.6241,0.3669,-0.8520,0.7045,0.9069,-0.2224,35.8875,0.3938,-23.9250,
8.626599,-0.4200,-0.2923,-1.7396,0.7045,0.9069,-0.2224,35.8875,0.3938,-23.9250,
8.651991,-0.4200,-0.2923,-1.7396,0.7045,0.9069,-0.2224,35.7375,0.1875,-23.9625,
8.666317,-0.4200,-0.2923,-1.7396,0.7045,0.9069,-0.2224,35.7375,0.1875,-23.9625,
8.667482,-0.4200,-0.2923,-1.7396,0.2969,0.6318,-0.5405,35.7375,0.1875,-23.9625,
8.685524,-0.5501,0.2316,-0.6621,0.2969,0.6318,-0.5405,35.7375,0.1875,-23.9625,
8.710539,-0.5501,0.2316,-0.6621,0.2969,0.6318,-0.5405,35.7188,-1.6125,-22.4438,
8.727591,-0.5501,0.2316,-0.6621,0.1003,0.2409,-0.4421,35.7188,-1.6125,-22.4438,
8.729176,-0.5501,0.2316,-0.6621,0.1003,0.2409,-0.4421,35.7188,-1.6125,-22.4438,
8.767502,-0.1062,-1.0583,-0.5681,0.1003,0.2409,-0.4421,35.7188,-1.6125,-22.4438,
8.769262,-0.1062,-1.0583,-0.5681,0.1003,0.2409,-0.4421,36.0188,-1.2563,-22.0125,
8.786740,-0.1062,-1.0583,-0.5681,-0.3129,0.2087,-0.6754,36.0188,-1.2563,-22.0125,
8.788553,-0.1062,-1.0583,-0.5681,-0.3129,0.2087,-0.6754,36.0188,-1.2563,-22.0125,
8.827642,-0.0198,-0.2873,0.7304,-0.3129,0.2087,-0.6754,36.0188,-1.2563,-22.0125,
8.830120,-0.0198,-0.2873,0.7304,-0.3129,0.2087,-0.6754,36.4125,-0.7875,-21.4875,
8.848094,-0.0198,-0.2873,0.7304,-0.0101,0.0889,-0.5759,36.4125,-0.7875,-21.4875,
8.850125,-0.0198,-0.2873,0.7304,-0.0101,0.0889,-0.5759,36.4125,-0.7875,-21.4875,
8.888715,0.3642,0.5985,1.0478,-0.0101,0.0889,-0.5759,36.4125,-0.7875,-21.4875,
8.890905,0.3642,0.5985,1.0478,-0.0101,0.0889,-0.5759,36.8438,0.0938,-21.0375,
8.908534,0.3642,0.5985,1.0478,0.1316,-0.2152,-0.2859,36.8438,0.0938,-21.0375,
8.910159,0.3642,0.5985,1.0478,0.1316,-0.2152,-0.2859,36.8438,0.0938,-21.0375,
8.949993,0.9267,0.2722,0.6176,0.1316,-0.2152,-0.2859,36.8438,0.0938,-21.0375,
8.951494,0.9267,0.2722,0.6176,0.1316,-0.2152,-0.2859,37.2750,0.7688,-20.3438,
8.972134,0.9267,0.2722,0.6176,0.1316,-0.2152,-0.2859,37.2750,0.7688,-20.3438,
8.974247,0.9267,0.2722,0.6176,0.0467,-0.3820,-0.0296,37.2750,0.7688,-20.3438,
9.011277,0.9267,0.2722,0.6176,0.0467,-0.3820,-0.0296,37.3688,1.6875,-20.1000,
9.031661,0.9267,0.2722,0.6176,0.0467,-0.3820,-0.0296,37.3688,1.6875,-20.1000,
9.033123,-0.2843,-1.1316,0.2801,0.0467,-0.3820,-0.0296,37.3688,1.6875,-20.1000,
9.034042,-0.2843,-1.1316,0.2801,-0.1989,-0.4144,-0.5880,37.3688,1.6875,-20.1000,
9.074061,-0.2843,-1.1316,0.2801,-0.1989,-0.4144,-0.5880,38.5500,6.0563,-15.5250,
9.092105,-0.2843,-1.1316,0.2801,-0.6554,-0.4851,-0.2774,38.5500,6.0563,-15.5250,
9.094033,-0.2843,-1.1316,0.2801,-0.6554,-0.4851,-0.2774,38.5500,6.0563,-15.5250,
9.094687,-0.6178,-0.8915,0.2668,-0.6554,-0.4851,-0.2774,38.5500,6.0563,-15.5250,
9.132543,-0.6178,-0.8915,0.2668,-0.6554,-0.4851,-0.2774,38.2313,7.4625,-15.7500,
9.153191,-0.6178,-0.8915,0.2668,-0.6554,-0.4851,-0.2774,38.2313,7.4625,-15.7500,
9.155172,0.3683,-0.3865,-0.4341,-0.6554,-0.4851,-0.2774,38.2313,7.4625,-15.7500,
9.156697,0.3683,-0.3865,-0.4341,-0.8787,-0.4808,-0.4506,38.2313,7.4625,-15.7500,
9.192532,0.3683,-0.3865,-0.4341,-0.8787,-0.4808,-0.4506,37.5938,9.0000,-16.2375,
9.214145,0.3683,-0.3865,-0.4341,-0.8787,-0.4808,-0.4506,37.5938,9.0000,-16.2375,
9.216238,0.3683,-0.3865,-0.4341,-1.4834,-0.3977,-0.4344,37.5938,9.0000,-16.2375,
9.234299,0.1976,-0.8030,-0.1668,-1.4834,-0.3977,-0.4344,37.5938,9.0000,-16.2375,
9.251311,0.1976,-0.8030,-0.1668,-1.4834,-0.3977,-0.4344,36.6938,10.6313,-16.5000,
9.275070,0.1976,-0.8030,-0.1668,-1.9765,0.1433,-0.9733,36.6938,10.6313,-16.5000,
9.277081,0.1976,-0.8030,-0.1668,-1.9765,0.1433,-0.9733,36.6938,10.6313,-16.5000,
9.294508,-0.3358,-1.6094,1.5549,-1.9765,0.1433,-0.9733,36.6938,10.6313,-16.5000,
9.313119,-0.3358,-1.6094,1.5549,-1.9765,0.1433,-0.9733,35.8313,12.7875,-16.5938,
9.335232,-0.3358,-1.6094,1.5549,-0.6334,0.1388,-1.1156,35.8313,12.7875,-16.5938,
9.337310,-0.3358,-1.6094,1.5549,-0.6334,0.1388,-1.1156,35.8313,12.7875,-16.5938,
9.355878,-2.5547,-0.0532,4.0234,-0.6334,0.1388,-1.1156,35.8313,12.7875,-16.5938,
9.371238,-2.5547,-0.0532,4.0234,-0.6334,0.1388,-1.1156,34.7250,14.9813,-16.5000,
9.396457,-2.5547,-0.0532,4.0234,1.4490,0.5246,0.1139,34.7250,14.9813,-16.5000,
9.398433,-2.5547,-0.0532,4.0234,1.4490,0.5246,0.1139,34.7250,14.9813,-16.5000,
9.417484,-0.0335,0.9759,-0.9560,1.4490,0.5246,0.1139,34.7250,14.9813,-16.5000,
9.431006,-0.0335,0.9759,-0.9560,1.4490,0.5246,0.1139,33.6000,17.0250,-16.8375,
9.456705,-0.0335,0.9759,-0.9560,1.1582,0.4767,-0.2965,33.6000,17.0250,-16.8375,
9.458903,-0.0335,0.9759,-0.9560,1.1582,0.4767,-0.2965,33.6000,17.0250,-16.8375,
9.491589,-0.0335,0.9759,-0.9560,1.1582,0.4767,-0.2965,32.5875,18.7500,-16.9688,
9.496261,-0.8722,0.4026,-0.7851,1.1582,0.4767,-0.2965,32.5875,18.7500,-16.9688,
9.518319,-0.8722,0.4026,-0.7851,0.5232,0.5129,-0.6424,32.5875,18.7500,-16.9688,
9.520245,-0.8722,0.4026,-0.7851,0.5232,0.5129,-0.6424,32.5875,18.7500,-16.9688,
9.551355,-0.8722,0.4026,-0.7851,0.5232,0.5129,-0.6424,31.7250,20.1750,-17.1188,
9.558563,-1.7892,0.3383,0.2203,0.5232,0.5129,-0.6424,31.7250,20.1750,-17.1188,
9.579238,-1.7892,0.3383,0.2203,0.3627,0.8437,-0.1766,31.7250,20.1750,-17.1188,
9.581760,-1.7892,0.3383,0.2203,0.3627,0.8437,-0.1766,31.7250,20.1750,-17.1188,
9.611161,-1.7892,0.3383,0.2203,0.3627,0.8437,-0.1766,31.1438,21.3000,-16.8375,
9.619861,0.3499,0.8708,-0.8438,0.3627,0.8437,-0.1766,31.1438,21.3000,-16.8375,
9.639709,0.3499,0.8708,-0.8438,0.1330,0.5669,0.2732,31.1438,21.3000,-16.8375,
9.641724,0.3499,0.8708,-0.8438,0.1330,0.5669,0.2732,31.1438,21.3000,-16.8375,
9.671054,0.3499,0.8708,-0.8438,0.1330,0.5669,0.2732,30.8438,21.9938,-16.4438,
9.701789,0.3499,0.8708,-0.8438,-0.2554,0.1919,-0.0700,30.8438,21.9938,-16.4438,
9.705345,1.4553,0.4675,-1.1540,-0.2554,0.1919,-0.0700,30.8438,21.9938,-16.4438,
9.706701,1.4553,0.4675,-1.1540,-0.2554,0.1919,-0.0700,30.8438,21.9938,-16.4438,
9.730557,1.4553,0.4675,-1.1540,-0.2554,0.1919,-0.0700,30.8438,22.6125,-16.2000,
9.760831,1.4553,0.4675,-1.1540,-0.2621,0.1028,-0.0395,30.8438,22.6125,-16.2000,
9.762648,0.2087,0.6997,-0.1350,-0.2621,0.1028,-0.0395,30.8438,22.6125,-16.2000,
9.763847,0.2087,0.6997,-0.1350,-0.2621,0.1028,-0.0395,30.8438,22.6125,-16.2000,
9.789970,0.2087,0.6997,-0.1350,-0.2621,0.1028,-0.0395,30.7313,22.6313,-16.3313,
9.821838,0.2087,0.6997,-0.1350,-0.2621,0.1028,-0.0395,30.7313,22.6313,-16.3313,
9.823124,0.9496,0.4431,-0.6424,-0.2621,0.1028,-0.0395,30.7313,22.6313,-16.3313,
9.823931,0.9496,0.4431,-0.6424,0.2147,0.3461,0.2803,30.7313,22.6313,-16.3313,
9.850784,0.9496,0.4431,-0.6424,0.2147,0.3461,0.2803,30.9563,22.1063,-16.4813,
