
time,ax,ay,az,wx,wy,wz,Bx,By,Bz,
0.064104,0.0000,0.0000,0.0000,-0.0067,-0.0138,-0.0072,0.0000,0.0000,0.0000,
0.108760,0.0000,0.0000,0.0000,-0.0067,-0.0138,-0.0072,15.8625,16.6313,-23.7188,
0.170605,0.0000,0.0000,0.0000,0.0032,0.0025,0.0053,15.8625,16.6313,-23.7188,
0.171618,0.0000,0.0000,0.0000,0.0032,0.0025,0.0053,28.1063,14.5313,-24.1500,
0.230109,0.0000,0.0000,0.0000,0.0032,0.0025,0.0053,32.2875,13.8375,-23.8688,
0.230974,0.0000,0.0000,0.0000,0.0019,0.0021,0.0003,32.2875,13.8375,-23.8688,
0.251391,0.0000,0.0000,0.0000,0.0019,0.0021,0.0003,32.2875,13.8375,-23.8688,
0.287966,0.0000,0.0000,0.0000,0.0019,0.0021,0.0003,34.6688,13.2188,-23.8500,
0.291437,0.0000,0.0000,0.0000,0.0021,-0.0003,-0.0015,34.6688,13.2188,-23.8500,
0.312494,0.0000,0.0000,0.0000,0.0021,-0.0003,-0.0015,34.6688,13.2188,-23.8500,
0.349060,0.0000,0.0000,0.0000,0.0021,-0.0003,-0.0015,36.0375,12.8438,-23.7938,
0.352253,0.0000,0.0000,0.0000,0.0029,-0.0007,-0.0011,36.0375,12.8438,-23.7938,
0.353215,0.0000,0.0000,0.0000,0.0029,-0.0007,-0.0011,36.0375,12.8438,-23.7938,
0.373167,0.0000,0.0000,0.0000,0.0029,-0.0007,-0.0011,36.0375,12.8438,-23.7938,
0.407997,0.0000,0.0000,0.0000,0.0029,-0.0007,-0.0011,37.0125,12.7125,-23.7375,
0.413448,0.0000,0.0000,0.0000,0.0032,0.0008,-0.0019,37.0125,12.7125,-23.7375,
0.413923,-0.0005,-0.0035,-0.0074,0.0032,0.0008,-0.0019,37.0125,12.7125,-23.7375,
0.433764,-0.0005,-0.0035,-0.0074,0.0032,0.0008,-0.0019,37.0125,12.7125,-23.7375,
0.468298,-0.0005,-0.0035,-0.0074,0.0032,0.0008,-0.0019,37.6313,12.6563,-23.7750,
0.474435,-0.0005,-0.0035,-0.0074,0.0043,0.0011,-0.0053,37.6313,12.6563,-23.7750,
0.475729,-0.0092,-0.0018,0.0015,0.0043,0.0011,-0.0053,37.6313,12.6563,-23.7750,
0.494827,-0.0092,-0.0018,0.0015,0.0043,0.0011,-0.0053,37.6313,12.6563,-23.7750,
0.529415,-0.0092,-0.0018,0.0015,0.0043,0.0011,-0.0053,38.2125,12.5813,-23.6625,
0.537717,-0.0092,-0.0018,0.0015,0.0051,0.0004,-0.0029,38.2125,12.5813,-23.6625,
0.555975,-0.0092,-0.0018,0.0015,0.0051,0.0004,-0.0029,38.2125,12.5813,-23.6625,
0.557280,-0.0061,-0.0044,-0.0063,0.0051,0.0004,-0.0029,38.2125,12.5813,-23.6625,
0.588758,-0.0061,-0.0044,-0.0063,0.0051,0.0004,-0.0029,41.3813,11.8313,-23.3438,
0.597172,-0.0061,-0.0044,-0.0063,0.0025,-0.0021,0.0049,41.3813,11.8313,-23.3438,
0.617415,-0.0061,-0.0044,-0.0063,0.0025,-0.0021,0.0049,41.3813,11.8313,-23.3438,
0.619317,0.0217,0.0051,0.0083,0.0025,-0.0021,0.0049,41.3813,11.8313,-23.3438,
0.649556,0.0217,0.0051,0.0083,0.0025,-0.0021,0.0049,41.5125,11.8688,-23.0625,
0.657674,0.0217,0.0051,0.0083,-0.0011,-0.0003,0.0056,41.5125,11.8688,-23.0625,
0.679197,0.0089,-0.0024,0.0205,-0.0011,-0.0003,0.0056,41.5125,11.8688,-23.0625,
0.680280,0.0089,-0.0024,0.0205,-0.0011,-0.0003,0.0056,41.5125,11.8688,-23.0625,
0.709340,0.0089,-0.0024,0.0205,-0.0011,-0.0003,0.0056,41.6813,11.8125,-22.8375,
0.719210,0.0089,-0.0024,0.0205,-0.0071,-0.0011,0.0088,41.6813,11.8125,-22.8375,
0.739506,0.0089,-0.0024,0.0205,-0.0071,-0.0011,0.0088,41.6813,11.8125,-22.8375,
0.740371,0.0103,0.0083,0.0071,-0.0071,-0.0011,0.0088,41.6813,11.8125,-22.8375,
0.769371,0.0103,0.0083,0.0071,-0.0071,-0.0011,0.0088,41.6625,11.8688,-22.6500,
0.779986,0.0103,0.0083,0.0071,-0.0117,-0.0035,0.0128,41.6625,11.8688,-22.6500,
0.800481,0.0103,0.0083,0.0071,-0.0117,-0.0035,0.0128,41.6625,11.8688,-22.6500,
0.820316,0.0058,0.0089,0.0116,-0.0117,-0.0035,0.0128,41.6625,11.8688,-22.6500,
0.829441,0.0058,0.0089,0.0116,-0.0117,-0.0035,0.0128,41.7000,11.8875,-22.4250,
0.840325,0.0058,0.0089,0.0116,-0.0130,-0.0138,0.0160,41.7000,11.8875,-22.4250,
0.861017,0.0058,0.0089,0.0116,-0.0130,-0.0138,0.0160,41.7000,11.8875,-22.4250,
0.882552,0.0171,-0.0107,0.0024,-0.0130,-0.0138,0.0160,41.7000,11.8875,-22.4250,
0.888374,0.0171,-0.0107,0.0024,-0.0130,-0.0138,0.0160,41.7938,11.8125,-22.2938,
0.902702,0.0171,-0.0107,0.0024,-0.0198,-0.0305,0.0035,41.7938,11.8125,-22.2938,
0.924135,0.0171,-0.0107,0.0024,-0.0198,-0.0305,0.0035,41.7938,11.8125,-22.2938,
0.942467,-0.0444,0.0154,0.0017,-0.0198,-0.0305,0.0035,41.7938,11.8125,-22.2938,
0.948861,-0.0444,0.0154,0.0017,-0.0198,-0.0305,0.0035,41.8500,11.5500,-22.1813,
0.963670,-0.0444,0.0154,0.0017,-0.0269,-0.0326,-0.0083,41.8500,11.5500,-22.1813,
0.983056,-0.0444,0.0154,0.0017,-0.0269,-0.0326,-0.0083,41.8500,11.5500,-22.1813,
1.008592,-0.0444,0.0154,0.0017,-0.0269,-0.0326,-0.0083,41.8875,11.5125,-22.2188,
1.023451,-0.0444,0.0154,0.0017,-0.0181,-0.0056,-0.0008,41.8875,11.5125,-22.2188,
1.024527,-0.0157,-0.0075,-0.0007,-0.0181,-0.0056,-0.0008,41.8875,11.5125,-22.2188,
1.043842,-0.0157,-0.0075,-0.0007,-0.0181,-0.0056,-0.0008,41.8875,11.5125,-22.2188,
1.068651,-0.0157,-0.0075,-0.0007,-0.0181,-0.0056,-0.0008,42.0938,11.5875,-22.3688,
1.083769,-0.0157,-0.0075,-0.0007,-0.0113,0.0085,0.0053,42.0938,11.5875,-22.3688,
1.084576,0.0079,-0.0093,0.0046,-0.0113,0.0085,0.0053,42.0938,11.5875,-22.3688,
1.104455,0.0079,-0.0093,0.0046,-0.0113,0.0085,0.0053,42.0938,11.5875,-22.3688,
1.129180,0.0079,-0.0093,0.0046,-0.0113,0.0085,0.0053,42.1875,11.4938,-22.5000,
1.145542,0.0079,-0.0093,0.0046,-0.0056,0.0149,0.0216,42.1875,11.4938,-22.5000,
1.146781,0.0113,0.0026,-0.0173,-0.0056,0.0149,0.0216,42.1875,11.4938,-22.5000,
1.166449,0.0113,0.0026,-0.0173,-0.0056,0.0149,0.0216,42.1875,11.4938,-22.5000,
1.188604,0.0113,0.0026,-0.0173,-0.0056,0.0149,0.0216,42.1688,11.5125,-22.6500,
1.206267,0.0113,0.0026,-0.0173,0.0125,0.0317,0.0411,42.1688,11.5125,-22.6500,
1.207723,0.0651,-0.0227,0.0082,0.0125,0.0317,0.0411,42.1688,11.5125,-22.6500,
1.226332,0.0651,-0.0227,0.0082,0.0125,0.0317,0.0411,42.1688,11.5125,-22.6500,
1.250262,0.0651,-0.0227,0.0082,0.0125,0.0317,0.0411,42.2438,11.4188,-22.6500,
1.274790,0.0651,-0.0227,0.0082,0.0083,0.0206,0.0340,42.2438,11.4188,-22.6500,
1.292588,0.0651,-0.0227,0.0082,0.0083,0.0206,0.0340,42.2438,11.4188,-22.6500,
1.293104,0.0163,-0.0059,-0.0314,0.0083,0.0206,0.0340,42.2438,11.4188,-22.6500,
1.316619,0.0163,-0.0059,-0.0314,0.0083,0.0206,0.0340,42.2625,11.3438,-22.7438,
1.332669,0.0163,-0.0059,-0.0314,-0.0071,0.0019,0.0194,42.2625,11.3438,-22.7438,
1.349815,0.0163,-0.0059,-0.0314,-0.0071,0.0019,0.0194,42.2625,11.3438,-22.7438,
1.350929,-0.0205,0.0069,0.0206,-0.0071,0.0019,0.0194,42.2625,11.3438,-22.7438,
1.374281,-0.0205,0.0069,0.0206,-0.0071,0.0019,0.0194,42.1313,11.2125,-22.6500,
1.391278,-0.0205,0.0069,0.0206,-0.0141,-0.0128,0.0077,42.1313,11.2125,-22.6500,
1.415692,-0.0215,0.0041,0.0110,-0.0141,-0.0128,0.0077,42.1313,11.2125,-22.6500,
1.416764,-0.0215,0.0041,0.0110,-0.0141,-0.0128,0.0077,42.1313,11.2125,-22.6500,
1.432822,-0.0215,0.0041,0.0110,-0.0141,-0.0128,0.0077,42.2063,11.3250,-22.4813,
1.449656,-0.0215,0.0041,0.0110,-0.0060,-0.0060,0.0056,42.2063,11.3250,-22.4813,
1.475195,-0.0215,0.0041,0.0110,-0.0060,-0.0060,0.0056,42.2063,11.3250,-22.4813,
1.491163,-0.0215,0.0041,0.0110,-0.0060,-0.0060,0.0056,42.1500,11.1188,-22.3875,
1.493093,-0.0056,-0.0039,-0.0212,-0.0060,-0.0060,0.0056,42.1500,11.1188,-22.3875,
1.515681,-0.0056,-0.0039,-0.0212,-0.0035,-0.0085,-0.0053,42.1500,11.1188,-22.3875,
1.532862,-0.0056,-0.0039,-0.0212,-0.0035,-0.0085,-0.0053,42.1500,11.1188,-22.3875,
1.549237,-0.0056,-0.0039,-0.0212,-0.0035,-0.0085,-0.0053,41.9250,10.9688,-22.3125,
1.550633,-0.0200,-0.0032,-0.0154,-0.0035,-0.0085,-0.0053,41.9250,10.9688,-22.3125,
1.573300,-0.0200,-0.0032,-0.0154,0.0008,-0.0049,-0.0104,41.9250,10.9688,-22.3125,
1.599219,-0.0200,-0.0032,-0.0154,0.0008,-0.0049,-0.0104,41.9250,10.9688,-22.3125,
1.615702,-0.0200,-0.0032,-0.0154,0.0008,-0.0049,-0.0104,41.8688,10.9125,-22.1625,
1.617148,-0.0280,0.0048,-0.0090,0.0008,-0.0049,-0.0104,41.8688,10.9125,-22.1625,
1.640389,-0.0280,0.0048,-0.0090,0.0089,-0.0011,-0.0085,41.8688,10.9125,-22.1625,
1.656649,-0.0280,0.0048,-0.0090,0.0089,-0.0011,-0.0085,41.8688,10.9125,-22.1625,
1.673674,-0.0280,0.0048,-0.0090,0.0089,-0.0011,-0.0085,41.9250,10.7250,-22.1063,
1.676013,-0.0004,-0.0013,-0.0169,0.0089,-0.0011,-0.0085,41.9250,10.7250,-22.1063,
1.699050,-0.0004,-0.0013,-0.0169,0.0096,-0.0017,-0.0096,41.9250,10.7250,-22.1063,
1.715800,-0.0004,-0.0013,-0.0169,0.0096,-0.0017,-0.0096,41.9250,10.7250,-22.1063,
1.731915,-0.0004,-0.0013,-0.0169,0.0096,-0.0017,-0.0096,41.9062,10.7438,-22.0688,
1.756929,-0.0004,-0.0013,-0.0169,0.0136,0.0051,-0.0085,41.9062,10.7438,-22.0688,
1.758588,-0.0107,0.0027,-0.0062,0.0136,0.0051,-0.0085,41.9062,10.7438,-22.0688,
1.774406,-0.0107,0.0027,-0.0062,0.0136,0.0051,-0.0085,41.9062,10.7438,-22.0688,
1.790592,-0.0107,0.0027,-0.0062,0.0136,0.0051,-0.0085,41.8500,10.7812,-22.0875,
1.815920,-0.0107,0.0027,-0.0062,0.0089,0.0011,-0.0107,41.8500,10.7812,-22.0875,
1.816852,0.0073,-0.0065,-0.0105,0.0089,0.0011,-0.0107,41.8500,10.7812,-22.0875,
1.840656,0.0073,-0.0065,-0.0105,0.0089,0.0011,-0.0107,41.8500,10.7812,-22.0875,
1.856409,0.0073,-0.0065,-0.0105,0.0089,0.0011,-0.0107,41.8313,10.8750,-22.0312,
1.882449,0.0073,-0.0065,-0.0105,0.0107,0.0053,-0.0032,41.8313,10.8750,-22.0312,
1.885349,-0.0088,-0.0016,-0.0097,0.0107,0.0053,-0.0032,41.8313,10.8750,-22.0312,
1.899296,-0.0088,-0.0016,-0.0097,0.0107,0.0053,-0.0032,41.8313,10.8750,-22.0312,
1.914972,-0.0088,-0.0016,-0.0097,0.0107,0.0053,-0.0032,41.8688,10.8000,-22.1813,
1.939702,-0.0088,-0.0016,-0.0097,0.0093,0.0015,-0.0036,41.8688,10.8000,-22.1813,
1.958147,-0.0088,-0.0016,-0.0097,0.0093,0.0015,-0.0036,41.8688,10.8000,-22.1813,
1.959593,0.0085,-0.0008,0.0077,0.0093,0.0015,-0.0036,41.8688,10.8000,-22.1813,
1.972667,0.0085,-0.0008,0.0077,0.0093,0.0015,-0.0036,41.7750,11.0250,-22.2938,
1.997482,0.0085,-0.0008,0.0077,0.0107,0.0079,-0.0008,41.7750,11.0250,-22.2938,
2.022768,0.0085,-0.0008,0.0077,0.0107,0.0079,-0.0008,41.7750,11.0250,-22.2938,
2.023910,-0.0002,-0.0121,0.0031,0.0107,0.0079,-0.0008,41.7750,11.0250,-22.2938,
2.030961,-0.0002,-0.0121,0.0031,0.0107,0.0079,-0.0008,41.8688,11.0063,-22.3688,
2.064025,-0.0002,-0.0121,0.0031,0.0000,-0.0021,-0.0079,41.8688,11.0063,-22.3688,
2.080572,-0.0002,-0.0121,0.0031,0.0000,-0.0021,-0.0079,41.8688,11.0063,-22.3688,
2.081838,-0.0056,0.0058,0.0091,0.0000,-0.0021,-0.0079,41.8688,11.0063,-22.3688,
2.089400,-0.0056,0.0058,0.0091,0.0000,-0.0021,-0.0079,41.8688,10.9688,-22.4438,
2.122494,-0.0056,0.0058,0.0091,-0.0060,-0.0032,-0.0068,41.8688,10.9688,-22.4438,
2.140142,-0.0056,0.0058,0.0091,-0.0060,-0.0032,-0.0068,41.8688,10.9688,-22.4438,
2.141010,-0.0048,0.0119,0.0154,-0.0060,-0.0032,-0.0068,41.8688,10.9688,-22.4438,
2.156056,-0.0048,0.0119,0.0154,-0.0060,-0.0032,-0.0068,41.8313,11.0438,-22.4625,
2.181027,-0.0048,0.0119,0.0154,-0.0128,-0.0064,-0.0164,41.8313,11.0438,-22.4625,
2.206580,-0.0048,0.0119,0.0154,-0.0128,-0.0064,-0.0164,41.8313,11.0438,-22.4625,
2.213128,-0.0048,0.0119,0.0154,-0.0128,-0.0064,-0.0164,41.9250,10.9500,-22.4625,
2.222182,-0.0213,0.0066,0.0210,-0.0128,-0.0064,-0.0164,41.9250,10.9500,-22.4625,
2.247395,-0.0213,0.0066,0.0210,-0.0152,-0.0085,-0.0157,41.9250,10.9500,-22.4625,
2.263985,-0.0213,0.0066,0.0210,-0.0152,-0.0085,-0.0157,41.9250,10.9500,-22.4625,
2.271565,-0.0213,0.0066,0.0210,-0.0152,-0.0085,-0.0157,42.0938,10.8938,-22.4062,
2.288660,-0.0122,0.0013,0.0122,-0.0152,-0.0085,-0.0157,42.0938,10.8938,-22.4062,
2.305475,-0.0122,0.0013,0.0122,-0.0130,-0.0045,-0.0057,42.0938,10.8938,-22.4062,
2.331284,-0.0122,0.0013,0.0122,-0.0130,-0.0045,-0.0057,42.0938,10.8938,-22.4062,
2.332527,-0.0122,0.0013,0.0122,-0.0130,-0.0045,-0.0057,42.1688,10.9125,-22.5188,
2.347026,0.0159,-0.0067,0.0147,-0.0130,-0.0045,-0.0057,42.1688,10.9125,-22.5188,
2.363937,0.0159,-0.0067,0.0147,-0.0113,0.0004,-0.0008,42.1688,10.9125,-22.5188,
2.388837,0.0159,-0.0067,0.0147,-0.0113,0.0004,-0.0008,42.1688,10.9125,-22.5188,
2.389454,0.0159,-0.0067,0.0147,-0.0113,0.0004,-0.0008,42.1125,10.9125,-22.4250,
2.430115,0.0159,-0.0067,0.0147,-0.0085,0.0015,0.0056,42.1125,10.9125,-22.4250,
2.431103,0.0119,-0.0023,0.0111,-0.0085,0.0015,0.0056,42.1125,10.9125,-22.4250,
2.446282,0.0119,-0.0023,0.0111,-0.0085,0.0015,0.0056,42.1125,10.9125,-22.4250,
2.454701,0.0119,-0.0023,0.0111,-0.0085,0.0015,0.0056,42.1500,10.8188,-22.5375,
2.488402,0.0119,-0.0023,0.0111,-0.0096,-0.0045,0.0060,42.1500,10.8188,-22.5375,
2.489476,0.0172,0.0056,-0.0024,-0.0096,-0.0045,0.0060,42.1500,10.8188,-22.5375,
2.504974,0.0172,0.0056,-0.0024,-0.0096,-0.0045,0.0060,42.1500,10.8188,-22.5375,
2.512661,0.0172,0.0056,-0.0024,-0.0096,-0.0045,0.0060,42.0563,10.8750,-22.3875,
2.546491,0.0172,0.0056,-0.0024,-0.0107,-0.0043,0.0045,42.0563,10.8750,-22.3875,
2.547544,0.0076,-0.0059,0.0084,-0.0107,-0.0043,0.0045,42.0563,10.8750,-22.3875,
2.571215,0.0076,-0.0059,0.0084,-0.0107,-0.0043,0.0045,42.0563,10.8750,-22.3875,
2.572425,0.0076,-0.0059,0.0084,-0.0107,-0.0043,0.0045,42.0000,10.9500,-22.3125,
2.612857,0.0076,-0.0059,0.0084,-0.0117,-0.0067,-0.0040,42.0000,10.9500,-22.3125,
2.614256,0.0037,-0.0150,-0.0024,-0.0117,-0.0067,-0.0040,42.0000,10.9500,-22.3125,
2.629079,0.0037,-0.0150,-0.0024,-0.0117,-0.0067,-0.0040,42.0000,10.9500,-22.3125,
2.630029,0.0037,-0.0150,-0.0024,-0.0117,-0.0067,-0.0040,41.9625,11.0250,-22.2375,
2.671228,0.0037,-0.0150,-0.0024,-0.0109,-0.0103,-0.0043,41.9625,11.0250,-22.2375,
2.689417,0.0037,-0.0150,-0.0024,-0.0109,-0.0103,-0.0043,41.9625,11.0250,-22.2375,
2.690056,-0.0081,0.0043,0.0038,-0.0109,-0.0103,-0.0043,41.9625,11.0250,-22.2375,
2.690345,-0.0081,0.0043,0.0038,-0.0109,-0.0103,-0.0043,41.6813,11.0250,-22.2375,
2.730865,-0.0081,0.0043,0.0038,-0.0077,-0.0043,-0.0015,41.6813,11.0250,-22.2375,
2.749738,-0.0001,-0.0054,0.0017,-0.0077,-0.0043,-0.0015,41.6813,11.0250,-22.2375,
2.750955,-0.0001,-0.0054,0.0017,-0.0077,-0.0043,-0.0015,41.6813,11.0250,-22.2375,
2.751772,-0.0001,-0.0054,0.0017,-0.0077,-0.0043,-0.0015,41.6625,11.1375,-22.3875,
2.790418,-0.0001,-0.0054,0.0017,-0.0067,-0.0011,-0.0029,41.6625,11.1375,-22.3875,
2.809611,-0.0001,-0.0054,0.0017,-0.0067,-0.0011,-0.0029,41.6625,11.1375,-22.3875,
2.811367,0.0031,-0.0013,-0.0034,-0.0067,-0.0011,-0.0029,41.6625,11.1375,-22.3875,
2.812256,0.0031,-0.0013,-0.0034,-0.0067,-0.0011,-0.0029,41.5500,11.0250,-22.5188,
2.850497,0.0031,-0.0013,-0.0034,-0.0053,-0.0007,-0.0029,41.5500,11.0250,-22.5188,
2.870358,0.0031,-0.0013,-0.0034,-0.0053,-0.0007,-0.0029,41.5312,11.1375,-22.5938,
2.871363,0.0031,-0.0013,-0.0034,-0.0053,-0.0007,-0.0029,41.5312,11.1375,-22.5938,
2.871951,-0.0017,0.0004,-0.0046,-0.0053,-0.0007,-0.0029,41.5312,11.1375,-22.5938,
2.911542,-0.0017,0.0004,-0.0046,-0.0067,-0.0024,-0.0053,41.5312,11.1375,-22.5938,
2.930272,-0.0017,0.0004,-0.0046,-0.0067,-0.0024,-0.0053,41.4938,11.2688,-22.4062,
2.931883,-0.0017,0.0004,-0.0046,-0.0067,-0.0024,-0.0053,41.4938,11.2688,-22.4062,
2.951736,-0.0087,-0.0011,0.0052,-0.0067,-0.0024,-0.0053,41.4938,11.2688,-22.4062,
2.972651,-0.0087,-0.0011,0.0052,-0.0049,-0.0011,-0.0032,41.4938,11.2688,-22.4062,
2.989205,-0.0087,-0.0011,0.0052,-0.0049,-0.0011,-0.0032,41.6063,11.2875,-22.3500,
2.992214,-0.0087,-0.0011,0.0052,-0.0049,-0.0011,-0.0032,41.6063,11.2875,-22.3500,
3.012844,0.0166,-0.0097,0.0043,-0.0049,-0.0011,-0.0032,41.6063,11.2875,-22.3500,
3.033156,0.0166,-0.0097,0.0043,-0.0043,0.0015,-0.0029,41.6063,11.2875,-22.3500,
3.048666,0.0166,-0.0097,0.0043,-0.0043,0.0015,-0.0029,41.6813,11.3063,-22.4062,
3.054478,0.0166,-0.0097,0.0043,-0.0043,0.0015,-0.0029,41.6813,11.3063,-22.4062,
3.073531,0.0013,0.0022,0.0026,-0.0043,0.0015,-0.0029,41.6813,11.3063,-22.4062,
3.095034,0.0013,0.0022,0.0026,-0.0099,0.0051,-0.0072,41.6813,11.3063,-22.4062,
3.108785,0.0013,0.0022,0.0026,-0.0099,0.0051,-0.0072,41.6250,11.1562,-22.4062,
3.114842,0.0013,0.0022,0.0026,-0.0099,0.0051,-0.0072,41.6250,11.1562,-22.4062,
3.155097,0.0013,0.0022,0.0026,-0.0298,-0.0007,-0.0221,41.6250,11.1562,-22.4062,
3.155855,-0.0177,0.0029,0.0101,-0.0298,-0.0007,-0.0221,41.6250,11.1562,-22.4062,
3.169693,-0.0177,0.0029,0.0101,-0.0298,-0.0007,-0.0221,41.7188,11.2125,-22.4062,
3.174491,-0.0177,0.0029,0.0101,-0.0298,-0.0007,-0.0221,41.7188,11.2125,-22.4062,
3.215057,-0.0177,0.0029,0.0101,-0.0539,0.0019,-0.0317,41.7188,11.2125,-22.4062,
3.216897,-0.0182,-0.0070,0.0401,-0.0539,0.0019,-0.0317,41.7188,11.2125,-22.4062,
3.229181,-0.0182,-0.0070,0.0401,-0.0539,0.0019,-0.0317,41.4188,11.2500,-22.5375,
3.235385,-0.0182,-0.0070,0.0401,-0.0539,0.0019,-0.0317,41.4188,11.2500,-22.5375,
3.277030,-0.0182,-0.0070,0.0401,-0.0901,-0.0202,-0.0185,41.4188,11.2500,-22.5375,
3.278500,-0.0253,0.0240,0.0375,-0.0901,-0.0202,-0.0185,41.4188,11.2500,-22.5375,
3.287980,-0.0253,0.0240,0.0375,-0.0901,-0.0202,-0.0185,41.3625,11.5500,-22.7625,
3.296153,-0.0253,0.0240,0.0375,-0.0901,-0.0202,-0.0185,41.3625,11.5500,-22.7625,
3.337151,-0.0253,0.0240,0.0375,-0.1072,-0.0373,0.0262,41.3625,11.5500,-22.7625,
3.338576,0.0762,0.0251,0.1180,-0.1072,-0.0373,0.0262,41.3625,11.5500,-22.7625,
3.347497,0.0762,0.0251,0.1180,-0.1072,-0.0373,0.0262,41.2688,11.7188,-23.0063,
3.357292,0.0762,0.0251,0.1180,-0.1072,-0.0373,0.0262,41.2688,11.7188,-23.0063,
3.397656,0.0762,0.0251,0.1180,-0.0965,-0.0352,0.0467,41.2688,11.7188,-23.0063,
3.407635,0.0762,0.0251,0.1180,-0.0965,-0.0352,0.0467,41.1188,11.8688,-23.3625,
3.417759,0.0947,-0.0189,0.0244,-0.0965,-0.0352,0.0467,41.1188,11.8688,-23.3625,
3.419477,0.0947,-0.0189,0.0244,-0.0965,-0.0352,0.0467,41.1188,11.8688,-23.3625,
3.459630,0.0947,-0.0189,0.0244,-0.1033,-0.0309,0.0298,41.1188,11.8688,-23.3625,
3.470264,0.0947,-0.0189,0.0244,-0.1033,-0.0309,0.0298,41.0063,12.0188,-23.7000,
3.479335,0.0947,-0.0189,0.0244,-0.1033,-0.0309,0.0298,41.0063,12.0188,-23.7000,
3.482248,0.0148,-0.0023,0.0356,-0.1033,-0.0309,0.0298,41.0063,12.0188,-23.7000,
3.519619,0.0148,-0.0023,0.0356,-0.1076,-0.0507,0.0092,41.0063,12.0188,-23.7000,
3.527805,0.0148,-0.0023,0.0356,-0.1076,-0.0507,0.0092,40.8375,12.2438,-24.0563,
3.539887,-0.0289,-0.0212,0.0169,-0.1076,-0.0507,0.0092,40.8375,12.2438,-24.0563,
3.541131,-0.0289,-0.0212,0.0169,-0.1076,-0.0507,0.0092,40.8375,12.2438,-24.0563,
3.580248,-0.0289,-0.0212,0.0169,-0.0955,-0.0678,-0.0142,40.8375,12.2438,-24.0563,
3.587827,-0.0289,-0.0212,0.0169,-0.0955,-0.0678,-0.0142,40.7625,12.6375,-24.4125,
3.600597,-0.0289,-0.0212,0.0169,-0.0955,-0.0678,-0.0142,40.7625,12.6375,-24.4125,
3.620629,-0.0670,-0.0104,-0.0256,-0.0955,-0.0678,-0.0142,40.7625,12.6375,-24.4125,
3.641267,-0.0670,-0.0104,-0.0256,-0.0738,-0.0582,-0.0160,40.7625,12.6375,-24.4125,
3.647722,-0.0670,-0.0104,-0.0256,-0.0738,-0.0582,-0.0160,40.8188,12.9750,-24.5813,
3.661474,-0.0670,-0.0104,-0.0256,-0.0738,-0.0582,-0.0160,40.8188,12.9750,-24.5813,
3.681908,-0.0055,-0.0128,-0.0359,-0.0738,-0.0582,-0.0160,40.8188,12.9750,-24.5813,
3.701566,-0.0055,-0.0128,-0.0359,-0.0471,-0.0461,-0.0306,40.8188,12.9750,-24.5813,
3.708244,-0.0055,-0.0128,-0.0359,-0.0471,-0.0461,-0.0306,40.8938,13.3875,-24.7313,
3.722151,-0.0055,-0.0128,-0.0359,-0.0471,-0.0461,-0.0306,40.8938,13.3875,-24.7313,
3.743385,-0.0500,-0.0106,-0.0549,-0.0471,-0.0461,-0.0306,40.8938,13.3875,-24.7313,
3.763357,-0.0500,-0.0106,-0.0549,-0.0160,-0.0021,-0.0085,40.8938,13.3875,-24.7313,
3.766926,-0.0500,-0.0106,-0.0549,-0.0160,-0.0021,-0.0085,40.8938,13.4063,-24.6000,
3.783249,-0.0500,-0.0106,-0.0549,-0.0160,-0.0021,-0.0085,40.8938,13.4063,-24.6000,
3.803839,0.0625,-0.0214,-0.0332,-0.0160,-0.0021,-0.0085,40.8938,13.4063,-24.6000,
3.823896,0.0625,-0.0214,-0.0332,-0.0003,0.0021,-0.0068,40.8938,13.4063,-24.6000,
3.827876,0.0625,-0.0214,-0.0332,-0.0003,0.0021,-0.0068,40.9500,13.4438,-24.5438,
3.844163,0.0625,-0.0214,-0.0332,-0.0003,0.0021,-0.0068,40.9500,13.4438,-24.5438,
3.886273,0.0625,-0.0214,-0.0332,0.0047,0.0004,-0.0121,40.9500,13.4438,-24.5438,
3.888794,-0.0158,-0.0010,-0.0421,0.0047,0.0004,-0.0121,40.9500,13.4438,-24.5438,
3.890536,-0.0158,-0.0010,-0.0421,0.0047,0.0004,-0.0121,41.1188,13.4625,-24.3000,
3.905360,-0.0158,-0.0010,-0.0421,0.0047,0.0004,-0.0121,41.1188,13.4625,-24.3000,
3.945884,-0.0158,-0.0010,-0.0421,0.0149,0.0036,-0.0083,41.1188,13.4625,-24.3000,
3.947471,0.0040,0.0034,-0.0213,0.0149,0.0036,-0.0083,41.1188,13.4625,-24.3000,
3.948154,0.0040,0.0034,-0.0213,0.0149,0.0036,-0.0083,41.2313,13.5375,-24.2250,
3.966846,0.0040,0.0034,-0.0213,0.0149,0.0036,-0.0083,41.2313,13.5375,-24.2250,
4.007907,0.0040,0.0034,-0.0213,0.0234,0.0121,0.0021,41.2313,13.5375,-24.2250,
4.008703,0.0040,0.0034,-0.0213,0.0234,0.0121,0.0021,41.2875,13.6688,-24.1875,
4.009384,0.0052,0.0014,-0.0481,0.0234,0.0121,0.0021,41.2875,13.6688,-24.1875,
4.027576,0.0052,0.0014,-0.0481,0.0234,0.0121,0.0021,41.2875,13.6688,-24.1875,
4.070955,0.0052,0.0014,-0.0481,0.0234,0.0121,0.0021,41.2688,13.7063,-24.1500,
4.074487,0.0052,0.0014,-0.0481,0.0142,0.0277,-0.0040,41.2688,13.7063,-24.1500,
4.088653,0.0052,0.0014,-0.0481,0.0142,0.0277,-0.0040,41.2688,13.7063,-24.1500,
4.089418,0.0279,-0.0180,-0.0164,0.0142,0.0277,-0.0040,41.2688,13.7063,-24.1500,
4.129192,0.0279,-0.0180,-0.0164,0.0142,0.0277,-0.0040,41.1938,13.7813,-24.2813,
4.131085,0.0279,-0.0180,-0.0164,-0.0088,0.0383,-0.0083,41.1938,13.7813,-24.2813,
4.150250,0.0279,-0.0180,-0.0164,-0.0088,0.0383,-0.0083,41.1938,13.7813,-24.2813,
4.152517,-0.0126,0.0037,0.0107,-0.0088,0.0383,-0.0083,41.1938,13.7813,-24.2813,
4.190841,-0.0126,0.0037,0.0107,-0.0088,0.0383,-0.0083,41.1750,13.3313,-24.0000,
4.193903,-0.0126,0.0037,0.0107,-0.0650,-0.0032,-0.0096,41.1750,13.3313,-24.0000,
4.211764,-0.0030,0.0234,0.0829,-0.0650,-0.0032,-0.0096,41.1750,13.3313,-24.0000,
4.212723,-0.0030,0.0234,0.0829,-0.0650,-0.0032,-0.0096,41.1750,13.3313,-24.0000,
4.249202,-0.0030,0.0234,0.0829,-0.0650,-0.0032,-0.0096,41.3063,13.2750,-23.8688,
4.251140,-0.0030,0.0234,0.0829,-0.0951,-0.0141,0.0230,41.3063,13.2750,-23.8688,
4.270915,-0.0030,0.0234,0.0829,-0.0951,-0.0141,0.0230,41.3063,13.2750,-23.8688,
4.271870,0.0627,0.0111,0.0892,-0.0951,-0.0141,0.0230,41.3063,13.2750,-23.8688,
4.309402,0.0627,0.0111,0.0892,-0.0951,-0.0141,0.0230,41.1750,13.2375,-23.7375,
4.314721,0.0627,0.0111,0.0892,-0.1221,-0.0209,0.0422,41.1750,13.2375,-23.7375,
4.333176,0.0627,0.0111,0.0892,-0.1221,-0.0209,0.0422,41.1750,13.2375,-23.7375,
4.353582,0.0690,-0.0105,0.0648,-0.1221,-0.0209,0.0422,41.1750,13.2375,-23.7375,
4.369554,0.0690,-0.0105,0.0648,-0.1221,-0.0209,0.0422,41.1938,13.1438,-23.6250,
4.372617,0.0690,-0.0105,0.0648,-0.1739,-0.0571,0.0354,41.1938,13.1438,-23.6250,
4.393429,0.0690,-0.0105,0.0648,-0.1739,-0.0571,0.0354,41.1938,13.1438,-23.6250,
4.414699,-0.0019,0.0169,0.1172,-0.1739,-0.0571,0.0354,41.1938,13.1438,-23.6250,
4.430293,-0.0019,0.0169,0.1172,-0.1739,-0.0571,0.0354,41.2313,13.1063,-23.4188,
4.436017,-0.0019,0.0169,0.1172,-0.2097,-0.0827,0.0170,41.2313,13.1063,-23.4188,
4.454375,-0.0019,0.0169,0.1172,-0.2097,-0.0827,0.0170,41.2313,13.1063,-23.4188,
4.474194,0.0049,-0.0026,0.1064,-0.2097,-0.0827,0.0170,41.2313,13.1063,-23.4188,
4.489582,0.0049,-0.0026,0.1064,-0.2097,-0.0827,0.0170,41.2500,13.0500,-23.2125,
4.494988,0.0049,-0.0026,0.1064,-0.2261,-0.0475,0.0056,41.2500,13.0500,-23.2125,
4.515642,0.0049,-0.0026,0.1064,-0.2261,-0.0475,0.0056,41.2500,13.0500,-23.2125,
4.550475,0.0049,-0.0026,0.1064,-0.2261,-0.0475,0.0056,41.3625,12.9000,-22.9313,
4.556363,0.0049,-0.0026,0.1064,-0.2314,-0.1051,-0.0051,41.3625,12.9000,-22.9313,
4.558378,0.0235,0.0042,0.1151,-0.2314,-0.1051,-0.0051,41.3625,12.9000,-22.9313,
4.576840,0.0235,0.0042,0.1151,-0.2314,-0.1051,-0.0051,41.3625,12.9000,-22.9313,
4.609255,0.0235,0.0042,0.1151,-0.2314,-0.1051,-0.0051,41.4188,12.9188,-22.6500,
4.618643,0.0235,0.0042,0.1151,-0.1320,-0.0940,0.0340,41.4188,12.9188,-22.6500,
4.621364,-0.0371,-0.0501,0.0220,-0.1320,-0.0940,0.0340,41.4188,12.9188,-22.6500,
4.637263,-0.0371,-0.0501,0.0220,-0.1320,-0.0940,0.0340,41.4188,12.9188,-22.6500,
4.669470,-0.0371,-0.0501,0.0220,-0.1320,-0.0940,0.0340,41.3625,13.2375,-22.6313,
4.677587,-0.0327,-0.0431,-0.1499,-0.1320,-0.0940,0.0340,41.3625,13.2375,-22.6313,
4.679002,-0.0327,-0.0431,-0.1499,-0.0320,-0.0948,0.0344,41.3625,13.2375,-22.6313,
4.697554,-0.0327,-0.0431,-0.1499,-0.0320,-0.0948,0.0344,41.3625,13.2375,-22.6313,
4.728781,-0.0327,-0.0431,-0.1499,-0.0320,-0.0948,0.0344,41.4000,13.2563,-22.7438,
4.738419,-0.0327,-0.0431,-0.1499,0.0799,0.0228,0.0092,41.4000,13.2563,-22.7438,
4.739791,0.0235,-0.0680,-0.1901,0.0799,0.0228,0.0092,41.4000,13.2563,-22.7438,
4.758586,0.0235,-0.0680,-0.1901,0.0799,0.0228,0.0092,41.4000,13.2563,-22.7438,
4.789088,0.0235,-0.0680,-0.1901,0.0799,0.0228,0.0092,41.4563,13.3125,-22.8188,
4.800758,0.0235,-0.0680,-0.1901,0.0880,-0.0162,-0.1069,41.4563,13.3125,-22.8188,
4.818650,-0.1775,0.0358,-0.1779,0.0880,-0.0162,-0.1069,41.4563,13.3125,-22.8188,
4.820488,-0.1775,0.0358,-0.1779,0.0880,-0.0162,-0.1069,41.4563,13.3125,-22.8188,
4.848629,-0.1775,0.0358,-0.1779,0.0880,-0.0162,-0.1069,41.4188,13.3875,-22.9313,
4.866230,-0.1775,0.0358,-0.1779,0.1172,0.0206,-0.1204,41.4188,13.3875,-22.9313,
4.879367,-0.1775,0.0358,-0.1779,0.1172,0.0206,-0.1204,41.4188,13.3875,-22.9313,
4.880152,-0.1381,0.0459,-0.1043,0.1172,0.0206,-0.1204,41.4188,13.3875,-22.9313,
4.908334,-0.1381,0.0459,-0.1043,0.1172,0.0206,-0.1204,41.1750,13.6125,-23.2500,
4.920357,-0.1381,0.0459,-0.1043,0.2127,0.0654,-0.0722,41.1750,13.6125,-23.2500,
4.941432,-0.1381,0.0459,-0.1043,0.2127,0.0654,-0.0722,41.1750,13.6125,-23.2500,
4.942950,0.0650,-0.0368,-0.1261,0.2127,0.0654,-0.0722,41.1750,13.6125,-23.2500,
4.969735,0.0650,-0.0368,-0.1261,0.2127,0.0654,-0.0722,41.1000,13.6125,-23.3250,
4.981866,0.0650,-0.0368,-0.1261,0.2738,0.1108,-0.0756,41.1000,13.6125,-23.3250,
5.001545,0.0650,-0.0368,-0.1261,0.2738,0.1108,-0.0756,41.1000,13.6125,-23.3250,
5.022208,-0.0199,0.0224,-0.2491,0.2738,0.1108,-0.0756,41.1000,13.6125,-23.3250,
5.027989,-0.0199,0.0224,-0.2491,0.2738,0.1108,-0.0756,41.1000,13.8375,-23.6063,
5.042493,-0.0199,0.0224,-0.2491,0.2919,0.0550,-0.1736,41.1000,13.8375,-23.6063,
5.063322,-0.0199,0.0224,-0.2491,0.2919,0.0550,-0.1736,41.1000,13.8375,-23.6063,
5.083444,-0.2993,0.0569,-0.1994,0.2919,0.0550,-0.1736,41.1000,13.8375,-23.6063,
5.088813,-0.2993,0.0569,-0.1994,0.2919,0.0550,-0.1736,41.0250,13.9500,-23.6438,
5.103912,-0.2993,0.0569,-0.1994,0.3121,0.0590,-0.1244,41.0250,13.9500,-23.6438,
5.124320,-0.2993,0.0569,-0.1994,0.3121,0.0590,-0.1244,41.0250,13.9500,-23.6438,
5.144500,0.0594,0.0378,-0.1116,0.3121,0.0590,-0.1244,41.0250,13.9500,-23.6438,
5.149058,0.0594,0.0378,-0.1116,0.3121,0.0590,-0.1244,41.1562,13.9500,-23.7000,
5.165393,0.0594,0.0378,-0.1116,0.3000,0.0724,-0.1530,41.1562,13.9500,-23.7000,
5.185275,0.0594,0.0378,-0.1116,0.3000,0.0724,-0.1530,41.1562,13.9500,-23.7000,
5.206305,-0.0562,0.0092,-0.1011,0.3000,0.0724,-0.1530,41.1562,13.9500,-23.7000,
5.208790,-0.0562,0.0092,-0.1011,0.3000,0.0724,-0.1530,41.0813,14.0438,-23.5500,
5.225718,-0.0562,0.0092,-0.1011,0.2890,0.1715,-0.1736,41.0813,14.0438,-23.5500,
5.247055,-0.0562,0.0092,-0.1011,0.2890,0.1715,-0.1736,41.0813,14.0438,-23.5500,
5.267849,-0.0562,0.0092,-0.1011,0.2890,0.1715,-0.1736,41.1000,14.0438,-23.2875,
5.287476,-0.0562,0.0092,-0.1011,0.2762,0.1651,-0.1786,41.1000,14.0438,-23.2875,
5.289706,-0.0735,0.0399,-0.0556,0.2762,0.1651,-0.1786,41.1000,14.0438,-23.2875,
5.308148,-0.0735,0.0399,-0.0556,0.2762,0.1651,-0.1786,41.1000,14.0438,-23.2875,
5.328654,-0.0735,0.0399,-0.0556,0.2762,0.1651,-0.1786,41.0250,14.0625,-23.1750,
5.348560,-0.0735,0.0399,-0.0556,0.2812,0.1146,-0.1762,41.0250,14.0625,-23.1750,
5.351060,0.0075,0.0639,0.0458,0.2812,0.1146,-0.1762,41.0250,14.0625,-23.1750,
5.368254,0.0075,0.0639,0.0458,0.2812,0.1146,-0.1762,41.0250,14.0625,-23.1750,
5.391354,0.0075,0.0639,0.0458,0.2812,0.1146,-0.1762,41.2125,14.0063,-22.8750,
5.409115,0.0075,0.0639,0.0458,0.2921,0.1676,-0.1395,41.2125,14.0063,-22.8750,
5.411566,0.0093,-0.0342,-0.0638,0.2921,0.1676,-0.1395,41.2125,14.0063,-22.8750,
5.429375,0.0093,-0.0342,-0.0638,0.2921,0.1676,-0.1395,41.2125,14.0063,-22.8750,
5.449899,0.0093,-0.0342,-0.0638,0.2921,0.1676,-0.1395,41.1375,14.1375,-22.7063,
5.470153,0.0093,-0.0342,-0.0638,0.2748,0.1577,-0.1668,41.1375,14.1375,-22.7063,
5.491132,0.0093,-0.0342,-0.0638,0.2748,0.1577,-0.1668,41.1375,14.1375,-22.7063,
5.492237,-0.0034,0.0568,0.0464,0.2748,0.1577,-0.1668,41.1375,14.1375,-22.7063,
5.510209,-0.0034,0.0568,0.0464,0.2748,0.1577,-0.1668,41.0813,14.1563,-22.4625,
5.530807,-0.0034,0.0568,0.0464,0.2372,0.1385,-0.2262,41.0813,14.1563,-22.4625,
5.551336,-0.0034,0.0568,0.0464,0.2372,0.1385,-0.2262,41.0813,14.1563,-22.4625,
5.553837,-0.0716,0.1002,-0.0109,0.2372,0.1385,-0.2262,41.0813,14.1563,-22.4625,
5.568520,-0.0716,0.1002,-0.0109,0.2372,0.1385,-0.2262,41.2125,14.1750,-22.2188,
5.592516,-0.0716,0.1002,-0.0109,0.2127,0.2280,-0.2585,41.2125,14.1750,-22.2188,
5.612804,-0.0716,0.1002,-0.0109,0.2127,0.2280,-0.2585,41.2125,14.1750,-22.2188,
5.615371,-0.1552,-0.2294,0.0566,0.2127,0.2280,-0.2585,41.2125,14.1750,-22.2188,
5.630464,-0.1552,-0.2294,0.0566,0.2127,0.2280,-0.2585,41.2875,14.2875,-21.8063,
5.651982,-0.1552,-0.2294,0.0566,0.1208,0.0756,-0.3533,41.2875,14.2875,-21.8063,
5.673158,-0.1552,-0.2294,0.0566,0.1208,0.0756,-0.3533,41.2875,14.2875,-21.8063,
5.675850,-0.3213,0.1453,0.0515,0.1208,0.0756,-0.3533,41.2875,14.2875,-21.8063,
5.689694,-0.3213,0.1453,0.0515,0.1208,0.0756,-0.3533,41.3625,14.5125,-21.4875,
5.712815,-0.3213,0.1453,0.0515,0.0597,-0.0525,-0.4370,41.3625,14.5125,-21.4875,
5.733335,-0.3213,0.1453,0.0515,0.0597,-0.0525,-0.4370,41.3625,14.5125,-21.4875,
5.749448,-0.3213,0.1453,0.0515,0.0597,-0.0525,-0.4370,41.3813,15.0188,-21.3938,
5.753353,-0.2529,0.2883,0.2568,0.0597,-0.0525,-0.4370,41.3813,15.0188,-21.3938,
5.774781,-0.2529,0.2883,0.2568,0.0867,0.0051,-0.4754,41.3813,15.0188,-21.3938,
5.794660,-0.2529,0.2883,0.2568,0.0867,0.0051,-0.4754,41.3813,15.0188,-21.3938,
5.810557,-0.2529,0.2883,0.2568,0.0867,0.0051,-0.4754,41.3250,15.5813,-21.2250,
5.814948,0.2314,-0.2478,0.3152,0.0867,0.0051,-0.4754,41.3250,15.5813,-21.2250,
5.835340,0.2314,-0.2478,0.3152,0.0763,-0.6333,-0.7334,41.3250,15.5813,-21.2250,
5.855066,0.2314,-0.2478,0.3152,0.0763,-0.6333,-0.7334,41.3250,15.5813,-21.2250,
5.868215,0.2314,-0.2478,0.3152,0.0763,-0.6333,-0.7334,41.0813,16.2563,-21.4313,
5.875332,-0.0419,-0.2307,0.8107,0.0763,-0.6333,-0.7334,41.0813,16.2563,-21.4313,
5.896570,-0.0419,-0.2307,0.8107,0.1136,-0.4828,-0.7590,41.0813,16.2563,-21.4313,
5.916440,-0.0419,-0.2307,0.8107,0.1136,-0.4828,-0.7590,41.0813,16.2563,-21.4313,
5.929509,-0.0419,-0.2307,0.8107,0.1136,-0.4828,-0.7590,40.6875,17.0438,-21.7125,
5.956811,-0.0419,-0.2307,0.8107,0.1040,-0.2712,-0.8031,40.6875,17.0438,-21.7125,
5.958628,-0.6108,0.2256,0.0534,0.1040,-0.2712,-0.8031,40.6875,17.0438,-21.7125,
5.976485,-0.6108,0.2256,0.0534,0.1040,-0.2712,-0.8031,40.6875,17.0438,-21.7125,
5.988849,-0.6108,0.2256,0.0534,0.1040,-0.2712,-0.8031,39.9563,17.9438,-22.1250,
6.017163,-0.6108,0.2256,0.0534,0.1645,0.2099,-0.7888,39.9563,17.9438,-22.1250,
6.020111,-0.6898,0.8506,-1.4013,0.1645,0.2099,-0.7888,39.9563,17.9438,-22.1250,
6.038185,-0.6898,0.8506,-1.4013,0.1645,0.2099,-0.7888,39.9563,17.9438,-22.1250,
6.048909,-0.6898,0.8506,-1.4013,0.1645,0.2099,-0.7888,39.0375,19.1438,-22.6313,
6.079282,-0.7272,0.1298,-1.2542,0.1645,0.2099,-0.7888,39.0375,19.1438,-22.6313,
6.083352,-0.7272,0.1298,-1.2542,0.3103,0.2993,-0.9390,39.0375,19.1438,-22.6313,
6.099924,-0.7272,0.1298,-1.2542,0.3103,0.2993,-0.9390,39.0375,19.1438,-22.6313,
6.109238,-0.7272,0.1298,-1.2542,0.3103,0.2993,-0.9390,38.0438,20.6063,-23.1938,
6.140321,-0.2909,-1.1359,0.7068,0.3103,0.2993,-0.9390,38.0438,20.6063,-23.1938,
6.142904,-0.2909,-1.1359,0.7068,0.1615,0.1129,-0.7669,38.0438,20.6063,-23.1938,
6.159975,-0.2909,-1.1359,0.7068,0.1615,0.1129,-0.7669,38.0438,20.6063,-23.1938,
6.169010,-0.2909,-1.1359,0.7068,0.1615,0.1129,-0.7669,37.0500,22.1063,-23.5875,
6.200828,-0.2909,-1.1359,0.7068,0.2631,1.8315,-0.8229,37.0500,22.1063,-23.5875,
6.221535,-0.2909,-1.1359,0.7068,0.2631,1.8315,-0.8229,37.0500,22.1063,-23.5875,
6.223392,-1.1840,-0.9860,-1.1007,0.2631,1.8315,-0.8229,37.0500,22.1063,-23.5875,
6.229704,-1.1840,-0.9860,-1.1007,0.2631,1.8315,-0.8229,36.0938,23.6250,-23.6250,
6.261839,-1.1840,-0.9860,-1.1007,0.7264,1.6454,-0.9695,36.0938,23.6250,-23.6250,
6.282343,-1.1840,-0.9860,-1.1007,0.7264,1.6454,-0.9695,36.0938,23.6250,-23.6250,
6.284187,-0.3957,1.3170,-1.7087,0.7264,1.6454,-0.9695,36.0938,23.6250,-23.6250,
6.287653,-0.3957,1.3170,-1.7087,0.7264,1.6454,-0.9695,35.3438,25.4250,-23.2313,
6.322525,-0.3957,1.3170,-1.7087,0.9429,1.2422,-0.8985,35.3438,25.4250,-23.2313,
6.343420,-0.3957,1.3170,-1.7087,0.9429,1.2422,-0.8985,35.3438,25.4250,-23.2313,
6.345132,1.5267,0.0572,2.0518,0.9429,1.2422,-0.8985,35.3438,25.4250,-23.2313,
6.348538,1.5267,0.0572,2.0518,0.9429,1.2422,-0.8985,34.7063,27.1125,-22.5375,
6.383443,1.5267,0.0572,2.0518,1.3899,0.7999,-1.0586,34.7063,27.1125,-22.5375,
6.403636,1.5267,0.0572,2.0518,1.3899,0.7999,-1.0586,34.7063,27.1125,-22.5375,
6.408582,1.5267,0.0572,2.0518,1.3899,0.7999,-1.0586,34.2188,28.7813,-21.5813,
6.423405,-1.5954,-0.5267,-1.2678,1.3899,0.7999,-1.0586,34.2188,28.7813,-21.5813,
6.444549,-1.5954,-0.5267,-1.2678,2.2489,0.0987,-0.8159,34.2188,28.7813,-21.5813,
6.464032,-1.5954,-0.5267,-1.2678,2.2489,0.0987,-0.8159,34.2188,28.7813,-21.5813,
6.468283,-1.5954,-0.5267,-1.2678,2.2489,0.0987,-0.8159,33.7875,30.2438,-20.8313,
6.484334,-3.1744,-1.5939,-3.1301,2.2489,0.0987,-0.8159,33.7875,30.2438,-20.8313,
6.505714,-3.1744,-1.5939,-3.1301,2.1066,0.6461,-0.1449,33.7875,30.2438,-20.8313,
6.524990,-3.1744,-1.5939,-3.1301,2.1066,0.6461,-0.1449,33.7875,30.2438,-20.8313,
6.528712,-3.1744,-1.5939,-3.1301,2.1066,0.6461,-0.1449,33.3750,31.3125,-20.7000,
6.545245,4.6046,0.6600,-1.4495,2.1066,0.6461,-0.1449,33.3750,31.3125,-20.7000,
6.565251,4.6046,0.6600,-1.4495,2.0207,0.5368,0.6027,33.3750,31.3125,-20.7000,
6.586156,4.6046,0.6600,-1.4495,2.0207,0.5368,0.6027,33.3750,31.3125,-20.7000,
6.588591,4.6046,0.6600,-1.4495,2.0207,0.5368,0.6027,33.1313,31.6875,-20.7000,
6.606603,1.9883,0.2316,3.0037,2.0207,0.5368,0.6027,33.1313,31.6875,-20.7000,
6.626494,1.9883,0.2316,3.0037,1.6718,0.3941,2.1707,33.1313,31.6875,-20.7000,
6.647010,1.9883,0.2316,3.0037,1.6718,0.3941,2.1707,33.1313,31.6875,-20.7000,
6.648441,1.9883,0.2316,3.0037,1.6718,0.3941,2.1707,33.3563,30.8625,-20.9813,
6.689932,-1.0376,-0.2552,4.4246,1.6718,0.3941,2.1707,33.3563,30.8625,-20.9813,
6.692854,-1.0376,-0.2552,4.4246,1.8016,-1.7480,1.0972,33.3563,30.8625,-20.9813,
6.709191,-1.0376,-0.2552,4.4246,1.8016,-1.7480,1.0972,33.3563,30.8625,-20.9813,
6.711691,-1.0376,-0.2552,4.4246,1.8016,-1.7480,1.0972,33.3188,29.0625,-21.9563,
6.749754,-1.0376,-0.2552,4.4246,2.3984,-1.0802,-0.2376,33.3188,29.0625,-21.9563,
6.752270,5.2182,-9.5722,5.5037,2.3984,-1.0802,-0.2376,33.3188,29.0625,-21.9563,
6.769549,5.2182,-9.5722,5.5037,2.3984,-1.0802,-0.2376,33.3188,29.0625,-21.9563,
6.771395,5.2182,-9.5722,5.5037,2.3984,-1.0802,-0.2376,33.0000,26.3813,-23.5688,
6.811172,5.2182,-9.5722,5.5037,0.9045,-1.5967,-1.7243,33.0000,26.3813,-23.5688,
6.813105,-0.2703,-4.6784,-2.2541,0.9045,-1.5967,-1.7243,33.0000,26.3813,-23.5688,
6.830486,-0.2703,-4.6784,-2.2541,0.9045,-1.5967,-1.7243,32.1562,23.7375,-25.5938,
6.832277,-0.2703,-4.6784,-2.2541,0.9045,-1.5967,-1.7243,32.1562,23.7375,-25.5938,
6.870398,-0.2703,-4.6784,-2.2541,0.5201,1.3806,-0.8800,32.1562,23.7375,-25.5938,
6.889373,-0.2703,-4.6784,-2.2541,0.5201,1.3806,-0.8800,31.5938,20.9625,-27.4125,
6.891926,-0.2703,-4.6784,-2.2541,0.5201,1.3806,-0.8800,31.5938,20.9625,-27.4125,
6.892839,-2.3303,0.7972,-6.8886,0.5201,1.3806,-0.8800,31.5938,20.9625,-27.4125,
6.931451,-2.3303,0.7972,-6.8886,0.1027,0.5631,-1.3543,31.5938,20.9625,-27.4125,
6.949241,-2.3303,0.7972,-6.8886,0.1027,0.5631,-1.3543,31.4438,18.6188,-28.4813,
6.952611,-2.3303,0.7972,-6.8886,0.1027,0.5631,-1.3543,31.4438,18.6188,-28.4813,
6.953768,-1.1720,2.6839,-2.4451,0.1027,0.5631,-1.3543,31.4438,18.6188,-28.4813,
6.993428,-1.1720,2.6839,-2.4451,-0.5304,-0.4948,-1.8815,31.4438,18.6188,-28.4813,
7.010348,-1.1720,2.6839,-2.4451,-0.5304,-0.4948,-1.8815,31.0313,16.8000,-29.1938,
7.011742,-1.1720,2.6839,-2.4451,-0.5304,-0.4948,-1.8815,31.0313,16.8000,-29.1938,
7.012073,-2.9206,3.1601,-3.2941,-0.5304,-0.4948,-1.8815,31.0313,16.8000,-29.1938,
7.054289,-2.9206,3.1601,-3.2941,-0.7728,0.2823,-1.5003,31.0313,16.8000,-29.1938,
7.068626,-2.9206,3.1601,-3.2941,-0.7728,0.2823,-1.5003,30.4125,15.9563,-29.6063,
7.072675,-2.9206,3.1601,-3.2941,-0.7728,0.2823,-1.5003,30.4125,15.9563,-29.6063,
7.073396,-3.7940,3.3319,-4.7052,-0.7728,0.2823,-1.5003,30.4125,15.9563,-29.6063,
7.114753,-3.7940,3.3319,-4.7052,-0.9766,0.8219,-0.8996,30.4125,15.9563,-29.6063,
7.129321,-3.7940,3.3319,-4.7052,-0.9766,0.8219,-0.8996,29.3063,16.5188,-29.4375,
7.132865,-3.7940,3.3319,-4.7052,-0.9766,0.8219,-0.8996,29.3063,16.5188,-29.4375,
7.155081,-3.7152,3.9894,-1.8291,-0.9766,0.8219,-0.8996,29.3063,16.5188,-29.4375,
7.175348,-3.7152,3.9894,-1.8291,-1.0770,0.7300,-0.1668,29.3063,16.5188,-29.4375,
7.189021,-3.7152,3.9894,-1.8291,-1.0770,0.7300,-0.1668,28.4438,18.0938,-28.5563,
7.194659,-3.7152,3.9894,-1.8291,-1.0770,0.7300,-0.1668,28.4438,18.0938,-28.5563,
7.214755,-2.0736,4.6904,1.8657,-1.0770,0.7300,-0.1668,28.4438,18.0938,-28.5563,
7.234727,-2.0736,4.6904,1.8657,-0.7348,0.6902,0.1189,28.4438,18.0938,-28.5563,
7.248905,-2.0736,4.6904,1.8657,-0.7348,0.6902,0.1189,27.8625,20.4188,-27.1313,
7.256073,-2.0736,4.6904,1.8657,-0.7348,0.6902,0.1189,27.8625,20.4188,-27.1313,
7.276710,0.0950,1.8781,4.5336,-0.7348,0.6902,0.1189,27.8625,20.4188,-27.1313,
7.297156,0.0950,1.8781,4.5336,-0.1937,0.5606,0.1882,27.8625,20.4188,-27.1313,
7.310335,0.0950,1.8781,4.5336,-0.1937,0.5606,0.1882,27.9375,22.6500,-24.9938,
7.318444,0.0950,1.8781,4.5336,-0.1937,0.5606,0.1882,27.9375,22.6500,-24.9938,
7.359466,0.0950,1.8781,4.5336,0.0149,-0.0929,0.2048,27.9375,22.6500,-24.9938,
7.361639,0.1388,-0.0354,3.9534,0.0149,-0.0929,0.2048,27.9375,22.6500,-24.9938,
7.368459,0.1388,-0.0354,3.9534,0.0149,-0.0929,0.2048,27.9750,24.8250,-23.0813,
7.378456,0.1388,-0.0354,3.9534,0.0149,-0.0929,0.2048,27.9750,24.8250,-23.0813,
7.419577,0.1388,-0.0354,3.9534,0.0852,-0.2928,0.5839,27.9750,24.8250,-23.0813,
7.421677,-0.8330,0.0362,1.3824,0.0852,-0.2928,0.5839,27.9750,24.8250,-23.0813,
7.430658,-0.8330,0.0362,1.3824,0.0852,-0.2928,0.5839,27.8813,26.5500,-21.8250,
7.437320,-0.8330,0.0362,1.3824,0.0852,-0.2928,0.5839,27.8813,26.5500,-21.8250,
7.481946,-0.8330,0.0362,1.3824,0.1772,-0.2304,0.8626,27.8813,26.5500,-21.8250,
7.485092,-0.4628,0.0797,0.3244,0.1772,-0.2304,0.8626,27.8813,26.5500,-21.8250,
7.493657,-0.4628,0.0797,0.3244,0.1772,-0.2304,0.8626,28.0125,27.5625,-20.3813,
7.502063,-0.4628,0.0797,0.3244,0.1772,-0.2304,0.8626,28.0125,27.5625,-20.3813,
7.542642,-0.4628,0.0797,0.3244,0.3128,-0.2414,0.8988,28.0125,27.5625,-20.3813,
7.543552,0.2928,-0.7887,0.2926,0.3128,-0.2414,0.8988,28.0125,27.5625,-20.3813,
7.548529,0.2928,-0.7887,0.2926,0.3128,-0.2414,0.8988,28.5000,27.7313,-19.2375,
7.560564,0.2928,-0.7887,0.2926,0.3128,-0.2414,0.8988,28.5000,27.7313,-19.2375,
7.604185,0.2928,-0.7887,0.2926,0.2031,-0.0699,0.9340,28.5000,27.7313,-19.2375,
7.608695,0.2928,-0.7887,0.2926,0.2031,-0.0699,0.9340,29.2875,27.4313,-18.6375,
7.621605,0.2928,-0.7887,0.2926,0.2031,-0.0699,0.9340,29.2875,27.4313,-18.6375,
7.622787,-0.0784,-1.1791,-0.0921,0.2031,-0.0699,0.9340,29.2875,27.4313,-18.6375,
7.661226,-0.0784,-1.1791,-0.0921,0.1342,0.0905,0.7103,29.2875,27.4313,-18.6375,
7.668601,-0.0784,-1.1791,-0.0921,0.1342,0.0905,0.7103,30.0000,26.5500,-18.5063,
7.683113,-0.0784,-1.1791,-0.0921,0.1342,0.0905,0.7103,30.0000,26.5500,-18.5063,
7.684340,0.3153,-1.4971,-0.6701,0.1342,0.0905,0.7103,30.0000,26.5500,-18.5063,
7.725249,0.3153,-1.4971,-0.6701,0.0835,-0.0447,0.3606,30.0000,26.5500,-18.5063,
7.734361,0.3153,-1.4971,-0.6701,0.0835,-0.0447,0.3606,30.8250,25.3125,-18.7500,
7.743181,0.3153,-1.4971,-0.6701,0.0835,-0.0447,0.3606,30.8250,25.3125,-18.7500,
7.744234,1.0591,-1.2625,0.8291,0.0835,-0.0447,0.3606,30.8250,25.3125,-18.7500,
7.783868,1.0591,-1.2625,0.8291,0.0629,0.0430,0.1025,30.8250,25.3125,-18.7500,
7.790651,1.0591,-1.2625,0.8291,0.0629,0.0430,0.1025,31.4813,23.8313,-19.1813,
7.805052,1.0591,-1.2625,0.8291,0.0629,0.0430,0.1025,31.4813,23.8313,-19.1813,
7.806295,1.1261,-0.3466,0.4038,0.0629,0.0430,0.1025,31.4813,23.8313,-19.1813,
7.845238,1.1261,-0.3466,0.4038,0.0117,0.1321,-0.0288,31.4813,23.8313,-19.1813,
7.850507,1.1261,-0.3466,0.4038,0.0117,0.1321,-0.0288,32.1188,22.6500,-19.7625,
7.866111,1.1261,-0.3466,0.4038,0.0117,0.1321,-0.0288,32.1188,22.6500,-19.7625,
7.884985,0.7751,-0.0642,0.0119,0.0117,0.1321,-0.0288,32.1188,22.6500,-19.7625,
7.905939,0.7751,-0.0642,0.0119,-0.0458,0.1208,-0.2166,32.1188,22.6500,-19.7625,
7.908487,0.7751,-0.0642,0.0119,-0.0458,0.1208,-0.2166,32.5688,21.4313,-20.1188,
7.925945,0.7751,-0.0642,0.0119,-0.0458,0.1208,-0.2166,32.5688,21.4313,-20.1188,
7.946367,0.4544,-0.3646,-0.1569,-0.0458,0.1208,-0.2166,32.5688,21.4313,-20.1188,
7.966277,0.4544,-0.3646,-0.1569,-0.0976,0.1551,-0.2653,32.5688,21.4313,-20.1188,
7.968129,0.4544,-0.3646,-0.1569,-0.0976,0.1551,-0.2653,33.1875,20.6250,-20.3250,
7.987239,0.4544,-0.3646,-0.1569,-0.0976,0.1551,-0.2653,33.1875,20.6250,-20.3250,
8.007978,0.0260,-0.0537,-0.5173,-0.0976,0.1551,-0.2653,33.1875,20.6250,-20.3250,
8.028127,0.0260,-0.0537,-0.5173,-0.1413,0.0667,-0.3011,33.1875,20.6250,-20.3250,
8.030217,0.0260,-0.0537,-0.5173,-0.1413,0.0667,-0.3011,33.4500,20.2125,-20.3438,
8.049019,0.0260,-0.0537,-0.5173,-0.1413,0.0667,-0.3011,33.4500,20.2125,-20.3438,
8.090972,0.0260,-0.0537,-0.5173,-0.1413,0.0667,-0.3011,33.5063,20.0063,-20.1938,
8.094496,-0.4165,0.1342,-0.3766,-0.1413,0.0667,-0.3011,33.5063,20.0063,-20.1938,
8.095828,-0.4165,0.1342,-0.3766,-0.1892,0.0138,-0.2166,33.5063,20.0063,-20.1938,
8.109600,-0.4165,0.1342,-0.3766,-0.1892,0.0138,-0.2166,33.5063,20.0063,-20.1938,
8.149686,-0.4165,0.1342,-0.3766,-0.1892,0.0138,-0.2166,33.6188,20.2875,-19.9688,
8.151863,-0.4165,0.1342,-0.3766,-0.1675,0.0735,-0.0573,33.6188,20.2875,-19.9688,
8.152649,-0.5672,0.4988,-0.3015,-0.1675,0.0735,-0.0573,33.6188,20.2875,-19.9688,
8.169616,-0.5672,0.4988,-0.3015,-0.1675,0.0735,-0.0573,33.6188,20.2875,-19.9688,
8.211759,-0.5672,0.4988,-0.3015,-0.1675,0.0735,-0.0573,33.6188,20.7375,-19.5563,
8.214272,-0.5603,0.7406,0.2047,-0.1675,0.0735,-0.0573,33.6188,20.7375,-19.5563,
8.215367,-0.5603,0.7406,0.2047,-0.1522,0.1662,0.1104,33.6188,20.7375,-19.5563,
8.230321,-0.5603,0.7406,0.2047,-0.1522,0.1662,0.1104,33.6188,20.7375,-19.5563,
8.269423,-0.5603,0.7406,0.2047,-0.1522,0.1662,0.1104,33.6375,21.4313,-19.3313,
8.272637,-0.5603,0.7406,0.2047,-0.1501,0.1012,0.0840,33.6375,21.4313,-19.3313,
8.274575,-0.3059,0.4899,0.4034,-0.1501,0.1012,0.0840,33.6375,21.4313,-19.3313,
8.291321,-0.3059,0.4899,0.4034,-0.1501,0.1012,0.0840,33.6375,21.4313,-19.3313,
8.331493,-0.3059,0.4899,0.4034,-0.1405,0.2109,0.0823,33.6375,21.4313,-19.3313,
8.333679,-0.3059,0.4899,0.4034,-0.1405,0.2109,0.0823,33.6000,21.7125,-18.8813,
8.352689,-0.3059,0.4899,0.4034,-0.1405,0.2109,0.0823,33.6000,21.7125,-18.8813,
8.354200,0.0436,0.1947,0.3177,-0.1405,0.2109,0.0823,33.6000,21.7125,-18.8813,
8.389548,0.0436,0.1947,0.3177,-0.1405,0.2109,0.0823,33.7500,22.1250,-18.3188,
8.393579,0.0436,0.1947,0.3177,-0.1296,0.3252,0.1000,33.7500,22.1250,-18.3188,
8.414077,0.0436,0.1947,0.3177,-0.1296,0.3252,0.1000,33.7500,22.1250,-18.3188,
8.415268,0.3521,-0.1495,0.4986,-0.1296,0.3252,0.1000,33.7500,22.1250,-18.3188,
8.449339,0.3521,-0.1495,0.4986,-0.1296,0.3252,0.1000,33.7875,22.4438,-17.7750,
8.454265,0.3521,-0.1495,0.4986,-0.1001,0.3874,0.1814,33.7875,22.4438,-17.7750,
8.473952,0.3521,-0.1495,0.4986,-0.1001,0.3874,0.1814,33.7875,22.4438,-17.7750,
8.475576,0.4392,0.0925,0.3317,-0.1001,0.3874,0.1814,33.7875,22.4438,-17.7750,
8.508843,0.4392,0.0925,0.3317,-0.1001,0.3874,0.1814,33.9938,22.5938,-17.4563,
8.514787,0.4392,0.0925,0.3317,-0.0663,0.4364,0.2310,33.9938,22.5938,-17.4563,
8.534766,0.4392,0.0925,0.3317,-0.0663,0.4364,0.2310,33.9938,22.5938,-17.4563,
8.555082,0.6734,0.2418,-0.1213,-0.0663,0.4364,0.2310,33.9938,22.5938,-17.4563,
8.568838,0.6734,0.2418,-0.1213,-0.0663,0.4364,0.2310,34.4062,22.7812,-16.9500,
8.575928,0.6734,0.2418,-0.1213,-0.2005,0.3135,0.0720,34.4062,22.7812,-16.9500,
8.596095,0.6734,0.2418,-0.1213,-0.2005,0.3135,0.0720,34.4062,22.7812,-16.9500,
8.616285,0.3785,-0.2837,-0.8883,-0.2005,0.3135,0.0720,34.4062,22.7812,-16.9500,
8.629365,0.3785,-0.2837,-0.8883,-0.2005,0.3135,0.0720,34.8563,22.8188,-16.1250,
8.637855,0.3785,-0.2837,-0.8883,-0.3003,0.4430,-0.0850,34.8563,22.8188,-16.1250,
8.656832,0.3785,-0.2837,-0.8883,-0.3003,0.4430,-0.0850,34.8563,22.8188,-16.1250,
8.676998,0.1679,-0.3615,-0.4287,-0.3003,0.4430,-0.0850,34.8563,22.8188,-16.1250,
8.688494,0.1679,-0.3615,-0.4287,-0.3003,0.4430,-0.0850,35.2125,22.8750,-15.1875,
8.697816,0.1679,-0.3615,-0.4287,-0.2634,0.5073,-0.0796,35.2125,22.8750,-15.1875,
8.717647,0.1679,-0.3615,-0.4287,-0.2634,0.5073,-0.0796,35.2125,22.8750,-15.1875,
8.737720,-0.2009,-0.5668,0.6175,-0.2634,0.5073,-0.0796,35.2125,22.8750,-15.1875,
8.748634,-0.2009,-0.5668,0.6175,-0.2634,0.5073,-0.0796,35.3625,22.9313,-14.1563,
8.757054,-0.2009,-0.5668,0.6175,-0.2949,0.5631,-0.0882,35.3625,22.9313,-14.1563,
8.778161,-0.2009,-0.5668,0.6175,-0.2949,0.5631,-0.0882,35.3625,22.9313,-14.1563,
8.809796,-0.2009,-0.5668,0.6175,-0.2949,0.5631,-0.0882,35.8125,23.1188,-12.9000,
8.820374,-0.2009,-0.5668,0.6175,-0.3184,0.7108,0.0716,35.8125,23.1188,-12.9000,
8.822182,-0.6262,-0.4408,0.2782,-0.3184,0.7108,0.0716,35.8125,23.1188,-12.9000,
8.839349,-0.6262,-0.4408,0.2782,-0.3184,0.7108,0.0716,35.8125,23.1188,-12.9000,
8.869449,-0.6262,-0.4408,0.2782,-0.3184,0.7108,0.0716,36.2250,23.3250,-11.4938,
8.880968,-0.6262,-0.4408,0.2782,-0.3173,0.6806,0.0802,36.2250,23.3250,-11.4938,
8.882753,-0.4705,-0.0299,-0.1112,-0.3173,0.6806,0.0802,36.2250,23.3250,-11.4938,
8.902193,-0.4705,-0.0299,-0.1112,-0.3173,0.6806,0.0802,36.2250,23.3250,-11.4938,
8.931037,-0.4705,-0.0299,-0.1112,-0.3173,0.6806,0.0802,36.6750,23.4938,-9.9000,
8.941552,-0.4705,-0.0299,-0.1112,-0.3806,0.5886,0.1015,36.6750,23.4938,-9.9000,
8.942936,-0.0834,0.1970,-0.5925,-0.3806,0.5886,0.1015,36.6750,23.4938,-9.9000,
8.961662,-0.0834,0.1970,-0.5925,-0.3806,0.5886,0.1015,36.6750,23.4938,-9.9000,
8.989734,-0.0834,0.1970,-0.5925,-0.3806,0.5886,0.1015,36.9750,23.6250,-7.9875,
9.003335,-0.0834,0.1970,-0.5925,-0.4309,0.2975,0.0021,36.9750,23.6250,-7.9875,
9.022626,-0.0834,0.1970,-0.5925,-0.4309,0.2975,0.0021,36.9750,23.6250,-7.9875,
9.023699,0.1109,0.1649,-0.2427,-0.4309,0.2975,0.0021,36.9750,23.6250,-7.9875,
9.049923,0.1109,0.1649,-0.2427,-0.4309,0.2975,0.0021,37.1438,23.6438,-6.2438,
9.063595,0.1109,0.1649,-0.2427,-0.4377,0.2265,0.0021,37.1438,23.6438,-6.2438,
9.083832,0.1109,0.1649,-0.2427,-0.4377,0.2265,0.0021,37.1438,23.6438,-6.2438,
9.085497,-0.1318,0.0416,0.1917,-0.4377,0.2265,0.0021,37.1438,23.6438,-6.2438,
9.109488,-0.1318,0.0416,0.1917,-0.4377,0.2265,0.0021,37.3688,23.7563,-4.6313,
9.124517,-0.1318,0.0416,0.1917,-0.3258,0.3888,0.0269,37.3688,23.7563,-4.6313,
9.144681,-0.1318,0.0416,0.1917,-0.3258,0.3888,0.0269,37.3688,23.7563,-4.6313,
9.146219,0.1808,-0.2998,0.9526,-0.3258,0.3888,0.0269,37.3688,23.7563,-4.6313,
9.170571,0.1808,-0.2998,0.9526,-0.3258,0.3888,0.0269,37.5750,23.7750,-3.0000,
9.185913,0.1808,-0.2998,0.9526,-0.1882,0.3831,0.0979,37.5750,23.7750,-3.0000,
9.206304,0.0906,0.0525,1.0245,-0.1882,0.3831,0.0979,37.5750,23.7750,-3.0000,
9.208372,0.0906,0.0525,1.0245,-0.1882,0.3831,0.0979,37.5750,23.7750,-3.0000,
9.231125,0.0906,0.0525,1.0245,-0.1882,0.3831,0.0979,37.9875,23.9250,-0.2063,
9.245619,0.0906,0.0525,1.0245,-0.1714,0.2808,0.0269,37.9875,23.9250,-0.2063,
9.266251,0.0906,0.0525,1.0245,-0.1714,0.2808,0.0269,37.9875,23.9250,-0.2063,
9.286261,-0.0746,-0.3011,-0.0650,-0.1714,0.2808,0.0269,37.9875,23.9250,-0.2063,
9.288127,-0.0746,-0.3011,-0.0650,-0.1714,0.2808,0.0269,38.0625,23.8875,1.1813,
9.307108,-0.0746,-0.3011,-0.0650,-0.3131,0.4143,0.0340,38.0625,23.8875,1.1813,
9.327724,-0.0746,-0.3011,-0.0650,-0.3131,0.4143,0.0340,38.0625,23.8875,1.1813,
9.349219,-0.3404,0.0015,-1.1653,-0.3131,0.4143,0.0340,38.0625,23.8875,1.1813,
9.352536,-0.3404,0.0015,-1.1653,-0.3131,0.4143,0.0340,38.1750,23.7188,2.7188,
9.369173,-0.3404,0.0015,-1.1653,-0.3951,0.2158,0.0983,38.1750,23.7188,2.7188,
9.388837,-0.3404,0.0015,-1.1653,-0.3951,0.2158,0.0983,38.1750,23.7188,2.7188,
9.408797,-0.2088,0.5480,-0.1440,-0.3951,0.2158,0.0983,38.1750,23.7188,2.7188,
9.412014,-0.2088,0.5480,-0.1440,-0.3951,0.2158,0.0983,38.0625,23.4563,3.8625,
9.432114,-0.2088,0.5480,-0.1440,-0.3844,0.2514,0.2662,38.0625,23.4563,3.8625,
9.451327,-0.2088,0.5480,-0.1440,-0.3844,0.2514,0.2662,38.0625,23.4563,3.8625,
9.470567,-0.2088,0.5480,-0.1440,-0.3844,0.2514,0.2662,38.1562,23.2688,5.1562,
9.490722,-0.2088,0.5480,-0.1440,-0.3386,0.3927,0.4507,38.1562,23.2688,5.1562,
9.493053,-0.0907,0.8579,0.2074,-0.3386,0.3927,0.4507,38.1562,23.2688,5.1562,
9.510156,-0.0907,0.8579,0.2074,-0.3386,0.3927,0.4507,38.1562,23.2688,5.1562,
9.531404,-0.0907,0.8579,0.2074,-0.3386,0.3927,0.4507,38.1750,22.9500,6.5625,
9.551846,-0.0907,0.8579,0.2074,-0.3876,0.3682,0.3546,38.1750,22.9500,6.5625,
9.554619,0.3896,0.4118,0.6698,-0.3876,0.3682,0.3546,38.1750,22.9500,6.5625,
9.570510,0.3896,0.4118,0.6698,-0.3876,0.3682,0.3546,38.1750,22.9500,6.5625,
9.590091,0.3896,0.4118,0.6698,-0.3876,0.3682,0.3546,38.2500,22.4250,8.0438,
9.611435,0.3896,0.4118,0.6698,-0.4270,0.3537,0.1999,38.2500,22.4250,8.0438,
9.613444,0.4575,-0.4045,-0.0308,-0.4270,0.3537,0.1999,38.2500,22.4250,8.0438,
9.631462,0.4575,-0.4045,-0.0308,-0.4270,0.3537,0.1999,38.2500,22.4250,8.0438,
9.649667,0.4575,-0.4045,-0.0308,-0.4270,0.3537,0.1999,38.2688,21.9000,9.3000,
9.672772,0.4575,-0.4045,-0.0308,-0.3397,0.3614,0.2847,38.2688,21.9000,9.3000,
9.675592,0.0751,-0.0634,0.6334,-0.3397,0.3614,0.2847,38.2688,21.9000,9.3000,
9.693216,0.0751,-0.0634,0.6334,-0.3397,0.3614,0.2847,38.2688,21.9000,9.3000,
9.710218,0.0751,-0.0634,0.6334,-0.3397,0.3614,0.2847,38.3063,21.2250,10.5938,
9.734323,0.0751,-0.0634,0.6334,-0.2293,0.1647,0.2427,38.3063,21.2250,10.5938,
9.754846,0.0751,-0.0634,0.6334,-0.2293,0.1647,0.2427,38.3063,21.2250,10.5938,
9.756459,-0.5360,-0.0365,0.5717,-0.2293,0.1647,0.2427,38.3063,21.2250,10.5938,
9.768981,-0.5360,-0.0365,0.5717,-0.2293,0.1647,0.2427,38.3813,20.3625,11.9250,
9.794273,-0.5360,-0.0365,0.5717,-0.2815,0.0245,0.1852,38.3813,20.3625,11.9250,
9.815134,-0.5360,-0.0365,0.5717,-0.2815,0.0245,0.1852,38.3813,20.3625,11.9250,
9.816957,-0.4050,-0.2154,-0.3819,-0.2815,0.0245,0.1852,38.3813,20.3625,11.9250,
9.830368,-0.4050,-0.2154,-0.3819,-0.2815,0.0245,0.1852,38.5312,19.7063,12.8813,
9.855210,-0.4050,-0.2154,-0.3819,-0.3723,-0.1142,0.0181,38.5312,19.7063,12.8813,
9.876645,-0.4050,-0.2154,-0.3819,-0.3723,-0.1142,0.0181,38.5312,19.7063,12.8813,
9.878434,-0.4249,-0.6938,-1.0747,-0.3723,-0.1142,0.0181,38.5312,19.7063,12.8813,
9.889555,-0.4249,-0.6938,-1.0747,-0.3723,-0.1142,0.0181,38.7938,18.9563,13.8938,
9.916684,-0.4249,-0.6938,-1.0747,-0.3891,-0.2964,-0.1250,38.7938,18.9563,13.8938,
9.936504,-0.4249,-0.6938,-1.0747,-0.3891,-0.2964,-0.1250,38.7938,18.9563,13.8938,
9.948814,-0.4249,-0.6938,-1.0747,-0.3891,-0.2964,-0.1250,38.9438,18.4875,14.4563,
9.955278,-0.4980,0.1024,-0.3758,-0.3891,-0.2964,-0.1250,38.9438,18.4875,14.4563,
9.977216,-0.4980,0.1024,-0.3758,-0.1108,-0.9397,-0.5531,38.9438,18.4875,14.4563,
9.998178,-0.4980,0.1024,-0.3758,-0.1108,-0.9397,-0.5531,38.9438,18.4875,14.4563,
10.009437,-0.4980,0.1024,-0.3758,-0.1108,-0.9397,-0.5531,39.2063,18.2625,14.5875,
10.019563,0.1112,1.1625,1.4066,-0.1108,-0.9397,-0.5531,39.2063,18.2625,14.5875,
10.037683,0.1112,1.1625,1.4066,-0.3254,-0.8771,-0.9806,39.2063,18.2625,14.5875,
10.057717,0.1112,1.1625,1.4066,-0.3254,-0.8771,-0.9806,39.2063,18.2625,14.5875,
10.069197,0.1112,1.1625,1.4066,-0.3254,-0.8771,-0.9806,39.2063,18.5438,14.2313,
10.079063,-0.2143,1.1430,-1.3013,-0.3254,-0.8771,-0.9806,39.2063,18.5438,14.2313,
10.098915,-0.2143,1.1430,-1.3013,-0.5005,-0.4437,-0.9352,39.2063,18.5438,14.2313,
10.119358,-0.2143,1.1430,-1.3013,-0.5005,-0.4437,-0.9352,39.2063,18.5438,14.2313,
10.131165,-0.2143,1.1430,-1.3013,-0.5005,-0.4437,-0.9352,39.2250,19.0688,13.8000,
10.139713,-0.7048,-0.8270,-0.6704,-0.5005,-0.4437,-0.9352,39.2250,19.0688,13.8000,
10.159450,-0.7048,-0.8270,-0.6704,-0.4700,-1.2896,-0.6870,39.2250,19.0688,13.8000,
10.180193,-0.7048,-0.8270,-0.6704,-0.4700,-1.2896,-0.6870,39.2250,19.0688,13.8000,
10.189168,-0.7048,-0.8270,-0.6704,-0.4700,-1.2896,-0.6870,39.0938,20.0063,12.8625,
10.220447,-0.7048,-0.8270,-0.6704,-0.8502,-0.6706,-0.7398,39.0938,20.0063,12.8625,
10.222504,-3.2068,-1.4673,1.3074,-0.8502,-0.6706,-0.7398,39.0938,20.0063,12.8625,
10.240642,-3.2068,-1.4673,1.3074,-0.8502,-0.6706,-0.7398,39.0938,20.0063,12.8625,
10.249230,-3.2068,-1.4673,1.3074,-0.8502,-0.6706,-0.7398,38.9062,21.2812,11.8500,
10.281032,-3.2068,-1.4673,1.3074,-0.9244,-0.2140,-0.4069,38.9062,21.2812,11.8500,
10.282667,1.5727,-0.2842,-0.6609,-0.9244,-0.2140,-0.4069,38.9062,21.2812,11.8500,
10.301789,1.5727,-0.2842,-0.6609,-0.9244,-0.2140,-0.4069,38.9062,21.2812,11.8500,
10.310693,1.5727,-0.2842,-0.6609,-0.9244,-0.2140,-0.4069,38.7000,22.5375,10.8750,
10.341322,1.5727,-0.2842,-0.6609,-0.9442,-0.6635,-0.2365,38.7000,22.5375,10.8750,
10.342183,0.2103,0.7394,1.3391,-0.9442,-0.6635,-0.2365,38.7000,22.5375,10.8750,
10.362298,0.2103,0.7394,1.3391,-0.9442,-0.6635,-0.2365,38.7000,22.5375,10.8750,
10.368286,0.2103,0.7394,1.3391,-0.9442,-0.6635,-0.2365,38.2688,23.9062,9.8438,
10.402340,0.2103,0.7394,1.3391,-1.0288,-1.2894,-0.2461,38.2688,23.9062,9.8438,
10.423549,0.2103,0.7394,1.3391,-1.0288,-1.2894,-0.2461,38.2688,23.9062,9.8438,
10.425266,-0.7814,0.1071,-0.1514,-1.0288,-1.2894,-0.2461,38.2688,23.9062,9.8438,
10.427741,-0.7814,0.1071,-0.1514,-1.0288,-1.2894,-0.2461,38.0813,25.2375,8.7188,
10.463068,-0.7814,0.1071,-0.1514,-1.1569,-1.1768,-0.0338,38.0813,25.2375,8.7188,
10.483656,-0.3541,-0.1092,0.0319,-1.1569,-1.1768,-0.0338,38.0813,25.2375,8.7188,
10.486134,-0.3541,-0.1092,0.0319,-1.1569,-1.1768,-0.0338,38.0813,25.2375,8.7188,
10.487991,-0.3541,-0.1092,0.0319,-1.1569,-1.1768,-0.0338,37.6875,26.3625,7.7063,
10.525003,-0.3541,-0.1092,0.0319,-1.2709,-1.3039,0.0688,37.6875,26.3625,7.7063,
10.545696,-0.3541,-0.1092,0.0319,-1.2709,-1.3039,0.0688,37.6875,26.3625,7.7063,
10.548178,-0.4149,-0.0741,-0.1629,-1.2709,-1.3039,0.0688,37.6875,26.3625,7.7063,
10.550150,-0.4149,-0.0741,-0.1629,-1.2709,-1.3039,0.0688,37.5938,26.7375,7.0125,
10.584937,-0.4149,-0.0741,-0.1629,-1.0844,-1.0991,0.0202,37.5938,26.7375,7.0125,
10.607178,-0.4149,-0.0741,-0.1629,-1.0844,-1.0991,0.0202,37.5938,26.7375,7.0125,
10.609070,0.3129,0.5200,1.0230,-1.0844,-1.0991,0.0202,37.5938,26.7375,7.0125,
10.610434,0.3129,0.5200,1.0230,-1.0844,-1.0991,0.0202,37.4062,26.9813,6.1875,
10.646982,0.3129,0.5200,1.0230,-0.9432,-0.3244,0.2055,37.4062,26.9813,6.1875,
10.666895,0.3129,0.5200,1.0230,-0.9432,-0.3244,0.2055,37.4062,26.9813,6.1875,
10.669065,0.3129,0.5200,1.0230,-0.9432,-0.3244,0.2055,37.5000,26.7563,5.6250,
10.686990,3.8593,1.7553,1.6823,-0.9432,-0.3244,0.2055,37.5000,26.7563,5.6250,
10.707653,3.8593,1.7553,1.6823,-1.2265,-0.2641,0.2229,37.5000,26.7563,5.6250,
10.727827,3.8593,1.7553,1.6823,-1.2265,-0.2641,0.2229,37.5000,26.7563,5.6250,
10.729267,3.8593,1.7553,1.6823,-1.2265,-0.2641,0.2229,37.6688,26.3250,5.1938,
10.747306,-0.9527,-0.7401,-0.7252,-1.2265,-0.2641,0.2229,37.6688,26.3250,5.1938,
10.770213,-0.9527,-0.7401,-0.7252,-1.1611,0.1775,0.4164,37.6688,26.3250,5.1938,
10.790850,-0.9527,-0.7401,-0.7252,-1.1611,0.1775,0.4164,38.0438,25.9500,5.1188,
10.792609,-0.9527,-0.7401,-0.7252,-1.1611,0.1775,0.4164,38.0438,25.9500,5.1188,
10.810521,0.6030,-0.0615,0.1000,-1.1611,0.1775,0.4164,38.0438,25.9500,5.1188,
10.830160,0.6030,-0.0615,0.1000,-0.8750,-0.1924,0.2992,38.0438,25.9500,5.1188,
10.852623,0.6030,-0.0615,0.1000,-0.8750,-0.1924,0.2992,38.7000,25.2938,5.2875,
10.854795,0.6030,-0.0615,0.1000,-0.8750,-0.1924,0.2992,38.7000,25.2938,5.2875,
10.893176,0.6030,-0.0615,0.1000,-0.6719,-0.3635,0.1984,38.7000,25.2938,5.2875,
10.898602,-0.4037,0.1073,-0.3227,-0.6719,-0.3635,0.1984,38.7000,25.2938,5.2875,
10.911127,-0.4037,0.1073,-0.3227,-0.6719,-0.3635,0.1984,39.0375,24.3188,5.5688,
10.912648,-0.4037,0.1073,-0.3227,-0.6719,-0.3635,0.1984,39.0375,24.3188,5.5688,
10.954542,-0.4037,0.1073,-0.3227,-0.6681,-0.4924,0.2768,39.0375,24.3188,5.5688,
10.956826,0.1434,0.0499,-0.3999,-0.6681,-0.4924,0.2768,39.0375,24.3188,5.5688,
10.972655,0.1434,0.0499,-0.3999,-0.6681,-0.4924,0.2768,39.0375,24.3188,5.5688,
10.974337,0.1434,0.0499,-0.3999,-0.6681,-0.4924,0.2768,39.6000,23.3250,6.1688,
11.014621,0.2692,0.0221,-0.2442,-0.6681,-0.4924,0.2768,39.6000,23.3250,6.1688,
11.016787,0.2692,0.0221,-0.2442,-0.6996,-0.0955,0.4273,39.6000,23.3250,6.1688,
11.029747,0.2692,0.0221,-0.2442,-0.6996,-0.0955,0.4273,39.9938,22.4813,6.7500,
11.032953,0.2692,0.0221,-0.2442,-0.6996,-0.0955,0.4273,39.9938,22.4813,6.7500,
11.074371,0.2692,0.0221,-0.2442,-0.6819,-0.2545,0.3209,39.9938,22.4813,6.7500,
11.077669,0.2852,0.0649,-0.1172,-0.6819,-0.2545,0.3209,39.9938,22.4813,6.7500,
11.089354,0.2852,0.0649,-0.1172,-0.6819,-0.2545,0.3209,40.5938,21.5063,7.3688,
11.096029,0.2852,0.0649,-0.1172,-0.6819,-0.2545,0.3209,40.5938,21.5063,7.3688,
11.134918,0.2852,0.0649,-0.1172,-0.4160,-0.1068,0.1509,40.5938,21.5063,7.3688,
11.149155,0.2852,0.0649,-0.1172,-0.4160,-0.1068,0.1509,41.0063,20.6250,8.0438,
11.154246,0.2852,0.0649,-0.1172,-0.4160,-0.1068,0.1509,41.0063,20.6250,8.0438,
11.154893,-0.7213,0.1731,-1.1238,-0.4160,-0.1068,0.1509,41.0063,20.6250,8.0438,
11.197619,-0.7213,0.1731,-1.1238,-0.3297,0.0036,0.2052,41.0063,20.6250,8.0438,
11.209231,-0.7213,0.1731,-1.1238,-0.3297,0.0036,0.2052,41.5312,19.9125,8.6063,
11.215493,-0.7213,0.1731,-1.1238,-0.3297,0.0036,0.2052,41.5312,19.9125,8.6063,
11.216681,0.0907,-0.0122,-0.4300,-0.3297,0.0036,0.2052,41.5312,19.9125,8.6063,
11.259416,0.0907,-0.0122,-0.4300,-0.2240,-0.0567,0.1846,41.5312,19.9125,8.6063,
11.269533,0.0907,-0.0122,-0.4300,-0.2240,-0.0567,0.1846,41.8313,18.7500,8.8875,
11.275685,0.0907,-0.0122,-0.4300,-0.2240,-0.0567,0.1846,41.8313,18.7500,8.8875,
11.276872,-0.0135,0.0348,-0.3691,-0.2240,-0.0567,0.1846,41.8313,18.7500,8.8875,
11.320133,-0.0135,0.0348,-0.3691,-0.0567,-0.0710,0.2310,41.8313,18.7500,8.8875,
11.332887,-0.0135,0.0348,-0.3691,-0.0567,-0.0710,0.2310,41.9813,17.8688,8.9625,
11.336840,-0.0135,0.0348,-0.3691,-0.0567,-0.0710,0.2310,41.9813,17.8688,8.9625,
11.357481,-0.1372,0.1594,-0.5448,-0.0567,-0.0710,0.2310,41.9813,17.8688,8.9625,
11.377700,-0.1372,0.1594,-0.5448,0.0043,-0.0565,0.4579,41.9813,17.8688,8.9625,
11.390319,-0.1372,0.1594,-0.5448,0.0043,-0.0565,0.4579,42.4313,17.0813,9.1125,
11.399147,-0.1372,0.1594,-0.5448,0.0043,-0.0565,0.4579,42.4313,17.0813,9.1125,
11.419839,0.7233,-0.0018,-0.2176,0.0043,-0.0565,0.4579,42.4313,17.0813,9.1125,
11.438362,0.7233,-0.0018,-0.2176,0.0164,-0.0273,0.3531,42.4313,17.0813,9.1125,
11.449719,0.7233,-0.0018,-0.2176,0.0164,-0.0273,0.3531,42.6188,16.2563,9.0000,
11.459443,0.7233,-0.0018,-0.2176,0.0164,-0.0273,0.3531,42.6188,16.2563,9.0000,
11.480460,-0.1052,0.0503,-0.3565,0.0164,-0.0273,0.3531,42.6188,16.2563,9.0000,
11.499735,-0.1052,0.0503,-0.3565,0.0085,-0.1174,0.4057,42.6188,16.2563,9.0000,
11.509562,-0.1052,0.0503,-0.3565,0.0085,-0.1174,0.4057,43.0312,15.3563,8.8125,
11.519860,-0.1052,0.0503,-0.3565,0.0085,-0.1174,0.4057,43.0312,15.3563,8.8125,
11.540801,0.1309,0.1176,-0.2264,0.0085,-0.1174,0.4057,43.0312,15.3563,8.8125,
11.560255,0.1309,0.1176,-0.2264,0.0047,-0.1270,0.2694,43.0312,15.3563,8.8125,
11.569678,0.1309,0.1176,-0.2264,0.0047,-0.1270,0.2694,43.3875,14.6625,8.6625,
11.581432,0.1309,0.1176,-0.2264,0.0047,-0.1270,0.2694,43.3875,14.6625,8.6625,
11.622785,0.1309,0.1176,-0.2264,0.0170,-0.0049,0.4175,43.3875,14.6625,8.6625,
11.625005,-0.0483,0.0414,-0.2175,0.0170,-0.0049,0.4175,43.3875,14.6625,8.6625,
11.631472,-0.0483,0.0414,-0.2175,0.0170,-0.0049,0.4175,43.7063,13.7063,8.5312,
11.642211,-0.0483,0.0414,-0.2175,0.0170,-0.0049,0.4175,43.7063,13.7063,8.5312,
11.682369,-0.0483,0.0414,-0.2175,0.0806,-0.0120,0.3929,43.7063,13.7063,8.5312,
11.684266,0.1321,0.1057,-0.1860,0.0806,-0.0120,0.3929,43.7063,13.7063,8.5312,
11.688916,0.1321,0.1057,-0.1860,0.0806,-0.0120,0.3929,43.9500,12.4875,8.5312,
11.701391,0.1321,0.1057,-0.1860,0.0806,-0.0120,0.3929,43.9500,12.4875,8.5312,
11.743727,0.1321,0.1057,-0.1860,0.1459,0.2286,0.4337,43.9500,12.4875,8.5312,
11.746232,0.1842,0.0371,-0.2656,0.1459,0.2286,0.4337,43.9500,12.4875,8.5312,
11.747593,0.1842,0.0371,-0.2656,0.1459,0.2286,0.4337,44.2313,11.5500,8.3625,
11.763645,0.1842,0.0371,-0.2656,0.1459,0.2286,0.4337,44.2313,11.5500,8.3625,
11.806517,0.1842,0.0371,-0.2656,0.0479,0.4643,0.7203,44.2313,11.5500,8.3625,
11.812264,0.1842,0.0371,-0.2656,0.0479,0.4643,0.7203,44.5688,10.4438,8.4375,
11.823960,0.1842,0.0371,-0.2656,0.0479,0.4643,0.7203,44.5688,10.4438,8.4375,
11.825115,0.5640,-0.2216,0.2119,0.0479,0.4643,0.7203,44.5688,10.4438,8.4375,
11.866353,0.5640,-0.2216,0.2119,-0.0075,0.4008,0.5732,44.5688,10.4438,8.4375,
11.869734,0.5640,-0.2216,0.2119,-0.0075,0.4008,0.5732,44.7188,9.1875,8.6813,
11.885562,0.5640,-0.2216,0.2119,-0.0075,0.4008,0.5732,44.7188,9.1875,8.6813,
11.887787,-0.2538,0.1060,-0.3076,-0.0075,0.4008,0.5732,44.7188,9.1875,8.6813,
11.925782,-0.2538,0.1060,-0.3076,0.0948,0.5297,0.3742,44.7188,9.1875,8.6813,
11.930283,-0.2538,0.1060,-0.3076,0.0948,0.5297,0.3742,44.9438,8.1188,8.9625,
11.945252,-0.2538,0.1060,-0.3076,0.0948,0.5297,0.3742,44.9438,8.1188,8.9625,
11.946577,-0.3112,-0.1502,-0.3453,0.0948,0.5297,0.3742,44.9438,8.1188,8.9625,
11.987516,-0.3112,-0.1502,-0.3453,0.0423,0.4931,0.1956,44.9438,8.1188,8.9625,
11.989680,-0.3112,-0.1502,-0.3453,0.0423,0.4931,0.1956,44.8688,7.0313,9.5813,
12.006595,-0.3112,-0.1502,-0.3453,0.0423,0.4931,0.1956,44.8688,7.0313,9.5813,
12.008174,-0.2636,0.1262,-0.1550,0.0423,0.4931,0.1956,44.8688,7.0313,9.5813,
12.048506,-0.2636,0.1262,-0.1550,-0.2843,-1.1460,-0.6739,44.8688,7.0313,9.5813,
12.051553,-0.2636,0.1262,-0.1550,-0.2843,-1.1460,-0.6739,44.7188,6.0750,10.0875,
12.067450,-0.2636,0.1262,-0.1550,-0.2843,-1.1460,-0.6739,44.7188,6.0750,10.0875,
12.088672,-0.1644,-0.7427,1.2194,-0.2843,-1.1460,-0.6739,44.7188,6.0750,10.0875,
12.108604,-0.1644,-0.7427,1.2194,-0.7454,-5.1571,-2.5546,44.7188,6.0750,10.0875,
12.110404,-0.1644,-0.7427,1.2194,-0.7454,-5.1571,-2.5546,44.7938,6.0938,9.1688,
12.128977,-0.1644,-0.7427,1.2194,-0.7454,-5.1571,-2.5546,44.7938,6.0938,9.1688,
12.149531,-0.8269,-3.0812,5.8880,-0.7454,-5.1571,-2.5546,44.7938,6.0938,9.1688,
12.170944,-0.8269,-3.0812,5.8880,-0.3691,-4.3896,-1.1943,44.7938,6.0938,9.1688,
12.172369,-0.8269,-3.0812,5.8880,-0.3691,-4.3896,-1.1943,44.4375,7.1438,6.3188,
12.190158,-0.8269,-3.0812,5.8880,-0.3691,-4.3896,-1.1943,44.4375,7.1438,6.3188,
12.209473,-1.7872,4.0016,-3.0822,-0.3691,-4.3896,-1.1943,44.4375,7.1438,6.3188,
12.229670,-1.7872,4.0016,-3.0822,-0.3691,-4.3896,-1.1943,43.9125,8.1000,3.4125,
12.231812,-1.7872,4.0016,-3.0822,1.3217,3.4130,1.1927,43.9125,8.1000,3.4125,
12.249755,-1.7872,4.0016,-3.0822,1.3217,3.4130,1.1927,43.9125,8.1000,3.4125,
12.289194,-1.7872,4.0016,-3.0822,1.3217,3.4130,1.1927,43.6875,9.2438,0.4500,
12.291380,-1.7872,4.0016,-3.0822,-0.3752,-1.3674,-0.9220,43.6875,9.2438,0.4500,
12.292315,-3.2543,3.3188,-6.3985,-0.3752,-1.3674,-0.9220,43.6875,9.2438,0.4500,
12.310751,-3.2543,3.3188,-6.3985,-0.3752,-1.3674,-0.9220,43.6875,9.2438,0.4500,
12.349115,-3.2543,3.3188,-6.3985,-0.3752,-1.3674,-0.9220,43.3313,10.6125,-2.4188,
12.351767,0.1851,-2.3029,2.3691,-0.3752,-1.3674,-0.9220,43.3313,10.6125,-2.4188,
12.353946,0.1851,-2.3029,2.3691,0.5840,1.2770,1.1036,43.3313,10.6125,-2.4188,
12.372001,0.1851,-2.3029,2.3691,0.5840,1.2770,1.1036,43.3313,10.6125,-2.4188,
12.408803,0.1851,-2.3029,2.3691,0.5840,1.2770,1.1036,43.1813,11.6250,-5.0438,
12.411910,0.1851,-2.3029,2.3691,0.5911,1.4520,0.1650,43.1813,11.6250,-5.0438,
12.413237,1.6247,-0.4383,-0.8080,0.5911,1.4520,0.1650,43.1813,11.6250,-5.0438,
12.432291,1.6247,-0.4383,-0.8080,0.5911,1.4520,0.1650,43.1813,11.6250,-5.0438,
12.470426,1.6247,-0.4383,-0.8080,0.5911,1.4520,0.1650,43.2188,12.7500,-7.2188,
12.473285,1.6247,-0.4383,-0.8080,0.7061,1.5436,0.5204,43.2188,12.7500,-7.2188,
12.475593,-0.0972,0.0062,0.2140,0.7061,1.5436,0.5204,43.2188,12.7500,-7.2188,
12.494964,-0.0972,0.0062,0.2140,0.7061,1.5436,0.5204,43.2188,12.7500,-7.2188,
12.530673,-0.0972,0.0062,0.2140,0.7061,1.5436,0.5204,43.4438,13.4625,-8.7938,
12.537835,-0.0972,0.0062,0.2140,0.4999,0.9595,0.4011,43.4438,13.4625,-8.7938,
12.555238,-0.0972,0.0062,0.2140,0.4999,0.9595,0.4011,43.4438,13.4625,-8.7938,
12.556911,-0.5158,0.2958,-0.9196,0.4999,0.9595,0.4011,43.4438,13.4625,-8.7938,
12.590244,-0.5158,0.2958,-0.9196,0.4999,0.9595,0.4011,43.5938,13.4063,-8.5312,
12.594890,-0.5158,0.2958,-0.9196,0.4854,1.7942,0.2144,43.5938,13.4063,-8.5312,
12.616292,-0.5158,0.2958,-0.9196,0.4854,1.7942,0.2144,43.5938,13.4063,-8.5312,
12.617531,-0.0760,0.0493,0.0979,0.4854,1.7942,0.2144,43.5938,13.4063,-8.5312,
12.649683,-0.0760,0.0493,0.0979,0.4854,1.7942,0.2144,43.9313,12.3563,-5.4188,
12.659068,-0.0760,0.0493,0.0979,0.6071,2.8706,0.1778,43.9313,12.3563,-5.4188,
12.677033,-0.0760,0.0493,0.0979,0.6071,2.8706,0.1778,43.9313,12.3563,-5.4188,
12.678318,0.0972,-0.0871,0.2140,0.6071,2.8706,0.1778,43.9313,12.3563,-5.4188,
12.709559,0.0972,-0.0871,0.2140,0.6071,2.8706,0.1778,44.2125,11.4375,-1.4250,
12.720268,0.0972,-0.0871,0.2140,0.5429,1.5291,0.1782,44.2125,11.4375,-1.4250,
12.738525,0.0972,-0.0871,0.2140,0.5429,1.5291,0.1782,44.2125,11.4375,-1.4250,
12.758449,-1.2853,-0.2379,2.0457,0.5429,1.5291,0.1782,44.2125,11.4375,-1.4250,
12.769930,-1.2853,-0.2379,2.0457,0.5429,1.5291,0.1782,44.2125,10.5938,2.4750,
12.777944,-1.2853,-0.2379,2.0457,0.5585,0.4665,0.4782,44.2125,10.5938,2.4750,
12.799343,-1.2853,-0.2379,2.0457,0.5585,0.4665,0.4782,44.2125,10.5938,2.4750,
12.820598,-1.0099,0.4343,1.8220,0.5585,0.4665,0.4782,44.2125,10.5938,2.4750,
12.829778,-1.0099,0.4343,1.8220,0.5585,0.4665,0.4782,44.4188,9.8438,6.1875,
12.839807,-1.0099,0.4343,1.8220,0.5461,-0.1129,0.4252,44.4188,9.8438,6.1875,
12.861484,-1.0099,0.4343,1.8220,0.5461,-0.1129,0.4252,44.4188,9.8438,6.1875,
12.880412,0.4368,-0.0104,-0.2118,0.5461,-0.1129,0.4252,44.4188,9.8438,6.1875,
12.889890,0.4368,-0.0104,-0.2118,0.5461,-0.1129,0.4252,44.5125,9.2812,9.6375,
12.899672,0.4368,-0.0104,-0.2118,0.3987,-0.4320,0.4057,44.5125,9.2812,9.6375,
12.920931,0.4368,-0.0104,-0.2118,0.3987,-0.4320,0.4057,44.5125,9.2812,9.6375,
12.940972,1.0951,0.2356,-1.0710,0.3987,-0.4320,0.4057,44.5125,9.2812,9.6375,
12.949071,1.0951,0.2356,-1.0710,0.3987,-0.4320,0.4057,44.5688,8.8125,11.9813,
12.960958,1.0951,0.2356,-1.0710,-0.0518,-0.8626,0.1622,44.5688,8.8125,11.9813,
12.981658,1.0951,0.2356,-1.0710,-0.0518,-0.8626,0.1622,44.5688,8.8125,11.9813,
13.012368,1.0951,0.2356,-1.0710,-0.0518,-0.8626,0.1622,44.5688,8.5500,13.7250,
13.021854,1.0951,0.2356,-1.0710,0.2461,0.3856,0.6205,44.5688,8.5500,13.7250,
13.023741,1.7964,0.0128,-2.7685,0.2461,0.3856,0.6205,44.5688,8.5500,13.7250,
13.042717,1.7964,0.0128,-2.7685,0.2461,0.3856,0.6205,44.5688,8.5500,13.7250,
13.069613,1.7964,0.0128,-2.7685,0.2461,0.3856,0.6205,44.4188,8.0625,14.9625,
13.083064,-0.6078,0.4444,-1.5840,0.2461,0.3856,0.6205,44.4188,8.0625,14.9625,
13.084697,-0.6078,0.4444,-1.5840,0.0562,-0.3184,0.3678,44.4188,8.0625,14.9625,
13.104199,-0.6078,0.4444,-1.5840,0.0562,-0.3184,0.3678,44.4188,8.0625,14.9625,
13.129938,-0.6078,0.4444,-1.5840,0.0562,-0.3184,0.3678,44.5500,7.6500,15.1125,
13.144230,-0.6078,0.4444,-1.5840,-0.2489,-0.2250,-0.0104,44.5500,7.6500,15.1125,
13.146289,-0.5680,-0.5805,1.0344,-0.2489,-0.2250,-0.0104,44.5500,7.6500,15.1125,
13.165084,-0.5680,-0.5805,1.0344,-0.2489,-0.2250,-0.0104,44.5500,7.6500,15.1125,
13.190416,-0.5680,-0.5805,1.0344,-0.2489,-0.2250,-0.0104,44.8313,7.1250,14.5125,
13.204932,1.0008,-0.6071,1.0941,-0.2489,-0.2250,-0.0104,44.8313,7.1250,14.5125,
13.207558,1.0008,-0.6071,1.0941,-0.1597,0.0079,-0.0089,44.8313,7.1250,14.5125,
13.225251,1.0008,-0.6071,1.0941,-0.1597,0.0079,-0.0089,44.8313,7.1250,14.5125,
13.249676,1.0008,-0.6071,1.0941,-0.1597,0.0079,-0.0089,45.1688,6.5625,13.8375,
13.267764,1.0008,-0.6071,1.0941,-0.0848,-0.0177,-0.0136,45.1688,6.5625,13.8375,
13.286735,1.0008,-0.6071,1.0941,-0.0848,-0.0177,-0.0136,45.1688,6.5625,13.8375,
13.288674,-0.8485,0.2177,-0.3638,-0.0848,-0.0177,-0.0136,45.1688,6.5625,13.8375,
13.308889,-0.8485,0.2177,-0.3638,-0.0848,-0.0177,-0.0136,45.4875,6.1500,12.9938,
13.326579,-0.8485,0.2177,-0.3638,-0.0738,-0.0252,0.0585,45.4875,6.1500,12.9938,
13.346570,-0.8485,0.2177,-0.3638,-0.0738,-0.0252,0.0585,45.4875,6.1500,12.9938,
13.349490,0.3080,-0.1556,0.4219,-0.0738,-0.0252,0.0585,45.4875,6.1500,12.9938,
13.370551,0.3080,-0.1556,0.4219,-0.0738,-0.0252,0.0585,45.6750,5.6063,12.3563,
13.388136,0.3080,-0.1556,0.4219,0.0083,0.0192,0.2210,45.6750,5.6063,12.3563,
13.409149,0.3080,-0.1556,0.4219,0.0083,0.0192,0.2210,45.6750,5.6063,12.3563,
13.411852,0.2507,-0.0963,0.1836,0.0083,0.0192,0.2210,45.6750,5.6063,12.3563,
13.429945,0.2507,-0.0963,0.1836,0.0083,0.0192,0.2210,45.8625,5.0063,12.1688,
13.448847,0.2507,-0.0963,0.1836,0.0445,0.0526,0.2523,45.8625,5.0063,12.1688,
13.470237,0.2507,-0.0963,0.1836,0.0445,0.0526,0.2523,45.8625,5.0063,12.1688,
13.490557,0.1465,-0.0913,0.1419,0.0445,0.0526,0.2523,45.8625,5.0063,12.1688,
13.492141,0.1465,-0.0913,0.1419,0.0445,0.0526,0.2523,46.0312,4.3688,12.1313,
13.510115,0.1465,-0.0913,0.1419,0.0455,0.0912,0.1746,46.0312,4.3688,12.1313,
13.531129,0.1465,-0.0913,0.1419,0.0455,0.0912,0.1746,46.0312,4.3688,12.1313,
13.550128,0.1465,-0.0913,0.1419,0.0455,0.0912,0.1746,46.2000,4.0125,12.1688,
13.551756,-0.0861,0.0383,0.0543,0.0455,0.0912,0.1746,46.2000,4.0125,12.1688,
13.570810,-0.0861,0.0383,0.0543,-0.0731,-0.0103,-0.0200,46.2000,4.0125,12.1688,
13.591023,-0.0861,0.0383,0.0543,-0.0731,-0.0103,-0.0200,46.2000,4.0125,12.1688,
13.610730,-0.0861,0.0383,0.0543,-0.0731,-0.0103,-0.0200,46.1813,3.7125,12.1125,
13.613467,-0.3746,0.1747,0.2339,-0.0731,-0.0103,-0.0200,46.1813,3.7125,12.1125,
13.631133,-0.3746,0.1747,0.2339,-0.1366,-0.0522,-0.1119,46.1813,3.7125,12.1125,
13.651451,-0.3746,0.1747,0.2339,-0.1366,-0.0522,-0.1119,46.1813,3.7125,12.1125,
13.669746,-0.3746,0.1747,0.2339,-0.1366,-0.0522,-0.1119,46.2375,3.5625,12.1500,
13.673396,-0.1447,0.0497,0.2018,-0.1366,-0.0522,-0.1119,46.2375,3.5625,12.1500,
13.692410,-0.1447,0.0497,0.2018,-0.1111,-0.0316,-0.0980,46.2375,3.5625,12.1500,
13.714286,-0.1447,0.0497,0.2018,-0.1111,-0.0316,-0.0980,46.2375,3.5625,12.1500,
13.730873,-0.1447,0.0497,0.2018,-0.1111,-0.0316,-0.0980,46.3125,3.3750,12.0750,
13.753375,-0.1447,0.0497,0.2018,-0.0784,-0.0205,-0.0328,46.3125,3.3750,12.0750,
13.756663,-0.0438,-0.0221,0.1054,-0.0784,-0.0205,-0.0328,46.3125,3.3750,12.0750,
13.773357,-0.0438,-0.0221,0.1054,-0.0784,-0.0205,-0.0328,46.3125,3.3750,12.0750,
13.789157,-0.0438,-0.0221,0.1054,-0.0784,-0.0205,-0.0328,46.2938,3.1875,12.1125,
13.812829,-0.0438,-0.0221,0.1054,-0.0539,-0.0173,0.0173,46.2938,3.1875,12.1125,
13.814196,0.0417,-0.0141,0.1161,-0.0539,-0.0173,0.0173,46.2938,3.1875,12.1125,
13.833577,0.0417,-0.0141,0.1161,-0.0539,-0.0173,0.0173,46.2938,3.1875,12.1125,
13.849361,0.0417,-0.0141,0.1161,-0.0539,-0.0173,0.0173,46.2188,3.1313,12.0375,
13.875325,0.0417,-0.0141,0.1161,-0.0301,-0.0056,0.0329,46.2188,3.1313,12.0375,
13.879423,0.0377,-0.0328,0.0756,-0.0301,-0.0056,0.0329,46.2188,3.1313,12.0375,
13.895721,0.0377,-0.0328,0.0756,-0.0301,-0.0056,0.0329,46.2188,3.1313,12.0375,
13.909270,0.0377,-0.0328,0.0756,-0.0301,-0.0056,0.0329,46.2563,3.0938,11.9813,
13.935499,0.0377,-0.0328,0.0756,-0.0134,0.0242,0.0350,46.2563,3.0938,11.9813,
13.955825,0.0377,-0.0328,0.0756,-0.0134,0.0242,0.0350,46.2563,3.0938,11.9813,
13.957402,0.0084,-0.0136,0.0399,-0.0134,0.0242,0.0350,46.2563,3.0938,11.9813,
13.969478,0.0084,-0.0136,0.0399,-0.0134,0.0242,0.0350,46.1625,3.0375,11.7750,
13.997705,0.0084,-0.0136,0.0399,-0.0475,-0.0113,-0.0377,46.1625,3.0375,11.7750,
14.017272,0.0084,-0.0136,0.0399,-0.0475,-0.0113,-0.0377,46.1625,3.0375,11.7750,
14.019659,-0.0759,0.0288,0.0701,-0.0475,-0.0113,-0.0377,46.1625,3.0375,11.7750,
14.030120,-0.0759,0.0288,0.0701,-0.0475,-0.0113,-0.0377,46.2938,3.2063,11.7375,
14.057953,-0.0759,0.0288,0.0701,-0.0831,-0.0330,-0.0977,46.2938,3.2063,11.7375,
14.078646,-0.0759,0.0288,0.0701,-0.0831,-0.0330,-0.0977,46.2938,3.2063,11.7375,
14.080903,-0.1685,0.0589,0.0776,-0.0831,-0.0330,-0.0977,46.2938,3.2063,11.7375,
14.090149,-0.1685,0.0589,0.0776,-0.0831,-0.0330,-0.0977,46.3875,3.3750,11.7375,
14.118389,-0.1685,0.0589,0.0776,-0.0876,-0.0714,-0.1246,46.3875,3.3750,11.7375,
14.140264,-0.1685,0.0589,0.0776,-0.0876,-0.0714,-0.1246,46.3875,3.3750,11.7375,
14.141926,-0.1574,0.0526,0.0585,-0.0876,-0.0714,-0.1246,46.3875,3.3750,11.7375,
14.149064,-0.1574,0.0526,0.0585,-0.0876,-0.0714,-0.1246,46.3688,3.6188,11.7000,
14.180653,-0.1574,0.0526,0.0585,-0.0394,0.0083,-0.0746,46.3688,3.6188,11.7000,
14.199329,-0.1574,0.0526,0.0585,-0.0394,0.0083,-0.0746,46.3688,3.6188,11.7000,
14.209938,-0.1574,0.0526,0.0585,-0.0394,0.0083,-0.0746,46.3688,3.7688,11.7188,
14.219574,0.0677,-0.0393,0.0264,-0.0394,0.0083,-0.0746,46.3688,3.7688,11.7188,
14.240384,0.0677,-0.0393,0.0264,-0.0245,0.0117,-0.0494,46.3688,3.7688,11.7188,
14.262749,0.0677,-0.0393,0.0264,-0.0245,0.0117,-0.0494,46.3688,3.7688,11.7188,
14.268003,0.0677,-0.0393,0.0264,-0.0245,0.0117,-0.0494,46.3500,3.6938,11.7188,
14.280810,0.0027,-0.0106,0.0548,-0.0245,0.0117,-0.0494,46.3500,3.6938,11.7188,
14.301693,0.0027,-0.0106,0.0548,0.0015,0.0409,-0.0115,46.3500,3.6938,11.7188,
14.322519,0.0027,-0.0106,0.0548,0.0015,0.0409,-0.0115,46.3500,3.6938,11.7188,
14.332057,0.0027,-0.0106,0.0548,0.0015,0.0409,-0.0115,46.5000,3.7313,11.8313,
14.341421,0.0426,-0.0294,0.0187,0.0015,0.0409,-0.0115,46.5000,3.7313,11.8313,
14.364401,0.0426,-0.0294,0.0187,-0.0011,0.0298,-0.0164,46.5000,3.7313,11.8313,
14.382902,0.0426,-0.0294,0.0187,-0.0011,0.0298,-0.0164,46.5000,3.7313,11.8313,
14.389087,0.0426,-0.0294,0.0187,-0.0011,0.0298,-0.0164,46.4625,3.8063,11.7938,
14.423498,-0.0420,0.0195,0.0342,-0.0011,0.0298,-0.0164,46.4625,3.8063,11.7938,
14.425452,-0.0420,0.0195,0.0342,-0.0224,-0.0035,-0.0430,46.4625,3.8063,11.7938,
14.445487,-0.0420,0.0195,0.0342,-0.0224,-0.0035,-0.0430,46.4625,3.8063,11.7938,
14.449285,-0.0420,0.0195,0.0342,-0.0224,-0.0035,-0.0430,46.5938,4.0688,11.8875,
14.485929,-0.0420,0.0195,0.0342,-0.0258,-0.0226,-0.0586,46.5938,4.0688,11.8875,
14.488073,-0.0757,0.0175,0.0314,-0.0258,-0.0226,-0.0586,46.5938,4.0688,11.8875,
14.506457,-0.0757,0.0175,0.0314,-0.0258,-0.0226,-0.0586,46.5938,4.0688,11.8875,
14.510200,-0.0757,0.0175,0.0314,-0.0258,-0.0226,-0.0586,46.4813,4.0875,11.8875,
14.544967,-0.0757,0.0175,0.0314,-0.0341,-0.0320,-0.0728,46.4813,4.0875,11.8875,
14.547270,-0.0393,0.0084,0.0154,-0.0341,-0.0320,-0.0728,46.4813,4.0875,11.8875,
14.564794,-0.0393,0.0084,0.0154,-0.0341,-0.0320,-0.0728,46.4813,4.0875,11.8875,
14.569068,-0.0393,0.0084,0.0154,-0.0341,-0.0320,-0.0728,46.5188,4.1625,12.0000,
14.608221,-0.0393,0.0084,0.0154,-0.0348,-0.0362,-0.0754,46.5188,4.1625,12.0000,
14.612655,-0.0442,0.0192,0.0489,-0.0348,-0.0362,-0.0754,46.5188,4.1625,12.0000,
14.626284,-0.0442,0.0192,0.0489,-0.0348,-0.0362,-0.0754,46.5188,4.1625,12.0000,
14.628567,-0.0442,0.0192,0.0489,-0.0348,-0.0362,-0.0754,46.4813,4.0875,11.9625,
14.666692,-0.0442,0.0192,0.0489,-0.0071,-0.0077,-0.0473,46.4813,4.0875,11.9625,
14.687421,-0.0442,0.0192,0.0489,-0.0071,-0.0077,-0.0473,46.4813,4.0875,11.9625,
14.689000,0.0320,-0.0098,0.0162,-0.0071,-0.0077,-0.0473,46.4813,4.0875,11.9625,
14.689811,0.0320,-0.0098,0.0162,-0.0071,-0.0077,-0.0473,46.4625,4.2000,11.9625,
14.730561,0.0320,-0.0098,0.0162,0.0004,-0.0053,-0.0362,46.4625,4.2000,11.9625,
14.748172,0.0320,-0.0098,0.0162,0.0004,-0.0053,-0.0362,46.4250,4.3875,12.1500,
14.750215,0.0320,-0.0098,0.0162,0.0004,-0.0053,-0.0362,46.4250,4.3875,12.1500,
14.751131,0.0380,-0.0122,-0.0020,0.0004,-0.0053,-0.0362,46.4250,4.3875,12.1500,
14.791048,0.0380,-0.0122,-0.0020,0.0047,-0.0056,-0.0328,46.4250,4.3875,12.1500,
14.810536,0.0380,-0.0122,-0.0020,0.0047,-0.0056,-0.0328,46.4250,4.3875,12.1500,
14.812345,0.0380,-0.0122,-0.0020,0.0047,-0.0056,-0.0328,46.4062,4.5188,12.2063,
14.813427,0.0102,-0.0097,0.0158,0.0047,-0.0056,-0.0328,46.4062,4.5188,12.2063,
14.849936,0.0102,-0.0097,0.0158,0.0210,0.0125,-0.0132,46.4062,4.5188,12.2063,
14.870279,0.0102,-0.0097,0.0158,0.0210,0.0125,-0.0132,46.3500,4.6688,12.2063,
14.872051,0.0102,-0.0097,0.0158,0.0210,0.0125,-0.0132,46.3500,4.6688,12.2063,
14.890596,0.0278,-0.0096,-0.0120,0.0210,0.0125,-0.0132,46.3500,4.6688,12.2063,
14.911150,0.0278,-0.0096,-0.0120,0.0142,0.0047,-0.0128,46.3500,4.6688,12.2063,
14.930830,0.0278,-0.0096,-0.0120,0.0142,0.0047,-0.0128,46.3875,4.7625,12.2063,
14.933532,0.0278,-0.0096,-0.0120,0.0142,0.0047,-0.0128,46.3875,4.7625,12.2063,
14.951168,0.0092,0.0059,0.0124,0.0142,0.0047,-0.0128,46.3875,4.7625,12.2063,
14.972556,0.0092,0.0059,0.0124,0.0089,-0.0007,-0.0206,46.3875,4.7625,12.2063,
14.989501,0.0092,0.0059,0.0124,0.0089,-0.0007,-0.0206,46.4438,4.8563,12.1125,
14.992183,0.0092,0.0059,0.0124,0.0089,-0.0007,-0.0206,46.4438,4.8563,12.1125,
15.012196,-0.0199,0.0147,-0.0018,0.0089,-0.0007,-0.0206,46.4438,4.8563,12.1125,
15.031941,-0.0199,0.0147,-0.0018,0.0128,0.0104,-0.0128,46.4438,4.8563,12.1125,
15.050320,-0.0199,0.0147,-0.0018,0.0128,0.0104,-0.0128,46.5188,4.9875,12.0000,
15.052087,-0.0199,0.0147,-0.0018,0.0128,0.0104,-0.0128,46.5188,4.9875,12.0000,
15.072805,0.0113,0.0041,0.0016,0.0128,0.0104,-0.0128,46.5188,4.9875,12.0000,
15.094272,0.0113,0.0041,0.0016,0.0051,0.0068,-0.0064,46.5188,4.9875,12.0000,
15.109740,0.0113,0.0041,0.0016,0.0051,0.0068,-0.0064,46.4438,5.0625,12.0938,
15.112036,0.0113,0.0041,0.0016,0.0051,0.0068,-0.0064,46.4438,5.0625,12.0938,
15.155986,0.0113,0.0041,0.0016,-0.0007,0.0029,-0.0032,46.4438,5.0625,12.0938,
15.158404,0.0184,-0.0031,0.0183,-0.0007,0.0029,-0.0032,46.4438,5.0625,12.0938,
15.169141,0.0184,-0.0031,0.0183,-0.0007,0.0029,-0.0032,46.5000,5.0250,12.0938,
15.173564,0.0184,-0.0031,0.0183,-0.0007,0.0029,-0.0032,46.5000,5.0250,12.0938,
15.216626,0.0128,-0.0074,0.0131,-0.0007,0.0029,-0.0032,46.5000,5.0250,12.0938,
15.218878,0.0128,-0.0074,0.0131,0.0021,0.0051,0.0053,46.5000,5.0250,12.0938,
15.230557,0.0128,-0.0074,0.0131,0.0021,0.0051,0.0053,46.5000,5.0625,11.9250,
15.234230,0.0128,-0.0074,0.0131,0.0021,0.0051,0.0053,46.5000,5.0625,11.9250,
15.277503,0.0128,-0.0074,0.0131,0.0032,0.0008,0.0096,46.5000,5.0625,11.9250,
15.281258,0.0177,-0.0094,0.0063,0.0032,0.0008,0.0096,46.5000,5.0625,11.9250,
15.289758,0.0177,-0.0094,0.0063,0.0032,0.0008,0.0096,46.4813,5.0625,11.8125,
15.296017,0.0177,-0.0094,0.0063,0.0032,0.0008,0.0096,46.4813,5.0625,11.8125,
15.339005,0.0177,-0.0094,0.0063,0.0015,-0.0049,0.0075,46.4813,5.0625,11.8125,
15.349666,0.0177,-0.0094,0.0063,0.0015,-0.0049,0.0075,46.5563,5.1188,11.8313,
15.360642,0.0177,-0.0094,0.0063,0.0015,-0.0049,0.0075,46.5563,5.1188,11.8313,
15.362358,0.0150,-0.0019,0.0167,0.0015,-0.0049,0.0075,46.5563,5.1188,11.8313,
15.400848,0.0150,-0.0019,0.0167,0.0000,-0.0077,0.0043,46.5563,5.1188,11.8313,
15.411088,0.0150,-0.0019,0.0167,0.0000,-0.0077,0.0043,46.4250,5.0063,12.0188,
15.418482,0.0085,-0.0070,-0.0082,0.0000,-0.0077,0.0043,46.4250,5.0063,12.0188,
15.419852,0.0085,-0.0070,-0.0082,0.0000,-0.0077,0.0043,46.4250,5.0063,12.0188,
15.459103,0.0085,-0.0070,-0.0082,-0.0021,-0.0064,-0.0000,46.4250,5.0063,12.0188,
15.468913,0.0085,-0.0070,-0.0082,-0.0021,-0.0064,-0.0000,46.4250,5.1938,12.1125,
15.479049,0.0085,-0.0070,-0.0082,-0.0021,-0.0064,-0.0000,46.4250,5.1938,12.1125,
15.480328,0.0030,0.0014,0.0075,-0.0021,-0.0064,-0.0000,46.4250,5.1938,12.1125,
15.519248,0.0030,0.0014,0.0075,-0.0056,-0.0109,-0.0057,46.4250,5.1938,12.1125,
15.530140,0.0030,0.0014,0.0075,-0.0056,-0.0109,-0.0057,46.3688,5.1562,12.2250,
15.539858,0.0030,0.0014,0.0075,-0.0056,-0.0109,-0.0057,46.3688,5.1562,12.2250,
15.541661,-0.0133,0.0035,0.0089,-0.0056,-0.0109,-0.0057,46.3688,5.1562,12.2250,
15.580903,-0.0133,0.0035,0.0089,0.0000,-0.0071,0.0003,46.3688,5.1562,12.2250,
15.590617,-0.0133,0.0035,0.0089,0.0000,-0.0071,0.0003,46.5188,5.3250,12.2063,
15.599110,-0.0133,0.0035,0.0089,0.0000,-0.0071,0.0003,46.5188,5.3250,12.2063,
15.621018,0.0222,-0.0004,0.0095,0.0000,-0.0071,0.0003,46.5188,5.3250,12.2063,
15.641684,0.0222,-0.0004,0.0095,0.0064,-0.0021,0.0060,46.5188,5.3250,12.2063,
15.649295,0.0222,-0.0004,0.0095,0.0064,-0.0021,0.0060,46.3688,5.3813,11.9813,
15.662885,0.0222,-0.0004,0.0095,0.0064,-0.0021,0.0060,46.3688,5.3813,11.9813,
15.681828,0.0099,-0.0112,-0.0097,0.0064,-0.0021,0.0060,46.3688,5.3813,11.9813,
15.702386,0.0099,-0.0112,-0.0097,0.0083,-0.0032,0.0075,46.3688,5.3813,11.9813,
15.711647,0.0099,-0.0112,-0.0097,0.0083,-0.0032,0.0075,46.3500,5.4188,11.9250,
15.721870,0.0099,-0.0112,-0.0097,0.0083,-0.0032,0.0075,46.3500,5.4188,11.9250,
15.742530,-0.0005,0.0048,0.0015,0.0083,-0.0032,0.0075,46.3500,5.4188,11.9250,
15.762803,-0.0005,0.0048,0.0015,0.0032,-0.0056,0.0096,46.3500,5.4188,11.9250,
15.771118,-0.0005,0.0048,0.0015,0.0032,-0.0056,0.0096,46.2938,5.4563,11.7375,
15.783120,-0.0005,0.0048,0.0015,0.0032,-0.0056,0.0096,46.2938,5.4563,11.7375,
15.825211,-0.0005,0.0048,0.0015,0.0021,-0.0043,0.0160,46.2938,5.4563,11.7375,
15.827272,-0.0005,0.0012,0.0165,0.0021,-0.0043,0.0160,46.2938,5.4563,11.7375,
15.830518,-0.0005,0.0012,0.0165,0.0021,-0.0043,0.0160,46.2938,5.4188,11.5875,
15.843852,-0.0005,0.0012,0.0165,0.0021,-0.0043,0.0160,46.2938,5.4188,11.5875,
15.884558,-0.0005,0.0012,0.0165,0.0029,-0.0017,0.0220,46.2938,5.4188,11.5875,
15.886246,0.0276,-0.0016,0.0094,0.0029,-0.0017,0.0220,46.2938,5.4188,11.5875,
15.888416,0.0276,-0.0016,0.0094,0.0029,-0.0017,0.0220,46.3313,5.5125,11.3250,
15.906179,0.0276,-0.0016,0.0094,0.0029,-0.0017,0.0220,46.3313,5.5125,11.3250,
15.946965,0.0276,-0.0016,0.0094,0.0053,0.0015,0.0237,46.3313,5.5125,11.3250,
15.950287,0.0092,-0.0097,-0.0018,0.0053,0.0015,0.0237,46.3313,5.5125,11.3250,
15.952509,0.0092,-0.0097,-0.0018,0.0053,0.0015,0.0237,46.4062,5.3625,11.2500,
15.966349,0.0092,-0.0097,-0.0018,0.0053,0.0015,0.0237,46.4062,5.3625,11.2500,
16.007874,0.0092,-0.0097,-0.0018,0.0043,0.0021,0.0145,46.4062,5.3625,11.2500,
16.010886,0.0074,-0.0041,-0.0086,0.0043,0.0021,0.0145,46.4062,5.3625,11.2500,
16.012730,0.0074,-0.0041,-0.0086,0.0043,0.0021,0.0145,46.5188,5.2500,11.2313,
16.027518,0.0074,-0.0041,-0.0086,0.0043,0.0021,0.0145,46.5188,5.2500,11.2313,
16.068692,0.0074,-0.0041,-0.0086,-0.0049,-0.0039,-0.0011,46.5188,5.2500,11.2313,
16.072714,0.0074,-0.0041,-0.0086,-0.0049,-0.0039,-0.0011,46.5375,5.0625,11.1938,
16.088491,0.0074,-0.0041,-0.0086,-0.0049,-0.0039,-0.0011,46.5375,5.0625,11.1938,
16.089925,-0.0179,0.0129,0.0048,-0.0049,-0.0039,-0.0011,46.5375,5.0625,11.1938,
16.129821,-0.0179,0.0129,0.0048,-0.0124,-0.0130,-0.0121,46.5375,5.0625,11.1938,
16.132372,-0.0179,0.0129,0.0048,-0.0124,-0.0130,-0.0121,46.6500,5.0063,11.4188,
16.150603,-0.0179,0.0129,0.0048,-0.0124,-0.0130,-0.0121,46.6500,5.0063,11.4188,
16.153110,-0.0279,0.0013,0.0099,-0.0124,-0.0130,-0.0121,46.6500,5.0063,11.4188,
16.190319,-0.0279,0.0013,0.0099,-0.0096,-0.0085,-0.0047,46.6500,5.0063,11.4188,
16.191998,-0.0279,0.0013,0.0099,-0.0096,-0.0085,-0.0047,46.7250,4.8188,11.4188,
16.211957,-0.0279,0.0013,0.0099,-0.0096,-0.0085,-0.0047,46.7250,4.8188,11.4188,
16.214324,0.0066,-0.0091,0.0096,-0.0096,-0.0085,-0.0047,46.7250,4.8188,11.4188,
16.250912,0.0066,-0.0091,0.0096,-0.0049,-0.0039,0.0028,46.7250,4.8188,11.4188,
16.252855,0.0066,-0.0091,0.0096,-0.0049,-0.0039,0.0028,46.6875,4.6875,11.5875,
16.271220,0.0066,-0.0091,0.0096,-0.0049,-0.0039,0.0028,46.6875,4.6875,11.5875,
16.292173,0.0174,-0.0068,0.0056,-0.0049,-0.0039,0.0028,46.6875,4.6875,11.5875,
16.310610,0.0174,-0.0068,0.0056,0.0000,0.0040,0.0117,46.6875,4.6875,11.5875,
16.312974,0.0174,-0.0068,0.0056,0.0000,0.0040,0.0117,46.6313,4.5188,11.7563,
16.330644,0.0174,-0.0068,0.0056,0.0000,0.0040,0.0117,46.6313,4.5188,11.7563,
16.351611,0.0158,-0.0119,0.0047,0.0000,0.0040,0.0117,46.6313,4.5188,11.7563,
16.369743,0.0158,-0.0119,0.0047,0.0000,0.0040,0.0117,46.6125,4.4438,11.8500,
16.372875,0.0158,-0.0119,0.0047,-0.0064,-0.0024,0.0049,46.6125,4.4438,11.8500,
16.392087,0.0158,-0.0119,0.0047,-0.0064,-0.0024,0.0049,46.6125,4.4438,11.8500,
16.414420,-0.0177,0.0057,0.0081,-0.0064,-0.0024,0.0049,46.6125,4.4438,11.8500,
16.434380,-0.0177,0.0057,0.0081,-0.0064,-0.0024,0.0049,46.3688,4.3500,11.8125,
16.436700,-0.0177,0.0057,0.0081,-0.0085,-0.0045,0.0035,46.3688,4.3500,11.8125,
16.454433,-0.0177,0.0057,0.0081,-0.0085,-0.0045,0.0035,46.3688,4.3500,11.8125,
16.473324,-0.0055,-0.0035,0.0078,-0.0085,-0.0045,0.0035,46.3688,4.3500,11.8125,
16.488924,-0.0055,-0.0035,0.0078,-0.0085,-0.0045,0.0035,46.2750,4.4813,11.8500,
16.492586,-0.0055,-0.0035,0.0078,-0.0007,-0.0007,0.0128,46.2750,4.4813,11.8500,
16.514775,-0.0055,-0.0035,0.0078,-0.0007,-0.0007,0.0128,46.2750,4.4813,11.8500,
16.551871,-0.0055,-0.0035,0.0078,-0.0007,-0.0007,0.0128,46.2375,4.6125,11.7938,
16.555657,-0.0055,-0.0035,0.0078,0.0072,0.0019,0.0205,46.2375,4.6125,11.7938,
16.556774,0.0365,-0.0106,-0.0095,0.0072,0.0019,0.0205,46.2375,4.6125,11.7938,
16.574928,0.0365,-0.0106,-0.0095,0.0072,0.0019,0.0205,46.2375,4.6125,11.7938,
16.611303,0.0365,-0.0106,-0.0095,0.0072,0.0019,0.0205,46.2563,4.5938,11.7375,
16.617136,0.0141,0.0044,-0.0046,0.0072,0.0019,0.0205,46.2563,4.5938,11.7375,
16.619401,0.0141,0.0044,-0.0046,0.0083,-0.0013,0.0152,46.2563,4.5938,11.7375,
16.635943,0.0141,0.0044,-0.0046,0.0083,-0.0013,0.0152,46.2563,4.5938,11.7375,
16.672380,0.0141,0.0044,-0.0046,0.0083,-0.0013,0.0152,46.2563,4.6875,11.7750,
16.678837,0.0141,0.0044,-0.0046,0.0104,-0.0032,0.0077,46.2563,4.6875,11.7750,
16.680433,-0.0077,0.0034,-0.0112,0.0104,-0.0032,0.0077,46.2563,4.6875,11.7750,
16.697224,-0.0077,0.0034,-0.0112,0.0104,-0.0032,0.0077,46.2563,4.6875,11.7750,
16.732119,-0.0077,0.0034,-0.0112,0.0104,-0.0032,0.0077,46.4250,4.7812,11.7375,
16.739575,-0.0077,0.0034,-0.0112,0.0128,-0.0045,0.0071,46.4250,4.7812,11.7375,
16.758669,-0.0077,0.0034,-0.0112,0.0128,-0.0045,0.0071,46.4250,4.7812,11.7375,
16.760258,-0.0035,0.0089,-0.0100,0.0128,-0.0045,0.0071,46.4250,4.7812,11.7375,
16.788164,-0.0035,0.0089,-0.0100,0.0128,-0.0045,0.0071,46.4625,4.9125,11.5125,
16.798661,-0.0035,0.0089,-0.0100,0.0206,0.0015,0.0130,46.4625,4.9125,11.5125,
16.820029,-0.0035,0.0089,-0.0100,0.0206,0.0015,0.0130,46.4625,4.9125,11.5125,
16.822040,0.0240,-0.0124,-0.0151,0.0206,0.0015,0.0130,46.4625,4.9125,11.5125,
16.850416,0.0240,-0.0124,-0.0151,0.0206,0.0015,0.0130,46.4062,4.9313,11.3813,
16.858496,0.0240,-0.0124,-0.0151,0.0232,0.0019,0.0092,46.4062,4.9313,11.3813,
16.882592,0.0240,-0.0124,-0.0151,0.0232,0.0019,0.0092,46.4062,4.9313,11.3813,
16.885474,-0.0078,-0.0003,-0.0154,0.0232,0.0019,0.0092,46.4062,4.9313,11.3813,
16.910363,-0.0078,-0.0003,-0.0154,0.0232,0.0019,0.0092,46.4438,5.0063,11.4188,
16.919653,-0.0078,-0.0003,-0.0154,0.0334,0.0320,0.0088,46.4438,5.0063,11.4188,
16.939910,-0.0078,-0.0003,-0.0154,0.0334,0.0320,0.0088,46.4438,5.0063,11.4188,
16.942186,0.0006,0.0302,-0.0116,0.0334,0.0320,0.0088,46.4438,5.0063,11.4188,
16.969749,0.0006,0.0302,-0.0116,0.0334,0.0320,0.0088,46.4062,4.9875,11.3813,
16.980963,0.0006,0.0302,-0.0116,0.0473,0.0842,-0.0019,46.4062,4.9875,11.3813,
17.001168,0.0006,0.0302,-0.0116,0.0473,0.0842,-0.0019,46.4062,4.9875,11.3813,
17.021679,0.0106,-0.0230,-0.0136,0.0473,0.0842,-0.0019,46.4062,4.9875,11.3813,
17.030926,0.0106,-0.0230,-0.0136,0.0473,0.0842,-0.0019,46.3313,4.8563,11.5500,
17.041398,0.0106,-0.0230,-0.0136,0.0888,0.1975,-0.0413,46.3313,4.8563,11.5500,
17.062813,0.0106,-0.0230,-0.0136,0.0888,0.1975,-0.0413,46.3313,4.8563,11.5500,
17.083720,-0.0605,0.0497,0.0165,0.0888,0.1975,-0.0413,46.3313,4.8563,11.5500,
17.087538,-0.0605,0.0497,0.0165,0.0888,0.1975,-0.0413,46.1625,4.8750,11.7000,
17.102342,-0.0605,0.0497,0.0165,0.0590,0.1698,0.0188,46.1625,4.8750,11.7000,
17.123961,-0.0605,0.0497,0.0165,0.0590,0.1698,0.0188,46.1625,4.8750,11.7000,
17.144665,0.0440,-0.0547,0.0275,0.0590,0.1698,0.0188,46.1625,4.8750,11.7000,
17.149069,0.0440,-0.0547,0.0275,0.0590,0.1698,0.0188,46.0875,4.9125,11.8313,
17.163315,0.0440,-0.0547,0.0275,0.0075,0.0441,-0.0234,46.0875,4.9125,11.8313,
17.183688,0.0440,-0.0547,0.0275,0.0075,0.0441,-0.0234,46.0875,4.9125,11.8313,
17.208774,0.0440,-0.0547,0.0275,0.0075,0.0441,-0.0234,45.9375,5.0438,11.9062,
17.226146,-0.1007,0.0020,0.0182,0.0075,0.0441,-0.0234,45.9375,5.0438,11.9062,
17.227994,-0.1007,0.0020,0.0182,0.0093,0.0554,-0.0494,45.9375,5.0438,11.9062,
17.244233,-0.1007,0.0020,0.0182,0.0093,0.0554,-0.0494,45.9375,5.0438,11.9062,
17.269472,-0.1007,0.0020,0.0182,0.0093,0.0554,-0.0494,45.7688,5.0813,12.1688,
17.285050,-0.1007,0.0020,0.0182,0.0377,0.1072,-0.0558,45.7688,5.0813,12.1688,
17.286572,-0.0703,-0.0339,-0.0196,0.0377,0.1072,-0.0558,45.7688,5.0813,12.1688,
17.305524,-0.0703,-0.0339,-0.0196,0.0377,0.1072,-0.0558,45.7688,5.0813,12.1688,
17.330580,-0.0703,-0.0339,-0.0196,0.0377,0.1072,-0.0558,45.7125,5.1375,12.3938,
17.346716,0.0137,0.0248,0.0058,0.0377,0.1072,-0.0558,45.7125,5.1375,12.3938,
17.347628,0.0137,0.0248,0.0058,0.0213,0.0582,-0.0164,45.7125,5.1375,12.3938,
17.378085,0.0137,0.0248,0.0058,0.0213,0.0582,-0.0164,45.7125,5.1375,12.3938,
17.388613,0.0137,0.0248,0.0058,0.0213,0.0582,-0.0164,45.6000,5.1562,12.4500,
17.406740,0.0137,0.0248,0.0058,0.0008,-0.0205,0.0226,45.6000,5.1562,12.4500,
17.407818,0.0144,0.0784,0.0304,0.0008,-0.0205,0.0226,45.6000,5.1562,12.4500,
17.427354,0.0144,0.0784,0.0304,0.0008,-0.0205,0.0226,45.6000,5.1562,12.4500,
17.449831,0.0144,0.0784,0.0304,0.0008,-0.0205,0.0226,45.4500,5.1375,12.4688,
17.466950,0.0144,0.0784,0.0304,-0.0876,-0.2353,0.0188,45.4500,5.1375,12.4688,
17.489139,0.0144,0.0784,0.0304,-0.0876,-0.2353,0.0188,45.4500,5.1375,12.4688,
17.489879,-0.0308,-0.0499,0.0116,-0.0876,-0.2353,0.0188,45.4500,5.1375,12.4688,
17.509245,-0.0308,-0.0499,0.0116,-0.0876,-0.2353,0.0188,45.3375,5.2875,12.2250,
17.529727,-0.0308,-0.0499,0.0116,-0.0706,-0.1967,0.0245,45.3375,5.2875,12.2250,
17.550960,-0.0308,-0.0499,0.0116,-0.0706,-0.1967,0.0245,45.3375,5.2875,12.2250,
17.552327,0.0039,0.0075,0.0213,-0.0706,-0.1967,0.0245,45.3375,5.2875,12.2250,
17.569354,0.0039,0.0075,0.0213,-0.0706,-0.1967,0.0245,45.4500,5.4563,11.9438,
17.590455,0.0039,0.0075,0.0213,-0.0192,-0.0770,-0.0170,45.4500,5.4563,11.9438,
17.610504,0.0039,0.0075,0.0213,-0.0192,-0.0770,-0.0170,45.4500,5.4563,11.9438,
17.611923,0.0522,-0.0107,-0.0146,-0.0192,-0.0770,-0.0170,45.4500,5.4563,11.9438,
17.632704,0.0522,-0.0107,-0.0146,-0.0192,-0.0770,-0.0170,45.3938,5.3625,11.8875,
17.651657,0.0522,-0.0107,-0.0146,0.0100,-0.0075,-0.0377,45.3938,5.3625,11.8875,
17.671193,0.0522,-0.0107,-0.0146,0.0100,-0.0075,-0.0377,45.3938,5.3625,11.8875,
17.688713,0.0522,-0.0107,-0.0146,0.0100,-0.0075,-0.0377,45.4313,5.1938,11.7938,
17.690375,0.0409,-0.0405,-0.0157,0.0100,-0.0075,-0.0377,45.4313,5.1938,11.7938,
17.711531,0.0409,-0.0405,-0.0157,0.0221,0.0111,-0.0415,45.4313,5.1938,11.7938,
17.731831,0.0409,-0.0405,-0.0157,0.0221,0.0111,-0.0415,45.4313,5.1938,11.7938,
17.749766,0.0409,-0.0405,-0.0157,0.0221,0.0111,-0.0415,45.6000,5.2313,11.6813,
17.751938,-0.0868,0.0476,-0.0336,0.0221,0.0111,-0.0415,45.6000,5.2313,11.6813,
17.773458,-0.0868,0.0476,-0.0336,0.0330,0.0345,0.0130,45.6000,5.2313,11.6813,
17.792941,-0.0868,0.0476,-0.0336,0.0330,0.0345,0.0130,45.6000,5.2313,11.6813,
17.811774,-0.0868,0.0476,-0.0336,0.0330,0.0345,0.0130,45.6938,5.1562,11.7375,
17.813455,0.1038,-0.0124,0.0222,0.0330,0.0345,0.0130,45.6938,5.1562,11.7375,
17.832542,0.1038,-0.0124,0.0222,0.0238,0.0288,0.0028,45.6938,5.1562,11.7375,
17.856702,0.1038,-0.0124,0.0222,0.0238,0.0288,0.0028,45.6938,5.1562,11.7375,
17.869569,0.1038,-0.0124,0.0222,0.0238,0.0288,0.0028,45.8250,5.2688,11.7938,
17.873609,-0.0453,0.0104,-0.0148,0.0238,0.0288,0.0028,45.8250,5.2688,11.7938,
17.894436,-0.0453,0.0104,-0.0148,0.0398,0.0880,0.0160,45.8250,5.2688,11.7938,
17.916122,-0.0453,0.0104,-0.0148,0.0398,0.0880,0.0160,45.8250,5.2688,11.7938,
17.929821,-0.0453,0.0104,-0.0148,0.0398,0.0880,0.0160,45.9563,5.1562,11.8125,
17.957461,-0.0453,0.0104,-0.0148,0.0072,-0.0053,-0.0349,45.9563,5.1562,11.8125,
17.958926,0.0097,0.0136,-0.0014,0.0072,-0.0053,-0.0349,45.9563,5.1562,11.8125,
17.977446,0.0097,0.0136,-0.0014,0.0072,-0.0053,-0.0349,45.9563,5.1562,11.8125,
17.990968,0.0097,0.0136,-0.0014,0.0072,-0.0053,-0.0349,46.0500,5.1375,12.0188,
18.016396,0.0097,0.0136,-0.0014,0.0093,0.0021,-0.0104,46.0500,5.1375,12.0188,
18.017531,-0.0602,-0.0167,0.0022,0.0093,0.0021,-0.0104,46.0500,5.1375,12.0188,
18.036341,-0.0602,-0.0167,0.0022,0.0093,0.0021,-0.0104,46.0500,5.1375,12.0188,
18.049441,-0.0602,-0.0167,0.0022,0.0093,0.0021,-0.0104,46.0312,4.9313,12.2813,
18.077028,-0.0602,-0.0167,0.0022,0.0029,-0.0205,-0.0121,46.0312,4.9313,12.2813,
18.078593,0.0775,-0.0025,0.0265,0.0029,-0.0205,-0.0121,46.0312,4.9313,12.2813,
18.099327,0.0775,-0.0025,0.0265,0.0029,-0.0205,-0.0121,46.0312,4.9313,12.2813,
18.110621,0.0775,-0.0025,0.0265,0.0029,-0.0205,-0.0121,45.9750,4.9500,12.3188,
18.137664,0.0775,-0.0025,0.0265,-0.0237,-0.0706,-0.0629,45.9750,4.9500,12.3188,
18.158930,0.0775,-0.0025,0.0265,-0.0237,-0.0706,-0.0629,45.9750,4.9500,12.3188,
18.160805,-0.0555,-0.0121,-0.0158,-0.0237,-0.0706,-0.0629,45.9750,4.9500,12.3188,
18.170735,-0.0555,-0.0121,-0.0158,-0.0237,-0.0706,-0.0629,45.9188,5.0625,12.3375,
18.199065,-0.0555,-0.0121,-0.0158,-0.0397,-0.1232,-0.0647,45.9188,5.0625,12.3375,
18.218459,-0.0555,-0.0121,-0.0158,-0.0397,-0.1232,-0.0647,45.9188,5.0625,12.3375,
18.219695,-0.1085,0.0430,0.0084,-0.0397,-0.1232,-0.0647,45.9188,5.0625,12.3375,
18.229047,-0.1085,0.0430,0.0084,-0.0397,-0.1232,-0.0647,45.8625,5.1188,12.2813,
18.260892,-0.1085,0.0430,0.0084,-0.0447,-0.1462,-0.2049,45.8625,5.1188,12.2813,
18.279338,-0.1085,0.0430,0.0084,-0.0447,-0.1462,-0.2049,45.8625,5.1188,12.2813,
18.280820,0.0615,-0.0688,0.0246,-0.0447,-0.1462,-0.2049,45.8625,5.1188,12.2813,
18.289026,0.0615,-0.0688,0.0246,-0.0447,-0.1462,-0.2049,45.8250,5.4000,12.0188,
18.320720,0.0615,-0.0688,0.0246,-0.0269,-0.0756,-0.4037,45.8250,5.4000,12.0188,
18.340999,0.0615,-0.0688,0.0246,-0.0269,-0.0756,-0.4037,45.8250,5.4000,12.0188,
18.342656,-0.3219,0.1020,0.0056,-0.0269,-0.0756,-0.4037,45.8250,5.4000,12.0188,
18.350166,-0.3219,0.1020,0.0056,-0.0269,-0.0756,-0.4037,45.9000,5.6250,11.8313,
18.381698,-0.3219,0.1020,0.0056,0.0292,0.0987,-0.0032,45.9000,5.6250,11.8313,
18.401916,-0.3219,0.1020,0.0056,0.0292,0.0987,-0.0032,45.9000,5.6250,11.8313,
18.409126,-0.3219,0.1020,0.0056,0.0292,0.0987,-0.0032,45.8625,6.0563,11.7188,
18.422705,0.1903,0.0442,-0.0152,0.0292,0.0987,-0.0032,45.8625,6.0563,11.7188,
18.442526,0.1903,0.0442,-0.0152,-0.0162,-0.0429,0.0134,45.8625,6.0563,11.7188,
18.463900,0.1903,0.0442,-0.0152,-0.0162,-0.0429,0.0134,45.8625,6.0563,11.7188,
18.468868,0.1903,0.0442,-0.0152,-0.0162,-0.0429,0.0134,45.8625,6.2625,11.5875,
18.483304,-0.0508,0.0119,0.0410,-0.0162,-0.0429,0.0134,45.8625,6.2625,11.5875,
18.503389,-0.0508,0.0119,0.0410,-0.0028,0.0100,0.0348,45.8625,6.2625,11.5875,
18.524068,-0.0508,0.0119,0.0410,-0.0028,0.0100,0.0348,45.8625,6.2625,11.5875,
18.529022,-0.0508,0.0119,0.0410,-0.0028,0.0100,0.0348,45.8250,6.7875,11.3813,
18.543964,0.1160,-0.0634,-0.0193,-0.0028,0.0100,0.0348,45.8250,6.7875,11.3813,
18.563796,0.1160,-0.0634,-0.0193,0.0296,0.1225,-0.0277,45.8250,6.7875,11.3813,
18.583846,0.1160,-0.0634,-0.0193,0.0296,0.1225,-0.0277,45.8250,6.7875,11.3813,
18.588034,0.1160,-0.0634,-0.0193,0.0296,0.1225,-0.0277,45.9375,7.1063,11.1938,
18.604367,0.0774,-0.1059,-0.0381,0.0296,0.1225,-0.0277,45.9375,7.1063,11.1938,
18.624828,0.0774,-0.1059,-0.0381,-0.0092,-0.0170,-0.0995,45.9375,7.1063,11.1938,
18.645513,0.0774,-0.1059,-0.0381,-0.0092,-0.0170,-0.0995,45.9375,7.1063,11.1938,
18.647477,0.0774,-0.1059,-0.0381,-0.0092,-0.0170,-0.0995,45.8813,7.3875,11.2313,
