
time,ax,ay,az,wx,wy,wz,Bx,By,Bz,
0.065572,0.0000,0.0000,0.0000,0.0000,0.0000,0.0000,0.0000,0.0000,0.0000,
0.095242,0.0000,0.0000,0.0000,0.0000,0.0000,0.0000,24.3750,22.9688,-4.2563,
0.125605,0.0000,0.0000,0.0000,-0.0173,0.0249,0.0194,24.3750,22.9688,-4.2563,
0.126229,0.0000,0.0000,0.0000,-0.0173,0.0249,0.0194,24.3750,22.9688,-4.2563,
0.153997,0.0000,0.0000,0.0000,-0.0173,0.0249,0.0194,33.0563,22.5375,3.4125,
0.166598,0.0000,0.0000,0.0000,-0.0173,0.0249,0.0194,33.0563,22.5375,3.4125,
0.186711,0.0000,0.0000,0.0000,0.0146,0.0140,0.0485,33.0563,22.5375,3.4125,
0.187598,0.0000,0.0000,0.0000,0.0146,0.0140,0.0485,33.0563,22.5375,3.4125,
0.214747,0.0000,0.0000,0.0000,0.0146,0.0140,0.0485,36.0000,21.9938,6.2625,
0.247524,0.0000,0.0000,0.0000,-0.0095,-0.0269,-0.0161,36.0000,21.9938,6.2625,
0.248570,0.0000,0.0000,0.0000,-0.0095,-0.0269,-0.0161,36.0000,21.9938,6.2625,
0.249312,0.0327,-0.0860,-0.0743,-0.0095,-0.0269,-0.0161,36.0000,21.9938,6.2625,
0.274357,0.0327,-0.0860,-0.0743,-0.0095,-0.0269,-0.0161,37.2750,21.6750,7.5750,
0.309534,0.0327,-0.0860,-0.0743,0.0119,0.0157,0.0137,37.2750,21.6750,7.5750,
0.310878,0.0327,-0.0860,-0.0743,0.0119,0.0157,0.0137,37.2750,21.6750,7.5750,
0.311556,-0.1780,-0.0245,-0.0109,0.0119,0.0157,0.0137,37.2750,21.6750,7.5750,
0.336083,-0.1780,-0.0245,-0.0109,0.0119,0.0157,0.0137,38.1188,21.6938,8.6438,
0.370050,-0.1780,-0.0245,-0.0109,0.0119,0.0157,0.0137,38.1188,21.6938,8.6438,
0.371182,-0.1780,-0.0245,-0.0109,-0.0130,0.0061,-0.0016,38.1188,21.6938,8.6438,
0.372247,0.0656,0.0209,0.0191,-0.0130,0.0061,-0.0016,38.1188,21.6938,8.6438,
0.394894,0.0656,0.0209,0.0191,-0.0130,0.0061,-0.0016,38.9438,21.6938,9.3000,
0.431763,0.0656,0.0209,0.0191,-0.0130,0.0061,-0.0016,38.9438,21.6938,9.3000,
0.433275,-0.0104,-0.0310,-0.0273,-0.0130,0.0061,-0.0016,38.9438,21.6938,9.3000,
0.434688,-0.0104,-0.0310,-0.0273,-0.0028,0.0051,0.0005,38.9438,21.6938,9.3000,
0.453632,-0.0104,-0.0310,-0.0273,-0.0028,0.0051,0.0005,39.3938,21.4875,9.8250,
0.491451,-0.0104,-0.0310,-0.0273,-0.0071,0.0225,-0.0029,39.3938,21.4875,9.8250,
0.492026,-0.0104,-0.0310,-0.0273,-0.0071,0.0225,-0.0029,39.3938,21.4875,9.8250,
0.510695,-0.0133,0.0064,0.0270,-0.0071,0.0225,-0.0029,39.3938,21.4875,9.8250,
0.513969,-0.0133,0.0064,0.0270,-0.0071,0.0225,-0.0029,39.5438,21.8063,9.8063,
0.551966,-0.0133,0.0064,0.0270,-0.0045,-0.0020,-0.0012,39.5438,21.8063,9.8063,
0.553145,-0.0133,0.0064,0.0270,-0.0045,-0.0020,-0.0012,39.5438,21.8063,9.8063,
0.573434,-0.0133,0.0064,0.0270,-0.0045,-0.0020,-0.0012,41.6438,21.6938,11.7375,
0.574761,-0.0121,-0.0204,-0.0105,-0.0045,-0.0020,-0.0012,41.6438,21.6938,11.7375,
0.615126,-0.0121,-0.0204,-0.0105,-0.0045,-0.0020,-0.0012,41.6438,21.6938,11.7375,
0.616670,-0.0121,-0.0204,-0.0105,-0.0045,0.0025,0.0258,41.6438,21.6938,11.7375,
0.634970,0.0283,0.0101,0.0079,-0.0045,0.0025,0.0258,41.6438,21.6938,11.7375,
0.635655,0.0283,0.0101,0.0079,-0.0045,0.0025,0.0258,41.5125,21.5438,11.8125,
0.676665,0.0283,0.0101,0.0079,-0.0081,-0.0134,0.0222,41.5125,21.5438,11.8125,
0.678074,0.0283,0.0101,0.0079,-0.0081,-0.0134,0.0222,41.5125,21.5438,11.8125,
0.694974,0.0283,0.0101,0.0079,-0.0081,-0.0134,0.0222,41.4000,21.4875,11.9250,
0.715598,0.0118,0.0039,0.0114,-0.0081,-0.0134,0.0222,41.4000,21.4875,11.9250,
0.735290,0.0118,0.0039,0.0114,-0.0120,-0.0013,0.0088,41.4000,21.4875,11.9250,
0.737239,0.0118,0.0039,0.0114,-0.0120,-0.0013,0.0088,41.4000,21.4875,11.9250,
0.755642,0.0118,0.0039,0.0114,-0.0120,-0.0013,0.0088,41.5688,21.5625,12.1125,
0.776070,-0.0157,-0.0233,-0.0175,-0.0120,-0.0013,0.0088,41.5688,21.5625,12.1125,
0.797800,-0.0157,-0.0233,-0.0175,-0.0073,-0.0201,-0.0115,41.5688,21.5625,12.1125,
0.798935,-0.0157,-0.0233,-0.0175,-0.0073,-0.0201,-0.0115,41.5688,21.5625,12.1125,
0.815715,-0.0157,-0.0233,-0.0175,-0.0073,-0.0201,-0.0115,41.5312,21.3563,12.2813,
0.837108,-0.0085,-0.0221,-0.0119,-0.0073,-0.0201,-0.0115,41.5312,21.3563,12.2813,
0.857283,-0.0085,-0.0221,-0.0119,-0.0073,-0.0201,-0.0115,41.5312,21.3563,12.2813,
0.858513,-0.0085,-0.0221,-0.0119,0.0001,0.0033,-0.0029,41.5312,21.3563,12.2813,
0.875406,-0.0085,-0.0221,-0.0119,0.0001,0.0033,-0.0029,41.3438,21.2063,12.4125,
0.897858,0.0067,-0.0154,-0.0067,0.0001,0.0033,-0.0029,41.3438,21.2063,12.4125,
0.917906,0.0067,-0.0154,-0.0067,0.0001,0.0033,-0.0029,41.3438,21.2063,12.4125,
0.918965,0.0067,-0.0154,-0.0067,-0.0052,-0.0056,0.0130,41.3438,21.2063,12.4125,
0.934508,0.0067,-0.0154,-0.0067,-0.0052,-0.0056,0.0130,41.3250,21.0938,12.4875,
0.980081,0.0067,-0.0154,-0.0067,-0.0052,-0.0056,0.0130,41.3250,21.0938,12.4875,
0.981832,0.0067,-0.0154,-0.0067,-0.0103,0.0019,0.0365,41.3250,21.0938,12.4875,
0.983200,0.0332,0.0195,0.0180,-0.0103,0.0019,0.0365,41.3250,21.0938,12.4875,
0.993971,0.0332,0.0195,0.0180,-0.0103,0.0019,0.0365,41.5312,20.6625,13.0500,
1.040086,0.0332,0.0195,0.0180,-0.0103,0.0019,0.0365,41.5312,20.6625,13.0500,
1.041623,0.0332,0.0195,0.0180,-0.0201,-0.0169,0.0730,41.5312,20.6625,13.0500,
1.042390,0.0348,-0.0111,0.0106,-0.0201,-0.0169,0.0730,41.5312,20.6625,13.0500,
1.054992,0.0348,-0.0111,0.0106,-0.0201,-0.0169,0.0730,41.6438,20.3813,13.4625,
1.099893,0.0348,-0.0111,0.0106,0.0047,-0.0591,0.0399,41.6438,20.3813,13.4625,
1.100912,0.0592,0.0008,0.0679,0.0047,-0.0591,0.0399,41.6438,20.3813,13.4625,
1.101318,0.0592,0.0008,0.0679,0.0047,-0.0591,0.0399,41.6438,20.3813,13.4625,
1.114582,0.0592,0.0008,0.0679,0.0047,-0.0591,0.0399,41.8125,20.3438,13.4063,
1.161667,0.0592,0.0008,0.0679,0.0012,-0.0041,0.0297,41.8125,20.3438,13.4063,
1.162927,0.0592,0.0008,0.0679,0.0012,-0.0041,0.0297,41.8125,20.3438,13.4063,
1.175351,0.0592,0.0008,0.0679,0.0012,-0.0041,0.0297,41.9062,20.2875,13.4438,
1.181652,0.0309,-0.0416,-0.1038,0.0012,-0.0041,0.0297,41.9062,20.2875,13.4438,
1.224674,0.0309,-0.0416,-0.1038,-0.0212,-0.0063,0.0442,41.9062,20.2875,13.4438,
1.226848,0.0309,-0.0416,-0.1038,-0.0212,-0.0063,0.0442,41.9062,20.2875,13.4438,
1.234482,0.0309,-0.0416,-0.1038,-0.0212,-0.0063,0.0442,41.9625,20.1000,13.5188,
1.241909,0.0132,0.0307,0.0281,-0.0212,-0.0063,0.0442,41.9625,20.1000,13.5188,
1.283408,0.0132,0.0307,0.0281,-0.0212,-0.0063,0.0442,41.9625,20.1000,13.5188,
1.284255,0.0132,0.0307,0.0281,-0.0316,-0.0166,0.0495,41.9625,20.1000,13.5188,
1.293432,0.0132,0.0307,0.0281,-0.0316,-0.0166,0.0495,42.0563,20.1188,13.3688,
1.303534,0.0162,0.0185,0.0524,-0.0316,-0.0166,0.0495,42.0563,20.1188,13.3688,
1.344488,0.0162,0.0185,0.0524,-0.0284,0.0072,-0.0059,42.0563,20.1188,13.3688,
1.345659,0.0162,0.0185,0.0524,-0.0284,0.0072,-0.0059,42.0563,20.1188,13.3688,
1.357346,0.0162,0.0185,0.0524,-0.0284,0.0072,-0.0059,42.1688,19.9688,13.3688,
1.367167,-0.0483,-0.0253,-0.0153,-0.0284,0.0072,-0.0059,42.1688,19.9688,13.3688,
1.407624,-0.0483,-0.0253,-0.0153,-0.0284,0.0072,-0.0059,42.1688,19.9688,13.3688,
1.408847,-0.0483,-0.0253,-0.0153,-0.0077,0.0204,-0.0356,42.1688,19.9688,13.3688,
1.416243,-0.0483,-0.0253,-0.0153,-0.0077,0.0204,-0.0356,42.1125,20.0438,13.2750,
1.445700,-0.0372,0.0070,-0.0540,-0.0077,0.0204,-0.0356,42.1125,20.0438,13.2750,
1.465778,-0.0372,0.0070,-0.0540,-0.0077,0.0204,-0.0356,42.1125,20.0438,13.2750,
1.466483,-0.0372,0.0070,-0.0540,-0.0099,0.0104,-0.0115,42.1125,20.0438,13.2750,
1.474059,-0.0372,0.0070,-0.0540,-0.0099,0.0104,-0.0115,42.1313,19.8938,13.2750,
1.506719,-0.0001,-0.0175,-0.0117,-0.0099,0.0104,-0.0115,42.1313,19.8938,13.2750,
1.527412,-0.0001,-0.0175,-0.0117,-0.0099,0.0104,-0.0115,42.1313,19.8938,13.2750,
1.529848,-0.0001,-0.0175,-0.0117,-0.0184,0.0338,0.0052,42.1313,19.8938,13.2750,
1.534710,-0.0001,-0.0175,-0.0117,-0.0184,0.0338,0.0052,42.2250,19.9125,13.2188,
1.567722,0.0257,-0.0084,-0.0248,-0.0184,0.0338,0.0052,42.2250,19.9125,13.2188,
1.590363,0.0257,-0.0084,-0.0248,-0.0201,0.0633,-0.0037,42.2250,19.9125,13.2188,
1.592068,0.0257,-0.0084,-0.0248,-0.0201,0.0633,-0.0037,42.2250,19.9125,13.2188,
1.593844,0.0257,-0.0084,-0.0248,-0.0201,0.0633,-0.0037,42.3188,19.7812,13.4813,
1.649459,0.0257,-0.0084,-0.0248,0.0012,0.0332,0.0322,42.3188,19.7812,13.4813,
1.651412,-0.0030,-0.0030,-0.0298,0.0012,0.0332,0.0322,42.3188,19.7812,13.4813,
1.652644,-0.0030,-0.0030,-0.0298,0.0012,0.0332,0.0322,42.3188,19.7812,13.4813,
1.653815,-0.0030,-0.0030,-0.0298,0.0012,0.0332,0.0322,42.4688,19.8188,13.3313,
1.709793,-0.0030,-0.0030,-0.0298,0.0391,-0.0297,0.0318,42.4688,19.8188,13.3313,
1.710625,0.0232,0.0042,-0.0140,0.0391,-0.0297,0.0318,42.4688,19.8188,13.3313,
1.711162,0.0232,0.0042,-0.0140,0.0391,-0.0297,0.0318,42.4688,19.8188,13.3313,
1.714372,0.0232,0.0042,-0.0140,0.0391,-0.0297,0.0318,42.3375,19.8000,13.1625,
1.770849,0.0232,0.0042,-0.0140,0.0391,-0.0297,0.0318,42.3375,19.8000,13.1625,
1.772001,0.0232,0.0042,-0.0140,0.0334,-0.0414,0.0676,42.3375,19.8000,13.1625,
1.773354,0.0265,-0.0009,-0.0084,0.0334,-0.0414,0.0676,42.3375,19.8000,13.1625,
1.774246,0.0265,-0.0009,-0.0084,0.0334,-0.0414,0.0676,42.3375,19.6875,13.2938,
1.831333,0.0265,-0.0009,-0.0084,-0.0067,-0.0791,0.1121,42.3375,19.6875,13.2938,
1.832068,0.0265,-0.0009,-0.0084,-0.0067,-0.0791,0.1121,42.3375,19.6875,13.2938,
1.832549,0.0332,-0.0394,-0.0204,-0.0067,-0.0791,0.1121,42.3375,19.6875,13.2938,
1.834586,0.0332,-0.0394,-0.0204,-0.0067,-0.0791,0.1121,42.4688,19.7063,13.4250,
1.891637,0.0332,-0.0394,-0.0204,-0.1089,-0.1028,0.2977,42.4688,19.7063,13.4250,
1.894487,0.0332,-0.0394,-0.0204,-0.1089,-0.1028,0.2977,42.4688,19.7063,13.4250,
1.895835,0.0332,-0.0394,-0.0204,-0.1089,-0.1028,0.2977,42.6375,19.4438,13.5000,
1.920461,0.1604,0.0778,0.2994,-0.1089,-0.1028,0.2977,42.6375,19.4438,13.5000,
1.953783,0.1604,0.0778,0.2994,-0.0465,-0.1710,0.3623,42.6375,19.4438,13.5000,
1.955947,0.1604,0.0778,0.2994,-0.0465,-0.1710,0.3623,42.6375,19.4438,13.5000,
1.957057,0.1604,0.0778,0.2994,-0.0465,-0.1710,0.3623,42.6938,19.2188,13.3688,
1.979774,0.2487,-0.0067,0.0914,-0.0465,-0.1710,0.3623,42.6938,19.2188,13.3688,
2.021015,0.2487,-0.0067,0.0914,-0.0465,-0.1710,0.3623,42.9750,18.7125,13.2000,
2.022811,0.2487,-0.0067,0.0914,0.0771,-0.2029,0.2941,42.9750,18.7125,13.2000,
2.023910,0.2487,-0.0067,0.0914,0.0771,-0.2029,0.2941,42.9750,18.7125,13.2000,
2.036515,0.1022,-0.0669,-0.2325,0.0771,-0.2029,0.2941,42.9750,18.7125,13.2000,
2.077987,0.1022,-0.0669,-0.2325,0.0771,-0.2029,0.2941,43.1438,18.1688,12.8250,
2.079660,0.1022,-0.0669,-0.2325,0.1851,-0.0514,0.3847,43.1438,18.1688,12.8250,
2.081194,0.1022,-0.0669,-0.2325,0.1851,-0.0514,0.3847,43.1438,18.1688,12.8250,
2.120194,0.2245,-0.0646,-0.4425,0.1851,-0.0514,0.3847,43.1438,18.1688,12.8250,
2.135963,0.2245,-0.0646,-0.4425,0.1851,-0.0514,0.3847,43.3875,17.5500,12.8625,
2.137217,0.2245,-0.0646,-0.4425,0.2712,0.0466,0.4522,43.3875,17.5500,12.8625,
2.137953,0.2245,-0.0646,-0.4425,0.2712,0.0466,0.4522,43.3875,17.5500,12.8625,
2.177633,0.3495,0.1088,-0.1808,0.2712,0.0466,0.4522,43.3875,17.5500,12.8625,
2.194501,0.3495,0.1088,-0.1808,0.2712,0.0466,0.4522,43.8750,16.8000,12.7875,
2.197281,0.3495,0.1088,-0.1808,0.4466,0.2160,0.5959,43.8750,16.8000,12.7875,
2.198718,0.3495,0.1088,-0.1808,0.4466,0.2160,0.5959,43.8750,16.8000,12.7875,
2.245088,0.5173,-0.0289,-0.6550,0.4466,0.2160,0.5959,43.8750,16.8000,12.7875,
2.260779,0.5173,-0.0289,-0.6550,0.4466,0.2160,0.5959,44.3250,15.8250,12.6188,
2.263283,0.5173,-0.0289,-0.6550,0.5521,-0.0262,0.8032,44.3250,15.8250,12.6188,
2.264626,0.5173,-0.0289,-0.6550,0.5521,-0.0262,0.8032,44.3250,15.8250,12.6188,
2.302234,0.4258,-0.1147,-0.0519,0.5521,-0.0262,0.8032,44.3250,15.8250,12.6188,
2.320679,0.4258,-0.1147,-0.0519,0.5521,-0.0262,0.8032,44.6250,14.5125,12.1313,
2.322293,0.4258,-0.1147,-0.0519,0.5521,-0.0262,0.8032,44.6250,14.5125,12.1313,
2.323067,0.4258,-0.1147,-0.0519,0.5443,-0.2300,0.9534,44.6250,14.5125,12.1313,
2.377144,0.4258,-0.1147,-0.0519,0.5443,-0.2300,0.9534,45.0375,13.0313,11.6063,
2.381151,0.4258,-0.1147,-0.0519,0.7093,-0.1984,1.1501,45.0375,13.0313,11.6063,
2.382955,0.4258,-0.1147,-0.0519,0.7093,-0.1984,1.1501,45.0375,13.0313,11.6063,
2.384238,0.4386,-0.1381,-0.1043,0.7093,-0.1984,1.1501,45.0375,13.0313,11.6063,
2.435142,0.4386,-0.1381,-0.1043,0.7093,-0.1984,1.1501,45.5625,11.4188,11.1375,
2.439237,0.4386,-0.1381,-0.1043,1.0494,0.0790,1.1277,45.5625,11.4188,11.1375,
2.440619,0.4742,-0.3111,-0.4293,1.0494,0.0790,1.1277,45.5625,11.4188,11.1375,
2.441629,0.4742,-0.3111,-0.4293,1.0494,0.0790,1.1277,45.5625,11.4188,11.1375,
2.494862,0.4742,-0.3111,-0.4293,1.0494,0.0790,1.1277,45.7688,9.7125,10.8750,
2.501428,0.4742,-0.3111,-0.4293,1.5862,0.5808,1.6353,45.7688,9.7125,10.8750,
2.502560,0.4742,-0.3111,-0.4293,1.5862,0.5808,1.6353,45.7688,9.7125,10.8750,
2.503366,1.0364,-0.9324,-0.2535,1.5862,0.5808,1.6353,45.7688,9.7125,10.8750,
2.554579,1.0364,-0.9324,-0.2535,1.5862,0.5808,1.6353,45.9375,7.5375,11.1562,
2.563528,1.0364,-0.9324,-0.2535,1.5862,0.5808,1.6353,45.9375,7.5375,11.1562,
2.564170,1.0364,-0.9324,-0.2535,1.9857,0.9539,2.4022,45.9375,7.5375,11.1562,
2.583276,1.2742,-2.8612,-0.9830,1.9857,0.9539,2.4022,45.9375,7.5375,11.1562,
2.614827,1.2742,-2.8612,-0.9830,1.9857,0.9539,2.4022,45.7313,4.6875,11.8125,
2.623709,1.2742,-2.8612,-0.9830,1.9857,0.9539,2.4022,45.7313,4.6875,11.8125,
2.624771,1.2742,-2.8612,-0.9830,2.4428,0.5216,2.9453,45.7313,4.6875,11.8125,
2.644464,2.3962,-4.2180,-3.9820,2.4428,0.5216,2.9453,45.7313,4.6875,11.8125,
2.674475,2.3962,-4.2180,-3.9820,2.4428,0.5216,2.9453,44.9813,1.2375,12.6375,
2.683650,2.3962,-4.2180,-3.9820,2.7773,-1.1750,2.6400,44.9813,1.2375,12.6375,
2.684810,2.3962,-4.2180,-3.9820,2.7773,-1.1750,2.6400,44.9813,1.2375,12.6375,
2.704849,0.9717,-1.8634,-4.3301,2.7773,-1.1750,2.6400,44.9813,1.2375,12.6375,
2.735977,0.9717,-1.8634,-4.3301,2.7773,-1.1750,2.6400,44.7375,-1.8000,13.1625,
2.744763,0.9717,-1.8634,-4.3301,4.0769,-0.7422,2.5409,44.7375,-1.8000,13.1625,
2.745424,0.9717,-1.8634,-4.3301,4.0769,-0.7422,2.5409,44.7375,-1.8000,13.1625,
2.766061,5.6760,4.6405,-2.6910,4.0769,-0.7422,2.5409,44.7375,-1.8000,13.1625,
2.794393,5.6760,4.6405,-2.6910,4.0769,-0.7422,2.5409,43.7063,-5.2875,14.5125,
2.806004,5.6760,4.6405,-2.6910,4.0769,-0.7422,2.5409,43.7063,-5.2875,14.5125,
2.806712,5.6760,4.6405,-2.6910,0.1222,0.2980,4.6834,43.7063,-5.2875,14.5125,
2.847195,-9.5409,-1.3634,9.1425,0.1222,0.2980,4.6834,43.7063,-5.2875,14.5125,
2.854412,-9.5409,-1.3634,9.1425,0.1222,0.2980,4.6834,42.6562,-9.4688,14.4938,
2.866376,-9.5409,-1.3634,9.1425,0.1222,0.2980,4.6834,42.6562,-9.4688,14.4938,
2.867468,-9.5409,-1.3634,9.1425,-3.0054,-7.1056,0.6794,42.6562,-9.4688,14.4938,
2.907524,-0.9751,4.1077,-10.1812,-3.0054,-7.1056,0.6794,42.6562,-9.4688,14.4938,
2.914535,-0.9751,4.1077,-10.1812,-3.0054,-7.1056,0.6794,41.7750,-13.3125,12.3000,
2.927440,-0.9751,4.1077,-10.1812,-0.7539,-2.2754,-1.0545,41.7750,-13.3125,12.3000,
2.928542,-0.9751,4.1077,-10.1812,-0.7539,-2.2754,-1.0545,41.7750,-13.3125,12.3000,
2.968526,4.4162,6.7026,-0.5098,-0.7539,-2.2754,-1.0545,41.7750,-13.3125,12.3000,
2.974985,4.4162,6.7026,-0.5098,-0.7539,-2.2754,-1.0545,40.9313,-16.4813,9.0750,
2.988427,4.4162,6.7026,-0.5098,-1.2747,-4.3824,-2.2614,40.9313,-16.4813,9.0750,
2.989108,4.4162,6.7026,-0.5098,-1.2747,-4.3824,-2.2614,40.9313,-16.4813,9.0750,
3.035362,4.4162,6.7026,-0.5098,-1.2747,-4.3824,-2.2614,39.6375,-18.0375,3.9375,
3.049944,4.4162,6.7026,-0.5098,-1.2747,-4.3824,-2.2614,39.6375,-18.0375,3.9375,
3.051016,4.4162,6.7026,-0.5098,1.1992,-4.1367,-2.9789,39.6375,-18.0375,3.9375,
3.052213,-3.0638,-0.6724,6.0421,1.1992,-4.1367,-2.9789,39.6375,-18.0375,3.9375,
3.094486,-3.0638,-0.6724,6.0421,1.1992,-4.1367,-2.9789,38.7000,-18.8813,-1.2938,
3.110684,-3.0638,-0.6724,6.0421,1.1992,-4.1367,-2.9789,38.7000,-18.8813,-1.2938,
3.111661,1.6685,1.4825,10.0878,1.1992,-4.1367,-2.9789,38.7000,-18.8813,-1.2938,
3.112632,1.6685,1.4825,10.0878,3.4155,4.0027,-0.9870,38.7000,-18.8813,-1.2938,
3.154448,1.6685,1.4825,10.0878,3.4155,4.0027,-0.9870,38.3063,-19.4062,-5.1375,
3.170769,1.6685,1.4825,10.0878,3.4155,4.0027,-0.9870,38.3063,-19.4062,-5.1375,
3.172038,5.4121,-6.2470,1.2697,3.4155,4.0027,-0.9870,38.3063,-19.4062,-5.1375,
3.173934,5.4121,-6.2470,1.2697,3.5480,2.5735,-1.6196,38.3063,-19.4062,-5.1375,
3.213625,5.4121,-6.2470,1.2697,3.5480,2.5735,-1.6196,38.0063,-19.3688,-7.8000,
3.231143,5.4121,-6.2470,1.2697,2.3239,2.4205,-0.8361,38.0063,-19.3688,-7.8000,
3.231833,5.4121,-6.2470,1.2697,2.3239,2.4205,-0.8361,38.0063,-19.3688,-7.8000,
3.232526,2.6669,-9.3979,-3.4922,2.3239,2.4205,-0.8361,38.0063,-19.3688,-7.8000,
3.273540,2.6669,-9.3979,-3.4922,2.3239,2.4205,-0.8361,38.4938,-18.4125,-9.9188,
3.292151,2.6669,-9.3979,-3.4922,2.3239,2.4205,-0.8361,38.4938,-18.4125,-9.9188,
3.293349,2.6669,-9.3979,-3.4922,2.1749,3.3172,0.7382,38.4938,-18.4125,-9.9188,
3.312897,2.3172,-3.8151,-2.7120,2.1749,3.3172,0.7382,38.4938,-18.4125,-9.9188,
3.334103,2.3172,-3.8151,-2.7120,2.1749,3.3172,0.7382,38.3625,-16.5000,-9.0000,
3.354792,2.3172,-3.8151,-2.7120,2.1749,3.3172,0.7382,38.3625,-16.5000,-9.0000,
3.356123,2.3172,-3.8151,-2.7120,1.8425,4.3620,1.4237,38.3625,-16.5000,-9.0000,
3.374473,4.7981,-3.0880,-2.7199,1.8425,4.3620,1.4237,38.3625,-16.5000,-9.0000,
3.393948,4.7981,-3.0880,-2.7199,1.8425,4.3620,1.4237,37.0312,-14.7938,-4.3500,
3.414019,4.7981,-3.0880,-2.7199,1.2525,2.9371,1.8701,37.0312,-14.7938,-4.3500,
3.415391,4.7981,-3.0880,-2.7199,1.2525,2.9371,1.8701,37.0312,-14.7938,-4.3500,
3.434331,4.1080,-3.7578,-3.7386,1.2525,2.9371,1.8701,37.0312,-14.7938,-4.3500,
3.454432,4.1080,-3.7578,-3.7386,1.2525,2.9371,1.8701,35.4375,-13.7063,1.3125,
3.475502,4.1080,-3.7578,-3.7386,0.0650,-0.4991,0.9694,35.4375,-13.7063,1.3125,
3.476755,4.1080,-3.7578,-3.7386,0.0650,-0.4991,0.9694,35.4375,-13.7063,1.3125,
3.514227,4.1080,-3.7578,-3.7386,0.0650,-0.4991,0.9694,34.3688,-13.6125,8.6250,
3.515413,3.2889,2.2218,-3.2466,0.0650,-0.4991,0.9694,34.3688,-13.6125,8.6250,
3.535474,3.2889,2.2218,-3.2466,0.6507,3.2036,0.7290,34.3688,-13.6125,8.6250,
3.536687,3.2889,2.2218,-3.2466,0.6507,3.2036,0.7290,34.3688,-13.6125,8.6250,
3.575309,3.2889,2.2218,-3.2466,0.6507,3.2036,0.7290,32.0813,-13.7250,16.2750,
3.577980,2.6141,4.7902,0.2123,0.6507,3.2036,0.7290,32.0813,-13.7250,16.2750,
3.597519,2.6141,4.7902,0.2123,0.6507,3.2036,0.7290,32.0813,-13.7250,16.2750,
3.599209,2.6141,4.7902,0.2123,-1.0657,5.6908,0.6832,32.0813,-13.7250,16.2750,
3.635137,2.6141,4.7902,0.2123,-1.0657,5.6908,0.6832,27.6563,-13.4438,22.8375,
3.638591,3.5547,0.2112,-1.4248,-1.0657,5.6908,0.6832,27.6563,-13.4438,22.8375,
3.658881,3.5547,0.2112,-1.4248,-1.0657,5.6908,0.6832,27.6563,-13.4438,22.8375,
3.660215,3.5547,0.2112,-1.4248,-0.6282,5.9269,0.4663,27.6563,-13.4438,22.8375,
3.695194,3.5547,0.2112,-1.4248,-0.6282,5.9269,0.4663,21.4313,-14.3250,28.5000,
3.699214,3.7052,-5.6018,0.9705,-0.6282,5.9269,0.4663,21.4313,-14.3250,28.5000,
3.719878,3.7052,-5.6018,0.9705,0.6693,3.5977,1.3376,21.4313,-14.3250,28.5000,
3.722100,3.7052,-5.6018,0.9705,0.6693,3.5977,1.3376,21.4313,-14.3250,28.5000,
3.755495,3.7052,-5.6018,0.9705,0.6693,3.5977,1.3376,14.3438,-14.7375,32.9813,
3.782300,3.7052,-5.6018,0.9705,0.6693,3.5977,1.3376,14.3438,-14.7375,32.9813,
3.785539,3.7052,-5.6018,0.9705,3.8039,-0.4838,1.3962,14.3438,-14.7375,32.9813,
3.786665,-10.3524,27.4985,3.1569,3.8039,-0.4838,1.3962,14.3438,-14.7375,32.9813,
3.817286,-10.3524,27.4985,3.1569,3.8039,-0.4838,1.3962,7.9125,-13.6500,36.1125,
3.841726,-10.3524,27.4985,3.1569,3.7170,-0.0655,1.4071,7.9125,-13.6500,36.1125,
3.843969,2.2641,-5.6184,3.1130,3.7170,-0.0655,1.4071,7.9125,-13.6500,36.1125,
3.845159,2.2641,-5.6184,3.1130,3.7170,-0.0655,1.4071,7.9125,-13.6500,36.1125,
3.875057,2.2641,-5.6184,3.1130,3.7170,-0.0655,1.4071,2.5125,-10.8188,37.6500,
3.903408,2.2641,-5.6184,3.1130,3.7055,0.2426,1.4305,2.5125,-10.8188,37.6500,
3.905787,2.2641,-5.6184,3.1130,3.7055,0.2426,1.4305,2.5125,-10.8188,37.6500,
3.906855,2.3668,-7.8949,4.2390,3.7055,0.2426,1.4305,2.5125,-10.8188,37.6500,
3.935372,2.3668,-7.8949,4.2390,3.7055,0.2426,1.4305,-2.1938,-6.6375,38.5688,
3.963068,2.3668,-7.8949,4.2390,6.4210,2.0967,1.1139,-2.1938,-6.6375,38.5688,
3.965483,2.3668,-7.8949,4.2390,6.4210,2.0967,1.1139,-2.1938,-6.6375,38.5688,
3.982964,1.4370,-6.0984,5.2808,6.4210,2.0967,1.1139,-2.1938,-6.6375,38.5688,
3.994885,1.4370,-6.0984,5.2808,6.4210,2.0967,1.1139,-7.0500,-0.7125,37.1250,
4.024567,1.4370,-6.0984,5.2808,6.4210,2.0967,1.1139,-7.0500,-0.7125,37.1250,
4.026277,1.4370,-6.0984,5.2808,2.3332,0.1928,-0.3973,-7.0500,-0.7125,37.1250,
4.045596,1.7884,0.9010,12.5201,2.3332,0.1928,-0.3973,-7.0500,-0.7125,37.1250,
4.057623,1.7884,0.9010,12.5201,2.3332,0.1928,-0.3973,-11.2313,5.4000,34.7063,
4.085933,1.7884,0.9010,12.5201,0.0583,2.1606,-1.3832,-11.2313,5.4000,34.7063,
4.088826,1.7884,0.9010,12.5201,0.0583,2.1606,-1.3832,-11.2313,5.4000,34.7063,
4.105570,4.6851,-14.8192,-20.6685,0.0583,2.1606,-1.3832,-11.2313,5.4000,34.7063,
4.116456,4.6851,-14.8192,-20.6685,0.0583,2.1606,-1.3832,-14.3438,11.6250,31.6125,
4.146103,4.6851,-14.8192,-20.6685,3.2050,-1.8882,-1.1216,-14.3438,11.6250,31.6125,
4.147717,4.6851,-14.8192,-20.6685,3.2050,-1.8882,-1.1216,-14.3438,11.6250,31.6125,
4.166841,0.3243,1.4649,9.3787,3.2050,-1.8882,-1.1216,-14.3438,11.6250,31.6125,
4.175101,0.3243,1.4649,9.3787,3.2050,-1.8882,-1.1216,-15.7688,18.3000,28.2938,
4.207248,0.3243,1.4649,9.3787,3.2050,-1.8882,-1.1216,-15.7688,18.3000,28.2938,
4.208837,0.3243,1.4649,9.3787,-0.6163,0.0694,0.5782,-15.7688,18.3000,28.2938,
4.235385,0.3243,1.4649,9.3787,-0.6163,0.0694,0.5782,-16.2938,24.4500,24.9563,
4.249142,-4.3161,1.0187,-11.2940,-0.6163,0.0694,0.5782,-16.2938,24.4500,24.9563,
4.270534,-4.3161,1.0187,-11.2940,-0.6163,0.0694,0.5782,-16.2938,24.4500,24.9563,
4.272534,-4.3161,1.0187,-11.2940,0.0892,0.1201,0.0099,-16.2938,24.4500,24.9563,
4.294888,-4.3161,1.0187,-11.2940,0.0892,0.1201,0.0099,-16.8188,29.2875,21.5813,
4.308061,1.5209,0.9934,-1.2189,0.0892,0.1201,0.0099,-16.8188,29.2875,21.5813,
4.328783,1.5209,0.9934,-1.2189,0.0988,-0.0708,0.0069,-16.8188,29.2875,21.5813,
4.330272,1.5209,0.9934,-1.2189,0.0988,-0.0708,0.0069,-16.8188,29.2875,21.5813,
4.356624,1.5209,0.9934,-1.2189,0.0988,-0.0708,0.0069,-17.7000,32.5875,18.2063,
4.369892,-0.0263,0.9773,0.3913,0.0988,-0.0708,0.0069,-17.7000,32.5875,18.2063,
4.389828,-0.0263,0.9773,0.3913,0.0174,-0.0190,-0.0019,-17.7000,32.5875,18.2063,
4.391657,-0.0263,0.9773,0.3913,0.0174,-0.0190,-0.0019,-17.7000,32.5875,18.2063,
4.414810,-0.0263,0.9773,0.3913,0.0174,-0.0190,-0.0019,-18.8625,34.5188,15.3188,
4.451871,-0.0263,0.9773,0.3913,0.0174,-0.0190,-0.0019,-18.8625,34.5188,15.3188,
4.454288,0.1665,0.7855,-0.9399,0.0174,-0.0190,-0.0019,-18.8625,34.5188,15.3188,
4.455546,0.1665,0.7855,-0.9399,-0.0041,0.0111,-0.0027,-18.8625,34.5188,15.3188,
4.477057,0.1665,0.7855,-0.9399,-0.0041,0.0111,-0.0027,-19.7625,34.6125,14.8125,
4.512140,0.1665,0.7855,-0.9399,-0.0041,0.0111,-0.0027,-19.7625,34.6125,14.8125,
4.513958,0.1665,0.7855,-0.9399,0.0087,0.0029,-0.0033,-19.7625,34.6125,14.8125,
4.514952,0.1190,0.6500,-1.2145,0.0087,0.0029,-0.0033,-19.7625,34.6125,14.8125,
4.535327,0.1190,0.6500,-1.2145,0.0087,0.0029,-0.0033,-20.1938,34.5750,14.3250,
4.575047,0.1190,0.6500,-1.2145,0.0089,0.0072,-0.0033,-20.1938,34.5750,14.3250,
4.577164,0.1123,0.5932,-0.9905,0.0089,0.0072,-0.0033,-20.1938,34.5750,14.3250,
4.578799,0.1123,0.5932,-0.9905,0.0089,0.0072,-0.0033,-20.1938,34.5750,14.3250,
4.594829,0.1123,0.5932,-0.9905,0.0089,0.0072,-0.0033,-20.0063,34.8938,14.0063,
4.634503,0.1123,0.5932,-0.9905,-0.0084,-0.0031,-0.0274,-20.0063,34.8938,14.0063,
4.637316,0.1123,0.5932,-0.9905,-0.0084,-0.0031,-0.0274,-20.0063,34.8938,14.0063,
4.638141,0.0953,0.5269,-0.8977,-0.0084,-0.0031,-0.0274,-20.0063,34.8938,14.0063,
4.655143,0.0953,0.5269,-0.8977,-0.0084,-0.0031,-0.0274,-19.8375,35.1562,14.0250,
4.697284,0.0953,0.5269,-0.8977,0.0477,0.0253,-0.0019,-19.8375,35.1562,14.0250,
4.701098,0.0953,0.5269,-0.8977,0.0477,0.0253,-0.0019,-19.8375,35.1562,14.0250,
4.715537,0.0953,0.5269,-0.8977,0.0477,0.0253,-0.0019,-19.7812,35.1750,14.0063,
4.717023,0.0306,0.5777,-0.6110,0.0477,0.0253,-0.0019,-19.7812,35.1750,14.0063,
4.756673,0.0306,0.5777,-0.6110,0.0097,0.0023,0.0009,-19.7812,35.1750,14.0063,
4.758725,0.0306,0.5777,-0.6110,0.0097,0.0023,0.0009,-19.7812,35.1750,14.0063,
4.777861,0.1317,0.3026,-0.9556,0.0097,0.0023,0.0009,-19.7812,35.1750,14.0063,
4.779534,0.1317,0.3026,-0.9556,0.0097,0.0023,0.0009,-19.8750,35.1188,14.0625,
4.816026,0.1317,0.3026,-0.9556,0.0178,0.0057,-0.0012,-19.8750,35.1188,14.0625,
4.819105,0.1317,0.3026,-0.9556,0.0178,0.0057,-0.0012,-19.8750,35.1188,14.0625,
4.836074,0.1317,0.3026,-0.9556,0.0178,0.0057,-0.0012,-19.8750,35.1188,14.0438,
4.837470,0.0661,0.3835,-0.6160,0.0178,0.0057,-0.0012,-19.8750,35.1188,14.0438,
4.877771,0.0661,0.3835,-0.6160,0.0178,0.0057,-0.0012,-19.8750,35.1188,14.0438,
4.879359,0.0661,0.3835,-0.6160,-0.0188,0.0313,0.0077,-19.8750,35.1188,14.0438,
4.894525,0.0661,0.3835,-0.6160,-0.0188,0.0313,0.0077,-19.9125,35.0438,14.1563,
4.918206,0.0554,0.2597,-0.5879,-0.0188,0.0313,0.0077,-19.9125,35.0438,14.1563,
4.938283,0.0554,0.2597,-0.5879,-0.1511,0.5894,0.4316,-19.9125,35.0438,14.1563,
4.939790,0.0554,0.2597,-0.5879,-0.1511,0.5894,0.4316,-19.9125,35.0438,14.1563,
4.954766,0.0554,0.2597,-0.5879,-0.1511,0.5894,0.4316,-19.9313,34.9875,14.0063,
4.979783,0.0434,0.1784,-0.8867,-0.1511,0.5894,0.4316,-19.9313,34.9875,14.0063,
4.999370,0.0434,0.1784,-0.8867,0.0611,-0.3265,0.7095,-19.9313,34.9875,14.0063,
5.002034,0.0434,0.1784,-0.8867,0.0611,-0.3265,0.7095,-19.9313,34.9875,14.0063,
5.016476,0.0434,0.1784,-0.8867,0.0611,-0.3265,0.7095,-19.6500,35.2313,13.9125,
5.039694,0.5544,0.5976,0.0428,0.0611,-0.3265,0.7095,-19.6500,35.2313,13.9125,
5.060659,0.5544,0.5976,0.0428,0.0611,-0.3265,0.7095,-19.6500,35.2313,13.9125,
5.062974,0.5544,0.5976,0.0428,-0.0631,-0.1895,-0.0306,-19.6500,35.2313,13.9125,
5.076764,0.5544,0.5976,0.0428,-0.0631,-0.1895,-0.0306,-19.5375,35.4375,13.8188,
5.099540,-0.4422,-0.1172,-0.4229,-0.0631,-0.1895,-0.0306,-19.5375,35.4375,13.8188,
5.121340,-0.4422,-0.1172,-0.4229,-0.0631,-0.1895,-0.0306,-19.5375,35.4375,13.8188,
5.122765,-0.4422,-0.1172,-0.4229,-0.2921,-1.0127,-0.6874,-19.5375,35.4375,13.8188,
5.135057,-0.4422,-0.1172,-0.4229,-0.2921,-1.0127,-0.6874,-19.4625,35.3063,14.0250,
5.182049,-0.4422,-0.1172,-0.4229,-1.1288,-2.7501,-1.7404,-19.4625,35.3063,14.0250,
5.183749,-0.4422,-0.1172,-0.4229,-1.1288,-2.7501,-1.7404,-19.4625,35.3063,14.0250,
5.184735,3.5255,0.1645,-1.4860,-1.1288,-2.7501,-1.7404,-19.4625,35.3063,14.0250,
5.198195,3.5255,0.1645,-1.4860,-1.1288,-2.7501,-1.7404,-19.7063,34.8563,14.8500,
5.242622,3.5255,0.1645,-1.4860,-1.1288,-2.7501,-1.7404,-19.7063,34.8563,14.8500,
5.244235,2.8383,-0.3174,-3.1782,-1.1288,-2.7501,-1.7404,-19.7063,34.8563,14.8500,
5.245431,2.8383,-0.3174,-3.1782,-1.2903,-5.5958,-2.0715,-19.7063,34.8563,14.8500,
5.256385,2.8383,-0.3174,-3.1782,-1.2903,-5.5958,-2.0715,-19.2188,34.2188,16.5750,
5.303544,2.8383,-0.3174,-3.1782,-1.2903,-5.5958,-2.0715,-19.2188,34.2188,16.5750,
5.305163,2.6658,0.0172,-0.6051,-1.2903,-5.5958,-2.0715,-19.2188,34.2188,16.5750,
5.306231,2.6658,0.0172,-0.6051,-2.3191,-4.2194,-3.2441,-19.2188,34.2188,16.5750,
5.314880,2.6658,0.0172,-0.6051,-2.3191,-4.2194,-3.2441,-18.3000,32.4938,19.6125,
5.365733,2.6658,0.0172,-0.6051,-3.4345,-5.1697,-3.7315,-18.3000,32.4938,19.6125,
5.367888,2.6658,0.0172,-0.6051,-3.4345,-5.1697,-3.7315,-18.3000,32.4938,19.6125,
5.368963,3.5411,0.6081,-2.3213,-3.4345,-5.1697,-3.7315,-18.3000,32.4938,19.6125,
5.375623,3.5411,0.6081,-2.3213,-3.4345,-5.1697,-3.7315,-16.2188,29.9063,23.2125,
5.424840,3.5411,0.6081,-2.3213,-2.6252,-4.8418,-1.2309,-16.2188,29.9063,23.2125,
5.426597,3.5411,0.6081,-2.3213,-2.6252,-4.8418,-1.2309,-16.2188,29.9063,23.2125,
5.434099,3.5411,0.6081,-2.3213,-2.6252,-4.8418,-1.2309,-12.9188,25.9125,27.0750,
5.445375,-1.4637,-1.2494,-2.4281,-2.6252,-4.8418,-1.2309,-12.9188,25.9125,27.0750,
5.485707,-1.4637,-1.2494,-2.4281,-0.8732,-5.5884,0.6385,-12.9188,25.9125,27.0750,
5.487298,-1.4637,-1.2494,-2.4281,-0.8732,-5.5884,0.6385,-12.9188,25.9125,27.0750,
5.494718,-1.4637,-1.2494,-2.4281,-0.8732,-5.5884,0.6385,-8.3063,21.1875,30.3563,
5.505948,-0.5591,-0.9967,0.5597,-0.8732,-5.5884,0.6385,-8.3063,21.1875,30.3563,
5.546608,-0.5591,-0.9967,0.5597,-0.3975,-7.8298,0.1398,-8.3063,21.1875,30.3563,
5.548506,-0.5591,-0.9967,0.5597,-0.3975,-7.8298,0.1398,-8.3063,21.1875,30.3563,
5.554342,-0.5591,-0.9967,0.5597,-0.3975,-7.8298,0.1398,-1.6875,16.1813,32.0625,
5.567468,-0.1709,-0.1707,-2.9717,-0.3975,-7.8298,0.1398,-1.6875,16.1813,32.0625,
5.608735,-0.1709,-0.1707,-2.9717,-2.5030,-1.2573,0.1475,-1.6875,16.1813,32.0625,
5.610676,-0.1709,-0.1707,-2.9717,-2.5030,-1.2573,0.1475,-1.6875,16.1813,32.0625,
5.614732,-0.1709,-0.1707,-2.9717,-2.5030,-1.2573,0.1475,5.4750,11.1750,32.6250,
5.648311,2.3179,-1.0641,-1.4095,-2.5030,-1.2573,0.1475,5.4750,11.1750,32.6250,
5.668235,2.3179,-1.0641,-1.4095,-2.5030,-1.2573,0.1475,5.4750,11.1750,32.6250,
5.670148,2.3179,-1.0641,-1.4095,-1.4785,-2.6106,-0.1212,5.4750,11.1750,32.6250,
5.675431,2.3179,-1.0641,-1.4095,-1.4785,-2.6106,-0.1212,13.2563,6.1313,31.5000,
5.709948,-0.6721,-1.8244,1.8288,-1.4785,-2.6106,-0.1212,13.2563,6.1313,31.5000,
5.729608,-0.6721,-1.8244,1.8288,-0.3602,-1.4239,0.1192,13.2563,6.1313,31.5000,
5.730937,-0.6721,-1.8244,1.8288,-0.3602,-1.4239,0.1192,13.2563,6.1313,31.5000,
5.734302,-0.6721,-1.8244,1.8288,-0.3602,-1.4239,0.1192,20.6063,1.3688,28.5938,
5.771365,-0.2466,-0.3381,0.2843,-0.3602,-1.4239,0.1192,20.6063,1.3688,28.5938,
5.790734,-0.2466,-0.3381,0.2843,0.4285,-0.4198,1.0887,20.6063,1.3688,28.5938,
5.793142,-0.2466,-0.3381,0.2843,0.4285,-0.4198,1.0887,20.6063,1.3688,28.5938,
5.795252,-0.2466,-0.3381,0.2843,0.4285,-0.4198,1.0887,27.4313,-2.6625,24.4875,
5.831585,-0.1139,-0.9682,0.9528,0.4285,-0.4198,1.0887,27.4313,-2.6625,24.4875,
5.851748,-0.1139,-0.9682,0.9528,0.1783,-0.8756,1.0493,27.4313,-2.6625,24.4875,
5.854721,-0.1139,-0.9682,0.9528,0.1783,-0.8756,1.0493,27.4313,-2.6625,24.4875,
5.855809,-0.1139,-0.9682,0.9528,0.1783,-0.8756,1.0493,33.3563,-5.7750,19.1438,
5.914466,-0.1139,-0.9682,0.9528,-0.0542,-0.4908,0.6872,33.3563,-5.7750,19.1438,
5.917002,-0.1139,-0.9682,0.9528,-0.0542,-0.4908,0.6872,33.3563,-5.7750,19.1438,
5.918006,1.1499,-1.2274,0.1358,-0.0542,-0.4908,0.6872,33.3563,-5.7750,19.1438,
5.919810,1.1499,-1.2274,0.1358,-0.0542,-0.4908,0.6872,37.6875,-8.0813,13.6125,
5.975429,1.1499,-1.2274,0.1358,0.0530,-0.2643,0.1266,37.6875,-8.0813,13.6125,
5.977450,1.1499,-1.2274,0.1358,0.0530,-0.2643,0.1266,37.6875,-8.0813,13.6125,
5.978240,1.1499,-1.2274,0.1358,0.0530,-0.2643,0.1266,40.2188,-10.0688,8.5125,
5.979122,2.2073,-1.1517,-0.2711,0.0530,-0.2643,0.1266,40.2188,-10.0688,8.5125,
6.036061,2.2073,-1.1517,-0.2711,0.0530,-0.2643,0.1266,40.9500,-11.7750,5.0063,
6.039841,2.2073,-1.1517,-0.2711,0.0360,-0.0794,0.4635,40.9500,-11.7750,5.0063,
6.041539,2.2073,-1.1517,-0.2711,0.0360,-0.0794,0.4635,40.9500,-11.7750,5.0063,
6.042629,1.0200,-1.1382,0.4452,0.0360,-0.0794,0.4635,40.9500,-11.7750,5.0063,
6.097012,1.0200,-1.1382,0.4452,0.0360,-0.0794,0.4635,40.9688,-13.5375,2.3625,
6.099104,1.0200,-1.1382,0.4452,-0.0710,-0.2523,0.2875,40.9688,-13.5375,2.3625,
6.100209,1.0200,-1.1382,0.4452,-0.0710,-0.2523,0.2875,40.9688,-13.5375,2.3625,
6.115953,0.0179,-0.4067,0.0742,-0.0710,-0.2523,0.2875,40.9688,-13.5375,2.3625,
6.155738,0.0179,-0.4067,0.0742,-0.0710,-0.2523,0.2875,40.9875,-14.8688,0.6375,
6.158214,0.0179,-0.4067,0.0742,-0.0425,0.0044,0.3336,40.9875,-14.8688,0.6375,
6.159100,0.0179,-0.4067,0.0742,-0.0425,0.0044,0.3336,40.9875,-14.8688,0.6375,
6.175318,0.9441,-0.2612,0.9191,-0.0425,0.0044,0.3336,40.9875,-14.8688,0.6375,
6.214394,0.9441,-0.2612,0.9191,-0.0425,0.0044,0.3336,40.2750,-15.6375,-0.8813,
6.216303,0.9441,-0.2612,0.9191,-0.0425,0.0044,0.3336,40.2750,-15.6375,-0.8813,
6.217490,0.9441,-0.2612,0.9191,-0.0699,0.1787,0.1727,40.2750,-15.6375,-0.8813,
6.236280,1.0008,-0.1360,0.5979,-0.0699,0.1787,0.1727,40.2750,-15.6375,-0.8813,
6.275549,1.0008,-0.1360,0.5979,-0.0699,0.1787,0.1727,40.0688,-16.8938,-1.7063,
6.279525,1.0008,-0.1360,0.5979,0.0278,0.3732,-0.1265,40.0688,-16.8938,-1.7063,
6.281325,1.0008,-0.1360,0.5979,0.0278,0.3732,-0.1265,40.0688,-16.8938,-1.7063,
6.298971,0.9930,-0.1406,0.9697,0.0278,0.3732,-0.1265,40.0688,-16.8938,-1.7063,
6.335319,0.9930,-0.1406,0.9697,0.0278,0.3732,-0.1265,39.7313,-17.8125,-1.8375,
6.339588,0.9930,-0.1406,0.9697,-0.0908,0.4278,-0.2599,39.7313,-17.8125,-1.8375,
6.343887,0.9930,-0.1406,0.9697,-0.0908,0.4278,-0.2599,39.7313,-17.8125,-1.8375,
6.379166,0.4226,0.1609,0.3474,-0.0908,0.4278,-0.2599,39.7313,-17.8125,-1.8375,
6.395351,0.4226,0.1609,0.3474,-0.0908,0.4278,-0.2599,39.5438,-18.2250,-1.8750,
6.398575,0.4226,0.1609,0.3474,-0.2985,0.4190,-0.4517,39.5438,-18.2250,-1.8750,
6.399468,0.4226,0.1609,0.3474,-0.2985,0.4190,-0.4517,39.5438,-18.2250,-1.8750,
6.442512,0.2818,0.3482,0.5994,-0.2985,0.4190,-0.4517,39.5438,-18.2250,-1.8750,
6.455020,0.2818,0.3482,0.5994,-0.2985,0.4190,-0.4517,39.6000,-18.4688,-1.5563,
6.460112,0.2818,0.3482,0.5994,-0.7895,0.5848,-0.6931,39.6000,-18.4688,-1.5563,
6.460933,0.2818,0.3482,0.5994,-0.7895,0.5848,-0.6931,39.6000,-18.4688,-1.5563,
6.501716,0.2796,0.8084,0.3799,-0.7895,0.5848,-0.6931,39.6000,-18.4688,-1.5563,
6.514211,0.2796,0.8084,0.3799,-0.7895,0.5848,-0.6931,39.7875,-18.4125,-1.0500,
6.522160,0.2796,0.8084,0.3799,-0.6346,0.6991,-0.7709,39.7875,-18.4125,-1.0500,
6.523816,0.2796,0.8084,0.3799,-0.6346,0.6991,-0.7709,39.7875,-18.4125,-1.0500,
6.578134,0.2796,0.8084,0.3799,-0.6346,0.6991,-0.7709,40.0312,-17.8875,-0.4875,
6.583841,0.2796,0.8084,0.3799,-0.5370,0.8280,-0.9646,40.0312,-17.8875,-0.4875,
6.586737,0.0174,0.5753,1.4544,-0.5370,0.8280,-0.9646,40.0312,-17.8875,-0.4875,
6.588269,0.0174,0.5753,1.4544,-0.5370,0.8280,-0.9646,40.0312,-17.8875,-0.4875,
6.635359,0.0174,0.5753,1.4544,-0.5370,0.8280,-0.9646,40.1063,-17.0438,0.4500,
6.643953,0.0174,0.5753,1.4544,-0.1164,0.6362,-0.9533,40.1063,-17.0438,0.4500,
6.645080,0.2142,0.4423,0.3565,-0.1164,0.6362,-0.9533,40.1063,-17.0438,0.4500,
6.645669,0.2142,0.4423,0.3565,-0.1164,0.6362,-0.9533,40.1063,-17.0438,0.4500,
6.695502,0.2142,0.4423,0.3565,-0.1164,0.6362,-0.9533,40.5188,-15.8438,1.6875,
6.705712,0.2142,0.4423,0.3565,0.1613,0.6053,-0.7530,40.5188,-15.8438,1.6875,
6.707227,0.2142,0.4423,0.3565,0.1613,0.6053,-0.7530,40.5188,-15.8438,1.6875,
6.708112,-0.1009,0.1210,0.8980,0.1613,0.6053,-0.7530,40.5188,-15.8438,1.6875,
6.755047,-0.1009,0.1210,0.8980,0.1613,0.6053,-0.7530,40.7625,-14.4563,2.9625,
6.764645,-0.1009,0.1210,0.8980,0.1431,0.6320,-0.5511,40.7625,-14.4563,2.9625,
6.765771,-0.0703,0.3651,0.2872,0.1431,0.6320,-0.5511,40.7625,-14.4563,2.9625,
6.766425,-0.0703,0.3651,0.2872,0.1431,0.6320,-0.5511,40.7625,-14.4563,2.9625,
6.817063,-0.0703,0.3651,0.2872,0.1431,0.6320,-0.5511,41.1562,-12.8813,4.1813,
6.825584,-0.0703,0.3651,0.2872,-0.1441,0.8397,-0.6266,41.1562,-12.8813,4.1813,
6.829439,-0.0703,0.3651,0.2872,-0.1441,0.8397,-0.6266,41.1562,-12.8813,4.1813,
6.846017,0.5099,0.1689,0.3568,-0.1441,0.8397,-0.6266,41.1562,-12.8813,4.1813,
6.874137,0.5099,0.1689,0.3568,-0.1441,0.8397,-0.6266,41.4563,-11.2125,5.6625,
6.885829,0.5099,0.1689,0.3568,-0.1441,0.8397,-0.6266,41.4563,-11.2125,5.6625,
6.887117,0.5099,0.1689,0.3568,-0.6272,1.0456,-0.9079,41.4563,-11.2125,5.6625,
6.907039,0.7241,0.1810,0.7253,-0.6272,1.0456,-0.9079,41.4563,-11.2125,5.6625,
6.935322,0.7241,0.1810,0.7253,-0.6272,1.0456,-0.9079,41.4750,-9.4313,7.2375,
6.947765,0.7241,0.1810,0.7253,-0.1043,1.1282,-0.9806,41.4750,-9.4313,7.2375,
6.949479,0.7241,0.1810,0.7253,-0.1043,1.1282,-0.9806,41.4750,-9.4313,7.2375,
6.969223,0.6735,0.2255,0.6939,-0.1043,1.1282,-0.9806,41.4750,-9.4313,7.2375,
6.996226,0.6735,0.2255,0.6939,-0.1043,1.1282,-0.9806,41.2875,-7.7063,9.0188,
7.008673,0.6735,0.2255,0.6939,-0.0744,0.9948,-0.9465,41.2875,-7.7063,9.0188,
7.010214,0.6735,0.2255,0.6939,-0.0744,0.9948,-0.9465,41.2875,-7.7063,9.0188,
7.049301,0.5598,-0.0210,0.3418,-0.0744,0.9948,-0.9465,41.2875,-7.7063,9.0188,
7.054607,0.5598,-0.0210,0.3418,-0.0744,0.9948,-0.9465,40.9688,-5.8688,11.0625,
7.070118,0.5598,-0.0210,0.3418,0.1382,0.8380,-0.7935,40.9688,-5.8688,11.0625,
7.072072,0.5598,-0.0210,0.3418,0.1382,0.8380,-0.7935,40.9688,-5.8688,11.0625,
7.110673,0.6870,0.0017,0.3805,0.1382,0.8380,-0.7935,40.9688,-5.8688,11.0625,
7.115093,0.6870,0.0017,0.3805,0.1382,0.8380,-0.7935,40.2188,-4.1250,13.0688,
7.129934,0.6870,0.0017,0.3805,0.1233,0.8866,-0.8103,40.2188,-4.1250,13.0688,
7.131749,0.6870,0.0017,0.3805,0.1233,0.8866,-0.8103,40.2188,-4.1250,13.0688,
7.172018,1.1796,0.1253,-0.0085,0.1233,0.8866,-0.8103,40.2188,-4.1250,13.0688,
7.174936,1.1796,0.1253,-0.0085,0.1233,0.8866,-0.8103,39.5250,-2.5312,15.4688,
7.191870,1.1796,0.1253,-0.0085,0.1059,0.7470,-0.7276,39.5250,-2.5312,15.4688,
7.193862,1.1796,0.1253,-0.0085,0.1059,0.7470,-0.7276,39.5250,-2.5312,15.4688,
7.232301,0.9537,0.1863,0.1820,0.1059,0.7470,-0.7276,39.5250,-2.5312,15.4688,
7.236675,0.9537,0.1863,0.1820,0.1059,0.7470,-0.7276,38.7188,-0.7500,17.5125,
7.252196,0.9537,0.1863,0.1820,0.1059,0.7470,-0.7276,38.7188,-0.7500,17.5125,
7.253736,0.9537,0.1863,0.1820,0.0115,0.3076,-0.5791,38.7188,-0.7500,17.5125,
7.295957,0.9537,0.1863,0.1820,0.0115,0.3076,-0.5791,37.7063,1.0875,19.5188,
7.314563,0.9537,0.1863,0.1820,-0.0595,0.9625,-1.1900,37.7063,1.0875,19.5188,
7.316034,0.9537,0.1863,0.1820,-0.0595,0.9625,-1.1900,37.7063,1.0875,19.5188,
7.316623,1.1227,0.2432,-0.6283,-0.0595,0.9625,-1.1900,37.7063,1.0875,19.5188,
7.355408,1.1227,0.2432,-0.6283,-0.0595,0.9625,-1.1900,36.4688,2.8875,21.5625,
7.375729,1.1227,0.2432,-0.6283,0.0338,1.0918,-1.1280,36.4688,2.8875,21.5625,
7.378358,1.1227,0.2432,-0.6283,0.0338,1.0918,-1.1280,36.4688,2.8875,21.5625,
7.379584,1.1730,0.2259,-0.1098,0.0338,1.0918,-1.1280,36.4688,2.8875,21.5625,
7.421898,1.1730,0.2259,-0.1098,0.0338,1.0918,-1.1280,35.0250,4.8375,23.6625,
7.435805,1.1730,0.2259,-0.1098,-0.1117,1.2593,-1.2273,35.0250,4.8375,23.6625,
7.438074,0.6635,0.1878,0.0906,-0.1117,1.2593,-1.2273,35.0250,4.8375,23.6625,
7.439086,0.6635,0.1878,0.0906,-0.1117,1.2593,-1.2273,35.0250,4.8375,23.6625,
7.475572,0.6635,0.1878,0.0906,-0.1117,1.2593,-1.2273,33.1500,6.7125,25.5563,
7.496252,0.6635,0.1878,0.0906,0.2103,1.0558,-1.1063,33.1500,6.7125,25.5563,
7.498847,0.6635,0.1878,0.0906,0.2103,1.0558,-1.1063,33.1500,6.7125,25.5563,
7.515763,0.4987,-0.0049,0.0310,0.2103,1.0558,-1.1063,33.1500,6.7125,25.5563,
7.534691,0.4987,-0.0049,0.0310,0.2103,1.0558,-1.1063,31.1625,8.7000,27.3188,
7.556846,0.4987,-0.0049,0.0310,0.2103,1.0558,-1.1063,31.1625,8.7000,27.3188,
7.558207,0.4987,-0.0049,0.0310,0.0302,0.7119,-1.0932,31.1625,8.7000,27.3188,
7.577422,-0.6429,-0.0006,-0.3777,0.0302,0.7119,-1.0932,31.1625,8.7000,27.3188,
7.595139,-0.6429,-0.0006,-0.3777,0.0302,0.7119,-1.0932,29.1000,10.5938,29.0063,
7.617745,-0.6429,-0.0006,-0.3777,0.2071,0.7140,-0.8844,29.1000,10.5938,29.0063,
7.619627,-0.6429,-0.0006,-0.3777,0.2071,0.7140,-0.8844,29.1000,10.5938,29.0063,
7.638984,-0.1514,-0.3131,-0.1727,0.2071,0.7140,-0.8844,29.1000,10.5938,29.0063,
7.655155,-0.1514,-0.3131,-0.1727,0.2071,0.7140,-0.8844,26.7750,12.3188,30.5438,
7.678530,-0.1514,-0.3131,-0.1727,0.2071,0.7140,-0.8844,26.7750,12.3188,30.5438,
7.680162,-0.1514,-0.3131,-0.1727,0.1949,0.6831,-0.6281,26.7750,12.3188,30.5438,
7.699026,0.2894,-0.2694,-0.3110,0.1949,0.6831,-0.6281,26.7750,12.3188,30.5438,
7.715871,0.2894,-0.2694,-0.3110,0.1949,0.6831,-0.6281,24.3750,14.1000,31.9688,
7.740462,0.2894,-0.2694,-0.3110,0.1949,0.6831,-0.6281,24.3750,14.1000,31.9688,
7.741797,0.2894,-0.2694,-0.3110,0.4431,0.7406,-0.0455,24.3750,14.1000,31.9688,
7.774113,0.2894,-0.2694,-0.3110,0.4431,0.7406,-0.0455,21.9750,15.9375,33.0000,
7.779478,-0.5897,-0.3778,-0.1116,0.4431,0.7406,-0.0455,21.9750,15.9375,33.0000,
7.799499,-0.5897,-0.3778,-0.1116,0.5180,0.3242,0.0474,21.9750,15.9375,33.0000,
7.800750,-0.5897,-0.3778,-0.1116,0.5180,0.3242,0.0474,21.9750,15.9375,33.0000,
7.834115,-0.5897,-0.3778,-0.1116,0.5180,0.3242,0.0474,19.6875,17.5500,34.0688,
7.840010,0.1244,-0.8590,-0.9521,0.5180,0.3242,0.0474,19.6875,17.5500,34.0688,
