time,ax,ay,az,wx,wy,wz,Bx,By,Bz,Unnamed: 10,time_diff,acc_mag,acc_mag_filtered,label
0.024201,0.0,0.0,0.0,0.0362,-0.0208,0.0181,0.0,0.0,0.0,,0.0,0.0,0.00034033831838501267,non_fall
0.044671,0.0,0.0,0.0,0.0362,-0.0208,0.0181,0.0,0.0,0.0,,0.020470000000000002,0.0,0.007870817215137488,non_fall
0.056955,0.0,0.0,0.0,0.0362,-0.0208,0.0181,0.0,0.0,0.0,,0.012283999999999996,0.0,0.015915752273567105,non_fall
0.061576,0.0,0.0,0.0,0.0362,-0.0208,0.0181,43.44,-13.38,1.32,,0.004621,0.0,0.024956376010254903,non_fall
0.065433,0.0,0.0,0.0,0.0362,-0.0208,0.0181,43.44,-13.38,1.32,,0.0038570000000000063,0.0,0.035333151135885456,non_fall
0.0855,0.0,0.0,0.0,-0.0501,-0.1795,-0.0277,43.44,-13.38,1.32,,0.020067,0.0,0.04719834624733688,non_fall
0.10619,0.0,0.0,0.0,-0.024,0.0644,-0.0085,43.44,-13.38,1.32,,0.02069,0.0,0.06049463191162376,non_fall
0.119077,0.0,0.0,0.0,-0.024,0.0644,-0.0085,43.44,-13.38,1.32,,0.012886999999999996,0.0,0.07496333292843546,non_fall
0.119646,-0.1165,-0.113,0.0203,-0.024,0.0644,-0.0085,43.44,-13.38,1.32,,0.0005690000000000001,0.16356448269719195,0.0901815048627375,non_fall
0.123618,-0.1165,-0.113,0.0203,-0.024,0.0644,-0.0085,32.64,-5.1,22.56,,0.003972000000000003,0.16356448269719195,0.1056217062543374,non_fall
0.126953,-0.1165,-0.113,0.0203,0.0069,0.0682,-0.0293,32.64,-5.1,22.56,,0.0033350000000000046,0.16356448269719195,0.12072363996515056,non_fall
0.14724,-0.1165,-0.113,0.0203,0.032,0.1321,-0.0288,32.64,-5.1,22.56,,0.020287,0.16356448269719195,0.13496482582136898,non_fall
0.168149,-0.1165,-0.113,0.0203,0.0794,0.131,-0.0234,32.64,-5.1,22.56,,0.020908999999999983,0.16356448269719195,0.1479191685372735,non_fall
0.180902,-0.1165,-0.113,0.0203,0.0794,0.131,-0.0234,32.64,-5.1,22.56,,0.012753000000000014,0.16356448269719195,0.15929656965989245,non_fall
0.181349,-0.1309,0.0512,0.0951,0.0794,0.131,-0.0234,32.64,-5.1,22.56,,0.00044700000000000295,0.1697063935153888,0.1689614269560652,non_fall
0.184942,-0.1309,0.0512,0.0951,0.0794,0.131,-0.0234,27.84,-1.5,32.4,,0.003592999999999985,0.1697063935153888,0.17693150429008184,non_fall
0.187923,-0.1309,0.0512,0.0951,0.1166,0.1656,-0.0096,27.84,-1.5,32.4,,0.0029810000000000114,0.1697063935153888,0.18336088892405747,non_fall
0.208965,-0.1309,0.0512,0.0951,0.0756,0.2503,0.0123,27.84,-1.5,32.4,,0.021042000000000005,0.1697063935153888,0.18851176228412603,non_fall
0.228817,-0.1309,0.0512,0.0951,0.0373,0.1539,0.0107,27.84,-1.5,32.4,,0.01985199999999998,0.1697063935153888,0.19271972979655916,non_fall
0.241905,-0.1309,0.0512,0.0951,0.0373,0.1539,0.0107,27.84,-1.5,32.4,,0.013088000000000016,0.1697063935153888,0.19635663720721264,non_fall
0.242274,-0.1545,-0.0725,0.165,0.0373,0.1539,0.0107,27.84,-1.5,32.4,,0.00036899999999998045,0.23738470885884794,0.19979327201676772,non_fall
0.246007,-0.1545,-0.0725,0.165,0.0373,0.1539,0.0107,22.62,2.22,41.58,,0.003733000000000014,0.23738470885884794,0.20336242815116318,non_fall
0.249689,-0.1545,-0.0725,0.165,0.0506,0.0378,0.0096,22.62,2.22,41.58,,0.003681999999999991,0.23738470885884794,0.2073212454219171,non_fall
0.270041,-0.1545,-0.0725,0.165,0.0224,-0.0165,0.0346,22.62,2.22,41.58,,0.02035199999999998,0.23738470885884794,0.21181150648691263,non_fall
0.290851,-0.1545,-0.0725,0.165,-0.0181,-0.0309,0.066,22.62,2.22,41.58,,0.02081000000000005,0.23738470885884794,0.21681817039307638,non_fall
0.302957,-0.1545,-0.0725,0.165,-0.0181,-0.0309,0.066,22.62,2.22,41.58,,0.01210599999999995,0.23738470885884794,0.22212937843771693,non_fall
0.303269,-0.0406,0.155,0.0852,-0.0181,-0.0309,0.066,22.62,2.22,41.58,,0.00031200000000003447,0.18147286298507553,0.22730450816434836,non_fall
0.307616,-0.0406,0.155,0.0852,-0.0181,-0.0309,0.066,23.1,1.98,40.26,,0.00434699999999999,0.18147286298507553,0.23165968493413622,non_fall
0.312069,-0.0406,0.155,0.0852,-0.0506,-0.1214,0.0581,23.1,1.98,40.26,,0.004452999999999985,0.18147286298507553,0.23428167825278676,non_fall
0.332886,-0.0406,0.155,0.0852,-0.0655,-0.0591,0.0389,23.1,1.98,40.26,,0.02081700000000003,0.18147286298507553,0.2340805122672769,non_fall
0.352152,-0.0406,0.155,0.0852,-0.0245,-0.0666,0.0453,23.1,1.98,40.26,,0.019266000000000005,0.18147286298507553,0.2298880738495907,non_fall
0.364705,-0.0406,0.155,0.0852,-0.0245,-0.0666,0.0453,23.1,1.98,40.26,,0.01255299999999998,0.18147286298507553,0.2206050138758375,non_fall
0.365087,-0.0101,0.0035,-0.1227,-0.0245,-0.0666,0.0453,23.1,1.98,40.26,,0.00038199999999999346,0.12316472709343369,0.20539227044761543,non_fall
0.369137,-0.0101,0.0035,-0.1227,-0.0245,-0.0666,0.0453,23.94,2.22,40.26,,0.004049999999999998,0.12316472709343369,0.18389729691604162,non_fall
0.376042,-0.0101,0.0035,-0.1227,0.0389,0.0218,0.0458,23.94,2.22,40.26,,0.0069049999999999945,0.12316472709343369,0.1564986615081574,non_fall
0.393293,-0.0101,0.0035,-0.1227,0.0261,0.2264,0.0916,23.94,2.22,40.26,,0.017251000000000016,0.12316472709343369,0.1245459331466081,non_fall
0.413766,-0.0101,0.0035,-0.1227,0.0107,0.1337,0.0463,23.94,2.22,40.26,,0.02047300000000002,0.12316472709343369,0.09056495785793404,non_fall
0.426802,-0.0101,0.0035,-0.1227,0.0107,0.1337,0.0463,23.94,2.22,40.26,,0.013035999999999992,0.12316472709343369,0.0583928437100044,non_fall
0.427196,0.0108,-0.2773,0.168,0.0107,0.1337,0.0463,23.94,2.22,40.26,,0.00039400000000000546,0.3244008785438165,0.03320370792219398,non_fall
0.431749,0.0108,-0.2773,0.168,0.0107,0.1337,0.0463,24.0,1.8,39.96,,0.004552999999999974,0.3244008785438165,0.02138716345380092,non_fall
0.434644,0.0108,-0.2773,0.168,0.0085,0.041,0.0298,24.0,1.8,39.96,,0.002894999999999981,0.3244008785438165,0.03024887042797925,non_fall
0.454678,0.0108,-0.2773,0.168,0.0261,0.0522,0.0437,24.0,1.8,39.96,,0.020034000000000052,0.3244008785438165,0.0675186193970079,non_fall
0.476415,0.0108,-0.2773,0.168,0.073,0.1497,0.0298,24.0,1.8,39.96,,0.02173699999999995,0.3244008785438165,0.14067670412008124,non_fall
0.487923,0.0108,-0.2773,0.168,0.073,0.1497,0.0298,24.0,1.8,39.96,,0.011508000000000018,0.3244008785438165,0.25614066012917,non_fall
0.488287,0.0378,-0.0376,-0.3777,0.073,0.1497,0.0298,24.0,1.8,39.96,,0.00036400000000003097,0.38144447826649686,0.4183864929707568,non_fall
0.492433,0.0378,-0.0376,-0.3777,0.073,0.1497,0.0298,24.12,1.56,39.42,,0.004145999999999983,0.38144447826649686,0.6291060662022007,non_fall
0.495927,0.0378,-0.0376,-0.3777,0.1161,0.4906,-0.0607,24.12,1.56,39.42,,0.003493999999999997,0.38144447826649686,0.886520928115125,non_fall
0.516855,0.0378,-0.0376,-0.3777,0.1438,0.7989,-0.1172,24.12,1.56,39.42,,0.020927999999999947,0.38144447826649686,1.1849782060587977,non_fall
0.536817,0.0378,-0.0376,-0.3777,0.4634,0.7878,-0.6701,24.12,1.56,39.42,,0.019962000000000035,0.38144447826649686,1.5149412226351133,non_fall
0.549345,0.0378,-0.0376,-0.3777,0.4634,0.7878,-0.6701,24.12,1.56,39.42,,0.012527999999999984,0.38144447826649686,1.8634502212709914,non_fall
0.549774,-0.3848,3.3834,0.1789,0.4634,0.7878,-0.6701,24.12,1.56,39.42,,0.0004290000000000127,3.409907888785267,2.21506240491697,non_fall
0.553895,-0.3848,3.3834,0.1789,0.4634,0.7878,-0.6701,23.94,1.38,40.32,,0.004121000000000041,3.409907888785267,2.553190466909985,non_fall
0.558088,-0.3848,3.3834,0.1789,0.1316,0.2141,-0.7121,23.94,1.38,40.32,,0.004193000000000002,3.409907888785267,2.861670514315538,non_fall
0.577985,-0.3848,3.3834,0.1789,0.1816,-0.0602,-0.5603,23.94,1.38,40.32,,0.019896999999999943,3.409907888785267,3.1263427053063166,non_fall
0.598388,-0.3848,3.3834,0.1789,-0.0149,-0.2349,-0.5816,23.94,1.38,40.32,,0.02040300000000006,3.409907888785267,3.33644128418258,non_fall
0.611048,-0.3848,3.3834,0.1789,-0.0149,-0.2349,-0.5816,23.94,1.38,40.32,,0.012660000000000005,3.409907888785267,3.4856461224333253,non_fall
0.611402,1.2774,3.7864,-0.2543,-0.0149,-0.2349,-0.5816,23.94,1.38,40.32,,0.00035399999999996545,4.004153369939768,3.57270809108606,non_fall
0.615499,1.2774,3.7864,-0.2543,-0.0149,-0.2349,-0.5816,23.34,1.86,40.62,,0.004097000000000017,4.004153369939768,3.6016033486973025,non_fall
0.618982,1.2774,3.7864,-0.2543,-0.4469,-0.473,-0.8591,23.34,1.86,40.62,,0.003483000000000014,4.004153369939768,3.5811986507875404,non_fall
0.639612,1.2774,3.7864,-0.2543,-0.7846,-0.4469,-1.3694,23.34,1.86,40.62,,0.020629999999999926,4.004153369939768,3.5244345780509696,non_fall
0.660032,1.2774,3.7864,-0.2543,-1.0109,-0.8634,-1.9505,23.34,1.86,40.62,,0.020419999999999994,4.004153369939768,3.447067228907813,non_fall
0.673215,1.2774,3.7864,-0.2543,-1.0109,-0.8634,-1.9505,23.34,1.86,40.62,,0.013183000000000056,4.004153369939768,3.366054020105059,non_fall
0.673598,2.0639,1.0193,-0.3577,-1.0109,-0.8634,-1.9505,23.34,1.86,40.62,,0.0003830000000000222,2.329507456523803,3.29772255155526,non_fall
0.677469,2.0639,1.0193,-0.3577,-1.0109,-0.8634,-1.9505,22.92,2.94,41.04,,0.003870999999999958,2.329507456523803,3.2559157744577125,non_fall
0.68161,2.0639,1.0193,-0.3577,-1.2991,-1.282,-2.3393,22.92,2.94,41.04,,0.004141000000000061,2.329507456523803,3.2503461658350425,non_fall
0.701578,2.0639,1.0193,-0.3577,-1.1686,-1.1239,-2.3974,22.92,2.94,41.04,,0.019967999999999986,2.329507456523803,3.285393836056767,non_fall
0.722484,2.0639,1.0193,-0.3577,-0.7808,-0.7302,-2.1417,22.92,2.94,41.04,,0.02090599999999998,2.329507456523803,3.3595358749630497,non_fall
0.734227,2.0639,1.0193,-0.3577,-0.7808,-0.7302,-2.1417,22.92,2.94,41.04,,0.011742999999999948,2.329507456523803,3.4655053178424775,non_fall
0.734568,-1.8291,-4.0456,0.5039,-0.7808,-0.7302,-2.1417,22.92,2.94,41.04,,0.0003410000000000357,4.468377936119549,3.5911677303816156,non_fall
0.739999,-1.8291,-4.0456,0.5039,-0.7808,-0.7302,-2.1417,22.92,3.84,41.16,,0.005430999999999964,4.468377936119549,3.720990669054904,non_fall
0.742331,-1.8291,-4.0456,0.5039,-0.5987,-0.8123,-1.6874,22.92,3.84,41.16,,0.0023320000000000007,4.468377936119549,3.8378883538751434,non_fall
0.762542,-1.8291,-4.0456,0.5039,-0.7569,-1.1766,-0.3691,22.92,3.84,41.16,,0.02021100000000009,4.468377936119549,3.9251771879359536,non_fall
0.783177,-1.8291,-4.0456,0.5039,-0.5454,-1.0876,0.759,22.92,3.84,41.16,,0.02063499999999996,4.468377936119549,3.9683897130271686,non_fall
0.795579,-1.8291,-4.0456,0.5039,-0.5454,-1.0876,0.759,22.92,3.84,41.16,,0.012402000000000024,4.468377936119549,3.9567504013013504,non_fall
0.795891,2.7277,-2.3114,1.1076,-0.5454,-1.0876,0.759,22.92,3.84,41.16,,0.00031199999999997896,3.742952712765685,3.884188607312963,non_fall
0.800494,2.7277,-2.3114,1.1076,-0.5454,-1.0876,0.759,23.52,4.62,41.4,,0.004603000000000024,3.742952712765685,3.7498323163175593,non_fall
0.803624,2.7277,-2.3114,1.1076,-0.1917,-0.2461,0.2599,23.52,4.62,41.4,,0.003129999999999966,3.742952712765685,3.5579817919961476,non_fall
0.82447,2.7277,-2.3114,1.1076,0.0836,0.6163,-0.2439,23.52,4.62,41.4,,0.02084600000000003,3.742952712765685,3.3176002268645415,non_fall
0.84523,2.7277,-2.3114,1.1076,0.4165,1.3934,-0.4027,23.52,4.62,41.4,,0.02076,3.742952712765685,3.0413810416511495,non_fall
0.857493,2.7277,-2.3114,1.1076,0.4165,1.3934,-0.4027,23.52,4.62,41.4,,0.012262999999999913,3.742952712765685,2.7444705033949646,non_fall
0.857978,-0.0946,1.0114,0.3542,0.4165,1.3934,-0.4027,23.52,4.62,41.4,,0.0004850000000000687,1.075795872830901,2.442954921361028,non_fall
0.861972,-0.0946,1.0114,0.3542,0.4165,1.3934,-0.4027,24.48,4.56,40.98,,0.003993999999999942,1.075795872830901,2.1522673829194265,non_fall
0.865495,-0.0946,1.0114,0.3542,0.506,0.7878,0.0927,24.48,4.56,40.98,,0.003523000000000054,1.075795872830901,1.8857106206812173,non_fall
0.886525,-0.0946,1.0114,0.3542,0.4112,-0.1028,0.4032,24.48,4.56,40.98,,0.021029999999999993,1.075795872830901,1.6532968584082275,non_fall
0.906928,-0.0946,1.0114,0.3542,0.1449,-0.2269,0.0969,24.48,4.56,40.98,,0.02040299999999995,1.075795872830901,1.4610549632066927,non_fall
0.919373,-0.0946,1.0114,0.3542,0.1449,-0.2269,0.0969,24.48,4.56,40.98,,0.01244500000000004,1.075795872830901,1.3108668932550245,non_fall
0.919957,-1.372,-0.5189,-0.3187,0.1449,-0.2269,0.0969,24.48,4.56,40.98,,0.0005840000000000289,1.5010699184248548,1.2008029766859112,non_fall
0.92388,-1.372,-0.5189,-0.3187,0.1449,-0.2269,0.0969,24.84,4.56,40.8,,0.00392300000000001,1.5010699184248548,1.1258524550119164,non_fall
0.927238,-1.372,-0.5189,-0.3187,-0.179,-0.1694,-0.1156,24.84,4.56,40.8,,0.003357999999999972,1.5010699184248548,1.0789006288176248,non_fall
0.947574,-1.372,-0.5189,-0.3187,-0.1854,-0.1965,0.0799,24.84,4.56,40.8,,0.02033600000000002,1.5010699184248548,1.0517891491140785,non_fall
0.96849,-1.372,-0.5189,-0.3187,0.0735,-0.1955,0.1976,24.84,4.56,40.8,,0.020915999999999935,1.5010699184248548,1.0363097875867031,non_fall
0.981626,-1.372,-0.5189,-0.3187,0.0735,-0.1955,0.1976,24.84,4.56,40.8,,0.013136000000000037,1.5010699184248548,1.0250174266451244,non_fall
0.982259,-0.4651,0.5647,0.3572,0.0735,-0.1955,0.1976,24.84,4.56,40.8,,0.0006329999999999947,0.8141228040044082,1.0117956154732137,non_fall
0.985732,-0.4651,0.5647,0.3572,0.0735,-0.1955,0.1976,25.74,4.62,41.28,,0.0034730000000000594,0.8141228040044082,0.9921589649255587,non_fall
0.988769,-0.4651,0.5647,0.3572,0.2274,-0.0463,0.2397,25.74,4.62,41.28,,0.0030369999999999564,0.8141228040044082,0.9633212997617611,non_fall
1.010014,-0.4651,0.5647,0.3572,0.1838,0.0447,0.2248,25.74,4.62,41.28,,0.02124499999999996,0.8141228040044082,0.9240866780760723,non_fall
1.030243,-0.4651,0.5647,0.3572,0.1486,0.0314,0.1715,25.74,4.62,41.28,,0.020229000000000052,0.8141228040044082,0.8746275238987841,non_fall
1.042737,-0.4651,0.5647,0.3572,0.1486,0.0314,0.1715,25.74,4.62,41.28,,0.012494000000000005,0.8141228040044082,0.816205440028324,non_fall
1.043526,0.3647,-0.4468,0.1433,0.1486,0.0314,0.1715,25.74,4.62,41.28,,0.0007889999999999286,0.5942821047280492,0.7508759120745447,non_fall
1.047354,0.3647,-0.4468,0.1433,0.1486,0.0314,0.1715,25.44,4.56,40.92,,0.0038279999999999426,0.5942821047280492,0.6812050983580293,non_fall
1.050346,0.3647,-0.4468,0.1433,0.1225,-0.0783,0.123,25.44,4.56,40.92,,0.0029920000000001057,0.5942821047280492,0.6100165540146139,non_fall
1.071206,0.3647,-0.4468,0.1433,0.024,-0.1481,0.0687,25.44,4.56,40.92,,0.0208600000000001,0.5942821047280492,0.5401764284783085,non_fall
1.091599,0.3647,-0.4468,0.1433,-0.0506,-0.2381,0.0378,25.44,4.56,40.92,,0.020392999999999883,0.5942821047280492,0.4744167060175907,non_fall
1.104317,0.3647,-0.4468,0.1433,-0.0506,-0.2381,0.0378,25.44,4.56,40.92,,0.012718000000000007,0.5942821047280492,0.4151894204512305,non_fall
1.104948,-0.1433,-0.0165,-0.1956,-0.0506,-0.2381,0.0378,25.44,4.56,40.92,,0.0006310000000000482,0.24303600556296182,0.3645434539167219,non_fall
1.1087,-0.1433,-0.0165,-0.1956,-0.0506,-0.2381,0.0378,25.32,4.62,41.16,,0.0037519999999999776,0.24303600556296182,0.32402031071421844,non_fall
1.112304,-0.1433,-0.0165,-0.1956,-0.0927,-0.3318,0.0399,25.32,4.62,41.16,,0.0036039999999999406,0.24303600556296182,0.2945730177554531,non_fall
1.13295,-0.1433,-0.0165,-0.1956,-0.1065,-0.4016,0.0676,25.32,4.62,41.16,,0.020645999999999942,0.24303600556296182,0.2765176361668905,non_fall
1.153325,-0.1433,-0.0165,-0.1956,-0.0921,-0.3574,0.1033,25.32,4.62,41.16,,0.020375000000000032,0.24303600556296182,0.2695263970891598,non_fall
1.165522,-0.1433,-0.0165,-0.1956,-0.0921,-0.3574,0.1033,25.32,4.62,41.16,,0.012197000000000013,0.24303600556296182,0.2726663942713036,non_fall
1.166125,0.1253,-0.182,-0.2407,-0.0921,-0.3574,0.1033,25.32,4.62,41.16,,0.0006030000000001312,0.32674237558051755,0.2844815772873507,non_fall
1.171738,0.1253,-0.182,-0.2407,-0.0921,-0.3574,0.1033,25.92,4.5,41.04,,0.005612999999999868,0.32674237558051755,0.3031108388284719,non_fall
1.174632,0.1253,-0.182,-0.2407,-0.0623,-0.2466,0.1374,25.92,4.5,41.04,,0.002893999999999952,0.32674237558051755,0.3264319790223963,non_fall
1.194043,0.1253,-0.182,-0.2407,-0.0197,-0.1731,0.1571,25.92,4.5,41.04,,0.019411000000000067,0.32674237558051755,0.3522203712100632,non_fall
1.214879,0.1253,-0.182,-0.2407,0.0186,-0.1427,0.1742,25.92,4.5,41.04,,0.020836000000000077,0.32674237558051755,0.37831178897721746,non_fall
1.227527,0.1253,-0.182,-0.2407,0.0186,-0.1427,0.1742,25.92,4.5,41.04,,0.012647999999999993,0.32674237558051755,0.40275970551371626,non_fall
1.228256,0.0388,-0.3018,0.4587,0.0186,-0.1427,0.1742,25.92,4.5,41.04,,0.0007289999999999797,0.5504492438000074,0.42397685071830066,non_fall
1.232633,0.0388,-0.3018,0.4587,0.0186,-0.1427,0.1742,26.04,4.32,40.8,,0.004377000000000075,0.5504492438000074,0.4408485440848737,non_fall
1.235494,0.0388,-0.3018,0.4587,0.0762,-0.147,0.2024,26.04,4.32,40.8,,0.0028610000000000024,0.5504492438000074,0.45280312798592065,backward_fall
1.256122,0.0388,-0.3018,0.4587,0.1459,-0.1694,0.2392,26.04,4.32,40.8,,0.02062799999999987,0.5504492438000074,0.4598258539166281,backward_fall
1.276399,0.0388,-0.3018,0.4587,0.1987,-0.1545,0.269,26.04,4.32,40.8,,0.0202770000000001,0.5504492438000074,0.4624086806706102,backward_fall
1.288641,0.0388,-0.3018,0.4587,0.1987,-0.1545,0.269,26.04,4.32,40.8,,0.012241999999999864,0.5504492438000074,0.4614385875542488,backward_fall
1.289191,0.1803,0.0265,0.2421,0.1987,-0.1545,0.269,26.04,4.32,40.8,,0.0005500000000000504,0.3030226889194933,0.45803858280795046,backward_fall
1.293839,0.1803,0.0265,0.2421,0.1987,-0.1545,0.269,26.34,3.84,40.68,,0.0046479999999999855,0.3030226889194933,0.45338614795979637,backward_fall
1.296776,0.1803,0.0265,0.2421,0.2328,-0.1342,0.2823,26.34,3.84,40.68,,0.0029369999999999674,0.3030226889194933,0.4485407567112207,backward_fall
1.317551,0.1803,0.0265,0.2421,0.2578,-0.147,0.2993,26.34,3.84,40.68,,0.020774999999999988,0.3030226889194933,0.4443122967873849,backward_fall
1.33808,0.1803,0.0265,0.2421,0.2237,-0.2083,0.3164,26.34,3.84,40.68,,0.02052900000000002,0.3030226889194933,0.4411943241629257,backward_fall
1.350488,0.1803,0.0265,0.2421,0.2237,-0.2083,0.3164,26.34,3.84,40.68,,0.012407999999999975,0.3030226889194933,0.4393719332608526,backward_fall
1.351129,0.0672,0.0348,-0.61,0.2237,-0.2083,0.3164,26.34,3.84,40.68,,0.0006410000000001137,0.6146762399832939,0.43879718526794736,backward_fall
1.355002,0.0672,0.0348,-0.61,0.2237,-0.2083,0.3164,27.12,3.66,40.32,,0.0038730000000000153,0.6146762399832939,0.439308905451976,backward_fall
1.358432,0.0672,0.0348,-0.61,0.1641,-0.1976,0.3361,27.12,3.66,40.32,,0.003430000000000044,0.6146762399832939,0.44076198699541497,backward_fall
1.379503,0.0672,0.0348,-0.61,0.1699,-0.188,0.3249,27.12,3.66,40.32,,0.02107099999999984,0.6146762399832939,0.44312832741740277,backward_fall
1.399503,0.0672,0.0348,-0.61,0.2386,-0.2402,0.3254,27.12,3.66,40.32,,0.020000000000000018,0.6146762399832939,0.44653914229863184,backward_fall
1.412656,0.0672,0.0348,-0.61,0.2386,-0.2402,0.3254,27.12,3.66,40.32,,0.01315299999999997,0.6146762399832939,0.45125440563776914,backward_fall
1.413326,-0.158,-0.1243,-0.1864,0.2386,-0.2402,0.3254,27.12,3.66,40.32,,0.0006700000000001705,0.27415223872877637,0.4575650459023802,backward_fall
1.417038,-0.158,-0.1243,-0.1864,0.2386,-0.2402,0.3254,27.36,3.9,39.66,,0.0037119999999999376,0.27415223872877637,0.4656529872648271,backward_fall
1.420548,-0.158,-0.1243,-0.1864,0.2466,-0.2051,0.3499,27.36,3.9,39.66,,0.003509999999999902,0.27415223872877637,0.47544867808336777,backward_fall
1.440874,-0.158,-0.1243,-0.1864,0.2754,-0.0671,0.3979,27.36,3.9,39.66,,0.020326000000000066,0.27415223872877637,0.48653047074168615,backward_fall
1.461211,-0.158,-0.1243,-0.1864,0.4639,-0.082,0.4762,27.36,3.9,39.66,,0.02033700000000005,0.27415223872877637,0.49810262034339164,backward_fall
1.473836,-0.158,-0.1243,-0.1864,0.4639,-0.082,0.4762,27.36,3.9,39.66,,0.012624999999999886,0.27415223872877637,0.5090708680961302,backward_fall
1.474493,0.3839,0.1741,0.6343,0.4639,-0.082,0.4762,27.36,3.9,39.66,,0.0006570000000001297,0.7615947150551926,0.518211241485632,backward_fall
1.478219,0.3839,0.1741,0.6343,0.4639,-0.082,0.4762,27.42,4.14,39.3,,0.003725999999999896,0.7615947150551926,0.5244036614598131,backward_fall
1.482564,0.3839,0.1741,0.6343,0.6232,-0.1923,0.5214,27.42,4.14,39.3,,0.004345000000000043,0.7615947150551926,0.526883033240837,backward_fall
1.502452,0.3839,0.1741,0.6343,0.6631,-0.0458,0.4969,27.42,4.14,39.3,,0.019887999999999906,0.7615947150551926,0.5254535615727757,backward_fall
1.523156,0.3839,0.1741,0.6343,0.5598,0.0597,0.4304,27.42,4.14,39.3,,0.020704000000000056,0.7615947150551926,0.5206205842619192,backward_fall
1.536175,0.3839,0.1741,0.6343,0.5598,0.0597,0.4304,27.42,4.14,39.3,,0.013019000000000114,0.7615947150551926,0.513615283764351,backward_fall
1.536896,0.1113,0.0223,-0.1579,0.5598,0.0597,0.4304,27.42,4.14,39.3,,0.0007209999999999717,0.19446693806403187,0.5063147368606223,backward_fall
1.540728,0.1113,0.0223,-0.1579,0.5598,0.0597,0.4304,27.9,4.56,38.82,,0.0038320000000000576,0.19446693806403187,0.5010866677982259,backward_fall
1.54316,0.1113,0.0223,-0.1579,0.5257,-0.2653,0.4501,27.9,4.56,38.82,,0.0024319999999999897,0.19446693806403187,0.5006081849360934,backward_fall
1.564881,0.1113,0.0223,-0.1579,0.6381,-0.5955,0.5188,27.9,4.56,38.82,,0.02172099999999988,0.19446693806403187,0.5077129860437347,backward_fall
1.584301,0.1113,0.0223,-0.1579,0.832,-0.4016,0.5699,27.9,4.56,38.82,,0.019419999999999993,0.19446693806403187,0.5253081522498786,backward_fall
1.597368,0.1113,0.0223,-0.1579,0.832,-0.4016,0.5699,27.9,4.56,38.82,,0.01306699999999994,0.19446693806403187,0.5563732569848836,backward_fall
1.597959,0.9627,0.711,-0.5162,0.832,-0.4016,0.5699,27.9,4.56,38.82,,0.0005910000000000082,1.3033705267497804,0.6040186954764553,backward_fall
1.601661,0.9627,0.711,-0.5162,0.832,-0.4016,0.5699,27.84,4.92,38.04,,0.003702000000000094,1.3033705267497804,0.6715451758930717,backward_fall
1.605148,0.9627,0.711,-0.5162,0.9321,-0.1198,0.5513,27.84,4.92,38.04,,0.003487000000000018,1.3033705267497804,0.7624235342988082,backward_fall
1.625476,0.9627,0.711,-0.5162,0.9007,-0.0644,0.4373,27.84,4.92,38.04,,0.0203279999999999,1.3033705267497804,0.8801170412990262,backward_fall
1.645439,0.9627,0.711,-0.5162,0.808,-0.1656,0.3904,27.84,4.92,38.04,,0.019963000000000175,1.3033705267497804,1.0277025910184319,backward_fall
1.658964,0.9627,0.711,-0.5162,0.808,-0.1656,0.3904,27.84,4.92,38.04,,0.01352500000000001,1.3033705267497804,1.2073026248978327,backward_fall
1.659558,0.6816,0.0118,-0.9993,0.808,-0.1656,0.3904,27.84,4.92,38.04,,0.0005939999999999834,1.209676936210656,1.4193984109402433,backward_fall
1.662878,0.6816,0.0118,-0.9993,0.808,-0.1656,0.3904,28.5,4.98,37.62,,0.0033199999999999896,1.209676936210656,1.6621430746765573,backward_fall
1.666351,0.6816,0.0118,-0.9993,0.9246,-0.6413,0.5396,28.5,4.98,37.62,,0.0034729999999998373,1.209676936210656,1.9308213279985225,backward_fall
1.68708,0.6816,0.0118,-0.9993,1.3279,-1.0402,0.7036,28.5,4.98,37.62,,0.020728999999999997,1.209676936210656,2.217606603526608,backward_fall
1.707558,0.6816,0.0118,-0.9993,1.4216,-0.7979,0.6796,28.5,4.98,37.62,,0.020477999999999996,1.209676936210656,2.511740901586787,backward_fall
1.72013,0.6816,0.0118,-0.9993,1.4216,-0.7979,0.6796,28.5,4.98,37.62,,0.012572000000000028,1.209676936210656,2.8002052770630788,backward_fall
1.720748,3.1577,0.7601,-3.1802,1.4216,-0.7979,0.6796,28.5,4.98,37.62,,0.0006180000000000074,4.545601537750532,3.068859571672992,backward_fall
1.724374,3.1577,0.7601,-3.1802,1.4216,-0.7979,0.6796,28.86,5.16,37.5,,0.003626000000000129,4.545601537750532,3.30391902647083,backward_fall
1.728116,3.1577,0.7601,-3.1802,1.0999,-0.6722,0.5321,28.86,5.16,37.5,,0.003741999999999912,4.545601537750532,3.4935347047769145,backward_fall
1.748516,3.1577,0.7601,-3.1802,0.9023,-1.232,0.3196,28.86,5.16,37.5,,0.020399999999999974,4.545601537750532,3.6292002361361315,backward_fall
1.769704,3.1577,0.7601,-3.1802,1.3316,-2.0379,0.3031,28.86,5.16,37.5,,0.021187999999999985,4.545601537750532,3.7067442342077603,backward_fall
1.782195,3.1577,0.7601,-3.1802,1.3316,-2.0379,0.3031,28.86,5.16,37.5,,0.01249100000000003,4.545601537750532,3.7267671968397256,backward_fall
1.782832,2.0892,-0.5689,-1.777,1.3316,-2.0379,0.3031,28.86,5.16,37.5,,0.0006369999999999987,2.801094937698471,3.694503001656007,backward_fall
1.786311,2.0892,-0.5689,-1.777,1.3316,-2.0379,0.3031,30.12,5.94,36.78,,0.00347900000000001,2.801094937698471,3.6191962782821694,backward_fall
1.790935,2.0892,-0.5689,-1.777,1.6112,-1.9809,0.4197,30.12,5.94,36.78,,0.0046239999999999615,2.801094937698471,3.51316644478756,backward_fall
1.810003,2.0892,-0.5689,-1.777,1.4738,-0.922,0.7574,30.12,5.94,36.78,,0.019068000000000085,2.801094937698471,3.390758384694611,backward_fall
1.830569,2.0892,-0.5689,-1.777,1.3012,-0.2653,1.1713,30.12,5.94,36.78,,0.020565999999999862,2.801094937698471,3.2673527949652144,backward_fall
1.844001,2.0892,-0.5689,-1.777,1.3012,-0.2653,1.1713,30.12,5.94,36.78,,0.01343200000000011,2.801094937698471,3.158542910744995,backward_fall
1.844674,0.6289,-1.4505,-3.1913,1.3012,-0.2653,1.1713,30.12,5.94,36.78,,0.0006729999999999237,3.5614408811603204,3.079506135598904,backward_fall
1.847385,0.6289,-1.4505,-3.1913,1.3012,-0.2653,1.1713,31.5,7.2,35.58,,0.00271100000000013,3.5614408811603204,3.044530404741282,backward_fall
1.851244,0.6289,-1.4505,-3.1913,1.6394,-0.0309,1.3689,31.5,7.2,35.58,,0.003858999999999835,3.5614408811603204,3.0666092247984005,backward_fall
1.872291,0.6289,-1.4505,-3.1913,2.195,-0.1822,1.355,31.5,7.2,35.58,,0.021047000000000038,3.5614408811603204,3.1570056391889825,backward_fall
1.892517,0.6289,-1.4505,-3.1913,1.8157,-0.0282,1.3747,31.5,7.2,35.58,,0.020226000000000077,3.5614408811603204,3.3247054313934186,backward_fall
1.904523,0.6289,-1.4505,-3.1913,1.8157,-0.0282,1.3747,31.5,7.2,35.58,,0.012005999999999961,3.5614408811603204,3.5757232633807328,backward_fall
1.904827,3.4418,1.5907,-2.784,1.8157,-0.0282,1.3747,31.5,7.2,35.58,,0.000304000000000082,4.703931305833452,3.912275574121022,backward_fall
1.909186,3.4418,1.5907,-2.784,1.8157,-0.0282,1.3747,32.88,8.64,33.66,,0.004359000000000002,4.703931305833452,4.331879283390787,backward_fall
1.912664,3.4418,1.5907,-2.784,1.2938,-0.1395,1.3603,32.88,8.64,33.66,,0.00347799999999987,4.703931305833452,4.826474938973503,backward_fall
1.933414,3.4418,1.5907,-2.784,1.0807,-0.3936,1.461,32.88,8.64,33.66,,0.020750000000000046,4.703931305833452,5.381712169181258,backward_fall
1.954112,3.4418,1.5907,-2.784,1.1159,-0.2407,1.477,32.88,8.64,33.66,,0.020698000000000105,4.703931305833452,5.97657188471315,backward_fall
1.966392,3.4418,1.5907,-2.784,1.1159,-0.2407,1.477,32.88,8.64,33.66,,0.012279999999999847,4.703931305833452,6.583516288569872,backward_fall
1.967155,2.9741,5.2806,-4.9142,1.1159,-0.2407,1.477,32.88,8.64,33.66,,0.0007630000000000692,7.80252323354439,7.16933191868518,backward_fall
1.970596,2.9741,5.2806,-4.9142,1.1159,-0.2407,1.477,34.5,9.96,31.68,,0.0034410000000000274,7.80252323354439,7.696755401765207,backward_fall
1.974196,2.9741,5.2806,-4.9142,1.0418,0.0889,1.314,34.5,9.96,31.68,,0.0036000000000000476,7.80252323354439,8.126868299504464,backward_fall
1.995045,2.9741,5.2806,-4.9142,1.3129,0.8586,1.0711,34.5,9.96,31.68,,0.020848999999999895,7.80252323354439,8.422156935157888,backward_fall
2.015975,2.9741,5.2806,-4.9142,1.9739,2.0837,0.9859,34.5,9.96,31.68,,0.020930000000000115,7.80252323354439,8.550079448018947,backward_fall
2.028084,2.9741,5.2806,-4.9142,1.9739,2.0837,0.9859,34.5,9.96,31.68,,0.012109000000000147,7.80252323354439,8.48695196736481,backward_fall
2.028684,2.6824,6.5919,-2.2699,1.9739,2.0837,0.9859,34.5,9.96,31.68,,0.0005999999999999339,7.469997414992859,8.221928473031374,backward_fall
2.03261,2.6824,6.5919,-2.2699,1.9739,2.0837,0.9859,35.16,10.2,30.3,,0.003925999999999874,7.469997414992859,7.760789590785029,backward_fall
2.037222,2.6824,6.5919,-2.2699,2.1731,2.9231,1.1649,35.16,10.2,30.3,,0.0046119999999998385,7.469997414992859,7.129180168183922,backward_fall
2.056563,2.6824,6.5919,-2.2699,1.8594,3.3902,1.3747,35.16,10.2,30.3,,0.019341000000000275,7.469997414992859,6.3748600537539355,backward_fall
2.077148,2.6824,6.5919,-2.2699,1.1079,3.4184,1.5026,35.16,10.2,30.3,,0.020585000000000075,7.469997414992859,5.568477759996825,backward_fall
2.090312,2.6824,6.5919,-2.2699,1.1079,3.4184,1.5026,35.16,10.2,30.3,,0.013163999999999731,7.469997414992859,4.802366734480705,backward_fall
2.091114,4.9098,4.0435,-4.9848,1.1079,3.4184,1.5026,35.16,10.2,30.3,,0.0008020000000001914,8.081105080989852,4.186922014724954,backward_fall
2.094092,4.9098,4.0435,-4.9848,1.1079,3.4184,1.5026,35.16,10.26,29.64,,0.002977999999999703,8.081105080989852,3.844258827154635,backward_fall
2.098663,4.9098,4.0435,-4.9848,0.2684,3.1857,1.5548,35.16,10.26,29.64,,0.004571000000000325,8.081105080989852,3.899095110787334,backward_fall
2.118113,4.9098,4.0435,-4.9848,0.6722,3.599,1.9452,35.16,10.26,29.64,,0.019449999999999967,8.081105080989852,4.4671383401693925,backward_fall
2.138257,4.9098,4.0435,-4.9848,1.1212,3.3774,2.8943,35.16,10.26,29.64,,0.020143999999999718,8.081105080989852,5.641677557452116,backward_fall
2.152027,4.9098,4.0435,-4.9848,1.1212,3.3774,2.8943,35.16,10.26,29.64,,0.01377000000000006,8.081105080989852,7.479546101932684,backward_fall
2.152757,1.2211,3.7417,1.3708,1.1212,3.3774,2.8943,35.16,10.26,29.64,,0.0007299999999998974,4.167792789954894,9.988070993271544,backward_fall
2.155209,1.2211,3.7417,1.3708,1.1212,3.3774,2.8943,33.06,9.84,31.38,,0.002452000000000343,4.167792789954894,13.114981429914748,backward_fall
2.158717,1.2211,3.7417,1.3708,1.2645,1.7428,4.0187,33.06,9.84,31.38,,0.0035080000000000666,4.167792789954894,16.7434009244662,backward_fall
2.182193,1.2211,3.7417,1.3708,1.0413,0.1987,2.1401,33.06,9.84,31.38,,0.02347599999999961,4.167792789954894,20.69386586294664,backward_fall
2.199677,1.2211,3.7417,1.3708,-2.3452,0.1316,-10.3416,33.06,9.84,31.38,,0.017484000000000055,4.167792789954894,24.734695417788803,backward_fall
2.2122,1.2211,3.7417,1.3708,-2.3452,0.1316,-10.3416,33.06,9.84,31.38,,0.012523000000000284,4.167792789954894,28.600941401037648,backward_fall
2.212837,-55.7856,-0.9766,-15.1674,-2.3452,0.1316,-10.3416,33.06,9.84,31.38,,0.0006369999999997766,57.81900152787144,32.02059601886866,backward_fall
2.217321,-55.7856,-0.9766,-15.1674,-2.3452,0.1316,-10.3416,29.94,9.72,33.9,,0.0044840000000001545,57.81900152787144,34.744916164914066,backward_fall
2.220953,-55.7856,-0.9766,-15.1674,-4.3521,-5.6805,0.7388,29.94,9.72,33.9,,0.0036320000000000796,57.81900152787144,36.57815937136322,backward_fall
2.240738,-55.7856,-0.9766,-15.1674,4.945,6.3516,2.5934,29.94,9.72,33.9,,0.01978499999999972,57.81900152787144,37.40146912310197,backward_fall
2.261293,-55.7856,-0.9766,-15.1674,4.0832,4.1753,3.1047,29.94,9.72,33.9,,0.020555000000000323,57.81900152787144,37.18651140018116,backward_fall
2.274085,-55.7856,-0.9766,-15.1674,4.0832,4.1753,3.1047,29.94,9.72,33.9,,0.012791999999999693,57.81900152787144,35.996466738546246,backward_fall
2.274643,10.0689,-5.6072,-1.7811,4.0832,4.1753,3.1047,29.94,9.72,33.9,,0.0005580000000002805,11.661721839419767,33.97447557402458,backward_fall
2.278708,10.0689,-5.6072,-1.7811,4.0832,4.1753,3.1047,26.28,9.72,36.96,,0.004064999999999763,11.661721839419767,31.322058671392995,backward_fall
2.283083,10.0689,-5.6072,-1.7811,1.6906,0.3313,3.0493,26.28,9.72,36.96,,0.004375000000000018,11.661721839419767,28.27187901840562,backward_fall
2.302493,10.0689,-5.6072,-1.7811,-0.9289,-3.2219,2.3516,26.28,9.72,36.96,,0.01941000000000015,11.661721839419767,25.05993727547855,backward_fall
2.323182,10.0689,-5.6072,-1.7811,-2.113,-4.2504,1.3183,26.28,9.72,36.96,,0.020688999999999957,11.661721839419767,21.90168334795828,backward_fall
2.335533,10.0689,-5.6072,-1.7811,-2.113,-4.2504,1.3183,26.28,9.72,36.96,,0.012350999999999779,11.661721839419767,18.974968419401034,backward_fall
2.335837,8.3178,-17.162,-3.4753,-2.113,-4.2504,1.3183,26.28,9.72,36.96,,0.000304000000000304,19.385503628484866,16.410931908998364,backward_fall
2.341535,8.3178,-17.162,-3.4753,-2.113,-4.2504,1.3183,21.78,10.32,40.14,,0.005697999999999759,19.385503628484866,14.292310889519705,backward_fall
2.343698,8.3178,-17.162,-3.4753,-1.5595,-4.8198,1.4328,21.78,10.32,40.14,,0.002162999999999915,19.385503628484866,12.65750401588598,backward_fall
2.364559,8.3178,-17.162,-3.4753,-1.1228,-4.9162,1.6533,21.78,10.32,40.14,,0.02086100000000002,19.385503628484866,11.508121606296323,backward_fall
2.385131,8.3178,-17.162,-3.4753,0.1427,0.4927,1.584,21.78,10.32,40.14,,0.020572000000000035,19.385503628484866,10.817721303729723,backward_fall
2.397539,8.3178,-17.162,-3.4753,0.1427,0.4927,1.584,21.78,10.32,40.14,,0.012408000000000197,19.385503628484866,10.539862668887828,backward_fall
2.398355,6.6332,0.6548,-1.0933,0.1427,0.4927,1.584,21.78,10.32,40.14,,0.0008159999999999279,6.754510357531477,10.614348105256074,backward_fall
2.401705,6.6332,0.6548,-1.0933,0.1427,0.4927,1.584,21.9,10.32,41.1,,0.003350000000000186,6.754510357531477,10.971377721177271,backward_fall
2.405498,6.6332,0.6548,-1.0933,0.5747,6.4214,1.2006,21.9,10.32,41.1,,0.0037929999999999353,6.754510357531477,11.534129612781186,backward_fall
2.425866,6.6332,0.6548,-1.0933,-0.7009,6.8784,0.653,21.9,10.32,41.1,,0.02036799999999994,6.754510357531477,12.220760670877086,backward_fall
2.446528,6.6332,0.6548,-1.0933,-0.9854,5.0723,-0.1475,21.9,10.32,41.1,,0.020661999999999736,6.754510357531477,12.946878560026217,backward_fall
2.458928,6.6332,0.6548,-1.0933,-0.9854,5.0723,-0.1475,21.9,10.32,41.1,,0.012399999999999967,6.754510357531477,13.629214396076442,backward_fall
2.459578,-9.0107,16.988,4.5107,-0.9854,5.0723,-0.1475,21.9,10.32,41.1,,0.0006500000000002615,19.751741011364036,14.190680234646294,backward_fall
2.46335,-9.0107,16.988,4.5107,-0.9854,5.0723,-0.1475,22.62,8.88,40.86,,0.0037720000000001086,19.751741011364036,14.566376793383588,backward_fall
2.466888,-9.0107,16.988,4.5107,0.4314,2.3207,-0.9017,22.62,8.88,40.86,,0.003537999999999819,19.751741011364036,14.7095881627423,backward_fall
2.487438,-9.0107,16.988,4.5107,0.9992,-0.2876,-1.0551,22.62,8.88,40.86,,0.020550000000000068,19.751741011364036,14.596548234872609,backward_fall
2.508376,-9.0107,16.988,4.5107,0.4826,-1.9793,-0.2104,22.62,8.88,40.86,,0.020938000000000123,19.751741011364036,14.228889600338013,backward_fall
2.520604,-9.0107,16.988,4.5107,0.4826,-1.9793,-0.2104,22.62,8.88,40.86,,0.012227999999999906,19.751741011364036,13.63312256893167,backward_fall
2.520888,-0.4117,7.079,0.2872,0.4826,-1.9793,-0.2104,22.62,8.88,40.86,,0.0002839999999997289,7.096775445933174,12.857083775413033,backward_fall
2.525161,-0.4117,7.079,0.2872,0.4826,-1.9793,-0.2104,20.46,6.78,41.22,,0.004273000000000415,7.096775445933174,11.963900769052023,backward_fall
2.529044,-0.4117,7.079,0.2872,0.3712,-2.2802,0.6493,20.46,6.78,41.22,,0.0038829999999996367,7.096775445933174,11.024503308778561,backward_fall
2.549042,-0.4117,7.079,0.2872,0.7979,-1.804,1.0008,20.46,6.78,41.22,,0.019998000000000182,7.096775445933174,10.109921938459928,backward_fall
2.569475,-0.4117,7.079,0.2872,0.7441,-2.1401,1.0615,20.46,6.78,41.22,,0.020433000000000145,7.096775445933174,9.284484644077647,backward_fall
2.582329,-0.4117,7.079,0.2872,0.7441,-2.1401,1.0615,20.46,6.78,41.22,,0.012853999999999921,7.096775445933174,8.600652172663194,backward_fall
2.583077,8.551,-2.1336,-1.7817,0.7441,-2.1401,1.0615,20.46,6.78,41.22,,0.0007479999999997489,8.991457326262523,8.095799776030113,backward_fall
2.58661,8.551,-2.1336,-1.7817,0.7441,-2.1401,1.0615,20.58,4.56,41.04,,0.0035330000000000084,8.991457326262523,7.790884163774048,backward_fall
2.589855,8.551,-2.1336,-1.7817,0.343,-2.7681,1.0136,20.58,4.56,41.04,,0.0032450000000001644,8.991457326262523,7.690680793954942,backward_fall
2.611053,8.551,-2.1336,-1.7817,0.1539,-3.004,0.882,20.58,4.56,41.04,,0.02119800000000005,8.991457326262523,7.785154314772238,backward_fall
2.632041,8.551,-2.1336,-1.7817,0.1523,-2.6472,0.5214,20.58,4.56,41.04,,0.020988000000000007,8.991457326262523,8.051526630561126,backward_fall
2.644008,8.551,-2.1336,-1.7817,0.1523,-2.6472,0.5214,20.58,4.56,41.04,,0.011966999999999839,8.991457326262523,8.456697089091085,backward_fall
2.644571,8.7483,-1.0242,-1.5149,0.1523,-2.6472,0.5214,20.58,4.56,41.04,,0.0005630000000000912,8.937374364991097,8.959798474621225,backward_fall
2.648682,8.7483,-1.0242,-1.5149,0.1523,-2.6472,0.5214,18.78,3.0,41.1,,0.004110999999999976,8.937374364991097,9.514799813804888,backward_fall
2.652648,8.7483,-1.0242,-1.5149,0.2328,-1.0157,-0.1832,18.78,3.0,41.1,,0.003966000000000136,8.937374364991097,10.073165525387818,backward_fall
2.672242,8.7483,-1.0242,-1.5149,-0.2738,1.8488,-1.2709,18.78,3.0,41.1,,0.019593999999999667,8.937374364991097,10.5866323053499,backward_fall
2.692648,8.7483,-1.0242,-1.5149,-1.0717,3.8323,-2.4549,18.78,3.0,41.1,,0.02040600000000037,8.937374364991097,11.010158488823352,backward_fall
2.70564,8.7483,-1.0242,-1.5149,-1.0717,3.8323,-2.4549,18.78,3.0,41.1,,0.01299199999999967,8.937374364991097,11.30502971723288,backward_fall
2.706215,-9.8998,9.802,1.8539,-1.0717,3.8323,-2.4549,18.78,3.0,41.1,,0.0005749999999999922,14.054258758468908,11.441972311417743,backward_fall
2.709691,-9.8998,9.802,1.8539,-1.0717,3.8323,-2.4549,18.96,3.18,40.14,,0.0034760000000000346,14.054258758468908,11.40395479556761,backward_fall
2.713114,-9.8998,9.802,1.8539,-0.849,3.2544,-2.1907,18.96,3.18,40.14,,0.003423000000000176,14.054258758468908,11.188208528120166,backward_fall
2.733925,-9.8998,9.802,1.8539,-0.2109,-0.595,-0.4123,18.96,3.18,40.14,,0.020811000000000135,14.054258758468908,10.806954418982896,backward_fall
2.754326,-9.8998,9.802,1.8539,-0.0607,-2.2988,-0.0272,18.96,3.18,40.14,,0.02040099999999967,14.054258758468908,10.286436936907652,backward_fall
2.767055,-9.8998,9.802,1.8539,-0.0607,-2.2988,-0.0272,18.96,3.18,40.14,,0.012729000000000212,14.054258758468908,9.66412435444713,backward_fall
2.767345,2.546,3.0322,-0.1802,-0.0607,-2.2988,-0.0272,18.96,3.18,40.14,,0.0002900000000001235,3.963435994184844,8.98428152542288,backward_fall
2.771094,2.546,3.0322,-0.1802,-0.0607,-2.2988,-0.0272,21.18,4.14,39.3,,0.0037490000000000023,3.963435994184844,8.29249366067797,backward_fall
2.774668,2.546,3.0322,-0.1802,-0.2109,-2.4155,0.1166,21.18,4.14,39.3,,0.003573999999999966,3.963435994184844,7.6300176164813935,backward_fall
2.79577,2.546,3.0322,-0.1802,-0.0794,-1.9702,0.1481,21.18,4.14,39.3,,0.021101999999999954,3.963435994184844,7.028933896059087,backward_fall
2.81593,2.546,3.0322,-0.1802,-0.1252,-1.5862,0.024,21.18,4.14,39.3,,0.020159999999999734,3.963435994184844,6.508906566775304,backward_fall
2.829266,2.546,3.0322,-0.1802,-0.1252,-1.5862,0.024,21.18,4.14,39.3,,0.013336000000000237,3.963435994184844,6.0759998754185585,backward_fall
2.829904,6.504,-0.0595,-2.9914,-0.1252,-1.5862,0.024,21.18,4.14,39.3,,0.0006379999999999164,7.159192008180812,5.723585051494529,backward_fall
2.832934,6.504,-0.0595,-2.9914,-0.1252,-1.5862,0.024,22.62,3.96,39.18,,0.003029999999999866,7.159192008180812,5.435000832538957,backward_fall
2.836815,6.504,-0.0595,-2.9914,-0.4378,-0.9449,-0.4213,22.62,3.96,39.18,,0.0038810000000002454,7.159192008180812,5.187363220840443,backward_fall
2.857155,6.504,-0.0595,-2.9914,-0.7542,0.4687,-0.9065,22.62,3.96,39.18,,0.020340000000000025,7.159192008180812,4.9557927272574345,backward_fall
2.877609,6.504,-0.0595,-2.9914,-0.9529,1.7364,-0.9044,22.62,3.96,39.18,,0.020453999999999972,7.159192008180812,4.71735372967953,backward_fall
2.890566,6.504,-0.0595,-2.9914,-0.9529,1.7364,-0.9044,22.62,3.96,39.18,,0.012957000000000107,7.159192008180812,4.4541517976807325,backward_fall
2.891325,-1.0463,2.0659,1.4872,-0.9529,1.7364,-0.9044,22.62,3.96,39.18,,0.0007589999999999542,2.7521719314025423,4.155260722233961,backward_fall
2.894909,-1.0463,2.0659,1.4872,-0.9529,1.7364,-0.9044,24.48,4.38,38.76,,0.0035840000000000316,2.7521719314025423,3.817403543980449,backward_fall
2.898187,-1.0463,2.0659,1.4872,-0.9007,1.7476,-0.5662,24.48,4.38,38.76,,0.003277999999999892,2.7521719314025423,3.4445379581405744,backward_fall
2.918748,-1.0463,2.0659,1.4872,-0.6567,0.8522,-0.4772,24.48,4.38,38.76,,0.02056099999999983,2.7521719314025423,3.0466371577635436,backward_fall
2.939643,-1.0463,2.0659,1.4872,-0.4895,0.2029,-0.4639,24.48,4.38,38.76,,0.020894999999999886,2.7521719314025423,2.6379861568960608,backward_fall
2.952145,-1.0463,2.0659,1.4872,-0.4895,0.2029,-0.4639,24.48,4.38,38.76,,0.012502000000000013,2.7521719314025423,2.2352646970357957,backward_fall
2.952837,0.1368,-0.2885,0.687,-0.4895,0.2029,-0.4639,24.48,4.38,38.76,,0.000692000000000359,0.75757210217906,1.855623274461667,backward_fall
2.956822,0.1368,-0.2885,0.687,-0.4895,0.2029,-0.4639,23.82,4.68,39.54,,0.003984999999999683,0.75757210217906,1.514917061723225,backward_fall
2.959747,0.1368,-0.2885,0.687,-0.5321,0.0511,-0.5135,23.82,4.68,39.54,,0.0029250000000002885,0.75757210217906,1.2262401973614812,backward_fall
2.980142,0.1368,-0.2885,0.687,-0.3814,0.4234,-0.4703,23.82,4.68,39.54,,0.02039499999999972,0.75757210217906,0.9988744201136559,backward_fall
3.000316,0.1368,-0.2885,0.687,-0.2184,0.8559,-0.3665,23.82,4.68,39.54,,0.02017400000000036,0.75757210217906,0.8377151207250363,backward_fall
3.013217,0.1368,-0.2885,0.687,-0.2184,0.8559,-0.3665,23.82,4.68,39.54,,0.01290099999999983,0.75757210217906,0.7431735784475536,backward_fall
3.013876,0.6983,-0.1754,-0.6373,-0.2184,0.8559,-0.3665,23.82,4.68,39.54,,0.0006590000000001872,0.9615296875291994,0.7114975457177367,backward_fall
3.017805,0.6983,-0.1754,-0.6373,-0.2184,0.8559,-0.3665,24.36,4.26,39.66,,0.003928999999999849,0.9615296875291994,0.735416349973412,backward_fall
3.020925,0.6983,-0.1754,-0.6373,-0.163,1.2288,-0.359,24.36,4.26,39.66,,0.0031200000000000117,0.9615296875291994,0.8050023598735117,backward_fall
3.042265,0.6983,-0.1754,-0.6373,-0.0826,1.1654,-0.465,24.36,4.26,39.66,,0.021339999999999915,0.9615296875291994,0.9086439958218118,backward_fall
3.062629,0.6983,-0.1754,-0.6373,-0.2397,1.1574,-0.5657,24.36,4.26,39.66,,0.020363999999999827,0.9615296875291994,1.0340404782423407,backward_fall
3.074862,0.6983,-0.1754,-0.6373,-0.2397,1.1574,-0.5657,24.36,4.26,39.66,,0.01223300000000016,0.9615296875291994,1.169147265586155,backward_fall
3.075576,-1.5363,0.8154,0.2899,-0.2397,1.1574,-0.5657,24.36,4.26,39.66,,0.0007139999999998814,1.7632744709772215,1.3030158211659968,backward_fall
3.079269,-1.5363,0.8154,0.2899,-0.2397,1.1574,-0.5657,24.36,4.5,39.66,,0.0036930000000001684,1.7632744709772215,1.4264785780869091,backward_fall
3.082774,-1.5363,0.8154,0.2899,-0.3755,1.5904,-0.4916,24.36,4.5,39.66,,0.0035050000000000914,1.7632744709772215,1.5326340864389523,backward_fall
3.103452,-1.5363,0.8154,0.2899,-0.3313,2.0778,-0.2748,24.36,4.5,39.66,,0.020677999999999752,1.7632744709772215,1.6170977486971985,backward_fall
3.123982,-1.5363,0.8154,0.2899,-0.1438,2.1247,-0.2019,24.36,4.5,39.66,,0.020529999999999937,1.7632744709772215,1.6780056453403924,backward_fall
3.136872,-1.5363,0.8154,0.2899,-0.1438,2.1247,-0.2019,24.36,4.5,39.66,,0.012890000000000068,1.7632744709772215,1.7157883155799805,backward_fall
3.137487,-0.4951,1.449,-0.0299,-0.1438,2.1247,-0.2019,24.36,4.5,39.66,,0.0006150000000002542,1.5315413869693502,1.73275886640506,backward_fall
3.140965,-0.4951,1.449,-0.0299,-0.1438,2.1247,-0.2019,22.14,4.56,40.86,,0.00347799999999987,1.5315413869693502,1.7325792849762345,backward_fall
3.144561,-0.4951,1.449,-0.0299,-0.0213,1.9249,-0.2354,22.14,4.56,40.86,,0.0035959999999999326,1.5315413869693502,1.7196780111835037,backward_fall
3.165317,-0.4951,1.449,-0.0299,-0.0847,1.6693,-0.2045,22.14,4.56,40.86,,0.020755999999999997,1.5315413869693502,1.6986897992562513,backward_fall
3.186687,-0.4951,1.449,-0.0299,-0.0549,1.6576,-0.1273,22.14,4.56,40.86,,0.02137000000000011,1.5315413869693502,1.6739765021814312,backward_fall
3.199049,-0.4951,1.449,-0.0299,-0.0549,1.6576,-0.1273,22.14,4.56,40.86,,0.012361999999999984,1.5315413869693502,1.6492682448328766,backward_fall
3.199659,-0.7073,1.3346,-0.5987,-0.0549,1.6576,-0.1273,22.14,4.56,40.86,,0.0006099999999999994,1.6247683342556871,1.6274432374867247,backward_fall
3.202653,-0.7073,1.3346,-0.5987,-0.0549,1.6576,-0.1273,18.72,3.66,42.72,,0.002994000000000163,1.6247683342556871,1.6104448054221807,backward_fall
3.206992,-0.7073,1.3346,-0.5987,0.0868,1.7103,-0.0186,18.72,3.66,42.72,,0.004338999999999871,1.6247683342556871,1.5993182907048218,backward_fall
3.227513,-0.7073,1.3346,-0.5987,0.27,1.2469,0.0027,18.72,3.66,42.72,,0.02052100000000001,1.6247683342556871,1.5943397913031245,backward_fall
3.246673,-0.7073,1.3346,-0.5987,0.4469,0.8698,0.0197,18.72,3.66,42.72,,0.019159999999999844,1.6247683342556871,1.5952036246929908,backward_fall
3.259495,-0.7073,1.3346,-0.5987,0.4469,0.8698,0.0197,18.72,3.66,42.72,,0.012821999999999889,1.6247683342556871,1.6012348168561614,non_fall
3.260309,0.8001,1.1369,-1.0689,0.4469,0.8698,0.0197,18.72,3.66,42.72,,0.0008140000000000924,1.7536387398777433,1.6115949895228423,non_fall
3.264147,0.8001,1.1369,-1.0689,0.4469,0.8698,0.0197,15.12,4.2,44.22,,0.003838000000000008,1.7536387398777433,1.6254535935087635,non_fall
3.267683,0.8001,1.1369,-1.0689,0.2722,0.8836,-0.1742,15.12,4.2,44.22,,0.0035359999999999836,1.7536387398777433,1.6421017674735798,non_fall
3.287633,0.8001,1.1369,-1.0689,0.1214,0.8442,-0.3404,15.12,4.2,44.22,,0.019950000000000134,1.7536387398777433,1.6609942708246082,non_fall
3.308368,0.8001,1.1369,-1.0689,0.1342,0.4943,-0.3814,15.12,4.2,44.22,,0.02073500000000017,1.7536387398777433,1.681716284836062,non_fall
3.320721,0.8001,1.1369,-1.0689,0.1342,0.4943,-0.3814,15.12,4.2,44.22,,0.012352999999999614,1.7536387398777433,1.7038850805898167,non_fall
3.32115,-0.0758,1.5796,-0.1025,0.1342,0.4943,-0.3814,15.12,4.2,44.22,,0.0004290000000000127,1.5847359559245193,1.7270094282688053,non_fall
3.325026,-0.0758,1.5796,-0.1025,0.1342,0.4943,-0.3814,11.46,4.02,45.0,,0.0038759999999999906,1.5847359559245193,1.7503400614429838,non_fall
3.328654,-0.0758,1.5796,-0.1025,0.1491,0.1917,-0.3073,11.46,4.02,45.0,,0.0036279999999999646,1.5847359559245193,1.7727502149814183,non_fall
3.349626,-0.0758,1.5796,-0.1025,0.1166,0.5337,-0.2258,11.46,4.02,45.0,,0.020972000000000435,1.5847359559245193,1.7926837126705282,non_fall
3.369823,-0.0758,1.5796,-0.1025,0.114,0.7633,-0.2818,11.46,4.02,45.0,,0.020196999999999576,1.5847359559245193,1.8081980598668408,non_fall
3.382472,-0.0758,1.5796,-0.1025,0.114,0.7633,-0.2818,11.46,4.02,45.0,,0.012649000000000132,1.5847359559245193,1.8171126586493946,non_fall
3.383206,-0.202,2.0103,-0.1713,0.114,0.7633,-0.2818,11.46,4.02,45.0,,0.0007340000000000124,2.0276720099661087,1.8172502707322071,non_fall
3.386969,-0.202,2.0103,-0.1713,0.114,0.7633,-0.2818,7.92,3.66,45.36,,0.003763000000000183,2.0276720099661087,1.8067366878653295,non_fall
3.390342,-0.202,2.0103,-0.1713,0.1438,0.449,-0.3707,7.92,3.66,45.36,,0.0033729999999998483,2.0276720099661087,1.7843046561063625,non_fall
3.411415,-0.202,2.0103,-0.1713,0.2908,0.3281,-0.4357,7.92,3.66,45.36,,0.021072999999999897,2.0276720099661087,1.7495403291547813,non_fall
3.432006,-0.202,2.0103,-0.1713,0.3611,0.3675,-0.4336,7.92,3.66,45.36,,0.020591000000000026,2.0276720099661087,1.703017942656861,non_fall
3.44467,-0.202,2.0103,-0.1713,0.3611,0.3675,-0.4336,7.92,3.66,45.36,,0.012664000000000009,2.0276720099661087,1.646289254150296,non_fall
3.44552,-0.5263,1.0865,-0.1917,0.3611,0.3675,-0.4336,7.92,3.66,45.36,,0.0008500000000002395,1.2223840763033524,1.5817235724257328,non_fall
3.449151,-0.5263,1.0865,-0.1917,0.3611,0.3675,-0.4336,6.12,4.62,45.12,,0.00363099999999994,1.2223840763033524,1.5122263091943156,non_fall
3.452851,-0.5263,1.0865,-0.1917,0.3654,0.3723,-0.318,6.12,4.62,45.12,,0.0036999999999998145,1.2223840763033524,1.440890982270991,non_fall
3.473146,-0.5263,1.0865,-0.1917,0.3787,0.0117,-0.1667,6.12,4.62,45.12,,0.020294999999999952,1.2223840763033524,1.3706515373993908,non_fall
3.494016,-0.5263,1.0865,-0.1917,0.4719,-0.4762,0.0011,6.12,4.62,45.12,,0.020869999999999944,1.2223840763033524,1.3039941924046583,non_fall
3.505517,-0.5263,1.0865,-0.1917,0.4719,-0.4762,0.0011,6.12,4.62,45.12,,0.011501000000000428,1.2223840763033524,1.2427667789101517,non_fall
3.506914,-1.0248,0.3302,-0.2921,0.4719,-0.4762,0.0011,6.12,4.62,45.12,,0.0013969999999998706,1.1156027473971188,1.188099855064043,non_fall
3.510175,-1.0248,0.3302,-0.2921,0.4719,-0.4762,0.0011,4.38,4.68,46.02,,0.0032609999999997363,1.1156027473971188,1.1404350265416696,non_fall
3.513657,-1.0248,0.3302,-0.2921,0.5044,-0.8149,0.114,4.38,4.68,46.02,,0.003481999999999985,1.1156027473971188,1.099643265637873,non_fall
3.534919,-1.0248,0.3302,-0.2921,0.53,-0.9092,0.1811,4.38,4.68,46.02,,0.021262000000000114,1.1156027473971188,1.0652079155955403,non_fall
3.55556,-1.0248,0.3302,-0.2921,0.5806,-1.1015,0.1593,4.38,4.68,46.02,,0.02064099999999991,1.1156027473971188,1.0364420561980419,non_fall
3.56806,-1.0248,0.3302,-0.2921,0.5806,-1.1015,0.1593,4.38,4.68,46.02,,0.012500000000000178,1.1156027473971188,1.0127079108857342,non_fall
3.569213,0.8018,0.6383,-0.1668,0.5806,-1.1015,0.1593,4.38,4.68,46.02,,0.0011529999999999596,1.0383315318336432,0.9936075989817977,non_fall
3.572367,0.8018,0.6383,-0.1668,0.5806,-1.1015,0.1593,2.76,5.64,46.44,,0.003153999999999879,1.0383315318336432,0.9791197842759206,non_fall
3.575579,0.8018,0.6383,-0.1668,0.5326,-1.0812,0.0554,2.76,5.64,46.44,,0.0032119999999999926,1.0383315318336432,0.96966455119396,non_fall
3.596426,0.8018,0.6383,-0.1668,0.4645,-0.8543,-0.0969,2.76,5.64,46.44,,0.020847000000000282,1.0383315318336432,0.9660875080573669,non_fall
3.617244,0.8018,0.6383,-0.1668,0.3611,-1.0386,-0.0634,2.76,5.64,46.44,,0.02081799999999978,1.0383315318336432,0.969562533902849,non_fall
3.629537,0.8018,0.6383,-0.1668,0.3611,-1.0386,-0.0634,2.76,5.64,46.44,,0.01229300000000011,1.0383315318336432,0.981420652199457,non_fall
3.630891,-0.249,-0.8094,-0.5307,0.3611,-1.0386,-0.0634,2.76,5.64,46.44,,0.0013540000000000774,0.999385736340078,1.002920586858545,non_fall
3.633743,-0.249,-0.8094,-0.5307,0.3611,-1.0386,-0.0634,3.3,6.84,47.16,,0.0028519999999998547,0.999385736340078,1.0349844837831566,non_fall
3.637144,-0.249,-0.8094,-0.5307,0.4783,-0.8884,-0.0767,3.3,6.84,47.16,,0.0034010000000002094,0.999385736340078,1.0779290603871061,non_fall
3.657928,-0.249,-0.8094,-0.5307,0.6104,-0.5204,-0.066,3.3,6.84,47.16,,0.020783999999999914,0.999385736340078,1.1312265594883926,non_fall
3.678974,-0.249,-0.8094,-0.5307,0.538,-0.4479,-0.0021,3.3,6.84,47.16,,0.02104600000000012,0.999385736340078,1.1933299179648449,non_fall
3.691453,-0.249,-0.8094,-0.5307,0.538,-0.4479,-0.0021,3.3,6.84,47.16,,0.012478999999999907,0.999385736340078,1.2615915444578691,non_fall
3.692747,0.0176,-0.431,-1.4351,0.538,-0.4479,-0.0021,3.3,6.84,47.16,,0.0012939999999996843,1.4985268666260207,1.3322945577665029,non_fall
3.695426,0.0176,-0.431,-1.4351,0.538,-0.4479,-0.0021,4.2,7.98,47.7,,0.002679000000000098,1.4985268666260207,1.4008001745229899,non_fall
3.699474,0.0176,-0.431,-1.4351,0.5273,-0.4447,-0.073,4.2,7.98,47.7,,0.0040480000000000516,1.4985268666260207,1.4617991497446796,non_fall
3.719492,0.0176,-0.431,-1.4351,0.587,-0.4607,-0.3206,4.2,7.98,47.7,,0.02001799999999987,1.4985268666260207,1.5096449061022472,non_fall
3.740177,0.0176,-0.431,-1.4351,0.621,-0.2653,-0.4256,4.2,7.98,47.7,,0.020685000000000286,1.4985268666260207,1.5387444221298177,non_fall
3.751641,0.0176,-0.431,-1.4351,0.621,-0.2653,-0.4256,4.2,7.98,47.7,,0.011463999999999697,1.4985268666260207,1.5439870595484324,non_fall
3.752311,-0.826,0.6958,-0.8289,0.621,-0.2653,-0.4256,4.2,7.98,47.7,,0.0006700000000003925,1.361428973542138,1.5211954416711764,non_fall
3.75905,-0.826,0.6958,-0.8289,0.621,-0.2653,-0.4256,6.12,9.42,46.08,,0.006738999999999606,1.361428973542138,1.4675825785441088,non_fall
3.760071,-0.826,0.6958,-0.8289,0.5023,-0.2061,-0.3036,6.12,9.42,46.08,,0.0010210000000001607,1.361428973542138,1.382194914803131,non_fall
3.780324,-0.826,0.6958,-0.8289,0.4144,-0.2216,-0.2306,6.12,9.42,46.08,,0.020252999999999854,1.361428973542138,1.2663125927424594,non_fall
3.800704,-0.826,0.6958,-0.8289,0.3579,-0.392,-0.2152,6.12,9.42,46.08,,0.020380000000000287,1.361428973542138,1.1237683456540712,non_fall
3.813352,-0.826,0.6958,-0.8289,0.3579,-0.392,-0.2152,6.12,9.42,46.08,,0.012647999999999993,1.361428973542138,0.9611395818189569,non_fall
3.813936,-0.0394,0.3173,0.4875,0.3579,-0.392,-0.2152,6.12,9.42,46.08,,0.0005839999999999179,0.5829990566030103,0.7877695260288123,non_fall
3.817715,-0.0394,0.3173,0.4875,0.3579,-0.392,-0.2152,7.98,10.74,45.0,,0.003779000000000199,0.5829990566030103,0.6155849081141355,non_fall
3.821425,-0.0394,0.3173,0.4875,0.4043,-0.3478,-0.2983,7.98,10.74,45.0,,0.00370999999999988,0.5829990566030103,0.4586955327041316,non_fall
3.841933,-0.0394,0.3173,0.4875,0.3883,-0.3441,-0.3563,7.98,10.74,45.0,,0.02050799999999997,0.5829990566030103,0.33277681470368126,non_fall
3.862537,-0.0394,0.3173,0.4875,0.2839,-0.3419,-0.2866,7.98,10.74,45.0,,0.020604000000000067,0.5829990566030103,0.2542457725738806,non_fall
3.875074,-0.0394,0.3173,0.4875,0.2839,-0.3419,-0.2866,7.98,10.74,45.0,,0.01253700000000002,0.5829990566030103,0.23924889723002696,non_fall
3.875578,-0.229,-0.4275,0.2198,0.2839,-0.3419,-0.2866,7.98,10.74,45.0,,0.0005039999999998379,0.5324559042775279,0.30249519218140386,non_fall
3.879399,-0.229,-0.4275,0.2198,0.2839,-0.3419,-0.2866,8.94,12.18,43.5,,0.0038209999999998523,0.5324559042775279,0.455992949146738,non_fall
3.883057,-0.229,-0.4275,0.2198,0.3654,-0.4575,-0.3526,8.94,12.18,43.5,,0.003658000000000161,0.5324559042775279,0.7077808047608292,non_fall
3.904118,-0.229,-0.4275,0.2198,0.3878,-0.4218,-0.5289,8.94,12.18,43.5,,0.021060999999999996,0.5324559042775279,1.0607743308128688,non_fall
3.924449,-0.229,-0.4275,0.2198,0.5087,-0.2882,-0.4591,8.94,12.18,43.5,,0.0203310000000001,0.5324559042775279,1.5118691532085948,non_fall
3.937067,-0.229,-0.4275,0.2198,0.5087,-0.2882,-0.4591,8.94,12.18,43.5,,0.012617999999999796,0.5324559042775279,2.051440033642646,non_fall
3.937905,-2.9312,2.3392,0.9048,0.5087,-0.2882,-0.4591,8.94,12.18,43.5,,0.0008380000000003385,3.857778262160748,2.6633432339053265,non_fall
3.941384,-2.9312,2.3392,0.9048,0.5087,-0.2882,-0.4591,10.26,13.38,42.48,,0.00347900000000001,3.857778262160748,3.3254667593135676,non_fall
3.94514,-2.9312,2.3392,0.9048,0.6173,-0.4756,-0.2887,10.26,13.38,42.48,,0.0037559999999996485,3.857778262160748,4.010800707216381,non_fall
3.965793,-2.9312,2.3392,0.9048,0.5928,-0.979,0.0016,10.26,13.38,42.48,,0.020653000000000254,3.857778262160748,4.688952791757912,non_fall
3.986503,-2.9312,2.3392,0.9048,0.3792,-1.0109,0.1001,10.26,13.38,42.48,,0.020709999999999784,3.857778262160748,5.328026443831495,non_fall
3.999346,-2.9312,2.3392,0.9048,0.3792,-1.0109,0.1001,10.26,13.38,42.48,,0.01284300000000016,3.857778262160748,5.8967825643801515,non_fall
4.000492,-2.4552,7.679,2.3127,0.3792,-1.0109,0.1001,10.26,13.38,42.48,,0.0011460000000003134,8.38711090483487,6.36697575418975,non_fall
4.00325,-2.4552,7.679,2.3127,0.3792,-1.0109,0.1001,11.16,15.06,42.24,,0.002758000000000038,8.38711090483487,6.71567589470183,non_fall
4.007406,-2.4552,7.679,2.3127,0.4218,-0.0399,0.0495,11.16,15.06,42.24,,0.00415599999999916,8.38711090483487,6.9272935930950394,non_fall
4.02807,-2.4552,7.679,2.3127,0.7457,-0.9944,0.2498,11.16,15.06,42.24,,0.020664000000000016,8.38711090483487,6.9949912551914775,non_fall
4.048073,-2.4552,7.679,2.3127,0.383,-2.0197,0.4202,11.16,15.06,42.24,,0.020002999999999993,8.38711090483487,6.921222613799704,non_fall
4.060654,-2.4552,7.679,2.3127,0.383,-2.0197,0.4202,11.16,15.06,42.24,,0.012581000000000842,8.38711090483487,6.717285921199792,non_fall
4.061801,-2.3815,0.4244,3.4414,0.383,-2.0197,0.4202,11.16,15.06,42.24,,0.001146999999999565,4.206529634984164,6.4019523111076255,non_fall
4.065679,-2.3815,0.4244,3.4414,0.383,-2.0197,0.4202,12.3,16.38,42.6,,0.00387800000000027,4.206529634984164,5.999399820469324,non_fall
4.068143,-2.3815,0.4244,3.4414,0.7004,-1.8589,0.375,12.3,16.38,42.6,,0.0024639999999997997,4.206529634984164,5.536805947959378,non_fall
4.089003,-2.3815,0.4244,3.4414,0.424,-2.1092,0.1007,12.3,16.38,42.6,,0.02085999999999988,4.206529634984164,5.041983858594699,non_fall
4.109648,-2.3815,0.4244,3.4414,-0.0458,-2.0123,-0.2248,12.3,16.38,42.6,,0.020645000000000024,4.206529634984164,4.541374263273364,non_fall
4.121935,-2.3815,0.4244,3.4414,-0.0458,-2.0123,-0.2248,12.3,16.38,42.6,,0.012286999999999715,4.206529634984164,4.058565317851693,non_fall
4.123077,-2.9356,1.6598,-0.8843,-0.0458,-2.0123,-0.2248,12.3,16.38,42.6,,0.0011420000000006425,3.486354814128935,3.6133701654737487,non_fall
4.126452,-2.9356,1.6598,-0.8843,-0.0458,-2.0123,-0.2248,13.62,17.64,42.66,,0.0033749999999992397,3.486354814128935,3.221388099891104,non_fall
4.130092,-2.9356,1.6598,-0.8843,-0.3345,-1.6346,-0.0826,13.62,17.64,42.66,,0.0036400000000007537,3.486354814128935,2.893918983411394,non_fall
4.150991,-2.9356,1.6598,-0.8843,-0.3196,-1.2197,0.3622,13.62,17.64,42.66,,0.020899,3.486354814128935,2.6380820272899346,non_fall
4.171415,-2.9356,1.6598,-0.8843,-0.3265,-1.3268,0.3084,13.62,17.64,42.66,,0.02042399999999933,3.486354814128935,2.457000312325414,non_fall
4.184033,-2.9356,1.6598,-0.8843,-0.3265,-1.3268,0.3084,13.62,17.64,42.66,,0.012618000000000684,3.486354814128935,2.349950304458736,non_fall
4.18518,0.853,-0.4786,-0.9035,-0.3265,-1.3268,0.3084,13.62,17.64,42.66,,0.001146999999999565,1.331532654500069,2.3124423407655885,non_fall
4.188872,0.853,-0.4786,-0.9035,-0.3265,-1.3268,0.3084,15.96,18.96,41.22,,0.0036920000000000286,1.331532654500069,2.3362849284900795,non_fall
4.191748,0.853,-0.4786,-0.9035,-0.3164,-1.5068,0.024,15.96,18.96,41.22,,0.0028759999999996566,1.331532654500069,2.4097655479376088,non_fall
4.212388,0.853,-0.4786,-0.9035,-0.3292,-0.3148,-0.3116,15.96,18.96,41.22,,0.020640000000000214,1.331532654500069,2.518115969617666,non_fall
4.233655,0.853,-0.4786,-0.9035,-0.5438,0.1486,-0.4043,15.96,18.96,41.22,,0.021266999999999925,1.331532654500069,2.6443981527546008,non_fall
4.245572,0.853,-0.4786,-0.9035,-0.5438,0.1486,-0.4043,15.96,18.96,41.22,,0.0119170000000004,1.331532654500069,2.7708549990536513,non_fall
4.246561,-1.5895,0.1964,4.2634,-0.5438,0.1486,-0.4043,15.96,18.96,41.22,,0.0009889999999996846,4.55430156774889,2.880643530497933,non_fall
4.249745,-1.5895,0.1964,4.2634,-0.5438,0.1486,-0.4043,19.26,19.32,39.72,,0.0031840000000000757,4.55430156774889,2.9597341111276902,non_fall
4.25429,-1.5895,0.1964,4.2634,-0.368,-1.1329,-0.1933,19.26,19.32,39.72,,0.004545000000000243,4.55430156774889,2.998654451567992,non_fall
4.27371,-1.5895,0.1964,4.2634,-0.2344,-1.3769,-0.1603,19.26,19.32,39.72,,0.019420000000000215,4.55430156774889,2.9937258381267235,non_fall
4.293773,-1.5895,0.1964,4.2634,-0.4969,-0.6583,-0.4517,19.26,19.32,39.72,,0.020062999999999498,4.55430156774889,2.9475048457598936,non_fall
4.307259,-1.5895,0.1964,4.2634,-0.4969,-0.6583,-0.4517,19.26,19.32,39.72,,0.013486000000000331,4.55430156774889,2.868288175412858,non_fall
4.308409,0.0453,0.2309,1.1728,-0.4969,-0.6583,-0.4517,19.26,19.32,39.72,,0.0011499999999999844,1.1961717017217888,2.7687202508230295,non_fall
4.311151,0.0453,0.2309,1.1728,-0.4969,-0.6583,-0.4517,22.44,19.8,37.44,,0.002741999999999578,1.1961717017217888,2.6637249972112893,non_fall
4.315687,0.0453,0.2309,1.1728,-0.3526,-0.9113,-0.4815,22.44,19.8,37.44,,0.0045359999999998735,1.1961717017217888,2.5681258763265746,non_fall
4.335368,0.0453,0.2309,1.1728,-0.2189,-1.5606,-0.474,22.44,19.8,37.44,,0.01968100000000028,1.1961717017217888,2.494378337776538,non_fall
4.356091,0.0453,0.2309,1.1728,-0.4746,-1.2368,-0.4969,22.44,19.8,37.44,,0.02072300000000027,1.1961717017217888,2.4507958913312415,non_fall
4.368546,0.0453,0.2309,1.1728,-0.4746,-1.2368,-0.4969,22.44,19.8,37.44,,0.012455000000000105,1.1961717017217888,2.4405284123644986,non_fall
4.369651,1.6921,0.0783,-2.5636,-0.4746,-1.2368,-0.4969,22.44,19.8,37.44,,0.0011049999999999116,3.072682583671799,2.461394526852017,non_fall
4.373134,1.6921,0.0783,-2.5636,-0.4746,-1.2368,-0.4969,25.56,19.44,36.0,,0.003483000000000125,3.072682583671799,2.5065155707663958,non_fall
4.376218,1.6921,0.0783,-2.5636,-0.4927,-0.5795,-0.571,25.56,19.44,36.0,,0.0030839999999994205,3.072682583671799,2.5655730517564717,non_fall
4.396397,1.6921,0.0783,-2.5636,-0.457,-0.4336,-0.5092,25.56,19.44,36.0,,0.020179000000000613,3.072682583671799,2.626438279484441,non_fall
4.417207,1.6921,0.0783,-2.5636,-0.4591,-0.5246,-0.4421,25.56,19.44,36.0,,0.020809999999999995,3.072682583671799,2.6769112736296403,non_fall
4.430208,1.6921,0.0783,-2.5636,-0.4591,-0.5246,-0.4421,25.56,19.44,36.0,,0.01300100000000004,3.072682583671799,2.7063409142720114,non_fall
4.431191,2.4267,0.9799,-1.4141,-0.4591,-0.5246,-0.4421,25.56,19.44,36.0,,0.000982999999999734,2.9746858170233708,2.7069526184121995,non_fall
4.434379,2.4267,0.9799,-1.4141,-0.4591,-0.5246,-0.4421,27.3,19.02,35.16,,0.0031879999999997466,2.9746858170233708,2.6747649270391163,non_fall
4.437801,2.4267,0.9799,-1.4141,-0.4048,-0.3766,-0.4325,27.3,19.02,35.16,,0.00342200000000048,2.9746858170233708,2.6100260803548476,non_fall
4.458178,2.4267,0.9799,-1.4141,-0.3462,-0.1944,-0.3856,27.3,19.02,35.16,,0.020376999999999867,2.9746858170233708,2.5171459778402836,non_fall
4.479509,2.4267,0.9799,-1.4141,-0.4176,-0.0858,-0.2903,27.3,19.02,35.16,,0.02133099999999999,2.9746858170233708,2.4041403201200273,non_fall
4.491694,2.4267,0.9799,-1.4141,-0.4176,-0.0858,-0.2903,27.3,19.02,35.16,,0.012184999999999668,2.9746858170233708,2.2816464324722983,non_fall
4.492868,0.662,-0.3448,-0.9711,-0.4176,-0.0858,-0.2903,27.3,19.02,35.16,,0.0011739999999997863,1.2248127407893827,2.1616182909834563,non_fall
4.495203,0.662,-0.3448,-0.9711,-0.4176,-0.0858,-0.2903,28.38,18.66,34.32,,0.00233500000000042,1.2248127407893827,2.0558596939394724,non_fall
4.49931,0.662,-0.3448,-0.9711,-0.2067,-0.278,0.0107,28.38,18.66,34.32,,0.004107000000000305,1.2248127407893827,1.9745949388830992,non_fall
4.520404,0.662,-0.3448,-0.9711,-0.359,-0.131,0.0096,28.38,18.66,34.32,,0.021093999999999724,1.2248127407893827,1.9252831629187928,non_fall
4.540858,0.662,-0.3448,-0.9711,-0.3526,0.1443,0.0905,28.38,18.66,34.32,,0.020453999999999972,1.2248127407893827,1.911843550683472,non_fall
4.553376,0.662,-0.3448,-0.9711,-0.3526,0.1443,0.0905,28.38,18.66,34.32,,0.012518000000000029,1.2248127407893827,1.9343841709819132,non_fall
4.55389,2.4663,0.309,-0.8996,-0.3526,0.1443,0.0905,28.38,18.66,34.32,,0.0005139999999999034,2.643368466559288,1.9894389305406404,non_fall
4.556856,2.4663,0.309,-0.8996,-0.3526,0.1443,0.0905,29.76,18.42,33.06,,0.002965999999999802,2.643368466559288,2.0706332090059423,non_fall
4.560462,2.4663,0.309,-0.8996,-0.3899,0.5076,-0.0602,29.76,18.42,33.06,,0.003606000000000442,2.643368466559288,2.169634807032805,non_fall
4.581742,2.4663,0.309,-0.8996,-0.4341,0.8101,-0.196,29.76,18.42,33.06,,0.021279999999999966,2.643368466559288,2.277218914221205,non_fall
4.601948,2.4663,0.309,-0.8996,-0.3665,0.8538,-0.1081,29.76,18.42,33.06,,0.020205999999999946,2.643368466559288,2.3842898086786892,non_fall
4.615611,2.4663,0.309,-0.8996,-0.3665,0.8538,-0.1081,29.76,18.42,33.06,,0.013663000000000203,2.643368466559288,2.482745338178249,non_fall
4.616486,1.6354,1.975,0.2408,-0.3665,0.8538,-0.1081,29.76,18.42,33.06,,0.0008749999999997371,2.5754888468017096,2.5661215814865193,non_fall
4.619244,1.6354,1.975,0.2408,-0.3665,0.8538,-0.1081,30.78,18.06,32.4,,0.002758000000000038,2.5754888468017096,2.629999433433066,non_fall
4.622543,1.6354,1.975,0.2408,-0.3585,1.0051,0.0762,30.78,18.06,32.4,,0.003299000000000163,2.5754888468017096,2.6721866932447425,non_fall
4.643276,1.6354,1.975,0.2408,-0.2306,0.5795,0.319,30.78,18.06,32.4,,0.02073299999999989,2.5754888468017096,2.6927078323802816,non_fall
4.663693,1.6354,1.975,0.2408,-0.3505,0.6743,0.2578,30.78,18.06,32.4,,0.02041700000000013,2.5754888468017096,2.6936401393718685,non_fall
4.676648,1.6354,1.975,0.2408,-0.3505,0.6743,0.2578,30.78,18.06,32.4,,0.012954999999999828,2.5754888468017096,2.678831990374874,non_fall
4.67736,2.4763,0.0461,1.3219,-0.3505,0.6743,0.2578,30.78,18.06,32.4,,0.0007120000000000459,2.807419902686451,2.653530022853618,non_fall
4.681149,2.4763,0.0461,1.3219,-0.3505,0.6743,0.2578,30.96,17.58,32.22,,0.003788999999999376,2.807419902686451,2.6239308694841426,non_fall
4.683982,2.4763,0.0461,1.3219,-0.579,0.7744,0.1949,30.96,17.58,32.22,,0.0028330000000007516,2.807419902686451,2.59666452075667,non_fall
4.70554,2.4763,0.0461,1.3219,-0.6541,0.2743,0.3798,30.96,17.58,32.22,,0.021557999999999744,2.807419902686451,2.578215277906387,non_fall
4.728215,2.4763,0.0461,1.3219,-0.5252,0.0213,0.5076,30.96,17.58,32.22,,0.022674999999999557,2.807419902686451,2.5742953862796987,non_fall
4.737454,2.4763,0.0461,1.3219,-0.5252,0.0213,0.5076,30.96,17.58,32.22,,0.009238999999999997,2.807419902686451,2.5892047145168684,non_fall
4.737961,1.3271,0.1685,1.6877,-0.5252,0.0213,0.5076,30.96,17.58,32.22,,0.0005070000000007013,2.1535825849035835,2.6252335434547613,non_fall
4.741745,1.3271,0.1685,1.6877,-0.5252,0.0213,0.5076,30.72,16.86,33.0,,0.0037839999999995655,2.1535825849035835,2.6821892010649653,non_fall
4.745149,1.3271,0.1685,1.6877,-0.433,0.5497,0.3979,30.72,16.86,33.0,,0.0034039999999997406,2.1535825849035835,2.757142195350408,non_fall
4.76627,1.3271,0.1685,1.6877,-0.5566,1.1031,0.2647,30.72,16.86,33.0,,0.021120999999999945,2.1535825849035835,2.8444826077442924,non_fall
4.786081,1.3271,0.1685,1.6877,-0.596,1.1867,0.1055,30.72,16.86,33.0,,0.01981100000000069,2.1535825849035835,2.9363460744912553,non_fall
4.799283,1.3271,0.1685,1.6877,-0.596,1.1867,0.1055,30.72,16.86,33.0,,0.013201999999999714,2.1535825849035835,3.0234128622705176,non_fall
4.800383,1.623,-1.1575,3.5935,-0.596,1.1867,0.1055,30.72,16.86,33.0,,0.001100000000000101,4.109401112084338,3.096011219263842,non_fall
4.802966,1.623,-1.1575,3.5935,-0.596,1.1867,0.1055,29.76,15.9,34.38,,0.002582999999999558,4.109401112084338,3.1453790215526314,non_fall
4.810359,1.623,-1.1575,3.5935,-0.5539,0.3196,0.0431,29.76,15.9,34.38,,0.007393000000000427,4.109401112084338,3.1648764633367295,non_fall
4.826939,1.623,-1.1575,3.5935,-0.326,-0.302,0.0362,29.76,15.9,34.38,,0.01658000000000026,4.109401112084338,3.1509245741387253,non_fall
4.847663,1.623,-1.1575,3.5935,-0.3691,0.4836,-0.1427,29.76,15.9,34.38,,0.02072399999999952,4.109401112084338,3.10348460199031,non_fall
4.860127,1.623,-1.1575,3.5935,-0.3691,0.4836,-0.1427,29.76,15.9,34.38,,0.012464000000000475,4.109401112084338,3.0259811679668482,non_fall
4.860495,1.3768,0.0902,-1.1929,-0.3691,0.4836,-0.1427,29.76,15.9,34.38,,0.00036799999999992394,1.823931108896386,2.924683337771189,non_fall
4.864598,1.3768,0.0902,-1.1929,-0.3691,0.4836,-0.1427,28.08,14.4,35.82,,0.004102999999999746,1.823931108896386,2.8076694563348465,non_fall
4.868166,1.3768,0.0902,-1.1929,-0.4708,1.1819,-0.4362,28.08,14.4,35.82,,0.0035680000000004597,1.823931108896386,2.683588779816037,non_fall
4.888624,1.3768,0.0902,-1.1929,-0.7281,1.1063,-0.6072,28.08,14.4,35.82,,0.020457999999999643,1.823931108896386,2.5604671259063467,non_fall
4.909433,1.3768,0.0902,-1.1929,-1.029,0.9774,-0.8416,28.08,14.4,35.82,,0.020808999999999855,1.823931108896386,2.44477221190677,non_fall
4.921685,1.3768,0.0902,-1.1929,-1.029,0.9774,-0.8416,28.08,14.4,35.82,,0.012252000000000152,1.823931108896386,2.3408743985174674,non_fall
4.922229,-2.2764,-0.6955,0.8097,-1.029,0.9774,-0.8416,28.08,14.4,35.82,,0.0005439999999996559,2.5142257854059173,2.2509424108625904,non_fall
4.927348,-2.2764,-0.6955,0.8097,-1.029,0.9774,-0.8416,27.54,12.6,37.14,,0.00511900000000054,2.5142257854059173,2.175225752888924,non_fall
4.929663,-2.2764,-0.6955,0.8097,-0.9049,0.3915,-0.9087,27.54,12.6,37.14,,0.002314999999999401,2.5142257854059173,2.112609693953448,non_fall
4.95019,-2.2764,-0.6955,0.8097,-0.5214,0.4277,-0.7691,27.54,12.6,37.14,,0.020527000000000406,2.5142257854059173,2.061294129466323,non_fall
4.970871,-2.2764,-0.6955,0.8097,-0.9609,0.8453,-0.7462,27.54,12.6,37.14,,0.020680999999999727,2.5142257854059173,2.019447469065654,non_fall
4.98448,-2.2764,-0.6955,0.8097,-0.9609,0.8453,-0.7462,27.54,12.6,37.14,,0.01360899999999976,2.5142257854059173,1.9857147188503903,non_fall
4.985038,0.1932,-0.1366,1.8582,-0.9609,0.8453,-0.7462,27.54,12.6,37.14,,0.0005580000000007246,1.873203950454942,1.9595039111574912,non_fall
4.987862,0.1932,-0.1366,1.8582,-0.9609,0.8453,-0.7462,26.58,10.86,37.26,,0.0028239999999994936,1.873203950454942,1.9410267662264418,non_fall
4.99118,0.1932,-0.1366,1.8582,-1.1159,0.7718,-1.0871,26.58,10.86,37.26,,0.003318000000000154,1.873203950454942,1.9311181916831686,non_fall
5.011717,0.1932,-0.1366,1.8582,-0.8725,0.1971,-1.1004,26.58,10.86,37.26,,0.020537000000000027,1.873203950454942,1.9308948415123777,non_fall
5.03218,0.1932,-0.1366,1.8582,-0.5768,0.5987,-0.9225,26.58,10.86,37.26,,0.020463000000000342,1.873203950454942,1.9413301080898806,non_fall
5.044726,0.1932,-0.1366,1.8582,-0.5768,0.5987,-0.9225,26.58,10.86,37.26,,0.012545999999999502,1.873203950454942,1.96282491995178,non_fall
5.045064,-1.6944,-0.1619,-0.3047,-0.5768,0.5987,-0.9225,26.58,10.86,37.26,,0.0003380000000001715,1.7291746759653865,1.994848078938796,non_fall
5.049105,-1.6944,-0.1619,-0.3047,-0.5768,0.5987,-0.9225,25.74,9.48,38.28,,0.004040999999999961,1.7291746759653865,2.0357111221906132,non_fall
5.052805,-1.6944,-0.1619,-0.3047,-0.9603,1.8818,-0.6466,25.74,9.48,38.28,,0.0037000000000002586,1.7291746759653865,2.082530362511806,non_fall
5.073791,-1.6944,-0.1619,-0.3047,-0.89,1.9063,-0.8261,25.74,9.48,38.28,,0.020985999999999727,1.7291746759653865,2.1314099461484375,non_fall
5.094047,-1.6944,-0.1619,-0.3047,-0.8021,1.2682,-1.1995,25.74,9.48,38.28,,0.02025599999999983,1.7291746759653865,2.177852327257979,non_fall
5.106565,-1.6944,-0.1619,-0.3047,-0.8021,1.2682,-1.1995,25.74,9.48,38.28,,0.012518000000000029,1.7291746759653865,2.21736651198135,non_fall
5.107351,1.7367,-1.2823,2.1087,-0.8021,1.2682,-1.1995,25.74,9.48,38.28,,0.0007860000000006195,3.0177865845682326,2.2462017221288697,non_fall
5.111369,1.7367,-1.2823,2.1087,-0.8021,1.2682,-1.1995,24.96,9.06,38.76,,0.004017999999999411,3.0177865845682326,2.2620903320670145,non_fall
5.115299,1.7367,-1.2823,2.1087,-0.7872,0.6088,-1.428,24.96,9.06,38.76,,0.003930000000000433,3.0177865845682326,2.2648522821607098,non_fall
5.135026,1.7367,-1.2823,2.1087,-0.6599,0.2589,-1.1739,24.96,9.06,38.76,,0.019726999999999606,3.0177865845682326,2.2567119431733875,non_fall
5.155472,1.7367,-1.2823,2.1087,-0.5715,0.2274,-0.9838,24.96,9.06,38.76,,0.020445999999999742,3.0177865845682326,2.24221746265133,non_fall
5.168058,1.7367,-1.2823,2.1087,-0.5715,0.2274,-0.9838,24.96,9.06,38.76,,0.012586000000000652,3.0177865845682326,2.2277246032615183,non_fall
5.168843,1.0368,-0.8642,-0.307,-0.5715,0.2274,-0.9838,24.96,9.06,38.76,,0.0007849999999995916,1.3842127293158375,2.2204950993988852,non_fall
5.172765,1.0368,-0.8642,-0.307,-0.5715,0.2274,-0.9838,22.74,8.1,39.66,,0.003922000000000203,1.3842127293158375,2.2275467088723873,non_fall
5.176251,1.0368,-0.8642,-0.307,-0.3957,0.3185,-0.9422,22.74,8.1,39.66,,0.003485999999999656,1.3842127293158375,2.2544588490315123,non_fall
5.196789,1.0368,-0.8642,-0.307,-0.2216,0.4165,-1.0227,22.74,8.1,39.66,,0.020538000000000167,1.3842127293158375,2.30436114850325,non_fall
5.217286,1.0368,-0.8642,-0.307,-0.3377,1.0408,-1.0461,22.74,8.1,39.66,,0.020496999999999765,1.3842127293158375,2.3773004957613457,non_fall
5.229543,1.0368,-0.8642,-0.307,-0.3377,1.0408,-1.0461,22.74,8.1,39.66,,0.012256999999999962,1.3842127293158375,2.4701046809795413,non_fall
5.229836,-0.835,-3.4529,0.1616,-0.3377,1.0408,-1.0461,22.74,8.1,39.66,,0.00029300000000009874,3.5561015128930165,2.5767584951226308,non_fall
5.234145,-0.835,-3.4529,0.1616,-0.3377,1.0408,-1.0461,20.52,7.32,41.94,,0.004309000000000118,3.5561015128930165,2.6892018248648712,non_fall
5.237429,-0.835,-3.4529,0.1616,-0.1949,1.077,-1.3449,20.52,7.32,41.94,,0.0032839999999998426,3.5561015128930165,2.798372911479548,non_fall
5.258316,-0.835,-3.4529,0.1616,0.0549,0.3851,-1.7785,20.52,7.32,41.94,,0.0208870000000001,3.5561015128930165,2.895281584894425,non_fall
5.27886,-0.835,-3.4529,0.1616,0.1087,0.0895,-1.8429,20.52,7.32,41.94,,0.020544000000000118,3.5561015128930165,2.971920165953425,non_fall
5.291305,-0.835,-3.4529,0.1616,0.1087,0.0895,-1.8429,20.52,7.32,41.94,,0.012445000000000483,3.5561015128930165,3.0218885594746467,non_fall
5.291766,-0.526,-1.974,-1.4119,0.1087,0.0895,-1.8429,20.52,7.32,41.94,,0.0004609999999996006,2.483306990688022,3.0406953282977693,non_fall
5.295616,-0.526,-1.974,-1.4119,0.1087,0.0895,-1.8429,17.94,6.84,43.5,,0.003849999999999909,2.483306990688022,3.025775026931921,non_fall
5.299884,-0.526,-1.974,-1.4119,0.1081,0.0091,-1.6789,17.94,6.84,43.5,,0.0042679999999997165,2.483306990688022,2.976318387018596,non_fall
5.31986,-0.526,-1.974,-1.4119,0.1055,-0.1854,-1.5137,17.94,6.84,43.5,,0.01997600000000066,2.483306990688022,2.8930335934017144,non_fall
5.340933,-0.526,-1.974,-1.4119,0.1656,-0.4783,-1.4663,17.94,6.84,43.5,,0.021072999999999453,2.483306990688022,2.7779402356881877,non_fall
5.352951,-0.526,-1.974,-1.4119,0.1656,-0.4783,-1.4663,17.94,6.84,43.5,,0.012018000000000306,2.483306990688022,2.6342537847030347,non_fall
5.353419,2.0637,1.1668,-0.8734,0.1656,-0.4783,-1.4663,17.94,6.84,43.5,,0.0004679999999996909,2.5264812467144893,2.466366250704726,non_fall
5.357341,2.0637,1.1668,-0.8734,0.1656,-0.4783,-1.4663,15.6,6.6,45.0,,0.003922000000000203,2.5264812467144893,2.2798825672816636,non_fall
5.360673,2.0637,1.1668,-0.8734,0.1928,-0.6349,-1.3561,15.6,6.6,45.0,,0.0033320000000003347,2.5264812467144893,2.081640042511328,non_fall
5.381882,2.0637,1.1668,-0.8734,0.1742,-0.5486,-1.3092,15.6,6.6,45.0,,0.02120899999999981,2.5264812467144893,1.8796244202363055,non_fall
5.403033,2.0637,1.1668,-0.8734,0.1529,-0.3819,-1.4365,15.6,6.6,45.0,,0.021150999999999698,2.5264812467144893,1.682703836770604,non_fall
5.415326,2.0637,1.1668,-0.8734,0.1529,-0.3819,-1.4365,15.6,6.6,45.0,,0.012293000000000553,2.5264812467144893,1.5001331031446183,non_fall
5.416295,0.251,-0.3134,0.1381,0.1529,-0.3819,-1.4365,15.6,6.6,45.0,,0.0009689999999995536,0.42460825474783226,1.3408350109885998,non_fall
5.41954,0.251,-0.3134,0.1381,0.1529,-0.3819,-1.4365,14.34,7.8,45.54,,0.0032449999999997203,0.42460825474783226,1.212535590260937,non_fall
5.422895,0.251,-0.3134,0.1381,0.0927,-0.2397,-1.5052,14.34,7.8,45.54,,0.003354999999999997,0.42460825474783226,1.1208953056958766,non_fall
5.443457,0.251,-0.3134,0.1381,-0.049,0.123,-1.3614,14.34,7.8,45.54,,0.020562000000000857,0.42460825474783226,1.0688078703650512,non_fall
5.465488,0.251,-0.3134,0.1381,0.024,0.5912,-1.2852,14.34,7.8,45.54,,0.022030999999999246,0.42460825474783226,1.056015724153454,non_fall
5.477549,0.251,-0.3134,0.1381,0.024,0.5912,-1.2852,14.34,7.8,45.54,,0.0120610000000001,0.42460825474783226,1.079126907781538,non_fall
5.478206,-0.4775,0.7553,1.509,0.024,0.5912,-1.2852,14.34,7.8,45.54,,0.0006570000000003517,1.753728981342328,1.132036940271188,non_fall
5.482764,-0.4775,0.7553,1.509,0.024,0.5912,-1.2852,13.32,9.48,45.24,,0.004558000000000284,1.753728981342328,1.2066816732035528,non_fall
5.484541,-0.4775,0.7553,1.509,-0.0059,0.5641,-1.4253,13.32,9.48,45.24,,0.0017769999999996955,1.753728981342328,1.293988416419619,non_fall
5.504921,-0.4775,0.7553,1.509,-0.1049,0.2061,-1.6,13.32,9.48,45.24,,0.020380000000000287,1.753728981342328,1.3848677892348338,non_fall
5.526142,-0.4775,0.7553,1.509,0.0154,0.0138,-1.6,13.32,9.48,45.24,,0.021220999999999712,1.753728981342328,1.4711032890892617,non_fall
5.538734,-0.4775,0.7553,1.509,0.0154,0.0138,-1.6,13.32,9.48,45.24,,0.012591999999999715,1.753728981342328,1.546037925102921,non_fall
5.539209,0.1195,1.5737,0.1959,0.0154,0.0138,-1.6,13.32,9.48,45.24,,0.00047499999999978115,1.5903423373601044,1.6050078097765905,non_fall
5.542166,0.1195,1.5737,0.1959,0.0154,0.0138,-1.6,12.72,10.74,45.9,,0.0029570000000003205,1.5903423373601044,1.6455173954825022,non_fall
5.545704,0.1195,1.5737,0.1959,0.1827,0.2115,-1.331,12.72,10.74,45.9,,0.003537999999999819,1.5903423373601044,1.667184399953439,non_fall
5.567095,0.1195,1.5737,0.1959,0.2152,0.5353,-1.1324,12.72,10.74,45.9,,0.021391000000000382,1.5903423373601044,1.6715026964659563,non_fall
5.587515,0.1195,1.5737,0.1959,0.1875,0.6807,-0.979,12.72,10.74,45.9,,0.02041999999999966,1.5903423373601044,1.6614791618730338,non_fall
5.599666,0.1195,1.5737,0.1959,0.1875,0.6807,-0.979,12.72,10.74,45.9,,0.012151000000000245,1.5903423373601044,1.6411988158506916,non_fall
5.600262,-0.1451,-0.6747,1.3462,0.1875,0.6807,-0.979,12.72,10.74,45.9,,0.0005959999999998189,1.5127883328476592,1.6153658267206739,non_fall
5.604,-0.1451,-0.6747,1.3462,0.1875,0.6807,-0.979,11.7,11.88,45.24,,0.003738000000000241,1.5127883328476592,1.5888593829351807,non_fall
5.607772,-0.1451,-0.6747,1.3462,0.2711,0.4719,-0.889,11.7,11.88,45.24,,0.0037719999999996645,1.5127883328476592,1.5663344802710895,non_fall
5.628504,-0.1451,-0.6747,1.3462,0.3292,0.0266,-0.8448,11.7,11.88,45.24,,0.02073200000000064,1.5127883328476592,1.5518885742752402,non_fall
5.648702,-0.1451,-0.6747,1.3462,0.3419,-0.3324,-0.7169,11.7,11.88,45.24,,0.020197999999999716,1.5127883328476592,1.5488059341305218,non_fall
5.662054,-0.1451,-0.6747,1.3462,0.3419,-0.3324,-0.7169,11.7,11.88,45.24,,0.013352000000000253,1.5127883328476592,1.5593830407671756,non_fall
5.662619,-0.9155,1.4215,-0.2658,0.3419,-0.3324,-0.7169,11.7,11.88,45.24,,0.0005649999999999267,1.7115642377661435,1.5848312171922534,non_fall
5.665404,-0.9155,1.4215,-0.2658,0.3419,-0.3324,-0.7169,10.2,12.54,45.66,,0.0027849999999993713,1.7115642377661435,1.6252473821606408,non_fall
5.670091,-0.9155,1.4215,-0.2658,0.0671,-0.5214,-0.3606,10.2,12.54,45.66,,0.004687000000000552,1.7115642377661435,1.679641276058369,non_fall
5.690533,-0.9155,1.4215,-0.2658,-0.0613,-0.0682,-0.0836,10.2,12.54,45.66,,0.02044200000000007,1.7115642377661435,1.7460088888112009,non_fall
5.710243,-0.9155,1.4215,-0.2658,-0.1582,-0.2626,-0.008,10.2,12.54,45.66,,0.019709999999999894,1.7115642377661435,1.8214467640144665,non_fall
5.72301,-0.9155,1.4215,-0.2658,-0.1582,-0.2626,-0.008,10.2,12.54,45.66,,0.012767000000000195,1.7115642377661435,1.9023072964211065,non_fall
5.724009,1.1232,0.8891,1.573,-0.1582,-0.2626,-0.008,10.2,12.54,45.66,,0.000998999999999306,2.1275352053491385,1.984396986185167,non_fall
5.727124,1.1232,0.8891,1.573,-0.1582,-0.2626,-0.008,8.52,13.2,46.02,,0.003115000000000201,2.1275352053491385,2.063215976451623,non_fall
5.731233,1.1232,0.8891,1.573,-0.2221,-0.9241,-0.0453,8.52,13.2,46.02,,0.004108999999999696,2.1275352053491385,2.134230397454493,non_fall
5.751321,1.1232,0.8891,1.573,-0.0362,-0.9689,0.0543,8.52,13.2,46.02,,0.020088000000000328,2.1275352053491385,2.1931639985629094,non_fall
5.772775,1.1232,0.8891,1.573,0.0442,-0.4479,0.1795,8.52,13.2,46.02,,0.021454000000000306,2.1275352053491385,2.236294968887483,non_fall
5.78462,1.1232,0.8891,1.573,0.0442,-0.4479,0.1795,8.52,13.2,46.02,,0.011845000000000105,2.1275352053491385,2.260745320299333,non_fall
5.785936,0.3797,1.6372,1.6401,0.0442,-0.4479,0.1795,8.52,13.2,46.02,,0.0013160000000000949,2.348302352764652,2.2647491446121957,non_fall
5.789748,0.3797,1.6372,1.6401,0.0442,-0.4479,0.1795,7.92,13.8,45.72,,0.0038119999999999266,2.348302352764652,2.247880611581662,non_fall
5.792424,0.3797,1.6372,1.6401,0.016,-0.3611,0.0863,7.92,13.8,45.72,,0.0026759999999992345,2.348302352764652,2.2112153250349778,non_fall
5.813237,0.3797,1.6372,1.6401,0.0112,-0.5417,0.049,7.92,13.8,45.72,,0.020813000000000415,2.348302352764652,2.157394563473743,non_fall
5.833565,0.3797,1.6372,1.6401,0.0788,-0.9033,0.2471,7.92,13.8,45.72,,0.020328000000000124,2.348302352764652,2.0905648601420057,non_fall
5.845852,0.3797,1.6372,1.6401,0.0788,-0.9033,0.2471,7.92,13.8,45.72,,0.012286999999999715,2.348302352764652,2.016176233317424,non_fall
5.84631,-0.2903,-1.3343,0.9997,0.0788,-0.9033,0.2471,7.92,13.8,45.72,,0.00045800000000006946,1.6923447255213697,1.940640117149405,non_fall
5.849764,-0.2903,-1.3343,0.9997,0.0788,-0.9033,0.2471,8.16,14.1,45.84,,0.003454000000000512,1.6923447255213697,1.8708702561016628,non_fall
5.853164,-0.2903,-1.3343,0.9997,0.0703,-1.1654,0.2658,8.16,14.1,45.84,,0.0033999999999991815,1.6923447255213697,1.8137508785563774,non_fall
5.874355,-0.2903,-1.3343,0.9997,-0.0463,-1.3161,0.0362,8.16,14.1,45.84,,0.021191000000000848,1.6923447255213697,1.7755881946548482,non_fall
5.894724,-0.2903,-1.3343,0.9997,-0.1875,-0.9545,0.0133,8.16,14.1,45.84,,0.020368999999999637,1.6923447255213697,1.7615993142653106,non_fall
5.906792,-0.2903,-1.3343,0.9997,-0.1875,-0.9545,0.0133,8.16,14.1,45.84,,0.01206800000000019,1.6923447255213697,1.7754807828521044,non_fall
5.907343,1.3283,-0.8372,1.1246,-0.1875,-0.9545,0.0133,8.16,14.1,45.84,,0.0005509999999997461,1.9313233520050443,1.8190845836822966,non_fall
5.911244,1.3283,-0.8372,1.1246,-0.1875,-0.9545,0.0133,9.6,14.1,45.12,,0.0039009999999999323,1.9313233520050443,1.892217589525826,non_fall
5.915525,1.3283,-0.8372,1.1246,-0.0538,-0.6967,0.1848,9.6,14.1,45.12,,0.004280999999999757,1.9313233520050443,1.992572787451707,non_fall
5.935435,1.3283,-0.8372,1.1246,0.1529,-0.8533,0.482,9.6,14.1,45.12,,0.019910000000000316,1.9313233520050443,2.1157974718071917,non_fall
5.956275,1.3283,-0.8372,1.1246,0.1342,-1.2,0.6514,9.6,14.1,45.12,,0.020839999999999748,1.9313233520050443,2.255703189314917,non_fall
5.968886,1.3283,-0.8372,1.1246,0.1342,-1.2,0.6514,9.6,14.1,45.12,,0.012611000000000594,1.9313233520050443,2.4046195105900714,non_fall
5.969604,0.421,2.1849,1.9646,0.1342,-1.2,0.6514,9.6,14.1,45.12,,0.0007179999999999964,2.9682793281630353,2.55388283930364,non_fall
5.973111,0.421,2.1849,1.9646,0.1342,-1.2,0.6514,11.88,14.22,44.64,,0.003506999999999927,2.9682793281630353,2.694431042715198,non_fall
5.976828,0.421,2.1849,1.9646,-0.0282,-1.0248,0.179,11.88,14.22,44.64,,0.0037169999999999703,2.9682793281630353,2.8174520243096035,non_fall
5.997782,0.421,2.1849,1.9646,-0.4021,-0.8725,-0.1848,11.88,14.22,44.64,,0.020953999999999695,2.9682793281630353,2.9150223825563333,non_fall
6.018082,0.421,2.1849,1.9646,-1.33,-1.5249,-0.0932,11.88,14.22,44.64,,0.020299999999999763,2.9682793281630353,2.9806780303703433,non_fall
6.031979,0.421,2.1849,1.9646,-1.33,-1.5249,-0.0932,11.88,14.22,44.64,,0.013897000000000048,2.9682793281630353,3.0098761185270764,non_fall
6.032734,1.0379,-2.2163,1.7171,-1.33,-1.5249,-0.0932,11.88,14.22,44.64,,0.0007549999999998391,2.9895910272142574,3.0003248511503178,non_fall
6.034833,1.0379,-2.2163,1.7171,-1.33,-1.5249,-0.0932,14.4,14.52,43.44,,0.002099000000000295,2.9895910272142574,2.952167823782125,non_fall
6.038415,1.0379,-2.2163,1.7171,-1.8781,-2.0837,0.2791,14.4,14.52,43.44,,0.003581999999999752,2.9895910272142574,2.8680127693667385,non_fall
6.058517,1.0379,-2.2163,1.7171,-2.6861,-2.6126,0.7009,14.4,14.52,43.44,,0.02010200000000051,2.9895910272142574,2.7527950913409285,non_fall
6.079741,1.0379,-2.2163,1.7171,-2.9726,-2.8746,1.127,14.4,14.52,43.44,,0.02122400000000013,2.9895910272142574,2.6134689407935983,non_fall
6.092005,1.0379,-2.2163,1.7171,-2.9726,-2.8746,1.127,14.4,14.52,43.44,,0.012264000000000053,2.9895910272142574,2.458527191885524,non_fall
6.092516,-0.231,-1.2358,1.2405,-2.9726,-2.8746,1.127,14.4,14.52,43.44,,0.0005109999999994841,1.7661831416928426,2.297369780895933,non_fall
6.096375,-0.231,-1.2358,1.2405,-2.9726,-2.8746,1.127,16.62,13.92,43.2,,0.003859000000000279,1.7661831416928426,2.1395667556392253,non_fall
6.099738,-0.231,-1.2358,1.2405,-2.4411,-3.3199,1.314,16.62,13.92,43.2,,0.003363000000000227,1.7661831416928426,1.9940889342596115,non_fall
6.120816,-0.231,-1.2358,1.2405,-1.9505,-3.9623,1.1041,16.62,13.92,43.2,,0.021077999999999264,1.7661831416928426,1.8685905524600652,non_fall
6.141416,-0.231,-1.2358,1.2405,-1.1931,-3.0728,1.0456,16.62,13.92,43.2,,0.02060000000000084,1.7661831416928426,1.7688171567886009,non_fall
6.153643,-0.231,-1.2358,1.2405,-1.1931,-3.0728,1.0456,16.62,13.92,43.2,,0.012226999999999322,1.7661831416928426,1.6981862141924686,non_fall
6.154092,0.58,0.7282,1.2107,-1.1931,-3.0728,1.0456,16.62,13.92,43.2,,0.0004490000000005878,1.527242524944876,1.6575625288595703,non_fall
6.158235,0.58,0.7282,1.2107,-1.1931,-3.0728,1.0456,20.16,12.24,42.3,,0.004143000000000008,1.527242524944876,1.6452343608613285,non_fall
6.162078,0.58,0.7282,1.2107,-0.1097,-1.3305,0.6466,20.16,12.24,42.3,,0.003842999999999819,1.527242524944876,1.6570880527925922,non_fall
6.183662,0.58,0.7282,1.2107,0.2072,-0.8139,0.0629,20.16,12.24,42.3,,0.021583999999999826,1.527242524944876,1.6869730485743666,non_fall
6.203643,0.58,0.7282,1.2107,0.3462,0.3622,-0.4938,20.16,12.24,42.3,,0.019980999999999582,1.527242524944876,1.727240412538721,non_fall
6.217303,0.58,0.7282,1.2107,0.3462,0.3622,-0.4938,20.16,12.24,42.3,,0.013660000000000672,1.527242524944876,1.7694247309474498,non_fall
6.218457,-0.9218,1.7243,0.7344,0.3462,0.3622,-0.4938,20.16,12.24,42.3,,0.0011539999999996553,2.088604579617693,1.8050223592093948,non_fall
6.219759,-0.9218,1.7243,0.7344,0.3462,0.3622,-0.4938,24.12,8.76,39.3,,0.0013019999999999143,2.088604579617693,1.8263005231866845,non_fall
6.222802,-0.9218,1.7243,0.7344,0.2194,1.4962,-0.2887,24.12,8.76,39.3,,0.003042999999999907,2.088604579617693,1.8270568393024789,non_fall
6.245018,-0.9218,1.7243,0.7344,0.2115,-0.228,0.1076,24.12,8.76,39.3,,0.022216000000000236,2.088604579617693,1.8032448648140726,non_fall
6.264376,-0.9218,1.7243,0.7344,-0.1598,-1.763,-0.2722,24.12,8.76,39.3,,0.01935800000000043,2.088604579617693,1.7533928472811662,non_fall
6.277185,-0.9218,1.7243,0.7344,-0.1598,-1.763,-0.2722,24.12,8.76,39.3,,0.012808999999999848,2.088604579617693,1.678767700856587,non_fall
6.277683,0.3571,-0.6573,-1.0371,-0.1598,-1.763,-0.2722,24.12,8.76,39.3,,0.0004979999999994433,1.2787259714262473,1.5832686896479162,non_fall
6.281802,0.3571,-0.6573,-1.0371,-0.1598,-1.763,-0.2722,27.66,5.1,37.44,,0.004119000000000206,1.2787259714262473,1.4730699111329797,non_fall
6.285035,0.3571,-0.6573,-1.0371,-0.3377,-1.9127,-0.2407,27.66,5.1,37.44,,0.0032329999999998194,1.2787259714262473,1.3560606124962395,non_fall
6.305892,0.3571,-0.6573,-1.0371,-0.392,-1.5569,-0.3611,27.66,5.1,37.44,,0.020857000000000347,1.2787259714262473,1.2411491587171388,non_fall
6.326379,0.3571,-0.6573,-1.0371,-0.0767,-1.1169,-0.3009,27.66,5.1,37.44,,0.020487000000000144,1.2787259714262473,1.137496933541758,non_fall
6.339014,0.3571,-0.6573,-1.0371,-0.0767,-1.1169,-0.3009,27.66,5.1,37.44,,0.012634999999999508,1.2787259714262473,1.0537396865416684,non_fall
6.34045,-0.0099,0.2838,0.652,-0.0767,-1.1169,-0.3009,27.66,5.1,37.44,,0.0014359999999999928,0.7111571204733874,0.9972472477387718,non_fall
6.343403,-0.0099,0.2838,0.652,-0.0767,-1.1169,-0.3009,31.38,2.46,35.1,,0.0029530000000006495,0.7111571204733874,0.9734737342984786,non_fall
6.346817,-0.0099,0.2838,0.652,-0.0724,0.3941,-0.18,31.38,2.46,35.1,,0.003413999999999362,0.7111571204733874,0.9854552950883246,non_fall
6.367493,-0.0099,0.2838,0.652,0.1113,2.1875,0.0027,31.38,2.46,35.1,,0.020675999999999917,0.7111571204733874,1.0335114791235949,non_fall
6.387974,-0.0099,0.2838,0.652,0.3025,2.4725,-0.008,31.38,2.46,35.1,,0.020481000000000193,0.7111571204733874,1.115192488860374,non_fall
6.400298,-0.0099,0.2838,0.652,0.3025,2.4725,-0.008,31.38,2.46,35.1,,0.012324000000000446,0.7111571204733874,1.2254879709227775,non_fall
6.401276,1.5847,1.0541,0.4762,0.3025,2.4725,-0.008,31.38,2.46,35.1,,0.0009779999999999234,1.9619294941460053,1.3572777918191699,non_fall
6.405156,1.5847,1.0541,0.4762,0.3025,2.4725,-0.008,33.36,1.26,32.4,,0.0038799999999996615,1.9619294941460053,1.5019670301944026,non_fall
6.407664,1.5847,1.0541,0.4762,0.4629,1.86,0.0075,33.36,1.26,32.4,,0.0025079999999997327,1.9619294941460053,1.6502163470733575,non_fall
6.429035,1.5847,1.0541,0.4762,0.7446,1.6336,0.245,33.36,1.26,32.4,,0.02137100000000025,1.9619294941460053,1.7926688855955437,non_fall
6.449331,1.5847,1.0541,0.4762,0.7281,1.9446,0.5151,33.36,1.26,32.4,,0.020296000000000092,1.9619294941460053,1.9205918843037273,non_fall
6.462584,1.5847,1.0541,0.4762,0.7281,1.9446,0.5151,33.36,1.26,32.4,,0.013252999999999737,1.9619294941460053,2.026385295194743,non_fall
6.463124,0.5476,-1.2472,1.6051,0.7281,1.9446,0.5151,33.36,1.26,32.4,,0.0005399999999999849,2.105164984033318,2.103943586197419,non_fall
6.466463,0.5476,-1.2472,1.6051,0.7281,1.9446,0.5151,33.24,1.56,33.3,,0.003339000000000425,2.105164984033318,2.1488796167965765,non_fall
6.469759,0.5476,-1.2472,1.6051,0.1236,0.4879,0.1944,33.24,1.56,33.3,,0.0032959999999997436,2.105164984033318,2.158629822223098,non_fall
6.490146,0.5476,-1.2472,1.6051,0.1875,0.0229,0.5731,33.24,1.56,33.3,,0.020387000000000377,2.105164984033318,2.1324618196248064,non_fall
6.510854,0.5476,-1.2472,1.6051,-0.0394,-0.4474,0.5875,33.24,1.56,33.3,,0.02070799999999995,2.105164984033318,2.0714032148267716,non_fall
6.523259,0.5476,-1.2472,1.6051,-0.0394,-0.4474,0.5875,33.24,1.56,33.3,,0.012405000000000221,2.105164984033318,1.9781066869475727,non_fall
6.524338,0.6288,-0.7765,1.2261,-0.0394,-0.4474,0.5875,33.24,1.56,33.3,,0.00107899999999983,1.581664597820916,1.856663299630495,non_fall
6.527597,0.6288,-0.7765,1.2261,-0.0394,-0.4474,0.5875,32.34,1.92,34.98,,0.003258999999999901,1.581664597820916,1.7123745057269215,non_fall
6.532515,0.6288,-0.7765,1.2261,-0.3036,-0.5135,0.604,32.34,1.92,34.98,,0.004917999999999978,1.581664597820916,1.5514920502234308,non_fall
6.551909,0.6288,-0.7765,1.2261,-0.139,-0.1997,0.7776,32.34,1.92,34.98,,0.019394000000000133,1.581664597820916,1.38093059281122,non_fall
6.572041,0.6288,-0.7765,1.2261,0.0618,-0.1252,0.7212,32.34,1.92,34.98,,0.020131999999999373,1.581664597820916,1.207950158857557,non_fall
6.584791,0.6288,-0.7765,1.2261,0.0618,-0.1252,0.7212,32.34,1.92,34.98,,0.012750000000000483,1.581664597820916,1.0398007387559143,non_fall
6.585693,0.1623,-0.3626,0.0221,0.0618,-0.1252,0.7212,32.34,1.92,34.98,,0.0009019999999999584,0.3978799567708833,0.8833279762124595,non_fall
6.58921,0.1623,-0.3626,0.0221,0.0618,-0.1252,0.7212,31.32,1.98,35.94,,0.0035169999999995483,0.3978799567708833,0.7445591280192986,non_fall
6.592433,0.1623,-0.3626,0.0221,-0.0479,-0.2083,0.5273,31.32,1.98,35.94,,0.003223000000000198,0.3978799567708833,0.6283129709906345,non_fall
6.613689,0.1623,-0.3626,0.0221,-0.2418,-0.2024,0.3776,31.32,1.98,35.94,,0.021256000000000164,0.3978799567708833,0.5378897607694293,non_fall
6.633696,0.1623,-0.3626,0.0221,-0.0756,-0.1523,0.3755,31.32,1.98,35.94,,0.020006999999999664,0.3978799567708833,0.4748883567344392,non_fall
6.645618,0.1623,-0.3626,0.0221,-0.0756,-0.1523,0.3755,31.32,1.98,35.94,,0.01192200000000021,0.3978799567708833,0.4391731831027463,non_fall
6.645938,0.2629,0.2265,0.3852,-0.0756,-0.1523,0.3755,31.32,1.98,35.94,,0.00032000000000032003,0.5184570377572283,0.4289872733129763,non_fall
6.651174,0.2629,0.2265,0.3852,-0.0756,-0.1523,0.3755,29.82,1.44,37.56,,0.005236000000000018,0.5184570377572283,0.44118810308555895,non_fall
6.654585,0.2629,0.2265,0.3852,0.2397,-0.0202,0.4666,29.82,1.44,37.56,,0.003410999999999831,0.5184570377572283,0.4715722429791555,non_fall
6.674873,0.2629,0.2265,0.3852,0.179,-0.0703,0.4245,29.82,1.44,37.56,,0.02028799999999986,0.5184570377572283,0.5152520765162313,non_fall
6.695778,0.2629,0.2265,0.3852,0.0597,-0.1108,0.3638,29.82,1.44,37.56,,0.02090499999999995,0.5184570377572283,0.567050759366301,non_fall
6.708127,0.2629,0.2265,0.3852,0.0597,-0.1108,0.3638,29.82,1.44,37.56,,0.012349000000000387,0.5184570377572283,0.6218867814442919,non_fall
6.709104,0.4744,-0.0128,0.7557,0.0597,-0.1108,0.3638,29.82,1.44,37.56,,0.0009769999999997836,0.8923573779601982,0.6751233197458644,non_fall
6.712422,0.4744,-0.0128,0.7557,0.0597,-0.1108,0.3638,30.06,0.96,37.68,,0.003318000000000154,0.8923573779601982,0.7228585258071412,non_fall
6.716686,0.4744,-0.0128,0.7557,-0.0128,-0.1241,0.2296,30.06,0.96,37.68,,0.0042640000000000455,0.8923573779601982,0.7621331696126684,non_fall
6.737239,0.4744,-0.0128,0.7557,0.0261,-0.041,0.1305,30.06,0.96,37.68,,0.0205529999999996,0.8923573779601982,0.7910362355136246,non_fall
6.756236,0.4744,-0.0128,0.7557,-0.0027,-0.0341,0.0117,30.06,0.96,37.68,,0.018997000000000597,0.8923573779601982,0.8086997762015924,non_fall
6.770765,0.4744,-0.0128,0.7557,-0.0027,-0.0341,0.0117,30.06,0.96,37.68,,0.01452899999999957,0.8923573779601982,0.8151896165855294,non_fall
6.77155,0.1912,-0.2044,0.5542,-0.0027,-0.0341,0.0117,30.06,0.96,37.68,,0.0007850000000004798,0.6208658792364097,0.8113140911936046,non_fall
6.773494,0.1912,-0.2044,0.5542,-0.0027,-0.0341,0.0117,30.06,0.18,35.94,,0.0019439999999999458,0.6208658792364097,0.7983855223659229,non_fall
6.777002,0.1912,-0.2044,0.5542,-0.0266,-0.187,-0.0245,30.06,0.18,35.94,,0.0035080000000000666,0.6208658792364097,0.7779759913310365,non_fall
6.798537,0.1912,-0.2044,0.5542,0.0138,0.1326,-0.0144,30.06,0.18,35.94,,0.021534999999999194,0.6208658792364097,0.7517075580810726,non_fall
6.818548,0.1912,-0.2044,0.5542,0.0005,0.0975,-0.0336,30.06,0.18,35.94,,0.020011000000000223,0.6208658792364097,0.721106832115088,non_fall
6.830905,0.1912,-0.2044,0.5542,0.0005,0.0975,-0.0336,30.06,0.18,35.94,,0.01235699999999973,0.6208658792364097,0.6875376083291469,non_fall
6.831385,0.0246,-0.2704,0.6511,0.0005,0.0975,-0.0336,30.06,0.18,35.94,,0.00048000000000048004,0.7054449163471235,0.652207792457819,non_fall
6.836128,0.0246,-0.2704,0.6511,0.0005,0.0975,-0.0336,30.24,-0.54,35.7,,0.004743000000000386,0.7054449163471235,0.6162316925135208,non_fall
6.839404,0.0246,-0.2704,0.6511,0.2019,0.0522,0.0016,30.24,-0.54,35.7,,0.0032759999999996126,0.7054449163471235,0.5807182357339291,non_fall
6.859323,0.0246,-0.2704,0.6511,0.2264,0.0112,0.057,30.24,-0.54,35.7,,0.019918999999999798,0.7054449163471235,0.5468514446651657,non_fall
6.879509,0.0246,-0.2704,0.6511,0.187,0.0703,0.1342,30.24,-0.54,35.7,,0.020185999999999815,0.7054449163471235,0.5159323717869185,non_fall
6.892333,0.0246,-0.2704,0.6511,0.187,0.0703,0.1342,30.24,-0.54,35.7,,0.012824000000000169,0.7054449163471235,0.48936115815556774,non_fall
6.893175,-0.3015,-0.1228,-0.0557,0.187,0.0703,0.1342,30.24,-0.54,35.7,,0.0008420000000004535,0.3302795482617717,0.468552557055753,non_fall
6.896738,-0.3015,-0.1228,-0.0557,0.187,0.0703,0.1342,30.24,-0.96,35.76,,0.003562999999999761,0.3302795482617717,0.45479584604081535,non_fall
6.900658,-0.3015,-0.1228,-0.0557,0.1758,0.0005,0.1758,30.24,-0.96,35.76,,0.0039199999999999235,0.3302795482617717,0.44908625302626226,non_fall
6.921074,-0.3015,-0.1228,-0.0557,0.1071,-0.1316,0.163,30.24,-0.96,35.76,,0.02041599999999999,0.3302795482617717,0.45196418858924575,non_fall
6.941698,-0.3015,-0.1228,-0.0557,-0.0309,-0.1886,0.1284,30.24,-0.96,35.76,,0.020623999999999754,0.3302795482617717,0.4633974723123299,non_fall
6.953989,-0.3015,-0.1228,-0.0557,-0.0309,-0.1886,0.1284,30.24,-0.96,35.76,,0.012291000000000274,0.3302795482617717,0.48273206805980307,non_fall
6.954656,0.3099,0.4974,-0.0467,-0.0309,-0.1886,0.1284,30.24,-0.96,35.76,,0.0006669999999999732,0.5878993621360717,0.5087228620857185,non_fall
6.959243,0.3099,0.4974,-0.0467,-0.0309,-0.1886,0.1284,30.12,-1.14,36.0,,0.004586999999999897,0.5878993621360717,0.5396412324216995,non_fall
6.962098,0.3099,0.4974,-0.0467,-0.0117,-0.1976,0.041,30.12,-1.14,36.0,,0.002855000000000274,0.5878993621360717,0.5734433425956262,non_fall
