time,ax,ay,az,wx,wy,wz,Bx,By,Bz,Unnamed: 10,time_diff,acc_mag,acc_mag_filtered,label
0.06002,0.0,0.0,0.0,0.0,0.0,0.0,0.0,0.0,0.0,,0.0,0.0,0.0025341309247410154,non_fall
0.097459,0.0,0.0,0.0,0.0,0.0,0.0,4.6875,-12.0,-45.15,,0.03743900000000001,0.0,0.000637894021627842,non_fall
0.103855,0.0,0.0,0.0,0.2856,-0.1675,0.1045,4.6875,-12.0,-45.15,,0.006395999999999999,0.0,3.7614703498359125e-06,non_fall
0.119323,0.0,0.0,0.0,0.2856,-0.1675,0.1045,4.6875,-12.0,-45.15,,0.015467999999999996,0.0,0.0018298658895728151,non_fall
0.119858,0.0,0.0,0.0,0.2856,-0.1675,0.1045,4.6875,-12.0,-45.15,,0.0005350000000000077,0.0,0.0068069203712200765,non_fall
0.157238,0.0,0.0,0.0,0.2856,-0.1675,0.1045,3.6938,-11.8125,-45.6938,,0.03737999999999998,0.0,0.015029915951117197,non_fall
0.159007,0.0,0.0,0.0,0.2654,-0.2378,0.0314,3.6938,-11.8125,-45.6938,,0.0017690000000000206,0.0,0.026035376402588226,non_fall
0.180679,0.0,0.0,0.0,0.2654,-0.2378,0.0314,3.6938,-11.8125,-45.6938,,0.021671999999999997,0.0,0.038969412979372196,non_fall
0.181612,0.1126,0.0317,0.0048,0.2654,-0.2378,0.0314,3.6938,-11.8125,-45.6938,,0.0009329999999999894,0.11707557388285568,0.05285689042267804,non_fall
0.217678,0.1126,0.0317,0.0048,0.2654,-0.2378,0.0314,3.075,-11.7188,-46.0125,,0.036066000000000015,0.11707557388285568,0.06689160816056511,non_fall
0.221413,0.1126,0.0317,0.0048,0.1077,0.0522,0.0759,3.075,-11.7188,-46.0125,,0.0037349999999999883,0.11707557388285568,0.08062650345404145,non_fall
0.240887,0.1126,0.0317,0.0048,0.1077,0.0522,0.0759,3.075,-11.7188,-46.0125,,0.01947399999999999,0.11707557388285568,0.09395237028117652,non_fall
0.262389,-0.0379,0.0132,0.0669,0.1077,0.0522,0.0759,3.075,-11.7188,-46.0125,,0.021501999999999993,0.07801448583436284,0.10683266249888497,non_fall
0.277509,-0.0379,0.0132,0.0669,0.1077,0.0522,0.0759,2.85,-11.5312,-46.2,,0.015120000000000022,0.07801448583436284,0.11888122736198212,non_fall
0.282019,-0.0379,0.0132,0.0669,-0.0084,-0.0043,0.0112,2.85,-11.5312,-46.2,,0.004510000000000014,0.07801448583436284,0.1289705055661401,non_fall
0.302268,-0.0379,0.0132,0.0669,-0.0084,-0.0043,0.0112,2.85,-11.5312,-46.2,,0.02024899999999996,0.07801448583436284,0.13509138693787026,non_fall
0.322101,0.0542,0.0786,0.0583,-0.0084,-0.0043,0.0112,2.85,-11.5312,-46.2,,0.019833000000000045,0.11186818135645184,0.13463607839959899,non_fall
0.33791,0.0542,0.0786,0.0583,-0.0084,-0.0043,0.0112,2.55,-11.475,-46.3688,,0.015808999999999962,0.11186818135645184,0.125157217556227,non_fall
0.342603,0.0542,0.0786,0.0583,-0.1337,0.0863,0.0393,2.55,-11.475,-46.3688,,0.004693000000000003,0.11186818135645184,0.10550577239216338,non_fall
0.362514,0.0542,0.0786,0.0583,-0.1337,0.0863,0.0393,2.55,-11.475,-46.3688,,0.019911000000000012,0.11186818135645184,0.0771084733808934,non_fall
0.383148,-0.1112,0.0048,0.0401,-0.1337,0.0863,0.0393,2.55,-11.475,-46.3688,,0.020633999999999986,0.11830676227502804,0.04504693874098186,non_fall
0.397095,-0.1112,0.0048,0.0401,-0.1337,0.0863,0.0393,2.175,-11.475,-46.5563,,0.013946999999999987,0.11830676227502804,0.018568168031407033,non_fall
0.405048,-0.1112,0.0048,0.0401,-0.0278,-0.0571,0.0574,2.175,-11.475,-46.5563,,0.007953000000000043,0.11830676227502804,0.01070632777702897,non_fall
0.423231,-0.1112,0.0048,0.0401,-0.0278,-0.0571,0.0574,2.175,-11.475,-46.5563,,0.018183000000000005,0.11830676227502804,0.03684123075271343,non_fall
0.443852,-0.0355,0.1706,0.0747,-0.0278,-0.0571,0.0574,2.175,-11.475,-46.5563,,0.020621,0.18959087530785865,0.112257862509894,non_fall
0.461726,-0.0355,0.1706,0.0747,-0.0278,-0.0571,0.0574,1.8563,-11.5125,-46.8,,0.017874,0.18959087530785865,0.24907576781271526,non_fall
0.46591,-0.0355,0.1706,0.0747,0.0016,-0.1792,0.1578,1.8563,-11.5125,-46.8,,0.0041839999999999655,0.18959087530785865,0.4532285409297802,non_fall
0.484518,-0.0355,0.1706,0.0747,0.0016,-0.1792,0.1578,1.8563,-11.5125,-46.8,,0.018608000000000013,0.18959087530785865,0.7223939345644216,non_fall
0.517988,-0.0355,0.1706,0.0747,0.0016,-0.1792,0.1578,1.4062,-11.5875,-46.875,,0.03347,0.18959087530785865,1.0457464555148257,non_fall
0.525597,-1.7317,1.5118,-0.8731,0.0016,-0.1792,0.1578,1.4062,-11.5875,-46.875,,0.007608999999999977,2.458989170370622,1.40593849539782,non_fall
0.527129,-1.7317,1.5118,-0.8731,-0.7947,-1.8711,0.8771,1.4062,-11.5875,-46.875,,0.0015319999999999778,2.458989170370622,1.7827926895308015,non_fall
0.546152,-1.7317,1.5118,-0.8731,-0.7947,-1.8711,0.8771,1.4062,-11.5875,-46.875,,0.019023000000000012,2.458989170370622,2.1572328363388906,non_fall
0.577668,-1.7317,1.5118,-0.8731,-0.7947,-1.8711,0.8771,-0.2625,-11.1375,-46.7625,,0.03151599999999999,2.458989170370622,2.513729649853616,non_fall
0.58644,-1.7317,1.5118,-0.8731,-0.8234,-6.5436,1.8778,-0.2625,-11.1375,-46.7625,,0.008772000000000002,2.458989170370622,2.8403245657404894,non_fall
0.587975,-0.5765,1.3683,2.7456,-0.8234,-6.5436,1.8778,-0.2625,-11.1375,-46.7625,,0.001535000000000064,3.12136452533183,3.126603758469626,non_fall
0.60632,-0.5765,1.3683,2.7456,-0.8234,-6.5436,1.8778,-0.2625,-11.1375,-46.7625,,0.018344999999999945,3.12136452533183,3.360968706698117,non_fall
0.637808,-0.5765,1.3683,2.7456,-0.8234,-6.5436,1.8778,-3.3938,-10.2,-46.0688,,0.03148800000000007,3.12136452533183,3.5287783051147454,non_fall
0.64678,-0.5765,1.3683,2.7456,-1.1429,-1.3053,1.4301,-3.3938,-10.2,-46.0688,,0.00897199999999998,3.12136452533183,3.612565680255652,non_fall
0.647977,2.2913,-0.0565,-2.9151,-1.1429,-1.3053,1.4301,-3.3938,-10.2,-46.0688,,0.0011970000000000036,3.7082416250832413,3.5948239638371726,non_fall
0.668098,2.2913,-0.0565,-2.9151,-1.1429,-1.3053,1.4301,-3.3938,-10.2,-46.0688,,0.020120999999999944,3.7082416250832413,3.4629359084842823,non_fall
0.698287,2.2913,-0.0565,-2.9151,-1.1429,-1.3053,1.4301,-6.075,-8.5125,-46.5563,,0.03018900000000002,3.7082416250832413,3.214848113586779,non_fall
0.708582,2.2913,-0.0565,-2.9151,-0.4031,0.8421,0.0141,-6.075,-8.5125,-46.5563,,0.010295000000000054,3.7082416250832413,2.86341783618247,non_fall
0.730468,2.2913,-0.0565,-2.9151,-0.4031,0.8421,0.0141,-6.075,-8.5125,-46.5563,,0.02188599999999996,3.7082416250832413,2.43739934530689,non_fall
0.731925,-0.1791,-0.5278,0.2982,-0.4031,0.8421,0.0141,-6.075,-8.5125,-46.5563,,0.0014570000000000416,0.6321177817464084,1.978000895605221,non_fall
0.759067,-0.1791,-0.5278,0.2982,-0.4031,0.8421,0.0141,-9.075,-6.9563,-45.9938,,0.027142,0.6321177817464084,1.5316622963836626,non_fall
0.76878,-0.1791,-0.5278,0.2982,0.1712,0.4743,-0.1194,-9.075,-6.9563,-45.9938,,0.009712999999999972,0.6321177817464084,1.1414435763362847,non_fall
0.790301,-0.2955,0.2012,-0.6649,0.1712,0.4743,-0.1194,-9.075,-6.9563,-45.9938,,0.021521000000000012,0.7549130413497968,0.8401043628358102,non_fall
0.791866,-0.2955,0.2012,-0.6649,0.1712,0.4743,-0.1194,-9.075,-6.9563,-45.9938,,0.0015649999999999276,0.7549130413497968,0.6470761883746406,non_fall
0.82025,-0.2955,0.2012,-0.6649,0.1712,0.4743,-0.1194,-11.8875,-5.5875,-45.5063,,0.028384000000000076,0.7549130413497968,0.5697090522165307,non_fall
0.830696,-0.2955,0.2012,-0.6649,-0.3605,1.1754,0.6619,-11.8875,-5.5875,-45.5063,,0.010445999999999955,0.7549130413497968,0.6075348099061069,non_fall
0.850532,-0.2955,0.2012,-0.6649,-0.3605,1.1754,0.6619,-11.8875,-5.5875,-45.5063,,0.019835999999999965,0.7549130413497968,0.7574654046483142,non_fall
0.851252,-1.1148,-0.0924,-1.6149,-0.3605,1.1754,0.6619,-11.8875,-5.5875,-45.5063,,0.0007200000000000539,1.9644894527586552,1.0177771220960237,non_fall
0.878082,-1.1148,-0.0924,-1.6149,-0.3605,1.1754,0.6619,-14.2875,-3.6938,-45.2063,,0.02683000000000002,1.9644894527586552,1.389138379522923,non_fall
0.893215,-1.1148,-0.0924,-1.6149,-1.6112,1.6842,4.3291,-14.2875,-3.6938,-45.2063,,0.015132999999999952,1.9644894527586552,1.8717167697496562,non_fall
0.911222,-2.5025,0.6191,0.0079,-1.6112,1.6842,4.3291,-14.2875,-3.6938,-45.2063,,0.018006999999999995,2.5779552885959833,2.4586215466866483,non_fall
0.912114,-2.5025,0.6191,0.0079,-1.6112,1.6842,4.3291,-14.2875,-3.6938,-45.2063,,0.0008920000000000039,2.5779552885959833,3.1274928694627824,non_fall
0.93836,-2.5025,0.6191,0.0079,-1.6112,1.6842,4.3291,-15.6,-0.75,-45.075,,0.02624599999999999,2.5779552885959833,3.8334648497788777,non_fall
0.952389,-2.5025,0.6191,0.0079,-0.5007,1.649,4.3508,-15.6,-0.75,-45.075,,0.01402900000000007,2.5779552885959833,4.507378292404368,non_fall
0.971618,-2.5025,0.6191,0.0079,-0.5007,1.649,4.3508,-15.6,-0.75,-45.075,,0.01922899999999994,2.5779552885959833,5.062441880931682,non_fall
0.993342,2.4782,-6.8814,2.7665,-0.5007,1.649,4.3508,-15.6,-0.75,-45.075,,0.021723999999999966,7.819761086503858,5.410137589107082,non_fall
0.998444,2.4782,-6.8814,2.7665,-0.5007,1.649,4.3508,-16.4813,2.3625,-45.0375,,0.005102000000000051,7.819761086503858,5.4822443399539,non_fall
1.01393,2.4782,-6.8814,2.7665,0.0031,-3.2014,0.8661,-16.4813,2.3625,-45.0375,,0.015486,7.819761086503858,5.251930697023701,non_fall
1.03338,2.4782,-6.8814,2.7665,0.0031,-3.2014,0.8661,-16.4813,2.3625,-45.0375,,0.019449999999999967,7.819761086503858,4.7454528265760105,non_fall
1.054295,-0.4135,-0.178,-0.934,0.0031,-3.2014,0.8661,-16.4813,2.3625,-45.0375,,0.020915000000000017,1.036832797513659,4.038743817497618,non_fall
1.058129,-0.4135,-0.178,-0.934,0.0031,-3.2014,0.8661,-16.9875,4.95,-44.7,,0.003834000000000115,1.036832797513659,3.2392224294834167,non_fall
1.073661,-0.4135,-0.178,-0.934,0.8075,-2.0168,-0.3012,-16.9875,4.95,-44.7,,0.01553199999999988,1.036832797513659,2.459327994571353,non_fall
1.093534,-0.4135,-0.178,-0.934,0.8075,-2.0168,-0.3012,-16.9875,4.95,-44.7,,0.01987300000000003,1.036832797513659,1.7911835444062953,non_fall
1.114712,-0.5463,0.1702,-1.2767,0.8075,-2.0168,-0.3012,-16.9875,4.95,-44.7,,0.02117799999999992,1.3990620500892732,1.2901326096479429,non_fall
1.118464,-0.5463,0.1702,-1.2767,0.8075,-2.0168,-0.3012,-16.6313,6.5625,-44.7375,,0.0037519999999999776,1.3990620500892732,0.970351777564528,non_fall
1.135798,-0.5463,0.1702,-1.2767,0.2963,-1.2578,-0.2007,-16.6313,6.5625,-44.7375,,0.017334000000000183,1.3990620500892732,0.8111660568505862,non_fall
1.155474,-0.5463,0.1702,-1.2767,0.2963,-1.2578,-0.2007,-16.6313,6.5625,-44.7375,,0.019675999999999805,1.3990620500892732,0.7699105782129837,non_fall
1.178383,-0.5463,0.1702,-1.2767,0.2963,-1.2578,-0.2007,-16.3313,7.95,-44.5125,,0.022909000000000068,1.3990620500892732,0.7964709431763325,non_fall
1.195446,-0.5463,0.1702,-1.2767,-0.1308,-0.6067,-0.1184,-16.3313,7.95,-44.5125,,0.01706300000000005,1.3990620500892732,0.8454670850244107,non_fall
1.196946,0.2603,0.3517,0.0591,-0.1308,-0.6067,-0.1184,-16.3313,7.95,-44.5125,,0.0015000000000000568,0.441522128550767,0.8837426817402984,non_fall
1.216232,0.2603,0.3517,0.0591,-0.1308,-0.6067,-0.1184,-16.3313,7.95,-44.5125,,0.019285999999999914,0.441522128550767,0.8927734626835281,non_fall
1.238347,0.2603,0.3517,0.0591,-0.1308,-0.6067,-0.1184,-16.4438,8.9813,-44.2313,,0.022115000000000107,0.441522128550767,0.867234512001223,non_fall
1.256547,0.2603,0.3517,0.0591,-0.1443,0.671,-0.1557,-16.4438,8.9813,-44.2313,,0.018199999999999994,0.441522128550767,0.8117520344901062,non_fall
1.257514,-0.8059,-0.1953,0.5705,-0.1443,0.671,-0.1557,-16.4438,8.9813,-44.2313,,0.0009669999999999401,1.006522304770242,0.7376131357498621,non_fall
1.27702,-0.8059,-0.1953,0.5705,-0.1443,0.671,-0.1557,-16.4438,8.9813,-44.2313,,0.019506000000000023,1.006522304770242,0.6602323901308474,non_fall
1.300567,-0.8059,-0.1953,0.5705,-0.1443,0.671,-0.1557,-16.5188,10.1438,-43.95,,0.023546999999999985,1.006522304770242,0.5971217108096866,non_fall
1.317945,-0.8059,-0.1953,0.5705,0.0566,0.0345,0.1284,-16.5188,10.1438,-43.95,,0.017377999999999894,1.006522304770242,0.5655740038931443,non_fall
1.319561,0.1428,0.0893,0.0933,0.0566,0.0345,0.1284,-16.5188,10.1438,-43.95,,0.0016160000000000618,0.19253887919067153,0.5795051546431361,non_fall
1.338866,0.1428,0.0893,0.0933,0.0566,0.0345,0.1284,-16.5188,10.1438,-43.95,,0.019304999999999906,0.19253887919067153,0.6457239149277487,non_fall
1.360116,0.1428,0.0893,0.0933,0.0566,0.0345,0.1284,-17.0063,11.0063,-43.4438,,0.021250000000000213,0.19253887919067153,0.7607977293874033,non_fall
1.378425,0.1428,0.0893,0.0933,0.09,-0.8353,0.1077,-17.0063,11.0063,-43.4438,,0.01830899999999991,0.19253887919067153,0.9100550630515193,non_fall
1.379294,1.3116,0.0247,-1.0368,0.09,-0.8353,0.1077,-17.0063,11.0063,-43.4438,,0.0008690000000000087,1.6720822019266874,1.0697663006438023,non_fall
1.39861,1.3116,0.0247,-1.0368,0.09,-0.8353,0.1077,-17.0063,11.0063,-43.4438,,0.01931599999999989,1.6720822019266874,1.2123243170963844,non_fall
1.421541,1.3116,0.0247,-1.0368,0.09,-0.8353,0.1077,-18.9,10.7625,-42.6188,,0.022931000000000035,1.6720822019266874,1.3129191971804433,non_fall
1.43942,1.3116,0.0247,-1.0368,-0.3136,0.0739,-0.0314,-18.9,10.7625,-42.6188,,0.017878999999999978,1.6720822019266874,1.3555101928215139,non_fall
1.45967,1.3116,0.0247,-1.0368,-0.3136,0.0739,-0.0314,-18.9,10.7625,-42.6188,,0.0202500000000001,1.6720822019266874,1.3361990960143633,non_fall
1.460379,0.3707,0.065,0.7559,-0.3136,0.0739,-0.0314,-18.9,10.7625,-42.6188,,0.0007090000000000707,0.8444100307315161,1.2631560034767981,non_fall
1.479918,0.3707,0.065,0.7559,-0.3136,0.0739,-0.0314,-20.8875,10.3688,-41.8313,,0.019538999999999973,0.8444100307315161,1.1534818874457233,non_fall
1.500922,0.3707,0.065,0.7559,-0.031,0.5832,-0.0008,-20.8875,10.3688,-41.8313,,0.021004000000000023,0.8444100307315161,1.0283172763656712,non_fall
1.520567,0.3707,0.065,0.7559,-0.031,0.5832,-0.0008,-20.8875,10.3688,-41.8313,,0.019644999999999913,0.8444100307315161,0.9078250045231293,non_fall
1.522622,-0.6327,-0.2358,0.3011,-0.031,0.5832,-0.0008,-20.8875,10.3688,-41.8313,,0.002054999999999918,0.7393051737949627,0.8073650470969136,non_fall
1.538338,-0.6327,-0.2358,0.3011,-0.031,0.5832,-0.0008,-21.7313,9.9938,-41.475,,0.015716000000000063,0.7393051737949627,0.7355199697947559,non_fall
1.56198,-0.6327,-0.2358,0.3011,0.1194,-0.5698,-0.036,-21.7313,9.9938,-41.475,,0.02364199999999994,0.7393051737949627,0.6939862937187417,non_fall
1.581477,-0.6327,-0.2358,0.3011,0.1194,-0.5698,-0.036,-21.7313,9.9938,-41.475,,0.019497000000000098,0.7393051737949627,0.6789158510574866,non_fall
1.582332,-0.7428,-0.1909,-0.0496,0.1194,-0.5698,-0.036,-21.7313,9.9938,-41.475,,0.0008550000000000502,0.7685407015897076,0.683083401998588,non_fall
1.598463,-0.7428,-0.1909,-0.0496,0.1194,-0.5698,-0.036,-22.1625,10.0688,-41.25,,0.016130999999999895,0.7685407015897076,0.6982259958762365,non_fall
1.621945,-0.7428,-0.1909,-0.0496,-0.2051,-0.0085,-0.0434,-22.1625,10.0688,-41.25,,0.023482000000000003,0.7685407015897076,0.7170037920326341,non_fall
1.642734,-0.7428,-0.1909,-0.0496,-0.2051,-0.0085,-0.0434,-22.1625,10.0688,-41.25,,0.020788999999999946,0.7685407015897076,0.734227624438196,non_fall
1.658977,-0.7428,-0.1909,-0.0496,-0.2051,-0.0085,-0.0434,-22.3875,10.1438,-41.1375,,0.016243000000000007,0.7685407015897076,0.7472349373950155,non_fall
1.664007,-0.3713,0.5498,0.1191,-0.2051,-0.0085,-0.0434,-22.3875,10.1438,-41.1375,,0.00503000000000009,0.6740389751342276,0.755523772598638,non_fall
1.682032,-0.3713,0.5498,0.1191,-0.1486,0.0249,-0.1617,-22.3875,10.1438,-41.1375,,0.018024999999999958,0.6740389751342276,0.7599323726857541,non_fall
1.703043,-0.3713,0.5498,0.1191,-0.1486,0.0249,-0.1617,-22.3875,10.1438,-41.1375,,0.021011000000000113,0.6740389751342276,0.7617411144596132,non_fall
1.717779,-0.3713,0.5498,0.1191,-0.1486,0.0249,-0.1617,-22.4438,10.425,-40.9875,,0.01473599999999986,0.6740389751342276,0.762040747878023,non_fall
1.722776,-0.7735,0.0674,-0.368,-0.1486,0.0249,-0.1617,-22.4438,10.425,-40.9875,,0.00499700000000014,0.8592258201427608,0.7615520206221905,non_fall
1.743444,-0.7735,0.0674,-0.368,-0.1663,0.0337,-0.0864,-22.4438,10.425,-40.9875,,0.02066799999999991,0.8592258201427608,0.7608472076883899,non_fall
1.763809,-0.7735,0.0674,-0.368,-0.1663,0.0337,-0.0864,-22.4438,10.425,-40.9875,,0.020364999999999966,0.8592258201427608,0.7607158679509981,non_fall
1.778069,-0.7735,0.0674,-0.368,-0.1663,0.0337,-0.0864,-22.7438,10.65,-40.8938,,0.01425999999999994,0.8592258201427608,0.7623445572884441,non_fall
1.783874,0.1794,0.3995,0.5257,-0.1663,0.0337,-0.0864,-22.7438,10.65,-40.8938,,0.00580500000000006,0.6842112977728444,0.7670912635008568,non_fall
1.804322,0.1794,0.3995,0.5257,-0.112,-0.1903,0.0329,-22.7438,10.65,-40.8938,,0.02044800000000002,0.6842112977728444,0.7758761419416589,non_fall
1.824726,0.1794,0.3995,0.5257,-0.112,-0.1903,0.0329,-22.7438,10.65,-40.8938,,0.02040400000000009,0.6842112977728444,0.7884514673537982,non_fall
1.838241,0.1794,0.3995,0.5257,-0.112,-0.1903,0.0329,-23.1562,10.6125,-40.7812,,0.013514999999999944,0.6842112977728444,0.8029239001555728,non_fall
1.844406,0.1287,-0.2106,-0.8476,-0.112,-0.1903,0.0329,-23.1562,10.6125,-40.7812,,0.006164999999999976,0.8828033812803392,0.8158198383494962,non_fall
1.86571,0.1287,-0.2106,-0.8476,0.123,-0.2037,-0.1975,-23.1562,10.6125,-40.7812,,0.02130399999999999,0.8828033812803392,0.8227518744795399,non_fall
1.885025,0.1287,-0.2106,-0.8476,0.123,-0.2037,-0.1975,-23.1562,10.6125,-40.7812,,0.01931499999999997,0.8828033812803392,0.819481390145188,non_fall
1.897481,0.1287,-0.2106,-0.8476,0.123,-0.2037,-0.1975,-23.0063,10.8188,-40.8938,,0.012456000000000023,0.8828033812803392,0.8030087509216128,non_fall
1.925946,0.1287,-0.2106,-0.8476,-0.3449,-0.0631,-0.0956,-23.0063,10.8188,-40.8938,,0.028464999999999963,0.8828033812803392,0.7723253352462645,non_fall
1.928599,-0.3364,0.2012,-0.4573,-0.3449,-0.0631,-0.0956,-23.0063,10.8188,-40.8938,,0.0026530000000000165,0.6023036526537091,0.7286104100578084,non_fall
1.946572,-0.3364,0.2012,-0.4573,-0.3449,-0.0631,-0.0956,-23.0063,10.8188,-40.8938,,0.017973000000000017,0.6023036526537091,0.6748751343381477,non_fall
1.958525,-0.3364,0.2012,-0.4573,-0.3449,-0.0631,-0.0956,-23.3063,11.1,-40.9875,,0.011953000000000102,0.6023036526537091,0.6152489647987133,non_fall
1.987221,-0.3364,0.2012,-0.4573,-0.1301,-0.0313,-0.2305,-23.3063,11.1,-40.9875,,0.028695999999999833,0.6023036526537091,0.5541816176680294,non_fall
1.988462,0.385,-0.157,0.1288,-0.1301,-0.0313,-0.2305,-23.3063,11.1,-40.9875,,0.0012410000000000476,0.43527398268217227,0.49577628202562074,non_fall
2.007477,0.385,-0.157,0.1288,-0.1301,-0.0313,-0.2305,-23.3063,11.1,-40.9875,,0.019015000000000226,0.43527398268217227,0.443350271927904,non_fall
2.017929,0.385,-0.157,0.1288,-0.1301,-0.0313,-0.2305,-23.8125,11.2875,-40.8563,,0.010451999999999906,0.43527398268217227,0.3992238614297879,non_fall
2.048231,0.385,-0.157,0.1288,-0.2043,-0.0224,-0.2554,-23.8125,11.2875,-40.8563,,0.03030199999999983,0.43527398268217227,0.3646865749410828,non_fall
2.04899,-0.177,0.1913,-0.1411,-0.2043,-0.0224,-0.2554,-23.8125,11.2875,-40.8563,,0.0007589999999999542,0.2963678457592861,0.34006795960991454,non_fall
2.069148,-0.177,0.1913,-0.1411,-0.2043,-0.0224,-0.2554,-23.8125,11.2875,-40.8563,,0.020158000000000342,0.2963678457592861,0.3248519945937377,non_fall
2.078666,-0.177,0.1913,-0.1411,-0.2043,-0.0224,-0.2554,-24.0188,11.5312,-40.6313,,0.009517999999999915,0.2963678457592861,0.3178211958916966,non_fall
2.109312,-0.177,0.1913,-0.1411,-0.2181,-0.1356,-0.174,-24.0188,11.5312,-40.6313,,0.03064599999999995,0.2963678457592861,0.3172580259522884,non_fall
2.130656,0.1101,0.0053,0.3408,-0.2181,-0.1356,-0.174,-24.0188,11.5312,-40.6313,,0.02134400000000003,0.35818255122213866,0.3212232605860415,non_fall
2.132582,0.1101,0.0053,0.3408,-0.2181,-0.1356,-0.174,-24.0188,11.5312,-40.6313,,0.0019260000000000943,0.35818255122213866,0.3278780268809067,non_fall
2.139531,0.1101,0.0053,0.3408,-0.2181,-0.1356,-0.174,-24.2625,11.6813,-40.4438,,0.00694899999999965,0.35818255122213866,0.33576408328626023,non_fall
2.172014,0.1101,0.0053,0.3408,-0.1411,-0.0497,-0.2384,-24.2625,11.6813,-40.4438,,0.03248300000000004,0.35818255122213866,0.3439477849054044,non_fall
2.19106,0.1101,0.0053,0.3408,-0.1411,-0.0497,-0.2384,-24.2625,11.6813,-40.4438,,0.019045999999999896,0.35818255122213866,0.3519766052923578,non_fall
2.19204,-0.3233,0.0194,0.0113,-0.1411,-0.0497,-0.2384,-24.2625,11.6813,-40.4438,,0.000980000000000203,0.32407860157683965,0.3596707870616411,non_fall
2.197965,-0.3233,0.0194,0.0113,-0.1411,-0.0497,-0.2384,-24.45,11.7938,-40.1438,,0.005924999999999958,0.32407860157683965,0.3668417753801871,non_fall
2.231425,-0.3233,0.0194,0.0113,-0.2047,-0.0731,-0.1766,-24.45,11.7938,-40.1438,,0.03346000000000027,0.32407860157683965,0.3730630049832455,non_fall
2.25286,-0.2025,0.0045,0.3512,-0.2047,-0.0731,-0.1766,-24.45,11.7938,-40.1438,,0.02143499999999987,0.4054231616471856,0.37759804526161683,non_fall
2.25381,-0.2025,0.0045,0.3512,-0.2047,-0.0731,-0.1766,-24.45,11.7938,-40.1438,,0.0009500000000000064,0.4054231616471856,0.37951770580889127,non_fall
2.259039,-0.2025,0.0045,0.3512,-0.2047,-0.0731,-0.1766,-24.7125,11.85,-39.7125,,0.005228999999999928,0.4054231616471856,0.37794465994928905,non_fall
2.292526,-0.2025,0.0045,0.3512,-0.1316,-0.032,-0.1759,-24.7125,11.85,-39.7125,,0.033487000000000045,0.4054231616471856,0.37230285043729716,non_fall
2.312053,-0.2025,0.0045,0.3512,-0.1316,-0.032,-0.1759,-24.7125,11.85,-39.7125,,0.019527000000000072,0.4054231616471856,0.36245267108302154,non_fall
2.313033,-0.2758,0.0255,0.0763,-0.1316,-0.032,-0.1759,-24.7125,11.85,-39.7125,,0.0009799999999997588,0.2872935432619397,0.34865640548482607,non_fall
2.318439,-0.2758,0.0255,0.0763,-0.1316,-0.032,-0.1759,-24.8625,12.1688,-39.4313,,0.005406000000000244,0.2872935432619397,0.33140906297091727,non_fall
2.35215,-0.2758,0.0255,0.0763,-0.1691,0.027,-0.1687,-24.8625,12.1688,-39.4313,,0.033710999999999824,0.2872935432619397,0.31124335752932175,non_fall
2.372449,-0.2758,0.0255,0.0763,-0.1691,0.027,-0.1687,-24.8625,12.1688,-39.4313,,0.020299000000000067,0.2872935432619397,0.28863213899405493,non_fall
2.377572,-0.2758,0.0255,0.0763,-0.1691,0.027,-0.1687,-25.3125,12.15,-39.075,,0.005122999999999767,0.2872935432619397,0.26405574442588514,non_fall
2.394031,-0.119,0.0026,0.1953,-0.1691,0.027,-0.1687,-25.3125,12.15,-39.075,,0.016459000000000223,0.22871346702806988,0.23821123122857746,backward_fall
2.413965,-0.119,0.0026,0.1953,-0.1599,0.0597,-0.1894,-25.3125,12.15,-39.075,,0.01993400000000012,0.22871346702806988,0.21226823396916458,backward_fall
2.434268,-0.119,0.0026,0.1953,-0.1599,0.0597,-0.1894,-25.3125,12.15,-39.075,,0.020302999999999738,0.22871346702806988,0.1880484374673875,backward_fall
2.440149,-0.119,0.0026,0.1953,-0.1599,0.0597,-0.1894,-25.4063,11.925,-38.7188,,0.005881000000000025,0.22871346702806988,0.16801700875246658,backward_fall
2.455698,0.1163,-0.0618,-0.0479,-0.1599,0.0597,-0.1894,-25.4063,11.925,-38.7188,,0.015549000000000035,0.14014042956977119,0.15501635911444983,backward_fall
2.473954,0.1163,-0.0618,-0.0479,-0.2349,0.0068,-0.2639,-25.4063,11.925,-38.7188,,0.01825600000000005,0.14014042956977119,0.15174641534153102,backward_fall
2.495121,0.1163,-0.0618,-0.0479,-0.2349,0.0068,-0.2639,-25.4063,11.925,-38.7188,,0.021167000000000158,0.14014042956977119,0.16009080236936582,backward_fall
2.497113,0.1163,-0.0618,-0.0479,-0.2349,0.0068,-0.2639,-25.5375,11.8875,-38.55,,0.0019919999999999938,0.14014042956977119,0.18046932780239888,backward_fall
2.515196,-0.1932,0.0353,0.0137,-0.2349,0.0068,-0.2639,-25.5375,11.8875,-38.55,,0.01808299999999985,0.19687564603068608,0.2114272640030617,backward_fall
2.535714,-0.1932,0.0353,0.0137,-0.3304,0.0017,-0.3728,-25.5375,11.8875,-38.55,,0.020518000000000036,0.19687564603068608,0.24964258554393431,backward_fall
2.556094,-0.1932,0.0353,0.0137,-0.3304,0.0017,-0.3728,-25.5375,11.8875,-38.55,,0.020379999999999843,0.19687564603068608,0.29045797580954125,backward_fall
2.55699,-0.1932,0.0353,0.0137,-0.3304,0.0017,-0.3728,-25.6125,11.8875,-38.25,,0.0008960000000000079,0.19687564603068608,0.3289355279915838,backward_fall
2.576819,-0.4692,-0.2019,0.204,-0.3304,0.0017,-0.3728,-25.6125,11.8875,-38.25,,0.019829000000000097,0.5500256812186136,0.3612812034493387,backward_fall
2.597295,-0.4692,-0.2019,0.204,-0.3975,-0.0281,-0.3771,-25.6125,11.8875,-38.25,,0.02047599999999994,0.5500256812186136,0.3862962158196124,backward_fall
2.617491,-0.4692,-0.2019,0.204,-0.3975,-0.0281,-0.3771,-25.6125,11.8875,-38.25,,0.02019599999999988,0.5500256812186136,0.40635400122329085,backward_fall
2.618307,-0.4692,-0.2019,0.204,-0.3975,-0.0281,-0.3771,-25.6875,11.925,-37.9688,,0.000816000000000372,0.5500256812186136,0.4274058954214388,backward_fall
2.658007,-0.4692,-0.2019,0.204,-0.6061,0.0475,-0.5433,-25.6875,11.925,-37.9688,,0.039699999999999847,0.5500256812186136,0.45776592249254766,backward_fall
2.658758,-0.2944,0.0996,0.1119,-0.6061,0.0475,-0.5433,-25.6875,11.925,-37.9688,,0.0007510000000001682,0.3303227663967472,0.505854651186425,backward_fall
2.678636,-0.2944,0.0996,0.1119,-0.6061,0.0475,-0.5433,-25.8938,11.9438,-37.875,,0.01987799999999984,0.3303227663967472,0.5775346634256312,backward_fall
2.680058,-0.2944,0.0996,0.1119,-0.6061,0.0475,-0.5433,-25.8938,11.9438,-37.875,,0.0014219999999998123,0.3303227663967472,0.6739682570882275,backward_fall
2.719585,-0.2944,0.0996,0.1119,-0.946,-0.1704,-0.7105,-25.8938,11.9438,-37.875,,0.03952700000000009,0.3303227663967472,0.7909118069720911,backward_fall
2.72073,-1.3343,0.1971,0.2762,-0.946,-0.1704,-0.7105,-25.8938,11.9438,-37.875,,0.0011450000000001737,1.3767684409514913,0.9199389930603076,backward_fall
2.739287,-1.3343,0.1971,0.2762,-0.946,-0.1704,-0.7105,-25.8938,11.9438,-37.875,,0.018556999999999935,1.3767684409514913,1.0513357974879212,backward_fall
2.740086,-1.3343,0.1971,0.2762,-0.946,-0.1704,-0.7105,-26.175,12.0,-37.6125,,0.0007989999999997721,1.3767684409514913,1.1776526551662612,backward_fall
2.779716,-1.3343,0.1971,0.2762,-1.435,-0.0475,-0.8254,-26.175,12.0,-37.6125,,0.039630000000000276,1.3767684409514913,1.2965599598009823,backward_fall
2.780601,-1.1175,0.6658,0.8972,-1.435,-0.0475,-0.8254,-26.175,12.0,-37.6125,,0.0008849999999998026,1.5802100271799315,1.4119293816885714,backward_fall
2.79969,-1.1175,0.6658,0.8972,-1.435,-0.0475,-0.8254,-26.5313,12.1313,-37.0688,,0.019089000000000134,1.5802100271799315,1.5327499057757097,backward_fall
2.801595,-1.1175,0.6658,0.8972,-1.435,-0.0475,-0.8254,-26.5313,12.1313,-37.0688,,0.0019049999999998235,1.5802100271799315,1.670219828097676,backward_fall
2.840212,-1.1175,0.6658,0.8972,-1.7265,-0.0411,-1.2565,-26.5313,12.1313,-37.0688,,0.038617000000000345,1.5802100271799315,1.8339202474594363,backward_fall
2.857805,-1.1175,0.6658,0.8972,-1.7265,-0.0411,-1.2565,-26.9813,12.7125,-36.4125,,0.017592999999999748,1.5802100271799315,2.0283033696881008,backward_fall
2.85988,-1.1175,0.6658,0.8972,-1.7265,-0.0411,-1.2565,-26.9813,12.7125,-36.4125,,0.002075000000000049,1.5802100271799315,2.2507363555571276,backward_fall
2.860697,-2.4037,0.8276,1.7945,-1.7265,-0.0411,-1.2565,-26.9813,12.7125,-36.4125,,0.0008170000000000677,3.1117399794970018,2.491911661234269,backward_fall
2.901827,-2.4037,0.8276,1.7945,-1.9839,-0.0419,-1.4836,-26.9813,12.7125,-36.4125,,0.04112999999999989,3.1117399794970018,2.73858392680793,backward_fall
2.919358,-2.4037,0.8276,1.7945,-1.9839,-0.0419,-1.4836,-27.5625,13.3875,-35.1938,,0.017530999999999963,3.1117399794970018,2.9776548372190765,backward_fall
2.920576,-2.4037,0.8276,1.7945,-1.9839,-0.0419,-1.4836,-27.5625,13.3875,-35.1938,,0.0012180000000001634,3.1117399794970018,3.20013841551115,backward_fall
2.921165,-1.6969,-0.1567,3.1862,-1.9839,-0.0419,-1.4836,-27.5625,13.3875,-35.1938,,0.0005889999999997286,3.613294195052487,3.403761814378864,backward_fall
2.963121,-1.6969,-0.1567,3.1862,-2.8199,-1.0859,-2.4947,-27.5625,13.3875,-35.1938,,0.041956000000000326,3.613294195052487,3.593609538978638,backward_fall
2.977187,-1.6969,-0.1567,3.1862,-2.8199,-1.0859,-2.4947,-28.5938,14.0625,-33.7313,,0.01406599999999969,3.613294195052487,3.78083971987816,backward_fall
2.981766,-1.6969,-0.1567,3.1862,-2.8199,-1.0859,-2.4947,-28.5938,14.0625,-33.7313,,0.004579000000000111,3.613294195052487,3.9798879350364516,backward_fall
2.983195,-2.407,-2.895,2.855,-2.8199,-1.0859,-2.4947,-28.5938,14.0625,-33.7313,,0.0014289999999999026,4.725007830681342,4.204734944646776,backward_fall
3.023168,-2.407,-2.895,2.855,-3.2339,-1.2645,-2.7048,-28.5938,14.0625,-33.7313,,0.03997300000000026,4.725007830681342,4.464769060157814,backward_fall
3.039808,-2.407,-2.895,2.855,-3.2339,-1.2645,-2.7048,-30.15,14.3813,-31.4813,,0.016639999999999766,4.725007830681342,4.760639550287636,backward_fall
3.043414,-2.407,-2.895,2.855,-3.2339,-1.2645,-2.7048,-30.15,14.3813,-31.4813,,0.003605999999999998,4.725007830681342,5.080539265260548,backward_fall
3.044161,-2.2143,-3.5555,3.3856,-3.2339,-1.2645,-2.7048,-30.15,14.3813,-31.4813,,0.0007470000000000532,5.3858139681945945,5.397678353391227,backward_fall
3.084102,-2.2143,-3.5555,3.3856,-3.7057,-2.1072,-1.3854,-30.15,14.3813,-31.4813,,0.039941000000000226,5.3858139681945945,5.670051371742441,backward_fall
3.099128,-2.2143,-3.5555,3.3856,-3.7057,-2.1072,-1.3854,-32.5688,14.7375,-27.4875,,0.015025999999999762,5.3858139681945945,5.84360841310041,backward_fall
3.103786,-2.2143,-3.5555,3.3856,-3.7057,-2.1072,-1.3854,-32.5688,14.7375,-27.4875,,0.004658000000000051,5.3858139681945945,5.859526044592002,backward_fall
3.124179,-0.919,3.7227,3.6523,-3.7057,-2.1072,-1.3854,-32.5688,14.7375,-27.4875,,0.020392999999999883,5.295502958171207,5.6655181002674215,backward_fall
3.145264,-0.919,3.7227,3.6523,-3.7131,-0.2744,-0.577,-32.5688,14.7375,-27.4875,,0.021085000000000242,5.295502958171207,5.230075688577107,backward_fall
3.158331,-0.919,3.7227,3.6523,-3.7131,-0.2744,-0.577,-34.35,15.2438,-23.9062,,0.01306699999999994,5.295502958171207,4.557264977926445,backward_fall
3.165296,-0.919,3.7227,3.6523,-3.7131,-0.2744,-0.577,-34.35,15.2438,-23.9062,,0.00696500000000011,5.295502958171207,3.6985697787031393,backward_fall
3.185866,-1.4717,1.6173,1.0326,-3.7131,-0.2744,-0.577,-34.35,15.2438,-23.9062,,0.020569999999999755,2.4182272308449426,2.7578191137350774,backward_fall
3.206083,-1.4717,1.6173,1.0326,-3.4278,1.6934,-1.9062,-34.35,15.2438,-23.9062,,0.02021700000000015,2.4182272308449426,1.8859737672530867,backward_fall
3.218684,-1.4717,1.6173,1.0326,-3.4278,1.6934,-1.9062,-35.9438,15.6,-20.6063,,0.012601000000000084,2.4182272308449426,1.2643768912194224,backward_fall
3.225057,-1.4717,1.6173,1.0326,-3.4278,1.6934,-1.9062,-35.9438,15.6,-20.6063,,0.006372999999999962,2.4182272308449426,1.07736844939061,backward_fall
3.246555,0.6795,0.3378,-1.1639,-3.4278,1.6934,-1.9062,-35.9438,15.6,-20.6063,,0.021497999999999795,1.3894215702946315,1.477476156457214,backward_fall
3.267235,0.6795,0.3378,-1.1639,-2.6102,3.0825,-1.7321,-35.9438,15.6,-20.6063,,0.02068000000000003,1.3894215702946315,2.54885352479164,backward_fall
3.27874,0.6795,0.3378,-1.1639,-2.6102,3.0825,-1.7321,-37.2375,15.5438,-18.1875,,0.011505000000000098,1.3894215702946315,4.2771780982694265,backward_fall
3.287307,0.6795,0.3378,-1.1639,-2.6102,3.0825,-1.7321,-37.2375,15.5438,-18.1875,,0.008567000000000213,1.3894215702946315,6.535771547298854,backward_fall
3.327778,0.6795,0.3378,-1.1639,-0.298,7.6687,1.4156,-37.2375,15.5438,-18.1875,,0.0404709999999997,1.3894215702946315,9.096403124024482,backward_fall
3.329431,6.7973,18.855,-2.3478,-0.298,7.6687,1.4156,-37.2375,15.5438,-18.1875,,0.0016530000000001266,20.17985324847532,11.667460787578364,backward_fall
3.339105,6.7973,18.855,-2.3478,-0.298,7.6687,1.4156,-37.125,15.4313,-17.8125,,0.00967399999999996,20.17985324847532,13.9521909512967,backward_fall
3.34888,6.7973,18.855,-2.3478,-0.298,7.6687,1.4156,-37.125,15.4313,-17.8125,,0.009774999999999867,20.17985324847532,15.709645737917704,backward_fall
3.388771,6.7973,18.855,-2.3478,0.2096,3.4232,-2.9377,-37.125,15.4313,-17.8125,,0.03989100000000034,20.17985324847532,16.797669382809868,backward_fall
3.390731,10.7065,6.1611,-3.3805,0.2096,3.4232,-2.9377,-37.125,15.4313,-17.8125,,0.0019599999999999618,12.806876110511885,17.184409185537728,backward_fall
3.398612,10.7065,6.1611,-3.3805,0.2096,3.4232,-2.9377,-36.5063,14.9438,-18.675,,0.007880999999999805,12.806876110511885,16.928761091062455,backward_fall
3.411687,10.7065,6.1611,-3.3805,0.2096,3.4232,-2.9377,-36.5063,14.9438,-18.675,,0.01307500000000017,12.806876110511885,16.14270568324101,backward_fall
3.450079,-1.5223,-13.2499,1.0024,0.2096,3.4232,-2.9377,-36.5063,14.9438,-18.675,,0.03839199999999998,13.374679549806045,14.953327667877437,backward_fall
3.45505,-1.5223,-13.2499,1.0024,-0.5906,-1.8662,-2.6158,-36.5063,14.9438,-18.675,,0.004970999999999837,13.374679549806045,13.478383083684236,backward_fall
3.462903,-1.5223,-13.2499,1.0024,-0.5906,-1.8662,-2.6158,-35.5875,13.8188,-19.575,,0.007852999999999888,13.374679549806045,11.820167396821036,backward_fall
3.469793,-1.5223,-13.2499,1.0024,-0.5906,-1.8662,-2.6158,-35.5875,13.8188,-19.575,,0.006890000000000285,13.374679549806045,10.073273095215772,backward_fall
3.510574,-1.5223,-13.2499,1.0024,-0.9999,1.0707,-3.3673,-35.5875,13.8188,-19.575,,0.040780999999999956,13.374679549806045,8.336375686090093,backward_fall
3.513078,1.3472,-3.1754,0.0247,-0.9999,1.0707,-3.3673,-35.5875,13.8188,-19.575,,0.0025040000000000617,3.449452578308622,6.718043354937701,backward_fall
3.518638,1.3472,-3.1754,0.0247,-0.9999,1.0707,-3.3673,-34.425,12.5063,-21.45,,0.005560000000000009,3.449452578308622,5.331299525093344,backward_fall
3.53013,1.3472,-3.1754,0.0247,-0.9999,1.0707,-3.3673,-34.425,12.5063,-21.45,,0.011492000000000058,3.449452578308622,4.278552763122818,backward_fall
3.57206,1.3472,-3.1754,0.0247,-1.5729,0.3518,-3.9108,-34.425,12.5063,-21.45,,0.0419299999999998,3.449452578308622,3.6333907580009117,backward_fall
3.578193,1.3472,-3.1754,0.0247,-1.5729,0.3518,-3.9108,-32.6063,10.875,-24.5063,,0.006133000000000166,3.449452578308622,3.42614280565311,backward_fall
3.592318,1.3472,-3.1754,0.0247,-1.5729,0.3518,-3.9108,-32.6063,10.875,-24.5063,,0.014124999999999943,3.449452578308622,3.637249245759965,backward_fall
3.593353,0.6452,3.3302,3.0777,-1.5729,0.3518,-3.9108,-32.6063,10.875,-24.5063,,0.0010349999999998971,4.580256801752496,4.199250250493843,backward_fall
3.632212,0.6452,3.3302,3.0777,-0.9679,-1.7299,-5.2034,-32.6063,10.875,-24.5063,,0.03885899999999998,4.580256801752496,5.006253642035711,backward_fall
3.639721,0.6452,3.3302,3.0777,-0.9679,-1.7299,-5.2034,-31.2563,8.3625,-27.6188,,0.00750900000000021,4.580256801752496,5.9289452671804295,backward_fall
3.652107,-7.1674,-3.9626,2.3374,-0.9679,-1.7299,-5.2034,-31.2563,8.3625,-27.6188,,0.012385999999999786,8.516880900893238,6.832839392080609,backward_fall
3.654145,-7.1674,-3.9626,2.3374,-0.9679,-1.7299,-5.2034,-31.2563,8.3625,-27.6188,,0.0020380000000002063,8.516880900893238,7.596991306657577,backward_fall
3.692965,-7.1674,-3.9626,2.3374,-1.2533,-0.2811,-2.7216,-31.2563,8.3625,-27.6188,,0.038819999999999855,8.516880900893238,8.129895153683409,backward_fall
3.69833,-7.1674,-3.9626,2.3374,-1.2533,-0.2811,-2.7216,-29.9063,5.4563,-30.6188,,0.005364999999999842,8.516880900893238,8.379496567042327,backward_fall
3.714379,-7.1674,-3.9626,2.3374,-1.2533,-0.2811,-2.7216,-29.9063,5.4563,-30.6188,,0.016049000000000202,8.516880900893238,8.335657448064245,backward_fall
3.715602,-5.0042,3.8465,-3.0606,-1.2533,-0.2811,-2.7216,-29.9063,5.4563,-30.6188,,0.001222999999999974,7.014617042291047,8.02549985773148,backward_fall
3.755507,-5.0042,3.8465,-3.0606,-0.5689,0.1541,-0.838,-29.9063,5.4563,-30.6188,,0.03990500000000008,7.014617042291047,7.5037805907539,backward_fall
3.758227,-5.0042,3.8465,-3.0606,-0.5689,0.1541,-0.838,-28.575,2.7563,-33.0938,,0.0027200000000000557,7.014617042291047,6.841134634570365,backward_fall
3.774273,-5.0042,3.8465,-3.0606,-0.5689,0.1541,-0.838,-28.575,2.7563,-33.0938,,0.016045999999999783,7.014617042291047,6.11262252662907,backward_fall
3.795887,1.063,-1.2869,4.0774,-0.5689,0.1541,-0.838,-28.575,2.7563,-33.0938,,0.021614000000000022,4.405822439681381,5.388013630632806,backward_fall
3.814499,1.063,-1.2869,4.0774,0.7996,-0.1594,-0.926,-28.575,2.7563,-33.0938,,0.018612000000000073,4.405822439681381,4.72440222305405,backward_fall
3.819528,1.063,-1.2869,4.0774,0.7996,-0.1594,-0.926,-28.5188,-0.375,-33.2438,,0.00502899999999995,4.405822439681381,4.161444466289096,backward_fall
3.835076,1.063,-1.2869,4.0774,0.7996,-0.1594,-0.926,-28.5188,-0.375,-33.2438,,0.015547999999999895,4.405822439681381,3.719358669640774,backward_fall
3.855557,0.1456,-2.7014,1.1544,0.7996,-0.1594,-0.926,-28.5188,-0.375,-33.2438,,0.020481000000000193,2.9413263470754143,3.3994786772222363,backward_fall
3.876269,0.1456,-2.7014,1.1544,-0.2064,0.1892,-0.981,-28.5188,-0.375,-33.2438,,0.020712000000000064,2.9413263470754143,3.186828443912742,backward_fall
3.878028,0.1456,-2.7014,1.1544,-0.2064,0.1892,-0.981,-28.65,-3.375,-33.0188,,0.001758999999999844,2.9413263470754143,3.054224945447991,backward_fall
3.896416,0.1456,-2.7014,1.1544,-0.2064,0.1892,-0.981,-28.65,-3.375,-33.0188,,0.01838799999999985,2.9413263470754143,2.967596705632428,backward_fall
3.917029,-1.9544,-2.1992,-0.8384,-0.2064,0.1892,-0.981,-28.65,-3.375,-33.0188,,0.020612999999999992,3.0592604596536073,2.8920996379297557,backward_fall
3.937076,-1.9544,-2.1992,-0.8384,-0.7936,-0.328,-0.3494,-28.65,-3.375,-33.0188,,0.020046999999999926,3.0592604596536073,2.798213276153372,backward_fall
3.938778,-1.9544,-2.1992,-0.8384,-0.7936,-0.328,-0.3494,-28.5938,-5.7188,-32.9813,,0.0017020000000003144,3.0592604596536073,2.66666562511147,backward_fall
3.95716,-1.9544,-2.1992,-0.8384,-0.7936,-0.328,-0.3494,-28.5938,-5.7188,-32.9813,,0.0183819999999999,3.0592604596536073,2.4910692169453426,backward_fall
3.977185,-0.8333,0.52,1.3448,-0.7936,-0.328,-0.3494,-28.5938,-5.7188,-32.9813,,0.02002499999999996,1.6653155646903683,2.277647588856575,backward_fall
3.99831,-0.8333,0.52,1.3448,0.1497,-0.1963,0.4987,-28.5938,-5.7188,-32.9813,,0.02112500000000006,1.6653155646903683,2.0422792116831263,backward_fall
4.000222,-0.8333,0.52,1.3448,0.1497,-0.1963,0.4987,-28.4813,-7.6313,-32.9813,,0.0019119999999999138,1.6653155646903683,1.805927985612378,backward_fall
4.019357,-0.8333,0.52,1.3448,0.1497,-0.1963,0.4987,-28.4813,-7.6313,-32.9813,,0.019135000000000346,1.6653155646903683,1.589885050408866,backward_fall
4.059442,-0.8333,0.52,1.3448,0.1497,-0.1963,0.4987,-28.725,-9.375,-32.5312,,0.04008499999999948,1.6653155646903683,1.4119273008974935,backward_fall
4.062469,0.0853,-1.0202,0.4789,0.1497,-0.1963,0.4987,-28.725,-9.375,-32.5312,,0.003027000000000335,1.1302341969698138,1.2838406583470006,backward_fall
4.064967,0.0853,-1.0202,0.4789,0.7595,-0.1285,0.3208,-28.725,-9.375,-32.5312,,0.0024980000000001112,1.1302341969698138,1.2102746443243784,backward_fall
4.078697,0.0853,-1.0202,0.4789,0.7595,-0.1285,0.3208,-28.725,-9.375,-32.5312,,0.013729999999999798,1.1302341969698138,1.1887743951935275,backward_fall
4.119422,0.0853,-1.0202,0.4789,0.7631,0.0433,0.9001,-28.725,-9.375,-32.5312,,0.04072500000000012,1.1302341969698138,1.2108798892015236,backward_fall
4.121641,0.0853,-1.0202,0.4789,0.7631,0.0433,0.9001,-28.5375,-10.2563,-32.55,,0.002219000000000193,1.1302341969698138,1.2641407184187756,backward_fall
4.122464,-1.3121,0.9641,-0.2484,0.7631,0.0433,0.9001,-28.5375,-10.2563,-32.55,,0.0008229999999995741,1.64705730926401,1.3347067499757828,backward_fall
4.138674,-1.3121,0.9641,-0.2484,0.7631,0.0433,0.9001,-28.5375,-10.2563,-32.55,,0.016210000000000058,1.64705730926401,1.4099181448338167,backward_fall
4.177304,-1.3121,0.9641,-0.2484,0.7631,0.0433,0.9001,-28.4625,-10.5188,-32.6625,,0.038630000000000386,1.64705730926401,1.480189960487608,backward_fall
4.178888,-1.3121,0.9641,-0.2484,0.9854,0.5187,1.3595,-28.4625,-10.5188,-32.6625,,0.0015839999999993637,1.64705730926401,1.539620938570895,backward_fall
4.180214,-0.1852,0.5129,1.2665,0.9854,0.5187,1.3595,-28.4625,-10.5188,-32.6625,,0.0013260000000006045,1.3789081550270126,1.5851942207736642,backward_fall
4.199776,-0.1852,0.5129,1.2665,0.9854,0.5187,1.3595,-28.4625,-10.5188,-32.6625,,0.019561999999999635,1.3789081550270126,1.6150202587074396,backward_fall
4.237838,-0.1852,0.5129,1.2665,0.9854,0.5187,1.3595,-28.6313,-10.8563,-32.475,,0.03806200000000004,1.3789081550270126,1.62651749724034,backward_fall
4.240116,-0.1852,0.5129,1.2665,1.2643,0.3092,1.3741,-28.6313,-10.8563,-32.475,,0.0022780000000004463,1.3789081550270126,1.6155061428781605,backward_fall
4.260946,-0.1852,0.5129,1.2665,1.2643,0.3092,1.3741,-28.6313,-10.8563,-32.475,,0.020829999999999238,1.3789081550270126,1.5768448084551936,backward_fall
4.262517,0.6901,-1.545,0.6432,1.2643,0.3092,1.3741,-28.6313,-10.8563,-32.475,,0.0015710000000002111,1.8102401083834154,1.5065822726077187,backward_fall
4.298205,0.6901,-1.545,0.6432,1.2643,0.3092,1.3741,-28.7813,-10.7438,-32.2688,,0.035688000000000386,1.8102401083834154,1.4048520147400672,backward_fall
4.300841,0.6901,-1.545,0.6432,1.0453,0.2013,1.5558,-28.7813,-10.7438,-32.2688,,0.0026359999999998607,1.8102401083834154,1.2781941113461495,backward_fall
4.321656,0.6901,-1.545,0.6432,1.0453,0.2013,1.5558,-28.7813,-10.7438,-32.2688,,0.020814999999999806,1.8102401083834154,1.1399476696355946,backward_fall
4.323176,-0.2277,-0.2247,-0.0644,1.0453,0.2013,1.5558,-28.7813,-10.7438,-32.2688,,0.0015200000000001879,0.3263199963226281,1.0079904052116175,backward_fall
4.358365,-0.2277,-0.2247,-0.0644,1.0453,0.2013,1.5558,-29.325,-10.6125,-32.1188,,0.035188999999999915,0.3263199963226281,0.9002673852712915,backward_fall
4.363508,-0.2277,-0.2247,-0.0644,1.3165,0.202,1.6581,-29.325,-10.6125,-32.1188,,0.005143000000000342,0.3263199963226281,0.8297126997788763,backward_fall
4.383227,-0.2277,-0.2247,-0.0644,1.3165,0.202,1.6581,-29.325,-10.6125,-32.1188,,0.019718999999999376,0.3263199963226281,0.800626113268422,backward_fall
4.384317,0.7239,1.0282,-0.2283,1.3165,0.202,1.6581,-29.325,-10.6125,-32.1188,,0.0010900000000004795,1.2780247806674172,0.8079669099522901,non_fall
4.419053,0.7239,1.0282,-0.2283,1.3165,0.202,1.6581,-29.9438,-10.65,-31.6313,,0.034735999999999656,1.2780247806674172,0.8396880564465113,non_fall
4.42462,0.7239,1.0282,-0.2283,1.5675,-0.251,1.4203,-29.9438,-10.65,-31.6313,,0.0055670000000001,1.2780247806674172,0.8809255840799909,non_fall
4.444516,0.1917,-0.8566,-0.1216,1.5675,-0.251,1.4203,-29.9438,-10.65,-31.6313,,0.019896000000000136,0.8861709823730408,0.9182697753284498,non_fall
4.446622,0.1917,-0.8566,-0.1216,1.5675,-0.251,1.4203,-29.9438,-10.65,-31.6313,,0.002105999999999497,0.8861709823730408,0.9426690397423302,non_fall
4.479263,0.1917,-0.8566,-0.1216,1.5675,-0.251,1.4203,-30.6,-10.5938,-30.8813,,0.03264100000000081,0.8861709823730408,0.950388108389755,non_fall
4.485789,0.1917,-0.8566,-0.1216,1.3613,-0.2244,1.2392,-30.6,-10.5938,-30.8813,,0.006525999999999144,0.8861709823730408,0.9422738547074231,non_fall
4.50544,0.1917,-0.8566,-0.1216,1.3613,-0.2244,1.2392,-30.6,-10.5938,-30.8813,,0.01965100000000053,0.8861709823730408,0.922019305571239,non_fall
4.52528,0.4334,-0.387,-0.5275,1.3613,-0.2244,1.2392,-30.6,-10.5938,-30.8813,,0.019840000000000302,0.7847679975636112,0.8941713096684037,non_fall
4.538557,0.4334,-0.387,-0.5275,1.3613,-0.2244,1.2392,-31.2188,-10.275,-30.3188,,0.01327699999999954,0.7847679975636112,0.8624814816548719,non_fall
4.545759,0.4334,-0.387,-0.5275,1.0787,-0.0309,1.2125,-31.2188,-10.275,-30.3188,,0.007202000000000375,0.7847679975636112,0.8289864973939384,non_fall
4.566168,0.4334,-0.387,-0.5275,1.0787,-0.0309,1.2125,-31.2188,-10.275,-30.3188,,0.0204089999999999,0.7847679975636112,0.7939627170654011,non_fall
4.586543,-0.011,-0.7737,-0.2253,1.0787,-0.0309,1.2125,-31.2188,-10.275,-30.3188,,0.020374999999999588,0.8059111489488157,0.7566470689113893,non_fall
4.599196,-0.011,-0.7737,-0.2253,1.0787,-0.0309,1.2125,-31.9125,-10.0688,-29.4938,,0.012653000000000247,0.8059111489488157,0.7163934083326059,non_fall
4.607218,-0.011,-0.7737,-0.2253,0.7794,0.3625,1.2061,-31.9125,-10.0688,-29.4938,,0.00802199999999953,0.8059111489488157,0.6738007981058881,non_fall
4.626984,-0.011,-0.7737,-0.2253,0.7794,0.3625,1.2061,-31.9125,-10.0688,-29.4938,,0.019766000000000616,0.8059111489488157,0.6313543649406076,non_fall
4.648524,0.1044,-0.3229,-0.3466,0.7794,0.3625,1.2061,-31.9125,-10.0688,-29.4938,,0.021539999999999893,0.48507249973586425,0.5932786501233069,non_fall
4.659527,0.1044,-0.3229,-0.3466,0.7794,0.3625,1.2061,-32.6063,-9.6,-28.7438,,0.011002999999999652,0.48507249973586425,0.564589177267239,non_fall
4.668524,0.1044,-0.3229,-0.3466,0.5948,0.4449,1.3563,-32.6063,-9.6,-28.7438,,0.008996999999999922,0.48507249973586425,0.5496412224522673,non_fall
4.688096,0.1044,-0.3229,-0.3466,0.5948,0.4449,1.3563,-32.6063,-9.6,-28.7438,,0.019572000000000145,0.48507249973586425,0.5506728995872905,non_fall
4.718594,0.1044,-0.3229,-0.3466,0.5948,0.4449,1.3563,-33.2438,-8.8313,-28.2563,,0.03049800000000058,0.48507249973586425,0.5668367371476425,non_fall
4.728336,0.1044,-0.3229,-0.3466,0.712,0.2333,1.3131,-33.2438,-8.8313,-28.2563,,0.009741999999999251,0.48507249973586425,0.5940424184711854,non_fall
4.729446,0.6336,-0.3429,-0.1524,0.712,0.2333,1.3131,-33.2438,-8.8313,-28.2563,,0.0011100000000006105,0.7363797457833832,0.6256835555298335,non_fall
4.748894,0.6336,-0.3429,-0.1524,0.712,0.2333,1.3131,-33.2438,-8.8313,-28.2563,,0.019447999999999688,0.7363797457833832,0.6540630017723446,non_fall
4.779147,0.6336,-0.3429,-0.1524,0.712,0.2333,1.3131,-33.8813,-8.1375,-27.8438,,0.030253000000000085,0.7363797457833832,0.672124526717008,non_fall
4.792325,0.6336,-0.3429,-0.1524,0.5441,0.0433,1.1256,-33.8813,-8.1375,-27.8438,,0.013177999999999912,0.7363797457833832,0.6750179112121338,non_fall
4.794423,0.5989,-0.2016,0.0481,0.5441,0.0433,1.1256,-33.8813,-8.1375,-27.8438,,0.0020980000000001553,0.6337486725824363,0.6611064445288896,non_fall
4.810938,0.5989,-0.2016,0.0481,0.5441,0.0433,1.1256,-33.8813,-8.1375,-27.8438,,0.016515000000000057,0.6337486725824363,0.6322188332766624,non_fall
4.839409,0.5989,-0.2016,0.0481,0.5441,0.0433,1.1256,-34.3688,-7.275,-27.2625,,0.02847099999999969,0.6337486725824363,0.5931505436822766,non_fall
4.850196,0.5989,-0.2016,0.0481,0.5121,0.0827,0.9136,-34.3688,-7.275,-27.2625,,0.010787000000000546,0.6337486725824363,0.5505633075420213,non_fall
4.851132,0.2474,-0.2502,-0.1746,0.5121,0.0827,0.9136,-34.3688,-7.275,-27.2625,,0.0009359999999993818,0.3928001527494611,0.5115166212044421,non_fall
4.870178,0.2474,-0.2502,-0.1746,0.5121,0.0827,0.9136,-34.3688,-7.275,-27.2625,,0.01904600000000034,0.3928001527494611,0.4819297523089061,non_fall
4.897926,0.2474,-0.2502,-0.1746,0.5121,0.0827,0.9136,-34.6125,-6.0563,-27.15,,0.027747999999999884,0.3928001527494611,0.46532019959513515,non_fall
4.910507,0.2474,-0.2502,-0.1746,0.4286,0.1221,0.8838,-34.6125,-6.0563,-27.15,,0.012580999999999953,0.3928001527494611,0.4621382397981545,non_fall
4.912348,-0.1596,-0.4779,-0.1846,0.4286,0.1221,0.8838,-34.6125,-6.0563,-27.15,,0.0018409999999997595,0.5365982948165229,0.4698713650471794,non_fall
4.930482,-0.1596,-0.4779,-0.1846,0.4286,0.1221,0.8838,-34.6125,-6.0563,-27.15,,0.018133999999999872,0.5365982948165229,0.483865130196686,non_fall
4.957566,-0.1596,-0.4779,-0.1846,0.4286,0.1221,0.8838,-34.725,-4.6688,-27.3375,,0.02708400000000033,0.5365982948165229,0.4986000876898594,non_fall
4.972536,-0.1596,-0.4779,-0.1846,0.3858,0.1356,0.9647,-34.725,-4.6688,-27.3375,,0.014969999999999928,0.5365982948165229,0.5090667018959008,non_fall
4.991854,-0.1596,-0.4779,-0.1846,0.3858,0.1356,0.9647,-34.725,-4.6688,-27.3375,,0.01931800000000017,0.5365982948165229,0.5119119096174864,non_fall
4.993932,-0.0279,-0.3833,-0.3073,0.3858,0.1356,0.9647,-34.725,-4.6688,-27.3375,,0.0020780000000000243,0.49206766811079955,0.506145733634786,non_fall
5.018157,-0.0279,-0.3833,-0.3073,0.3858,0.1356,0.9647,-34.8188,-3.2438,-27.525,,0.024225000000000385,0.49206766811079955,0.49332669179249106,non_fall
5.032408,-0.0279,-0.3833,-0.3073,0.3445,0.3653,0.991,-34.8188,-3.2438,-27.525,,0.014250999999999792,0.49206766811079955,0.47724626139634224,non_fall
5.052679,-0.0279,-0.3833,-0.3073,0.3445,0.3653,0.991,-34.8188,-3.2438,-27.525,,0.02027100000000015,0.49206766811079955,0.46319288213931586,non_fall
5.054506,0.0804,-0.4553,0.0143,0.3445,0.3653,0.991,-34.8188,-3.2438,-27.525,,0.001826999999999579,0.4625653899720557,0.45690656656740586,non_fall
5.077689,0.0804,-0.4553,0.0143,0.3445,0.3653,0.991,-34.7812,-1.8,-28.0313,,0.023183000000000398,0.4625653899720557,0.46336069212382314,non_fall
5.093742,0.0804,-0.4553,0.0143,0.39,0.3107,1.0293,-34.7812,-1.8,-28.0313,,0.01605299999999943,0.4625653899720557,0.48554449941643324,non_fall
5.113555,0.0804,-0.4553,0.0143,0.39,0.3107,1.0293,-34.7812,-1.8,-28.0313,,0.01981300000000008,0.4625653899720557,0.5234601710735906,non_fall
5.114991,0.1885,-0.523,-0.1047,0.39,0.3107,1.0293,-34.7812,-1.8,-28.0313,,0.0014359999999999928,0.5657060544134206,0.5735661004095228,non_fall
5.137558,0.1885,-0.523,-0.1047,0.39,0.3107,1.0293,-34.5563,-0.3375,-28.4063,,0.022567000000000448,0.5657060544134206,0.6288699127233914,non_fall
5.154433,0.1885,-0.523,-0.1047,0.4073,0.1814,0.8718,-34.5563,-0.3375,-28.4063,,0.01687499999999975,0.5657060544134206,0.6797949375929848,non_fall
5.175108,0.1885,-0.523,-0.1047,0.4073,0.1814,0.8718,-34.5563,-0.3375,-28.4063,,0.020674999999999777,0.5657060544134206,0.715816458072892,non_fall
5.194618,0.4409,-0.6482,-0.4038,0.4073,0.1814,0.8718,-34.5563,-0.3375,-28.4063,,0.01951000000000036,0.8818222553326719,0.7276842013935546,non_fall
5.199366,0.4409,-0.6482,-0.4038,0.4073,0.1814,0.8718,-34.3125,1.0312,-28.7625,,0.0047480000000001965,0.8818222553326719,0.709816031613389,non_fall
5.214784,0.4409,-0.6482,-0.4038,0.1912,0.1332,0.6779,-34.3125,1.0312,-28.7625,,0.015417999999999488,0.8818222553326719,0.662233585011842,non_fall
5.235291,0.4409,-0.6482,-0.4038,0.1912,0.1332,0.6779,-34.3125,1.0312,-28.7625,,0.020507000000000275,0.8818222553326719,0.5913627435864949,non_fall
5.256187,0.2605,-0.0817,-0.0391,0.1912,0.1332,0.6779,-34.3125,1.0312,-28.7625,,0.02089599999999958,0.27579693616862394,0.509262185971696,non_fall
5.257843,0.2605,-0.0817,-0.0391,0.1912,0.1332,0.6779,-34.0125,2.325,-29.0813,,0.001656000000000546,0.27579693616862394,0.43133565083493963,non_fall
5.275442,0.2605,-0.0817,-0.0391,0.0843,-0.0174,0.6701,-34.0125,2.325,-29.0813,,0.017598999999999698,0.27579693616862394,0.37311213644505775,non_fall
5.297916,0.2605,-0.0817,-0.0391,0.0843,-0.0174,0.6701,-34.0125,2.325,-29.0813,,0.022473999999999883,0.27579693616862394,0.346972384509162,non_fall
5.317865,0.2605,-0.0817,-0.0391,0.0843,-0.0174,0.6701,-33.7875,3.6563,-29.4563,,0.01994900000000044,0.27579693616862394,0.35963483121910894,non_fall
5.320071,0.4401,0.2181,-0.0777,0.0843,-0.0174,0.6701,-33.7875,3.6563,-29.4563,,0.0022060000000001523,0.49728554171622563,0.41089571690678206,non_fall
5.33848,0.4401,0.2181,-0.0777,-0.1652,-0.2985,0.5451,-33.7875,3.6563,-29.4563,,0.01840899999999923,0.49728554171622563,0.4937526735669702,non_fall
5.359333,0.4401,0.2181,-0.0777,-0.1652,-0.2985,0.5451,-33.7875,3.6563,-29.4563,,0.020853000000000677,0.49728554171622563,0.5957693385339123,non_fall
5.378986,0.4401,0.2181,-0.0777,-0.1652,-0.2985,0.5451,-33.6562,4.9125,-29.4375,,0.01965299999999992,0.49728554171622563,0.7013916609129695,non_fall
5.380931,0.4514,-0.9192,0.078,-0.1652,-0.2985,0.5451,-33.6562,4.9125,-29.4375,,0.0019450000000000855,1.0270222003442768,0.7948461714449649,non_fall
5.399996,0.4514,-0.9192,0.078,-0.161,-0.5627,0.2651,-33.6562,4.9125,-29.4375,,0.019064999999999444,1.0270222003442768,0.8631468091835816,non_fall
5.419862,0.4514,-0.9192,0.078,-0.161,-0.5627,0.2651,-33.6562,4.9125,-29.4375,,0.019866000000000383,1.0270222003442768,0.8986133106982992,non_fall
5.439494,0.4514,-0.9192,0.078,-0.161,-0.5627,0.2651,-33.675,6.0,-29.25,,0.01963199999999965,1.0270222003442768,0.9002990553220207,non_fall
5.461015,-0.4843,-0.5134,-0.2696,-0.161,-0.5627,0.2651,-33.675,6.0,-29.25,,0.0215209999999999,0.7555198276683412,0.8739564427975313,non_fall
5.463886,-0.4843,-0.5134,-0.2696,-0.2692,-0.5531,0.3736,-33.675,6.0,-29.25,,0.002870999999999846,0.7555198276683412,0.8305700844271986,non_fall
5.479519,-0.4843,-0.5134,-0.2696,-0.2692,-0.5531,0.3736,-33.675,6.0,-29.25,,0.01563300000000023,0.7555198276683412,0.7838670002445348,non_fall
5.500289,-0.4843,-0.5134,-0.2696,-0.2692,-0.5531,0.3736,-33.6938,7.0688,-28.7813,,0.02077000000000062,0.7555198276683412,0.747406935838523,non_fall
5.521745,-0.4843,-0.5134,-0.2696,-0.2625,-0.3791,0.5969,-33.6938,7.0688,-28.7813,,0.021455999999999698,0.7555198276683412,0.7318419191335235,non_fall
5.524198,-0.6153,0.1794,0.1246,-0.2625,-0.3791,0.5969,-33.6938,7.0688,-28.7813,,0.0024530000000000385,0.652919298229115,0.7428120606599926,non_fall
5.541034,-0.6153,0.1794,0.1246,-0.2625,-0.3791,0.5969,-33.6938,7.0688,-28.7813,,0.01683599999999963,0.652919298229115,0.7798270947674026,non_fall
5.558995,-0.6153,0.1794,0.1246,-0.2625,-0.3791,0.5969,-33.5813,8.3438,-28.1438,,0.01796100000000056,0.652919298229115,0.8363911941213641,non_fall
5.58155,-0.6153,0.1794,0.1246,-0.1688,0.3678,0.5967,-33.5813,8.3438,-28.1438,,0.02255499999999966,0.652919298229115,0.9014876309312934,non_fall
5.584007,0.7676,-0.9968,-0.0652,-0.1688,0.3678,0.5967,-33.5813,8.3438,-28.1438,,0.0024569999999997094,1.2597900777510513,0.9622642271961199,non_fall
5.601208,0.7676,-0.9968,-0.0652,-0.1688,0.3678,0.5967,-33.5813,8.3438,-28.1438,,0.017201000000000022,1.2597900777510513,1.0073564538053617,non_fall
5.619826,0.7676,-0.9968,-0.0652,-0.1688,0.3678,0.5967,-33.675,9.5625,-27.5813,,0.018618000000000023,1.2597900777510513,1.029913065164053,non_fall
5.6427,0.7676,-0.9968,-0.0652,-0.0272,-0.1523,0.1522,-33.675,9.5625,-27.5813,,0.02287399999999984,1.2597900777510513,1.0293002046742457,non_fall
5.663346,0.7676,-0.9968,-0.0652,-0.0272,-0.1523,0.1522,-33.675,9.5625,-27.5813,,0.020646000000000164,1.2597900777510513,1.0107987910175185,non_fall
5.665367,0.1223,-0.5381,0.2261,-0.0272,-0.1523,0.1522,-33.675,9.5625,-27.5813,,0.0020210000000000505,0.5963473065253166,0.9832884458909555,non_fall
5.678718,0.1223,-0.5381,0.2261,-0.0272,-0.1523,0.1522,-33.8438,10.5563,-26.925,,0.013351000000000113,0.5963473065253166,0.9556783018053611,non_fall
5.703797,0.1223,-0.5381,0.2261,-0.0069,0.127,0.106,-33.8438,10.5563,-26.925,,0.02507899999999985,0.5963473065253166,0.9333985002687679,non_fall
5.725049,0.1223,-0.5381,0.2261,-0.0069,0.127,0.106,-33.8438,10.5563,-26.925,,0.021252000000000493,0.5963473065253166,0.9163292876368306,non_fall
5.727885,-0.2122,1.1197,0.0075,-0.0069,0.127,0.106,-33.8438,10.5563,-26.925,,0.0028359999999993946,1.1396548512598015,0.8990147947236593,non_fall
5.739161,-0.2122,1.1197,0.0075,-0.0069,0.127,0.106,-33.8813,11.6438,-26.2125,,0.011276000000000508,1.1396548512598015,0.8730874224402356,non_fall
5.764418,-0.2122,1.1197,0.0075,-0.0743,-0.0454,0.177,-33.8813,11.6438,-26.2125,,0.025256999999999863,1.1396548512598015,0.8309417421437583,non_fall
5.784645,-0.2122,1.1197,0.0075,-0.0743,-0.0454,0.177,-33.8813,11.6438,-26.2125,,0.020227000000000217,1.1396548512598015,0.7692552351007015,non_fall
5.786122,0.2546,0.3595,-0.0407,-0.0743,-0.0454,0.177,-33.8813,11.6438,-26.2125,,0.0014769999999995065,0.4424001582278198,0.6911349473032797,non_fall
5.800044,0.2546,0.3595,-0.0407,-0.0743,-0.0454,0.177,-34.0125,12.5438,-25.575,,0.01392199999999999,0.4424001582278198,0.6063318504020098,non_fall
5.825886,0.2546,0.3595,-0.0407,-0.1131,-0.1491,0.2775,-34.0125,12.5438,-25.575,,0.02584199999999992,0.4424001582278198,0.5297310079411656,non_fall
5.847849,0.2546,0.3595,-0.0407,-0.1131,-0.1491,0.2775,-34.0125,12.5438,-25.575,,0.0219630000000004,0.4424001582278198,0.4788054177346518,non_fall
5.850178,0.2043,0.2852,-0.491,-0.1131,-0.1491,0.2775,-34.0125,12.5438,-25.575,,0.0023289999999995814,0.6034554913164681,0.470758644977584,non_fall
5.85887,0.2043,0.2852,-0.491,-0.1131,-0.1491,0.2775,-33.9375,13.4063,-25.05,,0.008691999999999922,0.6034554913164681,0.5198335404094876,non_fall
5.886315,0.2043,0.2852,-0.491,-0.3924,-0.065,0.4333,-33.9375,13.4063,-25.05,,0.027445000000000164,0.6034554913164681,0.6350221795883328,non_fall
5.906666,0.2043,0.2852,-0.491,-0.3924,-0.065,0.4333,-33.9375,13.4063,-25.05,,0.020351000000000674,0.6034554913164681,0.8183490705110444,non_fall
5.920268,0.2043,0.2852,-0.491,-0.3924,-0.065,0.4333,-33.675,14.3813,-24.75,,0.01360199999999967,0.6034554913164681,1.0639703256386823,non_fall
5.926072,1.214,1.4033,-0.3434,-0.3924,-0.065,0.4333,-33.675,14.3813,-24.75,,0.005803999999999476,1.887053377623431,1.3583382118686456,non_fall
5.946957,1.214,1.4033,-0.3434,-0.538,0.1764,0.3286,-33.675,14.3813,-24.75,,0.02088500000000071,1.887053377623431,1.681467220043237,non_fall
5.967529,1.214,1.4033,-0.3434,-0.538,0.1764,0.3286,-33.675,14.3813,-24.75,,0.02057199999999959,1.887053377623431,2.009005088230762,non_fall
5.977992,1.214,1.4033,-0.3434,-0.538,0.1764,0.3286,-33.375,15.3563,-24.5813,,0.010463000000000555,1.887053377623431,2.3146612827760213,non_fall
5.988213,2.3985,1.1218,-1.1333,-0.538,0.1764,0.3286,-33.375,15.3563,-24.5813,,0.010220999999999592,2.880209433357234,2.5726909839833274,non_fall
6.00799,2.3985,1.1218,-1.1333,-0.6505,-0.1342,0.1827,-33.375,15.3563,-24.5813,,0.019777000000000378,2.880209433357234,2.760323361348925,non_fall
6.028259,2.3985,1.1218,-1.1333,-0.6505,-0.1342,0.1827,-33.375,15.3563,-24.5813,,0.02026899999999987,2.880209433357234,2.860016023475788,non_fall
6.038886,2.3985,1.1218,-1.1333,-0.6505,-0.1342,0.1827,-33.2625,16.3125,-24.15,,0.010626999999999498,2.880209433357234,2.8613234352275607,non_fall
6.049353,-0.5297,2.2798,0.6319,-0.6505,-0.1342,0.1827,-33.2625,16.3125,-24.15,,0.010467000000000226,2.424328306974944,2.7622169335993294,non_fall
6.069538,-0.5297,2.2798,0.6319,-1.2735,0.224,-1.1919,-33.2625,16.3125,-24.15,,0.020184999999999675,2.424328306974944,2.569863640900548,non_fall
6.089089,-0.5297,2.2798,0.6319,-1.2735,0.224,-1.1919,-33.2625,16.3125,-24.15,,0.019551000000000762,2.424328306974944,2.3009260531426663,non_fall
6.100456,-0.5297,2.2798,0.6319,-1.2735,0.224,-1.1919,-33.4688,16.8188,-23.625,,0.011366999999999905,2.424328306974944,1.9812447361582355,non_fall
6.130103,-0.5297,2.2798,0.6319,-1.4088,0.3354,-1.6654,-33.4688,16.8188,-23.625,,0.029646999999999757,2.424328306974944,1.644459607904603,non_fall
6.132413,0.4815,-0.501,-0.1501,-1.4088,0.3354,-1.6654,-33.4688,16.8188,-23.625,,0.00230999999999959,0.7108960964866806,1.32907646150076,non_fall
6.150776,0.4815,-0.501,-0.1501,-1.4088,0.3354,-1.6654,-33.4688,16.8188,-23.625,,0.018362999999999907,0.7108960964866806,1.0739580151419748,non_fall
6.159368,0.4815,-0.501,-0.1501,-1.4088,0.3354,-1.6654,-33.6938,17.1375,-22.9688,,0.008592000000000155,0.7108960964866806,0.9130092883457143,non_fall
6.190745,0.4815,-0.501,-0.1501,-0.8284,-0.6731,-2.0786,-33.6938,17.1375,-22.9688,,0.03137699999999999,0.7108960964866806,0.8703325233562234,non_fall
6.192529,0.6662,-1.0279,0.5512,-0.8284,-0.6731,-2.0786,-33.6938,17.1375,-22.9688,,0.001784000000000674,1.343213419379065,0.9569346779570232,non_fall
6.211718,0.6662,-1.0279,0.5512,-0.8284,-0.6731,-2.0786,-33.6938,17.1375,-22.9688,,0.0191889999999999,1.343213419379065,1.1693871627459345,non_fall
6.21986,0.6662,-1.0279,0.5512,-0.8284,-0.6731,-2.0786,-34.4062,16.8375,-22.0875,,0.008141999999999427,1.343213419379065,1.4902278006268572,non_fall
6.251758,0.6662,-1.0279,0.5512,-0.2479,-0.5278,-1.5199,-34.4062,16.8375,-22.0875,,0.03189799999999998,1.343213419379065,1.8897201907998662,non_fall
6.253803,-2.5195,-0.9506,0.8222,-0.2479,-0.5278,-1.5199,-34.4062,16.8375,-22.0875,,0.0020449999999998525,2.8155875852120102,2.328740523936463,non_fall
6.272604,-2.5195,-0.9506,0.8222,-0.2479,-0.5278,-1.5199,-34.4062,16.8375,-22.0875,,0.018801000000000734,2.8155875852120102,2.7626747251222077,non_fall
6.277282,-2.5195,-0.9506,0.8222,-0.2479,-0.5278,-1.5199,-35.2125,16.2,-21.0563,,0.004677999999999294,2.8155875852120102,3.146091171541136,non_fall
6.316,-2.3196,-2.5375,1.0032,-0.2479,-0.5278,-1.5199,-35.2125,16.2,-21.0563,,0.03871800000000025,3.581321076083517,3.4377734555340402,non_fall
6.320506,-2.3196,-2.5375,1.0032,0.1642,-0.3908,-0.031,-35.2125,16.2,-21.0563,,0.004506000000000121,3.581321076083517,3.6056391057061545,non_fall
6.332182,-2.3196,-2.5375,1.0032,0.1642,-0.3908,-0.031,-35.2125,16.2,-21.0563,,0.011676000000000464,3.581321076083517,3.6310691576122767,non_fall
6.339072,-2.3196,-2.5375,1.0032,0.1642,-0.3908,-0.031,-36.3563,15.1688,-20.0438,,0.006889999999999397,3.581321076083517,3.512114922374633,non_fall
6.374241,-2.3196,-2.5375,1.0032,0.2551,-0.1168,0.8192,-36.3563,15.1688,-20.0438,,0.035168999999999784,3.581321076083517,3.264968198990154,non_fall
6.394295,-2.3196,-2.5375,1.0032,0.2551,-0.1168,0.8192,-36.3563,15.1688,-20.0438,,0.020054000000000016,3.581321076083517,2.9230860186181262,non_fall
6.396162,-1.0456,0.7764,1.5486,0.2551,-0.1168,0.8192,-36.3563,15.1688,-20.0438,,0.0018670000000007292,2.0234224175885767,2.5335654230849154,non_fall
6.397441,-1.0456,0.7764,1.5486,0.2551,-0.1168,0.8192,-37.4813,14.1188,-18.75,,0.001278999999999364,2.0234224175885767,2.150859567189079,non_fall
6.434536,-1.0456,0.7764,1.5486,0.2206,0.1505,0.3314,-37.4813,14.1188,-18.75,,0.03709499999999988,2.0234224175885767,1.8285993621629604,non_fall
6.453733,-1.0456,0.7764,1.5486,0.2206,0.1505,0.3314,-37.4813,14.1188,-18.75,,0.01919700000000013,2.0234224175885767,1.610795326219305,non_fall
6.455374,0.8199,0.4219,-0.4285,0.2206,0.1505,0.3314,-37.4813,14.1188,-18.75,,0.0016410000000002256,1.0167830987973787,1.523863168108457,non_fall
6.459258,0.8199,0.4219,-0.4285,0.2206,0.1505,0.3314,-38.625,12.9938,-17.8125,,0.0038840000000002206,1.0167830987973787,1.5709368899782348,non_fall
6.495663,0.8199,0.4219,-0.4285,0.5,0.5087,-0.064,-38.625,12.9938,-17.8125,,0.03640500000000024,1.0167830987973787,1.7299558815500147,non_fall
6.516124,0.8199,0.4219,-0.4285,0.5,0.5087,-0.064,-38.625,12.9938,-17.8125,,0.020460999999999174,1.0167830987973787,1.9567545809977855,non_fall
6.517419,2.8507,1.1124,-0.5018,0.5,0.5087,-0.064,-38.625,12.9938,-17.8125,,0.0012950000000007122,3.1009236511078435,2.193423509300979,non_fall
6.518969,2.8507,1.1124,-0.5018,0.5,0.5087,-0.064,-39.6562,11.7375,-17.1,,0.0015499999999999403,3.1009236511078435,2.380576721147968,non_fall
6.556763,2.8507,1.1124,-0.5018,1.282,-0.8157,0.2388,-39.6562,11.7375,-17.1,,0.03779399999999988,3.1009236511078435,2.470526759123615,non_fall
6.576701,2.8507,1.1124,-0.5018,1.282,-0.8157,0.2388,-39.6562,11.7375,-17.1,,0.01993799999999979,3.1009236511078435,2.437668092930838,non_fall
6.578292,2.8507,1.1124,-0.5018,1.282,-0.8157,0.2388,-40.6313,10.3125,-16.5,,0.0015910000000003421,3.1009236511078435,2.283097612109727,non_fall
6.596192,-0.4131,-0.1731,-0.914,1.282,-0.8157,0.2388,-40.6313,10.3125,-16.5,,0.017900000000000027,1.0178463636521968,2.032360920219099,non_fall
6.615942,-0.4131,-0.1731,-0.914,2.1078,0.3384,0.9992,-40.6313,10.3125,-16.5,,0.019750000000000156,1.0178463636521968,1.727433477058497,non_fall
6.637637,-0.4131,-0.1731,-0.914,2.1078,0.3384,0.9992,-40.6313,10.3125,-16.5,,0.021694999999999354,1.0178463636521968,1.4157819170371138,non_fall
6.639386,-0.4131,-0.1731,-0.914,2.1078,0.3384,0.9992,-41.3438,9.225,-16.3313,,0.0017490000000002226,1.0178463636521968,1.139913350085063,non_fall
6.657502,0.3457,-0.3376,-0.6975,2.1078,0.3384,0.9992,-41.3438,9.225,-16.3313,,0.01811600000000002,0.8485213609568117,0.9300532353141394,non_fall
6.677426,0.3457,-0.3376,-0.6975,1.8452,1.4413,1.2946,-41.3438,9.225,-16.3313,,0.01992399999999961,0.8485213609568117,0.8010824603099257,non_fall
6.70042,0.3457,-0.3376,-0.6975,1.8452,1.4413,1.2946,-41.3438,9.225,-16.3313,,0.022994000000000625,0.8485213609568117,0.7534489824615062,non_fall
6.702214,0.3457,-0.3376,-0.6975,1.8452,1.4413,1.2946,-41.3063,8.7188,-16.9125,,0.0017939999999994072,0.8485213609568117,0.7768920600278375,non_fall
6.720221,0.2558,-0.8681,-0.7776,1.8452,1.4413,1.2946,-41.3063,8.7188,-16.9125,,0.018006999999999884,1.193186075178553,0.8554663639169979,non_fall
6.739991,0.2558,-0.8681,-0.7776,1.8707,0.4093,1.7585,-41.3063,8.7188,-16.9125,,0.019770000000000287,1.193186075178553,0.9723778989790834,non_fall
6.759687,0.2558,-0.8681,-0.7776,1.8707,0.4093,1.7585,-41.3063,8.7188,-16.9125,,0.019695999999999714,1.193186075178553,1.1134482229899292,non_fall
6.760808,0.2558,-0.8681,-0.7776,1.8707,0.4093,1.7585,-41.1,8.6438,-17.8313,,0.0011210000000003717,1.193186075178553,1.2685543352319288,non_fall
6.779695,-0.1036,-1.5117,-0.0434,1.8707,0.4093,1.7585,-41.1,8.6438,-17.8313,,0.01888700000000032,1.5158672138416347,1.4310407515731904,non_fall
6.801011,-0.1036,-1.5117,-0.0434,1.6594,0.4519,1.4408,-41.1,8.6438,-17.8313,,0.02131599999999967,1.5158672138416347,1.5956832648164303,non_fall
6.820196,-0.1036,-1.5117,-0.0434,1.6594,0.4519,1.4408,-40.5938,8.8313,-19.2375,,0.01918500000000023,1.5158672138416347,1.7561520535589499,non_fall
6.821572,-0.1036,-1.5117,-0.0434,1.6594,0.4519,1.4408,-40.5938,8.8313,-19.2375,,0.0013759999999995998,1.5158672138416347,1.9030431092384836,non_fall
6.861314,-0.1036,-1.5117,-0.0434,1.2931,0.4214,1.4269,-40.5938,8.8313,-19.2375,,0.03974200000000039,1.5158672138416347,2.0234198778126076,non_fall
6.862961,-0.1766,-2.4618,-0.1177,1.2931,0.4214,1.4269,-40.5938,8.8313,-19.2375,,0.001647000000000176,2.4709310168436516,2.10237014012105,non_fall
6.878436,-0.1766,-2.4618,-0.1177,1.2931,0.4214,1.4269,-39.8813,9.0563,-21.1125,,0.015474999999999461,2.4709310168436516,2.1263273015286455,non_fall
6.87993,-0.1766,-2.4618,-0.1177,1.2931,0.4214,1.4269,-39.8813,9.0563,-21.1125,,0.0014940000000001064,2.4709310168436516,2.0870751197962387,non_fall
6.92165,-0.1766,-2.4618,-0.1177,1.0964,0.6096,1.3719,-39.8813,9.0563,-21.1125,,0.04171999999999976,2.4709310168436516,1.98490975057283,non_fall
6.923649,0.252,1.2929,-0.5031,1.0964,0.6096,1.3719,-39.8813,9.0563,-21.1125,,0.001999000000000528,1.4100368860423476,1.8296951317925414,non_fall
6.939109,0.252,1.2929,-0.5031,1.0964,0.6096,1.3719,-39.0375,9.2625,-22.9688,,0.01546000000000003,1.4100368860423476,1.6394007899926117,non_fall
6.941334,0.252,1.2929,-0.5031,1.0964,0.6096,1.3719,-39.0375,9.2625,-22.9688,,0.0022250000000001435,1.4100368860423476,1.4366646489219763,non_fall
6.982719,0.252,1.2929,-0.5031,1.0958,0.6269,1.3506,-39.0375,9.2625,-22.9688,,0.041385000000000005,1.4100368860423476,1.2444700963439896,non_fall
6.984844,-0.7363,0.0244,0.41,1.0958,0.6269,1.3506,-39.0375,9.2625,-22.9688,,0.0021249999999994884,0.8431091566339438,1.0820150922106104,non_fall
7.000347,-0.7363,0.0244,0.41,1.0958,0.6269,1.3506,-38.0063,9.3188,-24.8625,,0.015502999999999822,0.8431091566339438,0.9615400148221037,non_fall
7.001592,-0.7363,0.0244,0.41,1.0958,0.6269,1.3506,-38.0063,9.3188,-24.8625,,0.0012449999999999406,0.8431091566339438,0.8865817943100055,non_fall
7.044972,-0.7363,0.0244,0.41,0.9963,0.9301,1.4326,-38.0063,9.3188,-24.8625,,0.043379999999999974,0.8431091566339438,0.8518859049966371,non_fall
7.058732,-0.7363,0.0244,0.41,0.9963,0.9301,1.4326,-36.4688,9.7688,-27.2813,,0.013760000000000439,0.8431091566339438,0.8449409161787275,non_fall
7.06408,-0.7363,0.0244,0.41,0.9963,0.9301,1.4326,-36.4688,9.7688,-27.2813,,0.005347999999999686,0.8431091566339438,0.8488072438878902,non_fall
7.0649,-0.5916,-0.6539,0.2791,0.9963,0.9301,1.4326,-36.4688,9.7688,-27.2813,,0.0008200000000000429,0.9249176071413064,0.8456855067948066,non_fall
7.10433,-0.5916,-0.6539,0.2791,0.8068,1.14,1.3176,-36.4688,9.7688,-27.2813,,0.0394300000000003,0.9249176071413064,0.8205589980425823,non_fall
7.119347,-0.5916,-0.6539,0.2791,0.8068,1.14,1.3176,-34.5563,10.2188,-29.4375,,0.01501700000000028,0.9249176071413064,0.7642429203852682,non_fall
7.124267,-0.5916,-0.6539,0.2791,0.8068,1.14,1.3176,-34.5563,10.2188,-29.4375,,0.004919999999999369,0.9249176071413064,0.6752845939992734,non_fall
7.125261,-0.0044,-0.0664,-0.2496,0.8068,1.14,1.3176,-34.5563,10.2188,-29.4375,,0.0009940000000003835,0.2583185630186108,0.5604072264654077,non_fall
7.165085,-0.0044,-0.0664,-0.2496,0.5501,0.8747,1.9623,-34.5563,10.2188,-29.4375,,0.039824000000000304,0.2583185630186108,0.433552302390103,non_fall
7.178766,-0.0044,-0.0664,-0.2496,0.5501,0.8747,1.9623,-32.5312,10.7063,-31.5375,,0.013681000000000054,0.2583185630186108,0.313914459799218,non_fall
7.185603,-0.0044,-0.0664,-0.2496,0.5501,0.8747,1.9623,-32.5312,10.7063,-31.5375,,0.006836999999999982,0.2583185630186108,0.22347585396984285,non_fall
7.186689,-0.1565,0.2323,0.322,0.5501,0.8747,1.9623,-32.5312,10.7063,-31.5375,,0.0010859999999999204,0.4267780922212386,0.18436395915634146,non_fall
7.225979,-0.1565,0.2323,0.322,0.1081,0.8342,1.9098,-32.5312,10.7063,-31.5375,,0.03928999999999938,0.4267780922212386,0.21605475994894882,non_fall
7.239394,-0.1565,0.2323,0.322,0.1081,0.8342,1.9098,-30.1125,11.3813,-33.4875,,0.013415000000000177,0.4267780922212386,0.3323054921658303,non_fall
7.247801,-0.1565,0.2323,0.322,0.1081,0.8342,1.9098,-30.1125,11.3813,-33.4875,,0.008407000000000053,0.4267780922212386,0.5378807988088223,non_fall
7.248532,-0.7988,0.0111,0.0267,0.1081,0.8342,1.9098,-30.1125,11.3813,-33.4875,,0.0007310000000000372,0.7993231761934593,0.8255601558710467,non_fall
7.287311,-0.7988,0.0111,0.0267,0.0864,1.0561,1.5938,-30.1125,11.3813,-33.4875,,0.0387789999999999,0.7993231761934593,1.174354184274473,non_fall
7.299327,-0.7988,0.0111,0.0267,0.0864,1.0561,1.5938,-27.375,12.15,-35.1188,,0.012016000000000027,0.7993231761934593,1.5500712285461775,non_fall
7.308051,-0.7988,0.0111,0.0267,0.0864,1.0561,1.5938,-27.375,12.15,-35.1188,,0.008723999999999954,0.7993231761934593,1.909176614525925,non_fall
7.327072,-0.3196,3.1608,0.8415,0.0864,1.0561,1.5938,-27.375,12.15,-35.1188,,0.0190210000000004,3.286475779615605,2.2061127255320336,non_fall
7.347434,-0.3196,3.1608,0.8415,0.4141,0.12,1.6034,-27.375,12.15,-35.1188,,0.020361999999999547,3.286475779615605,2.4028905675904437,non_fall
7.358736,-0.3196,3.1608,0.8415,0.4141,0.12,1.6034,-24.7125,12.9188,-36.8438,,0.01130200000000059,3.286475779615605,2.47832394785303,non_fall
7.368395,-0.3196,3.1608,0.8415,0.4141,0.12,1.6034,-24.7125,12.9188,-36.8438,,0.009658999999999196,3.286475779615605,2.4337255138774387,non_fall
7.388439,0.7371,0.8947,0.9248,0.4141,0.12,1.6034,-24.7125,12.9188,-36.8438,,0.020044000000000395,1.4829226345295292,2.2928650286907803,non_fall
7.409051,0.7371,0.8947,0.9248,0.3679,-0.0816,1.979,-24.7125,12.9188,-36.8438,,0.020611999999999853,1.4829226345295292,2.096124496404177,non_fall
7.41937,0.7371,0.8947,0.9248,0.3679,-0.0816,1.979,-21.7688,13.4813,-38.1562,,0.010318999999999967,1.4829226345295292,1.8909117139192482,non_fall
7.428146,0.7371,0.8947,0.9248,0.3679,-0.0816,1.979,-21.7688,13.4813,-38.1562,,0.008776000000000117,1.4829226345295292,1.721427914778843,non_fall
7.449645,-0.3779,1.6164,-0.1509,0.3679,-0.0816,1.979,-21.7688,13.4813,-38.1562,,0.02149900000000038,1.6668317791546932,1.6205105793412016,non_fall
7.469987,-0.3779,1.6164,-0.1509,0.374,-0.208,1.0176,-21.7688,13.4813,-38.1562,,0.020341999999999416,1.6668317791546932,1.605021178124632,non_fall
7.477545,-0.3779,1.6164,-0.1509,0.374,-0.208,1.0176,-19.1813,14.2125,-39.3,,0.007558000000000398,1.6668317791546932,1.6749473373344939,non_fall
7.490094,-0.3779,1.6164,-0.1509,0.374,-0.208,1.0176,-19.1813,14.2125,-39.3,,0.012548999999999921,1.6668317791546932,1.8155431490195897,non_fall
7.511464,0.6443,2.2454,-0.5806,0.374,-0.208,1.0176,-19.1813,14.2125,-39.3,,0.02137000000000011,2.407081222144363,2.001471083794706,non_fall
7.530186,0.6443,2.2454,-0.5806,0.6527,0.7452,1.5601,-19.1813,14.2125,-39.3,,0.01872199999999946,2.407081222144363,2.201839203181812,non_fall
7.539126,0.6443,2.2454,-0.5806,0.6527,0.7452,1.5601,-16.5375,14.925,-39.7313,,0.008940000000000836,2.407081222144363,2.3851227605342973,non_fall
7.551525,0.6443,2.2454,-0.5806,0.6527,0.7452,1.5601,-16.5375,14.925,-39.7313,,0.012398999999999383,2.407081222144363,2.5232427930719985,non_fall
7.592082,0.6443,2.2454,-0.5806,0.3374,-0.2449,1.1991,-16.5375,14.925,-39.7313,,0.04055700000000062,2.407081222144363,2.5945299595815556,non_fall
7.594023,-0.0994,2.2877,0.943,0.3374,-0.2449,1.1991,-16.5375,14.925,-39.7313,,0.0019409999999995264,2.4764290117021326,2.5857272056493255,non_fall
7.600552,-0.0994,2.2877,0.943,0.3374,-0.2449,1.1991,-14.0813,15.3938,-40.7438,,0.006529000000000451,2.4764290117021326,2.493338005129219,non_fall
7.612309,-0.0994,2.2877,0.943,0.3374,-0.2449,1.1991,-14.0813,15.3938,-40.7438,,0.011756999999999351,2.4764290117021326,2.3244584437143216,non_fall
7.65184,-0.0994,2.2877,0.943,0.4354,-0.5862,1.2179,-14.0813,15.3938,-40.7438,,0.039531000000000205,2.4764290117021326,2.0969123976838184,non_fall
7.653779,-1.4577,-0.5366,-0.2755,0.4354,-0.5862,1.2179,-14.0813,15.3938,-40.7438,,0.001939000000000135,1.5775706323331453,1.8382921157778305,non_fall
7.657937,-1.4577,-0.5366,-0.2755,0.4354,-0.5862,1.2179,-12.2813,15.6563,-41.3063,,0.004158000000000328,1.5775706323331453,1.5835585819734705,non_fall
7.672361,-1.4577,-0.5366,-0.2755,0.4354,-0.5862,1.2179,-12.2813,15.6563,-41.3063,,0.014423999999999992,1.5775706323331453,1.371133845828659,non_fall
7.713842,-1.4577,-0.5366,-0.2755,0.0425,-1.5034,0.2083,-12.2813,15.6563,-41.3063,,0.04148099999999921,1.5775706323331453,1.2377191125041898,non_fall
7.71574,1.0651,-0.5555,-0.1436,0.0425,-1.5034,0.2083,-12.2813,15.6563,-41.3063,,0.0018980000000006214,1.2098095800579527,1.2122927914861255,non_fall
7.719191,1.0651,-0.5555,-0.1436,0.0425,-1.5034,0.2083,-10.9313,15.6938,-41.7188,,0.003451000000000093,1.2098095800579527,1.3100006969974267,non_fall
7.733956,1.0651,-0.5555,-0.1436,0.0425,-1.5034,0.2083,-10.9313,15.6938,-41.7188,,0.014764999999999695,1.2098095800579527,1.5270550652518124,non_fall
7.775149,1.0651,-0.5555,-0.1436,0.1305,-1.6416,-0.0059,-10.9313,15.6938,-41.7188,,0.04119299999999981,1.2098095800579527,1.8381565377809044,non_fall
7.778376,1.0651,-0.5555,-0.1436,0.1305,-1.6416,-0.0059,-10.6688,15.4875,-42.0188,,0.003226999999999869,1.2098095800579527,2.198008759020973,non_fall
7.795339,1.0651,-0.5555,-0.1436,0.1305,-1.6416,-0.0059,-10.6688,15.4875,-42.0188,,0.016963000000000505,1.2098095800579527,2.5479056031379064,non_fall
7.797237,0.783,-4.6509,0.5198,0.1305,-1.6416,-0.0059,-10.6688,15.4875,-42.0188,,0.0018979999999997332,4.744907991731768,2.8269678384530734,non_fall
7.835833,0.783,-4.6509,0.5198,0.2083,0.6926,0.0589,-10.6688,15.4875,-42.0188,,0.038596000000000075,4.744907991731768,2.9855734263446934,non_fall
7.839756,0.783,-4.6509,0.5198,0.2083,0.6926,0.0589,-10.7812,15.0563,-41.8875,,0.003923000000000343,4.744907991731768,2.996790540107607,non_fall
7.857122,-1.1701,-1.1088,-0.2051,0.2083,0.6926,0.0589,-10.7812,15.0563,-41.8875,,0.017365999999999993,1.6250038338416313,2.8616249542242964,non_fall
7.858218,-1.1701,-1.1088,-0.2051,0.2083,0.6926,0.0589,-10.7812,15.0563,-41.8875,,0.0010959999999995418,1.6250038338416313,2.6062596517984185,non_fall
7.896532,-1.1701,-1.1088,-0.2051,0.217,-0.365,0.2193,-10.7812,15.0563,-41.8875,,0.03831399999999974,1.6250038338416313,2.2729407574070692,non_fall
7.89862,-1.1701,-1.1088,-0.2051,0.217,-0.365,0.2193,-11.175,14.7,-42.075,,0.002088000000000534,1.6250038338416313,1.9084981846823728,non_fall
7.917187,-1.1701,-1.1088,-0.2051,0.217,-0.365,0.2193,-11.175,14.7,-42.075,,0.018567,1.6250038338416313,1.5544793351766777,non_fall
7.919819,-0.8121,0.3169,-0.7038,0.217,-0.365,0.2193,-11.175,14.7,-42.075,,0.0026320000000001897,1.120386745726671,1.2411779837656194,non_fall
7.957136,-0.8121,0.3169,-0.7038,-0.2164,-0.465,0.3095,-11.175,14.7,-42.075,,0.03731699999999982,1.120386745726671,0.9858952936744422,non_fall
7.959086,-0.8121,0.3169,-0.7038,-0.2164,-0.465,0.3095,-11.4375,14.4375,-42.1875,,0.0019499999999998963,1.120386745726671,0.7944658453460693,non_fall
7.97741,-0.8121,0.3169,-0.7038,-0.2164,-0.465,0.3095,-11.4375,14.4375,-42.1875,,0.018323999999999785,1.120386745726671,0.6645281127405394,non_fall
7.978505,0.174,-0.1616,0.3832,-0.2164,-0.465,0.3095,-11.4375,14.4375,-42.1875,,0.0010950000000002902,0.45081348693223455,0.5890414410885004,non_fall
8.01818,0.174,-0.1616,0.3832,-0.1546,-0.2372,0.0872,-11.4375,14.4375,-42.1875,,0.03967499999999902,0.45081348693223455,0.5590092712793333,non_fall
8.020254,0.174,-0.1616,0.3832,-0.1546,-0.2372,0.0872,-12.15,14.3063,-41.85,,0.0020740000000003533,0.45081348693223455,0.5650644313396354,non_fall
8.039611,0.174,-0.1616,0.3832,-0.1546,-0.2372,0.0872,-12.15,14.3063,-41.85,,0.01935700000000118,0.45081348693223455,0.5981707476071594,non_fall
8.059628,0.1003,0.3662,0.6792,-0.1546,-0.2372,0.0872,-12.15,14.3063,-41.85,,0.020016999999999285,0.7781228501978336,0.6499221733974385,non_fall
8.079585,0.1003,0.3662,0.6792,-0.1546,-0.2372,0.0872,-13.2,14.1563,-41.5125,,0.01995699999999978,0.7781228501978336,0.7127863970719865,non_fall
8.082033,0.1003,0.3662,0.6792,0.1667,0.1839,-0.0939,-13.2,14.1563,-41.5125,,0.0024479999999993396,0.7781228501978336,0.7803770451259475,non_fall
8.100653,0.1003,0.3662,0.6792,0.1667,0.1839,-0.0939,-13.2,14.1563,-41.5125,,0.018620000000000303,0.7781228501978336,0.8476719728339291,non_fall
8.121117,-0.8375,-0.5003,-0.0093,0.1667,0.1839,-0.0939,-13.2,14.1563,-41.5125,,0.020464000000000482,0.9755987033611719,0.9110896599231972,non_fall
8.140444,-0.8375,-0.5003,-0.0093,0.1667,0.1839,-0.0939,-14.1563,14.1375,-41.3813,,0.019327000000000538,0.9755987033611719,0.9684091417321108,non_fall
8.142715,-0.8375,-0.5003,-0.0093,0.3534,0.0426,0.0457,-14.1563,14.1375,-41.3813,,0.002271000000000356,0.9755987033611719,1.0185729918046145,non_fall
8.160193,-0.8375,-0.5003,-0.0093,0.3534,0.0426,0.0457,-14.1563,14.1375,-41.3813,,0.017477999999998772,0.9755987033611719,1.061428808535353,non_fall
8.180722,0.7797,0.4861,-0.7331,0.3534,0.0426,0.0457,-14.1563,14.1375,-41.3813,,0.020528999999999797,1.1754407301093492,1.0974617437467957,non_fall
8.201945,0.7797,0.4861,-0.7331,0.3534,0.0426,0.0457,-14.85,14.025,-41.25,,0.02122300000000088,1.1754407301093492,1.127542688567875,non_fall
8.205049,0.7797,0.4861,-0.7331,-0.1812,1.1943,0.1141,-14.85,14.025,-41.25,,0.0031040000000004397,1.1754407301093492,1.152664803597878,non_fall
8.222022,0.7797,0.4861,-0.7331,-0.1812,1.1943,0.1141,-14.85,14.025,-41.25,,0.016973000000000127,1.1754407301093492,1.1736138482912954,non_fall
8.259301,0.7797,0.4861,-0.7331,-0.1812,1.1943,0.1141,-14.8688,13.9688,-41.2125,,0.03727899999999984,1.1754407301093492,1.1905597462529078,non_fall
8.26213,0.7797,0.4861,-0.7331,0.4812,-1.4683,0.1348,-14.8688,13.9688,-41.2125,,0.0028290000000001925,1.1754407301093492,1.2026462725098888,non_fall
8.263377,-0.7302,-0.727,0.5046,0.4812,-1.4683,0.1348,-14.8688,13.9688,-41.2125,,0.001246999999999332,1.1473195718717606,1.207730281479741,non_fall
8.282255,-0.7302,-0.727,0.5046,0.4812,-1.4683,0.1348,-14.8688,13.9688,-41.2125,,0.018877999999999062,1.1473195718717606,1.2024383898080422,non_fall
8.319988,-0.7302,-0.727,0.5046,0.4812,-1.4683,0.1348,-15.0375,14.025,-41.2125,,0.03773300000000113,1.1473195718717606,1.1826574870659632,non_fall
8.322631,-0.7302,-0.727,0.5046,-0.0031,-0.1743,0.1028,-15.0375,14.025,-41.2125,,0.0026429999999990628,1.1473195718717606,1.1444639534944172,non_fall
8.323885,0.6956,0.1431,-0.8244,-0.0031,-0.1743,0.1028,-15.0375,14.025,-41.2125,,0.0012540000000011986,1.0881049260066789,1.0853484724206728,non_fall
8.343867,0.6956,0.1431,-0.8244,-0.0031,-0.1743,0.1028,-15.0375,14.025,-41.2125,,0.019981999999998834,1.0881049260066789,1.0054492879932448,non_fall
8.379478,0.6956,0.1431,-0.8244,-0.0031,-0.1743,0.1028,-15.3,14.0063,-41.2313,,0.03561100000000117,1.0881049260066789,0.9084137036014889,non_fall
8.384902,0.6956,0.1431,-0.8244,0.0427,-0.0305,0.0872,-15.3,14.0063,-41.2313,,0.005423999999999651,1.0881049260066789,0.8015128452617329,non_fall
8.386224,0.1003,-0.211,-0.371,0.0427,-0.0305,0.0872,-15.3,14.0063,-41.2313,,0.0013220000000000454,0.43843139714212986,0.6947880768534477,non_fall
8.403915,0.1003,-0.211,-0.371,0.0427,-0.0305,0.0872,-15.3,14.0063,-41.2313,,0.017690999999999235,0.43843139714212986,0.599320584089162,non_fall
8.439657,0.1003,-0.211,-0.371,0.0427,-0.0305,0.0872,-15.5813,13.8938,-41.1938,,0.03574200000000083,0.43843139714212986,0.5250754178834027,non_fall
8.444282,0.1003,-0.211,-0.371,-0.057,0.0174,-0.0949,-15.5813,13.8938,-41.1938,,0.004624999999998991,0.43843139714212986,0.478958208698042,non_fall
8.445223,-0.4905,0.1074,0.1116,-0.057,0.0174,-0.0949,-15.5813,13.8938,-41.1938,,0.0009410000000009688,0.5143729872378603,0.4636078742253813,non_fall
8.465137,-0.4905,0.1074,0.1116,-0.057,0.0174,-0.0949,-15.5813,13.8938,-41.1938,,0.019913999999999987,0.5143729872378603,0.47713465615848777,non_fall
8.50235,-0.4905,0.1074,0.1116,-0.057,0.0174,-0.0949,-15.6938,13.6875,-41.2875,,0.037212999999999496,0.5143729872378603,0.5137175283230366,non_fall
8.50614,-0.4905,0.1074,0.1116,0.0851,0.2627,-0.1308,-15.6938,13.6875,-41.2875,,0.003790000000000404,0.5143729872378603,0.5648280570464207,non_fall
8.525882,-0.4905,0.1074,0.1116,0.0851,0.2627,-0.1308,-15.6938,13.6875,-41.2875,,0.019741999999999038,0.5143729872378603,0.6208319355206773,non_fall
8.527684,-0.5422,0.309,0.5058,0.0851,0.2627,-0.1308,-15.6938,13.6875,-41.2875,,0.0018020000000014136,0.8033028569599389,0.6727392201699417,non_fall
8.559231,-0.5422,0.309,0.5058,0.0851,0.2627,-0.1308,-15.5813,13.4813,-41.3438,,0.03154699999999977,0.8033028569599389,0.7138520652700803,non_fall
8.56593,-0.5422,0.309,0.5058,0.1866,0.2943,-0.0242,-15.5813,13.4813,-41.3438,,0.006698999999999344,0.8033028569599389,0.7410062455065434,non_fall
8.585835,-0.5422,0.309,0.5058,0.1866,0.2943,-0.0242,-15.5813,13.4813,-41.3438,,0.019904999999999617,0.8033028569599389,0.7551093238967289,non_fall
8.587825,-0.5533,-0.4223,-0.2626,0.1866,0.2943,-0.0242,-15.5813,13.4813,-41.3438,,0.0019900000000010465,0.7439334244406551,0.7608080270471939,non_fall
8.619153,-0.5533,-0.4223,-0.2626,0.1866,0.2943,-0.0242,-15.375,13.0875,-41.3813,,0.031328000000000245,0.7439334244406551,0.7653333904507841,non_fall
8.62655,-0.5533,-0.4223,-0.2626,-0.0154,0.1289,0.1546,-15.375,13.0875,-41.3813,,0.00739699999999921,0.7439334244406551,0.7767777073528092,non_fall
8.648101,-0.5533,-0.4223,-0.2626,-0.0154,0.1289,0.1546,-15.375,13.0875,-41.3813,,0.021551000000000542,0.7439334244406551,0.8021799010529689,non_fall
8.650599,0.7855,0.3501,0.0464,-0.0154,0.1289,0.1546,-15.375,13.0875,-41.3813,,0.002497999999999223,0.8612393511678388,0.8458183018466414,non_fall
8.677803,0.7855,0.3501,0.0464,-0.0154,0.1289,0.1546,-15.2813,12.8625,-41.4375,,0.027204000000001116,0.8612393511678388,0.9080531714352754,non_fall
8.687743,0.7855,0.3501,0.0464,-0.0811,0.1292,0.1639,-15.2813,12.8625,-41.4375,,0.009939999999998506,0.8612393511678388,0.984961815432089,non_fall
8.709164,0.7855,0.3501,0.0464,-0.0811,0.1292,0.1639,-15.2813,12.8625,-41.4375,,0.021421000000000134,0.8612393511678388,1.0688893340164216,non_fall
8.727223,1.0835,-0.6669,0.4473,-0.0811,0.1292,0.1639,-15.2813,12.8625,-41.4375,,0.018059000000000935,1.3486308427438547,1.1498806340420282,non_fall
8.738079,1.0835,-0.6669,0.4473,-0.0811,0.1292,0.1639,-15.4313,12.6938,-41.7,,0.010856000000000421,1.3486308427438547,1.217736363463629,non_fall
8.748263,1.0835,-0.6669,0.4473,-0.0148,-0.5314,0.0971,-15.4313,12.6938,-41.7,,0.01018399999999886,1.3486308427438547,1.2641989469842976,non_fall
8.768592,1.0835,-0.6669,0.4473,-0.0148,-0.5314,0.0971,-15.4313,12.6938,-41.7,,0.020329000000000264,1.3486308427438547,1.2846706824516738,non_fall
8.789249,1.1543,0.4089,0.3868,-0.0148,-0.5314,0.0971,-15.4313,12.6938,-41.7,,0.020656999999999925,1.2842203627103879,1.278991817143005,non_fall
8.801661,1.1543,0.4089,0.3868,-0.0148,-0.5314,0.0971,-15.375,12.6,-41.7375,,0.012411999999999423,1.2842203627103879,1.2510975447783304,non_fall
8.809281,1.1543,0.4089,0.3868,0.0289,-0.0558,-0.0562,-15.375,12.6,-41.7375,,0.00762000000000107,1.2842203627103879,1.2076791987574782,non_fall
8.830112,1.1543,0.4089,0.3868,0.0289,-0.0558,-0.0562,-15.375,12.6,-41.7375,,0.020830999999999378,1.2842203627103879,1.1562104170774852,non_fall
8.850602,-0.5984,-0.4217,0.0622,0.0289,-0.0558,-0.0562,-15.375,12.6,-41.7375,,0.020490000000000563,0.734698775009187,1.102876429869705,non_fall
8.859202,-0.5984,-0.4217,0.0622,0.0289,-0.0558,-0.0562,-15.375,12.5063,-41.8688,,0.008599999999999497,0.734698775009187,1.0510872187384235,non_fall
8.87298,-0.5984,-0.4217,0.0622,0.2756,0.127,0.298,-15.375,12.5063,-41.8688,,0.01377800000000029,0.734698775009187,1.0012845964386696,non_fall
8.891046,-0.5984,-0.4217,0.0622,0.2756,0.127,0.298,-15.375,12.5063,-41.8688,,0.01806599999999925,0.734698775009187,0.9524983832525034,non_fall
8.912901,-0.0576,-0.6948,-1.1029,0.2756,0.127,0.298,-15.375,12.5063,-41.8688,,0.021855000000000402,1.304780904979836,0.9054864078533025,non_fall
8.919777,-0.0576,-0.6948,-1.1029,0.2756,0.127,0.298,-15.1313,12.3188,-41.8688,,0.006876000000000104,1.304780904979836,0.866480675386209,non_fall
8.931823,-0.0576,-0.6948,-1.1029,-0.1979,0.2024,0.8707,-15.1313,12.3188,-41.8688,,0.012045999999999779,1.304780904979836,0.8499426625880359,non_fall
8.951981,-0.0576,-0.6948,-1.1029,-0.1979,0.2024,0.8707,-15.1313,12.3188,-41.8688,,0.020158000000000342,1.304780904979836,0.8786848969828789,non_fall
8.980658,-0.0576,-0.6948,-1.1029,-0.1979,0.2024,0.8707,-14.775,12.4313,-41.8875,,0.028677000000000064,1.304780904979836,0.9803899914812723,non_fall
8.995346,0.358,-0.7588,0.0144,-0.1979,0.2024,0.8707,-14.775,12.4313,-41.8875,,0.01468799999999959,0.8391357458719061,1.18078057606641,non_fall
8.997893,0.358,-0.7588,0.0144,-0.5085,0.5414,1.2643,-14.775,12.4313,-41.8875,,0.002546999999999855,0.8391357458719061,1.4950750450348147,non_fall
9.01284,0.358,-0.7588,0.0144,-0.5085,0.5414,1.2643,-14.775,12.4313,-41.8875,,0.014947000000001154,0.8391357458719061,1.920421718119833,non_fall
9.03927,0.358,-0.7588,0.0144,-0.5085,0.5414,1.2643,-14.0813,12.7313,-42.0563,,0.02642999999999951,0.8391357458719061,2.432228688920194,non_fall
9.054091,1.8182,3.648,1.8501,-0.5085,0.5414,1.2643,-14.0813,12.7313,-42.0563,,0.014820999999999529,4.476228909472794,2.986318858395844,non_fall
9.055904,1.8182,3.648,1.8501,0.32,1.3746,0.2916,-14.0813,12.7313,-42.0563,,0.0018130000000002866,4.476228909472794,3.5267423629742995,non_fall
9.074288,1.8182,3.648,1.8501,0.32,1.3746,0.2916,-14.0813,12.7313,-42.0563,,0.01838399999999929,4.476228909472794,3.996778016297025,non_fall
9.100293,1.8182,3.648,1.8501,0.32,1.3746,0.2916,-13.4063,13.0125,-42.3375,,0.026005000000001388,4.476228909472794,4.349509928692471,non_fall
9.11408,1.8182,3.648,1.8501,1.0485,-1.1477,-0.7133,-13.4063,13.0125,-42.3375,,0.013786999999998883,4.476228909472794,4.555044458295032,non_fall
9.115552,-3.8681,-1.4735,0.9106,1.0485,-1.1477,-0.7133,-13.4063,13.0125,-42.3375,,0.0014719999999996958,4.238229845112226,4.603253914543013,non_fall
9.134172,-3.8681,-1.4735,0.9106,1.0485,-1.1477,-0.7133,-13.4063,13.0125,-42.3375,,0.018620000000000303,4.238229845112226,4.502623120346259,non_fall
9.15873,-3.8681,-1.4735,0.9106,1.0485,-1.1477,-0.7133,-13.4438,12.975,-42.4125,,0.024558000000000746,4.238229845112226,4.276586069229965,non_fall
9.175331,-3.8681,-1.4735,0.9106,0.5113,-2.6554,0.8412,-13.4438,12.975,-42.4125,,0.016600999999999644,4.238229845112226,3.9586849791285346,non_fall
9.195969,-3.8681,-1.4735,0.9106,0.5113,-2.6554,0.8412,-13.4438,12.975,-42.4125,,0.020637999999999934,4.238229845112226,3.5873811159440976,non_fall
9.197447,0.6675,-0.8651,-2.1906,0.5113,-2.6554,0.8412,-13.4438,12.975,-42.4125,,0.0014780000000005344,2.4479956331660397,3.20091784504572,non_fall
9.220112,0.6675,-0.8651,-2.1906,0.5113,-2.6554,0.8412,-13.5563,13.0313,-42.2625,,0.022664999999999935,2.4479956331660397,2.832625545269219,non_fall
9.235258,0.6675,-0.8651,-2.1906,-0.5309,0.2101,0.9931,-13.5563,13.0313,-42.2625,,0.01514599999999966,2.4479956331660397,2.507337590768072,non_fall
9.256131,0.6675,-0.8651,-2.1906,-0.5309,0.2101,0.9931,-13.5563,13.0313,-42.2625,,0.02087299999999992,2.4479956331660397,2.2396513893127614,non_fall
9.257578,1.2147,-0.7854,-1.3393,-0.5309,0.2101,0.9931,-13.5563,13.0313,-42.2625,,0.0014470000000006422,1.9713126946276178,2.0343240265370026,non_fall
9.279441,1.2147,-0.7854,-1.3393,-0.5309,0.2101,0.9931,-13.35,13.2375,-42.2625,,0.021862999999999744,1.9713126946276178,1.8884155372885443,non_fall
9.297262,1.2147,-0.7854,-1.3393,-0.6036,0.8836,0.1976,-13.35,13.2375,-42.2625,,0.017820999999999643,1.9713126946276178,1.7943491490265602,non_fall
9.317228,1.2147,-0.7854,-1.3393,-0.6036,0.8836,0.1976,-13.35,13.2375,-42.2625,,0.01996600000000015,1.9713126946276178,1.7429932826567358,non_fall
9.319032,-0.3898,0.8726,1.3537,-0.6036,0.8836,0.1976,-13.35,13.2375,-42.2625,,0.0018039999999999168,1.6570692471951798,1.7260606609057245,non_fall
9.338966,-0.3898,0.8726,1.3537,-0.6036,0.8836,0.1976,-12.9938,13.5938,-42.2063,,0.01993399999999923,1.6570692471951798,1.7374527742549166,non_fall
9.364936,-0.3898,0.8726,1.3537,0.691,-1.0955,-0.277,-12.9938,13.5938,-42.2063,,0.025970000000000937,1.6570692471951798,1.7735696563421002,non_fall
9.379008,-0.3898,0.8726,1.3537,0.691,-1.0955,-0.277,-12.9938,13.5938,-42.2063,,0.014072000000000529,1.6570692471951798,1.8329055251911293,non_fall
9.379708,-2.0681,-0.0513,0.6626,0.691,-1.0955,-0.277,-12.9938,13.5938,-42.2063,,0.000700000000000145,2.172258746098171,1.9153176385314479,non_fall
9.406168,-2.0681,-0.0513,0.6626,0.691,-1.0955,-0.277,-13.8188,13.6875,-42.2438,,0.026459999999998374,2.172258746098171,2.021198264817886,non_fall
9.419686,-2.0681,-0.0513,0.6626,0.5497,-2.6689,-0.2377,-13.8188,13.6875,-42.2438,,0.013518000000001251,2.172258746098171,2.1505762183560346,non_fall
9.438642,-2.0681,-0.0513,0.6626,0.5497,-2.6689,-0.2377,-13.8188,13.6875,-42.2438,,0.018955999999999307,2.172258746098171,2.302134536659285,non_fall
9.459461,-2.0681,-0.0513,0.6626,0.5497,-2.6689,-0.2377,-15.3188,13.4625,-42.1875,,0.020818999999999477,2.172258746098171,2.4723036161304917,non_fall
9.460025,0.4046,-2.0486,-1.8059,0.5497,-2.6689,-0.2377,-15.3188,13.4625,-42.1875,,0.0005640000000006751,2.760749523227343,2.654796981757629,non_fall
9.478431,0.4046,-2.0486,-1.8059,0.1553,-1.3408,-1.2053,-15.3188,13.4625,-42.1875,,0.01840600000000059,2.760749523227343,2.8409676357574565,non_fall
9.50025,0.4046,-2.0486,-1.8059,0.1553,-1.3408,-1.2053,-15.3188,13.4625,-42.1875,,0.021818999999998923,2.760749523227343,3.0211231846632693,non_fall
9.519801,1.2504,-3.3084,-0.185,0.1553,-1.3408,-1.2053,-15.3188,13.4625,-42.1875,,0.019550999999999874,3.5416430819606877,3.1865857941103206,non_fall
9.521597,1.2504,-3.3084,-0.185,0.1553,-1.3408,-1.2053,-17.9813,12.8063,-41.7375,,0.001796000000000575,3.5416430819606877,3.3319717432694347,non_fall
9.540843,1.2504,-3.3084,-0.185,-0.8294,-2.3399,-3.2051,-17.9813,12.8063,-41.7375,,0.019246000000000762,3.5416430819606877,3.4569913727224075,non_fall
9.559527,1.2504,-3.3084,-0.185,-0.8294,-2.3399,-3.2051,-17.9813,12.8063,-41.7375,,0.01868399999999859,3.5416430819606877,3.567130117928764,non_fall
9.577636,1.2504,-3.3084,-0.185,-0.8294,-2.3399,-3.2051,-21.45,11.5688,-40.5375,,0.01810900000000082,3.5416430819606877,3.672895973323081,non_fall
9.579578,-0.6503,-3.8117,1.0009,-0.8294,-2.3399,-3.2051,-21.45,11.5688,-40.5375,,0.0019419999999996662,3.994214289444171,3.787753281417731,non_fall
9.600079,-0.6503,-3.8117,1.0009,0.4457,-0.1637,-4.9797,-21.45,11.5688,-40.5375,,0.020500999999999436,3.994214289444171,3.9251832215418614,non_fall
9.620462,-0.6503,-3.8117,1.0009,0.4457,-0.1637,-4.9797,-21.45,11.5688,-40.5375,,0.020383000000000706,3.994214289444171,4.095460821533369,non_fall
9.637652,-0.6503,-3.8117,1.0009,0.4457,-0.1637,-4.9797,-23.9062,8.8875,-39.8063,,0.017189999999999372,3.994214289444171,4.302827845178358,non_fall
9.661369,-0.6503,-3.8117,1.0009,2.4363,1.5713,-4.232,-23.9062,8.8875,-39.8063,,0.02371700000000132,3.994214289444171,4.543817712011796,non_fall
9.662004,-3.7566,-3.3667,-1.0424,2.4363,1.5713,-4.232,-23.9062,8.8875,-39.8063,,0.000634999999999053,5.151049428029205,4.807404876429363,non_fall
9.681508,-3.7566,-3.3667,-1.0424,2.4363,1.5713,-4.232,-23.9062,8.8875,-39.8063,,0.01950399999999952,5.151049428029205,5.077239098738107,non_fall
9.699321,-3.7566,-3.3667,-1.0424,2.4363,1.5713,-4.232,-25.3875,4.9875,-39.0563,,0.0178130000000003,5.151049428029205,5.335577670524621,non_fall
9.721648,-3.7566,-3.3667,-1.0424,2.1237,3.5507,-0.3097,-25.3875,4.9875,-39.0563,,0.022327000000000652,5.151049428029205,5.567970703877538,non_fall
9.722228,-3.6693,2.543,-4.911,2.1237,3.5507,-0.3097,-25.3875,4.9875,-39.0563,,0.0005799999999993588,6.636906846566403,5.767469842977119,non_fall
9.742447,-3.6693,2.543,-4.911,2.1237,3.5507,-0.3097,-25.3875,4.9875,-39.0563,,0.020219000000000875,6.636906846566403,5.937016005458587,non_fall
9.758052,-3.6693,2.543,-4.911,2.1237,3.5507,-0.3097,-25.9875,0.4875,-38.775,,0.01560499999999898,6.636906846566403,6.088709359194938,non_fall
9.782736,-3.6693,2.543,-4.911,0.7393,4.8283,1.2577,-25.9875,0.4875,-38.775,,0.024684000000000594,6.636906846566403,6.239214031769292,non_fall
9.785151,3.2613,4.4442,-0.2574,0.7393,4.8283,1.2577,-25.9875,0.4875,-38.775,,0.002415000000000944,5.51844598505775,6.401859074370727,non_fall
9.803231,3.2613,4.4442,-0.2574,0.7393,4.8283,1.2577,-25.9875,0.4875,-38.775,,0.01807999999999943,5.51844598505775,6.5777156963908014,non_fall
9.818178,3.2613,4.4442,-0.2574,0.7393,4.8283,1.2577,-26.2875,-4.5938,-39.1688,,0.014946999999999377,5.51844598505775,6.749183171099713,non_fall
9.844079,3.2613,4.4442,-0.2574,-0.6931,0.5436,-0.8265,-26.2875,-4.5938,-39.1688,,0.025901000000001062,5.51844598505775,6.879533534273957,non_fall
9.844972,6.2326,3.8761,3.1622,-0.6931,0.5436,-0.8265,-26.2875,-4.5938,-39.1688,,0.0008929999999995886,7.991805979251498,6.920102630281562,non_fall
9.864569,6.2326,3.8761,3.1622,-0.6931,0.5436,-0.8265,-26.2875,-4.5938,-39.1688,,0.0195969999999992,7.991805979251498,6.823841938852981,non_fall
9.877822,6.2326,3.8761,3.1622,-0.6931,0.5436,-0.8265,-24.8813,-8.8313,-39.3,,0.013253000000000625,7.991805979251498,6.5610127876821664,non_fall
9.904866,6.2326,3.8761,3.1622,0.838,3.4784,-2.7361,-24.8813,-8.8313,-39.3,,0.027044000000000068,7.991805979251498,6.131431917748628,non_fall
9.925585,0.1352,1.0961,3.8901,0.838,3.4784,-2.7361,-24.8813,-8.8313,-39.3,,0.02071899999999971,4.043833856626654,5.568749409486618,non_fall
9.926435,0.1352,1.0961,3.8901,0.838,3.4784,-2.7361,-24.8813,-8.8313,-39.3,,0.0008499999999997954,4.043833856626654,4.935317564060714,non_fall
9.937649,0.1352,1.0961,3.8901,0.838,3.4784,-2.7361,-21.5063,-13.3875,-39.1313,,0.011214000000000723,4.043833856626654,4.30965954634126,non_fall
9.966597,0.1352,1.0961,3.8901,3.0048,2.7132,-2.2068,-21.5063,-13.3875,-39.1313,,0.02894799999999975,4.043833856626654,3.7705518658684403,non_fall
9.986294,0.1352,1.0961,3.8901,3.0048,2.7132,-2.2068,-21.5063,-13.3875,-39.1313,,0.019696999999998965,4.043833856626654,3.3816388592615554,non_fall
9.987071,-2.1618,-0.6093,0.9066,3.0048,2.7132,-2.2068,-21.5063,-13.3875,-39.1313,,0.0007770000000011379,2.4220960530086333,3.179251258748202,non_fall
9.998987,-2.1618,-0.6093,0.9066,3.0048,2.7132,-2.2068,-16.7625,-18.2063,-38.7563,,0.011915999999999372,2.4220960530086333,3.165115120326492,non_fall
10.026416,-2.1618,-0.6093,0.9066,2.3545,-1.5926,-2.6345,-16.7625,-18.2063,-38.7563,,0.027428999999999704,2.4220960530086333,3.305317808010861,non_fall
10.046871,-2.1618,-0.6093,0.9066,2.3545,-1.5926,-2.6345,-16.7625,-18.2063,-38.7563,,0.020455000000000112,2.4220960530086333,3.536522579335784,non_fall
10.047395,-4.3918,-1.5318,-1.6968,2.3545,-1.5926,-2.6345,-16.7625,-18.2063,-38.7563,,0.000524000000000413,4.95110580779688,3.7791833590822614,non_fall
10.058046,-4.3918,-1.5318,-1.6968,2.3545,-1.5926,-2.6345,-10.725,-22.6313,-38.175,,0.0106509999999993,4.95110580779688,3.955416145781314,non_fall
10.087236,-4.3918,-1.5318,-1.6968,2.422,2.6568,-0.6072,-10.725,-22.6313,-38.175,,0.029190000000001604,4.95110580779688,4.007153639529826,non_fall
10.107938,-4.3918,-1.5318,-1.6968,2.422,2.6568,-0.6072,-10.725,-22.6313,-38.175,,0.020701999999999998,4.95110580779688,3.909460628476933,non_fall
10.117759,-4.3918,-1.5318,-1.6968,2.422,2.6568,-0.6072,-4.3688,-25.875,-36.4875,,0.009820999999998747,4.95110580779688,3.6750495830460332,non_fall
10.127536,-0.0526,-1.534,-0.8934,2.422,2.6568,-0.6072,-4.3688,-25.875,-36.4875,,0.009776999999999703,1.7759747520727878,3.348751745671449,non_fall
10.148179,-0.0526,-1.534,-0.8934,1.7528,-1.5144,-0.5167,-4.3688,-25.875,-36.4875,,0.02064300000000152,1.7759747520727878,2.9939687654076397,non_fall
10.168958,-0.0526,-1.534,-0.8934,1.7528,-1.5144,-0.5167,-4.3688,-25.875,-36.4875,,0.020778999999999215,1.7759747520727878,2.675725471676481,non_fall
10.176796,-0.0526,-1.534,-0.8934,1.7528,-1.5144,-0.5167,1.05,-27.9188,-34.7438,,0.007837999999999568,1.7759747520727878,2.445716780865232,non_fall
10.188965,0.6716,-1.4549,-2.414,1.7528,-1.5144,-0.5167,1.05,-27.9188,-34.7438,,0.012169000000000096,2.8974431090187087,2.33330205996858,non_fall
10.209322,0.6716,-1.4549,-2.414,0.8288,0.5474,-0.8254,1.05,-27.9188,-34.7438,,0.020357000000000625,2.8974431090187087,2.343605648918948,non_fall
10.229268,0.6716,-1.4549,-2.414,0.8288,0.5474,-0.8254,1.05,-27.9188,-34.7438,,0.01994599999999913,2.8974431090187087,2.4612558158323212,non_fall
10.237563,0.6716,-1.4549,-2.414,0.8288,0.5474,-0.8254,5.5875,-29.6438,-32.1938,,0.008295000000000385,2.8974431090187087,2.6569603136027475,non_fall
10.250058,0.0961,-2.7784,-1.1336,0.8288,0.5474,-0.8254,5.5875,-29.6438,-32.1938,,0.012494999999999479,3.002297575191373,2.8942726268343693,non_fall
10.270261,0.0961,-2.7784,-1.1336,0.8795,1.5472,-0.331,5.5875,-29.6438,-32.1938,,0.020203000000000415,3.002297575191373,3.1349935858201334,non_fall
10.290677,0.0961,-2.7784,-1.1336,0.8795,1.5472,-0.331,5.5875,-29.6438,-32.1938,,0.020416000000000878,3.002297575191373,3.34290473217107,non_fall
10.298746,0.0961,-2.7784,-1.1336,0.8795,1.5472,-0.331,9.9938,-31.4438,-28.95,,0.008068999999998994,3.002297575191373,3.4863974898731858,non_fall
10.311722,1.0854,-3.4476,0.0027,0.8795,1.5472,-0.331,9.9938,-31.4438,-28.95,,0.012976000000000099,3.614421974534794,3.5408159437084157,non_fall
10.330963,1.0854,-3.4476,0.0027,1.1706,-1.8097,-1.1265,9.9938,-31.4438,-28.95,,0.019241000000000952,3.614421974534794,3.4909769212500574,non_fall
10.351158,1.0854,-3.4476,0.0027,1.1706,-1.8097,-1.1265,9.9938,-31.4438,-28.95,,0.020194999999999297,3.614421974534794,3.3336096303856126,non_fall
10.357834,1.0854,-3.4476,0.0027,1.1706,-1.8097,-1.1265,14.0438,-33.1688,-25.5188,,0.00667600000000057,3.614421974534794,3.078800408385218,non_fall
10.392137,1.0854,-3.4476,0.0027,0.9236,-0.9294,-0.7091,14.0438,-33.1688,-25.5188,,0.03430299999999953,3.614421974534794,2.7493462559130095,non_fall
10.392931,-1.3122,-0.4648,-0.3492,0.9236,-0.9294,-0.7091,14.0438,-33.1688,-25.5188,,0.0007940000000008496,1.4352172379120869,2.3774009120351667,non_fall
10.412226,-1.3122,-0.4648,-0.3492,0.9236,-0.9294,-0.7091,14.0438,-33.1688,-25.5188,,0.019294999999999618,1.4352172379120869,1.9988217242956512,non_fall
10.418076,-1.3122,-0.4648,-0.3492,0.9236,-0.9294,-0.7091,16.65,-34.3688,-22.4062,,0.005849999999998801,1.4352172379120869,1.6467022077227031,non_fall
10.452684,-1.3122,-0.4648,-0.3492,0.0161,-0.4277,-0.4045,16.65,-34.3688,-22.4062,,0.034608000000000416,1.4352172379120869,1.3460011792820143,non_fall
10.453331,-0.1279,-0.0947,-1.0133,0.0161,-0.4277,-0.4045,16.65,-34.3688,-22.4062,,0.0006470000000007303,1.0257209123343447,1.110641987258812,non_fall
10.473173,-0.1279,-0.0947,-1.0133,0.0161,-0.4277,-0.4045,16.65,-34.3688,-22.4062,,0.019841999999998805,1.0257209123343447,0.9433896692701923,non_fall
10.477574,-0.1279,-0.0947,-1.0133,0.0161,-0.4277,-0.4045,18.5063,-34.9875,-19.8188,,0.0044010000000014315,1.0257209123343447,0.8379158478401458,non_fall
10.513745,-0.1279,-0.0947,-1.0133,-0.3645,-0.1217,0.3201,18.5063,-34.9875,-19.8188,,0.03617099999999951,1.0257209123343447,0.7820434969173381,non_fall
10.515787,-0.1064,0.3203,-0.6432,-0.3645,-0.1217,0.3201,18.5063,-34.9875,-19.8188,,0.002041999999999433,0.7263740702971162,0.7611559091960991,non_fall
10.534116,-0.1064,0.3203,-0.6432,-0.3645,-0.1217,0.3201,18.5063,-34.9875,-19.8188,,0.018328999999999596,0.7263740702971162,0.7610196730587498,non_fall
10.537604,-0.1064,0.3203,-0.6432,-0.3645,-0.1217,0.3201,19.7812,-35.2125,-18.1875,,0.0034880000000008238,0.7263740702971162,0.7696815525470689,non_fall
10.574746,-0.1064,0.3203,-0.6432,-0.2579,0.1679,0.282,19.7812,-35.2125,-18.1875,,0.03714199999999934,0.7263740702971162,0.7784764257348936,non_fall
10.595336,-0.1064,0.3203,-0.6432,-0.2579,0.1679,0.282,19.7812,-35.2125,-18.1875,,0.02059000000000033,0.7263740702971162,0.7823783323544113,non_fall
10.595819,-0.2982,0.1306,0.7676,-0.2579,0.1679,0.282,19.7812,-35.2125,-18.1875,,0.0004830000000008994,0.8337801628726842,0.7799231447117211,non_fall
10.596748,-0.2982,0.1306,0.7676,-0.2579,0.1679,0.282,20.7938,-35.175,-17.3438,,0.0009289999999992915,0.8337801628726842,0.7728180460345442,non_fall
10.63583,-0.2982,0.1306,0.7676,0.0435,-0.2318,0.2321,20.7938,-35.175,-17.3438,,0.039082000000000505,0.8337801628726842,0.7652346352473678,non_fall
10.655999,-0.2982,0.1306,0.7676,0.0435,-0.2318,0.2321,20.7938,-35.175,-17.3438,,0.020168999999999215,0.8337801628726842,0.7627386079234112,non_fall
10.656693,0.103,0.4704,0.5441,0.0435,-0.2318,0.2321,20.7938,-35.175,-17.3438,,0.0006940000000010826,0.726587895577679,0.7708765188363397,non_fall
10.657621,0.103,0.4704,0.5441,0.0435,-0.2318,0.2321,21.5813,-35.1188,-16.7063,,0.0009280000000000399,0.726587895577679,0.7935949902031483,non_fall
10.697281,0.103,0.4704,0.5441,0.0907,-0.212,0.1716,21.5813,-35.1188,-16.7063,,0.039659999999999584,0.726587895577679,0.8318321077686364,non_fall
10.718363,0.103,0.4704,0.5441,0.0907,-0.212,0.1716,21.5813,-35.1188,-16.7063,,0.021081999999999823,0.726587895577679,0.8827011985111072,non_fall
10.719073,0.103,0.4704,0.5441,0.0907,-0.212,0.1716,22.1063,-35.1375,-16.3875,,0.0007099999999997664,0.726587895577679,0.9396171408004624,non_fall
10.719364,0.2424,1.1845,0.0217,0.0907,-0.212,0.1716,22.1063,-35.1375,-16.3875,,0.00029100000000070736,1.2092431103793813,0.9934782293904034,non_fall
10.758671,0.2424,1.1845,0.0217,-0.0826,-0.0714,-0.0875,22.1063,-35.1375,-16.3875,,0.03930699999999909,1.2092431103793813,1.0346603304857724,non_fall
10.778591,0.2424,1.1845,0.0217,-0.0826,-0.0714,-0.0875,22.1063,-35.1375,-16.3875,,0.019920000000000826,1.2092431103793813,1.055241357951391,non_fall
10.779327,0.2424,1.1845,0.0217,-0.0826,-0.0714,-0.0875,22.125,-35.0063,-16.5938,,0.0007359999999998479,1.2092431103793813,1.0507459920855196,non_fall
10.779627,0.3111,0.7915,0.1204,-0.0826,-0.0714,-0.0875,22.125,-35.0063,-16.5938,,0.0002999999999993008,0.8589246882003101,1.0208906729558254,non_fall
10.820386,0.3111,0.7915,0.1204,-0.3949,-0.0791,0.0357,22.125,-35.0063,-16.5938,,0.040758999999999546,0.8589246882003101,0.9692249070194262,non_fall
10.84014,0.3111,0.7915,0.1204,-0.3949,-0.0791,0.0357,22.0875,-34.9125,-16.9688,,0.019754000000000715,0.8589246882003101,0.9019738518044174,non_fall
10.840825,0.3111,0.7915,0.1204,-0.3949,-0.0791,0.0357,22.0875,-34.9125,-16.9688,,0.0006850000000007128,0.8589246882003101,0.826585406657536,non_fall
10.859845,0.2816,0.4367,0.4015,-0.3949,-0.0791,0.0357,22.0875,-34.9125,-16.9688,,0.01901999999999937,0.656664069368806,0.7504305026221737,non_fall
10.881915,0.2816,0.4367,0.4015,-0.3328,-0.1822,0.0354,22.0875,-34.9125,-16.9688,,0.022069999999999368,0.656664069368806,0.6799131874640425,non_fall
10.900758,0.2816,0.4367,0.4015,-0.3328,-0.1822,0.0354,21.8063,-34.9125,-17.55,,0.018843000000000387,0.656664069368806,0.6200543956634967,non_fall
10.901263,0.2816,0.4367,0.4015,-0.3328,-0.1822,0.0354,21.8063,-34.9125,-17.55,,0.0005050000000004218,0.656664069368806,0.5744695030251723,non_fall
10.920735,0.1955,0.4791,0.1839,-0.3328,-0.1822,0.0354,21.8063,-34.9125,-17.55,,0.019472000000000378,0.5491596033941317,0.5455636370278708,non_fall
10.940689,0.1955,0.4791,0.1839,-0.7875,-0.1253,0.2577,21.8063,-34.9125,-17.55,,0.01995400000000025,0.5491596033941317,0.5347391878955384,non_fall
10.958049,0.1955,0.4791,0.1839,-0.7875,-0.1253,0.2577,21.4875,-34.9875,-18.3563,,0.017360000000000042,0.5491596033941317,0.5424633677739356,non_fall
10.960622,0.1955,0.4791,0.1839,-0.7875,-0.1253,0.2577,21.4875,-34.9875,-18.3563,,0.0025729999999999364,0.5491596033941317,0.5681464260694666,non_fall
10.98092,0.1158,0.5985,0.2729,-0.7875,-0.1253,0.2577,21.4875,-34.9875,-18.3563,,0.020297999999998595,0.6678969231850077,0.6098755576299919,non_fall
11.001774,0.1158,0.5985,0.2729,-1.3048,0.1846,0.3406,21.4875,-34.9875,-18.3563,,0.020853999999999928,0.6678969231850077,0.6641089943122268,non_fall
11.018549,0.1158,0.5985,0.2729,-1.3048,0.1846,0.3406,21.3375,-34.9313,-19.0875,,0.016775000000000873,0.6678969231850077,0.7254726110853724,non_fall
11.022,0.1158,0.5985,0.2729,-1.3048,0.1846,0.3406,21.3375,-34.9313,-19.0875,,0.003451000000000093,0.6678969231850077,0.786835313558679,non_fall
11.062429,0.1158,0.5985,0.2729,-1.2579,0.48,-0.0523,21.3375,-34.9313,-19.0875,,0.040428999999999604,0.6678969231850077,0.8398508212388326,non_fall
11.064273,0.3452,0.4726,0.7643,-1.2579,0.48,-0.0523,21.3375,-34.9313,-19.0875,,0.0018440000000001788,0.9626361150507495,0.8760838439976804,non_fall
11.077856,0.3452,0.4726,0.7643,-1.2579,0.48,-0.0523,21.1313,-34.7063,-20.1938,,0.013583000000000567,0.9626361150507495,0.8886491318337112,non_fall
11.082129,0.3452,0.4726,0.7643,-1.2579,0.48,-0.0523,21.1313,-34.7063,-20.1938,,0.004272999999999527,0.9626361150507495,0.8740373390757202,non_fall
11.123461,0.3452,0.4726,0.7643,-0.931,0.5065,-1.1823,21.1313,-34.7063,-20.1938,,0.04133200000000059,0.9626361150507495,0.8336205931293061,non_fall
11.125719,0.4982,-0.4311,0.3563,-0.931,0.5065,-1.1823,21.1313,-34.7063,-20.1938,,0.002257999999999427,0.7489994259009816,0.7743346228259158,non_fall
11.1379,0.4982,-0.4311,0.3563,-0.931,0.5065,-1.1823,21.4688,-33.975,-21.1688,,0.012180999999999997,0.7489994259009816,0.7082175245818644,non_fall
11.144019,0.4982,-0.4311,0.3563,-0.931,0.5065,-1.1823,21.4688,-33.975,-21.1688,,0.0061189999999999856,0.7489994259009816,0.6507498047476488,non_fall
11.184963,0.4982,-0.4311,0.3563,-0.3868,0.8732,-2.2827,21.4688,-33.975,-21.1688,,0.04094399999999965,0.7489994259009816,0.61819052529979,non_fall
11.18725,0.2983,-0.2614,0.2892,-0.3868,0.8732,-2.2827,21.4688,-33.975,-21.1688,,0.002287000000000816,0.4908660611612907,0.6243158416967938,non_fall
11.199932,0.2983,-0.2614,0.2892,-0.3868,0.8732,-2.2827,22.2938,-32.8125,-22.1625,,0.01268199999999986,0.4908660611612907,0.6771658235052495,non_fall
11.203551,0.2983,-0.2614,0.2892,-0.3868,0.8732,-2.2827,22.2938,-32.8125,-22.1625,,0.0036189999999987066,0.4908660611612907,0.7765708189418421,non_fall
11.245266,0.2983,-0.2614,0.2892,0.2988,0.8385,-2.1414,22.2938,-32.8125,-22.1625,,0.04171500000000172,0.4908660611612907,0.9132334067401523,non_fall
11.24722,0.7171,0.1082,-1.2579,0.2988,0.8385,-2.1414,22.2938,-32.8125,-22.1625,,0.001953999999999567,1.45198211421491,1.069845760787794,non_fall
11.258013,0.7171,0.1082,-1.2579,0.2988,0.8385,-2.1414,23.7188,-31.1063,-22.95,,0.010792999999999608,1.45198211421491,1.2241330364281524,non_fall
11.265958,0.7171,0.1082,-1.2579,0.2988,0.8385,-2.1414,23.7188,-31.1063,-22.95,,0.007944999999999425,1.45198211421491,1.3530734857705102,non_fall
11.307731,0.7171,0.1082,-1.2579,0.5987,1.5468,-1.8444,23.7188,-31.1063,-22.95,,0.04177300000000095,1.45198211421491,1.4372100027406636,non_fall
11.319159,0.7171,0.1082,-1.2579,0.5987,1.5468,-1.8444,25.5938,-29.0813,-22.9875,,0.011428000000000438,1.45198211421491,1.4641000991299453,non_fall
11.326219,0.7171,0.1082,-1.2579,0.5987,1.5468,-1.8444,25.5938,-29.0813,-22.9875,,0.007059999999999178,1.45198211421491,1.430371493672358,non_fall
11.327064,-0.7212,-0.023,1.0533,0.5987,1.5468,-1.8444,25.5938,-29.0813,-22.9875,,0.0008449999999999847,1.276753433517999,1.3422472282366833,non_fall
11.367337,-0.7212,-0.023,1.0533,0.523,0.016,-1.7144,25.5938,-29.0813,-22.9875,,0.040272999999999115,1.276753433517999,1.2146228576507168,non_fall
11.379307,-0.7212,-0.023,1.0533,0.523,0.016,-1.7144,27.6375,-26.4188,-22.6125,,0.01197000000000159,1.276753433517999,1.0688513884153117,non_fall
11.387711,-0.7212,-0.023,1.0533,0.523,0.016,-1.7144,27.6375,-26.4188,-22.6125,,0.008403999999998746,1.276753433517999,0.9294257670160702,non_fall
11.388382,-0.078,-0.1125,-0.4064,0.523,0.016,-1.7144,27.6375,-26.4188,-22.6125,,0.0006710000000005323,0.428837043642454,0.8198677014889157,non_fall
11.428769,-0.078,-0.1125,-0.4064,0.064,0.6181,-2.2275,27.6375,-26.4188,-22.6125,,0.04038700000000084,0.428837043642454,0.7584092357649552,non_fall
11.438597,-0.078,-0.1125,-0.4064,0.064,0.6181,-2.2275,30.2813,-23.2125,-22.125,,0.009827999999998838,0.428837043642454,0.7543715770316635,non_fall
11.450058,-0.9984,-0.1649,-0.0445,0.064,0.6181,-2.2275,30.2813,-23.2125,-22.125,,0.01146100000000061,1.0129041514378347,0.8061989753970596,non_fall
11.451633,-0.9984,-0.1649,-0.0445,0.064,0.6181,-2.2275,30.2813,-23.2125,-22.125,,0.0015749999999989939,1.0129041514378347,0.9017063771955266,non_fall
11.489629,-0.9984,-0.1649,-0.0445,0.6051,-0.4125,-2.236,30.2813,-23.2125,-22.125,,0.03799600000000147,1.0129041514378347,1.0204448220262676,non_fall
11.500352,-0.9984,-0.1649,-0.0445,0.6051,-0.4125,-2.236,32.925,-19.6688,-21.4125,,0.010722999999998706,1.0129041514378347,1.1375845087649348,non_fall
11.50954,-0.9984,-0.1649,-0.0445,0.6051,-0.4125,-2.236,32.925,-19.6688,-21.4125,,0.009187999999999974,1.0129041514378347,1.2285561644210439,non_fall
11.529794,-1.0155,0.9726,-0.6507,0.6051,-0.4125,-2.236,32.925,-19.6688,-21.4125,,0.020254000000001326,1.5493874596110555,1.2737182774704685,non_fall
11.550089,-1.0155,0.9726,-0.6507,0.2541,-0.175,-1.3839,32.925,-19.6688,-21.4125,,0.020294999999999064,1.5493874596110555,1.262289073527318,non_fall
11.557674,-1.0155,0.9726,-0.6507,0.2541,-0.175,-1.3839,35.6438,-15.6188,-20.475,,0.007585000000000619,1.5493874596110555,1.1946889396149105,non_fall
11.570576,-1.0155,0.9726,-0.6507,0.2541,-0.175,-1.3839,35.6438,-15.6188,-20.475,,0.012902000000000413,1.5493874596110555,1.0825201705903031,non_fall
11.590531,0.0539,0.259,0.341,0.2541,-0.175,-1.3839,35.6438,-15.6188,-20.475,,0.0199549999999995,0.43158685105086325,0.9458903809416543,non_fall
11.611572,0.0539,0.259,0.341,-0.1535,0.1225,-0.8855,35.6438,-15.6188,-20.475,,0.02104100000000031,0.43158685105086325,0.8086129096575033,non_fall
11.61876,0.0539,0.259,0.341,-0.1535,0.1225,-0.8855,37.8188,-11.6438,-19.65,,0.007187999999999306,0.43158685105086325,0.6926199395342424,non_fall
11.632744,0.0539,0.259,0.341,-0.1535,0.1225,-0.8855,37.8188,-11.6438,-19.65,,0.013984000000000663,0.43158685105086325,0.6132282742930598,non_fall
11.652157,-0.4581,-0.397,0.3288,-0.1535,0.1225,-0.8855,37.8188,-11.6438,-19.65,,0.019413000000000125,0.6896187714962522,0.5765038692946605,non_fall
11.672052,-0.4581,-0.397,0.3288,0.5198,-0.8456,-0.877,37.8188,-11.6438,-19.65,,0.019894999999999996,0.6896187714962522,0.5791333451258398,non_fall
11.678157,-0.4581,-0.397,0.3288,0.5198,-0.8456,-0.877,39.5813,-7.7438,-19.1063,,0.006104999999999805,0.6896187714962522,0.6104011128540967,non_fall
11.692174,-0.4581,-0.397,0.3288,0.5198,-0.8456,-0.877,39.5813,-7.7438,-19.1063,,0.014016999999999058,0.6896187714962522,0.6554140567508988,non_fall
11.712196,0.0235,-0.3984,-0.6549,0.5198,-0.8456,-0.877,39.5813,-7.7438,-19.1063,,0.020022000000000872,0.7669216518002344,0.6986525925475101,non_fall
11.732217,0.0235,-0.3984,-0.6549,0.0023,0.3273,-0.6434,39.5813,-7.7438,-19.1063,,0.020020999999999844,0.7669216518002344,0.727108439517067,non_fall
11.737901,0.0235,-0.3984,-0.6549,0.0023,0.3273,-0.6434,40.6875,-4.35,-18.5625,,0.0056840000000004665,0.7669216518002344,0.7325216775619525,non_fall
11.752744,0.0235,-0.3984,-0.6549,0.0023,0.3273,-0.6434,40.6875,-4.35,-18.5625,,0.014842999999999051,0.7669216518002344,0.7124608249429379,non_fall
11.795265,0.0235,-0.3984,-0.6549,0.134,-0.1228,-0.7246,40.6875,-4.35,-18.5625,,0.0425210000000007,0.7669216518002344,0.6701877147605902,non_fall
11.796398,-0.2709,-0.1271,0.5072,0.134,-0.1228,-0.7246,40.6875,-4.35,-18.5625,,0.0011329999999993845,0.5888913821750154,0.6134306941677344,non_fall
