
time,ax,ay,az,wx,wy,wz,Bx,By,Bz,
0.030938,0.0000,0.0000,0.0000,0.0000,0.0000,0.0000,0.0000,0.0000,0.0000,
0.057693,0.0000,0.0000,0.0000,0.0000,0.0000,0.0000,-42.3750,10.2750,9.1500,
0.079911,0.0000,0.0000,0.0000,0.0000,0.0000,0.0000,-42.3750,10.2750,9.1500,
0.081590,-0.0027,0.0671,0.0010,0.0000,0.0000,0.0000,-42.3750,10.2750,9.1500,
0.100969,-0.0027,0.0671,0.0010,0.0000,0.0000,0.0000,-42.3750,10.2750,9.1500,
0.102704,-0.0355,0.0486,0.3163,0.0000,0.0000,0.0000,-42.3750,10.2750,9.1500,
0.104383,-0.0355,0.0486,0.3163,-0.0408,0.0012,-0.0124,-42.3750,10.2750,9.1500,
0.117296,-0.0355,0.0486,0.3163,-0.0408,0.0012,-0.0124,-42.3750,10.2750,9.1500,
0.119494,-0.0232,-0.0429,0.1188,-0.0408,0.0012,-0.0124,-42.3750,10.2750,9.1500,
0.127713,-0.0232,-0.0429,0.1188,-0.0408,0.0012,-0.0124,-40.5750,9.1500,10.1250,
0.135725,-0.0232,-0.0429,0.1188,-0.0408,0.0012,-0.0124,-40.5750,9.1500,10.1250,
0.137238,0.0747,0.0438,-0.0752,-0.0408,0.0012,-0.0124,-40.5750,9.1500,10.1250,
0.155626,0.0747,0.0438,-0.0752,-0.0408,0.0012,-0.0124,-40.5750,9.1500,10.1250,
0.157537,-0.0262,0.1264,-0.1165,-0.0408,0.0012,-0.0124,-40.5750,9.1500,10.1250,
0.170601,-0.0262,0.1264,-0.1165,-0.0246,0.0067,-0.0111,-40.5750,9.1500,10.1250,
0.175135,-0.0262,0.1264,-0.1165,-0.0246,0.0067,-0.0111,-40.5750,9.1500,10.1250,
0.177762,-0.0393,0.0534,0.2175,-0.0246,0.0067,-0.0111,-40.5750,9.1500,10.1250,
0.195483,-0.0393,0.0534,0.2175,-0.0246,0.0067,-0.0111,-40.5750,9.1500,10.1250,
0.197130,-0.0298,-0.1064,0.2271,-0.0246,0.0067,-0.0111,-40.5750,9.1500,10.1250,
0.198516,-0.0298,-0.1064,0.2271,-0.0246,0.0067,-0.0111,-41.4000,9.0750,10.3500,
0.217097,-0.0298,-0.1064,0.2271,-0.0246,0.0067,-0.0111,-41.4000,9.0750,10.3500,
0.219685,-0.0081,-0.0336,0.1755,-0.0246,0.0067,-0.0111,-41.4000,9.0750,10.3500,
0.234589,-0.0081,-0.0336,0.1755,-0.0246,0.0067,-0.0111,-41.4000,9.0750,10.3500,
0.236976,-0.0350,0.1229,0.0100,-0.0246,0.0067,-0.0111,-41.4000,9.0750,10.3500,
0.239430,-0.0350,0.1229,0.0100,-0.0220,-0.0029,-0.0354,-41.4000,9.0750,10.3500,
0.253269,-0.0350,0.1229,0.0100,-0.0220,-0.0029,-0.0354,-41.4000,9.0750,10.3500,
0.255120,-0.0435,0.4138,0.0991,-0.0220,-0.0029,-0.0354,-41.4000,9.0750,10.3500,
0.268077,-0.0435,0.4138,0.0991,-0.0220,-0.0029,-0.0354,-40.8000,8.5500,9.7500,
0.273303,-0.0435,0.4138,0.0991,-0.0220,-0.0029,-0.0354,-40.8000,8.5500,9.7500,
0.275406,0.2822,0.1354,0.0220,-0.0220,-0.0029,-0.0354,-40.8000,8.5500,9.7500,
0.292970,0.2822,0.1354,0.0220,-0.0220,-0.0029,-0.0354,-40.8000,8.5500,9.7500,
0.295146,-0.2529,-0.2544,0.1354,-0.0220,-0.0029,-0.0354,-40.8000,8.5500,9.7500,
0.307619,-0.2529,-0.2544,0.1354,-0.0090,0.0009,0.0231,-40.8000,8.5500,9.7500,
0.317608,-0.2529,-0.2544,0.1354,-0.0090,0.0009,0.0231,-40.8000,8.5500,9.7500,
0.319600,-0.0137,0.0191,0.2937,-0.0090,0.0009,0.0231,-40.8000,8.5500,9.7500,
0.337871,-0.0137,0.0191,0.2937,-0.0090,0.0009,0.0231,-40.8000,8.5500,9.7500,
0.339695,0.0349,-0.0067,-0.0102,-0.0090,0.0009,0.0231,-40.8000,8.5500,9.7500,
0.350609,0.0349,-0.0067,-0.0102,-0.0090,0.0009,0.0231,-41.2500,8.7750,10.3500,
0.357840,0.0349,-0.0067,-0.0102,-0.0090,0.0009,0.0231,-41.2500,8.7750,10.3500,
0.359465,-0.0643,0.0662,0.1677,-0.0090,0.0009,0.0231,-41.2500,8.7750,10.3500,
0.377695,-0.0643,0.0662,0.1677,-0.0090,0.0009,0.0231,-41.2500,8.7750,10.3500,
0.379418,-0.0167,0.0977,0.1381,-0.0090,0.0009,0.0231,-41.2500,8.7750,10.3500,
0.383268,-0.0167,0.0977,0.1381,0.0049,-0.0057,-0.0107,-41.2500,8.7750,10.3500,
0.395533,-0.0167,0.0977,0.1381,0.0049,-0.0057,-0.0107,-41.2500,8.7750,10.3500,
0.397142,-0.0794,0.0564,0.1286,0.0049,-0.0057,-0.0107,-41.2500,8.7750,10.3500,
0.406800,-0.0794,0.0564,0.1286,0.0049,-0.0057,-0.0107,-41.1000,8.6250,9.9000,
0.415284,-0.0794,0.0564,0.1286,0.0049,-0.0057,-0.0107,-41.1000,8.6250,9.9000,
0.417565,0.0113,0.0066,0.1161,0.0049,-0.0057,-0.0107,-41.1000,8.6250,9.9000,
0.434723,0.0113,0.0066,0.1161,0.0049,-0.0057,-0.0107,-41.1000,8.6250,9.9000,
0.436988,0.0177,0.0256,0.0888,0.0049,-0.0057,-0.0107,-41.1000,8.6250,9.9000,
0.449521,0.0177,0.0256,0.0888,0.0029,-0.0069,-0.0122,-41.1000,8.6250,9.9000,
0.454168,0.0177,0.0256,0.0888,0.0029,-0.0069,-0.0122,-41.1000,8.6250,9.9000,
0.455966,-0.0358,0.0416,0.0793,0.0029,-0.0069,-0.0122,-41.1000,8.6250,9.9000,
0.474026,-0.0358,0.0416,0.0793,0.0029,-0.0069,-0.0122,-41.1000,8.6250,9.9000,
0.476880,-0.0248,0.0439,0.0891,0.0029,-0.0069,-0.0122,-41.1000,8.6250,9.9000,
0.479200,-0.0248,0.0439,0.0891,0.0029,-0.0069,-0.0122,-40.6500,8.8500,10.4250,
0.493031,-0.0248,0.0439,0.0891,0.0029,-0.0069,-0.0122,-40.6500,8.8500,10.4250,
0.495044,-0.0109,0.0461,0.0966,0.0029,-0.0069,-0.0122,-40.6500,8.8500,10.4250,
0.513430,-0.0109,0.0461,0.0966,0.0029,-0.0069,-0.0122,-40.6500,8.8500,10.4250,
0.516616,-0.0121,0.0466,0.0854,0.0029,-0.0069,-0.0122,-40.6500,8.8500,10.4250,
0.518655,-0.0121,0.0466,0.0854,0.0000,-0.0064,-0.0137,-40.6500,8.8500,10.4250,
0.526960,-0.0121,0.0466,0.0854,0.0000,-0.0064,-0.0137,-40.6500,8.8500,10.4250,
0.528764,-0.0201,0.0871,0.0932,0.0000,-0.0064,-0.0137,-40.6500,8.8500,10.4250,
0.547365,-0.0201,0.0871,0.0932,0.0000,-0.0064,-0.0137,-40.6500,7.9500,9.6000,
0.550058,-0.0201,0.0871,0.0932,0.0000,-0.0064,-0.0137,-40.6500,7.9500,9.6000,
0.551941,0.0092,0.0439,0.2362,0.0000,-0.0064,-0.0137,-40.6500,7.9500,9.6000,
0.576767,0.0092,0.0439,0.2362,0.0000,-0.0064,-0.0137,-40.6500,7.9500,9.6000,
0.578943,0.0155,0.0779,-0.0960,0.0000,-0.0064,-0.0137,-40.6500,7.9500,9.6000,
0.591698,0.0155,0.0779,-0.0960,-0.0098,-0.0034,-0.0153,-40.6500,7.9500,9.6000,
0.597073,0.0155,0.0779,-0.0960,-0.0098,-0.0034,-0.0153,-40.6500,7.9500,9.6000,
0.598951,-0.0350,0.0981,0.2558,-0.0098,-0.0034,-0.0153,-40.6500,7.9500,9.6000,
0.619511,-0.0350,0.0981,0.2558,-0.0098,-0.0034,-0.0153,-40.6500,7.9500,9.6000,
0.620950,-0.0823,-0.0378,0.1884,-0.0098,-0.0034,-0.0153,-40.6500,7.9500,9.6000,
0.622224,-0.0823,-0.0378,0.1884,-0.0098,-0.0034,-0.0153,-40.6500,8.4750,9.9750,
0.636128,-0.0823,-0.0378,0.1884,-0.0098,-0.0034,-0.0153,-40.6500,8.4750,9.9750,
0.637853,-0.0307,-0.0229,0.0478,-0.0098,-0.0034,-0.0153,-40.6500,8.4750,9.9750,
0.656199,-0.0307,-0.0229,0.0478,-0.0098,-0.0034,-0.0153,-40.6500,8.4750,9.9750,
0.658002,-0.0292,0.1421,-0.1810,-0.0098,-0.0034,-0.0153,-40.6500,8.4750,9.9750,
0.660792,-0.0292,0.1421,-0.1810,-0.0069,0.0046,-0.0108,-40.6500,8.4750,9.9750,
0.675430,-0.0292,0.1421,-0.1810,-0.0069,0.0046,-0.0108,-40.6500,8.4750,9.9750,
0.677045,-0.0099,0.1666,0.1557,-0.0069,0.0046,-0.0108,-40.6500,8.4750,9.9750,
0.686829,-0.0099,0.1666,0.1557,-0.0069,0.0046,-0.0108,-40.8750,8.9250,10.5000,
0.695353,-0.0099,0.1666,0.1557,-0.0069,0.0046,-0.0108,-40.8750,8.9250,10.5000,
0.696895,0.0370,-0.0059,0.1694,-0.0069,0.0046,-0.0108,-40.8750,8.9250,10.5000,
0.715283,0.0370,-0.0059,0.1694,-0.0069,0.0046,-0.0108,-40.8750,8.9250,10.5000,
0.716990,-0.0057,-0.0269,0.1801,-0.0069,0.0046,-0.0108,-40.8750,8.9250,10.5000,
0.734949,-0.0057,-0.0269,0.1801,-0.0147,-0.0012,-0.0130,-40.8750,8.9250,10.5000,
0.737692,-0.0057,-0.0269,0.1801,-0.0147,-0.0012,-0.0130,-40.8750,8.9250,10.5000,
0.739448,0.0148,0.0561,0.1054,-0.0147,-0.0012,-0.0130,-40.8750,8.9250,10.5000,
0.752497,0.0148,0.0561,0.1054,-0.0147,-0.0012,-0.0130,-40.8750,8.9250,10.5000,
0.754433,-0.0336,0.1098,0.0432,-0.0147,-0.0012,-0.0130,-40.8750,8.9250,10.5000,
0.756552,-0.0336,0.1098,0.0432,-0.0147,-0.0012,-0.0130,-41.4000,8.9250,9.9000,
0.772645,-0.0336,0.1098,0.0432,-0.0147,-0.0012,-0.0130,-41.4000,8.9250,9.9000,
0.774626,-0.0450,0.0978,0.0553,-0.0147,-0.0012,-0.0130,-41.4000,8.9250,9.9000,
0.791193,-0.0450,0.0978,0.0553,-0.0147,-0.0012,-0.0130,-41.4000,8.9250,9.9000,
0.793807,-0.0211,0.0601,0.0625,-0.0147,-0.0012,-0.0130,-41.4000,8.9250,9.9000,
0.802556,-0.0211,0.0601,0.0625,-0.0171,0.0069,-0.0101,-41.4000,8.9250,9.9000,
0.814009,-0.0211,0.0601,0.0625,-0.0171,0.0069,-0.0101,-41.4000,8.9250,9.9000,
0.816727,-0.0344,0.0205,0.1971,-0.0171,0.0069,-0.0101,-41.4000,8.9250,9.9000,
0.826625,-0.0344,0.0205,0.1971,-0.0171,0.0069,-0.0101,-41.4000,8.9250,9.9000,
0.829879,0.0559,0.0097,0.0439,-0.0171,0.0069,-0.0101,-41.4000,8.9250,9.9000,
0.831743,0.0559,0.0097,0.0439,-0.0171,0.0069,-0.0101,-41.5500,8.3250,9.8250,
0.850404,0.0559,0.0097,0.0439,-0.0171,0.0069,-0.0101,-41.5500,8.3250,9.8250,
0.852703,-0.0318,0.0419,-0.0251,-0.0171,0.0069,-0.0101,-41.5500,8.3250,9.8250,
0.867894,-0.0318,0.0419,-0.0251,-0.0090,0.0115,-0.0037,-41.5500,8.3250,9.8250,
0.869864,-0.0318,0.0419,-0.0251,-0.0090,0.0115,-0.0037,-41.5500,8.3250,9.8250,
0.870932,0.0213,0.0784,0.1073,-0.0090,0.0115,-0.0037,-41.5500,8.3250,9.8250,
0.889302,0.0213,0.0784,0.1073,-0.0090,0.0115,-0.0037,-41.5500,8.3250,9.8250,
0.891326,-0.0418,0.0556,0.0504,-0.0090,0.0115,-0.0037,-41.5500,8.3250,9.8250,
0.900103,-0.0418,0.0556,0.0504,-0.0090,0.0115,-0.0037,-40.9500,8.0250,10.0500,
0.909589,-0.0418,0.0556,0.0504,-0.0090,0.0115,-0.0037,-40.9500,8.0250,10.0500,
0.910611,-0.0714,0.0443,0.1055,-0.0090,0.0115,-0.0037,-40.9500,8.0250,10.0500,
0.928475,-0.0714,0.0443,0.1055,-0.0090,0.0115,-0.0037,-40.9500,8.0250,10.0500,
0.929611,0.0122,0.0448,0.1035,-0.0090,0.0115,-0.0037,-40.9500,8.0250,10.0500,
0.939471,0.0122,0.0448,0.1035,-0.0281,0.0060,-0.0060,-40.9500,8.0250,10.0500,
0.953690,0.0122,0.0448,0.1035,-0.0281,0.0060,-0.0060,-40.9500,8.0250,10.0500,
0.955260,-0.0091,0.0646,0.0420,-0.0281,0.0060,-0.0060,-40.9500,8.0250,10.0500,
0.968121,-0.0091,0.0646,0.0420,-0.0281,0.0060,-0.0060,-40.5750,8.6250,9.7500,
0.973296,-0.0091,0.0646,0.0420,-0.0281,0.0060,-0.0060,-40.5750,8.6250,9.7500,
0.974817,0.0203,0.0670,0.0175,-0.0281,0.0060,-0.0060,-40.5750,8.6250,9.7500,
0.992542,0.0203,0.0670,0.0175,-0.0281,0.0060,-0.0060,-40.5750,8.6250,9.7500,
0.996147,0.0088,0.0772,0.0449,-0.0281,0.0060,-0.0060,-40.5750,8.6250,9.7500,
1.006158,0.0088,0.0772,0.0449,-0.0367,0.0142,-0.0027,-40.5750,8.6250,9.7500,
1.017747,0.0088,0.0772,0.0449,-0.0367,0.0142,-0.0027,-40.5750,8.6250,9.7500,
1.019793,-0.0156,0.0658,0.0919,-0.0367,0.0142,-0.0027,-40.5750,8.6250,9.7500,
1.027416,-0.0156,0.0658,0.0919,-0.0367,0.0142,-0.0027,-40.5750,8.6250,9.7500,
1.029554,0.0210,0.0425,0.1670,-0.0367,0.0142,-0.0027,-40.5750,8.6250,9.7500,
1.037794,0.0210,0.0425,0.1670,-0.0367,0.0142,-0.0027,-40.4250,7.9500,10.0500,
1.050316,0.0210,0.0425,0.1670,-0.0367,0.0142,-0.0027,-40.4250,7.9500,10.0500,
1.052495,0.1229,0.0165,0.0688,-0.0367,0.0142,-0.0027,-40.4250,7.9500,10.0500,
1.070336,0.1229,0.0165,0.0688,-0.0367,0.0142,-0.0027,-40.4250,7.9500,10.0500,
1.072534,0.0740,0.0242,-0.1127,-0.0367,0.0142,-0.0027,-40.4250,7.9500,10.0500,
1.074765,0.0740,0.0242,-0.1127,-0.0391,0.0084,-0.0113,-40.4250,7.9500,10.0500,
1.089845,0.0740,0.0242,-0.1127,-0.0391,0.0084,-0.0113,-40.4250,7.9500,10.0500,
1.092101,-0.0636,-0.0542,0.1439,-0.0391,0.0084,-0.0113,-40.4250,7.9500,10.0500,
1.107184,-0.0636,-0.0542,0.1439,-0.0391,0.0084,-0.0113,-40.9500,7.9500,9.9000,
1.110146,-0.0636,-0.0542,0.1439,-0.0391,0.0084,-0.0113,-40.9500,7.9500,9.9000,
1.112199,-0.1790,-0.0241,0.2013,-0.0391,0.0084,-0.0113,-40.9500,7.9500,9.9000,
1.127452,-0.1790,-0.0241,0.2013,-0.0391,0.0084,-0.0113,-40.9500,7.9500,9.9000,
1.130084,-0.1567,0.0831,0.0852,-0.0391,0.0084,-0.0113,-40.9500,7.9500,9.9000,
1.143576,-0.1567,0.0831,0.0852,-0.0400,0.0189,0.0050,-40.9500,7.9500,9.9000,
1.153633,-0.1567,0.0831,0.0852,-0.0400,0.0189,0.0050,-40.9500,7.9500,9.9000,
1.155880,-0.1687,0.1575,-0.2318,-0.0400,0.0189,0.0050,-40.9500,7.9500,9.9000,
1.168128,-0.1687,0.1575,-0.2318,-0.0400,0.0189,0.0050,-40.9500,7.9500,9.9000,
1.170365,0.0074,0.1181,0.1360,-0.0400,0.0189,0.0050,-40.9500,7.9500,9.9000,
1.176693,0.0074,0.1181,0.1360,-0.0400,0.0189,0.0050,-40.3500,8.4750,10.1250,
1.192322,0.0074,0.1181,0.1360,-0.0400,0.0189,0.0050,-40.3500,8.4750,10.1250,
1.194186,0.0962,-0.0817,0.1808,-0.0400,0.0189,0.0050,-40.3500,8.4750,10.1250,
1.213719,0.0962,-0.0817,0.1808,-0.0400,0.0189,0.0050,-40.3500,8.4750,10.1250,
1.214886,0.1081,-0.0274,0.1889,-0.0400,0.0189,0.0050,-40.3500,8.4750,10.1250,
1.217210,0.1081,-0.0274,0.1889,-0.0431,-0.0029,0.0047,-40.3500,8.4750,10.1250,
1.228137,0.1081,-0.0274,0.1889,-0.0431,-0.0029,0.0047,-40.3500,8.4750,10.1250,
1.229603,0.0568,0.1263,0.0546,-0.0431,-0.0029,0.0047,-40.3500,8.4750,10.1250,
1.248156,0.0568,0.1263,0.0546,-0.0431,-0.0029,0.0047,-40.5000,8.5500,9.9000,
1.249955,0.0568,0.1263,0.0546,-0.0431,-0.0029,0.0047,-40.5000,8.5500,9.9000,
1.251312,-0.0672,0.1109,0.0107,-0.0431,-0.0029,0.0047,-40.5000,8.5500,9.9000,
1.271318,-0.0672,0.1109,0.0107,-0.0431,-0.0029,0.0047,-40.5000,8.5500,9.9000,
1.272886,-0.1254,0.1547,0.1349,-0.0431,-0.0029,0.0047,-40.5000,8.5500,9.9000,
1.285410,-0.1254,0.1547,0.1349,-0.0391,0.0041,0.0144,-40.5000,8.5500,9.9000,
1.290427,-0.1254,0.1547,0.1349,-0.0391,0.0041,0.0144,-40.5000,8.5500,9.9000,
1.292923,-0.0621,0.0048,0.0365,-0.0391,0.0041,0.0144,-40.5000,8.5500,9.9000,
1.309348,-0.0621,0.0048,0.0365,-0.0391,0.0041,0.0144,-40.5000,8.5500,9.9000,
1.311329,0.0085,-0.0010,0.2251,-0.0391,0.0041,0.0144,-40.5000,8.5500,9.9000,
1.312676,0.0085,-0.0010,0.2251,-0.0391,0.0041,0.0144,-40.7250,7.8750,10.2000,
1.327575,0.0085,-0.0010,0.2251,-0.0391,0.0041,0.0144,-40.7250,7.8750,10.2000,
1.329531,0.0392,0.0368,-0.0137,-0.0391,0.0041,0.0144,-40.7250,7.8750,10.2000,
1.349152,0.0392,0.0368,-0.0137,-0.0391,0.0041,0.0144,-40.7250,7.8750,10.2000,
1.351496,-0.0920,0.0108,0.0072,-0.0391,0.0041,0.0144,-40.7250,7.8750,10.2000,
1.353632,-0.0920,0.0108,0.0072,-0.0447,0.0154,0.0283,-40.7250,7.8750,10.2000,
1.368811,-0.0920,0.0108,0.0072,-0.0447,0.0154,0.0283,-40.7250,7.8750,10.2000,
1.370956,0.0470,0.0205,0.2701,-0.0447,0.0154,0.0283,-40.7250,7.8750,10.2000,
1.383364,0.0470,0.0205,0.2701,-0.0447,0.0154,0.0283,-40.9500,8.1750,10.3500,
1.388438,0.0470,0.0205,0.2701,-0.0447,0.0154,0.0283,-40.9500,8.1750,10.3500,
1.389647,0.0081,0.0056,0.2964,-0.0447,0.0154,0.0283,-40.9500,8.1750,10.3500,
1.407791,0.0081,0.0056,0.2964,-0.0447,0.0154,0.0283,-40.9500,8.1750,10.3500,
1.409771,0.0373,0.0051,0.2700,-0.0447,0.0154,0.0283,-40.9500,8.1750,10.3500,
1.421899,0.0373,0.0051,0.2700,-0.0455,0.0299,0.0223,-40.9500,8.1750,10.3500,
1.426981,0.0373,0.0051,0.2700,-0.0455,0.0299,0.0223,-40.9500,8.1750,10.3500,
1.428258,0.0413,0.0853,0.2128,-0.0455,0.0299,0.0223,-40.9500,8.1750,10.3500,
1.452363,0.0413,0.0853,0.2128,-0.0455,0.0299,0.0223,-41.3250,8.2500,9.9750,
1.454600,0.0413,0.0853,0.2128,-0.0455,0.0299,0.0223,-41.3250,8.2500,9.9750,
1.455993,-0.0445,0.2027,0.0875,-0.0455,0.0299,0.0223,-41.3250,8.2500,9.9750,
1.471374,-0.0445,0.2027,0.0875,-0.0455,0.0299,0.0223,-41.3250,8.2500,9.9750,
1.473420,-0.1206,0.1844,0.0894,-0.0455,0.0299,0.0223,-41.3250,8.2500,9.9750,
1.490399,-0.1206,0.1844,0.0894,-0.0455,0.0299,0.0223,-41.3250,8.2500,9.9750,
1.492725,-0.1104,0.1589,0.1652,-0.0455,0.0299,0.0223,-41.3250,8.2500,9.9750,
1.500961,-0.1104,0.1589,0.1652,-0.0854,0.0165,0.0336,-41.3250,8.2500,9.9750,
1.510599,-0.1104,0.1589,0.1652,-0.0854,0.0165,0.0336,-41.3250,8.2500,9.9750,
1.512424,-0.1660,0.2028,0.1410,-0.0854,0.0165,0.0336,-41.3250,8.2500,9.9750,
1.521183,-0.1660,0.2028,0.1410,-0.0854,0.0165,0.0336,-41.0250,8.2500,10.2000,
1.527401,-0.1660,0.2028,0.1410,-0.0854,0.0165,0.0336,-41.0250,8.2500,10.2000,
1.529102,-0.1579,0.1301,0.2158,-0.0854,0.0165,0.0336,-41.0250,8.2500,10.2000,
1.549335,-0.1579,0.1301,0.2158,-0.0854,0.0165,0.0336,-41.0250,8.2500,10.2000,
1.551983,-0.1835,-0.0462,0.0955,-0.0854,0.0165,0.0336,-41.0250,8.2500,10.2000,
1.569005,-0.1835,-0.0462,0.0955,-0.1530,-0.0541,0.0577,-41.0250,8.2500,10.2000,
1.572031,-0.1835,-0.0462,0.0955,-0.1530,-0.0541,0.0577,-41.0250,8.2500,10.2000,
1.574442,-0.0299,-0.0180,0.6429,-0.1530,-0.0541,0.0577,-41.0250,8.2500,10.2000,
1.588966,-0.0299,-0.0180,0.6429,-0.1530,-0.0541,0.0577,-41.0250,8.2500,10.2000,
1.592269,0.0714,0.0354,0.6736,-0.1530,-0.0541,0.0577,-41.0250,8.2500,10.2000,
1.593867,0.0714,0.0354,0.6736,-0.1530,-0.0541,0.0577,-40.8000,8.2500,10.1250,
1.608160,0.0714,0.0354,0.6736,-0.1530,-0.0541,0.0577,-40.8000,8.2500,10.1250,
1.610382,0.2287,0.0074,0.4996,-0.1530,-0.0541,0.0577,-40.8000,8.2500,10.1250,
1.629562,0.2287,0.0074,0.4996,-0.1530,-0.0541,0.0577,-40.8000,8.2500,10.1250,
1.632848,0.3946,0.0009,0.6752,-0.1530,-0.0541,0.0577,-40.8000,8.2500,10.1250,
1.634667,0.3946,0.0009,0.6752,-0.1075,0.0119,0.0713,-40.8000,8.2500,10.1250,
1.651371,0.3946,0.0009,0.6752,-0.1075,0.0119,0.0713,-40.8000,8.2500,10.1250,
1.653429,0.3842,-0.1703,1.2311,-0.1075,0.0119,0.0713,-40.8000,8.2500,10.1250,
1.657025,0.3842,-0.1703,1.2311,-0.1075,0.0119,0.0713,-40.9500,8.5500,10.5750,
1.668068,0.3842,-0.1703,1.2311,-0.1075,0.0119,0.0713,-40.9500,8.5500,10.5750,
1.670030,0.1963,-0.3380,1.3766,-0.1075,0.0119,0.0713,-40.9500,8.5500,10.5750,
1.686463,0.1963,-0.3380,1.3766,-0.1075,0.0119,0.0713,-40.9500,8.5500,10.5750,
1.688801,-0.1457,0.1403,1.1434,-0.1075,0.0119,0.0713,-40.9500,8.5500,10.5750,
1.700879,-0.1457,0.1403,1.1434,0.0557,0.1448,0.0370,-40.9500,8.5500,10.5750,
1.705771,-0.1457,0.1403,1.1434,0.0557,0.1448,0.0370,-40.9500,8.5500,10.5750,
1.707745,-0.4174,0.6225,0.6336,0.0557,0.1448,0.0370,-40.9500,8.5500,10.5750,
1.726837,-0.4174,0.6225,0.6336,0.0557,0.1448,0.0370,-40.9500,8.5500,10.5750,
1.729283,-0.6865,0.7676,0.2729,0.0557,0.1448,0.0370,-40.9500,8.5500,10.5750,
1.731405,-0.6865,0.7676,0.2729,0.0557,0.1448,0.0370,-41.6250,8.4750,10.3500,
1.746254,-0.6865,0.7676,0.2729,0.0557,0.1448,0.0370,-41.6250,8.4750,10.3500,
1.748947,-0.8036,0.2055,-0.1296,0.0557,0.1448,0.0370,-41.6250,8.4750,10.3500,
1.770352,-0.8036,0.2055,-0.1296,0.0557,0.1448,0.0370,-41.6250,8.4750,10.3500,
1.772618,-0.7831,-0.5558,-0.1867,0.0557,0.1448,0.0370,-41.6250,8.4750,10.3500,
1.774843,-0.7831,-0.5558,-0.1867,-0.0151,0.0625,0.0799,-41.6250,8.4750,10.3500,
1.784429,-0.7831,-0.5558,-0.1867,-0.0151,0.0625,0.0799,-41.6250,8.4750,10.3500,
1.786263,-0.3318,-0.5568,0.3579,-0.0151,0.0625,0.0799,-41.6250,8.4750,10.3500,
1.800097,-0.3318,-0.5568,0.3579,-0.0151,0.0625,0.0799,-41.1750,8.8500,9.7500,
1.803988,-0.3318,-0.5568,0.3579,-0.0151,0.0625,0.0799,-41.1750,8.8500,9.7500,
1.805958,0.1788,-0.0677,0.2975,-0.0151,0.0625,0.0799,-41.1750,8.8500,9.7500,
1.823468,0.1788,-0.0677,0.2975,-0.0151,0.0625,0.0799,-41.1750,8.8500,9.7500,
1.825316,0.1049,0.2906,-0.1967,-0.0151,0.0625,0.0799,-41.1750,8.8500,9.7500,
1.843000,0.1049,0.2906,-0.1967,-0.1167,-0.0057,0.0941,-41.1750,8.8500,9.7500,
1.852897,0.1049,0.2906,-0.1967,-0.1167,-0.0057,0.0941,-41.1750,8.8500,9.7500,
1.854694,0.2460,0.5179,-0.1079,-0.1167,-0.0057,0.0941,-41.1750,8.8500,9.7500,
1.867596,0.2460,0.5179,-0.1079,-0.1167,-0.0057,0.0941,-41.1750,8.8500,9.7500,
1.869727,-0.0700,0.7313,-0.2579,-0.1167,-0.0057,0.0941,-41.1750,8.8500,9.7500,
1.871526,-0.0700,0.7313,-0.2579,-0.1167,-0.0057,0.0941,-41.8500,8.8500,9.2250,
1.887424,-0.0700,0.7313,-0.2579,-0.1167,-0.0057,0.0941,-41.8500,8.8500,9.2250,
1.889103,-0.0748,0.7428,-0.3319,-0.1167,-0.0057,0.0941,-41.8500,8.8500,9.2250,
1.907475,-0.0748,0.7428,-0.3319,-0.1167,-0.0057,0.0941,-41.8500,8.8500,9.2250,
1.909200,0.0183,0.4135,-0.2245,-0.1167,-0.0057,0.0941,-41.8500,8.8500,9.2250,
1.920186,0.0183,0.4135,-0.2245,-0.3034,-0.0880,0.0783,-41.8500,8.8500,9.2250,
1.926083,0.0183,0.4135,-0.2245,-0.3034,-0.0880,0.0783,-41.8500,8.8500,9.2250,
1.928136,0.0553,-0.1448,0.1007,-0.3034,-0.0880,0.0783,-41.8500,8.8500,9.2250,
1.936243,0.0553,-0.1448,0.1007,-0.3034,-0.0880,0.0783,-41.1750,8.9250,9.8250,
1.947357,0.0553,-0.1448,0.1007,-0.3034,-0.0880,0.0783,-41.1750,8.9250,9.8250,
1.949681,0.2148,-0.3133,0.3155,-0.3034,-0.0880,0.0783,-41.1750,8.9250,9.8250,
1.965153,0.2148,-0.3133,0.3155,-0.3034,-0.0880,0.0783,-41.1750,8.9250,9.8250,
1.967964,0.2401,-0.0760,0.1485,-0.3034,-0.0880,0.0783,-41.1750,8.9250,9.8250,
1.980689,0.2401,-0.0760,0.1485,-0.2840,0.0005,0.0631,-41.1750,8.9250,9.8250,
1.984295,0.2401,-0.0760,0.1485,-0.2840,0.0005,0.0631,-41.1750,8.9250,9.8250,
1.986284,0.2469,0.1664,0.0027,-0.2840,0.0005,0.0631,-41.1750,8.9250,9.8250,
2.004026,0.2469,0.1664,0.0027,-0.2840,0.0005,0.0631,-41.1750,8.9250,9.8250,
2.006502,0.1610,0.3464,0.0101,-0.2840,0.0005,0.0631,-41.1750,8.9250,9.8250,
2.008481,0.1610,0.3464,0.0101,-0.2840,0.0005,0.0631,-40.8750,8.4750,9.7500,
2.023916,0.1610,0.3464,0.0101,-0.2840,0.0005,0.0631,-40.8750,8.4750,9.7500,
2.026054,0.1311,0.3476,-0.1972,-0.2840,0.0005,0.0631,-40.8750,8.4750,9.7500,
2.043521,0.1311,0.3476,-0.1972,-0.2840,0.0005,0.0631,-40.8750,8.4750,9.7500,
2.045764,0.0507,0.1901,-0.1456,-0.2840,0.0005,0.0631,-40.8750,8.4750,9.7500,
2.051170,0.0507,0.1901,-0.1456,-0.3088,0.0704,0.0183,-40.8750,8.4750,9.7500,
2.063516,0.0507,0.1901,-0.1456,-0.3088,0.0704,0.0183,-40.8750,8.4750,9.7500,
2.065639,-0.0728,0.0706,0.3402,-0.3088,0.0704,0.0183,-40.8750,8.4750,9.7500,
2.076501,-0.0728,0.0706,0.3402,-0.3088,0.0704,0.0183,-41.1750,8.5500,9.9000,
2.087644,-0.0728,0.0706,0.3402,-0.3088,0.0704,0.0183,-41.1750,8.5500,9.9000,
2.089703,-0.1431,0.1153,0.2280,-0.3088,0.0704,0.0183,-41.1750,8.5500,9.9000,
2.107644,-0.1431,0.1153,0.2280,-0.3088,0.0704,0.0183,-41.1750,8.5500,9.9000,
2.109853,-0.1403,0.3575,0.0432,-0.3088,0.0704,0.0183,-41.1750,8.5500,9.9000,
2.121406,-0.1403,0.3575,0.0432,-0.2950,0.1228,0.0156,-41.1750,8.5500,9.9000,
2.126269,-0.1403,0.3575,0.0432,-0.2950,0.1228,0.0156,-41.1750,8.5500,9.9000,
2.127800,-0.2726,0.3785,0.0828,-0.2950,0.1228,0.0156,-41.1750,8.5500,9.9000,
2.146072,-0.2726,0.3785,0.0828,-0.2950,0.1228,0.0156,-41.1750,8.5500,9.9000,
2.148394,-0.1800,0.1470,0.3230,-0.2950,0.1228,0.0156,-41.1750,8.5500,9.9000,
2.150253,-0.1800,0.1470,0.3230,-0.2950,0.1228,0.0156,-41.1750,8.4750,9.4500,
2.165769,-0.1800,0.1470,0.3230,-0.2950,0.1228,0.0156,-41.1750,8.4750,9.4500,
2.168241,-0.1222,0.0326,0.3411,-0.2950,0.1228,0.0156,-41.1750,8.4750,9.4500,
2.184686,-0.1222,0.0326,0.3411,-0.2950,0.1228,0.0156,-41.1750,8.4750,9.4500,
2.186313,-0.0068,0.1312,0.4727,-0.2950,0.1228,0.0156,-41.1750,8.4750,9.4500,
2.189815,-0.0068,0.1312,0.4727,-0.2547,0.1130,0.0128,-41.1750,8.4750,9.4500,
2.204851,-0.0068,0.1312,0.4727,-0.2547,0.1130,0.0128,-41.1750,8.4750,9.4500,
2.207984,0.0128,0.2112,0.4389,-0.2547,0.1130,0.0128,-41.1750,8.4750,9.4500,
2.216443,0.0128,0.2112,0.4389,-0.2547,0.1130,0.0128,-40.6500,7.8750,8.7750,
2.224662,0.0128,0.2112,0.4389,-0.2547,0.1130,0.0128,-40.6500,7.8750,8.7750,
2.226062,0.0611,0.2734,0.3857,-0.2547,0.1130,0.0128,-40.6500,7.8750,8.7750,
2.243557,0.0611,0.2734,0.3857,-0.2547,0.1130,0.0128,-40.6500,7.8750,8.7750,
2.244937,0.0394,0.2658,0.4474,-0.2547,0.1130,0.0128,-40.6500,7.8750,8.7750,
2.258268,0.0394,0.2658,0.4474,-0.2288,0.1361,0.0003,-40.6500,7.8750,8.7750,
2.265318,0.0394,0.2658,0.4474,-0.2288,0.1361,0.0003,-40.6500,7.8750,8.7750,
2.266731,-0.0656,0.1869,0.4975,-0.2288,0.1361,0.0003,-40.6500,7.8750,8.7750,
2.283489,-0.0656,0.1869,0.4975,-0.2288,0.1361,0.0003,-40.6500,7.8750,8.7750,
2.285568,-0.1743,-0.0035,0.6492,-0.2288,0.1361,0.0003,-40.6500,7.8750,8.7750,
2.287831,-0.1743,-0.0035,0.6492,-0.2288,0.1361,0.0003,-41.2500,7.7250,8.3250,
2.302318,-0.1743,-0.0035,0.6492,-0.2288,0.1361,0.0003,-41.2500,7.7250,8.3250,
2.304807,-0.1386,-0.1815,0.4844,-0.2288,0.1361,0.0003,-41.2500,7.7250,8.3250,
2.322250,-0.1386,-0.1815,0.4844,-0.2288,0.1361,0.0003,-41.2500,7.7250,8.3250,
2.324384,-0.0656,-0.5025,0.7489,-0.2288,0.1361,0.0003,-41.2500,7.7250,8.3250,
2.333959,-0.0656,-0.5025,0.7489,-0.1773,0.1590,-0.0108,-41.2500,7.7250,8.3250,
2.348361,-0.0656,-0.5025,0.7489,-0.1773,0.1590,-0.0108,-41.2500,7.7250,8.3250,
2.350418,-0.0342,-0.4074,0.8008,-0.1773,0.1590,-0.0108,-41.2500,7.7250,8.3250,
2.356601,-0.0342,-0.4074,0.8008,-0.1773,0.1590,-0.0108,-42.0750,7.2750,8.9250,
2.365914,-0.0342,-0.4074,0.8008,-0.1773,0.1590,-0.0108,-42.0750,7.2750,8.9250,
2.368064,-0.0668,-0.2482,0.7731,-0.1773,0.1590,-0.0108,-42.0750,7.2750,8.9250,
2.385899,-0.0668,-0.2482,0.7731,-0.1773,0.1590,-0.0108,-42.0750,7.2750,8.9250,
2.388808,-0.1324,-0.2321,0.6623,-0.1773,0.1590,-0.0108,-42.0750,7.2750,8.9250,
2.400639,-0.1324,-0.2321,0.6623,-0.1741,0.1132,-0.0510,-42.0750,7.2750,8.9250,
2.405207,-0.1324,-0.2321,0.6623,-0.1741,0.1132,-0.0510,-42.0750,7.2750,8.9250,
2.406739,-0.1235,-0.1017,0.8046,-0.1741,0.1132,-0.0510,-42.0750,7.2750,8.9250,
2.424765,-0.1235,-0.1017,0.8046,-0.1741,0.1132,-0.0510,-42.0750,7.2750,8.9250,
2.427027,-0.0360,0.1498,0.8397,-0.1741,0.1132,-0.0510,-42.0750,7.2750,8.9250,
2.429483,-0.0360,0.1498,0.8397,-0.1741,0.1132,-0.0510,-41.9250,7.9500,8.5500,
2.446679,-0.0360,0.1498,0.8397,-0.1741,0.1132,-0.0510,-41.9250,7.9500,8.5500,
2.448926,-0.0171,0.5143,0.8962,-0.1741,0.1132,-0.0510,-41.9250,7.9500,8.5500,
2.466027,-0.0171,0.5143,0.8962,-0.1741,0.1132,-0.0510,-41.9250,7.9500,8.5500,
2.467512,-0.0100,0.8879,0.9716,-0.1741,0.1132,-0.0510,-41.9250,7.9500,8.5500,
2.469302,-0.0100,0.8879,0.9716,-0.2256,0.0736,-0.0449,-41.9250,7.9500,8.5500,
2.483930,-0.0100,0.8879,0.9716,-0.2256,0.0736,-0.0449,-41.9250,7.9500,8.5500,
2.485965,-0.0266,1.2908,0.9999,-0.2256,0.0736,-0.0449,-41.9250,7.9500,8.5500,
2.497299,-0.0266,1.2908,0.9999,-0.2256,0.0736,-0.0449,-42.0000,7.0500,7.6500,
2.499342,-0.0266,1.2908,0.9999,-0.2256,0.0736,-0.0449,-42.0000,7.0500,7.6500,
2.500631,-0.1215,1.7481,1.0399,-0.2256,0.0736,-0.0449,-42.0000,7.0500,7.6500,
2.525409,-0.1215,1.7481,1.0399,-0.2256,0.0736,-0.0449,-42.0000,7.0500,7.6500,
2.526529,-0.1811,1.5771,0.8087,-0.2256,0.0736,-0.0449,-42.0000,7.0500,7.6500,
2.537424,-0.1811,1.5771,0.8087,-0.2758,-0.0002,-0.0304,-42.0000,7.0500,7.6500,
2.542417,-0.1811,1.5771,0.8087,-0.2758,-0.0002,-0.0304,-42.0000,7.0500,7.6500,
2.543746,-0.1956,1.1092,1.0384,-0.2758,-0.0002,-0.0304,-42.0000,7.0500,7.6500,
2.562900,-0.1956,1.1092,1.0384,-0.2758,-0.0002,-0.0304,-42.0000,7.0500,7.6500,
2.564172,-0.2176,1.0639,1.7590,-0.2758,-0.0002,-0.0304,-42.0000,7.0500,7.6500,
2.568819,-0.2176,1.0639,1.7590,-0.2758,-0.0002,-0.0304,-41.9250,5.8500,7.5750,
2.586606,-0.2176,1.0639,1.7590,-0.2758,-0.0002,-0.0304,-41.9250,5.8500,7.5750,
2.589617,-0.2229,1.6083,1.5330,-0.2758,-0.0002,-0.0304,-41.9250,5.8500,7.5750,
2.605706,-0.2229,1.6083,1.5330,-0.2758,-0.0002,-0.0304,-41.9250,5.8500,7.5750,
2.608883,0.0748,2.6348,1.0894,-0.2758,-0.0002,-0.0304,-41.9250,5.8500,7.5750,
2.611602,0.0748,2.6348,1.0894,-0.2596,-0.0739,-0.0371,-41.9250,5.8500,7.5750,
2.625975,0.0748,2.6348,1.0894,-0.2596,-0.0739,-0.0371,-41.9250,5.8500,7.5750,
2.628002,0.2569,2.7884,1.0294,-0.2596,-0.0739,-0.0371,-41.9250,5.8500,7.5750,
2.639223,0.2569,2.7884,1.0294,-0.2596,-0.0739,-0.0371,-41.6250,5.8500,7.8000,
2.647178,0.2569,2.7884,1.0294,-0.2596,-0.0739,-0.0371,-41.6250,5.8500,7.8000,
2.649054,0.2958,2.8735,1.4326,-0.2596,-0.0739,-0.0371,-41.6250,5.8500,7.8000,
2.664365,0.2958,2.8735,1.4326,-0.2596,-0.0739,-0.0371,-41.6250,5.8500,7.8000,
2.666552,0.4666,3.1230,1.3498,-0.2596,-0.0739,-0.0371,-41.6250,5.8500,7.8000,
2.680726,0.4666,3.1230,1.3498,-0.3389,-0.0368,-0.1075,-41.6250,5.8500,7.8000,
2.684425,0.4666,3.1230,1.3498,-0.3389,-0.0368,-0.1075,-41.6250,5.8500,7.8000,
2.685984,0.5502,3.5044,1.2186,-0.3389,-0.0368,-0.1075,-41.6250,5.8500,7.8000,
2.704590,0.5502,3.5044,1.2186,-0.3389,-0.0368,-0.1075,-41.6250,5.8500,7.8000,
2.707182,0.3034,4.0423,1.6136,-0.3389,-0.0368,-0.1075,-41.6250,5.8500,7.8000,
2.709078,0.3034,4.0423,1.6136,-0.3389,-0.0368,-0.1075,-41.5500,5.0250,7.8000,
2.722923,0.3034,4.0423,1.6136,-0.3389,-0.0368,-0.1075,-41.5500,5.0250,7.8000,
2.725197,0.3715,4.5755,1.9769,-0.3389,-0.0368,-0.1075,-41.5500,5.0250,7.8000,
2.742778,0.3715,4.5755,1.9769,-0.3389,-0.0368,-0.1075,-41.5500,5.0250,7.8000,
2.745168,0.3407,5.3340,1.6128,-0.3389,-0.0368,-0.1075,-41.5500,5.0250,7.8000,
2.747164,0.3407,5.3340,1.6128,-0.5296,0.1419,-0.1591,-41.5500,5.0250,7.8000,
2.763488,0.3407,5.3340,1.6128,-0.5296,0.1419,-0.1591,-41.5500,5.0250,7.8000,
2.766296,-0.6834,4.7076,1.7649,-0.5296,0.1419,-0.1591,-41.5500,5.0250,7.8000,
2.777115,-0.6834,4.7076,1.7649,-0.5296,0.1419,-0.1591,-41.5500,5.0250,7.8000,
2.779043,-0.6325,3.5513,4.4843,-0.5296,0.1419,-0.1591,-41.5500,5.0250,7.8000,
2.781064,-0.6325,3.5513,4.4843,-0.5296,0.1419,-0.1591,-41.7000,4.3500,8.3250,
2.801116,-0.6325,3.5513,4.4843,-0.5296,0.1419,-0.1591,-41.7000,4.3500,8.3250,
2.803764,0.1197,2.8918,4.9036,-0.5296,0.1419,-0.1591,-41.7000,4.3500,8.3250,
2.818083,0.1197,2.8918,4.9036,-0.5759,0.1694,-0.0363,-41.7000,4.3500,8.3250,
2.820787,0.1197,2.8918,4.9036,-0.5759,0.1694,-0.0363,-41.7000,4.3500,8.3250,
2.822032,0.4205,2.8082,3.9991,-0.5759,0.1694,-0.0363,-41.7000,4.3500,8.3250,
2.840551,0.4205,2.8082,3.9991,-0.5759,0.1694,-0.0363,-41.7000,4.3500,8.3250,
2.842555,0.3818,2.0765,4.7616,-0.5759,0.1694,-0.0363,-41.7000,4.3500,8.3250,
2.848247,0.3818,2.0765,4.7616,-0.5759,0.1694,-0.0363,-42.2250,3.7500,7.5000,
2.860439,0.3818,2.0765,4.7616,-0.5759,0.1694,-0.0363,-42.2250,3.7500,7.5000,
2.862504,0.5869,1.9473,5.8497,-0.5759,0.1694,-0.0363,-42.2250,3.7500,7.5000,
2.877032,0.5869,1.9473,5.8497,-0.5759,0.1694,-0.0363,-42.2250,3.7500,7.5000,
2.879419,0.5698,4.3914,5.4697,-0.5759,0.1694,-0.0363,-42.2250,3.7500,7.5000,
2.883992,0.5698,4.3914,5.4697,-0.7287,0.2489,0.2147,-42.2250,3.7500,7.5000,
2.901878,0.5698,4.3914,5.4697,-0.7287,0.2489,0.2147,-42.2250,3.7500,7.5000,
2.904072,0.1162,5.3376,4.0952,-0.7287,0.2489,0.2147,-42.2250,3.7500,7.5000,
2.917123,0.1162,5.3376,4.0952,-0.7287,0.2489,0.2147,-42.2250,3.7500,7.5000,
2.919488,0.9404,5.2467,4.2255,-0.7287,0.2489,0.2147,-42.2250,3.7500,7.5000,
2.921230,0.9404,5.2467,4.2255,-0.7287,0.2489,0.2147,-42.8250,4.3500,6.0750,
2.943338,0.9404,5.2467,4.2255,-0.7287,0.2489,0.2147,-42.8250,4.3500,6.0750,
2.945467,0.3275,6.6729,6.7755,-0.7287,0.2489,0.2147,-42.8250,4.3500,6.0750,
2.958004,0.3275,6.6729,6.7755,-1.5286,0.6377,0.3741,-42.8250,4.3500,6.0750,
2.967468,0.3275,6.6729,6.7755,-1.5286,0.6377,0.3741,-42.8250,4.3500,6.0750,
2.969072,-0.2423,4.0931,5.4518,-1.5286,0.6377,0.3741,-42.8250,4.3500,6.0750,
2.977172,-0.2423,4.0931,5.4518,-1.5286,0.6377,0.3741,-42.8250,4.3500,6.0750,
2.978766,-0.7164,-14.5600,-0.4328,-1.5286,0.6377,0.3741,-42.8250,4.3500,6.0750,
2.987641,-0.7164,-14.5600,-0.4328,-1.5286,0.6377,0.3741,-42.9000,5.4750,4.4250,
3.001792,-0.7164,-14.5600,-0.4328,-1.5286,0.6377,0.3741,-42.9000,5.4750,4.4250,
3.004237,0.0250,-33.7840,-0.8145,-1.5286,0.6377,0.3741,-42.9000,5.4750,4.4250,
3.021851,0.0250,-33.7840,-0.8145,-1.5286,0.6377,0.3741,-42.9000,5.4750,4.4250,
3.024273,1.4375,-11.2630,-2.0936,-1.5286,0.6377,0.3741,-42.9000,5.4750,4.4250,
3.026803,1.4375,-11.2630,-2.0936,-3.3027,0.7495,0.6446,-42.9000,5.4750,4.4250,
3.041161,1.4375,-11.2630,-2.0936,-3.3027,0.7495,0.6446,-42.9000,5.4750,4.4250,
3.043789,-0.1423,9.5799,0.2697,-3.3027,0.7495,0.6446,-42.9000,5.4750,4.4250,
3.056578,-0.1423,9.5799,0.2697,-3.3027,0.7495,0.6446,-42.9000,5.4750,4.4250,
3.058900,-4.3071,17.1611,2.5095,-3.3027,0.7495,0.6446,-42.9000,5.4750,4.4250,
3.061062,-4.3071,17.1611,2.5095,-3.3027,0.7495,0.6446,-42.2250,6.3750,1.9500,
3.080934,-4.3071,17.1611,2.5095,-3.3027,0.7495,0.6446,-42.2250,6.3750,1.9500,
3.083175,2.7767,8.1706,6.5836,-3.3027,0.7495,0.6446,-42.2250,6.3750,1.9500,
3.102642,2.7767,8.1706,6.5836,-5.2725,1.0580,0.1900,-42.2250,6.3750,1.9500,
3.104016,2.7767,8.1706,6.5836,-5.2725,1.0580,0.1900,-42.2250,6.3750,1.9500,
3.104830,8.2691,6.2747,8.3421,-5.2725,1.0580,0.1900,-42.2250,6.3750,1.9500,
3.120199,8.2691,6.2747,8.3421,-5.2725,1.0580,0.1900,-42.2250,6.3750,1.9500,
3.121165,-8.2353,8.4758,7.1915,-5.2725,1.0580,0.1900,-42.2250,6.3750,1.9500,
3.127624,-8.2353,8.4758,7.1915,-5.2725,1.0580,0.1900,-41.8500,6.4500,2.7000,
3.138966,-8.2353,8.4758,7.1915,-5.2725,1.0580,0.1900,-41.8500,6.4500,2.7000,
3.140444,-3.7294,7.7650,4.4474,-5.2725,1.0580,0.1900,-41.8500,6.4500,2.7000,
3.159238,-3.7294,7.7650,4.4474,-5.2725,1.0580,0.1900,-41.8500,6.4500,2.7000,
3.160624,3.0277,4.8257,2.7732,-5.2725,1.0580,0.1900,-41.8500,6.4500,2.7000,
3.166592,3.0277,4.8257,2.7732,-3.8372,0.1257,0.2001,-41.8500,6.4500,2.7000,
3.178167,3.0277,4.8257,2.7732,-3.8372,0.1257,0.2001,-41.8500,6.4500,2.7000,
3.179538,-0.6796,4.5674,2.8448,-3.8372,0.1257,0.2001,-41.8500,6.4500,2.7000,
3.197654,-0.6796,4.5674,2.8448,-3.8372,0.1257,0.2001,-40.5750,6.8250,3.5250,
3.203551,-0.6796,4.5674,2.8448,-3.8372,0.1257,0.2001,-40.5750,6.8250,3.5250,
3.204754,-2.8264,3.9451,-2.8616,-3.8372,0.1257,0.2001,-40.5750,6.8250,3.5250,
3.222996,-2.8264,3.9451,-2.8616,-3.8372,0.1257,0.2001,-40.5750,6.8250,3.5250,
3.226538,-0.5570,-1.0464,-5.7103,-3.8372,0.1257,0.2001,-40.5750,6.8250,3.5250,
3.237603,-0.5570,-1.0464,-5.7103,-1.4720,-1.6523,-0.2336,-40.5750,6.8250,3.5250,
3.241173,-0.5570,-1.0464,-5.7103,-1.4720,-1.6523,-0.2336,-40.5750,6.8250,3.5250,
3.242906,-5.3520,-2.0342,-10.3684,-1.4720,-1.6523,-0.2336,-40.5750,6.8250,3.5250,
3.261105,-5.3520,-2.0342,-10.3684,-1.4720,-1.6523,-0.2336,-40.5750,6.8250,3.5250,
3.263835,-6.9384,-10.6344,-28.4661,-1.4720,-1.6523,-0.2336,-40.5750,6.8250,3.5250,
3.268593,-6.9384,-10.6344,-28.4661,-1.4720,-1.6523,-0.2336,-39.9000,6.1500,7.2750,
3.276865,-6.9384,-10.6344,-28.4661,-1.4720,-1.6523,-0.2336,-39.9000,6.1500,7.2750,
3.278813,3.1510,-12.3703,-28.8162,-1.4720,-1.6523,-0.2336,-39.9000,6.1500,7.2750,
3.299819,3.1510,-12.3703,-28.8162,-1.4720,-1.6523,-0.2336,-39.9000,6.1500,7.2750,
3.302109,2.2791,-2.6965,-8.1919,-1.4720,-1.6523,-0.2336,-39.9000,6.1500,7.2750,
3.304581,2.2791,-2.6965,-8.1919,2.6952,-2.3308,-0.2672,-39.9000,6.1500,7.2750,
3.321324,2.2791,-2.6965,-8.1919,2.6952,-2.3308,-0.2672,-39.9000,6.1500,7.2750,
3.322982,-2.1161,8.1887,-3.4557,2.6952,-2.3308,-0.2672,-39.9000,6.1500,7.2750,
3.336448,-2.1161,8.1887,-3.4557,2.6952,-2.3308,-0.2672,-39.9000,6.1500,7.2750,
3.338063,-0.0163,15.3063,-3.5935,2.6952,-2.3308,-0.2672,-39.9000,6.1500,7.2750,
3.339728,-0.0163,15.3063,-3.5935,2.6952,-2.3308,-0.2672,-37.2000,6.1500,13.9500,
3.358415,-0.0163,15.3063,-3.5935,2.6952,-2.3308,-0.2672,-37.2000,6.1500,13.9500,
3.361497,0.8379,11.4671,-6.9377,2.6952,-2.3308,-0.2672,-37.2000,6.1500,13.9500,
3.372937,0.8379,11.4671,-6.9377,1.6604,-0.0237,-0.2191,-37.2000,6.1500,13.9500,
3.379963,0.8379,11.4671,-6.9377,1.6604,-0.0237,-0.2191,-37.2000,6.1500,13.9500,
3.381667,-4.0153,-1.2416,-21.1794,1.6604,-0.0237,-0.2191,-37.2000,6.1500,13.9500,
3.400814,-4.0153,-1.2416,-21.1794,1.6604,-0.0237,-0.2191,-37.2000,6.1500,13.9500,
3.403275,-4.9841,4.4936,-21.8339,1.6604,-0.0237,-0.2191,-37.2000,6.1500,13.9500,
3.405217,-4.9841,4.4936,-21.8339,1.6604,-0.0237,-0.2191,-36.5250,7.3500,13.9500,
3.418079,-4.9841,4.4936,-21.8339,1.6604,-0.0237,-0.2191,-36.5250,7.3500,13.9500,
3.421909,-2.7620,3.5936,-8.4539,1.6604,-0.0237,-0.2191,-36.5250,7.3500,13.9500,
3.442617,-2.7620,3.5936,-8.4539,1.6604,-0.0237,-0.2191,-36.5250,7.3500,13.9500,
3.447562,-1.0907,2.0369,2.2606,1.6604,-0.0237,-0.2191,-36.5250,7.3500,13.9500,
3.450707,-1.0907,2.0369,2.2606,-1.8313,0.3160,-0.0893,-36.5250,7.3500,13.9500,
3.472983,-1.0907,2.0369,2.2606,-1.8313,0.3160,-0.0893,-36.5250,7.3500,13.9500,
3.474444,0.7449,2.8940,3.1399,-1.8313,0.3160,-0.0893,-36.5250,7.3500,13.9500,
3.475900,0.7449,2.8940,3.1399,-1.8313,0.3160,-0.0893,-36.6750,6.4500,13.6500,
3.477118,0.7449,2.8940,3.1399,-1.8313,0.3160,-0.0893,-36.6750,6.4500,13.6500,
3.478153,1.2831,4.0532,1.7817,-1.8313,0.3160,-0.0893,-36.6750,6.4500,13.6500,
3.500746,1.2831,4.0532,1.7817,-1.8313,0.3160,-0.0893,-36.6750,6.4500,13.6500,
3.502341,0.0211,3.1825,0.7454,-1.8313,0.3160,-0.0893,-36.6750,6.4500,13.6500,
3.516199,0.0211,3.1825,0.7454,-1.0708,0.4006,-0.0037,-36.6750,6.4500,13.6500,
3.521542,0.0211,3.1825,0.7454,-1.0708,0.4006,-0.0037,-36.6750,6.4500,13.6500,
3.522878,-0.4275,1.7797,1.5376,-1.0708,0.4006,-0.0037,-36.6750,6.4500,13.6500,
3.540397,-0.4275,1.7797,1.5376,-1.0708,0.4006,-0.0037,-36.6750,6.4500,13.6500,
3.542397,0.4497,1.2844,2.3598,-1.0708,0.4006,-0.0037,-36.6750,6.4500,13.6500,
3.543872,0.4497,1.2844,2.3598,-1.0708,0.4006,-0.0037,-36.9000,5.4750,12.9750,
3.560552,0.4497,1.2844,2.3598,-1.0708,0.4006,-0.0037,-36.9000,5.4750,12.9750,
3.562910,0.9271,1.3288,2.1429,-1.0708,0.4006,-0.0037,-36.9000,5.4750,12.9750,
3.576888,0.9271,1.3288,2.1429,-1.0708,0.4006,-0.0037,-36.9000,5.4750,12.9750,
3.579550,0.7058,2.5552,1.9174,-1.0708,0.4006,-0.0037,-36.9000,5.4750,12.9750,
3.583687,0.7058,2.5552,1.9174,-0.3013,0.1060,0.1538,-36.9000,5.4750,12.9750,
3.599747,0.7058,2.5552,1.9174,-0.3013,0.1060,0.1538,-36.9000,5.4750,12.9750,
3.601171,0.0289,1.9646,1.0481,-0.3013,0.1060,0.1538,-36.9000,5.4750,12.9750,
3.608330,0.0289,1.9646,1.0481,-0.3013,0.1060,0.1538,-37.5000,5.3250,13.1250,
3.617905,0.0289,1.9646,1.0481,-0.3013,0.1060,0.1538,-37.5000,5.3250,13.1250,
3.619521,-0.1455,1.5314,-0.8996,-0.3013,0.1060,0.1538,-37.5000,5.3250,13.1250,
3.634242,-0.1455,1.5314,-0.8996,-0.3013,0.1060,0.1538,-37.5000,5.3250,13.1250,
3.636053,-0.2365,1.5897,-2.5721,-0.3013,0.1060,0.1538,-37.5000,5.3250,13.1250,
3.651818,-0.2365,1.5897,-2.5721,0.2813,-0.0574,0.1449,-37.5000,5.3250,13.1250,
3.656401,-0.2365,1.5897,-2.5721,0.2813,-0.0574,0.1449,-37.5000,5.3250,13.1250,
3.657757,-0.4981,0.7572,-2.7277,0.2813,-0.0574,0.1449,-37.5000,5.3250,13.1250,
3.676978,-0.4981,0.7572,-2.7277,0.2813,-0.0574,0.1449,-37.5000,5.3250,13.1250,
3.678939,-0.4698,0.2399,-2.0203,0.2813,-0.0574,0.1449,-37.5000,5.3250,13.1250,
3.686207,-0.4698,0.2399,-2.0203,0.2813,-0.0574,0.1449,-37.5750,5.3250,13.4250,
3.701191,-0.4698,0.2399,-2.0203,0.2813,-0.0574,0.1449,-37.5750,5.3250,13.4250,
3.704936,-0.0154,0.1717,-1.3924,0.2813,-0.0574,0.1449,-37.5750,5.3250,13.4250,
3.723248,-0.0154,0.1717,-1.3924,0.2813,-0.0574,0.1449,-37.5750,5.3250,13.4250,
3.726373,0.3130,0.3713,-0.8641,0.2813,-0.0574,0.1449,-37.5750,5.3250,13.4250,
3.728878,0.3130,0.3713,-0.8641,0.2914,-0.0783,0.0254,-37.5750,5.3250,13.4250,
3.740556,0.3130,0.3713,-0.8641,0.2914,-0.0783,0.0254,-37.5750,5.3250,13.4250,
3.742598,0.1385,0.2602,-0.4142,0.2914,-0.0783,0.0254,-37.5750,5.3250,13.4250,
3.750326,0.1385,0.2602,-0.4142,0.2914,-0.0783,0.0254,-37.2000,5.9250,12.9000,
3.760051,0.1385,0.2602,-0.4142,0.2914,-0.0783,0.0254,-37.2000,5.9250,12.9000,
3.762275,0.0216,-0.0381,0.1184,0.2914,-0.0783,0.0254,-37.2000,5.9250,12.9000,
3.777029,0.0216,-0.0381,0.1184,0.2914,-0.0783,0.0254,-37.2000,5.9250,12.9000,
3.779490,-0.2308,-0.3952,0.6365,0.2914,-0.0783,0.0254,-37.2000,5.9250,12.9000,
3.793792,-0.2308,-0.3952,0.6365,0.0904,-0.0673,-0.0528,-37.2000,5.9250,12.9000,
3.802095,-0.2308,-0.3952,0.6365,0.0904,-0.0673,-0.0528,-37.2000,5.9250,12.9000,
3.804064,-0.4177,-0.4576,1.0599,0.0904,-0.0673,-0.0528,-37.2000,5.9250,12.9000,
3.818341,-0.4177,-0.4576,1.0599,0.0904,-0.0673,-0.0528,-37.2000,5.9250,12.9000,
3.821058,-0.5179,-0.4369,1.2071,0.0904,-0.0673,-0.0528,-37.2000,5.9250,12.9000,
3.822897,-0.5179,-0.4369,1.2071,0.0904,-0.0673,-0.0528,-36.7500,6.0750,13.4250,
3.838217,-0.5179,-0.4369,1.2071,0.0904,-0.0673,-0.0528,-36.7500,6.0750,13.4250,
3.841541,-0.5565,-0.5387,1.3267,0.0904,-0.0673,-0.0528,-36.7500,6.0750,13.4250,
3.857490,-0.5565,-0.5387,1.3267,0.0904,-0.0673,-0.0528,-36.7500,6.0750,13.4250,
3.860810,-0.3386,0.0576,0.6981,0.0904,-0.0673,-0.0528,-36.7500,6.0750,13.4250,
3.862857,-0.3386,0.0576,0.6981,0.1133,-0.0154,-0.0464,-36.7500,6.0750,13.4250,
3.874479,-0.3386,0.0576,0.6981,0.1133,-0.0154,-0.0464,-36.7500,6.0750,13.4250,
3.877145,-0.2247,0.1512,0.3265,0.1133,-0.0154,-0.0464,-36.7500,6.0750,13.4250,
3.887010,-0.2247,0.1512,0.3265,0.1133,-0.0154,-0.0464,-37.4250,6.1500,12.7500,
3.896449,-0.2247,0.1512,0.3265,0.1133,-0.0154,-0.0464,-37.4250,6.1500,12.7500,
3.898362,-0.2133,0.1101,0.1364,0.1133,-0.0154,-0.0464,-37.4250,6.1500,12.7500,
3.916214,-0.2133,0.1101,0.1364,0.1133,-0.0154,-0.0464,-37.4250,6.1500,12.7500,
3.919311,-0.2447,0.0887,-0.2307,0.1133,-0.0154,-0.0464,-37.4250,6.1500,12.7500,
3.932851,-0.2447,0.0887,-0.2307,-0.0185,-0.0490,-0.0254,-37.4250,6.1500,12.7500,
3.935695,-0.2447,0.0887,-0.2307,-0.0185,-0.0490,-0.0254,-37.4250,6.1500,12.7500,
3.937480,-0.2501,0.1881,-0.3707,-0.0185,-0.0490,-0.0254,-37.4250,6.1500,12.7500,
3.955894,-0.2501,0.1881,-0.3707,-0.0185,-0.0490,-0.0254,-37.4250,6.1500,12.7500,
3.958262,-0.2084,0.2999,-0.3879,-0.0185,-0.0490,-0.0254,-37.4250,6.1500,12.7500,
3.960978,-0.2084,0.2999,-0.3879,-0.0185,-0.0490,-0.0254,-37.8000,5.5500,13.6500,
3.975309,-0.2084,0.2999,-0.3879,-0.0185,-0.0490,-0.0254,-37.8000,5.5500,13.6500,
3.978753,-0.0780,0.1691,-0.2811,-0.0185,-0.0490,-0.0254,-37.8000,5.5500,13.6500,
3.999942,-0.0780,0.1691,-0.2811,-0.0185,-0.0490,-0.0254,-37.8000,5.5500,13.6500,
4.003606,-0.2143,0.2379,-0.1277,-0.0185,-0.0490,-0.0254,-37.8000,5.5500,13.6500,
4.006332,-0.2143,0.2379,-0.1277,-0.1463,0.0353,0.0037,-37.8000,5.5500,13.6500,
4.019309,-0.2143,0.2379,-0.1277,-0.1463,0.0353,0.0037,-37.8000,5.5500,13.6500,
4.021969,-0.1556,0.3330,0.1699,-0.1463,0.0353,0.0037,-37.8000,5.5500,13.6500,
4.036741,-0.1556,0.3330,0.1699,-0.1463,0.0353,0.0037,-37.8000,5.5500,13.6500,
4.039205,-0.0585,0.3795,0.1029,-0.1463,0.0353,0.0037,-37.8000,5.5500,13.6500,
4.041372,-0.0585,0.3795,0.1029,-0.1463,0.0353,0.0037,-37.6500,6.1500,12.9750,
4.058115,-0.0585,0.3795,0.1029,-0.1463,0.0353,0.0037,-37.6500,6.1500,12.9750,
4.062755,-0.1342,0.3005,-0.1081,-0.1463,0.0353,0.0037,-37.6500,6.1500,12.9750,
4.073156,-0.1342,0.3005,-0.1081,-0.0567,0.0898,0.0026,-37.6500,6.1500,12.9750,
4.077422,-0.1342,0.3005,-0.1081,-0.0567,0.0898,0.0026,-37.6500,6.1500,12.9750,
4.079991,-0.1691,0.2682,0.0307,-0.0567,0.0898,0.0026,-37.6500,6.1500,12.9750,
4.100544,-0.1691,0.2682,0.0307,-0.0567,0.0898,0.0026,-37.6500,6.1500,12.9750,
4.103174,-0.0967,0.3691,0.0164,-0.0567,0.0898,0.0026,-37.6500,6.1500,12.9750,
4.105202,-0.0967,0.3691,0.0164,-0.0567,0.0898,0.0026,-36.7500,5.5500,12.7500,
4.117512,-0.0967,0.3691,0.0164,-0.0567,0.0898,0.0026,-36.7500,5.5500,12.7500,
4.119818,-0.1965,0.3288,-0.2047,-0.0567,0.0898,0.0026,-36.7500,5.5500,12.7500,
4.136070,-0.1965,0.3288,-0.2047,-0.0567,0.0898,0.0026,-36.7500,5.5500,12.7500,
4.138246,-0.2916,0.0499,-0.3690,-0.0567,0.0898,0.0026,-36.7500,5.5500,12.7500,
4.140843,-0.2916,0.0499,-0.3690,0.0528,0.0545,-0.0122,-36.7500,5.5500,12.7500,
4.155988,-0.2916,0.0499,-0.3690,0.0528,0.0545,-0.0122,-36.7500,5.5500,12.7500,
4.158452,-0.3076,0.3062,-0.7642,0.0528,0.0545,-0.0122,-36.7500,5.5500,12.7500,
4.166156,-0.3076,0.3062,-0.7642,0.0528,0.0545,-0.0122,-37.5750,4.7250,12.9750,
4.175527,-0.3076,0.3062,-0.7642,0.0528,0.0545,-0.0122,-37.5750,4.7250,12.9750,
4.177223,-0.5422,0.9043,-1.1857,0.0528,0.0545,-0.0122,-37.5750,4.7250,12.9750,
4.194717,-0.5422,0.9043,-1.1857,0.0528,0.0545,-0.0122,-37.5750,4.7250,12.9750,
4.197496,-0.3127,0.6870,-1.9746,0.0528,0.0545,-0.0122,-37.5750,4.7250,12.9750,
4.209345,-0.3127,0.6870,-1.9746,0.1271,-0.0246,-0.0461,-37.5750,4.7250,12.9750,
4.219184,-0.3127,0.6870,-1.9746,0.1271,-0.0246,-0.0461,-37.5750,4.7250,12.9750,
4.221288,-0.0319,0.0770,-2.9442,0.1271,-0.0246,-0.0461,-37.5750,4.7250,12.9750,
4.233841,-0.0319,0.0770,-2.9442,0.1271,-0.0246,-0.0461,-37.5750,4.7250,12.9750,
4.236258,0.1670,0.0095,-3.0733,0.1271,-0.0246,-0.0461,-37.5750,4.7250,12.9750,
4.237801,0.1670,0.0095,-3.0733,0.1271,-0.0246,-0.0461,-37.2000,6.0750,12.4500,
4.253235,0.1670,0.0095,-3.0733,0.1271,-0.0246,-0.0461,-37.2000,6.0750,12.4500,
4.254883,0.8793,1.0623,-2.8550,0.1271,-0.0246,-0.0461,-37.2000,6.0750,12.4500,
4.273142,0.8793,1.0623,-2.8550,0.1271,-0.0246,-0.0461,-37.2000,6.0750,12.4500,
4.275678,0.8708,0.7090,-2.7987,0.1271,-0.0246,-0.0461,-37.2000,6.0750,12.4500,
4.283444,0.8708,0.7090,-2.7987,0.1252,0.0125,-0.1031,-37.2000,6.0750,12.4500,
4.300041,0.8708,0.7090,-2.7987,0.1252,0.0125,-0.1031,-37.2000,6.0750,12.4500,
4.301850,0.0323,0.6503,-3.2014,0.1252,0.0125,-0.1031,-37.2000,6.0750,12.4500,
4.308190,0.0323,0.6503,-3.2014,0.1252,0.0125,-0.1031,-38.3250,5.5500,13.0500,
4.317362,0.0323,0.6503,-3.2014,0.1252,0.0125,-0.1031,-38.3250,5.5500,13.0500,
4.319631,-0.0890,0.5532,-3.0326,0.1252,0.0125,-0.1031,-38.3250,5.5500,13.0500,
4.336652,-0.0890,0.5532,-3.0326,0.1252,0.0125,-0.1031,-38.3250,5.5500,13.0500,
4.338672,-0.3791,1.2965,-2.9961,0.1252,0.0125,-0.1031,-38.3250,5.5500,13.0500,
4.351372,-0.3791,1.2965,-2.9961,-0.2914,0.3176,0.0221,-38.3250,5.5500,13.0500,
4.354214,-0.3791,1.2965,-2.9961,-0.2914,0.3176,0.0221,-38.3250,5.5500,13.0500,
4.355870,-0.8401,2.1898,-2.6882,-0.2914,0.3176,0.0221,-38.3250,5.5500,13.0500,
4.376815,-0.8401,2.1898,-2.6882,-0.2914,0.3176,0.0221,-38.3250,5.5500,13.0500,
4.378806,-0.1286,2.0724,-1.5345,-0.2914,0.3176,0.0221,-38.3250,5.5500,13.0500,
4.381328,-0.1286,2.0724,-1.5345,-0.2914,0.3176,0.0221,-38.7000,5.4750,12.9000,
4.395339,-0.1286,2.0724,-1.5345,-0.2914,0.3176,0.0221,-38.7000,5.4750,12.9000,
4.397825,-0.0183,1.9450,-1.0157,-0.2914,0.3176,0.0221,-38.7000,5.4750,12.9000,
4.417775,-0.0183,1.9450,-1.0157,-0.2914,0.3176,0.0221,-38.7000,5.4750,12.9000,
4.420719,-0.1208,1.7696,-0.7679,-0.2914,0.3176,0.0221,-38.7000,5.4750,12.9000,
4.422926,-0.1208,1.7696,-0.7679,-0.8611,-0.0159,0.1706,-38.7000,5.4750,12.9000,
4.434694,-0.1208,1.7696,-0.7679,-0.8611,-0.0159,0.1706,-38.7000,5.4750,12.9000,
4.437741,-0.4155,1.9425,0.4844,-0.8611,-0.0159,0.1706,-38.7000,5.4750,12.9000,
4.450253,-0.4155,1.9425,0.4844,-0.8611,-0.0159,0.1706,-38.3250,5.1750,12.7500,
4.454292,-0.4155,1.9425,0.4844,-0.8611,-0.0159,0.1706,-38.3250,5.1750,12.7500,
4.455860,-0.6365,1.4804,0.8165,-0.8611,-0.0159,0.1706,-38.3250,5.1750,12.7500,
4.473749,-0.6365,1.4804,0.8165,-0.8611,-0.0159,0.1706,-38.3250,5.1750,12.7500,
4.476259,-0.6279,1.5430,0.7381,-0.8611,-0.0159,0.1706,-38.3250,5.1750,12.7500,
4.488259,-0.6279,1.5430,0.7381,-0.9430,-0.2648,0.1109,-38.3250,5.1750,12.7500,
4.492988,-0.6279,1.5430,0.7381,-0.9430,-0.2648,0.1109,-38.3250,5.1750,12.7500,
4.494600,-0.0605,0.5648,1.4991,-0.9430,-0.2648,0.1109,-38.3250,5.1750,12.7500,
4.512745,-0.0605,0.5648,1.4991,-0.9430,-0.2648,0.1109,-38.3250,5.1750,12.7500,
4.515310,-0.0296,0.0199,1.5169,-0.9430,-0.2648,0.1109,-38.3250,5.1750,12.7500,
4.517294,-0.0296,0.0199,1.5169,-0.9430,-0.2648,0.1109,-38.9250,3.7500,14.7750,
4.537692,-0.0296,0.0199,1.5169,-0.9430,-0.2648,0.1109,-38.9250,3.7500,14.7750,
4.542861,0.0254,-0.3030,2.1623,-0.9430,-0.2648,0.1109,-38.9250,3.7500,14.7750,
4.559740,0.0254,-0.3030,2.1623,-0.9430,-0.2648,0.1109,-38.9250,3.7500,14.7750,
4.562369,0.0198,-0.6805,2.4943,-0.9430,-0.2648,0.1109,-38.9250,3.7500,14.7750,
4.564442,0.0198,-0.6805,2.4943,-0.5314,-0.5330,-0.0664,-38.9250,3.7500,14.7750,
4.576252,0.0198,-0.6805,2.4943,-0.5314,-0.5330,-0.0664,-38.9250,3.7500,14.7750,
4.578499,-0.1719,-0.7809,2.1574,-0.5314,-0.5330,-0.0664,-38.9250,3.7500,14.7750,
4.586525,-0.1719,-0.7809,2.1574,-0.5314,-0.5330,-0.0664,-38.4750,3.5250,15.8250,
4.593826,-0.1719,-0.7809,2.1574,-0.5314,-0.5330,-0.0664,-38.4750,3.5250,15.8250,
4.595180,-0.2477,-1.1294,2.5273,-0.5314,-0.5330,-0.0664,-38.4750,3.5250,15.8250,
4.615404,-0.2477,-1.1294,2.5273,-0.5314,-0.5330,-0.0664,-38.4750,3.5250,15.8250,
4.617658,-1.0347,-1.4931,1.6197,-0.5314,-0.5330,-0.0664,-38.4750,3.5250,15.8250,
4.630007,-1.0347,-1.4931,1.6197,-0.2495,-0.3922,0.0872,-38.4750,3.5250,15.8250,
4.635114,-1.0347,-1.4931,1.6197,-0.2495,-0.3922,0.0872,-38.4750,3.5250,15.8250,
4.636900,-1.7976,-1.3504,0.8058,-0.2495,-0.3922,0.0872,-38.4750,3.5250,15.8250,
4.654323,-1.7976,-1.3504,0.8058,-0.2495,-0.3922,0.0872,-38.4750,3.5250,15.8250,
4.656787,-1.5301,-0.7177,0.5094,-0.2495,-0.3922,0.0872,-38.4750,3.5250,15.8250,
4.658475,-1.5301,-0.7177,0.5094,-0.2495,-0.3922,0.0872,-38.0250,4.0500,17.0250,
4.674228,-1.5301,-0.7177,0.5094,-0.2495,-0.3922,0.0872,-38.0250,4.0500,17.0250,
4.676617,-0.6423,-1.0527,0.7861,-0.2495,-0.3922,0.0872,-38.0250,4.0500,17.0250,
4.693711,-0.6423,-1.0527,0.7861,-0.2495,-0.3922,0.0872,-38.0250,4.0500,17.0250,
4.696141,-1.2181,-0.4796,0.3988,-0.2495,-0.3922,0.0872,-38.0250,4.0500,17.0250,
4.698508,-1.2181,-0.4796,0.3988,-0.1025,-0.4363,0.2066,-38.0250,4.0500,17.0250,
4.713964,-1.2181,-0.4796,0.3988,-0.1025,-0.4363,0.2066,-38.0250,4.0500,17.0250,
4.716626,-1.3878,0.2996,-0.0897,-0.1025,-0.4363,0.2066,-38.0250,4.0500,17.0250,
4.726514,-1.3878,0.2996,-0.0897,-0.1025,-0.4363,0.2066,-37.8750,4.0500,18.1500,
4.734150,-1.3878,0.2996,-0.0897,-0.1025,-0.4363,0.2066,-37.8750,4.0500,18.1500,
4.735593,-1.2372,0.9856,0.2992,-0.1025,-0.4363,0.2066,-37.8750,4.0500,18.1500,
4.752397,-1.2372,0.9856,0.2992,-0.1025,-0.4363,0.2066,-37.8750,4.0500,18.1500,
4.754109,-1.4211,2.4864,-0.7237,-0.1025,-0.4363,0.2066,-37.8750,4.0500,18.1500,
4.767108,-1.4211,2.4864,-0.7237,-0.3024,-0.7483,0.0470,-37.8750,4.0500,18.1500,
4.772346,-1.4211,2.4864,-0.7237,-0.3024,-0.7483,0.0470,-37.8750,4.0500,18.1500,
4.773791,-2.5627,2.9107,-2.0954,-0.3024,-0.7483,0.0470,-37.8750,4.0500,18.1500,
4.798491,-2.5627,2.9107,-2.0954,-0.3024,-0.7483,0.0470,-37.8750,4.0500,18.1500,
4.800443,-4.0216,-3.3851,-2.0178,-0.3024,-0.7483,0.0470,-37.8750,4.0500,18.1500,
4.802166,-4.0216,-3.3851,-2.0178,-0.3024,-0.7483,0.0470,-36.1500,4.7250,19.7250,
4.816882,-4.0216,-3.3851,-2.0178,-0.3024,-0.7483,0.0470,-36.1500,4.7250,19.7250,
4.818697,4.3302,0.0365,0.2898,-0.3024,-0.7483,0.0470,-36.1500,4.7250,19.7250,
4.835199,4.3302,0.0365,0.2898,-0.3024,-0.7483,0.0470,-36.1500,4.7250,19.7250,
4.837427,7.2109,3.1715,2.3340,-0.3024,-0.7483,0.0470,-36.1500,4.7250,19.7250,
4.840255,7.2109,3.1715,2.3340,-0.3146,-0.7691,-0.1255,-36.1500,4.7250,19.7250,
4.855350,7.2109,3.1715,2.3340,-0.3146,-0.7691,-0.1255,-36.1500,4.7250,19.7250,
4.857755,5.5282,2.8206,4.2955,-0.3146,-0.7691,-0.1255,-36.1500,4.7250,19.7250,
4.866281,5.5282,2.8206,4.2955,-0.3146,-0.7691,-0.1255,-35.0250,3.7500,22.2750,
4.874842,5.5282,2.8206,4.2955,-0.3146,-0.7691,-0.1255,-35.0250,3.7500,22.2750,
4.877466,-3.0592,0.1945,0.0168,-0.3146,-0.7691,-0.1255,-35.0250,3.7500,22.2750,
4.895366,-3.0592,0.1945,0.0168,-0.3146,-0.7691,-0.1255,-35.0250,3.7500,22.2750,
4.897943,-6.0758,-2.6869,-3.2779,-0.3146,-0.7691,-0.1255,-35.0250,3.7500,22.2750,
4.908771,-6.0758,-2.6869,-3.2779,-0.1124,-0.3346,0.1559,-35.0250,3.7500,22.2750,
4.916802,-6.0758,-2.6869,-3.2779,-0.1124,-0.3346,0.1559,-35.0250,3.7500,22.2750,
4.918969,0.2508,0.6826,-0.9191,-0.1124,-0.3346,0.1559,-35.0250,3.7500,22.2750,
4.933243,0.2508,0.6826,-0.9191,-0.1124,-0.3346,0.1559,-35.0250,3.7500,22.2750,
4.934979,3.6713,1.2957,-0.2113,-0.1124,-0.3346,0.1559,-35.0250,3.7500,22.2750,
4.936814,3.6713,1.2957,-0.2113,-0.1124,-0.3346,0.1559,-34.8750,3.2250,23.0250,
4.953266,3.6713,1.2957,-0.2113,-0.1124,-0.3346,0.1559,-34.8750,3.2250,23.0250,
4.956288,3.2133,0.6955,-0.8553,-0.1124,-0.3346,0.1559,-34.8750,3.2250,23.0250,
4.972684,3.2133,0.6955,-0.8553,-0.1124,-0.3346,0.1559,-34.8750,3.2250,23.0250,
4.974718,1.4069,0.0110,0.4368,-0.1124,-0.3346,0.1559,-34.8750,3.2250,23.0250,
4.977041,1.4069,0.0110,0.4368,0.1636,-0.3567,-0.2312,-34.8750,3.2250,23.0250,
4.992513,1.4069,0.0110,0.4368,0.1636,-0.3567,-0.2312,-34.8750,3.2250,23.0250,
4.994383,1.5138,-0.2987,0.0729,0.1636,-0.3567,-0.2312,-34.8750,3.2250,23.0250,
5.007547,1.5138,-0.2987,0.0729,0.1636,-0.3567,-0.2312,-34.6500,3.4500,23.6250,
5.009789,1.5138,-0.2987,0.0729,0.1636,-0.3567,-0.2312,-34.6500,3.4500,23.6250,
5.011295,1.4895,0.1362,-0.5708,0.1636,-0.3567,-0.2312,-34.6500,3.4500,23.6250,
5.027681,1.4895,0.1362,-0.5708,0.1636,-0.3567,-0.2312,-34.6500,3.4500,23.6250,
5.030151,0.4371,0.4255,-0.7743,0.1636,-0.3567,-0.2312,-34.6500,3.4500,23.6250,
5.045518,0.4371,0.4255,-0.7743,0.4670,0.6588,0.0460,-34.6500,3.4500,23.6250,
5.050657,0.4371,0.4255,-0.7743,0.4670,0.6588,0.0460,-34.6500,3.4500,23.6250,
5.052509,-0.3378,0.0208,0.0393,0.4670,0.6588,0.0460,-34.6500,3.4500,23.6250,
5.072591,-0.3378,0.0208,0.0393,0.4670,0.6588,0.0460,-34.6500,3.4500,23.6250,
5.075552,0.2167,0.2904,0.0892,0.4670,0.6588,0.0460,-34.6500,3.4500,23.6250,
5.078283,0.2167,0.2904,0.0892,0.4670,0.6588,0.0460,-35.1750,4.0500,23.1750,
5.095831,0.2167,0.2904,0.0892,0.4670,0.6588,0.0460,-35.1750,4.0500,23.1750,
5.098172,0.2010,-0.1973,0.1608,0.4670,0.6588,0.0460,-35.1750,4.0500,23.1750,
5.116548,0.2010,-0.1973,0.1608,0.4670,0.6588,0.0460,-35.1750,4.0500,23.1750,
5.118594,0.0779,-0.0433,1.0089,0.4670,0.6588,0.0460,-35.1750,4.0500,23.1750,
5.120535,0.0779,-0.0433,1.0089,0.4948,0.6562,0.0017,-35.1750,4.0500,23.1750,
5.134081,0.0779,-0.0433,1.0089,0.4948,0.6562,0.0017,-35.1750,4.0500,23.1750,
5.136061,0.4753,0.1945,0.6184,0.4948,0.6562,0.0017,-35.1750,4.0500,23.1750,
5.149224,0.4753,0.1945,0.6184,0.4948,0.6562,0.0017,-36.0750,4.9500,21.8250,
5.153563,0.4753,0.1945,0.6184,0.4948,0.6562,0.0017,-36.0750,4.9500,21.8250,
5.154879,0.6414,0.1422,0.2793,0.4948,0.6562,0.0017,-36.0750,4.9500,21.8250,
5.172971,0.6414,0.1422,0.2793,0.4948,0.6562,0.0017,-36.0750,4.9500,21.8250,
5.174953,0.2942,0.1107,0.5197,0.4948,0.6562,0.0017,-36.0750,4.9500,21.8250,
5.187682,0.2942,0.1107,0.5197,0.3790,0.5739,0.0794,-36.0750,4.9500,21.8250,
5.192581,0.2942,0.1107,0.5197,0.3790,0.5739,0.0794,-36.0750,4.9500,21.8250,
5.193803,0.1118,0.0612,0.7927,0.3790,0.5739,0.0794,-36.0750,4.9500,21.8250,
5.212392,0.1118,0.0612,0.7927,0.3790,0.5739,0.0794,-36.0750,4.9500,21.8250,
5.214462,-0.0732,-0.1332,1.0861,0.3790,0.5739,0.0794,-36.0750,4.9500,21.8250,
5.216745,-0.0732,-0.1332,1.0861,0.3790,0.5739,0.0794,-36.8250,5.2500,20.1750,
5.226860,-0.0732,-0.1332,1.0861,0.3790,0.5739,0.0794,-36.8250,5.2500,20.1750,
5.228906,0.4689,0.0144,0.7020,0.3790,0.5739,0.0794,-36.8250,5.2500,20.1750,
5.251297,0.4689,0.0144,0.7020,0.3790,0.5739,0.0794,-36.8250,5.2500,20.1750,
5.253601,0.6133,0.4582,0.2837,0.3790,0.5739,0.0794,-36.8250,5.2500,20.1750,
5.255921,0.6133,0.4582,0.2837,0.2990,0.5411,0.1242,-36.8250,5.2500,20.1750,
5.271133,0.6133,0.4582,0.2837,0.2990,0.5411,0.1242,-36.8250,5.2500,20.1750,
5.273233,0.3274,0.6317,0.0957,0.2990,0.5411,0.1242,-36.8250,5.2500,20.1750,
5.286365,0.3274,0.6317,0.0957,0.2990,0.5411,0.1242,-37.9500,6.5250,18.1500,
5.288606,0.3274,0.6317,0.0957,0.2990,0.5411,0.1242,-37.9500,6.5250,18.1500,
5.289885,1.1736,0.1737,0.9389,0.2990,0.5411,0.1242,-37.9500,6.5250,18.1500,
5.310131,1.1736,0.1737,0.9389,0.2990,0.5411,0.1242,-37.9500,6.5250,18.1500,
5.312762,1.1300,0.1402,0.6709,0.2990,0.5411,0.1242,-37.9500,6.5250,18.1500,
5.325100,1.1300,0.1402,0.6709,0.1744,0.7388,0.0965,-37.9500,6.5250,18.1500,
5.328376,1.1300,0.1402,0.6709,0.1744,0.7388,0.0965,-37.9500,6.5250,18.1500,
5.330728,1.0371,0.3542,1.0031,0.1744,0.7388,0.0965,-37.9500,6.5250,18.1500,
5.348912,1.0371,0.3542,1.0031,0.1744,0.7388,0.0965,-37.9500,6.5250,18.1500,
5.350857,0.8547,0.5837,1.2984,0.1744,0.7388,0.0965,-37.9500,6.5250,18.1500,
5.356274,0.8547,0.5837,1.2984,0.1744,0.7388,0.0965,-38.3250,6.8250,16.6500,
5.368855,0.8547,0.5837,1.2984,0.1744,0.7388,0.0965,-38.3250,6.8250,16.6500,
5.371470,0.6955,0.8941,1.0146,0.1744,0.7388,0.0965,-38.3250,6.8250,16.6500,
5.393142,0.6955,0.8941,1.0146,0.1744,0.7388,0.0965,-38.3250,6.8250,16.6500,
5.395263,0.1711,1.2830,1.0082,0.1744,0.7388,0.0965,-38.3250,6.8250,16.6500,
5.397904,0.1711,1.2830,1.0082,0.2676,0.9583,0.0883,-38.3250,6.8250,16.6500,
5.422754,0.1711,1.2830,1.0082,0.2676,0.9583,0.0883,-38.3250,6.8250,16.6500,
5.424946,0.1103,1.5128,0.9496,0.2676,0.9583,0.0883,-38.3250,6.8250,16.6500,
5.431803,0.1103,1.5128,0.9496,0.2676,0.9583,0.0883,-38.4000,7.6500,13.8000,
5.434273,0.1103,1.5128,0.9496,0.2676,0.9583,0.0883,-38.4000,7.6500,13.8000,
5.435671,-0.1781,1.6904,0.5263,0.2676,0.9583,0.0883,-38.4000,7.6500,13.8000,
5.452080,-0.1781,1.6904,0.5263,0.2676,0.9583,0.0883,-38.4000,7.6500,13.8000,
5.454231,-0.3279,1.6633,0.9959,0.2676,0.9583,0.0883,-38.4000,7.6500,13.8000,
5.468257,-0.3279,1.6633,0.9959,0.1842,0.8979,0.1437,-38.4000,7.6500,13.8000,
5.471651,-0.3279,1.6633,0.9959,0.1842,0.8979,0.1437,-38.4000,7.6500,13.8000,
5.473307,0.1837,1.5786,0.8182,0.1842,0.8979,0.1437,-38.4000,7.6500,13.8000,
5.491300,0.1837,1.5786,0.8182,0.1842,0.8979,0.1437,-38.4000,7.6500,13.8000,
5.492529,-0.1013,1.5899,0.3292,0.1842,0.8979,0.1437,-38.4000,7.6500,13.8000,
5.497545,-0.1013,1.5899,0.3292,0.1842,0.8979,0.1437,-39.6750,8.0250,10.7250,
5.510568,-0.1013,1.5899,0.3292,0.1842,0.8979,0.1437,-39.6750,8.0250,10.7250,
5.512100,0.0208,1.1838,0.1497,0.1842,0.8979,0.1437,-39.6750,8.0250,10.7250,
5.527030,0.0208,1.1838,0.1497,0.1842,0.8979,0.1437,-39.6750,8.0250,10.7250,
5.529171,-0.1427,1.0489,0.5572,0.1842,0.8979,0.1437,-39.6750,8.0250,10.7250,
5.534952,-0.1427,1.0489,0.5572,0.0974,0.8559,0.2033,-39.6750,8.0250,10.7250,
5.551701,-0.1427,1.0489,0.5572,0.0974,0.8559,0.2033,-39.6750,8.0250,10.7250,
5.554091,0.1465,0.8226,0.1030,0.0974,0.8559,0.2033,-39.6750,8.0250,10.7250,
5.568322,0.1465,0.8226,0.1030,0.0974,0.8559,0.2033,-40.0500,8.5500,8.4750,
5.570703,0.1465,0.8226,0.1030,0.0974,0.8559,0.2033,-40.0500,8.5500,8.4750,
5.572255,-0.3730,0.7642,0.0634,0.0974,0.8559,0.2033,-40.0500,8.5500,8.4750,
5.588871,-0.3730,0.7642,0.0634,0.0974,0.8559,0.2033,-40.0500,8.5500,8.4750,
5.591253,-0.0563,0.5578,0.3968,0.0974,0.8559,0.2033,-40.0500,8.5500,8.4750,
5.603518,-0.0563,0.5578,0.3968,0.2546,1.0184,0.2929,-40.0500,8.5500,8.4750,
5.608304,-0.0563,0.5578,0.3968,0.2546,1.0184,0.2929,-40.0500,8.5500,8.4750,
5.609612,-0.1645,0.0043,-0.6890,0.2546,1.0184,0.2929,-40.0500,8.5500,8.4750,
5.627342,-0.1645,0.0043,-0.6890,0.2546,1.0184,0.2929,-40.0500,8.5500,8.4750,
5.630178,-0.8459,-0.6225,-1.1139,0.2546,1.0184,0.2929,-40.0500,8.5500,8.4750,
5.639830,-0.8459,-0.6225,-1.1139,0.2546,1.0184,0.2929,-40.7250,9.6750,4.7250,
5.652715,-0.8459,-0.6225,-1.1139,0.2546,1.0184,0.2929,-40.7250,9.6750,4.7250,
5.654663,-0.2836,-1.3637,-0.9648,0.2546,1.0184,0.2929,-40.7250,9.6750,4.7250,
5.672096,-0.2836,-1.3637,-0.9648,0.2546,1.0184,0.2929,-40.7250,9.6750,4.7250,
5.674541,-0.7329,-1.2427,-1.9728,0.2546,1.0184,0.2929,-40.7250,9.6750,4.7250,
5.676913,-0.7329,-1.2427,-1.9728,0.4873,0.6950,0.3431,-40.7250,9.6750,4.7250,
5.691468,-0.7329,-1.2427,-1.9728,0.4873,0.6950,0.3431,-40.7250,9.6750,4.7250,
5.693431,-1.2536,-2.0869,-1.4856,0.4873,0.6950,0.3431,-40.7250,9.6750,4.7250,
5.706847,-1.2536,-2.0869,-1.4856,0.4873,0.6950,0.3431,-40.9500,10.4250,3.2250,
5.709804,-1.2536,-2.0869,-1.4856,0.4873,0.6950,0.3431,-40.9500,10.4250,3.2250,
5.711842,0.1458,-2.3213,-1.4063,0.4873,0.6950,0.3431,-40.9500,10.4250,3.2250,
5.727515,0.1458,-2.3213,-1.4063,0.4873,0.6950,0.3431,-40.9500,10.4250,3.2250,
5.730195,0.0230,-1.1263,-2.6055,0.4873,0.6950,0.3431,-40.9500,10.4250,3.2250,
5.745359,0.0230,-1.1263,-2.6055,0.7645,-0.0017,0.2663,-40.9500,10.4250,3.2250,
5.750094,0.0230,-1.1263,-2.6055,0.7645,-0.0017,0.2663,-40.9500,10.4250,3.2250,
5.751809,-1.0137,-1.0730,-2.1617,0.7645,-0.0017,0.2663,-40.9500,10.4250,3.2250,
5.769882,-1.0137,-1.0730,-2.1617,0.7645,-0.0017,0.2663,-40.9500,10.4250,3.2250,
5.772095,-1.3957,-2.7462,0.0138,0.7645,-0.0017,0.2663,-40.9500,10.4250,3.2250,
5.776592,-1.3957,-2.7462,0.0138,0.7645,-0.0017,0.2663,-41.6250,12.4500,2.1750,
5.789032,-1.3957,-2.7462,0.0138,0.7645,-0.0017,0.2663,-41.6250,12.4500,2.1750,
5.790778,-0.9123,-2.9409,-0.3988,0.7645,-0.0017,0.2663,-41.6250,12.4500,2.1750,
5.809114,-0.9123,-2.9409,-0.3988,0.7645,-0.0017,0.2663,-41.6250,12.4500,2.1750,
5.811854,-1.0646,-1.9288,-1.4538,0.7645,-0.0017,0.2663,-41.6250,12.4500,2.1750,
5.814537,-1.0646,-1.9288,-1.4538,1.0852,-0.3848,0.2625,-41.6250,12.4500,2.1750,
5.827496,-1.0646,-1.9288,-1.4538,1.0852,-0.3848,0.2625,-41.6250,12.4500,2.1750,
5.830471,-1.1495,-1.2281,-0.9561,1.0852,-0.3848,0.2625,-41.6250,12.4500,2.1750,
5.853837,-1.1495,-1.2281,-0.9561,1.0852,-0.3848,0.2625,-41.6250,12.4500,2.1750,
5.856068,-0.8346,-1.2818,-0.3639,1.0852,-0.3848,0.2625,-41.6250,12.4500,2.1750,
5.858068,-0.8346,-1.2818,-0.3639,1.0852,-0.3848,0.2625,-40.9500,13.3500,1.8000,
5.868215,-0.8346,-1.2818,-0.3639,1.0852,-0.3848,0.2625,-40.9500,13.3500,1.8000,
5.870163,-0.6624,-1.4568,-0.6379,1.0852,-0.3848,0.2625,-40.9500,13.3500,1.8000,
5.887419,-0.6624,-1.4568,-0.6379,1.3666,-0.7213,0.1625,-40.9500,13.3500,1.8000,
5.891894,-0.6624,-1.4568,-0.6379,1.3666,-0.7213,0.1625,-40.9500,13.3500,1.8000,
5.893565,-0.8366,-1.1917,-0.6935,1.3666,-0.7213,0.1625,-40.9500,13.3500,1.8000,
5.912764,-0.8366,-1.1917,-0.6935,1.3666,-0.7213,0.1625,-40.9500,13.3500,1.8000,
5.915317,-0.6829,-0.6504,0.1489,1.3666,-0.7213,0.1625,-40.9500,13.3500,1.8000,
5.917054,-0.6829,-0.6504,0.1489,1.3666,-0.7213,0.1625,-41.3250,13.6500,2.7750,
5.927232,-0.6829,-0.6504,0.1489,1.3666,-0.7213,0.1625,-41.3250,13.6500,2.7750,
5.929014,-0.2270,-0.8796,0.0337,1.3666,-0.7213,0.1625,-41.3250,13.6500,2.7750,
5.950516,-0.2270,-0.8796,0.0337,1.3666,-0.7213,0.1625,-41.3250,13.6500,2.7750,
5.953260,-0.0306,-0.3812,0.0647,1.3666,-0.7213,0.1625,-41.3250,13.6500,2.7750,
5.955400,-0.0306,-0.3812,0.0647,1.5297,-0.7200,0.1478,-41.3250,13.6500,2.7750,
5.972216,-0.0306,-0.3812,0.0647,1.5297,-0.7200,0.1478,-41.3250,13.6500,2.7750,
5.975802,0.2160,0.5232,0.4588,1.5297,-0.7200,0.1478,-41.3250,13.6500,2.7750,
5.987172,0.2160,0.5232,0.4588,1.5297,-0.7200,0.1478,-41.1750,13.8750,3.8250,
5.990180,0.2160,0.5232,0.4588,1.5297,-0.7200,0.1478,-41.1750,13.8750,3.8250,
5.992137,0.3155,1.0009,0.6081,1.5297,-0.7200,0.1478,-41.1750,13.8750,3.8250,
6.009809,0.3155,1.0009,0.6081,1.5297,-0.7200,0.1478,-41.1750,13.8750,3.8250,
6.011955,0.4552,0.8792,0.4606,1.5297,-0.7200,0.1478,-41.1750,13.8750,3.8250,
6.024163,0.4552,0.8792,0.4606,1.5047,-0.5782,-0.0032,-41.1750,13.8750,3.8250,
6.027606,0.4552,0.8792,0.4606,1.5047,-0.5782,-0.0032,-41.1750,13.8750,3.8250,
6.030010,0.2337,0.9906,0.4859,1.5047,-0.5782,-0.0032,-41.1750,13.8750,3.8250,
6.048997,0.2337,0.9906,0.4859,1.5047,-0.5782,-0.0032,-41.1750,13.8750,3.8250,
6.051376,0.2599,1.1842,0.4838,1.5047,-0.5782,-0.0032,-41.1750,13.8750,3.8250,
6.053027,0.2599,1.1842,0.4838,1.5047,-0.5782,-0.0032,-40.9500,14.1750,3.9000,
6.069062,0.2599,1.1842,0.4838,1.5047,-0.5782,-0.0032,-40.9500,14.1750,3.9000,
6.073519,0.1531,1.4253,-0.1419,1.5047,-0.5782,-0.0032,-40.9500,14.1750,3.9000,
6.089224,0.1531,1.4253,-0.1419,1.5047,-0.5782,-0.0032,-40.9500,14.1750,3.9000,
6.092623,-0.0711,1.3596,-0.3833,1.5047,-0.5782,-0.0032,-40.9500,14.1750,3.9000,
6.095491,-0.0711,1.3596,-0.3833,1.4453,-0.4021,-0.0594,-40.9500,14.1750,3.9000,
6.106996,-0.0711,1.3596,-0.3833,1.4453,-0.4021,-0.0594,-40.9500,14.1750,3.9000,
6.108922,-0.0089,1.5098,-0.0680,1.4453,-0.4021,-0.0594,-40.9500,14.1750,3.9000,
6.117123,-0.0089,1.5098,-0.0680,1.4453,-0.4021,-0.0594,-40.8000,14.7750,3.6000,
6.127546,-0.0089,1.5098,-0.0680,1.4453,-0.4021,-0.0594,-40.8000,14.7750,3.6000,
6.129395,0.0457,1.4817,-0.2913,1.4453,-0.4021,-0.0594,-40.8000,14.7750,3.6000,
6.151515,0.0457,1.4817,-0.2913,1.4453,-0.4021,-0.0594,-40.8000,14.7750,3.6000,
6.154942,0.0367,1.1511,-0.5717,1.4453,-0.4021,-0.0594,-40.8000,14.7750,3.6000,
6.165791,0.0367,1.1511,-0.5717,1.4217,-0.4244,-0.2265,-40.8000,14.7750,3.6000,
6.170779,0.0367,1.1511,-0.5717,1.4217,-0.4244,-0.2265,-40.8000,14.7750,3.6000,
6.172551,0.1373,0.9965,-0.9899,1.4217,-0.4244,-0.2265,-40.8000,14.7750,3.6000,
6.190678,0.1373,0.9965,-0.9899,1.4217,-0.4244,-0.2265,-40.8000,14.7750,3.6000,
6.193084,-0.0654,0.7238,-1.2762,1.4217,-0.4244,-0.2265,-40.8000,14.7750,3.6000,
6.194723,-0.0654,0.7238,-1.2762,1.4217,-0.4244,-0.2265,-40.5000,14.3250,2.8500,
6.210254,-0.0654,0.7238,-1.2762,1.4217,-0.4244,-0.2265,-40.5000,14.3250,2.8500,
6.212895,0.1607,0.3492,-1.3004,1.4217,-0.4244,-0.2265,-40.5000,14.3250,2.8500,
6.226789,0.1607,0.3492,-1.3004,1.4217,-0.4244,-0.2265,-40.5000,14.3250,2.8500,
6.229382,0.1049,0.0008,-1.7420,1.4217,-0.4244,-0.2265,-40.5000,14.3250,2.8500,
6.234377,0.1049,0.0008,-1.7420,1.5664,-0.5701,-0.3323,-40.5000,14.3250,2.8500,
6.248979,0.1049,0.0008,-1.7420,1.5664,-0.5701,-0.3323,-40.5000,14.3250,2.8500,
6.251920,-0.3960,-0.5734,-2.0505,1.5664,-0.5701,-0.3323,-40.5000,14.3250,2.8500,
6.259985,-0.3960,-0.5734,-2.0505,1.5664,-0.5701,-0.3323,-40.9500,13.5750,3.4500,
6.269372,-0.3960,-0.5734,-2.0505,1.5664,-0.5701,-0.3323,-40.9500,13.5750,3.4500,
6.271679,-1.0792,-0.9655,-2.2136,1.5664,-0.5701,-0.3323,-40.9500,13.5750,3.4500,
6.288649,-1.0792,-0.9655,-2.2136,1.5664,-0.5701,-0.3323,-40.9500,13.5750,3.4500,
6.291527,-1.9023,-1.8629,-2.7309,1.5664,-0.5701,-0.3323,-40.9500,13.5750,3.4500,
6.302577,-1.9023,-1.8629,-2.7309,1.8011,-0.8530,-0.3120,-40.9500,13.5750,3.4500,
6.307371,-1.9023,-1.8629,-2.7309,1.8011,-0.8530,-0.3120,-40.9500,13.5750,3.4500,
6.309041,-1.9546,-2.1421,-2.2333,1.8011,-0.8530,-0.3120,-40.9500,13.5750,3.4500,
6.327424,-1.9546,-2.1421,-2.2333,1.8011,-0.8530,-0.3120,-40.9500,13.5750,3.4500,
6.329955,-1.6198,-2.0817,-2.4665,1.8011,-0.8530,-0.3120,-40.9500,13.5750,3.4500,
6.332098,-1.6198,-2.0817,-2.4665,1.8011,-0.8530,-0.3120,-40.9500,13.0500,3.8250,
6.348610,-1.6198,-2.0817,-2.4665,1.8011,-0.8530,-0.3120,-40.9500,13.0500,3.8250,
6.351790,-0.3949,-1.6233,-2.3551,1.8011,-0.8530,-0.3120,-40.9500,13.0500,3.8250,
6.369183,-0.3949,-1.6233,-2.3551,1.8011,-0.8530,-0.3120,-40.9500,13.0500,3.8250,
6.372203,0.4430,-0.9532,-1.8576,1.8011,-0.8530,-0.3120,-40.9500,13.0500,3.8250,
6.374007,0.4430,-0.9532,-1.8576,1.9659,-1.1368,-0.3131,-40.9500,13.0500,3.8250,
6.385632,0.4430,-0.9532,-1.8576,1.9659,-1.1368,-0.3131,-40.9500,13.0500,3.8250,
6.388021,0.6596,0.1595,-2.0384,1.9659,-1.1368,-0.3131,-40.9500,13.0500,3.8250,
6.401475,0.6596,0.1595,-2.0384,1.9659,-1.1368,-0.3131,-41.3250,12.4500,5.2500,
6.405563,0.6596,0.1595,-2.0384,1.9659,-1.1368,-0.3131,-41.3250,12.4500,5.2500,
6.407029,0.9860,0.5586,-0.9986,1.9659,-1.1368,-0.3131,-41.3250,12.4500,5.2500,
6.425364,0.9860,0.5586,-0.9986,1.9659,-1.1368,-0.3131,-41.3250,12.4500,5.2500,
6.428057,0.7001,0.7790,-0.2408,1.9659,-1.1368,-0.3131,-41.3250,12.4500,5.2500,
6.439815,0.7001,0.7790,-0.2408,1.8910,-0.9929,-0.3424,-41.3250,12.4500,5.2500,
6.446174,0.7001,0.7790,-0.2408,1.8910,-0.9929,-0.3424,-41.3250,12.4500,5.2500,
6.447974,0.8143,1.4899,0.6913,1.8910,-0.9929,-0.3424,-41.3250,12.4500,5.2500,
6.469285,0.8143,1.4899,0.6913,1.8910,-0.9929,-0.3424,-41.3250,12.4500,5.2500,
6.471506,0.4376,2.0278,2.3541,1.8910,-0.9929,-0.3424,-41.3250,12.4500,5.2500,
6.473407,0.4376,2.0278,2.3541,1.8910,-0.9929,-0.3424,-41.4000,12.1500,6.6750,
6.483952,0.4376,2.0278,2.3541,1.8910,-0.9929,-0.3424,-41.4000,12.1500,6.6750,
6.486072,0.1221,2.4125,2.1496,1.8910,-0.9929,-0.3424,-41.4000,12.1500,6.6750,
6.503557,0.1221,2.4125,2.1496,1.8910,-0.9929,-0.3424,-41.4000,12.1500,6.6750,
6.506027,0.7914,3.5855,1.3017,1.8910,-0.9929,-0.3424,-41.4000,12.1500,6.6750,
6.508345,0.7914,3.5855,1.3017,1.5958,-0.8340,-0.4645,-41.4000,12.1500,6.6750,
6.523164,0.7914,3.5855,1.3017,1.5958,-0.8340,-0.4645,-41.4000,12.1500,6.6750,
6.525489,1.5187,4.5576,0.9933,1.5958,-0.8340,-0.4645,-41.4000,12.1500,6.6750,
6.547364,1.5187,4.5576,0.9933,1.5958,-0.8340,-0.4645,-41.4000,12.1500,6.6750,
6.550590,0.5453,4.5407,1.4470,1.5958,-0.8340,-0.4645,-41.4000,12.1500,6.6750,
6.553033,0.5453,4.5407,1.4470,1.5958,-0.8340,-0.4645,-41.1000,11.8500,8.1750,
6.566534,0.5453,4.5407,1.4470,1.5958,-0.8340,-0.4645,-41.1000,11.8500,8.1750,
6.569066,0.7504,3.5156,1.4928,1.5958,-0.8340,-0.4645,-41.1000,11.8500,8.1750,
6.581817,0.7504,3.5156,1.4928,0.2902,-0.4403,-0.3641,-41.1000,11.8500,8.1750,
6.586273,0.7504,3.5156,1.4928,0.2902,-0.4403,-0.3641,-41.1000,11.8500,8.1750,
6.588224,1.0688,3.2269,1.6675,0.2902,-0.4403,-0.3641,-41.1000,11.8500,8.1750,
6.606965,1.0688,3.2269,1.6675,0.2902,-0.4403,-0.3641,-41.1000,11.8500,8.1750,
6.609371,0.6643,3.1200,1.3535,0.2902,-0.4403,-0.3641,-41.1000,11.8500,8.1750,
6.611806,0.6643,3.1200,1.3535,0.2902,-0.4403,-0.3641,-41.4750,11.6250,9.8250,
6.626402,0.6643,3.1200,1.3535,0.2902,-0.4403,-0.3641,-41.4750,11.6250,9.8250,
6.628322,1.1252,3.1438,0.8633,0.2902,-0.4403,-0.3641,-41.4750,11.6250,9.8250,
6.645835,1.1252,3.1438,0.8633,0.2902,-0.4403,-0.3641,-41.4750,11.6250,9.8250,
6.647366,1.5655,2.1935,0.6916,0.2902,-0.4403,-0.3641,-41.4750,11.6250,9.8250,
6.651482,1.5655,2.1935,0.6916,-1.5561,-0.1379,-0.2343,-41.4750,11.6250,9.8250,
6.664825,1.5655,2.1935,0.6916,-1.5561,-0.1379,-0.2343,-41.4750,11.6250,9.8250,
6.666257,0.7573,0.6843,0.2597,-1.5561,-0.1379,-0.2343,-41.4750,11.6250,9.8250,
6.677838,0.7573,0.6843,0.2597,-1.5561,-0.1379,-0.2343,-41.5500,9.4500,10.3500,
6.684958,0.7573,0.6843,0.2597,-1.5561,-0.1379,-0.2343,-41.5500,9.4500,10.3500,
6.685771,0.5749,0.2075,0.4827,-1.5561,-0.1379,-0.2343,-41.5500,9.4500,10.3500,
6.705262,0.5749,0.2075,0.4827,-1.5561,-0.1379,-0.2343,-41.5500,9.4500,10.3500,
6.707547,-0.0302,-0.1534,0.9077,-1.5561,-0.1379,-0.2343,-41.5500,9.4500,10.3500,
6.719325,-0.0302,-0.1534,0.9077,-2.8721,0.1897,0.1251,-41.5500,9.4500,10.3500,
6.723954,-0.0302,-0.1534,0.9077,-2.8721,0.1897,0.1251,-41.5500,9.4500,10.3500,
6.725289,-0.1889,-1.9867,0.3530,-2.8721,0.1897,0.1251,-41.5500,9.4500,10.3500,
6.744417,-0.1889,-1.9867,0.3530,-2.8721,0.1897,0.1251,-41.5500,9.4500,10.3500,
6.746198,-0.4225,-3.6676,0.7820,-2.8721,0.1897,0.1251,-41.5500,9.4500,10.3500,
6.747741,-0.4225,-3.6676,0.7820,-2.8721,0.1897,0.1251,-40.4250,9.1500,13.3500,
6.764491,-0.4225,-3.6676,0.7820,-2.8721,0.1897,0.1251,-40.4250,9.1500,13.3500,
6.766400,0.1448,-4.0016,-0.9947,-2.8721,0.1897,0.1251,-40.4250,9.1500,13.3500,
6.789327,0.1448,-4.0016,-0.9947,-2.8721,0.1897,0.1251,-40.4250,9.1500,13.3500,
6.792110,0.4977,-4.8142,-2.1475,-2.8721,0.1897,0.1251,-40.4250,9.1500,13.3500,
6.802133,0.4977,-4.8142,-2.1475,-2.6725,0.4203,0.0826,-40.4250,9.1500,13.3500,
6.807372,0.4977,-4.8142,-2.1475,-2.6725,0.4203,0.0826,-40.4250,9.1500,13.3500,
6.809047,1.5316,-5.1283,-0.3364,-2.6725,0.4203,0.0826,-40.4250,9.1500,13.3500,
6.816538,1.5316,-5.1283,-0.3364,-2.6725,0.4203,0.0826,-41.1750,7.3500,15.4500,
6.825984,1.5316,-5.1283,-0.3364,-2.6725,0.4203,0.0826,-41.1750,7.3500,15.4500,
6.827550,1.6480,-3.2503,1.1290,-2.6725,0.4203,0.0826,-41.1750,7.3500,15.4500,
6.845536,1.6480,-3.2503,1.1290,-2.6725,0.4203,0.0826,-41.1750,7.3500,15.4500,
6.848752,0.5317,-2.6430,1.8424,-2.6725,0.4203,0.0826,-41.1750,7.3500,15.4500,
6.861531,0.5317,-2.6430,1.8424,-2.1806,0.9262,-0.0991,-41.1750,7.3500,15.4500,
6.865766,0.5317,-2.6430,1.8424,-2.1806,0.9262,-0.0991,-41.1750,7.3500,15.4500,
6.868473,0.6025,-2.6951,2.4378,-2.1806,0.9262,-0.0991,-41.1750,7.3500,15.4500,
6.881701,0.6025,-2.6951,2.4378,-2.1806,0.9262,-0.0991,-41.1750,7.3500,15.4500,
6.885156,-0.1057,-2.4134,0.2697,-2.1806,0.9262,-0.0991,-41.1750,7.3500,15.4500,
6.887882,-0.1057,-2.4134,0.2697,-2.1806,0.9262,-0.0991,-41.1000,4.5750,15.1500,
6.905195,-0.1057,-2.4134,0.2697,-2.1806,0.9262,-0.0991,-41.1000,4.5750,15.1500,
6.906980,-0.6982,-3.3387,-0.1743,-2.1806,0.9262,-0.0991,-41.1000,4.5750,15.1500,
6.921379,-0.6982,-3.3387,-0.1743,-2.1806,0.9262,-0.0991,-41.1000,4.5750,15.1500,
6.923502,-0.9872,-3.0612,-0.7669,-2.1806,0.9262,-0.0991,-41.1000,4.5750,15.1500,
6.931385,-0.9872,-3.0612,-0.7669,-1.0145,0.8413,-0.0115,-41.1000,4.5750,15.1500,
6.945833,-0.9872,-3.0612,-0.7669,-1.0145,0.8413,-0.0115,-41.1000,4.5750,15.1500,
6.947491,-0.8521,-2.2967,-1.2220,-1.0145,0.8413,-0.0115,-41.1000,4.5750,15.1500,
6.957548,-0.8521,-2.2967,-1.2220,-1.0145,0.8413,-0.0115,-42.3750,2.5500,13.4250,
6.964087,-0.8521,-2.2967,-1.2220,-1.0145,0.8413,-0.0115,-42.3750,2.5500,13.4250,
6.966850,-0.6309,-2.4223,-0.6544,-1.0145,0.8413,-0.0115,-42.3750,2.5500,13.4250,
6.978790,-0.6309,-2.4223,-0.6544,-1.0145,0.8413,-0.0115,-42.3750,2.5500,13.4250,
6.980708,-0.7292,-2.1846,0.0422,-1.0145,0.8413,-0.0115,-42.3750,2.5500,13.4250,
6.997444,-0.7292,-2.1846,0.0422,-0.3723,0.5779,0.1494,-42.3750,2.5500,13.4250,
7.003690,-0.7292,-2.1846,0.0422,-0.3723,0.5779,0.1494,-42.3750,2.5500,13.4250,
7.005049,-0.6350,-1.5092,-0.7981,-0.3723,0.5779,0.1494,-42.3750,2.5500,13.4250,
7.022353,-0.6350,-1.5092,-0.7981,-0.3723,0.5779,0.1494,-42.3750,2.5500,13.4250,
7.024489,0.0097,-1.3588,-1.7914,-0.3723,0.5779,0.1494,-42.3750,2.5500,13.4250,
7.028168,0.0097,-1.3588,-1.7914,-0.3723,0.5779,0.1494,-42.5250,2.2500,12.0750,
7.047637,0.0097,-1.3588,-1.7914,-0.3723,0.5779,0.1494,-42.5250,2.2500,12.0750,
7.050518,0.5174,-1.6692,-1.3060,-0.3723,0.5779,0.1494,-42.5250,2.2500,12.0750,
7.068461,0.5174,-1.6692,-1.3060,-0.3723,0.5779,0.1494,-42.5250,2.2500,12.0750,
7.070802,0.4612,-2.2974,-0.9692,-0.3723,0.5779,0.1494,-42.5250,2.2500,12.0750,
7.072482,0.4612,-2.2974,-0.9692,-0.0922,0.1619,0.0924,-42.5250,2.2500,12.0750,
7.085548,0.4612,-2.2974,-0.9692,-0.0922,0.1619,0.0924,-42.5250,2.2500,12.0750,
7.087891,0.0810,-1.8940,-0.7736,-0.0922,0.1619,0.0924,-42.5250,2.2500,12.0750,
7.097413,0.0810,-1.8940,-0.7736,-0.0922,0.1619,0.0924,-43.0500,1.7250,11.1750,
7.104838,0.0810,-1.8940,-0.7736,-0.0922,0.1619,0.0924,-43.0500,1.7250,11.1750,
7.106471,-0.0220,-1.4186,-0.8465,-0.0922,0.1619,0.0924,-43.0500,1.7250,11.1750,
7.124405,-0.0220,-1.4186,-0.8465,-0.0922,0.1619,0.0924,-43.0500,1.7250,11.1750,
7.126484,0.1480,-1.5537,-0.5945,-0.0922,0.1619,0.0924,-43.0500,1.7250,11.1750,
7.139764,0.1480,-1.5537,-0.5945,0.1322,0.0237,0.1373,-43.0500,1.7250,11.1750,
7.142685,0.1480,-1.5537,-0.5945,0.1322,0.0237,0.1373,-43.0500,1.7250,11.1750,
7.144371,0.2392,-1.3180,-0.2832,0.1322,0.0237,0.1373,-43.0500,1.7250,11.1750,
7.159028,0.2392,-1.3180,-0.2832,0.1322,0.0237,0.1373,-43.0500,1.7250,11.1750,
7.161398,0.2188,-0.7371,-0.2431,0.1322,0.0237,0.1373,-43.0500,1.7250,11.1750,
7.170263,0.2188,-0.7371,-0.2431,0.1322,0.0237,0.1373,-42.7500,1.6500,11.1000,
7.182610,0.2188,-0.7371,-0.2431,0.1322,0.0237,0.1373,-42.7500,1.6500,11.1000,
7.183967,-0.0877,-0.1940,-0.3893,0.1322,0.0237,0.1373,-42.7500,1.6500,11.1000,
7.199415,-0.0877,-0.1940,-0.3893,0.1322,0.0237,0.1373,-42.7500,1.6500,11.1000,
7.200909,-0.1112,-0.0684,-0.4220,0.1322,0.0237,0.1373,-42.7500,1.6500,11.1000,
7.209233,-0.1112,-0.0684,-0.4220,0.3700,-0.2182,0.1486,-42.7500,1.6500,11.1000,
7.223530,-0.1112,-0.0684,-0.4220,0.3700,-0.2182,0.1486,-42.7500,1.6500,11.1000,
7.225293,0.3947,-0.5972,0.1426,0.3700,-0.2182,0.1486,-42.7500,1.6500,11.1000,
7.238131,0.3947,-0.5972,0.1426,0.3700,-0.2182,0.1486,-42.7500,1.6500,11.1000,
7.239965,0.6200,-0.5652,0.7964,0.3700,-0.2182,0.1486,-42.7500,1.6500,11.1000,
7.241362,0.6200,-0.5652,0.7964,0.3700,-0.2182,0.1486,-42.4500,1.9500,10.5000,
7.262553,0.6200,-0.5652,0.7964,0.3700,-0.2182,0.1486,-42.4500,1.9500,10.5000,
7.264558,0.5105,0.0290,1.0560,0.3700,-0.2182,0.1486,-42.4500,1.9500,10.5000,
7.276987,0.5105,0.0290,1.0560,0.7127,-0.2170,0.1994,-42.4500,1.9500,10.5000,
7.280645,0.5105,0.0290,1.0560,0.7127,-0.2170,0.1994,-42.4500,1.9500,10.5000,
7.283648,0.3601,0.3536,1.1576,0.7127,-0.2170,0.1994,-42.4500,1.9500,10.5000,
7.309295,0.3601,0.3536,1.1576,0.7127,-0.2170,0.1994,-42.4500,1.9500,10.5000,
7.312019,0.4804,0.5103,0.9636,0.7127,-0.2170,0.1994,-42.4500,1.9500,10.5000,
7.314022,0.4804,0.5103,0.9636,0.7127,-0.2170,0.1994,-42.3750,2.8500,10.6500,
7.324984,0.4804,0.5103,0.9636,0.7127,-0.2170,0.1994,-42.3750,2.8500,10.6500,
7.326948,0.4872,0.7547,0.6185,0.7127,-0.2170,0.1994,-42.3750,2.8500,10.6500,
7.345155,0.4872,0.7547,0.6185,0.7127,-0.2170,0.1994,-42.3750,2.8500,10.6500,
7.348154,0.3849,1.2317,0.7929,0.7127,-0.2170,0.1994,-42.3750,2.8500,10.6500,
7.350543,0.3849,1.2317,0.7929,0.9902,-0.0423,0.2227,-42.3750,2.8500,10.6500,
7.369215,0.3849,1.2317,0.7929,0.9902,-0.0423,0.2227,-42.3750,2.8500,10.6500,
7.370901,0.3518,1.7803,1.1180,0.9902,-0.0423,0.2227,-42.3750,2.8500,10.6500,
7.376653,0.3518,1.7803,1.1180,0.9902,-0.0423,0.2227,-41.8500,4.2750,10.7250,
7.383647,0.3518,1.7803,1.1180,0.9902,-0.0423,0.2227,-41.8500,4.2750,10.7250,
7.385625,0.4737,1.6633,1.6456,0.9902,-0.0423,0.2227,-41.8500,4.2750,10.7250,
7.403222,0.4737,1.6633,1.6456,0.9902,-0.0423,0.2227,-41.8500,4.2750,10.7250,
7.405204,0.6204,1.5096,1.9003,0.9902,-0.0423,0.2227,-41.8500,4.2750,10.7250,
7.417621,0.6204,1.5096,1.9003,1.0807,0.1448,0.2456,-41.8500,4.2750,10.7250,
7.422626,0.6204,1.5096,1.9003,1.0807,0.1448,0.2456,-41.8500,4.2750,10.7250,
7.424071,0.6289,1.8090,1.4939,1.0807,0.1448,0.2456,-41.8500,4.2750,10.7250,
7.442367,0.6289,1.8090,1.4939,1.0807,0.1448,0.2456,-41.8500,4.2750,10.7250,
7.444236,0.5601,2.3143,1.0902,1.0807,0.1448,0.2456,-41.8500,4.2750,10.7250,
7.446572,0.5601,2.3143,1.0902,1.0807,0.1448,0.2456,-42.0750,5.2500,9.9000,
7.462014,0.5601,2.3143,1.0902,1.0807,0.1448,0.2456,-42.0750,5.2500,9.9000,
7.464826,0.3923,2.4628,0.9475,1.0807,0.1448,0.2456,-42.0750,5.2500,9.9000,
7.477385,0.3923,2.4628,0.9475,1.0807,0.1448,0.2456,-42.0750,5.2500,9.9000,
7.479823,0.2217,2.7098,0.2112,1.0807,0.1448,0.2456,-42.0750,5.2500,9.9000,
7.486521,0.2217,2.7098,0.2112,1.2202,0.1306,0.2169,-42.0750,5.2500,9.9000,
7.503317,0.2217,2.7098,0.2112,1.2202,0.1306,0.2169,-42.0750,5.2500,9.9000,
7.505302,-0.4030,3.4906,0.3040,1.2202,0.1306,0.2169,-42.0750,5.2500,9.9000,
7.523359,-0.4030,3.4906,0.3040,1.2202,0.1306,0.2169,-42.3000,7.0500,8.6250,
7.525717,-0.4030,3.4906,0.3040,1.2202,0.1306,0.2169,-42.3000,7.0500,8.6250,
7.527279,-0.5285,2.9535,0.6411,1.2202,0.1306,0.2169,-42.3000,7.0500,8.6250,
7.540390,-0.5285,2.9535,0.6411,1.2202,0.1306,0.2169,-42.3000,7.0500,8.6250,
7.542620,-0.1338,2.3905,0.7863,1.2202,0.1306,0.2169,-42.3000,7.0500,8.6250,
7.556223,-0.1338,2.3905,0.7863,1.1631,-0.0235,0.2014,-42.3000,7.0500,8.6250,
7.559684,-0.1338,2.3905,0.7863,1.1631,-0.0235,0.2014,-42.3000,7.0500,8.6250,
7.561227,0.2377,2.2174,0.2461,1.1631,-0.0235,0.2014,-42.3000,7.0500,8.6250,
7.577001,0.2377,2.2174,0.2461,1.1631,-0.0235,0.2014,-42.3000,7.0500,8.6250,
7.579612,0.1205,1.8000,0.2858,1.1631,-0.0235,0.2014,-42.3000,7.0500,8.6250,
7.586744,0.1205,1.8000,0.2858,1.1631,-0.0235,0.2014,-41.6250,7.9500,7.4250,
7.604680,0.1205,1.8000,0.2858,1.1631,-0.0235,0.2014,-41.6250,7.9500,7.4250,
7.606226,-0.0290,1.6367,0.2321,1.1631,-0.0235,0.2014,-41.6250,7.9500,7.4250,
7.623198,-0.0290,1.6367,0.2321,1.1631,-0.0235,0.2014,-41.6250,7.9500,7.4250,
7.625542,0.0262,1.4188,0.0130,1.1631,-0.0235,0.2014,-41.6250,7.9500,7.4250,
7.634427,0.0262,1.4188,0.0130,1.0287,-0.1542,0.0930,-41.6250,7.9500,7.4250,
7.642492,0.0262,1.4188,0.0130,1.0287,-0.1542,0.0930,-41.6250,7.9500,7.4250,
7.643908,-0.1094,0.9866,0.1769,1.0287,-0.1542,0.0930,-41.6250,7.9500,7.4250,
7.656394,-0.1094,0.9866,0.1769,1.0287,-0.1542,0.0930,-41.1750,8.2500,7.1250,
7.663719,-0.1094,0.9866,0.1769,1.0287,-0.1542,0.0930,-41.1750,8.2500,7.1250,
7.665746,-0.0804,0.7948,0.5813,1.0287,-0.1542,0.0930,-41.1750,8.2500,7.1250,
7.677573,-0.0804,0.7948,0.5813,1.0287,-0.1542,0.0930,-41.1750,8.2500,7.1250,
7.681044,-0.0377,0.7596,0.4988,1.0287,-0.1542,0.0930,-41.1750,8.2500,7.1250,
7.696305,-0.0377,0.7596,0.4988,0.9118,-0.2198,0.0397,-41.1750,8.2500,7.1250,
7.701229,-0.0377,0.7596,0.4988,0.9118,-0.2198,0.0397,-41.1750,8.2500,7.1250,
7.702598,-0.0085,0.9174,0.2779,0.9118,-0.2198,0.0397,-41.1750,8.2500,7.1250,
7.722383,-0.0085,0.9174,0.2779,0.9118,-0.2198,0.0397,-41.1750,8.2500,7.1250,
7.725984,0.1161,1.3397,0.2022,0.9118,-0.2198,0.0397,-41.1750,8.2500,7.1250,
7.727789,0.1161,1.3397,0.2022,0.9118,-0.2198,0.0397,-40.8750,8.6250,6.9000,
7.741679,0.1161,1.3397,0.2022,0.9118,-0.2198,0.0397,-40.8750,8.6250,6.9000,
7.744576,0.2547,1.1541,-0.6649,0.9118,-0.2198,0.0397,-40.8750,8.6250,6.9000,
7.761319,0.2547,1.1541,-0.6649,0.9118,-0.2198,0.0397,-40.8750,8.6250,6.9000,
7.764918,0.3032,1.1586,-1.2878,0.9118,-0.2198,0.0397,-40.8750,8.6250,6.9000,
7.768594,0.3032,1.1586,-1.2878,0.8126,-0.1770,0.0124,-40.8750,8.6250,6.9000,
7.781588,0.3032,1.1586,-1.2878,0.8126,-0.1770,0.0124,-40.8750,8.6250,6.9000,
7.783954,0.3003,1.0521,-1.3738,0.8126,-0.1770,0.0124,-40.8750,8.6250,6.9000,
7.797118,0.3003,1.0521,-1.3738,0.8126,-0.1770,0.0124,-41.3250,9.7500,7.1250,
7.799836,0.3003,1.0521,-1.3738,0.8126,-0.1770,0.0124,-41.3250,9.7500,7.1250,
7.800870,-0.1219,0.4377,-1.0453,0.8126,-0.1770,0.0124,-41.3250,9.7500,7.1250,
7.819893,-0.1219,0.4377,-1.0453,0.8126,-0.1770,0.0124,-41.3250,9.7500,7.1250,
7.822384,-0.4399,0.2999,-0.3959,0.8126,-0.1770,0.0124,-41.3250,9.7500,7.1250,
7.834632,-0.4399,0.2999,-0.3959,0.3990,0.0276,0.1370,-41.3250,9.7500,7.1250,
7.838355,-0.4399,0.2999,-0.3959,0.3990,0.0276,0.1370,-41.3250,9.7500,7.1250,
7.840209,0.0454,0.1736,0.0157,0.3990,0.0276,0.1370,-41.3250,9.7500,7.1250,
7.857638,0.0454,0.1736,0.0157,0.3990,0.0276,0.1370,-41.3250,9.7500,7.1250,
7.859661,-0.8188,-0.2960,0.0720,0.3990,0.0276,0.1370,-41.3250,9.7500,7.1250,
7.866821,-0.8188,-0.2960,0.0720,0.3990,0.0276,0.1370,-40.7250,10.4250,6.3750,
7.882499,-0.8188,-0.2960,0.0720,0.3990,0.0276,0.1370,-40.7250,10.4250,6.3750,
7.885699,-1.4798,0.5554,0.6731,0.3990,0.0276,0.1370,-40.7250,10.4250,6.3750,
7.902676,-1.4798,0.5554,0.6731,0.3990,0.0276,0.1370,-40.7250,10.4250,6.3750,
7.905275,-0.3557,-0.2273,0.0761,0.3990,0.0276,0.1370,-40.7250,10.4250,6.3750,
7.907339,-0.3557,-0.2273,0.0761,0.1642,0.0350,0.2254,-40.7250,10.4250,6.3750,
7.921645,-0.3557,-0.2273,0.0761,0.1642,0.0350,0.2254,-40.7250,10.4250,6.3750,
7.924305,-0.0580,-0.7109,0.6989,0.1642,0.0350,0.2254,-40.7250,10.4250,6.3750,
7.936880,-0.0580,-0.7109,0.6989,0.1642,0.0350,0.2254,-40.7250,10.4250,6.3750,
7.939681,0.0970,-0.0203,0.0539,0.1642,0.0350,0.2254,-40.7250,10.4250,6.3750,
7.941257,0.0970,-0.0203,0.0539,0.1642,0.0350,0.2254,-41.0250,10.5750,5.9250,
7.957183,0.0970,-0.0203,0.0539,0.1642,0.0350,0.2254,-41.0250,10.5750,5.9250,
7.960080,-0.4050,-0.1148,-0.1296,0.1642,0.0350,0.2254,-41.0250,10.5750,5.9250,
7.976590,-0.4050,-0.1148,-0.1296,0.2088,0.0417,0.1309,-41.0250,10.5750,5.9250,
7.978111,-0.4050,-0.1148,-0.1296,0.2088,0.0417,0.1309,-41.0250,10.5750,5.9250,
7.979182,-0.0775,0.1805,-0.0913,0.2088,0.0417,0.1309,-41.0250,10.5750,5.9250,
8.001372,-0.0775,0.1805,-0.0913,0.2088,0.0417,0.1309,-41.0250,10.5750,5.9250,
8.003133,-0.0301,0.5766,0.0230,0.2088,0.0417,0.1309,-41.0250,10.5750,5.9250,
8.008229,-0.0301,0.5766,0.0230,0.2088,0.0417,0.1309,-40.5750,11.3250,6.6000,
8.020940,-0.0301,0.5766,0.0230,0.2088,0.0417,0.1309,-40.5750,11.3250,6.6000,
8.022360,-0.1459,0.4695,-0.1216,0.2088,0.0417,0.1309,-40.5750,11.3250,6.6000,
8.041056,-0.1459,0.4695,-0.1216,0.2088,0.0417,0.1309,-40.5750,11.3250,6.6000,
8.042852,-0.1528,0.2230,-0.0008,0.2088,0.0417,0.1309,-40.5750,11.3250,6.6000,
8.044217,-0.1528,0.2230,-0.0008,0.1086,0.0107,0.0513,-40.5750,11.3250,6.6000,
8.059640,-0.1528,0.2230,-0.0008,0.1086,0.0107,0.0513,-40.5750,11.3250,6.6000,
8.061037,-0.1544,-0.0574,0.0347,0.1086,0.0107,0.0513,-40.5750,11.3250,6.6000,
8.069865,-0.1544,-0.0574,0.0347,0.1086,0.0107,0.0513,-40.2000,11.6250,6.0000,
8.078189,-0.1544,-0.0574,0.0347,0.1086,0.0107,0.0513,-40.2000,11.6250,6.0000,
8.079694,-0.1767,-0.2034,0.0452,0.1086,0.0107,0.0513,-40.2000,11.6250,6.0000,
8.099565,-0.1767,-0.2034,0.0452,0.1086,0.0107,0.0513,-40.2000,11.6250,6.0000,
8.101362,-0.0434,0.0244,0.2178,0.1086,0.0107,0.0513,-40.2000,11.6250,6.0000,
8.116778,-0.0434,0.0244,0.2178,0.0945,0.0307,-0.0408,-40.2000,11.6250,6.0000,
8.118685,-0.0434,0.0244,0.2178,0.0945,0.0307,-0.0408,-40.2000,11.6250,6.0000,
8.120285,-0.0798,0.1792,-0.1740,0.0945,0.0307,-0.0408,-40.2000,11.6250,6.0000,
8.143181,-0.0798,0.1792,-0.1740,0.0945,0.0307,-0.0408,-40.2000,11.6250,6.0000,
8.145083,-0.2004,0.1935,-0.0153,0.0945,0.0307,-0.0408,-40.2000,11.6250,6.0000,
8.146676,-0.2004,0.1935,-0.0153,0.0945,0.0307,-0.0408,-40.6500,11.5500,5.0250,
8.162041,-0.2004,0.1935,-0.0153,0.0945,0.0307,-0.0408,-40.6500,11.5500,5.0250,
8.163889,-0.2422,0.1168,-0.1246,0.0945,0.0307,-0.0408,-40.6500,11.5500,5.0250,
8.178421,-0.2422,0.1168,-0.1246,0.0945,0.0307,-0.0408,-40.6500,11.5500,5.0250,
8.180652,-0.1549,0.0654,0.3743,0.0945,0.0307,-0.0408,-40.6500,11.5500,5.0250,
8.186760,-0.1549,0.0654,0.3743,0.0316,-0.0174,-0.0593,-40.6500,11.5500,5.0250,
8.203955,-0.1549,0.0654,0.3743,0.0316,-0.0174,-0.0593,-40.6500,11.5500,5.0250,
8.205499,-0.0999,0.0240,0.2701,0.0316,-0.0174,-0.0593,-40.6500,11.5500,5.0250,
8.211967,-0.0999,0.0240,0.2701,0.0316,-0.0174,-0.0593,-40.5750,10.6500,5.4000,
8.220801,-0.0999,0.0240,0.2701,0.0316,-0.0174,-0.0593,-40.5750,10.6500,5.4000,
8.224361,-0.2139,0.1940,-0.1298,0.0316,-0.0174,-0.0593,-40.5750,10.6500,5.4000,
8.240126,-0.2139,0.1940,-0.1298,0.0316,-0.0174,-0.0593,-40.5750,10.6500,5.4000,
8.242543,-0.2253,0.2720,0.0597,0.0316,-0.0174,-0.0593,-40.5750,10.6500,5.4000,
8.256193,-0.2253,0.2720,0.0597,0.0886,-0.0964,-0.0290,-40.5750,10.6500,5.4000,
8.260307,-0.2253,0.2720,0.0597,0.0886,-0.0964,-0.0290,-40.5750,10.6500,5.4000,
8.261956,-0.0865,-0.0863,0.3131,0.0886,-0.0964,-0.0290,-40.5750,10.6500,5.4000,
8.277165,-0.0865,-0.0863,0.3131,0.0886,-0.0964,-0.0290,-40.5750,10.6500,5.4000,
8.279852,-0.0466,0.4815,-0.2163,0.0886,-0.0964,-0.0290,-40.5750,10.6500,5.4000,
8.281593,-0.0466,0.4815,-0.2163,0.0886,-0.0964,-0.0290,-40.4250,11.1750,5.6250,
8.297985,-0.0466,0.4815,-0.2163,0.0886,-0.0964,-0.0290,-40.4250,11.1750,5.6250,
8.300563,-0.2067,-0.4217,0.4437,0.0886,-0.0964,-0.0290,-40.4250,11.1750,5.6250,
8.317478,-0.2067,-0.4217,0.4437,0.0886,-0.0964,-0.0290,-40.4250,11.1750,5.6250,
8.319129,0.1127,-0.4102,0.1322,0.0886,-0.0964,-0.0290,-40.4250,11.1750,5.6250,
8.322108,0.1127,-0.4102,0.1322,0.0762,-0.1573,-0.0396,-40.4250,11.1750,5.6250,
8.336693,0.1127,-0.4102,0.1322,0.0762,-0.1573,-0.0396,-40.4250,11.1750,5.6250,
8.338012,0.0132,0.2991,0.1264,0.0762,-0.1573,-0.0396,-40.4250,11.1750,5.6250,
8.349370,0.0132,0.2991,0.1264,0.0762,-0.1573,-0.0396,-40.9500,11.5500,5.9250,
8.356426,0.0132,0.2991,0.1264,0.0762,-0.1573,-0.0396,-40.9500,11.5500,5.9250,
8.357590,-0.0444,0.4055,-0.0755,0.0762,-0.1573,-0.0396,-40.9500,11.5500,5.9250,
