
time,ax,ay,az,wx,wy,wz,Bx,By,Bz,
0.035316,0.0000,0.0000,0.0000,0.0000,0.0000,0.0000,0.0000,0.0000,0.0000,
0.057549,0.0000,0.0000,0.0000,0.0000,0.0000,0.0000,0.0000,0.0000,0.0000,
0.058853,0.0000,0.0000,0.0000,0.0000,0.0000,0.0000,-40.9500,12.9000,-10.1250,
0.076440,0.0000,0.0000,0.0000,0.0000,0.0000,0.0000,-40.9500,12.9000,-10.1250,
0.077942,-0.1051,-0.0838,0.0264,0.0000,0.0000,0.0000,-40.9500,12.9000,-10.1250,
0.096274,-0.1051,-0.0838,0.0264,0.0000,0.0000,0.0000,-40.9500,12.9000,-10.1250,
0.097970,-0.1573,0.0750,0.0117,0.0000,0.0000,0.0000,-40.9500,12.9000,-10.1250,
0.104523,-0.1573,0.0750,0.0117,0.0031,0.0542,-0.0240,-40.9500,12.9000,-10.1250,
0.119098,-0.1573,0.0750,0.0117,0.0031,0.0542,-0.0240,-40.9500,12.9000,-10.1250,
0.120688,-0.1095,0.1542,0.0048,0.0031,0.0542,-0.0240,-40.9500,12.9000,-10.1250,
0.126871,-0.1095,0.1542,0.0048,0.0031,0.0542,-0.0240,-41.2500,12.7500,-10.9500,
0.130440,-0.1095,0.1542,0.0048,0.0031,0.0542,-0.0240,-41.2500,12.7500,-10.9500,
0.131728,-0.0440,0.2484,0.0121,0.0031,0.0542,-0.0240,-41.2500,12.7500,-10.9500,
0.154588,-0.0440,0.2484,0.0121,0.0031,0.0542,-0.0240,-41.2500,12.7500,-10.9500,
0.156025,-0.1276,0.2115,0.0048,0.0031,0.0542,-0.0240,-41.2500,12.7500,-10.9500,
0.174422,-0.1276,0.2115,0.0048,0.0257,0.0402,-0.0182,-41.2500,12.7500,-10.9500,
0.176194,-0.1276,0.2115,0.0048,0.0257,0.0402,-0.0182,-41.2500,12.7500,-10.9500,
0.177374,-0.2185,0.0453,0.0346,0.0257,0.0402,-0.0182,-41.2500,12.7500,-10.9500,
0.193648,-0.2185,0.0453,0.0346,0.0257,0.0402,-0.0182,-41.2500,12.7500,-10.9500,
0.196271,-0.1299,-0.1015,0.0491,0.0257,0.0402,-0.0182,-41.2500,12.7500,-10.9500,
0.198187,-0.1299,-0.1015,0.0491,0.0257,0.0402,-0.0182,-41.4000,12.7500,-11.1750,
0.211952,-0.1299,-0.1015,0.0491,0.0257,0.0402,-0.0182,-41.4000,12.7500,-11.1750,
0.214070,-0.2931,-0.0672,0.0149,0.0257,0.0402,-0.0182,-41.4000,12.7500,-11.1750,
0.227809,-0.2931,-0.0672,0.0149,0.0257,0.0402,-0.0182,-41.4000,12.7500,-11.1750,
0.230537,-0.2949,-0.0529,0.1533,0.0257,0.0402,-0.0182,-41.4000,12.7500,-11.1750,
0.237171,-0.2949,-0.0529,0.1533,0.0444,0.0454,-0.0066,-41.4000,12.7500,-11.1750,
0.256462,-0.2949,-0.0529,0.1533,0.0444,0.0454,-0.0066,-41.4000,12.7500,-11.1750,
0.258672,-0.1007,-0.0838,-0.0492,0.0444,0.0454,-0.0066,-41.4000,12.7500,-11.1750,
0.266456,-0.1007,-0.0838,-0.0492,0.0444,0.0454,-0.0066,-41.4000,12.7500,-11.1750,
0.270397,-0.0837,0.0264,-0.1149,0.0444,0.0454,-0.0066,-41.4000,12.7500,-11.1750,
0.271387,-0.0837,0.0264,-0.1149,0.0444,0.0454,-0.0066,-41.5500,12.9750,-11.3250,
0.298796,-0.0837,0.0264,-0.1149,0.0444,0.0454,-0.0066,-41.5500,12.9750,-11.3250,
0.300124,-0.1559,0.0598,-0.0131,0.0444,0.0454,-0.0066,-41.5500,12.9750,-11.3250,
0.311405,-0.1559,0.0598,-0.0131,0.0446,0.0371,0.0038,-41.5500,12.9750,-11.3250,
0.317916,-0.1559,0.0598,-0.0131,0.0446,0.0371,0.0038,-41.5500,12.9750,-11.3250,
0.319519,-0.1584,-0.0005,-0.0942,0.0446,0.0371,0.0038,-41.5500,12.9750,-11.3250,
0.335117,-0.1584,-0.0005,-0.0942,0.0446,0.0371,0.0038,-41.5500,12.9750,-11.3250,
0.336812,-0.1221,0.0095,-0.1311,0.0446,0.0371,0.0038,-41.5500,12.9750,-11.3250,
0.338095,-0.1221,0.0095,-0.1311,0.0446,0.0371,0.0038,-41.8500,12.6750,-11.5500,
0.356017,-0.1221,0.0095,-0.1311,0.0446,0.0371,0.0038,-41.8500,12.6750,-11.5500,
0.357473,-0.0763,0.0664,-0.0746,0.0446,0.0371,0.0038,-41.8500,12.6750,-11.5500,
0.375210,-0.0763,0.0664,-0.0746,0.0446,0.0371,0.0038,-41.8500,12.6750,-11.5500,
0.376881,-0.1029,0.0589,-0.0073,0.0446,0.0371,0.0038,-41.8500,12.6750,-11.5500,
0.378275,-0.1029,0.0589,-0.0073,0.0469,0.0480,0.0043,-41.8500,12.6750,-11.5500,
0.394946,-0.1029,0.0589,-0.0073,0.0469,0.0480,0.0043,-41.8500,12.6750,-11.5500,
0.396701,-0.1413,0.0071,0.0467,0.0469,0.0480,0.0043,-41.8500,12.6750,-11.5500,
0.407017,-0.1413,0.0071,0.0467,0.0469,0.0480,0.0043,-41.2500,12.7500,-11.2500,
0.416559,-0.1413,0.0071,0.0467,0.0469,0.0480,0.0043,-41.2500,12.7500,-11.2500,
0.419109,-0.1804,0.0034,-0.0050,0.0469,0.0480,0.0043,-41.2500,12.7500,-11.2500,
0.427553,-0.1804,0.0034,-0.0050,0.0469,0.0480,0.0043,-41.2500,12.7500,-11.2500,
0.430433,-0.1381,0.0375,-0.0142,0.0469,0.0480,0.0043,-41.2500,12.7500,-11.2500,
0.447481,-0.1381,0.0375,-0.0142,0.0904,0.0727,0.0032,-41.2500,12.7500,-11.2500,
0.451436,-0.1381,0.0375,-0.0142,0.0904,0.0727,0.0032,-41.2500,12.7500,-11.2500,
0.453166,-0.1206,0.0954,-0.0563,0.0904,0.0727,0.0032,-41.2500,12.7500,-11.2500,
0.471389,-0.1206,0.0954,-0.0563,0.0904,0.0727,0.0032,-41.2500,12.7500,-11.2500,
0.473411,-0.1507,0.1495,-0.0770,0.0904,0.0727,0.0032,-41.2500,12.7500,-11.2500,
0.475653,-0.1507,0.1495,-0.0770,0.0904,0.0727,0.0032,-41.5500,12.3000,-11.8500,
0.491895,-0.1507,0.1495,-0.0770,0.0904,0.0727,0.0032,-41.5500,12.3000,-11.8500,
0.494178,-0.1170,0.0914,-0.1202,0.0904,0.0727,0.0032,-41.5500,12.3000,-11.8500,
0.510195,-0.1170,0.0914,-0.1202,0.0904,0.0727,0.0032,-41.5500,12.3000,-11.8500,
0.511900,-0.1010,0.0674,-0.0986,0.0904,0.0727,0.0032,-41.5500,12.3000,-11.8500,
0.516448,-0.1010,0.0674,-0.0986,0.0622,0.0731,-0.0082,-41.5500,12.3000,-11.8500,
0.527280,-0.1010,0.0674,-0.0986,0.0622,0.0731,-0.0082,-41.5500,12.3000,-11.8500,
0.528900,-0.0939,-0.0242,-0.0935,0.0622,0.0731,-0.0082,-41.5500,12.3000,-11.8500,
0.545393,-0.0939,-0.0242,-0.0935,0.0622,0.0731,-0.0082,-40.5000,12.6750,-11.5500,
0.554721,-0.0939,-0.0242,-0.0935,0.0622,0.0731,-0.0082,-40.5000,12.6750,-11.5500,
0.556775,-0.0997,-0.0175,-0.0223,0.0622,0.0731,-0.0082,-40.5000,12.6750,-11.5500,
0.574180,-0.0997,-0.0175,-0.0223,0.0622,0.0731,-0.0082,-40.5000,12.6750,-11.5500,
0.576351,-0.0618,0.0335,0.0835,0.0622,0.0731,-0.0082,-40.5000,12.6750,-11.5500,
0.588581,-0.0618,0.0335,0.0835,0.0031,0.0538,-0.0186,-40.5000,12.6750,-11.5500,
0.593364,-0.0618,0.0335,0.0835,0.0031,0.0538,-0.0186,-40.5000,12.6750,-11.5500,
0.595135,-0.0248,-0.0064,0.0953,0.0031,0.0538,-0.0186,-40.5000,12.6750,-11.5500,
0.614492,-0.0248,-0.0064,0.0953,0.0031,0.0538,-0.0186,-40.5000,12.6750,-11.5500,
0.617430,-0.0462,0.0588,0.1526,0.0031,0.0538,-0.0186,-40.5000,12.6750,-11.5500,
0.619404,-0.0462,0.0588,0.1526,0.0031,0.0538,-0.0186,-40.2750,12.7500,-12.1500,
0.628161,-0.0462,0.0588,0.1526,0.0031,0.0538,-0.0186,-40.2750,12.7500,-12.1500,
0.629453,-0.1009,0.1659,0.2383,0.0031,0.0538,-0.0186,-40.2750,12.7500,-12.1500,
0.653209,-0.1009,0.1659,0.2383,0.0031,0.0538,-0.0186,-40.2750,12.7500,-12.1500,
0.654864,-0.1589,0.2170,0.2923,0.0031,0.0538,-0.0186,-40.2750,12.7500,-12.1500,
0.657743,-0.1589,0.2170,0.2923,0.0027,0.0496,-0.0205,-40.2750,12.7500,-12.1500,
0.672778,-0.1589,0.2170,0.2923,0.0027,0.0496,-0.0205,-40.2750,12.7500,-12.1500,
0.674385,-0.1773,0.2524,0.3747,0.0027,0.0496,-0.0205,-40.2750,12.7500,-12.1500,
0.686377,-0.1773,0.2524,0.3747,0.0027,0.0496,-0.0205,-40.3500,12.6750,-12.3750,
0.692696,-0.1773,0.2524,0.3747,0.0027,0.0496,-0.0205,-40.3500,12.6750,-12.3750,
0.694121,-0.1375,0.2328,0.4345,0.0027,0.0496,-0.0205,-40.3500,12.6750,-12.3750,
0.711901,-0.1375,0.2328,0.4345,0.0027,0.0496,-0.0205,-40.3500,12.6750,-12.3750,
0.716022,-0.0362,0.1837,0.2781,0.0027,0.0496,-0.0205,-40.3500,12.6750,-12.3750,
0.726426,-0.0362,0.1837,0.2781,0.0641,0.0655,-0.0206,-40.3500,12.6750,-12.3750,
0.731312,-0.0362,0.1837,0.2781,0.0641,0.0655,-0.0206,-40.3500,12.6750,-12.3750,
0.734480,-0.1652,0.1264,0.1695,0.0641,0.0655,-0.0206,-40.3500,12.6750,-12.3750,
0.750158,-0.1652,0.1264,0.1695,0.0641,0.0655,-0.0206,-40.3500,12.6750,-12.3750,
0.752010,-0.1316,0.0049,0.0474,0.0641,0.0655,-0.0206,-40.3500,12.6750,-12.3750,
0.755188,-0.1316,0.0049,0.0474,0.0641,0.0655,-0.0206,-40.0500,11.8500,-12.3750,
0.769840,-0.1316,0.0049,0.0474,0.0641,0.0655,-0.0206,-40.0500,11.8500,-12.3750,
0.771974,-0.0645,-0.0364,-0.1518,0.0641,0.0655,-0.0206,-40.0500,11.8500,-12.3750,
0.789159,-0.0645,-0.0364,-0.1518,0.0641,0.0655,-0.0206,-40.0500,11.8500,-12.3750,
0.791645,-0.0990,-0.0412,-0.0481,0.0641,0.0655,-0.0206,-40.0500,11.8500,-12.3750,
0.794134,-0.0990,-0.0412,-0.0481,0.0440,0.0692,-0.0463,-40.0500,11.8500,-12.3750,
0.808579,-0.0990,-0.0412,-0.0481,0.0440,0.0692,-0.0463,-40.0500,11.8500,-12.3750,
0.811271,-0.0962,-0.0835,0.0607,0.0440,0.0692,-0.0463,-40.0500,11.8500,-12.3750,
0.825433,-0.0962,-0.0835,0.0607,0.0440,0.0692,-0.0463,-40.0500,11.8500,-12.3750,
0.828002,-0.0311,-0.0274,0.0312,0.0440,0.0692,-0.0463,-40.0500,11.8500,-12.3750,
0.829595,-0.0311,-0.0274,0.0312,0.0440,0.0692,-0.0463,-40.5750,11.5500,-12.7500,
0.852855,-0.0311,-0.0274,0.0312,0.0440,0.0692,-0.0463,-40.5750,11.5500,-12.7500,
0.855406,-0.0266,0.0954,-0.3581,0.0440,0.0692,-0.0463,-40.5750,11.5500,-12.7500,
0.868939,-0.0266,0.0954,-0.3581,-0.0108,0.0386,-0.0722,-40.5750,11.5500,-12.7500,
0.872018,-0.0266,0.0954,-0.3581,-0.0108,0.0386,-0.0722,-40.5750,11.5500,-12.7500,
0.873800,-0.0682,0.2694,-0.5866,-0.0108,0.0386,-0.0722,-40.5750,11.5500,-12.7500,
0.893212,-0.0682,0.2694,-0.5866,-0.0108,0.0386,-0.0722,-40.5750,11.5500,-12.7500,
0.896063,-0.1861,0.2456,-0.7751,-0.0108,0.0386,-0.0722,-40.5750,11.5500,-12.7500,
0.898183,-0.1861,0.2456,-0.7751,-0.0108,0.0386,-0.0722,-40.3500,12.3000,-13.0500,
0.911406,-0.1861,0.2456,-0.7751,-0.0108,0.0386,-0.0722,-40.3500,12.3000,-13.0500,
0.913552,-0.3362,0.1818,-0.7671,-0.0108,0.0386,-0.0722,-40.3500,12.3000,-13.0500,
0.927512,-0.3362,0.1818,-0.7671,-0.0108,0.0386,-0.0722,-40.3500,12.3000,-13.0500,
0.929448,-0.3857,0.0617,-0.5725,-0.0108,0.0386,-0.0722,-40.3500,12.3000,-13.0500,
0.935534,-0.3857,0.0617,-0.5725,-0.1781,-0.0212,-0.0565,-40.3500,12.3000,-13.0500,
0.950962,-0.3857,0.0617,-0.5725,-0.1781,-0.0212,-0.0565,-40.3500,12.3000,-13.0500,
0.954310,-0.2851,0.0124,-0.3637,-0.1781,-0.0212,-0.0565,-40.3500,12.3000,-13.0500,
0.966511,-0.2851,0.0124,-0.3637,-0.1781,-0.0212,-0.0565,-40.3500,12.3000,-13.0500,
0.969165,-0.2092,0.0399,-0.3600,-0.1781,-0.0212,-0.0565,-40.3500,12.3000,-13.0500,
0.971344,-0.2092,0.0399,-0.3600,-0.1781,-0.0212,-0.0565,-40.8750,12.1500,-12.4500,
0.990066,-0.2092,0.0399,-0.3600,-0.1781,-0.0212,-0.0565,-40.8750,12.1500,-12.4500,
0.992751,-0.1355,0.1062,-0.2782,-0.1781,-0.0212,-0.0565,-40.8750,12.1500,-12.4500,
1.004312,-0.1355,0.1062,-0.2782,-0.2147,-0.0889,-0.0183,-40.8750,12.1500,-12.4500,
1.009148,-0.1355,0.1062,-0.2782,-0.2147,-0.0889,-0.0183,-40.8750,12.1500,-12.4500,
1.011231,-0.0820,0.1172,-0.2172,-0.2147,-0.0889,-0.0183,-40.8750,12.1500,-12.4500,
1.028217,-0.0820,0.1172,-0.2172,-0.2147,-0.0889,-0.0183,-40.8750,12.1500,-12.4500,
1.031170,-0.0688,0.0378,-0.1620,-0.2147,-0.0889,-0.0183,-40.8750,12.1500,-12.4500,
1.036232,-0.0688,0.0378,-0.1620,-0.2147,-0.0889,-0.0183,-40.3500,12.1500,-11.4750,
1.048725,-0.0688,0.0378,-0.1620,-0.2147,-0.0889,-0.0183,-40.3500,12.1500,-11.4750,
1.050679,-0.1053,-0.0004,-0.0241,-0.2147,-0.0889,-0.0183,-40.3500,12.1500,-11.4750,
1.068671,-0.1053,-0.0004,-0.0241,-0.2147,-0.0889,-0.0183,-40.3500,12.1500,-11.4750,
1.070724,-0.1191,-0.0785,0.0618,-0.2147,-0.0889,-0.0183,-40.3500,12.1500,-11.4750,
1.072512,-0.1191,-0.0785,0.0618,-0.1643,-0.0655,0.0139,-40.3500,12.1500,-11.4750,
1.087913,-0.1191,-0.0785,0.0618,-0.1643,-0.0655,0.0139,-40.3500,12.1500,-11.4750,
1.090486,-0.1489,-0.1202,0.0440,-0.1643,-0.0655,0.0139,-40.3500,12.1500,-11.4750,
1.105767,-0.1489,-0.1202,0.0440,-0.1643,-0.0655,0.0139,-40.9500,11.5500,-11.4750,
1.108334,-0.1489,-0.1202,0.0440,-0.1643,-0.0655,0.0139,-40.9500,11.5500,-11.4750,
1.110350,-0.1790,-0.0762,-0.0436,-0.1643,-0.0655,0.0139,-40.9500,11.5500,-11.4750,
1.127139,-0.1790,-0.0762,-0.0436,-0.1643,-0.0655,0.0139,-40.9500,11.5500,-11.4750,
1.128932,-0.1979,0.0140,-0.1340,-0.1643,-0.0655,0.0139,-40.9500,11.5500,-11.4750,
1.146834,-0.1979,0.0140,-0.1340,-0.1113,-0.0331,0.0272,-40.9500,11.5500,-11.4750,
1.150888,-0.1979,0.0140,-0.1340,-0.1113,-0.0331,0.0272,-40.9500,11.5500,-11.4750,
1.152700,-0.1922,0.0327,-0.1566,-0.1113,-0.0331,0.0272,-40.9500,11.5500,-11.4750,
1.171086,-0.1922,0.0327,-0.1566,-0.1113,-0.0331,0.0272,-40.9500,11.5500,-11.4750,
1.173286,-0.1898,-0.0028,-0.0802,-0.1113,-0.0331,0.0272,-40.9500,11.5500,-11.4750,
1.175728,-0.1898,-0.0028,-0.0802,-0.1113,-0.0331,0.0272,-40.3500,12.0750,-11.9250,
1.190276,-0.1898,-0.0028,-0.0802,-0.1113,-0.0331,0.0272,-40.3500,12.0750,-11.9250,
1.192443,-0.2133,-0.1126,-0.0739,-0.1113,-0.0331,0.0272,-40.3500,12.0750,-11.9250,
1.209596,-0.2133,-0.1126,-0.0739,-0.1113,-0.0331,0.0272,-40.3500,12.0750,-11.9250,
1.213054,-0.1277,-0.1582,-0.1353,-0.1113,-0.0331,0.0272,-40.3500,12.0750,-11.9250,
1.216033,-0.1277,-0.1582,-0.1353,-0.0945,-0.0261,0.0394,-40.3500,12.0750,-11.9250,
1.227193,-0.1277,-0.1582,-0.1353,-0.0945,-0.0261,0.0394,-40.3500,12.0750,-11.9250,
1.229263,-0.1367,-0.0102,-0.2668,-0.0945,-0.0261,0.0394,-40.3500,12.0750,-11.9250,
1.239314,-0.1367,-0.0102,-0.2668,-0.0945,-0.0261,0.0394,-40.8000,12.4500,-11.5500,
1.250965,-0.1367,-0.0102,-0.2668,-0.0945,-0.0261,0.0394,-40.8000,12.4500,-11.5500,
1.253101,-0.1621,0.0640,-0.1818,-0.0945,-0.0261,0.0394,-40.8000,12.4500,-11.5500,
1.268361,-0.1621,0.0640,-0.1818,-0.0945,-0.0261,0.0394,-40.8000,12.4500,-11.5500,
1.270661,0.0393,0.0274,-0.1399,-0.0945,-0.0261,0.0394,-40.8000,12.4500,-11.5500,
1.284541,0.0393,0.0274,-0.1399,-0.0866,-0.0134,0.0310,-40.8000,12.4500,-11.5500,
1.287757,0.0393,0.0274,-0.1399,-0.0866,-0.0134,0.0310,-40.8000,12.4500,-11.5500,
1.289362,0.0624,0.0512,-0.2077,-0.0866,-0.0134,0.0310,-40.8000,12.4500,-11.5500,
1.307784,0.0624,0.0512,-0.2077,-0.0866,-0.0134,0.0310,-40.8000,12.4500,-11.5500,
1.310022,0.0385,0.0344,-0.0473,-0.0866,-0.0134,0.0310,-40.8000,12.4500,-11.5500,
1.311657,0.0385,0.0344,-0.0473,-0.0866,-0.0134,0.0310,-40.5750,12.3750,-11.1750,
1.327058,0.0385,0.0344,-0.0473,-0.0866,-0.0134,0.0310,-40.5750,12.3750,-11.1750,
1.328644,-0.0789,-0.0357,0.0616,-0.0866,-0.0134,0.0310,-40.5750,12.3750,-11.1750,
1.347917,-0.0789,-0.0357,0.0616,-0.0866,-0.0134,0.0310,-40.5750,12.3750,-11.1750,
1.349797,-0.1034,-0.0270,0.0356,-0.0866,-0.0134,0.0310,-40.5750,12.3750,-11.1750,
1.351512,-0.1034,-0.0270,0.0356,-0.0596,-0.0249,0.0238,-40.5750,12.3750,-11.1750,
1.368743,-0.1034,-0.0270,0.0356,-0.0596,-0.0249,0.0238,-40.5750,12.3750,-11.1750,
1.371306,-0.0734,0.1108,0.0266,-0.0596,-0.0249,0.0238,-40.5750,12.3750,-11.1750,
1.376026,-0.0734,0.1108,0.0266,-0.0596,-0.0249,0.0238,-40.0500,12.6750,-10.7250,
1.391410,-0.0734,0.1108,0.0266,-0.0596,-0.0249,0.0238,-40.0500,12.6750,-10.7250,
1.393722,-0.0223,0.2017,0.0061,-0.0596,-0.0249,0.0238,-40.0500,12.6750,-10.7250,
1.410477,-0.0223,0.2017,0.0061,-0.0596,-0.0249,0.0238,-40.0500,12.6750,-10.7250,
1.413688,-0.0280,0.1886,-0.0325,-0.0596,-0.0249,0.0238,-40.0500,12.6750,-10.7250,
1.424623,-0.0280,0.1886,-0.0325,-0.0214,-0.0038,0.0162,-40.0500,12.6750,-10.7250,
1.427312,-0.0280,0.1886,-0.0325,-0.0214,-0.0038,0.0162,-40.0500,12.6750,-10.7250,
1.428964,-0.0361,0.2547,0.0609,-0.0214,-0.0038,0.0162,-40.0500,12.6750,-10.7250,
1.449536,-0.0361,0.2547,0.0609,-0.0214,-0.0038,0.0162,-40.0500,12.6750,-10.7250,
1.451242,-0.0491,0.3029,0.2776,-0.0214,-0.0038,0.0162,-40.0500,12.6750,-10.7250,
1.452625,-0.0491,0.3029,0.2776,-0.0214,-0.0038,0.0162,-40.3500,12.4500,-10.7250,
1.469140,-0.0491,0.3029,0.2776,-0.0214,-0.0038,0.0162,-40.3500,12.4500,-10.7250,
1.471145,0.0886,0.1410,0.4156,-0.0214,-0.0038,0.0162,-40.3500,12.4500,-10.7250,
1.489324,0.0886,0.1410,0.4156,-0.0214,-0.0038,0.0162,-40.3500,12.4500,-10.7250,
1.492473,0.0781,0.0474,0.4462,-0.0214,-0.0038,0.0162,-40.3500,12.4500,-10.7250,
1.495297,0.0781,0.0474,0.4462,-0.0536,0.0347,-0.0005,-40.3500,12.4500,-10.7250,
1.508412,0.0781,0.0474,0.4462,-0.0536,0.0347,-0.0005,-40.3500,12.4500,-10.7250,
1.511157,0.0706,0.0046,0.5941,-0.0536,0.0347,-0.0005,-40.3500,12.4500,-10.7250,
1.518273,0.0706,0.0046,0.5941,-0.0536,0.0347,-0.0005,-40.6500,12.7500,-11.1750,
1.527511,0.0706,0.0046,0.5941,-0.0536,0.0347,-0.0005,-40.6500,12.7500,-11.1750,
1.528881,-0.0172,-0.0025,0.6949,-0.0536,0.0347,-0.0005,-40.6500,12.7500,-11.1750,
1.550067,-0.0172,-0.0025,0.6949,-0.0536,0.0347,-0.0005,-40.6500,12.7500,-11.1750,
1.553388,-0.0811,0.1247,0.7625,-0.0536,0.0347,-0.0005,-40.6500,12.7500,-11.1750,
1.561456,-0.0811,0.1247,0.7625,-0.0368,0.0328,-0.0269,-40.6500,12.7500,-11.1750,
1.570259,-0.0811,0.1247,0.7625,-0.0368,0.0328,-0.0269,-40.6500,12.7500,-11.1750,
1.572003,-0.0433,0.3015,0.7689,-0.0368,0.0328,-0.0269,-40.6500,12.7500,-11.1750,
1.586459,-0.0433,0.3015,0.7689,-0.0368,0.0328,-0.0269,-40.6500,12.7500,-11.1750,
1.588518,-0.0256,0.4232,0.7591,-0.0368,0.0328,-0.0269,-40.6500,12.7500,-11.1750,
1.590767,-0.0256,0.4232,0.7591,-0.0368,0.0328,-0.0269,-40.0500,12.7500,-11.7750,
1.606065,-0.0256,0.4232,0.7591,-0.0368,0.0328,-0.0269,-40.0500,12.7500,-11.7750,
1.608420,-0.0366,0.4523,0.7249,-0.0368,0.0328,-0.0269,-40.0500,12.7500,-11.7750,
1.625119,-0.0366,0.4523,0.7249,-0.0368,0.0328,-0.0269,-40.0500,12.7500,-11.7750,
1.628613,-0.0740,0.3819,0.7562,-0.0368,0.0328,-0.0269,-40.0500,12.7500,-11.7750,
1.633572,-0.0740,0.3819,0.7562,-0.0000,0.0738,-0.0250,-40.0500,12.7500,-11.7750,
1.645080,-0.0740,0.3819,0.7562,-0.0000,0.0738,-0.0250,-40.0500,12.7500,-11.7750,
1.648065,-0.1503,0.2636,0.7713,-0.0000,0.0738,-0.0250,-40.0500,12.7500,-11.7750,
1.655901,-0.1503,0.2636,0.7713,-0.0000,0.0738,-0.0250,-40.5000,12.0000,-11.8500,
1.668106,-0.1503,0.2636,0.7713,-0.0000,0.0738,-0.0250,-40.5000,12.0000,-11.8500,
1.671378,-0.2414,0.1701,0.6926,-0.0000,0.0738,-0.0250,-40.5000,12.0000,-11.8500,
1.684032,-0.2414,0.1701,0.6926,-0.0000,0.0738,-0.0250,-40.5000,12.0000,-11.8500,
1.686543,-0.3503,0.2212,0.6867,-0.0000,0.0738,-0.0250,-40.5000,12.0000,-11.8500,
1.698707,-0.3503,0.2212,0.6867,-0.0376,0.0889,-0.0134,-40.5000,12.0000,-11.8500,
1.705975,-0.3503,0.2212,0.6867,-0.0376,0.0889,-0.0134,-40.5000,12.0000,-11.8500,
1.707952,-0.4668,0.2985,0.6668,-0.0376,0.0889,-0.0134,-40.5000,12.0000,-11.8500,
1.723389,-0.4668,0.2985,0.6668,-0.0376,0.0889,-0.0134,-40.5000,12.0000,-11.8500,
1.725799,-0.3508,0.3948,0.6634,-0.0376,0.0889,-0.0134,-40.5000,12.0000,-11.8500,
1.728172,-0.3508,0.3948,0.6634,-0.0376,0.0889,-0.0134,-40.6500,12.0750,-11.8500,
1.748349,-0.3508,0.3948,0.6634,-0.0376,0.0889,-0.0134,-40.6500,12.0750,-11.8500,
1.750814,-0.2470,0.5867,0.4660,-0.0376,0.0889,-0.0134,-40.6500,12.0750,-11.8500,
1.767589,-0.2470,0.5867,0.4660,-0.0376,0.0889,-0.0134,-40.6500,12.0750,-11.8500,
1.770688,-0.1127,0.5992,0.5869,-0.0376,0.0889,-0.0134,-40.6500,12.0750,-11.8500,
1.772478,-0.1127,0.5992,0.5869,-0.1263,0.0567,0.0110,-40.6500,12.0750,-11.8500,
1.786835,-0.1127,0.5992,0.5869,-0.1263,0.0567,0.0110,-40.6500,12.0750,-11.8500,
1.788599,0.1733,0.4334,0.4463,-0.1263,0.0567,0.0110,-40.6500,12.0750,-11.8500,
1.798458,0.1733,0.4334,0.4463,-0.1263,0.0567,0.0110,-40.6500,11.8500,-12.9750,
1.806563,0.1733,0.4334,0.4463,-0.1263,0.0567,0.0110,-40.6500,11.8500,-12.9750,
1.808520,0.2278,0.3416,0.4554,-0.1263,0.0567,0.0110,-40.6500,11.8500,-12.9750,
1.826243,0.2278,0.3416,0.4554,-0.1263,0.0567,0.0110,-40.6500,11.8500,-12.9750,
1.828428,0.1886,0.3850,0.6118,-0.1263,0.0567,0.0110,-40.6500,11.8500,-12.9750,
1.840559,0.1886,0.3850,0.6118,-0.1828,0.0699,-0.0444,-40.6500,11.8500,-12.9750,
1.844991,0.1886,0.3850,0.6118,-0.1828,0.0699,-0.0444,-40.6500,11.8500,-12.9750,
1.846196,0.2579,0.4088,0.5265,-0.1828,0.0699,-0.0444,-40.6500,11.8500,-12.9750,
1.864830,0.2579,0.4088,0.5265,-0.1828,0.0699,-0.0444,-40.6500,11.8500,-12.9750,
1.867019,0.3728,0.4216,0.4507,-0.1828,0.0699,-0.0444,-40.6500,11.8500,-12.9750,
1.868842,0.3728,0.4216,0.4507,-0.1828,0.0699,-0.0444,-40.5000,11.8500,-12.4500,
1.884482,0.3728,0.4216,0.4507,-0.1828,0.0699,-0.0444,-40.5000,11.8500,-12.4500,
1.886826,0.5064,0.5327,0.3992,-0.1828,0.0699,-0.0444,-40.5000,11.8500,-12.4500,
1.905601,0.5064,0.5327,0.3992,-0.1828,0.0699,-0.0444,-40.5000,11.8500,-12.4500,
1.908082,0.4798,0.7514,0.3155,-0.1828,0.0699,-0.0444,-40.5000,11.8500,-12.4500,
1.909619,0.4798,0.7514,0.3155,-0.2175,0.2120,-0.1591,-40.5000,11.8500,-12.4500,
1.923596,0.4798,0.7514,0.3155,-0.2175,0.2120,-0.1591,-40.5000,11.8500,-12.4500,
1.925460,0.2942,0.8338,0.3194,-0.2175,0.2120,-0.1591,-40.5000,11.8500,-12.4500,
1.935394,0.2942,0.8338,0.3194,-0.2175,0.2120,-0.1591,-40.0500,11.5500,-12.7500,
1.943168,0.2942,0.8338,0.3194,-0.2175,0.2120,-0.1591,-40.0500,11.5500,-12.7500,
1.944938,0.0499,0.8645,0.3712,-0.2175,0.2120,-0.1591,-40.0500,11.5500,-12.7500,
1.963684,0.0499,0.8645,0.3712,-0.2175,0.2120,-0.1591,-40.0500,11.5500,-12.7500,
1.965780,-0.1871,1.0956,0.4092,-0.2175,0.2120,-0.1591,-40.0500,11.5500,-12.7500,
1.977715,-0.1871,1.0956,0.4092,-0.2924,0.3569,-0.2338,-40.0500,11.5500,-12.7500,
1.980648,-0.1871,1.0956,0.4092,-0.2924,0.3569,-0.2338,-40.0500,11.5500,-12.7500,
1.982306,-0.2573,1.4986,0.4086,-0.2924,0.3569,-0.2338,-40.0500,11.5500,-12.7500,
1.998287,-0.2573,1.4986,0.4086,-0.2924,0.3569,-0.2338,-40.0500,11.5500,-12.7500,
2.000372,-0.3715,2.0690,0.2920,-0.2924,0.3569,-0.2338,-40.0500,11.5500,-12.7500,
2.005372,-0.3715,2.0690,0.2920,-0.2924,0.3569,-0.2338,-40.8000,10.9500,-13.8750,
2.022164,-0.3715,2.0690,0.2920,-0.2924,0.3569,-0.2338,-40.8000,10.9500,-13.8750,
2.024553,-0.4807,2.8156,0.2047,-0.2924,0.3569,-0.2338,-40.8000,10.9500,-13.8750,
2.045814,-0.4807,2.8156,0.2047,-0.2924,0.3569,-0.2338,-40.8000,10.9500,-13.8750,
2.049800,-0.6456,3.6343,0.0841,-0.2924,0.3569,-0.2338,-40.8000,10.9500,-13.8750,
2.052553,-0.6456,3.6343,0.0841,-0.3567,0.4197,-0.2540,-40.8000,10.9500,-13.8750,
2.070612,-0.6456,3.6343,0.0841,-0.3567,0.4197,-0.2540,-40.8000,10.9500,-13.8750,
2.073391,-0.7713,4.0067,0.0057,-0.3567,0.4197,-0.2540,-40.8000,10.9500,-13.8750,
2.075423,-0.7713,4.0067,0.0057,-0.3567,0.4197,-0.2540,-39.9750,10.3500,-14.3250,
2.084911,-0.7713,4.0067,0.0057,-0.3567,0.4197,-0.2540,-39.9750,10.3500,-14.3250,
2.087156,-0.8207,3.9041,0.4116,-0.3567,0.4197,-0.2540,-39.9750,10.3500,-14.3250,
2.104455,-0.8207,3.9041,0.4116,-0.3567,0.4197,-0.2540,-39.9750,10.3500,-14.3250,
2.107419,-0.6368,3.2928,1.3005,-0.3567,0.4197,-0.2540,-39.9750,10.3500,-14.3250,
2.119336,-0.6368,3.2928,1.3005,-0.3027,0.5498,-0.1153,-39.9750,10.3500,-14.3250,
2.124354,-0.6368,3.2928,1.3005,-0.3027,0.5498,-0.1153,-39.9750,10.3500,-14.3250,
2.126272,-0.4185,2.2055,1.9587,-0.3027,0.5498,-0.1153,-39.9750,10.3500,-14.3250,
2.144122,-0.4185,2.2055,1.9587,-0.3027,0.5498,-0.1153,-39.9750,10.3500,-14.3250,
2.147216,-0.0369,1.0091,2.5705,-0.3027,0.5498,-0.1153,-39.9750,10.3500,-14.3250,
2.149247,-0.0369,1.0091,2.5705,-0.3027,0.5498,-0.1153,-40.0500,10.2750,-15.5250,
2.165366,-0.0369,1.0091,2.5705,-0.3027,0.5498,-0.1153,-40.0500,10.2750,-15.5250,
2.168870,-0.1339,0.4545,3.0260,-0.3027,0.5498,-0.1153,-40.0500,10.2750,-15.5250,
2.183019,-0.1339,0.4545,3.0260,-0.3027,0.5498,-0.1153,-40.0500,10.2750,-15.5250,
2.185312,-0.7207,0.3434,2.4200,-0.3027,0.5498,-0.1153,-40.0500,10.2750,-15.5250,
2.187921,-0.7207,0.3434,2.4200,0.1822,0.7793,-0.0910,-40.0500,10.2750,-15.5250,
2.203654,-0.7207,0.3434,2.4200,0.1822,0.7793,-0.0910,-40.0500,10.2750,-15.5250,
2.207040,-1.2870,0.6113,2.0379,0.1822,0.7793,-0.0910,-40.0500,10.2750,-15.5250,
2.216136,-1.2870,0.6113,2.0379,0.1822,0.7793,-0.0910,-39.6750,10.0500,-18.0750,
2.222177,-1.2870,0.6113,2.0379,0.1822,0.7793,-0.0910,-39.6750,10.0500,-18.0750,
2.223802,-1.6630,0.8692,2.9533,0.1822,0.7793,-0.0910,-39.6750,10.0500,-18.0750,
2.237241,-1.6630,0.8692,2.9533,0.1822,0.7793,-0.0910,-39.6750,10.0500,-18.0750,
2.239954,-1.3299,1.4696,3.1786,0.1822,0.7793,-0.0910,-39.6750,10.0500,-18.0750,
2.255961,-1.3299,1.4696,3.1786,0.5404,0.8445,-0.1805,-39.6750,10.0500,-18.0750,
2.258648,-1.3299,1.4696,3.1786,0.5404,0.8445,-0.1805,-39.6750,10.0500,-18.0750,
2.259776,-1.0337,2.7819,1.9756,0.5404,0.8445,-0.1805,-39.6750,10.0500,-18.0750,
2.275793,-1.0337,2.7819,1.9756,0.5404,0.8445,-0.1805,-39.6750,10.0500,-18.0750,
2.278250,-1.0417,4.7837,1.3425,0.5404,0.8445,-0.1805,-39.6750,10.0500,-18.0750,
2.285750,-1.0417,4.7837,1.3425,0.5404,0.8445,-0.1805,-38.2500,8.2500,-21.1500,
2.306261,-1.0417,4.7837,1.3425,0.5404,0.8445,-0.1805,-38.2500,8.2500,-21.1500,
2.307207,-1.6711,6.8346,1.1126,0.5404,0.8445,-0.1805,-38.2500,8.2500,-21.1500,
2.325646,-1.6711,6.8346,1.1126,0.5404,0.8445,-0.1805,-38.2500,8.2500,-21.1500,
2.326659,-2.6082,6.8205,1.0694,0.5404,0.8445,-0.1805,-38.2500,8.2500,-21.1500,
2.332053,-2.6082,6.8205,1.0694,0.1564,0.3949,-0.3413,-38.2500,8.2500,-21.1500,
2.345637,-2.6082,6.8205,1.0694,0.1564,0.3949,-0.3413,-38.2500,8.2500,-21.1500,
2.346651,-2.3511,7.2217,-0.3478,0.1564,0.3949,-0.3413,-38.2500,8.2500,-21.1500,
2.356473,-2.3511,7.2217,-0.3478,0.1564,0.3949,-0.3413,-37.0500,6.7500,-23.6250,
2.365447,-2.3511,7.2217,-0.3478,0.1564,0.3949,-0.3413,-37.0500,6.7500,-23.6250,
2.367171,-2.1211,8.7676,-0.7869,0.1564,0.3949,-0.3413,-37.0500,6.7500,-23.6250,
2.384180,-2.1211,8.7676,-0.7869,0.1564,0.3949,-0.3413,-37.0500,6.7500,-23.6250,
2.387406,-2.7426,9.1972,0.3526,0.1564,0.3949,-0.3413,-37.0500,6.7500,-23.6250,
2.405115,-2.7426,9.1972,0.3526,-1.4521,-0.0525,-0.3908,-37.0500,6.7500,-23.6250,
2.410086,-2.7426,9.1972,0.3526,-1.4521,-0.0525,-0.3908,-37.0500,6.7500,-23.6250,
2.412859,-2.5605,8.3250,0.2456,-1.4521,-0.0525,-0.3908,-37.0500,6.7500,-23.6250,
2.422886,-2.5605,8.3250,0.2456,-1.4521,-0.0525,-0.3908,-37.0500,6.7500,-23.6250,
2.424744,0.4672,4.9881,1.4921,-1.4521,-0.0525,-0.3908,-37.0500,6.7500,-23.6250,
2.426672,0.4672,4.9881,1.4921,-1.4521,-0.0525,-0.3908,-36.7500,6.1500,-23.9250,
2.442097,0.4672,4.9881,1.4921,-1.4521,-0.0525,-0.3908,-36.7500,6.1500,-23.9250,
2.443813,5.7361,-9.4786,4.6404,-1.4521,-0.0525,-0.3908,-36.7500,6.1500,-23.9250,
2.461720,5.7361,-9.4786,4.6404,-1.4521,-0.0525,-0.3908,-36.7500,6.1500,-23.9250,
2.464597,6.2935,-16.8057,5.6613,-1.4521,-0.0525,-0.3908,-36.7500,6.1500,-23.9250,
2.467585,6.2935,-16.8057,5.6613,-2.7862,0.3488,-1.1353,-36.7500,6.1500,-23.9250,
2.477690,6.2935,-16.8057,5.6613,-2.7862,0.3488,-1.1353,-36.7500,6.1500,-23.9250,
2.479810,3.3141,-5.1352,6.1549,-2.7862,0.3488,-1.1353,-36.7500,6.1500,-23.9250,
2.497769,3.3141,-5.1352,6.1549,-2.7862,0.3488,-1.1353,-36.7500,8.1750,-23.1750,
2.502024,3.3141,-5.1352,6.1549,-2.7862,0.3488,-1.1353,-36.7500,8.1750,-23.1750,
2.503649,-0.5507,-1.5411,8.6405,-2.7862,0.3488,-1.1353,-36.7500,8.1750,-23.1750,
2.520417,-0.5507,-1.5411,8.6405,-2.7862,0.3488,-1.1353,-36.7500,8.1750,-23.1750,
2.522534,-8.1480,4.5667,6.0688,-2.7862,0.3488,-1.1353,-36.7500,8.1750,-23.1750,
2.534999,-8.1480,4.5667,6.0688,-2.7923,0.3903,-0.9641,-36.7500,8.1750,-23.1750,
2.539864,-8.1480,4.5667,6.0688,-2.7923,0.3903,-0.9641,-36.7500,8.1750,-23.1750,
2.541663,-10.1901,12.1224,-1.0810,-2.7923,0.3903,-0.9641,-36.7500,8.1750,-23.1750,
2.559614,-10.1901,12.1224,-1.0810,-2.7923,0.3903,-0.9641,-36.7500,8.1750,-23.1750,
2.562596,-3.8529,15.7782,-3.5202,-2.7923,0.3903,-0.9641,-36.7500,8.1750,-23.1750,
2.570452,-3.8529,15.7782,-3.5202,-2.7923,0.3903,-0.9641,-36.0750,9.0750,-23.4750,
2.583849,-3.8529,15.7782,-3.5202,-2.7923,0.3903,-0.9641,-36.0750,9.0750,-23.4750,
2.586555,6.1238,13.5642,0.6530,-2.7923,0.3903,-0.9641,-36.0750,9.0750,-23.4750,
2.603570,6.1238,13.5642,0.6530,-2.7923,0.3903,-0.9641,-36.0750,9.0750,-23.4750,
2.605935,6.2370,7.5276,0.6209,-2.7923,0.3903,-0.9641,-36.0750,9.0750,-23.4750,
2.608200,6.2370,7.5276,0.6209,-2.7543,0.2668,-0.8446,-36.0750,9.0750,-23.4750,
2.623214,6.2370,7.5276,0.6209,-2.7543,0.2668,-0.8446,-36.0750,9.0750,-23.4750,
2.625353,-3.1409,1.3289,1.1105,-2.7543,0.2668,-0.8446,-36.0750,9.0750,-23.4750,
2.635620,-3.1409,1.3289,1.1105,-2.7543,0.2668,-0.8446,-37.2000,11.5500,-20.9250,
2.642766,-3.1409,1.3289,1.1105,-2.7543,0.2668,-0.8446,-37.2000,11.5500,-20.9250,
2.644269,-10.1416,2.1565,-7.5737,-2.7543,0.2668,-0.8446,-37.2000,11.5500,-20.9250,
2.662113,-10.1416,2.1565,-7.5737,-2.7543,0.2668,-0.8446,-37.2000,11.5500,-20.9250,
2.665111,-6.8978,4.4595,-4.7701,-2.7543,0.2668,-0.8446,-37.2000,11.5500,-20.9250,
2.677082,-6.8978,4.4595,-4.7701,-0.3037,-2.4933,-0.5298,-37.2000,11.5500,-20.9250,
2.680834,-6.8978,4.4595,-4.7701,-0.3037,-2.4933,-0.5298,-37.2000,11.5500,-20.9250,
2.683195,9.6867,1.6017,-1.1790,-0.3037,-2.4933,-0.5298,-37.2000,11.5500,-20.9250,
2.702309,9.6867,1.6017,-1.1790,-0.3037,-2.4933,-0.5298,-37.2000,11.5500,-20.9250,
2.705066,11.5437,-2.1117,-0.0655,-0.3037,-2.4933,-0.5298,-37.2000,11.5500,-20.9250,
2.707805,11.5437,-2.1117,-0.0655,-0.3037,-2.4933,-0.5298,-38.2500,10.6500,-15.1500,
2.721009,11.5437,-2.1117,-0.0655,-0.3037,-2.4933,-0.5298,-38.2500,10.6500,-15.1500,
2.723299,8.4190,6.2538,-7.8964,-0.3037,-2.4933,-0.5298,-38.2500,10.6500,-15.1500,
2.741732,8.4190,6.2538,-7.8964,-0.3037,-2.4933,-0.5298,-38.2500,10.6500,-15.1500,
2.744518,1.6114,-2.9681,-21.1039,-0.3037,-2.4933,-0.5298,-38.2500,10.6500,-15.1500,
2.746692,1.6114,-2.9681,-21.1039,-2.2198,-1.6546,-0.0139,-38.2500,10.6500,-15.1500,
2.760501,1.6114,-2.9681,-21.1039,-2.2198,-1.6546,-0.0139,-38.2500,10.6500,-15.1500,
2.762947,-1.9478,-36.2547,-58.0857,-2.2198,-1.6546,-0.0139,-38.2500,10.6500,-15.1500,
2.775846,-1.9478,-36.2547,-58.0857,-2.2198,-1.6546,-0.0139,-38.2500,10.6500,-15.1500,
2.779793,2.8482,0.1057,-18.7175,-2.2198,-1.6546,-0.0139,-38.2500,10.6500,-15.1500,
2.781832,2.8482,0.1057,-18.7175,-2.2198,-1.6546,-0.0139,-39.4500,10.3500,-6.2250,
2.799559,2.8482,0.1057,-18.7175,-2.2198,-1.6546,-0.0139,-39.4500,10.3500,-6.2250,
2.802236,0.4326,-2.6986,3.9962,-2.2198,-1.6546,-0.0139,-39.4500,10.3500,-6.2250,
2.817815,0.4326,-2.6986,3.9962,-6.9243,-3.4524,-0.5452,-39.4500,10.3500,-6.2250,
2.819872,0.4326,-2.6986,3.9962,-6.9243,-3.4524,-0.5452,-39.4500,10.3500,-6.2250,
2.821212,3.7075,-2.2324,-4.5769,-6.9243,-3.4524,-0.5452,-39.4500,10.3500,-6.2250,
2.844209,3.7075,-2.2324,-4.5769,-6.9243,-3.4524,-0.5452,-39.4500,10.3500,-6.2250,
2.846062,3.2008,-1.4426,-0.8846,-6.9243,-3.4524,-0.5452,-39.4500,10.3500,-6.2250,
2.847684,3.2008,-1.4426,-0.8846,-6.9243,-3.4524,-0.5452,-37.6500,9.0750,7.9500,
2.865682,3.2008,-1.4426,-0.8846,-6.9243,-3.4524,-0.5452,-37.6500,9.0750,7.9500,
2.867551,2.6773,-0.9710,0.1311,-6.9243,-3.4524,-0.5452,-37.6500,9.0750,7.9500,
2.879727,2.6773,-0.9710,0.1311,-6.9243,-3.4524,-0.5452,-37.6500,9.0750,7.9500,
2.881260,3.0885,-0.9961,2.0745,-6.9243,-3.4524,-0.5452,-37.6500,9.0750,7.9500,
2.888619,3.0885,-0.9961,2.0745,-1.7363,-0.9465,0.7211,-37.6500,9.0750,7.9500,
2.904407,3.0885,-0.9961,2.0745,-1.7363,-0.9465,0.7211,-37.6500,9.0750,7.9500,
2.907531,3.5832,-2.1856,1.2766,-1.7363,-0.9465,0.7211,-37.6500,9.0750,7.9500,
2.917182,3.5832,-2.1856,1.2766,-1.7363,-0.9465,0.7211,-36.4500,8.1000,14.3250,
2.922400,3.5832,-2.1856,1.2766,-1.7363,-0.9465,0.7211,-36.4500,8.1000,14.3250,
2.923887,0.2039,-0.8157,-0.1668,-1.7363,-0.9465,0.7211,-36.4500,8.1000,14.3250,
2.941117,0.2039,-0.8157,-0.1668,-1.7363,-0.9465,0.7211,-36.4500,8.1000,14.3250,
2.943353,-2.2051,0.5803,-0.1321,-1.7363,-0.9465,0.7211,-36.4500,8.1000,14.3250,
2.955742,-2.2051,0.5803,-0.1321,-0.5356,-1.0058,0.2065,-36.4500,8.1000,14.3250,
2.961049,-2.2051,0.5803,-0.1321,-0.5356,-1.0058,0.2065,-36.4500,8.1000,14.3250,
2.962933,-1.1323,0.4115,0.4878,-0.5356,-1.0058,0.2065,-36.4500,8.1000,14.3250,
2.977531,-1.1323,0.4115,0.4878,-0.5356,-1.0058,0.2065,-36.4500,8.1000,14.3250,
2.979938,1.0481,0.5018,0.2538,-0.5356,-1.0058,0.2065,-36.4500,8.1000,14.3250,
2.985336,1.0481,0.5018,0.2538,-0.5356,-1.0058,0.2065,-35.2500,8.1750,17.8500,
2.999675,1.0481,0.5018,0.2538,-0.5356,-1.0058,0.2065,-35.2500,8.1750,17.8500,
3.001445,0.8444,2.3237,-1.0661,-0.5356,-1.0058,0.2065,-35.2500,8.1750,17.8500,
3.019182,0.8444,2.3237,-1.0661,-0.5356,-1.0058,0.2065,-35.2500,8.1750,17.8500,
3.021548,0.3528,2.5391,-1.2739,-0.5356,-1.0058,0.2065,-35.2500,8.1750,17.8500,
3.023926,0.3528,2.5391,-1.2739,-0.2283,-0.3170,0.2340,-35.2500,8.1750,17.8500,
3.038894,0.3528,2.5391,-1.2739,-0.2283,-0.3170,0.2340,-35.2500,8.1750,17.8500,
3.041340,-1.0412,1.5391,0.0905,-0.2283,-0.3170,0.2340,-35.2500,8.1750,17.8500,
3.055848,-1.0412,1.5391,0.0905,-0.2283,-0.3170,0.2340,-34.3500,9.0750,19.8750,
3.058355,-1.0412,1.5391,0.0905,-0.2283,-0.3170,0.2340,-34.3500,9.0750,19.8750,
3.059705,-0.7797,1.2965,1.2591,-0.2283,-0.3170,0.2340,-34.3500,9.0750,19.8750,
3.078193,-0.7797,1.2965,1.2591,-0.2283,-0.3170,0.2340,-34.3500,9.0750,19.8750,
3.081088,0.0041,1.6818,0.7412,-0.2283,-0.3170,0.2340,-34.3500,9.0750,19.8750,
3.092334,0.0041,1.6818,0.7412,0.0151,0.2578,0.0644,-34.3500,9.0750,19.8750,
3.102085,0.0041,1.6818,0.7412,0.0151,0.2578,0.0644,-34.3500,9.0750,19.8750,
3.103543,-0.6172,1.8306,0.5091,0.0151,0.2578,0.0644,-34.3500,9.0750,19.8750,
3.118768,-0.6172,1.8306,0.5091,0.0151,0.2578,0.0644,-34.3500,9.0750,19.8750,
3.120384,-1.4671,1.6449,0.2769,0.0151,0.2578,0.0644,-34.3500,9.0750,19.8750,
3.125337,-1.4671,1.6449,0.2769,0.0151,0.2578,0.0644,-33.7500,9.3000,20.0250,
3.142004,-1.4671,1.6449,0.2769,0.0151,0.2578,0.0644,-33.7500,9.3000,20.0250,
3.143894,-2.0241,1.3793,0.2079,0.0151,0.2578,0.0644,-33.7500,9.3000,20.0250,
3.161288,-2.0241,1.3793,0.2079,0.0151,0.2578,0.0644,-33.7500,9.3000,20.0250,
3.163575,-1.3482,1.0648,-0.2021,0.0151,0.2578,0.0644,-33.7500,9.3000,20.0250,
3.166139,-1.3482,1.0648,-0.2021,0.2081,0.5901,-0.0388,-33.7500,9.3000,20.0250,
3.177266,-1.3482,1.0648,-0.2021,0.2081,0.5901,-0.0388,-33.7500,9.3000,20.0250,
3.179522,-0.3589,0.2846,-0.3305,0.2081,0.5901,-0.0388,-33.7500,9.3000,20.0250,
3.190904,-0.3589,0.2846,-0.3305,0.2081,0.5901,-0.0388,-35.1750,9.4500,18.7500,
3.200356,-0.3589,0.2846,-0.3305,0.2081,0.5901,-0.0388,-35.1750,9.4500,18.7500,
3.202200,-0.1526,0.3349,-0.1318,0.2081,0.5901,-0.0388,-35.1750,9.4500,18.7500,
3.220306,-0.1526,0.3349,-0.1318,0.2081,0.5901,-0.0388,-35.1750,9.4500,18.7500,
3.221328,0.4353,0.2298,0.4612,0.2081,0.5901,-0.0388,-35.1750,9.4500,18.7500,
3.238907,0.4353,0.2298,0.4612,0.4433,0.4025,-0.0753,-35.1750,9.4500,18.7500,
3.240480,0.4353,0.2298,0.4612,0.4433,0.4025,-0.0753,-35.1750,9.4500,18.7500,
3.241503,0.4657,0.1252,-0.1048,0.4433,0.4025,-0.0753,-35.1750,9.4500,18.7500,
3.261038,0.4657,0.1252,-0.1048,0.4433,0.4025,-0.0753,-35.1750,9.4500,18.7500,
3.261919,0.2485,0.2039,0.1747,0.4433,0.4025,-0.0753,-35.1750,9.4500,18.7500,
3.262590,0.2485,0.2039,0.1747,0.4433,0.4025,-0.0753,-35.2500,9.7500,17.6250,
3.278587,0.2485,0.2039,0.1747,0.4433,0.4025,-0.0753,-35.2500,9.7500,17.6250,
3.279616,0.4378,-0.0136,0.4281,0.4433,0.4025,-0.0753,-35.2500,9.7500,17.6250,
3.304484,0.4378,-0.0136,0.4281,0.4433,0.4025,-0.0753,-35.2500,9.7500,17.6250,
3.305936,0.2985,0.0056,-0.6655,0.4433,0.4025,-0.0753,-35.2500,9.7500,17.6250,
3.307166,0.2985,0.0056,-0.6655,1.1081,0.6646,-0.0287,-35.2500,9.7500,17.6250,
3.319445,0.2985,0.0056,-0.6655,1.1081,0.6646,-0.0287,-35.2500,9.7500,17.6250,
3.321122,0.1800,-0.1118,-2.0063,1.1081,0.6646,-0.0287,-35.2500,9.7500,17.6250,
3.329462,0.1800,-0.1118,-2.0063,1.1081,0.6646,-0.0287,-36.1500,10.6500,15.4500,
3.338291,0.1800,-0.1118,-2.0063,1.1081,0.6646,-0.0287,-36.1500,10.6500,15.4500,
3.339960,0.4375,-0.2839,-2.0697,1.1081,0.6646,-0.0287,-36.1500,10.6500,15.4500,
3.358368,0.4375,-0.2839,-2.0697,1.1081,0.6646,-0.0287,-36.1500,10.6500,15.4500,
3.359967,1.0826,-0.0759,-1.9270,1.1081,0.6646,-0.0287,-36.1500,10.6500,15.4500,
3.372127,1.0826,-0.0759,-1.9270,2.4582,1.1307,0.2976,-36.1500,10.6500,15.4500,
3.378388,1.0826,-0.0759,-1.9270,2.4582,1.1307,0.2976,-36.1500,10.6500,15.4500,
3.379813,2.2213,-0.1918,-2.0763,2.4582,1.1307,0.2976,-36.1500,10.6500,15.4500,
3.397596,2.2213,-0.1918,-2.0763,2.4582,1.1307,0.2976,-36.1500,10.6500,15.4500,
3.401044,2.4386,-0.8755,-2.9044,2.4582,1.1307,0.2976,-36.1500,10.6500,15.4500,
3.403242,2.4386,-0.8755,-2.9044,2.4582,1.1307,0.2976,-37.6500,12.9750,10.9500,
3.422757,2.4386,-0.8755,-2.9044,2.4582,1.1307,0.2976,-37.6500,12.9750,10.9500,
3.425022,-0.3608,-0.8113,-4.0901,2.4582,1.1307,0.2976,-37.6500,12.9750,10.9500,
3.439919,-0.3608,-0.8113,-4.0901,2.4582,1.1307,0.2976,-37.6500,12.9750,10.9500,
3.441519,-3.4759,-1.8301,-3.0996,2.4582,1.1307,0.2976,-37.6500,12.9750,10.9500,
3.444290,-3.4759,-1.8301,-3.0996,3.4015,1.2800,0.0195,-37.6500,12.9750,10.9500,
3.460515,-3.4759,-1.8301,-3.0996,3.4015,1.2800,0.0195,-37.6500,12.9750,10.9500,
3.462418,-3.6250,-2.4131,-3.1997,3.4015,1.2800,0.0195,-37.6500,12.9750,10.9500,
3.469929,-3.6250,-2.4131,-3.1997,3.4015,1.2800,0.0195,-38.4000,14.8500,4.3500,
3.478132,-3.6250,-2.4131,-3.1997,3.4015,1.2800,0.0195,-38.4000,14.8500,4.3500,
3.480619,-3.3569,-3.2246,-4.7528,3.4015,1.2800,0.0195,-38.4000,14.8500,4.3500,
3.502213,-3.3569,-3.2246,-4.7528,3.4015,1.2800,0.0195,-38.4000,14.8500,4.3500,
3.505249,-0.7301,-2.6595,-5.7505,3.4015,1.2800,0.0195,-38.4000,14.8500,4.3500,
3.514398,-0.7301,-2.6595,-5.7505,2.9374,-0.1028,-0.2654,-38.4000,14.8500,4.3500,
3.518038,-0.7301,-2.6595,-5.7505,2.9374,-0.1028,-0.2654,-38.4000,14.8500,4.3500,
3.519946,4.3495,-0.8995,-4.9174,2.9374,-0.1028,-0.2654,-38.4000,14.8500,4.3500,
3.538203,4.3495,-0.8995,-4.9174,2.9374,-0.1028,-0.2654,-38.4000,14.8500,4.3500,
3.540199,4.5207,-1.6961,-1.9300,2.9374,-0.1028,-0.2654,-38.4000,14.8500,4.3500,
3.542016,4.5207,-1.6961,-1.9300,2.9374,-0.1028,-0.2654,-38.8500,14.5500,-1.6500,
3.558037,4.5207,-1.6961,-1.9300,2.9374,-0.1028,-0.2654,-38.8500,14.5500,-1.6500,
3.560436,0.9594,-1.0731,-3.1621,2.9374,-0.1028,-0.2654,-38.8500,14.5500,-1.6500,
3.577058,0.9594,-1.0731,-3.1621,2.9374,-0.1028,-0.2654,-38.8500,14.5500,-1.6500,
3.579596,-2.1134,0.0346,-0.3434,2.9374,-0.1028,-0.2654,-38.8500,14.5500,-1.6500,
3.581556,-2.1134,0.0346,-0.3434,2.0654,0.1242,0.1370,-38.8500,14.5500,-1.6500,
3.597753,-2.1134,0.0346,-0.3434,2.0654,0.1242,0.1370,-38.8500,14.5500,-1.6500,
3.600155,-4.2156,0.3495,-0.5293,2.0654,0.1242,0.1370,-38.8500,14.5500,-1.6500,
3.606458,-4.2156,0.3495,-0.5293,2.0654,0.1242,0.1370,-39.3750,13.5750,-5.5500,
3.620348,-4.2156,0.3495,-0.5293,2.0654,0.1242,0.1370,-39.3750,13.5750,-5.5500,
3.623221,-1.1629,0.0478,0.0588,2.0654,0.1242,0.1370,-39.3750,13.5750,-5.5500,
3.635196,-1.1629,0.0478,0.0588,2.0654,0.1242,0.1370,-39.3750,13.5750,-5.5500,
3.636896,2.8022,2.2102,-1.5659,2.0654,0.1242,0.1370,-39.3750,13.5750,-5.5500,
3.653118,2.8022,2.2102,-1.5659,1.4167,0.1127,0.4626,-39.3750,13.5750,-5.5500,
3.656479,2.8022,2.2102,-1.5659,1.4167,0.1127,0.4626,-39.3750,13.5750,-5.5500,
3.657645,1.8987,3.3879,-1.3424,1.4167,0.1127,0.4626,-39.3750,13.5750,-5.5500,
3.675367,1.8987,3.3879,-1.3424,1.4167,0.1127,0.4626,-39.3750,13.5750,-5.5500,
3.677612,-0.3761,1.9535,0.1297,1.4167,0.1127,0.4626,-39.3750,13.5750,-5.5500,
3.679508,-0.3761,1.9535,0.1297,1.4167,0.1127,0.4626,-39.4500,13.5000,-8.5500,
3.695260,-0.3761,1.9535,0.1297,1.4167,0.1127,0.4626,-39.4500,13.5000,-8.5500,
3.697692,-0.5123,0.9722,0.1245,1.4167,0.1127,0.4626,-39.4500,13.5000,-8.5500,
3.716851,-0.5123,0.9722,0.1245,1.4167,0.1127,0.4626,-39.4500,13.5000,-8.5500,
3.720883,0.0201,2.4144,0.4379,1.4167,0.1127,0.4626,-39.4500,13.5000,-8.5500,
3.723706,0.0201,2.4144,0.4379,0.2314,-0.0490,0.1506,-39.4500,13.5000,-8.5500,
3.738899,0.0201,2.4144,0.4379,0.2314,-0.0490,0.1506,-39.4500,13.5000,-8.5500,
3.741155,-1.4291,2.5988,-0.6233,0.2314,-0.0490,0.1506,-39.4500,13.5000,-8.5500,
3.751382,-1.4291,2.5988,-0.6233,0.2314,-0.0490,0.1506,-40.0500,14.1000,-10.0500,
3.757847,-1.4291,2.5988,-0.6233,0.2314,-0.0490,0.1506,-40.0500,14.1000,-10.0500,
3.759313,-2.0195,1.7887,-0.5133,0.2314,-0.0490,0.1506,-40.0500,14.1000,-10.0500,
3.777308,-2.0195,1.7887,-0.5133,0.2314,-0.0490,0.1506,-40.0500,14.1000,-10.0500,
3.779844,-0.7515,2.1518,-0.8909,0.2314,-0.0490,0.1506,-40.0500,14.1000,-10.0500,
3.791524,-0.7515,2.1518,-0.8909,-1.1036,-0.5334,-0.0617,-40.0500,14.1000,-10.0500,
3.801980,-0.7515,2.1518,-0.8909,-1.1036,-0.5334,-0.0617,-40.0500,14.1000,-10.0500,
3.804293,0.1321,2.1188,-0.4192,-1.1036,-0.5334,-0.0617,-40.0500,14.1000,-10.0500,
3.819775,0.1321,2.1188,-0.4192,-1.1036,-0.5334,-0.0617,-40.0500,14.1000,-10.0500,
3.822254,0.9445,2.4068,-0.9023,-1.1036,-0.5334,-0.0617,-40.0500,14.1000,-10.0500,
3.824581,0.9445,2.4068,-0.9023,-1.1036,-0.5334,-0.0617,-40.5000,13.8000,-8.5500,
3.835749,0.9445,2.4068,-0.9023,-1.1036,-0.5334,-0.0617,-40.5000,13.8000,-8.5500,
3.838574,1.0396,3.5076,-1.1215,-1.1036,-0.5334,-0.0617,-40.5000,13.8000,-8.5500,
3.856055,1.0396,3.5076,-1.1215,-1.1036,-0.5334,-0.0617,-40.5000,13.8000,-8.5500,
3.858795,0.5800,4.1802,-0.8866,-1.1036,-0.5334,-0.0617,-40.5000,13.8000,-8.5500,
3.861416,0.5800,4.1802,-0.8866,-1.9683,-0.5783,-0.0608,-40.5000,13.8000,-8.5500,
3.875603,0.5800,4.1802,-0.8866,-1.9683,-0.5783,-0.0608,-40.5000,13.8000,-8.5500,
3.878769,0.4882,3.7611,-0.5324,-1.9683,-0.5783,-0.0608,-40.5000,13.8000,-8.5500,
3.885525,0.4882,3.7611,-0.5324,-1.9683,-0.5783,-0.0608,-41.1000,13.8000,-5.5500,
3.894912,0.4882,3.7611,-0.5324,-1.9683,-0.5783,-0.0608,-41.1000,13.8000,-5.5500,
3.896677,1.5567,3.3050,-1.2170,-1.9683,-0.5783,-0.0608,-41.1000,13.8000,-5.5500,
3.916164,1.5567,3.3050,-1.2170,-1.9683,-0.5783,-0.0608,-41.1000,13.8000,-5.5500,
3.919048,2.4576,2.8283,-1.2905,-1.9683,-0.5783,-0.0608,-41.1000,13.8000,-5.5500,
3.928605,2.4576,2.8283,-1.2905,-2.0326,-0.4378,-0.0119,-41.1000,13.8000,-5.5500,
3.938524,2.4576,2.8283,-1.2905,-2.0326,-0.4378,-0.0119,-41.1000,13.8000,-5.5500,
3.940136,1.1528,3.0407,-0.3965,-2.0326,-0.4378,-0.0119,-41.1000,13.8000,-5.5500,
3.953296,1.1528,3.0407,-0.3965,-2.0326,-0.4378,-0.0119,-41.1000,13.8000,-5.5500,
3.956242,1.1617,3.4141,-0.7688,-2.0326,-0.4378,-0.0119,-41.1000,13.8000,-5.5500,
3.958216,1.1617,3.4141,-0.7688,-2.0326,-0.4378,-0.0119,-40.9500,14.1750,-2.5500,
3.973128,1.1617,3.4141,-0.7688,-2.0326,-0.4378,-0.0119,-40.9500,14.1750,-2.5500,
3.976224,2.2550,2.4016,-1.0471,-2.0326,-0.4378,-0.0119,-40.9500,14.1750,-2.5500,
3.992983,2.2550,2.4016,-1.0471,-2.0326,-0.4378,-0.0119,-40.9500,14.1750,-2.5500,
3.995838,2.3320,1.7445,-0.4154,-2.0326,-0.4378,-0.0119,-40.9500,14.1750,-2.5500,
3.998534,2.3320,1.7445,-0.4154,-1.5215,-0.0434,-0.1790,-40.9500,14.1750,-2.5500,
4.010539,2.3320,1.7445,-0.4154,-1.5215,-0.0434,-0.1790,-40.9500,14.1750,-2.5500,
4.013077,1.8179,1.8642,1.0413,-1.5215,-0.0434,-0.1790,-40.9500,14.1750,-2.5500,
4.025924,1.8179,1.8642,1.0413,-1.5215,-0.0434,-0.1790,-41.1000,13.6500,0.4500,
4.037370,1.8179,1.8642,1.0413,-1.5215,-0.0434,-0.1790,-41.1000,13.6500,0.4500,
4.039015,2.1512,1.5827,0.2174,-1.5215,-0.0434,-0.1790,-41.1000,13.6500,0.4500,
4.057185,2.1512,1.5827,0.2174,-1.5215,-0.0434,-0.1790,-41.1000,13.6500,0.4500,
4.059064,1.3222,1.2651,-0.5519,-1.5215,-0.0434,-0.1790,-41.1000,13.6500,0.4500,
4.071344,1.3222,1.2651,-0.5519,-0.8503,0.9132,-0.2120,-41.1000,13.6500,0.4500,
4.076520,1.3222,1.2651,-0.5519,-0.8503,0.9132,-0.2120,-41.1000,13.6500,0.4500,
4.078004,-0.3606,0.7499,0.5683,-0.8503,0.9132,-0.2120,-41.1000,13.6500,0.4500,
4.096922,-0.3606,0.7499,0.5683,-0.8503,0.9132,-0.2120,-41.1000,13.6500,0.4500,
4.098703,-0.3095,-0.0606,1.0255,-0.8503,0.9132,-0.2120,-41.1000,13.6500,0.4500,
4.100189,-0.3095,-0.0606,1.0255,-0.8503,0.9132,-0.2120,-41.8500,12.9750,-0.4500,
4.117353,-0.3095,-0.0606,1.0255,-0.8503,0.9132,-0.2120,-41.8500,12.9750,-0.4500,
4.119450,-0.2951,-0.3528,0.8758,-0.8503,0.9132,-0.2120,-41.8500,12.9750,-0.4500,
4.135446,-0.2951,-0.3528,0.8758,-0.8503,0.9132,-0.2120,-41.8500,12.9750,-0.4500,
4.137379,-0.7641,-0.6645,1.9818,-0.8503,0.9132,-0.2120,-41.8500,12.9750,-0.4500,
4.139876,-0.7641,-0.6645,1.9818,-0.1151,1.2217,-0.1423,-41.8500,12.9750,-0.4500,
4.154720,-0.7641,-0.6645,1.9818,-0.1151,1.2217,-0.1423,-41.8500,12.9750,-0.4500,
4.158614,-0.4470,-1.4045,2.8121,-0.1151,1.2217,-0.1423,-41.8500,12.9750,-0.4500,
4.166406,-0.4470,-1.4045,2.8121,-0.1151,1.2217,-0.1423,-40.8750,12.7500,-3.6750,
4.173817,-0.4470,-1.4045,2.8121,-0.1151,1.2217,-0.1423,-40.8750,12.7500,-3.6750,
4.175930,0.1700,-0.5544,1.8386,-0.1151,1.2217,-0.1423,-40.8750,12.7500,-3.6750,
4.193270,0.1700,-0.5544,1.8386,-0.1151,1.2217,-0.1423,-40.8750,12.7500,-3.6750,
4.196148,-0.7380,-0.0879,0.6594,-0.1151,1.2217,-0.1423,-40.8750,12.7500,-3.6750,
4.207595,-0.7380,-0.0879,0.6594,0.6188,1.1948,-0.0733,-40.8750,12.7500,-3.6750,
4.218859,-0.7380,-0.0879,0.6594,0.6188,1.1948,-0.0733,-40.8750,12.7500,-3.6750,
4.220764,-2.3733,-0.5292,0.2948,0.6188,1.1948,-0.0733,-40.8750,12.7500,-3.6750,
4.227817,-2.3733,-0.5292,0.2948,0.6188,1.1948,-0.0733,-40.8750,12.7500,-3.6750,
4.229455,-1.9292,-1.3681,-1.0577,0.6188,1.1948,-0.0733,-40.8750,12.7500,-3.6750,
4.236839,-1.9292,-1.3681,-1.0577,0.6188,1.1948,-0.0733,-41.8500,12.4500,-7.6500,
4.252120,-1.9292,-1.3681,-1.0577,0.6188,1.1948,-0.0733,-41.8500,12.4500,-7.6500,
4.254689,-0.3309,-2.7190,-0.9355,0.6188,1.1948,-0.0733,-41.8500,12.4500,-7.6500,
4.273377,-0.3309,-2.7190,-0.9355,0.6188,1.1948,-0.0733,-41.8500,12.4500,-7.6500,
4.276178,0.2569,-3.0552,-0.8139,0.6188,1.1948,-0.0733,-41.8500,12.4500,-7.6500,
4.278140,0.2569,-3.0552,-0.8139,0.6334,0.2098,-0.0304,-41.8500,12.4500,-7.6500,
4.291371,0.2569,-3.0552,-0.8139,0.6334,0.2098,-0.0304,-41.8500,12.4500,-7.6500,
4.294318,-0.5762,-3.2870,-0.4639,0.6334,0.2098,-0.0304,-41.8500,12.4500,-7.6500,
4.306312,-0.5762,-3.2870,-0.4639,0.6334,0.2098,-0.0304,-40.8000,12.6000,-9.2250,
4.318268,-0.5762,-3.2870,-0.4639,0.6334,0.2098,-0.0304,-40.8000,12.6000,-9.2250,
4.320654,-1.1263,-3.3388,0.3772,0.6334,0.2098,-0.0304,-40.8000,12.6000,-9.2250,
4.335383,-1.1263,-3.3388,0.3772,0.6334,0.2098,-0.0304,-40.8000,12.6000,-9.2250,
4.337937,-1.3339,-3.3474,0.8143,0.6334,0.2098,-0.0304,-40.8000,12.6000,-9.2250,
4.351287,-1.3339,-3.3474,0.8143,0.9951,-0.3189,0.2966,-40.8000,12.6000,-9.2250,
4.355003,-1.3339,-3.3474,0.8143,0.9951,-0.3189,0.2966,-40.8000,12.6000,-9.2250,
4.356461,-1.3091,-3.6607,1.3932,0.9951,-0.3189,0.2966,-40.8000,12.6000,-9.2250,
4.375377,-1.3091,-3.6607,1.3932,0.9951,-0.3189,0.2966,-40.8000,12.6000,-9.2250,
4.377023,-0.5893,-3.2545,0.6442,0.9951,-0.3189,0.2966,-40.8000,12.6000,-9.2250,
4.378725,-0.5893,-3.2545,0.6442,0.9951,-0.3189,0.2966,-41.2500,12.4500,-10.0500,
4.395170,-0.5893,-3.2545,0.6442,0.9951,-0.3189,0.2966,-41.2500,12.4500,-10.0500,
4.396970,0.1015,-2.3499,-0.0220,0.9951,-0.3189,0.2966,-41.2500,12.4500,-10.0500,
4.413725,0.1015,-2.3499,-0.0220,0.9951,-0.3189,0.2966,-41.2500,12.4500,-10.0500,
4.415574,1.1557,-1.8690,0.2063,0.9951,-0.3189,0.2966,-41.2500,12.4500,-10.0500,
4.421083,1.1557,-1.8690,0.2063,1.7348,-0.5171,0.6855,-41.2500,12.4500,-10.0500,
4.430193,1.1557,-1.8690,0.2063,1.7348,-0.5171,0.6855,-41.2500,12.4500,-10.0500,
4.431628,1.7132,-1.7274,0.3239,1.7348,-0.5171,0.6855,-41.2500,12.4500,-10.0500,
4.446313,1.7132,-1.7274,0.3239,1.7348,-0.5171,0.6855,-41.5500,13.0500,-9.9750,
4.452467,1.7132,-1.7274,0.3239,1.7348,-0.5171,0.6855,-41.5500,13.0500,-9.9750,
4.454548,1.8421,-1.5295,-0.1082,1.7348,-0.5171,0.6855,-41.5500,13.0500,-9.9750,
4.471772,1.8421,-1.5295,-0.1082,1.7348,-0.5171,0.6855,-41.5500,13.0500,-9.9750,
4.473681,0.7687,-1.0377,-0.4160,1.7348,-0.5171,0.6855,-41.5500,13.0500,-9.9750,
4.486285,0.7687,-1.0377,-0.4160,2.1858,-0.2767,0.7588,-41.5500,13.0500,-9.9750,
4.491451,0.7687,-1.0377,-0.4160,2.1858,-0.2767,0.7588,-41.5500,13.0500,-9.9750,
4.493227,0.0376,-0.5377,-0.1062,2.1858,-0.2767,0.7588,-41.5500,13.0500,-9.9750,
4.510659,0.0376,-0.5377,-0.1062,2.1858,-0.2767,0.7588,-41.5500,13.0500,-9.9750,
4.512766,0.2052,-0.1121,0.0591,2.1858,-0.2767,0.7588,-41.5500,13.0500,-9.9750,
4.520522,0.2052,-0.1121,0.0591,2.1858,-0.2767,0.7588,-40.9500,13.9500,-10.3500,
4.527287,0.2052,-0.1121,0.0591,2.1858,-0.2767,0.7588,-40.9500,13.9500,-10.3500,
4.528904,0.3065,0.2277,-0.6546,2.1858,-0.2767,0.7588,-40.9500,13.9500,-10.3500,
4.550149,0.3065,0.2277,-0.6546,2.1858,-0.2767,0.7588,-40.9500,13.9500,-10.3500,
4.552505,1.0502,0.2088,-1.7464,2.1858,-0.2767,0.7588,-40.9500,13.9500,-10.3500,
4.554857,1.0502,0.2088,-1.7464,2.5724,-0.1431,0.7652,-40.9500,13.9500,-10.3500,
4.570327,1.0502,0.2088,-1.7464,2.5724,-0.1431,0.7652,-40.9500,13.9500,-10.3500,
4.572377,1.3101,-0.2561,-2.3032,2.5724,-0.1431,0.7652,-40.9500,13.9500,-10.3500,
4.585842,1.3101,-0.2561,-2.3032,2.5724,-0.1431,0.7652,-40.2000,15.0000,-11.5500,
4.588732,1.3101,-0.2561,-2.3032,2.5724,-0.1431,0.7652,-40.2000,15.0000,-11.5500,
4.590263,1.3085,-1.9389,-2.9317,2.5724,-0.1431,0.7652,-40.2000,15.0000,-11.5500,
4.614409,1.3085,-1.9389,-2.9317,2.5724,-0.1431,0.7652,-40.2000,15.0000,-11.5500,
4.617703,0.5323,-4.8745,-4.5122,2.5724,-0.1431,0.7652,-40.2000,15.0000,-11.5500,
4.627946,0.5323,-4.8745,-4.5122,2.7731,0.1877,0.5116,-40.2000,15.0000,-11.5500,
4.637566,0.5323,-4.8745,-4.5122,2.7731,0.1877,0.5116,-40.2000,15.0000,-11.5500,
4.639459,-0.0690,-7.8613,-5.3300,2.7731,0.1877,0.5116,-40.2000,15.0000,-11.5500,
4.652664,-0.0690,-7.8613,-5.3300,2.7731,0.1877,0.5116,-40.2000,15.0000,-11.5500,
4.654877,-0.3675,-9.1066,-4.8482,2.7731,0.1877,0.5116,-40.2000,15.0000,-11.5500,
4.656572,-0.3675,-9.1066,-4.8482,2.7731,0.1877,0.5116,-39.3750,13.9500,-15.1500,
4.672298,-0.3675,-9.1066,-4.8482,2.7731,0.1877,0.5116,-39.3750,13.9500,-15.1500,
4.675170,-1.1172,-7.0431,-4.7024,2.7731,0.1877,0.5116,-39.3750,13.9500,-15.1500,
4.692092,-1.1172,-7.0431,-4.7024,2.7731,0.1877,0.5116,-39.3750,13.9500,-15.1500,
4.695166,-1.4086,-2.8130,-0.9782,2.7731,0.1877,0.5116,-39.3750,13.9500,-15.1500,
4.697567,-1.4086,-2.8130,-0.9782,3.6364,0.1261,0.6260,-39.3750,13.9500,-15.1500,
4.712023,-1.4086,-2.8130,-0.9782,3.6364,0.1261,0.6260,-39.3750,13.9500,-15.1500,
4.715150,1.1993,2.3699,2.5140,3.6364,0.1261,0.6260,-39.3750,13.9500,-15.1500,
4.725624,1.1993,2.3699,2.5140,3.6364,0.1261,0.6260,-39.1500,12.1500,-18.7500,
4.728273,1.1993,2.3699,2.5140,3.6364,0.1261,0.6260,-39.1500,12.1500,-18.7500,
4.729504,2.5555,7.8535,0.2246,3.6364,0.1261,0.6260,-39.1500,12.1500,-18.7500,
4.750791,2.5555,7.8535,0.2246,3.6364,0.1261,0.6260,-39.1500,12.1500,-18.7500,
4.754124,1.4167,13.0854,-0.8921,3.6364,0.1261,0.6260,-39.1500,12.1500,-18.7500,
4.770794,1.4167,13.0854,-0.8921,2.3577,0.3430,0.6770,-39.1500,12.1500,-18.7500,
4.773617,1.4167,13.0854,-0.8921,2.3577,0.3430,0.6770,-39.1500,12.1500,-18.7500,
4.775416,1.1796,14.1636,0.7264,2.3577,0.3430,0.6770,-39.1500,12.1500,-18.7500,
4.789983,1.1796,14.1636,0.7264,2.3577,0.3430,0.6770,-39.1500,12.1500,-18.7500,
4.791572,3.5685,9.4791,1.3771,2.3577,0.3430,0.6770,-39.1500,12.1500,-18.7500,
4.797692,3.5685,9.4791,1.3771,2.3577,0.3430,0.6770,-37.9500,10.5750,-21.3750,
4.808849,3.5685,9.4791,1.3771,2.3577,0.3430,0.6770,-37.9500,10.5750,-21.3750,
4.810147,3.1833,4.4702,1.7379,2.3577,0.3430,0.6770,-37.9500,10.5750,-21.3750,
4.827746,3.1833,4.4702,1.7379,2.3577,0.3430,0.6770,-37.9500,10.5750,-21.3750,
4.830591,0.7933,2.0496,1.4354,2.3577,0.3430,0.6770,-37.9500,10.5750,-21.3750,
4.834229,0.7933,2.0496,1.4354,-1.0142,1.0884,0.0428,-37.9500,10.5750,-21.3750,
4.852686,0.7933,2.0496,1.4354,-1.0142,1.0884,0.0428,-37.9500,10.5750,-21.3750,
4.854384,-0.9696,-0.1504,1.5211,-1.0142,1.0884,0.0428,-37.9500,10.5750,-21.3750,
4.869719,-0.9696,-0.1504,1.5211,-1.0142,1.0884,0.0428,-36.6750,11.5500,-23.2500,
4.872777,-0.9696,-0.1504,1.5211,-1.0142,1.0884,0.0428,-36.6750,11.5500,-23.2500,
4.874506,-2.1033,-2.5787,2.8221,-1.0142,1.0884,0.0428,-36.6750,11.5500,-23.2500,
4.887646,-2.1033,-2.5787,2.8221,-1.0142,1.0884,0.0428,-36.6750,11.5500,-23.2500,
4.890787,-3.6083,-3.6071,3.1489,-1.0142,1.0884,0.0428,-36.6750,11.5500,-23.2500,
4.902119,-3.6083,-3.6071,3.1489,-1.2660,0.7139,-0.5569,-36.6750,11.5500,-23.2500,
4.907205,-3.6083,-3.6071,3.1489,-1.2660,0.7139,-0.5569,-36.6750,11.5500,-23.2500,
4.908798,-4.0593,-3.3834,2.3371,-1.2660,0.7139,-0.5569,-36.6750,11.5500,-23.2500,
4.928185,-4.0593,-3.3834,2.3371,-1.2660,0.7139,-0.5569,-36.6750,11.5500,-23.2500,
4.931774,-3.5599,-3.6910,1.2437,-1.2660,0.7139,-0.5569,-36.6750,11.5500,-23.2500,
4.935731,-3.5599,-3.6910,1.2437,-1.2660,0.7139,-0.5569,-36.3000,13.5000,-23.9250,
4.951764,-3.5599,-3.6910,1.2437,-1.2660,0.7139,-0.5569,-36.3000,13.5000,-23.9250,
4.955796,-2.7919,-5.5237,1.7122,-1.2660,0.7139,-0.5569,-36.3000,13.5000,-23.9250,
4.971600,-2.7919,-5.5237,1.7122,-1.2660,0.7139,-0.5569,-36.3000,13.5000,-23.9250,
4.975442,-1.9962,-6.4882,3.0848,-1.2660,0.7139,-0.5569,-36.3000,13.5000,-23.9250,
4.978359,-1.9962,-6.4882,3.0848,-0.3163,-0.1901,-0.2188,-36.3000,13.5000,-23.9250,
4.991156,-1.9962,-6.4882,3.0848,-0.3163,-0.1901,-0.2188,-36.3000,13.5000,-23.9250,
4.994613,-1.0300,-5.3272,3.3685,-0.3163,-0.1901,-0.2188,-36.3000,13.5000,-23.9250,
5.000418,-1.0300,-5.3272,3.3685,-0.3163,-0.1901,-0.2188,-36.1500,14.1750,-23.5500,
5.009743,-1.0300,-5.3272,3.3685,-0.3163,-0.1901,-0.2188,-36.1500,14.1750,-23.5500,
5.012070,-0.8682,-3.6484,2.5138,-0.3163,-0.1901,-0.2188,-36.1500,14.1750,-23.5500,
5.028179,-0.8682,-3.6484,2.5138,-0.3163,-0.1901,-0.2188,-36.1500,14.1750,-23.5500,
5.031022,-1.0117,-2.5196,1.7173,-0.3163,-0.1901,-0.2188,-36.1500,14.1750,-23.5500,
5.044969,-1.0117,-2.5196,1.7173,0.4720,-0.7084,-0.2043,-36.1500,14.1750,-23.5500,
5.054810,-1.0117,-2.5196,1.7173,0.4720,-0.7084,-0.2043,-36.1500,14.1750,-23.5500,
5.056986,-0.8205,-1.5013,1.7131,0.4720,-0.7084,-0.2043,-36.1500,14.1750,-23.5500,
5.068668,-0.8205,-1.5013,1.7131,0.4720,-0.7084,-0.2043,-36.1500,14.1750,-23.5500,
5.071201,0.2205,-0.7349,2.0936,0.4720,-0.7084,-0.2043,-36.1500,14.1750,-23.5500,
5.073588,0.2205,-0.7349,2.0936,0.4720,-0.7084,-0.2043,-36.7500,12.7500,-22.0500,
5.088038,0.2205,-0.7349,2.0936,0.4720,-0.7084,-0.2043,-36.7500,12.7500,-22.0500,
5.090554,0.8213,-0.4929,2.4648,0.4720,-0.7084,-0.2043,-36.7500,12.7500,-22.0500,
5.107586,0.8213,-0.4929,2.4648,0.4720,-0.7084,-0.2043,-36.7500,12.7500,-22.0500,
5.111052,0.4196,0.1971,1.8278,0.4720,-0.7084,-0.2043,-36.7500,12.7500,-22.0500,
5.113331,0.4196,0.1971,1.8278,0.6460,-0.6206,-0.0790,-36.7500,12.7500,-22.0500,
5.124872,0.4196,0.1971,1.8278,0.6460,-0.6206,-0.0790,-36.7500,12.7500,-22.0500,
5.128367,-0.3876,1.8240,-0.0773,0.6460,-0.6206,-0.0790,-36.7500,12.7500,-22.0500,
5.137214,-0.3876,1.8240,-0.0773,0.6460,-0.6206,-0.0790,-37.9500,11.8500,-20.1750,
5.148152,-0.3876,1.8240,-0.0773,0.6460,-0.6206,-0.0790,-37.9500,11.8500,-20.1750,
5.150869,-1.0051,3.3947,-2.1985,0.6460,-0.6206,-0.0790,-37.9500,11.8500,-20.1750,
5.171190,-1.0051,3.3947,-2.1985,0.6460,-0.6206,-0.0790,-37.9500,11.8500,-20.1750,
5.172958,-1.0080,4.4896,-2.6437,0.6460,-0.6206,-0.0790,-37.9500,11.8500,-20.1750,
5.185366,-1.0080,4.4896,-2.6437,0.5453,-0.3958,0.0591,-37.9500,11.8500,-20.1750,
5.190766,-1.0080,4.4896,-2.6437,0.5453,-0.3958,0.0591,-37.9500,11.8500,-20.1750,
5.192164,-0.7775,4.8751,-1.3442,0.5453,-0.3958,0.0591,-37.9500,11.8500,-20.1750,
5.210285,-0.7775,4.8751,-1.3442,0.5453,-0.3958,0.0591,-37.9500,11.8500,-20.1750,
5.212285,-0.3174,4.6459,-0.5022,0.5453,-0.3958,0.0591,-37.9500,11.8500,-20.1750,
5.213757,-0.3174,4.6459,-0.5022,0.5453,-0.3958,0.0591,-39.3000,10.9500,-19.3500,
5.227340,-0.3174,4.6459,-0.5022,0.5453,-0.3958,0.0591,-39.3000,10.9500,-19.3500,
5.230685,-0.3820,4.9618,-1.2563,0.5453,-0.3958,0.0591,-39.3000,10.9500,-19.3500,
5.250693,-0.3820,4.9618,-1.2563,0.5453,-0.3958,0.0591,-39.3000,10.9500,-19.3500,
5.253640,-0.2106,5.5584,-1.8983,0.5453,-0.3958,0.0591,-39.3000,10.9500,-19.3500,
5.255807,-0.2106,5.5584,-1.8983,0.3106,-0.3468,0.1005,-39.3000,10.9500,-19.3500,
5.269245,-0.2106,5.5584,-1.8983,0.3106,-0.3468,0.1005,-39.3000,10.9500,-19.3500,
5.271674,-0.0111,6.0567,-1.6493,0.3106,-0.3468,0.1005,-39.3000,10.9500,-19.3500,
5.285357,-0.0111,6.0567,-1.6493,0.3106,-0.3468,0.1005,-39.7500,11.1750,-18.0750,
5.289485,-0.0111,6.0567,-1.6493,0.3106,-0.3468,0.1005,-39.7500,11.1750,-18.0750,
5.290730,-0.0169,6.4065,-1.2999,0.3106,-0.3468,0.1005,-39.7500,11.1750,-18.0750,
5.309328,-0.0169,6.4065,-1.2999,0.3106,-0.3468,0.1005,-39.7500,11.1750,-18.0750,
5.311006,0.1761,6.0506,-0.7472,0.3106,-0.3468,0.1005,-39.7500,11.1750,-18.0750,
5.323694,0.1761,6.0506,-0.7472,0.1377,-0.2272,0.0635,-39.7500,11.1750,-18.0750,
5.328772,0.1761,6.0506,-0.7472,0.1377,-0.2272,0.0635,-39.7500,11.1750,-18.0750,
5.330145,0.0390,4.8090,-0.1225,0.1377,-0.2272,0.0635,-39.7500,11.1750,-18.0750,
5.348958,0.0390,4.8090,-0.1225,0.1377,-0.2272,0.0635,-39.7500,11.1750,-18.0750,
5.350913,-0.3449,2.8550,0.2929,0.1377,-0.2272,0.0635,-39.7500,11.1750,-18.0750,
5.352394,-0.3449,2.8550,0.2929,0.1377,-0.2272,0.0635,-40.5000,11.1000,-17.2500,
5.368526,-0.3449,2.8550,0.2929,0.1377,-0.2272,0.0635,-40.5000,11.1000,-17.2500,
5.370342,-0.2847,1.0280,0.6274,0.1377,-0.2272,0.0635,-40.5000,11.1000,-17.2500,
5.388329,-0.2847,1.0280,0.6274,0.1377,-0.2272,0.0635,-40.5000,11.1000,-17.2500,
5.391527,-0.0640,-1.1424,0.3886,0.1377,-0.2272,0.0635,-40.5000,11.1000,-17.2500,
5.394639,-0.0640,-1.1424,0.3886,0.1187,-0.1955,-0.0418,-40.5000,11.1000,-17.2500,
5.407914,-0.0640,-1.1424,0.3886,0.1187,-0.1955,-0.0418,-40.5000,11.1000,-17.2500,
5.412338,1.3037,-2.3299,0.3639,0.1187,-0.1955,-0.0418,-40.5000,11.1000,-17.2500,
5.416055,1.3037,-2.3299,0.3639,0.1187,-0.1955,-0.0418,-39.3750,10.8000,-16.8750,
5.427554,1.3037,-2.3299,0.3639,0.1187,-0.1955,-0.0418,-39.3750,10.8000,-16.8750,
5.429011,0.2390,-2.2011,1.4965,0.1187,-0.1955,-0.0418,-39.3750,10.8000,-16.8750,
5.450235,0.2390,-2.2011,1.4965,0.1187,-0.1955,-0.0418,-39.3750,10.8000,-16.8750,
5.452455,-0.5341,-1.4185,0.5889,0.1187,-0.1955,-0.0418,-39.3750,10.8000,-16.8750,
5.470010,-0.5341,-1.4185,0.5889,0.1086,-0.1819,-0.1234,-39.3750,10.8000,-16.8750,
5.472786,-0.5341,-1.4185,0.5889,0.1086,-0.1819,-0.1234,-39.3750,10.8000,-16.8750,
5.474526,0.7007,1.3841,0.8328,0.1086,-0.1819,-0.1234,-39.3750,10.8000,-16.8750,
5.489387,0.7007,1.3841,0.8328,0.1086,-0.1819,-0.1234,-39.3750,10.8000,-16.8750,
5.491778,-0.3246,2.4748,0.2740,0.1086,-0.1819,-0.1234,-39.3750,10.8000,-16.8750,
5.494203,-0.3246,2.4748,0.2740,0.1086,-0.1819,-0.1234,-40.3500,10.0500,-15.7500,
5.508604,-0.3246,2.4748,0.2740,0.1086,-0.1819,-0.1234,-40.3500,10.0500,-15.7500,
5.510898,-0.3903,2.9927,-0.2250,0.1086,-0.1819,-0.1234,-40.3500,10.0500,-15.7500,
5.527897,-0.3903,2.9927,-0.2250,0.1086,-0.1819,-0.1234,-40.3500,10.0500,-15.7500,
5.530415,-0.0666,2.8201,-0.9356,0.1086,-0.1819,-0.1234,-40.3500,10.0500,-15.7500,
5.534526,-0.0666,2.8201,-0.9356,0.1312,-0.2182,-0.0371,-40.3500,10.0500,-15.7500,
5.550292,-0.0666,2.8201,-0.9356,0.1312,-0.2182,-0.0371,-40.3500,10.0500,-15.7500,
5.553405,0.0956,1.4806,-0.8661,0.1312,-0.2182,-0.0371,-40.3500,10.0500,-15.7500,
5.558546,0.0956,1.4806,-0.8661,0.1312,-0.2182,-0.0371,-40.6500,10.3500,-15.2250,
5.568944,0.0956,1.4806,-0.8661,0.1312,-0.2182,-0.0371,-40.6500,10.3500,-15.2250,
5.571225,0.6788,0.1400,-0.1941,0.1312,-0.2182,-0.0371,-40.6500,10.3500,-15.2250,
5.586806,0.6788,0.1400,-0.1941,0.1312,-0.2182,-0.0371,-40.6500,10.3500,-15.2250,
5.588974,0.7517,-1.3236,0.8223,0.1312,-0.2182,-0.0371,-40.6500,10.3500,-15.2250,
5.602041,0.7517,-1.3236,0.8223,-0.1965,-0.0678,-0.0870,-40.6500,10.3500,-15.2250,
5.606466,0.7517,-1.3236,0.8223,-0.1965,-0.0678,-0.0870,-40.6500,10.3500,-15.2250,
5.608142,0.4915,-1.8477,1.1506,-0.1965,-0.0678,-0.0870,-40.6500,10.3500,-15.2250,
5.625830,0.4915,-1.8477,1.1506,-0.1965,-0.0678,-0.0870,-40.6500,10.3500,-15.2250,
5.628337,0.3308,-1.3659,0.6276,-0.1965,-0.0678,-0.0870,-40.6500,10.3500,-15.2250,
5.630021,0.3308,-1.3659,0.6276,-0.1965,-0.0678,-0.0870,-40.5750,10.0500,-15.7500,
5.645348,0.3308,-1.3659,0.6276,-0.1965,-0.0678,-0.0870,-40.5750,10.0500,-15.7500,
5.648085,0.6652,-0.2431,0.5295,-0.1965,-0.0678,-0.0870,-40.5750,10.0500,-15.7500,
5.660752,0.6652,-0.2431,0.5295,-0.1965,-0.0678,-0.0870,-40.5750,10.0500,-15.7500,
5.662591,0.1757,0.2573,0.3917,-0.1965,-0.0678,-0.0870,-40.5750,10.0500,-15.7500,
5.671546,0.1757,0.2573,0.3917,0.1439,0.1083,-0.1382,-40.5750,10.0500,-15.7500,
5.687043,0.1757,0.2573,0.3917,0.1439,0.1083,-0.1382,-40.5750,10.0500,-15.7500,
5.688886,-0.1168,0.6950,0.2957,0.1439,0.1083,-0.1382,-40.5750,10.0500,-15.7500,
5.699050,-0.1168,0.6950,0.2957,0.1439,0.1083,-0.1382,-40.8000,9.9750,-15.4500,
5.704189,-0.1168,0.6950,0.2957,0.1439,0.1083,-0.1382,-40.8000,9.9750,-15.4500,
5.705480,-0.1595,0.8964,0.1670,0.1439,0.1083,-0.1382,-40.8000,9.9750,-15.4500,
5.723979,-0.1595,0.8964,0.1670,0.1439,0.1083,-0.1382,-40.8000,9.9750,-15.4500,
5.726503,-0.0524,0.8014,0.5625,0.1439,0.1083,-0.1382,-40.8000,9.9750,-15.4500,
5.744075,-0.0524,0.8014,0.5625,0.1031,0.1503,-0.1283,-40.8000,9.9750,-15.4500,
5.749111,-0.0524,0.8014,0.5625,0.1031,0.1503,-0.1283,-40.8000,9.9750,-15.4500,
5.751022,0.1928,0.5613,-0.1135,0.1031,0.1503,-0.1283,-40.8000,9.9750,-15.4500,
5.768523,0.1928,0.5613,-0.1135,0.1031,0.1503,-0.1283,-41.1000,9.0750,-15.7500,
5.770058,0.1928,0.5613,-0.1135,0.1031,0.1503,-0.1283,-41.1000,9.0750,-15.7500,
5.771128,0.2919,0.1004,-0.1884,0.1031,0.1503,-0.1283,-41.1000,9.0750,-15.7500,
5.788946,0.2919,0.1004,-0.1884,0.1031,0.1503,-0.1283,-41.1000,9.0750,-15.7500,
5.790497,0.9029,0.1072,0.1130,0.1031,0.1503,-0.1283,-41.1000,9.0750,-15.7500,
5.808652,0.9029,0.1072,0.1130,0.1031,0.1503,-0.1283,-41.1000,9.0750,-15.7500,
5.812341,0.0210,-0.4840,0.4294,0.1031,0.1503,-0.1283,-41.1000,9.0750,-15.7500,
5.815586,0.0210,-0.4840,0.4294,0.0107,0.2491,-0.0605,-41.1000,9.0750,-15.7500,
5.827434,0.0210,-0.4840,0.4294,0.0107,0.2491,-0.0605,-41.1000,9.0750,-15.7500,
5.829985,-0.7960,-0.4476,0.6542,0.0107,0.2491,-0.0605,-41.1000,9.0750,-15.7500,
5.847715,-0.7960,-0.4476,0.6542,0.0107,0.2491,-0.0605,-40.3500,8.7000,-16.9500,
5.850915,-0.7960,-0.4476,0.6542,0.0107,0.2491,-0.0605,-40.3500,8.7000,-16.9500,
5.852936,-0.2918,-0.3727,0.5379,0.0107,0.2491,-0.0605,-40.3500,8.7000,-16.9500,
5.867338,-0.2918,-0.3727,0.5379,0.0107,0.2491,-0.0605,-40.3500,8.7000,-16.9500,
5.870902,0.1057,0.0215,0.2081,0.0107,0.2491,-0.0605,-40.3500,8.7000,-16.9500,
5.886178,0.1057,0.0215,0.2081,0.1052,0.1894,-0.0776,-40.3500,8.7000,-16.9500,
5.888278,0.1057,0.0215,0.2081,0.1052,0.1894,-0.0776,-40.3500,8.7000,-16.9500,
5.889579,-0.2692,0.1025,-0.3789,0.1052,0.1894,-0.0776,-40.3500,8.7000,-16.9500,
5.904808,-0.2692,0.1025,-0.3789,0.1052,0.1894,-0.0776,-40.3500,8.7000,-16.9500,
5.906802,-0.2945,0.0718,-0.2728,0.1052,0.1894,-0.0776,-40.3500,8.7000,-16.9500,
5.908486,-0.2945,0.0718,-0.2728,0.1052,0.1894,-0.0776,-40.5750,8.8500,-17.7750,
5.924379,-0.2945,0.0718,-0.2728,0.1052,0.1894,-0.0776,-40.5750,8.8500,-17.7750,
5.926852,-0.0583,0.3849,-0.1292,0.1052,0.1894,-0.0776,-40.5750,8.8500,-17.7750,
5.943894,-0.0583,0.3849,-0.1292,0.1052,0.1894,-0.0776,-40.5750,8.8500,-17.7750,
5.946490,0.0233,0.4644,-0.0278,0.1052,0.1894,-0.0776,-40.5750,8.8500,-17.7750,
5.953723,0.0233,0.4644,-0.0278,0.1423,0.0527,-0.0084,-40.5750,8.8500,-17.7750,
5.969039,0.0233,0.4644,-0.0278,0.1423,0.0527,-0.0084,-40.5750,8.8500,-17.7750,
5.971057,-0.0555,0.2397,-0.7346,0.1423,0.0527,-0.0084,-40.5750,8.8500,-17.7750,
5.975922,-0.0555,0.2397,-0.7346,0.1423,0.0527,-0.0084,-40.0500,8.5500,-17.2500,
5.991439,-0.0555,0.2397,-0.7346,0.1423,0.0527,-0.0084,-40.0500,8.5500,-17.2500,
5.993534,-0.0838,-0.3957,-0.5036,0.1423,0.0527,-0.0084,-40.0500,8.5500,-17.2500,
6.007442,-0.0838,-0.3957,-0.5036,0.1423,0.0527,-0.0084,-40.0500,8.5500,-17.2500,
6.009747,-0.0939,-0.3920,0.1682,0.1423,0.0527,-0.0084,-40.0500,8.5500,-17.2500,
6.022298,-0.0939,-0.3920,0.1682,0.1264,0.0093,-0.0086,-40.0500,8.5500,-17.2500,
6.027058,-0.0939,-0.3920,0.1682,0.1264,0.0093,-0.0086,-40.0500,8.5500,-17.2500,
6.028598,-0.1668,-0.0741,0.1625,0.1264,0.0093,-0.0086,-40.0500,8.5500,-17.2500,
6.048996,-0.1668,-0.0741,0.1625,0.1264,0.0093,-0.0086,-40.0500,8.5500,-17.2500,
6.052385,-0.1481,0.0360,-0.1731,0.1264,0.0093,-0.0086,-40.0500,8.5500,-17.2500,
6.054435,-0.1481,0.0360,-0.1731,0.1264,0.0093,-0.0086,-40.2000,8.4000,-17.6250,
6.069736,-0.1481,0.0360,-0.1731,0.1264,0.0093,-0.0086,-40.2000,8.4000,-17.6250,
6.072777,-0.0723,-0.0110,-0.1129,0.1264,0.0093,-0.0086,-40.2000,8.4000,-17.6250,
6.085792,-0.0723,-0.0110,-0.1129,0.1264,0.0093,-0.0086,-40.2000,8.4000,-17.6250,
6.088276,-0.0810,0.0410,0.0475,0.1264,0.0093,-0.0086,-40.2000,8.4000,-17.6250,
6.090320,-0.0810,0.0410,0.0475,0.1429,-0.0490,-0.0411,-40.2000,8.4000,-17.6250,
6.105158,-0.0810,0.0410,0.0475,0.1429,-0.0490,-0.0411,-40.2000,8.4000,-17.6250,
6.107112,-0.2149,0.0558,0.1768,0.1429,-0.0490,-0.0411,-40.2000,8.4000,-17.6250,
6.115524,-0.2149,0.0558,0.1768,0.1429,-0.0490,-0.0411,-40.0500,7.9500,-17.9250,
6.124763,-0.2149,0.0558,0.1768,0.1429,-0.0490,-0.0411,-40.0500,7.9500,-17.9250,
6.126527,-0.1912,-0.1433,0.1418,0.1429,-0.0490,-0.0411,-40.0500,7.9500,-17.9250,
6.144599,-0.1912,-0.1433,0.1418,0.1429,-0.0490,-0.0411,-40.0500,7.9500,-17.9250,
6.146829,-0.0414,-0.2211,-0.0884,0.1429,-0.0490,-0.0411,-40.0500,7.9500,-17.9250,
6.158853,-0.0414,-0.2211,-0.0884,0.1442,-0.0023,-0.0150,-40.0500,7.9500,-17.9250,
6.165019,-0.0414,-0.2211,-0.0884,0.1442,-0.0023,-0.0150,-40.0500,7.9500,-17.9250,
6.167325,0.0767,0.1583,0.3032,0.1442,-0.0023,-0.0150,-40.0500,7.9500,-17.9250,
6.187370,0.0767,0.1583,0.3032,0.1442,-0.0023,-0.0150,-40.0500,7.9500,-17.9250,
6.189260,0.1579,0.4101,-0.3942,0.1442,-0.0023,-0.0150,-40.0500,7.9500,-17.9250,
6.191050,0.1579,0.4101,-0.3942,0.1442,-0.0023,-0.0150,-40.8750,7.3500,-17.7750,
6.203016,0.1579,0.4101,-0.3942,0.1442,-0.0023,-0.0150,-40.8750,7.3500,-17.7750,
6.204713,0.0770,0.2724,-0.3495,0.1442,-0.0023,-0.0150,-40.8750,7.3500,-17.7750,
6.223079,0.0770,0.2724,-0.3495,0.1442,-0.0023,-0.0150,-40.8750,7.3500,-17.7750,
6.224604,0.1785,0.1063,-0.5082,0.1442,-0.0023,-0.0150,-40.8750,7.3500,-17.7750,
6.228751,0.1785,0.1063,-0.5082,0.1376,0.0513,0.0058,-40.8750,7.3500,-17.7750,
6.242681,0.1785,0.1063,-0.5082,0.1376,0.0513,0.0058,-40.8750,7.3500,-17.7750,
6.244256,0.0769,0.1330,-0.0849,0.1376,0.0513,0.0058,-40.8750,7.3500,-17.7750,
6.256547,0.0769,0.1330,-0.0849,0.1376,0.0513,0.0058,-40.0500,7.5000,-18.2250,
6.268945,0.0769,0.1330,-0.0849,0.1376,0.0513,0.0058,-40.0500,7.5000,-18.2250,
6.270581,0.0165,0.1802,0.0348,0.1376,0.0513,0.0058,-40.0500,7.5000,-18.2250,
6.289235,0.0165,0.1802,0.0348,0.1376,0.0513,0.0058,-40.0500,7.5000,-18.2250,
6.290837,-0.2780,0.0577,-0.3472,0.1376,0.0513,0.0058,-40.0500,7.5000,-18.2250,
