
time,ax,ay,az,wx,wy,wz,Bx,By,Bz,
0.045633,0.0000,0.0000,0.0000,0.0000,0.0000,0.0000,0.0000,0.0000,0.0000,
0.070507,0.0000,0.0000,0.0000,0.0000,0.0000,0.0000,-42.7500,9.5250,-5.7000,
0.088079,0.0000,0.0000,0.0000,0.0000,0.0000,0.0000,-42.7500,9.5250,-5.7000,
0.090348,0.0756,-0.0051,0.0216,0.0000,0.0000,0.0000,-42.7500,9.5250,-5.7000,
0.112115,0.0756,-0.0051,0.0216,0.0000,0.0000,0.0000,-42.7500,9.5250,-5.7000,
0.113957,0.0471,-0.0057,0.0856,0.0000,0.0000,0.0000,-42.7500,9.5250,-5.7000,
0.117071,0.0471,-0.0057,0.0856,0.0108,-0.0029,-0.0086,-42.7500,9.5250,-5.7000,
0.131715,0.0471,-0.0057,0.0856,0.0108,-0.0029,-0.0086,-42.7500,9.5250,-5.7000,
0.133160,-0.0728,-0.1336,-0.0216,0.0108,-0.0029,-0.0086,-42.7500,9.5250,-5.7000,
0.142430,-0.0728,-0.1336,-0.0216,0.0108,-0.0029,-0.0086,-42.9750,9.0000,-4.2000,
0.151692,-0.0728,-0.1336,-0.0216,0.0108,-0.0029,-0.0086,-42.9750,9.0000,-4.2000,
0.153311,-0.0631,0.0235,0.3120,0.0108,-0.0029,-0.0086,-42.9750,9.0000,-4.2000,
0.171859,-0.0631,0.0235,0.3120,0.0108,-0.0029,-0.0086,-42.9750,9.0000,-4.2000,
0.173308,-0.1273,0.0347,-0.0368,0.0108,-0.0029,-0.0086,-42.9750,9.0000,-4.2000,
0.186041,-0.1273,0.0347,-0.0368,0.0234,0.0224,0.0017,-42.9750,9.0000,-4.2000,
0.190178,-0.1273,0.0347,-0.0368,0.0234,0.0224,0.0017,-42.9750,9.0000,-4.2000,
0.192540,-0.1203,0.0977,-0.1652,0.0234,0.0224,0.0017,-42.9750,9.0000,-4.2000,
0.209901,-0.1203,0.0977,-0.1652,0.0234,0.0224,0.0017,-42.9750,9.0000,-4.2000,
0.213078,-0.0821,0.1587,-0.0037,0.0234,0.0224,0.0017,-42.9750,9.0000,-4.2000,
0.215678,-0.0821,0.1587,-0.0037,0.0234,0.0224,0.0017,-43.3500,9.0750,-4.0500,
0.231833,-0.0821,0.1587,-0.0037,0.0234,0.0224,0.0017,-43.3500,9.0750,-4.0500,
0.235384,-0.0471,0.1290,0.0711,0.0234,0.0224,0.0017,-43.3500,9.0750,-4.0500,
0.251643,-0.0471,0.1290,0.0711,0.0234,0.0224,0.0017,-43.3500,9.0750,-4.0500,
0.253956,-0.0298,0.0615,0.1415,0.0234,0.0224,0.0017,-43.3500,9.0750,-4.0500,
0.255774,-0.0298,0.0615,0.1415,0.0212,0.0020,0.0113,-43.3500,9.0750,-4.0500,
0.267182,-0.0298,0.0615,0.1415,0.0212,0.0020,0.0113,-43.3500,9.0750,-4.0500,
0.269117,-0.0672,0.0021,0.1208,0.0212,0.0020,0.0113,-43.3500,9.0750,-4.0500,
0.280702,-0.0672,0.0021,0.1208,0.0212,0.0020,0.0113,-43.6500,9.2250,-4.0500,
0.288215,-0.0672,0.0021,0.1208,0.0212,0.0020,0.0113,-43.6500,9.2250,-4.0500,
0.290524,-0.0850,-0.0178,0.0556,0.0212,0.0020,0.0113,-43.6500,9.2250,-4.0500,
0.308306,-0.0850,-0.0178,0.0556,0.0212,0.0020,0.0113,-43.6500,9.2250,-4.0500,
0.309972,-0.0946,0.0130,0.0393,0.0212,0.0020,0.0113,-43.6500,9.2250,-4.0500,
0.322026,-0.0946,0.0130,0.0393,0.0463,-0.0092,0.0177,-43.6500,9.2250,-4.0500,
0.331088,-0.0946,0.0130,0.0393,0.0463,-0.0092,0.0177,-43.6500,9.2250,-4.0500,
0.332335,-0.0877,0.0009,0.0606,0.0463,-0.0092,0.0177,-43.6500,9.2250,-4.0500,
0.342265,-0.0877,0.0009,0.0606,0.0463,-0.0092,0.0177,-43.6500,9.2250,-4.0500,
0.343659,-0.0402,0.0362,0.0703,0.0463,-0.0092,0.0177,-43.6500,9.2250,-4.0500,
0.350856,-0.0402,0.0362,0.0703,0.0463,-0.0092,0.0177,-44.1000,8.9250,-3.6000,
0.372062,-0.0402,0.0362,0.0703,0.0463,-0.0092,0.0177,-44.1000,8.9250,-3.6000,
0.373464,0.0161,0.0810,0.0576,0.0463,-0.0092,0.0177,-44.1000,8.9250,-3.6000,
0.391041,0.0161,0.0810,0.0576,0.0463,-0.0092,0.0177,-44.1000,8.9250,-3.6000,
0.392286,0.0320,0.0838,0.0738,0.0463,-0.0092,0.0177,-44.1000,8.9250,-3.6000,
0.395899,0.0320,0.0838,0.0738,0.0501,-0.0192,0.0304,-44.1000,8.9250,-3.6000,
0.420386,0.0320,0.0838,0.0738,0.0501,-0.0192,0.0304,-44.1000,8.9250,-3.6000,
0.423284,0.0188,0.0743,0.0809,0.0501,-0.0192,0.0304,-44.1000,8.9250,-3.6000,
0.426222,0.0188,0.0743,0.0809,0.0501,-0.0192,0.0304,-43.9500,9.9750,-4.6500,
0.431952,0.0188,0.0743,0.0809,0.0501,-0.0192,0.0304,-43.9500,9.9750,-4.6500,
0.435166,-0.0124,0.0508,0.0601,0.0501,-0.0192,0.0304,-43.9500,9.9750,-4.6500,
0.449329,-0.0124,0.0508,0.0601,0.0501,-0.0192,0.0304,-43.9500,9.9750,-4.6500,
0.451367,-0.0417,0.0574,0.0136,0.0501,-0.0192,0.0304,-43.9500,9.9750,-4.6500,
0.463812,-0.0417,0.0574,0.0136,0.0605,-0.0313,0.0267,-43.9500,9.9750,-4.6500,
0.468496,-0.0417,0.0574,0.0136,0.0605,-0.0313,0.0267,-43.9500,9.9750,-4.6500,
0.470229,0.0352,0.0857,0.0460,0.0605,-0.0313,0.0267,-43.9500,9.9750,-4.6500,
0.487962,0.0352,0.0857,0.0460,0.0605,-0.0313,0.0267,-43.9500,9.9750,-4.6500,
0.489465,-0.0084,0.1308,-0.0775,0.0605,-0.0313,0.0267,-43.9500,9.9750,-4.6500,
0.490891,-0.0084,0.1308,-0.0775,0.0605,-0.0313,0.0267,-43.8000,9.9750,-4.1250,
0.508446,-0.0084,0.1308,-0.0775,0.0605,-0.0313,0.0267,-43.8000,9.9750,-4.1250,
0.510939,-0.1051,0.1470,-0.1130,0.0605,-0.0313,0.0267,-43.8000,9.9750,-4.1250,
0.528045,-0.1051,0.1470,-0.1130,0.0605,-0.0313,0.0267,-43.8000,9.9750,-4.1250,
0.530503,-0.0794,0.0829,0.0743,0.0605,-0.0313,0.0267,-43.8000,9.9750,-4.1250,
0.532649,-0.0794,0.0829,0.0743,0.0388,-0.0304,0.0191,-43.8000,9.9750,-4.1250,
0.542074,-0.0794,0.0829,0.0743,0.0388,-0.0304,0.0191,-43.8000,9.9750,-4.1250,
0.543974,-0.0465,-0.0142,0.1268,0.0388,-0.0304,0.0191,-43.8000,9.9750,-4.1250,
0.560603,-0.0465,-0.0142,0.1268,0.0388,-0.0304,0.0191,-43.3500,9.6000,-4.3500,
0.567472,-0.0465,-0.0142,0.1268,0.0388,-0.0304,0.0191,-43.3500,9.6000,-4.3500,
0.569750,-0.0727,-0.0009,0.1369,0.0388,-0.0304,0.0191,-43.3500,9.6000,-4.3500,
0.586167,-0.0727,-0.0009,0.1369,0.0388,-0.0304,0.0191,-43.3500,9.6000,-4.3500,
0.589649,-0.1036,-0.0260,0.2267,0.0388,-0.0304,0.0191,-43.3500,9.6000,-4.3500,
0.600180,-0.1036,-0.0260,0.2267,0.0231,-0.0622,0.0183,-43.3500,9.6000,-4.3500,
0.605278,-0.1036,-0.0260,0.2267,0.0231,-0.0622,0.0183,-43.3500,9.6000,-4.3500,
0.606732,-0.0294,-0.0170,0.1862,0.0231,-0.0622,0.0183,-43.3500,9.6000,-4.3500,
0.630050,-0.0294,-0.0170,0.1862,0.0231,-0.0622,0.0183,-43.3500,9.6000,-4.3500,
0.631443,0.0480,0.1247,-0.0368,0.0231,-0.0622,0.0183,-43.3500,9.6000,-4.3500,
0.632531,0.0480,0.1247,-0.0368,0.0231,-0.0622,0.0183,-44.4750,9.5250,-3.5250,
0.649681,0.0480,0.1247,-0.0368,0.0231,-0.0622,0.0183,-44.4750,9.5250,-3.5250,
0.650965,0.0503,0.1316,-0.1211,0.0231,-0.0622,0.0183,-44.4750,9.5250,-3.5250,
0.669123,0.0503,0.1316,-0.1211,0.0231,-0.0622,0.0183,-44.4750,9.5250,-3.5250,
0.670264,0.0338,0.0032,-0.0590,0.0231,-0.0622,0.0183,-44.4750,9.5250,-3.5250,
0.674691,0.0338,0.0032,-0.0590,0.0469,-0.0441,0.0090,-44.4750,9.5250,-3.5250,
0.690381,0.0338,0.0032,-0.0590,0.0469,-0.0441,0.0090,-44.4750,9.5250,-3.5250,
0.692171,0.0516,-0.0531,0.0489,0.0469,-0.0441,0.0090,-44.4750,9.5250,-3.5250,
0.702357,0.0516,-0.0531,0.0489,0.0469,-0.0441,0.0090,-43.9500,9.3750,-4.0500,
0.709235,0.0516,-0.0531,0.0489,0.0469,-0.0441,0.0090,-43.9500,9.3750,-4.0500,
0.710585,-0.0032,0.0017,0.0384,0.0469,-0.0441,0.0090,-43.9500,9.3750,-4.0500,
0.729854,-0.0032,0.0017,0.0384,0.0469,-0.0441,0.0090,-43.9500,9.3750,-4.0500,
0.733506,-0.0275,0.0653,0.0266,0.0469,-0.0441,0.0090,-43.9500,9.3750,-4.0500,
0.742654,-0.0275,0.0653,0.0266,0.0104,-0.0417,-0.0005,-43.9500,9.3750,-4.0500,
0.752923,-0.0275,0.0653,0.0266,0.0104,-0.0417,-0.0005,-43.9500,9.3750,-4.0500,
0.754908,-0.0783,0.1065,-0.0284,0.0104,-0.0417,-0.0005,-43.9500,9.3750,-4.0500,
0.767671,-0.0783,0.1065,-0.0284,0.0104,-0.0417,-0.0005,-43.9500,9.3750,-4.0500,
0.770034,-0.0217,0.1398,-0.0865,0.0104,-0.0417,-0.0005,-43.9500,9.3750,-4.0500,
0.771813,-0.0217,0.1398,-0.0865,0.0104,-0.0417,-0.0005,-43.8000,9.0750,-3.6000,
0.787202,-0.0217,0.1398,-0.0865,0.0104,-0.0417,-0.0005,-43.8000,9.0750,-3.6000,
0.789571,0.0094,0.0858,0.0043,0.0104,-0.0417,-0.0005,-43.8000,9.0750,-3.6000,
0.806737,0.0094,0.0858,0.0043,0.0104,-0.0417,-0.0005,-43.8000,9.0750,-3.6000,
0.809763,-0.0027,-0.0079,0.0446,0.0104,-0.0417,-0.0005,-43.8000,9.0750,-3.6000,
0.812964,-0.0027,-0.0079,0.0446,0.0108,-0.0450,-0.0029,-43.8000,9.0750,-3.6000,
0.826201,-0.0027,-0.0079,0.0446,0.0108,-0.0450,-0.0029,-43.8000,9.0750,-3.6000,
0.829068,-0.0227,-0.0020,0.0351,0.0108,-0.0450,-0.0029,-43.8000,9.0750,-3.6000,
0.840432,-0.0227,-0.0020,0.0351,0.0108,-0.0450,-0.0029,-43.8000,9.0750,-3.4500,
0.843280,-0.0227,-0.0020,0.0351,0.0108,-0.0450,-0.0029,-43.8000,9.0750,-3.4500,
0.846665,-0.0088,0.0385,0.0019,0.0108,-0.0450,-0.0029,-43.8000,9.0750,-3.4500,
0.864958,-0.0088,0.0385,0.0019,0.0108,-0.0450,-0.0029,-43.8000,9.0750,-3.4500,
0.867545,0.0061,0.0415,-0.0157,0.0108,-0.0450,-0.0029,-43.8000,9.0750,-3.4500,
0.884565,0.0061,0.0415,-0.0157,0.0194,-0.0261,-0.0079,-43.8000,9.0750,-3.4500,
0.889457,0.0061,0.0415,-0.0157,0.0194,-0.0261,-0.0079,-43.8000,9.0750,-3.4500,
0.890957,0.0195,0.0432,-0.0413,0.0194,-0.0261,-0.0079,-43.8000,9.0750,-3.4500,
0.909623,0.0195,0.0432,-0.0413,0.0194,-0.0261,-0.0079,-43.8000,9.0750,-3.4500,
0.912681,0.0072,0.0728,-0.0689,0.0194,-0.0261,-0.0079,-43.8000,9.0750,-3.4500,
0.915081,0.0072,0.0728,-0.0689,0.0194,-0.0261,-0.0079,-44.5500,8.8500,-3.4500,
0.928527,0.0072,0.0728,-0.0689,0.0194,-0.0261,-0.0079,-44.5500,8.8500,-3.4500,
0.930989,0.0271,0.1462,-0.1139,0.0194,-0.0261,-0.0079,-44.5500,8.8500,-3.4500,
0.948578,0.0271,0.1462,-0.1139,0.0194,-0.0261,-0.0079,-44.5500,8.8500,-3.4500,
0.950363,0.0522,0.1924,-0.1568,0.0194,-0.0261,-0.0079,-44.5500,8.8500,-3.4500,
0.952822,0.0522,0.1924,-0.1568,-0.0226,-0.0136,-0.0075,-44.5500,8.8500,-3.4500,
0.968239,0.0522,0.1924,-0.1568,-0.0226,-0.0136,-0.0075,-44.5500,8.8500,-3.4500,
0.971071,0.0932,0.1889,-0.1990,-0.0226,-0.0136,-0.0075,-44.5500,8.8500,-3.4500,
0.981163,0.0932,0.1889,-0.1990,-0.0226,-0.0136,-0.0075,-43.9500,9.0000,-3.1500,
0.988081,0.0932,0.1889,-0.1990,-0.0226,-0.0136,-0.0075,-43.9500,9.0000,-3.1500,
0.989603,0.1360,0.1632,-0.1936,-0.0226,-0.0136,-0.0075,-43.9500,9.0000,-3.1500,
1.007356,0.1360,0.1632,-0.1936,-0.0226,-0.0136,-0.0075,-43.9500,9.0000,-3.1500,
1.009608,0.0834,0.1245,-0.1636,-0.0226,-0.0136,-0.0075,-43.9500,9.0000,-3.1500,
1.021205,0.0834,0.1245,-0.1636,-0.0990,0.0224,-0.0160,-43.9500,9.0000,-3.1500,
1.025964,0.0834,0.1245,-0.1636,-0.0990,0.0224,-0.0160,-43.9500,9.0000,-3.1500,
1.027410,0.0979,0.0715,-0.0245,-0.0990,0.0224,-0.0160,-43.9500,9.0000,-3.1500,
1.041272,0.0979,0.0715,-0.0245,-0.0990,0.0224,-0.0160,-43.9500,9.0000,-3.1500,
1.043442,0.0351,0.0386,0.0739,-0.0990,0.0224,-0.0160,-43.9500,9.0000,-3.1500,
1.052378,0.0351,0.0386,0.0739,-0.0990,0.0224,-0.0160,-44.2500,8.7000,-3.5250,
1.065907,0.0351,0.0386,0.0739,-0.0990,0.0224,-0.0160,-44.2500,8.7000,-3.5250,
1.068298,-0.0817,0.0195,-0.0196,-0.0990,0.0224,-0.0160,-44.2500,8.7000,-3.5250,
1.085089,-0.0817,0.0195,-0.0196,-0.0990,0.0224,-0.0160,-44.2500,8.7000,-3.5250,
1.087632,-0.1026,0.0235,0.0295,-0.0990,0.0224,-0.0160,-44.2500,8.7000,-3.5250,
1.090222,-0.1026,0.0235,0.0295,-0.1069,0.0530,-0.0250,-44.2500,8.7000,-3.5250,
1.105237,-0.1026,0.0235,0.0295,-0.1069,0.0530,-0.0250,-44.2500,8.7000,-3.5250,
1.107772,-0.0440,0.0801,0.0076,-0.1069,0.0530,-0.0250,-44.2500,8.7000,-3.5250,
1.119914,-0.0440,0.0801,0.0076,-0.1069,0.0530,-0.0250,-43.9500,8.9250,-2.9250,
1.121982,-0.0440,0.0801,0.0076,-0.1069,0.0530,-0.0250,-43.9500,8.9250,-2.9250,
1.123485,-0.0192,0.1601,-0.0951,-0.1069,0.0530,-0.0250,-43.9500,8.9250,-2.9250,
1.141887,-0.0192,0.1601,-0.0951,-0.1069,0.0530,-0.0250,-43.9500,8.9250,-2.9250,
1.144594,-0.0737,0.1369,-0.0284,-0.1069,0.0530,-0.0250,-43.9500,8.9250,-2.9250,
1.157839,-0.0737,0.1369,-0.0284,-0.1347,0.0527,-0.0237,-43.9500,8.9250,-2.9250,
1.163021,-0.0737,0.1369,-0.0284,-0.1347,0.0527,-0.0237,-43.9500,8.9250,-2.9250,
1.164627,-0.0595,0.0173,0.1271,-0.1347,0.0527,-0.0237,-43.9500,8.9250,-2.9250,
1.185678,-0.0595,0.0173,0.1271,-0.1347,0.0527,-0.0237,-43.9500,8.9250,-2.9250,
1.189331,0.0262,-0.0207,0.1260,-0.1347,0.0527,-0.0237,-43.9500,8.9250,-2.9250,
1.191474,0.0262,-0.0207,0.1260,-0.1347,0.0527,-0.0237,-43.5000,9.0000,-3.7500,
1.207739,0.0262,-0.0207,0.1260,-0.1347,0.0527,-0.0237,-43.5000,9.0000,-3.7500,
1.208851,0.0765,0.0307,0.0734,-0.1347,0.0527,-0.0237,-43.5000,9.0000,-3.7500,
1.226967,0.0765,0.0307,0.0734,-0.1347,0.0527,-0.0237,-43.5000,9.0000,-3.7500,
1.227783,0.0055,0.0856,0.0595,-0.1347,0.0527,-0.0237,-43.5000,9.0000,-3.7500,
1.235409,0.0055,0.0856,0.0595,-0.1251,0.0719,-0.0257,-43.5000,9.0000,-3.7500,
1.242863,0.0055,0.0856,0.0595,-0.1251,0.0719,-0.0257,-43.5000,9.0000,-3.7500,
1.243485,-0.0404,0.1042,0.0449,-0.1251,0.0719,-0.0257,-43.5000,9.0000,-3.7500,
1.260605,-0.0404,0.1042,0.0449,-0.1251,0.0719,-0.0257,-43.9500,8.7750,-3.4500,
1.266429,-0.0404,0.1042,0.0449,-0.1251,0.0719,-0.0257,-43.9500,8.7750,-3.4500,
1.267820,-0.0409,0.1047,0.0689,-0.1251,0.0719,-0.0257,-43.9500,8.7750,-3.4500,
1.286311,-0.0409,0.1047,0.0689,-0.1251,0.0719,-0.0257,-43.9500,8.7750,-3.4500,
1.287914,-0.0249,0.0858,0.1263,-0.1251,0.0719,-0.0257,-43.9500,8.7750,-3.4500,
1.301182,-0.0249,0.0858,0.1263,-0.1414,0.0802,-0.0273,-43.9500,8.7750,-3.4500,
1.306490,-0.0249,0.0858,0.1263,-0.1414,0.0802,-0.0273,-43.9500,8.7750,-3.4500,
1.308146,-0.0107,0.1008,0.1759,-0.1414,0.0802,-0.0273,-43.9500,8.7750,-3.4500,
1.326219,-0.0107,0.1008,0.1759,-0.1414,0.0802,-0.0273,-43.9500,8.7750,-3.4500,
1.328047,-0.0033,0.1550,0.1215,-0.1414,0.0802,-0.0273,-43.9500,8.7750,-3.4500,
1.332347,-0.0033,0.1550,0.1215,-0.1414,0.0802,-0.0273,-43.8750,8.4750,-3.3000,
1.342078,-0.0033,0.1550,0.1215,-0.1414,0.0802,-0.0273,-43.8750,8.4750,-3.3000,
1.345014,0.0097,0.1975,0.0870,-0.1414,0.0802,-0.0273,-43.8750,8.4750,-3.3000,
1.368570,0.0097,0.1975,0.0870,-0.1414,0.0802,-0.0273,-43.8750,8.4750,-3.3000,
1.371284,-0.0142,0.1952,0.1272,-0.1414,0.0802,-0.0273,-43.8750,8.4750,-3.3000,
1.373435,-0.0142,0.1952,0.1272,-0.1489,0.0791,-0.0200,-43.8750,8.4750,-3.3000,
1.383330,-0.0142,0.1952,0.1272,-0.1489,0.0791,-0.0200,-43.8750,8.4750,-3.3000,
1.385277,-0.0687,0.1558,0.1723,-0.1489,0.0791,-0.0200,-43.8750,8.4750,-3.3000,
1.400394,-0.0687,0.1558,0.1723,-0.1489,0.0791,-0.0200,-44.1000,8.8500,-3.1500,
1.402670,-0.0687,0.1558,0.1723,-0.1489,0.0791,-0.0200,-44.1000,8.8500,-3.1500,
1.404195,-0.0941,0.1052,0.1884,-0.1489,0.0791,-0.0200,-44.1000,8.8500,-3.1500,
1.422471,-0.0941,0.1052,0.1884,-0.1489,0.0791,-0.0200,-44.1000,8.8500,-3.1500,
1.424446,-0.0636,0.0647,0.1820,-0.1489,0.0791,-0.0200,-44.1000,8.8500,-3.1500,
1.436989,-0.0636,0.0647,0.1820,-0.1871,0.0841,-0.0121,-44.1000,8.8500,-3.1500,
1.441993,-0.0636,0.0647,0.1820,-0.1871,0.0841,-0.0121,-44.1000,8.8500,-3.1500,
1.443488,-0.0430,0.0345,0.1614,-0.1871,0.0841,-0.0121,-44.1000,8.8500,-3.1500,
1.461881,-0.0430,0.0345,0.1614,-0.1871,0.0841,-0.0121,-44.1000,8.8500,-3.1500,
1.464445,-0.0602,0.0640,0.1890,-0.1871,0.0841,-0.0121,-44.1000,8.8500,-3.1500,
1.470409,-0.0602,0.0640,0.1890,-0.1871,0.0841,-0.0121,-44.1000,8.6250,-3.4500,
1.486547,-0.0602,0.0640,0.1890,-0.1871,0.0841,-0.0121,-44.1000,8.6250,-3.4500,
1.489380,-0.0986,0.1264,0.2158,-0.1871,0.0841,-0.0121,-44.1000,8.6250,-3.4500,
1.505890,-0.0986,0.1264,0.2158,-0.1871,0.0841,-0.0121,-44.1000,8.6250,-3.4500,
1.508563,-0.0901,0.1509,0.2756,-0.1871,0.0841,-0.0121,-44.1000,8.6250,-3.4500,
1.513122,-0.0901,0.1509,0.2756,-0.2199,0.0637,-0.0061,-44.1000,8.6250,-3.4500,
1.525047,-0.0901,0.1509,0.2756,-0.2199,0.0637,-0.0061,-44.1000,8.6250,-3.4500,
1.527205,-0.0562,0.1682,0.2970,-0.2199,0.0637,-0.0061,-44.1000,8.6250,-3.4500,
1.540842,-0.0562,0.1682,0.2970,-0.2199,0.0637,-0.0061,-43.5750,9.2250,-3.6000,
1.543256,-0.0562,0.1682,0.2970,-0.2199,0.0637,-0.0061,-43.5750,9.2250,-3.6000,
1.544824,-0.0488,0.1727,0.2941,-0.2199,0.0637,-0.0061,-43.5750,9.2250,-3.6000,
1.564507,-0.0488,0.1727,0.2941,-0.2199,0.0637,-0.0061,-43.5750,9.2250,-3.6000,
1.567211,-0.0458,0.1397,0.3079,-0.2199,0.0637,-0.0061,-43.5750,9.2250,-3.6000,
1.581253,-0.0458,0.1397,0.3079,-0.2274,0.0608,-0.0081,-43.5750,9.2250,-3.6000,
1.584462,-0.0458,0.1397,0.3079,-0.2274,0.0608,-0.0081,-43.5750,9.2250,-3.6000,
1.585907,-0.0899,0.1143,0.2883,-0.2274,0.0608,-0.0081,-43.5750,9.2250,-3.6000,
1.603927,-0.0899,0.1143,0.2883,-0.2274,0.0608,-0.0081,-43.5750,9.2250,-3.6000,
1.606502,-0.0179,0.0616,0.3877,-0.2274,0.0608,-0.0081,-43.5750,9.2250,-3.6000,
1.608568,-0.0179,0.0616,0.3877,-0.2274,0.0608,-0.0081,-43.8750,9.4500,-3.7500,
1.623047,-0.0179,0.0616,0.3877,-0.2274,0.0608,-0.0081,-43.8750,9.4500,-3.7500,
1.625619,-0.0041,0.0309,0.4177,-0.2274,0.0608,-0.0081,-43.8750,9.4500,-3.7500,
1.644513,-0.0041,0.0309,0.4177,-0.2274,0.0608,-0.0081,-43.8750,9.4500,-3.7500,
1.647119,-0.0914,0.0845,0.4229,-0.2274,0.0608,-0.0081,-43.8750,9.4500,-3.7500,
1.652042,-0.0914,0.0845,0.4229,-0.1926,0.0593,-0.0133,-43.8750,9.4500,-3.7500,
1.663183,-0.0914,0.0845,0.4229,-0.1926,0.0593,-0.0133,-43.8750,9.4500,-3.7500,
1.665182,-0.0889,0.1535,0.4882,-0.1926,0.0593,-0.0133,-43.8750,9.4500,-3.7500,
1.672806,-0.0889,0.1535,0.4882,-0.1926,0.0593,-0.0133,-43.8750,8.4750,-4.3500,
1.681519,-0.0889,0.1535,0.4882,-0.1926,0.0593,-0.0133,-43.8750,8.4750,-4.3500,
1.683429,-0.0405,0.1587,0.3733,-0.1926,0.0593,-0.0133,-43.8750,8.4750,-4.3500,
1.701610,-0.0405,0.1587,0.3733,-0.1926,0.0593,-0.0133,-43.8750,8.4750,-4.3500,
1.705232,0.0083,0.1866,0.1346,-0.1926,0.0593,-0.0133,-43.8750,8.4750,-4.3500,
1.717246,0.0083,0.1866,0.1346,-0.1968,0.0692,-0.0174,-43.8750,8.4750,-4.3500,
1.721841,0.0083,0.1866,0.1346,-0.1968,0.0692,-0.0174,-43.8750,8.4750,-4.3500,
1.724610,-0.0262,0.2167,0.1393,-0.1968,0.0692,-0.0174,-43.8750,8.4750,-4.3500,
1.742394,-0.0262,0.2167,0.1393,-0.1968,0.0692,-0.0174,-43.8750,8.4750,-4.3500,
1.745213,-0.0009,0.1803,0.2472,-0.1968,0.0692,-0.0174,-43.8750,8.4750,-4.3500,
1.747000,-0.0009,0.1803,0.2472,-0.1968,0.0692,-0.0174,-44.2500,8.6250,-4.3500,
1.765149,-0.0009,0.1803,0.2472,-0.1968,0.0692,-0.0174,-44.2500,8.6250,-4.3500,
1.768963,0.0648,0.2176,0.2556,-0.1968,0.0692,-0.0174,-44.2500,8.6250,-4.3500,
1.784862,0.0648,0.2176,0.2556,-0.1968,0.0692,-0.0174,-44.2500,8.6250,-4.3500,
1.787062,0.0007,0.2379,0.2578,-0.1968,0.0692,-0.0174,-44.2500,8.6250,-4.3500,
1.789101,0.0007,0.2379,0.2578,-0.2986,0.0718,-0.0237,-44.2500,8.6250,-4.3500,
1.804171,0.0007,0.2379,0.2578,-0.2986,0.0718,-0.0237,-44.2500,8.6250,-4.3500,
1.806279,-0.1526,0.1989,0.2075,-0.2986,0.0718,-0.0237,-44.2500,8.6250,-4.3500,
1.813914,-0.1526,0.1989,0.2075,-0.2986,0.0718,-0.0237,-43.9500,9.0750,-4.0500,
1.823403,-0.1526,0.1989,0.2075,-0.2986,0.0718,-0.0237,-43.9500,9.0750,-4.0500,
1.824953,-0.1759,0.1580,0.1565,-0.2986,0.0718,-0.0237,-43.9500,9.0750,-4.0500,
1.841779,-0.1759,0.1580,0.1565,-0.2986,0.0718,-0.0237,-43.9500,9.0750,-4.0500,
1.844449,-0.1081,0.1543,0.2293,-0.2986,0.0718,-0.0237,-43.9500,9.0750,-4.0500,
1.857545,-0.1081,0.1543,0.2293,-0.4213,0.0835,-0.0374,-43.9500,9.0750,-4.0500,
1.865715,-0.1081,0.1543,0.2293,-0.4213,0.0835,-0.0374,-43.9500,9.0750,-4.0500,
1.867784,-0.0129,0.1661,0.3337,-0.4213,0.0835,-0.0374,-43.9500,9.0750,-4.0500,
1.882391,-0.0129,0.1661,0.3337,-0.4213,0.0835,-0.0374,-43.9500,9.0750,-4.0500,
1.884396,-0.0348,0.3412,0.2396,-0.4213,0.0835,-0.0374,-43.9500,9.0750,-4.0500,
1.885599,-0.0348,0.3412,0.2396,-0.4213,0.0835,-0.0374,-43.8000,8.7000,-4.5000,
1.901811,-0.0348,0.3412,0.2396,-0.4213,0.0835,-0.0374,-43.8000,8.7000,-4.5000,
1.904618,-0.1260,0.5621,0.0630,-0.4213,0.0835,-0.0374,-43.8000,8.7000,-4.5000,
1.921793,-0.1260,0.5621,0.0630,-0.4213,0.0835,-0.0374,-43.8000,8.7000,-4.5000,
1.924783,-0.2014,0.5700,-0.1025,-0.4213,0.0835,-0.0374,-43.8000,8.7000,-4.5000,
1.927089,-0.2014,0.5700,-0.1025,-0.4697,0.0892,-0.0304,-43.8000,8.7000,-4.5000,
1.941080,-0.2014,0.5700,-0.1025,-0.4697,0.0892,-0.0304,-43.8000,8.7000,-4.5000,
1.944402,-0.2463,0.3457,-0.0230,-0.4697,0.0892,-0.0304,-43.8000,8.7000,-4.5000,
1.951019,-0.2463,0.3457,-0.0230,-0.4697,0.0892,-0.0304,-42.6750,8.3250,-4.3500,
1.962237,-0.2463,0.3457,-0.0230,-0.4697,0.0892,-0.0304,-42.6750,8.3250,-4.3500,
1.964949,-0.1799,0.0830,0.2556,-0.4697,0.0892,-0.0304,-42.6750,8.3250,-4.3500,
1.983264,-0.1799,0.0830,0.2556,-0.4697,0.0892,-0.0304,-42.6750,8.3250,-4.3500,
1.985758,-0.0191,-0.1450,0.4255,-0.4697,0.0892,-0.0304,-42.6750,8.3250,-4.3500,
1.999722,-0.0191,-0.1450,0.4255,-0.5453,0.1185,-0.0261,-42.6750,8.3250,-4.3500,
2.004940,-0.0191,-0.1450,0.4255,-0.5453,0.1185,-0.0261,-42.6750,8.3250,-4.3500,
2.007540,0.0569,0.0291,0.1292,-0.5453,0.1185,-0.0261,-42.6750,8.3250,-4.3500,
2.024795,0.0569,0.0291,0.1292,-0.5453,0.1185,-0.0261,-42.6750,8.3250,-4.3500,
2.026737,-0.0918,0.4564,0.0591,-0.5453,0.1185,-0.0261,-42.6750,8.3250,-4.3500,
2.028830,-0.0918,0.4564,0.0591,-0.5453,0.1185,-0.0261,-43.3500,8.8500,-4.3500,
2.041543,-0.0918,0.4564,0.0591,-0.5453,0.1185,-0.0261,-43.3500,8.8500,-4.3500,
2.043405,-0.1445,0.5089,0.4026,-0.5453,0.1185,-0.0261,-43.3500,8.8500,-4.3500,
2.063553,-0.1445,0.5089,0.4026,-0.5453,0.1185,-0.0261,-43.3500,8.8500,-4.3500,
2.066092,-0.1936,0.3209,0.2296,-0.5453,0.1185,-0.0261,-43.3500,8.8500,-4.3500,
2.069196,-0.1936,0.3209,0.2296,-0.4505,0.1214,-0.0244,-43.3500,8.8500,-4.3500,
2.083170,-0.1936,0.3209,0.2296,-0.4505,0.1214,-0.0244,-43.3500,8.8500,-4.3500,
2.085368,-0.2399,0.2549,-0.1090,-0.4505,0.1214,-0.0244,-43.3500,8.8500,-4.3500,
2.092494,-0.2399,0.2549,-0.1090,-0.4505,0.1214,-0.0244,-43.8750,8.1000,-4.8000,
2.102128,-0.2399,0.2549,-0.1090,-0.4505,0.1214,-0.0244,-43.8750,8.1000,-4.8000,
2.104421,-0.2044,-0.0882,0.0396,-0.4505,0.1214,-0.0244,-43.8750,8.1000,-4.8000,
2.121969,-0.2044,-0.0882,0.0396,-0.4505,0.1214,-0.0244,-43.8750,8.1000,-4.8000,
2.124914,-0.2920,-0.2981,0.3942,-0.4505,0.1214,-0.0244,-43.8750,8.1000,-4.8000,
2.136592,-0.2920,-0.2981,0.3942,-0.4740,0.0991,0.0579,-43.8750,8.1000,-4.8000,
2.142000,-0.2920,-0.2981,0.3942,-0.4740,0.0991,0.0579,-43.8750,8.1000,-4.8000,
2.144881,-0.5139,-0.0450,0.6840,-0.4740,0.0991,0.0579,-43.8750,8.1000,-4.8000,
2.161670,-0.5139,-0.0450,0.6840,-0.4740,0.0991,0.0579,-43.8750,8.1000,-4.8000,
2.164625,-0.6991,0.4198,0.8025,-0.4740,0.0991,0.0579,-43.8750,8.1000,-4.8000,
2.166639,-0.6991,0.4198,0.8025,-0.4740,0.0991,0.0579,-43.5000,8.2500,-4.7250,
2.183140,-0.6991,0.4198,0.8025,-0.4740,0.0991,0.0579,-43.5000,8.2500,-4.7250,
2.185621,-0.5962,0.8337,0.9300,-0.4740,0.0991,0.0579,-43.5000,8.2500,-4.7250,
2.195601,-0.5962,0.8337,0.9300,-0.4740,0.0991,0.0579,-43.5000,8.2500,-4.7250,
2.197654,-0.3344,1.1716,0.7457,-0.4740,0.0991,0.0579,-43.5000,8.2500,-4.7250,
2.205126,-0.3344,1.1716,0.7457,-0.1330,0.1057,0.0904,-43.5000,8.2500,-4.7250,
2.215179,-0.3344,1.1716,0.7457,-0.1330,0.1057,0.0904,-43.5000,8.2500,-4.7250,
2.217372,-0.2703,1.7237,0.1811,-0.1330,0.1057,0.0904,-43.5000,8.2500,-4.7250,
2.231051,-0.2703,1.7237,0.1811,-0.1330,0.1057,0.0904,-43.2000,9.1500,-5.3250,
2.239602,-0.2703,1.7237,0.1811,-0.1330,0.1057,0.0904,-43.2000,9.1500,-5.3250,
2.241430,-0.3321,2.2407,-0.2200,-0.1330,0.1057,0.0904,-43.2000,9.1500,-5.3250,
2.259234,-0.3321,2.2407,-0.2200,-0.1330,0.1057,0.0904,-43.2000,9.1500,-5.3250,
2.261723,-0.5098,2.5258,-0.1916,-0.1330,0.1057,0.0904,-43.2000,9.1500,-5.3250,
2.273321,-0.5098,2.5258,-0.1916,0.0602,0.0086,0.0371,-43.2000,9.1500,-5.3250,
2.281633,-0.5098,2.5258,-0.1916,0.0602,0.0086,0.0371,-43.2000,9.1500,-5.3250,
2.283479,-0.8186,2.7085,-0.0142,0.0602,0.0086,0.0371,-43.2000,9.1500,-5.3250,
2.302929,-0.8186,2.7085,-0.0142,0.0602,0.0086,0.0371,-43.2000,9.1500,-5.3250,
2.305365,-1.1178,2.5664,0.6382,0.0602,0.0086,0.0371,-43.2000,9.1500,-5.3250,
2.316284,-1.1178,2.5664,0.6382,0.0602,0.0086,0.0371,-43.6500,9.3750,-4.6500,
2.322666,-1.1178,2.5664,0.6382,0.0602,0.0086,0.0371,-43.6500,9.3750,-4.6500,
2.324833,-1.1910,1.8187,1.5620,0.0602,0.0086,0.0371,-43.6500,9.3750,-4.6500,
2.342078,-1.1910,1.8187,1.5620,0.0602,0.0086,0.0371,-43.6500,9.3750,-4.6500,
2.344593,-1.0212,0.9371,1.8428,0.0602,0.0086,0.0371,-43.6500,9.3750,-4.6500,
2.347178,-1.0212,0.9371,1.8428,0.1318,-0.0379,0.0872,-43.6500,9.3750,-4.6500,
2.362630,-1.0212,0.9371,1.8428,0.1318,-0.0379,0.0872,-43.6500,9.3750,-4.6500,
2.365503,-0.8554,0.3156,1.8466,0.1318,-0.0379,0.0872,-43.6500,9.3750,-4.6500,
2.371547,-0.8554,0.3156,1.8466,0.1318,-0.0379,0.0872,-42.9750,9.0750,-5.5500,
2.382394,-0.8554,0.3156,1.8466,0.1318,-0.0379,0.0872,-42.9750,9.0750,-5.5500,
2.384577,-0.6878,0.0961,1.3095,0.1318,-0.0379,0.0872,-42.9750,9.0750,-5.5500,
2.400758,-0.6878,0.0961,1.3095,0.1318,-0.0379,0.0872,-42.9750,9.0750,-5.5500,
2.403531,-0.8557,0.6220,0.2098,0.1318,-0.0379,0.0872,-42.9750,9.0750,-5.5500,
2.415158,-0.8557,0.6220,0.2098,0.6359,-0.1161,0.0356,-42.9750,9.0750,-5.5500,
2.420092,-0.8557,0.6220,0.2098,0.6359,-0.1161,0.0356,-42.9750,9.0750,-5.5500,
2.421416,-1.0257,1.2891,0.5663,0.6359,-0.1161,0.0356,-42.9750,9.0750,-5.5500,
2.439516,-1.0257,1.2891,0.5663,0.6359,-0.1161,0.0356,-42.9750,9.0750,-5.5500,
2.441578,-0.5846,0.9899,1.6147,0.6359,-0.1161,0.0356,-42.9750,9.0750,-5.5500,
2.443174,-0.5846,0.9899,1.6147,0.6359,-0.1161,0.0356,-42.7500,8.6250,-5.3250,
2.459083,-0.5846,0.9899,1.6147,0.6359,-0.1161,0.0356,-42.7500,8.6250,-5.3250,
2.461754,0.3952,0.2814,2.2317,0.6359,-0.1161,0.0356,-42.7500,8.6250,-5.3250,
2.474535,0.3952,0.2814,2.2317,0.6359,-0.1161,0.0356,-42.7500,8.6250,-5.3250,
2.476367,0.9563,-0.1294,2.3956,0.6359,-0.1161,0.0356,-42.7500,8.6250,-5.3250,
2.484477,0.9563,-0.1294,2.3956,0.3699,0.1687,0.0647,-42.7500,8.6250,-5.3250,
2.497703,0.9563,-0.1294,2.3956,0.3699,0.1687,0.0647,-42.7500,8.6250,-5.3250,
2.498854,0.7605,0.0247,1.8757,0.3699,0.1687,0.0647,-42.7500,8.6250,-5.3250,
2.514903,0.7605,0.0247,1.8757,0.3699,0.1687,0.0647,-43.2750,8.8500,-6.7500,
2.519674,0.7605,0.0247,1.8757,0.3699,0.1687,0.0647,-43.2750,8.8500,-6.7500,
2.520915,-0.0593,0.4540,1.8401,0.3699,0.1687,0.0647,-43.2750,8.8500,-6.7500,
2.538819,-0.0593,0.4540,1.8401,0.3699,0.1687,0.0647,-43.2750,8.8500,-6.7500,
2.540400,-0.5787,0.7026,2.2357,0.3699,0.1687,0.0647,-43.2750,8.8500,-6.7500,
2.558296,-0.5787,0.7026,2.2357,0.7040,0.2404,-0.1106,-43.2750,8.8500,-6.7500,
2.565175,-0.5787,0.7026,2.2357,0.7040,0.2404,-0.1106,-43.2750,8.8500,-6.7500,
2.566820,-0.4009,0.8071,2.3081,0.7040,0.2404,-0.1106,-43.2750,8.8500,-6.7500,
2.579223,-0.4009,0.8071,2.3081,0.7040,0.2404,-0.1106,-43.2750,8.8500,-6.7500,
2.580763,-0.5847,1.7708,0.7510,0.7040,0.2404,-0.1106,-43.2750,8.8500,-6.7500,
2.584158,-0.5847,1.7708,0.7510,0.7040,0.2404,-0.1106,-43.3500,8.4750,-7.0500,
2.597142,-0.5847,1.7708,0.7510,0.7040,0.2404,-0.1106,-43.3500,8.4750,-7.0500,
2.600194,-0.6921,3.5269,0.9079,0.7040,0.2404,-0.1106,-43.3500,8.4750,-7.0500,
2.620882,-0.6921,3.5269,0.9079,0.7040,0.2404,-0.1106,-43.3500,8.4750,-7.0500,
2.623825,-0.1837,4.7718,1.1825,0.7040,0.2404,-0.1106,-43.3500,8.4750,-7.0500,
2.626567,-0.1837,4.7718,1.1825,0.7093,0.1807,-0.2752,-43.3500,8.4750,-7.0500,
2.640209,-0.1837,4.7718,1.1825,0.7093,0.1807,-0.2752,-43.3500,8.4750,-7.0500,
2.642707,-0.1086,6.1767,0.3580,0.7093,0.1807,-0.2752,-43.3500,8.4750,-7.0500,
2.650285,-0.1086,6.1767,0.3580,0.7093,0.1807,-0.2752,-42.9750,7.3500,-9.4500,
2.662308,-0.1086,6.1767,0.3580,0.7093,0.1807,-0.2752,-42.9750,7.3500,-9.4500,
2.665062,-1.1278,8.2089,1.3567,0.7093,0.1807,-0.2752,-42.9750,7.3500,-9.4500,
2.683151,-1.1278,8.2089,1.3567,0.7093,0.1807,-0.2752,-42.9750,7.3500,-9.4500,
2.684876,-1.7251,10.3913,2.5543,0.7093,0.1807,-0.2752,-42.9750,7.3500,-9.4500,
2.696171,-1.7251,10.3913,2.5543,-0.2961,0.0057,-0.5754,-42.9750,7.3500,-9.4500,
2.699111,-1.7251,10.3913,2.5543,-0.2961,0.0057,-0.5754,-42.9750,7.3500,-9.4500,
2.700763,-1.0844,11.3715,1.2576,-0.2961,0.0057,-0.5754,-42.9750,7.3500,-9.4500,
2.719261,-1.0844,11.3715,1.2576,-0.2961,0.0057,-0.5754,-42.9750,7.3500,-9.4500,
2.721874,0.1816,11.2561,-0.1003,-0.2961,0.0057,-0.5754,-42.9750,7.3500,-9.4500,
2.723804,0.1816,11.2561,-0.1003,-0.2961,0.0057,-0.5754,-43.6500,5.1000,-10.0500,
2.737974,0.1816,11.2561,-0.1003,-0.2961,0.0057,-0.5754,-43.6500,5.1000,-10.0500,
2.740333,1.7670,9.7796,-0.5635,-0.2961,0.0057,-0.5754,-43.6500,5.1000,-10.0500,
2.757460,1.7670,9.7796,-0.5635,-0.2961,0.0057,-0.5754,-43.6500,5.1000,-10.0500,
2.760059,2.9396,7.1788,-4.3748,-0.2961,0.0057,-0.5754,-43.6500,5.1000,-10.0500,
2.764708,2.9396,7.1788,-4.3748,-1.6058,0.2833,-0.8011,-43.6500,5.1000,-10.0500,
2.780460,2.9396,7.1788,-4.3748,-1.6058,0.2833,-0.8011,-43.6500,5.1000,-10.0500,
2.784104,4.2445,1.0963,-4.7928,-1.6058,0.2833,-0.8011,-43.6500,5.1000,-10.0500,
2.790230,4.2445,1.0963,-4.7928,-1.6058,0.2833,-0.8011,-42.9750,3.8250,-11.4000,
2.792591,4.2445,1.0963,-4.7928,-1.6058,0.2833,-0.8011,-42.9750,3.8250,-11.4000,
2.794249,10.0618,-28.1295,-13.7512,-1.6058,0.2833,-0.8011,-42.9750,3.8250,-11.4000,
2.821178,10.0618,-28.1295,-13.7512,-1.6058,0.2833,-0.8011,-42.9750,3.8250,-11.4000,
2.824332,-2.2881,-35.5283,-28.3588,-1.6058,0.2833,-0.8011,-42.9750,3.8250,-11.4000,
2.835929,-2.2881,-35.5283,-28.3588,-4.5620,-0.2795,-1.2124,-42.9750,3.8250,-11.4000,
2.840653,-2.2881,-35.5283,-28.3588,-4.5620,-0.2795,-1.2124,-42.9750,3.8250,-11.4000,
2.842388,-2.4527,-15.2858,-4.8021,-4.5620,-0.2795,-1.2124,-42.9750,3.8250,-11.4000,
2.860582,-2.4527,-15.2858,-4.8021,-4.5620,-0.2795,-1.2124,-42.9750,3.8250,-11.4000,
2.862415,-2.0093,-6.6536,14.1387,-4.5620,-0.2795,-1.2124,-42.9750,3.8250,-11.4000,
2.864200,-2.0093,-6.6536,14.1387,-4.5620,-0.2795,-1.2124,-43.0500,3.3750,-10.5000,
2.880184,-2.0093,-6.6536,14.1387,-4.5620,-0.2795,-1.2124,-43.0500,3.3750,-10.5000,
2.882023,2.5295,-2.2092,10.8448,-4.5620,-0.2795,-1.2124,-43.0500,3.3750,-10.5000,
2.900759,2.5295,-2.2092,10.8448,-4.5620,-0.2795,-1.2124,-43.0500,3.3750,-10.5000,
2.902534,3.6634,-0.3538,8.6964,-4.5620,-0.2795,-1.2124,-43.0500,3.3750,-10.5000,
2.904478,3.6634,-0.3538,8.6964,-4.5568,-0.6510,-1.3390,-43.0500,3.3750,-10.5000,
2.919983,3.6634,-0.3538,8.6964,-4.5568,-0.6510,-1.3390,-43.0500,3.3750,-10.5000,
2.921496,1.2884,5.9468,6.9687,-4.5568,-0.6510,-1.3390,-43.0500,3.3750,-10.5000,
2.932108,1.2884,5.9468,6.9687,-4.5568,-0.6510,-1.3390,-43.6500,2.6250,-6.4500,
2.939366,1.2884,5.9468,6.9687,-4.5568,-0.6510,-1.3390,-43.6500,2.6250,-6.4500,
2.940774,-0.2963,11.6583,4.8073,-4.5568,-0.6510,-1.3390,-43.6500,2.6250,-6.4500,
2.958232,-0.2963,11.6583,4.8073,-4.5568,-0.6510,-1.3390,-43.6500,2.6250,-6.4500,
2.961400,-0.1535,12.6758,1.4854,-4.5568,-0.6510,-1.3390,-43.6500,2.6250,-6.4500,
2.972651,-0.1535,12.6758,1.4854,-2.6856,0.6108,-0.1567,-43.6500,2.6250,-6.4500,
2.983973,-0.1535,12.6758,1.4854,-2.6856,0.6108,-0.1567,-43.6500,2.6250,-6.4500,
2.986223,-0.0459,7.3141,0.4444,-2.6856,0.6108,-0.1567,-43.6500,2.6250,-6.4500,
2.998751,-0.0459,7.3141,0.4444,-2.6856,0.6108,-0.1567,-43.6500,2.6250,-6.4500,
3.001124,-2.4349,0.7941,1.5727,-2.6856,0.6108,-0.1567,-43.6500,2.6250,-6.4500,
3.002537,-2.4349,0.7941,1.5727,-2.6856,0.6108,-0.1567,-43.8000,2.1750,-7.2000,
3.017537,-2.4349,0.7941,1.5727,-2.6856,0.6108,-0.1567,-43.8000,2.1750,-7.2000,
3.019029,-4.6949,-4.0912,3.5107,-2.6856,0.6108,-0.1567,-43.8000,2.1750,-7.2000,
3.036988,-4.6949,-4.0912,3.5107,-2.6856,0.6108,-0.1567,-43.8000,2.1750,-7.2000,
3.038929,-6.4075,-6.8439,3.2450,-2.6856,0.6108,-0.1567,-43.8000,2.1750,-7.2000,
3.040778,-6.4075,-6.8439,3.2450,-3.7433,-0.4100,0.1920,-43.8000,2.1750,-7.2000,
3.057416,-6.4075,-6.8439,3.2450,-3.7433,-0.4100,0.1920,-43.8000,2.1750,-7.2000,
3.059398,-6.9487,-4.9301,0.0437,-3.7433,-0.4100,0.1920,-43.8000,2.1750,-7.2000,
3.071140,-6.9487,-4.9301,0.0437,-3.7433,-0.4100,0.1920,-43.6500,4.9500,-6.6000,
3.072693,-6.9487,-4.9301,0.0437,-3.7433,-0.4100,0.1920,-43.6500,4.9500,-6.6000,
3.073765,-6.6882,-1.5811,-4.8909,-3.7433,-0.4100,0.1920,-43.6500,4.9500,-6.6000,
3.101382,-6.6882,-1.5811,-4.8909,-3.7433,-0.4100,0.1920,-43.6500,4.9500,-6.6000,
3.102942,-6.7354,0.6362,-7.5617,-3.7433,-0.4100,0.1920,-43.6500,4.9500,-6.6000,
3.115628,-6.7354,0.6362,-7.5617,-1.0998,-4.6369,0.0541,-43.6500,4.9500,-6.6000,
3.121792,-6.7354,0.6362,-7.5617,-1.0998,-4.6369,0.0541,-43.6500,4.9500,-6.6000,
3.123419,-4.3585,0.9332,-7.2218,-1.0998,-4.6369,0.0541,-43.6500,4.9500,-6.6000,
3.141047,-4.3585,0.9332,-7.2218,-1.0998,-4.6369,0.0541,-43.6500,4.9500,-6.6000,
3.142959,1.4690,-0.4845,-2.6004,-1.0998,-4.6369,0.0541,-43.6500,4.9500,-6.6000,
3.144652,1.4690,-0.4845,-2.6004,-1.0998,-4.6369,0.0541,-43.8750,6.3000,3.3750,
3.159818,1.4690,-0.4845,-2.6004,-1.0998,-4.6369,0.0541,-43.8750,6.3000,3.3750,
3.161620,10.1812,-0.7056,-0.3263,-1.0998,-4.6369,0.0541,-43.8750,6.3000,3.3750,
3.179753,10.1812,-0.7056,-0.3263,-1.0998,-4.6369,0.0541,-43.8750,6.3000,3.3750,
3.181582,13.7377,1.7207,0.5626,-1.0998,-4.6369,0.0541,-43.8750,6.3000,3.3750,
3.183676,13.7377,1.7207,0.5626,-1.5056,-4.6244,0.9251,-43.8750,6.3000,3.3750,
3.200776,13.7377,1.7207,0.5626,-1.5056,-4.6244,0.9251,-43.8750,6.3000,3.3750,
3.204074,12.9664,1.3442,-1.4400,-1.5056,-4.6244,0.9251,-43.8750,6.3000,3.3750,
3.218261,12.9664,1.3442,-1.4400,-1.5056,-4.6244,0.9251,-38.5500,6.7500,18.9750,
3.221193,12.9664,1.3442,-1.4400,-1.5056,-4.6244,0.9251,-38.5500,6.7500,18.9750,
3.222895,10.9668,-0.0869,-5.3764,-1.5056,-4.6244,0.9251,-38.5500,6.7500,18.9750,
3.237011,10.9668,-0.0869,-5.3764,-1.5056,-4.6244,0.9251,-38.5500,6.7500,18.9750,
3.239360,6.2950,0.8413,-7.9648,-1.5056,-4.6244,0.9251,-38.5500,6.7500,18.9750,
3.251753,6.2950,0.8413,-7.9648,-0.4917,0.6596,0.0241,-38.5500,6.7500,18.9750,
3.256626,6.2950,0.8413,-7.9648,-0.4917,0.6596,0.0241,-38.5500,6.7500,18.9750,
3.258040,2.3348,3.1253,-5.5113,-0.4917,0.6596,0.0241,-38.5500,6.7500,18.9750,
3.275660,2.3348,3.1253,-5.5113,-0.4917,0.6596,0.0241,-38.5500,6.7500,18.9750,
3.277852,-0.2294,4.0399,-2.9745,-0.4917,0.6596,0.0241,-38.5500,6.7500,18.9750,
3.286466,-0.2294,4.0399,-2.9745,-0.4917,0.6596,0.0241,-37.3500,6.0750,22.3500,
3.291383,-0.2294,4.0399,-2.9745,-0.4917,0.6596,0.0241,-37.3500,6.0750,22.3500,
3.293595,-2.4603,4.3537,-3.1346,-0.4917,0.6596,0.0241,-37.3500,6.0750,22.3500,
3.315427,-2.4603,4.3537,-3.1346,-0.4917,0.6596,0.0241,-37.3500,6.0750,22.3500,
3.317966,-4.8742,5.6567,-1.5294,-0.4917,0.6596,0.0241,-37.3500,6.0750,22.3500,
3.320612,-4.8742,5.6567,-1.5294,0.3207,2.9089,-0.4968,-37.3500,6.0750,22.3500,
3.334906,-4.8742,5.6567,-1.5294,0.3207,2.9089,-0.4968,-37.3500,6.0750,22.3500,
3.337054,-8.0376,5.4801,-0.5890,0.3207,2.9089,-0.4968,-37.3500,6.0750,22.3500,
3.350224,-8.0376,5.4801,-0.5890,0.3207,2.9089,-0.4968,-40.2750,4.2750,15.7500,
3.353037,-8.0376,5.4801,-0.5890,0.3207,2.9089,-0.4968,-40.2750,4.2750,15.7500,
3.354925,-9.2312,3.7406,0.6338,0.3207,2.9089,-0.4968,-40.2750,4.2750,15.7500,
3.373578,-9.2312,3.7406,0.6338,0.3207,2.9089,-0.4968,-40.2750,4.2750,15.7500,
3.376167,-6.7707,1.6319,0.9384,0.3207,2.9089,-0.4968,-40.2750,4.2750,15.7500,
3.389870,-6.7707,1.6319,0.9384,-0.0444,0.9349,-0.5461,-40.2750,4.2750,15.7500,
3.392131,-6.7707,1.6319,0.9384,-0.0444,0.9349,-0.5461,-40.2750,4.2750,15.7500,
3.393444,-6.7001,1.9543,-1.3176,-0.0444,0.9349,-0.5461,-40.2750,4.2750,15.7500,
3.415178,-6.7001,1.9543,-1.3176,-0.0444,0.9349,-0.5461,-40.2750,4.2750,15.7500,
3.417038,-5.5452,2.9692,-0.1110,-0.0444,0.9349,-0.5461,-40.2750,4.2750,15.7500,
3.420521,-5.5452,2.9692,-0.1110,-0.0444,0.9349,-0.5461,-41.1000,2.2500,11.5500,
3.432975,-5.5452,2.9692,-0.1110,-0.0444,0.9349,-0.5461,-41.1000,2.2500,11.5500,
3.434671,-3.1093,4.7840,-1.5679,-0.0444,0.9349,-0.5461,-41.1000,2.2500,11.5500,
3.457436,-3.1093,4.7840,-1.5679,-0.0444,0.9349,-0.5461,-41.1000,2.2500,11.5500,
3.460988,-0.8279,6.9029,-4.3919,-0.0444,0.9349,-0.5461,-41.1000,2.2500,11.5500,
3.467389,-0.8279,6.9029,-4.3919,-0.1443,0.4610,-0.0959,-41.1000,2.2500,11.5500,
3.477044,-0.8279,6.9029,-4.3919,-0.1443,0.4610,-0.0959,-41.1000,2.2500,11.5500,
3.479400,0.5448,4.6743,-6.8201,-0.1443,0.4610,-0.0959,-41.1000,2.2500,11.5500,
3.490065,0.5448,4.6743,-6.8201,-0.1443,0.4610,-0.0959,-40.9500,0.9000,9.1500,
3.492603,0.5448,4.6743,-6.8201,-0.1443,0.4610,-0.0959,-40.9500,0.9000,9.1500,
3.494228,0.8862,2.0419,-8.2929,-0.1443,0.4610,-0.0959,-40.9500,0.9000,9.1500,
3.515337,0.8862,2.0419,-8.2929,-0.1443,0.4610,-0.0959,-40.9500,0.9000,9.1500,
3.516879,0.0638,-0.3792,-6.4343,-0.1443,0.4610,-0.0959,-40.9500,0.9000,9.1500,
3.532827,0.0638,-0.3792,-6.4343,0.5078,0.3619,0.1238,-40.9500,0.9000,9.1500,
3.535850,0.0638,-0.3792,-6.4343,0.5078,0.3619,0.1238,-40.9500,0.9000,9.1500,
3.536982,-1.3496,-0.7449,-3.2426,0.5078,0.3619,0.1238,-40.9500,0.9000,9.1500,
3.554714,-1.3496,-0.7449,-3.2426,0.5078,0.3619,0.1238,-40.9500,0.9000,9.1500,
3.556631,-2.4745,0.5615,-1.0946,0.5078,0.3619,0.1238,-40.9500,0.9000,9.1500,
3.563626,-2.4745,0.5615,-1.0946,0.5078,0.3619,0.1238,-41.2500,1.2750,7.9500,
3.574469,-2.4745,0.5615,-1.0946,0.5078,0.3619,0.1238,-41.2500,1.2750,7.9500,
3.575862,-2.0172,1.5803,-1.6881,0.5078,0.3619,0.1238,-41.2500,1.2750,7.9500,
3.592522,-2.0172,1.5803,-1.6881,0.5078,0.3619,0.1238,-41.2500,1.2750,7.9500,
3.594063,-0.4052,2.5005,-1.9370,0.5078,0.3619,0.1238,-41.2500,1.2750,7.9500,
3.599503,-0.4052,2.5005,-1.9370,0.2680,-0.3297,0.1559,-41.2500,1.2750,7.9500,
3.616102,-0.4052,2.5005,-1.9370,0.2680,-0.3297,0.1559,-41.2500,1.2750,7.9500,
3.618033,0.8601,3.4076,-1.6517,0.2680,-0.3297,0.1559,-41.2500,1.2750,7.9500,
3.631161,0.8601,3.4076,-1.6517,0.2680,-0.3297,0.1559,-41.2500,1.9500,8.7750,
3.632668,0.8601,3.4076,-1.6517,0.2680,-0.3297,0.1559,-41.2500,1.9500,8.7750,
3.633786,1.3418,2.9740,-0.6759,0.2680,-0.3297,0.1559,-41.2500,1.9500,8.7750,
3.653211,1.3418,2.9740,-0.6759,0.2680,-0.3297,0.1559,-41.2500,1.9500,8.7750,
3.656205,0.7740,2.0125,-0.1615,0.2680,-0.3297,0.1559,-41.2500,1.9500,8.7750,
3.667173,0.7740,2.0125,-0.1615,-0.0564,-0.1104,0.0279,-41.2500,1.9500,8.7750,
3.672327,0.7740,2.0125,-0.1615,-0.0564,-0.1104,0.0279,-41.2500,1.9500,8.7750,
3.673730,0.3244,1.5722,-0.3536,-0.0564,-0.1104,0.0279,-41.2500,1.9500,8.7750,
3.692233,0.3244,1.5722,-0.3536,-0.0564,-0.1104,0.0279,-41.2500,1.9500,8.7750,
3.694558,0.1197,1.0561,-0.6136,-0.0564,-0.1104,0.0279,-41.2500,1.9500,8.7750,
3.700599,0.1197,1.0561,-0.6136,-0.0564,-0.1104,0.0279,-41.4750,2.4750,9.4500,
3.711794,0.1197,1.0561,-0.6136,-0.0564,-0.1104,0.0279,-41.4750,2.4750,9.4500,
3.714294,-0.3098,0.6758,-1.0042,-0.0564,-0.1104,0.0279,-41.4750,2.4750,9.4500,
3.736426,-0.3098,0.6758,-1.0042,-0.0564,-0.1104,0.0279,-41.4750,2.4750,9.4500,
3.739129,-0.9760,0.6002,-1.3212,-0.0564,-0.1104,0.0279,-41.4750,2.4750,9.4500,
3.741082,-0.9760,0.6002,-1.3212,-0.1814,-0.0872,-0.2477,-41.4750,2.4750,9.4500,
3.754908,-0.9760,0.6002,-1.3212,-0.1814,-0.0872,-0.2477,-41.4750,2.4750,9.4500,
3.757261,-1.5324,1.3507,-1.6098,-0.1814,-0.0872,-0.2477,-41.4750,2.4750,9.4500,
3.770382,-1.5324,1.3507,-1.6098,-0.1814,-0.0872,-0.2477,-41.7750,1.8000,9.7500,
3.774117,-1.5324,1.3507,-1.6098,-0.1814,-0.0872,-0.2477,-41.7750,1.8000,9.7500,
3.775932,-1.7596,1.7532,-1.8562,-0.1814,-0.0872,-0.2477,-41.7750,1.8000,9.7500,
3.791755,-1.7596,1.7532,-1.8562,-0.1814,-0.0872,-0.2477,-41.7750,1.8000,9.7500,
3.795035,-1.4902,1.4135,-2.2438,-0.1814,-0.0872,-0.2477,-41.7750,1.8000,9.7500,
3.809101,-1.4902,1.4135,-2.2438,-0.1092,-0.5375,-0.1185,-41.7750,1.8000,9.7500,
3.815634,-1.4902,1.4135,-2.2438,-0.1092,-0.5375,-0.1185,-41.7750,1.8000,9.7500,
3.818251,-1.3759,0.8359,-2.3790,-0.1092,-0.5375,-0.1185,-41.7750,1.8000,9.7500,
3.834343,-1.3759,0.8359,-2.3790,-0.1092,-0.5375,-0.1185,-41.7750,1.8000,9.7500,
3.837251,-0.6860,0.2165,-2.1428,-0.1092,-0.5375,-0.1185,-41.7750,1.8000,9.7500,
3.839012,-0.6860,0.2165,-2.1428,-0.1092,-0.5375,-0.1185,-41.2500,0.7500,10.2000,
3.853110,-0.6860,0.2165,-2.1428,-0.1092,-0.5375,-0.1185,-41.2500,0.7500,10.2000,
3.855113,0.1813,-0.5013,-2.6258,-0.1092,-0.5375,-0.1185,-41.2500,0.7500,10.2000,
3.872762,0.1813,-0.5013,-2.6258,-0.1092,-0.5375,-0.1185,-41.2500,0.7500,10.2000,
3.875389,0.2678,-0.5740,-1.6629,-0.1092,-0.5375,-0.1185,-41.2500,0.7500,10.2000,
3.880557,0.2678,-0.5740,-1.6629,-0.4955,-0.4888,0.0909,-41.2500,0.7500,10.2000,
3.892042,0.2678,-0.5740,-1.6629,-0.4955,-0.4888,0.0909,-41.2500,0.7500,10.2000,
3.894150,0.1152,-0.1277,-0.6811,-0.4955,-0.4888,0.0909,-41.2500,0.7500,10.2000,
3.902305,0.1152,-0.1277,-0.6811,-0.4955,-0.4888,0.0909,-41.1750,1.2750,12.0000,
3.911788,0.1152,-0.1277,-0.6811,-0.4955,-0.4888,0.0909,-41.1750,1.2750,12.0000,
3.914043,0.0354,0.4394,-0.2629,-0.4955,-0.4888,0.0909,-41.1750,1.2750,12.0000,
3.933734,0.0354,0.4394,-0.2629,-0.4955,-0.4888,0.0909,-41.1750,1.2750,12.0000,
3.935569,-0.1909,1.1021,-0.6928,-0.4955,-0.4888,0.0909,-41.1750,1.2750,12.0000,
3.947833,-0.1909,1.1021,-0.6928,-0.1794,-0.4442,0.4762,-41.1750,1.2750,12.0000,
3.950600,-0.1909,1.1021,-0.6928,-0.1794,-0.4442,0.4762,-41.1750,1.2750,12.0000,
3.952150,-0.3564,1.7591,-1.1809,-0.1794,-0.4442,0.4762,-41.1750,1.2750,12.0000,
3.975541,-0.3564,1.7591,-1.1809,-0.1794,-0.4442,0.4762,-41.1750,1.2750,12.0000,
3.978466,-0.6423,2.3552,-0.9165,-0.1794,-0.4442,0.4762,-41.1750,1.2750,12.0000,
3.981275,-0.6423,2.3552,-0.9165,-0.1794,-0.4442,0.4762,-41.4750,2.5500,12.7500,
3.991783,-0.6423,2.3552,-0.9165,-0.1794,-0.4442,0.4762,-41.4750,2.5500,12.7500,
3.994539,-1.1083,2.6831,-0.2559,-0.1794,-0.4442,0.4762,-41.4750,2.5500,12.7500,
4.014237,-1.1083,2.6831,-0.2559,-0.1794,-0.4442,0.4762,-41.4750,2.5500,12.7500,
4.017058,-1.7122,2.8760,-0.0746,-0.1794,-0.4442,0.4762,-41.4750,2.5500,12.7500,
4.019441,-1.7122,2.8760,-0.0746,-0.1240,-0.5429,0.3662,-41.4750,2.5500,12.7500,
4.034210,-1.7122,2.8760,-0.0746,-0.1240,-0.5429,0.3662,-41.4750,2.5500,12.7500,
4.038255,-1.5624,3.1587,0.2559,-0.1240,-0.5429,0.3662,-41.4750,2.5500,12.7500,
4.049656,-1.5624,3.1587,0.2559,-0.1240,-0.5429,0.3662,-40.8750,3.5250,13.8750,
4.053293,-1.5624,3.1587,0.2559,-0.1240,-0.5429,0.3662,-40.8750,3.5250,13.8750,
4.055033,-0.8382,2.8105,0.2187,-0.1240,-0.5429,0.3662,-40.8750,3.5250,13.8750,
4.073239,-0.8382,2.8105,0.2187,-0.1240,-0.5429,0.3662,-40.8750,3.5250,13.8750,
4.075888,-0.3047,2.3107,0.1961,-0.1240,-0.5429,0.3662,-40.8750,3.5250,13.8750,
4.087792,-0.3047,2.3107,0.1961,-0.1364,-0.7862,0.3094,-40.8750,3.5250,13.8750,
4.091957,-0.3047,2.3107,0.1961,-0.1364,-0.7862,0.3094,-40.8750,3.5250,13.8750,
4.093831,-0.3227,1.8135,0.1724,-0.1364,-0.7862,0.3094,-40.8750,3.5250,13.8750,
4.112486,-0.3227,1.8135,0.1724,-0.1364,-0.7862,0.3094,-40.8750,3.5250,13.8750,
4.114849,-0.3626,1.2516,0.5914,-0.1364,-0.7862,0.3094,-40.8750,3.5250,13.8750,
4.116465,-0.3626,1.2516,0.5914,-0.1364,-0.7862,0.3094,-40.0500,4.5750,16.3500,
4.134058,-0.3626,1.2516,0.5914,-0.1364,-0.7862,0.3094,-40.0500,4.5750,16.3500,
4.137306,-0.5069,0.7384,0.4310,-0.1364,-0.7862,0.3094,-40.0500,4.5750,16.3500,
4.150752,-0.5069,0.7384,0.4310,-0.1364,-0.7862,0.3094,-40.0500,4.5750,16.3500,
4.152790,-0.5861,0.6259,0.7214,-0.1364,-0.7862,0.3094,-40.0500,4.5750,16.3500,
4.155704,-0.5861,0.6259,0.7214,-0.2468,-0.7694,0.2048,-40.0500,4.5750,16.3500,
4.170957,-0.5861,0.6259,0.7214,-0.2468,-0.7694,0.2048,-40.0500,4.5750,16.3500,
4.173832,-0.4259,1.0822,0.8557,-0.2468,-0.7694,0.2048,-40.0500,4.5750,16.3500,
4.181187,-0.4259,1.0822,0.8557,-0.2468,-0.7694,0.2048,-39.6750,5.7000,18.7500,
4.189732,-0.4259,1.0822,0.8557,-0.2468,-0.7694,0.2048,-39.6750,5.7000,18.7500,
4.191199,0.2377,1.5310,0.9453,-0.2468,-0.7694,0.2048,-39.6750,5.7000,18.7500,
4.211415,0.2377,1.5310,0.9453,-0.2468,-0.7694,0.2048,-39.6750,5.7000,18.7500,
4.215047,0.5795,1.2482,0.6966,-0.2468,-0.7694,0.2048,-39.6750,5.7000,18.7500,
4.230257,0.5795,1.2482,0.6966,0.0623,-0.5098,0.0906,-39.6750,5.7000,18.7500,
4.235071,0.5795,1.2482,0.6966,0.0623,-0.5098,0.0906,-39.6750,5.7000,18.7500,
4.236963,0.3565,0.5287,0.7341,0.0623,-0.5098,0.0906,-39.6750,5.7000,18.7500,
4.253901,0.3565,0.5287,0.7341,0.0623,-0.5098,0.0906,-39.6750,5.7000,18.7500,
4.256728,0.4535,0.2930,1.2531,0.0623,-0.5098,0.0906,-39.6750,5.7000,18.7500,
4.258481,0.4535,0.2930,1.2531,0.0623,-0.5098,0.0906,-39.4500,5.8500,20.7750,
4.273354,0.4535,0.2930,1.2531,0.0623,-0.5098,0.0906,-39.4500,5.8500,20.7750,
4.276273,1.7943,0.0346,1.5142,0.0623,-0.5098,0.0906,-39.4500,5.8500,20.7750,
4.292639,1.7943,0.0346,1.5142,0.0623,-0.5098,0.0906,-39.4500,5.8500,20.7750,
4.295849,3.0517,-0.6648,1.4682,0.0623,-0.5098,0.0906,-39.4500,5.8500,20.7750,
4.298577,3.0517,-0.6648,1.4682,0.2958,0.3694,0.1979,-39.4500,5.8500,20.7750,
4.318487,3.0517,-0.6648,1.4682,0.2958,0.3694,0.1979,-39.4500,5.8500,20.7750,
4.321230,3.5710,-1.1293,0.9218,0.2958,0.3694,0.1979,-39.4500,5.8500,20.7750,
4.323748,3.5710,-1.1293,0.9218,0.2958,0.3694,0.1979,-38.5500,6.7500,20.8500,
4.333533,3.5710,-1.1293,0.9218,0.2958,0.3694,0.1979,-38.5500,6.7500,20.8500,
4.335707,3.1894,-0.9117,0.7566,0.2958,0.3694,0.1979,-38.5500,6.7500,20.8500,
4.352062,3.1894,-0.9117,0.7566,0.2958,0.3694,0.1979,-38.5500,6.7500,20.8500,
4.354518,2.3849,-0.6845,1.2161,0.2958,0.3694,0.1979,-38.5500,6.7500,20.8500,
4.366668,2.3849,-0.6845,1.2161,0.1860,1.5629,0.0470,-38.5500,6.7500,20.8500,
4.372083,2.3849,-0.6845,1.2161,0.1860,1.5629,0.0470,-38.5500,6.7500,20.8500,
4.373585,1.3829,-0.5262,1.1089,0.1860,1.5629,0.0470,-38.5500,6.7500,20.8500,
4.391536,1.3829,-0.5262,1.1089,0.1860,1.5629,0.0470,-38.5500,6.7500,20.8500,
4.393643,0.4458,-0.2593,1.1505,0.1860,1.5629,0.0470,-38.5500,6.7500,20.8500,
4.395599,0.4458,-0.2593,1.1505,0.1860,1.5629,0.0470,-40.3500,7.3500,18.4500,
4.411731,0.4458,-0.2593,1.1505,0.1860,1.5629,0.0470,-40.3500,7.3500,18.4500,
4.414581,-0.4945,0.0608,0.6593,0.1860,1.5629,0.0470,-40.3500,7.3500,18.4500,
4.437072,-0.4945,0.0608,0.6593,0.1860,1.5629,0.0470,-40.3500,7.3500,18.4500,
4.440147,-1.2335,-0.0885,-0.0769,0.1860,1.5629,0.0470,-40.3500,7.3500,18.4500,
4.443929,-1.2335,-0.0885,-0.0769,0.4497,2.3618,-0.0179,-40.3500,7.3500,18.4500,
4.455769,-1.2335,-0.0885,-0.0769,0.4497,2.3618,-0.0179,-40.3500,7.3500,18.4500,
4.457002,-1.7036,-0.4091,-0.0486,0.4497,2.3618,-0.0179,-40.3500,7.3500,18.4500,
4.461052,-1.7036,-0.4091,-0.0486,0.4497,2.3618,-0.0179,-41.5500,7.8750,12.3750,
4.469487,-1.7036,-0.4091,-0.0486,0.4497,2.3618,-0.0179,-41.5500,7.8750,12.3750,
4.471004,-0.9413,-0.3066,0.7122,0.4497,2.3618,-0.0179,-41.5500,7.8750,12.3750,
4.489551,-0.9413,-0.3066,0.7122,0.4497,2.3618,-0.0179,-41.5500,7.8750,12.3750,
4.490666,0.2012,-0.3807,-0.0519,0.4497,2.3618,-0.0179,-41.5500,7.8750,12.3750,
4.505606,0.2012,-0.3807,-0.0519,0.6069,2.7487,0.1351,-41.5500,7.8750,12.3750,
4.508793,0.2012,-0.3807,-0.0519,0.6069,2.7487,0.1351,-41.5500,7.8750,12.3750,
4.509724,-0.0062,-0.6024,-0.9487,0.6069,2.7487,0.1351,-41.5500,7.8750,12.3750,
4.529860,-0.0062,-0.6024,-0.9487,0.6069,2.7487,0.1351,-41.5500,7.8750,12.3750,
4.531738,-0.2595,-0.4174,-1.1974,0.6069,2.7487,0.1351,-41.5500,7.8750,12.3750,
4.533165,-0.2595,-0.4174,-1.1974,0.6069,2.7487,0.1351,-42.9000,9.2250,3.9750,
4.552673,-0.2595,-0.4174,-1.1974,0.6069,2.7487,0.1351,-42.9000,9.2250,3.9750,
4.554253,-0.5075,-0.4464,-1.2949,0.6069,2.7487,0.1351,-42.9000,9.2250,3.9750,
4.573969,-0.5075,-0.4464,-1.2949,0.6069,2.7487,0.1351,-42.9000,9.2250,3.9750,
4.575819,-0.9138,-1.1169,-2.4151,0.6069,2.7487,0.1351,-42.9000,9.2250,3.9750,
4.580892,-0.9138,-1.1169,-2.4151,0.7816,2.0912,0.3120,-42.9000,9.2250,3.9750,
4.592208,-0.9138,-1.1169,-2.4151,0.7816,2.0912,0.3120,-42.9000,9.2250,3.9750,
4.593346,-0.5290,-1.5008,-2.3854,0.7816,2.0912,0.3120,-42.9000,9.2250,3.9750,
4.611609,-0.5290,-1.5008,-2.3854,0.7816,2.0912,0.3120,-43.5000,9.9750,-2.7000,
4.613390,-0.5290,-1.5008,-2.3854,0.7816,2.0912,0.3120,-43.5000,9.9750,-2.7000,
4.614527,-0.3500,-2.0077,-1.3787,0.7816,2.0912,0.3120,-43.5000,9.9750,-2.7000,
4.631372,-0.3500,-2.0077,-1.3787,0.7816,2.0912,0.3120,-43.5000,9.9750,-2.7000,
4.636190,-0.7847,-2.9841,-0.5881,0.7816,2.0912,0.3120,-43.5000,9.9750,-2.7000,
4.647032,-0.7847,-2.9841,-0.5881,1.1078,0.9259,0.6403,-43.5000,9.9750,-2.7000,
4.651047,-0.7847,-2.9841,-0.5881,1.1078,0.9259,0.6403,-43.5000,9.9750,-2.7000,
4.652869,-1.7560,-4.0584,-0.5672,1.1078,0.9259,0.6403,-43.5000,9.9750,-2.7000,
4.669979,-1.7560,-4.0584,-0.5672,1.1078,0.9259,0.6403,-43.5000,9.9750,-2.7000,
4.672309,-2.1996,-4.7330,-0.5977,1.1078,0.9259,0.6403,-43.5000,9.9750,-2.7000,
4.674263,-2.1996,-4.7330,-0.5977,1.1078,0.9259,0.6403,-42.4500,10.5000,-8.7000,
4.689668,-2.1996,-4.7330,-0.5977,1.1078,0.9259,0.6403,-42.4500,10.5000,-8.7000,
4.694280,-1.8256,-4.2947,-0.2468,1.1078,0.9259,0.6403,-42.4500,10.5000,-8.7000,
4.709102,-1.8256,-4.2947,-0.2468,1.1078,0.9259,0.6403,-42.4500,10.5000,-8.7000,
4.712407,-0.9136,-2.8188,0.3384,1.1078,0.9259,0.6403,-42.4500,10.5000,-8.7000,
4.716101,-0.9136,-2.8188,0.3384,1.7938,0.0606,0.6670,-42.4500,10.5000,-8.7000,
4.735432,-0.9136,-2.8188,0.3384,1.7938,0.0606,0.6670,-42.4500,10.5000,-8.7000,
4.738606,-0.3412,-1.4164,0.2624,1.7938,0.0606,0.6670,-42.4500,10.5000,-8.7000,
4.741773,-0.3412,-1.4164,0.2624,1.7938,0.0606,0.6670,-42.7500,11.4000,-9.2250,
4.749815,-0.3412,-1.4164,0.2624,1.7938,0.0606,0.6670,-42.7500,11.4000,-9.2250,
4.750837,-0.2472,-0.3579,-0.0801,1.7938,0.0606,0.6670,-42.7500,11.4000,-9.2250,
4.767931,-0.2472,-0.3579,-0.0801,1.7938,0.0606,0.6670,-42.7500,11.4000,-9.2250,
4.770340,-0.0273,0.2814,-0.3065,1.7938,0.0606,0.6670,-42.7500,11.4000,-9.2250,
4.782202,-0.0273,0.2814,-0.3065,2.0512,-0.2785,0.8051,-42.7500,11.4000,-9.2250,
4.787221,-0.0273,0.2814,-0.3065,2.0512,-0.2785,0.8051,-42.7500,11.4000,-9.2250,
4.788684,0.2409,0.7395,-0.3871,2.0512,-0.2785,0.8051,-42.7500,11.4000,-9.2250,
4.807527,0.2409,0.7395,-0.3871,2.0512,-0.2785,0.8051,-42.7500,11.4000,-9.2250,
4.810635,0.3848,1.3993,0.0315,2.0512,-0.2785,0.8051,-42.7500,11.4000,-9.2250,
4.812928,0.3848,1.3993,0.0315,2.0512,-0.2785,0.8051,-41.2500,12.5250,-10.9500,
4.831018,0.3848,1.3993,0.0315,2.0512,-0.2785,0.8051,-41.2500,12.5250,-10.9500,
4.832932,0.4953,1.7978,0.6069,2.0512,-0.2785,0.8051,-41.2500,12.5250,-10.9500,
4.850906,0.4953,1.7978,0.6069,2.0512,-0.2785,0.8051,-41.2500,12.5250,-10.9500,
4.853073,0.6895,1.8487,0.7949,2.0512,-0.2785,0.8051,-41.2500,12.5250,-10.9500,
4.855395,0.6895,1.8487,0.7949,1.7744,-0.2645,0.8195,-41.2500,12.5250,-10.9500,
4.869738,0.6895,1.8487,0.7949,1.7744,-0.2645,0.8195,-41.2500,12.5250,-10.9500,
4.871331,0.8846,1.9489,0.4902,1.7744,-0.2645,0.8195,-41.2500,12.5250,-10.9500,
4.880207,0.8846,1.9489,0.4902,1.7744,-0.2645,0.8195,-41.8500,13.0500,-11.3250,
4.889669,0.8846,1.9489,0.4902,1.7744,-0.2645,0.8195,-41.8500,13.0500,-11.3250,
4.891112,0.9098,1.8058,0.4024,1.7744,-0.2645,0.8195,-41.8500,13.0500,-11.3250,
4.909039,0.9098,1.8058,0.4024,1.7744,-0.2645,0.8195,-41.8500,13.0500,-11.3250,
4.910739,0.7301,1.6326,0.5507,1.7744,-0.2645,0.8195,-41.8500,13.0500,-11.3250,
4.924359,0.7301,1.6326,0.5507,1.6452,-0.3506,0.5838,-41.8500,13.0500,-11.3250,
4.935483,0.7301,1.6326,0.5507,1.6452,-0.3506,0.5838,-41.8500,13.0500,-11.3250,
4.937940,0.3184,1.6502,0.5267,1.6452,-0.3506,0.5838,-41.8500,13.0500,-11.3250,
4.948450,0.3184,1.6502,0.5267,1.6452,-0.3506,0.5838,-41.8500,13.0500,-11.3250,
4.951068,0.3260,1.6990,0.5215,1.6452,-0.3506,0.5838,-41.8500,13.0500,-11.3250,
4.952864,0.3260,1.6990,0.5215,1.6452,-0.3506,0.5838,-41.7750,13.8000,-12.7500,
4.968477,0.3260,1.6990,0.5215,1.6452,-0.3506,0.5838,-41.7750,13.8000,-12.7500,
4.971084,0.5023,1.7133,0.3371,1.6452,-0.3506,0.5838,-41.7750,13.8000,-12.7500,
4.987813,0.5023,1.7133,0.3371,1.6452,-0.3506,0.5838,-41.7750,13.8000,-12.7500,
4.989971,0.2910,1.7068,0.2114,1.6452,-0.3506,0.5838,-41.7750,13.8000,-12.7500,
4.991725,0.2910,1.7068,0.2114,1.4344,-0.5934,0.5055,-41.7750,13.8000,-12.7500,
5.007230,0.2910,1.7068,0.2114,1.4344,-0.5934,0.5055,-41.7750,13.8000,-12.7500,
5.010407,0.2022,1.6686,0.3012,1.4344,-0.5934,0.5055,-41.7750,13.8000,-12.7500,
5.020276,0.2022,1.6686,0.3012,1.4344,-0.5934,0.5055,-41.8500,13.7250,-12.4500,
5.028172,0.2022,1.6686,0.3012,1.4344,-0.5934,0.5055,-41.8500,13.7250,-12.4500,
5.029965,0.1442,1.6597,0.2094,1.4344,-0.5934,0.5055,-41.8500,13.7250,-12.4500,
5.042026,0.1442,1.6597,0.2094,1.4344,-0.5934,0.5055,-41.8500,13.7250,-12.4500,
5.043863,0.2204,1.6549,0.4701,1.4344,-0.5934,0.5055,-41.8500,13.7250,-12.4500,
5.060534,0.2204,1.6549,0.4701,1.2867,-0.8949,0.5869,-41.8500,13.7250,-12.4500,
5.066014,0.2204,1.6549,0.4701,1.2867,-0.8949,0.5869,-41.8500,13.7250,-12.4500,
5.068102,0.3698,1.4663,0.5212,1.2867,-0.8949,0.5869,-41.8500,13.7250,-12.4500,
5.085346,0.3698,1.4663,0.5212,1.2867,-0.8949,0.5869,-41.8500,13.7250,-12.4500,
5.088681,0.3219,1.2887,0.6359,1.2867,-0.8949,0.5869,-41.8500,13.7250,-12.4500,
5.091140,0.3219,1.2887,0.6359,1.2867,-0.8949,0.5869,-41.5500,14.1750,-10.5000,
5.110166,0.3219,1.2887,0.6359,1.2867,-0.8949,0.5869,-41.5500,14.1750,-10.5000,
5.113777,0.0058,1.1121,0.6236,1.2867,-0.8949,0.5869,-41.5500,14.1750,-10.5000,
5.130194,0.0058,1.1121,0.6236,1.2867,-0.8949,0.5869,-41.5500,14.1750,-10.5000,
5.134483,-0.6467,0.8002,0.6072,1.2867,-0.8949,0.5869,-41.5500,14.1750,-10.5000,
5.139192,-0.6467,0.8002,0.6072,1.0346,-1.1896,0.4523,-41.5500,14.1750,-10.5000,
5.152504,-0.6467,0.8002,0.6072,1.0346,-1.1896,0.4523,-41.5500,14.1750,-10.5000,
5.155670,-1.4487,0.5825,0.5129,1.0346,-1.1896,0.4523,-41.5500,14.1750,-10.5000,
5.161915,-1.4487,0.5825,0.5129,1.0346,-1.1896,0.4523,-41.2500,14.7000,-8.7000,
5.168362,-1.4487,0.5825,0.5129,1.0346,-1.1896,0.4523,-41.2500,14.7000,-8.7000,
5.169929,-2.1669,0.2846,0.7190,1.0346,-1.1896,0.4523,-41.2500,14.7000,-8.7000,
5.189101,-2.1669,0.2846,0.7190,1.0346,-1.1896,0.4523,-41.2500,14.7000,-8.7000,
5.192844,-2.2257,0.0162,0.6351,1.0346,-1.1896,0.4523,-41.2500,14.7000,-8.7000,
5.203550,-2.2257,0.0162,0.6351,0.9047,-1.4303,0.1255,-41.2500,14.7000,-8.7000,
5.208436,-2.2257,0.0162,0.6351,0.9047,-1.4303,0.1255,-41.2500,14.7000,-8.7000,
5.210175,-1.8992,-0.1164,0.3600,0.9047,-1.4303,0.1255,-41.2500,14.7000,-8.7000,
5.228230,-1.8992,-0.1164,0.3600,0.9047,-1.4303,0.1255,-41.2500,14.7000,-8.7000,
5.231202,-1.3975,-0.0471,0.1195,0.9047,-1.4303,0.1255,-41.2500,14.7000,-8.7000,
5.233154,-1.3975,-0.0471,0.1195,0.9047,-1.4303,0.1255,-42.9000,15.1500,-5.2500,
5.241756,-1.3975,-0.0471,0.1195,0.9047,-1.4303,0.1255,-42.9000,15.1500,-5.2500,
5.243621,-0.8954,-0.0514,0.3034,0.9047,-1.4303,0.1255,-42.9000,15.1500,-5.2500,
5.266339,-0.8954,-0.0514,0.3034,0.9047,-1.4303,0.1255,-42.9000,15.1500,-5.2500,
5.269312,-0.2178,-0.0481,0.2587,0.9047,-1.4303,0.1255,-42.9000,15.1500,-5.2500,
5.271135,-0.2178,-0.0481,0.2587,0.6519,-1.2409,0.0531,-42.9000,15.1500,-5.2500,
5.285769,-0.2178,-0.0481,0.2587,0.6519,-1.2409,0.0531,-42.9000,15.1500,-5.2500,
5.287790,0.1767,-0.2759,0.2203,0.6519,-1.2409,0.0531,-42.9000,15.1500,-5.2500,
5.300590,0.1767,-0.2759,0.2203,0.6519,-1.2409,0.0531,-43.0500,15.5250,-2.5500,
5.302609,0.1767,-0.2759,0.2203,0.6519,-1.2409,0.0531,-43.0500,15.5250,-2.5500,
5.303842,0.1678,-0.5030,0.2986,0.6519,-1.2409,0.0531,-43.0500,15.5250,-2.5500,
5.325267,0.1678,-0.5030,0.2986,0.6519,-1.2409,0.0531,-43.0500,15.5250,-2.5500,
5.329179,0.0572,-0.5867,-0.0280,0.6519,-1.2409,0.0531,-43.0500,15.5250,-2.5500,
5.339918,0.0572,-0.5867,-0.0280,0.5177,-0.9520,-0.2828,-43.0500,15.5250,-2.5500,
5.342597,0.0572,-0.5867,-0.0280,0.5177,-0.9520,-0.2828,-43.0500,15.5250,-2.5500,
5.344330,-0.1931,-0.6132,-0.1832,0.5177,-0.9520,-0.2828,-43.0500,15.5250,-2.5500,
5.364516,-0.1931,-0.6132,-0.1832,0.5177,-0.9520,-0.2828,-43.0500,15.5250,-2.5500,
5.367564,-0.7920,-0.9267,0.0596,0.5177,-0.9520,-0.2828,-43.0500,15.5250,-2.5500,
5.370126,-0.7920,-0.9267,0.0596,0.5177,-0.9520,-0.2828,-43.6500,15.0750,-0.3000,
5.383850,-0.7920,-0.9267,0.0596,0.5177,-0.9520,-0.2828,-43.6500,15.0750,-0.3000,
5.385641,-1.2898,-1.2572,0.1718,0.5177,-0.9520,-0.2828,-43.6500,15.0750,-0.3000,
5.403924,-1.2898,-1.2572,0.1718,0.5177,-0.9520,-0.2828,-43.6500,15.0750,-0.3000,
5.407230,-1.5057,-1.3830,-0.1000,0.5177,-0.9520,-0.2828,-43.6500,15.0750,-0.3000,
5.416973,-1.5057,-1.3830,-0.1000,0.6701,-0.8216,-0.4678,-43.6500,15.0750,-0.3000,
5.422642,-1.5057,-1.3830,-0.1000,0.6701,-0.8216,-0.4678,-43.6500,15.0750,-0.3000,
5.424165,-1.1565,-1.2050,0.1172,0.6701,-0.8216,-0.4678,-43.6500,15.0750,-0.3000,
5.441447,-1.1565,-1.2050,0.1172,0.6701,-0.8216,-0.4678,-43.9500,13.6500,2.1000,
5.442904,-1.1565,-1.2050,0.1172,0.6701,-0.8216,-0.4678,-43.9500,13.6500,2.1000,
5.443742,-0.1612,-0.7901,0.6448,0.6701,-0.8216,-0.4678,-43.9500,13.6500,2.1000,
5.467440,-0.1612,-0.7901,0.6448,0.6701,-0.8216,-0.4678,-43.9500,13.6500,2.1000,
5.469156,1.1094,0.3910,0.9481,0.6701,-0.8216,-0.4678,-43.9500,13.6500,2.1000,
5.481923,1.1094,0.3910,0.9481,0.7674,-0.6712,-0.3722,-43.9500,13.6500,2.1000,
5.487528,1.1094,0.3910,0.9481,0.7674,-0.6712,-0.3722,-43.9500,13.6500,2.1000,
5.488932,1.7825,0.9311,1.0672,0.7674,-0.6712,-0.3722,-43.9500,13.6500,2.1000,
5.508074,1.7825,0.9311,1.0672,0.7674,-0.6712,-0.3722,-43.9500,13.6500,2.1000,
5.512298,2.0490,1.0110,0.3434,0.7674,-0.6712,-0.3722,-43.9500,13.6500,2.1000,
5.515860,2.0490,1.0110,0.3434,0.7674,-0.6712,-0.3722,-44.4000,12.6000,3.1500,
5.534245,2.0490,1.0110,0.3434,0.7674,-0.6712,-0.3722,-44.4000,12.6000,3.1500,
5.536281,1.6668,0.8942,-0.2385,0.7674,-0.6712,-0.3722,-44.4000,12.6000,3.1500,
5.541398,1.6668,0.8942,-0.2385,0.7674,-0.6712,-0.3722,-44.4000,12.6000,3.1500,
5.543331,1.0406,0.0820,-0.4256,0.7674,-0.6712,-0.3722,-44.4000,12.6000,3.1500,
5.550613,1.0406,0.0820,-0.4256,0.4461,-0.1794,-0.6232,-44.4000,12.6000,3.1500,
5.561859,1.0406,0.0820,-0.4256,0.4461,-0.1794,-0.6232,-44.4000,12.6000,3.1500,
5.564093,0.7293,-1.0074,-0.0840,0.4461,-0.1794,-0.6232,-44.4000,12.6000,3.1500,
5.582244,0.7293,-1.0074,-0.0840,0.4461,-0.1794,-0.6232,-44.4000,12.6000,3.1500,
5.585016,0.8218,-1.8016,1.1353,0.4461,-0.1794,-0.6232,-44.4000,12.6000,3.1500,
5.586715,0.8218,-1.8016,1.1353,0.4461,-0.1794,-0.6232,-44.8500,11.6250,3.9000,
5.599519,0.8218,-1.8016,1.1353,0.4461,-0.1794,-0.6232,-44.8500,11.6250,3.9000,
5.601253,1.2582,-2.5986,1.3833,0.4461,-0.1794,-0.6232,-44.8500,11.6250,3.9000,
5.620643,1.2582,-2.5986,1.3833,-0.4827,0.1816,-0.6510,-44.8500,11.6250,3.9000,
5.622233,1.2582,-2.5986,1.3833,-0.4827,0.1816,-0.6510,-44.8500,11.6250,3.9000,
5.623353,1.4032,-2.3028,0.8642,-0.4827,0.1816,-0.6510,-44.8500,11.6250,3.9000,
5.642961,1.4032,-2.3028,0.8642,-0.4827,0.1816,-0.6510,-44.8500,11.6250,3.9000,
5.644492,0.8846,-1.2016,1.0884,-0.4827,0.1816,-0.6510,-44.8500,11.6250,3.9000,
5.650518,0.8846,-1.2016,1.0884,-0.4827,0.1816,-0.6510,-44.7750,9.2250,3.7500,
5.663299,0.8846,-1.2016,1.0884,-0.4827,0.1816,-0.6510,-44.7750,9.2250,3.7500,
5.665008,0.2224,-0.4501,1.0843,-0.4827,0.1816,-0.6510,-44.7750,9.2250,3.7500,
5.682028,0.2224,-0.4501,1.0843,-0.4827,0.1816,-0.6510,-44.7750,9.2250,3.7500,
5.683770,-0.1350,-0.6216,0.5193,-0.4827,0.1816,-0.6510,-44.7750,9.2250,3.7500,
5.687641,-0.1350,-0.6216,0.5193,-1.1690,-0.1576,-0.6029,-44.7750,9.2250,3.7500,
5.699784,-0.1350,-0.6216,0.5193,-1.1690,-0.1576,-0.6029,-44.7750,9.2250,3.7500,
5.703260,-0.4945,-1.1103,0.3579,-1.1690,-0.1576,-0.6029,-44.7750,9.2250,3.7500,
5.720949,-0.4945,-1.1103,0.3579,-1.1690,-0.1576,-0.6029,-45.0000,7.9500,4.3500,
5.732426,-0.4945,-1.1103,0.3579,-1.1690,-0.1576,-0.6029,-45.0000,7.9500,4.3500,
5.734256,0.1652,-1.5203,-0.3384,-1.1690,-0.1576,-0.6029,-45.0000,7.9500,4.3500,
5.741314,0.1652,-1.5203,-0.3384,-1.1690,-0.1576,-0.6029,-45.0000,7.9500,4.3500,
5.742715,0.2722,-1.7268,-1.4315,-1.1690,-0.1576,-0.6029,-45.0000,7.9500,4.3500,
5.762100,0.2722,-1.7268,-1.4315,-1.2043,-0.3551,-0.1197,-45.0000,7.9500,4.3500,
5.763879,0.2722,-1.7268,-1.4315,-1.2043,-0.3551,-0.1197,-45.0000,7.9500,4.3500,
5.764882,0.1913,-2.0857,-1.9145,-1.2043,-0.3551,-0.1197,-45.0000,7.9500,4.3500,
5.784980,0.1913,-2.0857,-1.9145,-1.2043,-0.3551,-0.1197,-45.0000,7.9500,4.3500,
5.788235,0.3791,-2.0806,-1.0553,-1.2043,-0.3551,-0.1197,-45.0000,7.9500,4.3500,
5.790955,0.3791,-2.0806,-1.0553,-1.2043,-0.3551,-0.1197,-45.1500,6.3000,7.5000,
5.804541,0.3791,-2.0806,-1.0553,-1.2043,-0.3551,-0.1197,-45.1500,6.3000,7.5000,
5.807151,0.5950,-1.3385,0.2744,-1.2043,-0.3551,-0.1197,-45.1500,6.3000,7.5000,
5.821980,0.5950,-1.3385,0.2744,-1.2043,-0.3551,-0.1197,-45.1500,6.3000,7.5000,
5.825632,0.5477,-0.2532,0.5185,-1.2043,-0.3551,-0.1197,-45.1500,6.3000,7.5000,
5.830045,0.5477,-0.2532,0.5185,-1.0458,-0.3242,0.0872,-45.1500,6.3000,7.5000,
5.838638,0.5477,-0.2532,0.5185,-1.0458,-0.3242,0.0872,-45.1500,6.3000,7.5000,
5.840431,0.2877,0.6275,-0.0171,-1.0458,-0.3242,0.0872,-45.1500,6.3000,7.5000,
5.859256,0.2877,0.6275,-0.0171,-1.0458,-0.3242,0.0872,-45.1500,6.3000,7.5000,
5.860422,0.2428,0.6693,0.1477,-1.0458,-0.3242,0.0872,-45.1500,6.3000,7.5000,
5.861341,0.2428,0.6693,0.1477,-1.0458,-0.3242,0.0872,-44.8500,5.8500,8.8500,
5.883876,0.2428,0.6693,0.1477,-1.0458,-0.3242,0.0872,-44.8500,5.8500,8.8500,
5.885660,0.5197,0.2291,0.3832,-1.0458,-0.3242,0.0872,-44.8500,5.8500,8.8500,
5.899084,0.5197,0.2291,0.3832,-0.9601,0.1281,0.1275,-44.8500,5.8500,8.8500,
5.902139,0.5197,0.2291,0.3832,-0.9601,0.1281,0.1275,-44.8500,5.8500,8.8500,
5.903268,0.3472,-0.1941,0.4495,-0.9601,0.1281,0.1275,-44.8500,5.8500,8.8500,
5.922094,0.3472,-0.1941,0.4495,-0.9601,0.1281,0.1275,-44.8500,5.8500,8.8500,
5.922955,0.2084,-0.9903,0.7899,-0.9601,0.1281,0.1275,-44.8500,5.8500,8.8500,
5.923744,0.2084,-0.9903,0.7899,-0.9601,0.1281,0.1275,-44.5500,5.6250,9.7500,
5.941676,0.2084,-0.9903,0.7899,-0.9601,0.1281,0.1275,-44.5500,5.6250,9.7500,
5.943129,-0.0061,-1.7178,0.9732,-0.9601,0.1281,0.1275,-44.5500,5.6250,9.7500,
5.966388,-0.0061,-1.7178,0.9732,-0.9601,0.1281,0.1275,-44.5500,5.6250,9.7500,
5.970355,-0.1642,-2.0838,0.3492,-0.9601,0.1281,0.1275,-44.5500,5.6250,9.7500,
5.973410,-0.1642,-2.0838,0.3492,-0.8579,0.2775,0.1687,-44.5500,5.6250,9.7500,
5.985837,-0.1642,-2.0838,0.3492,-0.8579,0.2775,0.1687,-44.5500,5.6250,9.7500,
5.988654,-0.0259,-1.8023,-0.4252,-0.8579,0.2775,0.1687,-44.5500,5.6250,9.7500,
5.998902,-0.0259,-1.8023,-0.4252,-0.8579,0.2775,0.1687,-44.2500,5.4000,9.6750,
6.005344,-0.0259,-1.8023,-0.4252,-0.8579,0.2775,0.1687,-44.2500,5.4000,9.6750,
6.007363,0.1430,-1.6414,-0.7518,-0.8579,0.2775,0.1687,-44.2500,5.4000,9.6750,
6.020386,0.1430,-1.6414,-0.7518,-0.8579,0.2775,0.1687,-44.2500,5.4000,9.6750,
6.022467,0.2321,-1.6556,-1.0313,-0.8579,0.2775,0.1687,-44.2500,5.4000,9.6750,
6.039505,0.2321,-1.6556,-1.0313,-0.5867,0.4193,0.2987,-44.2500,5.4000,9.6750,
6.041830,0.2321,-1.6556,-1.0313,-0.5867,0.4193,0.2987,-44.2500,5.4000,9.6750,
6.042988,0.5273,-2.0304,-0.7937,-0.5867,0.4193,0.2987,-44.2500,5.4000,9.6750,
6.063637,0.5273,-2.0304,-0.7937,-0.5867,0.4193,0.2987,-44.2500,5.4000,9.6750,
6.066340,0.6986,-2.3479,-0.3947,-0.5867,0.4193,0.2987,-44.2500,5.4000,9.6750,
6.068735,0.6986,-2.3479,-0.3947,-0.5867,0.4193,0.2987,-45.3000,5.6250,8.7000,
6.083905,0.6986,-2.3479,-0.3947,-0.5867,0.4193,0.2987,-45.3000,5.6250,8.7000,
6.087460,0.9156,-2.1834,-0.2113,-0.5867,0.4193,0.2987,-45.3000,5.6250,8.7000,
6.103228,0.9156,-2.1834,-0.2113,-0.5867,0.4193,0.2987,-45.3000,5.6250,8.7000,
6.105447,0.9600,-2.0639,-0.6214,-0.5867,0.4193,0.2987,-45.3000,5.6250,8.7000,
6.107670,0.9600,-2.0639,-0.6214,-0.1749,0.4560,0.2358,-45.3000,5.6250,8.7000,
6.122185,0.9600,-2.0639,-0.6214,-0.1749,0.4560,0.2358,-45.3000,5.6250,8.7000,
6.124858,0.8417,-1.7891,-0.8508,-0.1749,0.4560,0.2358,-45.3000,5.6250,8.7000,
6.132938,0.8417,-1.7891,-0.8508,-0.1749,0.4560,0.2358,-44.7000,6.0000,7.9500,
6.142043,0.8417,-1.7891,-0.8508,-0.1749,0.4560,0.2358,-44.7000,6.0000,7.9500,
6.143981,0.8956,-1.4045,-0.6241,-0.1749,0.4560,0.2358,-44.7000,6.0000,7.9500,
6.161586,0.8956,-1.4045,-0.6241,-0.1749,0.4560,0.2358,-44.7000,6.0000,7.9500,
6.165051,0.5658,-1.1514,-0.5600,-0.1749,0.4560,0.2358,-44.7000,6.0000,7.9500,
6.183327,0.5658,-1.1514,-0.5600,0.2914,0.5082,0.0744,-44.7000,6.0000,7.9500,
6.185807,0.5658,-1.1514,-0.5600,0.2914,0.5082,0.0744,-44.7000,6.0000,7.9500,
6.187189,-0.0929,-0.6744,-0.2030,0.2914,0.5082,0.0744,-44.7000,6.0000,7.9500,
6.198693,-0.0929,-0.6744,-0.2030,0.2914,0.5082,0.0744,-44.7000,6.0000,7.9500,
6.200784,-0.3455,-0.3021,0.3776,0.2914,0.5082,0.0744,-44.7000,6.0000,7.9500,
6.205840,-0.3455,-0.3021,0.3776,0.2914,0.5082,0.0744,-44.4750,6.0750,6.3750,
6.226046,-0.3455,-0.3021,0.3776,0.2914,0.5082,0.0744,-44.4750,6.0750,6.3750,
6.227895,-0.6951,-0.0979,-0.0895,0.2914,0.5082,0.0744,-44.4750,6.0750,6.3750,
6.241924,-0.6951,-0.0979,-0.0895,0.2914,0.5082,0.0744,-44.4750,6.0750,6.3750,
6.243816,-0.6403,0.3242,-0.7369,0.2914,0.5082,0.0744,-44.4750,6.0750,6.3750,
6.249161,-0.6403,0.3242,-0.7369,0.7831,0.3233,0.0110,-44.4750,6.0750,6.3750,
6.265078,-0.6403,0.3242,-0.7369,0.7831,0.3233,0.0110,-44.4750,6.0750,6.3750,
6.267036,0.2342,0.0941,-0.5712,0.7831,0.3233,0.0110,-44.4750,6.0750,6.3750,
6.276560,0.2342,0.0941,-0.5712,0.7831,0.3233,0.0110,-45.0000,5.9250,4.9500,
6.284868,0.2342,0.0941,-0.5712,0.7831,0.3233,0.0110,-45.0000,5.9250,4.9500,
6.286528,0.8677,0.0884,0.3275,0.7831,0.3233,0.0110,-45.0000,5.9250,4.9500,
6.304604,0.8677,0.0884,0.3275,0.7831,0.3233,0.0110,-45.0000,5.9250,4.9500,
6.306137,0.7713,0.7947,0.4000,0.7831,0.3233,0.0110,-45.0000,5.9250,4.9500,
6.318972,0.7713,0.7947,0.4000,0.8521,0.3329,0.1402,-45.0000,5.9250,4.9500,
6.320956,0.7713,0.7947,0.4000,0.8521,0.3329,0.1402,-45.0000,5.9250,4.9500,
6.321996,0.4515,1.8349,-0.4978,0.8521,0.3329,0.1402,-45.0000,5.9250,4.9500,
6.338367,0.4515,1.8349,-0.4978,0.8521,0.3329,0.1402,-45.0000,5.9250,4.9500,
6.342243,-0.0275,2.7002,-1.4691,0.8521,0.3329,0.1402,-45.0000,5.9250,4.9500,
6.345056,-0.0275,2.7002,-1.4691,0.8521,0.3329,0.1402,-44.7750,6.3750,3.0750,
6.361750,-0.0275,2.7002,-1.4691,0.8521,0.3329,0.1402,-44.7750,6.3750,3.0750,
6.364204,-0.3720,2.5349,-0.5077,0.8521,0.3329,0.1402,-44.7750,6.3750,3.0750,
6.383759,-0.3720,2.5349,-0.5077,0.8521,0.3329,0.1402,-44.7750,6.3750,3.0750,
6.385880,-0.5711,2.1673,1.1357,0.8521,0.3329,0.1402,-44.7750,6.3750,3.0750,
6.387648,-0.5711,2.1673,1.1357,0.7463,0.3977,-0.0860,-44.7750,6.3750,3.0750,
6.400598,-0.5711,2.1673,1.1357,0.7463,0.3977,-0.0860,-44.7750,6.3750,3.0750,
6.402289,-0.5492,2.2209,1.0579,0.7463,0.3977,-0.0860,-44.7750,6.3750,3.0750,
6.415499,-0.5492,2.2209,1.0579,0.7463,0.3977,-0.0860,-44.5500,6.4500,1.3500,
6.420806,-0.5492,2.2209,1.0579,0.7463,0.3977,-0.0860,-44.5500,6.4500,1.3500,
6.422434,-0.1375,2.6222,-0.4003,0.7463,0.3977,-0.0860,-44.5500,6.4500,1.3500,
6.440470,-0.1375,2.6222,-0.4003,0.7463,0.3977,-0.0860,-44.5500,6.4500,1.3500,
6.443073,0.6308,2.8177,-0.5165,0.7463,0.3977,-0.0860,-44.5500,6.4500,1.3500,
6.455339,0.6308,2.8177,-0.5165,0.6950,0.3147,-0.1202,-44.5500,6.4500,1.3500,
6.459583,0.6308,2.8177,-0.5165,0.6950,0.3147,-0.1202,-44.5500,6.4500,1.3500,
6.460970,1.0351,2.8187,0.2711,0.6950,0.3147,-0.1202,-44.5500,6.4500,1.3500,
6.479387,1.0351,2.8187,0.2711,0.6950,0.3147,-0.1202,-44.5500,6.4500,1.3500,
6.481610,0.7788,3.1159,0.4548,0.6950,0.3147,-0.1202,-44.5500,6.4500,1.3500,
6.483049,0.7788,3.1159,0.4548,0.6950,0.3147,-0.1202,-44.4000,5.7750,0.0750,
6.499693,0.7788,3.1159,0.4548,0.6950,0.3147,-0.1202,-44.4000,5.7750,0.0750,
6.501561,-0.0526,3.5529,-0.1377,0.6950,0.3147,-0.1202,-44.4000,5.7750,0.0750,
6.518925,-0.0526,3.5529,-0.1377,0.6950,0.3147,-0.1202,-44.4000,5.7750,0.0750,
6.521476,-0.0730,3.6741,-0.6584,0.6950,0.3147,-0.1202,-44.4000,5.7750,0.0750,
6.524428,-0.0730,3.6741,-0.6584,0.5073,0.2547,-0.1535,-44.4000,5.7750,0.0750,
6.538069,-0.0730,3.6741,-0.6584,0.5073,0.2547,-0.1535,-44.4000,5.7750,0.0750,
6.540976,0.2141,3.5979,-0.3016,0.5073,0.2547,-0.1535,-44.4000,5.7750,0.0750,
6.560852,0.2141,3.5979,-0.3016,0.5073,0.2547,-0.1535,-44.4750,5.1750,-0.4500,
6.563753,0.2141,3.5979,-0.3016,0.5073,0.2547,-0.1535,-44.4750,5.1750,-0.4500,
6.565217,0.6533,3.1000,0.4091,0.5073,0.2547,-0.1535,-44.4750,5.1750,-0.4500,
6.583736,0.6533,3.1000,0.4091,0.5073,0.2547,-0.1535,-44.4750,5.1750,-0.4500,
6.585238,0.7966,2.5177,0.5347,0.5073,0.2547,-0.1535,-44.4750,5.1750,-0.4500,
6.597468,0.7966,2.5177,0.5347,0.4215,0.2457,-0.1742,-44.4750,5.1750,-0.4500,
6.601285,0.7966,2.5177,0.5347,0.4215,0.2457,-0.1742,-44.4750,5.1750,-0.4500,
6.602615,1.0855,2.5089,-0.1931,0.4215,0.2457,-0.1742,-44.4750,5.1750,-0.4500,
6.621279,1.0855,2.5089,-0.1931,0.4215,0.2457,-0.1742,-44.4750,5.1750,-0.4500,
6.623872,1.3999,1.5491,-0.0117,0.4215,0.2457,-0.1742,-44.4750,5.1750,-0.4500,
6.625950,1.3999,1.5491,-0.0117,0.4215,0.2457,-0.1742,-44.1750,5.0250,-1.4250,
6.641010,1.3999,1.5491,-0.0117,0.4215,0.2457,-0.1742,-44.1750,5.0250,-1.4250,
6.643737,1.2268,0.1941,1.1128,0.4215,0.2457,-0.1742,-44.1750,5.0250,-1.4250,
6.660163,1.2268,0.1941,1.1128,0.4215,0.2457,-0.1742,-44.1750,5.0250,-1.4250,
6.662497,0.9825,-0.5720,0.9880,0.4215,0.2457,-0.1742,-44.1750,5.0250,-1.4250,
6.664652,0.9825,-0.5720,0.9880,0.3042,0.1881,-0.2378,-44.1750,5.0250,-1.4250,
6.683304,0.9825,-0.5720,0.9880,0.3042,0.1881,-0.2378,-44.1750,5.0250,-1.4250,
6.685514,0.6304,-0.5117,-0.1109,0.3042,0.1881,-0.2378,-44.1750,5.0250,-1.4250,
6.690157,0.6304,-0.5117,-0.1109,0.3042,0.1881,-0.2378,-44.2500,4.4250,-1.6500,
6.699463,0.6304,-0.5117,-0.1109,0.3042,0.1881,-0.2378,-44.2500,4.4250,-1.6500,
6.701456,0.3418,-0.1902,-0.7189,0.3042,0.1881,-0.2378,-44.2500,4.4250,-1.6500,
6.719302,0.3418,-0.1902,-0.7189,0.3042,0.1881,-0.2378,-44.2500,4.4250,-1.6500,
6.721722,-0.5397,-0.5175,-0.7771,0.3042,0.1881,-0.2378,-44.2500,4.4250,-1.6500,
6.733452,-0.5397,-0.5175,-0.7771,0.3639,0.1923,-0.0536,-44.2500,4.4250,-1.6500,
6.736635,-0.5397,-0.5175,-0.7771,0.3639,0.1923,-0.0536,-44.2500,4.4250,-1.6500,
6.738233,-1.2585,-0.7189,-0.2307,0.3639,0.1923,-0.0536,-44.2500,4.4250,-1.6500,
6.753275,-1.2585,-0.7189,-0.2307,0.3639,0.1923,-0.0536,-44.2500,4.4250,-1.6500,
6.755824,-0.9982,-0.2740,-0.2411,0.3639,0.1923,-0.0536,-44.2500,4.4250,-1.6500,
6.764601,-0.9982,-0.2740,-0.2411,0.3639,0.1923,-0.0536,-44.7000,3.3000,-2.4000,
6.778576,-0.9982,-0.2740,-0.2411,0.3639,0.1923,-0.0536,-44.7000,3.3000,-2.4000,
6.781367,-0.0500,-0.5518,-1.0110,0.3639,0.1923,-0.0536,-44.7000,3.3000,-2.4000,
6.803018,-0.0500,-0.5518,-1.0110,0.3639,0.1923,-0.0536,-44.7000,3.3000,-2.4000,
6.804929,0.5216,-0.7686,-1.0735,0.3639,0.1923,-0.0536,-44.7000,3.3000,-2.4000,
6.807437,0.5216,-0.7686,-1.0735,0.3842,-0.2028,0.3564,-44.7000,3.3000,-2.4000,
6.822208,0.5216,-0.7686,-1.0735,0.3842,-0.2028,0.3564,-44.7000,3.3000,-2.4000,
6.824101,0.4090,0.1522,-0.0752,0.3842,-0.2028,0.3564,-44.7000,3.3000,-2.4000,
6.833074,0.4090,0.1522,-0.0752,0.3842,-0.2028,0.3564,-44.7750,3.5250,-2.4000,
6.842891,0.4090,0.1522,-0.0752,0.3842,-0.2028,0.3564,-44.7750,3.5250,-2.4000,
6.844357,-0.0761,0.9674,0.1743,0.3842,-0.2028,0.3564,-44.7750,3.5250,-2.4000,
6.863670,-0.0761,0.9674,0.1743,0.3842,-0.2028,0.3564,-44.7750,3.5250,-2.4000,
6.866985,-0.3620,1.0616,0.1149,0.3842,-0.2028,0.3564,-44.7750,3.5250,-2.4000,
6.875494,-0.3620,1.0616,0.1149,0.4604,-0.0357,0.5301,-44.7750,3.5250,-2.4000,
6.883133,-0.3620,1.0616,0.1149,0.4604,-0.0357,0.5301,-44.7750,3.5250,-2.4000,
6.885200,-0.6381,0.5813,0.0246,0.4604,-0.0357,0.5301,-44.7750,3.5250,-2.4000,
6.900511,-0.6381,0.5813,0.0246,0.4604,-0.0357,0.5301,-44.7750,3.5250,-2.4000,
6.903288,-0.8784,-0.0488,0.3391,0.4604,-0.0357,0.5301,-44.7750,3.5250,-2.4000,
6.905342,-0.8784,-0.0488,0.3391,0.4604,-0.0357,0.5301,-44.4750,5.7750,-2.8500,
6.920565,-0.8784,-0.0488,0.3391,0.4604,-0.0357,0.5301,-44.4750,5.7750,-2.8500,
6.923541,-0.9283,-0.4985,0.3379,0.4604,-0.0357,0.5301,-44.4750,5.7750,-2.8500,
6.939486,-0.9283,-0.4985,0.3379,0.4604,-0.0357,0.5301,-44.4750,5.7750,-2.8500,
6.942617,-0.8677,-0.5990,0.3713,0.4604,-0.0357,0.5301,-44.4750,5.7750,-2.8500,
6.944551,-0.8677,-0.5990,0.3713,0.4311,0.0444,0.4503,-44.4750,5.7750,-2.8500,
6.961224,-0.8677,-0.5990,0.3713,0.4311,0.0444,0.4503,-44.4750,5.7750,-2.8500,
6.964807,-0.7446,-0.5215,0.5434,0.4311,0.0444,0.4503,-44.4750,5.7750,-2.8500,
6.970281,-0.7446,-0.5215,0.5434,0.4311,0.0444,0.4503,-44.7750,6.9750,-2.5500,
6.980863,-0.7446,-0.5215,0.5434,0.4311,0.0444,0.4503,-44.7750,6.9750,-2.5500,
6.984308,-0.7057,-0.3476,0.3039,0.4311,0.0444,0.4503,-44.7750,6.9750,-2.5500,
6.997673,-0.7057,-0.3476,0.3039,0.4311,0.0444,0.4503,-44.7750,6.9750,-2.5500,
7.000135,-0.7671,-0.3571,0.2995,0.4311,0.0444,0.4503,-44.7750,6.9750,-2.5500,
7.012375,-0.7671,-0.3571,0.2995,0.4001,0.0087,0.3552,-44.7750,6.9750,-2.5500,
7.016867,-0.7671,-0.3571,0.2995,0.4001,0.0087,0.3552,-44.7750,6.9750,-2.5500,
7.018133,-1.2253,-0.4325,0.8848,0.4001,0.0087,0.3552,-44.7750,6.9750,-2.5500,
7.037588,-1.2253,-0.4325,0.8848,0.4001,0.0087,0.3552,-44.7750,6.9750,-2.5500,
7.040909,-1.4080,-0.4138,1.1702,0.4001,0.0087,0.3552,-44.7750,6.9750,-2.5500,
7.043061,-1.4080,-0.4138,1.1702,0.4001,0.0087,0.3552,-44.7000,7.9500,-2.4000,
7.061776,-1.4080,-0.4138,1.1702,0.4001,0.0087,0.3552,-44.7000,7.9500,-2.4000,
7.065256,-1.4889,-0.2712,0.7368,0.4001,0.0087,0.3552,-44.7000,7.9500,-2.4000,
7.083358,-1.4889,-0.2712,0.7368,0.4001,0.0087,0.3552,-44.7000,7.9500,-2.4000,
7.088577,-1.2529,-0.0586,0.0325,0.4001,0.0087,0.3552,-44.7000,7.9500,-2.4000,
7.091893,-1.2529,-0.0586,0.0325,0.4569,-0.0341,0.4539,-44.7000,7.9500,-2.4000,
7.101864,-1.2529,-0.0586,0.0325,0.4569,-0.0341,0.4539,-44.7000,7.9500,-2.4000,
7.104963,-0.6038,0.1920,-0.1630,0.4569,-0.0341,0.4539,-44.7000,7.9500,-2.4000,
7.116298,-0.6038,0.1920,-0.1630,0.4569,-0.0341,0.4539,-43.6500,9.1500,-2.3250,
7.119940,-0.6038,0.1920,-0.1630,0.4569,-0.0341,0.4539,-43.6500,9.1500,-2.3250,
7.121538,-0.1059,0.2077,0.2155,0.4569,-0.0341,0.4539,-43.6500,9.1500,-2.3250,
7.139835,-0.1059,0.2077,0.2155,0.4569,-0.0341,0.4539,-43.6500,9.1500,-2.3250,
7.142120,-0.1038,0.1427,0.1277,0.4569,-0.0341,0.4539,-43.6500,9.1500,-2.3250,
7.154146,-0.1038,0.1427,0.1277,0.3816,-0.0179,0.4662,-43.6500,9.1500,-2.3250,
7.159197,-0.1038,0.1427,0.1277,0.3816,-0.0179,0.4662,-43.6500,9.1500,-2.3250,
7.160508,0.2552,0.1433,-0.2017,0.3816,-0.0179,0.4662,-43.6500,9.1500,-2.3250,
7.179492,0.2552,0.1433,-0.2017,0.3816,-0.0179,0.4662,-43.6500,9.1500,-2.3250,
7.182128,0.1365,-0.0076,-0.4020,0.3816,-0.0179,0.4662,-43.6500,9.1500,-2.3250,
7.184457,0.1365,-0.0076,-0.4020,0.3816,-0.0179,0.4662,-43.8000,11.0250,-2.3250,
7.200497,0.1365,-0.0076,-0.4020,0.3816,-0.0179,0.4662,-43.8000,11.0250,-2.3250,
7.202625,0.0780,-0.2664,-0.3958,0.3816,-0.0179,0.4662,-43.8000,11.0250,-2.3250,
7.218353,0.0780,-0.2664,-0.3958,0.3816,-0.0179,0.4662,-43.8000,11.0250,-2.3250,
7.221205,0.2544,-0.0243,-0.1985,0.3816,-0.0179,0.4662,-43.8000,11.0250,-2.3250,
7.223407,0.2544,-0.0243,-0.1985,0.3867,0.1381,0.2735,-43.8000,11.0250,-2.3250,
7.237351,0.2544,-0.0243,-0.1985,0.3867,0.1381,0.2735,-43.8000,11.0250,-2.3250,
7.239515,0.7212,0.3204,0.1236,0.3867,0.1381,0.2735,-43.8000,11.0250,-2.3250,
7.250513,0.7212,0.3204,0.1236,0.3867,0.1381,0.2735,-43.6500,11.6250,-3.4500,
7.257092,0.7212,0.3204,0.1236,0.3867,0.1381,0.2735,-43.6500,11.6250,-3.4500,
7.258001,0.6661,0.7331,-0.0499,0.3867,0.1381,0.2735,-43.6500,11.6250,-3.4500,
7.275113,0.6661,0.7331,-0.0499,0.3867,0.1381,0.2735,-43.6500,11.6250,-3.4500,
7.276867,0.2357,1.1099,-0.4086,0.3867,0.1381,0.2735,-43.6500,11.6250,-3.4500,
7.292092,0.2357,1.1099,-0.4086,0.3607,0.1874,0.1009,-43.6500,11.6250,-3.4500,
7.294913,0.2357,1.1099,-0.4086,0.3607,0.1874,0.1009,-43.6500,11.6250,-3.4500,
7.296532,-0.0791,1.0338,-0.7284,0.3607,0.1874,0.1009,-43.6500,11.6250,-3.4500,
7.321456,-0.0791,1.0338,-0.7284,0.3607,0.1874,0.1009,-43.6500,11.6250,-3.4500,
7.324669,-0.1001,0.7588,-0.7537,0.3607,0.1874,0.1009,-43.6500,11.6250,-3.4500,
7.327172,-0.1001,0.7588,-0.7537,0.3607,0.1874,0.1009,-42.9000,11.6250,-4.1250,
7.340823,-0.1001,0.7588,-0.7537,0.3607,0.1874,0.1009,-42.9000,11.6250,-4.1250,
7.343704,0.0617,0.5212,-0.5427,0.3607,0.1874,0.1009,-42.9000,11.6250,-4.1250,
7.359469,0.0617,0.5212,-0.5427,0.3607,0.1874,0.1009,-42.9000,11.6250,-4.1250,
7.361538,0.1739,0.2598,-0.4271,0.3607,0.1874,0.1009,-42.9000,11.6250,-4.1250,
7.363997,0.1739,0.2598,-0.4271,0.3297,0.2454,0.0446,-42.9000,11.6250,-4.1250,
7.384580,0.1739,0.2598,-0.4271,0.3297,0.2454,0.0446,-42.9000,11.6250,-4.1250,
7.386708,0.4940,0.5392,-0.1939,0.3297,0.2454,0.0446,-42.9000,11.6250,-4.1250,
7.390055,0.4940,0.5392,-0.1939,0.3297,0.2454,0.0446,-42.3750,12.3000,-5.0250,
7.398476,0.4940,0.5392,-0.1939,0.3297,0.2454,0.0446,-42.3750,12.3000,-5.0250,
7.401062,-0.2721,0.8908,-0.5400,0.3297,0.2454,0.0446,-42.3750,12.3000,-5.0250,
7.415660,-0.2721,0.8908,-0.5400,0.3297,0.2454,0.0446,-42.3750,12.3000,-5.0250,
7.417449,-0.3717,1.2720,-0.8472,0.3297,0.2454,0.0446,-42.3750,12.3000,-5.0250,
7.432990,-0.3717,1.2720,-0.8472,0.3401,0.1981,-0.0032,-42.3750,12.3000,-5.0250,
7.435781,-0.3717,1.2720,-0.8472,0.3401,0.1981,-0.0032,-42.3750,12.3000,-5.0250,
7.437168,-0.3173,1.0814,-0.6091,0.3401,0.1981,-0.0032,-42.3750,12.3000,-5.0250,
7.457465,-0.3173,1.0814,-0.6091,0.3401,0.1981,-0.0032,-42.3750,12.3000,-5.0250,
7.460187,-0.0680,0.3051,-0.1298,0.3401,0.1981,-0.0032,-42.3750,12.3000,-5.0250,
7.461795,-0.0680,0.3051,-0.1298,0.3401,0.1981,-0.0032,-42.9750,11.1750,-6.0000,
7.472269,-0.0680,0.3051,-0.1298,0.3401,0.1981,-0.0032,-42.9750,11.1750,-6.0000,
7.474838,0.2823,0.0842,0.0960,0.3401,0.1981,-0.0032,-42.9750,11.1750,-6.0000,
7.492745,0.2823,0.0842,0.0960,0.3401,0.1981,-0.0032,-42.9750,11.1750,-6.0000,
7.493789,0.4009,0.6514,-0.3162,0.3401,0.1981,-0.0032,-42.9750,11.1750,-6.0000,
7.501646,0.4009,0.6514,-0.3162,0.1968,0.0944,0.0492,-42.9750,11.1750,-6.0000,
7.516661,0.4009,0.6514,-0.3162,0.1968,0.0944,0.0492,-42.9750,11.1750,-6.0000,
7.518004,-0.0257,0.9917,-0.3942,0.1968,0.0944,0.0492,-42.9750,11.1750,-6.0000,
7.532144,-0.0257,0.9917,-0.3942,0.1968,0.0944,0.0492,-42.7500,11.6250,-7.6500,
7.533854,-0.0257,0.9917,-0.3942,0.1968,0.0944,0.0492,-42.7500,11.6250,-7.6500,
7.535309,-0.1167,0.7905,-0.4953,0.1968,0.0944,0.0492,-42.7500,11.6250,-7.6500,
7.556292,-0.1167,0.7905,-0.4953,0.1968,0.0944,0.0492,-42.7500,11.6250,-7.6500,
7.559029,-0.2971,0.0782,-0.7600,0.1968,0.0944,0.0492,-42.7500,11.6250,-7.6500,
7.575089,-0.2971,0.0782,-0.7600,0.1846,0.0884,0.0298,-42.7500,11.6250,-7.6500,
7.580412,-0.2971,0.0782,-0.7600,0.1846,0.0884,0.0298,-42.7500,11.6250,-7.6500,
7.582559,0.0545,-0.6972,-0.6224,0.1846,0.0884,0.0298,-42.7500,11.6250,-7.6500,
7.599785,0.0545,-0.6972,-0.6224,0.1846,0.0884,0.0298,-42.7500,11.6250,-7.6500,
7.602089,0.3095,-0.6912,-0.2280,0.1846,0.0884,0.0298,-42.7500,11.6250,-7.6500,
7.604572,0.3095,-0.6912,-0.2280,0.1846,0.0884,0.0298,-42.1500,12.0750,-7.1250,
7.619073,0.3095,-0.6912,-0.2280,0.1846,0.0884,0.0298,-42.1500,12.0750,-7.1250,
7.622135,0.1834,-0.4854,-0.0339,0.1846,0.0884,0.0298,-42.1500,12.0750,-7.1250,
7.638486,0.1834,-0.4854,-0.0339,0.1846,0.0884,0.0298,-42.1500,12.0750,-7.1250,
7.641512,0.0054,-0.1404,-0.1188,0.1846,0.0884,0.0298,-42.1500,12.0750,-7.1250,
7.644152,0.0054,-0.1404,-0.1188,0.1003,0.0612,0.0131,-42.1500,12.0750,-7.1250,
7.658114,0.0054,-0.1404,-0.1188,0.1003,0.0612,0.0131,-42.1500,12.0750,-7.1250,
7.660344,-0.0442,0.1496,-0.2225,0.1003,0.0612,0.0131,-42.1500,12.0750,-7.1250,
7.670557,-0.0442,0.1496,-0.2225,0.1003,0.0612,0.0131,-42.1500,12.0000,-7.4250,
7.678457,-0.0442,0.1496,-0.2225,0.1003,0.0612,0.0131,-42.1500,12.0000,-7.4250,
7.680756,0.0661,0.2136,-0.3075,0.1003,0.0612,0.0131,-42.1500,12.0000,-7.4250,
7.691976,0.0661,0.2136,-0.3075,0.1003,0.0612,0.0131,-42.1500,12.0000,-7.4250,
7.693537,0.0836,0.2397,-0.1277,0.1003,0.0612,0.0131,-42.1500,12.0000,-7.4250,
7.711434,0.0836,0.2397,-0.1277,0.1058,-0.0020,-0.0582,-42.1500,12.0000,-7.4250,
7.716415,0.0836,0.2397,-0.1277,0.1058,-0.0020,-0.0582,-42.1500,12.0000,-7.4250,
7.717994,0.1140,0.1642,-0.3092,0.1058,-0.0020,-0.0582,-42.1500,12.0000,-7.4250,
7.736751,0.1140,0.1642,-0.3092,0.1058,-0.0020,-0.0582,-42.1500,12.0000,-7.4250,
7.738825,-0.0880,-0.0337,-0.5748,0.1058,-0.0020,-0.0582,-42.1500,12.0000,-7.4250,
7.741320,-0.0880,-0.0337,-0.5748,0.1058,-0.0020,-0.0582,-42.9000,11.4750,-7.9500,
7.755667,-0.0880,-0.0337,-0.5748,0.1058,-0.0020,-0.0582,-42.9000,11.4750,-7.9500,
7.758547,-0.0690,-0.2008,-0.4763,0.1058,-0.0020,-0.0582,-42.9000,11.4750,-7.9500,
7.775489,-0.0690,-0.2008,-0.4763,0.1058,-0.0020,-0.0582,-42.9000,11.4750,-7.9500,
7.779896,-0.0285,-0.2060,-0.2500,0.1058,-0.0020,-0.0582,-42.9000,11.4750,-7.9500,
7.782006,-0.0285,-0.2060,-0.2500,0.1180,-0.0545,-0.0316,-42.9000,11.4750,-7.9500,
7.791585,-0.0285,-0.2060,-0.2500,0.1180,-0.0545,-0.0316,-42.9000,11.4750,-7.9500,
7.793973,-0.0721,0.0190,-0.2228,0.1180,-0.0545,-0.0316,-42.9000,11.4750,-7.9500,
7.810071,-0.0721,0.0190,-0.2228,0.1180,-0.0545,-0.0316,-42.3750,11.4000,-7.6500,
7.813002,-0.0721,0.0190,-0.2228,0.1180,-0.0545,-0.0316,-42.3750,11.4000,-7.6500,
7.814370,-0.1713,0.2375,-0.4009,0.1180,-0.0545,-0.0316,-42.3750,11.4000,-7.6500,
7.834458,-0.1713,0.2375,-0.4009,0.1180,-0.0545,-0.0316,-42.3750,11.4000,-7.6500,
7.836453,-0.1499,0.3878,-0.4511,0.1180,-0.0545,-0.0316,-42.3750,11.4000,-7.6500,
7.848356,-0.1499,0.3878,-0.4511,0.0828,-0.1009,-0.0011,-42.3750,11.4000,-7.6500,
7.854266,-0.1499,0.3878,-0.4511,0.0828,-0.1009,-0.0011,-42.3750,11.4000,-7.6500,
7.856339,-0.0067,0.2838,0.0847,0.0828,-0.1009,-0.0011,-42.3750,11.4000,-7.6500,
7.872600,-0.0067,0.2838,0.0847,0.0828,-0.1009,-0.0011,-42.3750,11.4000,-7.6500,
7.874708,0.1773,-0.2435,0.5639,0.0828,-0.1009,-0.0011,-42.3750,11.4000,-7.6500,
7.879793,0.1773,-0.2435,0.5639,0.0828,-0.1009,-0.0011,-43.0500,11.4000,-7.6500,
7.891279,0.1773,-0.2435,0.5639,0.0828,-0.1009,-0.0011,-43.0500,11.4000,-7.6500,
7.892861,0.2645,-0.6180,-0.2048,0.0828,-0.1009,-0.0011,-43.0500,11.4000,-7.6500,
7.917172,0.2645,-0.6180,-0.2048,0.0828,-0.1009,-0.0011,-43.0500,11.4000,-7.6500,
7.921196,0.1103,-0.2143,-0.1967,0.0828,-0.1009,-0.0011,-43.0500,11.4000,-7.6500,
7.923758,0.1103,-0.2143,-0.1967,0.0774,-0.0791,-0.0556,-43.0500,11.4000,-7.6500,
7.936694,0.1103,-0.2143,-0.1967,0.0774,-0.0791,-0.0556,-43.0500,11.4000,-7.6500,
7.938999,-0.0922,0.3081,-0.0265,0.0774,-0.0791,-0.0556,-43.0500,11.4000,-7.6500,
7.951888,-0.0922,0.3081,-0.0265,0.0774,-0.0791,-0.0556,-43.0500,11.1000,-7.6500,
7.955908,-0.0922,0.3081,-0.0265,0.0774,-0.0791,-0.0556,-43.0500,11.1000,-7.6500,
7.957678,0.0426,0.5604,-0.1642,0.0774,-0.0791,-0.0556,-43.0500,11.1000,-7.6500,
