
time,ax,ay,az,wx,wy,wz,Bx,By,Bz,
0.063450,0.0000,0.0000,0.0000,0.0000,0.0000,0.0000,0.0000,0.0000,0.0000,
0.064202,0.0000,0.0000,0.0000,0.0000,0.0000,0.0000,0.0000,0.0000,0.0000,
0.087257,0.0000,0.0000,0.0000,0.0000,0.0000,0.0000,-41.9250,19.1250,-6.5250,
0.100111,0.0000,0.0000,0.0000,0.0000,0.0000,0.0000,-41.9250,19.1250,-6.5250,
0.101061,0.0008,0.0342,0.0017,0.0000,0.0000,0.0000,-41.9250,19.1250,-6.5250,
0.118606,0.0008,0.0342,0.0017,0.0000,0.0000,0.0000,-41.9250,19.1250,-6.5250,
0.119818,0.0301,0.2153,-0.0396,0.0000,0.0000,0.0000,-41.9250,19.1250,-6.5250,
0.124662,0.0301,0.2153,-0.0396,-0.0203,-0.0208,0.0023,-41.9250,19.1250,-6.5250,
0.144043,0.0301,0.2153,-0.0396,-0.0203,-0.0208,0.0023,-41.9250,19.1250,-6.5250,
0.145599,-0.0162,0.1509,0.2385,-0.0203,-0.0208,0.0023,-41.9250,19.1250,-6.5250,
0.157329,-0.0162,0.1509,0.2385,-0.0203,-0.0208,0.0023,-41.7750,18.0000,-6.7500,
0.163485,-0.0162,0.1509,0.2385,-0.0203,-0.0208,0.0023,-41.7750,18.0000,-6.7500,
0.164983,0.0075,-0.0005,0.3169,-0.0203,-0.0208,0.0023,-41.7750,18.0000,-6.7500,
0.183830,0.0075,-0.0005,0.3169,-0.0203,-0.0208,0.0023,-41.7750,18.0000,-6.7500,
0.185629,0.0492,-0.0284,0.2030,-0.0203,-0.0208,0.0023,-41.7750,18.0000,-6.7500,
0.197528,0.0492,-0.0284,0.2030,-0.0170,-0.0063,-0.0305,-41.7750,18.0000,-6.7500,
0.203648,0.0492,-0.0284,0.2030,-0.0170,-0.0063,-0.0305,-41.7750,18.0000,-6.7500,
0.205366,0.0090,0.0137,0.1349,-0.0170,-0.0063,-0.0305,-41.7750,18.0000,-6.7500,
0.225652,0.0090,0.0137,0.1349,-0.0170,-0.0063,-0.0305,-41.6250,17.8500,-5.8500,
0.227814,0.0090,0.0137,0.1349,-0.0170,-0.0063,-0.0305,-41.6250,17.8500,-5.8500,
0.229156,-0.1206,0.0326,0.2071,-0.0170,-0.0063,-0.0305,-41.6250,17.8500,-5.8500,
0.240273,-0.1206,0.0326,0.2071,-0.0170,-0.0063,-0.0305,-41.6250,17.8500,-5.8500,
0.243130,-0.1594,0.0169,0.2234,-0.0170,-0.0063,-0.0305,-41.6250,17.8500,-5.8500,
0.255736,-0.1594,0.0169,0.2234,-0.0170,-0.0063,-0.0305,-41.6250,17.8500,-5.8500,
0.257060,-0.1343,-0.0025,0.2686,-0.0170,-0.0063,-0.0305,-41.6250,17.8500,-5.8500,
0.264713,-0.1343,-0.0025,0.2686,0.0275,0.0160,-0.0509,-41.6250,17.8500,-5.8500,
0.279690,-0.1343,-0.0025,0.2686,0.0275,0.0160,-0.0509,-41.6250,17.8500,-5.8500,
0.283224,-0.0916,-0.0739,0.3170,0.0275,0.0160,-0.0509,-41.6250,17.8500,-5.8500,
0.289588,-0.0916,-0.0739,0.3170,0.0275,0.0160,-0.0509,-41.5500,17.8500,-6.5250,
0.298967,-0.0916,-0.0739,0.3170,0.0275,0.0160,-0.0509,-41.5500,17.8500,-6.5250,
0.300614,-0.0433,-0.0987,0.2935,0.0275,0.0160,-0.0509,-41.5500,17.8500,-6.5250,
0.319013,-0.0433,-0.0987,0.2935,0.0275,0.0160,-0.0509,-41.5500,17.8500,-6.5250,
0.320799,-0.0373,0.0469,0.2119,0.0275,0.0160,-0.0509,-41.5500,17.8500,-6.5250,
0.334423,-0.0373,0.0469,0.2119,0.0110,0.0342,-0.0490,-41.5500,17.8500,-6.5250,
0.340085,-0.0373,0.0469,0.2119,0.0110,0.0342,-0.0490,-41.5500,17.8500,-6.5250,
0.341404,-0.0871,0.1690,0.1268,0.0110,0.0342,-0.0490,-41.5500,17.8500,-6.5250,
0.356321,-0.0871,0.1690,0.1268,0.0110,0.0342,-0.0490,-41.5500,17.8500,-6.5250,
0.358071,-0.1837,0.3174,0.1630,0.0110,0.0342,-0.0490,-41.5500,17.8500,-6.5250,
0.359854,-0.1837,0.3174,0.1630,0.0110,0.0342,-0.0490,-42.4500,17.1750,-6.2250,
0.378542,-0.1837,0.3174,0.1630,0.0110,0.0342,-0.0490,-42.4500,17.1750,-6.2250,
0.379993,-0.2706,0.3114,0.3610,0.0110,0.0342,-0.0490,-42.4500,17.1750,-6.2250,
0.403055,-0.2706,0.3114,0.3610,0.0110,0.0342,-0.0490,-42.4500,17.1750,-6.2250,
0.407057,-0.2468,0.1649,0.4724,0.0110,0.0342,-0.0490,-42.4500,17.1750,-6.2250,
0.411751,-0.2468,0.1649,0.4724,-0.0107,0.0258,-0.0356,-42.4500,17.1750,-6.2250,
0.427453,-0.2468,0.1649,0.4724,-0.0107,0.0258,-0.0356,-42.4500,17.1750,-6.2250,
0.429786,-0.1897,-0.0084,0.3955,-0.0107,0.0258,-0.0356,-42.4500,17.1750,-6.2250,
0.432072,-0.1897,-0.0084,0.3955,-0.0107,0.0258,-0.0356,-41.5500,17.7000,-6.5250,
0.441149,-0.1897,-0.0084,0.3955,-0.0107,0.0258,-0.0356,-41.5500,17.7000,-6.5250,
0.443477,-0.1847,-0.0585,0.3563,-0.0107,0.0258,-0.0356,-41.5500,17.7000,-6.5250,
0.460956,-0.1847,-0.0585,0.3563,-0.0107,0.0258,-0.0356,-41.5500,17.7000,-6.5250,
0.464753,-0.1775,-0.0433,0.3573,-0.0107,0.0258,-0.0356,-41.5500,17.7000,-6.5250,
0.475420,-0.1775,-0.0433,0.3573,0.0037,0.0154,-0.0046,-41.5500,17.7000,-6.5250,
0.481308,-0.1775,-0.0433,0.3573,0.0037,0.0154,-0.0046,-41.5500,17.7000,-6.5250,
0.483472,-0.1836,-0.0163,0.3160,0.0037,0.0154,-0.0046,-41.5500,17.7000,-6.5250,
0.500087,-0.1836,-0.0163,0.3160,0.0037,0.0154,-0.0046,-41.5500,17.7000,-6.5250,
0.503492,-0.1718,0.0351,0.3337,0.0037,0.0154,-0.0046,-41.5500,17.7000,-6.5250,
0.505186,-0.1718,0.0351,0.3337,0.0037,0.0154,-0.0046,-42.1500,17.1000,-6.4500,
0.520234,-0.1718,0.0351,0.3337,0.0037,0.0154,-0.0046,-42.1500,17.1000,-6.4500,
0.521560,-0.1424,0.0786,0.3725,0.0037,0.0154,-0.0046,-42.1500,17.1000,-6.4500,
0.539825,-0.1424,0.0786,0.3725,0.0037,0.0154,-0.0046,-42.1500,17.1000,-6.4500,
0.541174,-0.1347,0.1309,0.4221,0.0037,0.0154,-0.0046,-42.1500,17.1000,-6.4500,
0.544574,-0.1347,0.1309,0.4221,-0.0444,0.0021,0.0151,-42.1500,17.1000,-6.4500,
0.556507,-0.1347,0.1309,0.4221,-0.0444,0.0021,0.0151,-42.1500,17.1000,-6.4500,
0.558012,-0.0791,0.1576,0.3930,-0.0444,0.0021,0.0151,-42.1500,17.1000,-6.4500,
0.570105,-0.0791,0.1576,0.3930,-0.0444,0.0021,0.0151,-41.3250,17.7000,-7.0500,
0.579294,-0.0791,0.1576,0.3930,-0.0444,0.0021,0.0151,-41.3250,17.7000,-7.0500,
0.582868,-0.0227,0.1602,0.3618,-0.0444,0.0021,0.0151,-41.3250,17.7000,-7.0500,
0.598569,-0.0227,0.1602,0.3618,-0.0444,0.0021,0.0151,-41.3250,17.7000,-7.0500,
0.601774,-0.0364,0.0873,0.3747,-0.0444,0.0021,0.0151,-41.3250,17.7000,-7.0500,
0.612033,-0.0364,0.0873,0.3747,-0.0646,-0.0160,0.0293,-41.3250,17.7000,-7.0500,
0.622921,-0.0364,0.0873,0.3747,-0.0646,-0.0160,0.0293,-41.3250,17.7000,-7.0500,
0.625033,-0.0166,-0.0571,0.5041,-0.0646,-0.0160,0.0293,-41.3250,17.7000,-7.0500,
0.642602,-0.0166,-0.0571,0.5041,-0.0646,-0.0160,0.0293,-41.3250,17.7000,-7.0500,
0.645305,-0.0130,-0.0661,0.4873,-0.0646,-0.0160,0.0293,-41.3250,17.7000,-7.0500,
0.647407,-0.0130,-0.0661,0.4873,-0.0646,-0.0160,0.0293,-42.4500,16.9500,-6.6750,
0.661875,-0.0130,-0.0661,0.4873,-0.0646,-0.0160,0.0293,-42.4500,16.9500,-6.6750,
0.663287,-0.0933,0.1485,0.4470,-0.0646,-0.0160,0.0293,-42.4500,16.9500,-6.6750,
0.681565,-0.0933,0.1485,0.4470,-0.0646,-0.0160,0.0293,-42.4500,16.9500,-6.6750,
0.683500,-0.1020,0.1683,0.5360,-0.0646,-0.0160,0.0293,-42.4500,16.9500,-6.6750,
0.688364,-0.1020,0.1683,0.5360,-0.0304,0.0093,0.0203,-42.4500,16.9500,-6.6750,
0.701333,-0.1020,0.1683,0.5360,-0.0304,0.0093,0.0203,-42.4500,16.9500,-6.6750,
0.703346,-0.1413,0.1610,0.5276,-0.0304,0.0093,0.0203,-42.4500,16.9500,-6.6750,
0.710653,-0.1413,0.1610,0.5276,-0.0304,0.0093,0.0203,-42.4500,16.5750,-6.6750,
0.720333,-0.1413,0.1610,0.5276,-0.0304,0.0093,0.0203,-42.4500,16.5750,-6.6750,
0.723275,-0.2127,0.1398,0.5668,-0.0304,0.0093,0.0203,-42.4500,16.5750,-6.6750,
0.740485,-0.2127,0.1398,0.5668,-0.0304,0.0093,0.0203,-42.4500,16.5750,-6.6750,
0.742743,-0.1618,0.0490,0.5553,-0.0304,0.0093,0.0203,-42.4500,16.5750,-6.6750,
0.755287,-0.1618,0.0490,0.5553,-0.0609,-0.0096,0.0264,-42.4500,16.5750,-6.6750,
0.757898,-0.1618,0.0490,0.5553,-0.0609,-0.0096,0.0264,-42.4500,16.5750,-6.6750,
0.759627,-0.0511,0.0979,0.4435,-0.0609,-0.0096,0.0264,-42.4500,16.5750,-6.6750,
0.779022,-0.0511,0.0979,0.4435,-0.0609,-0.0096,0.0264,-42.4500,16.5750,-6.6750,
0.781624,0.0007,0.1897,0.3431,-0.0609,-0.0096,0.0264,-42.4500,16.5750,-6.6750,
0.784050,0.0007,0.1897,0.3431,-0.0609,-0.0096,0.0264,-42.1500,17.2500,-6.4500,
0.798324,0.0007,0.1897,0.3431,-0.0609,-0.0096,0.0264,-42.1500,17.2500,-6.4500,
0.800383,-0.0487,0.2818,0.3622,-0.0609,-0.0096,0.0264,-42.1500,17.2500,-6.4500,
0.818314,-0.0487,0.2818,0.3622,-0.0609,-0.0096,0.0264,-42.1500,17.2500,-6.4500,
0.821730,-0.0866,0.3500,0.4146,-0.0609,-0.0096,0.0264,-42.1500,17.2500,-6.4500,
0.824204,-0.0866,0.3500,0.4146,-0.0797,0.0073,0.0263,-42.1500,17.2500,-6.4500,
0.838249,-0.0866,0.3500,0.4146,-0.0797,0.0073,0.0263,-42.1500,17.2500,-6.4500,
0.840004,-0.1016,0.3497,0.5344,-0.0797,0.0073,0.0263,-42.1500,17.2500,-6.4500,
0.848826,-0.1016,0.3497,0.5344,-0.0797,0.0073,0.0263,-41.7750,17.1000,-6.3750,
0.855718,-0.1016,0.3497,0.5344,-0.0797,0.0073,0.0263,-41.7750,17.1000,-6.3750,
0.857282,-0.0958,0.2643,0.5507,-0.0797,0.0073,0.0263,-41.7750,17.1000,-6.3750,
0.877783,-0.0958,0.2643,0.5507,-0.0797,0.0073,0.0263,-41.7750,17.1000,-6.3750,
0.879676,-0.1056,0.2225,0.4645,-0.0797,0.0073,0.0263,-41.7750,17.1000,-6.3750,
0.892061,-0.1056,0.2225,0.4645,-0.1345,0.0153,0.0258,-41.7750,17.1000,-6.3750,
0.897988,-0.1056,0.2225,0.4645,-0.1345,0.0153,0.0258,-41.7750,17.1000,-6.3750,
0.899583,-0.1084,0.3070,0.3829,-0.1345,0.0153,0.0258,-41.7750,17.1000,-6.3750,
0.921648,-0.1084,0.3070,0.3829,-0.1345,0.0153,0.0258,-41.7750,17.1000,-6.3750,
0.923542,-0.1308,0.5338,0.1291,-0.1345,0.0153,0.0258,-41.7750,17.1000,-6.3750,
0.925147,-0.1308,0.5338,0.1291,-0.1345,0.0153,0.0258,-42.1500,17.3250,-6.3750,
0.940034,-0.1308,0.5338,0.1291,-0.1345,0.0153,0.0258,-42.1500,17.3250,-6.3750,
0.943415,-0.0927,0.7641,-0.0320,-0.1345,0.0153,0.0258,-42.1500,17.3250,-6.3750,
0.957360,-0.0927,0.7641,-0.0320,-0.1345,0.0153,0.0258,-42.1500,17.3250,-6.3750,
0.960195,-0.1015,0.8979,0.2041,-0.1345,0.0153,0.0258,-42.1500,17.3250,-6.3750,
0.963980,-0.1015,0.8979,0.2041,-0.2533,0.0790,0.0411,-42.1500,17.3250,-6.3750,
0.979012,-0.1015,0.8979,0.2041,-0.2533,0.0790,0.0411,-42.1500,17.3250,-6.3750,
0.981714,-0.0911,0.9081,0.4642,-0.2533,0.0790,0.0411,-42.1500,17.3250,-6.3750,
0.989055,-0.0911,0.9081,0.4642,-0.2533,0.0790,0.0411,-42.5250,16.7250,-6.7500,
0.999395,-0.0911,0.9081,0.4642,-0.2533,0.0790,0.0411,-42.5250,16.7250,-6.7500,
1.000667,-0.0475,0.7998,0.4975,-0.2533,0.0790,0.0411,-42.5250,16.7250,-6.7500,
1.018936,-0.0475,0.7998,0.4975,-0.2533,0.0790,0.0411,-42.5250,16.7250,-6.7500,
1.020507,0.0716,0.7431,0.4633,-0.2533,0.0790,0.0411,-42.5250,16.7250,-6.7500,
1.033655,0.0716,0.7431,0.4633,-0.2767,0.1486,0.0272,-42.5250,16.7250,-6.7500,
1.040886,0.0716,0.7431,0.4633,-0.2767,0.1486,0.0272,-42.5250,16.7250,-6.7500,
1.042566,0.2015,0.7002,0.3475,-0.2767,0.1486,0.0272,-42.5250,16.7250,-6.7500,
1.055850,0.2015,0.7002,0.3475,-0.2767,0.1486,0.0272,-42.5250,16.7250,-6.7500,
1.057991,0.1767,0.7696,0.1973,-0.2767,0.1486,0.0272,-42.5250,16.7250,-6.7500,
1.060083,0.1767,0.7696,0.1973,-0.2767,0.1486,0.0272,-41.8500,17.1000,-6.7500,
1.078627,0.1767,0.7696,0.1973,-0.2767,0.1486,0.0272,-41.8500,17.1000,-6.7500,
1.083752,-0.0363,0.8391,0.3397,-0.2767,0.1486,0.0272,-41.8500,17.1000,-6.7500,
1.097330,-0.0363,0.8391,0.3397,-0.2767,0.1486,0.0272,-41.8500,17.1000,-6.7500,
1.100793,-0.2792,0.8621,0.5031,-0.2767,0.1486,0.0272,-41.8500,17.1000,-6.7500,
1.103623,-0.2792,0.8621,0.5031,-0.2182,0.1090,-0.0060,-41.8500,17.1000,-6.7500,
1.115803,-0.2792,0.8621,0.5031,-0.2182,0.1090,-0.0060,-41.8500,17.1000,-6.7500,
1.118489,-0.5725,0.6880,0.4898,-0.2182,0.1090,-0.0060,-41.8500,17.1000,-6.7500,
1.126599,-0.5725,0.6880,0.4898,-0.2182,0.1090,-0.0060,-41.5500,16.6500,-6.1500,
1.137479,-0.5725,0.6880,0.4898,-0.2182,0.1090,-0.0060,-41.5500,16.6500,-6.1500,
1.139790,-0.7582,0.5116,0.3120,-0.2182,0.1090,-0.0060,-41.5500,16.6500,-6.1500,
1.154905,-0.7582,0.5116,0.3120,-0.2182,0.1090,-0.0060,-41.5500,16.6500,-6.1500,
1.157093,-0.8796,0.7178,0.3119,-0.2182,0.1090,-0.0060,-41.5500,16.6500,-6.1500,
1.169654,-0.8796,0.7178,0.3119,-0.1811,0.0594,0.0182,-41.5500,16.6500,-6.1500,
1.174918,-0.8796,0.7178,0.3119,-0.1811,0.0594,0.0182,-41.5500,16.6500,-6.1500,
1.177008,-0.7495,1.0284,0.5236,-0.1811,0.0594,0.0182,-41.5500,16.6500,-6.1500,
1.190393,-0.7495,1.0284,0.5236,-0.1811,0.0594,0.0182,-41.5500,16.6500,-6.1500,
1.192588,-0.5228,1.2807,0.7848,-0.1811,0.0594,0.0182,-41.5500,16.6500,-6.1500,
1.196760,-0.5228,1.2807,0.7848,-0.1811,0.0594,0.0182,-42.0750,16.9500,-7.0500,
1.209574,-0.5228,1.2807,0.7848,-0.1811,0.0594,0.0182,-42.0750,16.9500,-7.0500,
1.210936,-0.2163,1.4971,0.9189,-0.1811,0.0594,0.0182,-42.0750,16.9500,-7.0500,
1.235929,-0.2163,1.4971,0.9189,-0.1811,0.0594,0.0182,-42.0750,16.9500,-7.0500,
1.237985,-0.0028,1.7239,1.0217,-0.1811,0.0594,0.0182,-42.0750,16.9500,-7.0500,
1.239700,-0.0028,1.7239,1.0217,-0.0670,0.2227,0.0411,-42.0750,16.9500,-7.0500,
1.256555,-0.0028,1.7239,1.0217,-0.0670,0.2227,0.0411,-42.0750,16.9500,-7.0500,
1.258255,0.0759,1.9373,1.0818,-0.0670,0.2227,0.0411,-42.0750,16.9500,-7.0500,
1.272964,0.0759,1.9373,1.0818,-0.0670,0.2227,0.0411,-41.4750,16.5000,-7.7250,
1.278750,0.0759,1.9373,1.0818,-0.0670,0.2227,0.0411,-41.4750,16.5000,-7.7250,
1.280067,0.0763,2.1656,1.1092,-0.0670,0.2227,0.0411,-41.4750,16.5000,-7.7250,
1.298891,0.0763,2.1656,1.1092,-0.0670,0.2227,0.0411,-41.4750,16.5000,-7.7250,
1.301763,-0.0877,2.3143,1.0383,-0.0670,0.2227,0.0411,-41.4750,16.5000,-7.7250,
1.318762,-0.0877,2.3143,1.0383,0.1168,0.2588,-0.0136,-41.4750,16.5000,-7.7250,
1.323341,-0.0877,2.3143,1.0383,0.1168,0.2588,-0.0136,-41.4750,16.5000,-7.7250,
1.325328,-0.1992,2.2486,1.0837,0.1168,0.2588,-0.0136,-41.4750,16.5000,-7.7250,
1.342760,-0.1992,2.2486,1.0837,0.1168,0.2588,-0.0136,-41.4750,16.5000,-7.7250,
1.345526,-0.0519,1.9822,1.0408,0.1168,0.2588,-0.0136,-41.4750,16.5000,-7.7250,
1.347494,-0.0519,1.9822,1.0408,0.1168,0.2588,-0.0136,-41.2500,16.9500,-8.6250,
1.354634,-0.0519,1.9822,1.0408,0.1168,0.2588,-0.0136,-41.2500,16.9500,-8.6250,
1.356383,0.0625,1.9498,1.0205,0.1168,0.2588,-0.0136,-41.2500,16.9500,-8.6250,
1.374884,0.0625,1.9498,1.0205,0.1168,0.2588,-0.0136,-41.2500,16.9500,-8.6250,
1.376615,0.0299,1.7391,1.5831,0.1168,0.2588,-0.0136,-41.2500,16.9500,-8.6250,
1.379429,0.0299,1.7391,1.5831,0.3515,0.2518,-0.1252,-41.2500,16.9500,-8.6250,
1.394563,0.0299,1.7391,1.5831,0.3515,0.2518,-0.1252,-41.2500,16.9500,-8.6250,
1.396298,-0.2453,1.1289,2.0374,0.3515,0.2518,-0.1252,-41.2500,16.9500,-8.6250,
1.407337,-0.2453,1.1289,2.0374,0.3515,0.2518,-0.1252,-42.1500,16.5000,-9.4500,
1.415013,-0.2453,1.1289,2.0374,0.3515,0.2518,-0.1252,-42.1500,16.5000,-9.4500,
1.416980,-0.7257,0.4144,1.9768,0.3515,0.2518,-0.1252,-42.1500,16.5000,-9.4500,
1.434799,-0.7257,0.4144,1.9768,0.3515,0.2518,-0.1252,-42.1500,16.5000,-9.4500,
1.437467,-1.1136,0.1344,2.0239,0.3515,0.2518,-0.1252,-42.1500,16.5000,-9.4500,
1.449631,-1.1136,0.1344,2.0239,0.6730,0.1820,-0.1362,-42.1500,16.5000,-9.4500,
1.455626,-1.1136,0.1344,2.0239,0.6730,0.1820,-0.1362,-42.1500,16.5000,-9.4500,
1.456633,-1.1426,0.2940,1.5590,0.6730,0.1820,-0.1362,-42.1500,16.5000,-9.4500,
1.473947,-1.1426,0.2940,1.5590,0.6730,0.1820,-0.1362,-42.1500,16.5000,-9.4500,
1.475551,-0.9628,0.6057,1.1368,0.6730,0.1820,-0.1362,-42.1500,16.5000,-9.4500,
1.478238,-0.9628,0.6057,1.1368,0.6730,0.1820,-0.1362,-42.1500,15.6000,-11.7750,
1.490868,-0.9628,0.6057,1.1368,0.6730,0.1820,-0.1362,-42.1500,15.6000,-11.7750,
1.492348,-0.6471,0.5784,1.8180,0.6730,0.1820,-0.1362,-42.1500,15.6000,-11.7750,
1.513639,-0.6471,0.5784,1.8180,0.6730,0.1820,-0.1362,-42.1500,15.6000,-11.7750,
1.515087,-0.5834,0.5691,2.3906,0.6730,0.1820,-0.1362,-42.1500,15.6000,-11.7750,
1.521535,-0.5834,0.5691,2.3906,0.5670,0.0750,-0.0509,-42.1500,15.6000,-11.7750,
1.538753,-0.5834,0.5691,2.3906,0.5670,0.0750,-0.0509,-42.1500,15.6000,-11.7750,
1.540360,-0.8102,0.8916,2.1902,0.5670,0.0750,-0.0509,-42.1500,15.6000,-11.7750,
1.547899,-0.8102,0.8916,2.1902,0.5670,0.0750,-0.0509,-41.8500,15.0000,-12.7500,
1.555327,-0.8102,0.8916,2.1902,0.5670,0.0750,-0.0509,-41.8500,15.0000,-12.7500,
1.557898,-0.8700,1.2979,1.5097,0.5670,0.0750,-0.0509,-41.8500,15.0000,-12.7500,
1.571886,-0.8700,1.2979,1.5097,0.5670,0.0750,-0.0509,-41.8500,15.0000,-12.7500,
1.574434,-0.7196,1.9064,1.4951,0.5670,0.0750,-0.0509,-41.8500,15.0000,-12.7500,
1.591260,-0.7196,1.9064,1.4951,0.1975,-0.1556,-0.1648,-41.8500,15.0000,-12.7500,
1.594642,-0.7196,1.9064,1.4951,0.1975,-0.1556,-0.1648,-41.8500,15.0000,-12.7500,
1.596779,-0.5270,2.6629,2.6684,0.1975,-0.1556,-0.1648,-41.8500,15.0000,-12.7500,
1.615053,-0.5270,2.6629,2.6684,0.1975,-0.1556,-0.1648,-41.8500,15.0000,-12.7500,
1.617350,0.0942,3.4794,2.7676,0.1975,-0.1556,-0.1648,-41.8500,15.0000,-12.7500,
1.619345,0.0942,3.4794,2.7676,0.1975,-0.1556,-0.1648,-41.9250,14.4750,-13.4250,
1.635352,0.0942,3.4794,2.7676,0.1975,-0.1556,-0.1648,-41.9250,14.4750,-13.4250,
1.637872,0.0706,4.3496,2.3983,0.1975,-0.1556,-0.1648,-41.9250,14.4750,-13.4250,
1.653926,0.0706,4.3496,2.3983,0.1975,-0.1556,-0.1648,-41.9250,14.4750,-13.4250,
1.656165,-0.4031,4.3582,2.6030,0.1975,-0.1556,-0.1648,-41.9250,14.4750,-13.4250,
1.658762,-0.4031,4.3582,2.6030,-0.5291,-0.2336,-0.3552,-41.9250,14.4750,-13.4250,
1.674871,-0.4031,4.3582,2.6030,-0.5291,-0.2336,-0.3552,-41.9250,14.4750,-13.4250,
1.677446,-0.5581,4.0004,2.6429,-0.5291,-0.2336,-0.3552,-41.9250,14.4750,-13.4250,
1.687479,-0.5581,4.0004,2.6429,-0.5291,-0.2336,-0.3552,-43.0500,13.8000,-13.2750,
1.693232,-0.5581,4.0004,2.6429,-0.5291,-0.2336,-0.3552,-43.0500,13.8000,-13.2750,
1.694982,-0.2389,3.9632,2.8640,-0.5291,-0.2336,-0.3552,-43.0500,13.8000,-13.2750,
1.712246,-0.2389,3.9632,2.8640,-0.5291,-0.2336,-0.3552,-43.0500,13.8000,-13.2750,
1.714011,0.5935,3.4984,2.9740,-0.5291,-0.2336,-0.3552,-43.0500,13.8000,-13.2750,
1.727400,0.5935,3.4984,2.9740,-1.1424,-0.1932,-0.3584,-43.0500,13.8000,-13.2750,
1.732112,0.5935,3.4984,2.9740,-1.1424,-0.1932,-0.3584,-43.0500,13.8000,-13.2750,
1.733860,2.2557,1.0637,1.5290,-1.1424,-0.1932,-0.3584,-43.0500,13.8000,-13.2750,
1.752144,2.2557,1.0637,1.5290,-1.1424,-0.1932,-0.3584,-43.0500,13.8000,-13.2750,
1.755582,5.0408,-8.4086,0.0523,-1.1424,-0.1932,-0.3584,-43.0500,13.8000,-13.2750,
1.758048,5.0408,-8.4086,0.0523,-1.1424,-0.1932,-0.3584,-43.3500,13.2750,-12.4500,
1.776154,5.0408,-8.4086,0.0523,-1.1424,-0.1932,-0.3584,-43.3500,13.2750,-12.4500,
1.778789,0.4308,-21.5529,-8.8417,-1.1424,-0.1932,-0.3584,-43.3500,13.2750,-12.4500,
1.790886,0.4308,-21.5529,-8.8417,-1.1424,-0.1932,-0.3584,-43.3500,13.2750,-12.4500,
1.793117,-4.7458,-17.6751,-10.7684,-1.1424,-0.1932,-0.3584,-43.3500,13.2750,-12.4500,
1.795586,-4.7458,-17.6751,-10.7684,-2.3667,-0.7069,-0.8559,-43.3500,13.2750,-12.4500,
1.815157,-4.7458,-17.6751,-10.7684,-2.3667,-0.7069,-0.8559,-43.3500,13.2750,-12.4500,
1.817741,-1.8703,-8.3001,-3.0091,-2.3667,-0.7069,-0.8559,-43.3500,13.2750,-12.4500,
1.826916,-1.8703,-8.3001,-3.0091,-2.3667,-0.7069,-0.8559,-43.0500,10.8750,-11.1750,
1.835940,-1.8703,-8.3001,-3.0091,-2.3667,-0.7069,-0.8559,-43.0500,10.8750,-11.1750,
1.838899,0.2278,-1.6109,10.0629,-2.3667,-0.7069,-0.8559,-43.0500,10.8750,-11.1750,
1.857432,0.2278,-1.6109,10.0629,-2.3667,-0.7069,-0.8559,-43.0500,10.8750,-11.1750,
1.860060,1.2910,2.3910,8.1473,-2.3667,-0.7069,-0.8559,-43.0500,10.8750,-11.1750,
1.873901,1.2910,2.3910,8.1473,-3.6455,-0.6333,-0.2424,-43.0500,10.8750,-11.1750,
1.876950,1.2910,2.3910,8.1473,-3.6455,-0.6333,-0.2424,-43.0500,10.8750,-11.1750,
1.878923,3.2230,8.0284,6.5203,-3.6455,-0.6333,-0.2424,-43.0500,10.8750,-11.1750,
1.894530,3.2230,8.0284,6.5203,-3.6455,-0.6333,-0.2424,-43.0500,10.8750,-11.1750,
1.897733,2.7227,12.5210,5.8412,-3.6455,-0.6333,-0.2424,-43.0500,10.8750,-11.1750,
1.900163,2.7227,12.5210,5.8412,-3.6455,-0.6333,-0.2424,-43.7250,9.3750,-7.3500,
1.913187,2.7227,12.5210,5.8412,-3.6455,-0.6333,-0.2424,-43.7250,9.3750,-7.3500,
1.915887,3.6099,14.3519,3.3071,-3.6455,-0.6333,-0.2424,-43.7250,9.3750,-7.3500,
1.932583,3.6099,14.3519,3.3071,-3.6455,-0.6333,-0.2424,-43.7250,9.3750,-7.3500,
1.935336,3.8579,12.0636,1.2625,-3.6455,-0.6333,-0.2424,-43.7250,9.3750,-7.3500,
1.938290,3.8579,12.0636,1.2625,-2.4281,0.6425,0.0356,-43.7250,9.3750,-7.3500,
1.955965,3.8579,12.0636,1.2625,-2.4281,0.6425,0.0356,-43.7250,9.3750,-7.3500,
1.958716,0.5983,8.4163,2.6731,-2.4281,0.6425,0.0356,-43.7250,9.3750,-7.3500,
1.975788,0.5983,8.4163,2.6731,-2.4281,0.6425,0.0356,-43.3500,8.9250,-7.2750,
1.977857,0.5983,8.4163,2.6731,-2.4281,0.6425,0.0356,-43.3500,8.9250,-7.2750,
1.979199,-2.8077,4.9274,6.2372,-2.4281,0.6425,0.0356,-43.3500,8.9250,-7.2750,
1.991205,-2.8077,4.9274,6.2372,-2.4281,0.6425,0.0356,-43.3500,8.9250,-7.2750,
1.993624,-4.4096,2.3088,5.5309,-2.4281,0.6425,0.0356,-43.3500,8.9250,-7.2750,
2.005863,-4.4096,2.3088,5.5309,-2.5385,0.6063,0.1478,-43.3500,8.9250,-7.2750,
2.011284,-4.4096,2.3088,5.5309,-2.5385,0.6063,0.1478,-43.3500,8.9250,-7.2750,
2.012788,-4.7794,-0.5457,3.9584,-2.5385,0.6063,0.1478,-43.3500,8.9250,-7.2750,
2.030306,-4.7794,-0.5457,3.9584,-2.5385,0.6063,0.1478,-43.3500,8.9250,-7.2750,
2.032401,-3.9459,-2.4513,4.1602,-2.5385,0.6063,0.1478,-43.3500,8.9250,-7.2750,
2.036856,-3.9459,-2.4513,4.1602,-2.5385,0.6063,0.1478,-42.6750,9.6000,-8.9250,
2.050020,-3.9459,-2.4513,4.1602,-2.5385,0.6063,0.1478,-42.6750,9.6000,-8.9250,
2.052551,-5.4822,-3.3403,-1.5949,-2.5385,0.6063,0.1478,-42.6750,9.6000,-8.9250,
2.070985,-5.4822,-3.3403,-1.5949,-2.5385,0.6063,0.1478,-42.6750,9.6000,-8.9250,
2.073849,-8.8931,0.0834,-5.5101,-2.5385,0.6063,0.1478,-42.6750,9.6000,-8.9250,
2.076024,-8.8931,0.0834,-5.5101,-2.6860,-1.2585,0.6333,-42.6750,9.6000,-8.9250,
2.090607,-8.8931,0.0834,-5.5101,-2.6860,-1.2585,0.6333,-42.6750,9.6000,-8.9250,
2.092861,-15.7422,1.8451,-6.8038,-2.6860,-1.2585,0.6333,-42.6750,9.6000,-8.9250,
2.105837,-15.7422,1.8451,-6.8038,-2.6860,-1.2585,0.6333,-42.6750,9.6000,-8.9250,
2.108245,-8.6332,5.3920,-3.1831,-2.6860,-1.2585,0.6333,-42.6750,9.6000,-8.9250,
2.109886,-8.6332,5.3920,-3.1831,-2.6860,-1.2585,0.6333,-42.1500,11.4000,-6.4500,
2.132868,-8.6332,5.3920,-3.1831,-2.6860,-1.2585,0.6333,-42.1500,11.4000,-6.4500,
2.134833,0.5048,6.8892,-3.5769,-2.6860,-1.2585,0.6333,-42.1500,11.4000,-6.4500,
2.147639,0.5048,6.8892,-3.5769,-2.7923,-4.6967,0.9599,-42.1500,11.4000,-6.4500,
2.152868,0.5048,6.8892,-3.5769,-2.7923,-4.6967,0.9599,-42.1500,11.4000,-6.4500,
2.154670,11.3265,3.0720,-8.0051,-2.7923,-4.6967,0.9599,-42.1500,11.4000,-6.4500,
2.172254,11.3265,3.0720,-8.0051,-2.7923,-4.6967,0.9599,-42.1500,11.4000,-6.4500,
2.175192,30.7490,-1.9847,-10.8928,-2.7923,-4.6967,0.9599,-42.1500,11.4000,-6.4500,
2.177083,30.7490,-1.9847,-10.8928,-2.7923,-4.6967,0.9599,-39.5250,12.2250,7.0500,
2.191872,30.7490,-1.9847,-10.8928,-2.7923,-4.6967,0.9599,-39.5250,12.2250,7.0500,
2.193545,24.0963,-6.8428,-15.3433,-2.7923,-4.6967,0.9599,-39.5250,12.2250,7.0500,
2.212666,24.0963,-6.8428,-15.3433,-2.7923,-4.6967,0.9599,-39.5250,12.2250,7.0500,
2.214766,7.4677,-5.1545,-11.8666,-2.7923,-4.6967,0.9599,-39.5250,12.2250,7.0500,
2.216487,7.4677,-5.1545,-11.8666,-0.8903,2.4611,0.0779,-39.5250,12.2250,7.0500,
2.231948,7.4677,-5.1545,-11.8666,-0.8903,2.4611,0.0779,-39.5250,12.2250,7.0500,
2.234916,-6.3344,3.1387,-8.0333,-0.8903,2.4611,0.0779,-39.5250,12.2250,7.0500,
2.248388,-6.3344,3.1387,-8.0333,-0.8903,2.4611,0.0779,-39.5250,12.2250,7.0500,
2.251174,-16.5937,12.8349,-4.5192,-0.8903,2.4611,0.0779,-39.5250,12.2250,7.0500,
2.253349,-16.5937,12.8349,-4.5192,-0.8903,2.4611,0.0779,-37.7250,9.8250,7.7250,
2.271526,-16.5937,12.8349,-4.5192,-0.8903,2.4611,0.0779,-37.7250,9.8250,7.7250,
2.274000,-19.2965,12.1134,-14.1213,-0.8903,2.4611,0.0779,-37.7250,9.8250,7.7250,
2.290306,-19.2965,12.1134,-14.1213,-0.0188,3.6742,0.6003,-37.7250,9.8250,7.7250,
2.293009,-19.2965,12.1134,-14.1213,-0.0188,3.6742,0.6003,-37.7250,9.8250,7.7250,
2.294738,-7.4751,1.8301,-13.5250,-0.0188,3.6742,0.6003,-37.7250,9.8250,7.7250,
2.305495,-7.4751,1.8301,-13.5250,-0.0188,3.6742,0.6003,-37.7250,9.8250,7.7250,
2.307496,-2.1505,-3.3396,-1.1729,-0.0188,3.6742,0.6003,-37.7250,9.8250,7.7250,
2.322405,-2.1505,-3.3396,-1.1729,-0.0188,3.6742,0.6003,-38.6250,10.8000,-1.7250,
2.328544,-2.1505,-3.3396,-1.1729,-0.0188,3.6742,0.6003,-38.6250,10.8000,-1.7250,
2.330235,-1.5785,-1.8884,-3.4601,-0.0188,3.6742,0.6003,-38.6250,10.8000,-1.7250,
2.348683,-1.5785,-1.8884,-3.4601,-0.0188,3.6742,0.6003,-38.6250,10.8000,-1.7250,
2.351852,1.0853,1.8546,-8.1828,-0.0188,3.6742,0.6003,-38.6250,10.8000,-1.7250,
2.353807,1.0853,1.8546,-8.1828,0.1006,-0.1666,-1.6891,-38.6250,10.8000,-1.7250,
2.368985,1.0853,1.8546,-8.1828,0.1006,-0.1666,-1.6891,-38.6250,10.8000,-1.7250,
2.370449,-0.4328,4.8714,-7.4419,0.1006,-0.1666,-1.6891,-38.6250,10.8000,-1.7250,
2.378677,-0.4328,4.8714,-7.4419,0.1006,-0.1666,-1.6891,-39.2250,9.0000,-4.0500,
2.388549,-0.4328,4.8714,-7.4419,0.1006,-0.1666,-1.6891,-39.2250,9.0000,-4.0500,
2.390457,-2.1002,3.8586,-5.9627,0.1006,-0.1666,-1.6891,-39.2250,9.0000,-4.0500,
2.405531,-2.1002,3.8586,-5.9627,0.1006,-0.1666,-1.6891,-39.2250,9.0000,-4.0500,
2.408477,-2.5362,3.3691,-3.3244,0.1006,-0.1666,-1.6891,-39.2250,9.0000,-4.0500,
2.427203,-2.5362,3.3691,-3.3244,-0.0672,0.7492,-0.2291,-39.2250,9.0000,-4.0500,
2.431248,-2.5362,3.3691,-3.3244,-0.0672,0.7492,-0.2291,-39.2250,9.0000,-4.0500,
2.432899,-1.3710,2.9561,-2.1641,-0.0672,0.7492,-0.2291,-39.2250,9.0000,-4.0500,
2.452018,-1.3710,2.9561,-2.1641,-0.0672,0.7492,-0.2291,-39.2250,9.0000,-4.0500,
2.454966,-1.6764,2.6440,-0.1177,-0.0672,0.7492,-0.2291,-39.2250,9.0000,-4.0500,
2.457187,-1.6764,2.6440,-0.1177,-0.0672,0.7492,-0.2291,-39.8250,6.8250,-4.9500,
2.475181,-1.6764,2.6440,-0.1177,-0.0672,0.7492,-0.2291,-39.8250,6.8250,-4.9500,
2.477787,-1.7891,1.4158,1.5157,-0.0672,0.7492,-0.2291,-39.8250,6.8250,-4.9500,
2.490508,-1.7891,1.4158,1.5157,-0.0672,0.7492,-0.2291,-39.8250,6.8250,-4.9500,
2.492417,-1.3437,1.3074,1.9845,-0.0672,0.7492,-0.2291,-39.8250,6.8250,-4.9500,
2.494550,-1.3437,1.3074,1.9845,-0.0892,-0.2961,-0.0544,-39.8250,6.8250,-4.9500,
2.506575,-1.3437,1.3074,1.9845,-0.0892,-0.2961,-0.0544,-39.8250,6.8250,-4.9500,
2.508250,-1.0143,1.6501,0.9266,-0.0892,-0.2961,-0.0544,-39.8250,6.8250,-4.9500,
2.522289,-1.0143,1.6501,0.9266,-0.0892,-0.2961,-0.0544,-39.7500,6.4500,-5.8500,
2.529682,-1.0143,1.6501,0.9266,-0.0892,-0.2961,-0.0544,-39.7500,6.4500,-5.8500,
2.532283,1.4589,1.5270,0.6441,-0.0892,-0.2961,-0.0544,-39.7500,6.4500,-5.8500,
2.549299,1.4589,1.5270,0.6441,-0.0892,-0.2961,-0.0544,-39.7500,6.4500,-5.8500,
2.550216,2.3006,1.5315,0.7093,-0.0892,-0.2961,-0.0544,-39.7500,6.4500,-5.8500,
2.564208,2.3006,1.5315,0.7093,0.0472,-0.5979,0.2559,-39.7500,6.4500,-5.8500,
2.568177,2.3006,1.5315,0.7093,0.0472,-0.5979,0.2559,-39.7500,6.4500,-5.8500,
2.568763,2.4179,0.9068,0.7008,0.0472,-0.5979,0.2559,-39.7500,6.4500,-5.8500,
2.587961,2.4179,0.9068,0.7008,0.0472,-0.5979,0.2559,-39.7500,6.4500,-5.8500,
2.589611,1.2322,0.4079,0.1636,0.0472,-0.5979,0.2559,-39.7500,6.4500,-5.8500,
2.591284,1.2322,0.4079,0.1636,0.0472,-0.5979,0.2559,-39.2250,7.3500,-4.3500,
2.604856,1.2322,0.4079,0.1636,0.0472,-0.5979,0.2559,-39.2250,7.3500,-4.3500,
2.606516,0.4663,0.4440,-0.2643,0.0472,-0.5979,0.2559,-39.2250,7.3500,-4.3500,
2.627386,0.4663,0.4440,-0.2643,0.0472,-0.5979,0.2559,-39.2250,7.3500,-4.3500,
2.629088,0.0740,0.4025,-0.5295,0.0472,-0.5979,0.2559,-39.2250,7.3500,-4.3500,
2.632275,0.0740,0.4025,-0.5295,0.1593,0.0049,0.2301,-39.2250,7.3500,-4.3500,
2.647185,0.0740,0.4025,-0.5295,0.1593,0.0049,0.2301,-39.2250,7.3500,-4.3500,
2.648572,-0.3126,0.3752,-0.4548,0.1593,0.0049,0.2301,-39.2250,7.3500,-4.3500,
2.657615,-0.3126,0.3752,-0.4548,0.1593,0.0049,0.2301,-38.9250,7.3500,-3.1500,
2.666830,-0.3126,0.3752,-0.4548,0.1593,0.0049,0.2301,-38.9250,7.3500,-3.1500,
2.668190,-0.7973,0.2828,-0.6391,0.1593,0.0049,0.2301,-38.9250,7.3500,-3.1500,
2.687090,-0.7973,0.2828,-0.6391,0.1593,0.0049,0.2301,-38.9250,7.3500,-3.1500,
2.691552,-0.9175,0.1977,-1.1236,0.1593,0.0049,0.2301,-38.9250,7.3500,-3.1500,
2.701464,-0.9175,0.1977,-1.1236,0.2889,0.0108,0.1979,-38.9250,7.3500,-3.1500,
2.715039,-0.9175,0.1977,-1.1236,0.2889,0.0108,0.1979,-38.9250,7.3500,-3.1500,
2.717883,-0.6904,0.3287,-1.3317,0.2889,0.0108,0.1979,-38.9250,7.3500,-3.1500,
2.724818,-0.6904,0.3287,-1.3317,0.2889,0.0108,0.1979,-38.9250,7.3500,-3.1500,
2.726659,-0.5999,0.4980,-1.2844,0.2889,0.0108,0.1979,-38.9250,7.3500,-3.1500,
2.728445,-0.5999,0.4980,-1.2844,0.2889,0.0108,0.1979,-39.1500,8.1750,-3.7500,
2.744518,-0.5999,0.4980,-1.2844,0.2889,0.0108,0.1979,-39.1500,8.1750,-3.7500,
2.746934,-0.4882,0.5755,-1.6237,0.2889,0.0108,0.1979,-39.1500,8.1750,-3.7500,
2.764128,-0.4882,0.5755,-1.6237,0.2889,0.0108,0.1979,-39.1500,8.1750,-3.7500,
2.766424,-0.3675,0.6035,-2.0684,0.2889,0.0108,0.1979,-39.1500,8.1750,-3.7500,
2.770748,-0.3675,0.6035,-2.0684,0.3070,-0.3920,0.2892,-39.1500,8.1750,-3.7500,
2.792456,-0.3675,0.6035,-2.0684,0.3070,-0.3920,0.2892,-39.1500,8.1750,-3.7500,
2.795454,-0.5191,0.5609,-2.0144,0.3070,-0.3920,0.2892,-39.1500,8.1750,-3.7500,
2.797708,-0.5191,0.5609,-2.0144,0.3070,-0.3920,0.2892,-39.1500,8.7000,-2.9250,
2.805865,-0.5191,0.5609,-2.0144,0.3070,-0.3920,0.2892,-39.1500,8.7000,-2.9250,
2.807172,-0.7229,0.6661,-2.1945,0.3070,-0.3920,0.2892,-39.1500,8.7000,-2.9250,
2.828413,-0.7229,0.6661,-2.1945,0.3070,-0.3920,0.2892,-39.1500,8.7000,-2.9250,
2.829973,-0.8367,0.4046,-1.2917,0.3070,-0.3920,0.2892,-39.1500,8.7000,-2.9250,
2.845139,-0.8367,0.4046,-1.2917,0.2533,-0.6148,0.5710,-39.1500,8.7000,-2.9250,
2.847172,-0.8367,0.4046,-1.2917,0.2533,-0.6148,0.5710,-39.1500,8.7000,-2.9250,
2.848338,-0.5931,-0.2798,-0.9460,0.2533,-0.6148,0.5710,-39.1500,8.7000,-2.9250,
2.867885,-0.5931,-0.2798,-0.9460,0.2533,-0.6148,0.5710,-39.1500,8.7000,-2.9250,
2.869658,-0.7371,-0.7269,-1.4022,0.2533,-0.6148,0.5710,-39.1500,8.7000,-2.9250,
2.871390,-0.7371,-0.7269,-1.4022,0.2533,-0.6148,0.5710,-39.4500,10.1250,-1.6500,
2.888736,-0.7371,-0.7269,-1.4022,0.2533,-0.6148,0.5710,-39.4500,10.1250,-1.6500,
2.890740,-0.6270,-0.9757,-1.7653,0.2533,-0.6148,0.5710,-39.4500,10.1250,-1.6500,
2.906121,-0.6270,-0.9757,-1.7653,0.2533,-0.6148,0.5710,-39.4500,10.1250,-1.6500,
2.910411,-0.8388,-1.0352,-1.6986,0.2533,-0.6148,0.5710,-39.4500,10.1250,-1.6500,
2.913805,-0.8388,-1.0352,-1.6986,0.2798,-0.7791,0.6881,-39.4500,10.1250,-1.6500,
2.925714,-0.8388,-1.0352,-1.6986,0.2798,-0.7791,0.6881,-39.4500,10.1250,-1.6500,
2.928300,-0.9283,-0.4557,-1.5266,0.2798,-0.7791,0.6881,-39.4500,10.1250,-1.6500,
2.936861,-0.9283,-0.4557,-1.5266,0.2798,-0.7791,0.6881,-39.2250,12.0000,0.1500,
2.945285,-0.9283,-0.4557,-1.5266,0.2798,-0.7791,0.6881,-39.2250,12.0000,0.1500,
2.947413,-0.5988,0.3960,-1.5593,0.2798,-0.7791,0.6881,-39.2250,12.0000,0.1500,
2.964431,-0.5988,0.3960,-1.5593,0.2798,-0.7791,0.6881,-39.2250,12.0000,0.1500,
2.966515,-0.4252,0.9811,-1.8200,0.2798,-0.7791,0.6881,-39.2250,12.0000,0.1500,
2.978856,-0.4252,0.9811,-1.8200,0.1358,-0.8272,0.5765,-39.2250,12.0000,0.1500,
2.986380,-0.4252,0.9811,-1.8200,0.1358,-0.8272,0.5765,-39.2250,12.0000,0.1500,
2.988636,-0.4369,1.3466,-1.6712,0.1358,-0.8272,0.5765,-39.2250,12.0000,0.1500,
3.009772,-0.4369,1.3466,-1.6712,0.1358,-0.8272,0.5765,-39.2250,12.0000,0.1500,
3.011171,-0.7568,1.4647,-1.5397,0.1358,-0.8272,0.5765,-39.2250,12.0000,0.1500,
3.012521,-0.7568,1.4647,-1.5397,0.1358,-0.8272,0.5765,-39.4500,14.4750,1.9500,
3.024293,-0.7568,1.4647,-1.5397,0.1358,-0.8272,0.5765,-39.4500,14.4750,1.9500,
3.025897,-0.7954,1.4698,-1.4145,0.1358,-0.8272,0.5765,-39.4500,14.4750,1.9500,
3.043832,-0.7954,1.4698,-1.4145,0.1358,-0.8272,0.5765,-39.4500,14.4750,1.9500,
3.045136,-0.0905,1.4768,-1.1123,0.1358,-0.8272,0.5765,-39.4500,14.4750,1.9500,
3.048214,-0.0905,1.4768,-1.1123,-0.0651,-1.0236,0.5127,-39.4500,14.4750,1.9500,
3.062454,-0.0905,1.4768,-1.1123,-0.0651,-1.0236,0.5127,-39.4500,14.4750,1.9500,
3.064591,0.3926,1.3060,-0.8245,-0.0651,-1.0236,0.5127,-39.4500,14.4750,1.9500,
3.077772,0.3926,1.3060,-0.8245,-0.0651,-1.0236,0.5127,-38.2500,15.6000,4.7250,
3.087320,0.3926,1.3060,-0.8245,-0.0651,-1.0236,0.5127,-38.2500,15.6000,4.7250,
3.089233,0.0134,1.1316,-0.4663,-0.0651,-1.0236,0.5127,-38.2500,15.6000,4.7250,
3.104979,0.0134,1.1316,-0.4663,-0.0651,-1.0236,0.5127,-38.2500,15.6000,4.7250,
3.107572,-0.3867,1.3370,-0.6484,-0.0651,-1.0236,0.5127,-38.2500,15.6000,4.7250,
3.124075,-0.3867,1.3370,-0.6484,-0.1959,-0.8410,0.4403,-38.2500,15.6000,4.7250,
3.127757,-0.3867,1.3370,-0.6484,-0.1959,-0.8410,0.4403,-38.2500,15.6000,4.7250,
3.129369,-0.8652,1.7484,-0.7348,-0.1959,-0.8410,0.4403,-38.2500,15.6000,4.7250,
3.145522,-0.8652,1.7484,-0.7348,-0.1959,-0.8410,0.4403,-38.2500,15.6000,4.7250,
3.147785,-1.0155,2.0365,-0.0854,-0.1959,-0.8410,0.4403,-38.2500,15.6000,4.7250,
3.149168,-1.0155,2.0365,-0.0854,-0.1959,-0.8410,0.4403,-37.7250,16.6500,7.0500,
3.165344,-1.0155,2.0365,-0.0854,-0.1959,-0.8410,0.4403,-37.7250,16.6500,7.0500,
3.167964,-0.3831,1.9278,-0.3414,-0.1959,-0.8410,0.4403,-37.7250,16.6500,7.0500,
3.185008,-0.3831,1.9278,-0.3414,-0.1959,-0.8410,0.4403,-37.7250,16.6500,7.0500,
3.187510,0.3327,1.6570,-0.5297,-0.1959,-0.8410,0.4403,-37.7250,16.6500,7.0500,
3.189742,0.3327,1.6570,-0.5297,-0.1671,-0.9242,0.3905,-37.7250,16.6500,7.0500,
3.207805,0.3327,1.6570,-0.5297,-0.1671,-0.9242,0.3905,-37.7250,16.6500,7.0500,
3.209904,0.5347,1.5296,-0.4581,-0.1671,-0.9242,0.3905,-37.7250,16.6500,7.0500,
3.220211,0.5347,1.5296,-0.4581,-0.1671,-0.9242,0.3905,-37.0500,18.4500,9.3750,
3.223707,0.5347,1.5296,-0.4581,-0.1671,-0.9242,0.3905,-37.0500,18.4500,9.3750,
3.225124,0.8181,1.2637,-0.2749,-0.1671,-0.9242,0.3905,-37.0500,18.4500,9.3750,
3.244393,0.8181,1.2637,-0.2749,-0.1671,-0.9242,0.3905,-37.0500,18.4500,9.3750,
3.245970,1.1002,0.9987,-0.4607,-0.1671,-0.9242,0.3905,-37.0500,18.4500,9.3750,
3.258354,1.1002,0.9987,-0.4607,-0.2181,-0.6157,0.1741,-37.0500,18.4500,9.3750,
3.265149,1.1002,0.9987,-0.4607,-0.2181,-0.6157,0.1741,-37.0500,18.4500,9.3750,
3.266515,0.9634,0.9487,0.3884,-0.2181,-0.6157,0.1741,-37.0500,18.4500,9.3750,
3.283479,0.9634,0.9487,0.3884,-0.2181,-0.6157,0.1741,-37.0500,18.4500,9.3750,
3.284967,0.8891,0.6163,0.9756,-0.2181,-0.6157,0.1741,-37.0500,18.4500,9.3750,
3.289194,0.8891,0.6163,0.9756,-0.2181,-0.6157,0.1741,-35.5500,19.8750,11.8500,
3.303354,0.8891,0.6163,0.9756,-0.2181,-0.6157,0.1741,-35.5500,19.8750,11.8500,
3.306374,1.1713,-0.0082,1.4760,-0.2181,-0.6157,0.1741,-35.5500,19.8750,11.8500,
3.325348,1.1713,-0.0082,1.4760,-0.2181,-0.6157,0.1741,-35.5500,19.8750,11.8500,
3.327915,1.9960,-0.7191,1.9042,-0.2181,-0.6157,0.1741,-35.5500,19.8750,11.8500,
3.329679,1.9960,-0.7191,1.9042,-0.1006,0.0037,0.2008,-35.5500,19.8750,11.8500,
3.341332,1.9960,-0.7191,1.9042,-0.1006,0.0037,0.2008,-35.5500,19.8750,11.8500,
3.343536,2.4219,-1.1403,1.8639,-0.1006,0.0037,0.2008,-35.5500,19.8750,11.8500,
3.356906,2.4219,-1.1403,1.8639,-0.1006,0.0037,0.2008,-35.4750,19.5750,12.3750,
3.365330,2.4219,-1.1403,1.8639,-0.1006,0.0037,0.2008,-35.4750,19.5750,12.3750,
3.367155,2.4139,-1.1718,1.8591,-0.1006,0.0037,0.2008,-35.4750,19.5750,12.3750,
3.387876,2.4139,-1.1718,1.8591,-0.1006,0.0037,0.2008,-35.4750,19.5750,12.3750,
3.390408,1.6810,-1.2530,1.6759,-0.1006,0.0037,0.2008,-35.4750,19.5750,12.3750,
3.399345,1.6810,-1.2530,1.6759,0.0872,1.0923,0.0279,-35.4750,19.5750,12.3750,
3.409589,1.6810,-1.2530,1.6759,0.0872,1.0923,0.0279,-35.4750,19.5750,12.3750,
3.411411,0.7438,-1.1283,1.3951,0.0872,1.0923,0.0279,-35.4750,19.5750,12.3750,
3.424049,0.7438,-1.1283,1.3951,0.0872,1.0923,0.0279,-35.4750,19.5750,12.3750,
3.426003,0.1046,-0.7385,1.0460,0.0872,1.0923,0.0279,-35.4750,19.5750,12.3750,
3.428099,0.1046,-0.7385,1.0460,0.0872,1.0923,0.0279,-36.2250,19.4250,10.2750,
3.444372,0.1046,-0.7385,1.0460,0.0872,1.0923,0.0279,-36.2250,19.4250,10.2750,
3.446597,-0.3637,-0.4484,1.1937,0.0872,1.0923,0.0279,-36.2250,19.4250,10.2750,
3.463890,-0.3637,-0.4484,1.1937,0.0872,1.0923,0.0279,-36.2250,19.4250,10.2750,
3.466521,-0.5842,-0.1328,0.9093,0.0872,1.0923,0.0279,-36.2250,19.4250,10.2750,
3.468851,-0.5842,-0.1328,0.9093,0.2662,1.4779,-0.2416,-36.2250,19.4250,10.2750,
3.483397,-0.5842,-0.1328,0.9093,0.2662,1.4779,-0.2416,-36.2250,19.4250,10.2750,
3.486428,-0.8460,0.4475,1.3727,0.2662,1.4779,-0.2416,-36.2250,19.4250,10.2750,
3.496791,-0.8460,0.4475,1.3727,0.2662,1.4779,-0.2416,-37.9500,19.4250,5.8500,
3.502431,-0.8460,0.4475,1.3727,0.2662,1.4779,-0.2416,-37.9500,19.4250,5.8500,
3.504242,-0.7283,0.4387,1.3426,0.2662,1.4779,-0.2416,-37.9500,19.4250,5.8500,
3.522685,-0.7283,0.4387,1.3426,0.2662,1.4779,-0.2416,-37.9500,19.4250,5.8500,
3.525238,-0.4476,-0.1267,0.4123,0.2662,1.4779,-0.2416,-37.9500,19.4250,5.8500,
3.539862,-0.4476,-0.1267,0.4123,0.0730,1.5293,-0.2492,-37.9500,19.4250,5.8500,
3.543206,-0.4476,-0.1267,0.4123,0.0730,1.5293,-0.2492,-37.9500,19.4250,5.8500,
3.545256,-0.9111,-0.2659,-0.0545,0.0730,1.5293,-0.2492,-37.9500,19.4250,5.8500,
3.561956,-0.9111,-0.2659,-0.0545,0.0730,1.5293,-0.2492,-37.9500,19.4250,5.8500,
3.564677,-1.0165,0.0790,-0.0913,0.0730,1.5293,-0.2492,-37.9500,19.4250,5.8500,
3.571284,-1.0165,0.0790,-0.0913,0.0730,1.5293,-0.2492,-38.5500,18.5250,2.2500,
3.580409,-1.0165,0.0790,-0.0913,0.0730,1.5293,-0.2492,-38.5500,18.5250,2.2500,
3.581945,-1.7198,0.9009,0.0858,0.0730,1.5293,-0.2492,-38.5500,18.5250,2.2500,
3.600214,-1.7198,0.9009,0.0858,0.0730,1.5293,-0.2492,-38.5500,18.5250,2.2500,
3.602837,-2.2758,1.4738,0.1285,0.0730,1.5293,-0.2492,-38.5500,18.5250,2.2500,
3.605392,-2.2758,1.4738,0.1285,-0.2396,1.0410,-0.0519,-38.5500,18.5250,2.2500,
3.623754,-2.2758,1.4738,0.1285,-0.2396,1.0410,-0.0519,-38.5500,18.5250,2.2500,
3.626337,-1.8189,1.2375,0.0859,-0.2396,1.0410,-0.0519,-38.5500,18.5250,2.2500,
3.639367,-1.8189,1.2375,0.0859,-0.2396,1.0410,-0.0519,-38.5500,18.5250,2.2500,
3.641117,-0.6175,0.6548,-0.1071,-0.2396,1.0410,-0.0519,-38.5500,18.5250,2.2500,
3.643066,-0.6175,0.6548,-0.1071,-0.2396,1.0410,-0.0519,-40.0500,18.1500,-0.9750,
3.656446,-0.6175,0.6548,-0.1071,-0.2396,1.0410,-0.0519,-40.0500,18.1500,-0.9750,
3.658696,0.5602,0.1478,-0.1725,-0.2396,1.0410,-0.0519,-40.0500,18.1500,-0.9750,
3.673811,0.5602,0.1478,-0.1725,-0.3147,0.7501,0.0211,-40.0500,18.1500,-0.9750,
3.678642,0.5602,0.1478,-0.1725,-0.3147,0.7501,0.0211,-40.0500,18.1500,-0.9750,
3.680156,1.0027,-0.3480,0.6579,-0.3147,0.7501,0.0211,-40.0500,18.1500,-0.9750,
3.703312,1.0027,-0.3480,0.6579,-0.3147,0.7501,0.0211,-40.0500,18.1500,-0.9750,
3.706236,1.0611,-0.8092,1.4763,-0.3147,0.7501,0.0211,-40.0500,18.1500,-0.9750,
3.708245,1.0611,-0.8092,1.4763,-0.3147,0.7501,0.0211,-40.5750,18.4500,-2.6250,
3.724066,1.0611,-0.8092,1.4763,-0.3147,0.7501,0.0211,-40.5750,18.4500,-2.6250,
3.726225,-0.3902,-1.0995,1.1955,-0.3147,0.7501,0.0211,-40.5750,18.4500,-2.6250,
3.741810,-0.3902,-1.0995,1.1955,-0.3147,0.7501,0.0211,-40.5750,18.4500,-2.6250,
3.744029,-1.1511,-0.6222,0.4347,-0.3147,0.7501,0.0211,-40.5750,18.4500,-2.6250,
3.746428,-1.1511,-0.6222,0.4347,-0.1851,0.6861,-0.3285,-40.5750,18.4500,-2.6250,
3.762374,-1.1511,-0.6222,0.4347,-0.1851,0.6861,-0.3285,-40.5750,18.4500,-2.6250,
3.764696,-1.2096,0.3915,0.2252,-0.1851,0.6861,-0.3285,-40.5750,18.4500,-2.6250,
3.772782,-1.2096,0.3915,0.2252,-0.1851,0.6861,-0.3285,-41.2500,18.3750,-3.7500,
3.781601,-1.2096,0.3915,0.2252,-0.1851,0.6861,-0.3285,-41.2500,18.3750,-3.7500,
3.784721,-1.3423,1.1357,0.0973,-0.1851,0.6861,-0.3285,-41.2500,18.3750,-3.7500,
3.801652,-1.3423,1.1357,0.0973,-0.1851,0.6861,-0.3285,-41.2500,18.3750,-3.7500,
3.804999,-1.9261,1.2043,-0.0448,-0.1851,0.6861,-0.3285,-41.2500,18.3750,-3.7500,
3.815384,-1.9261,1.2043,-0.0448,-0.2533,0.2162,0.0006,-41.2500,18.3750,-3.7500,
3.824782,-1.9261,1.2043,-0.0448,-0.2533,0.2162,0.0006,-41.2500,18.3750,-3.7500,
3.826871,-1.9562,0.8322,-0.1474,-0.2533,0.2162,0.0006,-41.2500,18.3750,-3.7500,
3.840156,-1.9562,0.8322,-0.1474,-0.2533,0.2162,0.0006,-40.9500,17.7750,-4.9500,
3.844448,-1.9562,0.8322,-0.1474,-0.2533,0.2162,0.0006,-40.9500,17.7750,-4.9500,
3.846022,-1.3341,0.1972,-0.4671,-0.2533,0.2162,0.0006,-40.9500,17.7750,-4.9500,
3.855872,-1.3341,0.1972,-0.4671,-0.2533,0.2162,0.0006,-40.9500,17.7750,-4.9500,
3.857518,-0.7182,-1.2665,-0.6915,-0.2533,0.2162,0.0006,-40.9500,17.7750,-4.9500,
3.879977,-0.7182,-1.2665,-0.6915,-0.2533,0.2162,0.0006,-40.9500,17.7750,-4.9500,
3.883386,0.0913,-2.9179,-0.9685,-0.2533,0.2162,0.0006,-40.9500,17.7750,-4.9500,
3.892502,0.0913,-2.9179,-0.9685,-0.3102,-0.2472,-0.0072,-40.9500,17.7750,-4.9500,
3.899716,0.0913,-2.9179,-0.9685,-0.3102,-0.2472,-0.0072,-40.9500,17.7750,-4.9500,
3.901611,-0.1439,-2.7652,-0.2885,-0.3102,-0.2472,-0.0072,-40.9500,17.7750,-4.9500,
3.909310,-0.1439,-2.7652,-0.2885,-0.3102,-0.2472,-0.0072,-41.4750,17.9250,-4.1250,
3.918638,-0.1439,-2.7652,-0.2885,-0.3102,-0.2472,-0.0072,-41.4750,17.9250,-4.1250,
3.920589,-0.4161,-1.2819,0.5069,-0.3102,-0.2472,-0.0072,-41.4750,17.9250,-4.1250,
3.938620,-0.4161,-1.2819,0.5069,-0.3102,-0.2472,-0.0072,-41.4750,17.9250,-4.1250,
3.939971,-1.0041,-0.1819,0.4073,-0.3102,-0.2472,-0.0072,-41.4750,17.9250,-4.1250,
3.953000,-1.0041,-0.1819,0.4073,0.2982,-0.5495,-0.2037,-41.4750,17.9250,-4.1250,
3.955305,-1.0041,-0.1819,0.4073,0.2982,-0.5495,-0.2037,-41.4750,17.9250,-4.1250,
3.956507,-1.4476,0.8553,-0.0234,0.2982,-0.5495,-0.2037,-41.4750,17.9250,-4.1250,
3.983050,-1.4476,0.8553,-0.0234,0.2982,-0.5495,-0.2037,-41.4750,17.9250,-4.1250,
3.984855,-1.8946,1.2687,0.2418,0.2982,-0.5495,-0.2037,-41.4750,17.9250,-4.1250,
3.986576,-1.8946,1.2687,0.2418,0.2982,-0.5495,-0.2037,-41.4750,17.5500,-3.2250,
4.001992,-1.8946,1.2687,0.2418,0.2982,-0.5495,-0.2037,-41.4750,17.5500,-3.2250,
4.004280,-2.0231,0.2237,-0.1849,0.2982,-0.5495,-0.2037,-41.4750,17.5500,-3.2250,
4.022527,-2.0231,0.2237,-0.1849,0.2982,-0.5495,-0.2037,-41.4750,17.5500,-3.2250,
4.024357,-1.2688,-0.3956,-0.0014,0.2982,-0.5495,-0.2037,-41.4750,17.5500,-3.2250,
4.026287,-1.2688,-0.3956,-0.0014,0.3572,-0.9583,-0.1077,-41.4750,17.5500,-3.2250,
4.040721,-1.2688,-0.3956,-0.0014,0.3572,-0.9583,-0.1077,-41.4750,17.5500,-3.2250,
4.044024,-0.4623,-0.5112,0.1349,0.3572,-0.9583,-0.1077,-41.4750,17.5500,-3.2250,
4.057255,-0.4623,-0.5112,0.1349,0.3572,-0.9583,-0.1077,-40.8750,17.7750,-0.4500,
4.059939,-0.4623,-0.5112,0.1349,0.3572,-0.9583,-0.1077,-40.8750,17.7750,-0.4500,
4.061478,-0.5882,-0.7252,-0.2802,0.3572,-0.9583,-0.1077,-40.8750,17.7750,-0.4500,
4.079570,-0.5882,-0.7252,-0.2802,0.3572,-0.9583,-0.1077,-40.8750,17.7750,-0.4500,
4.082551,-0.9383,-0.6697,-0.5324,0.3572,-0.9583,-0.1077,-40.8750,17.7750,-0.4500,
4.094077,-0.9383,-0.6697,-0.5324,0.5991,-1.4590,-0.3228,-40.8750,17.7750,-0.4500,
4.099161,-0.9383,-0.6697,-0.5324,0.5991,-1.4590,-0.3228,-40.8750,17.7750,-0.4500,
4.100987,-1.1704,-0.2607,-0.9277,0.5991,-1.4590,-0.3228,-40.8750,17.7750,-0.4500,
4.119001,-1.1704,-0.2607,-0.9277,0.5991,-1.4590,-0.3228,-40.8750,17.7750,-0.4500,
4.122124,-0.8143,0.5146,-1.0228,0.5991,-1.4590,-0.3228,-40.8750,17.7750,-0.4500,
4.124533,-0.8143,0.5146,-1.0228,0.5991,-1.4590,-0.3228,-40.8750,17.3250,3.3750,
4.140472,-0.8143,0.5146,-1.0228,0.5991,-1.4590,-0.3228,-40.8750,17.3250,3.3750,
4.142900,0.3822,0.8943,-1.3610,0.5991,-1.4590,-0.3228,-40.8750,17.3250,3.3750,
4.155468,0.3822,0.8943,-1.3610,0.5991,-1.4590,-0.3228,-40.8750,17.3250,3.3750,
4.157170,1.5615,0.7765,-1.3546,0.5991,-1.4590,-0.3228,-40.8750,17.3250,3.3750,
4.162750,1.5615,0.7765,-1.3546,0.7660,-1.5728,-0.3349,-40.8750,17.3250,3.3750,
4.177207,1.5615,0.7765,-1.3546,0.7660,-1.5728,-0.3349,-40.8750,17.3250,3.3750,
4.179577,1.8852,0.0142,-0.7358,0.7660,-1.5728,-0.3349,-40.8750,17.3250,3.3750,
4.187521,1.8852,0.0142,-0.7358,0.7660,-1.5728,-0.3349,-40.0500,17.1000,7.0500,
4.196342,1.8852,0.0142,-0.7358,0.7660,-1.5728,-0.3349,-40.0500,17.1000,7.0500,
4.198309,1.2836,-0.9169,-0.1611,0.7660,-1.5728,-0.3349,-40.0500,17.1000,7.0500,
4.216400,1.2836,-0.9169,-0.1611,0.7660,-1.5728,-0.3349,-40.0500,17.1000,7.0500,
4.218868,0.6552,-1.3093,0.1321,0.7660,-1.5728,-0.3349,-40.0500,17.1000,7.0500,
4.231021,0.6552,-1.3093,0.1321,0.7414,-1.2325,-0.5863,-40.0500,17.1000,7.0500,
4.236403,0.6552,-1.3093,0.1321,0.7414,-1.2325,-0.5863,-40.0500,17.1000,7.0500,
4.238890,0.6391,-1.5943,0.2115,0.7414,-1.2325,-0.5863,-40.0500,17.1000,7.0500,
4.254595,0.6391,-1.5943,0.2115,0.7414,-1.2325,-0.5863,-40.0500,17.1000,7.0500,
4.257061,0.3812,-1.3396,0.5084,0.7414,-1.2325,-0.5863,-40.0500,17.1000,7.0500,
4.260641,0.3812,-1.3396,0.5084,0.7414,-1.2325,-0.5863,-38.6250,16.2750,9.7500,
4.279744,0.3812,-1.3396,0.5084,0.7414,-1.2325,-0.5863,-38.6250,16.2750,9.7500,
4.281811,1.2377,-1.2144,0.4448,0.7414,-1.2325,-0.5863,-38.6250,16.2750,9.7500,
4.299310,1.2377,-1.2144,0.4448,0.7414,-1.2325,-0.5863,-38.6250,16.2750,9.7500,
4.301519,1.8991,-1.0741,-0.1199,0.7414,-1.2325,-0.5863,-38.6250,16.2750,9.7500,
4.305965,1.8991,-1.0741,-0.1199,0.9902,-0.3596,-0.8135,-38.6250,16.2750,9.7500,
4.323593,1.8991,-1.0741,-0.1199,0.9902,-0.3596,-0.8135,-38.6250,16.2750,9.7500,
4.325581,2.2299,-0.8662,-0.5320,0.9902,-0.3596,-0.8135,-38.6250,16.2750,9.7500,
4.329504,2.2299,-0.8662,-0.5320,0.9902,-0.3596,-0.8135,-38.3250,15.2250,11.3250,
4.338398,2.2299,-0.8662,-0.5320,0.9902,-0.3596,-0.8135,-38.3250,15.2250,11.3250,
4.340241,2.2324,-0.9545,-0.7126,0.9902,-0.3596,-0.8135,-38.3250,15.2250,11.3250,
4.355497,2.2324,-0.9545,-0.7126,0.9902,-0.3596,-0.8135,-38.3250,15.2250,11.3250,
4.357032,2.0221,-0.9725,-0.5756,0.9902,-0.3596,-0.8135,-38.3250,15.2250,11.3250,
4.372912,2.0221,-0.9725,-0.5756,1.1131,0.3407,-1.0065,-38.3250,15.2250,11.3250,
4.377648,2.0221,-0.9725,-0.5756,1.1131,0.3407,-1.0065,-38.3250,15.2250,11.3250,
4.379241,1.3288,-0.9604,0.2009,1.1131,0.3407,-1.0065,-38.3250,15.2250,11.3250,
4.397955,1.3288,-0.9604,0.2009,1.1131,0.3407,-1.0065,-38.3250,15.2250,11.3250,
4.400353,0.6599,-1.3498,1.3996,1.1131,0.3407,-1.0065,-38.3250,15.2250,11.3250,
4.402353,0.6599,-1.3498,1.3996,1.1131,0.3407,-1.0065,-39.1500,14.4750,10.9500,
4.416641,0.6599,-1.3498,1.3996,1.1131,0.3407,-1.0065,-39.1500,14.4750,10.9500,
4.419565,0.0900,-1.7708,1.6534,1.1131,0.3407,-1.0065,-39.1500,14.4750,10.9500,
4.436865,0.0900,-1.7708,1.6534,1.1131,0.3407,-1.0065,-39.1500,14.4750,10.9500,
4.440060,-0.2523,-1.9613,0.9096,1.1131,0.3407,-1.0065,-39.1500,14.4750,10.9500,
4.442045,-0.2523,-1.9613,0.9096,1.3517,0.5423,-0.8454,-39.1500,14.4750,10.9500,
4.457123,-0.2523,-1.9613,0.9096,1.3517,0.5423,-0.8454,-39.1500,14.4750,10.9500,
4.459343,-0.5169,-1.5952,0.0820,1.3517,0.5423,-0.8454,-39.1500,14.4750,10.9500,
4.472468,-0.5169,-1.5952,0.0820,1.3517,0.5423,-0.8454,-40.0500,12.3750,8.9250,
4.475610,-0.5169,-1.5952,0.0820,1.3517,0.5423,-0.8454,-40.0500,12.3750,8.9250,
4.477027,-0.4691,-0.9682,-0.3982,1.3517,0.5423,-0.8454,-40.0500,12.3750,8.9250,
4.495357,-0.4691,-0.9682,-0.3982,1.3517,0.5423,-0.8454,-40.0500,12.3750,8.9250,
4.497874,-0.5809,-0.1001,-0.5306,1.3517,0.5423,-0.8454,-40.0500,12.3750,8.9250,
4.509383,-0.5809,-0.1001,-0.5306,1.7183,0.4000,-0.5305,-40.0500,12.3750,8.9250,
4.514473,-0.5809,-0.1001,-0.5306,1.7183,0.4000,-0.5305,-40.0500,12.3750,8.9250,
4.516779,-0.6410,0.7494,-0.4426,1.7183,0.4000,-0.5305,-40.0500,12.3750,8.9250,
4.534107,-0.6410,0.7494,-0.4426,1.7183,0.4000,-0.5305,-40.0500,12.3750,8.9250,
4.537087,-0.5073,1.1290,-0.5304,1.7183,0.4000,-0.5305,-40.0500,12.3750,8.9250,
4.539228,-0.5073,1.1290,-0.5304,1.7183,0.4000,-0.5305,-40.8750,12.6000,6.7500,
4.557177,-0.5073,1.1290,-0.5304,1.7183,0.4000,-0.5305,-40.8750,12.6000,6.7500,
4.559571,-0.5352,1.4796,-0.7345,1.7183,0.4000,-0.5305,-40.8750,12.6000,6.7500,
4.574373,-0.5352,1.4796,-0.7345,1.7183,0.4000,-0.5305,-40.8750,12.6000,6.7500,
4.576843,-0.3552,1.4806,-0.6377,1.7183,0.4000,-0.5305,-40.8750,12.6000,6.7500,
4.578998,-0.3552,1.4806,-0.6377,1.5867,0.2665,-0.4629,-40.8750,12.6000,6.7500,
4.597540,-0.3552,1.4806,-0.6377,1.5867,0.2665,-0.4629,-40.8750,12.6000,6.7500,
4.600196,-0.7348,1.5989,-0.3936,1.5867,0.2665,-0.4629,-40.8750,12.6000,6.7500,
4.617659,-0.7348,1.5989,-0.3936,1.5867,0.2665,-0.4629,-40.9500,12.3000,4.6500,
4.621818,-0.7348,1.5989,-0.3936,1.5867,0.2665,-0.4629,-40.9500,12.3000,4.6500,
4.623512,-0.9472,1.6737,-0.0935,1.5867,0.2665,-0.4629,-40.9500,12.3000,4.6500,
4.636913,-0.9472,1.6737,-0.0935,1.5867,0.2665,-0.4629,-40.9500,12.3000,4.6500,
4.640155,-0.6900,1.8692,-0.3247,1.5867,0.2665,-0.4629,-40.9500,12.3000,4.6500,
4.652235,-0.6900,1.8692,-0.3247,1.5079,0.2083,-0.3329,-40.9500,12.3000,4.6500,
4.655466,-0.6900,1.8692,-0.3247,1.5079,0.2083,-0.3329,-40.9500,12.3000,4.6500,
4.657719,-0.7380,2.1361,-0.6493,1.5079,0.2083,-0.3329,-40.9500,12.3000,4.6500,
4.676088,-0.7380,2.1361,-0.6493,1.5079,0.2083,-0.3329,-40.9500,12.3000,4.6500,
4.679780,-0.5642,2.4319,-0.7525,1.5079,0.2083,-0.3329,-40.9500,12.3000,4.6500,
4.682825,-0.5642,2.4319,-0.7525,1.5079,0.2083,-0.3329,-42.1500,12.5250,3.2250,
4.696857,-0.5642,2.4319,-0.7525,1.5079,0.2083,-0.3329,-42.1500,12.5250,3.2250,
4.701723,-0.3691,2.3978,-0.6974,1.5079,0.2083,-0.3329,-42.1500,12.5250,3.2250,
4.715818,-0.3691,2.3978,-0.6974,1.5079,0.2083,-0.3329,-42.1500,12.5250,3.2250,
4.719723,-0.1645,2.5278,-0.7699,1.5079,0.2083,-0.3329,-42.1500,12.5250,3.2250,
4.722777,-0.1645,2.5278,-0.7699,1.2626,0.0686,-0.0744,-42.1500,12.5250,3.2250,
4.737731,-0.1645,2.5278,-0.7699,1.2626,0.0686,-0.0744,-42.1500,12.5250,3.2250,
4.741538,0.0267,2.9211,-0.8983,1.2626,0.0686,-0.0744,-42.1500,12.5250,3.2250,
4.748055,0.0267,2.9211,-0.8983,1.2626,0.0686,-0.0744,-41.6250,12.5250,2.1750,
4.758938,0.0267,2.9211,-0.8983,1.2626,0.0686,-0.0744,-41.6250,12.5250,2.1750,
4.761300,-0.1756,3.1390,-1.0333,1.2626,0.0686,-0.0744,-41.6250,12.5250,2.1750,
4.773424,-0.1756,3.1390,-1.0333,1.2626,0.0686,-0.0744,-41.6250,12.5250,2.1750,
4.775551,-0.7481,2.5210,-1.1279,1.2626,0.0686,-0.0744,-41.6250,12.5250,2.1750,
4.788372,-0.7481,2.5210,-1.1279,1.1133,0.1434,-0.2060,-41.6250,12.5250,2.1750,
4.793269,-0.7481,2.5210,-1.1279,1.1133,0.1434,-0.2060,-41.6250,12.5250,2.1750,
4.794766,-0.7014,1.3086,-1.0261,1.1133,0.1434,-0.2060,-41.6250,12.5250,2.1750,
4.812709,-0.7014,1.3086,-1.0261,1.1133,0.1434,-0.2060,-41.6250,12.5250,2.1750,
4.814418,-0.4233,0.2678,-1.0709,1.1133,0.1434,-0.2060,-41.6250,12.5250,2.1750,
4.820419,-0.4233,0.2678,-1.0709,1.1133,0.1434,-0.2060,-41.6250,13.8000,0.8250,
4.832115,-0.4233,0.2678,-1.0709,1.1133,0.1434,-0.2060,-41.6250,13.8000,0.8250,
4.833901,0.2212,-1.1991,-1.6038,1.1133,0.1434,-0.2060,-41.6250,13.8000,0.8250,
4.851656,0.2212,-1.1991,-1.6038,1.1133,0.1434,-0.2060,-41.6250,13.8000,0.8250,
4.853343,0.9123,-3.1229,-2.2597,1.1133,0.1434,-0.2060,-41.6250,13.8000,0.8250,
4.861288,0.9123,-3.1229,-2.2597,1.1232,0.4546,-0.1286,-41.6250,13.8000,0.8250,
4.875878,0.9123,-3.1229,-2.2597,1.1232,0.4546,-0.1286,-41.6250,13.8000,0.8250,
4.877562,0.8399,-6.1355,-2.9172,1.1232,0.4546,-0.1286,-41.6250,13.8000,0.8250,
4.886852,0.8399,-6.1355,-2.9172,1.1232,0.4546,-0.1286,-41.8500,14.0250,-0.4500,
4.895759,0.8399,-6.1355,-2.9172,1.1232,0.4546,-0.1286,-41.8500,14.0250,-0.4500,
4.897035,0.3896,-7.9345,-2.4747,1.1232,0.4546,-0.1286,-41.8500,14.0250,-0.4500,
4.915414,0.3896,-7.9345,-2.4747,1.1232,0.4546,-0.1286,-41.8500,14.0250,-0.4500,
4.917362,0.2560,-7.0200,-0.8668,1.1232,0.4546,-0.1286,-41.8500,14.0250,-0.4500,
4.929899,0.2560,-7.0200,-0.8668,1.7050,0.4168,0.4746,-41.8500,14.0250,-0.4500,
4.938422,0.2560,-7.0200,-0.8668,1.7050,0.4168,0.4746,-41.8500,14.0250,-0.4500,
4.940367,1.3381,-4.4792,-1.1058,1.7050,0.4168,0.4746,-41.8500,14.0250,-0.4500,
4.955756,1.3381,-4.4792,-1.1058,1.7050,0.4168,0.4746,-41.8500,14.0250,-0.4500,
4.957350,2.3332,-1.2215,-0.4155,1.7050,0.4168,0.4746,-41.8500,14.0250,-0.4500,
4.958857,2.3332,-1.2215,-0.4155,1.7050,0.4168,0.4746,-42.5250,15.3750,-2.5500,
4.974044,2.3332,-1.2215,-0.4155,1.7050,0.4168,0.4746,-42.5250,15.3750,-2.5500,
4.975716,1.9698,1.2212,1.8333,1.7050,0.4168,0.4746,-42.5250,15.3750,-2.5500,
4.993460,1.9698,1.2212,1.8333,1.7050,0.4168,0.4746,-42.5250,15.3750,-2.5500,
4.994963,2.2039,3.1810,2.8833,1.7050,0.4168,0.4746,-42.5250,15.3750,-2.5500,
4.998089,2.2039,3.1810,2.8833,1.3970,0.2288,0.9703,-42.5250,15.3750,-2.5500,
5.013031,2.2039,3.1810,2.8833,1.3970,0.2288,0.9703,-42.5250,15.3750,-2.5500,
5.014848,3.6532,6.1450,1.4225,1.3970,0.2288,0.9703,-42.5250,15.3750,-2.5500,
5.026915,3.6532,6.1450,1.4225,1.3970,0.2288,0.9703,-41.8500,18.2250,-4.1250,
5.032672,3.6532,6.1450,1.4225,1.3970,0.2288,0.9703,-41.8500,18.2250,-4.1250,
5.033836,5.2971,8.7838,1.0919,1.3970,0.2288,0.9703,-41.8500,18.2250,-4.1250,
5.052073,5.2971,8.7838,1.0919,1.3970,0.2288,0.9703,-41.8500,18.2250,-4.1250,
5.053800,4.1410,9.6392,0.4758,1.3970,0.2288,0.9703,-41.8500,18.2250,-4.1250,
5.068355,4.1410,9.6392,0.4758,-0.2847,1.2220,0.9961,-41.8500,18.2250,-4.1250,
5.072156,4.1410,9.6392,0.4758,-0.2847,1.2220,0.9961,-41.8500,18.2250,-4.1250,
5.073174,0.7598,7.7214,0.7761,-0.2847,1.2220,0.9961,-41.8500,18.2250,-4.1250,
5.091559,0.7598,7.7214,0.7761,-0.2847,1.2220,0.9961,-41.8500,18.2250,-4.1250,
5.093152,-0.0449,3.0740,2.2198,-0.2847,1.2220,0.9961,-41.8500,18.2250,-4.1250,
5.096813,-0.0449,3.0740,2.2198,-0.2847,1.2220,0.9961,-40.7250,22.1250,-6.5250,
5.111247,-0.0449,3.0740,2.2198,-0.2847,1.2220,0.9961,-40.7250,22.1250,-6.5250,
5.113020,1.1133,-0.5081,2.4858,-0.2847,1.2220,0.9961,-40.7250,22.1250,-6.5250,
5.130724,1.1133,-0.5081,2.4858,-0.2847,1.2220,0.9961,-40.7250,22.1250,-6.5250,
5.133137,0.4391,-2.5684,0.6189,-0.2847,1.2220,0.9961,-40.7250,22.1250,-6.5250,
5.137569,0.4391,-2.5684,0.6189,-1.6473,1.5160,0.1611,-40.7250,22.1250,-6.5250,
5.152668,0.4391,-2.5684,0.6189,-1.6473,1.5160,0.1611,-40.7250,22.1250,-6.5250,
5.156078,-2.2245,-4.0743,0.4393,-1.6473,1.5160,0.1611,-40.7250,22.1250,-6.5250,
5.174879,-2.2245,-4.0743,0.4393,-1.6473,1.5160,0.1611,-40.3500,23.2500,-8.8500,
5.176849,-2.2245,-4.0743,0.4393,-1.6473,1.5160,0.1611,-40.3500,23.2500,-8.8500,
5.177926,-4.8030,-5.9211,1.3339,-1.6473,1.5160,0.1611,-40.3500,23.2500,-8.8500,
5.194500,-4.8030,-5.9211,1.3339,-1.6473,1.5160,0.1611,-40.3500,23.2500,-8.8500,
5.196510,-4.6422,-6.7370,0.6852,-1.6473,1.5160,0.1611,-40.3500,23.2500,-8.8500,
5.208903,-4.6422,-6.7370,0.6852,-1.3694,0.6970,-0.4462,-40.3500,23.2500,-8.8500,
5.214121,-4.6422,-6.7370,0.6852,-1.3694,0.6970,-0.4462,-40.3500,23.2500,-8.8500,
5.215628,-2.1198,-5.3889,0.5971,-1.3694,0.6970,-0.4462,-40.3500,23.2500,-8.8500,
5.234759,-2.1198,-5.3889,0.5971,-1.3694,0.6970,-0.4462,-40.3500,23.2500,-8.8500,
5.238394,-0.0492,-4.0757,0.8085,-1.3694,0.6970,-0.4462,-40.3500,23.2500,-8.8500,
5.240336,-0.0492,-4.0757,0.8085,-1.3694,0.6970,-0.4462,-40.4250,22.8750,-8.6250,
5.260040,-0.0492,-4.0757,0.8085,-1.3694,0.6970,-0.4462,-40.4250,22.8750,-8.6250,
5.263102,0.5322,-3.1168,-0.7097,-1.3694,0.6970,-0.4462,-40.4250,22.8750,-8.6250,
5.273262,0.5322,-3.1168,-0.7097,-1.3694,0.6970,-0.4462,-40.4250,22.8750,-8.6250,
5.275377,0.6342,-2.4509,-0.9916,-1.3694,0.6970,-0.4462,-40.4250,22.8750,-8.6250,
5.277362,0.6342,-2.4509,-0.9916,-0.3363,0.3581,-0.1735,-40.4250,22.8750,-8.6250,
5.292018,0.6342,-2.4509,-0.9916,-0.3363,0.3581,-0.1735,-40.4250,22.8750,-8.6250,
5.294375,0.1305,-2.5702,0.1958,-0.3363,0.3581,-0.1735,-40.4250,22.8750,-8.6250,
5.307085,0.1305,-2.5702,0.1958,-0.3363,0.3581,-0.1735,-40.4250,22.6500,-9.4500,
5.309120,0.1305,-2.5702,0.1958,-0.3363,0.3581,-0.1735,-40.4250,22.6500,-9.4500,
5.310519,-0.5854,-2.3125,1.3614,-0.3363,0.3581,-0.1735,-40.4250,22.6500,-9.4500,
5.331244,-0.5854,-2.3125,1.3614,-0.3363,0.3581,-0.1735,-40.4250,22.6500,-9.4500,
5.333573,-1.3942,-2.4455,1.7539,-0.3363,0.3581,-0.1735,-40.4250,22.6500,-9.4500,
5.345800,-1.3942,-2.4455,1.7539,-0.0189,0.5282,-0.3144,-40.4250,22.6500,-9.4500,
5.354483,-1.3942,-2.4455,1.7539,-0.0189,0.5282,-0.3144,-40.4250,22.6500,-9.4500,
5.356170,-1.3001,-2.1564,1.0567,-0.0189,0.5282,-0.3144,-40.4250,22.6500,-9.4500,
5.373557,-1.3001,-2.1564,1.0567,-0.0189,0.5282,-0.3144,-40.4250,22.6500,-9.4500,
5.375716,-0.5367,-1.6846,0.6851,-0.0189,0.5282,-0.3144,-40.4250,22.6500,-9.4500,
5.377232,-0.5367,-1.6846,0.6851,-0.0189,0.5282,-0.3144,-40.8750,21.3750,-10.1250,
5.390418,-0.5367,-1.6846,0.6851,-0.0189,0.5282,-0.3144,-40.8750,21.3750,-10.1250,
5.392401,-0.5092,-1.4443,0.3846,-0.0189,0.5282,-0.3144,-40.8750,21.3750,-10.1250,
5.405929,-0.5092,-1.4443,0.3846,-0.0189,0.5282,-0.3144,-40.8750,21.3750,-10.1250,
5.408765,-0.9088,-1.4482,-0.1883,-0.0189,0.5282,-0.3144,-40.8750,21.3750,-10.1250,
5.415134,-0.9088,-1.4482,-0.1883,0.4716,0.1319,-0.2648,-40.8750,21.3750,-10.1250,
5.429820,-0.9088,-1.4482,-0.1883,0.4716,0.1319,-0.2648,-40.8750,21.3750,-10.1250,
5.433342,-1.5031,-1.9477,-0.7345,0.4716,0.1319,-0.2648,-40.8750,21.3750,-10.1250,
5.447759,-1.5031,-1.9477,-0.7345,0.4716,0.1319,-0.2648,-41.2500,20.2500,-11.8500,
5.450250,-1.5031,-1.9477,-0.7345,0.4716,0.1319,-0.2648,-41.2500,20.2500,-11.8500,
5.451653,-1.8319,-1.8754,-0.4892,0.4716,0.1319,-0.2648,-41.2500,20.2500,-11.8500,
5.473531,-1.8319,-1.8754,-0.4892,0.4716,0.1319,-0.2648,-41.2500,20.2500,-11.8500,
5.476881,-0.6817,-1.1773,0.1056,0.4716,0.1319,-0.2648,-41.2500,20.2500,-11.8500,
5.493608,-0.6817,-1.1773,0.1056,0.6698,-0.0105,-0.1396,-41.2500,20.2500,-11.8500,
5.497664,-0.6817,-1.1773,0.1056,0.6698,-0.0105,-0.1396,-41.2500,20.2500,-11.8500,
5.500355,0.0642,-0.8069,-0.3185,0.6698,-0.0105,-0.1396,-41.2500,20.2500,-11.8500,
5.511085,0.0642,-0.8069,-0.3185,0.6698,-0.0105,-0.1396,-41.2500,20.2500,-11.8500,
5.515195,-0.0165,-0.5687,-0.6220,0.6698,-0.0105,-0.1396,-41.2500,20.2500,-11.8500,
5.525979,-0.0165,-0.5687,-0.6220,0.6698,-0.0105,-0.1396,-41.8500,18.4500,-11.7750,
5.528375,-0.0165,-0.5687,-0.6220,0.6698,-0.0105,-0.1396,-41.8500,18.4500,-11.7750,
5.529273,-0.2014,-0.4342,-0.3750,0.6698,-0.0105,-0.1396,-41.8500,18.4500,-11.7750,
5.554708,-0.2014,-0.4342,-0.3750,0.6698,-0.0105,-0.1396,-41.8500,18.4500,-11.7750,
5.557453,-0.1535,0.2173,-0.1839,0.6698,-0.0105,-0.1396,-41.8500,18.4500,-11.7750,
5.559478,-0.1535,0.2173,-0.1839,0.6325,-0.2630,-0.0084,-41.8500,18.4500,-11.7750,
5.573420,-0.1535,0.2173,-0.1839,0.6325,-0.2630,-0.0084,-41.8500,18.4500,-11.7750,
5.575320,0.0248,0.9694,-0.5218,0.6325,-0.2630,-0.0084,-41.8500,18.4500,-11.7750,
5.590971,0.0248,0.9694,-0.5218,0.6325,-0.2630,-0.0084,-41.8500,18.4500,-11.7750,
5.592319,0.2949,0.8976,-0.5257,0.6325,-0.2630,-0.0084,-41.8500,18.4500,-11.7750,
5.593435,0.2949,0.8976,-0.5257,0.6325,-0.2630,-0.0084,-41.4750,18.9000,-11.8500,
5.605444,0.2949,0.8976,-0.5257,0.6325,-0.2630,-0.0084,-41.4750,18.9000,-11.8500,
5.606799,0.4040,0.2883,-0.1934,0.6325,-0.2630,-0.0084,-41.4750,18.9000,-11.8500,
5.626138,0.4040,0.2883,-0.1934,0.3949,-0.1944,0.0574,-41.4750,18.9000,-11.8500,
5.630263,0.4040,0.2883,-0.1934,0.3949,-0.1944,0.0574,-41.4750,18.9000,-11.8500,
5.632055,0.5892,-0.2677,-0.0798,0.3949,-0.1944,0.0574,-41.4750,18.9000,-11.8500,
5.650315,0.5892,-0.2677,-0.0798,0.3949,-0.1944,0.0574,-41.4750,18.9000,-11.8500,
5.651863,0.5651,-0.1135,-0.1535,0.3949,-0.1944,0.0574,-41.4750,18.9000,-11.8500,
5.658713,0.5651,-0.1135,-0.1535,0.3949,-0.1944,0.0574,-41.2500,18.8250,-11.9250,
5.670728,0.5651,-0.1135,-0.1535,0.3949,-0.1944,0.0574,-41.2500,18.8250,-11.9250,
5.672632,0.5241,0.7254,0.0504,0.3949,-0.1944,0.0574,-41.2500,18.8250,-11.9250,
5.689679,0.5241,0.7254,0.0504,0.3949,-0.1944,0.0574,-41.2500,18.8250,-11.9250,
5.691492,0.7175,1.4490,0.3194,0.3949,-0.1944,0.0574,-41.2500,18.8250,-11.9250,
5.694546,0.7175,1.4490,0.3194,0.3975,-0.0895,0.1417,-41.2500,18.8250,-11.9250,
5.706608,0.7175,1.4490,0.3194,0.3975,-0.0895,0.1417,-41.2500,18.8250,-11.9250,
5.707986,0.7961,1.8863,0.2464,0.3975,-0.0895,0.1417,-41.2500,18.8250,-11.9250,
5.729482,0.7961,1.8863,0.2464,0.3975,-0.0895,0.1417,-41.3250,18.9750,-11.0250,
5.736724,0.7961,1.8863,0.2464,0.3975,-0.0895,0.1417,-41.3250,18.9750,-11.0250,
5.739206,0.6793,1.9839,0.4435,0.3975,-0.0895,0.1417,-41.3250,18.9750,-11.0250,
5.752966,0.6793,1.9839,0.4435,0.3975,-0.0895,0.1417,-41.3250,18.9750,-11.0250,
5.756574,0.1482,2.0132,0.3260,0.3975,-0.0895,0.1417,-41.3250,18.9750,-11.0250,
5.766113,0.1482,2.0132,0.3260,0.2607,-0.1135,0.1889,-41.3250,18.9750,-11.0250,
5.771699,0.1482,2.0132,0.3260,0.2607,-0.1135,0.1889,-41.3250,18.9750,-11.0250,
5.773885,-0.3436,2.0970,0.6768,0.2607,-0.1135,0.1889,-41.3250,18.9750,-11.0250,
5.792627,-0.3436,2.0970,0.6768,0.2607,-0.1135,0.1889,-41.3250,18.9750,-11.0250,
5.795035,-0.4414,2.2558,1.1485,0.2607,-0.1135,0.1889,-41.3250,18.9750,-11.0250,
5.796832,-0.4414,2.2558,1.1485,0.2607,-0.1135,0.1889,-41.2500,18.6000,-10.3500,
5.810446,-0.4414,2.2558,1.1485,0.2607,-0.1135,0.1889,-41.2500,18.6000,-10.3500,
5.812819,-0.2997,2.4060,1.1473,0.2607,-0.1135,0.1889,-41.2500,18.6000,-10.3500,
5.829964,-0.2997,2.4060,1.1473,0.2607,-0.1135,0.1889,-41.2500,18.6000,-10.3500,
5.832444,-0.1683,2.5840,0.5402,0.2607,-0.1135,0.1889,-41.2500,18.6000,-10.3500,
5.837069,-0.1683,2.5840,0.5402,0.2975,-0.1406,0.2705,-41.2500,18.6000,-10.3500,
5.849823,-0.1683,2.5840,0.5402,0.2975,-0.1406,0.2705,-41.2500,18.6000,-10.3500,
5.851666,-0.0113,2.7715,-0.1715,0.2975,-0.1406,0.2705,-41.2500,18.6000,-10.3500,
5.859823,-0.0113,2.7715,-0.1715,0.2975,-0.1406,0.2705,-41.2500,19.2750,-9.7500,
5.869701,-0.0113,2.7715,-0.1715,0.2975,-0.1406,0.2705,-41.2500,19.2750,-9.7500,
5.871772,-0.1684,2.9218,-0.3068,0.2975,-0.1406,0.2705,-41.2500,19.2750,-9.7500,
5.891692,-0.1684,2.9218,-0.3068,0.2975,-0.1406,0.2705,-41.2500,19.2750,-9.7500,
5.894078,-0.2852,3.1002,0.1261,0.2975,-0.1406,0.2705,-41.2500,19.2750,-9.7500,
5.907689,-0.2852,3.1002,0.1261,0.2538,-0.1958,0.2462,-41.2500,19.2750,-9.7500,
5.910518,-0.2852,3.1002,0.1261,0.2538,-0.1958,0.2462,-41.2500,19.2750,-9.7500,
5.912194,-0.2399,3.1561,0.6049,0.2538,-0.1958,0.2462,-41.2500,19.2750,-9.7500,
5.927782,-0.2399,3.1561,0.6049,0.2538,-0.1958,0.2462,-41.2500,19.2750,-9.7500,
5.929970,-0.2128,3.0332,0.5457,0.2538,-0.1958,0.2462,-41.2500,19.2750,-9.7500,
5.931823,-0.2128,3.0332,0.5457,0.2538,-0.1958,0.2462,-40.8750,19.6500,-9.7500,
5.947147,-0.2128,3.0332,0.5457,0.2538,-0.1958,0.2462,-40.8750,19.6500,-9.7500,
5.949350,-0.3031,2.7349,0.3175,0.2538,-0.1958,0.2462,-40.8750,19.6500,-9.7500,
5.972820,-0.3031,2.7349,0.3175,0.2538,-0.1958,0.2462,-40.8750,19.6500,-9.7500,
5.976704,-0.4707,2.3662,0.1148,0.2538,-0.1958,0.2462,-40.8750,19.6500,-9.7500,
5.978847,-0.4707,2.3662,0.1148,0.1909,-0.2969,0.0654,-40.8750,19.6500,-9.7500,
5.991620,-0.4707,2.3662,0.1148,0.1909,-0.2969,0.0654,-40.8750,19.6500,-9.7500,
5.993408,-0.4414,1.9655,-0.1119,0.1909,-0.2969,0.0654,-40.8750,19.6500,-9.7500,
6.002479,-0.4414,1.9655,-0.1119,0.1909,-0.2969,0.0654,-40.8750,19.8000,-9.0750,
6.011077,-0.4414,1.9655,-0.1119,0.1909,-0.2969,0.0654,-40.8750,19.8000,-9.0750,
6.012962,-0.4339,1.6176,0.2863,0.1909,-0.2969,0.0654,-40.8750,19.8000,-9.0750,
6.031624,-0.4339,1.6176,0.2863,0.1909,-0.2969,0.0654,-40.8750,19.8000,-9.0750,
6.033622,-0.1690,1.0776,0.9295,0.1909,-0.2969,0.0654,-40.8750,19.8000,-9.0750,
6.046568,-0.1690,1.0776,0.9295,0.0977,-0.1301,-0.0466,-40.8750,19.8000,-9.0750,
6.050830,-0.1690,1.0776,0.9295,0.0977,-0.1301,-0.0466,-40.8750,19.8000,-9.0750,
6.052092,-0.0118,0.6824,1.3516,0.0977,-0.1301,-0.0466,-40.8750,19.8000,-9.0750,
6.070859,-0.0118,0.6824,1.3516,0.0977,-0.1301,-0.0466,-40.8750,19.8000,-9.0750,
6.072668,-0.0454,0.5204,1.2534,0.0977,-0.1301,-0.0466,-40.8750,19.8000,-9.0750,
6.074243,-0.0454,0.5204,1.2534,0.0977,-0.1301,-0.0466,-40.8750,20.5500,-8.6250,
6.091966,-0.0454,0.5204,1.2534,0.0977,-0.1301,-0.0466,-40.8750,20.5500,-8.6250,
6.096213,-0.3014,0.4676,0.9545,0.0977,-0.1301,-0.0466,-40.8750,20.5500,-8.6250,
6.104821,-0.3014,0.4676,0.9545,0.0977,-0.1301,-0.0466,-40.8750,20.5500,-8.6250,
6.107068,-0.6036,0.5854,0.5748,0.0977,-0.1301,-0.0466,-40.8750,20.5500,-8.6250,
6.113994,-0.6036,0.5854,0.5748,0.4036,0.0564,-0.0638,-40.8750,20.5500,-8.6250,
6.128376,-0.6036,0.5854,0.5748,0.4036,0.0564,-0.0638,-40.8750,20.5500,-8.6250,
6.130380,-0.6192,0.5536,0.0868,0.4036,0.0564,-0.0638,-40.8750,20.5500,-8.6250,
6.143781,-0.6192,0.5536,0.0868,0.4036,0.0564,-0.0638,-41.0250,20.7000,-8.9250,
6.147733,-0.6192,0.5536,0.0868,0.4036,0.0564,-0.0638,-41.0250,20.7000,-8.9250,
6.149044,-0.3413,0.2052,-0.0811,0.4036,0.0564,-0.0638,-41.0250,20.7000,-8.9250,
6.167459,-0.3413,0.2052,-0.0811,0.4036,0.0564,-0.0638,-41.0250,20.7000,-8.9250,
6.171490,-0.0674,0.0483,-0.0679,0.4036,0.0564,-0.0638,-41.0250,20.7000,-8.9250,
6.182571,-0.0674,0.0483,-0.0679,0.4586,0.2529,-0.0638,-41.0250,20.7000,-8.9250,
6.185072,-0.0674,0.0483,-0.0679,0.4586,0.2529,-0.0638,-41.0250,20.7000,-8.9250,
6.187455,0.3570,-0.0762,-0.2738,0.4586,0.2529,-0.0638,-41.0250,20.7000,-8.9250,
6.202666,0.3570,-0.0762,-0.2738,0.4586,0.2529,-0.0638,-41.0250,20.7000,-8.9250,
6.204542,0.5030,-0.1416,-0.5817,0.4586,0.2529,-0.0638,-41.0250,20.7000,-8.9250,
6.207086,0.5030,-0.1416,-0.5817,0.4586,0.2529,-0.0638,-40.6500,19.3500,-10.3500,
6.226818,0.5030,-0.1416,-0.5817,0.4586,0.2529,-0.0638,-40.6500,19.3500,-10.3500,
6.228365,0.0257,-0.0678,-0.4611,0.4586,0.2529,-0.0638,-40.6500,19.3500,-10.3500,
6.246706,0.0257,-0.0678,-0.4611,0.4586,0.2529,-0.0638,-40.6500,19.3500,-10.3500,
6.248264,-0.1507,0.2253,0.2971,0.4586,0.2529,-0.0638,-40.6500,19.3500,-10.3500,
6.255777,-0.1507,0.2253,0.2971,0.1886,-0.0334,-0.2075,-40.6500,19.3500,-10.3500,
6.275082,-0.1507,0.2253,0.2971,0.1886,-0.0334,-0.2075,-40.6500,19.3500,-10.3500,
6.277417,-0.0881,0.5651,0.9023,0.1886,-0.0334,-0.2075,-40.6500,19.3500,-10.3500,
6.280412,-0.0881,0.5651,0.9023,0.1886,-0.0334,-0.2075,-41.0250,19.6500,-10.9500,
6.289923,-0.0881,0.5651,0.9023,0.1886,-0.0334,-0.2075,-41.0250,19.6500,-10.9500,
6.292205,0.0663,0.3183,0.4742,0.1886,-0.0334,-0.2075,-41.0250,19.6500,-10.9500,
6.307261,0.0663,0.3183,0.4742,0.1886,-0.0334,-0.2075,-41.0250,19.6500,-10.9500,
6.309446,-0.0042,-0.5462,-0.5672,0.1886,-0.0334,-0.2075,-41.0250,19.6500,-10.9500,
6.324555,-0.0042,-0.5462,-0.5672,0.2760,-0.0689,-0.0832,-41.0250,19.6500,-10.9500,
6.329074,-0.0042,-0.5462,-0.5672,0.2760,-0.0689,-0.0832,-41.0250,19.6500,-10.9500,
6.330411,-0.2708,-1.1651,-0.5301,0.2760,-0.0689,-0.0832,-41.0250,19.6500,-10.9500,
6.348955,-0.2708,-1.1651,-0.5301,0.2760,-0.0689,-0.0832,-41.0250,19.6500,-10.9500,
6.351335,-0.5802,-1.2115,-0.0888,0.2760,-0.0689,-0.0832,-41.0250,19.6500,-10.9500,
6.353063,-0.5802,-1.2115,-0.0888,0.2760,-0.0689,-0.0832,-41.2500,18.7500,-11.2500,
6.367857,-0.5802,-1.2115,-0.0888,0.2760,-0.0689,-0.0832,-41.2500,18.7500,-11.2500,
6.371006,-0.7189,-0.8832,-0.2093,0.2760,-0.0689,-0.0832,-41.2500,18.7500,-11.2500,
6.395015,-0.7189,-0.8832,-0.2093,0.2760,-0.0689,-0.0832,-41.2500,18.7500,-11.2500,
6.398439,-0.6628,-0.5743,-0.2468,0.2760,-0.0689,-0.0832,-41.2500,18.7500,-11.2500,
6.401714,-0.6628,-0.5743,-0.2468,0.1843,-0.0724,0.0658,-41.2500,18.7500,-11.2500,
6.406820,-0.6628,-0.5743,-0.2468,0.1843,-0.0724,0.0658,-41.2500,18.7500,-11.2500,
6.408777,-0.3257,-0.1518,-0.2820,0.1843,-0.0724,0.0658,-41.2500,18.7500,-11.2500,
6.425066,-0.3257,-0.1518,-0.2820,0.1843,-0.0724,0.0658,-41.2500,18.6000,-11.0250,
6.427458,-0.3257,-0.1518,-0.2820,0.1843,-0.0724,0.0658,-41.2500,18.6000,-11.0250,
6.428802,-0.0541,0.0516,0.0718,0.1843,-0.0724,0.0658,-41.2500,18.6000,-11.0250,
6.446280,-0.0541,0.0516,0.0718,0.1843,-0.0724,0.0658,-41.2500,18.6000,-11.0250,
6.448552,0.2478,-0.2009,0.4771,0.1843,-0.0724,0.0658,-41.2500,18.6000,-11.0250,
6.460580,0.2478,-0.2009,0.4771,0.1860,-0.0570,0.1040,-41.2500,18.6000,-11.0250,
6.465392,0.2478,-0.2009,0.4771,0.1860,-0.0570,0.1040,-41.2500,18.6000,-11.0250,
6.466557,0.4485,-0.6930,0.1725,0.1860,-0.0570,0.1040,-41.2500,18.6000,-11.0250,
6.485220,0.4485,-0.6930,0.1725,0.1860,-0.0570,0.1040,-41.2500,18.6000,-11.0250,
6.488186,0.4402,-0.8964,-0.5742,0.1860,-0.0570,0.1040,-41.2500,18.6000,-11.0250,
6.490789,0.4402,-0.8964,-0.5742,0.1860,-0.0570,0.1040,-41.4750,19.3500,-10.3500,
6.506235,0.4402,-0.8964,-0.5742,0.1860,-0.0570,0.1040,-41.4750,19.3500,-10.3500,
6.508148,0.3194,-0.6998,-0.8730,0.1860,-0.0570,0.1040,-41.4750,19.3500,-10.3500,
6.524753,0.3194,-0.6998,-0.8730,0.1860,-0.0570,0.1040,-41.4750,19.3500,-10.3500,
6.527739,0.2937,-0.2907,-0.6989,0.1860,-0.0570,0.1040,-41.4750,19.3500,-10.3500,
6.529552,0.2937,-0.2907,-0.6989,0.1843,-0.1550,0.0238,-41.4750,19.3500,-10.3500,
6.544090,0.2937,-0.2907,-0.6989,0.1843,-0.1550,0.0238,-41.4750,19.3500,-10.3500,
6.546480,0.2969,0.0333,-0.3164,0.1843,-0.1550,0.0238,-41.4750,19.3500,-10.3500,
6.557381,0.2969,0.0333,-0.3164,0.1843,-0.1550,0.0238,-41.4750,19.2750,-10.3500,
6.568545,0.2969,0.0333,-0.3164,0.1843,-0.1550,0.0238,-41.4750,19.2750,-10.3500,
6.570777,0.1440,0.1659,0.1877,0.1843,-0.1550,0.0238,-41.4750,19.2750,-10.3500,
6.591559,0.1440,0.1659,0.1877,0.1843,-0.1550,0.0238,-41.4750,19.2750,-10.3500,
6.593679,-0.0201,0.1994,0.3119,0.1843,-0.1550,0.0238,-41.4750,19.2750,-10.3500,
6.606656,-0.0201,0.1994,0.3119,0.1574,-0.1176,0.0174,-41.4750,19.2750,-10.3500,
6.608819,-0.0201,0.1994,0.3119,0.1574,-0.1176,0.0174,-41.4750,19.2750,-10.3500,
6.610056,-0.1103,0.2746,-0.1657,0.1574,-0.1176,0.0174,-41.4750,19.2750,-10.3500,
6.627909,-0.1103,0.2746,-0.1657,0.1574,-0.1176,0.0174,-41.4750,19.2750,-10.3500,
6.629892,-0.0364,0.2827,-0.4385,0.1574,-0.1176,0.0174,-41.4750,19.2750,-10.3500,
6.631746,-0.0364,0.2827,-0.4385,0.1574,-0.1176,0.0174,-41.3250,19.5750,-10.1250,
6.646675,-0.0364,0.2827,-0.4385,0.1574,-0.1176,0.0174,-41.3250,19.5750,-10.1250,
6.649722,0.1737,0.2891,-0.5389,0.1574,-0.1176,0.0174,-41.3250,19.5750,-10.1250,
6.662393,0.1737,0.2891,-0.5389,0.1574,-0.1176,0.0174,-41.3250,19.5750,-10.1250,
6.663710,0.1157,1.2037,-0.4362,0.1574,-0.1176,0.0174,-41.3250,19.5750,-10.1250,
6.672848,0.1157,1.2037,-0.4362,0.2036,-0.0996,0.0429,-41.3250,19.5750,-10.1250,
6.683076,0.1157,1.2037,-0.4362,0.2036,-0.0996,0.0429,-41.3250,19.5750,-10.1250,
6.684493,0.8015,-0.2732,-0.9603,0.2036,-0.0996,0.0429,-41.3250,19.5750,-10.1250,
6.698418,0.8015,-0.2732,-0.9603,0.2036,-0.0996,0.0429,-40.9500,19.2750,-10.5750,
6.706651,0.8015,-0.2732,-0.9603,0.2036,-0.0996,0.0429,-40.9500,19.2750,-10.5750,
6.708721,0.5433,0.0671,-0.4787,0.2036,-0.0996,0.0429,-40.9500,19.2750,-10.5750,
6.723377,0.5433,0.0671,-0.4787,0.2036,-0.0996,0.0429,-40.9500,19.2750,-10.5750,
6.725170,0.3218,0.1264,0.0046,0.2036,-0.0996,0.0429,-40.9500,19.2750,-10.5750,
6.740842,0.3218,0.1264,0.0046,0.0344,-0.0472,-0.0805,-40.9500,19.2750,-10.5750,
6.744030,0.3218,0.1264,0.0046,0.0344,-0.0472,-0.0805,-40.9500,19.2750,-10.5750,
6.745665,0.1040,0.0260,0.4038,0.0344,-0.0472,-0.0805,-40.9500,19.2750,-10.5750,
6.764401,0.1040,0.0260,0.4038,0.0344,-0.0472,-0.0805,-40.9500,19.2750,-10.5750,
6.767416,-0.0497,-0.1091,0.3912,0.0344,-0.0472,-0.0805,-40.9500,19.2750,-10.5750,
6.776582,-0.0497,-0.1091,0.3912,0.0344,-0.0472,-0.0805,-41.5500,19.7250,-10.6500,
6.786229,-0.0497,-0.1091,0.3912,0.0344,-0.0472,-0.0805,-41.5500,19.7250,-10.6500,
6.788710,-0.1355,0.0061,0.0868,0.0344,-0.0472,-0.0805,-41.5500,19.7250,-10.6500,
6.806290,-0.1355,0.0061,0.0868,0.0344,-0.0472,-0.0805,-41.5500,19.7250,-10.6500,
6.808727,-0.0407,0.3274,-0.1375,0.0344,-0.0472,-0.0805,-41.5500,19.7250,-10.6500,
6.810705,-0.0407,0.3274,-0.1375,0.2617,-0.0293,-0.0797,-41.5500,19.7250,-10.6500,
6.827517,-0.0407,0.3274,-0.1375,0.2617,-0.0293,-0.0797,-41.5500,19.7250,-10.6500,
6.829447,-0.0153,0.5529,-0.3833,0.2617,-0.0293,-0.0797,-41.5500,19.7250,-10.6500,
6.837863,-0.0153,0.5529,-0.3833,0.2617,-0.0293,-0.0797,-41.3250,19.4250,-9.6750,
6.847180,-0.0153,0.5529,-0.3833,0.2617,-0.0293,-0.0797,-41.3250,19.4250,-9.6750,
6.849450,-0.0858,0.6600,-0.7372,0.2617,-0.0293,-0.0797,-41.3250,19.4250,-9.6750,
6.867085,-0.0858,0.6600,-0.7372,0.2617,-0.0293,-0.0797,-41.3250,19.4250,-9.6750,
6.870392,-0.0459,0.7649,-0.5079,0.2617,-0.0293,-0.0797,-41.3250,19.4250,-9.6750,
6.881507,-0.0459,0.7649,-0.5079,0.1202,-0.0922,-0.0661,-41.3250,19.4250,-9.6750,
6.888549,-0.0459,0.7649,-0.5079,0.1202,-0.0922,-0.0661,-41.3250,19.4250,-9.6750,
6.891215,0.0808,0.7478,-0.0367,0.1202,-0.0922,-0.0661,-41.3250,19.4250,-9.6750,
6.911401,0.0808,0.7478,-0.0367,0.1202,-0.0922,-0.0661,-41.3250,19.4250,-9.6750,
6.914352,0.1715,0.5759,-0.1318,0.1202,-0.0922,-0.0661,-41.3250,19.4250,-9.6750,
6.916814,0.1715,0.5759,-0.1318,0.1202,-0.0922,-0.0661,-41.7750,19.0500,-9.9750,
6.926795,0.1715,0.5759,-0.1318,0.1202,-0.0922,-0.0661,-41.7750,19.0500,-9.9750,
6.928550,0.2891,0.1881,-0.2405,0.1202,-0.0922,-0.0661,-41.7750,19.0500,-9.9750,
6.945234,0.2891,0.1881,-0.2405,0.1202,-0.0922,-0.0661,-41.7750,19.0500,-9.9750,
6.947742,0.3740,-0.0254,-0.3738,0.1202,-0.0922,-0.0661,-41.7750,19.0500,-9.9750,
6.956156,0.3740,-0.0254,-0.3738,0.1058,0.1228,-0.0715,-41.7750,19.0500,-9.9750,
6.964989,0.3740,-0.0254,-0.3738,0.1058,0.1228,-0.0715,-41.7750,19.0500,-9.9750,
6.966873,0.2663,-0.0237,-0.3473,0.1058,0.1228,-0.0715,-41.7750,19.0500,-9.9750,
6.976961,0.2663,-0.0237,-0.3473,0.1058,0.1228,-0.0715,-41.8500,18.3000,-9.7500,
6.985524,0.2663,-0.0237,-0.3473,0.1058,0.1228,-0.0715,-41.8500,18.3000,-9.7500,
6.987569,0.1210,0.0088,-0.1183,0.1058,0.1228,-0.0715,-41.8500,18.3000,-9.7500,
7.008763,0.1210,0.0088,-0.1183,0.1058,0.1228,-0.0715,-41.8500,18.3000,-9.7500,
7.010757,-0.0665,0.0766,0.1728,0.1058,0.1228,-0.0715,-41.8500,18.3000,-9.7500,
7.023331,-0.0665,0.0766,0.1728,-0.0602,0.1384,-0.1173,-41.8500,18.3000,-9.7500,
7.025718,-0.0665,0.0766,0.1728,-0.0602,0.1384,-0.1173,-41.8500,18.3000,-9.7500,
7.027111,-0.2930,0.0583,0.2065,-0.0602,0.1384,-0.1173,-41.8500,18.3000,-9.7500,
7.043177,-0.2930,0.0583,0.2065,-0.0602,0.1384,-0.1173,-41.8500,18.3000,-9.7500,
7.045698,-0.4313,0.1146,0.2339,-0.0602,0.1384,-0.1173,-41.8500,18.3000,-9.7500,
7.048443,-0.4313,0.1146,0.2339,-0.0602,0.1384,-0.1173,-41.2500,18.7500,-10.6500,
7.063036,-0.4313,0.1146,0.2339,-0.0602,0.1384,-0.1173,-41.2500,18.7500,-10.6500,
7.065856,-0.4888,0.1410,0.2993,-0.0602,0.1384,-0.1173,-41.2500,18.7500,-10.6500,
7.082377,-0.4888,0.1410,0.2993,-0.0602,0.1384,-0.1173,-41.2500,18.7500,-10.6500,
7.084993,-0.3492,-0.0045,0.3308,-0.0602,0.1384,-0.1173,-41.2500,18.7500,-10.6500,
7.087562,-0.3492,-0.0045,0.3308,0.0579,0.0892,-0.0608,-41.2500,18.7500,-10.6500,
7.112526,-0.3492,-0.0045,0.3308,0.0579,0.0892,-0.0608,-41.2500,18.7500,-10.6500,
7.115422,-0.2832,-0.1861,0.2028,0.0579,0.0892,-0.0608,-41.2500,18.7500,-10.6500,
7.117884,-0.2832,-0.1861,0.2028,0.0579,0.0892,-0.0608,-41.6250,18.0750,-11.2500,
7.128192,-0.2832,-0.1861,0.2028,0.0579,0.0892,-0.0608,-41.6250,18.0750,-11.2500,
7.130761,-0.3420,-0.2243,0.0830,0.0579,0.0892,-0.0608,-41.6250,18.0750,-11.2500,
7.146986,-0.3420,-0.2243,0.0830,0.0579,0.0892,-0.0608,-41.6250,18.0750,-11.2500,
7.148695,-0.4954,0.0624,0.1382,0.0579,0.0892,-0.0608,-41.6250,18.0750,-11.2500,
7.160034,-0.4954,0.0624,0.1382,0.1139,0.1093,-0.0053,-41.6250,18.0750,-11.2500,
7.165054,-0.4954,0.0624,0.1382,0.1139,0.1093,-0.0053,-41.6250,18.0750,-11.2500,
7.166188,-0.3651,0.2077,-0.2322,0.1139,0.1093,-0.0053,-41.6250,18.0750,-11.2500,
7.184614,-0.3651,0.2077,-0.2322,0.1139,0.1093,-0.0053,-41.6250,18.0750,-11.2500,
7.188239,-0.3957,0.0663,-0.0841,0.1139,0.1093,-0.0053,-41.6250,18.0750,-11.2500,
7.190392,-0.3957,0.0663,-0.0841,0.1139,0.1093,-0.0053,-42.5250,18.4500,-11.6250,
7.205017,-0.3957,0.0663,-0.0841,0.1139,0.1093,-0.0053,-42.5250,18.4500,-11.6250,
7.208754,-0.4442,0.1466,0.2223,0.1139,0.1093,-0.0053,-42.5250,18.4500,-11.6250,
7.225697,-0.4442,0.1466,0.2223,0.1139,0.1093,-0.0053,-42.5250,18.4500,-11.6250,
7.227668,-0.2840,0.2082,0.3350,0.1139,0.1093,-0.0053,-42.5250,18.4500,-11.6250,
7.229129,-0.2840,0.2082,0.3350,-0.0031,0.0118,0.0038,-42.5250,18.4500,-11.6250,
