time,ax,ay,az,wx,wy,wz,Bx,By,Bz
0.084127,0,0,0,0,0,0,0,0,0
0.104127,0.0313,0.0738,-0.0572,0,0,0,-44.4,10.95,0.3
0.124127,0.0011,-0.0054,-0.0102,0.0142,-0.0145,0.0061,-44.4,10.95,0.3
0.144127,0.0139,0.0015,0.0555,0.0142,-0.0145,0.0061,-44.4,10.95,0.3
0.164127,0.0618,0.0584,-0.0166,0.0142,-0.0145,0.0061,-44.25,10.05,1.35
0.184127,0.043,0.0079,-0.1038,0.0086,-0.0058,0.0063,-44.25,10.05,1.35
0.204127,0.0192,0.0176,-0.0504,0.0086,-0.0058,0.0063,-44.25,10.05,1.35
0.224127,0.1161,0.0415,0.0404,0.0086,-0.0058,0.0063,-44.25,10.05,1.35
0.244127,0.1082,0.0436,-0.0226,0.00485,-0.00315,0.006,-42.825,9.525,1.35
0.264127,0.133,0.0292,-0.0416,0.0011,-0.0005,0.0057,-42.825,9.525,1.35
0.284127,0.2116,-0.0576,-0.1108,0.0011,-0.0005,0.0057,-42.825,9.525,1.35
0.304127,-0.1002,0.0452,-0.0795,0.0011,-0.0005,0.0057,-42.4875,9.7125,1.125
0.324127,-0.04775,0.08365,-0.0808,0.0092,-0.0121,-0.0058,-42.15,9.9,0.9
0.344127,0.0023,0.0386,-0.0932,0.0092,-0.0121,-0.0058,-42.15,9.9,0.9
0.364127,-0.0629,0.0153,-0.0945,0.0092,-0.0121,-0.0058,-42.15,9.9,0.9
0.384127,-0.0945,-0.0314,-0.0726,0.00145,-0.0166,-0.0013,-42.3,10.2,0.75
0.404127,-0.0496,0.0292,-0.0166,-0.0063,-0.0211,0.0032,-42.3,10.2,0.75
0.424127,-0.0154,0.03475,-0.10425,-0.0063,-0.0211,0.0032,-42.3,10.2,0.75
0.444127,0.015,0.075,-0.2557,-0.0063,-0.0211,0.0032,-43.425,9.9375,0.975
0.464127,-0.0017,0.1138,-0.2563,-0.0174,-0.0226,0.0205,-44.55,9.675,1.2
0.484127,-0.0217,0.0693,-0.0468,-0.0174,-0.0226,0.0205,-44.55,9.675,1.2
0.504127,0.0505,0.0337,-0.175,-0.0174,-0.0226,0.0205,-44.55,9.675,1.2
0.524127,-0.0529,0.1053,-0.06155,-0.0174,-0.0226,0.0205,-43.95,9.15,1.8
0.544127,0.2203,-0.0274,0.1102,-0.0579,0.0002,0.0191,-43.95,9.15,1.8
0.564127,0.1051,-0.0235,-0.1055,-0.0579,0.0002,0.0191,-43.95,9.15,1.8
0.584127,0.1136,-0.1107,0.1658,-0.0579,0.0002,0.0191,-44.025,9.75,1.8
0.604127,0.1186,0.0278,-0.2145,-0.0133,0.0101,-0.0118,-44.025,9.75,1.8
0.624127,0.0754,0.1502,-0.1943,-0.0133,0.0101,-0.0118,-44.025,9.75,1.8
0.644127,0.0495,0.0963,-0.115,-0.0133,0.0101,-0.0118,-44.025,9.75,1.8
0.664127,0.0399,-0.0029,-0.0838,-0.0148,0.0249,-0.0276,-44.25,9.975,1.8
0.684127,0.0683,-0.0229,-0.0274,-0.0163,0.0397,-0.0434,-44.25,9.975,1.8
0.704127,0.0316,-0.0037,-0.0467,-0.0163,0.0397,-0.0434,-44.25,9.975,1.8
0.724127,-0.0026,0.014,-0.0723,-0.0163,0.0397,-0.0434,-43.8,9.375,1.35
0.744127,-0.015,0.0182,-0.1105,-0.033,0.0603,-0.0657,-43.8,9.375,1.35
0.764127,-0.06545,0.057,-0.1294,-0.033,0.0603,-0.0657,-43.8,9.375,1.35
0.784127,-0.0404,-0.0052,0.0277,-0.033,0.0603,-0.0657,-43.8,9.375,1.35
0.804127,0.0229,0.0263,-0.008,-0.03505,0.0485,-0.0685,-44.025,9.375,0.75
0.824127,0.0006,0.0603,0.0197,-0.0371,0.0367,-0.0713,-44.025,9.375,0.75
0.844127,-0.0917,0.0752,-0.0241,-0.0371,0.0367,-0.0713,-44.025,9.375,0.75
0.864127,-0.0484,0.1379,-0.0443,-0.0371,0.0367,-0.0713,-44.2875,9.2625,0.9
0.884127,-0.0308,0.0429,-0.0423,-0.033,0.0202,-0.0693,-44.55,9.15,1.05
0.904127,-0.0317,0.0193,0.0532,-0.033,0.0202,-0.0693,-44.55,9.15,1.05
0.924127,-0.0181,0.0767,0.0415,-0.033,0.0202,-0.0693,-44.55,9.15,1.05
0.944127,-0.0854,0.0917,-0.0279,-0.0336,0.014,-0.0596,-44.4,9.15,1.05
0.964127,-0.09405,0.10335,-0.046,-0.0336,0.014,-0.0596,-44.4,9.15,1.05
0.984127,-0.1006,0.07055,0.01745,-0.0336,0.014,-0.0596,-44.4,9.15,1.05
1.004127,-0.0882,0.0344,0.0589,-0.0336,0.014,-0.0596,-44.4,9.15,1.05
1.024127,-0.0973,0.0616,0.0718,-0.0461,0.0079,-0.0504,-43.65,8.925,0.975
1.044127,-0.0684,0.06255,0.04315,-0.0461,0.0079,-0.0504,-43.65,8.925,0.975
1.064127,-0.102,0.0495,0.0456,-0.0461,0.0079,-0.0504,-43.65,8.925,0.975
1.084127,-0.0959,0.0328,0.04195,-0.0539,0.0046,-0.0336,-44.4,8.475,0.9
1.104127,-0.065,0.0454,0.0217,-0.0539,0.0046,-0.0336,-44.4,8.475,0.9
1.124127,-0.05,0.0786,-0.0114,-0.0539,0.0046,-0.0336,-44.4,8.475,0.9
1.144127,-0.0565,0.0712,-0.0469,-0.0539,0.0046,-0.0336,-44.325,8.475,0.6
1.164127,-0.0812,0.0691,-0.0053,-0.0638,0.0121,-0.0173,-44.325,8.475,0.6
1.184127,-0.0071,0.0217,0.0614,-0.0638,0.0121,-0.0173,-44.325,8.475,0.6
1.204127,-0.1898,0.1152,-0.156,-0.0638,0.0121,-0.0173,-44.325,8.475,0.6
1.224127,-0.146,0.1267,0.0325,-0.0779,0.0223,-0.0093,-44.4,8.625,0.45
1.244127,0.0364,0.0211,-0.0937,-0.0779,0.0223,-0.0093,-44.4,8.625,0.45
1.264127,-0.07345,0.07975,0.23725,-0.0779,0.0223,-0.0093,-44.4,8.625,0.45
1.284127,0.0293,-0.0079,0.0887,-0.0779,0.0223,-0.0093,-44.25,8.4,1.275
1.304127,-0.0417,-0.0142,-0.0954,-0.0715,0.0214,-0.0038,-44.25,8.4,1.275
1.324127,-0.01465,0.0502,0.16845,-0.0715,0.0214,-0.0038,-44.25,8.4,1.275
1.344127,-0.0244,0.0745,0.1748,-0.0715,0.0214,-0.0038,-44.4,8.4,1.2375
1.364127,-0.0783,0.0339,0.0981,-0.0628,0.0334,-0.007,-44.55,8.4,1.2
1.384127,-0.0497,0.02,0.0255,-0.0628,0.0334,-0.007,-44.55,8.4,1.2
1.404127,0.0018,-0.0468,0.0922,-0.0628,0.0334,-0.007,-44.55,8.4,1.2
1.424127,-0.00285,-0.0372,0.0522,-0.0628,0.0334,-0.007,-44.25,8.475,0.75
1.444127,-0.0105,0.0531,-0.0392,-0.0228,0.0319,-0.0087,-44.25,8.475,0.75
1.464127,-0.0548,0.0408,-0.0293,-0.0228,0.0319,-0.0087,-44.25,8.475,0.75
1.484127,-0.0384,0.0633,-0.1572,-0.0228,0.0319,-0.0087,-44.55,8.5125,0.375
1.504127,-0.073,0.0785,-0.0802,-0.0208,0.0228,-0.0083,-44.85,8.55,0
1.524127,-0.0135,0.0411,0.0427,-0.0188,0.0137,-0.0079,-44.85,8.55,0
1.544127,0.01085,-0.00395,0.0196,-0.0188,0.0137,-0.0079,-44.85,8.55,0
1.564127,0.0084,0.0253,-0.0386,-0.0188,0.0137,-0.0079,-43.8,8.85,0.45
1.584127,-0.0021,0.0906,-0.0912,-0.0231,0.0104,-0.0041,-43.8,8.85,0.45
1.604127,-0.0243,0.0461,-0.0631,-0.0231,0.0104,-0.0041,-43.8,8.85,0.45
1.624127,-0.0758,0.0639,-0.0169,-0.0231,0.0104,-0.0041,-44.175,8.2875,0.8625
1.644127,-0.04705,0.067,0.0134,-0.0249,0.0177,-0.0002,-44.55,7.725,1.275
1.664127,-0.0708,0.0152,-0.0057,-0.0249,0.0177,-0.0002,-44.55,7.725,1.275
1.684127,-0.0498,0.0519,0.0226,-0.0249,0.0177,-0.0002,-44.55,7.725,1.275
1.704127,0.0124,0.0644,0.0592,-0.0249,0.0177,-0.0002,-44.25,7.8,0.675
1.724127,-0.00915,0.0598,0.05855,-0.0275,0.0173,-0.0005,-44.25,7.8,0.675
1.744127,0.0018,0.0144,0.0564,-0.0275,0.0173,-0.0005,-44.25,7.8,0.675
1.764127,-0.0206,0.0431,0.0212,-0.0275,0.0173,-0.0005,-44.25,7.8,0.675
1.784127,-0.0451,0.082,0.0224,-0.0259,0.02995,-0.00375,-44.1,8.25,1.275
1.804127,-0.0749,0.0542,0.0541,-0.0243,0.0426,-0.007,-44.1,8.25,1.275
1.824127,-0.0861,0.0358,0.058,-0.0243,0.0426,-0.007,-44.1,8.25,1.275
1.844127,-0.1042,0.0583,0.0245,-0.0243,0.0426,-0.007,-43.8,8.55,0.45
1.864127,-0.1132,0.0475,0.0471,-0.0403,0.0452,-0.0072,-43.8,8.55,0.45
1.884127,-0.1449,0.0842,0.0819,-0.0403,0.0452,-0.0072,-43.8,8.55,0.45
1.904127,0.01,0.136,0.1745,-0.0403,0.0452,-0.0072,-43.8,8.55,0.45
1.924127,-0.243,0.1228,-0.1389,-0.0505,0.033,-0.0053,-44.025,8.25,0.075
1.944127,-0.0875,0.0705,0.18885,-0.0505,0.033,-0.0053,-44.025,8.25,0.075
1.964127,-0.0339,0.0042,-0.023,-0.0505,0.033,-0.0053,-44.025,8.25,0.075
1.984127,-0.0668,0.0709,0.3014,-0.046,0.03275,-0.0022,-44.7,8.175,-0.15
2.004127,-0.0327,0.0322,0.064,-0.0415,0.0325,0.0009,-44.7,8.175,-0.15
2.024127,-0.0643,0.0647,-0.0371,-0.0415,0.0325,0.0009,-44.7,8.175,-0.15
2.044127,-0.1016,0.1814,0.0035,-0.0415,0.0325,0.0009,-44.625,8.7,0.3
2.064127,-0.1219,0.1162,0.0554,-0.0548,0.0082,-0.0044,-44.625,8.7,0.3
2.084127,-0.1699,0.0778,0.1045,-0.0548,0.0082,-0.0044,-44.625,8.7,0.3
2.104127,-0.1093,0.0317,0.0998,-0.0548,0.0082,-0.0044,-44.625,8.7,0.3
2.124127,-0.0923,-0.0073,0.1258,-0.06825,0.0197,-0.0021,-43.65,8.625,0.075
2.144127,-0.0357,0.0754,0.1886,-0.0817,0.0312,0.0002,-43.65,8.625,0.075
2.164127,-0.0938,0.0967,0.1209,-0.0817,0.0312,0.0002,-43.65,8.625,0.075
2.184127,-0.0968,0.13145,0.0319,-0.0817,0.0312,0.0002,-43.65,8.625,0.075
2.204127,-0.05655,0.0712,0.0167,-0.0944,0.0376,-0.0053,-44.55,8.85,-0.45
2.224127,-0.15815,0.11835,0.0748,-0.0944,0.0376,-0.0053,-44.55,8.85,-0.45
2.244127,-0.1175,0.148,0.1903,-0.0944,0.0376,-0.0053,-44.55,8.85,-0.45
2.264127,-0.1595,0.1315,0.2343,-0.11295,0.04445,-0.0074,-44.1,8.4,0.15
2.284127,-0.2299,0.151,0.1545,-0.1315,0.0513,-0.0095,-44.1,8.4,0.15
2.304127,-0.2155,0.0609,0.1646,-0.1315,0.0513,-0.0095,-44.1,8.4,0.15
2.324127,-0.1758,0.1187,0.2824,-0.1315,0.0513,-0.0095,-44.025,8.25,0.2625
2.344127,-0.1135,0.1566,0.3683,-0.1457,0.0707,-0.0012,-43.95,8.1,0.375
2.364127,-0.1244,0.21165,0.33215,-0.1457,0.0707,-0.0012,-43.95,8.1,0.375
2.384127,-0.1231,0.213,0.3203,-0.1457,0.0707,-0.0012,-43.95,8.1,0.375
2.404127,-0.0698,0.1795,0.2459,-0.16225,0.08825,-0.00615,-43.95,8.25,0
2.424127,-0.0383,0.1093,0.2269,-0.1788,0.1058,-0.0111,-43.95,8.25,0
2.444127,0.1056,0.0779,0.5778,-0.1788,0.1058,-0.0111,-43.95,8.25,0
2.464127,0.3465,-0.0132,0.7987,-0.1788,0.1058,-0.0111,-43.9875,8.2125,-0.225
2.484127,0.3562,0.0629,0.5069,-0.2533,0.1335,-0.0524,-44.025,8.175,-0.45
2.504127,0.30855,0.21365,0.19065,-0.2533,0.1335,-0.0524,-44.025,8.175,-0.45
2.524127,0.3275,0.3525,-0.0767,-0.2533,0.1335,-0.0524,-44.025,8.175,-0.45
2.544127,0.3712,0.3735,-0.2153,-0.28265,0.1295,-0.0849,-44.4,8.175,-1.05
2.564127,0.5669,0.2163,-0.0538,-0.312,0.1255,-0.1174,-44.4,8.175,-1.05
2.584127,0.5269,0.1298,0.0982,-0.312,0.1255,-0.1174,-44.4,8.175,-1.05
2.604127,0.5214,0.1478,0.1346,-0.312,0.1255,-0.1174,-44.4,7.5,-0.75
2.624127,0.66795,0.13185,0.0043,-0.494,0.0793,-0.1463,-44.4,7.5,-0.75
2.644127,0.269,0.4805,-0.0642,-0.494,0.0793,-0.1463,-44.4,7.5,-0.75
2.664127,0.3942,0.417,-0.0283,-0.494,0.0793,-0.1463,-44.4,7.5,-0.75
2.684127,0.3418,0.1466,0.0705,-0.6098,0.0299,-0.1151,-44.55,6.675,-1.05
2.704127,0.5038,0.0243,0.682,-0.6098,0.0299,-0.1151,-44.55,6.675,-1.05
2.724127,0.6114,0.061,0.1576,-0.6098,0.0299,-0.1151,-44.55,6.675,-1.05
2.744127,0.6285,0.1048,0.2558,-0.6098,0.0299,-0.1151,-44.325,6.6,-0.45
2.764127,0.4335,0.1977,0.702,-0.629,-0.0431,-0.0605,-44.325,6.6,-0.45
2.784127,0.5766,0.2301,0.7652,-0.629,-0.0431,-0.0605,-44.325,6.6,-0.45
2.804127,0.4625,0.4985,0.6906,-0.629,-0.0431,-0.0605,-44.325,6.6,-0.45
2.824127,0.2377,0.563,0.4989,-0.5948,-0.1399,-0.0683,-44.25,6.45,-0.15
2.844127,0.0348,0.22345,0.02585,-0.5948,-0.1399,-0.0683,-44.25,6.45,-0.15
2.864127,-0.0965,0.2197,-0.0847,-0.5948,-0.1399,-0.0683,-44.25,6.45,-0.15
2.884127,-0.3188,0.3459,-0.0307,-0.5948,-0.1399,-0.0683,-44.25,6.45,-0.15
2.904127,-0.707,0.4661,0.2551,-0.7057,-0.2961,0.0105,-44.85,6.375,0.75
2.924127,-1.1742,-0.6566,-0.3532,-0.7057,-0.2961,0.0105,-44.85,6.375,0.75
2.944127,-0.8019,-0.4679,0.056,-0.7057,-0.2961,0.0105,-44.85,6.375,0.75
2.964127,-0.3472,0.154,0.0484,-0.916,-0.4383,0.0887,-44.85,6.075,1.95
2.984127,-0.6346,0.8967,-0.2058,-0.916,-0.4383,0.0887,-44.85,6.075,1.95
3.004127,-1.264,1.7343,0.36,-0.916,-0.4383,0.0887,-44.85,6.075,1.95
3.024127,-1.3675,2.0354,0.8683,-0.916,-0.4383,0.0887,-44.4,5.325,3.45
3.044127,-1.1847,2.0108,1.0326,-1.1805,-0.4044,0.0924,-44.4,5.325,3.45
3.064127,-1.0205,1.3051,0.971,-1.1805,-0.4044,0.0924,-44.4,5.325,3.45
3.084127,-0.7117,0.659,1.195,-1.1805,-0.4044,0.0924,-44.4,5.325,3.45
3.104127,-0.6348,0.8918,1.4622,-1.1838,-0.1788,0.1138,-44.25,5.85,5.175
3.124127,-1.0726,1.6001,1.3637,-1.1838,-0.1788,0.1138,-44.25,5.85,5.175
3.144127,-1.16105,1.92735,1.1183,-1.1838,-0.1788,0.1138,-44.25,5.85,5.175
3.164127,-1.5746,0.1777,-0.0174,-1.1838,-0.1788,0.1138,-44.025,5.475,6.075
3.184127,-1.1492,-0.6103,0.7638,-1.2933,0.2634,0.1466,-44.025,5.475,6.075
3.204127,-0.58,0.001,1.0623,-1.2933,0.2634,0.1466,-44.025,5.475,6.075
3.224127,-0.3258,0.2624,1.5793,-1.2933,0.2634,0.1466,-44.025,5.475,6.075
3.244127,-0.5437,1.0578,2.164,-1.5606,0.2141,0.2237,-43.35,5.325,4.8
3.264127,-0.4726,1.73925,1.29655,-1.5606,0.2141,0.2237,-43.35,5.325,4.8
3.284127,-0.5502,2.0831,1.3479,-1.5606,0.2141,0.2237,-43.35,5.325,4.8
3.304127,-0.4831,1.9364,1.8589,-1.5606,0.2141,0.2237,-44.25,5.25,5.775
3.324127,-0.174,1.8349,2.383,-1.8115,0.0144,0.2164,-44.25,5.25,5.775
3.344127,0.1415,1.9219,3.6617,-1.8115,0.0144,0.2164,-44.25,5.25,5.775
3.364127,0.5245,1.7939,2.5825,-1.8115,0.0144,0.2164,-44.25,5.25,5.775
3.384127,0.3341,2.0682,3.4731,-2.0502,-0.0173,0.2007,-43.95,5.775,6.975
3.404127,0.3882,1.6786,3.6037,-2.0502,-0.0173,0.2007,-43.95,5.775,6.975
3.424127,-0.3567,0.7424,4.4634,-2.0502,-0.0173,0.2007,-43.95,5.775,6.975
3.444127,-0.57495,0.2931,4.88515,-2.0502,-0.0173,0.2007,-44.025,6.3,6.9
3.464127,-0.5359,-0.1929,5.2737,-2.2994,0.1687,0.1074,-44.025,6.3,6.9
3.484127,-0.5644,-0.2503,3.9052,-2.2994,0.1687,0.1074,-44.025,6.3,6.9
3.504127,-0.8663,-1.1579,2.3451,-2.2994,0.1687,0.1074,-44.025,6.3,6.9
3.524127,-0.37815,-2.135,2.77075,-2.5842,-0.1332,0.0819,-42.75,6.15,7.05
3.544127,0.904,-3.4309,3.9149,-2.5842,-0.1332,0.0819,-42.75,6.15,7.05
3.564127,1.236,-4.427,7.2446,-2.5842,-0.1332,0.0819,-42.75,6.15,7.05
3.584127,1.5139,-2.4632,9.3362,-2.5842,-0.1332,0.0819,-43.05,5.1,7.95
3.604127,1.6694,1.1992,9.4497,-2.6407,-0.5947,0.0188,-43.05,5.1,7.95
3.624127,2.9143,0.3093,13.30525,-2.6407,-0.5947,0.0188,-43.05,5.1,7.95
3.644127,1.5407,2.3243,11.284,-2.6407,-0.5947,0.0188,-43.05,5.1,7.95
3.664127,-4.398,9.8797,-0.625,-1.0508,0.1472,-0.0029,-42.9,4.425,9.75
3.684127,-6.2163,1.8596,-5.1769,-1.0508,0.1472,-0.0029,-42.9,4.425,9.75
3.704127,-10.4959,1.8307,-10.2678,-1.0508,0.1472,-0.0029,-42.9,4.425,9.75
3.724127,4.8641,7.9955,-11.0071,-1.0508,0.1472,-0.0029,-43.35,3.825,10.65
3.744127,4.2905,3.4743,-0.6412,1.4705,-1.6404,0.0686,-43.35,3.825,10.65
3.764127,-3.268,5.6661,-4.8789,1.4705,-1.6404,0.0686,-43.35,3.825,10.65
3.784127,-5.4612,1.4794,-6.9247,1.4705,-1.6404,0.0686,-41.7,5.475,13.05
3.804127,11.8882,-0.8541,-2.4256,0.606,-0.3341,0.0815,-41.7,5.475,13.05
3.824127,-0.9633,-2.918,-4.8601,0.606,-0.3341,0.0815,-41.7,5.475,13.05
3.844127,-10.4926,2.6304,-7.5548,0.606,-0.3341,0.0815,-41.7,5.475,13.05
3.864127,-6.383,5.146,-8.997,0.606,-0.3341,0.0815,-41.55,4.875,12.15
3.884127,-2.5739,2.8654,-16.1295,1.4642,0.9422,-0.4855,-41.55,4.875,12.15
3.904127,4.2399,9.8028,-25.6609,1.4642,0.9422,-0.4855,-41.55,4.875,12.15
3.924127,-3.5377,4.0493,-33.8589,1.4642,0.9422,-0.4855,-41.55,4.6875,10.5
3.944127,-1.5165,3.0593,-11.7046,-1.4257,-0.1941,-0.0156,-41.55,4.5,8.85
3.964127,-0.047,-1.5283,-3.3283,-1.4257,-0.1941,-0.0156,-41.55,4.5,8.85
3.984127,0.001,-1.4423,2.1971,-1.4257,-0.1941,-0.0156,-41.55,4.5,8.85
4.004127,0.4015,1.5239,4.6062,-1.4257,-0.1941,-0.0156,-41.025,3.075,9.075
4.024127,1.5836,1.34405,5.92875,-2.3049,-0.1431,0.173,-41.025,3.075,9.075
4.044127,1.1501,0.478,4.8468,-2.3049,-0.1431,0.173,-41.025,3.075,9.075
4.064127,0.3963,1.2461,0.5901,-2.3049,-0.1431,0.173,-40.725,2.775,10.05
4.084127,0.8022,1.1416,1.2491,-0.6087,0.1481,-0.0154,-40.725,2.775,10.05
4.104127,-0.3549,1.3477,0.5492,-0.6087,0.1481,-0.0154,-40.725,2.775,10.05
4.124127,-0.2665,1.3233,-0.1235,-0.6087,0.1481,-0.0154,-40.725,2.775,10.05
4.144127,-0.2934,1.2354,0.0784,-0.6087,0.1481,-0.0154,-41.025,2.1,10.5
4.164127,-0.2203,1.1506,-0.6863,0.2773,0.0464,-0.0308,-41.025,2.1,10.5
4.184127,-0.1995,0.4671,-1.2109,0.2773,0.0464,-0.0308,-41.025,2.1,10.5
4.204127,-0.3302,0.2035,-1.7626,0.2773,0.0464,-0.0308,-40.9875,2.25,10.275
4.224127,-0.3002,-0.1496,-2.2545,0.1463,0.0002,-0.0006,-40.95,2.4,10.05
4.244127,-0.2529,0.20685,-1.698,0.1463,0.0002,-0.0006,-40.95,2.4,10.05
4.264127,0.2777,0.1188,-0.3057,0.1463,0.0002,-0.0006,-40.95,2.4,10.05
4.284127,0.2867,-0.6074,0.776,0.0264,0.0657,0.0187,-41.55,2.325,9.15
4.304127,-0.1534,-0.6928,0.6258,-0.0935,0.1312,0.038,-41.55,2.325,9.15
4.324127,-0.2439,-0.4994,0.8479,-0.0935,0.1312,0.038,-41.55,2.325,9.15
4.344127,-0.0732,-0.0494,1.0963,-0.0935,0.1312,0.038,-41.25,2.475,8.85
4.364127,-0.0592,0.2057,0.7724,0.0081,-0.0516,0.0217,-41.25,2.475,8.85
4.384127,-0.0492,0.16765,0.29975,0.0081,-0.0516,0.0217,-41.25,2.475,8.85
4.404127,0.0469,0.1817,0.0342,0.0081,-0.0516,0.0217,-41.25,2.475,8.85
4.424127,0.0192,0.1698,-0.0593,0.0081,-0.0516,0.0217,-40.95,2.625,8.775
4.444127,-0.0206,0.2525,-0.0247,-0.0409,-0.1122,0.0125,-40.95,2.625,8.775
4.464127,-0.1034,0.24285,-0.09735,-0.0409,-0.1122,0.0125,-40.95,2.625,8.775
4.484127,-0.0498,0.2613,-0.0382,-0.0409,-0.1122,0.0125,-40.9875,2.925,9.2625
4.504127,0.0114,0.1666,0.3489,0.0118,-0.1747,-0.0032,-41.025,3.225,9.75
4.524127,0.0312,-0.0698,0.0429,0.0118,-0.1747,-0.0032,-41.025,3.225,9.75
4.544127,-0.0386,0.013,-0.2066,0.0118,-0.1747,-0.0032,-41.025,3.225,9.75
4.564127,-0.0663,0.2259,0.0022,0.0118,-0.1747,-0.0032,-40.2,3.45,9.9
4.584127,0.1376,0.2975,0.3579,0.3448,-0.2798,-0.0148,-40.2,3.45,9.9
4.604127,0.2928,0.175,0.3222,0.3448,-0.2798,-0.0148,-40.2,3.45,9.9
4.624127,0.1509,0.2753,-0.4093,0.3448,-0.2798,-0.0148,-40.5,2.7,10.65
4.644127,-0.07,0.3174,-0.6915,0.4334,-0.2219,0.0371,-40.5,2.7,10.65
4.664127,0.1594,0.2095,0.3599,0.4334,-0.2219,0.0371,-40.5,2.7,10.65
4.684127,0.3275,0.1046,0.1054,0.4334,-0.2219,0.0371,-40.5,2.7,10.65
4.704127,-0.0148,0.0855,0.1753,0.4334,-0.2219,0.0371,-40.95,2.7,11.25
4.724127,0.1273,-0.1204,0.4042,0.274,0.022,0.1435,-40.95,2.7,11.25
4.744127,-0.5805,0.387,-0.506,0.274,0.022,0.1435,-40.95,2.7,11.25
4.764127,-0.3311,0.0949,0.2301,0.274,0.022,0.1435,-40.95,2.7,11.25
4.784127,-0.3448,-0.0632,0.2593,0.0774,-0.0113,0.1756,-40.95,4.05,11.1
4.804127,-0.454,-0.0438,0.04265,0.0774,-0.0113,0.1756,-40.95,4.05,11.1
4.824127,-0.1788,0.009,-0.3383,0.0774,-0.0113,0.1756,-40.95,4.05,11.1
4.844127,-0.3179,-0.0428,-0.3689,-0.0192,-0.0861,-0.0394,-40.95,4.5,11.475
4.864127,-0.06,-0.0508,-0.2468,-0.0192,-0.0861,-0.0394,-40.95,4.5,11.475
4.884127,0.1818,0.0053,-0.2923,-0.0192,-0.0861,-0.0394,-40.95,4.5,11.475
4.904127,0.5512,0.0752,-0.6062,-0.0192,-0.0861,-0.0394,-40.05,3.675,10.65
4.924127,0.4919,0.2078,-0.1068,0.1191,-0.0418,-0.1278,-40.05,3.675,10.65
4.944127,0.5121,0.0879,-0.1936,0.1191,-0.0418,-0.1278,-40.05,3.675,10.65
4.964127,0.45005,-0.0433,-0.619,0.1191,-0.0418,-0.1278,-40.05,3.675,10.65
4.984127,0.1908,-0.1013,-0.485,0.4135,0.1773,0.0634,-40.35,3.825,11.25
5.004127,0.0585,-0.6175,1.7818,0.4135,0.1773,0.0634,-40.35,3.825,11.25
5.024127,-0.0309,-0.13445,-1.485,0.4135,0.1773,0.0634,-40.35,3.825,11.25
5.044127,-0.5474,-0.2037,-2.6883,0.4135,0.1773,0.0634,-40.5,4.1625,10.9125
5.064127,-1.6249,-0.1613,-3.036,0.9795,0.5762,0.2669,-40.65,4.5,10.575
5.084127,-2.48425,-0.85545,-2.577,0.9795,0.5762,0.2669,-40.65,4.5,10.575
5.104127,-1.67265,-1.2255,-1.8449,0.9795,0.5762,0.2669,-40.65,4.5,10.575
5.124127,1.7761,-0.1917,-0.2049,0.9795,0.5762,0.2669,-40.2,5.85,9
5.144127,1.341,0.02415,0.0278,1.1003,0.1915,0.2413,-40.2,5.85,9
5.164127,0.72,0.5142,0.0776,1.1003,0.1915,0.2413,-40.2,5.85,9
5.184127,1.0214,0.5376,0.4648,1.1003,0.1915,0.2413,-41.025,7.2,8.25
5.204127,0.2309,0.2342,-0.1524,1.1001,0.144,0.3124,-41.025,7.2,8.25
5.224127,-0.9512,-0.1265,-0.4826,1.1001,0.144,0.3124,-41.025,7.2,8.25
5.244127,-0.4438,0.4996,-0.1178,1.1001,0.144,0.3124,-41.025,7.2,8.25
5.264127,-0.0847,-0.0289,-0.2051,1.0087,0.2801,0.23,-40.35,8.4,7.35
5.284127,-0.9612,-0.2614,-1.4715,1.0087,0.2801,0.23,-40.35,8.4,7.35
5.304127,-1.1941,0.0121,-1.4474,1.0087,0.2801,0.23,-40.35,8.4,7.35
5.324127,-0.55,-0.1194,-0.0269,1.0087,0.2801,0.23,-40.2,9.6,6.45
5.344127,-0.6063,0.0158,-0.7711,0.6518,0.1165,0.2291,-40.2,9.6,6.45
5.364127,-0.7287,0.0076,-1.2851,0.6518,0.1165,0.2291,-40.2,9.6,6.45
5.384127,-0.9074,0.5255,-1.3678,0.6518,0.1165,0.2291,-40.2,9.6,6.45
5.404127,-0.2667,0.8187,-1.0559,0.3644,0.1251,0.2805,-40.725,10.275,5.55
5.424127,-0.8536,-0.1394,-0.4655,0.3644,0.1251,0.2805,-40.725,10.275,5.55
5.444127,-0.7277,-0.1211,-1.6669,0.3644,0.1251,0.2805,-40.725,10.275,5.55
5.464127,-0.1788,0.768,-1.1624,0.3644,0.1251,0.2805,-40.8,11.625,4.95
5.484127,0.3487,0.6097,-0.4225,0.2483,0.0102,0.3172,-40.8,11.625,4.95
5.504127,-0.5952,-0.2583,0.5242,0.2483,0.0102,0.3172,-40.8,11.625,4.95
5.524127,-0.5674,-0.0695,0.2215,0.2483,0.0102,0.3172,-40.7625,12.3,4.65
5.544127,0.7674,1.0807,-0.351,0.1938,-0.1753,0.2236,-40.725,12.975,4.35
5.564127,0.5645,0.557,-0.4344,0.1938,-0.1753,0.2236,-40.725,12.975,4.35
5.584127,-0.09645,-0.10665,-0.8608,0.1938,-0.1753,0.2236,-40.725,12.975,4.35
5.604127,0.1898,0.49595,-0.7084,0.1938,-0.1753,0.2236,-40.05,13.5,4.875
5.624127,-0.1826,0.8936,-0.7155,0.08,-0.1353,0.1315,-40.05,13.5,4.875
5.644127,-0.2313,0.2787,-0.62,0.08,-0.1353,0.1315,-40.05,13.5,4.875
5.664127,0.7347,0.0942,-0.5183,0.08,-0.1353,0.1315,-39.9,13.95,5.0625
5.684127,0.16655,0.4538,-0.8215,-0.0269,0.0316,0.0811,-39.75,14.4,5.25
5.704127,-0.5782,0.6882,-0.8262,-0.0269,0.0316,0.0811,-39.75,14.4,5.25
5.724127,-0.2402,0.6709,-0.6172,-0.0269,0.0316,0.0811,-39.75,14.4,5.25
5.744127,0.8725,0.17965,-0.34855,-0.0269,0.0316,0.0811,-40.35,14.625,5.25
5.764127,0.9194,0.61865,0.1414,-0.0765,0.1614,-0.0712,-40.35,14.625,5.25
5.784127,0.1789,0.6987,-0.2273,-0.0765,0.1614,-0.0712,-40.35,14.625,5.25
5.804127,-0.2219,-0.0707,-0.7379,-0.0765,0.1614,-0.0712,-40.5,14.8125,5.1
5.824127,1.1498,0.2659,0.8893,-0.0018,0.4291,-0.1799,-40.65,15,4.95
5.844127,1.6968,1.5423,3.0441,-0.0018,0.4291,-0.1799,-40.65,15,4.95
5.864127,1.1628,2.0594,1.0146,-0.0018,0.4291,-0.1799,-40.65,15,4.95
5.884127,-0.3827,1.0942,0.8785,-0.0409,0.6733,-0.36065,-40.95,14.025,3.75
5.904127,0.0636,-0.7465,0.367,-0.08,0.9175,-0.5414,-40.95,14.025,3.75
5.924127,1.3772,-0.574,0.5976,-0.08,0.9175,-0.5414,-40.95,14.025,3.75
5.944127,2.4302,0.6942,1.2792,-0.08,0.9175,-0.5414,-41.25,12.6,1.8
5.964127,1.6446,1.3842,0.6852,-0.3557,0.668,-0.6855,-41.25,12.6,1.8
5.984127,-0.4385,2.38815,-1.19225,-0.3557,0.668,-0.6855,-41.25,12.6,1.8
6.004127,1.0235,0.6012,-1.1863,-0.3557,0.668,-0.6855,-41.25,12.6,1.8
6.024127,-1.64765,1.4579,1.932,-0.3557,0.668,-0.6855,-42.75,10.5,0.375
6.044127,-2.375,2.584,1.0818,-0.5942,1.0565,-0.6912,-42.75,10.5,0.375
6.064127,-3.3728,2.3671,-1.0561,-0.5942,1.0565,-0.6912,-42.75,10.5,0.375
6.084127,-4.2049,1.8191,2.7939,-0.5942,1.0565,-0.6912,-42.6,9.3,-2.625
6.104127,-1.5948,1.0062,3.7621,-0.8747,0.1387,-0.2741,-42.6,9.3,-2.625
6.124127,0.7203,1.1602,2.1185,-0.8747,0.1387,-0.2741,-42.6,9.3,-2.625
6.144127,0.5647,0.5968,1.799,-0.8747,0.1387,-0.2741,-42.6,9.3,-2.625
6.164127,-0.8174,-0.9359,1.7653,-0.8251,-0.422,-0.24625,-42.9,8.7,-1.05
6.184127,-1.42495,-1.11845,0.2751,-0.7755,-0.9827,-0.2184,-42.9,8.7,-1.05
6.204127,-0.2791,-1.3011,1.8928,-0.7755,-0.9827,-0.2184,-42.9,8.7,-1.05
6.224127,-1.22445,-0.5134,0.4129,-0.7755,-0.9827,-0.2184,-42.9,8.7,-1.05
6.244127,-0.35925,-1.2559,-1.2709,-0.4241,-1.0988,-0.2472,-43.35,8.55,2.25
6.264127,-0.422,-1.4223,-1.4086,-0.4241,-1.0988,-0.2472,-43.35,8.55,2.25
6.284127,-0.4475,-0.8715,-0.6763,-0.4241,-1.0988,-0.2472,-43.35,8.55,2.25
6.304127,-0.5407,-0.5594,-0.0622,-0.36675,-1.0922,-0.21005,-43.5,7.575,6.45
6.324127,-0.6102,-1.4239,-0.4786,-0.3094,-1.0856,-0.1729,-43.5,7.575,6.45
6.344127,-1.3908,-0.9689,-1.548,-0.3094,-1.0856,-0.1729,-43.5,7.575,6.45
6.364127,-0.9777,-1.2057,0.2891,-0.3094,-1.0856,-0.1729,-43.05,7.95,9.9
6.384127,-0.3131,-1.341,1.1221,-0.0573,-1.2412,-0.1811,-43.05,7.95,9.9
6.404127,0.9305,-0.9652,0.7792,-0.0573,-1.2412,-0.1811,-43.05,7.95,9.9
6.424127,1.1983,-1.4906,-0.0789,-0.0573,-1.2412,-0.1811,-43.05,7.95,9.9
6.444127,0.7957,-0.4506,-1.8346,0.5198,-0.9974,-0.1675,-42.15,7.575,13.875
6.464127,2.0185,-0.3875,-1.0823,0.5198,-0.9974,-0.1675,-42.15,7.575,13.875
6.484127,1.4261,-1.5166,-0.4022,0.5198,-0.9974,-0.1675,-42.15,7.575,13.875
6.504127,0.6364,-1.3594,-0.446,0.5198,-0.9974,-0.1675,-41.1,6.75,16.2
6.524127,0.2932,-1.1388,-1.3613,0.8673,-0.3928,-0.2117,-41.1,6.75,16.2
6.544127,0.78545,-0.84995,-1.57745,0.8673,-0.3928,-0.2117,-41.1,6.75,16.2
6.564127,-1.7616,-2.0762,-0.1066,0.8673,-0.3928,-0.2117,-41.1,6.75,16.2
6.584127,0.923,-1.5429,0.7101,1.1598,0.2243,-0.1779,-40.8,7.875,17.25
6.604127,-0.0518,-1.5907,0.5564,1.1598,0.2243,-0.1779,-40.8,7.875,17.25
6.624127,-0.28915,-1.7935,0.2999,1.1598,0.2243,-0.1779,-40.8,7.875,17.25
6.644127,-0.71345,-1.75395,0.44615,1.1598,0.2243,-0.1779,-41.55,9.525,16.8
6.664127,-0.56605,-1.42115,0.61025,1.3646,0.3389,-0.277,-41.55,9.525,16.8
6.684127,-0.5498,-0.867,0.395,1.3646,0.3389,-0.277,-41.55,9.525,16.8
6.704127,-0.1344,-0.3295,0.4424,1.3646,0.3389,-0.277,-41.55,9.525,16.8
6.724127,0.247,-0.15355,0.5572,1.4697,-0.0255,-0.3328,-42.6,9.675,15.075
6.744127,0.0974,0.0856,0.5359,1.4697,-0.0255,-0.3328,-42.6,9.675,15.075
6.764127,-0.6388,1.0008,0.0299,1.4697,-0.0255,-0.3328,-42.6,9.675,15.075
6.784127,-0.2236,1.188,-0.56,1.4697,-0.0255,-0.3328,-42.9,9.075,14.7
6.804127,0.3462,0.7408,-0.7576,1.5816,0.0347,-0.3705,-42.9,9.075,14.7
6.824127,0.4362,0.4484,-0.0888,1.5816,0.0347,-0.3705,-42.9,9.075,14.7
6.844127,-0.2493,0.6225,-1.1473,1.5816,0.0347,-0.3705,-42.675,8.8875,14.1375
6.864127,-0.7585,1.0693,-0.1905,1.609,-0.0176,-0.3439,-42.45,8.7,13.575
6.884127,-0.5466,0.2873,0.0889,1.609,-0.0176,-0.3439,-42.45,8.7,13.575
6.904127,-0.3258,0.05075,-0.3946,1.609,-0.0176,-0.3439,-42.45,8.7,13.575
6.924127,-0.3669,0.4579,-1.4001,1.609,-0.0176,-0.3439,-42.15,8.7,12.45
6.944127,-0.3411,0.5274,-1.6879,1.8044,-0.2857,-0.4342,-42.15,8.7,12.45
6.964127,0.2601,-0.3169,-1.0567,1.8044,-0.2857,-0.4342,-42.15,8.7,12.45
6.984127,0.2569,-1.3447,-1.7212,1.8044,-0.2857,-0.4342,-42.15,8.7,12.45
7.004127,0.2153,-2.5062,-1.8679,2.0298,-0.42,-0.5611,-43.05,8.775,11.25
7.024127,0.4103,-2.2934,-3.5273,2.0298,-0.42,-0.5611,-43.05,8.775,11.25
7.044127,2.0491,-2.4025,-2.2599,2.0298,-0.42,-0.5611,-43.05,8.775,11.25
7.064127,2.1325,-3.5387,-0.8191,2.0298,-0.42,-0.5611,-43.05,8.625,11.475
7.084127,0.1991,-2.2562,2.2379,2.5999,-0.1245,-0.8045,-43.05,8.625,11.475
7.104127,-0.3048,0.0851,1.3796,2.5999,-0.1245,-0.8045,-43.05,8.625,11.475
7.124127,-0.541,3.4463,0.7101,2.5999,-0.1245,-0.8045,-43.05,8.625,11.475
7.144127,-0.9905,4.1504,0.1464,2.3776,0.217,-0.894,-43.35,7.725,9.75
7.164127,-1.5837,2.0798,0.041,2.3776,0.217,-0.894,-43.35,7.725,9.75
7.184127,-0.6602,1.6924,2.7132,2.3776,0.217,-0.894,-43.35,7.725,9.75
7.204127,-1.6129,2.8984,2.1989,2.3776,0.217,-0.894,-44.25,6.45,8.55
7.224127,-0.8911,3.6734,1.0726,0.8077,-0.2269,-0.6605,-44.25,6.45,8.55
7.244127,1.1149,3.7098,-1.5133,0.8077,-0.2269,-0.6605,-44.25,6.45,8.55
7.264127,1.171,2.9691,-0.8587,0.8077,-0.2269,-0.6605,-44.25,6.45,8.55
7.284127,0.6509,1.6199,1.5321,-0.8863,-0.4951,-0.3506,-43.8,5.475,9
7.304127,-0.1331,0.9566,1.2161,-0.8863,-0.4951,-0.3506,-43.8,5.475,9
7.324127,0.01455,1.65165,-0.5694,-0.8863,-0.4951,-0.3506,-43.8,5.475,9
7.344127,0.0902,1.2794,-0.7761,-1.5681,-0.527,-0.2075,-43.125,3.825,11.55
7.364127,0.2438,0.3546,1.1854,-2.2499,-0.5589,-0.0644,-43.125,3.825,11.55
7.384127,0.1958,-0.6108,0.0862,-2.2499,-0.5589,-0.0644,-43.125,3.825,11.55
7.404127,-0.0087,-0.88125,-0.4373,-2.2499,-0.5589,-0.0644,-43.125,3.825,11.55
7.424127,-0.7893,-0.3554,-0.6577,-3.0884,-0.3654,0.1107,-42.825,2.25,13.875
7.444127,-2.9192,-3.7186,-1.1372,-3.0884,-0.3654,0.1107,-42.825,2.25,13.875
7.464127,1.1904,-4.8637,0.927,-3.0884,-0.3654,0.1107,-42.825,2.25,13.875
7.484127,1.8247,-3.9978,-0.526,-3.0884,-0.3654,0.1107,-42.15,0.675,17.1
7.504127,1.9914,-3.2125,-1.1324,-2.5961,-0.2245,0.3738,-42.15,0.675,17.1
7.524127,1.1319,-3.2696,1.3059,-2.5961,-0.2245,0.3738,-42.15,0.675,17.1
7.544127,0.8012,-3.2197,1.0673,-2.5961,-0.2245,0.3738,-42.15,-0.6,19.05
7.564127,0.8154,-2.7522,0.5369,-1.3755,0.2643,0.2578,-42.15,-0.6,19.05
7.584127,0.3898,-2.8773,-0.0893,-1.3755,0.2643,0.2578,-42.15,-0.6,19.05
7.604127,-0.0604,-2.2027,-0.0692,-1.3755,0.2643,0.2578,-42.15,-0.6,19.05
7.624127,-0.143,-0.6147,-0.7514,-0.8122,0.37845,0.26,-41.925,-1.125,18.6
7.644127,0.0155,-0.4475,-0.4255,-0.2489,0.4926,0.2622,-41.925,-1.125,18.6
7.664127,0.2949,-0.5915,0.3401,-0.2489,0.4926,0.2622,-41.925,-1.125,18.6
7.684127,0.4993,-0.6244,-0.0982,-0.2489,0.4926,0.2622,-42.6,-1.275,17.175
7.704127,0.4843,-0.3187,-0.3141,0.1753,0.3679,0.2569,-42.6,-1.275,17.175
7.724127,0.1343,-0.0874,-0.2238,0.1753,0.3679,0.2569,-42.6,-1.275,17.175
7.744127,-0.4874,0.3723,-0.3739,0.1753,0.3679,0.2569,-42.6,-1.275,17.175
7.764127,-0.6266,0.2765,-0.3123,0.1753,0.3679,0.2569,-43.35,-0.975,15.15
7.784127,0.0095,-0.1178,0.3623,0.4936,0.2512,0.2129,-43.35,-0.975,15.15
7.804127,0.1948,-0.0002,0.2174,0.4936,0.2512,0.2129,-43.35,-0.975,15.15
7.824127,0.27785,0.4351,-0.09355,0.4936,0.2512,0.2129,-43.35,-0.975,15.15
7.844127,0.1311,0.592,-0.3837,0.6086,0.1959,0.1894,-43.05,-0.075,13.35
7.864127,0.2555,0.347,-0.2493,0.6086,0.1959,0.1894,-43.05,-0.075,13.35
7.884127,0.0403,0.0461,-0.21585,0.6086,0.1959,0.1894,-43.05,-0.075,13.35
7.904127,-0.2713,0.199,0.209,0.63425,0.2188,0.17695,-43.8,-0.15,12.75
7.924127,-0.45985,0.8703,0.28155,0.6599,0.2417,0.1645,-43.8,-0.15,12.75
7.944127,-0.356,0.9333,-0.0192,0.6599,0.2417,0.1645,-43.8,-0.15,12.75
7.964127,0.098,0.6781,0.053,0.6599,0.2417,0.1645,-43.65,1.2,11.475
7.984127,0.2603,0.6254,0.2006,0.7448,0.2892,0.1665,-43.65,1.2,11.475
8.004127,-0.0059,0.874,0.2703,0.7448,0.2892,0.1665,-43.65,1.2,11.475
8.024127,0.0393,1.0669,0.4173,0.7448,0.2892,0.1665,-43.65,1.2,11.475
8.044127,0.1156,1.0833,0.3852,0.73855,0.39085,0.139,-44.025,2.25,9.975
8.064127,0.1097,0.9791,0.1665,0.7323,0.4925,0.1115,-44.025,2.25,9.975
8.084127,-0.2216,1.0016,0.1084,0.7323,0.4925,0.1115,-44.025,2.25,9.975
8.104127,-0.5061,1.3428,0.394,0.7323,0.4925,0.1115,-43.5375,2.55,9.5625
8.124127,-0.2427,1.33735,0.13535,0.7642,0.5223,0.0305,-43.05,2.85,9.15
8.144127,-0.2216,0.9277,0.7936,0.7642,0.5223,0.0305,-43.05,2.85,9.15
8.164127,-0.2994,0.7126,0.3373,0.7642,0.5223,0.0305,-43.05,2.85,9.15
8.184127,-0.5934,1.0836,-0.031,0.8094,0.4041,0.0052,-43.725,3.075,6.9
8.204127,-0.1289,1.4285,-0.107,0.8094,0.4041,0.0052,-43.725,3.075,6.9
8.224127,-0.1832,1.0873,-0.0058,0.8094,0.4041,0.0052,-43.725,3.075,6.9
8.244127,-0.5109,0.3307,0.1177,0.8094,0.4041,0.0052,-43.9125,3.1875,6.3375
8.264127,-0.0992,0.6524,0.3745,0.8004,0.3715,-0.002,-44.1,3.3,5.775
8.284127,-0.1389,0.9175,0.3055,0.8004,0.3715,-0.002,-44.1,3.3,5.775
8.304127,-0.1922,1.0515,0.2124,0.8004,0.3715,-0.002,-44.1,3.3,5.775
8.324127,-0.002,1.0755,-0.0474,0.7805,0.3376,-0.0249,-43.5,3.9,3.675
8.344127,0.0905,0.7189,0.0544,0.7805,0.3376,-0.0249,-43.5,3.9,3.675
8.364127,-0.0424,0.592,0.2353,0.7805,0.3376,-0.0249,-43.5,3.9,3.675
8.384127,-0.1052,0.656,0.2255,0.7805,0.3376,-0.0249,-44.625,4.05,2.55
8.404127,-0.4064,0.7808,0.3385,0.7585,0.2785,-0.0869,-44.625,4.05,2.55
8.424127,-0.4915,0.9172,0.3218,0.7585,0.2785,-0.0869,-44.625,4.05,2.55
8.444127,-0.2146,1.0914,0.2045,0.7585,0.2785,-0.0869,-44.625,4.05,2.55
8.464127,0.1338,0.7901,-0.01905,0.7585,0.2785,-0.0869,-44.025,4.125,1.8
8.484127,0.0176,0.5647,-0.0845,0.6377,0.2396,-0.0588,-44.025,4.125,1.8
8.504127,0.2264,0.5348,-0.0925,0.6377,0.2396,-0.0588,-44.025,4.125,1.8
8.524127,0.247,0.6358,-0.283,0.6377,0.2396,-0.0588,-44.1,3.9,0.9
8.544127,-0.0613,0.4135,-0.0016,0.5232,0.1828,-0.0693,-44.1,3.9,0.9
8.564127,-0.295,0.2801,0.2833,0.5232,0.1828,-0.0693,-44.1,3.9,0.9
8.584127,-0.2686,0.2752,0.1279,0.5232,0.1828,-0.0693,-44.1,3.9,0.9
8.604127,0.502,0.659,0.0147,0.3714,0.082,-0.075,-44.25,3.975,-0.45
8.624127,0.11195,0.477,0.1082,0.3714,0.082,-0.075,-44.25,3.975,-0.45
8.644127,-0.3339,-0.1167,0.0675,0.3714,0.082,-0.075,-44.25,3.975,-0.45
8.664127,-0.0415,-0.1359,-0.0062,0.3714,0.082,-0.075,-44.1,3.225,-0.75
8.684127,-0.4741,-0.0622,0.4404,0.2987,0.0182,-0.098,-44.1,3.225,-0.75
8.704127,0.1907,0.0644,-0.2912,0.2987,0.0182,-0.098,-44.1,3.225,-0.75
8.724127,0.0717,0.3118,-0.099,0.2987,0.0182,-0.098,-44.1,3.225,-0.75
8.744127,0.1266,0.2618,0.2506,0.24615,0.0182,-0.0906,-44.925,2.625,-1.5
8.764127,0.0638,0.1743,-0.015,0.1936,0.0182,-0.0832,-44.925,2.625,-1.5
8.784127,-0.0604,-0.0199,-0.1535,0.1936,0.0182,-0.0832,-44.925,2.625,-1.5
8.804127,-0.08775,0.21405,-0.0439,0.1936,0.0182,-0.0832,-45,2.4,-1.05
8.824127,-0.0463,0.129,-0.4197,0.1043,-0.0113,-0.0956,-45,2.4,-1.05
8.844127,0.13365,-0.1113,-0.2334,0.1043,-0.0113,-0.0956,-45,2.4,-1.05
8.864127,0.1393,0.0074,0.3654,0.1043,-0.0113,-0.0956,-45.075,2.4,-1.05
8.884127,-0.0635,0.04795,0.3724,-0.0076,-0.0437,-0.0434,-45.15,2.4,-1.05
8.904127,0.139,-0.0161,0.0744,-0.0076,-0.0437,-0.0434,-45.15,2.4,-1.05
8.924127,0.1155,-0.0618,0.0329,-0.0076,-0.0437,-0.0434,-45.15,2.4,-1.05
8.944127,-0.1155,0.025,0.1853,0.021,-0.0318,-0.0686,-44.55,2.325,-0.75
8.964127,-0.0881,0.0484,0.056,0.0496,-0.0199,-0.0938,-44.55,2.325,-0.75
8.984127,-0.0535,-0.0876,-0.0415,0.0496,-0.0199,-0.0938,-44.55,2.325,-0.75
9.004127,0.0344,0.0413,0.0037,0.0496,-0.0199,-0.0938,-44.85,2.625,-1.35
9.024127,0.0256,0.1967,0.0497,0.0391,-0.0049,-0.0713,-44.85,2.625,-1.35
9.044127,-0.2562,-0.0527,-0.057,0.0391,-0.0049,-0.0713,-44.85,2.625,-1.35
9.064127,-0.1014,-0.006,-0.0536,0.0391,-0.0049,-0.0713,-44.85,2.625,-1.35
9.084127,0.0834,0.1159,-0.34165,0.0391,-0.0049,-0.0713,-44.7,1.875,-0.75
9.104127,0.1679,-0.0255,-0.1355,0.027,-0.038,-0.0699,-44.7,1.875,-0.75
9.124127,-0.14895,0.2133,-0.0025,0.027,-0.038,-0.0699,-44.7,1.875,-0.75
9.144127,0.0941,0.04815,-0.15565,0.027,-0.038,-0.0699,-44.7,1.875,-0.75
9.164127,0.0566,-0.0073,-0.1013,-0.0238,-0.0522,-0.0478,-45.525,1.8,-0.3
9.184127,-0.0914,0.0801,-0.0735,-0.0238,-0.0522,-0.0478,-45.525,1.8,-0.3
9.204127,0.0461,0.1274,-0.0569,-0.0238,-0.0522,-0.0478,-45.525,1.8,-0.3
9.224127,0.06685,0.0789,-0.06255,-0.0238,-0.0522,-0.0478,-45.15,2.025,0.15
9.244127,0.2167,0.0498,-0.1185,-0.0505,-0.0154,-0.0275,-45.15,2.025,0.15
9.264127,-0.0025,0.0089,-0.1188,-0.0505,-0.0154,-0.0275,-45.15,2.025,0.15
9.284127,0.09625,0.0918,0.0704,-0.0505,-0.0154,-0.0275,-44.7,1.5,-0.525
9.304127,0.1555,0.0608,-0.6715,-0.0609,0.0246,-0.0425,-44.7,1.5,-0.525
9.324127,0.0292,0.03,0.231,-0.0609,0.0246,-0.0425,-44.7,1.5,-0.525
9.344127,-0.1015,-0.0128,-0.1244,-0.0609,0.0246,-0.0425,-44.7,1.5,-0.525
9.364127,0.022,-0.0751,-0.1902,-0.0804,0.01595,-0.0412,-44.925,1.05,-0.75
9.384127,0.0155,0.017,-0.052,-0.0999,0.0073,-0.0399,-44.925,1.05,-0.75
9.404127,0.1391,-0.0217,0.0344,-0.0999,0.0073,-0.0399,-44.925,1.05,-0.75
9.424127,0.0879,-0.014,-0.0411,-0.0999,0.0073,-0.0399,-44.5875,1.0125,-0.75
9.444127,-0.0165,-0.0226,-0.0558,-0.0814,0.0156,-0.0293,-44.25,0.975,-0.75
9.464127,-0.0046,0.026,-0.1091,-0.0814,0.0156,-0.0293,-44.25,0.975,-0.75
9.484127,0.044,0.0473,-0.1553,-0.0814,0.0156,-0.0293,-44.25,0.975,-0.75
9.504127,-0.02,-0.0188,-0.1959,-0.053,0.02635,-0.03135,-44.55,1.125,-0.75
9.524127,0.0056,-0.0279,-0.0262,-0.0246,0.0371,-0.0334,-44.55,1.125,-0.75
9.544127,0.0507,-0.0847,-0.0011,-0.0246,0.0371,-0.0334,-44.55,1.125,-0.75
9.564127,-0.031,-0.0357,-0.1199,-0.0246,0.0371,-0.0334,-44.55,1.125,-0.75
9.584127,-0.1826,-0.0604,-0.1572,-0.0255,0.0414,-0.0296,-45.45,0.6,-0.45
9.604127,-0.2252,0.039,-0.0966,-0.0255,0.0414,-0.0296,-45.45,0.6,-0.45
9.624127,-0.22075,0.09145,-0.0811,-0.0255,0.0414,-0.0296,-45.45,0.6,-0.45
9.644127,-0.2175,0.1179,-0.0673,-0.01975,0.04055,-0.0186,-44.85,1.275,-0.6
9.664127,-0.25745,0.11385,-0.11295,-0.014,0.0397,-0.0076,-44.85,1.275,-0.6
9.684127,-0.1571,-0.2452,0.0517,-0.014,0.0397,-0.0076,-44.85,1.275,-0.6
9.704127,-0.10105,-0.21215,-0.0512,-0.014,0.0397,-0.0076,-44.25,1.125,-1.125
9.724127,-0.15305,0.1317,-0.05575,0.0275,-0.0199,-0.0017,-44.25,1.125,-1.125
9.744127,-0.2111,0.0582,-0.0437,0.0275,-0.0199,-0.0017,-44.25,1.125,-1.125
9.764127,-0.316,0.0271,-0.03045,0.0275,-0.0199,-0.0017,-44.25,1.125,-1.125
9.784127,-0.1206,0.04225,0.0178,0.0534,-0.062,0.0102,-44.85,0.825,-1.05
9.804127,0.0749,0.0743,-0.0653,0.0534,-0.062,0.0102,-44.85,0.825,-1.05
9.824127,-0.00375,-0.2016,0.0323,0.0534,-0.062,0.0102,-44.85,0.825,-1.05
9.844127,-0.44,-0.0609,-0.0003,0.0534,-0.062,0.0102,-44.85,0.825,-1.05
9.864127,-0.10285,0.0834,0.08615,0.0672,-0.0761,0.036,-44.85,0.825,-1.05
9.884127,0.1417,-0.0067,-0.2794,0.0672,-0.0761,0.036,-44.85,0.825,-1.05
9.904127,0.1526,0.1336,0.6435,0.0672,-0.0761,0.036,-44.85,0.825,-1.05
9.924127,-0.11,0.0756,-0.1153,0.08,-0.049,0.0131,-44.25,1.2,-0.45
9.944127,-0.0703,0.0506,-0.3279,0.08,-0.049,0.0131,-44.25,1.2,-0.45
9.964127,0.1398,0.1996,-0.0881,0.08,-0.049,0.0131,-44.25,1.2,-0.45
9.984127,-0.0446,-0.0546,-0.0099,0.08,-0.049,0.0131,-43.95,1.5,0
10.004127,-0.0624,-0.1066,0.009,0.1124,-0.0423,0.0139,-43.95,1.5,0
10.024127,0.0633,-0.1316,-0.075,0.1124,-0.0423,0.0139,-43.95,1.5,0
10.044127,0.1128,0.029,-0.02285,0.1124,-0.0423,0.0139,-43.95,1.5,0
10.064127,0.3015,0.22655,-0.1082,0.1327,0.0034,-0.0089,-45,1.2,0.075
10.084127,0.2123,-0.1275,-0.2804,0.1327,0.0034,-0.0089,-45,1.2,0.075
10.104127,0.0947,-0.0387,0.0267,0.1327,0.0034,-0.0089,-45,1.2,0.075
10.124127,-0.0118,-0.0103,0.0379,0.1327,0.0034,-0.0089,-44.925,0.75,0.15
10.144127,-0.0891,-0.0184,0.0169,0.1115,0.0501,-0.0215,-44.925,0.75,0.15
10.164127,-0.2079,-0.0049,-0.0196,0.1115,0.0501,-0.0215,-44.925,0.75,0.15
10.184127,-0.1589,0.0843,0.0047,0.1115,0.0501,-0.0215,-44.925,0.75,0.15
10.204127,-0.086,0.0941,0.0017,0.0887,0.1381,-0.0475,-43.8,1.65,-0.6
10.224127,-0.2065,0.168,0.1528,0.0887,0.1381,-0.0475,-43.8,1.65,-0.6
10.244127,0.0839,0.1366,0.2231,0.0887,0.1381,-0.0475,-43.8,1.65,-0.6
10.264127,0.1527,-0.0089,0.2006,0.0887,0.1381,-0.0475,-42.3,2.475,-1.725
10.284127,0.1501,0.1718,0.1545,0.0647,0.13,-0.0315,-42.3,2.475,-1.725
10.304127,0.0728,0.1189,-0.0062,0.0647,0.13,-0.0315,-42.3,2.475,-1.725
10.324127,-0.04,0.091,-0.0495,0.0647,0.13,-0.0315,-42.3,2.475,-1.725
10.344127,-0.1809,-0.1397,0.1293,0.0834,0.0611,0.022,-43.8,1.65,-2.325
10.364127,-0.1018,-0.1232,0.2558,0.0834,0.0611,0.022,-43.8,1.65,-2.325
10.384127,0.0173,-0.1661,0.1033,0.0834,0.0611,0.022,-43.8,1.65,-2.325
10.404127,-0.0578,-0.6038,-0.1821,0.0834,0.0611,0.022,-44.85,1.575,-1.725
10.424127,-0.0272,-1.0856,0.3666,0.1121,0.0505,0.0473,-44.85,1.575,-1.725
10.444127,0.113,-1.4276,-0.3258,0.1121,0.0505,0.0473,-44.85,1.575,-1.725
10.464127,1.0791,-0.6716,0.5958,0.1121,0.0505,0.0473,-45.225,0.9,-1.5
10.484127,-0.2207,0.2534,0.1627,0.0693,0.0706,-0.1112,-45.225,0.9,-1.5
10.504127,-0.8123,0.7807,-0.0885,0.0693,0.0706,-0.1112,-45.225,0.9,-1.5
10.524127,-1.2327,0.5349,-0.2966,0.0693,0.0706,-0.1112,-45.225,0.9,-1.5
10.544127,0.7631,0.1576,0.1112,0.05055,0.03875,-0.07125,-45.3,1.125,-2.25
10.564127,0.3982,0.1287,0.085,0.0318,0.0069,-0.0313,-45.3,1.125,-2.25
10.584127,0.4267,-0.1526,-0.0557,0.0318,0.0069,-0.0313,-45.3,1.125,-2.25
10.604127,0.0148,-0.6219,0.1223,0.0318,0.0069,-0.0313,-45.4125,1.2,-1.875
10.624127,-0.567,0.769,0.122,0.021,0.0092,0.01085,-45.525,1.275,-1.5
10.644127,-0.7286,0.13735,-0.1126,0.0102,0.0115,0.053,-45.525,1.275,-1.5
10.664127,0.5954,-0.9427,-0.2654,0.0102,0.0115,0.053,-45.525,1.275,-1.5
10.684127,-0.0287,-0.1134,-0.04105,0.0102,0.0115,0.053,-44.4,1.275,-1.8
10.704127,-0.222,-0.2328,0.0099,0.0073,0.0057,0.1628,-44.4,1.275,-1.8
10.724127,0.2161,-0.4869,0.08845,0.0073,0.0057,0.1628,-44.4,1.275,-1.8
10.744127,-0.6498,0.2833,-0.0238,0.0073,0.0057,0.1628,-44.475,1.2375,-2.175
10.764127,-0.0978,-0.3572,-0.2049,-0.0247,0.0127,-0.0922,-44.55,1.2,-2.55
10.784127,-0.5883,-0.2004,0.1018,-0.0247,0.0127,-0.0922,-44.55,1.2,-2.55
10.804127,-0.0261,-0.5463,-0.1489,-0.0247,0.0127,-0.0922,-44.55,1.2,-2.55
10.824127,-0.9766,0.1149,0.3492,-0.0935,0.0354,-0.1074,-45.15,1.2,-2.025
10.844127,0.0621,-1.3208,0.042,-0.0935,0.0354,-0.1074,-45.15,1.2,-2.025
10.864127,0.0992,0.7488,-0.0177,-0.0935,0.0354,-0.1074,-45.15,1.2,-2.025
10.884127,0.0115,1.4855,0.1372,-0.0935,0.0354,-0.1074,-44.925,1.275,-2.2875
10.904127,-0.4333,2.0072,0.1163,-0.1403,0.0803,-0.0287,-44.7,1.35,-2.55
10.924127,-0.0138,4.20025,0.7022,-0.1403,0.0803,-0.0287,-44.7,1.35,-2.55
10.944127,0.0796,3.3668,-0.1493,-0.1403,0.0803,-0.0287,-44.7,1.35,-2.55
10.964127,-0.4504,1.7354,0.013,0.01535,0.1085,-0.03395,-44.7,1.725,-2.325
10.984127,0.7001,-1.3975,0.4406,0.171,0.1367,-0.0392,-44.7,1.725,-2.325
11.004127,0.5982,-1.4403,-0.0702,0.171,0.1367,-0.0392,-44.7,1.725,-2.325
11.024127,-0.2992,0.5056,-0.3144,0.171,0.1367,-0.0392,-44.775,1.0125,-2.5125
11.044127,0.0165,0.214,-0.2027,0.3581,0.0635,-0.0449,-44.85,0.3,-2.7
11.064127,0.1374,-1.605,0.2286,0.3581,0.0635,-0.0449,-44.85,0.3,-2.7
11.084127,-0.03345,-0.8487,-0.1488,0.3581,0.0635,-0.0449,-44.85,0.3,-2.7
11.104127,-0.076,-0.3383,-0.1105,0.2337,0.0736,-0.0335,-44.55,0.45,-3.75
11.124127,-0.1795,0.006,-0.1272,0.1093,0.0837,-0.0221,-44.55,0.45,-3.75
11.144127,0.2145,-0.0604,-0.58725,0.1093,0.0837,-0.0221,-44.55,0.45,-3.75
11.164127,-0.0155,0.4996,0.0248,0.1093,0.0837,-0.0221,-44.55,0.45,-3.75
11.184127,0.1587,-0.86215,0.3613,-0.0087,-0.0185,0.2627,-44.4,0.3,-3.75
11.204127,0.0384,-0.8093,0.0612,-0.0087,-0.0185,0.2627,-44.4,0.3,-3.75
11.224127,-0.0621,0.2628,-0.0249,-0.0087,-0.0185,0.2627,-44.4,0.3,-3.75
11.244127,-0.4028,0.7181,-0.1111,0.05355,-0.0145,0.1587,-44.1,1.275,-3.525
11.264127,0.105,0.6048,0.0476,0.1158,-0.0105,0.0547,-44.1,1.275,-3.525
11.284127,0.1768,-0.0381,-0.0024,0.1158,-0.0105,0.0547,-44.1,1.275,-3.525
11.304127,0.2752,-0.4287,-0.0832,0.1158,-0.0105,0.0547,-44.4,1.35,-3.6375
11.324127,-0.0768,0.0252,-0.0723,0.0719,0.0568,0.0107,-44.7,1.425,-3.75
11.344127,-0.0201,-0.11715,0.00245,0.0719,0.0568,0.0107,-44.7,1.425,-3.75
11.364127,-0.1114,0.0156,-0.0764,0.0719,0.0568,0.0107,-44.7,1.425,-3.75
11.384127,-0.1113,0.047,-0.0448,0.04945,0.05045,0.039,-44.55,1.8,-3.525
11.404127,-0.1094,-0.0137,-0.0484,0.027,0.0441,0.0673,-44.55,1.8,-3.525
11.424127,-0.068,0.0983,-0.0166,0.027,0.0441,0.0673,-44.55,1.8,-3.525
11.444127,-0.0787,0.0086,-0.0417,0.027,0.0441,0.0673,-44.55,1.8,-3.525
11.464127,-0.1763,0.1329,-0.103,-0.0188,0.0389,0.0082,-44.7,1.2,-4.2
11.484127,0.0359,0.0621,0.0194,-0.0188,0.0389,0.0082,-44.7,1.2,-4.2
11.504127,0.1373,0.0659,0.0925,-0.0188,0.0389,0.0082,-44.7,1.2,-4.2
11.524127,0.0452,0.1099,-0.1422,-0.0367,0.0498,0.0101,-44.55,1.65,-4.05
11.544127,-0.1036,-0.0622,0.1923,-0.0367,0.0498,0.0101,-44.55,1.65,-4.05
11.564127,-0.558,0.3067,0.9929,-0.0367,0.0498,0.0101,-44.55,1.65,-4.05
11.584127,-0.1781,0.0473,0.304,-0.0367,0.0498,0.0101,-44.625,1.8375,-4.2
11.604127,0.1048,0.0041,-0.01,-0.0023,0.0675,0.0116,-44.7,2.025,-4.35
11.624127,0.0965,0.0469,0.1179,-0.0023,0.0675,0.0116,-44.7,2.025,-4.35
11.644127,-0.1781,0.2294,-0.0461,-0.0023,0.0675,0.0116,-44.7,2.025,-4.35
11.664127,-0.106,0.1076,0.1138,-0.0883,-0.0107,0.0047,-44.85,2.4,-4.35
