
time,ax,ay,az,wx,wy,wz,Bx,By,Bz,
0.025328,0.0000,0.0000,0.0000,-0.2381,0.3169,0.0389,0.0000,0.0000,0.0000,
0.030753,0.0000,0.0000,0.0000,-0.2381,0.3169,0.0389,0.0000,0.0000,0.0000,
0.037345,0.0000,0.0000,0.0000,-0.2381,0.3169,0.0389,0.0000,0.0000,0.0000,
0.050188,0.0000,0.0000,0.0000,-0.2381,0.3169,0.0389,0.0000,0.0000,0.0000,
0.070395,0.0000,0.0000,0.0000,-0.2381,0.3169,0.0389,0.0000,0.0000,0.0000,
0.087363,0.0000,0.0000,0.0000,-0.2381,0.3169,0.0389,-25.5600,31.9800,-15.3600,
0.090758,0.0000,0.0000,0.0000,-0.1177,0.0746,-0.0453,-25.5600,31.9800,-15.3600,
0.099040,0.0000,0.0000,0.0000,-0.1177,0.0746,-0.0453,-25.5600,31.9800,-15.3600,
0.099658,-0.1550,-0.0995,0.0445,-0.1177,0.0746,-0.0453,-25.5600,31.9800,-15.3600,
0.111342,-0.1550,-0.0995,0.0445,-0.0394,0.1156,-0.0149,-25.5600,31.9800,-15.3600,
0.132688,-0.1550,-0.0995,0.0445,-0.0533,0.2615,0.0085,-25.5600,31.9800,-15.3600,
0.148267,-0.1550,-0.0995,0.0445,-0.0533,0.2615,0.0085,-17.3400,36.9000,-3.0600,
0.152289,-0.1550,-0.0995,0.0445,-0.2157,0.2541,0.0591,-17.3400,36.9000,-3.0600,
0.160451,-0.1550,-0.0995,0.0445,-0.2157,0.2541,0.0591,-17.3400,36.9000,-3.0600,
0.161028,0.2461,0.3481,-0.5967,-0.2157,0.2541,0.0591,-17.3400,36.9000,-3.0600,
0.172774,0.2461,0.3481,-0.5967,-0.3819,0.3883,0.0533,-17.3400,36.9000,-3.0600,
0.193525,0.2461,0.3481,-0.5967,-0.3217,0.2913,-0.0389,-17.3400,36.9000,-3.0600,
0.210696,0.2461,0.3481,-0.5967,-0.3217,0.2913,-0.0389,-13.9200,39.0000,3.3000,
0.214080,0.2461,0.3481,-0.5967,-0.2285,0.4581,-0.1790,-13.9200,39.0000,3.3000,
0.222428,0.2461,0.3481,-0.5967,-0.2285,0.4581,-0.1790,-13.9200,39.0000,3.3000,
0.223052,-0.2117,-0.1234,0.0807,-0.2285,0.4581,-0.1790,-13.9200,39.0000,3.3000,
0.236410,-0.2117,-0.1234,0.0807,-0.1683,0.3025,-0.1635,-13.9200,39.0000,3.3000,
0.255362,-0.2117,-0.1234,0.0807,-0.1326,0.3334,-0.1236,-13.9200,39.0000,3.3000,
0.272153,-0.2117,-0.1234,0.0807,-0.1326,0.3334,-0.1236,-10.3800,41.3400,9.4200,
0.275570,-0.2117,-0.1234,0.0807,-0.3377,0.8160,-0.0858,-10.3800,41.3400,9.4200,
0.283941,-0.2117,-0.1234,0.0807,-0.3377,0.8160,-0.0858,-10.3800,41.3400,9.4200,
0.284613,-0.5345,1.1988,-0.6363,-0.3377,0.8160,-0.0858,-10.3800,41.3400,9.4200,
0.296407,-0.5345,1.1988,-0.6363,-0.5752,0.8661,0.0927,-10.3800,41.3400,9.4200,
0.316733,-0.5345,1.1988,-0.6363,-0.9838,1.3726,0.3617,-10.3800,41.3400,9.4200,
0.333788,-0.5345,1.1988,-0.6363,-0.9838,1.3726,0.3617,-10.9200,40.6200,9.2400,
0.336864,-0.5345,1.1988,-0.6363,-1.6576,1.9196,0.5923,-10.9200,40.6200,9.2400,
0.345494,-0.5345,1.1988,-0.6363,-1.6576,1.9196,0.5923,-10.9200,40.6200,9.2400,
0.346171,-0.9239,-0.2066,-2.2784,-1.6576,1.9196,0.5923,-10.9200,40.6200,9.2400,
0.357542,-0.9239,-0.2066,-2.2784,-1.9169,1.8967,0.8011,-10.9200,40.6200,9.2400,
0.378135,-0.9239,-0.2066,-2.2784,-1.7923,0.3728,1.1718,-10.9200,40.6200,9.2400,
0.394614,-0.9239,-0.2066,-2.2784,-1.7923,0.3728,1.1718,-11.8200,40.4400,10.0800,
0.398402,-0.9239,-0.2066,-2.2784,-1.3598,-0.4991,1.2080,-11.8200,40.4400,10.0800,
0.406791,-0.9239,-0.2066,-2.2784,-1.3598,-0.4991,1.2080,-11.8200,40.4400,10.0800,
0.407434,2.7054,-3.8408,2.8282,-1.3598,-0.4991,1.2080,-11.8200,40.4400,10.0800,
0.419089,2.7054,-3.8408,2.8282,-0.5838,-0.9316,0.7483,-11.8200,40.4400,10.0800,
0.439560,2.7054,-3.8408,2.8282,-0.4501,-0.4735,0.3308,-11.8200,40.4400,10.0800,
0.456263,2.7054,-3.8408,2.8282,-0.4501,-0.4735,0.3308,-12.0000,39.9000,11.4000,
0.460235,2.7054,-3.8408,2.8282,0.0538,0.0692,0.4890,-12.0000,39.9000,11.4000,
0.468595,2.7054,-3.8408,2.8282,0.0538,0.0692,0.4890,-12.0000,39.9000,11.4000,
0.469208,3.2231,-6.0093,1.3916,0.0538,0.0692,0.4890,-12.0000,39.9000,11.4000,
0.480578,3.2231,-6.0093,1.3916,0.2967,-0.0320,0.3388,-12.0000,39.9000,11.4000,
0.501193,3.2231,-6.0093,1.3916,0.6322,-0.1571,0.5268,-12.0000,39.9000,11.4000,
0.518436,3.2231,-6.0093,1.3916,0.6322,-0.1571,0.5268,-11.1000,39.6000,13.2000,
0.522517,3.2231,-6.0093,1.3916,0.7159,0.0016,1.0104,-11.1000,39.6000,13.2000,
0.530959,3.2231,-6.0093,1.3916,0.7159,0.0016,1.0104,-11.1000,39.6000,13.2000,
0.531777,0.5689,-1.6119,-0.8281,0.7159,0.0016,1.0104,-11.1000,39.6000,13.2000,
0.542635,0.5689,-1.6119,-0.8281,0.5246,0.2727,0.8847,-11.1000,39.6000,13.2000,
0.562695,0.5689,-1.6119,-0.8281,0.2903,0.0048,0.0820,-11.1000,39.6000,13.2000,
0.580493,0.5689,-1.6119,-0.8281,0.2903,0.0048,0.0820,-9.7200,39.9000,14.8200,
0.583658,0.5689,-1.6119,-0.8281,0.0059,-0.0698,0.1316,-9.7200,39.9000,14.8200,
0.591651,0.5689,-1.6119,-0.8281,0.0059,-0.0698,0.1316,-9.7200,39.9000,14.8200,
0.592664,-0.4624,-0.3833,-0.4855,0.0059,-0.0698,0.1316,-9.7200,39.9000,14.8200,
0.603794,-0.4624,-0.3833,-0.4855,-0.1214,0.0362,0.1875,-9.7200,39.9000,14.8200,
0.624465,-0.4624,-0.3833,-0.4855,-0.0549,-0.0197,0.2690,-9.7200,39.9000,14.8200,
0.641303,-0.4624,-0.3833,-0.4855,-0.0549,-0.0197,0.2690,-7.8000,39.8400,15.1800,
0.644780,-0.4624,-0.3833,-0.4855,0.1055,0.0053,0.2253,-7.8000,39.8400,15.1800,
0.654087,-0.4624,-0.3833,-0.4855,0.1055,0.0053,0.2253,-7.8000,39.8400,15.1800,
0.655035,-0.4534,0.2294,0.0886,0.1055,0.0053,0.2253,-7.8000,39.8400,15.1800,
0.665384,-0.4534,0.2294,0.0886,0.1449,0.0479,0.1507,-7.8000,39.8400,15.1800,
0.686786,-0.4534,0.2294,0.0886,0.0980,0.0426,0.0266,-7.8000,39.8400,15.1800,
0.703193,-0.4534,0.2294,0.0886,0.0980,0.0426,0.0266,-5.8800,40.5600,15.3600,
0.706858,-0.4534,0.2294,0.0886,0.0538,-0.0048,-0.0016,-5.8800,40.5600,15.3600,
0.715362,-0.4534,0.2294,0.0886,0.0538,-0.0048,-0.0016,-5.8800,40.5600,15.3600,
0.716294,0.1879,-0.0459,-0.0215,0.0538,-0.0048,-0.0016,-5.8800,40.5600,15.3600,
0.728045,0.1879,-0.0459,-0.0215,0.0170,-0.0181,-0.0240,-5.8800,40.5600,15.3600,
0.748085,0.1879,-0.0459,-0.0215,-0.0037,-0.0027,-0.0234,-5.8800,40.5600,15.3600,
0.765337,0.1879,-0.0459,-0.0215,-0.0037,-0.0027,-0.0234,-5.3400,40.7400,14.5200,
0.769978,0.1879,-0.0459,-0.0215,0.0069,0.0085,-0.0123,-5.3400,40.7400,14.5200,
0.776385,0.1879,-0.0459,-0.0215,0.0069,0.0085,-0.0123,-5.3400,40.7400,14.5200,
0.777557,-0.1198,0.2057,0.1295,0.0069,0.0085,-0.0123,-5.3400,40.7400,14.5200,
0.789217,-0.1198,0.2057,0.1295,0.0261,0.0101,0.0021,-5.3400,40.7400,14.5200,
0.809340,-0.1198,0.2057,0.1295,0.0325,0.0069,0.0165,-5.3400,40.7400,14.5200,
0.826229,-0.1198,0.2057,0.1295,0.0325,0.0069,0.0165,-5.1600,40.8000,14.2200,
0.829772,-0.1198,0.2057,0.1295,0.0346,0.0069,0.0069,-5.1600,40.8000,14.2200,
0.838053,-0.1198,0.2057,0.1295,0.0346,0.0069,0.0069,-5.1600,40.8000,14.2200,
0.839046,0.0457,-0.0037,-0.0037,0.0346,0.0069,0.0069,-5.1600,40.8000,14.2200,
0.850157,0.0457,-0.0037,-0.0037,0.0144,-0.0053,-0.0069,-5.1600,40.8000,14.2200,
0.871295,0.0457,-0.0037,-0.0037,0.0037,-0.0053,-0.0112,-5.1600,40.8000,14.2200,
0.887149,0.0457,-0.0037,-0.0037,0.0037,-0.0053,-0.0112,-5.2800,40.9200,14.5200,
0.890820,0.0457,-0.0037,-0.0037,0.0032,0.0096,-0.0160,-5.2800,40.9200,14.5200,
0.899541,0.0457,-0.0037,-0.0037,0.0032,0.0096,-0.0160,-5.2800,40.9200,14.5200,
0.900064,-0.0577,0.1900,0.0470,0.0032,0.0096,-0.0160,-5.2800,40.9200,14.5200,
0.911765,-0.0577,0.1900,0.0470,-0.0075,-0.0107,-0.0080,-5.2800,40.9200,14.5200,
0.932318,-0.0577,0.1900,0.0470,-0.0213,-0.0123,-0.0032,-5.2800,40.9200,14.5200,
0.949482,-0.0577,0.1900,0.0470,-0.0213,-0.0123,-0.0032,-5.0400,41.2200,13.9200,
0.953451,-0.0577,0.1900,0.0470,-0.0133,-0.0069,-0.0021,-5.0400,41.2200,13.9200,
0.961348,-0.0577,0.1900,0.0470,-0.0133,-0.0069,-0.0021,-5.0400,41.2200,13.9200,
0.962379,0.0085,0.0304,0.0476,-0.0133,-0.0069,-0.0021,-5.0400,41.2200,13.9200,
0.973218,0.0085,0.0304,0.0476,-0.0043,-0.0107,-0.0069,-5.0400,41.2200,13.9200,
0.993737,0.0085,0.0304,0.0476,-0.0197,-0.0080,-0.0064,-5.0400,41.2200,13.9200,
1.011235,0.0085,0.0304,0.0476,-0.0197,-0.0080,-0.0064,-4.8600,41.5200,13.9200,
1.024142,0.0085,0.0304,0.0476,-0.0250,-0.0037,-0.0112,-4.8600,41.5200,13.9200,
1.025198,0.0085,0.0304,0.0476,-0.0250,-0.0037,-0.0112,-4.8600,41.5200,13.9200,
1.025952,-0.0634,0.0021,-0.0158,-0.0250,-0.0037,-0.0112,-4.8600,41.5200,13.9200,
1.034868,-0.0634,0.0021,-0.0158,-0.0149,-0.0011,-0.0107,-4.8600,41.5200,13.9200,
1.055642,-0.0634,0.0021,-0.0158,-0.0032,0.0053,0.0011,-4.8600,41.5200,13.9200,
1.077589,-0.0634,0.0021,-0.0158,-0.0032,0.0053,0.0011,-4.4400,41.1000,14.1600,
1.078582,-0.0634,0.0021,-0.0158,0.0107,0.0016,0.0048,-4.4400,41.1000,14.1600,
1.083613,-0.0634,0.0021,-0.0158,0.0107,0.0016,0.0048,-4.4400,41.1000,14.1600,
1.084487,-0.0419,-0.0124,0.0678,0.0107,0.0016,0.0048,-4.4400,41.1000,14.1600,
1.095692,-0.0419,-0.0124,0.0678,0.0107,0.0037,0.0032,-4.4400,41.1000,14.1600,
1.116407,-0.0419,-0.0124,0.0678,0.0181,0.0176,-0.0048,-4.4400,41.1000,14.1600,
1.132911,-0.0419,-0.0124,0.0678,0.0181,0.0176,-0.0048,-4.2600,40.9200,14.5800,
1.136663,-0.0419,-0.0124,0.0678,0.0133,0.0101,-0.0075,-4.2600,40.9200,14.5800,
1.145114,-0.0419,-0.0124,0.0678,0.0133,0.0101,-0.0075,-4.2600,40.9200,14.5800,
1.146092,-0.0203,0.1889,-0.0646,0.0133,0.0101,-0.0075,-4.2600,40.9200,14.5800,
1.159297,-0.0203,0.1889,-0.0646,-0.0197,0.0080,-0.0048,-4.2600,40.9200,14.5800,
1.179069,-0.0203,0.1889,-0.0646,-0.0389,-0.0027,0.0032,-4.2600,40.9200,14.5800,
1.194796,-0.0203,0.1889,-0.0646,-0.0389,-0.0027,0.0032,-4.5000,40.8000,14.9400,
1.198209,-0.0203,0.1889,-0.0646,-0.0336,-0.0165,0.0112,-4.5000,40.8000,14.9400,
1.206829,-0.0203,0.1889,-0.0646,-0.0336,-0.0165,0.0112,-4.5000,40.8000,14.9400,
1.207659,0.0175,0.1677,0.0570,-0.0336,-0.0165,0.0112,-4.5000,40.8000,14.9400,
1.218762,0.0175,0.1677,0.0570,-0.0543,-0.0224,0.0197,-4.5000,40.8000,14.9400,
1.239331,0.0175,0.1677,0.0570,-0.0858,0.0085,0.0218,-4.5000,40.8000,14.9400,
1.256056,0.0175,0.1677,0.0570,-0.0858,0.0085,0.0218,-4.3200,40.4400,15.1200,
1.259976,0.0175,0.1677,0.0570,-0.0863,-0.0064,0.0186,-4.3200,40.4400,15.1200,
1.268014,0.0175,0.1677,0.0570,-0.0863,-0.0064,0.0186,-4.3200,40.4400,15.1200,
1.268670,-0.2160,-0.0018,0.0764,-0.0863,-0.0064,0.0186,-4.3200,40.4400,15.1200,
1.280961,-0.2160,-0.0018,0.0764,-0.0943,-0.0357,0.0107,-4.3200,40.4400,15.1200,
1.300797,-0.2160,-0.0018,0.0764,-0.1071,-0.0447,-0.0053,-4.3200,40.4400,15.1200,
1.318370,-0.2160,-0.0018,0.0764,-0.1071,-0.0447,-0.0053,-4.5000,40.6200,14.7000,
1.322539,-0.2160,-0.0018,0.0764,-0.1172,-0.0314,-0.0107,-4.5000,40.6200,14.7000,
1.331240,-0.2160,-0.0018,0.0764,-0.1172,-0.0314,-0.0107,-4.5000,40.6200,14.7000,
1.332274,0.0760,0.0504,0.0898,-0.1172,-0.0314,-0.0107,-4.5000,40.6200,14.7000,
1.341914,0.0760,0.0504,0.0898,-0.1140,-0.0373,0.0043,-4.5000,40.6200,14.7000,
1.362783,0.0760,0.0504,0.0898,-0.1023,-0.0096,0.0176,-4.5000,40.6200,14.7000,
1.379051,0.0760,0.0504,0.0898,-0.1023,-0.0096,0.0176,-5.1000,40.3800,14.2800,
1.383028,0.0760,0.0504,0.0898,-0.0847,0.0043,0.0123,-5.1000,40.3800,14.2800,
1.391360,0.0760,0.0504,0.0898,-0.0847,0.0043,0.0123,-5.1000,40.3800,14.2800,
1.392197,0.0992,-0.1896,0.2031,-0.0847,0.0043,0.0123,-5.1000,40.3800,14.2800,
1.403384,0.0992,-0.1896,0.2031,-0.0591,-0.0245,-0.0064,-5.1000,40.3800,14.2800,
1.423762,0.0992,-0.1896,0.2031,-0.0581,-0.0096,-0.0123,-5.1000,40.3800,14.2800,
1.440749,0.0992,-0.1896,0.2031,-0.0581,-0.0096,-0.0123,-5.5800,39.7800,14.5800,
1.444248,0.0992,-0.1896,0.2031,-0.0277,0.0165,-0.0032,-5.5800,39.7800,14.5800,
1.453165,0.0992,-0.1896,0.2031,-0.0277,0.0165,-0.0032,-5.5800,39.7800,14.5800,
1.454172,0.1091,-0.1944,0.1090,-0.0277,0.0165,-0.0032,-5.5800,39.7800,14.5800,
1.464828,0.1091,-0.1944,0.1090,-0.0101,0.0426,-0.0005,-5.5800,39.7800,14.5800,
1.485735,0.1091,-0.1944,0.1090,0.0202,0.0522,-0.0181,-5.5800,39.7800,14.5800,
1.502021,0.1091,-0.1944,0.1090,0.0202,0.0522,-0.0181,-5.5800,39.9600,14.8800,
1.505936,0.1091,-0.1944,0.1090,0.0415,0.0586,-0.0208,-5.5800,39.9600,14.8800,
1.514457,0.1091,-0.1944,0.1090,0.0415,0.0586,-0.0208,-5.5800,39.9600,14.8800,
1.515421,-0.0590,-0.0716,0.0483,0.0415,0.0586,-0.0208,-5.5800,39.9600,14.8800,
1.526405,-0.0590,-0.0716,0.0483,0.0447,0.0602,-0.0234,-5.5800,39.9600,14.8800,
1.547004,-0.0590,-0.0716,0.0483,0.0474,0.0421,-0.0123,-5.5800,39.9600,14.8800,
1.563697,-0.0590,-0.0716,0.0483,0.0474,0.0421,-0.0123,-5.8200,39.6600,15.3000,
1.567310,-0.0590,-0.0716,0.0483,0.0282,0.0586,-0.0027,-5.8200,39.6600,15.3000,
1.575892,-0.0590,-0.0716,0.0483,0.0282,0.0586,-0.0027,-5.8200,39.6600,15.3000,
1.576776,0.0710,0.2522,-0.1460,0.0282,0.0586,-0.0027,-5.8200,39.6600,15.3000,
1.588826,0.0710,0.2522,-0.1460,0.0091,0.0655,-0.0075,-5.8200,39.6600,15.3000,
1.608509,0.0710,0.2522,-0.1460,-0.0053,0.0538,-0.0112,-5.8200,39.6600,15.3000,
1.625189,0.0710,0.2522,-0.1460,-0.0053,0.0538,-0.0112,-5.5200,39.7800,15.1800,
1.628751,0.0710,0.2522,-0.1460,-0.0048,0.0421,-0.0101,-5.5200,39.7800,15.1800,
1.637325,0.0710,0.2522,-0.1460,-0.0048,0.0421,-0.0101,-5.5200,39.7800,15.1800,
1.638135,-0.0185,-0.0611,0.0439,-0.0048,0.0421,-0.0101,-5.5200,39.7800,15.1800,
1.649688,-0.0185,-0.0611,0.0439,0.0080,0.0405,-0.0181,-5.5200,39.7800,15.1800,
1.670157,-0.0185,-0.0611,0.0439,0.0165,0.0320,-0.0320,-5.5200,39.7800,15.1800,
1.687306,-0.0185,-0.0611,0.0439,0.0165,0.0320,-0.0320,-5.5800,40.0200,15.4200,
1.690798,-0.0185,-0.0611,0.0439,0.0021,0.0154,-0.0527,-5.5800,40.0200,15.4200,
1.698986,-0.0185,-0.0611,0.0439,0.0021,0.0154,-0.0527,-5.5800,40.0200,15.4200,
1.699941,-0.0241,0.1372,-0.1147,0.0021,0.0154,-0.0527,-5.5800,40.0200,15.4200,
1.711162,-0.0241,0.1372,-0.1147,-0.0229,-0.0107,-0.0522,-5.5800,40.0200,15.4200,
1.731522,-0.0241,0.1372,-0.1147,-0.0474,-0.0021,-0.0410,-5.5800,40.0200,15.4200,
1.748421,-0.0241,0.1372,-0.1147,-0.0474,-0.0021,-0.0410,-5.4000,40.3200,15.5400,
1.751970,-0.0241,0.1372,-0.1147,-0.0421,0.0176,-0.0426,-5.4000,40.3200,15.5400,
1.760829,-0.0241,0.1372,-0.1147,-0.0421,0.0176,-0.0426,-5.4000,40.3200,15.5400,
1.761747,-0.1422,-0.1050,-0.0019,-0.0421,0.0176,-0.0426,-5.4000,40.3200,15.5400,
1.773024,-0.1422,-0.1050,-0.0019,-0.0261,0.0330,-0.0554,-5.4000,40.3200,15.5400,
1.793481,-0.1422,-0.1050,-0.0019,-0.0213,0.0495,-0.0517,-5.4000,40.3200,15.5400,
1.810542,-0.1422,-0.1050,-0.0019,-0.0213,0.0495,-0.0517,-5.1600,40.7400,15.4800,
1.816844,-0.1422,-0.1050,-0.0019,-0.0149,0.0421,-0.0474,-5.1600,40.7400,15.4800,
1.823526,-0.1422,-0.1050,-0.0019,-0.0149,0.0421,-0.0474,-5.1600,40.7400,15.4800,
1.824570,0.1316,-0.0545,0.0372,-0.0149,0.0421,-0.0474,-5.1600,40.7400,15.4800,
1.834845,0.1316,-0.0545,0.0372,-0.0059,0.0485,-0.0378,-5.1600,40.7400,15.4800,
1.856113,0.1316,-0.0545,0.0372,0.0085,0.0453,-0.0442,-5.1600,40.7400,15.4800,
1.873191,0.1316,-0.0545,0.0372,0.0085,0.0453,-0.0442,-5.2200,40.8000,15.7800,
1.876060,0.1316,-0.0545,0.0372,0.0309,0.0224,-0.0304,-5.2200,40.8000,15.7800,
1.884800,0.1316,-0.0545,0.0372,0.0309,0.0224,-0.0304,-5.2200,40.8000,15.7800,
1.885975,-0.2215,0.2810,-0.1072,0.0309,0.0224,-0.0304,-5.2200,40.8000,15.7800,
1.895791,-0.2215,0.2810,-0.1072,0.0069,0.0245,-0.0101,-5.2200,40.8000,15.7800,
1.916650,-0.2215,0.2810,-0.1072,-0.0149,0.0474,0.0107,-5.2200,40.8000,15.7800,
1.934093,-0.2215,0.2810,-0.1072,-0.0149,0.0474,0.0107,-4.9200,40.6200,15.1800,
1.936972,-0.2215,0.2810,-0.1072,-0.0186,0.0463,0.0234,-4.9200,40.6200,15.1800,
1.945791,-0.2215,0.2810,-0.1072,-0.0186,0.0463,0.0234,-4.9200,40.6200,15.1800,
1.946824,0.1695,-0.0924,0.0077,-0.0186,0.0463,0.0234,-4.9200,40.6200,15.1800,
1.957488,0.1695,-0.0924,0.0077,-0.0176,0.0437,0.0107,-4.9200,40.6200,15.1800,
1.978037,0.1695,-0.0924,0.0077,-0.0176,0.0293,-0.0133,-4.9200,40.6200,15.1800,
1.994946,0.1695,-0.0924,0.0077,-0.0176,0.0293,-0.0133,-5.2200,40.1400,15.0600,
1.998547,0.1695,-0.0924,0.0077,-0.0192,0.0293,-0.0197,-5.2200,40.1400,15.0600,
2.006971,0.1695,-0.0924,0.0077,-0.0192,0.0293,-0.0197,-5.2200,40.1400,15.0600,
2.007975,-0.0990,-0.0079,-0.0830,-0.0192,0.0293,-0.0197,-5.2200,40.1400,15.0600,
2.019418,-0.0990,-0.0079,-0.0830,0.0037,0.0554,-0.0048,-5.2200,40.1400,15.0600,
2.040004,-0.0990,-0.0079,-0.0830,0.0245,0.1033,-0.0032,-5.2200,40.1400,15.0600,
2.056479,-0.0990,-0.0079,-0.0830,0.0245,0.1033,-0.0032,-5.1600,40.2000,14.9400,
2.060022,-0.0990,-0.0079,-0.0830,0.0176,0.1124,0.0069,-5.1600,40.2000,14.9400,
2.068695,-0.0990,-0.0079,-0.0830,0.0176,0.1124,0.0069,-5.1600,40.2000,14.9400,
2.069845,0.2500,-0.0759,-0.0005,0.0176,0.1124,0.0069,-5.1600,40.2000,14.9400,
2.081049,0.2500,-0.0759,-0.0005,-0.0117,0.0304,-0.0128,-5.1600,40.2000,14.9400,
2.101882,0.2500,-0.0759,-0.0005,-0.0197,0.0618,0.0005,-5.1600,40.2000,14.9400,
2.119114,0.2500,-0.0759,-0.0005,-0.0197,0.0618,0.0005,-5.3400,40.0800,15.0600,
2.122972,0.2500,-0.0759,-0.0005,0.0027,0.0586,0.0021,-5.3400,40.0800,15.0600,
2.131587,0.2500,-0.0759,-0.0005,0.0027,0.0586,0.0021,-5.3400,40.0800,15.0600,
2.132521,-0.0301,0.1141,-0.0396,0.0027,0.0586,0.0021,-5.3400,40.0800,15.0600,
2.142461,-0.0301,0.1141,-0.0396,-0.0117,0.0458,-0.0016,-5.3400,40.0800,15.0600,
2.162847,-0.0301,0.1141,-0.0396,-0.0517,0.0107,-0.0037,-5.3400,40.0800,15.0600,
2.180258,-0.0301,0.1141,-0.0396,-0.0517,0.0107,-0.0037,-5.2200,40.6200,15.2400,
2.183247,-0.0301,0.1141,-0.0396,-0.0746,0.0373,-0.0075,-5.2200,40.6200,15.2400,
2.191717,-0.0301,0.1141,-0.0396,-0.0746,0.0373,-0.0075,-5.2200,40.6200,15.2400,
2.192675,0.0212,-0.1442,0.0664,-0.0746,0.0373,-0.0075,-5.2200,40.6200,15.2400,
2.203896,0.0212,-0.1442,0.0664,-0.0506,0.0341,-0.0197,-5.2200,40.6200,15.2400,
2.224367,0.0212,-0.1442,0.0664,-0.0368,0.0027,-0.0352,-5.2200,40.6200,15.2400,
2.241193,0.0212,-0.1442,0.0664,-0.0368,0.0027,-0.0352,-5.6400,40.6800,15.6000,
2.244886,0.0212,-0.1442,0.0664,-0.0597,-0.0005,-0.0479,-5.6400,40.6800,15.6000,
2.253272,0.0212,-0.1442,0.0664,-0.0597,-0.0005,-0.0479,-5.6400,40.6800,15.6000,
2.254210,-0.0641,-0.0799,-0.2540,-0.0597,-0.0005,-0.0479,-5.6400,40.6800,15.6000,
2.265539,-0.0641,-0.0799,-0.2540,-0.0788,0.0186,-0.0623,-5.6400,40.6800,15.6000,
2.285917,-0.0641,-0.0799,-0.2540,-0.0613,0.0373,-0.0644,-5.6400,40.6800,15.6000,
2.302877,-0.0641,-0.0799,-0.2540,-0.0613,0.0373,-0.0644,-5.7600,40.1400,15.4200,
2.306747,-0.0641,-0.0799,-0.2540,-0.0383,0.0165,-0.0655,-5.7600,40.1400,15.4200,
2.315047,-0.0641,-0.0799,-0.2540,-0.0383,0.0165,-0.0655,-5.7600,40.1400,15.4200,
2.315994,-0.0376,-0.3049,0.0333,-0.0383,0.0165,-0.0655,-5.7600,40.1400,15.4200,
2.327400,-0.0376,-0.3049,0.0333,-0.0373,0.0186,-0.0730,-5.7600,40.1400,15.4200,
2.347729,-0.0376,-0.3049,0.0333,-0.0021,-0.0096,-0.0671,-5.7600,40.1400,15.4200,
2.364216,-0.0376,-0.3049,0.0333,-0.0021,-0.0096,-0.0671,-5.8200,40.0800,15.6600,
2.367913,-0.0376,-0.3049,0.0333,0.0256,0.0059,-0.0634,-5.8200,40.0800,15.6600,
2.376503,-0.0376,-0.3049,0.0333,0.0256,0.0059,-0.0634,-5.8200,40.0800,15.6600,
2.377845,-0.1814,-0.0206,-0.1044,0.0256,0.0059,-0.0634,-5.8200,40.0800,15.6600,
2.388811,-0.1814,-0.0206,-0.1044,0.0288,0.0202,-0.0666,-5.8200,40.0800,15.6600,
2.409019,-0.1814,-0.0206,-0.1044,0.0266,0.0176,-0.0613,-5.8200,40.0800,15.6600,
2.426003,-0.1814,-0.0206,-0.1044,0.0266,0.0176,-0.0613,-6.0000,39.9000,15.4200,
2.429349,-0.1814,-0.0206,-0.1044,0.0415,0.0453,-0.0410,-6.0000,39.9000,15.4200,
2.437856,-0.1814,-0.0206,-0.1044,0.0415,0.0453,-0.0410,-6.0000,39.9000,15.4200,
2.438892,0.0882,-0.0163,-0.0492,0.0415,0.0453,-0.0410,-6.0000,39.9000,15.4200,
2.449867,0.0882,-0.0163,-0.0492,0.0629,0.1012,-0.0431,-6.0000,39.9000,15.4200,
2.470440,0.0882,-0.0163,-0.0492,0.0900,0.0410,-0.0549,-6.0000,39.9000,15.4200,
2.487466,0.0882,-0.0163,-0.0492,0.0900,0.0410,-0.0549,-5.6400,39.9000,14.8200,
2.490883,0.0882,-0.0163,-0.0492,0.0522,0.0272,-0.0575,-5.6400,39.9000,14.8200,
2.499225,0.0882,-0.0163,-0.0492,0.0522,0.0272,-0.0575,-5.6400,39.9000,14.8200,
2.500139,-0.1990,0.0732,-0.1451,0.0522,0.0272,-0.0575,-5.6400,39.9000,14.8200,
2.511264,-0.1990,0.0732,-0.1451,0.0527,0.0751,-0.0373,-5.6400,39.9000,14.8200,
2.531746,-0.1990,0.0732,-0.1451,0.1097,0.1156,-0.0043,-5.6400,39.9000,14.8200,
2.550367,-0.1990,0.0732,-0.1451,0.1097,0.1156,-0.0043,-6.1200,40.0800,15.6600,
2.552383,-0.1990,0.0732,-0.1451,0.0810,0.1097,0.0245,-6.1200,40.0800,15.6600,
2.561299,-0.1990,0.0732,-0.1451,0.0810,0.1097,0.0245,-6.1200,40.0800,15.6600,
2.562307,0.0377,0.4855,-0.0240,0.0810,0.1097,0.0245,-6.1200,40.0800,15.6600,
2.573367,0.0377,0.4855,-0.0240,0.0075,0.1028,0.0399,-6.1200,40.0800,15.6600,
2.593789,0.0377,0.4855,-0.0240,-0.0357,0.0613,0.0453,-6.1200,40.0800,15.6600,
2.610366,0.0377,0.4855,-0.0240,-0.0357,0.0613,0.0453,-5.8200,40.2600,15.1800,
2.614494,0.0377,0.4855,-0.0240,-0.0538,0.0085,0.0165,-5.8200,40.2600,15.1800,
2.623307,0.0377,0.4855,-0.0240,-0.0538,0.0085,0.0165,-5.8200,40.2600,15.1800,
2.624233,-0.2191,-0.1698,-0.0775,-0.0538,0.0085,0.0165,-5.8200,40.2600,15.1800,
2.635232,-0.2191,-0.1698,-0.0775,-0.0980,-0.0810,-0.0250,-5.8200,40.2600,15.1800,
2.655689,-0.2191,-0.1698,-0.0775,-0.2013,-0.0394,-0.0298,-5.8200,40.2600,15.1800,
2.672231,-0.2191,-0.1698,-0.0775,-0.2013,-0.0394,-0.0298,-5.5200,40.2000,15.3600,
2.676205,-0.2191,-0.1698,-0.0775,-0.2791,0.0708,0.0101,-5.5200,40.2000,15.3600,
2.684295,-0.2191,-0.1698,-0.0775,-0.2791,0.0708,0.0101,-5.5200,40.2000,15.3600,
2.685426,-0.0269,0.3152,0.2435,-0.2791,0.0708,0.0101,-5.5200,40.2000,15.3600,
2.696263,-0.0269,0.3152,0.2435,-0.2402,0.0740,0.0543,-5.5200,40.2000,15.3600,
2.716377,-0.0269,0.3152,0.2435,-0.1672,0.0469,0.0778,-5.5200,40.2000,15.3600,
2.733440,-0.0269,0.3152,0.2435,-0.1672,0.0469,0.0778,-5.8200,40.0200,16.1400,
2.736898,-0.0269,0.3152,0.2435,-0.1582,0.0730,0.0730,-5.8200,40.0200,16.1400,
2.745464,-0.0269,0.3152,0.2435,-0.1582,0.0730,0.0730,-5.8200,40.0200,16.1400,
2.746423,0.3099,-0.1747,0.0572,-0.1582,0.0730,0.0730,-5.8200,40.0200,16.1400,
2.757743,0.3099,-0.1747,0.0572,-0.1987,0.0405,0.0581,-5.8200,40.0200,16.1400,
2.778067,0.3099,-0.1747,0.0572,-0.2354,0.0405,0.0463,-5.8200,40.0200,16.1400,
2.794807,0.3099,-0.1747,0.0572,-0.2354,0.0405,0.0463,-5.9400,40.3200,15.7200,
2.798442,0.3099,-0.1747,0.0572,-0.3105,0.0261,0.0389,-5.9400,40.3200,15.7200,
2.807035,0.3099,-0.1747,0.0572,-0.3105,0.0261,0.0389,-5.9400,40.3200,15.7200,
2.808054,-0.0390,-0.0051,-0.0425,-0.3105,0.0261,0.0389,-5.9400,40.3200,15.7200,
2.819204,-0.0390,-0.0051,-0.0425,-0.4128,-0.0069,0.0176,-5.9400,40.3200,15.7200,
2.839731,-0.0390,-0.0051,-0.0425,-0.4394,-0.0671,0.0133,-5.9400,40.3200,15.7200,
2.856182,-0.0390,-0.0051,-0.0425,-0.4394,-0.0671,0.0133,-6.2400,40.3800,16.2600,
2.860148,-0.0390,-0.0051,-0.0425,-0.4021,0.0101,0.0277,-6.2400,40.3800,16.2600,
2.868378,-0.0390,-0.0051,-0.0425,-0.4021,0.0101,0.0277,-6.2400,40.3800,16.2600,
2.869515,0.2304,-0.2287,0.2492,-0.4021,0.0101,0.0277,-6.2400,40.3800,16.2600,
2.881227,0.2304,-0.2287,0.2492,-0.3467,0.0490,0.0320,-6.2400,40.3800,16.2600,
2.901454,0.2304,-0.2287,0.2492,-0.3585,0.0245,0.0224,-6.2400,40.3800,16.2600,
2.919027,0.2304,-0.2287,0.2492,-0.3585,0.0245,0.0224,-6.8400,39.7200,17.0400,
2.923118,0.2304,-0.2287,0.2492,-0.4037,-0.0027,0.0021,-6.8400,39.7200,17.0400,
2.934113,0.2304,-0.2287,0.2492,-0.4037,-0.0027,0.0021,-6.8400,39.7200,17.0400,
2.934565,-0.2887,-0.5287,0.2680,-0.4037,-0.0027,0.0021,-6.8400,39.7200,17.0400,
2.941699,-0.2887,-0.5287,0.2680,-0.3973,-0.0091,-0.0096,-6.8400,39.7200,17.0400,
2.962806,-0.2887,-0.5287,0.2680,-0.3462,-0.0053,0.0144,-6.8400,39.7200,17.0400,
2.979529,-0.2887,-0.5287,0.2680,-0.3462,-0.0053,0.0144,-6.7800,39.5400,17.3400,
2.982729,-0.2887,-0.5287,0.2680,-0.2892,0.0021,0.0511,-6.7800,39.5400,17.3400,
2.991304,-0.2887,-0.5287,0.2680,-0.2892,0.0021,0.0511,-6.7800,39.5400,17.3400,
2.991706,0.3441,0.0005,0.5483,-0.2892,0.0021,0.0511,-6.7800,39.5400,17.3400,
3.003346,0.3441,0.0005,0.5483,-0.2104,0.0842,0.0991,-6.7800,39.5400,17.3400,
3.024014,0.3441,0.0005,0.5483,-0.1252,0.1417,0.1316,-6.7800,39.5400,17.3400,
3.041285,0.3441,0.0005,0.5483,-0.1252,0.1417,0.1316,-6.6000,38.5200,18.2400,
3.044463,0.3441,0.0005,0.5483,-0.0863,0.1257,0.1374,-6.6000,38.5200,18.2400,
3.052865,0.3441,0.0005,0.5483,-0.0863,0.1257,0.1374,-6.6000,38.5200,18.2400,
3.053618,0.1712,0.0068,0.0083,-0.0863,0.1257,0.1374,-6.6000,38.5200,18.2400,
3.065633,0.1712,0.0068,0.0083,-0.1023,0.1305,0.1289,-6.6000,38.5200,18.2400,
3.087152,0.1712,0.0068,0.0083,-0.1587,0.0863,0.1145,-6.6000,38.5200,18.2400,
3.102555,0.1712,0.0068,0.0083,-0.1587,0.0863,0.1145,-6.4800,37.8600,18.9000,
3.106207,0.1712,0.0068,0.0083,-0.2285,0.1513,0.1188,-6.4800,37.8600,18.9000,
3.115594,0.1712,0.0068,0.0083,-0.2285,0.1513,0.1188,-6.4800,37.8600,18.9000,
3.116568,0.4211,-0.2368,0.1943,-0.2285,0.1513,0.1188,-6.4800,37.8600,18.9000,
3.127536,0.4211,-0.2368,0.1943,-0.2056,0.1539,0.1145,-6.4800,37.8600,18.9000,
3.147673,0.4211,-0.2368,0.1943,-0.1523,0.1731,0.1076,-6.4800,37.8600,18.9000,
3.164283,0.4211,-0.2368,0.1943,-0.1523,0.1731,0.1076,-6.6000,37.5600,19.6800,
3.168035,0.4211,-0.2368,0.1943,-0.1390,0.2503,0.0943,-6.6000,37.5600,19.6800,
3.176466,0.4211,-0.2368,0.1943,-0.1390,0.2503,0.0943,-6.6000,37.5600,19.6800,
3.177643,0.8547,-0.1249,0.3208,-0.1390,0.2503,0.0943,-6.6000,37.5600,19.6800,
3.189339,0.8547,-0.1249,0.3208,-0.1539,0.2503,0.0687,-6.6000,37.5600,19.6800,
3.209511,0.8547,-0.1249,0.3208,-0.2210,0.1513,0.0565,-6.6000,37.5600,19.6800,
3.225858,0.8547,-0.1249,0.3208,-0.2210,0.1513,0.0565,-7.2600,37.5600,20.0400,
3.229400,0.8547,-0.1249,0.3208,-0.3009,0.1625,0.0703,-7.2600,37.5600,20.0400,
3.238132,0.8547,-0.1249,0.3208,-0.3009,0.1625,0.0703,-7.2600,37.5600,20.0400,
3.239091,-0.5451,-0.0088,0.1731,-0.3009,0.1625,0.0703,-7.2600,37.5600,20.0400,
3.250257,-0.5451,-0.0088,0.1731,-0.3036,0.2578,0.1459,-7.2600,37.5600,20.0400,
3.270690,-0.5451,-0.0088,0.1731,-0.2605,0.2312,0.1944,-7.2600,37.5600,20.0400,
3.287891,-0.5451,-0.0088,0.1731,-0.2605,0.2312,0.1944,-7.5000,37.5000,20.1600,
3.291004,-0.5451,-0.0088,0.1731,-0.2690,0.1683,0.2136,-7.5000,37.5000,20.1600,
3.299544,-0.5451,-0.0088,0.1731,-0.2690,0.1683,0.2136,-7.5000,37.5000,20.1600,
3.300530,0.7130,-0.2344,0.6559,-0.2690,0.1683,0.2136,-7.5000,37.5000,20.1600,
3.311139,0.7130,-0.2344,0.6559,-0.3712,0.1811,0.2360,-7.5000,37.5000,20.1600,
3.331761,0.7130,-0.2344,0.6559,-0.3925,0.3718,0.3068,-7.5000,37.5000,20.1600,
3.348756,0.7130,-0.2344,0.6559,-0.3925,0.3718,0.3068,-7.9200,37.5000,20.5200,
3.352366,0.7130,-0.2344,0.6559,-0.2312,0.3473,0.3659,-7.9200,37.5000,20.5200,
3.360945,0.7130,-0.2344,0.6559,-0.2312,0.3473,0.3659,-7.9200,37.5000,20.5200,
3.362498,1.3025,-0.0686,2.9185,-0.2312,0.3473,0.3659,-7.9200,37.5000,20.5200,
3.373339,1.3025,-0.0686,2.9185,-0.0341,-0.1870,0.4250,-7.9200,37.5000,20.5200,
3.394380,1.3025,-0.0686,2.9185,-0.0357,-0.3643,0.4884,-7.9200,37.5000,20.5200,
3.411857,1.3025,-0.0686,2.9185,-0.0357,-0.3643,0.4884,-7.6200,37.3200,20.2200,
3.414270,1.3025,-0.0686,2.9185,0.0527,-0.4298,0.6546,-7.6200,37.3200,20.2200,
3.423691,1.3025,-0.0686,2.9185,0.0527,-0.4298,0.6546,-7.6200,37.3200,20.2200,
3.425237,4.1858,1.5899,1.8056,0.0527,-0.4298,0.6546,-7.6200,37.3200,20.2200,
3.434963,4.1858,1.5899,1.8056,0.3297,-0.9257,0.9316,-7.6200,37.3200,20.2200,
3.455641,4.1858,1.5899,1.8056,0.6344,-1.7694,1.1606,-7.6200,37.3200,20.2200,
3.473044,4.1858,1.5899,1.8056,0.6344,-1.7694,1.1606,-6.7800,37.3200,20.4000,
3.475590,4.1858,1.5899,1.8056,0.5188,-1.8179,1.2027,-6.7800,37.3200,20.4000,
3.483896,4.1858,1.5899,1.8056,0.5188,-1.8179,1.2027,-6.7800,37.3200,20.4000,
3.485276,5.8892,2.8298,-0.2009,0.5188,-1.8179,1.2027,-6.7800,37.3200,20.4000,
3.496230,5.8892,2.8298,-0.2009,0.2908,-1.9084,1.2048,-6.7800,37.3200,20.4000,
3.516485,5.8892,2.8298,-0.2009,-0.1465,-2.1225,1.0120,-6.7800,37.3200,20.4000,
3.533284,5.8892,2.8298,-0.2009,-0.1465,-2.1225,1.0120,-5.4000,37.5600,20.4600,
3.536810,5.8892,2.8298,-0.2009,-0.7526,-2.0490,0.9348,-5.4000,37.5600,20.4600,
3.545291,5.8892,2.8298,-0.2009,-0.7526,-2.0490,0.9348,-5.4000,37.5600,20.4600,
3.546724,8.8986,2.7246,-2.0205,-0.7526,-2.0490,0.9348,-5.4000,37.5600,20.4600,
3.557253,8.8986,2.7246,-2.0205,-1.3167,-1.5223,0.8362,-5.4000,37.5600,20.4600,
3.577880,8.8986,2.7246,-2.0205,-1.9990,0.5097,0.8730,-5.4000,37.5600,20.4600,
3.594572,8.8986,2.7246,-2.0205,-1.9990,0.5097,0.8730,-2.7600,37.8000,20.2800,
3.598220,8.8986,2.7246,-2.0205,-1.3145,1.1654,0.7574,-2.7600,37.8000,20.2800,
3.606660,8.8986,2.7246,-2.0205,-1.3145,1.1654,0.7574,-2.7600,37.8000,20.2800,
3.608257,7.5607,2.6072,-1.2723,-1.3145,1.1654,0.7574,-2.7600,37.8000,20.2800,
3.619213,7.5607,2.6072,-1.2723,-0.6402,1.0488,0.8565,-2.7600,37.8000,20.2800,
3.640274,7.5607,2.6072,-1.2723,-0.7063,0.1710,1.2096,-2.7600,37.8000,20.2800,
3.656990,7.5607,2.6072,-1.2723,-0.7063,0.1710,1.2096,0.4800,38.1000,20.8200,
3.660400,7.5607,2.6072,-1.2723,-1.1366,0.7201,1.7188,0.4800,38.1000,20.8200,
3.668808,7.5607,2.6072,-1.2723,-1.1366,0.7201,1.7188,0.4800,38.1000,20.8200,
3.670191,6.1133,-1.2478,-0.2762,-1.1366,0.7201,1.7188,0.4800,38.1000,20.8200,
3.681624,6.1133,-1.2478,-0.2762,-0.2780,0.5529,1.7172,0.4800,38.1000,20.8200,
3.702273,6.1133,-1.2478,-0.2762,1.2682,0.0740,1.3705,0.4800,38.1000,20.8200,
3.718889,6.1133,-1.2478,-0.2762,1.2682,0.0740,1.3705,3.7200,37.9200,21.3000,
3.721730,6.1133,-1.2478,-0.2762,2.3585,-0.6141,2.1524,3.7200,37.9200,21.3000,
3.731492,6.1133,-1.2478,-0.2762,2.3585,-0.6141,2.1524,3.7200,37.9200,21.3000,
3.732953,-15.9687,-4.3050,-3.3236,2.3585,-0.6141,2.1524,3.7200,37.9200,21.3000,
3.744997,-15.9687,-4.3050,-3.3236,0.5630,2.4858,3.2863,3.7200,37.9200,21.3000,
3.763042,-15.9687,-4.3050,-3.3236,-3.0179,5.5676,3.8120,3.7200,37.9200,21.3000,
3.780665,-15.9687,-4.3050,-3.3236,-3.0179,5.5676,3.8120,6.2400,37.3800,21.6600,
3.784255,-15.9687,-4.3050,-3.3236,-3.1127,3.7183,5.5005,6.2400,37.3800,21.6600,
3.792611,-15.9687,-4.3050,-3.3236,-3.1127,3.7183,5.5005,6.2400,37.3800,21.6600,
3.794257,-5.5347,5.2569,7.6148,-3.1127,3.7183,5.5005,6.2400,37.3800,21.6600,
3.803406,-5.5347,5.2569,7.6148,-2.4341,2.5002,5.8238,6.2400,37.3800,21.6600,
3.824337,-5.5347,5.2569,7.6148,13.3052,16.3390,-10.3933,6.2400,37.3800,21.6600,
3.841439,-5.5347,5.2569,7.6148,13.3052,16.3390,-10.3933,8.8800,35.7000,22.9200,
3.844873,-5.5347,5.2569,7.6148,-7.3152,-3.3886,-0.2157,8.8800,35.7000,22.9200,
3.853473,-5.5347,5.2569,7.6148,-7.3152,-3.3886,-0.2157,8.8800,35.7000,22.9200,
3.854630,-1.0387,7.1921,14.4177,-7.3152,-3.3886,-0.2157,8.8800,35.7000,22.9200,
3.865676,-1.0387,7.1921,14.4177,-2.2818,5.7908,1.3731,8.8800,35.7000,22.9200,
3.885833,-1.0387,7.1921,14.4177,-1.7321,3.4243,0.3744,8.8800,35.7000,22.9200,
3.894719,-1.0387,7.1921,14.4177,-1.7321,3.4243,0.3744,8.8800,35.7000,22.9200,
3.896100,-2.9588,-2.8516,-7.4884,-1.7321,3.4243,0.3744,8.8800,35.7000,22.9200,
3.903443,-2.9588,-2.8516,-7.4884,-1.7321,3.4243,0.3744,6.9600,35.3400,25.4400,
3.907105,-2.9588,-2.8516,-7.4884,-2.5678,3.0680,1.7710,6.9600,35.3400,25.4400,
3.915080,-2.9588,-2.8516,-7.4884,-2.5678,3.0680,1.7710,6.9600,35.3400,25.4400,
3.916498,-7.5890,-7.0518,5.2219,-2.5678,3.0680,1.7710,6.9600,35.3400,25.4400,
3.926989,-7.5890,-7.0518,5.2219,-3.1292,3.0312,3.4275,6.9600,35.3400,25.4400,
3.938905,-7.5890,-7.0518,5.2219,-3.1292,3.0312,3.4275,6.9600,35.3400,25.4400,
3.940315,-4.6030,-9.1191,1.2271,-3.1292,3.0312,3.4275,6.9600,35.3400,25.4400,
3.952055,-4.6030,-9.1191,1.2271,-2.6978,1.6032,3.7907,6.9600,35.3400,25.4400,
3.968119,-4.6030,-9.1191,1.2271,-2.6978,1.6032,3.7907,3.2400,32.0400,28.3200,
3.970088,-4.6030,-9.1191,1.2271,-1.5143,0.2748,3.4168,3.2400,32.0400,28.3200,
3.975809,-4.6030,-9.1191,1.2271,-1.5143,0.2748,3.4168,3.2400,32.0400,28.3200,
3.977189,2.2896,-8.2260,6.2386,-1.5143,0.2748,3.4168,3.2400,32.0400,28.3200,
3.988319,2.2896,-8.2260,6.2386,0.5944,0.0250,2.8096,3.2400,32.0400,28.3200,
4.011840,2.2896,-8.2260,6.2386,1.7646,-0.7148,1.9846,3.2400,32.0400,28.3200,
4.026268,2.2896,-8.2260,6.2386,1.7646,-0.7148,1.9846,0.4800,28.0800,31.9800,
4.029376,2.2896,-8.2260,6.2386,2.2962,-0.0980,1.4940,0.4800,28.0800,31.9800,
4.040663,2.2896,-8.2260,6.2386,2.2962,-0.0980,1.4940,0.4800,28.0800,31.9800,
4.042202,2.4521,0.8652,2.8361,2.2962,-0.0980,1.4940,0.4800,28.0800,31.9800,
4.050189,2.4521,0.8652,2.8361,2.3590,-1.4530,2.2211,0.4800,28.0800,31.9800,
4.074079,2.4521,0.8652,2.8361,2.0315,-2.9700,3.3726,0.4800,28.0800,31.9800,
4.086897,2.4521,0.8652,2.8361,2.0315,-2.9700,3.3726,-2.8200,26.0400,35.1000,
4.090737,2.4521,0.8652,2.8361,-0.1688,0.6365,4.6840,-2.8200,26.0400,35.1000,
4.099469,2.4521,0.8652,2.8361,-0.1688,0.6365,4.6840,-2.8200,26.0400,35.1000,
4.100507,-3.5680,2.4146,-0.7732,-0.1688,0.6365,4.6840,-2.8200,26.0400,35.1000,
4.111838,-3.5680,2.4146,-0.7732,-0.4139,0.0900,4.8091,-2.8200,26.0400,35.1000,
4.133252,-3.5680,2.4146,-0.7732,0.1736,-1.0631,4.3846,-2.8200,26.0400,35.1000,
4.149509,-3.5680,2.4146,-0.7732,0.1736,-1.0631,4.3846,-0.4200,23.7000,35.3400,
4.152314,-3.5680,2.4146,-0.7732,0.4277,-1.6490,3.8648,-0.4200,23.7000,35.3400,
4.161338,-3.5680,2.4146,-0.7732,0.4277,-1.6490,3.8648,-0.4200,23.7000,35.3400,
4.162476,4.3323,-1.1118,0.3271,0.4277,-1.6490,3.8648,-0.4200,23.7000,35.3400,
4.173295,4.3323,-1.1118,0.3271,0.0804,-0.9731,3.3188,-0.4200,23.7000,35.3400,
4.194368,4.3323,-1.1118,0.3271,0.1166,-0.5752,3.0658,-0.4200,23.7000,35.3400,
4.211235,4.3323,-1.1118,0.3271,0.1166,-0.5752,3.0658,5.1000,23.2800,35.2800,
4.215298,4.3323,-1.1118,0.3271,0.4943,-1.1217,2.2110,5.1000,23.2800,35.2800,
4.224046,4.3323,-1.1118,0.3271,0.4943,-1.1217,2.2110,5.1000,23.2800,35.2800,
4.225421,10.4100,-1.0586,1.0901,0.4943,-1.1217,2.2110,5.1000,23.2800,35.2800,
4.235391,10.4100,-1.0586,1.0901,0.4863,-0.9673,1.0248,5.1000,23.2800,35.2800,
4.256431,10.4100,-1.0586,1.0901,0.4021,-0.8203,0.8895,5.1000,23.2800,35.2800,
4.273874,10.4100,-1.0586,1.0901,0.4021,-0.8203,0.8895,10.8600,23.5200,34.0200,
4.275012,10.4100,-1.0586,1.0901,0.2067,-0.3025,0.6008,10.8600,23.5200,34.0200,
4.283742,10.4100,-1.0586,1.0901,0.2067,-0.3025,0.6008,10.8600,23.5200,34.0200,
4.284745,7.9639,-1.9913,-3.3302,0.2067,-0.3025,0.6008,10.8600,23.5200,34.0200,
4.295914,7.9639,-1.9913,-3.3302,-0.2147,0.2296,-0.2844,10.8600,23.5200,34.0200,
4.317020,7.9639,-1.9913,-3.3302,-0.3851,0.4218,-0.5470,10.8600,23.5200,34.0200,
4.333360,7.9639,-1.9913,-3.3302,-0.3851,0.4218,-0.5470,16.3200,22.6200,31.5000,
4.337761,7.9639,-1.9913,-3.3302,-0.1246,0.4384,-0.2386,16.3200,22.6200,31.5000,
4.346405,7.9639,-1.9913,-3.3302,-0.1246,0.4384,-0.2386,16.3200,22.6200,31.5000,
4.347984,1.0432,-0.2983,2.8018,-0.1246,0.4384,-0.2386,16.3200,22.6200,31.5000,
4.357371,1.0432,-0.2983,2.8018,0.2274,0.0479,0.0687,16.3200,22.6200,31.5000,
4.378940,1.0432,-0.2983,2.8018,0.2951,0.0117,-0.0314,16.3200,22.6200,31.5000,
4.395880,1.0432,-0.2983,2.8018,0.2951,0.0117,-0.0314,20.0400,20.8800,30.9600,
4.398736,1.0432,-0.2983,2.8018,0.1960,-0.0085,-0.3409,20.0400,20.8800,30.9600,
4.407099,1.0432,-0.2983,2.8018,0.1960,-0.0085,-0.3409,20.0400,20.8800,30.9600,
4.408415,5.1694,-0.3905,-1.7698,0.1960,-0.0085,-0.3409,20.0400,20.8800,30.9600,
4.419686,5.1694,-0.3905,-1.7698,-0.1081,-0.0991,-0.7361,20.0400,20.8800,30.9600,
4.441153,5.1694,-0.3905,-1.7698,-0.1550,-0.0437,-0.9017,20.0400,20.8800,30.9600,
4.456922,5.1694,-0.3905,-1.7698,-0.1550,-0.0437,-0.9017,21.3600,20.2200,29.8200,
4.460490,5.1694,-0.3905,-1.7698,-0.1182,0.1326,-1.0754,21.3600,20.2200,29.8200,
4.469275,5.1694,-0.3905,-1.7698,-0.1182,0.1326,-1.0754,21.3600,20.2200,29.8200,
4.470715,2.3355,0.3318,0.9713,-0.1182,0.1326,-1.0754,21.3600,20.2200,29.8200,
4.481467,2.3355,0.3318,0.9713,0.0288,0.2871,-1.1920,21.3600,20.2200,29.8200,
4.501845,2.3355,0.3318,0.9713,0.1981,0.0399,-1.1947,21.3600,20.2200,29.8200,
4.518652,2.3355,0.3318,0.9713,0.1981,0.0399,-1.1947,21.3000,20.4000,29.3400,
4.523133,2.3355,0.3318,0.9713,0.2008,0.0399,-1.0871,21.3000,20.4000,29.3400,
4.532283,2.3355,0.3318,0.9713,0.2008,0.0399,-1.0871,21.3000,20.4000,29.3400,
4.533939,0.4258,0.1176,0.4191,0.2008,0.0399,-1.0871,21.3000,20.4000,29.3400,
4.542914,0.4258,0.1176,0.4191,0.2216,0.0964,-1.0397,21.3000,20.4000,29.3400,
4.563968,0.4258,0.1176,0.4191,0.4192,0.0618,-1.1846,21.3000,20.4000,29.3400,
4.580075,0.4258,0.1176,0.4191,0.4192,0.0618,-1.1846,20.5200,20.7600,29.8800,
4.583550,0.4258,0.1176,0.4191,0.8810,0.0485,-1.1803,20.5200,20.7600,29.8800,
4.592263,0.4258,0.1176,0.4191,0.8810,0.0485,-1.1803,20.5200,20.7600,29.8800,
4.594367,0.2330,0.3128,2.1634,0.8810,0.0485,-1.1803,20.5200,20.7600,29.8800,
4.604748,0.2330,0.3128,2.1634,1.1947,0.1598,-0.9790,20.5200,20.7600,29.8800,
4.625183,0.2330,0.3128,2.1634,1.3316,0.3116,-0.7404,20.5200,20.7600,29.8800,
4.642179,0.2330,0.3128,2.1634,1.3316,0.3116,-0.7404,19.0200,21.6600,29.3400,
4.645622,0.2330,0.3128,2.1634,1.3721,0.3510,-0.6152,19.0200,21.6600,29.3400,
4.654583,0.2330,0.3128,2.1634,1.3721,0.3510,-0.6152,19.0200,21.6600,29.3400,
4.656227,0.5687,0.6178,0.3895,1.3721,0.3510,-0.6152,19.0200,21.6600,29.3400,
4.666565,0.5687,0.6178,0.3895,1.4312,0.5944,-0.5268,19.0200,21.6600,29.3400,
4.687958,0.5687,0.6178,0.3895,1.4461,0.9140,-0.4756,19.0200,21.6600,29.3400,
4.704265,0.5687,0.6178,0.3895,1.4461,0.9140,-0.4756,17.8800,23.4000,29.1600,
4.707453,0.5687,0.6178,0.3895,1.3145,0.8362,-0.6594,17.8800,23.4000,29.1600,
4.716716,0.5687,0.6178,0.3895,1.3145,0.8362,-0.6594,17.8800,23.4000,29.1600,
4.718410,1.2878,-0.4421,-0.6247,1.3145,0.8362,-0.6594,17.8800,23.4000,29.1600,
4.727889,1.2878,-0.4421,-0.6247,1.1159,0.7601,-0.6578,17.8800,23.4000,29.1600,
4.748968,1.2878,-0.4421,-0.6247,0.9934,0.5529,-0.4394,17.8800,23.4000,29.1600,
4.765248,1.2878,-0.4421,-0.6247,0.9934,0.5529,-0.4394,16.0200,25.6800,28.2600,
4.768752,1.2878,-0.4421,-0.6247,1.0077,0.1459,-0.2812,16.0200,25.6800,28.2600,
4.776949,1.2878,-0.4421,-0.6247,1.0077,0.1459,-0.2812,16.0200,25.6800,28.2600,
4.778595,0.3127,0.3891,2.3663,1.0077,0.1459,-0.2812,16.0200,25.6800,28.2600,
4.788994,0.3127,0.3891,2.3663,1.3540,-0.0570,-0.2120,16.0200,25.6800,28.2600,
4.809588,0.3127,0.3891,2.3663,1.2277,0.1278,-0.1678,16.0200,25.6800,28.2600,
4.826186,0.3127,0.3891,2.3663,1.2277,0.1278,-0.1678,13.9800,28.6800,26.5800,
4.831217,0.3127,0.3891,2.3663,0.8266,0.3638,-0.0479,13.9800,28.6800,26.5800,
4.839919,0.3127,0.3891,2.3663,0.8266,0.3638,-0.0479,13.9800,28.6800,26.5800,
4.841754,0.6088,0.4796,-1.4813,0.8266,0.3638,-0.0479,13.9800,28.6800,26.5800,
4.850734,0.6088,0.4796,-1.4813,0.5864,0.1923,-0.0288,13.9800,28.6800,26.5800,
4.872051,0.6088,0.4796,-1.4813,0.2269,0.1081,-0.0437,13.9800,28.6800,26.5800,
4.888333,0.6088,0.4796,-1.4813,0.2269,0.1081,-0.0437,13.0800,31.5000,24.9600,
4.891167,0.6088,0.4796,-1.4813,-0.0756,0.1241,0.0053,13.0800,31.5000,24.9600,
4.899830,0.6088,0.4796,-1.4813,-0.0756,0.1241,0.0053,13.0800,31.5000,24.9600,
4.901418,0.7695,0.3179,0.5729,-0.0756,0.1241,0.0053,13.0800,31.5000,24.9600,
4.912100,0.7695,0.3179,0.5729,0.0570,0.0815,0.0245,13.0800,31.5000,24.9600,
4.932448,0.7695,0.3179,0.5729,0.0469,0.0799,0.0224,13.0800,31.5000,24.9600,
4.950739,0.7695,0.3179,0.5729,0.0469,0.0799,0.0224,12.4800,33.2400,23.0400,
4.952460,0.7695,0.3179,0.5729,-0.0746,0.0543,-0.0037,12.4800,33.2400,23.0400,
4.961301,0.7695,0.3179,0.5729,-0.0746,0.0543,-0.0037,12.4800,33.2400,23.0400,
4.962090,0.1826,0.0953,-0.9528,-0.0746,0.0543,-0.0037,12.4800,33.2400,23.0400,
4.974169,0.1826,0.0953,-0.9528,-0.2210,0.0575,-0.0128,12.4800,33.2400,23.0400,
4.996288,0.1826,0.0953,-0.9528,-0.4000,0.0453,-0.0208,12.4800,33.2400,23.0400,
5.011821,0.1826,0.0953,-0.9528,-0.4000,0.0453,-0.0208,12.0000,34.8600,21.9600,
5.015112,0.1826,0.0953,-0.9528,-0.5087,0.0234,-0.0383,12.0000,34.8600,21.9600,
5.024785,0.1826,0.0953,-0.9528,-0.5087,0.0234,-0.0383,12.0000,34.8600,21.9600,
5.026747,0.2456,-0.0664,-0.0459,-0.5087,0.0234,-0.0383,12.0000,34.8600,21.9600,
5.035403,0.2456,-0.0664,-0.0459,-0.5081,-0.0149,-0.0527,12.0000,34.8600,21.9600,
5.057023,0.2456,-0.0664,-0.0459,-0.6008,-0.0091,-0.1214,12.0000,34.8600,21.9600,
5.072198,0.2456,-0.0664,-0.0459,-0.6008,-0.0091,-0.1214,11.9400,35.3400,21.0000,
5.075931,0.2456,-0.0664,-0.0459,-0.7132,-0.0362,-0.2306,11.9400,35.3400,21.0000,
5.085476,0.2456,-0.0664,-0.0459,-0.7132,-0.0362,-0.2306,11.9400,35.3400,21.0000,
5.086466,0.1802,0.1544,-0.5096,-0.7132,-0.0362,-0.2306,11.9400,35.3400,21.0000,
5.096995,0.1802,0.1544,-0.5096,-0.8464,-0.0399,-0.2882,11.9400,35.3400,21.0000,
5.117867,0.1802,0.1544,-0.5096,-0.9944,-0.0644,-0.3345,11.9400,35.3400,21.0000,
5.134956,0.1802,0.1544,-0.5096,-0.9944,-0.0644,-0.3345,11.5800,35.2800,21.7800,
5.138254,0.1802,0.1544,-0.5096,-1.1063,-0.0597,-0.4421,11.5800,35.2800,21.7800,
5.147014,0.1802,0.1544,-0.5096,-1.1063,-0.0597,-0.4421,11.5800,35.2800,21.7800,
5.148584,0.4721,0.2692,0.2802,-1.1063,-0.0597,-0.4421,11.5800,35.2800,21.7800,
5.158116,0.4721,0.2692,0.2802,-1.1404,-0.0708,-0.5422,11.5800,35.2800,21.7800,
5.179421,0.4721,0.2692,0.2802,-1.1808,-0.0687,-0.5609,11.5800,35.2800,21.7800,
5.195912,0.4721,0.2692,0.2802,-1.1808,-0.0687,-0.5609,10.7400,34.7400,22.9200,
5.199211,0.4721,0.2692,0.2802,-1.1776,-0.1172,-0.5710,10.7400,34.7400,22.9200,
5.207371,0.4721,0.2692,0.2802,-1.1776,-0.1172,-0.5710,10.7400,34.7400,22.9200,
5.208680,-0.2989,0.2406,0.6077,-1.1776,-0.1172,-0.5710,10.7400,34.7400,22.9200,
5.220521,-0.2989,0.2406,0.6077,-1.1345,-0.1949,-0.5774,10.7400,34.7400,22.9200,
5.240603,-0.2989,0.2406,0.6077,-1.0509,-0.1715,-0.5268,10.7400,34.7400,22.9200,
5.258189,-0.2989,0.2406,0.6077,-1.0509,-0.1715,-0.5268,10.7400,33.5400,24.1800,
5.261296,-0.2989,0.2406,0.6077,-0.9278,-0.1321,-0.4208,10.7400,33.5400,24.1800,
5.269783,-0.2989,0.2406,0.6077,-0.9278,-0.1321,-0.4208,10.7400,33.5400,24.1800,
5.270733,-0.7486,0.2160,1.0459,-0.9278,-0.1321,-0.4208,10.7400,33.5400,24.1800,
5.281598,-0.7486,0.2160,1.0459,-0.9145,-0.1779,-0.3723,10.7400,33.5400,24.1800,
5.302754,-0.7486,0.2160,1.0459,-0.9124,-0.2205,-0.3585,10.7400,33.5400,24.1800,
5.318882,-0.7486,0.2160,1.0459,-0.9124,-0.2205,-0.3585,10.5000,32.2200,26.7600,
5.324107,-0.7486,0.2160,1.0459,-0.8474,-0.2083,-0.3190,10.5000,32.2200,26.7600,
5.331439,-0.7486,0.2160,1.0459,-0.8474,-0.2083,-0.3190,10.5000,32.2200,26.7600,
5.332414,-0.8916,0.0913,1.4192,-0.8474,-0.2083,-0.3190,10.5000,32.2200,26.7600,
5.344228,-0.8916,0.0913,1.4192,-0.7244,-0.1268,-0.2147,10.5000,32.2200,26.7600,
5.363483,-0.8916,0.0913,1.4192,-0.6333,-0.1619,-0.1774,10.5000,32.2200,26.7600,
5.380743,-0.8916,0.0913,1.4192,-0.6333,-0.1619,-0.1774,9.7800,30.6600,28.3800,
5.383909,-0.8916,0.0913,1.4192,-0.5742,-0.2338,-0.2045,9.7800,30.6600,28.3800,
5.392210,-0.8916,0.0913,1.4192,-0.5742,-0.2338,-0.2045,9.7800,30.6600,28.3800,
5.393875,-0.1841,0.3967,0.9335,-0.5742,-0.2338,-0.2045,9.7800,30.6600,28.3800,
5.404608,-0.1841,0.3967,0.9335,-0.4863,-0.2258,-0.1955,9.7800,30.6600,28.3800,
5.425955,-0.1841,0.3967,0.9335,-0.4218,-0.1763,-0.1513,9.7800,30.6600,28.3800,
5.442108,-0.1841,0.3967,0.9335,-0.4218,-0.1763,-0.1513,9.4800,29.4600,29.9400,
5.446046,-0.1841,0.3967,0.9335,-0.3292,-0.1678,-0.1790,9.4800,29.4600,29.9400,
5.454739,-0.1841,0.3967,0.9335,-0.3292,-0.1678,-0.1790,9.4800,29.4600,29.9400,
5.455759,0.3325,0.0352,0.2732,-0.3292,-0.1678,-0.1790,9.4800,29.4600,29.9400,
5.467416,0.3325,0.0352,0.2732,-0.3435,-0.2503,-0.2898,9.4800,29.4600,29.9400,
5.486473,0.3325,0.0352,0.2732,-0.4373,-0.2594,-0.3521,9.4800,29.4600,29.9400,
5.503937,0.3325,0.0352,0.2732,-0.4373,-0.2594,-0.3521,9.0600,28.5600,31.7400,
5.507779,0.3325,0.0352,0.2732,-0.4639,-0.1720,-0.3489,9.0600,28.5600,31.7400,
5.516165,0.3325,0.0352,0.2732,-0.4639,-0.1720,-0.3489,9.0600,28.5600,31.7400,
5.517331,-0.4970,-0.0795,1.1702,-0.4639,-0.1720,-0.3489,9.0600,28.5600,31.7400,
5.528288,-0.4970,-0.0795,1.1702,-0.3345,-0.0767,-0.3260,9.0600,28.5600,31.7400,
5.548911,-0.4970,-0.0795,1.1702,-0.2732,-0.1390,-0.3201,9.0600,28.5600,31.7400,
5.565598,-0.4970,-0.0795,1.1702,-0.2732,-0.1390,-0.3201,8.7000,27.2400,32.4600,
5.569182,-0.4970,-0.0795,1.1702,-0.3212,-0.2162,-0.3350,8.7000,27.2400,32.4600,
5.577961,-0.4970,-0.0795,1.1702,-0.3212,-0.2162,-0.3350,8.7000,27.2400,32.4600,
5.579670,-0.1596,-0.1120,0.0940,-0.3212,-0.2162,-0.3350,8.7000,27.2400,32.4600,
5.592565,-0.1596,-0.1120,0.0940,-0.3483,-0.1928,-0.3665,8.7000,27.2400,32.4600,
5.610589,-0.1596,-0.1120,0.0940,-0.3835,-0.1928,-0.4149,8.7000,27.2400,32.4600,
5.627743,-0.1596,-0.1120,0.0940,-0.3835,-0.1928,-0.4149,8.5200,26.2800,33.4200,
5.630371,-0.1596,-0.1120,0.0940,-0.4788,-0.1880,-0.4421,8.5200,26.2800,33.4200,
5.639384,-0.1596,-0.1120,0.0940,-0.4788,-0.1880,-0.4421,8.5200,26.2800,33.4200,
5.640493,-0.3340,-0.1366,0.0057,-0.4788,-0.1880,-0.4421,8.5200,26.2800,33.4200,
5.651987,-0.3340,-0.1366,0.0057,-0.4820,-0.1284,-0.4272,8.5200,26.2800,33.4200,
5.672182,-0.3340,-0.1366,0.0057,-0.3899,-0.1012,-0.4341,8.5200,26.2800,33.4200,
5.688915,-0.3340,-0.1366,0.0057,-0.3899,-0.1012,-0.4341,7.9200,25.4400,34.4400,
5.693482,-0.3340,-0.1366,0.0057,-0.3867,-0.1960,-0.4389,7.9200,25.4400,34.4400,
5.700392,-0.3340,-0.1366,0.0057,-0.3867,-0.1960,-0.4389,7.9200,25.4400,34.4400,
5.701402,-0.3867,-0.0554,-0.6503,-0.3867,-0.1960,-0.4389,7.9200,25.4400,34.4400,
5.712985,-0.3867,-0.0554,-0.6503,-0.5321,-0.1955,-0.4421,7.9200,25.4400,34.4400,
5.733475,-0.3867,-0.0554,-0.6503,-0.6242,-0.1305,-0.4389,7.9200,25.4400,34.4400,
5.749899,-0.3867,-0.0554,-0.6503,-0.6242,-0.1305,-0.4389,7.5000,24.5400,34.9800,
5.753885,-0.3867,-0.0554,-0.6503,-0.6141,-0.2301,-0.4533,7.5000,24.5400,34.9800,
5.762802,-0.3867,-0.0554,-0.6503,-0.6141,-0.2301,-0.4533,7.5000,24.5400,34.9800,
5.764502,-0.1398,0.0917,0.3020,-0.6141,-0.2301,-0.4533,7.5000,24.5400,34.9800,
5.776076,-0.1398,0.0917,0.3020,-0.6274,-0.4165,-0.4559,7.5000,24.5400,34.9800,
5.795305,-0.1398,0.0917,0.3020,-0.5896,-0.4139,-0.4171,7.5000,24.5400,34.9800,
5.811860,-0.1398,0.0917,0.3020,-0.5896,-0.4139,-0.4171,6.6000,24.6000,35.5200,
5.815295,-0.1398,0.0917,0.3020,-0.4799,-0.3047,-0.3595,6.6000,24.6000,35.5200,
5.825342,-0.1398,0.0917,0.3020,-0.4799,-0.3047,-0.3595,6.6000,24.6000,35.5200,
5.826983,-0.1463,-0.1113,0.7550,-0.4799,-0.3047,-0.3595,6.6000,24.6000,35.5200,
5.835938,-0.1463,-0.1113,0.7550,-0.4384,-0.4336,-0.3372,6.6000,24.6000,35.5200,
5.856269,-0.1463,-0.1113,0.7550,-0.4447,-0.6839,-0.4059,6.6000,24.6000,35.5200,
5.874696,-0.1463,-0.1113,0.7550,-0.4447,-0.6839,-0.4059,6.2400,23.8200,35.7600,
5.876600,-0.1463,-0.1113,0.7550,-0.5321,-0.7089,-0.4772,6.2400,23.8200,35.7600,
5.884954,-0.1463,-0.1113,0.7550,-0.5321,-0.7089,-0.4772,6.2400,23.8200,35.7600,
5.886044,0.3197,-0.3592,0.2493,-0.5321,-0.7089,-0.4772,6.2400,23.8200,35.7600,
5.897253,0.3197,-0.3592,0.2493,-0.6083,-0.4400,-0.5529,6.2400,23.8200,35.7600,
5.918422,0.3197,-0.3592,0.2493,-0.5657,-0.3904,-0.6301,6.2400,23.8200,35.7600,
5.934040,0.3197,-0.3592,0.2493,-0.5657,-0.3904,-0.6301,6.8400,23.1600,36.2400,
5.937553,0.3197,-0.3592,0.2493,-0.4352,-0.6131,-0.6605,6.8400,23.1600,36.2400,
5.946013,0.3197,-0.3592,0.2493,-0.4352,-0.6131,-0.6605,6.8400,23.1600,36.2400,
5.947493,-0.4702,-0.0774,1.2317,-0.4352,-0.6131,-0.6605,6.8400,23.1600,36.2400,
5.958400,-0.4702,-0.0774,1.2317,-0.2892,-0.6621,-0.6083,6.8400,23.1600,36.2400,
5.978447,-0.4702,-0.0774,1.2317,-0.2248,-0.4906,-0.5081,6.8400,23.1600,36.2400,
5.996498,-0.4702,-0.0774,1.2317,-0.2248,-0.4906,-0.5081,7.3200,22.3200,36.7200,
5.998712,-0.4702,-0.0774,1.2317,-0.1752,-0.4549,-0.4708,7.3200,22.3200,36.7200,
6.007867,-0.4702,-0.0774,1.2317,-0.1752,-0.4549,-0.4708,7.3200,22.3200,36.7200,
6.009390,-0.3359,-0.2188,0.4566,-0.1752,-0.4549,-0.4708,7.3200,22.3200,36.7200,
6.020605,-0.3359,-0.2188,0.4566,-0.0804,-0.4799,-0.4421,7.3200,22.3200,36.7200,
6.041404,-0.3359,-0.2188,0.4566,-0.0085,-0.4309,-0.3079,7.3200,22.3200,36.7200,
6.058408,-0.3359,-0.2188,0.4566,-0.0085,-0.4309,-0.3079,8.2800,21.3000,37.2000,
6.061556,-0.3359,-0.2188,0.4566,0.0043,-0.3483,-0.1513,8.2800,21.3000,37.2000,
6.069886,-0.3359,-0.2188,0.4566,0.0043,-0.3483,-0.1513,8.2800,21.3000,37.2000,
6.070878,-0.3069,-0.2962,-0.0834,0.0043,-0.3483,-0.1513,8.2800,21.3000,37.2000,
6.082425,-0.3069,-0.2962,-0.0834,-0.0016,-0.4016,-0.0969,8.2800,21.3000,37.2000,
6.103039,-0.3069,-0.2962,-0.0834,-0.0479,-0.3808,-0.1491,8.2800,21.3000,37.2000,
6.119796,-0.3069,-0.2962,-0.0834,-0.0479,-0.3808,-0.1491,8.8800,20.7600,37.3200,
6.125441,-0.3069,-0.2962,-0.0834,-0.0320,-0.1965,-0.1763,8.8800,20.7600,37.3200,
6.132002,-0.3069,-0.2962,-0.0834,-0.0320,-0.1965,-0.1763,8.8800,20.7600,37.3200,
6.133361,0.0283,-0.0965,0.2347,-0.0320,-0.1965,-0.1763,8.8800,20.7600,37.3200,
6.144362,0.0283,-0.0965,0.2347,-0.0197,-0.0463,-0.1475,8.8800,20.7600,37.3200,
6.164374,0.0283,-0.0965,0.2347,-0.0650,-0.0202,-0.1806,8.8800,20.7600,37.3200,
6.181632,0.0283,-0.0965,0.2347,-0.0650,-0.0202,-0.1806,9.3000,20.4600,37.0800,
6.184276,0.0283,-0.0965,0.2347,-0.1129,-0.0735,-0.2732,9.3000,20.4600,37.0800,
6.193572,0.0283,-0.0965,0.2347,-0.1129,-0.0735,-0.2732,9.3000,20.4600,37.0800,
6.195013,0.2221,-0.1333,0.0164,-0.1129,-0.0735,-0.2732,9.3000,20.4600,37.0800,
6.205730,0.2221,-0.1333,0.0164,-0.0975,0.0160,-0.3611,9.3000,20.4600,37.0800,
6.226246,0.2221,-0.1333,0.0164,0.0027,0.0650,-0.3521,9.3000,20.4600,37.0800,
6.242187,0.2221,-0.1333,0.0164,0.0027,0.0650,-0.3521,9.7200,20.2800,37.0200,
6.245605,0.2221,-0.1333,0.0164,0.1198,-0.0059,-0.2290,9.7200,20.2800,37.0200,
6.254555,0.2221,-0.1333,0.0164,0.1198,-0.0059,-0.2290,9.7200,20.2800,37.0200,
6.255551,-0.6681,-0.0993,-0.1188,0.1198,-0.0059,-0.2290,9.7200,20.2800,37.0200,
6.266421,-0.6681,-0.0993,-0.1188,0.0469,-0.1859,-0.1007,9.7200,20.2800,37.0200,
6.287602,-0.6681,-0.0993,-0.1188,-0.0570,-0.3393,-0.0330,9.7200,20.2800,37.0200,
6.304376,-0.6681,-0.0993,-0.1188,-0.0570,-0.3393,-0.0330,9.9000,20.3400,37.5000,
6.308665,-0.6681,-0.0993,-0.1188,-0.0250,-0.3419,-0.0037,9.9000,20.3400,37.5000,
6.316591,-0.6681,-0.0993,-0.1188,-0.0250,-0.3419,-0.0037,9.9000,20.3400,37.5000,
6.317810,0.8583,-0.0906,0.4938,-0.0250,-0.3419,-0.0037,9.9000,20.3400,37.5000,
6.328817,0.8583,-0.0906,0.4938,-0.0181,-0.2610,-0.0985,9.9000,20.3400,37.5000,
6.349428,0.8583,-0.0906,0.4938,0.0320,-0.2067,-0.1694,9.9000,20.3400,37.5000,
6.366181,0.8583,-0.0906,0.4938,0.0320,-0.2067,-0.1694,9.9600,20.2800,37.5600,
6.369488,0.8583,-0.0906,0.4938,0.1113,-0.1678,-0.1502,9.9600,20.2800,37.5600,
6.376762,0.8583,-0.0906,0.4938,0.1113,-0.1678,-0.1502,9.9600,20.2800,37.5600,
6.377543,-0.3154,-0.3323,0.1683,0.1113,-0.1678,-0.1502,9.9600,20.2800,37.5600,
6.391608,-0.3154,-0.3323,0.1683,0.0692,-0.0639,-0.0197,9.9600,20.2800,37.5600,
6.411024,-0.3154,-0.3323,0.1683,-0.0746,-0.0964,0.0570,9.9600,20.2800,37.5600,
6.427648,-0.3154,-0.3323,0.1683,-0.0746,-0.0964,0.0570,9.7200,20.4000,37.8000,
6.430871,-0.3154,-0.3323,0.1683,-0.2668,-0.2290,0.0170,9.7200,20.4000,37.8000,
6.438978,-0.3154,-0.3323,0.1683,-0.2668,-0.2290,0.0170,9.7200,20.4000,37.8000,
6.440081,0.6037,0.3401,-1.1711,-0.2668,-0.2290,0.0170,9.7200,20.4000,37.8000,
6.451460,0.6037,0.3401,-1.1711,-0.3867,-0.2988,-0.0804,9.7200,20.4000,37.8000,
6.472467,0.6037,0.3401,-1.1711,-0.4485,-0.3052,-0.1097,9.7200,20.4000,37.8000,
6.488506,0.6037,0.3401,-1.1711,-0.4485,-0.3052,-0.1097,9.9000,20.5800,37.8600,
6.492077,0.6037,0.3401,-1.1711,-0.3457,-0.2402,-0.0996,9.9000,20.5800,37.8600,
6.500734,0.6037,0.3401,-1.1711,-0.3457,-0.2402,-0.0996,9.9000,20.5800,37.8600,
6.501932,0.1174,-0.3404,0.8573,-0.3457,-0.2402,-0.0996,9.9000,20.5800,37.8600,
6.512803,0.1174,-0.3404,0.8573,-0.2674,-0.3041,-0.1614,9.9000,20.5800,37.8600,
6.533776,0.1174,-0.3404,0.8573,-0.2429,-0.3180,-0.0858,9.9000,20.5800,37.8600,
6.550041,0.1174,-0.3404,0.8573,-0.2429,-0.3180,-0.0858,10.5600,20.5800,37.0200,
6.553856,0.1174,-0.3404,0.8573,-0.2067,-0.4048,-0.0399,10.5600,20.5800,37.0200,
6.562519,0.1174,-0.3404,0.8573,-0.2067,-0.4048,-0.0399,10.5600,20.5800,37.0200,
6.564167,0.0323,-0.3002,0.4705,-0.2067,-0.4048,-0.0399,10.5600,20.5800,37.0200,
6.575493,0.0323,-0.3002,0.4705,-0.1832,-0.3941,0.0091,10.5600,20.5800,37.0200,
6.595011,0.0323,-0.3002,0.4705,-0.2141,-0.2903,0.0772,10.5600,20.5800,37.0200,
6.612502,0.0323,-0.3002,0.4705,-0.2141,-0.2903,0.0772,11.1600,20.7000,36.9000,
6.614485,0.0323,-0.3002,0.4705,-0.3036,-0.4346,0.0666,11.1600,20.7000,36.9000,
6.624888,0.0323,-0.3002,0.4705,-0.3036,-0.4346,0.0666,11.1600,20.7000,36.9000,
6.626532,0.2072,0.2740,-0.8237,-0.3036,-0.4346,0.0666,11.1600,20.7000,36.9000,
6.635857,0.2072,0.2740,-0.8237,-0.4171,-0.5726,0.0357,11.1600,20.7000,36.9000,
6.656927,0.2072,0.2740,-0.8237,-0.5832,-0.7329,-0.0208,11.1600,20.7000,36.9000,
6.674643,0.2072,0.2740,-0.8237,-0.5832,-0.7329,-0.0208,11.7000,20.1000,36.7800,
6.676427,0.2072,0.2740,-0.8237,-0.6365,-0.8804,-0.0623,11.7000,20.1000,36.7800,
6.685351,0.2072,0.2740,-0.8237,-0.6365,-0.8804,-0.0623,11.7000,20.1000,36.7800,
6.686389,0.0150,0.2066,-0.3206,-0.6365,-0.8804,-0.0623,11.7000,20.1000,36.7800,
6.697440,0.0150,0.2066,-0.3206,-0.6115,-1.0946,-0.0415,11.7000,20.1000,36.7800,
6.718282,0.0150,0.2066,-0.3206,-0.6344,-1.3550,0.0948,11.7000,20.1000,36.7800,
6.735495,0.0150,0.2066,-0.3206,-0.6344,-1.3550,0.0948,11.7600,18.9600,36.4800,
6.737821,0.0150,0.2066,-0.3206,-0.4091,-1.5952,0.1955,11.7600,18.9600,36.4800,
6.747242,0.0150,0.2066,-0.3206,-0.4091,-1.5952,0.1955,11.7600,18.9600,36.4800,
6.749031,0.0498,-0.4929,0.5757,-0.4091,-1.5952,0.1955,11.7600,18.9600,36.4800,
6.759341,0.0498,-0.4929,0.5757,-0.3835,-1.6746,0.2615,11.7600,18.9600,36.4800,
6.780022,0.0498,-0.4929,0.5757,-0.5396,-1.5926,0.2610,11.7600,18.9600,36.4800,
6.796758,0.0498,-0.4929,0.5757,-0.5396,-1.5926,0.2610,13.0200,18.0000,36.8400,
6.799994,0.0498,-0.4929,0.5757,-0.4852,-1.8584,0.2503,13.0200,18.0000,36.8400,
6.807449,0.0498,-0.4929,0.5757,-0.4852,-1.8584,0.2503,13.0200,18.0000,36.8400,
6.808717,-0.3346,-0.1427,0.2418,-0.4852,-1.8584,0.2503,13.0200,18.0000,36.8400,
6.820727,-0.3346,-0.1427,0.2418,-0.4943,-1.7849,0.2711,13.0200,18.0000,36.8400,
6.841470,-0.3346,-0.1427,0.2418,-0.4980,-1.7577,0.2690,13.0200,18.0000,36.8400,
6.858333,-0.3346,-0.1427,0.2418,-0.4980,-1.7577,0.2690,15.1200,16.6800,36.2400,
6.861603,-0.3346,-0.1427,0.2418,-0.6040,-1.7140,0.3190,15.1200,16.6800,36.2400,
6.870249,-0.3346,-0.1427,0.2418,-0.6040,-1.7140,0.3190,15.1200,16.6800,36.2400,
6.871369,0.1427,0.1436,0.2602,-0.6040,-1.7140,0.3190,15.1200,16.6800,36.2400,
6.882646,0.1427,0.1436,0.2602,-0.6764,-1.8328,0.3739,15.1200,16.6800,36.2400,
6.902765,0.1427,0.1436,0.2602,-0.8330,-1.7300,0.3606,15.1200,16.6800,36.2400,
6.920118,0.1427,0.1436,0.2602,-0.8330,-1.7300,0.3606,18.1800,15.3000,34.9200,
6.922099,0.1427,0.1436,0.2602,-0.8661,-1.6682,0.4527,18.1800,15.3000,34.9200,
6.931674,0.1427,0.1436,0.2602,-0.8661,-1.6682,0.4527,18.1800,15.3000,34.9200,
6.932727,-0.4194,-0.0615,1.4046,-0.8661,-1.6682,0.4527,18.1800,15.3000,34.9200,
6.943877,-0.4194,-0.0615,1.4046,-0.7585,-1.8099,0.5097,18.1800,15.3000,34.9200,
6.964278,-0.4194,-0.0615,1.4046,-0.5529,-1.5856,0.1278,18.1800,15.3000,34.9200,
6.981319,-0.4194,-0.0615,1.4046,-0.5529,-1.5856,0.1278,22.6800,14.3400,33.7200,
6.984615,-0.4194,-0.0615,1.4046,-0.1353,-1.1068,-0.3659,22.6800,14.3400,33.7200,
6.993549,-0.4194,-0.0615,1.4046,-0.1353,-1.1068,-0.3659,22.6800,14.3400,33.7200,
6.995110,1.2385,-0.3556,0.9959,-0.1353,-1.1068,-0.3659,22.6800,14.3400,33.7200,
7.006223,1.2385,-0.3556,0.9959,0.2381,-0.7771,-0.6019,22.6800,14.3400,33.7200,
7.025696,1.2385,-0.3556,0.9959,0.4543,-0.6578,-0.3691,22.6800,14.3400,33.7200,
7.041845,1.2385,-0.3556,0.9959,0.4543,-0.6578,-0.3691,26.1600,12.9000,30.9000,
7.045292,1.2385,-0.3556,0.9959,0.4112,-0.7654,-0.0490,26.1600,12.9000,30.9000,
7.055069,1.2385,-0.3556,0.9959,0.4112,-0.7654,-0.0490,26.1600,12.9000,30.9000,
7.056062,0.9033,-0.5013,0.7328,0.4112,-0.7654,-0.0490,26.1600,12.9000,30.9000,
7.067439,0.9033,-0.5013,0.7328,0.1481,-1.0051,-0.0368,26.1600,12.9000,30.9000,
7.087291,0.9033,-0.5013,0.7328,-0.0969,-0.7286,0.1470,26.1600,12.9000,30.9000,
7.104536,0.9033,-0.5013,0.7328,-0.0969,-0.7286,0.1470,29.5200,12.1200,28.4400,
7.109454,0.9033,-0.5013,0.7328,-0.1438,-0.6562,0.3654,29.5200,12.1200,28.4400,
7.116905,0.9033,-0.5013,0.7328,-0.1438,-0.6562,0.3654,29.5200,12.1200,28.4400,
7.118143,0.1331,0.3715,0.8070,-0.1438,-0.6562,0.3654,29.5200,12.1200,28.4400,
7.128364,0.1331,0.3715,0.8070,-0.1923,-0.7787,0.4085,29.5200,12.1200,28.4400,
7.149195,0.1331,0.3715,0.8070,-0.3004,-0.8591,0.3201,29.5200,12.1200,28.4400,
7.165965,0.1331,0.3715,0.8070,-0.3004,-0.8591,0.3201,31.9200,11.5200,26.4600,
7.169514,0.1331,0.3715,0.8070,-0.2535,-0.4719,0.2312,31.9200,11.5200,26.4600,
7.176553,0.1331,0.3715,0.8070,-0.2535,-0.4719,0.2312,31.9200,11.5200,26.4600,
7.176967,0.8535,-0.1231,1.2835,-0.2535,-0.4719,0.2312,31.9200,11.5200,26.4600,
7.190679,0.8535,-0.1231,1.2835,-0.3643,-0.9167,0.2237,31.9200,11.5200,26.4600,
7.213239,0.8535,-0.1231,1.2835,-0.5167,-0.6679,0.4075,31.9200,11.5200,26.4600,
7.227958,0.8535,-0.1231,1.2835,-0.5167,-0.6679,0.4075,33.8400,11.1600,24.4200,
7.231517,0.8535,-0.1231,1.2835,-0.5811,-0.7542,0.4879,33.8400,11.1600,24.4200,
7.240841,0.8535,-0.1231,1.2835,-0.5811,-0.7542,0.4879,33.8400,11.1600,24.4200,
7.242412,0.3839,-0.1185,0.7497,-0.5811,-0.7542,0.4879,33.8400,11.1600,24.4200,
7.251108,0.3839,-0.1185,0.7497,-0.5465,-0.5183,0.4501,33.8400,11.1600,24.4200,
7.271863,0.3839,-0.1185,0.7497,-0.5907,-0.3899,0.6962,33.8400,11.1600,24.4200,
7.288345,0.3839,-0.1185,0.7497,-0.5907,-0.3899,0.6962,35.4000,10.6800,22.7400,
7.292620,0.3839,-0.1185,0.7497,-0.3127,-0.5976,0.2700,35.4000,10.6800,22.7400,
7.300634,0.3839,-0.1185,0.7497,-0.3127,-0.5976,0.2700,35.4000,10.6800,22.7400,
7.301854,1.8700,-1.6836,0.1467,-0.3127,-0.5976,0.2700,35.4000,10.6800,22.7400,
7.313217,1.8700,-1.6836,0.1467,-0.3872,-0.6940,0.2338,35.4000,10.6800,22.7400,
7.333421,1.8700,-1.6836,0.1467,-0.7499,-0.7244,0.5891,35.4000,10.6800,22.7400,
7.350426,1.8700,-1.6836,0.1467,-0.7499,-0.7244,0.5891,36.0000,9.0000,21.5400,
7.354025,1.8700,-1.6836,0.1467,-0.7281,-0.3659,0.7207,36.0000,9.0000,21.5400,
7.361625,1.8700,-1.6836,0.1467,-0.7281,-0.3659,0.7207,36.0000,9.0000,21.5400,
7.363193,0.1697,0.0199,2.5012,-0.7281,-0.3659,0.7207,36.0000,9.0000,21.5400,
7.375491,0.1697,0.0199,2.5012,-0.6429,-0.3254,0.8197,36.0000,9.0000,21.5400,
7.395164,0.1697,0.0199,2.5012,-0.4932,-0.8852,0.7558,36.0000,9.0000,21.5400,
7.411981,0.1697,0.0199,2.5012,-0.4932,-0.8852,0.7558,37.0200,7.0800,19.5000,
7.415292,0.1697,0.0199,2.5012,-0.4107,-1.2192,0.7079,37.0200,7.0800,19.5000,
7.424635,0.1697,0.0199,2.5012,-0.4107,-1.2192,0.7079,37.0200,7.0800,19.5000,
7.426220,1.3396,-0.5591,0.2006,-0.4107,-1.2192,0.7079,37.0200,7.0800,19.5000,
7.436159,1.3396,-0.5591,0.2006,-0.3920,-1.3279,0.5806,37.0200,7.0800,19.5000,
7.456640,1.3396,-0.5591,0.2006,-0.4298,-1.4312,0.4091,37.0200,7.0800,19.5000,
7.475330,1.3396,-0.5591,0.2006,-0.4298,-1.4312,0.4091,36.9600,4.2600,18.0600,
7.476878,1.3396,-0.5591,0.2006,-0.2178,-1.8509,0.1348,36.9600,4.2600,18.0600,
7.485378,1.3396,-0.5591,0.2006,-0.2178,-1.8509,0.1348,36.9600,4.2600,18.0600,
7.486374,1.9744,0.0283,2.0829,-0.2178,-1.8509,0.1348,36.9600,4.2600,18.0600,
7.496907,1.9744,0.0283,2.0829,-0.0261,-2.2445,0.0101,36.9600,4.2600,18.0600,
7.518339,1.9744,0.0283,2.0829,-0.3515,-1.8956,0.1848,36.9600,4.2600,18.0600,
7.534955,1.9744,0.0283,2.0829,-0.3515,-1.8956,0.1848,37.0200,2.4600,16.4400,
7.538941,1.9744,0.0283,2.0829,-0.6653,-1.7034,0.3505,37.0200,2.4600,16.4400,
7.545706,1.9744,0.0283,2.0829,-0.6653,-1.7034,0.3505,37.0200,2.4600,16.4400,
7.547237,0.1824,-0.2710,0.5475,-0.6653,-1.7034,0.3505,37.0200,2.4600,16.4400,
7.558651,0.1824,-0.2710,0.5475,-0.5529,-2.1359,0.3856,37.0200,2.4600,16.4400,
7.579795,0.1824,-0.2710,0.5475,-0.5183,-0.6312,0.4863,37.0200,2.4600,16.4400,
7.595456,0.1824,-0.2710,0.5475,-0.5183,-0.6312,0.4863,37.8600,1.5600,13.7400,
7.598985,0.1824,-0.2710,0.5475,-2.9135,2.5598,0.9433,37.8600,1.5600,13.7400,
7.607233,0.1824,-0.2710,0.5475,-2.9135,2.5598,0.9433,37.8600,1.5600,13.7400,
7.608461,-0.1632,-0.6918,0.4959,-2.9135,2.5598,0.9433,37.8600,1.5600,13.7400,
7.619676,-0.1632,-0.6918,0.4959,-2.4821,3.3487,0.8527,37.8600,1.5600,13.7400,
7.640933,-0.1632,-0.6918,0.4959,-2.0389,-1.1936,1.0296,37.8600,1.5600,13.7400,
7.658078,-0.1632,-0.6918,0.4959,-2.0389,-1.1936,1.0296,38.6400,0.9000,11.7000,
7.662130,-0.1632,-0.6918,0.4959,-3.7375,0.9705,0.5726,38.6400,0.9000,11.7000,
7.670609,-0.1632,-0.6918,0.4959,-3.7375,0.9705,0.5726,38.6400,0.9000,11.7000,
7.671469,2.9300,1.8999,-1.6765,-3.7375,0.9705,0.5726,38.6400,0.9000,11.7000,
7.680939,2.9300,1.8999,-1.6765,-5.7684,-1.4797,-0.6131,38.6400,0.9000,11.7000,
7.701987,2.9300,1.8999,-1.6765,-5.5122,-0.2722,-1.6480,38.6400,0.9000,11.7000,
7.718395,2.9300,1.8999,-1.6765,-5.5122,-0.2722,-1.6480,39.2400,-0.4200,9.4800,
7.722092,2.9300,1.8999,-1.6765,-3.3566,2.0570,-2.5907,39.2400,-0.4200,9.4800,
7.730562,2.9300,1.8999,-1.6765,-3.3566,2.0570,-2.5907,39.2400,-0.4200,9.4800,
7.731269,-0.4510,-2.0198,5.1141,-3.3566,2.0570,-2.5907,39.2400,-0.4200,9.4800,
7.742897,-0.4510,-2.0198,5.1141,-2.5849,1.7864,-3.0786,39.2400,-0.4200,9.4800,
7.763817,-0.4510,-2.0198,5.1141,-4.7042,-0.0123,-1.8397,39.2400,-0.4200,9.4800,
7.779794,-0.4510,-2.0198,5.1141,-4.7042,-0.0123,-1.8397,39.9000,-1.0200,8.2200,
7.783539,-0.4510,-2.0198,5.1141,-6.3889,-1.0802,-0.2008,39.9000,-1.0200,8.2200,
7.792093,-0.4510,-2.0198,5.1141,-6.3889,-1.0802,-0.2008,39.9000,-1.0200,8.2200,
7.792931,-2.2540,-3.6519,1.4124,-6.3889,-1.0802,-0.2008,39.9000,-1.0200,8.2200,
7.804339,-2.2540,-3.6519,1.4124,-7.3029,-2.2951,0.8394,39.9000,-1.0200,8.2200,
7.825051,-2.2540,-3.6519,1.4124,-2.8469,2.6435,-0.4565,39.9000,-1.0200,8.2200,
7.842264,-2.2540,-3.6519,1.4124,-2.8469,2.6435,-0.4565,39.8400,-1.3800,9.0600,
7.845167,-2.2540,-3.6519,1.4124,1.0514,5.2187,0.0059,39.8400,-1.3800,9.0600,
7.853629,-2.2540,-3.6519,1.4124,1.0514,5.2187,0.0059,39.8400,-1.3800,9.0600,
7.854473,-5.4006,1.2002,8.7237,1.0514,5.2187,0.0059,39.8400,-1.3800,9.0600,
7.866378,-5.4006,1.2002,8.7237,2.1449,5.1681,0.4581,39.8400,-1.3800,9.0600,
7.886578,-5.4006,1.2002,8.7237,2.8879,5.3934,-0.4384,39.8400,-1.3800,9.0600,
7.903138,-5.4006,1.2002,8.7237,2.8879,5.3934,-0.4384,39.6000,-2.0400,10.5000,
7.906700,-5.4006,1.2002,8.7237,2.9172,4.8608,-1.7497,39.6000,-2.0400,10.5000,
7.915171,-5.4006,1.2002,8.7237,2.9172,4.8608,-1.7497,39.6000,-2.0400,10.5000,
7.916099,4.3221,-2.5409,0.7372,2.9172,4.8608,-1.7497,39.6000,-2.0400,10.5000,
7.927263,4.3221,-2.5409,0.7372,2.1082,3.0898,-2.0815,39.6000,-2.0400,10.5000,
7.947838,4.3221,-2.5409,0.7372,1.2725,2.5731,-1.8504,39.6000,-2.0400,10.5000,
7.965471,4.3221,-2.5409,0.7372,1.2725,2.5731,-1.8504,38.2800,-0.9000,14.9400,
7.968069,4.3221,-2.5409,0.7372,0.9870,2.9039,-1.7971,38.2800,-0.9000,14.9400,
7.976760,4.3221,-2.5409,0.7372,0.9870,2.9039,-1.7971,38.2800,-0.9000,14.9400,
7.977782,-1.1974,-0.5207,-0.2211,0.9870,2.9039,-1.7971,38.2800,-0.9000,14.9400,
7.988672,-1.1974,-0.5207,-0.2211,1.5004,3.7279,-1.9707,38.2800,-0.9000,14.9400,
8.009972,-1.1974,-0.5207,-0.2211,2.2030,4.5114,-2.3249,38.2800,-0.9000,14.9400,
8.025974,-1.1974,-0.5207,-0.2211,2.2030,4.5114,-2.3249,35.4000,1.3200,20.7000,
8.030050,-1.1974,-0.5207,-0.2211,2.3478,4.1375,-2.3942,35.4000,1.3200,20.7000,
8.039519,-1.1974,-0.5207,-0.2211,2.3478,4.1375,-2.3942,35.4000,1.3200,20.7000,
8.040312,-2.0333,2.4400,-0.0960,2.3478,4.1375,-2.3942,35.4000,1.3200,20.7000,
8.050760,-2.0333,2.4400,-0.0960,1.7156,3.0626,-1.6799,35.4000,1.3200,20.7000,
8.071400,-2.0333,2.4400,-0.0960,1.2815,2.4293,-0.9348,35.4000,1.3200,20.7000,
8.087898,-2.0333,2.4400,-0.0960,1.2815,2.4293,-0.9348,30.6000,4.8600,26.5800,
8.091397,-2.0333,2.4400,-0.0960,1.8956,1.7433,-0.7334,30.6000,4.8600,26.5800,
8.100175,-2.0333,2.4400,-0.0960,1.8956,1.7433,-0.7334,30.6000,4.8600,26.5800,
8.101168,-0.3555,0.5706,0.5107,1.8956,1.7433,-0.7334,30.6000,4.8600,26.5800,
8.111779,-0.3555,0.5706,0.5107,2.3606,1.3987,-0.8309,30.6000,4.8600,26.5800,
8.132693,-0.3555,0.5706,0.5107,1.8791,1.2581,-0.7819,30.6000,4.8600,26.5800,
8.150075,-0.3555,0.5706,0.5107,1.8791,1.2581,-0.7819,23.5200,9.7800,32.4600,
8.152441,-0.3555,0.5706,0.5107,0.9875,1.2155,-0.5816,23.5200,9.7800,32.4600,
8.161254,-0.3555,0.5706,0.5107,0.9875,1.2155,-0.5816,23.5200,9.7800,32.4600,
8.162104,-0.0053,1.8848,-0.8507,0.9875,1.2155,-0.5816,23.5200,9.7800,32.4600,
8.173670,-0.0053,1.8848,-0.8507,0.4107,0.7691,-0.5827,23.5200,9.7800,32.4600,
8.194415,-0.0053,1.8848,-0.8507,0.2509,0.3798,-0.6743,23.5200,9.7800,32.4600,
8.210982,-0.0053,1.8848,-0.8507,0.2509,0.3798,-0.6743,17.7600,15.1800,34.8600,
8.214279,-0.0053,1.8848,-0.8507,0.7760,0.4703,-0.7116,17.7600,15.1800,34.8600,
8.222843,-0.0053,1.8848,-0.8507,0.7760,0.4703,-0.7116,17.7600,15.1800,34.8600,
8.223685,1.1224,-0.4804,4.9030,0.7760,0.4703,-0.7116,17.7600,15.1800,34.8600,
8.235063,1.1224,-0.4804,4.9030,1.6975,0.6216,-0.6663,17.7600,15.1800,34.8600,
8.255873,1.1224,-0.4804,4.9030,2.2919,0.6599,-0.5273,17.7600,15.1800,34.8600,
8.272825,1.1224,-0.4804,4.9030,2.2919,0.6599,-0.5273,12.6600,19.0200,35.8800,
8.275730,1.1224,-0.4804,4.9030,2.2658,0.2637,-0.5870,12.6600,19.0200,35.8800,
8.284375,1.1224,-0.4804,4.9030,2.2658,0.2637,-0.5870,12.6600,19.0200,35.8800,
8.285250,1.2632,0.8400,2.7881,2.2658,0.2637,-0.5870,12.6600,19.0200,35.8800,
8.297300,1.2632,0.8400,2.7881,1.8797,-0.0154,-0.6802,12.6600,19.0200,35.8800,
8.317322,1.2632,0.8400,2.7881,1.3832,-0.2205,-0.8336,12.6600,19.0200,35.8800,
8.334551,1.2632,0.8400,2.7881,1.3832,-0.2205,-0.8336,9.1800,22.8600,34.7400,
8.340328,1.2632,0.8400,2.7881,0.7324,0.0410,-0.7563,9.1800,22.8600,34.7400,
8.348158,1.2632,0.8400,2.7881,0.7324,0.0410,-0.7563,9.1800,22.8600,34.7400,
8.349826,-0.6678,-1.0917,-0.7953,0.7324,0.0410,-0.7563,9.1800,22.8600,34.7400,
8.358346,-0.6678,-1.0917,-0.7953,0.0799,-0.1870,-0.5673,9.1800,22.8600,34.7400,
8.379734,-0.6678,-1.0917,-0.7953,-0.2993,-0.6759,-0.3798,9.1800,22.8600,34.7400,
8.396270,-0.6678,-1.0917,-0.7953,-0.2993,-0.6759,-0.3798,7.0200,25.9200,32.9400,
8.400488,-0.6678,-1.0917,-0.7953,-0.5230,-0.8027,-0.2493,7.0200,25.9200,32.9400,
8.407141,-0.6678,-1.0917,-0.7953,-0.5230,-0.8027,-0.2493,7.0200,25.9200,32.9400,
8.408416,-1.7749,-0.7829,0.9720,-0.5230,-0.8027,-0.2493,7.0200,25.9200,32.9400,
8.419733,-1.7749,-0.7829,0.9720,-0.6669,-0.5273,-0.1593,7.0200,25.9200,32.9400,
8.440801,-1.7749,-0.7829,0.9720,-0.4698,-0.2551,-0.1433,7.0200,25.9200,32.9400,
8.457797,-1.7749,-0.7829,0.9720,-0.4698,-0.2551,-0.1433,5.5200,27.7200,31.6800,
8.460685,-1.7749,-0.7829,0.9720,0.0533,-0.4155,-0.1651,5.5200,27.7200,31.6800,
8.469918,-1.7749,-0.7829,0.9720,0.0533,-0.4155,-0.1651,5.5200,27.7200,31.6800,
8.471462,-0.1681,0.1550,2.0545,0.0533,-0.4155,-0.1651,5.5200,27.7200,31.6800,
8.482557,-0.1681,0.1550,2.0545,0.4469,-0.4282,-0.2242,5.5200,27.7200,31.6800,
8.502354,-0.1681,0.1550,2.0545,0.5369,-0.1800,-0.1827,5.5200,27.7200,31.6800,
8.518907,-0.1681,0.1550,2.0545,0.5369,-0.1800,-0.1827,4.5000,29.4000,30.4200,
8.523142,-0.1681,0.1550,2.0545,0.6333,-0.0075,-0.2232,4.5000,29.4000,30.4200,
8.532313,-0.1681,0.1550,2.0545,0.6333,-0.0075,-0.2232,4.5000,29.4000,30.4200,
8.534039,0.3550,0.7383,0.7741,0.6333,-0.0075,-0.2232,4.5000,29.4000,30.4200,
8.543200,0.3550,0.7383,0.7741,0.8048,0.0091,-0.3249,4.5000,29.4000,30.4200,
8.563683,0.3550,0.7383,0.7741,0.9028,-0.2855,-0.2967,4.5000,29.4000,30.4200,
8.580019,0.3550,0.7383,0.7741,0.9028,-0.2855,-0.2967,4.0200,29.7600,29.7000,
8.584378,0.3550,0.7383,0.7741,0.7468,-0.3744,-0.2376,4.0200,29.7600,29.7000,
8.592671,0.3550,0.7383,0.7741,0.7468,-0.3744,-0.2376,4.0200,29.7600,29.7000,
8.594480,0.6695,1.4028,-1.1211,0.7468,-0.3744,-0.2376,4.0200,29.7600,29.7000,
8.604934,0.6695,1.4028,-1.1211,0.5673,-0.3388,-0.2455,4.0200,29.7600,29.7000,
8.625218,0.6695,1.4028,-1.1211,0.3899,-0.0889,-0.3265,4.0200,29.7600,29.7000,
8.642381,0.6695,1.4028,-1.1211,0.3899,-0.0889,-0.3265,4.0800,29.7600,28.8600,
8.645635,0.6695,1.4028,-1.1211,0.1843,0.1001,-0.4416,4.0800,29.7600,28.8600,
8.653960,0.6695,1.4028,-1.1211,0.1843,0.1001,-0.4416,4.0800,29.7600,28.8600,
8.655310,1.4052,0.5685,-0.6632,0.1843,0.1001,-0.4416,4.0800,29.7600,28.8600,
8.665789,1.4052,0.5685,-0.6632,0.0080,0.1747,-0.5587,4.0800,29.7600,28.8600,
8.686286,1.4052,0.5685,-0.6632,-0.0698,0.3963,-0.6642,4.0800,29.7600,28.8600,
8.703385,1.4052,0.5685,-0.6632,-0.0698,0.3963,-0.6642,4.1400,30.3600,27.7800,
8.706719,1.4052,0.5685,-0.6632,-0.0858,0.6615,-0.7318,4.1400,30.3600,27.7800,
8.715761,1.4052,0.5685,-0.6632,-0.0858,0.6615,-0.7318,4.1400,30.3600,27.7800,
8.717182,0.4974,-0.6847,0.8285,-0.0858,0.6615,-0.7318,4.1400,30.3600,27.7800,
8.727163,0.4974,-0.6847,0.8285,-0.0373,1.0631,-0.8693,4.1400,30.3600,27.7800,
8.749211,0.4974,-0.6847,0.8285,0.0245,1.5638,-0.9795,4.1400,30.3600,27.7800,
8.764724,0.4974,-0.6847,0.8285,0.0245,1.5638,-0.9795,3.6600,31.1400,26.5800,
8.768039,0.4974,-0.6847,0.8285,0.2381,1.6522,-0.7547,3.6600,31.1400,26.5800,
8.776879,0.4974,-0.6847,0.8285,0.2381,1.6522,-0.7547,3.6600,31.1400,26.5800,
8.778464,-1.0910,-1.5310,4.6343,0.2381,1.6522,-0.7547,3.6600,31.1400,26.5800,
8.788430,-1.0910,-1.5310,4.6343,0.6780,1.1372,-0.4538,3.6600,31.1400,26.5800,
8.810113,-1.0910,-1.5310,4.6343,1.2336,0.6440,-0.3073,3.6600,31.1400,26.5800,
8.827342,-1.0910,-1.5310,4.6343,1.2336,0.6440,-0.3073,2.3400,32.1600,25.9200,
8.831987,-1.0910,-1.5310,4.6343,1.6895,0.3654,-0.0027,2.3400,32.1600,25.9200,
8.840950,-1.0910,-1.5310,4.6343,1.6895,0.3654,-0.0027,2.3400,32.1600,25.9200,
8.842526,-0.8913,-1.2687,0.6829,1.6895,0.3654,-0.0027,2.3400,32.1600,25.9200,
8.851165,-0.8913,-1.2687,0.6829,1.5223,0.1917,0.2759,2.3400,32.1600,25.9200,
8.871618,-0.8913,-1.2687,0.6829,1.1420,-0.0091,0.2605,2.3400,32.1600,25.9200,
8.888984,-0.8913,-1.2687,0.6829,1.1420,-0.0091,0.2605,0.9000,33.3600,25.5600,
8.891587,-0.8913,-1.2687,0.6829,0.6988,-0.1960,0.0117,0.9000,33.3600,25.5600,
8.900470,-0.8913,-1.2687,0.6829,0.6988,-0.1960,0.0117,0.9000,33.3600,25.5600,
8.902099,4.1496,-0.9844,-0.6754,0.6988,-0.1960,0.0117,0.9000,33.3600,25.5600,
8.912149,4.1496,-0.9844,-0.6754,0.4847,-0.3750,-0.3803,0.9000,33.3600,25.5600,
8.933581,4.1496,-0.9844,-0.6754,0.3718,-0.3031,-0.6136,0.9000,33.3600,25.5600,
8.949953,4.1496,-0.9844,-0.6754,0.3718,-0.3031,-0.6136,-0.9600,34.2000,24.3600,
8.953201,4.1496,-0.9844,-0.6754,0.0170,0.0138,-0.8213,-0.9600,34.2000,24.3600,
8.961577,4.1496,-0.9844,-0.6754,0.0170,0.0138,-0.8213,-0.9600,34.2000,24.3600,
8.963001,1.4523,-0.6358,-1.5928,0.0170,0.0138,-0.8213,-0.9600,34.2000,24.3600,
8.973679,1.4523,-0.6358,-1.5928,-0.5912,0.1779,-0.9060,-0.9600,34.2000,24.3600,
8.995586,1.4523,-0.6358,-1.5928,-1.0013,0.0874,-0.7798,-0.9600,34.2000,24.3600,
9.012119,1.4523,-0.6358,-1.5928,-1.0013,0.0874,-0.7798,-2.1600,35.0400,23.3400,
9.015437,1.4523,-0.6358,-1.5928,-1.0067,-0.0016,-0.5593,-2.1600,35.0400,23.3400,
9.024732,1.4523,-0.6358,-1.5928,-1.0067,-0.0016,-0.5593,-2.1600,35.0400,23.3400,
9.026334,-0.8441,-1.2055,1.6048,-1.0067,-0.0016,-0.5593,-2.1600,35.0400,23.3400,
9.035834,-0.8441,-1.2055,1.6048,-0.5710,0.0810,-0.5332,-2.1600,35.0400,23.3400,
9.056512,-0.8441,-1.2055,1.6048,-0.0112,0.3776,-0.7590,-2.1600,35.0400,23.3400,
9.073335,-0.8441,-1.2055,1.6048,-0.0112,0.3776,-0.7590,-3.3000,35.5200,22.5000,
9.075866,-0.8441,-1.2055,1.6048,0.1262,0.5582,-0.8666,-3.3000,35.5200,22.5000,
9.084700,-0.8441,-1.2055,1.6048,0.1262,0.5582,-0.8666,-3.3000,35.5200,22.5000,
9.086231,-1.9045,0.3454,0.0398,0.1262,0.5582,-0.8666,-3.3000,35.5200,22.5000,
9.097176,-1.9045,0.3454,0.0398,-0.1060,0.7382,-0.6999,-3.3000,35.5200,22.5000,
9.117646,-1.9045,0.3454,0.0398,-0.3750,0.5886,-0.4304,-3.3000,35.5200,22.5000,
9.135083,-1.9045,0.3454,0.0398,-0.3750,0.5886,-0.4304,-4.3800,35.3400,22.4400,
9.138155,-1.9045,0.3454,0.0398,-0.1933,0.0458,-0.2679,-4.3800,35.3400,22.4400,
9.147192,-1.9045,0.3454,0.0398,-0.1933,0.0458,-0.2679,-4.3800,35.3400,22.4400,
9.148848,-0.3303,-0.0261,1.8655,-0.1933,0.0458,-0.2679,-4.3800,35.3400,22.4400,
9.158848,-0.3303,-0.0261,1.8655,0.2679,-0.1736,-0.2381,-4.3800,35.3400,22.4400,
9.179077,-0.3303,-0.0261,1.8655,0.3281,0.4458,-0.4687,-4.3800,35.3400,22.4400,
9.195861,-0.3303,-0.0261,1.8655,0.3281,0.4458,-0.4687,-6.1200,34.5600,23.4600,
9.200218,-0.3303,-0.0261,1.8655,-0.0282,0.8549,-0.6615,-6.1200,34.5600,23.4600,
9.208232,-0.3303,-0.0261,1.8655,-0.0282,0.8549,-0.6615,-6.1200,34.5600,23.4600,
9.210064,-0.7989,1.9177,0.3576,-0.0282,0.8549,-0.6615,-6.1200,34.5600,23.4600,
9.220014,-0.7989,1.9177,0.3576,-0.3478,0.3846,-0.3920,-6.1200,34.5600,23.4600,
9.240426,-0.7989,1.9177,0.3576,-0.3435,-0.4650,0.1955,-6.1200,34.5600,23.4600,
9.257766,-0.7989,1.9177,0.3576,-0.3435,-0.4650,0.1955,-8.0400,34.2600,24.0600,
9.261643,-0.7989,1.9177,0.3576,-0.1795,-1.1095,0.5577,-8.0400,34.2600,24.0600,
9.269672,-0.7989,1.9177,0.3576,-0.1795,-1.1095,0.5577,-8.0400,34.2600,24.0600,
9.271432,1.0609,0.9024,-0.3222,-0.1795,-1.1095,0.5577,-8.0400,34.2600,24.0600,
9.281586,1.0609,0.9024,-0.3222,-0.1875,-0.9417,0.2722,-8.0400,34.2600,24.0600,
9.302459,1.0609,0.9024,-0.3222,-0.3622,-0.4261,-0.0549,-8.0400,34.2600,24.0600,
9.318869,1.0609,0.9024,-0.3222,-0.3622,-0.4261,-0.0549,-8.8800,33.7200,24.1800,
9.323008,1.0609,0.9024,-0.3222,-0.6408,-0.1225,-0.0336,-8.8800,33.7200,24.1800,
9.332488,1.0609,0.9024,-0.3222,-0.6408,-0.1225,-0.0336,-8.8800,33.7200,24.1800,
9.334092,-0.4487,0.2313,-1.1196,-0.6408,-0.1225,-0.0336,-8.8800,33.7200,24.1800,
9.343423,-0.4487,0.2313,-1.1196,-0.9566,-0.2690,0.1257,-8.8800,33.7200,24.1800,
9.364130,-0.4487,0.2313,-1.1196,-1.1835,-0.4810,0.1923,-8.8800,33.7200,24.1800,
9.380025,-0.4487,0.2313,-1.1196,-1.1835,-0.4810,0.1923,-9.2400,33.5400,24.8400,
9.383913,-0.4487,0.2313,-1.1196,-0.8368,-0.4229,0.1268,-9.2400,33.5400,24.8400,
9.392287,-0.4487,0.2313,-1.1196,-0.8368,-0.4229,0.1268,-9.2400,33.5400,24.8400,
9.393964,0.9279,0.0854,1.9241,-0.8368,-0.4229,0.1268,-9.2400,33.5400,24.8400,
9.405389,0.9279,0.0854,1.9241,-0.2663,-0.1385,0.0027,-9.2400,33.5400,24.8400,
9.425639,0.9279,0.0854,1.9241,-0.0085,-0.0549,-0.0889,-9.2400,33.5400,24.8400,
9.442790,0.9279,0.0854,1.9241,-0.0085,-0.0549,-0.0889,-8.5800,33.2400,25.4400,
9.445432,0.9279,0.0854,1.9241,0.0043,-0.1550,-0.0815,-8.5800,33.2400,25.4400,
9.454827,0.9279,0.0854,1.9241,0.0043,-0.1550,-0.0815,-8.5800,33.2400,25.4400,
9.456524,0.5105,-0.1047,-0.1062,0.0043,-0.1550,-0.0815,-8.5800,33.2400,25.4400,
9.466186,0.5105,-0.1047,-0.1062,0.0064,-0.1225,0.0154,-8.5800,33.2400,25.4400,
9.487026,0.5105,-0.1047,-0.1062,0.2200,-0.3270,0.0644,-8.5800,33.2400,25.4400,
9.504107,0.5105,-0.1047,-0.1062,0.2200,-0.3270,0.0644,-7.5600,32.5800,26.5200,
9.507045,0.5105,-0.1047,-0.1062,0.3089,-0.3638,0.0107,-7.5600,32.5800,26.5200,
9.515647,0.5105,-0.1047,-0.1062,0.3089,-0.3638,0.0107,-7.5600,32.5800,26.5200,
9.517261,1.8328,-1.0654,-0.5136,0.3089,-0.3638,0.0107,-7.5600,32.5800,26.5200,
9.527632,1.8328,-1.0654,-0.5136,0.1459,-0.3159,-0.0671,-7.5600,32.5800,26.5200,
9.554013,1.8328,-1.0654,-0.5136,-0.0900,-0.3478,-0.0559,-7.5600,32.5800,26.5200,
9.566147,1.8328,-1.0654,-0.5136,-0.0900,-0.3478,-0.0559,-7.6200,31.9800,27.8400,
9.568450,1.8328,-1.0654,-0.5136,-0.1177,-0.4911,0.0447,-7.6200,31.9800,27.8400,
9.577893,1.8328,-1.0654,-0.5136,-0.1177,-0.4911,0.0447,-7.6200,31.9800,27.8400,
9.579692,1.8043,-1.1317,1.8222,-0.1177,-0.4911,0.0447,-7.6200,31.9800,27.8400,
9.588626,1.8043,-1.1317,1.8222,0.1843,-0.7537,0.0788,-7.6200,31.9800,27.8400,
9.611494,1.8043,-1.1317,1.8222,0.6216,-0.8357,-0.0245,-7.6200,31.9800,27.8400,
9.627291,1.8043,-1.1317,1.8222,0.6216,-0.8357,-0.0245,-7.2600,31.2600,28.3800,
9.631886,1.8043,-1.1317,1.8222,0.6626,-0.7217,-0.1364,-7.2600,31.2600,28.3800,
9.638156,1.8043,-1.1317,1.8222,0.6626,-0.7217,-0.1364,-7.2600,31.2600,28.3800,
9.638637,1.3654,-0.8566,-0.4322,0.6626,-0.7217,-0.1364,-7.2600,31.2600,28.3800,
9.650969,1.3654,-0.8566,-0.4322,0.3606,-0.6850,-0.0389,-7.2600,31.2600,28.3800,
9.672352,1.3654,-0.8566,-0.4322,0.0346,-0.7979,0.2258,-7.2600,31.2600,28.3800,
9.688055,1.3654,-0.8566,-0.4322,0.0346,-0.7979,0.2258,-6.9000,31.3800,28.2000,
9.691552,1.3654,-0.8566,-0.4322,-0.0565,-1.0322,0.5662,-6.9000,31.3800,28.2000,
9.699848,1.3654,-0.8566,-0.4322,-0.0565,-1.0322,0.5662,-6.9000,31.3800,28.2000,
9.701283,-0.6152,0.2581,1.3684,-0.0565,-1.0322,0.5662,-6.9000,31.3800,28.2000,
9.712711,-0.6152,0.2581,1.3684,0.1465,-1.0855,0.9001,-6.9000,31.3800,28.2000,
9.733002,-0.6152,0.2581,1.3684,0.5422,-0.9651,1.0828,-6.9000,31.3800,28.2000,
9.750906,-0.6152,0.2581,1.3684,0.5422,-0.9651,1.0828,-6.6000,31.5000,27.9600,
9.753601,-0.6152,0.2581,1.3684,0.9092,-0.8655,0.9017,-6.6000,31.5000,27.9600,
9.761844,-0.6152,0.2581,1.3684,0.9092,-0.8655,0.9017,-6.6000,31.5000,27.9600,
9.763320,2.1199,-2.0180,0.4944,0.9092,-0.8655,0.9017,-6.6000,31.5000,27.9600,
9.774285,2.1199,-2.0180,0.4944,0.9587,-0.6072,0.5475,-6.6000,31.5000,27.9600,
9.794758,2.1199,-2.0180,0.4944,0.7830,-0.3254,0.3925,-6.6000,31.5000,27.9600,
9.812073,2.1199,-2.0180,0.4944,0.7830,-0.3254,0.3925,-4.3800,31.6200,27.5400,
9.814968,2.1199,-2.0180,0.4944,0.5321,-0.0895,0.6328,-4.3800,31.6200,27.5400,
9.825673,2.1199,-2.0180,0.4944,0.5321,-0.0895,0.6328,-4.3800,31.6200,27.5400,
9.827355,-1.1991,0.0927,-0.2579,0.5321,-0.0895,0.6328,-4.3800,31.6200,27.5400,
9.835209,-1.1991,0.0927,-0.2579,0.3127,-0.0650,0.9726,-4.3800,31.6200,27.5400,
9.856780,-1.1991,0.0927,-0.2579,0.2780,-0.2605,1.1670,-4.3800,31.6200,27.5400,
9.873521,-1.1991,0.0927,-0.2579,0.2780,-0.2605,1.1670,-2.2200,31.9200,26.5800,
9.876818,-1.1991,0.0927,-0.2579,0.4293,-0.4932,1.2528,-2.2200,31.9200,26.5800,
9.884742,-1.1991,0.0927,-0.2579,0.4293,-0.4932,1.2528,-2.2200,31.9200,26.5800,
9.886491,0.8135,-1.1573,1.2539,0.4293,-0.4932,1.2528,-2.2200,31.9200,26.5800,
9.897043,0.8135,-1.1573,1.2539,0.6104,-0.6541,1.2693,-2.2200,31.9200,26.5800,
9.917642,0.8135,-1.1573,1.2539,0.7707,-0.7920,1.3465,-2.2200,31.9200,26.5800,
9.935160,0.8135,-1.1573,1.2539,0.7707,-0.7920,1.3465,0.2400,31.9800,25.6200,
9.938326,0.8135,-1.1573,1.2539,0.8634,-0.6770,1.4275,0.2400,31.9800,25.6200,
9.947748,0.8135,-1.1573,1.2539,0.8634,-0.6770,1.4275,0.2400,31.9800,25.6200,
9.949410,0.5958,-0.7771,0.3094,0.8634,-0.6770,1.4275,0.2400,31.9800,25.6200,
9.958477,0.5958,-0.7771,0.3094,0.8400,-0.5172,1.4147,0.2400,31.9800,25.6200,
9.980071,0.5958,-0.7771,0.3094,0.7723,-0.6301,1.4120,0.2400,31.9800,25.6200,
9.996217,0.5958,-0.7771,0.3094,0.7723,-0.6301,1.4120,4.0200,32.3400,24.6600,
9.999812,0.5958,-0.7771,0.3094,0.8586,-0.9316,1.4195,4.0200,32.3400,24.6600,
10.008108,0.5958,-0.7771,0.3094,0.8586,-0.9316,1.4195,4.0200,32.3400,24.6600,
10.009567,0.4871,-1.1592,0.5483,0.8586,-0.9316,1.4195,4.0200,32.3400,24.6600,
10.019993,0.4871,-1.1592,0.5483,0.9939,-1.3577,1.4839,4.0200,32.3400,24.6600,
10.041602,0.4871,-1.1592,0.5483,0.8495,-1.7183,1.8067,4.0200,32.3400,24.6600,
10.058958,0.4871,-1.1592,0.5483,0.8495,-1.7183,1.8067,7.2000,32.9400,23.2200,
10.061695,0.4871,-1.1592,0.5483,0.5529,-1.7295,2.0421,7.2000,32.9400,23.2200,
10.070201,0.4871,-1.1592,0.5483,0.5529,-1.7295,2.0421,7.2000,32.9400,23.2200,
10.071515,-0.1983,-0.1076,-2.0364,0.5529,-1.7295,2.0421,7.2000,32.9400,23.2200,
10.081924,-0.1983,-0.1076,-2.0364,0.2855,-1.5073,1.9148,7.2000,32.9400,23.2200,
10.102306,-0.1983,-0.1076,-2.0364,-0.0043,-1.4370,1.6783,7.2000,32.9400,23.2200,
10.120943,-0.1983,-0.1076,-2.0364,-0.0043,-1.4370,1.6783,11.2200,33.4800,21.0000,
10.123103,-0.1983,-0.1076,-2.0364,-0.3931,-1.5058,1.5228,11.2200,33.4800,21.0000,
10.132316,-0.1983,-0.1076,-2.0364,-0.3931,-1.5058,1.5228,11.2200,33.4800,21.0000,
10.134065,0.6381,0.0949,-1.7215,-0.3931,-1.5058,1.5228,11.2200,33.4800,21.0000,
10.143186,0.6381,0.0949,-1.7215,-0.5475,-1.1766,1.2613,11.2200,33.4800,21.0000,
10.164570,0.6381,0.0949,-1.7215,-0.6807,-1.1313,1.2938,11.2200,33.4800,21.0000,
10.180577,0.6381,0.0949,-1.7215,-0.6807,-1.1313,1.2938,15.9000,32.8800,18.6000,
10.183940,0.6381,0.0949,-1.7215,-0.5965,-1.2741,1.3550,15.9000,32.8800,18.6000,
10.192575,0.6381,0.0949,-1.7215,-0.5965,-1.2741,1.3550,15.9000,32.8800,18.6000,
10.194294,-0.0159,0.5697,-0.0119,-0.5965,-1.2741,1.3550,15.9000,32.8800,18.6000,
10.205631,-0.0159,0.5697,-0.0119,-0.5113,-1.4381,1.6139,15.9000,32.8800,18.6000,
10.225481,-0.0159,0.5697,-0.0119,-0.9571,-1.2362,2.0480,15.9000,32.8800,18.6000,
10.242527,-0.0159,0.5697,-0.0119,-0.9571,-1.2362,2.0480,19.8000,31.8000,16.4400,
10.245682,-0.0159,0.5697,-0.0119,-1.5755,0.5502,1.1489,19.8000,31.8000,16.4400,
10.254528,-0.0159,0.5697,-0.0119,-1.5755,0.5502,1.1489,19.8000,31.8000,16.4400,
10.256095,10.8199,5.4780,11.3740,-1.5755,0.5502,1.1489,19.8000,31.8000,16.4400,
10.266318,10.8199,5.4780,11.3740,0.2418,-0.2690,-0.3478,19.8000,31.8000,16.4400,
10.287247,10.8199,5.4780,11.3740,1.4930,-2.4395,-0.2786,19.8000,31.8000,16.4400,
10.303846,10.8199,5.4780,11.3740,1.4930,-2.4395,-0.2786,24.1800,29.4600,14.7000,
10.306550,10.8199,5.4780,11.3740,2.5066,-4.6232,0.0655,24.1800,29.4600,14.7000,
10.315850,10.8199,5.4780,11.3740,2.5066,-4.6232,0.0655,24.1800,29.4600,14.7000,
10.317544,-3.2823,-0.4615,-0.4219,2.5066,-4.6232,0.0655,24.1800,29.4600,14.7000,
10.327615,-3.2823,-0.4615,-0.4219,3.3284,-5.0291,-0.0096,24.1800,29.4600,14.7000,
10.351010,-3.2823,-0.4615,-0.4219,3.7385,-4.1705,-0.4117,24.1800,29.4600,14.7000,
10.366416,-3.2823,-0.4615,-0.4219,3.7385,-4.1705,-0.4117,27.5400,27.4800,13.3800,
10.370067,-3.2823,-0.4615,-0.4219,3.6432,-3.5276,-0.9625,27.5400,27.4800,13.3800,
10.376973,-3.2823,-0.4615,-0.4219,3.6432,-3.5276,-0.9625,27.5400,27.4800,13.3800,
10.378680,-0.3551,-1.1116,-0.1399,3.6432,-3.5276,-0.9625,27.5400,27.4800,13.3800,
10.389973,-0.3551,-1.1116,-0.1399,2.4528,-3.3045,-0.7302,27.5400,27.4800,13.3800,
10.409724,-0.3551,-1.1116,-0.1399,0.9481,-1.5308,-0.1198,27.5400,27.4800,13.3800,
10.427430,-0.3551,-1.1116,-0.1399,0.9481,-1.5308,-0.1198,29.5200,26.5800,8.0400,
10.431015,-0.3551,-1.1116,-0.1399,0.4277,-1.2261,0.0394,29.5200,26.5800,8.0400,
10.440117,-0.3551,-1.1116,-0.1399,0.4277,-1.2261,0.0394,29.5200,26.5800,8.0400,
10.441723,-0.6775,0.9172,-1.6619,0.4277,-1.2261,0.0394,29.5200,26.5800,8.0400,
10.451094,-0.6775,0.9172,-1.6619,-0.1870,-1.2874,0.3665,29.5200,26.5800,8.0400,
10.472646,-0.6775,0.9172,-1.6619,-0.4836,-1.3161,0.4416,29.5200,26.5800,8.0400,
10.488294,-0.6775,0.9172,-1.6619,-0.4836,-1.3161,0.4416,29.8200,25.9200,1.5600,
10.491901,-0.6775,0.9172,-1.6619,-0.5832,-1.1979,0.1614,29.8200,25.9200,1.5600,
10.499911,-0.6775,0.9172,-1.6619,-0.5832,-1.1979,0.1614,29.8200,25.9200,1.5600,
10.501478,1.8160,-0.5630,0.3300,-0.5832,-1.1979,0.1614,29.8200,25.9200,1.5600,
10.512800,1.8160,-0.5630,0.3300,-0.5204,-0.7670,-0.2589,29.8200,25.9200,1.5600,
10.533933,1.8160,-0.5630,0.3300,-0.4959,-0.7878,-0.4155,29.8200,25.9200,1.5600,
10.550460,1.8160,-0.5630,0.3300,-0.4959,-0.7878,-0.4155,29.1600,26.2200,-5.7600,
10.553909,1.8160,-0.5630,0.3300,-0.4208,-0.9955,-0.4250,29.1600,26.2200,-5.7600,
10.562545,1.8160,-0.5630,0.3300,-0.4208,-0.9955,-0.4250,29.1600,26.2200,-5.7600,
10.564186,0.9391,0.2234,0.4357,-0.4208,-0.9955,-0.4250,29.1600,26.2200,-5.7600,
10.574328,0.9391,0.2234,0.4357,-0.2748,-0.8634,-0.4192,29.1600,26.2200,-5.7600,
10.595416,0.9391,0.2234,0.4357,-0.0964,-0.5928,-0.4442,29.1600,26.2200,-5.7600,
10.611811,0.9391,0.2234,0.4357,-0.0964,-0.5928,-0.4442,27.7800,26.7000,-13.1400,
10.614749,0.9391,0.2234,0.4357,-0.0352,-0.4682,-0.4234,27.7800,26.7000,-13.1400,
10.623888,0.9391,0.2234,0.4357,-0.0352,-0.4682,-0.4234,27.7800,26.7000,-13.1400,
10.625700,0.1803,0.5642,-0.4865,-0.0352,-0.4682,-0.4234,27.7800,26.7000,-13.1400,
10.635501,0.1803,0.5642,-0.4865,-0.0858,-0.3473,-0.3292,27.7800,26.7000,-13.1400,
10.656910,0.1803,0.5642,-0.4865,-0.0719,-0.2184,-0.2695,27.7800,26.7000,-13.1400,
10.673670,0.1803,0.5642,-0.4865,-0.0719,-0.2184,-0.2695,26.1600,26.8800,-15.4800,
10.676838,0.1803,0.5642,-0.4865,-0.0272,-0.1555,-0.2466,26.1600,26.8800,-15.4800,
10.684955,0.1803,0.5642,-0.4865,-0.0272,-0.1555,-0.2466,26.1600,26.8800,-15.4800,
10.686751,0.3818,0.3086,0.2891,-0.0272,-0.1555,-0.2466,26.1600,26.8800,-15.4800,
10.698020,0.3818,0.3086,0.2891,0.0192,-0.1119,-0.1715,26.1600,26.8800,-15.4800,
10.718608,0.3818,0.3086,0.2891,0.0399,-0.0511,-0.1289,26.1600,26.8800,-15.4800,
10.734769,0.3818,0.3086,0.2891,0.0399,-0.0511,-0.1289,25.3200,27.6600,-16.9800,
10.739304,0.3818,0.3086,0.2891,0.0069,-0.0746,-0.1470,25.3200,27.6600,-16.9800,
10.747899,0.3818,0.3086,0.2891,0.0069,-0.0746,-0.1470,25.3200,27.6600,-16.9800,
10.749777,-0.0691,-0.1429,-0.1825,0.0069,-0.0746,-0.1470,25.3200,27.6600,-16.9800,
10.758357,-0.0691,-0.1429,-0.1825,0.1135,-0.0399,-0.1486,25.3200,27.6600,-16.9800,
10.778431,-0.0691,-0.1429,-0.1825,0.0884,-0.1001,-0.1321,25.3200,27.6600,-16.9800,
10.795659,-0.0691,-0.1429,-0.1825,0.0884,-0.1001,-0.1321,24.0000,28.6200,-18.1200,
10.798754,-0.0691,-0.1429,-0.1825,-0.0463,-0.1672,-0.0788,24.0000,28.6200,-18.1200,
10.808679,-0.0691,-0.1429,-0.1825,-0.0463,-0.1672,-0.0788,24.0000,28.6200,-18.1200,
10.809556,0.1038,-0.0928,0.6466,-0.0463,-0.1672,-0.0788,24.0000,28.6200,-18.1200,
10.819679,0.1038,-0.0928,0.6466,-0.1497,-0.4549,-0.1092,24.0000,28.6200,-18.1200,
10.840049,0.1038,-0.0928,0.6466,-0.2418,-0.6610,-0.0788,24.0000,28.6200,-18.1200,
10.859170,0.1038,-0.0928,0.6466,-0.2418,-0.6610,-0.0788,23.2200,28.7400,-17.8200,
10.860566,0.1038,-0.0928,0.6466,-0.2162,-0.3728,-0.0320,23.2200,28.7400,-17.8200,
