
time,ax,ay,az,wx,wy,wz,Bx,By,Bz,
0.020174,0.0000,0.0000,0.0000,0.0804,-0.0192,0.0011,0.0000,0.0000,0.0000,
0.039378,0.0000,0.0000,0.0000,0.0804,-0.0192,0.0011,0.0000,0.0000,0.0000,
0.039960,0.0000,0.0000,0.0000,0.0804,-0.0192,0.0011,0.0000,0.0000,0.0000,
0.043789,0.0000,0.0000,0.0000,0.0804,-0.0192,0.0011,-3.4200,-44.6400,-6.6000,
0.059881,0.0000,0.0000,0.0000,0.0804,-0.0192,0.0011,-3.4200,-44.6400,-6.6000,
0.080215,0.0000,0.0000,0.0000,-0.2653,-0.3957,-0.4730,-3.4200,-44.6400,-6.6000,
0.100992,0.0000,0.0000,0.0000,-0.2653,-0.3957,-0.4730,-3.4200,-44.6400,-6.6000,
0.101451,0.0000,0.0000,0.0000,-0.0953,-0.0117,-0.4314,-3.4200,-44.6400,-6.6000,
0.102028,-0.0512,-0.0516,0.0053,-0.0953,-0.0117,-0.4314,-3.4200,-44.6400,-6.6000,
0.105670,-0.0512,-0.0516,0.0053,-0.0953,-0.0117,-0.4314,18.6600,-33.1800,-6.1200,
0.121396,-0.0512,-0.0516,0.0053,-0.0240,0.2083,-0.2589,18.6600,-33.1800,-6.1200,
0.141917,-0.0512,-0.0516,0.0053,-0.0511,0.1481,-0.0975,18.6600,-33.1800,-6.1200,
0.162258,-0.0512,-0.0516,0.0053,-0.0511,0.1481,-0.0975,18.6600,-33.1800,-6.1200,
0.162601,-0.0512,-0.0516,0.0053,-0.0655,-0.1017,0.0112,18.6600,-33.1800,-6.1200,
0.162891,0.1401,0.1249,0.4958,-0.0655,-0.1017,0.0112,18.6600,-33.1800,-6.1200,
0.166820,0.1401,0.1249,0.4958,-0.0655,-0.1017,0.0112,30.0000,-27.2400,-6.6600,
0.182862,0.1401,0.1249,0.4958,-0.0991,-0.2913,-0.0181,30.0000,-27.2400,-6.6600,
0.203371,0.1401,0.1249,0.4958,-0.1965,-0.4447,-0.0794,30.0000,-27.2400,-6.6600,
0.224073,0.1401,0.1249,0.4958,-0.1965,-0.4447,-0.0794,30.0000,-27.2400,-6.6600,
0.224522,0.1401,0.1249,0.4958,-0.0357,-0.0826,-0.0842,30.0000,-27.2400,-6.6600,
0.224950,-0.1452,0.1516,-0.1662,-0.0357,-0.0826,-0.0842,30.0000,-27.2400,-6.6600,
0.228453,-0.1452,0.1516,-0.1662,-0.0357,-0.0826,-0.0842,40.6800,-21.4200,-7.3800,
0.244427,-0.1452,0.1516,-0.1662,0.1294,0.3180,-0.0091,40.6800,-21.4200,-7.3800,
0.265031,-0.1452,0.1516,-0.1662,0.1001,0.3121,-0.0080,40.6800,-21.4200,-7.3800,
0.285682,-0.1452,0.1516,-0.1662,0.1001,0.3121,-0.0080,40.6800,-21.4200,-7.3800,
0.286166,0.1245,-0.3749,0.3485,0.1001,0.3121,-0.0080,40.6800,-21.4200,-7.3800,
0.286715,0.1245,-0.3749,0.3485,-0.0543,-0.1060,-0.0794,40.6800,-21.4200,-7.3800,
0.290698,0.1245,-0.3749,0.3485,-0.0543,-0.1060,-0.0794,40.8600,-21.0600,-7.9800,
0.305904,0.1245,-0.3749,0.3485,-0.1076,-0.3036,-0.1156,40.8600,-21.0600,-7.9800,
0.326567,0.1245,-0.3749,0.3485,0.0341,0.1609,-0.1395,40.8600,-21.0600,-7.9800,
0.347023,0.1245,-0.3749,0.3485,0.0341,0.1609,-0.1395,40.8600,-21.0600,-7.9800,
0.347405,0.1245,-0.3749,0.3485,0.2178,0.5976,0.0421,40.8600,-21.0600,-7.9800,
0.347700,0.3854,0.2472,-0.6784,0.2178,0.5976,0.0421,40.8600,-21.0600,-7.9800,
0.351823,0.3854,0.2472,-0.6784,0.2178,0.5976,0.0421,41.1600,-20.7600,-8.8200,
0.367470,0.3854,0.2472,-0.6784,0.3382,0.4517,0.1385,41.1600,-20.7600,-8.8200,
0.388130,0.3854,0.2472,-0.6784,0.2162,0.0352,0.1715,41.1600,-20.7600,-8.8200,
0.408566,0.3854,0.2472,-0.6784,0.2162,0.0352,0.1715,41.1600,-20.7600,-8.8200,
0.408981,0.3854,0.2472,-0.6784,0.0298,-0.2498,0.1683,41.1600,-20.7600,-8.8200,
0.409193,-0.3304,0.0292,0.2069,0.0298,-0.2498,0.1683,41.1600,-20.7600,-8.8200,
0.413072,-0.3304,0.0292,0.2069,0.0298,-0.2498,0.1683,41.5200,-20.7600,-8.5200,
0.429077,-0.3304,0.0292,0.2069,0.0059,-0.2993,0.1198,41.5200,-20.7600,-8.5200,
0.449546,-0.3304,0.0292,0.2069,0.1316,-0.0783,0.1513,41.5200,-20.7600,-8.5200,
0.470336,-0.3304,0.0292,0.2069,0.1316,-0.0783,0.1513,41.5200,-20.7600,-8.5200,
0.470667,-0.3304,0.0292,0.2069,0.2924,0.2748,0.2221,41.5200,-20.7600,-8.5200,
0.470859,-0.4257,0.3864,-0.7675,0.2924,0.2748,0.2221,41.5200,-20.7600,-8.5200,
0.474596,-0.4257,0.3864,-0.7675,0.2924,0.2748,0.2221,41.6400,-20.5200,-8.2200,
0.490681,-0.4257,0.3864,-0.7675,0.3499,0.5017,0.2892,41.6400,-20.5200,-8.2200,
0.511365,-0.4257,0.3864,-0.7675,0.2056,0.3617,0.1529,41.6400,-20.5200,-8.2200,
0.531844,-0.4257,0.3864,-0.7675,0.2056,0.3617,0.1529,41.6400,-20.5200,-8.2200,
0.532144,-0.4257,0.3864,-0.7675,-0.0245,0.0788,0.0527,41.6400,-20.5200,-8.2200,
0.532406,0.2891,-0.6469,-0.0337,-0.0245,0.0788,0.0527,41.6400,-20.5200,-8.2200,
0.536371,0.2891,-0.6469,-0.0337,-0.0245,0.0788,0.0527,41.7600,-20.4600,-8.6400,
0.552112,0.2891,-0.6469,-0.0337,-0.1454,-0.0735,0.0362,41.7600,-20.4600,-8.6400,
0.572654,0.2891,-0.6469,-0.0337,-0.1071,-0.1827,0.1012,41.7600,-20.4600,-8.6400,
0.593583,0.2891,-0.6469,-0.0337,-0.1071,-0.1827,0.1012,41.7600,-20.4600,-8.6400,
0.593948,0.2891,-0.6469,-0.0337,0.0202,0.0154,0.0836,41.7600,-20.4600,-8.6400,
0.594222,0.0671,-0.4905,-0.4011,0.0202,0.0154,0.0836,41.7600,-20.4600,-8.6400,
0.597849,0.0671,-0.4905,-0.4011,0.0202,0.0154,0.0836,41.7000,-20.8200,-8.0400,
0.613728,0.0671,-0.4905,-0.4011,-0.0288,0.2578,0.0368,41.7000,-20.8200,-8.0400,
0.634678,0.0671,-0.4905,-0.4011,0.0815,0.3691,0.0479,41.7000,-20.8200,-8.0400,
0.654869,0.0671,-0.4905,-0.4011,0.0815,0.3691,0.0479,41.7000,-20.8200,-8.0400,
0.655276,0.0671,-0.4905,-0.4011,0.2642,0.3089,0.1220,41.7000,-20.8200,-8.0400,
0.655615,-0.4795,1.2689,0.4961,0.2642,0.3089,0.1220,41.7000,-20.8200,-8.0400,
0.659241,-0.4795,1.2689,0.4961,0.2642,0.3089,0.1220,41.1600,-21.0600,-7.8000,
0.675390,-0.4795,1.2689,0.4961,0.4075,0.2770,0.1534,41.1600,-21.0600,-7.8000,
0.695893,-0.4795,1.2689,0.4961,0.4032,0.1768,0.2301,41.1600,-21.0600,-7.8000,
0.716499,-0.4795,1.2689,0.4961,0.4032,0.1768,0.2301,41.1600,-21.0600,-7.8000,
0.717067,-0.4795,1.2689,0.4961,0.4048,0.2141,0.1944,41.1600,-21.0600,-7.8000,
0.717644,-0.5408,0.2832,-0.2250,0.4048,0.2141,0.1944,41.1600,-21.0600,-7.8000,
0.721340,-0.5408,0.2832,-0.2250,0.4048,0.2141,0.1944,40.3200,-21.3600,-7.2600,
0.737142,-0.5408,0.2832,-0.2250,0.2045,0.3116,-0.1129,40.3200,-21.3600,-7.2600,
0.757733,-0.5408,0.2832,-0.2250,-0.1097,0.3862,-0.2844,40.3200,-21.3600,-7.2600,
0.778375,-0.5408,0.2832,-0.2250,-0.1097,0.3862,-0.2844,40.3200,-21.3600,-7.2600,
0.779016,-0.5408,0.2832,-0.2250,-0.3707,-0.0810,-0.2370,40.3200,-21.3600,-7.2600,
0.779691,-0.4696,1.5201,-0.3900,-0.3707,-0.0810,-0.2370,40.3200,-21.3600,-7.2600,
0.782820,-0.4696,1.5201,-0.3900,-0.3707,-0.0810,-0.2370,40.3200,-21.6600,-6.0600,
0.798936,-0.4696,1.5201,-0.3900,-0.1422,-0.1406,-0.0842,40.3200,-21.6600,-6.0600,
0.819482,-0.4696,1.5201,-0.3900,0.1997,0.4043,-0.1316,40.3200,-21.6600,-6.0600,
0.839936,-0.4696,1.5201,-0.3900,0.1997,0.4043,-0.1316,40.3200,-21.6600,-6.0600,
0.840523,-0.4696,1.5201,-0.3900,0.0953,0.5534,-0.4980,40.3200,-21.6600,-6.0600,
0.841248,0.3455,0.1692,-0.8213,0.0953,0.5534,-0.4980,40.3200,-21.6600,-6.0600,
0.844447,0.3455,0.1692,-0.8213,0.0953,0.5534,-0.4980,39.6600,-21.4800,-5.7000,
0.860429,0.3455,0.1692,-0.8213,-0.1150,0.0000,-1.1579,39.6600,-21.4800,-5.7000,
0.881067,0.3455,0.1692,-0.8213,0.0000,0.0368,-1.4211,39.6600,-21.4800,-5.7000,
0.903135,0.3455,0.1692,-0.8213,0.0000,0.0368,-1.4211,39.6600,-21.4800,-5.7000,
0.903792,0.3455,0.1692,-0.8213,0.1278,-0.0831,-1.1819,39.6600,-21.4800,-5.7000,
0.904468,-0.9786,-0.4838,0.3693,0.1278,-0.0831,-1.1819,39.6600,-21.4800,-5.7000,
0.906796,-0.9786,-0.4838,0.3693,0.1278,-0.0831,-1.1819,39.6600,-21.1200,-4.5600,
0.922583,-0.9786,-0.4838,0.3693,0.1619,-0.6125,-0.7590,39.6600,-21.1200,-4.5600,
0.942503,-0.9786,-0.4838,0.3693,-0.0016,-0.5981,-0.8474,39.6600,-21.1200,-4.5600,
0.962706,-0.9786,-0.4838,0.3693,-0.0016,-0.5981,-0.8474,39.6600,-21.1200,-4.5600,
0.963202,1.6256,0.9763,-0.9740,-0.0016,-0.5981,-0.8474,39.6600,-21.1200,-4.5600,
0.963748,1.6256,0.9763,-0.9740,-0.2461,-0.2029,-0.7473,39.6600,-21.1200,-4.5600,
0.967118,1.6256,0.9763,-0.9740,-0.2461,-0.2029,-0.7473,40.5600,-20.5800,-4.2000,
0.983273,1.6256,0.9763,-0.9740,-0.2445,0.1321,-0.4495,40.5600,-20.5800,-4.2000,
1.004593,1.6256,0.9763,-0.9740,-0.2961,-0.0304,-0.4485,40.5600,-20.5800,-4.2000,
1.024681,1.6256,0.9763,-0.9740,-0.2961,-0.0304,-0.4485,40.5600,-20.5800,-4.2000,
1.025335,1.6256,0.9763,-0.9740,-0.4171,-0.4341,-0.4160,40.5600,-20.5800,-4.2000,
1.025860,-0.7648,-0.7892,-0.4809,-0.4171,-0.4341,-0.4160,40.5600,-20.5800,-4.2000,
1.029319,-0.7648,-0.7892,-0.4809,-0.4171,-0.4341,-0.4160,41.5200,-19.0200,-3.9600,
1.044959,-0.7648,-0.7892,-0.4809,-0.5348,-0.7041,-0.2237,41.5200,-19.0200,-3.9600,
1.065546,-0.7648,-0.7892,-0.4809,-0.7952,-0.9199,-0.0554,41.5200,-19.0200,-3.9600,
1.087527,-0.7648,-0.7892,-0.4809,-0.7952,-0.9199,-0.0554,41.5200,-19.0200,-3.9600,
1.088152,-0.7648,-0.7892,-0.4809,-0.7452,-0.7707,-0.2051,41.5200,-19.0200,-3.9600,
1.088892,1.8355,-2.3682,0.0980,-0.7452,-0.7707,-0.2051,41.5200,-19.0200,-3.9600,
1.091944,1.8355,-2.3682,0.0980,-0.7452,-0.7707,-0.2051,42.6000,-17.5200,-3.7800,
1.106763,1.8355,-2.3682,0.0980,-0.6498,-0.5779,-0.4767,42.6000,-17.5200,-3.7800,
1.127316,1.8355,-2.3682,0.0980,-0.6748,-0.8890,-0.5934,42.6000,-17.5200,-3.7800,
1.147663,1.8355,-2.3682,0.0980,-0.6748,-0.8890,-0.5934,42.6000,-17.5200,-3.7800,
1.148302,1.8355,-2.3682,0.0980,-0.6237,-1.3385,-0.6440,42.6000,-17.5200,-3.7800,
1.149177,0.2252,-1.0643,0.3299,-0.6237,-1.3385,-0.6440,42.6000,-17.5200,-3.7800,
1.152339,0.2252,-1.0643,0.3299,-0.6237,-1.3385,-0.6440,43.2000,-15.9000,-5.1000,
1.168765,0.2252,-1.0643,0.3299,-0.4213,-1.3476,-0.7191,43.2000,-15.9000,-5.1000,
1.189076,0.2252,-1.0643,0.3299,-0.3521,-1.3470,-0.7009,43.2000,-15.9000,-5.1000,
1.209700,0.2252,-1.0643,0.3299,-0.3521,-1.3470,-0.7009,43.2000,-15.9000,-5.1000,
1.210384,0.2252,-1.0643,0.3299,-0.0836,-0.6040,-0.7196,43.2000,-15.9000,-5.1000,
1.211023,1.7938,-1.1179,0.1201,-0.0836,-0.6040,-0.7196,43.2000,-15.9000,-5.1000,
1.214076,1.7938,-1.1179,0.1201,-0.0836,-0.6040,-0.7196,42.9000,-14.5200,-6.6600,
1.230245,1.7938,-1.1179,0.1201,0.5582,0.7702,-0.4645,42.9000,-14.5200,-6.6600,
1.250411,1.7938,-1.1179,0.1201,0.8107,0.8756,-0.2029,42.9000,-14.5200,-6.6600,
1.270872,1.7938,-1.1179,0.1201,0.8107,0.8756,-0.2029,42.9000,-14.5200,-6.6600,
1.271556,1.7938,-1.1179,0.1201,0.7691,0.4661,0.1316,42.9000,-14.5200,-6.6600,
1.272280,-1.3697,1.3063,-0.0256,0.7691,0.4661,0.1316,42.9000,-14.5200,-6.6600,
1.275118,-1.3697,1.3063,-0.0256,0.7691,0.4661,0.1316,42.7800,-12.8400,-9.3000,
1.298140,-1.3697,1.3063,-0.0256,0.5204,0.0218,0.3649,42.7800,-12.8400,-9.3000,
1.311605,-1.3697,1.3063,-0.0256,0.3957,0.1459,0.3931,42.7800,-12.8400,-9.3000,
1.332517,-1.3697,1.3063,-0.0256,0.3957,0.1459,0.3931,42.7800,-12.8400,-9.3000,
1.333413,-0.2397,-0.0755,-1.7549,0.3957,0.1459,0.3931,42.7800,-12.8400,-9.3000,
1.334141,-0.2397,-0.0755,-1.7549,0.2743,0.4538,0.3100,42.7800,-12.8400,-9.3000,
1.336510,-0.2397,-0.0755,-1.7549,0.2743,0.4538,0.3100,42.6000,-11.6400,-11.7600,
1.352485,-0.2397,-0.0755,-1.7549,0.1886,0.5140,0.2296,42.6000,-11.6400,-11.7600,
1.373924,-0.2397,-0.0755,-1.7549,0.1166,0.4996,0.1135,42.6000,-11.6400,-11.7600,
1.394136,-0.2397,-0.0755,-1.7549,0.1166,0.4996,0.1135,42.6000,-11.6400,-11.7600,
1.394712,-0.2397,-0.0755,-1.7549,0.1113,0.2322,-0.0149,42.6000,-11.6400,-11.7600,
1.395143,0.1953,-0.2109,0.6918,0.1113,0.2322,-0.0149,42.6000,-11.6400,-11.7600,
1.398759,0.1953,-0.2109,0.6918,0.1113,0.2322,-0.0149,42.4200,-10.9800,-12.7200,
1.415692,0.1953,-0.2109,0.6918,0.2088,0.0144,-0.0352,42.4200,-10.9800,-12.7200,
1.435770,0.1953,-0.2109,0.6918,0.2818,0.2397,-0.0085,42.4200,-10.9800,-12.7200,
1.455811,0.1953,-0.2109,0.6918,0.2818,0.2397,-0.0085,42.4200,-10.9800,-12.7200,
1.456473,0.1953,-0.2109,0.6918,0.2844,0.4101,0.0186,42.4200,-10.9800,-12.7200,
1.457143,0.3030,-0.2743,-0.4609,0.2844,0.4101,0.0186,42.4200,-10.9800,-12.7200,
1.461199,0.3030,-0.2743,-0.4609,0.2844,0.4101,0.0186,42.7800,-10.8000,-12.7200,
1.476301,0.3030,-0.2743,-0.4609,0.2290,0.3680,0.0245,42.7800,-10.8000,-12.7200,
1.496586,0.3030,-0.2743,-0.4609,0.1795,0.2376,0.0506,42.7800,-10.8000,-12.7200,
1.517012,0.3030,-0.2743,-0.4609,0.1795,0.2376,0.0506,42.7800,-10.8000,-12.7200,
1.517674,0.3030,-0.2743,-0.4609,0.2269,0.1577,0.0698,42.7800,-10.8000,-12.7200,
1.518225,-0.1335,-0.1166,0.1424,0.2269,0.1577,0.0698,42.7800,-10.8000,-12.7200,
1.521368,-0.1335,-0.1166,0.1424,0.2269,0.1577,0.0698,42.4200,-11.7600,-11.5200,
1.537671,-0.1335,-0.1166,0.1424,0.3174,0.1806,0.0655,42.4200,-11.7600,-11.5200,
1.558159,-0.1335,-0.1166,0.1424,0.4096,0.2557,0.0698,42.4200,-11.7600,-11.5200,
1.578969,-0.1335,-0.1166,0.1424,0.4096,0.2557,0.0698,42.4200,-11.7600,-11.5200,
1.579484,-0.0925,0.3582,-0.1035,0.4096,0.2557,0.0698,42.4200,-11.7600,-11.5200,
1.580668,-0.0925,0.3582,-0.1035,0.4373,0.2695,0.1023,42.4200,-11.7600,-11.5200,
1.583666,-0.0925,0.3582,-0.1035,0.4373,0.2695,0.1023,42.7800,-12.0600,-10.2000,
1.598840,-0.0925,0.3582,-0.1035,0.4352,0.2125,0.1358,42.7800,-12.0600,-10.2000,
1.619294,-0.0925,0.3582,-0.1035,0.4517,0.1182,0.1545,42.7800,-12.0600,-10.2000,
1.640502,-0.0925,0.3582,-0.1035,0.4517,0.1182,0.1545,42.7800,-12.0600,-10.2000,
1.641298,-0.0925,0.3582,-0.1035,0.4943,0.0160,0.1268,42.7800,-12.0600,-10.2000,
1.641662,-0.3327,0.2686,0.1341,0.4943,0.0160,0.1268,42.7800,-12.0600,-10.2000,
1.644172,-0.3327,0.2686,0.1341,0.4943,0.0160,0.1268,42.9000,-12.4200,-9.6000,
1.661838,-0.3327,0.2686,0.1341,0.5289,-0.0410,0.0969,42.9000,-12.4200,-9.6000,
1.681122,-0.3327,0.2686,0.1341,0.5230,-0.1699,0.0655,42.9000,-12.4200,-9.6000,
1.701967,-0.3327,0.2686,0.1341,0.5230,-0.1699,0.0655,42.9000,-12.4200,-9.6000,
1.702397,-0.3327,0.2686,0.1341,0.3473,-0.3723,0.0479,42.9000,-12.4200,-9.6000,
1.702802,-1.1057,0.1243,-0.0510,0.3473,-0.3723,0.0479,42.9000,-12.4200,-9.6000,
1.706179,-1.1057,0.1243,-0.0510,0.3473,-0.3723,0.0479,42.8400,-12.6600,-8.8200,
1.722471,-1.1057,0.1243,-0.0510,0.1422,-0.5981,0.0660,42.8400,-12.6600,-8.8200,
1.742725,-1.1057,0.1243,-0.0510,0.1300,-0.5699,0.0996,42.8400,-12.6600,-8.8200,
1.763614,-1.1057,0.1243,-0.0510,0.1300,-0.5699,0.0996,42.8400,-12.6600,-8.8200,
1.764151,-1.1057,0.1243,-0.0510,0.1886,-0.2663,0.1475,42.8400,-12.6600,-8.8200,
1.764549,-1.2801,2.1481,-0.9994,0.1886,-0.2663,0.1475,42.8400,-12.6600,-8.8200,
1.767955,-1.2801,2.1481,-0.9994,0.1886,-0.2663,0.1475,43.0200,-13.0200,-8.4000,
1.783707,-1.2801,2.1481,-0.9994,0.2839,-0.3286,0.2887,43.0200,-13.0200,-8.4000,
1.804243,-1.2801,2.1481,-0.9994,0.2663,-0.5103,0.3782,43.0200,-13.0200,-8.4000,
1.825185,-1.2801,2.1481,-0.9994,0.2663,-0.5103,0.3782,43.0200,-13.0200,-8.4000,
1.825888,-1.2801,2.1481,-0.9994,-0.0623,-0.4735,0.2386,43.0200,-13.0200,-8.4000,
1.826408,0.1867,-0.0392,-2.6883,-0.0623,-0.4735,0.2386,43.0200,-13.0200,-8.4000,
1.830869,0.1867,-0.0392,-2.6883,-0.0623,-0.4735,0.2386,42.9000,-13.5600,-7.9800,
1.845473,0.1867,-0.0392,-2.6883,-0.3973,-0.5049,-0.1188,42.9000,-13.5600,-7.9800,
1.866262,0.1867,-0.0392,-2.6883,-0.4176,-1.1036,-0.3633,42.9000,-13.5600,-7.9800,
1.886701,0.1867,-0.0392,-2.6883,-0.4176,-1.1036,-0.3633,42.9000,-13.5600,-7.9800,
1.887359,0.1867,-0.0392,-2.6883,-0.4581,-1.6304,-0.4027,42.9000,-13.5600,-7.9800,
1.887926,-0.7860,1.0781,-0.3647,-0.4581,-1.6304,-0.4027,42.9000,-13.5600,-7.9800,
1.891010,-0.7860,1.0781,-0.3647,-0.4581,-1.6304,-0.4027,42.7200,-14.0400,-7.9800,
1.907026,-0.7860,1.0781,-0.3647,-0.6109,-1.6309,-0.4272,42.7200,-14.0400,-7.9800,
1.927531,-0.7860,1.0781,-0.3647,-0.6067,-1.5835,-0.5092,42.7200,-14.0400,-7.9800,
1.947673,-0.7860,1.0781,-0.3647,-0.6067,-1.5835,-0.5092,42.7200,-14.0400,-7.9800,
1.948013,-0.7860,1.0781,-0.3647,-0.4916,-1.6703,-0.5699,42.7200,-14.0400,-7.9800,
1.948321,-1.0072,1.6698,-1.9245,-0.4916,-1.6703,-0.5699,42.7200,-14.0400,-7.9800,
1.952039,-1.0072,1.6698,-1.9245,-0.4916,-1.6703,-0.5699,42.4200,-14.1000,-9.1200,
1.969094,-1.0072,1.6698,-1.9245,-0.5545,-1.8493,-0.5278,42.4200,-14.1000,-9.1200,
1.989123,-1.0072,1.6698,-1.9245,-0.8810,-1.8834,-0.5161,42.4200,-14.1000,-9.1200,
2.009793,-1.0072,1.6698,-1.9245,-0.8810,-1.8834,-0.5161,42.4200,-14.1000,-9.1200,
2.010424,-1.0072,1.6698,-1.9245,-1.2522,-1.6900,-0.5864,42.4200,-14.1000,-9.1200,
2.011070,0.4868,2.3222,-2.8269,-1.2522,-1.6900,-0.5864,42.4200,-14.1000,-9.1200,
2.014082,0.4868,2.3222,-2.8269,-1.2522,-1.6900,-0.5864,41.4600,-13.6800,-11.4000,
2.030738,0.4868,2.3222,-2.8269,-1.5446,-2.0634,-0.7201,41.4600,-13.6800,-11.4000,
2.050623,0.4868,2.3222,-2.8269,-1.8099,-3.1905,-0.9593,41.4600,-13.6800,-11.4000,
2.071352,0.4868,2.3222,-2.8269,-1.8099,-3.1905,-0.9593,41.4600,-13.6800,-11.4000,
2.071990,1.8773,0.6763,-0.6407,-1.8099,-3.1905,-0.9593,41.4600,-13.6800,-11.4000,
2.072570,1.8773,0.6763,-0.6407,-1.8663,-3.3034,-1.1537,41.4600,-13.6800,-11.4000,
2.075811,1.8773,0.6763,-0.6407,-1.8663,-3.3034,-1.1537,40.1400,-12.7200,-14.8200,
2.091796,1.8773,0.6763,-0.6407,-1.2975,-2.1220,-1.2575,40.1400,-12.7200,-14.8200,
2.111905,1.8773,0.6763,-0.6407,-0.0261,-0.6716,-1.4653,40.1400,-12.7200,-14.8200,
2.132768,1.8773,0.6763,-0.6407,-0.0261,-0.6716,-1.4653,40.1400,-12.7200,-14.8200,
2.133584,1.8773,0.6763,-0.6407,1.0440,-0.3169,-1.4706,40.1400,-12.7200,-14.8200,
2.134350,3.2721,-3.7405,3.9811,1.0440,-0.3169,-1.4706,40.1400,-12.7200,-14.8200,
2.136990,3.2721,-3.7405,3.9811,1.0440,-0.3169,-1.4706,38.2200,-10.0800,-19.8600,
2.153189,3.2721,-3.7405,3.9811,1.4104,-0.2152,-1.3039,38.2200,-10.0800,-19.8600,
2.173329,3.2721,-3.7405,3.9811,1.3721,-0.3590,-1.2458,38.2200,-10.0800,-19.8600,
2.194390,3.2721,-3.7405,3.9811,1.3721,-0.3590,-1.2458,38.2200,-10.0800,-19.8600,
2.195079,3.2721,-3.7405,3.9811,1.2666,-0.3846,-1.1521,38.2200,-10.0800,-19.8600,
2.195805,-2.5177,3.6882,-2.9150,1.2666,-0.3846,-1.1521,38.2200,-10.0800,-19.8600,
2.198884,-2.5177,3.6882,-2.9150,1.2666,-0.3846,-1.1521,36.2400,-7.1400,-24.6600,
2.214838,-2.5177,3.6882,-2.9150,1.1079,-0.1944,-1.1691,36.2400,-7.1400,-24.6600,
2.235575,-2.5177,3.6882,-2.9150,0.9135,-0.6051,-1.2069,36.2400,-7.1400,-24.6600,
2.255108,-2.5177,3.6882,-2.9150,0.9135,-0.6051,-1.2069,36.2400,-7.1400,-24.6600,
2.255416,-2.5177,3.6882,-2.9150,0.5444,-1.6362,-1.2027,36.2400,-7.1400,-24.6600,
2.255720,-1.6216,7.1677,-3.9872,0.5444,-1.6362,-1.2027,36.2400,-7.1400,-24.6600,
2.260768,-1.6216,7.1677,-3.9872,0.5444,-1.6362,-1.2027,34.6800,-4.6200,-27.7200,
2.275912,-1.6216,7.1677,-3.9872,0.2546,-1.8850,-1.1329,34.6800,-4.6200,-27.7200,
2.296449,-1.6216,7.1677,-3.9872,0.6226,-1.5872,-1.1526,34.6800,-4.6200,-27.7200,
2.317139,-1.6216,7.1677,-3.9872,0.6226,-1.5872,-1.1526,34.6800,-4.6200,-27.7200,
2.317853,-1.6216,7.1677,-3.9872,1.2389,-1.2501,-1.2858,34.6800,-4.6200,-27.7200,
2.318623,-2.3310,-3.1590,-3.6531,1.2389,-1.2501,-1.2858,34.6800,-4.6200,-27.7200,
2.321591,-2.3310,-3.1590,-3.6531,1.2389,-1.2501,-1.2858,33.0600,-2.5800,-30.0600,
2.337830,-2.3310,-3.1590,-3.6531,1.5484,-0.7196,-1.7667,33.0600,-2.5800,-30.0600,
2.358252,-2.3310,-3.1590,-3.6531,1.9958,-0.0575,-3.1846,33.0600,-2.5800,-30.0600,
2.378911,-2.3310,-3.1590,-3.6531,1.9958,-0.0575,-3.1846,33.0600,-2.5800,-30.0600,
2.379426,14.8304,-22.6040,2.6015,1.9958,-0.0575,-3.1846,33.0600,-2.5800,-30.0600,
2.380309,14.8304,-22.6040,2.6015,1.1830,-0.6141,-5.7338,33.0600,-2.5800,-30.0600,
2.383614,14.8304,-22.6040,2.6015,1.1830,-0.6141,-5.7338,32.0400,-1.4400,-31.2000,
2.398918,14.8304,-22.6040,2.6015,-1.0647,-4.5295,-7.1176,32.0400,-1.4400,-31.2000,
2.419699,14.8304,-22.6040,2.6015,-0.8874,-3.9756,-6.1711,32.0400,-1.4400,-31.2000,
2.440609,14.8304,-22.6040,2.6015,-0.8874,-3.9756,-6.1711,32.0400,-1.4400,-31.2000,
2.441545,14.8304,-22.6040,2.6015,-0.3888,-3.1915,-4.9189,32.0400,-1.4400,-31.2000,
2.442381,-1.3784,1.8014,4.5099,-0.3888,-3.1915,-4.9189,32.0400,-1.4400,-31.2000,
2.445796,-1.3784,1.8014,4.5099,-0.3888,-3.1915,-4.9189,31.2600,-0.3000,-32.0400,
2.460982,-1.3784,1.8014,4.5099,0.6898,-1.9036,-3.7859,31.2600,-0.3000,-32.0400,
2.481693,-1.3784,1.8014,4.5099,1.8355,1.8450,-3.3071,31.2600,-0.3000,-32.0400,
2.501987,-1.3784,1.8014,4.5099,1.8355,1.8450,-3.3071,31.2600,-0.3000,-32.0400,
2.502505,-1.3784,1.8014,4.5099,2.8043,4.4874,-3.0115,31.2600,-0.3000,-32.0400,
2.503052,-10.6512,1.7441,4.9330,2.8043,4.4874,-3.0115,31.2600,-0.3000,-32.0400,
2.507291,-10.6512,1.7441,4.9330,2.8043,4.4874,-3.0115,27.9000,3.5400,-34.8000,
2.522550,-10.6512,1.7441,4.9330,3.3007,4.4773,-2.6855,27.9000,3.5400,-34.8000,
2.543325,-10.6512,1.7441,4.9330,3.4733,3.8067,-2.3814,27.9000,3.5400,-34.8000,
2.563412,-10.6512,1.7441,4.9330,3.4733,3.8067,-2.3814,27.9000,3.5400,-34.8000,
2.563863,-10.6512,1.7441,4.9330,3.5079,3.3449,-2.2914,27.9000,3.5400,-34.8000,
2.564284,-2.2148,-4.2958,-6.4702,3.5079,3.3449,-2.2914,27.9000,3.5400,-34.8000,
2.567508,-2.2148,-4.2958,-6.4702,3.5079,3.3449,-2.2914,25.3200,6.5400,-36.7200,
2.584128,-2.2148,-4.2958,-6.4702,3.0014,0.8011,-2.7532,25.3200,6.5400,-36.7200,
2.604471,-2.2148,-4.2958,-6.4702,-0.9438,-8.4017,-4.5572,25.3200,6.5400,-36.7200,
2.626057,-2.2148,-4.2958,-6.4702,-0.9438,-8.4017,-4.5572,25.3200,6.5400,-36.7200,
2.626714,-2.2148,-4.2958,-6.4702,-4.8619,-17.4522,-0.1076,25.3200,6.5400,-36.7200,
2.627538,36.4345,9.9456,29.0217,-4.8619,-17.4522,-0.1076,25.3200,6.5400,-36.7200,
2.631793,36.4345,9.9456,29.0217,-4.8619,-17.4522,-0.1076,24.8400,8.3400,-36.6000,
2.646064,36.4345,9.9456,29.0217,-0.1475,-5.9271,1.1990,24.8400,8.3400,-36.6000,
2.666493,36.4345,9.9456,29.0217,1.5052,3.3859,-2.6456,24.8400,8.3400,-36.6000,
2.686400,36.4345,9.9456,29.0217,1.5052,3.3859,-2.6456,24.8400,8.3400,-36.6000,
2.686921,36.4345,9.9456,29.0217,2.7596,8.3655,-3.3449,24.8400,8.3400,-36.6000,
2.687442,-8.4644,1.5438,-5.5250,2.7596,8.3655,-3.3449,24.8400,8.3400,-36.6000,
2.691137,-8.4644,1.5438,-5.5250,2.7596,8.3655,-3.3449,19.2000,10.8000,-38.4000,
2.707531,-8.4644,1.5438,-5.5250,3.7236,8.7911,-2.5092,19.2000,10.8000,-38.4000,
2.727817,-8.4644,1.5438,-5.5250,3.2182,8.1658,-1.9505,19.2000,10.8000,-38.4000,
2.748619,-8.4644,1.5438,-5.5250,3.2182,8.1658,-1.9505,19.2000,10.8000,-38.4000,
2.749486,-8.4644,1.5438,-5.5250,1.7737,4.7553,-1.2927,19.2000,10.8000,-38.4000,
2.750353,-8.5459,-0.5792,-12.9693,1.7737,4.7553,-1.2927,19.2000,10.8000,-38.4000,
2.755115,-8.5459,-0.5792,-12.9693,1.7737,4.7553,-1.2927,17.4600,9.8400,-38.3400,
2.769857,-8.5459,-0.5792,-12.9693,0.4336,0.3174,-0.3329,17.4600,9.8400,-38.3400,
2.789189,-8.5459,-0.5792,-12.9693,-0.9055,-2.5028,0.2546,17.4600,9.8400,-38.3400,
2.810474,-8.5459,-0.5792,-12.9693,-0.9055,-2.5028,0.2546,17.4600,9.8400,-38.3400,
2.811238,-8.5459,-0.5792,-12.9693,-1.2075,-3.0642,1.1904,17.4600,9.8400,-38.3400,
2.811971,-7.0937,-1.5246,-7.2982,-1.2075,-3.0642,1.1904,17.4600,9.8400,-38.3400,
2.814131,-7.0937,-1.5246,-7.2982,-1.2075,-3.0642,1.1904,19.2000,8.4000,-36.7800,
2.830508,-7.0937,-1.5246,-7.2982,-1.1409,-1.9500,2.9779,19.2000,8.4000,-36.7800,
2.850833,-7.0937,-1.5246,-7.2982,-1.7603,-8.0699,4.3617,19.2000,8.4000,-36.7800,
2.871461,-7.0937,-1.5246,-7.2982,-1.7603,-8.0699,4.3617,19.2000,8.4000,-36.7800,
2.872202,-7.0937,-1.5246,-7.2982,-0.0011,-11.9555,1.1111,19.2000,8.4000,-36.7800,
2.873441,32.3499,-2.5468,6.1607,-0.0011,-11.9555,1.1111,19.2000,8.4000,-36.7800,
2.876237,32.3499,-2.5468,6.1607,-0.0011,-11.9555,1.1111,18.3000,8.2200,-37.5000,
2.891673,32.3499,-2.5468,6.1607,2.1220,-4.4262,-1.7811,18.3000,8.2200,-37.5000,
2.912216,32.3499,-2.5468,6.1607,2.6584,3.6091,-1.8994,18.3000,8.2200,-37.5000,
2.933851,32.3499,-2.5468,6.1607,2.6584,3.6091,-1.8994,18.3000,8.2200,-37.5000,
2.934469,32.3499,-2.5468,6.1607,2.0187,6.6377,-1.0940,18.3000,8.2200,-37.5000,
2.935148,-2.8989,6.8785,-4.6678,2.0187,6.6377,-1.0940,18.3000,8.2200,-37.5000,
2.937449,-2.8989,6.8785,-4.6678,2.0187,6.6377,-1.0940,18.3600,5.8200,-38.1000,
2.952951,-2.8989,6.8785,-4.6678,0.8906,5.8616,0.3041,18.3600,5.8200,-38.1000,
2.974178,-2.8989,6.8785,-4.6678,0.0447,2.7324,1.1867,18.3600,5.8200,-38.1000,
2.993905,-2.8989,6.8785,-4.6678,0.0447,2.7324,1.1867,18.3600,5.8200,-38.1000,
2.994239,-2.8989,6.8785,-4.6678,0.1326,-0.0996,1.5494,18.3600,5.8200,-38.1000,
2.994578,-1.2511,6.4560,-0.9714,0.1326,-0.0996,1.5494,18.3600,5.8200,-38.1000,
2.998833,-1.2511,6.4560,-0.9714,0.1326,-0.0996,1.5494,18.4800,2.6400,-37.8600,
3.014941,-1.2511,6.4560,-0.9714,0.9774,-2.0331,1.4189,18.4800,2.6400,-37.8600,
3.035913,-1.2511,6.4560,-0.9714,1.2815,-2.9790,0.6796,18.4800,2.6400,-37.8600,
3.056079,-1.2511,6.4560,-0.9714,1.2815,-2.9790,0.6796,18.4800,2.6400,-37.8600,
3.056619,-1.2511,6.4560,-0.9714,0.7856,-2.0027,-0.3633,18.4800,2.6400,-37.8600,
3.057237,-1.6635,5.4808,-2.1319,0.7856,-2.0027,-0.3633,18.4800,2.6400,-37.8600,
3.061134,-1.6635,5.4808,-2.1319,0.7856,-2.0027,-0.3633,16.0800,0.2400,-39.3000,
3.077516,-1.6635,5.4808,-2.1319,0.4171,-0.2775,-0.6796,16.0800,0.2400,-39.3000,
3.098556,-1.6635,5.4808,-2.1319,0.1049,0.6424,-0.4911,16.0800,0.2400,-39.3000,
3.117688,-1.6635,5.4808,-2.1319,0.1049,0.6424,-0.4911,16.0800,0.2400,-39.3000,
3.118177,-1.6635,5.4808,-2.1319,-0.1886,0.1593,0.0708,16.0800,0.2400,-39.3000,
3.118583,-3.6601,1.0355,-1.3383,-0.1886,0.1593,0.0708,16.0800,0.2400,-39.3000,
3.122444,-3.6601,1.0355,-1.3383,-0.1886,0.1593,0.0708,13.0800,-3.6000,-40.2000,
3.137847,-3.6601,1.0355,-1.3383,-0.6567,-0.8645,0.8155,13.0800,-3.6000,-40.2000,
3.158578,-3.6601,1.0355,-1.3383,-0.9087,-1.3358,0.6221,13.0800,-3.6000,-40.2000,
3.178889,-3.6601,1.0355,-1.3383,-0.9087,-1.3358,0.6221,13.0800,-3.6000,-40.2000,
3.179205,-3.6601,1.0355,-1.3383,-0.5310,-1.2208,-0.0336,13.0800,-3.6000,-40.2000,
3.179512,4.2466,4.1103,0.8903,-0.5310,-1.2208,-0.0336,13.0800,-3.6000,-40.2000,
3.183402,4.2466,4.1103,0.8903,-0.5310,-1.2208,-0.0336,14.7000,-6.1200,-39.3000,
3.199801,4.2466,4.1103,0.8903,-0.1358,-0.8682,-0.4948,14.7000,-6.1200,-39.3000,
3.220218,4.2466,4.1103,0.8903,-0.2226,-0.4890,-0.5699,14.7000,-6.1200,-39.3000,
3.241131,4.2466,4.1103,0.8903,-0.2226,-0.4890,-0.5699,14.7000,-6.1200,-39.3000,
3.241702,4.2466,4.1103,0.8903,-0.3675,0.2642,-0.5523,14.7000,-6.1200,-39.3000,
3.242068,1.5334,0.2803,-0.5092,-0.3675,0.2642,-0.5523,14.7000,-6.1200,-39.3000,
3.245061,1.5334,0.2803,-0.5092,-0.3675,0.2642,-0.5523,14.0400,-7.2000,-40.2600,
3.261522,1.5334,0.2803,-0.5092,-0.2945,0.7792,-0.4362,14.0400,-7.2000,-40.2600,
3.281906,1.5334,0.2803,-0.5092,-0.3009,0.9097,-0.2407,14.0400,-7.2000,-40.2600,
3.302625,1.5334,0.2803,-0.5092,-0.3009,0.9097,-0.2407,14.0400,-7.2000,-40.2600,
3.303479,1.5334,0.2803,-0.5092,-0.4181,0.5891,0.0586,14.0400,-7.2000,-40.2600,
3.303968,-3.4340,-1.5008,-0.9699,-0.4181,0.5891,0.0586,14.0400,-7.2000,-40.2600,
3.306451,-3.4340,-1.5008,-0.9699,-0.4181,0.5891,0.0586,11.4600,-7.7400,-41.1600,
3.323026,-3.4340,-1.5008,-0.9699,-0.6370,-0.1326,0.3196,11.4600,-7.7400,-41.1600,
3.343835,-3.4340,-1.5008,-0.9699,-0.8128,-0.6216,0.5763,11.4600,-7.7400,-41.1600,
3.364200,-3.4340,-1.5008,-0.9699,-0.8128,-0.6216,0.5763,11.4600,-7.7400,-41.1600,
3.365385,-3.4340,-1.5008,-0.9699,-0.8245,-0.5289,0.7878,11.4600,-7.7400,-41.1600,
3.366139,-0.6711,-0.5045,-0.6221,-0.8245,-0.5289,0.7878,11.4600,-7.7400,-41.1600,
3.369409,-0.6711,-0.5045,-0.6221,-0.8245,-0.5289,0.7878,11.4000,-6.3600,-41.0400,
3.384005,-0.6711,-0.5045,-0.6221,-0.7936,-0.4096,0.6679,11.4000,-6.3600,-41.0400,
3.405021,-0.6711,-0.5045,-0.6221,-0.5550,-0.5566,0.4639,11.4000,-6.3600,-41.0400,
3.425946,-0.6711,-0.5045,-0.6221,-0.5550,-0.5566,0.4639,11.4000,-6.3600,-41.0400,
3.426891,-0.6711,-0.5045,-0.6221,-0.3510,-0.5763,0.4874,11.4000,-6.3600,-41.0400,
3.427565,0.5455,-0.9098,-1.0252,-0.3510,-0.5763,0.4874,11.4000,-6.3600,-41.0400,
3.430706,0.5455,-0.9098,-1.0252,-0.3510,-0.5763,0.4874,10.4400,-5.7000,-41.0400,
3.446424,0.5455,-0.9098,-1.0252,-0.5017,-0.7718,0.8522,10.4400,-5.7000,-41.0400,
3.467088,0.5455,-0.9098,-1.0252,-0.4863,-0.0975,1.2203,10.4400,-5.7000,-41.0400,
3.487166,0.5455,-0.9098,-1.0252,-0.4863,-0.0975,1.2203,10.4400,-5.7000,-41.0400,
3.488216,0.5455,-0.9098,-1.0252,-0.2397,0.6157,1.3108,10.4400,-5.7000,-41.0400,
3.489019,1.0173,-2.1891,0.2757,-0.2397,0.6157,1.3108,10.4400,-5.7000,-41.0400,
3.491694,1.0173,-2.1891,0.2757,-0.2397,0.6157,1.3108,10.3800,-4.4400,-40.3800,
3.507945,1.0173,-2.1891,0.2757,-0.0842,0.9838,1.1286,10.3800,-4.4400,-40.3800,
3.528224,1.0173,-2.1891,0.2757,-0.1779,1.2043,1.0402,10.3800,-4.4400,-40.3800,
3.549066,1.0173,-2.1891,0.2757,-0.1779,1.2043,1.0402,10.3800,-4.4400,-40.3800,
3.550090,1.0173,-2.1891,0.2757,-0.3771,1.1484,1.1468,10.3800,-4.4400,-40.3800,
3.550790,1.3815,0.4629,-1.5782,-0.3771,1.1484,1.1468,10.3800,-4.4400,-40.3800,
3.553052,1.3815,0.4629,-1.5782,-0.3771,1.1484,1.1468,10.4400,-3.3000,-40.4400,
3.569980,1.3815,0.4629,-1.5782,-0.5151,0.7116,1.1292,10.4400,-3.3000,-40.4400,
3.589362,1.3815,0.4629,-1.5782,-0.4463,-0.1523,0.7420,10.4400,-3.3000,-40.4400,
3.609956,1.3815,0.4629,-1.5782,-0.4463,-0.1523,0.7420,10.4400,-3.3000,-40.4400,
3.610632,1.3815,0.4629,-1.5782,-0.1976,-0.7446,0.3670,10.4400,-3.3000,-40.4400,
3.611352,1.8934,0.3025,0.8555,-0.1976,-0.7446,0.3670,10.4400,-3.3000,-40.4400,
3.614311,1.8934,0.3025,0.8555,-0.1976,-0.7446,0.3670,10.6200,-2.6400,-40.5000,
3.631763,1.8934,0.3025,0.8555,-0.1507,-0.8346,0.1411,10.6200,-2.6400,-40.5000,
3.652012,1.8934,0.3025,0.8555,-0.2732,-0.5449,-0.0421,10.6200,-2.6400,-40.5000,
3.672535,1.8934,0.3025,0.8555,-0.2732,-0.5449,-0.0421,10.6200,-2.6400,-40.5000,
3.673912,1.8934,0.3025,0.8555,0.3260,0.3675,-0.5385,10.6200,-2.6400,-40.5000,
3.674839,3.3532,-3.4824,4.6522,0.3260,0.3675,-0.5385,10.6200,-2.6400,-40.5000,
3.676963,3.3532,-3.4824,4.6522,0.3260,0.3675,-0.5385,11.2800,-1.5000,-40.2000,
3.692931,3.3532,-3.4824,4.6522,1.3721,1.2916,-1.0306,11.2800,-1.5000,-40.2000,
3.714657,3.3532,-3.4824,4.6522,1.7252,2.0038,-1.0109,11.2800,-1.5000,-40.2000,
3.733119,3.3532,-3.4824,4.6522,1.7252,2.0038,-1.0109,11.2800,-1.5000,-40.2000,
3.733877,3.3532,-3.4824,4.6522,1.2959,2.4453,-0.7228,11.2800,-1.5000,-40.2000,
3.734396,-2.1963,1.7177,-5.1442,1.2959,2.4453,-0.7228,11.2800,-1.5000,-40.2000,
3.737281,-2.1963,1.7177,-5.1442,1.2959,2.4453,-0.7228,11.7600,-1.0200,-40.4400,
3.754377,-2.1963,1.7177,-5.1442,0.5028,1.5334,-0.2322,11.7600,-1.0200,-40.4400,
3.774486,-2.1963,1.7177,-5.1442,0.0096,0.0117,0.3249,11.7600,-1.0200,-40.4400,
3.794137,-2.1963,1.7177,-5.1442,0.0096,0.0117,0.3249,11.7600,-1.0200,-40.4400,
3.794870,0.9361,0.9109,-0.4044,0.0096,0.0117,0.3249,11.7600,-1.0200,-40.4400,
3.795548,0.9361,0.9109,-0.4044,0.1992,-0.8101,0.4501,11.7600,-1.0200,-40.4400,
3.799368,0.9361,0.9109,-0.4044,0.1992,-0.8101,0.4501,13.7400,-1.0800,-39.6600,
3.814634,0.9361,0.9109,-0.4044,0.8426,0.0373,0.1662,13.7400,-1.0800,-39.6600,
3.835659,0.9361,0.9109,-0.4044,1.1159,0.9236,-0.2344,13.7400,-1.0800,-39.6600,
3.855961,0.9361,0.9109,-0.4044,1.1159,0.9236,-0.2344,13.7400,-1.0800,-39.6600,
3.856730,0.9361,0.9109,-0.4044,0.7244,0.9374,-0.4991,13.7400,-1.0800,-39.6600,
3.857307,4.2102,0.3023,-0.6837,0.7244,0.9374,-0.4991,13.7400,-1.0800,-39.6600,
3.860017,4.2102,0.3023,-0.6837,0.7244,0.9374,-0.4991,14.4000,-1.6200,-39.3600,
3.876698,4.2102,0.3023,-0.6837,0.7148,1.1723,-0.5289,14.4000,-1.6200,-39.3600,
3.897378,4.2102,0.3023,-0.6837,0.7436,1.2362,-0.6930,14.4000,-1.6200,-39.3600,
3.917847,4.2102,0.3023,-0.6837,0.7436,1.2362,-0.6930,14.4000,-1.6200,-39.3600,
3.918783,4.2102,0.3023,-0.6837,0.5209,0.9406,-0.6061,14.4000,-1.6200,-39.3600,
3.919378,-2.1082,0.7360,-1.8550,0.5209,0.9406,-0.6061,14.4000,-1.6200,-39.3600,
3.922239,-2.1082,0.7360,-1.8550,0.5209,0.9406,-0.6061,16.2600,-3.0000,-39.0000,
3.938529,-2.1082,0.7360,-1.8550,0.2716,1.0466,-0.2216,16.2600,-3.0000,-39.0000,
3.958839,-2.1082,0.7360,-1.8550,0.0666,1.2709,0.1353,16.2600,-3.0000,-39.0000,
3.979808,-2.1082,0.7360,-1.8550,0.0666,1.2709,0.1353,16.2600,-3.0000,-39.0000,
3.980981,-2.1082,0.7360,-1.8550,-0.3020,0.5923,0.2365,16.2600,-3.0000,-39.0000,
3.981702,1.3872,0.6724,-2.3361,-0.3020,0.5923,0.2365,16.2600,-3.0000,-39.0000,
3.984438,1.3872,0.6724,-2.3361,-0.3020,0.5923,0.2365,18.3000,-4.8000,-38.0400,
3.999693,1.3872,0.6724,-2.3361,-0.6088,-0.5800,-0.0458,18.3000,-4.8000,-38.0400,
4.020213,1.3872,0.6724,-2.3361,-0.1491,-0.5151,-0.4634,18.3000,-4.8000,-38.0400,
4.041374,1.3872,0.6724,-2.3361,-0.1491,-0.5151,-0.4634,18.3000,-4.8000,-38.0400,
4.042186,1.3872,0.6724,-2.3361,0.4948,0.6424,-0.9555,18.3000,-4.8000,-38.0400,
4.042733,3.0664,1.3321,4.0543,0.4948,0.6424,-0.9555,18.3000,-4.8000,-38.0400,
4.045513,3.0664,1.3321,4.0543,0.4948,0.6424,-0.9555,19.6200,-5.4000,-37.1400,
4.061421,3.0664,1.3321,4.0543,0.8357,1.3103,-1.3550,19.6200,-5.4000,-37.1400,
4.082091,3.0664,1.3321,4.0543,0.7499,1.0243,-1.5148,19.6200,-5.4000,-37.1400,
4.102650,3.0664,1.3321,4.0543,0.7499,1.0243,-1.5148,19.6200,-5.4000,-37.1400,
4.103127,3.0664,1.3321,4.0543,0.4613,0.4852,-1.3630,19.6200,-5.4000,-37.1400,
4.103419,-2.4084,-0.2071,-0.3884,0.4613,0.4852,-1.3630,19.6200,-5.4000,-37.1400,
4.106563,-2.4084,-0.2071,-0.3884,0.4613,0.4852,-1.3630,21.1800,-6.1200,-36.4800,
4.123137,-2.4084,-0.2071,-0.3884,0.3931,0.2732,-1.0386,21.1800,-6.1200,-36.4800,
4.143614,-2.4084,-0.2071,-0.3884,0.4447,-0.0506,-0.5049,21.1800,-6.1200,-36.4800,
4.164271,-2.4084,-0.2071,-0.3884,0.4447,-0.0506,-0.5049,21.1800,-6.1200,-36.4800,
4.165133,-2.4084,-0.2071,-0.3884,0.2887,-0.5459,-0.0836,21.1800,-6.1200,-36.4800,
4.165401,-3.0466,0.5256,0.2284,0.2887,-0.5459,-0.0836,21.1800,-6.1200,-36.4800,
4.168591,-3.0466,0.5256,0.2284,0.2887,-0.5459,-0.0836,22.3800,-6.3000,-35.3400,
4.184992,-3.0466,0.5256,0.2284,0.2216,-0.6764,-0.0341,22.3800,-6.3000,-35.3400,
4.205333,-3.0466,0.5256,0.2284,0.0517,-0.6807,-0.0186,22.3800,-6.3000,-35.3400,
4.226304,-3.0466,0.5256,0.2284,0.0517,-0.6807,-0.0186,22.3800,-6.3000,-35.3400,
4.226981,-3.0466,0.5256,0.2284,-0.0932,-0.5103,-0.0613,22.3800,-6.3000,-35.3400,
4.227224,0.4711,2.0720,-1.3329,-0.0932,-0.5103,-0.0613,22.3800,-6.3000,-35.3400,
4.229649,0.4711,2.0720,-1.3329,-0.0932,-0.5103,-0.0613,23.5800,-5.7600,-34.8600,
4.246528,0.4711,2.0720,-1.3329,-0.1960,-0.6493,-0.1140,23.5800,-5.7600,-34.8600,
4.266940,0.4711,2.0720,-1.3329,-0.2722,-0.6322,-0.0874,23.5800,-5.7600,-34.8600,
4.287084,0.4711,2.0720,-1.3329,-0.2722,-0.6322,-0.0874,23.5800,-5.7600,-34.8600,
4.287993,0.4711,2.0720,-1.3329,-0.4538,-0.2631,-0.0991,23.5800,-5.7600,-34.8600,
4.288515,-0.2222,0.2878,0.4980,-0.4538,-0.2631,-0.0991,23.5800,-5.7600,-34.8600,
4.291511,-0.2222,0.2878,0.4980,-0.4538,-0.2631,-0.0991,24.0600,-5.4600,-34.8600,
4.308185,-0.2222,0.2878,0.4980,-0.3899,-0.1475,-0.1960,24.0600,-5.4600,-34.8600,
4.327647,-0.2222,0.2878,0.4980,-0.2663,-0.1779,-0.2200,24.0600,-5.4600,-34.8600,
4.348878,-0.2222,0.2878,0.4980,-0.2663,-0.1779,-0.2200,24.0600,-5.4600,-34.8600,
4.349806,-0.2222,0.2878,0.4980,-0.3313,-0.1672,-0.0565,24.0600,-5.4600,-34.8600,
4.350340,-2.0144,1.3607,-0.1011,-0.3313,-0.1672,-0.0565,24.0600,-5.4600,-34.8600,
4.353004,-2.0144,1.3607,-0.1011,-0.3313,-0.1672,-0.0565,24.3000,-5.4000,-34.7400,
4.369365,-2.0144,1.3607,-0.1011,-0.4708,-0.4485,0.1353,24.3000,-5.4000,-34.7400,
4.389385,-2.0144,1.3607,-0.1011,-0.3238,-0.5177,0.1561,24.3000,-5.4000,-34.7400,
4.410916,-2.0144,1.3607,-0.1011,-0.3238,-0.5177,0.1561,24.3000,-5.4000,-34.7400,
4.412167,0.8697,1.7871,2.2901,-0.3238,-0.5177,0.1561,24.3000,-5.4000,-34.7400,
4.413095,0.8697,1.7871,2.2901,-0.1422,-0.7212,0.0804,24.3000,-5.4000,-34.7400,
4.414547,0.8697,1.7871,2.2901,-0.1422,-0.7212,0.0804,23.4600,-4.5000,-36.0600,
4.431235,0.8697,1.7871,2.2901,0.1678,-0.6951,-0.1214,23.4600,-4.5000,-36.0600,
4.451461,0.8697,1.7871,2.2901,0.4815,-0.1997,-0.1726,23.4600,-4.5000,-36.0600,
4.472080,0.8697,1.7871,2.2901,0.4815,-0.1997,-0.1726,23.4600,-4.5000,-36.0600,
4.473336,0.8697,1.7871,2.2901,0.7702,0.2120,-0.0953,23.4600,-4.5000,-36.0600,
4.473604,0.0635,1.2400,-1.4982,0.7702,0.2120,-0.0953,23.4600,-4.5000,-36.0600,
4.475976,0.0635,1.2400,-1.4982,0.7702,0.2120,-0.0953,22.8000,-3.7800,-36.9600,
4.492596,0.0635,1.2400,-1.4982,0.7164,0.0874,0.0064,22.8000,-3.7800,-36.9600,
4.513372,0.0635,1.2400,-1.4982,0.5151,-0.4197,0.0607,22.8000,-3.7800,-36.9600,
4.533539,0.0635,1.2400,-1.4982,0.5151,-0.4197,0.0607,22.8000,-3.7800,-36.9600,
4.533983,0.0635,1.2400,-1.4982,0.4202,-0.8155,-0.3196,22.8000,-3.7800,-36.9600,
4.534319,5.7619,0.2969,0.0231,0.4202,-0.8155,-0.3196,22.8000,-3.7800,-36.9600,
4.537855,5.7619,0.2969,0.0231,0.4202,-0.8155,-0.3196,22.0800,-3.5400,-37.6200,
4.554155,5.7619,0.2969,0.0231,0.5651,-0.1198,-0.9348,22.0800,-3.5400,-37.6200,
4.574449,5.7619,0.2969,0.0231,0.6125,1.2000,-1.0248,22.0800,-3.5400,-37.6200,
4.595307,5.7619,0.2969,0.0231,0.6125,1.2000,-1.0248,22.0800,-3.5400,-37.6200,
4.596124,5.7619,0.2969,0.0231,0.5310,1.7444,-0.8240,22.0800,-3.5400,-37.6200,
4.596671,-1.5821,0.1130,-0.1289,0.5310,1.7444,-0.8240,22.0800,-3.5400,-37.6200,
4.599396,-1.5821,0.1130,-0.1289,0.5310,1.7444,-0.8240,21.5400,-3.0000,-38.1000,
4.615538,-1.5821,0.1130,-0.1289,0.3292,1.2820,-0.6253,21.5400,-3.0000,-38.1000,
4.635726,-1.5821,0.1130,-0.1289,0.1401,0.2999,-0.3696,21.5400,-3.0000,-38.1000,
4.656696,-1.5821,0.1130,-0.1289,0.1401,0.2999,-0.3696,21.5400,-3.0000,-38.1000,
4.657747,-1.5821,0.1130,-0.1289,-0.1188,0.3356,-0.1688,21.5400,-3.0000,-38.1000,
4.658263,-0.8980,-1.7157,0.5194,-0.1188,0.3356,-0.1688,21.5400,-3.0000,-38.1000,
4.661606,-0.8980,-1.7157,0.5194,-0.1188,0.3356,-0.1688,21.4200,-3.4200,-37.0800,
4.679130,-0.8980,-1.7157,0.5194,-0.4868,0.6701,0.0373,21.4200,-3.4200,-37.0800,
4.698153,-0.8980,-1.7157,0.5194,-0.6605,0.2993,0.4272,21.4200,-3.4200,-37.0800,
4.718338,-0.8980,-1.7157,0.5194,-0.6605,0.2993,0.4272,21.4200,-3.4200,-37.0800,
4.719238,-0.8980,-1.7157,0.5194,-0.6589,-0.1625,0.7180,21.4200,-3.4200,-37.0800,
4.719927,1.4189,-1.8232,-0.2959,-0.6589,-0.1625,0.7180,21.4200,-3.4200,-37.0800,
4.722681,1.4189,-1.8232,-0.2959,-0.6589,-0.1625,0.7180,21.8400,-3.9000,-36.2400,
4.739011,1.4189,-1.8232,-0.2959,-0.5257,-0.6226,0.8128,21.8400,-3.9000,-36.2400,
4.759342,1.4189,-1.8232,-0.2959,-0.1843,-0.7835,0.7958,21.8400,-3.9000,-36.2400,
4.779653,1.4189,-1.8232,-0.2959,-0.1843,-0.7835,0.7958,21.8400,-3.9000,-36.2400,
4.780256,1.4189,-1.8232,-0.2959,0.2141,-0.6759,0.7446,21.8400,-3.9000,-36.2400,
4.780529,1.5471,0.6272,2.9822,0.2141,-0.6759,0.7446,21.8400,-3.9000,-36.2400,
4.784048,1.5471,0.6272,2.9822,0.2141,-0.6759,0.7446,22.2600,-4.2000,-35.8800,
4.800337,1.5471,0.6272,2.9822,0.5507,-0.5720,0.5997,22.2600,-4.2000,-35.8800,
4.821280,1.5471,0.6272,2.9822,0.6365,-0.3510,0.2189,22.2600,-4.2000,-35.8800,
4.841821,1.5471,0.6272,2.9822,0.6365,-0.3510,0.2189,22.2600,-4.2000,-35.8800,
4.842788,1.5471,0.6272,2.9822,0.2397,0.2221,-0.4325,22.2600,-4.2000,-35.8800,
4.843358,4.8006,1.8771,-2.9206,0.2397,0.2221,-0.4325,22.2600,-4.2000,-35.8800,
4.846336,4.8006,1.8771,-2.9206,0.2397,0.2221,-0.4325,22.6200,-4.4400,-35.8800,
4.862732,4.8006,1.8771,-2.9206,-0.1150,0.4607,-0.9444,22.6200,-4.4400,-35.8800,
4.882740,4.8006,1.8771,-2.9206,-0.1790,0.6301,-1.1702,22.6200,-4.4400,-35.8800,
4.902966,4.8006,1.8771,-2.9206,-0.1790,0.6301,-1.1702,22.6200,-4.4400,-35.8800,
4.904041,4.8006,1.8771,-2.9206,-0.2013,0.9481,-1.1244,22.6200,-4.4400,-35.8800,
4.904743,-0.0695,1.1982,-0.4004,-0.2013,0.9481,-1.1244,22.6200,-4.4400,-35.8800,
4.907306,-0.0695,1.1982,-0.4004,-0.2013,0.9481,-1.1244,22.6800,-4.6800,-36.4800,
4.923368,-0.0695,1.1982,-0.4004,-0.3132,0.7148,-0.9135,22.6800,-4.6800,-36.4800,
4.944237,-0.0695,1.1982,-0.4004,-0.3132,0.7148,-0.9135,22.6800,-4.6800,-36.4800,
4.945293,-0.0695,1.1982,-0.4004,-0.4373,0.1603,-0.5087,22.6800,-4.6800,-36.4800,
4.945881,-3.3355,1.5078,-0.6592,-0.4373,0.1603,-0.5087,22.6800,-4.6800,-36.4800,
4.964094,-3.3355,1.5078,-0.6592,-0.4373,0.1603,-0.5087,22.6800,-4.6800,-36.4800,
4.964971,-3.3355,1.5078,-0.6592,-0.5689,-0.1443,-0.1358,22.6800,-4.6800,-36.4800,
4.965503,-3.9029,1.0396,-0.5308,-0.5689,-0.1443,-0.1358,22.6800,-4.6800,-36.4800,
4.968979,-3.9029,1.0396,-0.5308,-0.5689,-0.1443,-0.1358,22.8000,-4.5000,-37.0800,
4.984534,-3.9029,1.0396,-0.5308,-0.5689,-0.1443,-0.1358,22.8000,-4.5000,-37.0800,
4.985188,-3.9029,1.0396,-0.5308,-0.6248,-0.3846,0.2221,22.8000,-4.5000,-37.0800,
4.985555,-3.0916,0.4131,-0.3850,-0.6248,-0.3846,0.2221,22.8000,-4.5000,-37.0800,
5.005358,-3.0916,0.4131,-0.3850,-0.6248,-0.3846,0.2221,22.8000,-4.5000,-37.0800,
5.006410,-3.0916,0.4131,-0.3850,-0.6844,-0.5140,0.3872,22.8000,-4.5000,-37.0800,
5.006989,-1.4256,0.1902,-0.6246,-0.6844,-0.5140,0.3872,22.8000,-4.5000,-37.0800,
5.026137,-1.4256,0.1902,-0.6246,-0.6844,-0.5140,0.3872,22.8000,-4.5000,-37.0800,
5.027256,-1.4256,0.1902,-0.6246,-0.6179,-0.2525,0.3606,22.8000,-4.5000,-37.0800,
5.027920,0.3359,1.8115,-0.0549,-0.6179,-0.2525,0.3606,22.8000,-4.5000,-37.0800,
5.030134,0.3359,1.8115,-0.0549,-0.6179,-0.2525,0.3606,22.9200,-4.1400,-37.2000,
5.046142,0.3359,1.8115,-0.0549,-0.6179,-0.2525,0.3606,22.9200,-4.1400,-37.2000,
5.046962,0.3359,1.8115,-0.0549,-0.4969,-0.1992,0.2637,22.9200,-4.1400,-37.2000,
5.047486,0.7031,1.6747,0.3087,-0.4969,-0.1992,0.2637,22.9200,-4.1400,-37.2000,
5.067800,0.7031,1.6747,0.3087,-0.4969,-0.1992,0.2637,22.9200,-4.1400,-37.2000,
5.069180,0.7031,1.6747,0.3087,-0.3105,-0.2178,0.2301,22.9200,-4.1400,-37.2000,
5.070022,-0.0898,1.0477,0.2528,-0.3105,-0.2178,0.2301,22.9200,-4.1400,-37.2000,
5.087262,-0.0898,1.0477,0.2528,-0.3105,-0.2178,0.2301,22.9200,-4.1400,-37.2000,
5.087956,-0.0898,1.0477,0.2528,-0.2194,0.0634,0.2178,22.9200,-4.1400,-37.2000,
5.088350,-0.8621,0.6972,-0.2446,-0.2194,0.0634,0.2178,22.9200,-4.1400,-37.2000,
5.091927,-0.8621,0.6972,-0.2446,-0.2194,0.0634,0.2178,23.0400,-3.4800,-37.5000,
5.107713,-0.8621,0.6972,-0.2446,-0.2194,0.0634,0.2178,23.0400,-3.4800,-37.5000,
5.108687,-0.8621,0.6972,-0.2446,0.0256,0.1917,0.2445,23.0400,-3.4800,-37.5000,
5.109413,-1.8764,0.5697,0.3920,0.0256,0.1917,0.2445,23.0400,-3.4800,-37.5000,
5.128566,-1.8764,0.5697,0.3920,0.0256,0.1917,0.2445,23.0400,-3.4800,-37.5000,
5.129663,-1.8764,0.5697,0.3920,0.2466,0.2562,0.3025,23.0400,-3.4800,-37.5000,
5.130294,-2.4882,0.3487,-0.3996,0.2466,0.2562,0.3025,23.0400,-3.4800,-37.5000,
5.149010,-2.4882,0.3487,-0.3996,0.2466,0.2562,0.3025,23.0400,-3.4800,-37.5000,
5.149685,-2.4882,0.3487,-0.3996,0.3755,0.1422,0.3382,23.0400,-3.4800,-37.5000,
5.150113,-2.1468,0.0968,-1.0424,0.3755,0.1422,0.3382,23.0400,-3.4800,-37.5000,
5.152995,-2.1468,0.0968,-1.0424,0.3755,0.1422,0.3382,22.9800,-2.7600,-37.8000,
5.169498,-2.1468,0.0968,-1.0424,0.3755,0.1422,0.3382,22.9800,-2.7600,-37.8000,
5.170430,-2.1468,0.0968,-1.0424,0.5326,0.0389,0.2839,22.9800,-2.7600,-37.8000,
5.170884,-1.3641,-0.4046,-0.3536,0.5326,0.0389,0.2839,22.9800,-2.7600,-37.8000,
5.190003,-1.3641,-0.4046,-0.3536,0.5326,0.0389,0.2839,22.9800,-2.7600,-37.8000,
5.190775,-1.5951,-0.7558,-0.3258,0.5326,0.0389,0.2839,22.9800,-2.7600,-37.8000,
5.191370,-1.5951,-0.7558,-0.3258,0.7132,0.1795,0.2658,22.9800,-2.7600,-37.8000,
5.210903,-1.5951,-0.7558,-0.3258,0.7132,0.1795,0.2658,22.9800,-2.7600,-37.8000,
5.211999,-1.5951,-0.7558,-0.3258,0.7191,0.1896,0.3696,22.9800,-2.7600,-37.8000,
5.212778,-1.6297,-0.8228,-0.7329,0.7191,0.1896,0.3696,22.9800,-2.7600,-37.8000,
5.215305,-1.6297,-0.8228,-0.7329,0.7191,0.1896,0.3696,22.7400,-2.1600,-37.8600,
5.231196,-1.6297,-0.8228,-0.7329,0.7191,0.1896,0.3696,22.7400,-2.1600,-37.8600,
5.232190,-1.6297,-0.8228,-0.7329,0.7531,0.0511,0.4080,22.7400,-2.1600,-37.8600,
5.232948,-1.1030,-1.0624,-0.8078,0.7531,0.0511,0.4080,22.7400,-2.1600,-37.8600,
5.251941,-1.1030,-1.0624,-0.8078,0.7531,0.0511,0.4080,22.7400,-2.1600,-37.8600,
5.252784,-1.1030,-1.0624,-0.8078,0.7409,0.0309,0.4677,22.7400,-2.1600,-37.8600,
5.253321,-1.1064,-1.2149,-0.7460,0.7409,0.0309,0.4677,22.7400,-2.1600,-37.8600,
5.272701,-1.1064,-1.2149,-0.7460,0.7409,0.0309,0.4677,22.7400,-2.1600,-37.8600,
5.273896,-1.1064,-1.2149,-0.7460,0.7404,0.0394,0.5044,22.7400,-2.1600,-37.8600,
5.274645,-0.0035,-1.6225,-0.7025,0.7404,0.0394,0.5044,22.7400,-2.1600,-37.8600,
5.277810,-0.0035,-1.6225,-0.7025,0.7404,0.0394,0.5044,22.3800,-2.7600,-38.1000,
5.292310,-0.0035,-1.6225,-0.7025,0.7404,0.0394,0.5044,22.3800,-2.7600,-38.1000,
5.292933,-0.0035,-1.6225,-0.7025,0.6418,0.1806,0.4245,22.3800,-2.7600,-38.1000,
5.293291,1.3100,-1.1743,-0.9974,0.6418,0.1806,0.4245,22.3800,-2.7600,-38.1000,
5.314972,1.3100,-1.1743,-0.9974,0.6418,0.1806,0.4245,22.3800,-2.7600,-38.1000,
5.315962,1.3100,-1.1743,-0.9974,0.6072,0.2956,0.3201,22.3800,-2.7600,-38.1000,
5.316527,0.9015,-0.8347,0.0278,0.6072,0.2956,0.3201,22.3800,-2.7600,-38.1000,
5.334562,0.9015,-0.8347,0.0278,0.6072,0.2956,0.3201,22.3800,-2.7600,-38.1000,
5.335557,0.9015,-0.8347,0.0278,0.6754,0.5726,0.3073,22.3800,-2.7600,-38.1000,
5.336180,0.3388,-0.3769,0.0182,0.6754,0.5726,0.3073,22.3800,-2.7600,-38.1000,
5.338389,0.3388,-0.3769,0.0182,0.6754,0.5726,0.3073,22.2000,-4.3800,-37.6200,
5.354436,0.3388,-0.3769,0.0182,0.6754,0.5726,0.3073,22.2000,-4.3800,-37.6200,
5.355312,0.3388,-0.3769,0.0182,0.7324,0.8810,0.2535,22.2000,-4.3800,-37.6200,
5.355779,0.0288,-0.5037,-0.4538,0.7324,0.8810,0.2535,22.2000,-4.3800,-37.6200,
5.374908,0.0288,-0.5037,-0.4538,0.7324,0.8810,0.2535,22.2000,-4.3800,-37.6200,
5.376404,0.0288,-0.5037,-0.4538,0.8613,0.8693,0.1816,22.2000,-4.3800,-37.6200,
5.377322,0.4888,0.3135,-0.7242,0.8613,0.8693,0.1816,22.2000,-4.3800,-37.6200,
5.395470,0.4888,0.3135,-0.7242,0.8613,0.8693,0.1816,22.2000,-4.3800,-37.6200,
5.396378,0.4888,0.3135,-0.7242,0.7739,0.9374,-0.0623,22.2000,-4.3800,-37.6200,
5.397111,1.4331,0.2475,-2.2904,0.7739,0.9374,-0.0623,22.2000,-4.3800,-37.6200,
5.400254,1.4331,0.2475,-2.2904,0.7739,0.9374,-0.0623,21.7200,-6.0000,-36.6600,
5.416186,1.4331,0.2475,-2.2904,0.7739,0.9374,-0.0623,21.7200,-6.0000,-36.6600,
5.417404,1.4331,0.2475,-2.2904,0.6029,1.0631,-0.3217,21.7200,-6.0000,-36.6600,
5.418151,1.8028,0.5385,-2.7515,0.6029,1.0631,-0.3217,21.7200,-6.0000,-36.6600,
5.436375,1.8028,0.5385,-2.7515,0.6029,1.0631,-0.3217,21.7200,-6.0000,-36.6600,
5.437423,1.8028,0.5385,-2.7515,0.4421,1.0605,-0.5017,21.7200,-6.0000,-36.6600,
5.438034,1.4959,0.5898,-2.1559,0.4421,1.0605,-0.5017,21.7200,-6.0000,-36.6600,
5.457270,1.4959,0.5898,-2.1559,0.4421,1.0605,-0.5017,21.7200,-6.0000,-36.6600,
5.458151,1.4959,0.5898,-2.1559,0.3430,1.0344,-0.6621,21.7200,-6.0000,-36.6600,
5.458744,1.8121,0.3198,-1.2495,0.3430,1.0344,-0.6621,21.7200,-6.0000,-36.6600,
5.461735,1.8121,0.3198,-1.2495,0.3430,1.0344,-0.6621,21.5400,-8.5200,-36.0000,
5.479030,1.8121,0.3198,-1.2495,0.3430,1.0344,-0.6621,21.5400,-8.5200,-36.0000,
5.480291,1.8121,0.3198,-1.2495,0.3968,0.9827,-0.8884,21.5400,-8.5200,-36.0000,
5.481462,2.3791,0.6600,0.2358,0.3968,0.9827,-0.8884,21.5400,-8.5200,-36.0000,
5.498105,2.3791,0.6600,0.2358,0.3968,0.9827,-0.8884,21.5400,-8.5200,-36.0000,
5.499039,1.1930,0.9536,0.1141,0.3968,0.9827,-0.8884,21.5400,-8.5200,-36.0000,
5.499845,1.1930,0.9536,0.1141,0.4879,1.1457,-0.9273,21.5400,-8.5200,-36.0000,
5.517836,1.1930,0.9536,0.1141,0.4879,1.1457,-0.9273,21.5400,-8.5200,-36.0000,
5.518749,1.1930,0.9536,0.1141,0.4368,1.1894,-0.7851,21.5400,-8.5200,-36.0000,
5.519434,0.2646,1.0947,0.3824,0.4368,1.1894,-0.7851,21.5400,-8.5200,-36.0000,
5.522663,0.2646,1.0947,0.3824,0.4368,1.1894,-0.7851,22.5000,-10.2600,-34.5600,
5.539069,0.2646,1.0947,0.3824,0.4368,1.1894,-0.7851,22.5000,-10.2600,-34.5600,
5.540231,0.2646,1.0947,0.3824,0.5071,0.9667,-0.5736,22.5000,-10.2600,-34.5600,
5.541088,0.9169,0.9331,4.6723,0.5071,0.9667,-0.5736,22.5000,-10.2600,-34.5600,
5.559983,0.9169,0.9331,4.6723,0.5071,0.9667,-0.5736,22.5000,-10.2600,-34.5600,
5.560957,0.9169,0.9331,4.6723,0.8549,0.9768,-0.3313,22.5000,-10.2600,-34.5600,
5.561743,0.4429,0.0896,3.2752,0.8549,0.9768,-0.3313,22.5000,-10.2600,-34.5600,
5.580156,0.4429,0.0896,3.2752,0.8549,0.9768,-0.3313,22.5000,-10.2600,-34.5600,
5.581164,0.4429,0.0896,3.2752,0.6456,0.7739,0.0511,22.5000,-10.2600,-34.5600,
5.581573,0.7520,0.8081,1.9885,0.6456,0.7739,0.0511,22.5000,-10.2600,-34.5600,
5.584268,0.7520,0.8081,1.9885,0.6456,0.7739,0.0511,24.3600,-10.8600,-33.0600,
5.600127,0.7520,0.8081,1.9885,0.6456,0.7739,0.0511,24.3600,-10.8600,-33.0600,
5.600651,0.7520,0.8081,1.9885,0.7835,1.2884,0.7238,24.3600,-10.8600,-33.0600,
5.601062,-4.1428,1.0474,2.5258,0.7835,1.2884,0.7238,24.3600,-10.8600,-33.0600,
5.620915,-4.1428,1.0474,2.5258,0.7835,1.2884,0.7238,24.3600,-10.8600,-33.0600,
5.621830,-4.1428,1.0474,2.5258,0.6333,1.0642,1.3204,24.3600,-10.8600,-33.0600,
5.622268,-2.4183,0.7407,-0.2552,0.6333,1.0642,1.3204,24.3600,-10.8600,-33.0600,
5.641102,-2.4183,0.7407,-0.2552,0.6333,1.0642,1.3204,24.3600,-10.8600,-33.0600,
5.641953,-2.4183,0.7407,-0.2552,0.5486,0.7020,1.3582,24.3600,-10.8600,-33.0600,
5.642487,-0.1602,1.8388,1.8309,0.5486,0.7020,1.3582,24.3600,-10.8600,-33.0600,
5.645654,-0.1602,1.8388,1.8309,0.5486,0.7020,1.3582,26.8800,-11.9400,-31.6200,
5.663331,-0.1602,1.8388,1.8309,0.5486,0.7020,1.3582,26.8800,-11.9400,-31.6200,
5.664931,-0.1602,1.8388,1.8309,0.3553,0.6296,1.3534,26.8800,-11.9400,-31.6200,
5.665682,-1.7759,0.7041,-0.9934,0.3553,0.6296,1.3534,26.8800,-11.9400,-31.6200,
5.682127,-1.7759,0.7041,-0.9934,0.3553,0.6296,1.3534,26.8800,-11.9400,-31.6200,
5.683116,-1.7759,0.7041,-0.9934,-0.1822,0.1273,1.5404,26.8800,-11.9400,-31.6200,
5.683618,-1.5360,-0.1058,-2.1515,-0.1822,0.1273,1.5404,26.8800,-11.9400,-31.6200,
5.702639,-1.5360,-0.1058,-2.1515,-0.1822,0.1273,1.5404,26.8800,-11.9400,-31.6200,
5.703833,-1.5360,-0.1058,-2.1515,-0.4682,-0.1832,1.6293,26.8800,-11.9400,-31.6200,
5.704426,0.7231,-0.3339,-0.5657,-0.4682,-0.1832,1.6293,26.8800,-11.9400,-31.6200,
5.707110,0.7231,-0.3339,-0.5657,-0.4682,-0.1832,1.6293,29.5800,-12.7800,-29.5800,
5.723060,0.7231,-0.3339,-0.5657,-0.4682,-0.1832,1.6293,29.5800,-12.7800,-29.5800,
5.723807,0.7231,-0.3339,-0.5657,-0.6280,-0.2338,1.5617,29.5800,-12.7800,-29.5800,
5.724413,2.3890,-0.5624,-0.6467,-0.6280,-0.2338,1.5617,29.5800,-12.7800,-29.5800,
5.743648,2.3890,-0.5624,-0.6467,-0.6280,-0.2338,1.5617,29.5800,-12.7800,-29.5800,
5.744451,2.3890,-0.5624,-0.6467,-0.8879,-0.0075,1.4807,29.5800,-12.7800,-29.5800,
5.745105,3.4142,0.1807,-0.9931,-0.8879,-0.0075,1.4807,29.5800,-12.7800,-29.5800,
5.763906,3.4142,0.1807,-0.9931,-0.8879,-0.0075,1.4807,29.5800,-12.7800,-29.5800,
5.764590,3.4142,0.1807,-0.9931,-1.2107,0.3649,1.2757,29.5800,-12.7800,-29.5800,
5.765130,4.0298,1.5102,-0.5800,-1.2107,0.3649,1.2757,29.5800,-12.7800,-29.5800,
5.768153,4.0298,1.5102,-0.5800,-1.2107,0.3649,1.2757,30.0600,-14.8200,-27.9600,
5.784431,4.0298,1.5102,-0.5800,-1.2107,0.3649,1.2757,30.0600,-14.8200,-27.9600,
5.785669,4.0298,1.5102,-0.5800,-1.4040,0.7702,0.9726,30.0600,-14.8200,-27.9600,
5.786284,3.0515,2.2182,0.4969,-1.4040,0.7702,0.9726,30.0600,-14.8200,-27.9600,
5.804993,3.0515,2.2182,0.4969,-1.4040,0.7702,0.9726,30.0600,-14.8200,-27.9600,
5.805722,3.0515,2.2182,0.4969,-1.6831,1.0573,0.7526,30.0600,-14.8200,-27.9600,
5.806286,0.3363,0.9274,-0.0548,-1.6831,1.0573,0.7526,30.0600,-14.8200,-27.9600,
5.825649,0.3363,0.9274,-0.0548,-1.6831,1.0573,0.7526,30.0600,-14.8200,-27.9600,
5.826492,0.3363,0.9274,-0.0548,-2.0964,0.9236,0.7942,30.0600,-14.8200,-27.9600,
5.827140,-2.3371,-0.4491,-0.4878,-2.0964,0.9236,0.7942,30.0600,-14.8200,-27.9600,
5.830237,-2.3371,-0.4491,-0.4878,-2.0964,0.9236,0.7942,29.9400,-17.0400,-27.4800,
5.846515,-2.3371,-0.4491,-0.4878,-2.0964,0.9236,0.7942,29.9400,-17.0400,-27.4800,
5.847587,-2.3371,-0.4491,-0.4878,-2.3185,0.6818,0.9944,29.9400,-17.0400,-27.4800,
5.848286,-3.3926,-0.6361,0.4496,-2.3185,0.6818,0.9944,29.9400,-17.0400,-27.4800,
5.867711,-3.3926,-0.6361,0.4496,-2.3185,0.6818,0.9944,29.9400,-17.0400,-27.4800,
5.868683,-3.3926,-0.6361,0.4496,-2.4368,0.2908,1.2405,29.9400,-17.0400,-27.4800,
5.869424,-2.1239,-0.9231,2.1503,-2.4368,0.2908,1.2405,29.9400,-17.0400,-27.4800,
5.887498,-2.1239,-0.9231,2.1503,-2.4368,0.2908,1.2405,29.9400,-17.0400,-27.4800,
5.888470,-2.1239,-0.9231,2.1503,-2.2690,0.2216,1.3097,29.9400,-17.0400,-27.4800,
5.889238,-1.7090,-0.6633,1.9225,-2.2690,0.2216,1.3097,29.9400,-17.0400,-27.4800,
5.891858,-1.7090,-0.6633,1.9225,-2.2690,0.2216,1.3097,29.4600,-18.4200,-26.5200,
5.908065,-1.7090,-0.6633,1.9225,-2.2690,0.2216,1.3097,29.4600,-18.4200,-26.5200,
5.909350,-1.7090,-0.6633,1.9225,-2.2482,-0.0905,1.3305,29.4600,-18.4200,-26.5200,
5.910083,-1.2628,-0.5414,0.8657,-2.2482,-0.0905,1.3305,29.4600,-18.4200,-26.5200,
5.928003,-1.2628,-0.5414,0.8657,-2.2482,-0.0905,1.3305,29.4600,-18.4200,-26.5200,
5.928428,-1.2628,-0.5414,0.8657,-2.3159,-0.6226,1.3305,29.4600,-18.4200,-26.5200,
5.928695,-0.2853,-1.1589,0.5197,-2.3159,-0.6226,1.3305,29.4600,-18.4200,-26.5200,
5.948875,-0.2853,-1.1589,0.5197,-2.3159,-0.6226,1.3305,29.4600,-18.4200,-26.5200,
5.949321,-0.2853,-1.1589,0.5197,-2.3026,-0.7047,1.2522,29.4600,-18.4200,-26.5200,
5.949682,0.2306,-1.7986,0.3160,-2.3026,-0.7047,1.2522,29.4600,-18.4200,-26.5200,
5.953645,0.2306,-1.7986,0.3160,-2.3026,-0.7047,1.2522,28.6800,-18.9000,-28.3200,
5.969764,0.2306,-1.7986,0.3160,-2.3026,-0.7047,1.2522,28.6800,-18.9000,-28.3200,
5.970688,0.2306,-1.7986,0.3160,-2.0080,-0.1246,1.1734,28.6800,-18.9000,-28.3200,
5.971243,0.5723,-1.7862,0.6999,-2.0080,-0.1246,1.1734,28.6800,-18.9000,-28.3200,
5.990527,0.5723,-1.7862,0.6999,-2.0080,-0.1246,1.1734,28.6800,-18.9000,-28.3200,
5.991839,0.5723,-1.7862,0.6999,-1.8046,0.4607,1.0301,28.6800,-18.9000,-28.3200,
5.992522,0.6672,-1.1768,0.0082,-1.8046,0.4607,1.0301,28.6800,-18.9000,-28.3200,
6.010809,0.6672,-1.1768,0.0082,-1.8046,0.4607,1.0301,28.6800,-18.9000,-28.3200,
6.011878,0.6672,-1.1768,0.0082,-1.8003,0.4890,0.9023,28.6800,-18.9000,-28.3200,
6.012541,0.4981,-0.7461,-0.0210,-1.8003,0.4890,0.9023,28.6800,-18.9000,-28.3200,
6.014925,0.4981,-0.7461,-0.0210,-1.8003,0.4890,0.9023,27.9000,-17.5800,-30.1800,
6.031139,0.4981,-0.7461,-0.0210,-1.8003,0.4890,0.9023,27.9000,-17.5800,-30.1800,
6.031548,0.4981,-0.7461,-0.0210,-1.7284,0.2860,0.8133,27.9000,-17.5800,-30.1800,
6.031817,0.0975,-0.6292,-0.1093,-1.7284,0.2860,0.8133,27.9000,-17.5800,-30.1800,
6.052382,0.0975,-0.6292,-0.1093,-1.7284,0.2860,0.8133,27.9000,-17.5800,-30.1800,
6.053550,0.0975,-0.6292,-0.1093,-1.6410,0.2807,0.8123,27.9000,-17.5800,-30.1800,
6.054195,-0.2353,-0.7126,-0.4592,-1.6410,0.2807,0.8123,27.9000,-17.5800,-30.1800,
6.072364,-0.2353,-0.7126,-0.4592,-1.6410,0.2807,0.8123,27.9000,-17.5800,-30.1800,
6.073553,-0.2353,-0.7126,-0.4592,-1.5867,0.2471,0.7601,27.9000,-17.5800,-30.1800,
6.074338,-0.1221,-1.0551,-0.1206,-1.5867,0.2471,0.7601,27.9000,-17.5800,-30.1800,
6.077048,-0.1221,-1.0551,-0.1206,-1.5867,0.2471,0.7601,26.8200,-15.6000,-31.5600,
6.093330,-0.1221,-1.0551,-0.1206,-1.5867,0.2471,0.7601,26.8200,-15.6000,-31.5600,
6.094413,-0.6581,-1.2376,-0.6782,-1.5867,0.2471,0.7601,26.8200,-15.6000,-31.5600,
6.095171,-0.6581,-1.2376,-0.6782,-1.6016,0.3052,0.7308,26.8200,-15.6000,-31.5600,
6.113168,-0.6581,-1.2376,-0.6782,-1.6016,0.3052,0.7308,26.8200,-15.6000,-31.5600,
6.113766,-0.6581,-1.2376,-0.6782,-1.5313,0.2466,0.6898,26.8200,-15.6000,-31.5600,
6.114060,-0.2737,-1.5110,-0.0188,-1.5313,0.2466,0.6898,26.8200,-15.6000,-31.5600,
6.134876,-0.2737,-1.5110,-0.0188,-1.5313,0.2466,0.6898,26.8200,-15.6000,-31.5600,
6.135772,-0.4085,-1.2126,-0.8018,-1.5313,0.2466,0.6898,26.8200,-15.6000,-31.5600,
6.136403,-0.4085,-1.2126,-0.8018,-1.4440,0.3393,0.7697,26.8200,-15.6000,-31.5600,
6.138556,-0.4085,-1.2126,-0.8018,-1.4440,0.3393,0.7697,25.5600,-13.6800,-34.0800,
6.154640,-0.4085,-1.2126,-0.8018,-1.4440,0.3393,0.7697,25.5600,-13.6800,-34.0800,
6.155580,-0.4085,-1.2126,-0.8018,-1.4647,0.3595,0.9060,25.5600,-13.6800,-34.0800,
6.156090,-0.2960,-1.0904,-0.9833,-1.4647,0.3595,0.9060,25.5600,-13.6800,-34.0800,
6.175021,-0.2960,-1.0904,-0.9833,-1.4647,0.3595,0.9060,25.5600,-13.6800,-34.0800,
6.175874,-0.2960,-1.0904,-0.9833,-1.3555,0.8357,0.8325,25.5600,-13.6800,-34.0800,
6.176426,-0.4802,-0.7670,-1.2897,-1.3555,0.8357,0.8325,25.5600,-13.6800,-34.0800,
6.195673,-0.4802,-0.7670,-1.2897,-1.3555,0.8357,0.8325,25.5600,-13.6800,-34.0800,
6.196455,-0.4802,-0.7670,-1.2897,-1.1947,1.3071,0.5965,25.5600,-13.6800,-34.0800,
6.197108,-0.9114,-0.6550,-0.4387,-1.1947,1.3071,0.5965,25.5600,-13.6800,-34.0800,
6.199902,-0.9114,-0.6550,-0.4387,-1.1947,1.3071,0.5965,24.3600,-11.2200,-34.5000,
6.215671,-0.9114,-0.6550,-0.4387,-1.1947,1.3071,0.5965,24.3600,-11.2200,-34.5000,
6.216473,-0.9114,-0.6550,-0.4387,-0.9854,1.3263,0.2333,24.3600,-11.2200,-34.5000,
6.217102,-0.8117,-0.5474,0.1410,-0.9854,1.3263,0.2333,24.3600,-11.2200,-34.5000,
6.235855,-0.8117,-0.5474,0.1410,-0.9854,1.3263,0.2333,24.3600,-11.2200,-34.5000,
6.236345,-0.8117,-0.5474,0.1410,-0.8373,1.0525,-0.1427,24.3600,-11.2200,-34.5000,
6.236632,-0.8566,-0.1566,0.3505,-0.8373,1.0525,-0.1427,24.3600,-11.2200,-34.5000,
6.257406,-0.8566,-0.1566,0.3505,-0.8373,1.0525,-0.1427,24.3600,-11.2200,-34.5000,
6.258171,-0.8566,-0.1566,0.3505,-0.7569,1.0424,-0.0655,24.3600,-11.2200,-34.5000,
6.258632,-0.9281,0.3404,-0.2834,-0.7569,1.0424,-0.0655,24.3600,-11.2200,-34.5000,
6.261499,-0.9281,0.3404,-0.2834,-0.7569,1.0424,-0.0655,24.7200,-9.0600,-34.8600,
6.278546,-0.9281,0.3404,-0.2834,-0.7569,1.0424,-0.0655,24.7200,-9.0600,-34.8600,
6.279166,-0.9281,0.3404,-0.2834,-0.7728,0.9380,0.2147,24.7200,-9.0600,-34.8600,
6.279611,-0.6314,0.9823,-0.5385,-0.7728,0.9380,0.2147,24.7200,-9.0600,-34.8600,
6.298856,-0.6314,0.9823,-0.5385,-0.7728,0.9380,0.2147,24.7200,-9.0600,-34.8600,
6.299890,-0.6314,0.9823,-0.5385,-0.9374,0.4330,0.4107,24.7200,-9.0600,-34.8600,
6.300485,-0.7724,1.4422,-0.2670,-0.9374,0.4330,0.4107,24.7200,-9.0600,-34.8600,
6.318823,-0.7724,1.4422,-0.2670,-0.9374,0.4330,0.4107,24.7200,-9.0600,-34.8600,
6.319795,-0.7724,1.4422,-0.2670,-0.9252,-0.0623,0.4224,24.7200,-9.0600,-34.8600,
6.320386,-1.4539,1.5108,0.4094,-0.9252,-0.0623,0.4224,24.7200,-9.0600,-34.8600,
6.323059,-1.4539,1.5108,0.4094,-0.9252,-0.0623,0.4224,25.8600,-6.7800,-33.9000,
6.338666,-1.4539,1.5108,0.4094,-0.9252,-0.0623,0.4224,25.8600,-6.7800,-33.9000,
6.339192,-1.4539,1.5108,0.4094,-0.7643,-0.2210,0.4128,25.8600,-6.7800,-33.9000,
6.339521,-1.8379,1.0952,0.6871,-0.7643,-0.2210,0.4128,25.8600,-6.7800,-33.9000,
6.359922,-1.8379,1.0952,0.6871,-0.7643,-0.2210,0.4128,25.8600,-6.7800,-33.9000,
6.360686,-1.4941,0.4637,0.4030,-0.7643,-0.2210,0.4128,25.8600,-6.7800,-33.9000,
6.361273,-1.4941,0.4637,0.4030,-0.6424,-0.1550,0.4730,25.8600,-6.7800,-33.9000,
6.380532,-1.4941,0.4637,0.4030,-0.6424,-0.1550,0.4730,25.8600,-6.7800,-33.9000,
6.381409,-1.4941,0.4637,0.4030,-0.6365,-0.4224,0.5731,25.8600,-6.7800,-33.9000,
6.381981,-0.6045,-0.2598,0.3934,-0.6365,-0.4224,0.5731,25.8600,-6.7800,-33.9000,
6.384965,-0.6045,-0.2598,0.3934,-0.6365,-0.4224,0.5731,27.2400,-4.5600,-33.1200,
6.400938,-0.6045,-0.2598,0.3934,-0.6365,-0.4224,0.5731,27.2400,-4.5600,-33.1200,
6.401891,-0.6045,-0.2598,0.3934,-0.6919,-0.9800,0.7393,27.2400,-4.5600,-33.1200,
6.402527,0.2077,-0.7642,0.8159,-0.6919,-0.9800,0.7393,27.2400,-4.5600,-33.1200,
6.421255,0.2077,-0.7642,0.8159,-0.6919,-0.9800,0.7393,27.2400,-4.5600,-33.1200,
6.422158,0.2077,-0.7642,0.8159,-0.7308,-1.0866,0.9694,27.2400,-4.5600,-33.1200,
6.422744,1.0284,-0.6445,-0.0108,-0.7308,-1.0866,0.9694,27.2400,-4.5600,-33.1200,
6.441772,1.0284,-0.6445,-0.0108,-0.7308,-1.0866,0.9694,27.2400,-4.5600,-33.1200,
6.442732,1.7567,0.5202,-0.0335,-0.7308,-1.0866,0.9694,27.2400,-4.5600,-33.1200,
6.443586,1.7567,0.5202,-0.0335,-0.5454,-0.6216,1.0312,27.2400,-4.5600,-33.1200,
6.445716,1.7567,0.5202,-0.0335,-0.5454,-0.6216,1.0312,28.6800,-2.7000,-32.5800,
6.462068,1.7567,0.5202,-0.0335,-0.5454,-0.6216,1.0312,28.6800,-2.7000,-32.5800,
6.462766,1.7567,0.5202,-0.0335,-0.3015,0.2621,0.8128,28.6800,-2.7000,-32.5800,
6.463278,1.7956,1.8547,-1.4946,-0.3015,0.2621,0.8128,28.6800,-2.7000,-32.5800,
6.483361,1.7956,1.8547,-1.4946,-0.3015,0.2621,0.8128,28.6800,-2.7000,-32.5800,
6.484477,1.7956,1.8547,-1.4946,-0.1582,1.2437,0.6093,28.6800,-2.7000,-32.5800,
6.485374,1.4126,2.0618,-2.5887,-0.1582,1.2437,0.6093,28.6800,-2.7000,-32.5800,
6.503432,1.4126,2.0618,-2.5887,-0.1582,1.2437,0.6093,28.6800,-2.7000,-32.5800,
6.504378,1.5233,0.8502,-1.4795,-0.1582,1.2437,0.6093,28.6800,-2.7000,-32.5800,
6.505111,1.5233,0.8502,-1.4795,-0.1124,1.6884,0.5422,28.6800,-2.7000,-32.5800,
6.507254,1.5233,0.8502,-1.4795,-0.1124,1.6884,0.5422,28.7400,-1.6200,-32.7600,
6.523669,1.5233,0.8502,-1.4795,-0.1124,1.6884,0.5422,28.7400,-1.6200,-32.7600,
6.524889,1.5233,0.8502,-1.4795,-0.4639,1.4701,0.4304,28.7400,-1.6200,-32.7600,
6.525737,2.8316,-1.7049,-1.1461,-0.4639,1.4701,0.4304,28.7400,-1.6200,-32.7600,
6.543917,2.8316,-1.7049,-1.1461,-0.4639,1.4701,0.4304,28.7400,-1.6200,-32.7600,
6.544479,2.8316,-1.7049,-1.1461,-1.0621,1.2980,0.1593,28.7400,-1.6200,-32.7600,
6.544856,3.1014,-3.6517,-1.1907,-1.0621,1.2980,0.1593,28.7400,-1.6200,-32.7600,
6.564757,3.1014,-3.6517,-1.1907,-1.0621,1.2980,0.1593,28.7400,-1.6200,-32.7600,
6.565706,3.1014,-3.6517,-1.1907,-1.1872,1.2863,-0.0644,28.7400,-1.6200,-32.7600,
6.566255,1.6954,-2.6320,0.7692,-1.1872,1.2863,-0.0644,28.7400,-1.6200,-32.7600,
6.569216,1.6954,-2.6320,0.7692,-1.1872,1.2863,-0.0644,28.9200,-1.6800,-33.4200,
6.585458,1.6954,-2.6320,0.7692,-1.1872,1.2863,-0.0644,28.9200,-1.6800,-33.4200,
6.586223,1.6954,-2.6320,0.7692,-0.7814,1.1121,-0.0746,28.9200,-1.6800,-33.4200,
6.586754,-0.8320,0.9003,1.5385,-0.7814,1.1121,-0.0746,28.9200,-1.6800,-33.4200,
6.605862,-0.8320,0.9003,1.5385,-0.7814,1.1121,-0.0746,28.9200,-1.6800,-33.4200,
6.606980,-0.8320,0.9003,1.5385,-0.5358,1.0131,0.0921,28.9200,-1.6800,-33.4200,
6.607539,-1.7979,2.6760,0.5974,-0.5358,1.0131,0.0921,28.9200,-1.6800,-33.4200,
6.626445,-1.7979,2.6760,0.5974,-0.5358,1.0131,0.0921,28.9200,-1.6800,-33.4200,
6.627538,-2.6775,2.7393,3.1299,-0.5358,1.0131,0.0921,28.9200,-1.6800,-33.4200,
6.628203,-2.6775,2.7393,3.1299,-0.3531,0.3185,0.3238,28.9200,-1.6800,-33.4200,
6.630988,-2.6775,2.7393,3.1299,-0.3531,0.3185,0.3238,29.6400,-1.4400,-32.5200,
6.646355,-2.6775,2.7393,3.1299,-0.3531,0.3185,0.3238,29.6400,-1.4400,-32.5200,
6.646814,-2.6775,2.7393,3.1299,-0.4463,-0.2690,0.2732,29.6400,-1.4400,-32.5200,
6.647051,-2.5273,1.6767,1.7224,-0.4463,-0.2690,0.2732,29.6400,-1.4400,-32.5200,
6.667886,-2.5273,1.6767,1.7224,-0.4463,-0.2690,0.2732,29.6400,-1.4400,-32.5200,
6.668748,-2.5273,1.6767,1.7224,-0.8080,-0.4554,0.2407,29.6400,-1.4400,-32.5200,
6.669359,-2.6556,0.8495,0.2393,-0.8080,-0.4554,0.2407,29.6400,-1.4400,-32.5200,
6.688032,-2.6556,0.8495,0.2393,-0.8080,-0.4554,0.2407,29.6400,-1.4400,-32.5200,
6.688888,-2.6556,0.8495,0.2393,-1.1388,-0.3984,0.5566,29.6400,-1.4400,-32.5200,
6.689417,-2.4663,0.3277,0.3972,-1.1388,-0.3984,0.5566,29.6400,-1.4400,-32.5200,
6.693066,-2.4663,0.3277,0.3972,-1.1388,-0.3984,0.5566,30.4800,-1.4400,-31.2000,
6.709077,-2.4663,0.3277,0.3972,-1.1388,-0.3984,0.5566,30.4800,-1.4400,-31.2000,
6.710265,-2.4663,0.3277,0.3972,-1.3694,-0.6322,0.9768,30.4800,-1.4400,-31.2000,
6.710831,-1.7843,-0.2834,1.0489,-1.3694,-0.6322,0.9768,30.4800,-1.4400,-31.2000,
6.729195,-1.7843,-0.2834,1.0489,-1.3694,-0.6322,0.9768,30.4800,-1.4400,-31.2000,
6.730124,-1.0450,-0.7775,2.5854,-1.3694,-0.6322,0.9768,30.4800,-1.4400,-31.2000,
6.730843,-1.0450,-0.7775,2.5854,-1.3944,-1.1505,1.2107,30.4800,-1.4400,-31.2000,
6.750067,-1.0450,-0.7775,2.5854,-1.3944,-1.1505,1.2107,30.4800,-1.4400,-31.2000,
6.750547,-1.0450,-0.7775,2.5854,-1.0924,-1.6277,1.1649,30.4800,-1.4400,-31.2000,
6.750812,-0.7941,-1.0878,3.0431,-1.0924,-1.6277,1.1649,30.4800,-1.4400,-31.2000,
6.753671,-0.7941,-1.0878,3.0431,-1.0924,-1.6277,1.1649,32.1600,-0.9600,-29.6400,
6.770793,-0.7941,-1.0878,3.0431,-1.0924,-1.6277,1.1649,32.1600,-0.9600,-29.6400,
6.771565,-0.7941,-1.0878,3.0431,-0.8053,-1.5958,1.0205,32.1600,-0.9600,-29.6400,
6.772089,-0.6327,-1.5044,2.0354,-0.8053,-1.5958,1.0205,32.1600,-0.9600,-29.6400,
6.791367,-0.6327,-1.5044,2.0354,-0.8053,-1.5958,1.0205,32.1600,-0.9600,-29.6400,
6.792365,-0.6327,-1.5044,2.0354,-0.6317,-1.2522,0.8384,32.1600,-0.9600,-29.6400,
6.793221,-0.5965,-1.2500,0.6926,-0.6317,-1.2522,0.8384,32.1600,-0.9600,-29.6400,
6.811613,-0.5965,-1.2500,0.6926,-0.6317,-1.2522,0.8384,32.1600,-0.9600,-29.6400,
6.812531,-0.5965,-1.2500,0.6926,-0.5124,-1.1675,0.6168,32.1600,-0.9600,-29.6400,
6.813271,-0.1635,-0.7541,1.1704,-0.5124,-1.1675,0.6168,32.1600,-0.9600,-29.6400,
6.815282,-0.1635,-0.7541,1.1704,-0.5124,-1.1675,0.6168,32.7000,-0.1200,-28.9200,
6.831730,-0.1635,-0.7541,1.1704,-0.5124,-1.1675,0.6168,32.7000,-0.1200,-28.9200,
6.832580,-0.1635,-0.7541,1.1704,-0.0485,-1.6378,0.3366,32.7000,-0.1200,-28.9200,
6.833334,2.2115,-0.5685,2.8535,-0.0485,-1.6378,0.3366,32.7000,-0.1200,-28.9200,
6.851479,2.2115,-0.5685,2.8535,-0.0485,-1.6378,0.3366,32.7000,-0.1200,-28.9200,
6.851961,2.2115,-0.5685,2.8535,0.5870,-2.7425,-0.2056,32.7000,-0.1200,-28.9200,
6.852262,5.3845,-0.0673,2.0392,0.5870,-2.7425,-0.2056,32.7000,-0.1200,-28.9200,
6.873411,5.3845,-0.0673,2.0392,0.5870,-2.7425,-0.2056,32.7000,-0.1200,-28.9200,
6.874296,5.3845,-0.0673,2.0392,0.7100,-3.0339,-0.4543,32.7000,-0.1200,-28.9200,
6.874935,5.4089,0.9593,-1.4193,0.7100,-3.0339,-0.4543,32.7000,-0.1200,-28.9200,
6.877809,5.4089,0.9593,-1.4193,0.7100,-3.0339,-0.4543,31.2600,0.4800,-30.2400,
6.895102,5.4089,0.9593,-1.4193,0.7100,-3.0339,-0.4543,31.2600,0.4800,-30.2400,
6.895902,4.2768,2.5442,-2.6518,0.7100,-3.0339,-0.4543,31.2600,0.4800,-30.2400,
6.896529,4.2768,2.5442,-2.6518,0.3947,-1.9963,-0.2903,31.2600,0.4800,-30.2400,
6.914471,4.2768,2.5442,-2.6518,0.3947,-1.9963,-0.2903,31.2600,0.4800,-30.2400,
6.915469,4.2768,2.5442,-2.6518,-0.3281,-1.0429,-0.0091,31.2600,0.4800,-30.2400,
6.916082,3.2087,4.3790,-1.6437,-0.3281,-1.0429,-0.0091,31.2600,0.4800,-30.2400,
6.934907,3.2087,4.3790,-1.6437,-0.3281,-1.0429,-0.0091,31.2600,0.4800,-30.2400,
6.935945,3.2087,4.3790,-1.6437,-1.0679,0.4021,-0.0559,31.2600,0.4800,-30.2400,
6.936578,1.8245,4.8982,-1.2138,-1.0679,0.4021,-0.0559,31.2600,0.4800,-30.2400,
6.938564,1.8245,4.8982,-1.2138,-1.0679,0.4021,-0.0559,28.3200,0.4200,-32.4600,
6.954412,1.8245,4.8982,-1.2138,-1.0679,0.4021,-0.0559,28.3200,0.4200,-32.4600,
6.954918,1.8245,4.8982,-1.2138,-1.2117,1.8733,-0.1981,28.3200,0.4200,-32.4600,
6.955205,0.8818,4.5001,-1.0761,-1.2117,1.8733,-0.1981,28.3200,0.4200,-32.4600,
6.974860,0.8818,4.5001,-1.0761,-1.2117,1.8733,-0.1981,28.3200,0.4200,-32.4600,
6.975661,0.8818,4.5001,-1.0761,-1.1441,2.6056,-0.3063,28.3200,0.4200,-32.4600,
6.976147,0.7054,3.3253,-1.4432,-1.1441,2.6056,-0.3063,28.3200,0.4200,-32.4600,
6.996176,0.7054,3.3253,-1.4432,-1.1441,2.6056,-0.3063,28.3200,0.4200,-32.4600,
6.997304,0.7054,3.3253,-1.4432,-1.0882,2.6536,-0.3404,28.3200,0.4200,-32.4600,
6.997980,0.3793,2.0882,-1.3320,-1.0882,2.6536,-0.3404,28.3200,0.4200,-32.4600,
6.999911,0.3793,2.0882,-1.3320,-1.0882,2.6536,-0.3404,24.7200,0.6000,-34.7400,
7.015846,0.3793,2.0882,-1.3320,-1.0882,2.6536,-0.3404,24.7200,0.6000,-34.7400,
7.016557,0.3793,2.0882,-1.3320,-0.7649,2.0975,-0.2455,24.7200,0.6000,-34.7400,
7.017192,-0.5268,1.5188,1.8201,-0.7649,2.0975,-0.2455,24.7200,0.6000,-34.7400,
7.036233,-0.5268,1.5188,1.8201,-0.7649,2.0975,-0.2455,24.7200,0.6000,-34.7400,
7.037173,-0.5268,1.5188,1.8201,0.0261,0.9880,0.1358,24.7200,0.6000,-34.7400,
7.037583,-2.0833,0.9987,5.8121,0.0261,0.9880,0.1358,24.7200,0.6000,-34.7400,
7.057163,-2.0833,0.9987,5.8121,0.0261,0.9880,0.1358,24.7200,0.6000,-34.7400,
7.057931,-2.0833,0.9987,5.8121,1.0850,-0.4863,0.4778,24.7200,0.6000,-34.7400,
7.058422,-1.0024,-2.1437,12.3799,1.0850,-0.4863,0.4778,24.7200,0.6000,-34.7400,
7.061698,-1.0024,-2.1437,12.3799,1.0850,-0.4863,0.4778,22.6200,1.5000,-36.5400,
7.077276,-1.0024,-2.1437,12.3799,1.0850,-0.4863,0.4778,22.6200,1.5000,-36.5400,
7.078369,-1.0024,-2.1437,12.3799,1.9249,-2.1817,0.0772,22.6200,1.5000,-36.5400,
7.078804,3.4117,-8.7721,10.7739,1.9249,-2.1817,0.0772,22.6200,1.5000,-36.5400,
7.097544,3.4117,-8.7721,10.7739,1.9249,-2.1817,0.0772,22.6200,1.5000,-36.5400,
7.098299,3.4117,-8.7721,10.7739,0.4762,-0.7984,-0.2828,22.6200,1.5000,-36.5400,
7.098716,2.0695,-8.1384,-3.3584,0.4762,-0.7984,-0.2828,22.6200,1.5000,-36.5400,
7.118216,2.0695,-8.1384,-3.3584,0.4762,-0.7984,-0.2828,22.6200,1.5000,-36.5400,
7.119411,2.0695,-8.1384,-3.3584,-0.3851,2.5630,-0.0506,22.6200,1.5000,-36.5400,
7.120015,0.3934,-1.0162,-5.8696,-0.3851,2.5630,-0.0506,22.6200,1.5000,-36.5400,
7.122758,0.3934,-1.0162,-5.8696,-0.3851,2.5630,-0.0506,22.9200,1.9200,-36.6000,
7.139044,0.3934,-1.0162,-5.8696,-0.3851,2.5630,-0.0506,22.9200,1.9200,-36.6000,
7.139827,0.3934,-1.0162,-5.8696,-0.5332,3.7657,0.4426,22.9200,1.9200,-36.6000,
7.140356,0.4713,3.3303,-5.5702,-0.5332,3.7657,0.4426,22.9200,1.9200,-36.6000,
7.159561,0.4713,3.3303,-5.5702,-0.5332,3.7657,0.4426,22.9200,1.9200,-36.6000,
7.160478,0.4713,3.3303,-5.5702,-0.6823,3.8334,0.3680,22.9200,1.9200,-36.6000,
7.161320,1.3064,4.5600,-4.9752,-0.6823,3.8334,0.3680,22.9200,1.9200,-36.6000,
7.179757,1.3064,4.5600,-4.9752,-0.6823,3.8334,0.3680,22.9200,1.9200,-36.6000,
7.180580,1.3064,4.5600,-4.9752,-0.8288,3.5580,0.1688,22.9200,1.9200,-36.6000,
7.181228,1.2276,3.7839,-3.7328,-0.8288,3.5580,0.1688,22.9200,1.9200,-36.6000,
7.184147,1.2276,3.7839,-3.7328,-0.8288,3.5580,0.1688,24.0600,2.2800,-35.8800,
7.200481,1.2276,3.7839,-3.7328,-0.8288,3.5580,0.1688,24.0600,2.2800,-35.8800,
7.201476,1.2276,3.7839,-3.7328,-1.0914,3.2214,0.1688,24.0600,2.2800,-35.8800,
7.202210,0.0294,1.9703,-1.4151,-1.0914,3.2214,0.1688,24.0600,2.2800,-35.8800,
7.221213,0.0294,1.9703,-1.4151,-1.0914,3.2214,0.1688,24.0600,2.2800,-35.8800,
7.222647,0.0294,1.9703,-1.4151,-1.0946,2.5700,0.4000,24.0600,2.2800,-35.8800,
7.223474,-0.7320,-0.3349,-0.9636,-1.0946,2.5700,0.4000,24.0600,2.2800,-35.8800,
7.241282,-0.7320,-0.3349,-0.9636,-1.0946,2.5700,0.4000,24.0600,2.2800,-35.8800,
7.241812,-0.7320,-0.3349,-0.9636,-0.6519,1.2900,0.7164,24.0600,2.2800,-35.8800,
7.242114,-0.5720,-1.0814,-1.2474,-0.6519,1.2900,0.7164,24.0600,2.2800,-35.8800,
7.246074,-0.5720,-1.0814,-1.2474,-0.6519,1.2900,0.7164,27.8400,2.9400,-32.7000,
7.261928,-0.5720,-1.0814,-1.2474,-0.6519,1.2900,0.7164,27.8400,2.9400,-32.7000,
7.262422,-0.5720,-1.0814,-1.2474,-0.0431,-0.2621,0.9854,27.8400,2.9400,-32.7000,
7.262732,-0.9151,-2.3162,-2.0408,-0.0431,-0.2621,0.9854,27.8400,2.9400,-32.7000,
7.282236,-0.9151,-2.3162,-2.0408,-0.0431,-0.2621,0.9854,27.8400,2.9400,-32.7000,
7.283119,-0.9151,-2.3162,-2.0408,-0.2605,-0.6775,1.3300,27.8400,2.9400,-32.7000,
7.283648,-3.7575,-4.0159,-3.6446,-0.2605,-0.6775,1.3300,27.8400,2.9400,-32.7000,
7.302683,-3.7575,-4.0159,-3.6446,-0.2605,-0.6775,1.3300,27.8400,2.9400,-32.7000,
7.303579,-3.7575,-4.0159,-3.6446,-1.4727,1.1824,1.3545,27.8400,2.9400,-32.7000,
7.304110,-4.7544,-3.1735,-2.7343,-1.4727,1.1824,1.3545,27.8400,2.9400,-32.7000,
7.307504,-4.7544,-3.1735,-2.7343,-1.4727,1.1824,1.3545,31.9200,3.0000,-28.5600,
7.323490,-4.7544,-3.1735,-2.7343,-1.4727,1.1824,1.3545,31.9200,3.0000,-28.5600,
7.324112,-3.1663,-0.9440,3.2348,-1.4727,1.1824,1.3545,31.9200,3.0000,-28.5600,
7.324427,-3.1663,-0.9440,3.2348,-1.4216,2.6903,0.9007,31.9200,3.0000,-28.5600,
7.343918,-3.1663,-0.9440,3.2348,-1.4216,2.6903,0.9007,31.9200,3.0000,-28.5600,
7.344861,-3.1663,-0.9440,3.2348,-0.1294,2.5279,0.4389,31.9200,3.0000,-28.5600,
7.345529,-1.0840,0.0244,5.3773,-0.1294,2.5279,0.4389,31.9200,3.0000,-28.5600,
7.364451,-1.0840,0.0244,5.3773,-0.1294,2.5279,0.4389,31.9200,3.0000,-28.5600,
7.365361,-1.0840,0.0244,5.3773,0.2977,1.2133,0.3989,31.9200,3.0000,-28.5600,
7.365994,0.7486,-0.3922,2.2277,0.2977,1.2133,0.3989,31.9200,3.0000,-28.5600,
7.368926,0.7486,-0.3922,2.2277,0.2977,1.2133,0.3989,34.7400,2.5800,-24.9600,
7.385145,0.7486,-0.3922,2.2277,0.2977,1.2133,0.3989,34.7400,2.5800,-24.9600,
7.385868,0.7486,-0.3922,2.2277,0.0485,0.6621,0.2791,34.7400,2.5800,-24.9600,
7.386149,3.1928,-0.3788,0.2805,0.0485,0.6621,0.2791,34.7400,2.5800,-24.9600,
7.405479,3.1928,-0.3788,0.2805,0.0485,0.6621,0.2791,34.7400,2.5800,-24.9600,
7.406202,3.1928,-0.3788,0.2805,-0.1411,0.8634,-0.1811,34.7400,2.5800,-24.9600,
7.406722,3.8373,0.2802,0.1708,-0.1411,0.8634,-0.1811,34.7400,2.5800,-24.9600,
7.426267,3.8373,0.2802,0.1708,-0.1411,0.8634,-0.1811,34.7400,2.5800,-24.9600,
7.426773,2.3470,0.6927,0.5542,-0.1411,0.8634,-0.1811,34.7400,2.5800,-24.9600,
7.427546,2.3470,0.6927,0.5542,0.0341,0.7830,-0.5747,34.7400,2.5800,-24.9600,
7.430242,2.3470,0.6927,0.5542,0.0341,0.7830,-0.5747,38.8800,2.7600,-20.1000,
7.446499,2.3470,0.6927,0.5542,0.0341,0.7830,-0.5747,38.8800,2.7600,-20.1000,
7.447410,2.3470,0.6927,0.5542,0.2525,0.3515,-0.5987,38.8800,2.7600,-20.1000,
7.448068,0.3353,0.6871,0.1014,0.2525,0.3515,-0.5987,38.8800,2.7600,-20.1000,
7.467033,0.3353,0.6871,0.1014,0.2525,0.3515,-0.5987,38.8800,2.7600,-20.1000,
7.467801,0.3353,0.6871,0.1014,0.2882,0.3057,-0.5065,38.8800,2.7600,-20.1000,
7.468300,-1.4955,0.3854,-0.4393,0.2882,0.3057,-0.5065,38.8800,2.7600,-20.1000,
7.487701,-1.4955,0.3854,-0.4393,0.2882,0.3057,-0.5065,38.8800,2.7600,-20.1000,
7.488331,-1.4955,0.3854,-0.4393,0.1710,1.0040,-0.3654,38.8800,2.7600,-20.1000,
7.488832,-2.2918,-0.1816,-0.7673,0.1710,1.0040,-0.3654,38.8800,2.7600,-20.1000,
7.491873,-2.2918,-0.1816,-0.7673,0.1710,1.0040,-0.3654,40.8600,2.5800,-16.7400,
7.508161,-2.2918,-0.1816,-0.7673,0.1710,1.0040,-0.3654,40.8600,2.5800,-16.7400,
7.508890,-2.2918,-0.1816,-0.7673,0.1135,1.6362,-0.1097,40.8600,2.5800,-16.7400,
7.509387,-2.9393,0.0122,-0.3261,0.1135,1.6362,-0.1097,40.8600,2.5800,-16.7400,
7.528599,-2.9393,0.0122,-0.3261,0.1135,1.6362,-0.1097,40.8600,2.5800,-16.7400,
7.529360,-2.9393,0.0122,-0.3261,0.2354,1.7263,0.2040,40.8600,2.5800,-16.7400,
7.529657,-2.7528,0.0751,0.7403,0.2354,1.7263,0.2040,40.8600,2.5800,-16.7400,
7.549160,-2.7528,0.0751,0.7403,0.2354,1.7263,0.2040,40.8600,2.5800,-16.7400,
7.549929,-2.7528,0.0751,0.7403,0.4208,1.2219,0.4469,40.8600,2.5800,-16.7400,
7.550466,-1.5879,0.2479,0.4423,0.4208,1.2219,0.4469,40.8600,2.5800,-16.7400,
7.553473,-1.5879,0.2479,0.4423,0.4208,1.2219,0.4469,41.7000,1.9800,-14.7000,
7.569584,-1.5879,0.2479,0.4423,0.4208,1.2219,0.4469,41.7000,1.9800,-14.7000,
7.570023,-1.5879,0.2479,0.4423,0.4213,0.6716,0.4559,41.7000,1.9800,-14.7000,
7.570296,0.0383,-0.1102,-0.3052,0.4213,0.6716,0.4559,41.7000,1.9800,-14.7000,
7.590312,0.0383,-0.1102,-0.3052,0.4213,0.6716,0.4559,41.7000,1.9800,-14.7000,
7.591145,0.0383,-0.1102,-0.3052,0.3217,0.3851,0.2951,41.7000,1.9800,-14.7000,
7.591656,1.4843,-1.0111,-1.1699,0.3217,0.3851,0.2951,41.7000,1.9800,-14.7000,
7.610717,1.4843,-1.0111,-1.1699,0.3217,0.3851,0.2951,41.7000,1.9800,-14.7000,
7.611541,1.4843,-1.0111,-1.1699,0.1614,0.1960,0.1001,41.7000,1.9800,-14.7000,
7.611972,2.1831,-1.2992,-1.8789,0.1614,0.1960,0.1001,41.7000,1.9800,-14.7000,
7.615297,2.1831,-1.2992,-1.8789,0.1614,0.1960,0.1001,42.6000,1.9200,-12.1200,
7.631124,2.1831,-1.2992,-1.8789,0.1614,0.1960,0.1001,42.6000,1.9200,-12.1200,
7.631570,2.1831,-1.2992,-1.8789,-0.0650,0.1182,-0.1310,42.6000,1.9200,-12.1200,
7.631753,2.0865,-0.8722,-2.1720,-0.0650,0.1182,-0.1310,42.6000,1.9200,-12.1200,
7.652034,2.0865,-0.8722,-2.1720,-0.0650,0.1182,-0.1310,42.6000,1.9200,-12.1200,
7.653287,2.0865,-0.8722,-2.1720,-0.3068,0.2557,-0.2296,42.6000,1.9200,-12.1200,
7.653892,1.6823,-0.2605,-1.5378,-0.3068,0.2557,-0.2296,42.6000,1.9200,-12.1200,
7.672280,1.6823,-0.2605,-1.5378,-0.3068,0.2557,-0.2296,42.6000,1.9200,-12.1200,
7.672827,1.6823,-0.2605,-1.5378,-0.3691,0.5433,-0.2791,42.6000,1.9200,-12.1200,
7.673134,0.8695,-0.4770,0.3477,-0.3691,0.5433,-0.2791,42.6000,1.9200,-12.1200,
7.676544,0.8695,-0.4770,0.3477,-0.3691,0.5433,-0.2791,42.9600,1.5000,-10.3800,
7.693155,0.8695,-0.4770,0.3477,-0.3691,0.5433,-0.2791,42.9600,1.5000,-10.3800,
7.693796,0.8695,-0.4770,0.3477,-0.1326,0.7121,-0.2961,42.9600,1.5000,-10.3800,
7.694242,0.0394,-0.5133,2.3683,-0.1326,0.7121,-0.2961,42.9600,1.5000,-10.3800,
7.713332,0.0394,-0.5133,2.3683,-0.1326,0.7121,-0.2961,42.9600,1.5000,-10.3800,
7.714226,-0.5124,0.0837,2.3213,-0.1326,0.7121,-0.2961,42.9600,1.5000,-10.3800,
7.714891,-0.5124,0.0837,2.3213,0.1225,0.5135,-0.2392,42.9600,1.5000,-10.3800,
7.733823,-0.5124,0.0837,2.3213,0.1225,0.5135,-0.2392,42.9600,1.5000,-10.3800,
7.734333,-0.5124,0.0837,2.3213,0.1768,0.2445,-0.1619,42.9600,1.5000,-10.3800,
7.734539,-0.2880,0.7264,0.8589,0.1768,0.2445,-0.1619,42.9600,1.5000,-10.3800,
7.737990,-0.2880,0.7264,0.8589,0.1768,0.2445,-0.1619,43.1400,1.0800,-8.6400,
7.754339,-0.2880,0.7264,0.8589,0.1768,0.2445,-0.1619,43.1400,1.0800,-8.6400,
7.755143,-0.2880,0.7264,0.8589,0.1135,0.0581,-0.1225,43.1400,1.0800,-8.6400,
7.755572,-0.3828,0.8326,-0.1637,0.1135,0.0581,-0.1225,43.1400,1.0800,-8.6400,
7.775127,-0.3828,0.8326,-0.1637,0.1135,0.0581,-0.1225,43.1400,1.0800,-8.6400,
7.775629,-0.3828,0.8326,-0.1637,-0.0767,0.1395,-0.0879,43.1400,1.0800,-8.6400,
7.775838,-0.5806,-0.0559,-0.2403,-0.0767,0.1395,-0.0879,43.1400,1.0800,-8.6400,
7.795449,-0.5806,-0.0559,-0.2403,-0.0767,0.1395,-0.0879,43.1400,1.0800,-8.6400,
7.796226,-0.5806,-0.0559,-0.2403,-0.1752,0.1619,-0.1049,43.1400,1.0800,-8.6400,
7.796620,-0.3753,-0.7974,0.9332,-0.1752,0.1619,-0.1049,43.1400,1.0800,-8.6400,
7.799711,-0.3753,-0.7974,0.9332,-0.1752,0.1619,-0.1049,43.6800,1.3200,-7.2600,
7.815674,-0.3753,-0.7974,0.9332,-0.1752,0.1619,-0.1049,43.6800,1.3200,-7.2600,
7.816393,0.2255,-0.2951,1.2305,-0.1752,0.1619,-0.1049,43.6800,1.3200,-7.2600,
7.817177,0.2255,-0.2951,1.2305,-0.1103,-0.2029,-0.1507,43.6800,1.3200,-7.2600,
7.836161,0.2255,-0.2951,1.2305,-0.1103,-0.2029,-0.1507,43.6800,1.3200,-7.2600,
7.836991,0.2255,-0.2951,1.2305,-0.1044,-0.6168,-0.1278,43.6800,1.3200,-7.2600,
7.837362,0.7969,0.1613,0.5807,-0.1044,-0.6168,-0.1278,43.6800,1.3200,-7.2600,
7.857116,0.7969,0.1613,0.5807,-0.1044,-0.6168,-0.1278,43.6800,1.3200,-7.2600,
7.858078,0.7969,0.1613,0.5807,-0.1465,-0.6248,-0.1550,43.6800,1.3200,-7.2600,
7.858572,1.4096,0.0612,0.0826,-0.1465,-0.6248,-0.1550,43.6800,1.3200,-7.2600,
7.861997,1.4096,0.0612,0.0826,-0.1465,-0.6248,-0.1550,44.1600,1.7400,-6.0000,
7.877458,1.4096,0.0612,0.0826,-0.1465,-0.6248,-0.1550,44.1600,1.7400,-6.0000,
7.877971,1.4096,0.0612,0.0826,-0.1827,-0.1848,-0.2099,44.1600,1.7400,-6.0000,
7.878260,1.6146,-0.2141,0.0573,-0.1827,-0.1848,-0.2099,44.1600,1.7400,-6.0000,
7.898536,1.6146,-0.2141,0.0573,-0.1827,-0.1848,-0.2099,44.1600,1.7400,-6.0000,
7.899297,1.6146,-0.2141,0.0573,-0.2024,0.6365,-0.2226,44.1600,1.7400,-6.0000,
7.899627,1.2122,-0.1697,0.4706,-0.2024,0.6365,-0.2226,44.1600,1.7400,-6.0000,
7.918935,1.2122,-0.1697,0.4706,-0.2024,0.6365,-0.2226,44.1600,1.7400,-6.0000,
7.919912,1.2122,-0.1697,0.4706,-0.2381,1.0488,-0.2221,44.1600,1.7400,-6.0000,
7.920555,0.6305,-0.0369,1.4621,-0.2381,1.0488,-0.2221,44.1600,1.7400,-6.0000,
7.923567,0.6305,-0.0369,1.4621,-0.2381,1.0488,-0.2221,43.6800,1.9800,-5.8800,
7.939716,0.6305,-0.0369,1.4621,-0.2381,1.0488,-0.2221,43.6800,1.9800,-5.8800,
7.940451,0.6305,-0.0369,1.4621,-0.1758,0.8799,-0.2258,43.6800,1.9800,-5.8800,
7.940919,-0.0660,-0.0457,2.5590,-0.1758,0.8799,-0.2258,43.6800,1.9800,-5.8800,
7.960215,-0.0660,-0.0457,2.5590,-0.1758,0.8799,-0.2258,43.6800,1.9800,-5.8800,
7.961296,-0.0660,-0.0457,2.5590,-0.0756,0.3957,-0.2003,43.6800,1.9800,-5.8800,
7.961720,-0.4460,-0.0506,2.3522,-0.0756,0.3957,-0.2003,43.6800,1.9800,-5.8800,
7.980786,-0.4460,-0.0506,2.3522,-0.0756,0.3957,-0.2003,43.6800,1.9800,-5.8800,
7.981765,-0.4460,-0.0506,2.3522,-0.0538,-0.0160,-0.2844,43.6800,1.9800,-5.8800,
7.981982,-0.5131,-0.3678,1.4768,-0.0538,-0.0160,-0.2844,43.6800,1.9800,-5.8800,
7.984643,-0.5131,-0.3678,1.4768,-0.0538,-0.0160,-0.2844,44.1600,2.8800,-5.5200,
8.000912,-0.5131,-0.3678,1.4768,-0.0538,-0.0160,-0.2844,44.1600,2.8800,-5.5200,
8.001655,-0.5131,-0.3678,1.4768,-0.0336,0.1513,-0.3670,44.1600,2.8800,-5.5200,
8.002021,-0.0306,-0.9352,0.6501,-0.0336,0.1513,-0.3670,44.1600,2.8800,-5.5200,
8.021931,-0.0306,-0.9352,0.6501,-0.0336,0.1513,-0.3670,44.1600,2.8800,-5.5200,
8.023026,-0.0306,-0.9352,0.6501,-0.0586,0.6195,-0.5747,44.1600,2.8800,-5.5200,
8.023592,-0.3098,-0.4145,0.3350,-0.0586,0.6195,-0.5747,44.1600,2.8800,-5.5200,
8.042519,-0.3098,-0.4145,0.3350,-0.0586,0.6195,-0.5747,44.1600,2.8800,-5.5200,
8.043597,-0.3098,-0.4145,0.3350,-0.2514,0.6392,-0.5641,44.1600,2.8800,-5.5200,
8.044377,-0.8845,0.1832,0.2512,-0.2514,0.6392,-0.5641,44.1600,2.8800,-5.5200,
8.046491,-0.8845,0.1832,0.2512,-0.2514,0.6392,-0.5641,44.4000,3.2400,-4.4400,
8.063092,-0.8845,0.1832,0.2512,-0.2514,0.6392,-0.5641,44.4000,3.2400,-4.4400,
8.064017,-0.8845,0.1832,0.2512,-0.4320,-0.0911,-0.5364,44.4000,3.2400,-4.4400,
8.064895,-1.0078,0.2924,1.1385,-0.4320,-0.0911,-0.5364,44.4000,3.2400,-4.4400,
8.082955,-1.0078,0.2924,1.1385,-0.4320,-0.0911,-0.5364,44.4000,3.2400,-4.4400,
8.083423,-0.9198,0.2276,1.0817,-0.4320,-0.0911,-0.5364,44.4000,3.2400,-4.4400,
8.083733,-0.9198,0.2276,1.0817,-0.3638,-0.5742,-0.4911,44.4000,3.2400,-4.4400,
8.104008,-0.9198,0.2276,1.0817,-0.3638,-0.5742,-0.4911,44.4000,3.2400,-4.4400,
8.105115,-0.9198,0.2276,1.0817,-0.2013,-0.6200,-0.4927,44.4000,3.2400,-4.4400,
8.105667,-0.2588,-0.0318,0.3844,-0.2013,-0.6200,-0.4927,44.4000,3.2400,-4.4400,
8.108701,-0.2588,-0.0318,0.3844,-0.2013,-0.6200,-0.4927,44.7000,3.9600,-3.8400,
8.124330,-0.2588,-0.0318,0.3844,-0.2013,-0.6200,-0.4927,44.7000,3.9600,-3.8400,
8.125229,-0.2588,-0.0318,0.3844,-0.0985,-0.3979,-0.6477,44.7000,3.9600,-3.8400,
8.125790,0.3210,-0.3927,-0.1869,-0.0985,-0.3979,-0.6477,44.7000,3.9600,-3.8400,
8.144950,0.3210,-0.3927,-0.1869,-0.0985,-0.3979,-0.6477,44.7000,3.9600,-3.8400,
8.145779,0.3210,-0.3927,-0.1869,-0.0682,-0.0751,-0.7569,44.7000,3.9600,-3.8400,
8.146051,0.2440,-0.1995,0.3700,-0.0682,-0.0751,-0.7569,44.7000,3.9600,-3.8400,
8.164568,0.2440,-0.1995,0.3700,-0.0682,-0.0751,-0.7569,44.7000,3.9600,-3.8400,
8.165035,0.2440,-0.1995,0.3700,-0.0304,0.1023,-0.7681,44.7000,3.9600,-3.8400,
8.165468,0.0988,0.0425,1.2187,-0.0304,0.1023,-0.7681,44.7000,3.9600,-3.8400,
8.169459,0.0988,0.0425,1.2187,-0.0304,0.1023,-0.7681,44.8800,5.4000,-3.0000,
8.185142,0.0988,0.0425,1.2187,-0.0304,0.1023,-0.7681,44.8800,5.4000,-3.0000,
8.185673,0.0988,0.0425,1.2187,-0.0170,-0.0346,-0.7143,44.8800,5.4000,-3.0000,
8.185977,0.1662,0.3864,1.8472,-0.0170,-0.0346,-0.7143,44.8800,5.4000,-3.0000,
8.206252,0.1662,0.3864,1.8472,-0.0170,-0.0346,-0.7143,44.8800,5.4000,-3.0000,
8.207020,0.1662,0.3864,1.8472,0.0016,-0.3206,-0.5284,44.8800,5.4000,-3.0000,
8.207523,0.0494,0.9398,1.8308,0.0016,-0.3206,-0.5284,44.8800,5.4000,-3.0000,
8.226813,0.0494,0.9398,1.8308,0.0016,-0.3206,-0.5284,44.8800,5.4000,-3.0000,
8.228015,0.0494,0.9398,1.8308,0.0826,-0.1406,-0.3430,44.8800,5.4000,-3.0000,
8.228677,0.7367,0.1800,1.1118,0.0826,-0.1406,-0.3430,44.8800,5.4000,-3.0000,
8.231228,0.7367,0.1800,1.1118,0.0826,-0.1406,-0.3430,44.5200,6.3000,-3.3600,
8.246999,0.7367,0.1800,1.1118,0.0826,-0.1406,-0.3430,44.5200,6.3000,-3.3600,
8.247915,0.7367,0.1800,1.1118,0.1513,0.4064,-0.2461,44.5200,6.3000,-3.3600,
8.248392,0.7567,-0.1912,0.5971,0.1513,0.4064,-0.2461,44.5200,6.3000,-3.3600,
8.267742,0.7567,-0.1912,0.5971,0.1513,0.4064,-0.2461,44.5200,6.3000,-3.3600,
8.268720,0.7567,-0.1912,0.5971,0.0778,0.5491,-0.2189,44.5200,6.3000,-3.3600,
8.269408,0.0367,0.4407,0.5531,0.0778,0.5491,-0.2189,44.5200,6.3000,-3.3600,
8.287878,0.0367,0.4407,0.5531,0.0778,0.5491,-0.2189,44.5200,6.3000,-3.3600,
8.288367,0.0367,0.4407,0.5531,0.0224,0.3036,-0.1593,44.5200,6.3000,-3.3600,
8.288564,-1.0756,0.4137,0.6111,0.0224,0.3036,-0.1593,44.5200,6.3000,-3.3600,
8.292425,-1.0756,0.4137,0.6111,0.0224,0.3036,-0.1593,44.0400,8.1600,-3.9000,
8.308733,-1.0756,0.4137,0.6111,0.0224,0.3036,-0.1593,44.0400,8.1600,-3.9000,
8.309662,-1.0756,0.4137,0.6111,0.0442,-0.0064,-0.0597,44.0400,8.1600,-3.9000,
8.310152,-1.5985,0.1595,0.5580,0.0442,-0.0064,-0.0597,44.0400,8.1600,-3.9000,
8.329073,-1.5985,0.1595,0.5580,0.0442,-0.0064,-0.0597,44.0400,8.1600,-3.9000,
8.330068,-1.5985,0.1595,0.5580,0.0399,-0.1880,0.0921,44.0400,8.1600,-3.9000,
8.330795,-1.4166,0.0067,0.1349,0.0399,-0.1880,0.0921,44.0400,8.1600,-3.9000,
8.350570,-1.4166,0.0067,0.1349,0.0399,-0.1880,0.0921,44.0400,8.1600,-3.9000,
8.351224,-1.4166,0.0067,0.1349,-0.0208,-0.1140,0.1928,44.0400,8.1600,-3.9000,
8.351481,-0.8886,0.0732,0.0874,-0.0208,-0.1140,0.1928,44.0400,8.1600,-3.9000,
8.354104,-0.8886,0.0732,0.0874,-0.0208,-0.1140,0.1928,43.6200,9.3600,-4.6200,
8.370137,-0.8886,0.0732,0.0874,-0.0330,-0.0778,0.2152,43.6200,9.3600,-4.6200,
8.390625,-0.8886,0.0732,0.0874,-0.0165,-0.1720,0.1150,43.6200,9.3600,-4.6200,
8.411884,-0.8886,0.0732,0.0874,-0.0165,-0.1720,0.1150,43.6200,9.3600,-4.6200,
8.412724,-0.8886,0.0732,0.0874,-0.0383,-0.3579,0.0181,43.6200,9.3600,-4.6200,
8.413326,0.5624,-0.1898,-0.0170,-0.0383,-0.3579,0.0181,43.6200,9.3600,-4.6200,
8.415374,0.5624,-0.1898,-0.0170,-0.0383,-0.3579,0.0181,43.6200,10.1400,-4.4400,
8.432102,0.5624,-0.1898,-0.0170,-0.0405,-0.2882,0.0133,43.6200,10.1400,-4.4400,
8.451726,0.5624,-0.1898,-0.0170,-0.1220,0.1955,0.1209,43.6200,10.1400,-4.4400,
8.472329,0.5624,-0.1898,-0.0170,-0.1220,0.1955,0.1209,43.6200,10.1400,-4.4400,
8.472872,0.5624,-0.1898,-0.0170,-0.1252,0.4985,0.2594,43.6200,10.1400,-4.4400,
8.473236,-0.1460,-0.3190,0.1812,-0.1252,0.4985,0.2594,43.6200,10.1400,-4.4400,
8.476852,-0.1460,-0.3190,0.1812,-0.1252,0.4985,0.2594,44.1000,10.6800,-3.4800,
8.492923,-0.1460,-0.3190,0.1812,-0.2312,0.2583,0.2423,44.1000,10.6800,-3.4800,
8.513236,-0.1460,-0.3190,0.1812,-0.3121,-0.6296,0.3883,44.1000,10.6800,-3.4800,
8.534010,-0.1460,-0.3190,0.1812,-0.3121,-0.6296,0.3883,44.1000,10.6800,-3.4800,
8.534467,-0.1460,-0.3190,0.1812,-0.1172,-1.4493,0.4740,44.1000,10.6800,-3.4800,
8.540770,-0.8656,0.5730,0.4256,-0.1172,-1.4493,0.4740,44.1000,10.6800,-3.4800,
8.541317,-0.8656,0.5730,0.4256,-0.1172,-1.4493,0.4740,44.2800,10.0200,-3.6600,
8.554600,-0.8656,0.5730,0.4256,0.1422,-1.5761,0.6035,44.2800,10.0200,-3.6600,
8.575724,-0.8656,0.5730,0.4256,0.4080,-1.2085,0.6035,44.2800,10.0200,-3.6600,
8.595729,-0.8656,0.5730,0.4256,0.4080,-1.2085,0.6035,44.2800,10.0200,-3.6600,
8.596222,-0.8656,0.5730,0.4256,0.3622,-0.7095,0.4027,44.2800,10.0200,-3.6600,
8.596490,1.2732,-0.5414,-0.1996,0.3622,-0.7095,0.4027,44.2800,10.0200,-3.6600,
8.600013,1.2732,-0.5414,-0.1996,0.3622,-0.7095,0.4027,44.4600,9.4800,-4.0200,
8.615971,1.2732,-0.5414,-0.1996,0.2226,-0.2828,0.1561,44.4600,9.4800,-4.0200,
8.636540,1.2732,-0.5414,-0.1996,0.3734,-0.0804,0.3707,44.4600,9.4800,-4.0200,
8.657297,1.2732,-0.5414,-0.1996,0.3734,-0.0804,0.3707,44.4600,9.4800,-4.0200,
8.657785,1.2732,-0.5414,-0.1996,0.6759,-0.1427,0.7686,44.4600,9.4800,-4.0200,
8.658055,-1.3773,-0.7943,1.4894,0.6759,-0.1427,0.7686,44.4600,9.4800,-4.0200,
8.661643,-1.3773,-0.7943,1.4894,0.6759,-0.1427,0.7686,44.6400,8.5800,-5.7000,
8.677832,-1.3773,-0.7943,1.4894,0.6136,-0.2764,0.7457,44.6400,8.5800,-5.7000,
8.698228,-1.3773,-0.7943,1.4894,0.4005,-0.4362,0.6349,44.6400,8.5800,-5.7000,
8.719150,-1.3773,-0.7943,1.4894,0.4005,-0.4362,0.6349,44.6400,8.5800,-5.7000,
8.719602,-1.3773,-0.7943,1.4894,0.5944,-0.6226,0.7771,44.6400,8.5800,-5.7000,
8.719805,-1.1976,-1.2348,0.9538,0.5944,-0.6226,0.7771,44.6400,8.5800,-5.7000,
8.723074,-1.1976,-1.2348,0.9538,0.5944,-0.6226,0.7771,44.1000,7.3200,-8.0400,
8.740220,-1.1976,-1.2348,0.9538,1.1153,-0.9694,1.0530,44.1000,7.3200,-8.0400,
8.760120,-1.1976,-1.2348,0.9538,1.2799,-1.2219,0.9545,44.1000,7.3200,-8.0400,
8.780325,-1.1976,-1.2348,0.9538,1.2799,-1.2219,0.9545,44.1000,7.3200,-8.0400,
8.780890,-1.1976,-1.2348,0.9538,0.8245,-1.0818,0.5902,44.1000,7.3200,-8.0400,
8.781229,0.8860,-0.8465,-2.2570,0.8245,-1.0818,0.5902,44.1000,7.3200,-8.0400,
8.785272,0.8860,-0.8465,-2.2570,0.8245,-1.0818,0.5902,43.4400,5.7000,-9.7200,
8.800597,0.8860,-0.8465,-2.2570,0.2258,-0.7276,0.5811,43.4400,5.7000,-9.7200,
8.821515,0.8860,-0.8465,-2.2570,-0.2178,-0.5081,0.6557,43.4400,5.7000,-9.7200,
8.843883,0.8860,-0.8465,-2.2570,-0.2178,-0.5081,0.6557,43.4400,5.7000,-9.7200,
8.844470,0.8860,-0.8465,-2.2570,-0.1736,-0.3308,0.6344,43.4400,5.7000,-9.7200,
8.844865,1.2947,1.6315,-0.3305,-0.1736,-0.3308,0.6344,43.4400,5.7000,-9.7200,
8.846897,1.2947,1.6315,-0.3305,-0.1736,-0.3308,0.6344,42.9600,4.1400,-11.7000,
8.862795,1.2947,1.6315,-0.3305,0.1715,0.0059,0.6882,42.9600,4.1400,-11.7000,
8.882821,1.2947,1.6315,-0.3305,0.4091,0.1976,0.5486,42.9600,4.1400,-11.7000,
8.903159,1.2947,1.6315,-0.3305,0.4091,0.1976,0.5486,42.9600,4.1400,-11.7000,
8.903606,1.2947,1.6315,-0.3305,0.4000,0.0836,0.4144,42.9600,4.1400,-11.7000,
8.903865,1.6680,1.0256,0.5648,0.4000,0.0836,0.4144,42.9600,4.1400,-11.7000,
8.907562,1.6680,1.0256,0.5648,0.4000,0.0836,0.4144,42.3600,1.8600,-13.1400,
8.924373,1.6680,1.0256,0.5648,0.2567,-0.3388,0.4405,42.3600,1.8600,-13.1400,
8.944934,1.6680,1.0256,0.5648,0.1896,-0.6637,0.5662,42.3600,1.8600,-13.1400,
8.965225,1.6680,1.0256,0.5648,0.1896,-0.6637,0.5662,42.3600,1.8600,-13.1400,
8.966116,1.6680,1.0256,0.5648,0.1752,-0.4858,0.9689,42.3600,1.8600,-13.1400,
8.966828,-1.1408,-0.3290,-0.5822,0.1752,-0.4858,0.9689,42.3600,1.8600,-13.1400,
8.969608,-1.1408,-0.3290,-0.5822,0.1752,-0.4858,0.9689,41.8800,-0.1200,-13.8600,
8.986013,-1.1408,-0.3290,-0.5822,0.2370,0.1481,1.1212,41.8800,-0.1200,-13.8600,
9.006440,-1.1408,-0.3290,-0.5822,0.0889,0.8037,0.7260,41.8800,-0.1200,-13.8600,
9.027913,-1.1408,-0.3290,-0.5822,0.0889,0.8037,0.7260,41.8800,-0.1200,-13.8600,
9.029150,-1.1408,-0.3290,-0.5822,-0.2834,1.0157,0.0964,41.8800,-0.1200,-13.8600,
9.030038,1.7362,0.3422,-2.0102,-0.2834,1.0157,0.0964,41.8800,-0.1200,-13.8600,
9.032337,1.7362,0.3422,-2.0102,-0.2834,1.0157,0.0964,41.5800,-2.1000,-14.8800,
9.047751,1.7362,0.3422,-2.0102,-0.5939,0.5385,-0.5529,41.5800,-2.1000,-14.8800,
9.068075,1.7362,0.3422,-2.0102,-0.4650,0.3036,-0.8389,41.5800,-2.1000,-14.8800,
9.088261,1.7362,0.3422,-2.0102,-0.4650,0.3036,-0.8389,41.5800,-2.1000,-14.8800,
9.088899,1.7362,0.3422,-2.0102,-0.1891,0.9183,-0.9838,41.5800,-2.1000,-14.8800,
9.089222,1.1284,0.3351,0.5821,-0.1891,0.9183,-0.9838,41.5800,-2.1000,-14.8800,
9.093392,1.1284,0.3351,0.5821,-0.1891,0.9183,-0.9838,41.0400,-3.7800,-14.3400,
9.109197,1.1284,0.3351,0.5821,-0.3004,1.2751,-0.7989,41.0400,-3.7800,-14.3400,
9.130424,1.1284,0.3351,0.5821,-0.6461,0.9715,-1.0067,41.0400,-3.7800,-14.3400,
9.150677,1.1284,0.3351,0.5821,-0.6461,0.9715,-1.0067,41.0400,-3.7800,-14.3400,
9.151767,1.1284,0.3351,0.5821,-0.6040,1.0956,-1.5505,41.0400,-3.7800,-14.3400,
9.152533,2.7763,-1.5099,-0.0485,-0.6040,1.0956,-1.5505,41.0400,-3.7800,-14.3400,
9.155794,2.7763,-1.5099,-0.0485,-0.6040,1.0956,-1.5505,41.2200,-4.2000,-13.5000,
9.170846,2.7763,-1.5099,-0.0485,-0.3366,1.3497,-1.9984,41.2200,-4.2000,-13.5000,
9.191519,2.7763,-1.5099,-0.0485,-0.2407,1.3577,-1.9372,41.2200,-4.2000,-13.5000,
9.211634,2.7763,-1.5099,-0.0485,-0.2407,1.3577,-1.9372,41.2200,-4.2000,-13.5000,
9.212309,2.7763,-1.5099,-0.0485,-0.2354,0.7547,-1.3598,41.2200,-4.2000,-13.5000,
9.212942,-3.1760,-1.1731,0.3755,-0.2354,0.7547,-1.3598,41.2200,-4.2000,-13.5000,
9.215858,-3.1760,-1.1731,0.3755,-0.2354,0.7547,-1.3598,41.9400,-3.4800,-12.6000,
9.232100,-3.1760,-1.1731,0.3755,-0.3702,0.0735,-0.1555,41.9400,-3.4800,-12.6000,
9.253868,-3.1760,-1.1731,0.3755,-0.3553,-0.2264,0.8602,41.9400,-3.4800,-12.6000,
9.273335,-3.1760,-1.1731,0.3755,-0.3553,-0.2264,0.8602,41.9400,-3.4800,-12.6000,
9.274429,-3.1760,-1.1731,0.3755,-0.0154,0.1672,0.9124,41.9400,-3.4800,-12.6000,
9.275072,-1.9545,-1.1322,1.1840,-0.0154,0.1672,0.9124,41.9400,-3.4800,-12.6000,
9.278043,-1.9545,-1.1322,1.1840,-0.0154,0.1672,0.9124,42.6000,-1.3200,-10.6200,
9.293524,-1.9545,-1.1322,1.1840,0.2301,0.5028,0.2498,42.6000,-1.3200,-10.6200,
9.314813,-1.9545,-1.1322,1.1840,0.0975,0.3441,0.0522,42.6000,-1.3200,-10.6200,
9.335699,-1.9545,-1.1322,1.1840,0.0975,0.3441,0.0522,42.6000,-1.3200,-10.6200,
9.336679,-1.9545,-1.1322,1.1840,-0.1278,-0.1241,0.2397,42.6000,-1.3200,-10.6200,
9.337215,-1.6747,-0.0103,-0.2014,-0.1278,-0.1241,0.2397,42.6000,-1.3200,-10.6200,
9.338905,-1.6747,-0.0103,-0.2014,-0.1278,-0.1241,0.2397,43.5000,0.8400,-9.2400,
9.356302,-1.6747,-0.0103,-0.2014,-0.1129,-0.6408,0.5092,43.5000,0.8400,-9.2400,
9.376017,-1.6747,-0.0103,-0.2014,-0.1108,-0.8107,0.7084,43.5000,0.8400,-9.2400,
9.396985,-1.6747,-0.0103,-0.2014,-0.1108,-0.8107,0.7084,43.5000,0.8400,-9.2400,
9.398208,-1.6747,-0.0103,-0.2014,-0.2274,-0.8123,0.6669,43.5000,0.8400,-9.2400,
9.398947,-0.8718,-0.8267,-0.8671,-0.2274,-0.8123,0.6669,43.5000,0.8400,-9.2400,
9.401199,-0.8718,-0.8267,-0.8671,-0.2274,-0.8123,0.6669,43.9800,2.5200,-7.5600,
9.416484,-0.8718,-0.8267,-0.8671,-0.3398,-0.7686,0.6125,43.9800,2.5200,-7.5600,
9.437142,-0.8718,-0.8267,-0.8671,-0.3238,-0.8852,0.6471,43.9800,2.5200,-7.5600,
9.458766,-0.8718,-0.8267,-0.8671,-0.3238,-0.8852,0.6471,43.9800,2.5200,-7.5600,
9.460230,-0.8718,-0.8267,-0.8671,-0.1055,-1.2133,0.7265,43.9800,2.5200,-7.5600,
9.461278,1.5434,-1.4473,1.9453,-0.1055,-1.2133,0.7265,43.9800,2.5200,-7.5600,
9.462177,1.5434,-1.4473,1.9453,-0.1055,-1.2133,0.7265,43.4400,2.6400,-6.9000,
9.478298,1.5434,-1.4473,1.9453,0.3324,0.2328,0.6306,43.4400,2.6400,-6.9000,
9.499173,1.5434,-1.4473,1.9453,0.3830,0.0591,1.5233,43.4400,2.6400,-6.9000,
9.519475,1.5434,-1.4473,1.9453,0.3830,0.0591,1.5233,43.4400,2.6400,-6.9000,
9.520313,1.5434,-1.4473,1.9453,0.1949,0.2455,2.5151,43.4400,2.6400,-6.9000,
9.521003,1.3478,2.0536,-1.4333,0.1949,0.2455,2.5151,43.4400,2.6400,-6.9000,
9.523741,1.3478,2.0536,-1.4333,0.1949,0.2455,2.5151,43.3800,1.8000,-7.3800,
9.540350,1.3478,2.0536,-1.4333,0.3808,0.6477,2.9705,43.3800,1.8000,-7.3800,
9.561193,1.3478,2.0536,-1.4333,0.6919,0.6333,3.2123,43.3800,1.8000,-7.3800,
9.580537,1.3478,2.0536,-1.4333,0.6919,0.6333,3.2123,43.3800,1.8000,-7.3800,
9.581498,1.3478,2.0536,-1.4333,1.0535,0.4234,2.8027,43.3800,1.8000,-7.3800,
9.582207,0.0394,-0.3360,1.1474,1.0535,0.4234,2.8027,43.3800,1.8000,-7.3800,
9.584951,0.0394,-0.3360,1.1474,1.0535,0.4234,2.8027,43.0200,-0.3000,-7.7400,
9.601076,0.0394,-0.3360,1.1474,1.1180,0.6429,2.4762,43.0200,-0.3000,-7.7400,
9.622001,0.0394,-0.3360,1.1474,0.7079,0.9662,1.6506,43.0200,-0.3000,-7.7400,
9.642812,0.0394,-0.3360,1.1474,0.7079,0.9662,1.6506,43.0200,-0.3000,-7.7400,
9.643573,0.0394,-0.3360,1.1474,0.2738,0.8645,0.6264,43.0200,-0.3000,-7.7400,
9.644192,-0.0150,1.5748,-0.0750,0.2738,0.8645,0.6264,43.0200,-0.3000,-7.7400,
9.647310,-0.0150,1.5748,-0.0750,0.2738,0.8645,0.6264,41.9400,-3.9600,-7.8600,
9.663403,-0.0150,1.5748,-0.0750,0.1017,0.0570,-0.3159,41.9400,-3.9600,-7.8600,
9.683945,-0.0150,1.5748,-0.0750,0.0229,-0.6338,-0.6147,41.9400,-3.9600,-7.8600,
9.703799,-0.0150,1.5748,-0.0750,0.0229,-0.6338,-0.6147,41.9400,-3.9600,-7.8600,
9.704315,-0.0150,1.5748,-0.0750,-0.0996,-0.8123,-0.8517,41.9400,-3.9600,-7.8600,
9.704633,1.6848,-0.7937,-0.4223,-0.0996,-0.8123,-0.8517,41.9400,-3.9600,-7.8600,
9.708314,1.6848,-0.7937,-0.4223,-0.0996,-0.8123,-0.8517,41.5200,-8.2800,-7.5600,
9.724943,1.6848,-0.7937,-0.4223,-0.1273,-0.6045,-0.8208,41.5200,-8.2800,-7.5600,
9.746781,1.6848,-0.7937,-0.4223,0.0836,-0.2285,-0.4756,41.5200,-8.2800,-7.5600,
9.766084,1.6848,-0.7937,-0.4223,0.0836,-0.2285,-0.4756,41.5200,-8.2800,-7.5600,
9.767024,1.6848,-0.7937,-0.4223,0.1513,-0.3180,-0.2562,41.5200,-8.2800,-7.5600,
9.767593,-0.8972,0.0655,0.7915,0.1513,-0.3180,-0.2562,41.5200,-8.2800,-7.5600,
9.770504,-0.8972,0.0655,0.7915,0.1513,-0.3180,-0.2562,40.8600,-12.2400,-7.1400,
9.786692,-0.8972,0.0655,0.7915,0.1129,-0.3174,0.1955,40.8600,-12.2400,-7.1400,
9.806406,-0.8972,0.0655,0.7915,-0.1262,-0.6205,0.6898,40.8600,-12.2400,-7.1400,
9.828981,-0.8972,0.0655,0.7915,-0.1262,-0.6205,0.6898,40.8600,-12.2400,-7.1400,
9.829941,-0.8972,0.0655,0.7915,-0.3169,-0.8618,0.9609,40.8600,-12.2400,-7.1400,
9.830564,-0.3634,1.1137,-0.3038,-0.3169,-0.8618,0.9609,40.8600,-12.2400,-7.1400,
9.831355,-0.3634,1.1137,-0.3038,-0.3169,-0.8618,0.9609,40.2600,-14.6400,-6.6600,
9.847558,-0.3634,1.1137,-0.3038,-0.4181,-1.1654,0.9662,40.2600,-14.6400,-6.6600,
9.868384,-0.3634,1.1137,-0.3038,-0.2562,-1.0461,0.8682,40.2600,-14.6400,-6.6600,
9.888725,-0.3634,1.1137,-0.3038,-0.2562,-1.0461,0.8682,40.2600,-14.6400,-6.6600,
9.889662,-0.3634,1.1137,-0.3038,0.0277,-0.3009,0.7633,40.2600,-14.6400,-6.6600,
9.890205,0.5063,-0.0870,-0.1518,0.0277,-0.3009,0.7633,40.2600,-14.6400,-6.6600,
9.893336,0.5063,-0.0870,-0.1518,0.0277,-0.3009,0.7633,39.7800,-15.7200,-6.6000,
9.909422,0.5063,-0.0870,-0.1518,-0.0730,0.0762,0.9566,39.7800,-15.7200,-6.6000,
9.929788,0.5063,-0.0870,-0.1518,-0.1470,0.1273,1.1073,39.7800,-15.7200,-6.6000,
9.950388,0.5063,-0.0870,-0.1518,-0.1470,0.1273,1.1073,39.7800,-15.7200,-6.6000,
9.951257,0.5063,-0.0870,-0.1518,-0.2637,-0.3585,0.9177,39.7800,-15.7200,-6.6000,
9.951821,-0.4268,-2.1565,1.3546,-0.2637,-0.3585,0.9177,39.7800,-15.7200,-6.6000,
9.954874,-0.4268,-2.1565,1.3546,-0.2637,-0.3585,0.9177,39.2400,-16.2000,-7.7400,
9.971159,-0.4268,-2.1565,1.3546,-0.2008,-1.1366,0.8320,39.2400,-16.2000,-7.7400,
9.991801,-0.4268,-2.1565,1.3546,-0.2376,-1.3231,0.8826,39.2400,-16.2000,-7.7400,
10.012298,-0.4268,-2.1565,1.3546,-0.2376,-1.3231,0.8826,39.2400,-16.2000,-7.7400,
10.013695,-0.4268,-2.1565,1.3546,-0.2354,-0.5278,0.6035,39.2400,-16.2000,-7.7400,
10.014348,0.7413,-0.1960,-0.9835,-0.2354,-0.5278,0.6035,39.2400,-16.2000,-7.7400,
10.017122,0.7413,-0.1960,-0.9835,-0.2354,-0.5278,0.6035,38.1600,-17.5200,-9.0000,
10.033737,0.7413,-0.1960,-0.9835,-0.0261,0.0383,0.5220,38.1600,-17.5200,-9.0000,
10.054134,0.7413,-0.1960,-0.9835,0.1049,-0.1518,0.6104,38.1600,-17.5200,-9.0000,
10.074438,0.7413,-0.1960,-0.9835,0.1049,-0.1518,0.6104,38.1600,-17.5200,-9.0000,
10.075439,0.7413,-0.1960,-0.9835,0.1603,-0.3297,0.6253,38.1600,-17.5200,-9.0000,
10.076027,-0.2226,0.8657,0.0168,0.1603,-0.3297,0.6253,38.1600,-17.5200,-9.0000,
10.078274,-0.2226,0.8657,0.0168,0.1603,-0.3297,0.6253,36.6600,-19.3200,-10.5600,
10.095375,-0.2226,0.8657,0.0168,0.1896,-0.2929,0.3334,36.6600,-19.3200,-10.5600,
10.115016,-0.2226,0.8657,0.0168,0.2312,-0.2695,0.1198,36.6600,-19.3200,-10.5600,
10.135663,-0.2226,0.8657,0.0168,0.2312,-0.2695,0.1198,36.6600,-19.3200,-10.5600,
10.136567,-0.2226,0.8657,0.0168,0.2200,-0.3665,0.0325,36.6600,-19.3200,-10.5600,
10.137104,0.2934,0.0529,0.2684,0.2200,-0.3665,0.0325,36.6600,-19.3200,-10.5600,
10.139754,0.2934,0.0529,0.2684,0.2200,-0.3665,0.0325,35.7000,-21.0000,-12.3000,
10.156070,0.2934,0.0529,0.2684,0.2290,-0.1454,-0.0128,35.7000,-21.0000,-12.3000,
10.177102,0.2934,0.0529,0.2684,0.1625,0.0916,0.0277,35.7000,-21.0000,-12.3000,
10.197234,0.2934,0.0529,0.2684,0.1625,0.0916,0.0277,35.7000,-21.0000,-12.3000,
10.198239,0.2934,0.0529,0.2684,0.1081,-0.0368,-0.0394,35.7000,-21.0000,-12.3000,
10.198825,-0.1547,-0.0913,-0.1550,0.1081,-0.0368,-0.0394,35.7000,-21.0000,-12.3000,
10.201619,-0.1547,-0.0913,-0.1550,0.1081,-0.0368,-0.0394,34.4400,-22.0200,-13.0800,
10.217535,-0.1547,-0.0913,-0.1550,0.0996,-0.1907,-0.0639,34.4400,-22.0200,-13.0800,
10.238449,-0.1547,-0.0913,-0.1550,-0.0138,-0.2503,-0.0442,34.4400,-22.0200,-13.0800,
10.259169,-0.1547,-0.0913,-0.1550,-0.0138,-0.2503,-0.0442,34.4400,-22.0200,-13.0800,
10.260174,-0.1547,-0.0913,-0.1550,-0.0128,-0.1108,-0.0447,34.4400,-22.0200,-13.0800,
10.260713,0.2673,-0.0036,0.3889,-0.0128,-0.1108,-0.0447,34.4400,-22.0200,-13.0800,
10.263401,0.2673,-0.0036,0.3889,-0.0128,-0.1108,-0.0447,33.6600,-22.7400,-13.8600,
10.279510,0.2673,-0.0036,0.3889,0.0772,-0.0144,-0.0293,33.6600,-22.7400,-13.8600,
10.299979,0.2673,-0.0036,0.3889,0.1220,-0.0320,0.0336,33.6600,-22.7400,-13.8600,
10.320426,0.2673,-0.0036,0.3889,0.1220,-0.0320,0.0336,33.6600,-22.7400,-13.8600,
10.321463,0.2673,-0.0036,0.3889,0.1273,-0.1300,0.0415,33.6600,-22.7400,-13.8600,
10.321729,-0.0147,-0.0284,-0.1335,0.1273,-0.1300,0.0415,33.6600,-22.7400,-13.8600,
10.324112,-0.0147,-0.0284,-0.1335,0.1273,-0.1300,0.0415,33.4800,-23.4000,-14.1000,
10.341109,-0.0147,-0.0284,-0.1335,0.0921,-0.2461,0.1241,33.4800,-23.4000,-14.1000,
10.360862,-0.0147,-0.0284,-0.1335,0.2067,-0.1348,0.1965,33.4800,-23.4000,-14.1000,
10.381061,-0.0147,-0.0284,-0.1335,0.2067,-0.1348,0.1965,33.4800,-23.4000,-14.1000,
10.381788,-0.0396,0.0227,0.3286,0.2067,-0.1348,0.1965,33.4800,-23.4000,-14.1000,
10.382431,-0.0396,0.0227,0.3286,0.3659,-0.0330,0.3063,33.4800,-23.4000,-14.1000,
10.385472,-0.0396,0.0227,0.3286,0.3659,-0.0330,0.3063,32.9400,-24.0000,-14.7600,
10.401626,-0.0396,0.0227,0.3286,0.4059,-0.0543,0.3116,32.9400,-24.0000,-14.7600,
10.422470,-0.0396,0.0227,0.3286,0.3622,-0.2376,0.2876,32.9400,-24.0000,-14.7600,
10.442779,-0.0396,0.0227,0.3286,0.3622,-0.2376,0.2876,32.9400,-24.0000,-14.7600,
10.443389,-0.0396,0.0227,0.3286,0.1971,-0.2700,0.0815,32.9400,-24.0000,-14.7600,
10.443748,-0.5337,-0.3197,0.0127,0.1971,-0.2700,0.0815,32.9400,-24.0000,-14.7600,
10.447058,-0.5337,-0.3197,0.0127,0.1971,-0.2700,0.0815,32.8800,-24.3000,-14.9400,
