
time,ax,ay,az,wx,wy,wz,Bx,By,Bz,
0.019561,0.0000,0.0000,0.0000,0.0000,0.0000,0.0000,0.0000,0.0000,0.0000,
0.040378,0.0000,0.0000,0.0000,0.0000,0.0000,0.0000,0.0000,0.0000,0.0000,
0.041079,0.0000,0.0000,0.0000,-0.0629,-0.2674,0.0778,0.0000,0.0000,0.0000,
0.041633,0.0173,0.0204,-0.0041,-0.0629,-0.2674,0.0778,0.0000,0.0000,0.0000,
0.060782,0.0173,0.0204,-0.0041,-0.0629,-0.2674,0.0778,0.0000,0.0000,0.0000,
0.061444,0.0173,0.0204,-0.0041,-0.0629,-0.2674,0.0778,0.0000,0.0000,0.0000,
0.061796,-0.0556,-0.4420,0.2304,-0.0629,-0.2674,0.0778,0.0000,0.0000,0.0000,
0.065251,-0.0556,-0.4420,0.2304,-0.0629,-0.2674,0.0778,24.1200,-36.3000,-5.1600,
0.081416,-0.0556,-0.4420,0.2304,-0.0629,-0.2674,0.0778,24.1200,-36.3000,-5.1600,
0.082041,-0.0556,-0.4420,0.2304,-0.1651,-1.1574,-0.2290,24.1200,-36.3000,-5.1600,
0.082759,-0.5528,-1.0769,0.0144,-0.1651,-1.1574,-0.2290,24.1200,-36.3000,-5.1600,
0.101099,-0.5528,-1.0769,0.0144,-0.1651,-1.1574,-0.2290,24.1200,-36.3000,-5.1600,
0.101500,-0.5528,-1.0769,0.0144,-0.1832,-0.6844,-0.2738,24.1200,-36.3000,-5.1600,
0.101809,0.0819,-0.5403,-0.4324,-0.1832,-0.6844,-0.2738,24.1200,-36.3000,-5.1600,
0.122020,0.0819,-0.5403,-0.4324,-0.1832,-0.6844,-0.2738,24.1200,-36.3000,-5.1600,
0.122463,0.0819,-0.5403,-0.4324,-0.2983,-0.5747,-0.3494,24.1200,-36.3000,-5.1600,
0.122875,0.0385,0.4738,-0.1549,-0.2983,-0.5747,-0.3494,24.1200,-36.3000,-5.1600,
0.126547,0.0385,0.4738,-0.1549,-0.2983,-0.5747,-0.3494,28.8600,-24.6600,-16.6200,
0.142321,0.0385,0.4738,-0.1549,-0.2983,-0.5747,-0.3494,28.8600,-24.6600,-16.6200,
0.142744,0.0385,0.4738,-0.1549,-0.4085,-1.0099,-0.1678,28.8600,-24.6600,-16.6200,
0.143121,0.0267,0.3203,0.3664,-0.4085,-1.0099,-0.1678,28.8600,-24.6600,-16.6200,
0.163341,0.0267,0.3203,0.3664,-0.4085,-1.0099,-0.1678,28.8600,-24.6600,-16.6200,
0.163990,0.0267,0.3203,0.3664,-0.1901,-0.8117,-0.0250,28.8600,-24.6600,-16.6200,
0.164597,0.4980,-0.0038,0.4233,-0.1901,-0.8117,-0.0250,28.8600,-24.6600,-16.6200,
0.183754,0.4980,-0.0038,0.4233,-0.1901,-0.8117,-0.0250,28.8600,-24.6600,-16.6200,
0.184386,0.4980,-0.0038,0.4233,0.0181,-0.4874,0.0485,28.8600,-24.6600,-16.6200,
0.184930,0.0759,0.3959,-0.1653,0.0181,-0.4874,0.0485,28.8600,-24.6600,-16.6200,
0.188385,0.0759,0.3959,-0.1653,0.0181,-0.4874,0.0485,30.9000,-18.3000,-23.1000,
0.204144,0.0759,0.3959,-0.1653,-0.1561,-0.4863,0.0005,30.9000,-18.3000,-23.1000,
0.224226,0.0759,0.3959,-0.1653,0.0154,-0.6136,-0.0490,30.9000,-18.3000,-23.1000,
0.245375,0.0759,0.3959,-0.1653,0.0154,-0.6136,-0.0490,30.9000,-18.3000,-23.1000,
0.245932,0.0759,0.3959,-0.1653,0.4437,-0.8948,-0.2450,30.9000,-18.3000,-23.1000,
0.246946,0.1591,0.0119,0.3529,0.4437,-0.8948,-0.2450,30.9000,-18.3000,-23.1000,
0.249440,0.1591,0.0119,0.3529,0.4437,-0.8948,-0.2450,32.5800,-12.1200,-29.5200,
0.265266,0.1591,0.0119,0.3529,0.2700,-0.4772,-0.1582,32.5800,-12.1200,-29.5200,
0.287698,0.1591,0.0119,0.3529,-0.3313,0.2099,0.0346,32.5800,-12.1200,-29.5200,
0.306708,0.1591,0.0119,0.3529,-0.3313,0.2099,0.0346,32.5800,-12.1200,-29.5200,
0.307075,0.1591,0.0119,0.3529,0.0916,0.2791,-0.0953,32.5800,-12.1200,-29.5200,
0.307437,0.1148,-0.9435,0.1826,0.0916,0.2791,-0.0953,32.5800,-12.1200,-29.5200,
0.311979,0.1148,-0.9435,0.1826,0.0916,0.2791,-0.0953,30.7200,-11.7000,-31.2600,
0.326824,0.1148,-0.9435,0.1826,0.1667,0.1960,-0.2237,30.7200,-11.7000,-31.2600,
0.348150,0.1148,-0.9435,0.1826,0.1587,0.6088,-0.1768,30.7200,-11.7000,-31.2600,
0.368151,0.1148,-0.9435,0.1826,0.1587,0.6088,-0.1768,30.7200,-11.7000,-31.2600,
0.368638,0.1148,-0.9435,0.1826,0.3153,1.0706,0.1358,30.7200,-11.7000,-31.2600,
0.369077,-1.0716,1.9507,-0.9136,0.3153,1.0706,0.1358,30.7200,-11.7000,-31.2600,
0.373930,-1.0716,1.9507,-0.9136,0.3153,1.0706,0.1358,29.8200,-11.4600,-32.1600,
0.389473,-1.0716,1.9507,-0.9136,0.0724,1.3966,0.3782,29.8200,-11.4600,-32.1600,
0.409238,-1.0716,1.9507,-0.9136,-0.4080,1.5521,0.3425,29.8200,-11.4600,-32.1600,
0.429542,-1.0716,1.9507,-0.9136,-0.4080,1.5521,0.3425,29.8200,-11.4600,-32.1600,
0.430194,-1.0716,1.9507,-0.9136,0.1641,1.7790,0.3238,29.8200,-11.4600,-32.1600,
0.430809,-1.4850,2.3639,0.5974,0.1641,1.7790,0.3238,29.8200,-11.4600,-32.1600,
0.434476,-1.4850,2.3639,0.5974,0.1641,1.7790,0.3238,29.8800,-11.4600,-31.9200,
0.450862,-1.4850,2.3639,0.5974,0.7356,2.0970,0.4746,29.8800,-11.4600,-31.9200,
0.471158,-1.4850,2.3639,0.5974,0.8565,2.5518,0.5784,29.8800,-11.4600,-31.9200,
0.491865,-1.4850,2.3639,0.5974,0.8565,2.5518,0.5784,29.8800,-11.4600,-31.9200,
0.492462,-1.4850,2.3639,0.5974,0.9816,3.3103,0.8181,29.8800,-11.4600,-31.9200,
0.493072,-1.7034,2.4918,0.4279,0.9816,3.3103,0.8181,29.8800,-11.4600,-31.9200,
0.496285,-1.7034,2.4918,0.4279,0.9816,3.3103,0.8181,30.4200,-11.4000,-30.9600,
0.511629,-1.7034,2.4918,0.4279,1.0685,2.8443,0.6109,30.4200,-11.4000,-30.9600,
0.532628,-1.7034,2.4918,0.4279,0.6498,0.1971,-0.2365,30.4200,-11.4000,-30.9600,
0.553909,-1.7034,2.4918,0.4279,0.6498,0.1971,-0.2365,30.4200,-11.4000,-30.9600,
0.554519,-1.7034,2.4918,0.4279,0.0559,-0.6408,-0.7020,30.4200,-11.4000,-30.9600,
0.555177,-2.3409,0.4642,-1.0093,0.0559,-0.6408,-0.7020,30.4200,-11.4000,-30.9600,
0.557826,-2.3409,0.4642,-1.0093,0.0559,-0.6408,-0.7020,32.7600,-12.2400,-27.6000,
0.573842,-2.3409,0.4642,-1.0093,-0.3398,-0.1742,-0.3297,32.7600,-12.2400,-27.6000,
0.594316,-2.3409,0.4642,-1.0093,-0.2264,-0.0043,-0.1374,32.7600,-12.2400,-27.6000,
0.614500,-2.3409,0.4642,-1.0093,-0.2264,-0.0043,-0.1374,32.7600,-12.2400,-27.6000,
0.614845,-2.3409,0.4642,-1.0093,0.0224,-0.0490,-0.4171,32.7600,-12.2400,-27.6000,
0.615079,1.3885,-0.3020,0.3553,0.0224,-0.0490,-0.4171,32.7600,-12.2400,-27.6000,
0.619053,1.3885,-0.3020,0.3553,0.0224,-0.0490,-0.4171,34.9200,-12.6600,-24.3000,
0.635042,1.3885,-0.3020,0.3553,0.0170,-0.1736,-0.5625,34.9200,-12.6600,-24.3000,
0.655713,1.3885,-0.3020,0.3553,-0.0810,-0.2610,-0.5651,34.9200,-12.6600,-24.3000,
0.676389,1.3885,-0.3020,0.3553,-0.0810,-0.2610,-0.5651,34.9200,-12.6600,-24.3000,
0.677393,1.3885,-0.3020,0.3553,-0.1433,-0.2173,-0.4799,34.9200,-12.6600,-24.3000,
0.678320,-0.0241,0.4578,-0.4191,-0.1433,-0.2173,-0.4799,34.9200,-12.6600,-24.3000,
0.681048,-0.0241,0.4578,-0.4191,-0.1433,-0.2173,-0.4799,36.0600,-13.3800,-21.6000,
0.696762,-0.0241,0.4578,-0.4191,-0.2732,-0.2269,-0.4336,36.0600,-13.3800,-21.6000,
0.717000,-0.0241,0.4578,-0.4191,-0.3446,-0.3984,-0.5886,36.0600,-13.3800,-21.6000,
0.738054,-0.0241,0.4578,-0.4191,-0.3446,-0.3984,-0.5886,36.0600,-13.3800,-21.6000,
0.738631,-0.0241,0.4578,-0.4191,-0.4868,-0.6669,-0.6131,36.0600,-13.3800,-21.6000,
0.739223,-0.6887,1.6063,-0.3732,-0.4868,-0.6669,-0.6131,36.0600,-13.3800,-21.6000,
0.742210,-0.6887,1.6063,-0.3732,-0.4868,-0.6669,-0.6131,37.3800,-13.6800,-19.9200,
0.758168,-0.6887,1.6063,-0.3732,-0.5630,-0.8362,-0.3904,37.3800,-13.6800,-19.9200,
0.779599,-0.6887,1.6063,-0.3732,-0.6141,-0.7936,-0.2599,37.3800,-13.6800,-19.9200,
0.799516,-0.6887,1.6063,-0.3732,-0.6141,-0.7936,-0.2599,37.3800,-13.6800,-19.9200,
0.800177,-0.6887,1.6063,-0.3732,-0.6264,-0.5822,-0.5342,37.3800,-13.6800,-19.9200,
0.800821,0.1990,-2.8955,-0.4368,-0.6264,-0.5822,-0.5342,37.3800,-13.6800,-19.9200,
0.804033,0.1990,-2.8955,-0.4368,-0.6264,-0.5822,-0.5342,37.1400,-12.7200,-20.2800,
0.820406,0.1990,-2.8955,-0.4368,-0.5278,-0.5742,-0.9539,37.1400,-12.7200,-20.2800,
0.840230,0.1990,-2.8955,-0.4368,-0.4661,-0.8804,-1.1723,37.1400,-12.7200,-20.2800,
0.861483,0.1990,-2.8955,-0.4368,-0.4661,-0.8804,-1.1723,37.1400,-12.7200,-20.2800,
0.862264,0.1990,-2.8955,-0.4368,-0.3260,-1.0764,-0.9635,37.1400,-12.7200,-20.2800,
0.862989,-0.6235,0.7391,0.3719,-0.3260,-1.0764,-0.9635,37.1400,-12.7200,-20.2800,
0.865944,-0.6235,0.7391,0.3719,-0.3260,-1.0764,-0.9635,36.9000,-11.7600,-21.1200,
0.881810,-0.6235,0.7391,0.3719,-0.1427,-0.5614,-0.3995,36.9000,-11.7600,-21.1200,
0.902243,-0.6235,0.7391,0.3719,0.0336,0.2807,-0.0858,36.9000,-11.7600,-21.1200,
0.922051,-0.6235,0.7391,0.3719,0.0336,0.2807,-0.0858,36.9000,-11.7600,-21.1200,
0.922871,-0.6235,0.7391,0.3719,0.0826,0.0687,-0.1550,36.9000,-11.7600,-21.1200,
0.923463,0.5056,-0.4358,0.5180,0.0826,0.0687,-0.1550,36.9000,-11.7600,-21.1200,
0.926764,0.5056,-0.4358,0.5180,0.0826,0.0687,-0.1550,37.0200,-9.9000,-23.1000,
0.943054,0.5056,-0.4358,0.5180,-0.0325,-0.1284,-0.0985,37.0200,-9.9000,-23.1000,
0.963477,0.5056,-0.4358,0.5180,-0.2653,-0.2429,-0.2466,37.0200,-9.9000,-23.1000,
0.984467,0.5056,-0.4358,0.5180,-0.2653,-0.2429,-0.2466,37.0200,-9.9000,-23.1000,
0.985015,0.5056,-0.4358,0.5180,-0.3819,-0.5465,-0.3254,37.0200,-9.9000,-23.1000,
0.985607,0.5861,-0.7859,0.2741,-0.3819,-0.5465,-0.3254,37.0200,-9.9000,-23.1000,
0.989206,0.5861,-0.7859,0.2741,-0.3819,-0.5465,-0.3254,37.2000,-7.9800,-24.4200,
1.004344,0.5861,-0.7859,0.2741,-0.2514,-0.7814,-0.3574,37.2000,-7.9800,-24.4200,
1.025569,0.5861,-0.7859,0.2741,0.0341,-0.6024,-0.3521,37.2000,-7.9800,-24.4200,
1.046152,0.5861,-0.7859,0.2741,0.0341,-0.6024,-0.3521,37.2000,-7.9800,-24.4200,
1.046614,0.5861,-0.7859,0.2741,0.3995,0.1007,-0.2610,37.2000,-7.9800,-24.4200,
1.046993,0.0798,-0.5017,-0.0557,0.3995,0.1007,-0.2610,37.2000,-7.9800,-24.4200,
1.050084,0.0798,-0.5017,-0.0557,0.3995,0.1007,-0.2610,37.4400,-6.3600,-25.9800,
1.066791,0.0798,-0.5017,-0.0557,0.5380,0.7366,-0.3047,37.4400,-6.3600,-25.9800,
1.087453,0.0798,-0.5017,-0.0557,0.4432,0.8575,-0.4229,37.4400,-6.3600,-25.9800,
1.107522,0.0798,-0.5017,-0.0557,0.4432,0.8575,-0.4229,37.4400,-6.3600,-25.9800,
1.108165,0.0798,-0.5017,-0.0557,0.2684,0.2892,-0.3606,37.4400,-6.3600,-25.9800,
1.108703,-0.7849,0.7020,-0.1379,0.2684,0.2892,-0.3606,37.4400,-6.3600,-25.9800,
1.113055,-0.7849,0.7020,-0.1379,0.2684,0.2892,-0.3606,37.3800,-5.1000,-27.1200,
1.127767,-0.7849,0.7020,-0.1379,0.1779,-0.2562,-0.0277,37.3800,-5.1000,-27.1200,
1.148109,-0.7849,0.7020,-0.1379,0.0202,-0.4671,0.4442,37.3800,-5.1000,-27.1200,
1.168867,-0.7849,0.7020,-0.1379,0.0202,-0.4671,0.4442,37.3800,-5.1000,-27.1200,
1.169372,-0.7849,0.7020,-0.1379,-0.0240,-0.2280,0.6413,37.3800,-5.1000,-27.1200,
1.169780,-0.4882,0.9685,-0.6732,-0.0240,-0.2280,0.6413,37.3800,-5.1000,-27.1200,
1.173103,-0.4882,0.9685,-0.6732,-0.0240,-0.2280,0.6413,37.3200,-4.2600,-26.8200,
1.189180,-0.4882,0.9685,-0.6732,0.2637,-0.1012,0.6626,37.3200,-4.2600,-26.8200,
1.209585,-0.4882,0.9685,-0.6732,0.5374,-0.0724,0.5209,37.3200,-4.2600,-26.8200,
1.230702,-0.4882,0.9685,-0.6732,0.5374,-0.0724,0.5209,37.3200,-4.2600,-26.8200,
1.231463,-0.4882,0.9685,-0.6732,0.5609,0.4927,0.3398,37.3200,-4.2600,-26.8200,
1.232171,-0.9624,0.5648,-2.4809,0.5609,0.4927,0.3398,37.3200,-4.2600,-26.8200,
1.235036,-0.9624,0.5648,-2.4809,0.5609,0.4927,0.3398,36.7800,-4.4400,-26.8200,
1.251118,-0.9624,0.5648,-2.4809,0.2099,1.7204,0.3579,36.7800,-4.4400,-26.8200,
1.271570,-0.9624,0.5648,-2.4809,0.3782,2.0261,0.3755,36.7800,-4.4400,-26.8200,
1.292696,-0.9624,0.5648,-2.4809,0.3782,2.0261,0.3755,36.7800,-4.4400,-26.8200,
1.293482,-0.9624,0.5648,-2.4809,1.2895,0.8091,0.3356,36.7800,-4.4400,-26.8200,
1.294145,-1.2465,-0.6423,4.5495,1.2895,0.8091,0.3356,36.7800,-4.4400,-26.8200,
1.296673,-1.2465,-0.6423,4.5495,1.2895,0.8091,0.3356,36.6000,-4.9800,-26.8800,
1.312531,-1.2465,-0.6423,4.5495,1.4312,0.6232,0.2647,36.6000,-4.9800,-26.8800,
1.332537,-1.2465,-0.6423,4.5495,1.3279,0.9145,0.2178,36.6000,-4.9800,-26.8800,
1.354461,-1.2465,-0.6423,4.5495,1.3279,0.9145,0.2178,36.6000,-4.9800,-26.8800,
1.355039,-1.2465,-0.6423,4.5495,1.6235,0.6802,0.2035,36.6000,-4.9800,-26.8800,
1.355547,-0.7505,0.2342,2.9614,1.6235,0.6802,0.2035,36.6000,-4.9800,-26.8800,
1.358827,-0.7505,0.2342,2.9614,1.6235,0.6802,0.2035,36.9600,-6.2400,-25.2600,
1.374269,-0.7505,0.2342,2.9614,1.6512,0.4149,0.2535,36.9600,-6.2400,-25.2600,
1.395588,-0.7505,0.2342,2.9614,1.3252,-0.2796,0.2178,36.9600,-6.2400,-25.2600,
1.416034,-0.7505,0.2342,2.9614,1.3252,-0.2796,0.2178,36.9600,-6.2400,-25.2600,
1.416666,-0.7505,0.2342,2.9614,0.9252,-0.7510,0.0634,36.9600,-6.2400,-25.2600,
1.417367,1.2975,0.1321,-2.6716,0.9252,-0.7510,0.0634,36.9600,-6.2400,-25.2600,
1.420815,1.2975,0.1321,-2.6716,0.9252,-0.7510,0.0634,38.1000,-7.9200,-23.5200,
1.436289,1.2975,0.1321,-2.6716,0.5800,-1.0386,-0.0698,38.1000,-7.9200,-23.5200,
1.455748,1.2975,0.1321,-2.6716,0.4362,-1.1638,-0.1055,38.1000,-7.9200,-23.5200,
1.476905,1.2975,0.1321,-2.6716,0.4362,-1.1638,-0.1055,38.1000,-7.9200,-23.5200,
1.477441,1.2975,0.1321,-2.6716,0.4352,-0.8970,0.0128,38.1000,-7.9200,-23.5200,
1.477893,-3.3340,2.2342,-1.8239,0.4352,-0.8970,0.0128,38.1000,-7.9200,-23.5200,
1.481259,-3.3340,2.2342,-1.8239,0.4352,-0.8970,0.0128,38.5800,-9.7200,-21.5400,
1.496972,-3.3340,2.2342,-1.8239,0.6754,-0.3702,0.0927,38.5800,-9.7200,-21.5400,
1.518833,-3.3340,2.2342,-1.8239,0.9374,0.2471,0.1055,38.5800,-9.7200,-21.5400,
1.539575,-3.3340,2.2342,-1.8239,0.9374,0.2471,0.1055,38.5800,-9.7200,-21.5400,
1.540185,-3.3340,2.2342,-1.8239,1.0243,0.5193,0.2668,38.5800,-9.7200,-21.5400,
1.540736,-1.5470,1.0320,-0.9434,1.0243,0.5193,0.2668,38.5800,-9.7200,-21.5400,
1.542557,-1.5470,1.0320,-0.9434,1.0243,0.5193,0.2668,38.5200,-11.7000,-19.8000,
1.558603,-1.5470,1.0320,-0.9434,1.0306,0.4842,0.3308,38.5200,-11.7000,-19.8000,
1.579947,-1.5470,1.0320,-0.9434,0.9694,0.1156,0.2823,38.5200,-11.7000,-19.8000,
1.600184,-1.5470,1.0320,-0.9434,0.9694,0.1156,0.2823,38.5200,-11.7000,-19.8000,
1.600487,-1.5470,1.0320,-0.9434,0.6301,-0.5965,0.1656,38.5200,-11.7000,-19.8000,
1.600751,0.6490,-0.2325,-0.2560,0.6301,-0.5965,0.1656,38.5200,-11.7000,-19.8000,
1.604130,0.6490,-0.2325,-0.2560,0.6301,-0.5965,0.1656,38.0400,-13.0800,-19.2000,
1.622393,0.6490,-0.2325,-0.2560,0.2535,-1.0440,0.0368,38.0400,-13.0800,-19.2000,
1.641925,0.6490,-0.2325,-0.2560,0.1593,-1.1356,-0.0724,38.0400,-13.0800,-19.2000,
1.660676,0.6490,-0.2325,-0.2560,0.1593,-1.1356,-0.0724,38.0400,-13.0800,-19.2000,
1.660998,1.4035,0.0978,-1.1090,0.1593,-1.1356,-0.0724,38.0400,-13.0800,-19.2000,
1.661432,1.4035,0.0978,-1.1090,0.3878,-0.9321,-0.1278,38.0400,-13.0800,-19.2000,
1.665972,1.4035,0.0978,-1.1090,0.3878,-0.9321,-0.1278,36.9600,-15.0600,-19.5000,
1.681940,1.4035,0.0978,-1.1090,0.5614,-1.0764,-0.0708,36.9600,-15.0600,-19.5000,
1.702718,1.4035,0.0978,-1.1090,0.5907,-1.6389,0.0176,36.9600,-15.0600,-19.5000,
1.723675,1.4035,0.0978,-1.1090,0.5907,-1.6389,0.0176,36.9600,-15.0600,-19.5000,
1.724261,1.4035,0.0978,-1.1090,0.5784,-2.3409,0.1097,36.9600,-15.0600,-19.5000,
1.724638,1.0541,-0.4443,-1.3925,0.5784,-2.3409,0.1097,36.9600,-15.0600,-19.5000,
1.727482,1.0541,-0.4443,-1.3925,0.5784,-2.3409,0.1097,36.5400,-16.0800,-20.2800,
1.743783,1.0541,-0.4443,-1.3925,0.3206,-3.0706,0.0655,36.5400,-16.0800,-20.2800,
1.764373,1.0541,-0.4443,-1.3925,-0.2306,-3.3497,-0.2850,36.5400,-16.0800,-20.2800,
1.785011,1.0541,-0.4443,-1.3925,-0.2306,-3.3497,-0.2850,36.5400,-16.0800,-20.2800,
1.785781,1.0541,-0.4443,-1.3925,-0.4416,-3.0355,-0.9982,36.5400,-16.0800,-20.2800,
1.786477,2.7121,2.7631,-1.4145,-0.4416,-3.0355,-0.9982,36.5400,-16.0800,-20.2800,
1.789674,2.7121,2.7631,-1.4145,-0.4416,-3.0355,-0.9982,35.2200,-16.8600,-21.0600,
1.805418,2.7121,2.7631,-1.4145,-0.4250,-2.2823,-1.5590,35.2200,-16.8600,-21.0600,
1.825847,2.7121,2.7631,-1.4145,-0.3254,-2.7148,-1.5665,35.2200,-16.8600,-21.0600,
1.846836,2.7121,2.7631,-1.4145,-0.3254,-2.7148,-1.5665,35.2200,-16.8600,-21.0600,
1.847483,2.7121,2.7631,-1.4145,0.2067,-4.1444,-1.6251,35.2200,-16.8600,-21.0600,
1.848199,0.3057,2.3236,6.8940,0.2067,-4.1444,-1.6251,35.2200,-16.8600,-21.0600,
1.851547,0.3057,2.3236,6.8940,0.2067,-4.1444,-1.6251,32.7600,-17.5200,-23.5200,
1.867300,0.3057,2.3236,6.8940,0.7132,-2.2003,-1.2501,32.7600,-17.5200,-23.5200,
1.887726,0.3057,2.3236,6.8940,0.5934,-1.8823,-1.0935,32.7600,-17.5200,-23.5200,
1.907669,0.3057,2.3236,6.8940,0.5934,-1.8823,-1.0935,32.7600,-17.5200,-23.5200,
1.908266,0.3057,2.3236,6.8940,0.4613,-2.5700,-1.4759,32.7600,-17.5200,-23.5200,
1.908850,-4.1303,-5.3180,-4.8120,0.4613,-2.5700,-1.4759,32.7600,-17.5200,-23.5200,
1.912319,-4.1303,-5.3180,-4.8120,0.4613,-2.5700,-1.4759,29.2200,-16.3200,-26.8800,
1.928891,-4.1303,-5.3180,-4.8120,0.9103,-2.2679,-1.5329,29.2200,-16.3200,-26.8800,
1.948399,-4.1303,-5.3180,-4.8120,2.5321,-1.2224,-1.4381,29.2200,-16.3200,-26.8800,
1.969181,-4.1303,-5.3180,-4.8120,2.5321,-1.2224,-1.4381,29.2200,-16.3200,-26.8800,
1.969871,-1.8293,4.4086,-6.2827,2.5321,-1.2224,-1.4381,29.2200,-16.3200,-26.8800,
1.970657,-1.8293,4.4086,-6.2827,3.2128,-0.0597,-0.9768,29.2200,-16.3200,-26.8800,
1.973939,-1.8293,4.4086,-6.2827,3.2128,-0.0597,-0.9768,25.3800,-15.7200,-30.2400,
1.990104,-1.8293,4.4086,-6.2827,2.2711,-0.5055,-0.7196,25.3800,-15.7200,-30.2400,
2.011207,-1.8293,4.4086,-6.2827,1.6799,0.4218,-0.1625,25.3800,-15.7200,-30.2400,
2.030758,-1.8293,4.4086,-6.2827,1.6799,0.4218,-0.1625,25.3800,-15.7200,-30.2400,
2.031517,-1.8293,4.4086,-6.2827,1.7353,1.2485,0.2738,25.3800,-15.7200,-30.2400,
2.032296,7.3655,-7.4064,2.9961,1.7353,1.2485,0.2738,25.3800,-15.7200,-30.2400,
2.035233,7.3655,-7.4064,2.9961,1.7353,1.2485,0.2738,22.4400,-15.6000,-33.0000,
2.051514,7.3655,-7.4064,2.9961,1.0333,2.1225,0.7345,22.4400,-15.6000,-33.0000,
2.071647,7.3655,-7.4064,2.9961,0.0794,1.4658,0.9795,22.4400,-15.6000,-33.0000,
2.092996,7.3655,-7.4064,2.9961,0.0794,1.4658,0.9795,22.4400,-15.6000,-33.0000,
2.093864,-14.3637,-7.6897,1.0749,0.0794,1.4658,0.9795,22.4400,-15.6000,-33.0000,
2.095083,-14.3637,-7.6897,1.0749,-1.0983,-0.9534,1.0807,22.4400,-15.6000,-33.0000,
2.099344,-14.3637,-7.6897,1.0749,-1.0983,-0.9534,1.0807,21.0600,-16.5000,-33.6600,
2.112794,-14.3637,-7.6897,1.0749,-1.8301,-2.2472,1.5319,21.0600,-16.5000,-33.6600,
2.134025,-14.3637,-7.6897,1.0749,-2.2797,-2.9465,1.0237,21.0600,-16.5000,-33.6600,
2.154644,-14.3637,-7.6897,1.0749,-2.2797,-2.9465,1.0237,21.0600,-16.5000,-33.6600,
2.155777,6.0595,0.7253,-1.5904,-2.2797,-2.9465,1.0237,21.0600,-16.5000,-33.6600,
2.156853,6.0595,0.7253,-1.5904,-2.4480,-3.7135,-0.5071,21.0600,-16.5000,-33.6600,
2.158746,6.0595,0.7253,-1.5904,-2.4480,-3.7135,-0.5071,20.4000,-18.6600,-33.0600,
2.174263,6.0595,0.7253,-1.5904,-2.1295,-4.4049,-1.8552,20.4000,-18.6600,-33.0600,
2.195661,6.0595,0.7253,-1.5904,-1.7305,-4.3415,-2.3793,20.4000,-18.6600,-33.0600,
2.215373,6.0595,0.7253,-1.5904,-1.7305,-4.3415,-2.3793,20.4000,-18.6600,-33.0600,
2.215878,6.0595,0.7253,-1.5904,-0.9731,-2.9524,-2.3681,20.4000,-18.6600,-33.0600,
2.216349,0.5104,6.8615,-1.5327,-0.9731,-2.9524,-2.3681,20.4000,-18.6600,-33.0600,
2.220465,0.5104,6.8615,-1.5327,-0.9731,-2.9524,-2.3681,19.2600,-20.0400,-33.1800,
2.235870,0.5104,6.8615,-1.5327,0.2503,-1.3065,-2.4506,19.2600,-20.0400,-33.1800,
2.256689,0.5104,6.8615,-1.5327,1.1457,0.5502,-2.8293,19.2600,-20.0400,-33.1800,
2.277469,0.5104,6.8615,-1.5327,1.1457,0.5502,-2.8293,19.2600,-20.0400,-33.1800,
2.278168,0.5104,6.8615,-1.5327,1.5702,1.0088,-3.8786,19.2600,-20.0400,-33.1800,
2.278906,8.4585,-3.2210,2.2700,1.5702,1.0088,-3.8786,19.2600,-20.0400,-33.1800,
2.281937,8.4585,-3.2210,2.2700,1.5702,1.0088,-3.8786,16.8000,-19.0800,-34.7400,
2.298834,8.4585,-3.2210,2.2700,1.9223,0.3547,-5.6395,16.8000,-19.0800,-34.7400,
2.318283,8.4585,-3.2210,2.2700,2.1289,0.4224,-5.9969,16.8000,-19.0800,-34.7400,
2.339023,8.4585,-3.2210,2.2700,2.1289,0.4224,-5.9969,16.8000,-19.0800,-34.7400,
2.339581,8.4585,-3.2210,2.2700,2.5881,0.4032,-4.5359,16.8000,-19.0800,-34.7400,
2.340166,-7.2964,-8.9856,1.0900,2.5881,0.4032,-4.5359,16.8000,-19.0800,-34.7400,
2.343535,-7.2964,-8.9856,1.0900,2.5881,0.4032,-4.5359,14.2800,-17.9400,-36.1800,
2.359364,-7.2964,-8.9856,1.0900,3.1180,0.6738,-2.7186,14.2800,-17.9400,-36.1800,
2.379825,-7.2964,-8.9856,1.0900,3.4104,0.7430,-1.6671,14.2800,-17.9400,-36.1800,
2.400189,-7.2964,-8.9856,1.0900,3.4104,0.7430,-1.6671,14.2800,-17.9400,-36.1800,
2.400923,-7.2964,-8.9856,1.0900,3.6517,0.0037,-0.7915,14.2800,-17.9400,-36.1800,
2.401808,-11.2027,-3.0920,-5.8093,3.6517,0.0037,-0.7915,14.2800,-17.9400,-36.1800,
2.405668,-11.2027,-3.0920,-5.8093,3.6517,0.0037,-0.7915,13.9800,-16.2600,-37.3200,
2.420770,-11.2027,-3.0920,-5.8093,3.5953,-1.2480,-0.3867,13.9800,-16.2600,-37.3200,
2.441184,-11.2027,-3.0920,-5.8093,-2.2786,-2.1252,-0.1646,13.9800,-16.2600,-37.3200,
2.462107,-11.2027,-3.0920,-5.8093,-2.2786,-2.1252,-0.1646,13.9800,-16.2600,-37.3200,
2.462951,-11.2027,-3.0920,-5.8093,-3.5841,-10.6127,-1.3966,13.9800,-16.2600,-37.3200,
2.464038,26.2171,-5.6267,17.9053,-3.5841,-10.6127,-1.3966,13.9800,-16.2600,-37.3200,
2.466893,26.2171,-5.6267,17.9053,-3.5841,-10.6127,-1.3966,15.3000,-16.7400,-36.0600,
2.481860,26.2171,-5.6267,17.9053,-1.0951,-6.0262,-4.8379,15.3000,-16.7400,-36.0600,
2.503306,26.2171,-5.6267,17.9053,1.4493,-1.2112,-6.5711,15.3000,-16.7400,-36.0600,
2.523396,26.2171,-5.6267,17.9053,1.4493,-1.2112,-6.5711,15.3000,-16.7400,-36.0600,
2.523952,26.2171,-5.6267,17.9053,2.0512,1.0908,-5.3396,15.3000,-16.7400,-36.0600,
2.524537,-7.5788,4.8414,-8.7094,2.0512,1.0908,-5.3396,15.3000,-16.7400,-36.0600,
2.528847,-7.5788,4.8414,-8.7094,2.0512,1.0908,-5.3396,16.5000,-18.1200,-34.7400,
2.544223,-7.5788,4.8414,-8.7094,4.2552,-0.6083,-2.9673,16.5000,-18.1200,-34.7400,
2.564293,-7.5788,4.8414,-8.7094,4.2552,-0.6083,-2.9673,16.5000,-18.1200,-34.7400,
2.564941,-7.5788,4.8414,-8.7094,3.1266,-0.5236,-1.5686,16.5000,-18.1200,-34.7400,
2.565653,4.6217,28.8483,-9.6410,3.1266,-0.5236,-1.5686,16.5000,-18.1200,-34.7400,
2.585607,4.6217,28.8483,-9.6410,3.1266,-0.5236,-1.5686,16.5000,-18.1200,-34.7400,
2.586271,4.6217,28.8483,-9.6410,2.0906,0.3595,-1.4994,16.5000,-18.1200,-34.7400,
2.586944,-1.6982,5.9652,-6.1355,2.0906,0.3595,-1.4994,16.5000,-18.1200,-34.7400,
2.592225,-1.6982,5.9652,-6.1355,2.0906,0.3595,-1.4994,17.7600,-18.3000,-34.3200,
2.604717,-1.6982,5.9652,-6.1355,2.0906,0.3595,-1.4994,17.7600,-18.3000,-34.3200,
2.605039,-1.6982,5.9652,-6.1355,1.3838,1.6666,-1.7683,17.7600,-18.3000,-34.3200,
2.605452,-3.1744,-3.6773,-9.3841,1.3838,1.6666,-1.7683,17.7600,-18.3000,-34.3200,
2.626105,-3.1744,-3.6773,-9.3841,0.2200,3.1234,-2.3090,17.7600,-18.3000,-34.3200,
2.646102,-3.1744,-3.6773,-9.3841,0.2200,3.1234,-2.3090,17.7600,-18.3000,-34.3200,
2.646716,-3.1744,-3.6773,-9.3841,-1.1121,2.7202,-2.4911,17.7600,-18.3000,-34.3200,
2.647373,-2.4138,-7.2060,-7.2874,-1.1121,2.7202,-2.4911,17.7600,-18.3000,-34.3200,
2.650715,-2.4138,-7.2060,-7.2874,-1.1121,2.7202,-2.4911,17.6400,-19.3800,-33.3600,
2.667256,-2.4138,-7.2060,-7.2874,-0.1933,-5.4941,-2.4208,17.6400,-19.3800,-33.3600,
2.687661,-2.4138,-7.2060,-7.2874,-0.5124,-6.7144,-1.8285,17.6400,-19.3800,-33.3600,
2.708424,-2.4138,-7.2060,-7.2874,-0.5124,-6.7144,-1.8285,17.6400,-19.3800,-33.3600,
2.709130,-2.4138,-7.2060,-7.2874,0.5838,6.1524,-0.2162,17.6400,-19.3800,-33.3600,
2.709978,-14.4794,11.8250,-2.5540,0.5838,6.1524,-0.2162,17.6400,-19.3800,-33.3600,
2.714777,-14.4794,11.8250,-2.5540,0.5838,6.1524,-0.2162,18.2400,-18.9600,-32.6400,
2.728387,-14.4794,11.8250,-2.5540,-0.0117,3.7071,0.8815,18.2400,-18.9600,-32.6400,
2.749420,-14.4794,11.8250,-2.5540,-0.7318,-0.6807,0.7185,18.2400,-18.9600,-32.6400,
2.770621,-14.4794,11.8250,-2.5540,-0.7318,-0.6807,0.7185,18.2400,-18.9600,-32.6400,
2.771593,-14.4794,11.8250,-2.5540,-0.6179,-1.6544,0.5513,18.2400,-18.9600,-32.6400,
2.772328,-1.7027,2.6915,2.8096,-0.6179,-1.6544,0.5513,18.2400,-18.9600,-32.6400,
2.775773,-1.7027,2.6915,2.8096,-0.6179,-1.6544,0.5513,20.5800,-18.4200,-31.0200,
2.790103,-1.7027,2.6915,2.8096,-0.1475,-1.1185,0.8863,20.5800,-18.4200,-31.0200,
2.809938,-1.7027,2.6915,2.8096,0.3121,-1.1782,1.2378,20.5800,-18.4200,-31.0200,
2.831405,-1.7027,2.6915,2.8096,0.3121,-1.1782,1.2378,20.5800,-18.4200,-31.0200,
2.831987,-1.7027,2.6915,2.8096,0.8000,-1.1121,1.4120,20.5800,-18.4200,-31.0200,
2.832631,-0.4928,0.5404,-0.8413,0.8000,-1.1121,1.4120,20.5800,-18.4200,-31.0200,
2.835628,-0.4928,0.5404,-0.8413,0.8000,-1.1121,1.4120,22.0200,-18.0600,-30.0000,
2.851527,-0.4928,0.5404,-0.8413,0.9161,-0.2892,1.1286,22.0200,-18.0600,-30.0000,
2.872342,-0.4928,0.5404,-0.8413,0.4559,0.3467,0.7233,22.0200,-18.0600,-30.0000,
2.892250,-0.4928,0.5404,-0.8413,0.4559,0.3467,0.7233,22.0200,-18.0600,-30.0000,
2.892865,-0.4928,0.5404,-0.8413,-0.2961,0.6514,0.2338,22.0200,-18.0600,-30.0000,
2.893644,4.0893,-0.6494,-6.4316,-0.2961,0.6514,0.2338,22.0200,-18.0600,-30.0000,
2.897469,4.0893,-0.6494,-6.4316,-0.2961,0.6514,0.2338,22.2000,-17.5800,-29.8800,
2.914713,4.0893,-0.6494,-6.4316,-1.1462,0.5886,-0.3302,22.2000,-17.5800,-29.8800,
2.933172,4.0893,-0.6494,-6.4316,-1.3726,0.2514,-0.5113,22.2000,-17.5800,-29.8800,
2.954151,4.0893,-0.6494,-6.4316,-1.3726,0.2514,-0.5113,22.2000,-17.5800,-29.8800,
2.954689,4.0893,-0.6494,-6.4316,-0.6695,0.6189,-0.2226,22.2000,-17.5800,-29.8800,
2.955490,-1.3422,0.7908,3.3981,-0.6695,0.6189,-0.2226,22.2000,-17.5800,-29.8800,
2.958310,-1.3422,0.7908,3.3981,-0.6695,0.6189,-0.2226,21.1800,-17.7000,-30.6600,
2.974226,-1.3422,0.7908,3.3981,0.2173,1.4685,0.2637,21.1800,-17.7000,-30.6600,
2.995414,-1.3422,0.7908,3.3981,0.3819,2.1641,0.3862,21.1800,-17.7000,-30.6600,
3.015761,-1.3422,0.7908,3.3981,0.3819,2.1641,0.3862,21.1800,-17.7000,-30.6600,
3.016451,-1.6136,-0.4793,-2.4355,0.3819,2.1641,0.3862,21.1800,-17.7000,-30.6600,
3.017146,-1.6136,-0.4793,-2.4355,-0.0847,1.6959,0.4964,21.1800,-17.7000,-30.6600,
3.020829,-1.6136,-0.4793,-2.4355,-0.0847,1.6959,0.4964,20.4000,-18.0000,-31.0200,
3.036142,-1.6136,-0.4793,-2.4355,-0.6099,0.5236,0.7297,20.4000,-18.0000,-31.0200,
3.056742,-1.6136,-0.4793,-2.4355,-0.9284,-0.2045,0.9715,20.4000,-18.0000,-31.0200,
3.077651,-1.6136,-0.4793,-2.4355,-0.9284,-0.2045,0.9715,20.4000,-18.0000,-31.0200,
3.078291,-1.6136,-0.4793,-2.4355,-1.0312,-0.2589,1.0802,20.4000,-18.0000,-31.0200,
3.078984,0.4197,-0.2490,-0.4657,-1.0312,-0.2589,1.0802,20.4000,-18.0000,-31.0200,
3.081774,0.4197,-0.2490,-0.4657,-1.0312,-0.2589,1.0802,20.8800,-18.5400,-30.1800,
3.098135,0.4197,-0.2490,-0.4657,-0.9705,0.0224,1.0392,20.8800,-18.5400,-30.1800,
3.118311,0.4197,-0.2490,-0.4657,-0.8357,0.2061,0.7388,20.8800,-18.5400,-30.1800,
3.138909,0.4197,-0.2490,-0.4657,-0.8357,0.2061,0.7388,20.8800,-18.5400,-30.1800,
3.139500,0.4197,-0.2490,-0.4657,-0.5092,0.5987,0.3047,20.8800,-18.5400,-30.1800,
3.140084,1.8987,-1.1505,2.0416,-0.5092,0.5987,0.3047,20.8800,-18.5400,-30.1800,
3.143266,1.8987,-1.1505,2.0416,-0.5092,0.5987,0.3047,21.9600,-18.5400,-30.1800,
3.160044,1.8987,-1.1505,2.0416,-0.2317,0.9422,0.1380,21.9600,-18.5400,-30.1800,
3.179887,1.8987,-1.1505,2.0416,-0.0927,0.9689,0.1332,21.9600,-18.5400,-30.1800,
3.200513,1.8987,-1.1505,2.0416,-0.0927,0.9689,0.1332,21.9600,-18.5400,-30.1800,
3.201134,1.8987,-1.1505,2.0416,-0.1912,0.7398,0.1534,21.9600,-18.5400,-30.1800,
3.201894,0.0540,-0.5261,0.0661,-0.1912,0.7398,0.1534,21.9600,-18.5400,-30.1800,
3.206132,0.0540,-0.5261,0.0661,-0.1912,0.7398,0.1534,22.6800,-17.5800,-29.8800,
3.220728,0.0540,-0.5261,0.0661,-0.2913,0.5049,0.0245,22.6800,-17.5800,-29.8800,
3.240946,0.0540,-0.5261,0.0661,-0.3052,0.1625,-0.1619,22.6800,-17.5800,-29.8800,
3.262284,0.0540,-0.5261,0.0661,-0.3052,0.1625,-0.1619,22.6800,-17.5800,-29.8800,
3.262770,0.0540,-0.5261,0.0661,-0.2392,0.0921,-0.1316,22.6800,-17.5800,-29.8800,
3.263117,-1.4520,-0.6088,0.7017,-0.2392,0.0921,-0.1316,22.6800,-17.5800,-29.8800,
3.266731,-1.4520,-0.6088,0.7017,-0.2392,0.0921,-0.1316,23.2200,-17.7000,-29.5200,
3.282920,-1.4520,-0.6088,0.7017,-0.3084,0.2850,0.0597,23.2200,-17.7000,-29.5200,
3.302660,-1.4520,-0.6088,0.7017,-0.4453,0.2360,0.1928,23.2200,-17.7000,-29.5200,
3.323789,-1.4520,-0.6088,0.7017,-0.4453,0.2360,0.1928,23.2200,-17.7000,-29.5200,
3.324647,-1.4520,-0.6088,0.7017,-0.5577,0.0597,0.2786,23.2200,-17.7000,-29.5200,
3.325082,-0.9591,-0.9882,-0.0857,-0.5577,0.0597,0.2786,23.2200,-17.7000,-29.5200,
3.328430,-0.9591,-0.9882,-0.0857,-0.5577,0.0597,0.2786,23.4600,-17.5200,-29.8200,
3.344501,-0.9591,-0.9882,-0.0857,-0.7175,-0.0879,0.3265,23.4600,-17.5200,-29.8200,
3.364808,-0.9591,-0.9882,-0.0857,-0.7665,-0.0352,0.4144,23.4600,-17.5200,-29.8200,
3.385225,-0.9591,-0.9882,-0.0857,-0.7665,-0.0352,0.4144,23.4600,-17.5200,-29.8200,
3.386346,-0.9591,-0.9882,-0.0857,-0.7414,0.1449,0.4740,23.4600,-17.5200,-29.8200,
3.387033,-0.0051,-0.3662,0.6179,-0.7414,0.1449,0.4740,23.4600,-17.5200,-29.8200,
3.390255,-0.0051,-0.3662,0.6179,-0.7414,0.1449,0.4740,23.7600,-16.9800,-29.7000,
3.406252,-0.0051,-0.3662,0.6179,-0.6477,0.1017,0.4123,23.7600,-16.9800,-29.7000,
3.426048,-0.0051,-0.3662,0.6179,-0.5353,-0.0368,0.2376,23.7600,-16.9800,-29.7000,
3.446636,-0.0051,-0.3662,0.6179,-0.5353,-0.0368,0.2376,23.7600,-16.9800,-29.7000,
3.447792,-0.0051,-0.3662,0.6179,-0.2876,0.1917,0.0431,23.7600,-16.9800,-29.7000,
3.448180,1.1200,-0.1469,0.7423,-0.2876,0.1917,0.0431,23.7600,-16.9800,-29.7000,
3.451416,1.1200,-0.1469,0.7423,-0.2876,0.1917,0.0431,24.3000,-16.6800,-30.0600,
3.467315,1.1200,-0.1469,0.7423,-0.0634,0.4400,-0.1470,24.3000,-16.6800,-30.0600,
3.488306,1.1200,-0.1469,0.7423,0.0602,0.6674,-0.3670,24.3000,-16.6800,-30.0600,
3.508837,1.1200,-0.1469,0.7423,0.0602,0.6674,-0.3670,24.3000,-16.6800,-30.0600,
3.510012,1.1200,-0.1469,0.7423,0.1848,0.7643,-0.4634,24.3000,-16.6800,-30.0600,
3.510706,0.8064,-0.2162,0.4619,0.1848,0.7643,-0.4634,24.3000,-16.6800,-30.0600,
3.512951,0.8064,-0.2162,0.4619,0.1848,0.7643,-0.4634,24.6600,-15.7800,-30.8400,
3.529814,0.8064,-0.2162,0.4619,0.2157,0.7025,-0.4160,24.6600,-15.7800,-30.8400,
3.548816,0.8064,-0.2162,0.4619,0.1555,0.4533,-0.3441,24.6600,-15.7800,-30.8400,
3.570191,0.8064,-0.2162,0.4619,0.1555,0.4533,-0.3441,24.6600,-15.7800,-30.8400,
3.570977,0.8064,-0.2162,0.4619,0.0666,0.2328,-0.3079,24.6600,-15.7800,-30.8400,
3.571618,-0.1231,0.3468,-0.3985,0.0666,0.2328,-0.3079,24.6600,-15.7800,-30.8400,
3.574930,-0.1231,0.3468,-0.3985,0.0666,0.2328,-0.3079,24.9000,-15.0000,-31.4400,
3.590910,-0.1231,0.3468,-0.3985,0.0117,0.2482,-0.2429,24.9000,-15.0000,-31.4400,
3.611483,-0.1231,0.3468,-0.3985,-0.0570,0.3574,-0.1417,24.9000,-15.0000,-31.4400,
3.631884,-0.1231,0.3468,-0.3985,-0.0570,0.3574,-0.1417,24.9000,-15.0000,-31.4400,
3.633139,-0.1231,0.3468,-0.3985,-0.1390,0.2333,-0.0581,24.9000,-15.0000,-31.4400,
3.634011,-0.3206,0.1150,-0.3594,-0.1390,0.2333,-0.0581,24.9000,-15.0000,-31.4400,
3.636541,-0.3206,0.1150,-0.3594,-0.1390,0.2333,-0.0581,25.5000,-14.5200,-31.2000,
3.651861,-0.3206,0.1150,-0.3594,-0.1534,0.1108,0.0154,25.5000,-14.5200,-31.2000,
3.673017,-0.3206,0.1150,-0.3594,-0.1321,0.1742,0.0549,25.5000,-14.5200,-31.2000,
3.693761,-0.3206,0.1150,-0.3594,-0.1321,0.1742,0.0549,25.5000,-14.5200,-31.2000,
3.694806,-0.3206,0.1150,-0.3594,0.0085,0.3174,-0.0085,25.5000,-14.5200,-31.2000,
3.695290,0.4870,0.3090,0.6724,0.0085,0.3174,-0.0085,25.5000,-14.5200,-31.2000,
3.697726,0.4870,0.3090,0.6724,0.0085,0.3174,-0.0085,26.2800,-14.1600,-30.6000,
3.713569,0.4870,0.3090,0.6724,0.0442,0.4756,-0.0533,26.2800,-14.1600,-30.6000,
3.734631,0.4870,0.3090,0.6724,-0.0144,0.4378,0.0123,26.2800,-14.1600,-30.6000,
3.754888,0.4870,0.3090,0.6724,-0.0144,0.4378,0.0123,26.2800,-14.1600,-30.6000,
3.756011,0.4870,0.3090,0.6724,-0.0554,0.2322,0.0639,26.2800,-14.1600,-30.6000,
3.756784,0.3162,0.5278,-0.1729,-0.0554,0.2322,0.0639,26.2800,-14.1600,-30.6000,
3.759017,0.3162,0.5278,-0.1729,-0.0554,0.2322,0.0639,27.1800,-14.1000,-29.4600,
3.775058,0.3162,0.5278,-0.1729,-0.0815,0.2956,-0.0224,27.1800,-14.1000,-29.4600,
3.795434,0.3162,0.5278,-0.1729,-0.0826,0.3025,-0.0415,27.1800,-14.1000,-29.4600,
3.816272,0.3162,0.5278,-0.1729,-0.0826,0.3025,-0.0415,27.1800,-14.1000,-29.4600,
3.817230,0.3162,0.5278,-0.1729,-0.1140,0.2759,0.0767,27.1800,-14.1000,-29.4600,
3.817783,-0.7688,0.1197,-0.4022,-0.1140,0.2759,0.0767,27.1800,-14.1000,-29.4600,
3.820794,-0.7688,0.1197,-0.4022,-0.1140,0.2759,0.0767,28.2600,-13.8000,-29.1000,
3.836555,-0.7688,0.1197,-0.4022,-0.2253,0.1848,0.2157,28.2600,-13.8000,-29.1000,
3.857150,-0.7688,0.1197,-0.4022,-0.3015,0.0858,0.2583,28.2600,-13.8000,-29.1000,
3.877386,-0.7688,0.1197,-0.4022,-0.3015,0.0858,0.2583,28.2600,-13.8000,-29.1000,
3.877930,-0.7688,0.1197,-0.4022,-0.2791,0.1667,0.2136,28.2600,-13.8000,-29.1000,
3.878190,0.7421,0.0013,-0.1085,-0.2791,0.1667,0.2136,28.2600,-13.8000,-29.1000,
3.881928,0.7421,0.0013,-0.1085,-0.2791,0.1667,0.2136,28.6800,-13.2000,-28.8600,
3.899375,0.7421,0.0013,-0.1085,-0.2328,0.3558,0.2189,28.6800,-13.2000,-28.8600,
3.919064,0.7421,0.0013,-0.1085,-0.2088,0.3622,0.2248,28.6800,-13.2000,-28.8600,
3.939155,0.7421,0.0013,-0.1085,-0.2088,0.3622,0.2248,28.6800,-13.2000,-28.8600,
3.940175,0.7421,0.0013,-0.1085,-0.1763,0.3020,0.1683,28.6800,-13.2000,-28.8600,
3.940879,1.4996,0.8716,0.3477,-0.1763,0.3020,0.1683,28.6800,-13.2000,-28.8600,
3.943815,1.4996,0.8716,0.3477,-0.1763,0.3020,0.1683,29.3400,-12.4800,-28.5000,
3.959095,1.4996,0.8716,0.3477,-0.0474,0.4895,0.1076,29.3400,-12.4800,-28.5000,
3.980447,1.4996,0.8716,0.3477,0.1555,0.5198,0.0948,29.3400,-12.4800,-28.5000,
4.000970,1.4996,0.8716,0.3477,0.1555,0.5198,0.0948,29.3400,-12.4800,-28.5000,
4.001964,1.4996,0.8716,0.3477,0.2509,0.4980,0.1641,29.3400,-12.4800,-28.5000,
4.002414,-0.7668,-0.5202,0.1772,0.2509,0.4980,0.1641,29.3400,-12.4800,-28.5000,
4.005270,-0.7668,-0.5202,0.1772,0.2509,0.4980,0.1641,29.7000,-12.1800,-28.8600,
4.021281,-0.7668,-0.5202,0.1772,0.1678,0.4804,0.2535,29.7000,-12.1800,-28.8600,
4.041844,-0.7668,-0.5202,0.1772,0.0352,0.3233,0.3270,29.7000,-12.1800,-28.8600,
4.063233,-0.7668,-0.5202,0.1772,0.0352,0.3233,0.3270,29.7000,-12.1800,-28.8600,
4.064459,-0.7668,-0.5202,0.1772,0.0394,0.2024,0.3414,29.7000,-12.1800,-28.8600,
4.065033,-1.0665,-0.6591,-0.3156,0.0394,0.2024,0.3414,29.7000,-12.1800,-28.8600,
4.066956,-1.0665,-0.6591,-0.3156,0.0394,0.2024,0.3414,30.1200,-12.0600,-27.8400,
4.082521,-1.0665,-0.6591,-0.3156,0.0570,0.1811,0.3755,30.1200,-12.0600,-27.8400,
4.103466,-1.0665,-0.6591,-0.3156,-0.0032,-0.0602,0.4064,30.1200,-12.0600,-27.8400,
4.123627,-1.0665,-0.6591,-0.3156,-0.0032,-0.0602,0.4064,30.1200,-12.0600,-27.8400,
4.124545,-1.0665,-0.6591,-0.3156,0.0304,-0.1481,0.3814,30.1200,-12.0600,-27.8400,
4.124987,0.1459,-0.0867,0.1830,0.0304,-0.1481,0.3814,30.1200,-12.0600,-27.8400,
4.128681,0.1459,-0.0867,0.1830,0.0304,-0.1481,0.3814,31.0200,-12.2400,-27.3000,
4.144322,0.1459,-0.0867,0.1830,0.0794,-0.0756,0.2738,31.0200,-12.2400,-27.3000,
4.165119,0.1459,-0.0867,0.1830,0.1417,0.0708,0.1635,31.0200,-12.2400,-27.3000,
4.185605,0.1459,-0.0867,0.1830,0.1417,0.0708,0.1635,31.0200,-12.2400,-27.3000,
4.186358,0.1459,-0.0867,0.1830,0.2498,0.0373,0.0229,31.0200,-12.2400,-27.3000,
4.186712,0.7764,0.2397,2.0036,0.2498,0.0373,0.0229,31.0200,-12.2400,-27.3000,
4.189819,0.7764,0.2397,2.0036,0.2498,0.0373,0.0229,31.1400,-12.8400,-27.5400,
4.205448,0.7764,0.2397,2.0036,0.4533,0.1198,-0.1332,31.1400,-12.8400,-27.5400,
4.226723,0.7764,0.2397,2.0036,0.5673,0.0820,-0.2748,31.1400,-12.8400,-27.5400,
4.247258,0.7764,0.2397,2.0036,0.5673,0.0820,-0.2748,31.1400,-12.8400,-27.5400,
4.248181,0.7764,0.2397,2.0036,0.5475,-0.2466,-0.1731,31.1400,-12.8400,-27.5400,
4.248846,-1.8715,0.7476,0.1620,0.5475,-0.2466,-0.1731,31.1400,-12.8400,-27.5400,
4.251382,-1.8715,0.7476,0.1620,0.5475,-0.2466,-0.1731,31.1400,-13.0800,-27.1800,
4.267876,-1.8715,0.7476,0.1620,0.4927,-0.5119,-0.0362,31.1400,-13.0800,-27.1800,
4.288430,-1.8715,0.7476,0.1620,0.5859,-0.3734,-0.0959,31.1400,-13.0800,-27.1800,
4.308625,-1.8715,0.7476,0.1620,0.5859,-0.3734,-0.0959,31.1400,-13.0800,-27.1800,
4.309194,-1.8715,0.7476,0.1620,0.7734,0.0101,-0.3441,31.1400,-13.0800,-27.1800,
4.309782,0.6090,0.3471,1.7431,0.7734,0.0101,-0.3441,31.1400,-13.0800,-27.1800,
4.313168,0.6090,0.3471,1.7431,0.7734,0.0101,-0.3441,30.7200,-13.6200,-27.7200,
4.329136,0.6090,0.3471,1.7431,0.9332,0.0069,-0.5577,30.7200,-13.6200,-27.7200,
4.350027,0.6090,0.3471,1.7431,1.0621,0.1838,-0.6780,30.7200,-13.6200,-27.7200,
4.372025,0.6090,0.3471,1.7431,1.0621,0.1838,-0.6780,30.7200,-13.6200,-27.7200,
4.372563,-1.3450,-0.3267,0.1466,1.0621,0.1838,-0.6780,30.7200,-13.6200,-27.7200,
4.372906,-1.3450,-0.3267,0.1466,1.0429,0.0133,-0.6029,30.7200,-13.6200,-27.7200,
4.374397,-1.3450,-0.3267,0.1466,1.0429,0.0133,-0.6029,30.5400,-14.6400,-27.4800,
4.390743,-1.3450,-0.3267,0.1466,1.0019,-0.2040,-0.4112,30.5400,-14.6400,-27.4800,
4.410800,-1.3450,-0.3267,0.1466,1.0322,-0.3894,-0.1944,30.5400,-14.6400,-27.4800,
4.431973,-1.3450,-0.3267,0.1466,1.0322,-0.3894,-0.1944,30.5400,-14.6400,-27.4800,
4.432758,-1.3450,-0.3267,0.1466,1.1276,-0.1385,-0.0027,30.5400,-14.6400,-27.4800,
4.433156,-0.4455,-0.0899,0.7822,1.1276,-0.1385,-0.0027,30.5400,-14.6400,-27.4800,
4.438377,-0.4455,-0.0899,0.7822,1.1276,-0.1385,-0.0027,30.4800,-15.5400,-27.3000,
4.452916,-0.4455,-0.0899,0.7822,1.1446,0.0160,0.2583,30.4800,-15.5400,-27.3000,
4.473504,-0.4455,-0.0899,0.7822,1.0621,0.3217,0.4011,30.4800,-15.5400,-27.3000,
4.493393,-0.4455,-0.0899,0.7822,1.0621,0.3217,0.4011,30.4800,-15.5400,-27.3000,
4.494337,-0.4455,-0.0899,0.7822,0.7361,0.5918,0.4772,30.4800,-15.5400,-27.3000,
4.495267,1.1780,-0.1913,-0.7429,0.7361,0.5918,0.4772,30.4800,-15.5400,-27.3000,
4.497754,1.1780,-0.1913,-0.7429,0.7361,0.5918,0.4772,30.7200,-16.4400,-26.8800,
4.514058,1.1780,-0.1913,-0.7429,0.5417,0.5316,0.6509,30.7200,-16.4400,-26.8800,
4.534840,1.1780,-0.1913,-0.7429,0.5428,0.9758,0.4218,30.7200,-16.4400,-26.8800,
4.555957,1.1780,-0.1913,-0.7429,0.5428,0.9758,0.4218,30.7200,-16.4400,-26.8800,
4.557042,1.1780,-0.1913,-0.7429,0.3361,0.6525,0.2850,30.7200,-16.4400,-26.8800,
4.557852,0.4752,2.0862,1.2783,0.3361,0.6525,0.2850,30.7200,-16.4400,-26.8800,
4.560425,0.4752,2.0862,1.2783,0.3361,0.6525,0.2850,31.1400,-18.1200,-25.4400,
4.575865,0.4752,2.0862,1.2783,0.4916,0.7185,0.3563,31.1400,-18.1200,-25.4400,
4.597247,0.4752,2.0862,1.2783,0.3899,0.5246,0.2269,31.1400,-18.1200,-25.4400,
4.616842,0.4752,2.0862,1.2783,0.3899,0.5246,0.2269,31.1400,-18.1200,-25.4400,
4.617582,0.4752,2.0862,1.2783,0.3372,0.2679,0.1316,31.1400,-18.1200,-25.4400,
4.617828,2.3546,1.2147,1.0482,0.3372,0.2679,0.1316,31.1400,-18.1200,-25.4400,
4.620689,2.3546,1.2147,1.0482,0.3372,0.2679,0.1316,31.4400,-19.3800,-24.1800,
4.637479,2.3546,1.2147,1.0482,0.3345,0.1049,0.2285,31.4400,-19.3800,-24.1800,
4.658272,2.3546,1.2147,1.0482,0.0943,-0.0602,0.3654,31.4400,-19.3800,-24.1800,
4.679355,2.3546,1.2147,1.0482,0.0943,-0.0602,0.3654,31.4400,-19.3800,-24.1800,
4.680188,1.4260,1.4002,0.0497,0.0943,-0.0602,0.3654,31.4400,-19.3800,-24.1800,
4.680800,1.4260,1.4002,0.0497,-0.0352,-0.1784,0.5001,31.4400,-19.3800,-24.1800,
4.682663,1.4260,1.4002,0.0497,-0.0352,-0.1784,0.5001,31.5600,-21.1200,-22.8000,
4.698093,1.4260,1.4002,0.0497,-0.1177,-0.2583,0.5779,31.5600,-21.1200,-22.8000,
4.719489,1.4260,1.4002,0.0497,-0.2461,-0.1981,0.7249,31.5600,-21.1200,-22.8000,
4.739428,1.4260,1.4002,0.0497,-0.2461,-0.1981,0.7249,31.5600,-21.1200,-22.8000,
4.740223,1.4260,1.4002,0.0497,-0.3867,-0.1236,0.9167,31.5600,-21.1200,-22.8000,
4.740650,-1.1958,0.8982,-1.7664,-0.3867,-0.1236,0.9167,31.5600,-21.1200,-22.8000,
4.744132,-1.1958,0.8982,-1.7664,-0.3867,-0.1236,0.9167,31.7400,-22.9200,-21.1200,
4.760978,-1.1958,0.8982,-1.7664,-0.5017,-0.1534,0.9523,31.7400,-22.9200,-21.1200,
4.780724,-1.1958,0.8982,-1.7664,-0.3350,-0.2626,0.7457,31.7400,-22.9200,-21.1200,
4.801723,-1.1958,0.8982,-1.7664,-0.3350,-0.2626,0.7457,31.7400,-22.9200,-21.1200,
4.802959,-1.1958,0.8982,-1.7664,-0.0634,-0.2397,0.5129,31.7400,-22.9200,-21.1200,
4.803468,-0.2157,0.3129,-0.3123,-0.0634,-0.2397,0.5129,31.7400,-22.9200,-21.1200,
4.806060,-0.2157,0.3129,-0.3123,-0.0634,-0.2397,0.5129,31.4400,-24.1800,-20.6400,
4.821428,-0.2157,0.3129,-0.3123,-0.0826,-0.0991,0.5252,31.4400,-24.1800,-20.6400,
4.842252,-0.2157,0.3129,-0.3123,-0.2599,-0.0027,0.6179,31.4400,-24.1800,-20.6400,
4.863124,-0.2157,0.3129,-0.3123,-0.2599,-0.0027,0.6179,31.4400,-24.1800,-20.6400,
4.864169,-0.2157,0.3129,-0.3123,-0.4266,0.0543,0.4863,31.4400,-24.1800,-20.6400,
4.864901,0.6050,-0.8029,-0.6229,-0.4266,0.0543,0.4863,31.4400,-24.1800,-20.6400,
4.867970,0.6050,-0.8029,-0.6229,-0.4266,0.0543,0.4863,30.3000,-25.3200,-21.2400,
4.883568,0.6050,-0.8029,-0.6229,-0.4389,0.0799,0.3350,30.3000,-25.3200,-21.2400,
4.904936,0.6050,-0.8029,-0.6229,-0.3686,0.0059,0.4107,30.3000,-25.3200,-21.2400,
4.924364,0.6050,-0.8029,-0.6229,-0.3686,0.0059,0.4107,30.3000,-25.3200,-21.2400,
4.924878,-3.2527,-1.9451,-0.6946,-0.3686,0.0059,0.4107,30.3000,-25.3200,-21.2400,
4.925218,-3.2527,-1.9451,-0.6946,-0.3382,-0.0543,0.6099,30.3000,-25.3200,-21.2400,
4.928886,-3.2527,-1.9451,-0.6946,-0.3382,-0.0543,0.6099,28.8000,-26.4600,-21.6600,
4.945509,-3.2527,-1.9451,-0.6946,-0.3792,-0.0964,0.7324,28.8000,-26.4600,-21.6600,
4.965601,-3.2527,-1.9451,-0.6946,-0.3531,-0.0820,0.6370,28.8000,-26.4600,-21.6600,
4.986832,-3.2527,-1.9451,-0.6946,-0.3531,-0.0820,0.6370,28.8000,-26.4600,-21.6600,
4.987976,-0.9149,-1.3201,-0.0507,-0.3531,-0.0820,0.6370,28.8000,-26.4600,-21.6600,
4.988635,-0.9149,-1.3201,-0.0507,-0.2716,-0.0234,0.4804,28.8000,-26.4600,-21.6600,
4.991126,-0.9149,-1.3201,-0.0507,-0.2716,-0.0234,0.4804,27.0000,-27.3600,-22.9200,
5.007100,-0.9149,-1.3201,-0.0507,-0.3441,0.0538,0.4213,27.0000,-27.3600,-22.9200,
5.027424,-0.9149,-1.3201,-0.0507,-0.4575,0.0985,0.4602,27.0000,-27.3600,-22.9200,
5.047750,-0.9149,-1.3201,-0.0507,-0.4575,0.0985,0.4602,27.0000,-27.3600,-22.9200,
5.048682,-0.9149,-1.3201,-0.0507,-0.4341,0.3979,0.4506,27.0000,-27.3600,-22.9200,
5.049185,0.3998,-2.0357,-0.8800,-0.4341,0.3979,0.4506,27.0000,-27.3600,-22.9200,
5.052485,0.3998,-2.0357,-0.8800,-0.4341,0.3979,0.4506,25.2000,-28.3200,-23.7600,
5.068400,0.3998,-2.0357,-0.8800,-0.3691,0.2647,0.4501,25.2000,-28.3200,-23.7600,
5.088722,0.3998,-2.0357,-0.8800,0.0154,0.3798,0.3143,25.2000,-28.3200,-23.7600,
5.109627,0.3998,-2.0357,-0.8800,0.0154,0.3798,0.3143,25.2000,-28.3200,-23.7600,
5.110720,0.3998,-2.0357,-0.8800,0.3665,0.4064,0.0975,25.2000,-28.3200,-23.7600,
5.111217,0.5839,-1.0027,2.0053,0.3665,0.4064,0.0975,25.2000,-28.3200,-23.7600,
5.114309,0.5839,-1.0027,2.0053,0.3665,0.4064,0.0975,23.5200,-29.1600,-24.4800,
5.131081,0.5839,-1.0027,2.0053,0.3840,0.3595,0.0043,23.5200,-29.1600,-24.4800,
5.150732,0.5839,-1.0027,2.0053,0.1502,0.1230,0.0538,23.5200,-29.1600,-24.4800,
5.171383,0.5839,-1.0027,2.0053,0.1502,0.1230,0.0538,23.5200,-29.1600,-24.4800,
5.172571,0.5839,-1.0027,2.0053,0.3254,0.3585,-0.0597,23.5200,-29.1600,-24.4800,
5.173202,1.0845,-1.4120,0.3770,0.3254,0.3585,-0.0597,23.5200,-29.1600,-24.4800,
5.175683,1.0845,-1.4120,0.3770,0.3254,0.3585,-0.0597,23.1000,-29.4000,-24.7200,
5.191582,1.0845,-1.4120,0.3770,0.4964,0.6850,-0.3217,23.1000,-29.4000,-24.7200,
5.212088,1.0845,-1.4120,0.3770,0.5880,0.3388,-0.5358,23.1000,-29.4000,-24.7200,
5.232335,1.0845,-1.4120,0.3770,0.5880,0.3388,-0.5358,23.1000,-29.4000,-24.7200,
5.232851,1.0845,-1.4120,0.3770,0.9028,0.4575,-0.5683,23.1000,-29.4000,-24.7200,
5.233178,0.8457,-1.7582,0.8316,0.9028,0.4575,-0.5683,23.1000,-29.4000,-24.7200,
5.238872,0.8457,-1.7582,0.8316,0.9028,0.4575,-0.5683,22.9800,-29.5800,-24.8400,
5.254333,0.8457,-1.7582,0.8316,0.9028,0.4575,-0.5683,22.9800,-29.5800,-24.8400,
5.255120,0.8457,-1.7582,0.8316,0.6456,0.3760,-0.4282,22.9800,-29.5800,-24.8400,
5.255730,0.6594,-1.4457,-3.2615,0.6456,0.3760,-0.4282,22.9800,-29.5800,-24.8400,
5.273655,0.6594,-1.4457,-3.2615,0.6456,0.3760,-0.4282,22.9800,-29.5800,-24.8400,
5.274724,0.6594,-1.4457,-3.2615,0.3143,0.1694,-0.4181,22.9800,-29.5800,-24.8400,
5.275250,0.5700,-0.8491,-1.4177,0.3143,0.1694,-0.4181,22.9800,-29.5800,-24.8400,
5.294357,0.5700,-0.8491,-1.4177,0.3143,0.1694,-0.4181,22.9800,-29.5800,-24.8400,
5.295243,0.1490,-0.2627,-0.1353,0.3143,0.1694,-0.4181,22.9800,-29.5800,-24.8400,
5.295850,0.1490,-0.2627,-0.1353,0.4346,0.2173,-0.4128,22.9800,-29.5800,-24.8400,
5.298989,0.1490,-0.2627,-0.1353,0.4346,0.2173,-0.4128,23.4000,-29.8200,-24.5400,
5.314325,0.1490,-0.2627,-0.1353,0.4346,0.2173,-0.4128,23.4000,-29.8200,-24.5400,
5.315386,0.1490,-0.2627,-0.1353,0.4815,0.1566,-0.3840,23.4000,-29.8200,-24.5400,
5.315991,-0.2614,0.1381,-0.4565,0.4815,0.1566,-0.3840,23.4000,-29.8200,-24.5400,
5.334826,-0.2614,0.1381,-0.4565,0.4815,0.1566,-0.3840,23.4000,-29.8200,-24.5400,
5.335373,-0.2614,0.1381,-0.4565,0.3244,0.1140,-0.4021,23.4000,-29.8200,-24.5400,
5.335657,0.2276,0.2023,-1.6624,0.3244,0.1140,-0.4021,23.4000,-29.8200,-24.5400,
5.355559,0.2276,0.2023,-1.6624,0.3244,0.1140,-0.4021,23.4000,-29.8200,-24.5400,
5.356365,0.2276,0.2023,-1.6624,0.1790,-0.0554,-0.4277,23.4000,-29.8200,-24.5400,
5.356779,0.3240,0.2395,0.1322,0.1790,-0.0554,-0.4277,23.4000,-29.8200,-24.5400,
5.359753,0.3240,0.2395,0.1322,0.1790,-0.0554,-0.4277,24.3000,-30.1800,-23.2800,
5.376031,0.3240,0.2395,0.1322,0.1790,-0.0554,-0.4277,24.3000,-30.1800,-23.2800,
5.376740,0.3240,0.2395,0.1322,0.4117,-0.0575,-0.3947,24.3000,-30.1800,-23.2800,
5.377221,0.3458,0.3785,1.5170,0.4117,-0.0575,-0.3947,24.3000,-30.1800,-23.2800,
5.396534,0.3458,0.3785,1.5170,0.4117,-0.0575,-0.3947,24.3000,-30.1800,-23.2800,
5.397429,0.3458,0.3785,1.5170,0.5539,0.0511,-0.2312,24.3000,-30.1800,-23.2800,
5.398040,-0.7257,0.5902,-0.1895,0.5539,0.0511,-0.2312,24.3000,-30.1800,-23.2800,
5.417575,-0.7257,0.5902,-0.1895,0.5539,0.0511,-0.2312,24.3000,-30.1800,-23.2800,
5.418189,-0.7257,0.5902,-0.1895,0.2743,0.0623,0.0101,24.3000,-30.1800,-23.2800,
5.418497,-0.8668,1.2551,-2.0261,0.2743,0.0623,0.0101,24.3000,-30.1800,-23.2800,
5.421406,-0.8668,1.2551,-2.0261,0.2743,0.0623,0.0101,25.0200,-30.4200,-22.2000,
5.438183,-0.8668,1.2551,-2.0261,0.2743,0.0623,0.0101,25.0200,-30.4200,-22.2000,
5.438654,0.6241,1.1682,1.1497,0.2743,0.0623,0.0101,25.0200,-30.4200,-22.2000,
5.438978,0.6241,1.1682,1.1497,-0.0261,-0.0304,0.1145,25.0200,-30.4200,-22.2000,
5.458563,0.6241,1.1682,1.1497,-0.0261,-0.0304,0.1145,25.0200,-30.4200,-22.2000,
5.459221,0.6241,1.1682,1.1497,0.1513,0.1156,0.2045,25.0200,-30.4200,-22.2000,
5.459482,0.0390,1.3089,2.1039,0.1513,0.1156,0.2045,25.0200,-30.4200,-22.2000,
5.478694,0.0390,1.3089,2.1039,0.1513,0.1156,0.2045,25.0200,-30.4200,-22.2000,
5.479368,0.0390,1.3089,2.1039,0.0756,0.0128,0.3750,25.0200,-30.4200,-22.2000,
5.479817,0.0039,0.7351,0.5654,0.0756,0.0128,0.3750,25.0200,-30.4200,-22.2000,
5.483150,0.0039,0.7351,0.5654,0.0756,0.0128,0.3750,25.5600,-31.0800,-21.0600,
5.499376,0.0039,0.7351,0.5654,0.0756,0.0128,0.3750,25.5600,-31.0800,-21.0600,
5.500210,0.0039,0.7351,0.5654,-0.1060,0.0091,0.4410,25.5600,-31.0800,-21.0600,
5.500651,-0.0975,0.6269,1.2613,-0.1060,0.0091,0.4410,25.5600,-31.0800,-21.0600,
5.519869,-0.0975,0.6269,1.2613,-0.1060,0.0091,0.4410,25.5600,-31.0800,-21.0600,
5.520714,-0.0975,0.6269,1.2613,-0.2061,0.0623,0.6024,25.5600,-31.0800,-21.0600,
5.521185,-0.2889,0.1276,1.4200,-0.2061,0.0623,0.6024,25.5600,-31.0800,-21.0600,
5.540237,-0.2889,0.1276,1.4200,-0.2061,0.0623,0.6024,25.5600,-31.0800,-21.0600,
5.541116,-0.2889,0.1276,1.4200,-0.4266,0.1076,0.6242,25.5600,-31.0800,-21.0600,
5.541830,2.0999,-0.9246,2.0982,-0.4266,0.1076,0.6242,25.5600,-31.0800,-21.0600,
5.545034,2.0999,-0.9246,2.0982,-0.4266,0.1076,0.6242,25.6200,-31.8000,-19.7400,
5.560871,2.0999,-0.9246,2.0982,-0.4266,0.1076,0.6242,25.6200,-31.8000,-19.7400,
5.561877,2.9826,-0.6659,4.1962,-0.4266,0.1076,0.6242,25.6200,-31.8000,-19.7400,
5.562456,2.9826,-0.6659,4.1962,-0.3409,0.0474,0.5795,25.6200,-31.8000,-19.7400,
5.581682,2.9826,-0.6659,4.1962,-0.3409,0.0474,0.5795,25.6200,-31.8000,-19.7400,
5.582823,2.9826,-0.6659,4.1962,-0.1236,0.0570,0.5422,25.6200,-31.8000,-19.7400,
5.583351,1.4614,-0.1972,1.2890,-0.1236,0.0570,0.5422,25.6200,-31.8000,-19.7400,
5.601598,1.4614,-0.1972,1.2890,-0.1236,0.0570,0.5422,25.6200,-31.8000,-19.7400,
5.602740,1.4614,-0.1972,1.2890,-0.5598,0.0985,0.6024,25.6200,-31.8000,-19.7400,
5.603150,-0.5719,-0.0681,-2.2755,-0.5598,0.0985,0.6024,25.6200,-31.8000,-19.7400,
5.607790,-0.5719,-0.0681,-2.2755,-0.5598,0.0985,0.6024,25.6200,-32.3400,-19.3200,
5.623199,-0.5719,-0.0681,-2.2755,-0.5598,0.0985,0.6024,25.6200,-32.3400,-19.3200,
5.624151,-0.5719,-0.0681,-2.2755,-1.2645,0.3680,0.8980,25.6200,-32.3400,-19.3200,
5.624929,-2.2873,0.2732,-1.6325,-1.2645,0.3680,0.8980,25.6200,-32.3400,-19.3200,
5.642415,-2.2873,0.2732,-1.6325,-1.2645,0.3680,0.8980,25.6200,-32.3400,-19.3200,
5.642838,-2.2873,0.2732,-1.6325,-1.5691,0.4416,1.0461,25.6200,-32.3400,-19.3200,
5.643140,-1.3514,0.2529,1.3963,-1.5691,0.4416,1.0461,25.6200,-32.3400,-19.3200,
5.663553,-1.3514,0.2529,1.3963,-1.5691,0.4416,1.0461,25.6200,-32.3400,-19.3200,
5.663968,-1.3514,0.2529,1.3963,-1.3593,0.8261,1.0024,25.6200,-32.3400,-19.3200,
5.664261,-0.9399,0.7482,2.6493,-1.3593,0.8261,1.0024,25.6200,-32.3400,-19.3200,
5.667535,-0.9399,0.7482,2.6493,-1.3593,0.8261,1.0024,24.8400,-33.1800,-19.2600,
5.683867,-0.9399,0.7482,2.6493,-1.3593,0.8261,1.0024,24.8400,-33.1800,-19.2600,
5.684857,-0.9399,0.7482,2.6493,-1.3417,0.6195,1.0605,24.8400,-33.1800,-19.2600,
5.685772,-1.2880,0.2089,0.0118,-1.3417,0.6195,1.0605,24.8400,-33.1800,-19.2600,
5.704867,-1.2880,0.2089,0.0118,-1.3417,0.6195,1.0605,24.8400,-33.1800,-19.2600,
5.706014,-1.2880,0.2089,0.0118,-1.6192,0.5023,1.1601,24.8400,-33.1800,-19.2600,
5.706744,-1.2443,0.0009,0.0748,-1.6192,0.5023,1.1601,24.8400,-33.1800,-19.2600,
5.725017,-1.2443,0.0009,0.0748,-1.6192,0.5023,1.1601,24.8400,-33.1800,-19.2600,
5.726126,-1.2443,0.0009,0.0748,-1.7406,0.5646,1.2410,24.8400,-33.1800,-19.2600,
5.726903,-1.4198,-0.2994,1.1594,-1.7406,0.5646,1.2410,24.8400,-33.1800,-19.2600,
5.729516,-1.4198,-0.2994,1.1594,-1.7406,0.5646,1.2410,23.8200,-33.4800,-19.9200,
5.745090,-1.4198,-0.2994,1.1594,-1.7406,0.5646,1.2410,23.8200,-33.4800,-19.9200,
5.745568,-1.4198,-0.2994,1.1594,-1.7433,0.6914,1.2362,23.8200,-33.4800,-19.9200,
5.745855,-1.0127,-0.9066,1.2656,-1.7433,0.6914,1.2362,23.8200,-33.4800,-19.9200,
5.766650,-1.0127,-0.9066,1.2656,-1.7433,0.6914,1.2362,23.8200,-33.4800,-19.9200,
5.767555,-1.0127,-0.9066,1.2656,-1.7854,0.7558,1.2474,23.8200,-33.4800,-19.9200,
5.768155,-1.3281,-1.0862,0.7741,-1.7854,0.7558,1.2474,23.8200,-33.4800,-19.9200,
5.786805,-1.3281,-1.0862,0.7741,-1.7854,0.7558,1.2474,23.8200,-33.4800,-19.9200,
5.787796,-1.3281,-1.0862,0.7741,-1.9052,0.7153,1.2922,23.8200,-33.4800,-19.9200,
5.788448,-0.9140,-0.9899,0.5784,-1.9052,0.7153,1.2922,23.8200,-33.4800,-19.9200,
5.791495,-0.9140,-0.9899,0.5784,-1.9052,0.7153,1.2922,22.6800,-33.4200,-21.7800,
5.806592,-0.9140,-0.9899,0.5784,-1.9052,0.7153,1.2922,22.6800,-33.4200,-21.7800,
5.807118,-0.9140,-0.9899,0.5784,-2.0389,0.6093,1.2533,22.6800,-33.4200,-21.7800,
5.807430,-0.0824,-1.1495,0.3966,-2.0389,0.6093,1.2533,22.6800,-33.4200,-21.7800,
5.827957,-0.0824,-1.1495,0.3966,-2.0389,0.6093,1.2533,22.6800,-33.4200,-21.7800,
5.829115,0.6900,-1.2651,1.2268,-2.0389,0.6093,1.2533,22.6800,-33.4200,-21.7800,
5.829968,0.6900,-1.2651,1.2268,-2.1055,0.5438,1.0450,22.6800,-33.4200,-21.7800,
5.847583,0.6900,-1.2651,1.2268,-2.1055,0.5438,1.0450,22.6800,-33.4200,-21.7800,
5.848188,0.6900,-1.2651,1.2268,-2.0171,0.6503,0.8911,22.6800,-33.4200,-21.7800,
5.848503,0.1691,-1.2642,0.9060,-2.0171,0.6503,0.8911,22.6800,-33.4200,-21.7800,
5.852365,0.1691,-1.2642,0.9060,-2.0171,0.6503,0.8911,21.4200,-32.5800,-24.1200,
5.869692,0.1691,-1.2642,0.9060,-2.0171,0.6503,0.8911,21.4200,-32.5800,-24.1200,
5.870618,0.1691,-1.2642,0.9060,-1.9739,0.7883,0.8591,21.4200,-32.5800,-24.1200,
5.871229,-0.0491,-1.3391,0.9549,-1.9739,0.7883,0.8591,21.4200,-32.5800,-24.1200,
5.889073,-0.0491,-1.3391,0.9549,-1.9739,0.7883,0.8591,21.4200,-32.5800,-24.1200,
5.889946,-0.0491,-1.3391,0.9549,-1.9058,0.8687,0.8458,21.4200,-32.5800,-24.1200,
5.890659,-0.0188,-1.6718,0.8806,-1.9058,0.8687,0.8458,21.4200,-32.5800,-24.1200,
5.911267,-0.0188,-1.6718,0.8806,-1.9058,0.8687,0.8458,21.4200,-32.5800,-24.1200,
5.912201,-0.0188,-1.6718,0.8806,-1.9084,1.2384,0.8037,21.4200,-32.5800,-24.1200,
5.912861,0.0913,-1.3020,0.4446,-1.9084,1.2384,0.8037,21.4200,-32.5800,-24.1200,
5.915155,0.0913,-1.3020,0.4446,-1.9084,1.2384,0.8037,20.3400,-31.0800,-26.7600,
5.931033,0.0913,-1.3020,0.4446,-1.9084,1.2384,0.8037,20.3400,-31.0800,-26.7600,
5.932177,0.0913,-1.3020,0.4446,-1.9697,1.5771,0.6424,20.3400,-31.0800,-26.7600,
5.932964,0.0802,-1.0720,0.2634,-1.9697,1.5771,0.6424,20.3400,-31.0800,-26.7600,
5.950633,0.0802,-1.0720,0.2634,-1.9697,1.5771,0.6424,20.3400,-31.0800,-26.7600,
5.951133,0.0802,-1.0720,0.2634,-2.0506,1.7454,0.4884,20.3400,-31.0800,-26.7600,
5.951478,-0.2614,-1.1597,-0.0292,-2.0506,1.7454,0.4884,20.3400,-31.0800,-26.7600,
5.972045,-0.2614,-1.1597,-0.0292,-2.0506,1.7454,0.4884,20.3400,-31.0800,-26.7600,
5.972989,-0.2614,-1.1597,-0.0292,-2.1811,1.8429,0.3308,20.3400,-31.0800,-26.7600,
5.973685,-0.2468,-0.6931,0.1404,-2.1811,1.8429,0.3308,20.3400,-31.0800,-26.7600,
5.975967,-0.2468,-0.6931,0.1404,-2.1811,1.8429,0.3308,19.7400,-28.9800,-29.5800,
5.992229,-0.2468,-0.6931,0.1404,-2.1811,1.8429,0.3308,19.7400,-28.9800,-29.5800,
5.993415,-0.2468,-0.6931,0.1404,-2.2333,1.8871,0.1305,19.7400,-28.9800,-29.5800,
5.994110,0.3428,-0.6076,1.0285,-2.2333,1.8871,0.1305,19.7400,-28.9800,-29.5800,
6.013428,0.3428,-0.6076,1.0285,-2.2333,1.8871,0.1305,19.7400,-28.9800,-29.5800,
6.014486,0.3428,-0.6076,1.0285,-2.0208,1.9079,0.0602,19.7400,-28.9800,-29.5800,
6.015205,-0.1963,-0.8557,0.2589,-2.0208,1.9079,0.0602,19.7400,-28.9800,-29.5800,
6.033480,-0.1963,-0.8557,0.2589,-2.0208,1.9079,0.0602,19.7400,-28.9800,-29.5800,
6.034396,-0.1963,-0.8557,0.2589,-1.8935,2.0501,0.1310,19.7400,-28.9800,-29.5800,
6.035009,-0.5406,-0.7671,0.0123,-1.8935,2.0501,0.1310,19.7400,-28.9800,-29.5800,
6.038493,-0.5406,-0.7671,0.0123,-1.8935,2.0501,0.1310,20.0400,-26.0400,-30.7200,
6.054989,-0.5406,-0.7671,0.0123,-1.8935,2.0501,0.1310,20.0400,-26.0400,-30.7200,
6.055547,-0.5406,-0.7671,0.0123,-1.7406,1.8030,0.3238,20.0400,-26.0400,-30.7200,
6.055861,-1.0356,-1.1393,-0.7715,-1.7406,1.8030,0.3238,20.0400,-26.0400,-30.7200,
6.074584,-1.0356,-1.1393,-0.7715,-1.7406,1.8030,0.3238,20.0400,-26.0400,-30.7200,
6.075353,-1.0356,-1.1393,-0.7715,-1.7358,1.7465,0.4767,20.0400,-26.0400,-30.7200,
6.075863,-1.5824,-1.5491,-2.1212,-1.7358,1.7465,0.4767,20.0400,-26.0400,-30.7200,
6.094490,-1.5824,-1.5491,-2.1212,-1.7358,1.7465,0.4767,20.0400,-26.0400,-30.7200,
6.095721,-1.8626,-1.3678,-1.5514,-1.7358,1.7465,0.4767,20.0400,-26.0400,-30.7200,
6.096312,-1.8626,-1.3678,-1.5514,-1.6203,1.5569,0.5965,20.0400,-26.0400,-30.7200,
6.099367,-1.8626,-1.3678,-1.5514,-1.6203,1.5569,0.5965,21.7200,-22.7400,-31.7400,
6.115175,-1.8626,-1.3678,-1.5514,-1.6203,1.5569,0.5965,21.7200,-22.7400,-31.7400,
6.116145,-1.8626,-1.3678,-1.5514,-1.3529,1.4152,0.5241,21.7200,-22.7400,-31.7400,
6.116743,-1.3610,-1.1975,-1.1297,-1.3529,1.4152,0.5241,21.7200,-22.7400,-31.7400,
6.135996,-1.3610,-1.1975,-1.1297,-1.3529,1.4152,0.5241,21.7200,-22.7400,-31.7400,
6.137126,-1.3610,-1.1975,-1.1297,-1.1148,1.2831,0.2136,21.7200,-22.7400,-31.7400,
6.138067,-0.6970,-1.0656,-0.8235,-1.1148,1.2831,0.2136,21.7200,-22.7400,-31.7400,
6.155557,-0.6970,-1.0656,-0.8235,-1.1148,1.2831,0.2136,21.7200,-22.7400,-31.7400,
6.156003,-0.6970,-1.0656,-0.8235,-1.1388,1.2645,-0.1555,21.7200,-22.7400,-31.7400,
6.156337,-0.2540,-0.5104,-1.3247,-1.1388,1.2645,-0.1555,21.7200,-22.7400,-31.7400,
6.160650,-0.2540,-0.5104,-1.3247,-1.1388,1.2645,-0.1555,24.0000,-19.3800,-32.5200,
6.177053,-0.2540,-0.5104,-1.3247,-1.1388,1.2645,-0.1555,24.0000,-19.3800,-32.5200,
6.177868,-0.6917,-0.0146,-1.7945,-1.1388,1.2645,-0.1555,24.0000,-19.3800,-32.5200,
6.178419,-0.6917,-0.0146,-1.7945,-1.3012,1.3651,-0.2407,24.0000,-19.3800,-32.5200,
6.197460,-0.6917,-0.0146,-1.7945,-1.3012,1.3651,-0.2407,24.0000,-19.3800,-32.5200,
6.198304,-0.6917,-0.0146,-1.7945,-1.5111,1.2176,0.0889,24.0000,-19.3800,-32.5200,
6.198830,-1.3891,-0.2375,-1.6391,-1.5111,1.2176,0.0889,24.0000,-19.3800,-32.5200,
6.218442,-1.3891,-0.2375,-1.6391,-1.5111,1.2176,0.0889,24.0000,-19.3800,-32.5200,
6.219567,-1.3891,-0.2375,-1.6391,-1.6852,0.8357,0.3808,24.0000,-19.3800,-32.5200,
6.220267,-0.6353,-0.6131,-0.7104,-1.6852,0.8357,0.3808,24.0000,-19.3800,-32.5200,
6.222956,-0.6353,-0.6131,-0.7104,-1.6852,0.8357,0.3808,26.5200,-16.4400,-32.1600,
6.238270,-0.6353,-0.6131,-0.7104,-1.6852,0.8357,0.3808,26.5200,-16.4400,-32.1600,
6.239170,-0.6353,-0.6131,-0.7104,-1.5926,0.5577,0.4325,26.5200,-16.4400,-32.1600,
6.239833,0.2131,-0.2735,-0.0219,-1.5926,0.5577,0.4325,26.5200,-16.4400,-32.1600,
6.258807,0.2131,-0.2735,-0.0219,-1.5926,0.5577,0.4325,26.5200,-16.4400,-32.1600,
6.259457,0.5486,0.3392,0.5889,-1.5926,0.5577,0.4325,26.5200,-16.4400,-32.1600,
6.260183,0.5486,0.3392,0.5889,-1.3231,0.4208,0.3345,26.5200,-16.4400,-32.1600,
6.279080,0.5486,0.3392,0.5889,-1.3231,0.4208,0.3345,26.5200,-16.4400,-32.1600,
6.279905,0.5486,0.3392,0.5889,-1.2282,0.4692,0.2061,26.5200,-16.4400,-32.1600,
6.280414,0.7600,0.9918,-0.1001,-1.2282,0.4692,0.2061,26.5200,-16.4400,-32.1600,
6.283357,0.7600,0.9918,-0.1001,-1.2282,0.4692,0.2061,29.4000,-13.5000,-31.8000,
6.300464,0.7600,0.9918,-0.1001,-1.2282,0.4692,0.2061,29.4000,-13.5000,-31.8000,
6.301570,0.7600,0.9918,-0.1001,-1.2970,0.7446,0.0362,29.4000,-13.5000,-31.8000,
6.302334,0.9523,1.4440,-0.4930,-1.2970,0.7446,0.0362,29.4000,-13.5000,-31.8000,
6.321802,0.9523,1.4440,-0.4930,-1.2970,0.7446,0.0362,29.4000,-13.5000,-31.8000,
6.323000,0.9523,1.4440,-0.4930,-1.3396,1.1542,-0.0996,29.4000,-13.5000,-31.8000,
6.323773,0.7841,1.6047,-0.9300,-1.3396,1.1542,-0.0996,29.4000,-13.5000,-31.8000,
6.340534,0.7841,1.6047,-0.9300,-1.3396,1.1542,-0.0996,29.4000,-13.5000,-31.8000,
6.341999,0.7841,1.6047,-0.9300,-1.3832,1.4291,-0.1310,29.4000,-13.5000,-31.8000,
6.342872,0.4925,1.4669,-1.2003,-1.3832,1.4291,-0.1310,29.4000,-13.5000,-31.8000,
6.346089,0.4925,1.4669,-1.2003,-1.3832,1.4291,-0.1310,31.4400,-10.9200,-30.9000,
6.361849,0.4925,1.4669,-1.2003,-1.3832,1.4291,-0.1310,31.4400,-10.9200,-30.9000,
6.362638,0.4925,1.4669,-1.2003,-1.4482,1.5265,-0.0916,31.4400,-10.9200,-30.9000,
6.363027,0.4281,1.4064,-1.5099,-1.4482,1.5265,-0.0916,31.4400,-10.9200,-30.9000,
6.381495,0.4281,1.4064,-1.5099,-1.4482,1.5265,-0.0916,31.4400,-10.9200,-30.9000,
6.382304,0.4281,1.4064,-1.5099,-1.4333,1.5734,-0.1161,31.4400,-10.9200,-30.9000,
6.382838,0.8933,0.8360,-1.5225,-1.4333,1.5734,-0.1161,31.4400,-10.9200,-30.9000,
6.402880,0.8933,0.8360,-1.5225,-1.4333,1.5734,-0.1161,31.4400,-10.9200,-30.9000,
6.404002,0.8933,0.8360,-1.5225,-1.2895,1.7593,-0.2274,31.4400,-10.9200,-30.9000,
6.404728,1.2986,0.2038,-1.5833,-1.2895,1.7593,-0.2274,31.4400,-10.9200,-30.9000,
6.407043,1.2986,0.2038,-1.5833,-1.2895,1.7593,-0.2274,33.0600,-8.3400,-30.0000,
6.422786,1.2986,0.2038,-1.5833,-1.2895,1.7593,-0.2274,33.0600,-8.3400,-30.0000,
6.423655,1.2986,0.2038,-1.5833,-1.1185,1.9042,-0.4405,33.0600,-8.3400,-30.0000,
6.424234,1.6733,-0.7137,-1.2690,-1.1185,1.9042,-0.4405,33.0600,-8.3400,-30.0000,
6.443921,1.6733,-0.7137,-1.2690,-1.1185,1.9042,-0.4405,33.0600,-8.3400,-30.0000,
6.445175,1.6733,-0.7137,-1.2690,-0.9268,1.6954,-0.5529,33.0600,-8.3400,-30.0000,
6.446146,1.0671,-1.1897,-0.3424,-0.9268,1.6954,-0.5529,33.0600,-8.3400,-30.0000,
6.463227,1.0671,-1.1897,-0.3424,-0.9268,1.6954,-0.5529,33.0600,-8.3400,-30.0000,
6.463711,1.0671,-1.1897,-0.3424,-0.6716,1.1164,-0.5076,33.0600,-8.3400,-30.0000,
6.464039,0.8882,-1.3774,0.0502,-0.6716,1.1164,-0.5076,33.0600,-8.3400,-30.0000,
6.468308,0.8882,-1.3774,0.0502,-0.6716,1.1164,-0.5076,35.2200,-5.2800,-28.1400,
6.484300,0.8882,-1.3774,0.0502,-0.6716,1.1164,-0.5076,35.2200,-5.2800,-28.1400,
6.485228,0.8882,-1.3774,0.0502,-0.3830,0.1928,-0.3782,35.2200,-5.2800,-28.1400,
6.485932,0.4465,-2.1080,1.3352,-0.3830,0.1928,-0.3782,35.2200,-5.2800,-28.1400,
6.505624,0.4465,-2.1080,1.3352,-0.3830,0.1928,-0.3782,35.2200,-5.2800,-28.1400,
6.506822,-0.1664,-2.6776,3.4529,-0.3830,0.1928,-0.3782,35.2200,-5.2800,-28.1400,
6.507511,-0.1664,-2.6776,3.4529,0.0218,-1.1776,-0.3649,35.2200,-5.2800,-28.1400,
6.526271,-0.1664,-2.6776,3.4529,0.0218,-1.1776,-0.3649,35.2200,-5.2800,-28.1400,
6.526890,-0.1664,-2.6776,3.4529,0.6067,-2.4996,-0.2738,35.2200,-5.2800,-28.1400,
6.527204,-1.8896,-0.6567,3.1229,0.6067,-2.4996,-0.2738,35.2200,-5.2800,-28.1400,
6.529523,-1.8896,-0.6567,3.1229,0.6067,-2.4996,-0.2738,36.5400,-3.1800,-25.6200,
6.546588,-1.8896,-0.6567,3.1229,0.6067,-2.4996,-0.2738,36.5400,-3.1800,-25.6200,
6.547763,-1.8896,-0.6567,3.1229,0.8932,-2.7175,0.0708,36.5400,-3.1800,-25.6200,
6.548484,-3.0952,1.3887,0.6603,0.8932,-2.7175,0.0708,36.5400,-3.1800,-25.6200,
6.566608,-3.0952,1.3887,0.6603,0.8932,-2.7175,0.0708,36.5400,-3.1800,-25.6200,
6.567109,-3.0952,1.3887,0.6603,0.7244,-2.2072,0.2908,36.5400,-3.1800,-25.6200,
6.567427,-2.3259,2.9442,-0.3886,0.7244,-2.2072,0.2908,36.5400,-3.1800,-25.6200,
6.587478,-2.3259,2.9442,-0.3886,0.7244,-2.2072,0.2908,36.5400,-3.1800,-25.6200,
6.588410,-2.3259,2.9442,-0.3886,0.1917,-0.9545,0.3127,36.5400,-3.1800,-25.6200,
6.588940,-2.0906,2.9154,-0.6561,0.1917,-0.9545,0.3127,36.5400,-3.1800,-25.6200,
6.591656,-2.0906,2.9154,-0.6561,0.1917,-0.9545,0.3127,37.5600,-1.1400,-24.2400,
6.607967,-2.0906,2.9154,-0.6561,0.1917,-0.9545,0.3127,37.5600,-1.1400,-24.2400,
6.609084,-2.0906,2.9154,-0.6561,-0.2818,0.4629,0.2908,37.5600,-1.1400,-24.2400,
6.610046,-2.1843,1.5344,-0.9671,-0.2818,0.4629,0.2908,37.5600,-1.1400,-24.2400,
6.628945,-2.1843,1.5344,-0.9671,-0.2818,0.4629,0.2908,37.5600,-1.1400,-24.2400,
6.629929,-2.1843,1.5344,-0.9671,-0.4362,1.4477,0.4980,37.5600,-1.1400,-24.2400,
6.630542,-2.5078,0.2970,-0.8085,-0.4362,1.4477,0.4980,37.5600,-1.1400,-24.2400,
6.648524,-2.5078,0.2970,-0.8085,-0.4362,1.4477,0.4980,37.5600,-1.1400,-24.2400,
6.649406,-2.5078,0.2970,-0.8085,-0.6083,1.4322,0.6679,37.5600,-1.1400,-24.2400,
6.650013,-1.2608,-0.3714,-1.3814,-0.6083,1.4322,0.6679,37.5600,-1.1400,-24.2400,
6.653654,-1.2608,-0.3714,-1.3814,-0.6083,1.4322,0.6679,38.0400,0.1800,-23.7600,
6.668944,-1.2608,-0.3714,-1.3814,-0.6083,1.4322,0.6679,38.0400,0.1800,-23.7600,
6.669241,-1.2608,-0.3714,-1.3814,-0.6759,0.6722,0.6216,38.0400,0.1800,-23.7600,
6.669864,0.2999,-0.2638,-0.4319,-0.6759,0.6722,0.6216,38.0400,0.1800,-23.7600,
6.690210,0.2999,-0.2638,-0.4319,-0.6759,0.6722,0.6216,38.0400,0.1800,-23.7600,
6.690977,0.2999,-0.2638,-0.4319,-0.4820,-0.4266,0.5135,38.0400,0.1800,-23.7600,
6.691480,0.6677,-0.5972,2.0696,-0.4820,-0.4266,0.5135,38.0400,0.1800,-23.7600,
6.710679,0.6677,-0.5972,2.0696,-0.4820,-0.4266,0.5135,38.0400,0.1800,-23.7600,
6.711562,0.6677,-0.5972,2.0696,-0.1055,-1.4402,0.2850,38.0400,0.1800,-23.7600,
6.712169,1.6138,0.2533,2.2815,-0.1055,-1.4402,0.2850,38.0400,0.1800,-23.7600,
6.714967,1.6138,0.2533,2.2815,-0.1055,-1.4402,0.2850,38.0400,0.3000,-23.8800,
6.730441,1.6138,0.2533,2.2815,-0.1055,-1.4402,0.2850,38.0400,0.3000,-23.8800,
6.731343,1.6138,0.2533,2.2815,0.2019,-1.9372,-0.0591,38.0400,0.3000,-23.8800,
6.731961,2.0923,1.0103,2.3423,0.2019,-1.9372,-0.0591,38.0400,0.3000,-23.8800,
6.751430,2.0923,1.0103,2.3423,0.2019,-1.9372,-0.0591,38.0400,0.3000,-23.8800,
6.752802,2.0923,1.0103,2.3423,0.0783,-2.5103,-0.2370,38.0400,0.3000,-23.8800,
6.753841,3.0319,0.7415,-0.3840,0.0783,-2.5103,-0.2370,38.0400,0.3000,-23.8800,
6.771604,3.0319,0.7415,-0.3840,0.0783,-2.5103,-0.2370,38.0400,0.3000,-23.8800,
6.772230,3.0319,0.7415,-0.3840,0.2216,-1.9175,-0.4906,38.0400,0.3000,-23.8800,
6.772543,3.2588,0.8546,-3.8373,0.2216,-1.9175,-0.4906,38.0400,0.3000,-23.8800,
6.776045,3.2588,0.8546,-3.8373,0.2216,-1.9175,-0.4906,37.6200,0.3000,-25.6200,
6.792493,3.2588,0.8546,-3.8373,0.2216,-1.9175,-0.4906,37.6200,0.3000,-25.6200,
6.793252,3.2588,0.8546,-3.8373,-0.0980,-0.0522,-0.5800,37.6200,0.3000,-25.6200,
6.793844,2.3919,0.0373,-3.7007,-0.0980,-0.0522,-0.5800,37.6200,0.3000,-25.6200,
6.813047,2.3919,0.0373,-3.7007,-0.0980,-0.0522,-0.5800,37.6200,0.3000,-25.6200,
6.814002,2.3919,0.0373,-3.7007,-0.7872,1.9612,-0.6743,37.6200,0.3000,-25.6200,
6.814678,-0.2313,-1.8598,-1.1911,-0.7872,1.9612,-0.6743,37.6200,0.3000,-25.6200,
6.833832,-0.2313,-1.8598,-1.1911,-0.7872,1.9612,-0.6743,37.6200,0.3000,-25.6200,
6.834858,-0.2313,-1.8598,-1.1911,-0.7468,2.1497,-0.6669,37.6200,0.3000,-25.6200,
6.835552,-1.1964,-1.6318,1.9160,-0.7468,2.1497,-0.6669,37.6200,0.3000,-25.6200,
6.838228,-1.1964,-1.6318,1.9160,-0.7468,2.1497,-0.6669,36.4200,-0.2400,-27.8400,
6.854985,-1.1964,-1.6318,1.9160,-0.7468,2.1497,-0.6669,36.4200,-0.2400,-27.8400,
6.855980,-1.1964,-1.6318,1.9160,-0.2088,0.8725,-0.4698,36.4200,-0.2400,-27.8400,
6.856704,-1.2477,-1.8499,1.6740,-0.2088,0.8725,-0.4698,36.4200,-0.2400,-27.8400,
6.874267,-1.2477,-1.8499,1.6740,-0.2088,0.8725,-0.4698,36.4200,-0.2400,-27.8400,
6.874803,-1.2477,-1.8499,1.6740,0.1033,0.5364,-0.2445,36.4200,-0.2400,-27.8400,
6.875083,-1.7491,-1.0802,-1.7040,0.1033,0.5364,-0.2445,36.4200,-0.2400,-27.8400,
6.895339,-1.7491,-1.0802,-1.7040,0.1033,0.5364,-0.2445,36.4200,-0.2400,-27.8400,
6.895994,-1.7491,-1.0802,-1.7040,-0.1097,0.6317,-0.1545,36.4200,-0.2400,-27.8400,
6.896410,-1.6610,-0.8123,-3.0523,-0.1097,0.6317,-0.1545,36.4200,-0.2400,-27.8400,
6.899422,-1.6610,-0.8123,-3.0523,-0.1097,0.6317,-0.1545,36.0600,0.0000,-28.0800,
6.915065,-1.6610,-0.8123,-3.0523,-0.1097,0.6317,-0.1545,36.0600,0.0000,-28.0800,
6.915896,-1.6610,-0.8123,-3.0523,-0.4735,0.9438,-0.0234,36.0600,0.0000,-28.0800,
6.916463,-2.6439,-0.7399,-2.2207,-0.4735,0.9438,-0.0234,36.0600,0.0000,-28.0800,
6.937136,-2.6439,-0.7399,-2.2207,-0.4735,0.9438,-0.0234,36.0600,0.0000,-28.0800,
6.938206,-2.6439,-0.7399,-2.2207,-0.4304,1.3289,0.2748,36.0600,0.0000,-28.0800,
6.938851,-2.7780,-0.7348,-0.3537,-0.4304,1.3289,0.2748,36.0600,0.0000,-28.0800,
6.956686,-2.7780,-0.7348,-0.3537,-0.4304,1.3289,0.2748,36.0600,0.0000,-28.0800,
6.957856,-2.7780,-0.7348,-0.3537,-0.2615,0.8954,0.6386,36.0600,0.0000,-28.0800,
6.958485,-2.2922,-2.8345,0.1047,-0.2615,0.8954,0.6386,36.0600,0.0000,-28.0800,
6.961624,-2.2922,-2.8345,0.1047,-0.2615,0.8954,0.6386,35.8800,0.7800,-28.3800,
6.978066,-2.2922,-2.8345,0.1047,-0.2615,0.8954,0.6386,35.8800,0.7800,-28.3800,
6.978678,1.1642,-3.8630,-0.1883,-0.2615,0.8954,0.6386,35.8800,0.7800,-28.3800,
6.978998,1.1642,-3.8630,-0.1883,-0.1731,-0.1321,0.6242,35.8800,0.7800,-28.3800,
6.997109,1.1642,-3.8630,-0.1883,-0.1731,-0.1321,0.6242,35.8800,0.7800,-28.3800,
6.997916,1.1642,-3.8630,-0.1883,-0.1273,-0.6242,-0.0485,35.8800,0.7800,-28.3800,
6.998394,2.1369,-2.2962,0.1309,-0.1273,-0.6242,-0.0485,35.8800,0.7800,-28.3800,
7.018698,2.1369,-2.2962,0.1309,-0.1273,-0.6242,-0.0485,35.8800,0.7800,-28.3800,
7.019725,2.1369,-2.2962,0.1309,0.1135,-0.4618,-0.6173,35.8800,0.7800,-28.3800,
7.020317,1.1086,-1.1572,0.5809,0.1135,-0.4618,-0.6173,35.8800,0.7800,-28.3800,
7.022430,1.1086,-1.1572,0.5809,0.1135,-0.4618,-0.6173,36.4200,1.8000,-27.3600,
7.039933,1.1086,-1.1572,0.5809,0.1135,-0.4618,-0.6173,36.4200,1.8000,-27.3600,
7.040883,1.1086,-1.1572,0.5809,0.3025,-0.3457,-0.6977,36.4200,1.8000,-27.3600,
7.041674,-2.2258,-0.7558,1.5652,0.3025,-0.3457,-0.6977,36.4200,1.8000,-27.3600,
7.059087,-2.2258,-0.7558,1.5652,0.3025,-0.3457,-0.6977,36.4200,1.8000,-27.3600,
7.060012,-2.2258,-0.7558,1.5652,0.1262,-0.3297,-0.1593,36.4200,1.8000,-27.3600,
7.060637,-4.0918,-0.9719,1.0760,0.1262,-0.3297,-0.1593,36.4200,1.8000,-27.3600,
7.080333,-4.0918,-0.9719,1.0760,0.1262,-0.3297,-0.1593,36.4200,1.8000,-27.3600,
7.081084,-4.0918,-0.9719,1.0760,-0.4096,-0.3169,0.0613,36.4200,1.8000,-27.3600,
7.081437,-1.4181,-0.1505,-0.1948,-0.4096,-0.3169,0.0613,36.4200,1.8000,-27.3600,
7.083669,-1.4181,-0.1505,-0.1948,-0.4096,-0.3169,0.0613,37.2000,2.7000,-25.8600,
7.100111,-1.4181,-0.1505,-0.1948,-0.4096,-0.3169,0.0613,37.2000,2.7000,-25.8600,
7.100833,-1.4181,-0.1505,-0.1948,-0.7787,-0.2519,0.0879,37.2000,2.7000,-25.8600,
7.101275,-0.6766,0.0580,0.0326,-0.7787,-0.2519,0.0879,37.2000,2.7000,-25.8600,
7.121030,-0.6766,0.0580,0.0326,-0.7787,-0.2519,0.0879,37.2000,2.7000,-25.8600,
7.122187,-0.9358,-0.4024,-0.8743,-0.7787,-0.2519,0.0879,37.2000,2.7000,-25.8600,
7.122878,-0.9358,-0.4024,-0.8743,-0.4117,0.4053,0.5497,37.2000,2.7000,-25.8600,
7.141810,-0.9358,-0.4024,-0.8743,-0.4117,0.4053,0.5497,37.2000,2.7000,-25.8600,
7.142990,-0.9358,-0.4024,-0.8743,0.3089,1.0461,1.0461,37.2000,2.7000,-25.8600,
7.143474,-0.6660,0.5195,-1.5842,0.3089,1.0461,1.0461,37.2000,2.7000,-25.8600,
7.146525,-0.6660,0.5195,-1.5842,0.3089,1.0461,1.0461,37.6200,3.1800,-25.6800,
7.162029,-0.6660,0.5195,-1.5842,0.3089,1.0461,1.0461,37.6200,3.1800,-25.6800,
7.163071,-0.6660,0.5195,-1.5842,0.9667,1.0983,1.3891,37.6200,3.1800,-25.6800,
7.163751,-0.3251,2.7194,-1.3803,0.9667,1.0983,1.3891,37.6200,3.1800,-25.6800,
7.182714,-0.3251,2.7194,-1.3803,0.9667,1.0983,1.3891,37.6200,3.1800,-25.6800,
7.183871,-0.3251,2.7194,-1.3803,0.8139,-0.7872,1.6283,37.6200,3.1800,-25.6800,
7.184453,0.3100,2.9239,0.7610,0.8139,-0.7872,1.6283,37.6200,3.1800,-25.6800,
7.203076,0.3100,2.9239,0.7610,0.8139,-0.7872,1.6283,37.6200,3.1800,-25.6800,
7.204107,0.3100,2.9239,0.7610,0.9262,-0.8954,1.5958,37.6200,3.1800,-25.6800,
7.204733,-0.3572,0.6970,-1.8965,0.9262,-0.8954,1.5958,37.6200,3.1800,-25.6800,
7.207209,-0.3572,0.6970,-1.8965,0.9262,-0.8954,1.5958,37.6800,2.8800,-25.0800,
7.223325,-0.3572,0.6970,-1.8965,0.9262,-0.8954,1.5958,37.6800,2.8800,-25.0800,
7.224095,-0.3572,0.6970,-1.8965,0.4059,-0.1715,1.1974,37.6800,2.8800,-25.0800,
7.224546,1.7804,-0.9298,-3.5422,0.4059,-0.1715,1.1974,37.6800,2.8800,-25.0800,
7.244172,1.7804,-0.9298,-3.5422,0.4059,-0.1715,1.1974,37.6800,2.8800,-25.0800,
7.245011,1.7804,-0.9298,-3.5422,0.0378,0.2866,0.4282,37.6800,2.8800,-25.0800,
7.245677,3.1255,-1.2745,-2.3174,0.0378,0.2866,0.4282,37.6800,2.8800,-25.0800,
7.264444,3.1255,-1.2745,-2.3174,0.0378,0.2866,0.4282,37.6800,2.8800,-25.0800,
7.265451,3.1255,-1.2745,-2.3174,0.0613,0.3089,-0.0421,37.6800,2.8800,-25.0800,
7.265858,2.4166,-0.4461,-1.6301,0.0613,0.3089,-0.0421,37.6800,2.8800,-25.0800,
7.268922,2.4166,-0.4461,-1.6301,0.0613,0.3089,-0.0421,37.0200,0.9600,-25.8600,
7.284486,2.4166,-0.4461,-1.6301,0.0613,0.3089,-0.0421,37.0200,0.9600,-25.8600,
7.285478,2.4166,-0.4461,-1.6301,0.2344,0.1427,-0.2663,37.0200,0.9600,-25.8600,
7.286140,1.8343,0.1695,-0.8067,0.2344,0.1427,-0.2663,37.0200,0.9600,-25.8600,
7.305445,1.8343,0.1695,-0.8067,0.2344,0.1427,-0.2663,37.0200,0.9600,-25.8600,
7.306120,1.8343,0.1695,-0.8067,0.5257,0.0650,-0.4906,37.0200,0.9600,-25.8600,
7.306387,1.9107,0.0971,0.0317,0.5257,0.0650,-0.4906,37.0200,0.9600,-25.8600,
7.325549,1.9107,0.0971,0.0317,0.5257,0.0650,-0.4906,37.0200,0.9600,-25.8600,
7.325984,1.9107,0.0971,0.0317,0.9683,0.2418,-0.6408,37.0200,0.9600,-25.8600,
7.326259,0.5813,-0.5291,-0.1994,0.9683,0.2418,-0.6408,37.0200,0.9600,-25.8600,
7.330119,0.5813,-0.5291,-0.1994,0.9683,0.2418,-0.6408,36.5400,-0.9600,-25.5600,
7.346329,0.5813,-0.5291,-0.1994,0.9683,0.2418,-0.6408,36.5400,-0.9600,-25.5600,
7.347093,0.5813,-0.5291,-0.1994,1.3193,0.3611,-0.4416,36.5400,-0.9600,-25.5600,
7.347423,-0.6876,-0.5943,-0.7152,1.3193,0.3611,-0.4416,36.5400,-0.9600,-25.5600,
7.366701,-0.6876,-0.5943,-0.7152,1.3193,0.3611,-0.4416,36.5400,-0.9600,-25.5600,
7.367304,-0.6876,-0.5943,-0.7152,1.0488,-0.6701,0.0874,36.5400,-0.9600,-25.5600,
7.367627,-2.3095,0.1132,1.1779,1.0488,-0.6701,0.0874,36.5400,-0.9600,-25.5600,
7.387740,-2.3095,0.1132,1.1779,1.0488,-0.6701,0.0874,36.5400,-0.9600,-25.5600,
7.388556,-2.3095,0.1132,1.1779,1.0663,-0.4495,0.3063,36.5400,-0.9600,-25.5600,
7.389071,0.3539,0.1905,-0.4131,1.0663,-0.4495,0.3063,36.5400,-0.9600,-25.5600,
7.395276,0.3539,0.1905,-0.4131,1.0663,-0.4495,0.3063,36.6600,-3.3000,-25.1400,
7.407743,0.3539,0.1905,-0.4131,1.0663,-0.4495,0.3063,36.6600,-3.3000,-25.1400,
7.408727,0.3539,0.1905,-0.4131,0.1822,-0.2924,0.0309,36.6600,-3.3000,-25.1400,
7.409445,0.7280,1.4084,0.3800,0.1822,-0.2924,0.0309,36.6600,-3.3000,-25.1400,
7.428442,0.7280,1.4084,0.3800,0.1822,-0.2924,0.0309,36.6600,-3.3000,-25.1400,
7.429222,0.7280,1.4084,0.3800,-0.1257,0.0192,-0.2242,36.6600,-3.3000,-25.1400,
7.429661,1.2675,0.3157,1.4795,-0.1257,0.0192,-0.2242,36.6600,-3.3000,-25.1400,
7.449431,1.2675,0.3157,1.4795,-0.1257,0.0192,-0.2242,36.6600,-3.3000,-25.1400,
7.450370,1.2675,0.3157,1.4795,-0.0458,-0.1071,-0.3925,36.6600,-3.3000,-25.1400,
7.450994,0.8685,-0.6017,1.0378,-0.0458,-0.1071,-0.3925,36.6600,-3.3000,-25.1400,
7.454598,0.8685,-0.6017,1.0378,-0.0458,-0.1071,-0.3925,36.0600,-5.4000,-25.3200,
7.471826,0.8685,-0.6017,1.0378,-0.0458,-0.1071,-0.3925,36.0600,-5.4000,-25.3200,
7.472811,0.8685,-0.6017,1.0378,0.2200,-0.1678,-0.3595,36.0600,-5.4000,-25.3200,
7.473290,0.2132,-0.5999,0.4235,0.2200,-0.1678,-0.3595,36.0600,-5.4000,-25.3200,
7.489612,0.2132,-0.5999,0.4235,0.2200,-0.1678,-0.3595,36.0600,-5.4000,-25.3200,
7.490474,0.2132,-0.5999,0.4235,0.3617,0.0591,-0.2871,36.0600,-5.4000,-25.3200,
7.491173,-0.5570,0.6425,-0.9388,0.3617,0.0591,-0.2871,36.0600,-5.4000,-25.3200,
7.510153,-0.5570,0.6425,-0.9388,0.3617,0.0591,-0.2871,36.0600,-5.4000,-25.3200,
7.510666,-0.5570,0.6425,-0.9388,0.3270,0.4597,0.1348,36.0600,-5.4000,-25.3200,
7.510847,-1.9187,1.2867,-1.3398,0.3270,0.4597,0.1348,36.0600,-5.4000,-25.3200,
7.514994,-1.9187,1.2867,-1.3398,0.3270,0.4597,0.1348,35.8800,-6.0600,-24.9000,
7.530707,-1.9187,1.2867,-1.3398,0.3270,0.4597,0.1348,35.8800,-6.0600,-24.9000,
7.531507,0.0289,-0.8843,-1.6513,0.3270,0.4597,0.1348,35.8800,-6.0600,-24.9000,
7.532138,0.0289,-0.8843,-1.6513,-0.0692,0.2658,0.1188,35.8800,-6.0600,-24.9000,
7.551459,0.0289,-0.8843,-1.6513,-0.0692,0.2658,0.1188,35.8800,-6.0600,-24.9000,
7.552364,0.0289,-0.8843,-1.6513,-0.3025,-0.0586,-0.0107,35.8800,-6.0600,-24.9000,
7.552787,-0.4815,-1.1797,0.4762,-0.3025,-0.0586,-0.0107,35.8800,-6.0600,-24.9000,
7.572248,-0.4815,-1.1797,0.4762,-0.3025,-0.0586,-0.0107,35.8800,-6.0600,-24.9000,
7.573233,-0.4815,-1.1797,0.4762,-0.0352,0.0160,0.2168,35.8800,-6.0600,-24.9000,
7.573865,-1.6667,0.3183,2.0828,-0.0352,0.0160,0.2168,35.8800,-6.0600,-24.9000,
7.577041,-1.6667,0.3183,2.0828,-0.0352,0.0160,0.2168,36.6600,-5.9400,-24.9600,
7.593288,-1.6667,0.3183,2.0828,-0.0352,0.0160,0.2168,36.6600,-5.9400,-24.9600,
7.594512,-1.6667,0.3183,2.0828,0.2999,0.5438,0.5273,36.6600,-5.9400,-24.9600,
7.595199,-1.5938,0.6811,1.3569,0.2999,0.5438,0.5273,36.6600,-5.9400,-24.9600,
7.612795,-1.5938,0.6811,1.3569,0.2999,0.5438,0.5273,36.6600,-5.9400,-24.9600,
7.613379,-1.5938,0.6811,1.3569,0.2360,0.6898,0.8432,36.6600,-5.9400,-24.9600,
7.613670,-2.0103,-0.8513,0.1985,0.2360,0.6898,0.8432,36.6600,-5.9400,-24.9600,
7.634328,-2.0103,-0.8513,0.1985,0.2360,0.6898,0.8432,36.6600,-5.9400,-24.9600,
7.635346,-2.0103,-0.8513,0.1985,0.0463,0.5800,1.3449,36.6600,-5.9400,-24.9600,
7.635936,-2.7665,-1.8825,-0.2453,0.0463,0.5800,1.3449,36.6600,-5.9400,-24.9600,
7.638437,-2.7665,-1.8825,-0.2453,0.0463,0.5800,1.3449,36.9600,-5.7600,-24.5400,
7.654919,-2.7665,-1.8825,-0.2453,0.0463,0.5800,1.3449,36.9600,-5.7600,-24.5400,
7.656035,-2.7665,-1.8825,-0.2453,0.1097,0.7068,1.6128,36.9600,-5.7600,-24.5400,
7.656890,-0.8717,-0.3771,0.4356,0.1097,0.7068,1.6128,36.9600,-5.7600,-24.5400,
7.675944,-0.8717,-0.3771,0.4356,0.1097,0.7068,1.6128,36.9600,-5.7600,-24.5400,
7.677083,-0.8717,-0.3771,0.4356,0.1768,0.9422,1.6378,36.9600,-5.7600,-24.5400,
7.678034,0.5319,0.3606,-0.2932,0.1768,0.9422,1.6378,36.9600,-5.7600,-24.5400,
7.696023,0.5319,0.3606,-0.2932,0.1768,0.9422,1.6378,36.9600,-5.7600,-24.5400,
7.697213,0.5319,0.3606,-0.2932,-0.0373,1.0695,1.5633,36.9600,-5.7600,-24.5400,
7.698028,1.2283,-1.6429,-0.4018,-0.0373,1.0695,1.5633,36.9600,-5.7600,-24.5400,
7.699850,1.2283,-1.6429,-0.4018,-0.0373,1.0695,1.5633,37.6800,-6.0000,-24.0600,
7.715354,1.2283,-1.6429,-0.4018,-0.0373,1.0695,1.5633,37.6800,-6.0000,-24.0600,
7.715875,1.2283,-1.6429,-0.4018,-0.4458,0.8048,1.6160,37.6800,-6.0000,-24.0600,
7.716189,1.5619,-2.8004,-1.3300,-0.4458,0.8048,1.6160,37.6800,-6.0000,-24.0600,
7.737125,1.5619,-2.8004,-1.3300,-0.4458,0.8048,1.6160,37.6800,-6.0000,-24.0600,
7.738119,1.5619,-2.8004,-1.3300,-0.6232,0.4085,1.5675,37.6800,-6.0000,-24.0600,
7.738641,2.6637,-1.8144,0.0237,-0.6232,0.4085,1.5675,37.6800,-6.0000,-24.0600,
7.757136,2.6637,-1.8144,0.0237,-0.6232,0.4085,1.5675,37.6800,-6.0000,-24.0600,
7.758055,2.6637,-1.8144,0.0237,-0.5119,0.2546,1.4876,37.6800,-6.0000,-24.0600,
7.758625,1.4228,1.8080,0.8490,-0.5119,0.2546,1.4876,37.6800,-6.0000,-24.0600,
7.761571,1.4228,1.8080,0.8490,-0.5119,0.2546,1.4876,38.2200,-7.2000,-23.2200,
7.777786,1.4228,1.8080,0.8490,-0.5119,0.2546,1.4876,38.2200,-7.2000,-23.2200,
7.778707,1.4228,1.8080,0.8490,-0.4064,0.3020,1.2879,38.2200,-7.2000,-23.2200,
7.779300,2.1232,-0.5262,1.1479,-0.4064,0.3020,1.2879,38.2200,-7.2000,-23.2200,
7.798023,2.1232,-0.5262,1.1479,-0.4064,0.3020,1.2879,38.2200,-7.2000,-23.2200,
7.798905,2.6373,-1.7064,1.1216,-0.4064,0.3020,1.2879,38.2200,-7.2000,-23.2200,
7.799524,2.6373,-1.7064,1.1216,-0.3446,0.3377,1.2788,38.2200,-7.2000,-23.2200,
7.818632,2.6373,-1.7064,1.1216,-0.3446,0.3377,1.2788,38.2200,-7.2000,-23.2200,
7.819216,2.6373,-1.7064,1.1216,-0.2088,0.0634,1.7321,38.2200,-7.2000,-23.2200,
7.819507,2.7110,-1.4365,1.5901,-0.2088,0.0634,1.7321,38.2200,-7.2000,-23.2200,
7.822635,2.7110,-1.4365,1.5901,-0.2088,0.0634,1.7321,37.6800,-9.4800,-21.8400,
7.839113,2.7110,-1.4365,1.5901,-0.2088,0.0634,1.7321,37.6800,-9.4800,-21.8400,
7.839760,2.7110,-1.4365,1.5901,0.1822,-0.6370,1.6837,37.6800,-9.4800,-21.8400,
7.840229,2.1131,1.3917,1.3893,0.1822,-0.6370,1.6837,37.6800,-9.4800,-21.8400,
7.859725,2.1131,1.3917,1.3893,0.1822,-0.6370,1.6837,37.6800,-9.4800,-21.8400,
7.860655,2.1131,1.3917,1.3893,0.2264,-0.6940,1.0493,37.6800,-9.4800,-21.8400,
7.861448,-0.7115,3.5021,-0.5742,0.2264,-0.6940,1.0493,37.6800,-9.4800,-21.8400,
7.880256,-0.7115,3.5021,-0.5742,0.2264,-0.6940,1.0493,37.6800,-9.4800,-21.8400,
7.881553,-0.7115,3.5021,-0.5742,0.6210,-0.7388,0.2194,37.6800,-9.4800,-21.8400,
7.882304,-1.4472,1.1324,-1.8790,0.6210,-0.7388,0.2194,37.6800,-9.4800,-21.8400,
7.884587,-1.4472,1.1324,-1.8790,0.6210,-0.7388,0.2194,37.2000,-12.6000,-21.0000,
7.900366,-1.4472,1.1324,-1.8790,0.6210,-0.7388,0.2194,37.2000,-12.6000,-21.0000,
7.901221,-1.4472,1.1324,-1.8790,0.3750,-0.0224,0.0687,37.2000,-12.6000,-21.0000,
7.901784,-0.3629,0.5128,-0.4250,0.3750,-0.0224,0.0687,37.2000,-12.6000,-21.0000,
7.920820,-0.3629,0.5128,-0.4250,0.3750,-0.0224,0.0687,37.2000,-12.6000,-21.0000,
7.921515,-0.3629,0.5128,-0.4250,0.3744,-0.0426,0.1678,37.2000,-12.6000,-21.0000,
7.921750,-1.2337,-0.6209,3.8646,0.3744,-0.0426,0.1678,37.2000,-12.6000,-21.0000,
7.941529,-1.2337,-0.6209,3.8646,0.3744,-0.0426,0.1678,37.2000,-12.6000,-21.0000,
7.942328,-1.2337,-0.6209,3.8646,0.6855,-0.8533,0.1097,37.2000,-12.6000,-21.0000,
7.942879,0.1797,-1.7113,1.9323,0.6855,-0.8533,0.1097,37.2000,-12.6000,-21.0000,
7.946055,0.1797,-1.7113,1.9323,0.6855,-0.8533,0.1097,36.0600,-15.8400,-20.5200,
7.962745,0.1797,-1.7113,1.9323,0.6855,-0.8533,0.1097,36.0600,-15.8400,-20.5200,
7.963655,0.1797,-1.7113,1.9323,0.7153,-0.8703,0.0927,36.0600,-15.8400,-20.5200,
7.964210,0.9532,-1.1282,-1.6231,0.7153,-0.8703,0.0927,36.0600,-15.8400,-20.5200,
7.982554,0.9532,-1.1282,-1.6231,0.7153,-0.8703,0.0927,36.0600,-15.8400,-20.5200,
7.983557,0.9532,-1.1282,-1.6231,0.4570,-0.4591,0.5310,36.0600,-15.8400,-20.5200,
7.984236,1.1852,-0.3642,-1.7518,0.4570,-0.4591,0.5310,36.0600,-15.8400,-20.5200,
8.003492,1.1852,-0.3642,-1.7518,0.4570,-0.4591,0.5310,36.0600,-15.8400,-20.5200,
8.004538,1.1852,-0.3642,-1.7518,0.3563,-0.4021,0.8256,36.0600,-15.8400,-20.5200,
8.005127,1.3024,0.3006,-2.3928,0.3563,-0.4021,0.8256,36.0600,-15.8400,-20.5200,
8.007840,1.3024,0.3006,-2.3928,0.3563,-0.4021,0.8256,35.0400,-18.1800,-20.5800,
8.022930,1.3024,0.3006,-2.3928,0.3563,-0.4021,0.8256,35.0400,-18.1800,-20.5800,
8.023491,1.3024,0.3006,-2.3928,0.3766,-0.0426,0.6035,35.0400,-18.1800,-20.5800,
8.023776,0.4088,0.3414,-0.8201,0.3766,-0.0426,0.6035,35.0400,-18.1800,-20.5800,
8.045181,0.4088,0.3414,-0.8201,0.3766,-0.0426,0.6035,35.0400,-18.1800,-20.5800,
8.046123,0.4088,0.3414,-0.8201,0.1044,0.0059,0.5689,35.0400,-18.1800,-20.5800,
8.046755,0.6157,-0.0101,0.7846,0.1044,0.0059,0.5689,35.0400,-18.1800,-20.5800,
8.064595,0.6157,-0.0101,0.7846,0.1044,0.0059,0.5689,35.0400,-18.1800,-20.5800,
8.065621,0.6157,-0.0101,0.7846,-0.1470,-0.7377,0.7840,35.0400,-18.1800,-20.5800,
8.066238,1.1783,-1.0139,2.2011,-0.1470,-0.7377,0.7840,35.0400,-18.1800,-20.5800,
8.071672,1.1783,-1.0139,2.2011,-0.1470,-0.7377,0.7840,33.5400,-20.5800,-21.1800,
8.085813,1.1783,-1.0139,2.2011,-0.1470,-0.7377,0.7840,33.5400,-20.5800,-21.1800,
8.086585,1.1783,-1.0139,2.2011,-0.3329,-0.8756,0.7723,33.5400,-20.5800,-21.1800,
8.087423,-0.0907,-1.5494,-1.5523,-0.3329,-0.8756,0.7723,33.5400,-20.5800,-21.1800,
8.105846,-0.0907,-1.5494,-1.5523,-0.3329,-0.8756,0.7723,33.5400,-20.5800,-21.1800,
8.106916,-0.0907,-1.5494,-1.5523,-0.3856,-0.3803,0.9113,33.5400,-20.5800,-21.1800,
8.107545,0.0616,-1.0927,-1.0373,-0.3856,-0.3803,0.9113,33.5400,-20.5800,-21.1800,
8.126350,0.0616,-1.0927,-1.0373,-0.3856,-0.3803,0.9113,33.5400,-20.5800,-21.1800,
8.127042,-0.2008,0.3387,-0.5821,-0.3856,-0.3803,0.9113,33.5400,-20.5800,-21.1800,
8.127361,-0.2008,0.3387,-0.5821,-0.3057,-0.6434,1.0248,33.5400,-20.5800,-21.1800,
8.130840,-0.2008,0.3387,-0.5821,-0.3057,-0.6434,1.0248,31.9800,-22.4400,-21.4200,
8.147035,-0.2008,0.3387,-0.5821,-0.3057,-0.6434,1.0248,31.9800,-22.4400,-21.4200,
8.148016,-0.5115,0.1095,0.0816,-0.3057,-0.6434,1.0248,31.9800,-22.4400,-21.4200,
8.148644,-0.5115,0.1095,0.0816,-0.3574,-0.7185,0.9971,31.9800,-22.4400,-21.4200,
8.167736,-0.5115,0.1095,0.0816,-0.3574,-0.7185,0.9971,31.9800,-22.4400,-21.4200,
8.168925,-0.5115,0.1095,0.0816,-0.4517,-0.3515,0.8336,31.9800,-22.4400,-21.4200,
8.169746,-0.9864,-0.1408,-0.7817,-0.4517,-0.3515,0.8336,31.9800,-22.4400,-21.4200,
8.188324,-0.9864,-0.1408,-0.7817,-0.4517,-0.3515,0.8336,31.9800,-22.4400,-21.4200,
8.189778,-0.9864,-0.1408,-0.7817,-0.4426,-0.3020,0.6157,31.9800,-22.4400,-21.4200,
8.190493,-0.2405,-0.5255,0.1343,-0.4426,-0.3020,0.6157,31.9800,-22.4400,-21.4200,
8.192748,-0.2405,-0.5255,0.1343,-0.4426,-0.3020,0.6157,30.6600,-23.5200,-22.2600,
8.208934,-0.2405,-0.5255,0.1343,-0.4426,-0.3020,0.6157,30.6600,-23.5200,-22.2600,
8.210117,-0.2405,-0.5255,0.1343,-0.2786,-0.2615,0.4469,30.6600,-23.5200,-22.2600,
8.210876,-0.1249,-0.0614,0.4405,-0.2786,-0.2615,0.4469,30.6600,-23.5200,-22.2600,
8.228554,-0.1249,-0.0614,0.4405,-0.2786,-0.2615,0.4469,30.6600,-23.5200,-22.2600,
8.229011,-0.1249,-0.0614,0.4405,-0.0831,-0.2631,0.4469,30.6600,-23.5200,-22.2600,
8.229202,-0.1901,0.2016,0.6375,-0.0831,-0.2631,0.4469,30.6600,-23.5200,-22.2600,
8.250261,-0.1901,0.2016,0.6375,-0.0831,-0.2631,0.4469,30.6600,-23.5200,-22.2600,
8.251111,-0.1901,0.2016,0.6375,0.0937,-0.3526,0.7153,30.6600,-23.5200,-22.2600,
8.251612,-0.3897,-0.1426,0.3844,0.0937,-0.3526,0.7153,30.6600,-23.5200,-22.2600,
8.254402,-0.3897,-0.1426,0.3844,0.0937,-0.3526,0.7153,28.8000,-24.9600,-23.3400,
8.270221,-0.3897,-0.1426,0.3844,0.0937,-0.3526,0.7153,28.8000,-24.9600,-23.3400,
8.270790,-0.3897,-0.1426,0.3844,-0.0107,-0.3776,0.7707,28.8000,-24.9600,-23.3400,
8.271375,-1.2873,0.2834,-0.0720,-0.0107,-0.3776,0.7707,28.8000,-24.9600,-23.3400,
8.291530,-1.2873,0.2834,-0.0720,-0.0107,-0.3776,0.7707,28.8000,-24.9600,-23.3400,
8.292785,-1.2873,0.2834,-0.0720,-0.1337,-0.1113,0.7771,28.8000,-24.9600,-23.3400,
8.293697,-1.0049,-0.3813,0.1891,-0.1337,-0.1113,0.7771,28.8000,-24.9600,-23.3400,
8.311677,-1.0049,-0.3813,0.1891,-0.1337,-0.1113,0.7771,28.8000,-24.9600,-23.3400,
8.312696,-1.0049,-0.3813,0.1891,-0.1241,-0.1300,0.7675,28.8000,-24.9600,-23.3400,
8.313288,-0.5771,0.4346,-0.1001,-0.1241,-0.1300,0.7675,28.8000,-24.9600,-23.3400,
8.315714,-0.5771,0.4346,-0.1001,-0.1241,-0.1300,0.7675,27.0000,-25.8000,-24.2400,
8.331250,-0.5771,0.4346,-0.1001,-0.1241,-0.1300,0.7675,27.0000,-25.8000,-24.2400,
8.331747,-0.5771,0.4346,-0.1001,-0.1566,-0.2067,0.6274,27.0000,-25.8000,-24.2400,
8.332047,-0.2133,1.2915,-0.1757,-0.1566,-0.2067,0.6274,27.0000,-25.8000,-24.2400,
8.351706,-0.2133,1.2915,-0.1757,-0.1566,-0.2067,0.6274,27.0000,-25.8000,-24.2400,
8.352500,-0.2133,1.2915,-0.1757,-0.1395,-0.1289,0.5364,27.0000,-25.8000,-24.2400,
8.352979,-0.1210,1.8047,0.0010,-0.1395,-0.1289,0.5364,27.0000,-25.8000,-24.2400,
8.372852,-0.1210,1.8047,0.0010,-0.1395,-0.1289,0.5364,27.0000,-25.8000,-24.2400,
8.373757,-0.1210,1.8047,0.0010,0.0495,-0.1246,0.2977,27.0000,-25.8000,-24.2400,
8.374195,0.0478,1.0684,0.4539,0.0495,-0.1246,0.2977,27.0000,-25.8000,-24.2400,
8.376844,0.0478,1.0684,0.4539,0.0495,-0.1246,0.2977,25.3800,-26.0400,-25.0800,
8.393693,0.0478,1.0684,0.4539,0.0495,-0.1246,0.2977,25.3800,-26.0400,-25.0800,
8.394551,0.0478,1.0684,0.4539,0.1917,-0.0943,0.0714,25.3800,-26.0400,-25.0800,
8.395142,-0.4400,0.8070,0.1318,0.1917,-0.0943,0.0714,25.3800,-26.0400,-25.0800,
8.414194,-0.4400,0.8070,0.1318,0.1917,-0.0943,0.0714,25.3800,-26.0400,-25.0800,
8.415151,-0.4400,0.8070,0.1318,0.2775,0.1976,-0.0352,25.3800,-26.0400,-25.0800,
8.415666,-0.1452,0.3325,-0.0300,0.2775,0.1976,-0.0352,25.3800,-26.0400,-25.0800,
8.434396,-0.1452,0.3325,-0.0300,0.2775,0.1976,-0.0352,25.3800,-26.0400,-25.0800,
8.435137,-0.1497,-0.0101,-0.1078,0.2775,0.1976,-0.0352,25.3800,-26.0400,-25.0800,
8.435360,-0.1497,-0.0101,-0.1078,0.2407,0.2147,-0.0266,25.3800,-26.0400,-25.0800,
8.438127,-0.1497,-0.0101,-0.1078,0.2407,0.2147,-0.0266,24.0600,-26.6400,-25.8600,
8.455376,-0.1497,-0.0101,-0.1078,0.2407,0.2147,-0.0266,24.0600,-26.6400,-25.8600,
8.456219,-0.1497,-0.0101,-0.1078,0.1443,0.0352,0.0357,24.0600,-26.6400,-25.8600,
8.456636,-0.3568,-0.3199,-0.0437,0.1443,0.0352,0.0357,24.0600,-26.6400,-25.8600,
8.474918,-0.3568,-0.3199,-0.0437,0.1443,0.0352,0.0357,24.0600,-26.6400,-25.8600,
8.475724,-0.5325,-0.6566,0.0571,0.1443,0.0352,0.0357,24.0600,-26.6400,-25.8600,
8.476359,-0.5325,-0.6566,0.0571,0.1204,-0.0511,0.1150,24.0600,-26.6400,-25.8600,
8.496931,-0.5325,-0.6566,0.0571,0.1204,-0.0511,0.1150,24.0600,-26.6400,-25.8600,
8.498028,-0.5325,-0.6566,0.0571,0.1193,-0.0586,0.1081,24.0600,-26.6400,-25.8600,
8.498669,-0.3595,-0.6763,-0.3349,0.1193,-0.0586,0.1081,24.0600,-26.6400,-25.8600,
8.500264,-0.3595,-0.6763,-0.3349,0.1193,-0.0586,0.1081,23.2200,-27.3000,-26.0400,
8.516394,-0.3595,-0.6763,-0.3349,0.1193,-0.0586,0.1081,23.2200,-27.3000,-26.0400,
8.517476,-0.3595,-0.6763,-0.3349,0.0932,-0.0874,0.0123,23.2200,-27.3000,-26.0400,
8.517935,-0.0970,-0.2058,-0.2480,0.0932,-0.0874,0.0123,23.2200,-27.3000,-26.0400,
8.536516,-0.0970,-0.2058,-0.2480,0.0932,-0.0874,0.0123,23.2200,-27.3000,-26.0400,
8.537075,-0.0970,-0.2058,-0.2480,0.0527,-0.1550,-0.0229,23.2200,-27.3000,-26.0400,
8.537280,0.2893,0.1731,0.0407,0.0527,-0.1550,-0.0229,23.2200,-27.3000,-26.0400,
8.556917,0.2893,0.1731,0.0407,0.0527,-0.1550,-0.0229,23.2200,-27.3000,-26.0400,
8.557752,0.2893,0.1731,0.0407,0.0980,-0.1470,-0.0138,23.2200,-27.3000,-26.0400,
8.558138,0.2439,-0.0562,0.0036,0.0980,-0.1470,-0.0138,23.2200,-27.3000,-26.0400,
8.561519,0.2439,-0.0562,0.0036,0.0980,-0.1470,-0.0138,22.8600,-27.6000,-25.9200,
8.577618,0.2439,-0.0562,0.0036,0.0980,-0.1470,-0.0138,22.8600,-27.6000,-25.9200,
8.578508,0.2439,-0.0562,0.0036,0.2013,-0.0591,-0.0245,22.8600,-27.6000,-25.9200,
8.578897,-0.0277,-0.2944,-0.1010,0.2013,-0.0591,-0.0245,22.8600,-27.6000,-25.9200,
8.597182,-0.0277,-0.2944,-0.1010,0.2013,-0.0591,-0.0245,22.8600,-27.6000,-25.9200,
8.598205,-0.0277,-0.2944,-0.1010,0.2487,-0.0410,-0.0080,22.8600,-27.6000,-25.9200,
8.598617,-0.0434,-0.2787,-0.0194,0.2487,-0.0410,-0.0080,22.8600,-27.6000,-25.9200,
8.618221,-0.0434,-0.2787,-0.0194,0.2487,-0.0410,-0.0080,22.8600,-27.6000,-25.9200,
8.619584,-0.0434,-0.2787,-0.0194,0.2003,-0.0863,0.0357,22.8600,-27.6000,-25.9200,
8.620144,0.2003,-0.2184,-0.0551,0.2003,-0.0863,0.0357,22.8600,-27.6000,-25.9200,
8.622413,0.2003,-0.2184,-0.0551,0.2003,-0.0863,0.0357,22.6200,-27.9000,-25.9800,
8.638833,0.2003,-0.2184,-0.0551,0.2003,-0.0863,0.0357,22.6200,-27.9000,-25.9800,
8.639297,0.2003,-0.2184,-0.0551,0.1513,-0.0634,0.0740,22.6200,-27.9000,-25.9800,
8.639504,0.1674,-0.0773,0.1104,0.1513,-0.0634,0.0740,22.6200,-27.9000,-25.9800,
8.659925,0.1674,-0.0773,0.1104,0.1513,-0.0634,0.0740,22.6200,-27.9000,-25.9800,
8.660807,0.1674,-0.0773,0.1104,0.1704,-0.0202,0.0905,22.6200,-27.9000,-25.9800,
8.661417,-0.0289,-0.1156,0.2538,0.1704,-0.0202,0.0905,22.6200,-27.9000,-25.9800,
8.679038,-0.0289,-0.1156,0.2538,0.1704,-0.0202,0.0905,22.6200,-27.9000,-25.9800,
8.679834,-0.0289,-0.1156,0.2538,0.2530,0.0607,0.0714,22.6200,-27.9000,-25.9800,
8.680187,-0.1332,-0.0097,0.1257,0.2530,0.0607,0.0714,22.6200,-27.9000,-25.9800,
8.683027,-0.1332,-0.0097,0.1257,0.2530,0.0607,0.0714,22.2000,-28.2000,-25.4400,
8.700479,-0.1332,-0.0097,0.1257,0.3553,0.1071,0.0597,22.2000,-28.2000,-25.4400,
8.719365,-0.1332,-0.0097,0.1257,0.2668,-0.0229,0.1188,22.2000,-28.2000,-25.4400,
8.740618,-0.1332,-0.0097,0.1257,0.2668,-0.0229,0.1188,22.2000,-28.2000,-25.4400,
8.741150,-0.1332,-0.0097,0.1257,0.1374,-0.1614,0.1635,22.2000,-28.2000,-25.4400,
8.741500,0.0807,-0.0599,0.3055,0.1374,-0.1614,0.1635,22.2000,-28.2000,-25.4400,
8.744812,0.0807,-0.0599,0.3055,0.1374,-0.1614,0.1635,21.3000,-28.4400,-25.6200,
8.761083,0.0807,-0.0599,0.3055,-0.0170,-0.2429,0.1987,21.3000,-28.4400,-25.6200,
