
time,ax,ay,az,wx,wy,wz,Bx,By,Bz,
0.025436,0.0000,0.0000,0.0000,-0.1353,-0.3121,0.0740,0.0000,0.0000,0.0000,
0.046317,0.0000,0.0000,0.0000,-0.1353,-0.3121,0.0740,0.0000,0.0000,0.0000,
0.054158,0.0000,0.0000,0.0000,-0.1353,-0.3121,0.0740,36.0000,13.4400,-4.8600,
0.066458,0.0000,0.0000,0.0000,-0.1353,-0.3121,0.0740,36.0000,13.4400,-4.8600,
0.066982,0.0000,0.0000,0.0000,-0.1353,-0.3121,0.0740,36.0000,13.4400,-4.8600,
0.087267,0.0000,0.0000,0.0000,-0.0842,-0.1129,0.0138,36.0000,13.4400,-4.8600,
0.107762,0.0000,0.0000,0.0000,-0.0687,-0.0415,-0.0176,36.0000,13.4400,-4.8600,
0.116297,0.0000,0.0000,0.0000,-0.0687,-0.0415,-0.0176,4.9200,22.8000,5.0400,
0.128755,0.0000,0.0000,0.0000,-0.0687,-0.0415,-0.0176,4.9200,22.8000,5.0400,
0.129609,0.0000,0.0000,0.0000,-0.0799,-0.0724,-0.0623,4.9200,22.8000,5.0400,
0.130110,-0.1175,-0.2006,0.0080,-0.0799,-0.0724,-0.0623,4.9200,22.8000,5.0400,
0.148331,-0.1175,-0.2006,0.0080,-0.1076,-0.1065,-0.0703,4.9200,22.8000,5.0400,
0.169480,-0.1175,-0.2006,0.0080,-0.1055,-0.1236,-0.1587,4.9200,22.8000,5.0400,
0.178024,-0.1175,-0.2006,0.0080,-0.1055,-0.1236,-0.1587,-10.9200,27.2400,9.7800,
0.189820,-0.1175,-0.2006,0.0080,-0.1055,-0.1236,-0.1587,-10.9200,27.2400,9.7800,
0.190556,-0.1175,-0.2006,0.0080,-0.0405,-0.0506,-0.1784,-10.9200,27.2400,9.7800,
0.191019,-0.2958,0.4150,-0.0332,-0.0405,-0.0506,-0.1784,-10.9200,27.2400,9.7800,
0.210863,-0.2958,0.4150,-0.0332,0.0000,0.0352,-0.1417,-10.9200,27.2400,9.7800,
0.230686,-0.2958,0.4150,-0.0332,-0.0272,0.0581,-0.1433,-10.9200,27.2400,9.7800,
0.240347,-0.2958,0.4150,-0.0332,-0.0272,0.0581,-0.1433,-27.0600,31.3800,15.0000,
0.251417,-0.2958,0.4150,-0.0332,-0.0272,0.0581,-0.1433,-27.0600,31.3800,15.0000,
0.252084,-0.2958,0.4150,-0.0332,-0.0959,-0.0597,-0.2083,-27.0600,31.3800,15.0000,
0.252575,0.2752,0.1398,-0.0567,-0.0959,-0.0597,-0.2083,-27.0600,31.3800,15.0000,
0.271756,0.2752,0.1398,-0.0567,-0.1374,-0.1598,-0.3356,-27.0600,31.3800,15.0000,
0.292169,0.2752,0.1398,-0.0567,-0.1806,-0.1955,-0.5747,-27.0600,31.3800,15.0000,
0.300400,0.2752,0.1398,-0.0567,-0.1806,-0.1955,-0.5747,-27.1200,30.6600,15.0600,
0.312956,0.2752,0.1398,-0.0567,-0.1806,-0.1955,-0.5747,-27.1200,30.6600,15.0600,
0.313625,0.2752,0.1398,-0.0567,-0.2376,-0.2557,-0.8677,-27.1200,30.6600,15.0600,
0.314066,0.6158,0.6673,-0.0419,-0.2376,-0.2557,-0.8677,-27.1200,30.6600,15.0600,
0.333213,0.6158,0.6673,-0.0419,-0.4772,-0.7787,-1.0834,-27.1200,30.6600,15.0600,
0.357458,0.6158,0.6673,-0.0419,-0.9358,-1.3614,-1.1888,-27.1200,30.6600,15.0600,
0.362376,0.6158,0.6673,-0.0419,-0.9358,-1.3614,-1.1888,-27.3600,30.0000,15.3000,
0.374598,0.6158,0.6673,-0.0419,-0.9358,-1.3614,-1.1888,-27.3600,30.0000,15.3000,
0.375218,0.6158,0.6673,-0.0419,-1.2602,-1.5073,-0.9369,-27.3600,30.0000,15.3000,
0.375879,-1.3136,0.8603,-0.1787,-1.2602,-1.5073,-0.9369,-27.3600,30.0000,15.3000,
0.394918,-1.3136,0.8603,-0.1787,-1.2458,-1.6528,-0.7265,-27.3600,30.0000,15.3000,
0.415606,-1.3136,0.8603,-0.1787,-1.0344,-1.6964,-0.6914,-27.3600,30.0000,15.3000,
0.424019,-1.3136,0.8603,-0.1787,-1.0344,-1.6964,-0.6914,-27.9000,28.8600,16.2600,
0.436314,-1.3136,0.8603,-0.1787,-1.0344,-1.6964,-0.6914,-27.9000,28.8600,16.2600,
0.437217,-0.4162,-2.2378,-0.3551,-1.0344,-1.6964,-0.6914,-27.9000,28.8600,16.2600,
0.437984,-0.4162,-2.2378,-0.3551,-0.7803,-1.4679,-0.7143,-27.9000,28.8600,16.2600,
0.456578,-0.4162,-2.2378,-0.3551,-0.5827,-1.0594,-0.7366,-27.9000,28.8600,16.2600,
0.477662,-0.4162,-2.2378,-0.3551,-0.3931,-0.7175,-0.7915,-27.9000,28.8600,16.2600,
0.486244,-0.4162,-2.2378,-0.3551,-0.3931,-0.7175,-0.7915,-28.1400,27.3600,18.4200,
0.497611,-0.4162,-2.2378,-0.3551,-0.3931,-0.7175,-0.7915,-28.1400,27.3600,18.4200,
0.498221,1.0168,-0.1105,-0.1330,-0.3931,-0.7175,-0.7915,-28.1400,27.3600,18.4200,
0.498863,1.0168,-0.1105,-0.1330,-0.2754,-0.4474,-0.7675,-28.1400,27.3600,18.4200,
0.518073,1.0168,-0.1105,-0.1330,-0.2067,-0.3787,-0.5673,-28.1400,27.3600,18.4200,
0.538833,1.0168,-0.1105,-0.1330,-0.1465,-0.3526,-0.2967,-28.1400,27.3600,18.4200,
0.546984,1.0168,-0.1105,-0.1330,-0.1465,-0.3526,-0.2967,-28.5000,25.6200,21.4200,
0.559669,1.0168,-0.1105,-0.1330,-0.1465,-0.3526,-0.2967,-28.5000,25.6200,21.4200,
0.560712,1.0168,-0.1105,-0.1330,-0.0730,-0.2956,-0.0352,-28.5000,25.6200,21.4200,
0.561894,-0.0036,-0.1607,0.0620,-0.0730,-0.2956,-0.0352,-28.5000,25.6200,21.4200,
0.579962,-0.0036,-0.1607,0.0620,-0.0293,-0.2668,0.0650,-28.5000,25.6200,21.4200,
0.600153,-0.0036,-0.1607,0.0620,-0.0085,-0.2173,0.0426,-28.5000,25.6200,21.4200,
0.609464,-0.0036,-0.1607,0.0620,-0.0085,-0.2173,0.0426,-28.7400,23.7600,24.6600,
0.621263,-0.0036,-0.1607,0.0620,-0.0085,-0.2173,0.0426,-28.7400,23.7600,24.6600,
0.622269,-0.0036,-0.1607,0.0620,-0.0256,-0.1747,0.0213,-28.7400,23.7600,24.6600,
0.623068,-0.1600,-0.4464,-0.2236,-0.0256,-0.1747,0.0213,-28.7400,23.7600,24.6600,
0.641657,-0.1600,-0.4464,-0.2236,-0.0575,-0.0975,-0.0234,-28.7400,23.7600,24.6600,
0.661925,-0.1600,-0.4464,-0.2236,-0.0836,-0.0021,-0.0240,-28.7400,23.7600,24.6600,
0.671226,-0.1600,-0.4464,-0.2236,-0.0836,-0.0021,-0.0240,-28.6800,22.2000,26.1600,
0.682529,-0.1600,-0.4464,-0.2236,-0.0836,-0.0021,-0.0240,-28.6800,22.2000,26.1600,
0.683529,-0.1122,-0.0924,0.1142,-0.0836,-0.0021,-0.0240,-28.6800,22.2000,26.1600,
0.684539,-0.1122,-0.0924,0.1142,-0.0522,-0.0847,0.0075,-28.6800,22.2000,26.1600,
0.702737,-0.1122,-0.0924,0.1142,-0.0272,-0.2083,0.0117,-28.6800,22.2000,26.1600,
0.723545,-0.1122,-0.0924,0.1142,-0.0597,-0.1848,-0.0144,-28.6800,22.2000,26.1600,
0.732051,-0.1122,-0.0924,0.1142,-0.0597,-0.1848,-0.0144,-28.5600,21.6000,27.2400,
0.745342,-0.1122,-0.0924,0.1142,-0.0597,-0.1848,-0.0144,-28.5600,21.6000,27.2400,
0.746395,-0.1122,-0.0924,0.1142,-0.1049,-0.1710,-0.0197,-28.5600,21.6000,27.2400,
0.747196,-0.0398,0.0024,0.0177,-0.1049,-0.1710,-0.0197,-28.5600,21.6000,27.2400,
0.764387,-0.0398,0.0024,0.0177,-0.1172,-0.2077,-0.0149,-28.5600,21.6000,27.2400,
0.785554,-0.0398,0.0024,0.0177,-0.0905,-0.2184,-0.0192,-28.5600,21.6000,27.2400,
0.793575,-0.0398,0.0024,0.0177,-0.0905,-0.2184,-0.0192,-27.7800,21.0600,27.7800,
0.806035,-0.0398,0.0024,0.0177,-0.0905,-0.2184,-0.0192,-27.7800,21.0600,27.7800,
0.807429,-0.0398,0.0024,0.0177,-0.0831,-0.1827,-0.0107,-27.7800,21.0600,27.7800,
0.808067,-0.0038,0.0048,-0.1592,-0.0831,-0.1827,-0.0107,-27.7800,21.0600,27.7800,
0.826380,-0.0038,0.0048,-0.1592,-0.0698,-0.1268,-0.0101,-27.7800,21.0600,27.7800,
0.846558,-0.0038,0.0048,-0.1592,-0.0272,-0.0671,-0.0186,-27.7800,21.0600,27.7800,
0.855205,-0.0038,0.0048,-0.1592,-0.0272,-0.0671,-0.0186,-27.3600,20.7600,27.1800,
0.867360,-0.0038,0.0048,-0.1592,-0.0272,-0.0671,-0.0186,-27.3600,20.7600,27.1800,
0.868472,-0.0038,0.0048,-0.1592,0.0069,-0.0320,-0.0224,-27.3600,20.7600,27.1800,
0.869473,0.0252,-0.0718,-0.0395,0.0069,-0.0320,-0.0224,-27.3600,20.7600,27.1800,
0.887573,0.0252,-0.0718,-0.0395,-0.0069,-0.0208,-0.0133,-27.3600,20.7600,27.1800,
0.908947,0.0252,-0.0718,-0.0395,-0.0346,-0.0202,-0.0005,-27.3600,20.7600,27.1800,
0.917246,0.0252,-0.0718,-0.0395,-0.0346,-0.0202,-0.0005,-27.3600,20.8800,28.0200,
0.928973,0.0252,-0.0718,-0.0395,-0.0346,-0.0202,-0.0005,-27.3600,20.8800,28.0200,
0.930027,0.0252,-0.0718,-0.0395,-0.0213,-0.0059,-0.0011,-27.3600,20.8800,28.0200,
0.930873,-0.0150,-0.0765,0.0481,-0.0213,-0.0059,-0.0011,-27.3600,20.8800,28.0200,
0.949525,-0.0150,-0.0765,0.0481,0.0037,-0.0032,0.0059,-27.3600,20.8800,28.0200,
0.970385,-0.0150,-0.0765,0.0481,0.0059,-0.0154,-0.0037,-27.3600,20.8800,28.0200,
0.979518,-0.0150,-0.0765,0.0481,0.0059,-0.0154,-0.0037,-26.7000,20.4600,28.0200,
0.990509,-0.0150,-0.0765,0.0481,0.0059,-0.0154,-0.0037,-26.7000,20.4600,28.0200,
0.991525,-0.0150,-0.0765,0.0481,-0.0096,-0.0266,-0.0133,-26.7000,20.4600,28.0200,
0.992341,-0.0244,-0.0503,-0.1023,-0.0096,-0.0266,-0.0133,-26.7000,20.4600,28.0200,
1.011077,-0.0244,-0.0503,-0.1023,-0.0208,-0.0298,-0.0208,-26.7000,20.4600,28.0200,
1.032007,-0.0244,-0.0503,-0.1023,-0.0138,-0.0309,-0.0245,-26.7000,20.4600,28.0200,
1.039575,-0.0244,-0.0503,-0.1023,-0.0138,-0.0309,-0.0245,-27.1200,20.6400,27.7800,
1.051726,-0.0244,-0.0503,-0.1023,-0.0138,-0.0309,-0.0245,-27.1200,20.6400,27.7800,
1.052631,-0.0244,-0.0503,-0.1023,0.0043,-0.0250,-0.0186,-27.1200,20.6400,27.7800,
1.053707,-0.1012,-0.0596,0.0136,0.0043,-0.0250,-0.0186,-27.1200,20.6400,27.7800,
1.072231,-0.1012,-0.0596,0.0136,-0.0027,0.0011,-0.0075,-27.1200,20.6400,27.7800,
1.092489,-0.1012,-0.0596,0.0136,-0.0138,-0.0181,0.0096,-27.1200,20.6400,27.7800,
1.101727,-0.1012,-0.0596,0.0136,-0.0138,-0.0181,0.0096,-27.0000,20.7600,28.8600,
1.113630,-0.1012,-0.0596,0.0136,-0.0138,-0.0181,0.0096,-27.0000,20.7600,28.8600,
1.114781,-0.1012,-0.0596,0.0136,-0.0128,-0.0613,-0.0080,-27.0000,20.7600,28.8600,
1.115602,-0.0913,-0.0309,-0.0266,-0.0128,-0.0613,-0.0080,-27.0000,20.7600,28.8600,
1.134136,-0.0913,-0.0309,-0.0266,-0.0165,-0.0708,-0.0059,-27.0000,20.7600,28.8600,
1.154510,-0.0913,-0.0309,-0.0266,-0.0096,-0.0405,-0.0229,-27.0000,20.7600,28.8600,
1.162839,-0.0913,-0.0309,-0.0266,-0.0096,-0.0405,-0.0229,-27.1200,20.5800,28.7400,
1.174724,-0.0913,-0.0309,-0.0266,-0.0096,-0.0405,-0.0229,-27.1200,20.5800,28.7400,
1.175596,-0.0913,-0.0309,-0.0266,-0.0080,-0.0266,-0.0261,-27.1200,20.5800,28.7400,
1.176270,-0.0562,-0.0273,-0.0667,-0.0080,-0.0266,-0.0261,-27.1200,20.5800,28.7400,
1.195235,-0.0562,-0.0273,-0.0667,-0.0085,-0.0570,-0.0314,-27.1200,20.5800,28.7400,
1.217058,-0.0562,-0.0273,-0.0667,-0.0032,-0.0666,-0.0240,-27.1200,20.5800,28.7400,
1.224035,-0.0562,-0.0273,-0.0667,-0.0032,-0.0666,-0.0240,-27.8400,20.5200,28.8000,
1.236758,-0.0562,-0.0273,-0.0667,-0.0032,-0.0666,-0.0240,-27.8400,20.5200,28.8000,
1.237218,-0.0562,-0.0273,-0.0667,-0.0043,-0.0543,-0.0144,-27.8400,20.5200,28.8000,
1.237469,-0.1637,-0.0400,-0.0333,-0.0043,-0.0543,-0.0144,-27.8400,20.5200,28.8000,
1.256582,-0.1637,-0.0400,-0.0333,-0.0101,-0.0394,-0.0128,-27.8400,20.5200,28.8000,
1.278490,-0.1637,-0.0400,-0.0333,-0.0096,-0.0378,-0.0197,-27.8400,20.5200,28.8000,
1.287071,-0.1637,-0.0400,-0.0333,-0.0096,-0.0378,-0.0197,-27.4800,20.2200,28.9200,
1.297873,-0.1637,-0.0400,-0.0333,-0.0096,-0.0378,-0.0197,-27.4800,20.2200,28.9200,
1.299427,-0.1637,-0.0400,-0.0333,0.0059,-0.0405,-0.0234,-27.4800,20.2200,28.9200,
1.300330,-0.0041,-0.0187,-0.0494,0.0059,-0.0405,-0.0234,-27.4800,20.2200,28.9200,
1.318511,-0.0041,-0.0187,-0.0494,0.0160,-0.0559,-0.0240,-27.4800,20.2200,28.9200,
1.338528,-0.0041,-0.0187,-0.0494,0.0133,-0.0426,-0.0202,-27.4800,20.2200,28.9200,
1.347134,-0.0041,-0.0187,-0.0494,0.0133,-0.0426,-0.0202,-27.4200,19.7400,27.9600,
1.359392,-0.0041,-0.0187,-0.0494,0.0133,-0.0426,-0.0202,-27.4200,19.7400,27.9600,
1.359774,-0.0041,-0.0187,-0.0494,0.0117,-0.0149,-0.0202,-27.4200,19.7400,27.9600,
1.360005,-0.0062,-0.1436,-0.1112,0.0117,-0.0149,-0.0202,-27.4200,19.7400,27.9600,
1.379639,-0.0062,-0.1436,-0.1112,0.0048,0.0128,-0.0213,-27.4200,19.7400,27.9600,
1.400469,-0.0062,-0.1436,-0.1112,0.0085,0.0059,-0.0234,-27.4200,19.7400,27.9600,
1.408989,-0.0062,-0.1436,-0.1112,0.0085,0.0059,-0.0234,-27.0000,19.6200,27.7800,
1.420720,-0.0062,-0.1436,-0.1112,0.0085,0.0059,-0.0234,-27.0000,19.6200,27.7800,
1.421065,-0.0062,-0.1436,-0.1112,0.0309,0.0016,-0.0234,-27.0000,19.6200,27.7800,
1.421245,0.0144,-0.0622,-0.0586,0.0309,0.0016,-0.0234,-27.0000,19.6200,27.7800,
1.441455,0.0144,-0.0622,-0.0586,0.0527,0.0282,-0.0293,-27.0000,19.6200,27.7800,
1.461832,0.0144,-0.0622,-0.0586,0.0570,0.0469,-0.0224,-27.0000,19.6200,27.7800,
1.470792,0.0144,-0.0622,-0.0586,0.0570,0.0469,-0.0224,-26.2800,19.6200,27.5400,
1.482551,0.0144,-0.0622,-0.0586,0.0570,0.0469,-0.0224,-26.2800,19.6200,27.5400,
1.482970,0.0144,-0.0622,-0.0586,0.0463,0.0256,-0.0218,-26.2800,19.6200,27.5400,
1.483245,-0.0363,-0.0242,-0.1912,0.0463,0.0256,-0.0218,-26.2800,19.6200,27.5400,
1.503076,-0.0363,-0.0242,-0.1912,0.0250,0.0021,-0.0320,-26.2800,19.6200,27.5400,
1.524739,-0.0363,-0.0242,-0.1912,0.0128,-0.0149,-0.0421,-26.2800,19.6200,27.5400,
1.532302,-0.0363,-0.0242,-0.1912,0.0128,-0.0149,-0.0421,-25.9800,19.8000,27.9000,
1.544486,-0.0363,-0.0242,-0.1912,0.0128,-0.0149,-0.0421,-25.9800,19.8000,27.9000,
1.545118,-0.0363,-0.0242,-0.1912,0.0016,-0.0021,-0.0469,-25.9800,19.8000,27.9000,
1.545572,-0.0062,-0.0726,-0.0120,0.0016,-0.0021,-0.0469,-25.9800,19.8000,27.9000,
1.565214,-0.0062,-0.0726,-0.0120,-0.0176,-0.0160,-0.0415,-25.9800,19.8000,27.9000,
1.586838,-0.0062,-0.0726,-0.0120,-0.0266,-0.0453,-0.0373,-25.9800,19.8000,27.9000,
1.595535,-0.0062,-0.0726,-0.0120,-0.0266,-0.0453,-0.0373,-26.4000,20.2800,28.8000,
1.607436,-0.0062,-0.0726,-0.0120,-0.0266,-0.0453,-0.0373,-26.4000,20.2800,28.8000,
1.608247,0.1264,-0.2378,0.2015,-0.0266,-0.0453,-0.0373,-26.4000,20.2800,28.8000,
1.609415,0.1264,-0.2378,0.2015,-0.0016,-0.0357,-0.0410,-26.4000,20.2800,28.8000,
1.626910,0.1264,-0.2378,0.2015,0.0304,0.0096,-0.0431,-26.4000,20.2800,28.8000,
1.647501,0.1264,-0.2378,0.2015,0.0154,0.0181,-0.0389,-26.4000,20.2800,28.8000,
1.655606,0.1264,-0.2378,0.2015,0.0154,0.0181,-0.0389,-26.6400,20.2800,28.8600,
1.667920,0.1264,-0.2378,0.2015,0.0154,0.0181,-0.0389,-26.6400,20.2800,28.8600,
1.669037,0.1264,-0.2378,0.2015,-0.0138,0.0069,-0.0346,-26.6400,20.2800,28.8600,
1.669830,0.2056,-0.2451,0.0967,-0.0138,0.0069,-0.0346,-26.6400,20.2800,28.8600,
1.688550,0.2056,-0.2451,0.0967,0.0027,0.0309,-0.0224,-26.6400,20.2800,28.8600,
1.709080,0.2056,-0.2451,0.0967,0.0655,0.0943,0.0032,-26.6400,20.2800,28.8600,
1.717951,0.2056,-0.2451,0.0967,0.0655,0.0943,0.0032,-27.0000,20.5800,29.1600,
1.729428,0.2056,-0.2451,0.0967,0.0655,0.0943,0.0032,-27.0000,20.5800,29.1600,
1.730485,0.2056,-0.2451,0.0967,0.1593,0.1784,0.0383,-27.0000,20.5800,29.1600,
1.731563,0.2375,-0.2636,0.4873,0.1593,0.1784,0.0383,-27.0000,20.5800,29.1600,
1.750005,0.2375,-0.2636,0.4873,0.2242,0.2376,0.0836,-27.0000,20.5800,29.1600,
1.770156,0.2375,-0.2636,0.4873,0.2514,0.2370,0.1406,-27.0000,20.5800,29.1600,
1.779146,0.2375,-0.2636,0.4873,0.2514,0.2370,0.1406,-27.6000,20.3400,28.9800,
1.791088,0.2375,-0.2636,0.4873,0.2514,0.2370,0.1406,-27.6000,20.3400,28.9800,
1.792114,0.2375,-0.2636,0.4873,0.2439,0.1220,0.2008,-27.6000,20.3400,28.9800,
1.792986,-0.1845,-0.0665,0.1555,0.2439,0.1220,0.2008,-27.6000,20.3400,28.9800,
1.811284,-0.1845,-0.0665,0.1555,0.2434,0.0266,0.2860,-27.6000,20.3400,28.9800,
1.832442,-0.1845,-0.0665,0.1555,0.2711,0.2200,0.3867,-27.6000,20.3400,28.9800,
1.841458,-0.1845,-0.0665,0.1555,0.2711,0.2200,0.3867,-27.9000,20.1000,28.6800,
1.852922,-0.1845,-0.0665,0.1555,0.2711,0.2200,0.3867,-27.9000,20.1000,28.6800,
1.853900,-0.1845,-0.0665,0.1555,0.2882,0.4735,0.4410,-27.9000,20.1000,28.6800,
1.854687,-0.7959,0.0755,0.5517,0.2882,0.4735,0.4410,-27.9000,20.1000,28.6800,
1.873283,-0.7959,0.0755,0.5517,0.2120,0.3052,0.3680,-27.9000,20.1000,28.6800,
1.893875,-0.7959,0.0755,0.5517,-0.0325,-0.2642,0.2530,-27.9000,20.1000,28.6800,
1.903273,-0.7959,0.0755,0.5517,-0.0325,-0.2642,0.2530,-27.8400,20.2800,28.9800,
1.914141,-0.7959,0.0755,0.5517,-0.0325,-0.2642,0.2530,-27.8400,20.2800,28.9800,
1.915148,-0.7959,0.0755,0.5517,-0.2338,-0.4890,0.2008,-27.8400,20.2800,28.9800,
1.915965,0.6361,-0.1089,-0.1931,-0.2338,-0.4890,0.2008,-27.8400,20.2800,28.9800,
1.934568,0.6361,-0.1089,-0.1931,-0.2083,-0.2647,0.0794,-27.8400,20.2800,28.9800,
1.955021,0.6361,-0.1089,-0.1931,-0.1609,-0.1124,0.0325,-27.8400,20.2800,28.9800,
1.965038,0.6361,-0.1089,-0.1931,-0.1609,-0.1124,0.0325,-27.4800,21.0000,27.7800,
1.975928,0.6361,-0.1089,-0.1931,-0.1609,-0.1124,0.0325,-27.4800,21.0000,27.7800,
1.976799,0.6361,-0.1089,-0.1931,-0.1981,-0.0533,0.0565,-27.4800,21.0000,27.7800,
1.977601,0.9177,0.1342,-0.4989,-0.1981,-0.0533,0.0565,-27.4800,21.0000,27.7800,
1.995957,0.9177,0.1342,-0.4989,-0.3441,-0.1731,-0.0543,-27.4800,21.0000,27.7800,
2.016685,0.9177,0.1342,-0.4989,-0.3957,0.0368,-0.0703,-27.4800,21.0000,27.7800,
2.025430,0.9177,0.1342,-0.4989,-0.3957,0.0368,-0.0703,-27.0600,21.6000,27.6600,
2.037576,0.9177,0.1342,-0.4989,-0.3957,0.0368,-0.0703,-27.0600,21.6000,27.6600,
2.038566,0.9177,0.1342,-0.4989,-0.3249,0.0389,-0.0186,-27.0600,21.6000,27.6600,
2.039589,0.0020,0.4438,0.1690,-0.3249,0.0389,-0.0186,-27.0600,21.6000,27.6600,
2.057906,0.0020,0.4438,0.1690,-0.2194,-0.1321,0.0149,-27.0600,21.6000,27.6600,
2.080569,0.0020,0.4438,0.1690,-0.1369,-0.1316,0.0170,-27.0600,21.6000,27.6600,
2.088044,0.0020,0.4438,0.1690,-0.1369,-0.1316,0.0170,-26.2200,22.3200,28.2600,
2.098686,0.0020,0.4438,0.1690,-0.1369,-0.1316,0.0170,-26.2200,22.3200,28.2600,
2.099618,0.0020,0.4438,0.1690,-0.1800,0.0479,-0.0490,-26.2200,22.3200,28.2600,
2.100346,0.6883,0.2514,-0.0660,-0.1800,0.0479,-0.0490,-26.2200,22.3200,28.2600,
2.119927,0.6883,0.2514,-0.0660,-0.3121,0.3270,-0.1092,-26.2200,22.3200,28.2600,
2.139417,0.6883,0.2514,-0.0660,-0.3462,0.3366,-0.1044,-26.2200,22.3200,28.2600,
2.148447,0.6883,0.2514,-0.0660,-0.3462,0.3366,-0.1044,-25.6200,22.6200,28.0800,
2.161363,0.6883,0.2514,-0.0660,-0.3462,0.3366,-0.1044,-25.6200,22.6200,28.0800,
2.162203,0.6883,0.2514,-0.0660,-0.1433,0.0394,0.0032,-25.6200,22.6200,28.0800,
2.162891,-1.1731,-0.7210,0.6697,-0.1433,0.0394,0.0032,-25.6200,22.6200,28.0800,
2.181042,-1.1731,-0.7210,0.6697,0.9939,1.7108,-0.9204,-25.6200,22.6200,28.0800,
2.201494,-1.1731,-0.7210,0.6697,1.6954,2.5593,-2.1817,-25.6200,22.6200,28.0800,
2.210451,-1.1731,-0.7210,0.6697,1.6954,2.5593,-2.1817,-26.3400,21.7200,29.6400,
2.222105,-1.1731,-0.7210,0.6697,1.6954,2.5593,-2.1817,-26.3400,21.7200,29.6400,
2.223200,-1.1731,-0.7210,0.6697,1.5058,3.0515,-1.9633,-26.3400,21.7200,29.6400,
2.224422,-2.2997,1.3017,0.6502,1.5058,3.0515,-1.9633,-26.3400,21.7200,29.6400,
2.242297,-2.2997,1.3017,0.6502,0.3020,1.0738,-0.4059,-26.3400,21.7200,29.6400,
2.262838,-2.2997,1.3017,0.6502,-0.5662,-1.8046,0.4703,-26.3400,21.7200,29.6400,
2.271348,-2.2997,1.3017,0.6502,-0.5662,-1.8046,0.4703,-27.3600,21.1800,29.0400,
2.283137,-2.2997,1.3017,0.6502,-0.5662,-1.8046,0.4703,-27.3600,21.1800,29.0400,
2.284048,-2.2997,1.3017,0.6502,-1.2203,-3.3428,0.6195,-27.3600,21.1800,29.0400,
2.285158,1.5615,0.6923,-2.2579,-1.2203,-3.3428,0.6195,-27.3600,21.1800,29.0400,
2.303841,1.5615,0.6923,-2.2579,-1.6602,-3.8232,0.3537,-27.3600,21.1800,29.0400,
2.324624,1.5615,0.6923,-2.2579,-1.6581,-3.5031,0.1321,-27.3600,21.1800,29.0400,
2.333522,1.5615,0.6923,-2.2579,-1.6581,-3.5031,0.1321,-28.8000,20.2800,27.2400,
2.345190,1.5615,0.6923,-2.2579,-1.6581,-3.5031,0.1321,-28.8000,20.2800,27.2400,
2.346188,1.5615,0.6923,-2.2579,-0.9385,-2.3814,0.1449,-28.8000,20.2800,27.2400,
2.347236,-1.6689,-1.2549,1.2777,-0.9385,-2.3814,0.1449,-28.8000,20.2800,27.2400,
2.365609,-1.6689,-1.2549,1.2777,-0.3712,-1.0099,0.0969,-28.8000,20.2800,27.2400,
2.385798,-1.6689,-1.2549,1.2777,-0.3771,-0.0735,0.0735,-28.8000,20.2800,27.2400,
2.394784,-1.6689,-1.2549,1.2777,-0.3771,-0.0735,0.0735,-28.8600,19.0800,28.3800,
2.407307,-1.6689,-1.2549,1.2777,-0.3771,-0.0735,0.0735,-28.8600,19.0800,28.3800,
2.408210,-1.6689,-1.2549,1.2777,-0.2908,0.7441,0.0501,-28.8600,19.0800,28.3800,
2.409184,-0.2040,0.4442,-1.5463,-0.2908,0.7441,0.0501,-28.8600,19.0800,28.3800,
2.427775,-0.2040,0.4442,-1.5463,-0.0458,0.9225,0.1001,-28.8600,19.0800,28.3800,
2.447569,-0.2040,0.4442,-1.5463,0.1667,0.6999,0.2775,-28.8600,19.0800,28.3800,
2.456547,-0.2040,0.4442,-1.5463,0.1667,0.6999,0.2775,-27.4800,18.1800,29.4000,
2.468553,-0.2040,0.4442,-1.5463,0.1667,0.6999,0.2775,-27.4800,18.1800,29.4000,
2.469763,-0.2040,0.4442,-1.5463,0.2370,0.6951,0.3888,-27.4800,18.1800,29.4000,
2.470791,-0.3991,-0.1483,-0.2113,0.2370,0.6951,0.3888,-27.4800,18.1800,29.4000,
2.488297,-0.3991,-0.1483,-0.2113,0.3925,0.8890,0.4735,-27.4800,18.1800,29.4000,
2.509239,-0.3991,-0.1483,-0.2113,0.4890,0.9662,0.5683,-27.4800,18.1800,29.4000,
2.517571,-0.3991,-0.1483,-0.2113,0.4890,0.9662,0.5683,-25.9200,17.4600,31.2000,
2.529881,-0.3991,-0.1483,-0.2113,0.4890,0.9662,0.5683,-25.9200,17.4600,31.2000,
2.530908,-0.3991,-0.1483,-0.2113,0.4490,0.8767,0.6120,-25.9200,17.4600,31.2000,
2.532125,-0.6576,0.9408,0.6036,0.4490,0.8767,0.6120,-25.9200,17.4600,31.2000,
2.550334,-0.6576,0.9408,0.6036,0.2898,0.5758,0.5891,-25.9200,17.4600,31.2000,
2.570663,-0.6576,0.9408,0.6036,0.0586,0.2471,0.5864,-25.9200,17.4600,31.2000,
2.579243,-0.6576,0.9408,0.6036,0.0586,0.2471,0.5864,-24.6600,17.4600,32.8200,
2.591127,-0.6576,0.9408,0.6036,0.0586,0.2471,0.5864,-24.6600,17.4600,32.8200,
2.592080,-0.6576,0.9408,0.6036,-0.2152,0.0559,0.6631,-24.6600,17.4600,32.8200,
2.593555,-1.2331,0.6862,-0.3571,-0.2152,0.0559,0.6631,-24.6600,17.4600,32.8200,
2.611777,-1.2331,0.6862,-0.3571,-0.4149,-0.1380,0.7984,-24.6600,17.4600,32.8200,
2.632482,-1.2331,0.6862,-0.3571,-0.3302,-0.3334,0.9358,-24.6600,17.4600,32.8200,
2.641280,-1.2331,0.6862,-0.3571,-0.3302,-0.3334,0.9358,-24.8400,18.0600,32.2200,
2.653368,-1.2331,0.6862,-0.3571,-0.3302,-0.3334,0.9358,-24.8400,18.0600,32.2200,
2.654329,-1.2331,0.6862,-0.3571,-0.1342,-0.4027,0.9332,-24.8400,18.0600,32.2200,
2.655379,-1.1228,0.1608,0.3025,-0.1342,-0.4027,0.9332,-24.8400,18.0600,32.2200,
2.674280,-1.1228,0.1608,0.3025,-0.1166,-0.1997,0.9342,-24.8400,18.0600,32.2200,
2.694599,-1.1228,0.1608,0.3025,-0.1284,-0.1699,0.8261,-24.8400,18.0600,32.2200,
2.703260,-1.1228,0.1608,0.3025,-0.1284,-0.1699,0.8261,-25.1400,18.8400,31.4400,
2.714709,-1.1228,0.1608,0.3025,-0.1284,-0.1699,0.8261,-25.1400,18.8400,31.4400,
2.715521,-1.1228,0.1608,0.3025,-0.1800,-0.2434,0.5859,-25.1400,18.8400,31.4400,
2.716158,0.9861,0.6872,-0.4626,-0.1800,-0.2434,0.5859,-25.1400,18.8400,31.4400,
2.736079,0.9861,0.6872,-0.4626,-0.2253,-0.2663,0.3723,-25.1400,18.8400,31.4400,
2.755789,0.9861,0.6872,-0.4626,-0.1076,-0.2834,0.4650,-25.1400,18.8400,31.4400,
2.763944,0.9861,0.6872,-0.4626,-0.1076,-0.2834,0.4650,-24.7200,20.1000,30.7800,
2.776481,0.9861,0.6872,-0.4626,-0.1076,-0.2834,0.4650,-24.7200,20.1000,30.7800,
2.777655,0.9861,0.6872,-0.4626,-0.0719,-0.4623,0.7808,-24.7200,20.1000,30.7800,
2.778583,-1.1964,-0.9811,0.3621,-0.0719,-0.4623,0.7808,-24.7200,20.1000,30.7800,
2.796301,-1.1964,-0.9811,0.3621,0.0208,-0.7515,0.8043,-24.7200,20.1000,30.7800,
2.817038,-1.1964,-0.9811,0.3621,0.2589,-0.8373,0.6775,-24.7200,20.1000,30.7800,
2.825784,-1.1964,-0.9811,0.3621,0.2589,-0.8373,0.6775,-23.8200,20.8200,30.9000,
2.837751,-1.1964,-0.9811,0.3621,0.2589,-0.8373,0.6775,-23.8200,20.8200,30.9000,
2.838760,-1.1964,-0.9811,0.3621,0.3872,-0.6205,0.6983,-23.8200,20.8200,30.9000,
2.839557,0.3409,1.5308,-0.1224,0.3872,-0.6205,0.6983,-23.8200,20.8200,30.9000,
2.858128,0.3409,1.5308,-0.1224,0.4900,-0.8272,0.9076,-23.8200,20.8200,30.9000,
2.878941,0.3409,1.5308,-0.1224,0.7526,-1.3753,1.3758,-23.8200,20.8200,30.9000,
2.887210,0.3409,1.5308,-0.1224,0.7526,-1.3753,1.3758,-22.6200,21.2400,32.0400,
2.899172,0.3409,1.5308,-0.1224,0.7526,-1.3753,1.3758,-22.6200,21.2400,32.0400,
2.900158,0.3409,1.5308,-0.1224,0.8890,-1.5611,1.6607,-22.6200,21.2400,32.0400,
2.901183,-0.0315,0.1767,0.0749,0.8890,-1.5611,1.6607,-22.6200,21.2400,32.0400,
2.919755,-0.0315,0.1767,0.0749,1.0003,-1.6192,1.2661,-22.6200,21.2400,32.0400,
2.940387,-0.0315,0.1767,0.0749,0.9918,-1.5883,0.5694,-22.6200,21.2400,32.0400,
2.948993,-0.0315,0.1767,0.0749,0.9918,-1.5883,0.5694,-20.6400,22.6800,32.5800,
2.961112,-0.0315,0.1767,0.0749,0.9918,-1.5883,0.5694,-20.6400,22.6800,32.5800,
2.962066,-0.0315,0.1767,0.0749,0.9438,-1.0663,0.4762,-20.6400,22.6800,32.5800,
2.963303,0.7490,1.2993,0.8593,0.9438,-1.0663,0.4762,-20.6400,22.6800,32.5800,
2.982087,0.7490,1.2993,0.8593,1.1004,-0.5236,1.3779,-20.6400,22.6800,32.5800,
3.002735,0.7490,1.2993,0.8593,0.8847,-0.5822,2.0480,-20.6400,22.6800,32.5800,
3.011588,0.7490,1.2993,0.8593,0.8847,-0.5822,2.0480,-17.9400,24.4800,33.0000,
3.022430,0.7490,1.2993,0.8593,0.8847,-0.5822,2.0480,-17.9400,24.4800,33.0000,
3.023467,0.7490,1.2993,0.8593,0.8192,-0.8746,1.9729,-17.9400,24.4800,33.0000,
3.024570,2.8856,0.8198,1.4836,0.8192,-0.8746,1.9729,-17.9400,24.4800,33.0000,
3.042924,2.8856,0.8198,1.4836,0.8693,-0.3792,1.6197,-17.9400,24.4800,33.0000,
3.063300,2.8856,0.8198,1.4836,0.4794,0.8091,1.8749,-17.9400,24.4800,33.0000,
3.072040,2.8856,0.8198,1.4836,0.4794,0.8091,1.8749,-14.5200,26.6400,33.0000,
3.084502,2.8856,0.8198,1.4836,0.4794,0.8091,1.8749,-14.5200,26.6400,33.0000,
3.085660,2.8856,0.8198,1.4836,0.2631,0.8080,2.3265,-14.5200,26.6400,33.0000,
3.086663,-1.1418,0.3804,0.9784,0.2631,0.8080,2.3265,-14.5200,26.6400,33.0000,
3.104277,-1.1418,0.3804,0.9784,0.2099,-0.1198,2.5055,-14.5200,26.6400,33.0000,
3.125095,-1.1418,0.3804,0.9784,0.2221,0.1353,2.5641,-14.5200,26.6400,33.0000,
3.133787,-1.1418,0.3804,0.9784,0.2221,0.1353,2.5641,-9.8400,29.7000,31.3200,
3.146835,-1.1418,0.3804,0.9784,0.2221,0.1353,2.5641,-9.8400,29.7000,31.3200,
3.147667,-1.1418,0.3804,0.9784,0.1838,0.4756,2.4038,-9.8400,29.7000,31.3200,
3.148574,-0.1530,0.6583,0.2199,0.1838,0.4756,2.4038,-9.8400,29.7000,31.3200,
3.166107,-0.1530,0.6583,0.2199,0.1278,0.5470,2.0437,-9.8400,29.7000,31.3200,
3.186889,-0.1530,0.6583,0.2199,0.1683,0.4996,1.8109,-9.8400,29.7000,31.3200,
3.195941,-0.1530,0.6583,0.2199,0.1683,0.4996,1.8109,-5.4000,31.9200,30.2400,
3.207022,-0.1530,0.6583,0.2199,0.1683,0.4996,1.8109,-5.4000,31.9200,30.2400,
3.207972,-0.1530,0.6583,0.2199,-0.0868,0.5854,1.7827,-5.4000,31.9200,30.2400,
3.209041,1.4035,1.3939,0.2445,-0.0868,0.5854,1.7827,-5.4000,31.9200,30.2400,
3.228989,1.4035,1.3939,0.2445,-0.0346,0.6908,1.6309,-5.4000,31.9200,30.2400,
3.248169,1.4035,1.3939,0.2445,-0.0751,1.0131,1.8067,-5.4000,31.9200,30.2400,
3.256419,1.4035,1.3939,0.2445,-0.0751,1.0131,1.8067,-1.4400,33.1200,29.1600,
3.268534,1.4035,1.3939,0.2445,-0.0751,1.0131,1.8067,-1.4400,33.1200,29.1600,
3.268880,1.4035,1.3939,0.2445,0.2253,0.7191,2.1534,-1.4400,33.1200,29.1600,
3.269196,1.4064,0.8961,2.5502,0.2253,0.7191,2.1534,-1.4400,33.1200,29.1600,
3.289474,1.4064,0.8961,2.5502,0.3324,0.5657,2.0320,-1.4400,33.1200,29.1600,
3.309420,1.4064,0.8961,2.5502,0.2748,0.7350,1.5947,-1.4400,33.1200,29.1600,
3.318696,1.4064,0.8961,2.5502,0.2748,0.7350,1.5947,2.3400,34.4400,27.8400,
3.331262,1.4064,0.8961,2.5502,0.2748,0.7350,1.5947,2.3400,34.4400,27.8400,
3.332209,5.6210,0.7707,-0.2164,0.2748,0.7350,1.5947,2.3400,34.4400,27.8400,
3.332982,5.6210,0.7707,-0.2164,-0.0240,0.7862,1.3476,2.3400,34.4400,27.8400,
3.351501,5.6210,0.7707,-0.2164,-0.4511,0.8762,1.3049,2.3400,34.4400,27.8400,
3.372091,5.6210,0.7707,-0.2164,-0.8495,0.5662,1.4200,2.3400,34.4400,27.8400,
3.380162,5.6210,0.7707,-0.2164,-0.8495,0.5662,1.4200,5.1000,34.2000,27.4800,
3.392473,5.6210,0.7707,-0.2164,-0.8495,0.5662,1.4200,5.1000,34.2000,27.4800,
3.393950,5.6210,0.7707,-0.2164,-1.1697,0.0602,1.7561,5.1000,34.2000,27.4800,
3.394939,4.7461,1.1581,-1.6204,-1.1697,0.0602,1.7561,5.1000,34.2000,27.4800,
3.412234,4.7461,1.1581,-1.6204,-0.4666,0.2397,2.0719,5.1000,34.2000,27.4800,
3.433719,4.7461,1.1581,-1.6204,0.3830,0.9337,2.1673,5.1000,34.2000,27.4800,
3.442071,4.7461,1.1581,-1.6204,0.3830,0.9337,2.1673,7.5000,33.4800,27.3600,
3.455438,4.7461,1.1581,-1.6204,0.3830,0.9337,2.1673,7.5000,33.4800,27.3600,
3.457122,4.7461,1.1581,-1.6204,0.5491,1.5963,1.8546,7.5000,33.4800,27.3600,
3.458312,9.2434,0.8534,1.1585,0.5491,1.5963,1.8546,7.5000,33.4800,27.3600,
3.475215,9.2434,0.8534,1.1585,0.1678,2.2616,1.3641,7.5000,33.4800,27.3600,
3.495087,9.2434,0.8534,1.1585,-0.5353,2.7132,0.8309,7.5000,33.4800,27.3600,
3.502896,9.2434,0.8534,1.1585,-0.5353,2.7132,0.8309,9.6000,32.5200,27.8400,
3.516046,9.2434,0.8534,1.1585,-0.5353,2.7132,0.8309,9.6000,32.5200,27.8400,
3.517725,9.2434,0.8534,1.1585,-1.0280,3.0238,0.9619,9.6000,32.5200,27.8400,
3.518775,2.1611,0.5310,1.4310,-1.0280,3.0238,0.9619,9.6000,32.5200,27.8400,
3.536757,2.1611,0.5310,1.4310,-1.2378,2.9273,2.0932,9.6000,32.5200,27.8400,
3.557655,2.1611,0.5310,1.4310,-2.3825,1.9212,3.7236,9.6000,32.5200,27.8400,
3.565430,2.1611,0.5310,1.4310,-2.3825,1.9212,3.7236,10.6800,31.6800,28.7400,
3.577399,2.1611,0.5310,1.4310,-2.3825,1.9212,3.7236,10.6800,31.6800,28.7400,
3.578935,2.1611,0.5310,1.4310,6.0129,17.4405,-11.8761,10.6800,31.6800,28.7400,
3.580707,-32.9590,61.5492,-15.7863,6.0129,17.4405,-11.8761,10.6800,31.6800,28.7400,
3.597890,-32.9590,61.5492,-15.7863,0.4490,17.4389,-9.1522,10.6800,31.6800,28.7400,
3.617224,-32.9590,61.5492,-15.7863,-13.7616,10.3320,-5.1474,10.6800,31.6800,28.7400,
3.626585,-32.9590,61.5492,-15.7863,-13.7616,10.3320,-5.1474,10.1400,30.1800,30.4800,
3.639803,-32.9590,61.5492,-15.7863,-13.7616,10.3320,-5.1474,10.1400,30.1800,30.4800,
3.642230,-32.9590,61.5492,-15.7863,1.2831,4.9567,-0.6381,10.1400,30.1800,30.4800,
3.643748,2.2711,5.8885,-48.8779,1.2831,4.9567,-0.6381,10.1400,30.1800,30.4800,
3.658699,2.2711,5.8885,-48.8779,-0.2328,-1.6192,-0.2306,10.1400,30.1800,30.4800,
3.679922,2.2711,5.8885,-48.8779,0.3206,-8.7373,-0.1923,10.1400,30.1800,30.4800,
3.687744,2.2711,5.8885,-48.8779,0.3206,-8.7373,-0.1923,-0.3000,27.0600,29.9400,
3.700142,2.2711,5.8885,-48.8779,0.3206,-8.7373,-0.1923,-0.3000,27.0600,29.9400,
3.701711,2.2711,5.8885,-48.8779,0.6977,-8.4960,0.6669,-0.3000,27.0600,29.9400,
3.702780,-1.3937,-14.1032,5.7479,0.6977,-8.4960,0.6669,-0.3000,27.0600,29.9400,
3.719964,-1.3937,-14.1032,5.7479,2.3819,-5.5490,1.5723,-0.3000,27.0600,29.9400,
3.740565,-1.3937,-14.1032,5.7479,0.9369,-1.6064,1.7588,-0.3000,27.0600,29.9400,
3.749532,-1.3937,-14.1032,5.7479,0.9369,-1.6064,1.7588,-10.5600,24.1200,30.1200,
3.762798,-1.3937,-14.1032,5.7479,0.9369,-1.6064,1.7588,-10.5600,24.1200,30.1200,
3.764567,-1.3937,-14.1032,5.7479,0.1870,-1.4749,1.5425,-10.5600,24.1200,30.1200,
3.766109,4.6921,-3.5099,2.6826,0.1870,-1.4749,1.5425,-10.5600,24.1200,30.1200,
3.781899,4.6921,-3.5099,2.6826,0.1646,-0.2008,1.1031,-10.5600,24.1200,30.1200,
3.803383,4.6921,-3.5099,2.6826,1.5936,4.1934,-0.0533,-10.5600,24.1200,30.1200,
3.811316,4.6921,-3.5099,2.6826,1.5936,4.1934,-0.0533,-17.7000,21.9000,31.2000,
3.822967,4.6921,-3.5099,2.6826,1.5936,4.1934,-0.0533,-17.7000,21.9000,31.2000,
3.824357,4.6921,-3.5099,2.6826,1.2421,2.9822,-0.7036,-17.7000,21.9000,31.2000,
3.825651,7.3094,4.3225,-2.5401,1.2421,2.9822,-0.7036,-17.7000,21.9000,31.2000,
3.844050,7.3094,4.3225,-2.5401,0.5827,2.8560,-0.8677,-17.7000,21.9000,31.2000,
3.864538,7.3094,4.3225,-2.5401,0.0474,5.4009,-0.5177,-17.7000,21.9000,31.2000,
3.872640,7.3094,4.3225,-2.5401,0.0474,5.4009,-0.5177,-24.3600,21.1800,30.2400,
3.886480,7.3094,4.3225,-2.5401,0.0474,5.4009,-0.5177,-24.3600,21.1800,30.2400,
3.888076,7.3094,4.3225,-2.5401,-0.2956,5.4659,0.4682,-24.3600,21.1800,30.2400,
3.889392,-2.7485,5.7683,7.0195,-0.2956,5.4659,0.4682,-24.3600,21.1800,30.2400,
3.905166,-2.7485,5.7683,7.0195,1.3598,3.6943,1.6826,-24.3600,21.1800,30.2400,
3.925862,-2.7485,5.7683,7.0195,0.6562,3.4014,1.6453,-24.3600,21.1800,30.2400,
3.934932,-2.7485,5.7683,7.0195,0.6562,3.4014,1.6453,-24.1200,21.4800,29.4600,
3.948000,-2.7485,5.7683,7.0195,0.6562,3.4014,1.6453,-24.1200,21.4800,29.4600,
3.949730,-2.7485,5.7683,7.0195,-1.1457,1.8818,-0.0463,-24.1200,21.4800,29.4600,
3.950855,4.2500,20.2991,-4.0340,-1.1457,1.8818,-0.0463,-24.1200,21.4800,29.4600,
3.967563,4.2500,20.2991,-4.0340,-0.8730,1.3609,-0.6647,-24.1200,21.4800,29.4600,
3.988330,4.2500,20.2991,-4.0340,-0.5529,-1.0823,-0.0852,-24.1200,21.4800,29.4600,
3.996743,4.2500,20.2991,-4.0340,-0.5529,-1.0823,-0.0852,-24.7800,23.1000,26.2200,
4.009036,4.2500,20.2991,-4.0340,-0.5529,-1.0823,-0.0852,-24.7800,23.1000,26.2200,
4.010592,4.2500,20.2991,-4.0340,-0.1763,-0.2067,-0.0889,-24.7800,23.1000,26.2200,
4.011466,1.1202,3.4586,0.5274,-0.1763,-0.2067,-0.0889,-24.7800,23.1000,26.2200,
4.028297,1.1202,3.4586,0.5274,0.0868,-0.2402,-0.0085,-24.7800,23.1000,26.2200,
4.048990,1.1202,3.4586,0.5274,0.1667,-0.1912,-0.0069,-24.7800,23.1000,26.2200,
4.057837,1.1202,3.4586,0.5274,0.1667,-0.1912,-0.0069,-28.3800,23.5200,21.6600,
4.070035,1.1202,3.4586,0.5274,0.1667,-0.1912,-0.0069,-28.3800,23.5200,21.6600,
4.071669,1.1202,3.4586,0.5274,0.1864,-0.3004,-0.0080,-28.3800,23.5200,21.6600,
4.072704,-0.0344,1.1911,-0.0736,0.1864,-0.3004,-0.0080,-28.3800,23.5200,21.6600,
4.090325,-0.0344,1.1911,-0.0736,0.1609,-0.1630,-0.0197,-28.3800,23.5200,21.6600,
4.111562,-0.0344,1.1911,-0.0736,0.0804,0.0932,-0.0213,-28.3800,23.5200,21.6600,
4.119884,-0.0344,1.1911,-0.0736,0.0804,0.0932,-0.0213,-31.3200,23.2200,18.6000,
4.131612,-0.0344,1.1911,-0.0736,0.0804,0.0932,-0.0213,-31.3200,23.2200,18.6000,
4.133089,-0.0344,1.1911,-0.0736,-0.0240,0.1923,-0.0085,-31.3200,23.2200,18.6000,
4.134071,-0.0323,1.1205,0.4572,-0.0240,0.1923,-0.0085,-31.3200,23.2200,18.6000,
4.152456,-0.0323,1.1205,0.4572,-0.1502,-0.0415,0.0288,-31.3200,23.2200,18.6000,
4.172023,-0.0323,1.1205,0.4572,-0.2509,-0.1667,0.0474,-31.3200,23.2200,18.6000,
4.181023,-0.0323,1.1205,0.4572,-0.2509,-0.1667,0.0474,-31.7400,24.0000,16.9200,
4.193549,-0.0323,1.1205,0.4572,-0.2509,-0.1667,0.0474,-31.7400,24.0000,16.9200,
4.195087,-0.0323,1.1205,0.4572,-0.2557,-0.3228,0.0501,-31.7400,24.0000,16.9200,
4.195902,-0.2656,1.1990,0.1668,-0.2557,-0.3228,0.0501,-31.7400,24.0000,16.9200,
4.214029,-0.2656,1.1990,0.1668,-0.1518,-0.3755,0.0431,-31.7400,24.0000,16.9200,
4.233647,-0.2656,1.1990,0.1668,-0.0421,-0.2525,0.0240,-31.7400,24.0000,16.9200,
4.242697,-0.2656,1.1990,0.1668,-0.0421,-0.2525,0.0240,-32.0400,23.7000,16.9200,
4.255785,-0.2656,1.1990,0.1668,-0.0421,-0.2525,0.0240,-32.0400,23.7000,16.9200,
4.257409,-0.2656,1.1990,0.1668,0.0613,0.0053,0.0011,-32.0400,23.7000,16.9200,
4.258215,-0.0833,-0.3471,0.2098,0.0613,0.0053,0.0011,-32.0400,23.7000,16.9200,
4.275206,-0.0833,-0.3471,0.2098,0.1337,0.1582,-0.0197,-32.0400,23.7000,16.9200,
4.296503,-0.0833,-0.3471,0.2098,0.1401,0.1662,-0.0245,-32.0400,23.7000,16.9200,
4.305652,-0.0833,-0.3471,0.2098,0.1401,0.1662,-0.0245,-31.8000,23.8200,17.4000,
4.319946,-0.0833,-0.3471,0.2098,0.1401,0.1662,-0.0245,-31.8000,23.8200,17.4000,
4.321661,-0.0833,-0.3471,0.2098,0.0884,0.1406,-0.0181,-31.8000,23.8200,17.4000,
4.322467,-0.0398,-0.2632,-0.1056,0.0884,0.1406,-0.0181,-31.8000,23.8200,17.4000,
4.335715,-0.0398,-0.2632,-0.1056,0.0543,0.1108,-0.0160,-31.8000,23.8200,17.4000,
4.357008,-0.0398,-0.2632,-0.1056,0.0458,0.1140,-0.0165,-31.8000,23.8200,17.4000,
4.365205,-0.0398,-0.2632,-0.1056,0.0458,0.1140,-0.0165,-31.3200,24.2400,17.3400,
4.377446,-0.0398,-0.2632,-0.1056,0.0458,0.1140,-0.0165,-31.3200,24.2400,17.3400,
4.378762,-0.0398,-0.2632,-0.1056,0.0458,0.0618,-0.0117,-31.3200,24.2400,17.3400,
4.379493,0.0875,-0.0531,0.2139,0.0458,0.0618,-0.0117,-31.3200,24.2400,17.3400,
4.397585,0.0875,-0.0531,0.2139,0.0415,0.0953,-0.0149,-31.3200,24.2400,17.3400,
4.418609,0.0875,-0.0531,0.2139,0.0149,0.1198,-0.0261,-31.3200,24.2400,17.3400,
4.427561,0.0875,-0.0531,0.2139,0.0149,0.1198,-0.0261,-31.2600,24.4200,17.4000,
4.438793,0.0875,-0.0531,0.2139,0.0149,0.1198,-0.0261,-31.2600,24.4200,17.4000,
4.440227,-0.0144,-0.1400,0.4004,0.0149,0.1198,-0.0261,-31.2600,24.4200,17.4000,
4.441367,-0.0144,-0.1400,0.4004,-0.0485,0.0250,0.0032,-31.2600,24.4200,17.4000,
4.459892,-0.0144,-0.1400,0.4004,-0.0543,-0.0016,0.0107,-31.2600,24.4200,17.4000,
4.479826,-0.0144,-0.1400,0.4004,-0.0181,-0.1044,0.0117,-31.2600,24.4200,17.4000,
4.490680,-0.0144,-0.1400,0.4004,-0.0181,-0.1044,0.0117,-31.0200,24.6000,16.7400,
4.501085,-0.0144,-0.1400,0.4004,-0.0181,-0.1044,0.0117,-31.0200,24.6000,16.7400,
4.502517,-0.0144,-0.1400,0.4004,-0.0144,-0.0064,0.0085,-31.0200,24.6000,16.7400,
4.503296,0.0437,-0.1486,0.1216,-0.0144,-0.0064,0.0085,-31.0200,24.6000,16.7400,
4.520884,0.0437,-0.1486,0.1216,0.0383,-0.0160,-0.0048,-31.0200,24.6000,16.7400,
4.541613,0.0437,-0.1486,0.1216,0.0671,0.0479,-0.0128,-31.0200,24.6000,16.7400,
4.550651,0.0437,-0.1486,0.1216,0.0671,0.0479,-0.0128,-30.9000,24.4800,16.6200,
4.562890,0.0437,-0.1486,0.1216,0.0671,0.0479,-0.0128,-30.9000,24.4800,16.6200,
4.564215,0.0437,-0.1486,0.1216,0.0373,0.0703,-0.0043,-30.9000,24.4800,16.6200,
4.565123,-0.0226,-0.0599,0.2105,0.0373,0.0703,-0.0043,-30.9000,24.4800,16.6200,
4.582153,-0.0226,-0.0599,0.2105,0.0533,0.0495,-0.0021,-30.9000,24.4800,16.6200,
4.603462,-0.0226,-0.0599,0.2105,0.0613,0.0682,0.0053,-30.9000,24.4800,16.6200,
4.612693,-0.0226,-0.0599,0.2105,0.0613,0.0682,0.0053,-31.3800,24.2400,16.5600,
4.623827,-0.0226,-0.0599,0.2105,0.0613,0.0682,0.0053,-31.3800,24.2400,16.5600,
4.625351,-0.0226,-0.0599,0.2105,0.0325,0.0410,0.0197,-31.3800,24.2400,16.5600,
4.626193,0.1108,-0.1199,0.1366,0.0325,0.0410,0.0197,-31.3800,24.2400,16.5600,
4.646053,0.1108,-0.1199,0.1366,0.0368,0.0059,0.0229,-31.3800,24.2400,16.5600,
4.665372,0.1108,-0.1199,0.1366,0.0708,-0.0005,0.0138,-31.3800,24.2400,16.5600,
4.673058,0.1108,-0.1199,0.1366,0.0708,-0.0005,0.0138,-31.3800,23.8200,17.0400,
4.685753,0.1108,-0.1199,0.1366,0.0708,-0.0005,0.0138,-31.3800,23.8200,17.0400,
4.687164,0.1108,-0.1199,0.1366,0.1028,0.0224,0.0053,-31.3800,23.8200,17.0400,
4.687913,0.0391,-0.0924,-0.0873,0.1028,0.0224,0.0053,-31.3800,23.8200,17.0400,
4.706358,0.0391,-0.0924,-0.0873,0.0868,-0.0256,0.0064,-31.3800,23.8200,17.0400,
4.726877,0.0391,-0.0924,-0.0873,0.0953,0.0123,0.0005,-31.3800,23.8200,17.0400,
4.735142,0.0391,-0.0924,-0.0873,0.0953,0.0123,0.0005,-31.1400,23.5200,17.1600,
4.746726,0.0391,-0.0924,-0.0873,0.0953,0.0123,0.0005,-31.1400,23.5200,17.1600,
4.748215,0.0391,-0.0924,-0.0873,0.0586,-0.0048,0.0027,-31.1400,23.5200,17.1600,
4.749105,0.0791,-0.1136,0.2280,0.0586,-0.0048,0.0027,-31.1400,23.5200,17.1600,
4.767208,0.0791,-0.1136,0.2280,0.0123,-0.0229,-0.0091,-31.1400,23.5200,17.1600,
4.787731,0.0791,-0.1136,0.2280,0.0240,0.0463,-0.0112,-31.1400,23.5200,17.1600,
4.796629,0.0791,-0.1136,0.2280,0.0240,0.0463,-0.0112,-31.4400,23.3400,16.2600,
4.809260,0.0791,-0.1136,0.2280,0.0240,0.0463,-0.0112,-31.4400,23.3400,16.2600,
4.810626,0.0791,-0.1136,0.2280,-0.0091,-0.0080,-0.0069,-31.4400,23.3400,16.2600,
4.811389,0.0152,-0.1065,0.0349,-0.0091,-0.0080,-0.0069,-31.4400,23.3400,16.2600,
4.828711,0.0152,-0.1065,0.0349,-0.0282,0.0133,-0.0059,-31.4400,23.3400,16.2600,
4.850335,0.0152,-0.1065,0.0349,-0.0176,0.0144,-0.0059,-31.4400,23.3400,16.2600,
4.857560,0.0152,-0.1065,0.0349,-0.0176,0.0144,-0.0059,-31.2000,23.7600,15.8400,
4.870924,0.0152,-0.1065,0.0349,-0.0176,0.0144,-0.0059,-31.2000,23.7600,15.8400,
4.872378,0.0887,-0.0599,0.1266,-0.0176,0.0144,-0.0059,-31.2000,23.7600,15.8400,
4.873497,0.0887,-0.0599,0.1266,-0.0447,-0.0181,-0.0053,-31.2000,23.7600,15.8400,
4.890981,0.0887,-0.0599,0.1266,-0.0383,-0.0240,-0.0080,-31.2000,23.7600,15.8400,
4.912575,0.0887,-0.0599,0.1266,-0.0266,-0.0399,-0.0096,-31.2000,23.7600,15.8400,
4.919883,0.0887,-0.0599,0.1266,-0.0266,-0.0399,-0.0096,-30.9000,23.8800,15.3000,
4.932411,0.0887,-0.0599,0.1266,-0.0266,-0.0399,-0.0096,-30.9000,23.8800,15.3000,
4.934056,0.0887,-0.0599,0.1266,-0.0469,-0.0421,-0.0138,-30.9000,23.8800,15.3000,
4.934831,0.0984,-0.0648,-0.0870,-0.0469,-0.0421,-0.0138,-30.9000,23.8800,15.3000,
4.952655,0.0984,-0.0648,-0.0870,-0.0511,-0.0719,-0.0192,-30.9000,23.8800,15.3000,
4.973165,0.0984,-0.0648,-0.0870,-0.0447,-0.0479,-0.0272,-30.9000,23.8800,15.3000,
4.980650,0.0984,-0.0648,-0.0870,-0.0447,-0.0479,-0.0272,-30.9600,24.6600,15.6000,
4.994704,0.0984,-0.0648,-0.0870,-0.0447,-0.0479,-0.0272,-30.9600,24.6600,15.6000,
4.995709,0.0984,-0.0648,-0.0870,-0.0149,-0.0037,-0.0447,-30.9600,24.6600,15.6000,
4.996524,0.1010,-0.0330,0.0450,-0.0149,-0.0037,-0.0447,-30.9600,24.6600,15.6000,
5.014356,0.1010,-0.0330,0.0450,0.0213,0.0266,-0.0575,-30.9600,24.6600,15.6000,
5.034624,0.1010,-0.0330,0.0450,0.0511,0.0117,-0.0687,-30.9600,24.6600,15.6000,
5.043802,0.1010,-0.0330,0.0450,0.0511,0.0117,-0.0687,-30.6000,24.7200,16.2000,
5.056118,0.1010,-0.0330,0.0450,0.0511,0.0117,-0.0687,-30.6000,24.7200,16.2000,
5.057801,0.1010,-0.0330,0.0450,0.0724,-0.0533,-0.0655,-30.6000,24.7200,16.2000,
5.058650,0.0894,-0.1140,0.0599,0.0724,-0.0533,-0.0655,-30.6000,24.7200,16.2000,
5.075392,0.0894,-0.1140,0.0599,0.0724,-0.1635,-0.0533,-30.6000,24.7200,16.2000,
5.096047,0.0894,-0.1140,0.0599,0.0394,-0.2455,-0.0575,-30.6000,24.7200,16.2000,
5.105307,0.0894,-0.1140,0.0599,0.0394,-0.2455,-0.0575,-30.4800,24.4200,16.0200,
5.116503,0.0894,-0.1140,0.0599,0.0394,-0.2455,-0.0575,-30.4800,24.4200,16.0200,
5.118212,0.0894,-0.1140,0.0599,-0.0160,-0.4053,-0.0618,-30.4800,24.4200,16.0200,
5.119362,0.0464,-0.0915,-0.1500,-0.0160,-0.4053,-0.0618,-30.4800,24.4200,16.0200,
5.137264,0.0464,-0.0915,-0.1500,-0.0650,-0.6285,-0.0517,-30.4800,24.4200,16.0200,
5.158087,0.0464,-0.0915,-0.1500,-0.0953,-0.8906,-0.0522,-30.4800,24.4200,16.0200,
5.165828,0.0464,-0.0915,-0.1500,-0.0953,-0.8906,-0.0522,-30.6600,24.3000,16.3200,
5.178829,0.0464,-0.0915,-0.1500,-0.0953,-0.8906,-0.0522,-30.6600,24.3000,16.3200,
5.180233,-0.1975,-0.0395,0.1963,-0.0953,-0.8906,-0.0522,-30.6600,24.3000,16.3200,
5.181635,-0.1975,-0.0395,0.1963,-0.0900,-1.0876,-0.0288,-30.6600,24.3000,16.3200,
5.197925,-0.1975,-0.0395,0.1963,-0.0703,-1.2037,-0.0107,-30.6600,24.3000,16.3200,
5.218188,-0.1975,-0.0395,0.1963,-0.0522,-1.1521,-0.0053,-30.6600,24.3000,16.3200,
5.226587,-0.1975,-0.0395,0.1963,-0.0522,-1.1521,-0.0053,-30.7800,23.8800,16.5000,
5.238736,-0.1975,-0.0395,0.1963,-0.0522,-1.1521,-0.0053,-30.7800,23.8800,16.5000,
5.239195,-0.1975,-0.0395,0.1963,-0.0964,-0.9758,-0.0346,-30.7800,23.8800,16.5000,
5.239469,-0.1033,0.0662,0.2012,-0.0964,-0.9758,-0.0346,-30.7800,23.8800,16.5000,
5.259503,-0.1033,0.0662,0.2012,-0.0943,-0.8171,-0.0554,-30.7800,23.8800,16.5000,
5.279417,-0.1033,0.0662,0.2012,-0.0730,-0.6807,-0.0437,-30.7800,23.8800,16.5000,
5.288206,-0.1033,0.0662,0.2012,-0.0730,-0.6807,-0.0437,-30.0600,24.3600,17.2800,
5.300077,-0.1033,0.0662,0.2012,-0.0730,-0.6807,-0.0437,-30.0600,24.3600,17.2800,
5.300513,-0.1033,0.0662,0.2012,-0.0820,-0.5204,-0.0368,-30.0600,24.3600,17.2800,
5.300782,-0.0666,-0.0511,0.3704,-0.0820,-0.5204,-0.0368,-30.0600,24.3600,17.2800,
5.320953,-0.0666,-0.0511,0.3704,-0.0868,-0.4032,-0.0458,-30.0600,24.3600,17.2800,
5.341459,-0.0666,-0.0511,0.3704,-0.0399,-0.4794,-0.0368,-30.0600,24.3600,17.2800,
5.350026,-0.0666,-0.0511,0.3704,-0.0399,-0.4794,-0.0368,-29.7600,23.8200,19.0200,
5.362031,-0.0666,-0.0511,0.3704,-0.0399,-0.4794,-0.0368,-29.7600,23.8200,19.0200,
5.362863,-0.0666,-0.0511,0.3704,0.0005,-0.6354,-0.0309,-29.7600,23.8200,19.0200,
5.363406,-0.0806,-0.0588,0.0406,0.0005,-0.6354,-0.0309,-29.7600,23.8200,19.0200,
5.382594,-0.0806,-0.0588,0.0406,-0.0064,-0.7446,-0.0218,-29.7600,23.8200,19.0200,
5.404178,-0.0806,-0.0588,0.0406,-0.0181,-0.7547,-0.0037,-29.7600,23.8200,19.0200,
5.413625,-0.0806,-0.0588,0.0406,-0.0181,-0.7547,-0.0037,-29.1600,23.8800,20.8800,
5.424745,-0.0806,-0.0588,0.0406,-0.0181,-0.7547,-0.0037,-29.1600,23.8800,20.8800,
5.425616,-0.0806,-0.0588,0.0406,-0.0559,-0.6637,-0.0085,-29.1600,23.8800,20.8800,
5.426401,0.0116,-0.0381,0.2768,-0.0559,-0.6637,-0.0085,-29.1600,23.8800,20.8800,
5.447689,0.0116,-0.0381,0.2768,-0.0511,-0.6264,-0.0165,-29.1600,23.8800,20.8800,
5.465793,0.0116,-0.0381,0.2768,-0.0597,-0.6882,-0.0277,-29.1600,23.8800,20.8800,
5.473985,0.0116,-0.0381,0.2768,-0.0597,-0.6882,-0.0277,-28.3800,23.4600,22.9200,
5.485798,0.0116,-0.0381,0.2768,-0.0597,-0.6882,-0.0277,-28.3800,23.4600,22.9200,
5.487284,0.0116,-0.0381,0.2768,-0.0794,-0.7180,-0.0474,-28.3800,23.4600,22.9200,
5.488211,-0.2930,0.0156,0.0821,-0.0794,-0.7180,-0.0474,-28.3800,23.4600,22.9200,
5.506976,-0.2930,0.0156,0.0821,-0.0911,-0.7478,-0.0266,-28.3800,23.4600,22.9200,
5.527720,-0.2930,0.0156,0.0821,-0.0895,-0.6914,-0.0272,-28.3800,23.4600,22.9200,
5.536167,-0.2930,0.0156,0.0821,-0.0895,-0.6914,-0.0272,-28.2600,22.8600,24.2400,
5.547784,-0.2930,0.0156,0.0821,-0.0895,-0.6914,-0.0272,-28.2600,22.8600,24.2400,
5.549554,-0.2375,-0.0104,0.4915,-0.0895,-0.6914,-0.0272,-28.2600,22.8600,24.2400,
5.550707,-0.2375,-0.0104,0.4915,-0.0815,-0.5859,-0.0410,-28.2600,22.8600,24.2400,
5.568235,-0.2375,-0.0104,0.4915,-0.1007,-0.4501,-0.0474,-28.2600,22.8600,24.2400,
5.589328,-0.2375,-0.0104,0.4915,-0.1166,-0.2748,-0.0586,-28.2600,22.8600,24.2400,
5.597428,-0.2375,-0.0104,0.4915,-0.1166,-0.2748,-0.0586,-27.0600,23.0400,25.5000,
5.611100,-0.2375,-0.0104,0.4915,-0.1166,-0.2748,-0.0586,-27.0600,23.0400,25.5000,
5.612071,-0.2375,-0.0104,0.4915,-0.1225,-0.2147,-0.0639,-27.0600,23.0400,25.5000,
5.612771,-0.2337,-0.0457,0.5895,-0.1225,-0.2147,-0.0639,-27.0600,23.0400,25.5000,
5.630377,-0.2337,-0.0457,0.5895,-0.0719,-0.2977,-0.0490,-27.0600,23.0400,25.5000,
5.650186,-0.2337,-0.0457,0.5895,-0.0186,-0.5406,-0.0064,-27.0600,23.0400,25.5000,
5.658338,-0.2337,-0.0457,0.5895,-0.0186,-0.5406,-0.0064,-26.0400,22.9800,26.3400,
5.671472,-0.2337,-0.0457,0.5895,-0.0186,-0.5406,-0.0064,-26.0400,22.9800,26.3400,
5.672776,-0.2337,-0.0457,0.5895,0.0298,-0.4043,0.0069,-26.0400,22.9800,26.3400,
5.674146,-0.3687,0.0141,0.9133,0.0298,-0.4043,0.0069,-26.0400,22.9800,26.3400,
5.691752,-0.3687,0.0141,0.9133,0.0522,0.0021,0.0091,-26.0400,22.9800,26.3400,
5.712589,-0.3687,0.0141,0.9133,-0.0059,0.2099,0.0037,-26.0400,22.9800,26.3400,
5.720669,-0.3687,0.0141,0.9133,-0.0059,0.2099,0.0037,-25.0200,22.9200,26.9400,
5.733091,-0.3687,0.0141,0.9133,-0.0059,0.2099,0.0037,-25.0200,22.9200,26.9400,
5.734571,-0.3687,0.0141,0.9133,0.0479,-0.0820,0.0032,-25.0200,22.9200,26.9400,
5.735351,-0.1792,-0.0088,-0.1188,0.0479,-0.0820,0.0032,-25.0200,22.9200,26.9400,
5.753584,-0.1792,-0.0088,-0.1188,0.0277,-0.4964,0.0154,-25.0200,22.9200,26.9400,
5.774021,-0.1792,-0.0088,-0.1188,-0.0117,-0.9641,0.0346,-25.0200,22.9200,26.9400,
5.782308,-0.1792,-0.0088,-0.1188,-0.0117,-0.9641,0.0346,-24.4800,22.8000,27.7200,
5.794748,-0.1792,-0.0088,-0.1188,-0.0117,-0.9641,0.0346,-24.4800,22.8000,27.7200,
5.795599,-0.1792,-0.0088,-0.1188,-0.0138,-1.1468,0.0352,-24.4800,22.8000,27.7200,
5.796578,-0.2194,-0.0350,0.0570,-0.0138,-1.1468,0.0352,-24.4800,22.8000,27.7200,
5.814613,-0.2194,-0.0350,0.0570,-0.0969,-1.1654,0.0277,-24.4800,22.8000,27.7200,
5.836115,-0.2194,-0.0350,0.0570,-0.1433,-1.2277,-0.0352,-24.4800,22.8000,27.7200,
5.843923,-0.2194,-0.0350,0.0570,-0.1433,-1.2277,-0.0352,-24.2400,22.6200,28.1400,
5.856449,-0.2194,-0.0350,0.0570,-0.1433,-1.2277,-0.0352,-24.2400,22.6200,28.1400,
5.857905,-0.2194,-0.0350,0.0570,-0.2221,-1.3145,-0.0708,-24.2400,22.6200,28.1400,
5.858833,-0.1374,-0.0467,0.2224,-0.2221,-1.3145,-0.0708,-24.2400,22.6200,28.1400,
5.876710,-0.1374,-0.0467,0.2224,-0.2887,-1.7939,-0.0719,-24.2400,22.6200,28.1400,
5.897619,-0.1374,-0.0467,0.2224,0.0485,-2.4192,0.0927,-24.2400,22.6200,28.1400,
5.905953,-0.1374,-0.0467,0.2224,0.0485,-2.4192,0.0927,-23.7600,21.9600,28.9800,
5.917725,-0.1374,-0.0467,0.2224,0.0485,-2.4192,0.0927,-23.7600,21.9600,28.9800,
5.918593,-0.1374,-0.0467,0.2224,0.0032,-2.5987,-0.2684,-23.7600,21.9600,28.9800,
5.919123,9.0909,-2.8307,-8.9334,0.0032,-2.5987,-0.2684,-23.7600,21.9600,28.9800,
5.937049,9.0909,-2.8307,-8.9334,0.6131,-0.8735,-0.6807,-23.7600,21.9600,28.9800,
5.957002,9.0909,-2.8307,-8.9334,2.0661,-1.1670,0.6205,-23.7600,21.9600,28.9800,
5.966013,9.0909,-2.8307,-8.9334,2.0661,-1.1670,0.6205,-22.3800,21.9600,29.1000,
5.978456,9.0909,-2.8307,-8.9334,2.0661,-1.1670,0.6205,-22.3800,21.9600,29.1000,
5.979202,-2.8793,1.2910,0.9540,2.0661,-1.1670,0.6205,-22.3800,21.9600,29.1000,
5.979836,-2.8793,1.2910,0.9540,2.5209,-1.8775,1.7209,-22.3800,21.9600,29.1000,
5.998785,-2.8793,1.2910,0.9540,3.0355,-1.6506,1.8711,-22.3800,21.9600,29.1000,
6.019872,-2.8793,1.2910,0.9540,3.0744,-2.0123,1.4077,-22.3800,21.9600,29.1000,
6.028190,-2.8793,1.2910,0.9540,3.0744,-2.0123,1.4077,-19.8600,22.3800,30.1800,
6.039809,-2.8793,1.2910,0.9540,3.0744,-2.0123,1.4077,-19.8600,22.3800,30.1800,
6.040501,-2.8793,1.2910,0.9540,0.5417,-1.9281,0.9752,-19.8600,22.3800,30.1800,
6.041140,-3.5317,-1.7602,1.2323,0.5417,-1.9281,0.9752,-19.8600,22.3800,30.1800,
6.060102,-3.5317,-1.7602,1.2323,-1.3540,-0.8149,0.1193,-19.8600,22.3800,30.1800,
6.081227,-3.5317,-1.7602,1.2323,-0.8362,-0.8751,-0.0570,-19.8600,22.3800,30.1800,
6.089325,-3.5317,-1.7602,1.2323,-0.8362,-0.8751,-0.0570,-16.3200,24.3600,30.4200,
6.100853,-3.5317,-1.7602,1.2323,-0.8362,-0.8751,-0.0570,-16.3200,24.3600,30.4200,
6.101447,-3.5317,-1.7602,1.2323,-0.0549,-1.2309,0.0059,-16.3200,24.3600,30.4200,
6.101881,-0.2453,0.5416,0.8092,-0.0549,-1.2309,0.0059,-16.3200,24.3600,30.4200,
6.122152,-0.2453,0.5416,0.8092,0.2413,-1.4381,-0.0463,-16.3200,24.3600,30.4200,
6.142151,-0.2453,0.5416,0.8092,0.2115,-1.3923,-0.0671,-16.3200,24.3600,30.4200,
6.150547,-0.2453,0.5416,0.8092,0.2115,-1.3923,-0.0671,-11.6400,26.7000,30.6000,
6.163176,-0.2453,0.5416,0.8092,0.2115,-1.3923,-0.0671,-11.6400,26.7000,30.6000,
6.163904,-0.2453,0.5416,0.8092,0.0932,-1.2906,-0.1710,-11.6400,26.7000,30.6000,
6.164480,0.9153,0.6552,0.2893,0.0932,-1.2906,-0.1710,-11.6400,26.7000,30.6000,
6.182713,0.9153,0.6552,0.2893,0.1433,-1.2378,-0.2567,-11.6400,26.7000,30.6000,
6.203440,0.9153,0.6552,0.2893,0.2972,-0.9630,-0.3047,-11.6400,26.7000,30.6000,
6.211984,0.9153,0.6552,0.2893,0.2972,-0.9630,-0.3047,-7.6800,28.3200,30.1800,
6.224174,0.9153,0.6552,0.2893,0.2972,-0.9630,-0.3047,-7.6800,28.3200,30.1800,
6.224906,0.9153,0.6552,0.2893,0.3537,-0.8719,-0.2919,-7.6800,28.3200,30.1800,
6.225470,-1.2707,0.3846,2.2733,0.3537,-0.8719,-0.2919,-7.6800,28.3200,30.1800,
6.244991,-1.2707,0.3846,2.2733,0.2967,-0.8485,-0.4570,-7.6800,28.3200,30.1800,
6.265306,-1.2707,0.3846,2.2733,0.5172,-0.7515,-0.7483,-7.6800,28.3200,30.1800,
6.273852,-1.2707,0.3846,2.2733,0.5172,-0.7515,-0.7483,-4.3800,29.8800,29.9400,
6.286020,-1.2707,0.3846,2.2733,0.5172,-0.7515,-0.7483,-4.3800,29.8800,29.9400,
6.286719,-1.2707,0.3846,2.2733,0.8416,-0.1662,-1.0205,-4.3800,29.8800,29.9400,
6.287298,-0.5030,0.7621,0.2633,0.8416,-0.1662,-1.0205,-4.3800,29.8800,29.9400,
6.306391,-0.5030,0.7621,0.2633,0.7079,-0.2381,-1.0514,-4.3800,29.8800,29.9400,
6.327490,-0.5030,0.7621,0.2633,0.9044,-0.5731,-1.2591,-4.3800,29.8800,29.9400,
6.336269,-0.5030,0.7621,0.2633,0.9044,-0.5731,-1.2591,-2.4600,30.2400,30.1800,
6.347314,-0.5030,0.7621,0.2633,0.9044,-0.5731,-1.2591,-2.4600,30.2400,30.1800,
6.347996,-0.5030,0.7621,0.2633,1.0200,-0.5444,-1.3065,-2.4600,30.2400,30.1800,
6.348580,-0.1251,-0.9381,0.0978,1.0200,-0.5444,-1.3065,-2.4600,30.2400,30.1800,
6.368196,-0.1251,-0.9381,0.0978,1.0477,-0.3467,-1.3204,-2.4600,30.2400,30.1800,
6.388365,-0.1251,-0.9381,0.0978,1.0152,0.0346,-1.3540,-2.4600,30.2400,30.1800,
6.397554,-0.1251,-0.9381,0.0978,1.0152,0.0346,-1.3540,-1.7400,30.7800,28.6800,
6.409232,-0.1251,-0.9381,0.0978,1.0152,0.0346,-1.3540,-1.7400,30.7800,28.6800,
6.409922,-0.1251,-0.9381,0.0978,1.1851,-0.3894,-1.4562,-1.7400,30.7800,28.6800,
6.410481,-0.7432,-1.6142,1.5538,1.1851,-0.3894,-1.4562,-1.7400,30.7800,28.6800,
6.429268,-0.7432,-1.6142,1.5538,1.3236,-0.3356,-1.5446,-1.7400,30.7800,28.6800,
6.450185,-0.7432,-1.6142,1.5538,1.4136,0.4053,-1.3593,-1.7400,30.7800,28.6800,
6.458412,-0.7432,-1.6142,1.5538,1.4136,0.4053,-1.3593,-2.5200,32.2800,27.3600,
6.470777,-0.7432,-1.6142,1.5538,1.4136,0.4053,-1.3593,-2.5200,32.2800,27.3600,
6.471482,-0.7432,-1.6142,1.5538,1.2554,0.6988,-1.0685,-2.5200,32.2800,27.3600,
6.471984,-4.4283,-0.9429,0.9781,1.2554,0.6988,-1.0685,-2.5200,32.2800,27.3600,
6.490796,-4.4283,-0.9429,0.9781,1.2943,-0.0336,-1.1276,-2.5200,32.2800,27.3600,
6.511364,-4.4283,-0.9429,0.9781,1.1761,-0.2296,-1.2565,-2.5200,32.2800,27.3600,
6.520316,-4.4283,-0.9429,0.9781,1.1761,-0.2296,-1.2565,-4.2000,33.3600,25.5000,
6.532270,-4.4283,-0.9429,0.9781,1.1761,-0.2296,-1.2565,-4.2000,33.3600,25.5000,
6.532971,-4.4283,-0.9429,0.9781,1.0413,0.1156,-1.2607,-4.2000,33.3600,25.5000,
6.533518,-1.4178,1.0921,-0.8826,1.0413,0.1156,-1.2607,-4.2000,33.3600,25.5000,
6.553067,-1.4178,1.0921,-0.8826,1.0157,0.2727,-1.5718,-4.2000,33.3600,25.5000,
6.572956,-1.4178,1.0921,-0.8826,1.0722,0.7936,-1.8466,-4.2000,33.3600,25.5000,
6.581544,-1.4178,1.0921,-0.8826,1.0722,0.7936,-1.8466,-6.2400,34.9200,23.4600,
6.594747,-1.4178,1.0921,-0.8826,1.0722,0.7936,-1.8466,-6.2400,34.9200,23.4600,
6.595338,-0.2824,0.9543,-0.2242,1.0722,0.7936,-1.8466,-6.2400,34.9200,23.4600,
6.595920,-0.2824,0.9543,-0.2242,1.1414,0.9950,-1.7406,-6.2400,34.9200,23.4600,
6.614032,-0.2824,0.9543,-0.2242,1.2570,1.1324,-1.4280,-6.2400,34.9200,23.4600,
6.634617,-0.2824,0.9543,-0.2242,1.2874,1.2725,-1.0045,-6.2400,34.9200,23.4600,
6.643477,-0.2824,0.9543,-0.2242,1.2874,1.2725,-1.0045,-9.1800,36.3000,20.4000,
6.655284,-0.2824,0.9543,-0.2242,1.2874,1.2725,-1.0045,-9.1800,36.3000,20.4000,
6.656036,-0.2824,0.9543,-0.2242,1.1835,1.3928,-0.6077,-9.1800,36.3000,20.4000,
6.656624,-2.0263,1.4481,-1.6313,1.1835,1.3928,-0.6077,-9.1800,36.3000,20.4000,
6.675726,-2.0263,1.4481,-1.6313,1.3225,1.0914,-0.5305,-9.1800,36.3000,20.4000,
6.696125,-2.0263,1.4481,-1.6313,1.3577,0.8740,-0.6956,-9.1800,36.3000,20.4000,
6.705195,-2.0263,1.4481,-1.6313,1.3577,0.8740,-0.6956,-12.1200,36.7200,16.6200,
6.716870,-2.0263,1.4481,-1.6313,1.3577,0.8740,-0.6956,-12.1200,36.7200,16.6200,
6.717528,-2.0263,1.4481,-1.6313,1.2847,0.5156,-0.8783,-12.1200,36.7200,16.6200,
6.718164,0.5755,1.3870,-0.0265,1.2847,0.5156,-0.8783,-12.1200,36.7200,16.6200,
6.737409,0.5755,1.3870,-0.0265,0.9444,0.8394,-0.9055,-12.1200,36.7200,16.6200,
6.757955,0.5755,1.3870,-0.0265,1.1388,0.9848,-0.7175,-12.1200,36.7200,16.6200,
6.766306,0.5755,1.3870,-0.0265,1.1388,0.9848,-0.7175,-15.1200,37.2000,12.9000,
6.778397,0.5755,1.3870,-0.0265,1.1388,0.9848,-0.7175,-15.1200,37.2000,12.9000,
6.779132,0.5755,1.3870,-0.0265,0.9449,1.1867,-0.4597,-15.1200,37.2000,12.9000,
6.779800,2.1063,6.6614,2.8560,0.9449,1.1867,-0.4597,-15.1200,37.2000,12.9000,
6.798839,2.1063,6.6614,2.8560,0.8453,1.1531,0.1609,-15.1200,37.2000,12.9000,
6.819392,2.1063,6.6614,2.8560,0.9822,0.6088,1.2346,-15.1200,37.2000,12.9000,
6.828119,2.1063,6.6614,2.8560,0.9822,0.6088,1.2346,-18.0000,37.0200,9.2400,
6.839835,2.1063,6.6614,2.8560,0.9822,0.6088,1.2346,-18.0000,37.0200,9.2400,
6.840534,0.6996,3.4792,1.6035,0.9822,0.6088,1.2346,-18.0000,37.0200,9.2400,
6.841283,0.6996,3.4792,1.6035,1.0999,0.3931,1.3497,-18.0000,37.0200,9.2400,
6.861315,0.6996,3.4792,1.6035,0.9907,0.5683,1.0653,-18.0000,37.0200,9.2400,
6.880900,0.6996,3.4792,1.6035,0.8506,0.0921,0.3878,-18.0000,37.0200,9.2400,
6.889838,0.6996,3.4792,1.6035,0.8506,0.0921,0.3878,-19.8600,36.8400,5.5200,
6.901662,0.6996,3.4792,1.6035,0.8506,0.0921,0.3878,-19.8600,36.8400,5.5200,
6.902355,0.8758,-4.7573,1.9654,0.8506,0.0921,0.3878,-19.8600,36.8400,5.5200,
6.903193,0.8758,-4.7573,1.9654,0.6338,-0.5161,-0.5380,-19.8600,36.8400,5.5200,
6.922355,0.8758,-4.7573,1.9654,0.3617,-0.2668,-1.1377,-19.8600,36.8400,5.5200,
6.942307,0.8758,-4.7573,1.9654,0.0868,0.1411,-1.8253,-19.8600,36.8400,5.5200,
6.950730,0.8758,-4.7573,1.9654,0.0868,0.1411,-1.8253,-20.2200,37.6200,2.5200,
6.963217,0.8758,-4.7573,1.9654,0.0868,0.1411,-1.8253,-20.2200,37.6200,2.5200,
6.964107,0.8758,-4.7573,1.9654,0.1172,0.6557,-1.2384,-20.2200,37.6200,2.5200,
6.964756,-2.5835,-1.7825,1.1352,0.1172,0.6557,-1.2384,-20.2200,37.6200,2.5200,
6.983627,-2.5835,-1.7825,1.1352,0.4075,0.3206,-0.2802,-20.2200,37.6200,2.5200,
7.003741,-2.5835,-1.7825,1.1352,0.8240,0.3356,0.0314,-20.2200,37.6200,2.5200,
7.012919,-2.5835,-1.7825,1.1352,0.8240,0.3356,0.0314,-20.7600,37.8000,0.7200,
7.024682,-2.5835,-1.7825,1.1352,0.8240,0.3356,0.0314,-20.7600,37.8000,0.7200,
7.025383,-2.5835,-1.7825,1.1352,0.7585,0.1694,0.0346,-20.7600,37.8000,0.7200,
7.025900,1.4741,1.1998,0.4359,0.7585,0.1694,0.0346,-20.7600,37.8000,0.7200,
7.045059,1.4741,1.1998,0.4359,0.3499,-0.3483,-0.1033,-20.7600,37.8000,0.7200,
7.065468,1.4741,1.1998,0.4359,-0.1262,-0.8112,-0.1933,-20.7600,37.8000,0.7200,
7.074538,1.4741,1.1998,0.4359,-0.1262,-0.8112,-0.1933,-21.4200,37.9200,-1.4400,
7.086997,1.4741,1.1998,0.4359,-0.1262,-0.8112,-0.1933,-21.4200,37.9200,-1.4400,
7.087586,1.4741,1.1998,0.4359,-0.2642,-0.9353,0.0282,-21.4200,37.9200,-1.4400,
7.088056,-0.0578,1.1826,-0.2177,-0.2642,-0.9353,0.0282,-21.4200,37.9200,-1.4400,
7.106764,-0.0578,1.1826,-0.2177,0.3414,-0.7350,0.0245,-21.4200,37.9200,-1.4400,
7.128200,-0.0578,1.1826,-0.2177,0.7670,-0.7212,-0.1960,-21.4200,37.9200,-1.4400,
7.137507,-0.0578,1.1826,-0.2177,0.7670,-0.7212,-0.1960,-22.1400,37.8000,-2.1000,
7.148369,-0.0578,1.1826,-0.2177,0.7670,-0.7212,-0.1960,-22.1400,37.8000,-2.1000,
7.149371,-0.0578,1.1826,-0.2177,0.6930,-0.6328,-0.3121,-22.1400,37.8000,-2.1000,
7.149994,-0.0351,0.1615,1.0681,0.6930,-0.6328,-0.3121,-22.1400,37.8000,-2.1000,
7.169996,-0.0351,0.1615,1.0681,0.1172,-0.3451,-0.1337,-22.1400,37.8000,-2.1000,
7.189548,-0.0351,0.1615,1.0681,-0.2013,-0.0985,0.0751,-22.1400,37.8000,-2.1000,
7.196978,-0.0351,0.1615,1.0681,-0.2013,-0.0985,0.0751,-23.1000,37.2000,-2.4600,
7.209562,-0.0351,0.1615,1.0681,-0.2013,-0.0985,0.0751,-23.1000,37.2000,-2.4600,
7.210351,-0.0351,0.1615,1.0681,-0.0581,0.2162,0.1012,-23.1000,37.2000,-2.4600,
7.210906,0.1194,0.8858,-1.3752,-0.0581,0.2162,0.1012,-23.1000,37.2000,-2.4600,
7.230032,0.1194,0.8858,-1.3752,0.3334,0.4005,-0.0213,-23.1000,37.2000,-2.4600,
7.250352,0.1194,0.8858,-1.3752,0.8581,-0.1449,-0.2189,-23.1000,37.2000,-2.4600,
7.259318,0.1194,0.8858,-1.3752,0.8581,-0.1449,-0.2189,-23.2800,37.0200,-2.9400,
7.271124,0.1194,0.8858,-1.3752,0.8581,-0.1449,-0.2189,-23.2800,37.0200,-2.9400,
7.271978,0.1194,0.8858,-1.3752,1.3140,-0.9710,-0.2237,-23.2800,37.0200,-2.9400,
7.272708,-0.7810,-0.8637,0.1324,1.3140,-0.9710,-0.2237,-23.2800,37.0200,-2.9400,
7.291407,-0.7810,-0.8637,0.1324,1.4227,-1.3811,0.0629,-23.2800,37.0200,-2.9400,
7.311708,-0.7810,-0.8637,0.1324,1.7273,-1.4754,0.2828,-23.2800,37.0200,-2.9400,
7.320458,-0.7810,-0.8637,0.1324,1.7273,-1.4754,0.2828,-23.4000,37.0800,-2.9400,
7.332594,-0.7810,-0.8637,0.1324,1.7273,-1.4754,0.2828,-23.4000,37.0800,-2.9400,
7.333467,-0.7810,-0.8637,0.1324,2.0139,-1.4429,0.2546,-23.4000,37.0800,-2.9400,
7.334085,-0.9609,-0.2585,2.5278,2.0139,-1.4429,0.2546,-23.4000,37.0800,-2.9400,
7.353205,-0.9609,-0.2585,2.5278,1.5175,-1.2554,0.1150,-23.4000,37.0800,-2.9400,
7.373906,-0.9609,-0.2585,2.5278,0.5822,-1.5856,-0.0634,-23.4000,37.0800,-2.9400,
7.382393,-0.9609,-0.2585,2.5278,0.5822,-1.5856,-0.0634,-23.5800,37.6200,-2.9400,
7.394854,-0.9609,-0.2585,2.5278,0.5822,-1.5856,-0.0634,-23.5800,37.6200,-2.9400,
7.395638,-0.2667,1.7994,3.6912,0.5822,-1.5856,-0.0634,-23.5800,37.6200,-2.9400,
7.396389,-0.2667,1.7994,3.6912,-0.4133,-1.3007,-0.0772,-23.5800,37.6200,-2.9400,
7.414425,-0.2667,1.7994,3.6912,-0.5864,-0.9534,-0.2621,-23.5800,37.6200,-2.9400,
7.435705,-0.2667,1.7994,3.6912,-0.6312,-0.7366,-0.2754,-23.5800,37.6200,-2.9400,
7.444062,-0.2667,1.7994,3.6912,-0.6312,-0.7366,-0.2754,-24.0600,37.8000,-3.8400,
7.455865,-0.2667,1.7994,3.6912,-0.6312,-0.7366,-0.2754,-24.0600,37.8000,-3.8400,
7.456792,-0.2667,1.7994,3.6912,-0.8416,-0.7169,-0.5683,-24.0600,37.8000,-3.8400,
7.457557,1.9597,0.7622,0.9242,-0.8416,-0.7169,-0.5683,-24.0600,37.8000,-3.8400,
7.477039,1.9597,0.7622,0.9242,-0.9289,-0.9262,-0.9966,-24.0600,37.8000,-3.8400,
7.496968,1.9597,0.7622,0.9242,-0.8927,-0.8831,-1.1606,-24.0600,37.8000,-3.8400,
7.505402,1.9597,0.7622,0.9242,-0.8927,-0.8831,-1.1606,-24.6000,37.8000,-3.9000,
7.517524,1.9597,0.7622,0.9242,-0.8927,-0.8831,-1.1606,-24.6000,37.8000,-3.9000,
7.518489,1.9597,0.7622,0.9242,-0.4176,-0.6487,-1.0754,-24.6000,37.8000,-3.9000,
7.519072,0.6759,-0.7362,0.2057,-0.4176,-0.6487,-1.0754,-24.6000,37.8000,-3.9000,
7.537703,0.6759,-0.7362,0.2057,0.0591,-0.0186,-0.4922,-24.6000,37.8000,-3.9000,
7.558777,0.6759,-0.7362,0.2057,-0.1135,0.1028,0.1923,-24.6000,37.8000,-3.9000,
7.566867,0.6759,-0.7362,0.2057,-0.1135,0.1028,0.1923,-25.0200,37.4400,-3.3600,
7.579327,0.6759,-0.7362,0.2057,-0.1135,0.1028,0.1923,-25.0200,37.4400,-3.3600,
7.580258,0.6759,-0.7362,0.2057,-0.4533,-0.2844,0.3478,-25.0200,37.4400,-3.3600,
7.580980,-1.6979,-2.1550,0.4078,-0.4533,-0.2844,0.3478,-25.0200,37.4400,-3.3600,
7.599779,-1.6979,-2.1550,0.4078,-0.2216,0.2988,0.1055,-25.0200,37.4400,-3.3600,
7.619810,-1.6979,-2.1550,0.4078,-0.2120,0.5262,0.1204,-25.0200,37.4400,-3.3600,
7.628442,-1.6979,-2.1550,0.4078,-0.2120,0.5262,0.1204,-26.2200,36.1800,-2.6400,
7.641056,-1.6979,-2.1550,0.4078,-0.2120,0.5262,0.1204,-26.2200,36.1800,-2.6400,
7.641937,-1.6979,-2.1550,0.4078,-0.3995,0.4554,0.1816,-26.2200,36.1800,-2.6400,
7.642508,-1.6324,-0.0487,0.3932,-0.3995,0.4554,0.1816,-26.2200,36.1800,-2.6400,
7.661675,-1.6324,-0.0487,0.3932,-0.5039,-0.0421,0.0953,-26.2200,36.1800,-2.6400,
7.681926,-1.6324,-0.0487,0.3932,-0.2429,-0.4139,0.0644,-26.2200,36.1800,-2.6400,
7.690051,-1.6324,-0.0487,0.3932,-0.2429,-0.4139,0.0644,-27.1200,35.2800,-1.1400,
7.702659,-1.6324,-0.0487,0.3932,-0.2429,-0.4139,0.0644,-27.1200,35.2800,-1.1400,
7.703536,-1.6324,-0.0487,0.3932,0.0080,-0.7254,-0.1736,-27.1200,35.2800,-1.1400,
7.704083,-0.7650,0.9753,0.8962,0.0080,-0.7254,-0.1736,-27.1200,35.2800,-1.1400,
7.722877,-0.7650,0.9753,0.8962,-0.1603,-0.8847,-0.4304,-27.1200,35.2800,-1.1400,
7.743709,-0.7650,0.9753,0.8962,-0.1758,-0.7036,-0.4794,-27.1200,35.2800,-1.1400,
7.752561,-0.7650,0.9753,0.8962,-0.1758,-0.7036,-0.4794,-27.5400,35.1000,-0.1200,
7.763942,-0.7650,0.9753,0.8962,-0.1758,-0.7036,-0.4794,-27.5400,35.1000,-0.1200,
7.764735,-0.7650,0.9753,0.8962,-0.0160,-0.3393,-0.4208,-27.5400,35.1000,-0.1200,
7.765496,-0.4126,0.1036,-0.4736,-0.0160,-0.3393,-0.4208,-27.5400,35.1000,-0.1200,
7.784573,-0.4126,0.1036,-0.4736,0.1310,-0.3324,-0.4490,-27.5400,35.1000,-0.1200,
7.804980,-0.4126,0.1036,-0.4736,0.0304,-0.4799,-0.5332,-27.5400,35.1000,-0.1200,
7.813442,-0.4126,0.1036,-0.4736,0.0304,-0.4799,-0.5332,-28.0200,34.4400,1.1400,
7.825576,-0.4126,0.1036,-0.4736,0.0304,-0.4799,-0.5332,-28.0200,34.4400,1.1400,
7.826448,-0.4126,0.1036,-0.4736,-0.2802,-0.6466,-0.6999,-28.0200,34.4400,1.1400,
7.827041,0.3653,-0.5285,0.0828,-0.2802,-0.6466,-0.6999,-28.0200,34.4400,1.1400,
7.845794,0.3653,-0.5285,0.0828,-0.5342,-0.5390,-0.7483,-28.0200,34.4400,1.1400,
7.866521,0.3653,-0.5285,0.0828,-0.0080,-0.1044,-0.5246,-28.0200,34.4400,1.1400,
7.875831,0.3653,-0.5285,0.0828,-0.0080,-0.1044,-0.5246,-28.2600,33.7800,1.0800,
7.887185,0.3653,-0.5285,0.0828,-0.0080,-0.1044,-0.5246,-28.2600,33.7800,1.0800,
7.887896,0.3653,-0.5285,0.0828,0.5939,-0.0107,-0.3872,-28.2600,33.7800,1.0800,
7.888321,0.1835,-0.2234,-0.2672,0.5939,-0.0107,-0.3872,-28.2600,33.7800,1.0800,
7.907271,0.1835,-0.2234,-0.2672,0.6317,-0.1433,-0.2045,-28.2600,33.7800,1.0800,
7.928054,0.1835,-0.2234,-0.2672,0.3409,-0.4240,-0.0091,-28.2600,33.7800,1.0800,
7.936384,0.1835,-0.2234,-0.2672,0.3409,-0.4240,-0.0091,-28.8000,33.4200,1.8000,
7.948622,0.1835,-0.2234,-0.2672,0.3409,-0.4240,-0.0091,-28.8000,33.4200,1.8000,
7.949339,0.1835,-0.2234,-0.2672,0.1087,-0.4671,0.0277,-28.8000,33.4200,1.8000,
7.949876,-0.9186,0.5673,0.2447,0.1087,-0.4671,0.0277,-28.8000,33.4200,1.8000,
7.969090,-0.9186,0.5673,0.2447,0.0618,-0.3718,-0.0565,-28.8000,33.4200,1.8000,
7.989438,-0.9186,0.5673,0.2447,-0.0272,-0.3340,-0.2642,-28.8000,33.4200,1.8000,
7.998237,-0.9186,0.5673,0.2447,-0.0272,-0.3340,-0.2642,-29.3400,32.2800,2.4000,
8.011941,-0.9186,0.5673,0.2447,-0.0272,-0.3340,-0.2642,-29.3400,32.2800,2.4000,
8.012939,-0.9186,0.5673,0.2447,-0.0730,-0.3196,-0.4485,-29.3400,32.2800,2.4000,
8.013708,0.0615,-0.2536,0.0338,-0.0730,-0.3196,-0.4485,-29.3400,32.2800,2.4000,
8.031393,0.0615,-0.2536,0.0338,-0.0495,-0.3174,-0.3569,-29.3400,32.2800,2.4000,
8.052003,0.0615,-0.2536,0.0338,0.1955,-0.3238,-0.2844,-29.3400,32.2800,2.4000,
8.060355,0.0615,-0.2536,0.0338,0.1955,-0.3238,-0.2844,-30.0000,31.7400,2.1000,
8.072375,0.0615,-0.2536,0.0338,0.1955,-0.3238,-0.2844,-30.0000,31.7400,2.1000,
8.073622,0.0615,-0.2536,0.0338,0.4858,-0.1667,-0.1262,-30.0000,31.7400,2.1000,
8.074614,0.5614,0.7042,0.0315,0.4858,-0.1667,-0.1262,-30.0000,31.7400,2.1000,
8.092598,0.5614,0.7042,0.0315,0.6871,-0.1896,-0.1129,-30.0000,31.7400,2.1000,
8.112789,0.5614,0.7042,0.0315,0.5673,-0.2360,-0.0053,-30.0000,31.7400,2.1000,
8.122250,0.5614,0.7042,0.0315,0.5673,-0.2360,-0.0053,-30.4200,31.6800,2.7600,
8.133229,0.5614,0.7042,0.0315,0.5673,-0.2360,-0.0053,-30.4200,31.6800,2.7600,
8.134540,0.5614,0.7042,0.0315,0.2834,-0.1204,-0.0969,-30.4200,31.6800,2.7600,
8.135545,0.3224,0.5829,0.7620,0.2834,-0.1204,-0.0969,-30.4200,31.6800,2.7600,
8.154913,0.3224,0.5829,0.7620,0.1422,0.0378,-0.0826,-30.4200,31.6800,2.7600,
8.175450,0.3224,0.5829,0.7620,0.1928,0.0863,-0.0623,-30.4200,31.6800,2.7600,
8.183440,0.3224,0.5829,0.7620,0.1928,0.0863,-0.0623,-30.7800,31.6800,2.2800,
8.194838,0.3224,0.5829,0.7620,0.1928,0.0863,-0.0623,-30.7800,31.6800,2.2800,
8.196210,0.3224,0.5829,0.7620,0.4000,0.0256,-0.0613,-30.7800,31.6800,2.2800,
8.197195,0.5299,0.0131,-0.4787,0.4000,0.0256,-0.0613,-30.7800,31.6800,2.2800,
8.215412,0.5299,0.0131,-0.4787,0.5720,-0.0373,-0.0740,-30.7800,31.6800,2.2800,
8.244999,0.5299,0.0131,-0.4787,0.4591,-0.0309,-0.0613,-30.7800,31.6800,2.2800,
8.245711,0.5299,0.0131,-0.4787,0.4591,-0.0309,-0.0613,-31.0200,31.7400,1.8000,
8.256917,0.5299,0.0131,-0.4787,0.4591,-0.0309,-0.0613,-31.0200,31.7400,1.8000,
8.257499,0.5299,0.0131,-0.4787,0.1007,-0.2301,-0.1491,-31.0200,31.7400,1.8000,
8.257825,0.4072,-0.5371,1.0585,0.1007,-0.2301,-0.1491,-31.0200,31.7400,1.8000,
8.276726,0.4072,-0.5371,1.0585,0.0458,-0.3819,-0.2210,-31.0200,31.7400,1.8000,
8.296941,0.4072,-0.5371,1.0585,0.1832,-0.3025,-0.1779,-31.0200,31.7400,1.8000,
8.305572,0.4072,-0.5371,1.0585,0.1832,-0.3025,-0.1779,-31.1400,31.4400,1.6800,
8.317356,0.4072,-0.5371,1.0585,0.1832,-0.3025,-0.1779,-31.1400,31.4400,1.6800,
8.317928,0.4072,-0.5371,1.0585,0.1449,-0.1406,-0.0543,-31.1400,31.4400,1.6800,
8.318210,-0.4675,0.6040,1.1672,0.1449,-0.1406,-0.0543,-31.1400,31.4400,1.6800,
8.337752,-0.4675,0.6040,1.1672,0.0772,-0.2003,-0.0485,-31.1400,31.4400,1.6800,
8.358392,-0.4675,0.6040,1.1672,0.0772,-0.1262,-0.0692,-31.1400,31.4400,1.6800,
8.367102,-0.4675,0.6040,1.1672,0.0772,-0.1262,-0.0692,-31.0200,30.8400,1.2600,
8.379076,-0.4675,0.6040,1.1672,0.0772,-0.1262,-0.0692,-31.0200,30.8400,1.2600,
8.379515,-0.4675,0.6040,1.1672,0.0117,-0.1688,-0.1124,-31.0200,30.8400,1.2600,
8.379756,0.2742,-0.3089,-0.0021,0.0117,-0.1688,-0.1124,-31.0200,30.8400,1.2600,
8.399470,0.2742,-0.3089,-0.0021,-0.0703,-0.3686,-0.1092,-31.0200,30.8400,1.2600,
8.420140,0.2742,-0.3089,-0.0021,-0.1140,-0.3334,0.0016,-31.0200,30.8400,1.2600,
8.428449,0.2742,-0.3089,-0.0021,-0.1140,-0.3334,0.0016,-31.2000,30.0000,1.3800,
8.440914,0.2742,-0.3089,-0.0021,-0.1140,-0.3334,0.0016,-31.2000,30.0000,1.3800,
8.441731,0.2742,-0.3089,-0.0021,-0.0671,-0.3457,0.0368,-31.2000,30.0000,1.3800,
8.442165,-0.3141,0.3331,0.0998,-0.0671,-0.3457,0.0368,-31.2000,30.0000,1.3800,
8.462017,-0.3141,0.3331,0.0998,0.0085,-0.1395,-0.1113,-31.2000,30.0000,1.3800,
8.483223,-0.3141,0.3331,0.0998,0.0091,-0.1023,-0.5012,-31.2000,30.0000,1.3800,
8.490885,-0.3141,0.3331,0.0998,0.0091,-0.1023,-0.5012,-31.4400,29.4600,1.6200,
8.504937,-0.3141,0.3331,0.0998,0.0091,-0.1023,-0.5012,-31.4400,29.4600,1.6200,
8.506389,-0.3141,0.3331,0.0998,-0.1257,-0.1928,-0.5976,-31.4400,29.4600,1.6200,
8.507227,-0.2133,0.3715,-0.2027,-0.1257,-0.1928,-0.5976,-31.4400,29.4600,1.6200,
8.524387,-0.2133,0.3715,-0.2027,-0.1289,-0.3851,-0.6168,-31.4400,29.4600,1.6200,
8.543942,-0.2133,0.3715,-0.2027,-0.0181,-0.2855,-0.5800,-31.4400,29.4600,1.6200,
8.552509,-0.2133,0.3715,-0.2027,-0.0181,-0.2855,-0.5800,-31.5000,29.3400,1.4400,
8.564587,-0.2133,0.3715,-0.2027,-0.0181,-0.2855,-0.5800,-31.5000,29.3400,1.4400,
8.566064,-0.2133,0.3715,-0.2027,-0.0075,-0.0458,-0.6003,-31.5000,29.3400,1.4400,
8.567023,0.4632,-0.3678,-0.3847,-0.0075,-0.0458,-0.6003,-31.5000,29.3400,1.4400,
8.586367,0.4632,-0.3678,-0.3847,-0.0415,-0.1204,-0.6791,-31.5000,29.3400,1.4400,
8.605604,0.4632,-0.3678,-0.3847,-0.0117,-0.2743,-0.7910,-31.5000,29.3400,1.4400,
8.614642,0.4632,-0.3678,-0.3847,-0.0117,-0.2743,-0.7910,-32.2200,29.3400,1.6800,
8.626698,0.4632,-0.3678,-0.3847,-0.0117,-0.2743,-0.7910,-32.2200,29.3400,1.6800,
8.628095,0.4632,-0.3678,-0.3847,-0.0091,-0.1465,-0.6919,-32.2200,29.3400,1.6800,
8.629235,-0.1362,-0.1741,-0.0321,-0.0091,-0.1465,-0.6919,-32.2200,29.3400,1.6800,
8.646770,-0.1362,-0.1741,-0.0321,0.0852,0.0570,-0.3952,-32.2200,29.3400,1.6800,
8.667915,-0.1362,-0.1741,-0.0321,0.1198,-0.0314,0.0373,-32.2200,29.3400,1.6800,
8.676136,-0.1362,-0.1741,-0.0321,0.1198,-0.0314,0.0373,-32.9400,28.7400,2.1600,
8.689178,-0.1362,-0.1741,-0.0321,0.1198,-0.0314,0.0373,-32.9400,28.7400,2.1600,
8.690659,-0.1362,-0.1741,-0.0321,0.1284,0.3212,0.0735,-32.9400,28.7400,2.1600,
8.691477,1.5431,-1.8123,0.3214,0.1284,0.3212,0.0735,-32.9400,28.7400,2.1600,
8.709374,1.5431,-1.8123,0.3214,0.1656,0.5960,-0.0874,-32.9400,28.7400,2.1600,
8.734080,1.5431,-1.8123,0.3214,0.0197,0.6706,-0.5561,-32.9400,28.7400,2.1600,
8.737455,1.5431,-1.8123,0.3214,0.0197,0.6706,-0.5561,-34.0200,28.0200,2.4000,
8.750107,1.5431,-1.8123,0.3214,0.0197,0.6706,-0.5561,-34.0200,28.0200,2.4000,
8.751556,-0.5368,-3.0576,-0.2395,0.0197,0.6706,-0.5561,-34.0200,28.0200,2.4000,
8.753443,-0.5368,-3.0576,-0.2395,-0.2200,0.5470,-0.7052,-34.0200,28.0200,2.4000,
8.770591,-0.5368,-3.0576,-0.2395,-0.5816,0.2162,-0.4320,-34.0200,28.0200,2.4000,
8.790551,-0.5368,-3.0576,-0.2395,-0.8559,0.2834,0.2013,-34.0200,28.0200,2.4000,
8.799501,-0.5368,-3.0576,-0.2395,-0.8559,0.2834,0.2013,-34.9800,27.1800,2.4000,
8.813885,-0.5368,-3.0576,-0.2395,-0.8559,0.2834,0.2013,-34.9800,27.1800,2.4000,
8.815414,-0.5368,-3.0576,-0.2395,-1.0573,0.3345,0.4623,-34.9800,27.1800,2.4000,
8.816519,-0.9223,-1.5561,-0.2436,-1.0573,0.3345,0.4623,-34.9800,27.1800,2.4000,
8.831050,-0.9223,-1.5561,-0.2436,-1.3646,0.2200,0.4810,-34.9800,27.1800,2.4000,
8.851816,-0.9223,-1.5561,-0.2436,-1.5036,0.2519,0.6642,-34.9800,27.1800,2.4000,
8.860993,-0.9223,-1.5561,-0.2436,-1.5036,0.2519,0.6642,-35.9400,26.3400,2.2800,
8.872894,-0.9223,-1.5561,-0.2436,-1.5036,0.2519,0.6642,-35.9400,26.3400,2.2800,
8.874354,-0.9223,-1.5561,-0.2436,-1.4354,0.2892,1.0898,-35.9400,26.3400,2.2800,
8.875391,0.0119,2.8649,-0.2041,-1.4354,0.2892,1.0898,-35.9400,26.3400,2.2800,
8.892981,0.0119,2.8649,-0.2041,-1.1473,0.5326,1.5803,-35.9400,26.3400,2.2800,
8.913272,0.0119,2.8649,-0.2041,-0.6967,0.1678,1.7215,-35.9400,26.3400,2.2800,
8.923919,0.0119,2.8649,-0.2041,-0.6967,0.1678,1.7215,-36.2400,26.0400,2.4600,
8.933940,0.0119,2.8649,-0.2041,-0.6967,0.1678,1.7215,-36.2400,26.0400,2.4600,
8.935259,0.0119,2.8649,-0.2041,-0.2136,-0.1901,1.4781,-36.2400,26.0400,2.4600,
8.936303,0.9407,3.3886,0.1089,-0.2136,-0.1901,1.4781,-36.2400,26.0400,2.4600,
8.954788,0.9407,3.3886,0.1089,-0.0799,-0.1369,1.0983,-36.2400,26.0400,2.4600,
8.974867,0.9407,3.3886,0.1089,-0.2722,-0.0479,0.8511,-36.2400,26.0400,2.4600,
8.983289,0.9407,3.3886,0.1089,-0.2722,-0.0479,0.8511,-35.5200,26.3400,3.1800,
8.998773,0.9407,3.3886,0.1089,-0.2722,-0.0479,0.8511,-35.5200,26.3400,3.1800,
9.000064,0.9407,3.3886,0.1089,-0.4911,0.1901,0.5438,-35.5200,26.3400,3.1800,
9.001029,-1.9219,1.8632,-0.5863,-0.4911,0.1901,0.5438,-35.5200,26.3400,3.1800,
9.016736,-1.9219,1.8632,-0.5863,-0.7201,0.6828,0.3835,-35.5200,26.3400,3.1800,
9.036128,-1.9219,1.8632,-0.5863,-0.7846,0.8378,0.0399,-35.5200,26.3400,3.1800,
9.046506,-1.9219,1.8632,-0.5863,-0.7846,0.8378,0.0399,-34.2600,27.3000,3.9600,
9.056344,-1.9219,1.8632,-0.5863,-0.7846,0.8378,0.0399,-34.2600,27.3000,3.9600,
9.057285,-1.9219,1.8632,-0.5863,-0.6722,0.7436,-0.4378,-34.2600,27.3000,3.9600,
9.057939,-0.5430,-0.9179,-0.3319,-0.6722,0.7436,-0.4378,-34.2600,27.3000,3.9600,
9.077491,-0.5430,-0.9179,-0.3319,-0.4575,0.6583,-0.7089,-34.2600,27.3000,3.9600,
9.098168,-0.5430,-0.9179,-0.3319,-0.1470,0.3169,-0.8165,-34.2600,27.3000,3.9600,
9.106806,-0.5430,-0.9179,-0.3319,-0.1470,0.3169,-0.8165,-32.2200,28.5600,4.6200,
9.119113,-0.5430,-0.9179,-0.3319,-0.1470,0.3169,-0.8165,-32.2200,28.5600,4.6200,
9.120091,-0.5430,-0.9179,-0.3319,0.0570,-0.0490,-0.6429,-32.2200,28.5600,4.6200,
9.120777,-0.7998,-1.1741,-0.8420,0.0570,-0.0490,-0.6429,-32.2200,28.5600,4.6200,
9.139012,-0.7998,-1.1741,-0.8420,0.2115,-0.2269,-0.4053,-32.2200,28.5600,4.6200,
9.159776,-0.7998,-1.1741,-0.8420,0.4277,-0.4027,-0.2461,-32.2200,28.5600,4.6200,
9.168730,-0.7998,-1.1741,-0.8420,0.4277,-0.4027,-0.2461,-31.5600,29.0400,4.8000,
9.180179,-0.7998,-1.1741,-0.8420,0.4277,-0.4027,-0.2461,-31.5600,29.0400,4.8000,
9.181683,-0.7998,-1.1741,-0.8420,0.5880,-0.5289,-0.0570,-31.5600,29.0400,4.8000,
9.182741,-0.7686,-0.3188,-0.2630,0.5880,-0.5289,-0.0570,-31.5600,29.0400,4.8000,
9.200985,-0.7686,-0.3188,-0.2630,0.6232,-0.5092,0.0389,-31.5600,29.0400,4.8000,
9.222154,-0.7686,-0.3188,-0.2630,0.5305,-0.4133,-0.0991,-31.5600,29.0400,4.8000,
9.230979,-0.7686,-0.3188,-0.2630,0.5305,-0.4133,-0.0991,-31.1400,28.9800,4.4400,
9.242359,-0.7686,-0.3188,-0.2630,0.5305,-0.4133,-0.0991,-31.1400,28.9800,4.4400,
9.243720,-0.7686,-0.3188,-0.2630,0.4687,-0.2541,-0.4117,-31.1400,28.9800,4.4400,
9.245014,0.4503,-0.2439,-0.0710,0.4687,-0.2541,-0.4117,-31.1400,28.9800,4.4400,
9.262779,0.4503,-0.2439,-0.0710,0.5641,-0.1736,-0.4176,-31.1400,28.9800,4.4400,
9.283352,0.4503,-0.2439,-0.0710,0.6226,-0.2541,-0.2658,-31.1400,28.9800,4.4400,
9.292247,0.4503,-0.2439,-0.0710,0.6226,-0.2541,-0.2658,-31.6800,28.5000,4.7400,
9.304652,0.4503,-0.2439,-0.0710,0.6226,-0.2541,-0.2658,-31.6800,28.5000,4.7400,
9.306058,0.4503,-0.2439,-0.0710,0.5321,-0.2615,-0.3531,-31.6800,28.5000,4.7400,
9.307047,0.2480,-0.5902,-0.8158,0.5321,-0.2615,-0.3531,-31.6800,28.5000,4.7400,
9.325063,0.2480,-0.5902,-0.8158,0.5630,-0.1609,-0.5135,-31.6800,28.5000,4.7400,
9.343596,0.2480,-0.5902,-0.8158,0.3782,0.5939,-0.7404,-31.6800,28.5000,4.7400,
9.354532,0.2480,-0.5902,-0.8158,0.3782,0.5939,-0.7404,-32.4000,27.8400,4.2000,
9.365072,0.2480,-0.5902,-0.8158,0.3782,0.5939,-0.7404,-32.4000,27.8400,4.2000,
9.366309,0.2480,-0.5902,-0.8158,0.2913,1.1942,-0.8842,-32.4000,27.8400,4.2000,
9.367232,-1.1725,-1.1624,1.1696,0.2913,1.1942,-0.8842,-32.4000,27.8400,4.2000,
9.386834,-1.1725,-1.1624,1.1696,0.1124,1.2549,-0.8938,-32.4000,27.8400,4.2000,
9.406279,-1.1725,-1.1624,1.1696,0.0644,0.8613,-1.0962,-32.4000,27.8400,4.2000,
9.415130,-1.1725,-1.1624,1.1696,0.0644,0.8613,-1.0962,-32.4000,27.9000,4.0800,
9.426039,-1.1725,-1.1624,1.1696,0.0644,0.8613,-1.0962,-32.4000,27.9000,4.0800,
9.426992,-1.1725,-1.1624,1.1696,0.1630,0.1278,-0.9598,-32.4000,27.9000,4.0800,
9.427673,0.8136,1.0054,1.5930,0.1630,0.1278,-0.9598,-32.4000,27.9000,4.0800,
9.446723,0.8136,1.0054,1.5930,0.2695,-0.2983,-0.7713,-32.4000,27.9000,4.0800,
9.467804,0.8136,1.0054,1.5930,-0.3824,0.7691,-0.8511,-32.4000,27.9000,4.0800,
9.476165,0.8136,1.0054,1.5930,-0.3824,0.7691,-0.8511,-33.5400,27.4200,3.4200,
9.488144,0.8136,1.0054,1.5930,-0.3824,0.7691,-0.8511,-33.5400,27.4200,3.4200,
9.489664,0.8136,1.0054,1.5930,-0.1688,-0.1268,-0.6131,-33.5400,27.4200,3.4200,
9.490617,-0.1860,0.4828,1.9292,-0.1688,-0.1268,-0.6131,-33.5400,27.4200,3.4200,
9.508448,-0.1860,0.4828,1.9292,-0.1364,-0.2205,-0.3478,-33.5400,27.4200,3.4200,
9.528372,-0.1860,0.4828,1.9292,-0.0352,-0.2748,-0.1539,-33.5400,27.4200,3.4200,
9.537194,-0.1860,0.4828,1.9292,-0.0352,-0.2748,-0.1539,-34.8600,26.0400,2.3400,
9.548860,-0.1860,0.4828,1.9292,-0.0352,-0.2748,-0.1539,-34.8600,26.0400,2.3400,
9.549697,-0.1860,0.4828,1.9292,0.0474,-0.2844,-0.0256,-34.8600,26.0400,2.3400,
9.550084,0.1015,-1.2503,0.0722,0.0474,-0.2844,-0.0256,-34.8600,26.0400,2.3400,
9.569697,0.1015,-1.2503,0.0722,0.1550,-0.2855,0.0549,-34.8600,26.0400,2.3400,
9.590084,0.1015,-1.2503,0.0722,0.4362,-0.4277,0.2131,-34.8600,26.0400,2.3400,
9.598510,0.1015,-1.2503,0.0722,0.4362,-0.4277,0.2131,-36.1200,24.7800,2.4000,
9.610697,0.1015,-1.2503,0.0722,0.4362,-0.4277,0.2131,-36.1200,24.7800,2.4000,
9.611154,0.1015,-1.2503,0.0722,0.6248,-0.5438,0.5049,-36.1200,24.7800,2.4000,
9.611436,-1.7448,-0.2354,-1.0019,0.6248,-0.5438,0.5049,-36.1200,24.7800,2.4000,
9.630933,-1.7448,-0.2354,-1.0019,0.5428,-0.3068,0.7020,-36.1200,24.7800,2.4000,
9.651512,-1.7448,-0.2354,-1.0019,0.9145,-0.2929,0.7276,-36.1200,24.7800,2.4000,
9.660339,-1.7448,-0.2354,-1.0019,0.9145,-0.2929,0.7276,-36.9600,23.5800,1.6200,
9.672378,-1.7448,-0.2354,-1.0019,0.9145,-0.2929,0.7276,-36.9600,23.5800,1.6200,
9.672868,-1.7448,-0.2354,-1.0019,1.0019,-0.0762,0.5939,-36.9600,23.5800,1.6200,
9.673156,-0.9243,-0.4096,-0.7956,1.0019,-0.0762,0.5939,-36.9600,23.5800,1.6200,
9.692960,-0.9243,-0.4096,-0.7956,1.5574,-0.5832,0.4234,-36.9600,23.5800,1.6200,
9.713349,-0.9243,-0.4096,-0.7956,1.7550,-1.0424,0.6892,-36.9600,23.5800,1.6200,
9.721660,-0.9243,-0.4096,-0.7956,1.7550,-1.0424,0.6892,-36.7800,23.2800,1.4400,
9.733622,-0.9243,-0.4096,-0.7956,1.7550,-1.0424,0.6892,-36.7800,23.2800,1.4400,
9.734034,-0.9243,-0.4096,-0.7956,1.4589,-0.6402,0.9268,-36.7800,23.2800,1.4400,
9.734314,-2.8037,-5.2810,-0.6918,1.4589,-0.6402,0.9268,-36.7800,23.2800,1.4400,
9.754394,-2.8037,-5.2810,-0.6918,1.0546,-0.1992,0.6328,-36.7800,23.2800,1.4400,
9.774742,-2.8037,-5.2810,-0.6918,0.3313,0.4852,-0.1427,-36.7800,23.2800,1.4400,
9.783426,-2.8037,-5.2810,-0.6918,0.3313,0.4852,-0.1427,-36.0600,23.7600,1.1400,
9.795811,-2.8037,-5.2810,-0.6918,0.3313,0.4852,-0.1427,-36.0600,23.7600,1.1400,
9.796625,-2.8037,-5.2810,-0.6918,0.1193,0.5060,-0.7547,-36.0600,23.7600,1.1400,
9.797125,0.1008,-1.6295,-0.7861,0.1193,0.5060,-0.7547,-36.0600,23.7600,1.1400,
9.816725,0.1008,-1.6295,-0.7861,0.1699,0.3973,-0.8783,-36.0600,23.7600,1.1400,
9.836603,0.1008,-1.6295,-0.7861,0.1236,0.2754,-0.7670,-36.0600,23.7600,1.1400,
9.845895,0.1008,-1.6295,-0.7861,0.1236,0.2754,-0.7670,-35.6400,24.6000,0.4800,
9.857585,0.1008,-1.6295,-0.7861,0.1236,0.2754,-0.7670,-35.6400,24.6000,0.4800,
9.858899,-0.9006,0.3193,-0.6959,0.1236,0.2754,-0.7670,-35.6400,24.6000,0.4800,
9.860104,-0.9006,0.3193,-0.6959,0.0149,0.0154,-0.6631,-35.6400,24.6000,0.4800,
9.878324,-0.9006,0.3193,-0.6959,-0.0320,-0.3265,-0.7366,-35.6400,24.6000,0.4800,
9.899212,-0.9006,0.3193,-0.6959,-0.1561,-0.5720,-0.8559,-35.6400,24.6000,0.4800,
9.907794,-0.9006,0.3193,-0.6959,-0.1561,-0.5720,-0.8559,-35.2200,25.3800,-0.4200,
9.919838,-0.9006,0.3193,-0.6959,-0.1561,-0.5720,-0.8559,-35.2200,25.3800,-0.4200,
9.921434,-0.9006,0.3193,-0.6959,-0.1678,-0.6029,-0.9864,-35.2200,25.3800,-0.4200,
9.922481,1.3739,-0.8087,-0.2171,-0.1678,-0.6029,-0.9864,-35.2200,25.3800,-0.4200,
9.939729,1.3739,-0.8087,-0.2171,-0.1326,-0.4815,-0.9939,-35.2200,25.3800,-0.4200,
9.959550,1.3739,-0.8087,-0.2171,-0.2338,-0.3041,-0.7819,-35.2200,25.3800,-0.4200,
9.968284,1.3739,-0.8087,-0.2171,-0.2338,-0.3041,-0.7819,-35.5200,25.2000,-0.4800,
9.980790,1.3739,-0.8087,-0.2171,-0.2338,-0.3041,-0.7819,-35.5200,25.2000,-0.4800,
9.982190,1.3739,-0.8087,-0.2171,-0.2173,-0.2104,-0.6397,-35.5200,25.2000,-0.4800,
9.983124,0.5928,0.4891,-0.6183,-0.2173,-0.2104,-0.6397,-35.5200,25.2000,-0.4800,
10.001161,0.5928,0.4891,-0.6183,-0.1933,-0.2322,-0.4922,-35.5200,25.2000,-0.4800,
10.021598,0.5928,0.4891,-0.6183,-0.1486,-0.2407,-0.3846,-35.5200,25.2000,-0.4800,
10.030492,0.5928,0.4891,-0.6183,-0.1486,-0.2407,-0.3846,-36.2400,24.1800,-0.1200,
10.043363,0.5928,0.4891,-0.6183,-0.1486,-0.2407,-0.3846,-36.2400,24.1800,-0.1200,
10.044945,0.5928,0.4891,-0.6183,-0.1795,-0.0969,-0.0687,-36.2400,24.1800,-0.1200,
10.045837,-0.8520,2.1561,-0.4957,-0.1795,-0.0969,-0.0687,-36.2400,24.1800,-0.1200,
10.062565,-0.8520,2.1561,-0.4957,-0.2631,0.0272,0.1843,-36.2400,24.1800,-0.1200,
10.083500,-0.8520,2.1561,-0.4957,-0.2605,0.1273,0.1566,-36.2400,24.1800,-0.1200,
10.091586,-0.8520,2.1561,-0.4957,-0.2605,0.1273,0.1566,-37.2000,23.1000,0.4200,
10.104253,-0.8520,2.1561,-0.4957,-0.2605,0.1273,0.1566,-37.2000,23.1000,0.4200,
10.105674,-0.8520,2.1561,-0.4957,-0.2248,0.2067,0.1475,-37.2000,23.1000,0.4200,
10.106630,0.4358,0.1452,-0.1876,-0.2248,0.2067,0.1475,-37.2000,23.1000,0.4200,
10.124756,0.4358,0.1452,-0.1876,-0.1433,0.3031,0.0911,-37.2000,23.1000,0.4200,
10.145239,0.4358,0.1452,-0.1876,-0.0783,0.2141,0.1225,-37.2000,23.1000,0.4200,
10.154358,0.4358,0.1452,-0.1876,-0.0783,0.2141,0.1225,-37.9200,21.8400,1.9800,
10.166655,0.4358,0.1452,-0.1876,-0.0783,0.2141,0.1225,-37.9200,21.8400,1.9800,
10.167977,0.4358,0.1452,-0.1876,-0.0746,0.3377,0.1843,-37.9200,21.8400,1.9800,
10.168984,-0.6373,-1.7740,0.0644,-0.0746,0.3377,0.1843,-37.9200,21.8400,1.9800,
10.186701,-0.6373,-1.7740,0.0644,-0.1188,0.3196,0.1204,-37.9200,21.8400,1.9800,
10.207110,-0.6373,-1.7740,0.0644,-0.1348,0.1230,-0.1273,-37.9200,21.8400,1.9800,
10.215458,-0.6373,-1.7740,0.0644,-0.1348,0.1230,-0.1273,-38.1600,21.4200,2.3400,
10.227776,-0.6373,-1.7740,0.0644,-0.1348,0.1230,-0.1273,-38.1600,21.4200,2.3400,
10.229263,-0.6373,-1.7740,0.0644,0.0964,-0.0245,-0.1704,-38.1600,21.4200,2.3400,
10.230006,-0.5541,-0.1849,0.0348,0.0964,-0.0245,-0.1704,-38.1600,21.4200,2.3400,
10.247104,-0.5541,-0.1849,0.0348,0.2157,-0.0783,-0.1875,-38.1600,21.4200,2.3400,
10.268581,-0.5541,-0.1849,0.0348,0.2274,-0.1225,-0.3164,-38.1600,21.4200,2.3400,
10.277181,-0.5541,-0.1849,0.0348,0.2274,-0.1225,-0.3164,-37.9800,21.7200,2.5200,
10.288636,-0.5541,-0.1849,0.0348,0.2274,-0.1225,-0.3164,-37.9800,21.7200,2.5200,
10.290116,-0.5541,-0.1849,0.0348,0.1848,-0.1230,-0.4405,-37.9800,21.7200,2.5200,
10.291153,0.1519,-0.0998,-0.1493,0.1848,-0.1230,-0.4405,-37.9800,21.7200,2.5200,
10.309107,0.1519,-0.0998,-0.1493,-0.0708,-0.0911,-0.4501,-37.9800,21.7200,2.5200,
10.330760,0.1519,-0.0998,-0.1493,-0.3340,-0.2173,-0.4943,-37.9800,21.7200,2.5200,
10.339228,0.1519,-0.0998,-0.1493,-0.3340,-0.2173,-0.4943,-37.8600,21.3000,2.4600,
10.349723,0.1519,-0.0998,-0.1493,-0.3340,-0.2173,-0.4943,-37.8600,21.3000,2.4600,
10.350921,1.0427,1.1611,-0.8620,-0.3340,-0.2173,-0.4943,-37.8600,21.3000,2.4600,
10.351966,1.0427,1.1611,-0.8620,-0.5683,-0.3563,-0.6471,-37.8600,21.3000,2.4600,
10.370259,1.0427,1.1611,-0.8620,-0.5720,-0.3941,-0.6860,-37.8600,21.3000,2.4600,
10.391721,1.0427,1.1611,-0.8620,-0.5145,-0.2860,-0.7004,-37.8600,21.3000,2.4600,
10.401031,1.0427,1.1611,-0.8620,-0.5145,-0.2860,-0.7004,-38.5200,21.1800,2.3400,
10.413409,1.0427,1.1611,-0.8620,-0.5145,-0.2860,-0.7004,-38.5200,21.1800,2.3400,
10.414707,1.0427,1.1611,-0.8620,-0.6045,-0.2157,-0.4991,-38.5200,21.1800,2.3400,
10.415714,0.2374,0.3462,-0.6097,-0.6045,-0.2157,-0.4991,-38.5200,21.1800,2.3400,
10.432364,0.2374,0.3462,-0.6097,-0.5822,-0.1433,-0.2754,-38.5200,21.1800,2.3400,
10.453149,0.2374,0.3462,-0.6097,-0.4282,-0.1880,-0.1486,-38.5200,21.1800,2.3400,
10.462944,0.2374,0.3462,-0.6097,-0.4282,-0.1880,-0.1486,-39.1200,20.2800,2.8200,
10.473032,0.2374,0.3462,-0.6097,-0.4282,-0.1880,-0.1486,-39.1200,20.2800,2.8200,
10.474270,0.2374,0.3462,-0.6097,-0.5374,-0.0431,-0.0863,-39.1200,20.2800,2.8200,
10.475211,0.1083,1.8844,-0.3247,-0.5374,-0.0431,-0.0863,-39.1200,20.2800,2.8200,
10.492944,0.1083,1.8844,-0.3247,-0.5577,0.0431,0.0357,-39.1200,20.2800,2.8200,
10.513638,0.1083,1.8844,-0.3247,-0.4053,0.1230,0.3638,-39.1200,20.2800,2.8200,
10.521966,0.1083,1.8844,-0.3247,-0.4053,0.1230,0.3638,-39.6600,19.2000,3.7800,
10.533986,0.1083,1.8844,-0.3247,-0.4053,0.1230,0.3638,-39.6600,19.2000,3.7800,
10.534538,0.1083,1.8844,-0.3247,-0.0378,0.1497,0.6392,-39.6600,19.2000,3.7800,
10.534850,-0.2186,2.7771,3.0578,-0.0378,0.1497,0.6392,-39.6600,19.2000,3.7800,
10.561184,-0.2186,2.7771,3.0578,0.0746,0.1704,0.3590,-39.6600,19.2000,3.7800,
10.574988,-0.2186,2.7771,3.0578,0.1001,0.3345,0.0698,-39.6600,19.2000,3.7800,
10.583858,-0.2186,2.7771,3.0578,0.1001,0.3345,0.0698,-39.9000,18.7200,4.3200,
10.595854,-0.2186,2.7771,3.0578,0.1001,0.3345,0.0698,-39.9000,18.7200,4.3200,
10.596517,-0.2186,2.7771,3.0578,0.0378,0.6109,-0.1768,-39.9000,18.7200,4.3200,
10.596779,-0.0054,1.6415,0.5093,0.0378,0.6109,-0.1768,-39.9000,18.7200,4.3200,
10.616082,-0.0054,1.6415,0.5093,0.0091,0.7915,-0.2344,-39.9000,18.7200,4.3200,
10.636495,-0.0054,1.6415,0.5093,-0.0655,0.7936,-0.0687,-39.9000,18.7200,4.3200,
10.645049,-0.0054,1.6415,0.5093,-0.0655,0.7936,-0.0687,-39.2400,18.3600,4.3800,
10.657542,-0.0054,1.6415,0.5093,-0.0655,0.7936,-0.0687,-39.2400,18.3600,4.3800,
10.657982,-0.0054,1.6415,0.5093,-0.1566,0.5720,0.1949,-39.2400,18.3600,4.3800,
10.658182,-1.6144,-0.5225,-0.0707,-0.1566,0.5720,0.1949,-39.2400,18.3600,4.3800,
10.677696,-1.6144,-0.5225,-0.0707,0.1140,0.4927,0.3553,-39.2400,18.3600,4.3800,
10.698134,-1.6144,-0.5225,-0.0707,0.5843,0.4586,0.3867,-39.2400,18.3600,4.3800,
10.706800,-1.6144,-0.5225,-0.0707,0.5843,0.4586,0.3867,-39.4200,17.8800,3.7800,
10.718897,-1.6144,-0.5225,-0.0707,0.5843,0.4586,0.3867,-39.4200,17.8800,3.7800,
10.719416,-1.6144,-0.5225,-0.0707,0.7132,0.6610,0.5486,-39.4200,17.8800,3.7800,
10.719816,-0.9909,-1.3002,1.0239,0.7132,0.6610,0.5486,-39.4200,17.8800,3.7800,
10.739708,-0.9909,-1.3002,1.0239,0.6189,0.8666,0.6674,-39.4200,17.8800,3.7800,
10.759765,-0.9909,-1.3002,1.0239,0.3585,0.8282,0.7579,-39.4200,17.8800,3.7800,
10.768388,-0.9909,-1.3002,1.0239,0.3585,0.8282,0.7579,-39.4200,18.1800,2.1600,
10.780255,-0.9909,-1.3002,1.0239,0.3585,0.8282,0.7579,-39.4200,18.1800,2.1600,
10.780586,-0.9909,-1.3002,1.0239,0.1103,0.5523,0.6956,-39.4200,18.1800,2.1600,
10.780990,0.5517,0.7220,0.4969,0.1103,0.5523,0.6956,-39.4200,18.1800,2.1600,
10.800639,0.5517,0.7220,0.4969,0.0810,0.2024,0.5758,-39.4200,18.1800,2.1600,
10.821482,0.5517,0.7220,0.4969,-0.1241,0.2647,0.4277,-39.4200,18.1800,2.1600,
10.829849,0.5517,0.7220,0.4969,-0.1241,0.2647,0.4277,-38.5800,18.8400,0.2400,
10.841780,0.5517,0.7220,0.4969,-0.1241,0.2647,0.4277,-38.5800,18.8400,0.2400,
10.842230,0.5517,0.7220,0.4969,-0.5997,0.5236,0.3894,-38.5800,18.8400,0.2400,
10.842518,-0.5503,-0.2505,0.3426,-0.5997,0.5236,0.3894,-38.5800,18.8400,0.2400,
10.862560,-0.5503,-0.2505,0.3426,-0.7505,0.6083,0.4043,-38.5800,18.8400,0.2400,
10.882755,-0.5503,-0.2505,0.3426,-0.8171,0.3952,0.3894,-38.5800,18.8400,0.2400,
10.891310,-0.5503,-0.2505,0.3426,-0.8171,0.3952,0.3894,-38.6400,19.1400,-1.3800,
10.903761,-0.5503,-0.2505,0.3426,-0.8171,0.3952,0.3894,-38.6400,19.1400,-1.3800,
10.904258,-0.5503,-0.2505,0.3426,-0.6530,0.1422,0.2067,-38.6400,19.1400,-1.3800,
10.904576,0.0238,0.5680,1.7502,-0.6530,0.1422,0.2067,-38.6400,19.1400,-1.3800,
10.924254,0.0238,0.5680,1.7502,-0.1806,-0.0996,0.2290,-38.6400,19.1400,-1.3800,
10.944416,0.0238,0.5680,1.7502,-0.0985,-0.0554,0.2189,-38.6400,19.1400,-1.3800,
10.954473,0.0238,0.5680,1.7502,-0.0985,-0.0554,0.2189,-37.0200,20.5800,-2.5200,
10.965375,0.0238,0.5680,1.7502,-0.0985,-0.0554,0.2189,-37.0200,20.5800,-2.5200,
10.965731,0.0238,0.5680,1.7502,-0.2546,-0.0517,0.1166,-37.0200,20.5800,-2.5200,
10.966051,0.1991,-0.7898,0.2625,-0.2546,-0.0517,0.1166,-37.0200,20.5800,-2.5200,
10.985550,0.1991,-0.7898,0.2625,-0.1550,-0.1790,-0.0666,-37.0200,20.5800,-2.5200,
11.005895,0.1991,-0.7898,0.2625,0.0916,-0.3116,-0.3009,-37.0200,20.5800,-2.5200,
11.014574,0.1991,-0.7898,0.2625,0.0916,-0.3116,-0.3009,-36.0600,21.2400,-2.8200,
11.026545,0.1991,-0.7898,0.2625,0.0916,-0.3116,-0.3009,-36.0600,21.2400,-2.8200,
11.026995,0.1991,-0.7898,0.2625,0.2967,-0.2828,-0.3931,-36.0600,21.2400,-2.8200,
11.027220,-0.4917,0.7602,0.8018,0.2967,-0.2828,-0.3931,-36.0600,21.2400,-2.8200,
11.047172,-0.4917,0.7602,0.8018,0.4692,-0.3601,-0.2184,-36.0600,21.2400,-2.8200,
11.067596,-0.4917,0.7602,0.8018,0.4730,-0.4581,0.2232,-36.0600,21.2400,-2.8200,
11.076143,-0.4917,0.7602,0.8018,0.4730,-0.4581,0.2232,-35.8200,22.0200,-2.7600,
11.088277,-0.4917,0.7602,0.8018,0.4730,-0.4581,0.2232,-35.8200,22.0200,-2.7600,
11.088677,-1.3443,-0.2942,3.5788,0.4730,-0.4581,0.2232,-35.8200,22.0200,-2.7600,
11.089067,-1.3443,-0.2942,3.5788,0.9619,-0.3249,0.6988,-35.8200,22.0200,-2.7600,
11.108592,-1.3443,-0.2942,3.5788,0.6456,-0.0202,0.7851,-35.8200,22.0200,-2.7600,
11.129237,-1.3443,-0.2942,3.5788,-0.1230,0.2173,0.5481,-35.8200,22.0200,-2.7600,
11.137586,-1.3443,-0.2942,3.5788,-0.1230,0.2173,0.5481,-35.3400,22.5600,-2.5800,
11.149876,-1.3443,-0.2942,3.5788,-0.1230,0.2173,0.5481,-35.3400,22.5600,-2.5800,
11.150153,-1.3443,-0.2942,3.5788,-0.0005,0.1300,0.1987,-35.3400,22.5600,-2.5800,
11.150347,1.7149,0.1552,2.6833,-0.0005,0.1300,0.1987,-35.3400,22.5600,-2.5800,
11.170277,1.7149,0.1552,2.6833,0.4906,-0.0293,-0.1044,-35.3400,22.5600,-2.5800,
11.190694,1.7149,0.1552,2.6833,0.6157,-0.0197,-0.1087,-35.3400,22.5600,-2.5800,
11.199485,1.7149,0.1552,2.6833,0.6157,-0.0197,-0.1087,-35.7000,23.3400,-2.5800,
11.211641,1.7149,0.1552,2.6833,0.6157,-0.0197,-0.1087,-35.7000,23.3400,-2.5800,
11.212160,1.7149,0.1552,2.6833,0.6530,-0.0703,-0.0874,-35.7000,23.3400,-2.5800,
11.212437,0.8539,-0.1542,1.5158,0.6530,-0.0703,-0.0874,-35.7000,23.3400,-2.5800,
11.231922,0.8539,-0.1542,1.5158,0.4229,0.2338,-0.2370,-35.7000,23.3400,-2.5800,
11.252449,0.8539,-0.1542,1.5158,0.3585,0.1081,-0.2471,-35.7000,23.3400,-2.5800,
11.261226,0.8539,-0.1542,1.5158,0.3585,0.1081,-0.2471,-35.6400,24.4200,-2.8800,
11.272925,0.8539,-0.1542,1.5158,0.3585,0.1081,-0.2471,-35.6400,24.4200,-2.8800,
11.273460,0.8539,-0.1542,1.5158,0.3308,-0.1081,-0.3499,-35.6400,24.4200,-2.8800,
11.273768,1.2309,0.8411,0.4568,0.3308,-0.1081,-0.3499,-35.6400,24.4200,-2.8800,
11.293556,1.2309,0.8411,0.4568,0.2903,-0.1939,-0.3499,-35.6400,24.4200,-2.8800,
11.314008,1.2309,0.8411,0.4568,0.2913,-0.0826,0.0027,-35.6400,24.4200,-2.8800,
11.322426,1.2309,0.8411,0.4568,0.2913,-0.0826,0.0027,-35.4600,24.6000,-3.1800,
11.334666,1.2309,0.8411,0.4568,0.2913,-0.0826,0.0027,-35.4600,24.6000,-3.1800,
11.334988,1.2309,0.8411,0.4568,0.1768,0.1012,0.2434,-35.4600,24.6000,-3.1800,
11.335187,0.7952,-0.5436,1.1974,0.1768,0.1012,0.2434,-35.4600,24.6000,-3.1800,
11.355018,0.7952,-0.5436,1.1974,0.1459,0.0794,0.0895,-35.4600,24.6000,-3.1800,
11.378448,0.7952,-0.5436,1.1974,0.0208,0.1321,0.0394,-35.4600,24.6000,-3.1800,
11.383878,0.7952,-0.5436,1.1974,0.0208,0.1321,0.0394,-35.4000,25.5000,-3.0000,
11.397161,0.7952,-0.5436,1.1974,0.0208,0.1321,0.0394,-35.4000,25.5000,-3.0000,
11.397940,0.7952,-0.5436,1.1974,0.0011,0.1007,0.1076,-35.4000,25.5000,-3.0000,
11.398265,-0.6421,0.4882,-0.2409,0.0011,0.1007,0.1076,-35.4000,25.5000,-3.0000,
11.416698,-0.6421,0.4882,-0.2409,0.0527,0.0730,0.2067,-35.4000,25.5000,-3.0000,
11.437091,-0.6421,0.4882,-0.2409,0.0447,0.0581,0.2583,-35.4000,25.5000,-3.0000,
11.445685,-0.6421,0.4882,-0.2409,0.0447,0.0581,0.2583,-35.5800,25.5600,-2.7600,
11.457776,-0.6421,0.4882,-0.2409,0.0447,0.0581,0.2583,-35.5800,25.5600,-2.7600,
11.458401,-0.6421,0.4882,-0.2409,0.0426,0.0948,0.2173,-35.5800,25.5600,-2.7600,
11.458818,-0.3107,-0.0020,0.0979,0.0426,0.0948,0.2173,-35.5800,25.5600,-2.7600,
11.478189,-0.3107,-0.0020,0.0979,0.0431,0.0591,0.1976,-35.5800,25.5600,-2.7600,
11.498624,-0.3107,-0.0020,0.0979,0.0517,0.0506,0.1209,-35.5800,25.5600,-2.7600,
11.507266,-0.3107,-0.0020,0.0979,0.0517,0.0506,0.1209,-35.2800,25.5000,-2.6400,
11.519862,-0.3107,-0.0020,0.0979,0.0517,0.0506,0.1209,-35.2800,25.5000,-2.6400,
11.521385,-0.3107,-0.0020,0.0979,0.0240,0.0618,0.0091,-35.2800,25.5000,-2.6400,
11.522392,-0.0903,-0.3994,-0.2751,0.0240,0.0618,0.0091,-35.2800,25.5000,-2.6400,
11.540271,-0.0903,-0.3994,-0.2751,0.0570,0.0735,0.0410,-35.2800,25.5000,-2.6400,
11.560671,-0.0903,-0.3994,-0.2751,0.1593,-0.0176,0.0804,-35.2800,25.5000,-2.6400,
11.571110,-0.0903,-0.3994,-0.2751,0.1593,-0.0176,0.0804,-35.5200,25.9200,-3.1200,
11.581741,-0.0903,-0.3994,-0.2751,0.1593,-0.0176,0.0804,-35.5200,25.9200,-3.1200,
11.582293,-0.0903,-0.3994,-0.2751,0.2328,0.0133,0.0213,-35.5200,25.9200,-3.1200,
11.582651,0.3039,0.1017,-0.3768,0.2328,0.0133,0.0213,-35.5200,25.9200,-3.1200,
11.602215,0.3039,0.1017,-0.3768,0.0703,-0.0117,-0.0495,-35.5200,25.9200,-3.1200,
11.622042,0.3039,0.1017,-0.3768,0.0048,-0.0437,-0.0421,-35.5200,25.9200,-3.1200,
11.630288,0.3039,0.1017,-0.3768,0.0048,-0.0437,-0.0421,-35.6400,25.9200,-3.3000,
11.642585,0.3039,0.1017,-0.3768,0.0048,-0.0437,-0.0421,-35.6400,25.9200,-3.3000,
11.643299,0.3039,0.1017,-0.3768,0.0107,0.0085,-0.0490,-35.6400,25.9200,-3.3000,
11.643698,-0.1017,-0.2639,0.2332,0.0107,0.0085,-0.0490,-35.6400,25.9200,-3.3000,
11.663206,-0.1017,-0.2639,0.2332,0.0266,0.0399,-0.0218,-35.6400,25.9200,-3.3000,
11.684026,-0.1017,-0.2639,0.2332,0.0037,-0.0266,0.0570,-35.6400,25.9200,-3.3000,
11.692748,-0.1017,-0.2639,0.2332,0.0037,-0.0266,0.0570,-35.2800,26.3400,-3.9000,
11.704563,-0.1017,-0.2639,0.2332,0.0037,-0.0266,0.0570,-35.2800,26.3400,-3.9000,
11.705464,-0.1017,-0.2639,0.2332,0.0080,-0.0613,0.1545,-35.2800,26.3400,-3.9000,
11.705889,-0.0510,0.1059,-0.0783,0.0080,-0.0613,0.1545,-35.2800,26.3400,-3.9000,
11.724956,-0.0510,0.1059,-0.0783,-0.0144,-0.0618,0.1811,-35.2800,26.3400,-3.9000,
11.745929,-0.0510,0.1059,-0.0783,-0.0533,-0.0842,0.1912,-35.2800,26.3400,-3.9000,
11.754152,-0.0510,0.1059,-0.0783,-0.0533,-0.0842,0.1912,-35.5800,26.4000,-4.2600,
11.766957,-0.0510,0.1059,-0.0783,-0.0533,-0.0842,0.1912,-35.5800,26.4000,-4.2600,
11.767839,-0.0510,0.1059,-0.0783,-0.0708,-0.0607,0.1635,-35.5800,26.4000,-4.2600,
11.768248,-0.1071,-0.5089,0.0150,-0.0708,-0.0607,0.1635,-35.5800,26.4000,-4.2600,
11.786823,-0.1071,-0.5089,0.0150,-0.0170,-0.0304,0.1577,-35.5800,26.4000,-4.2600,
11.806919,-0.1071,-0.5089,0.0150,-0.0234,0.0080,0.1369,-35.5800,26.4000,-4.2600,
11.815686,-0.1071,-0.5089,0.0150,-0.0234,0.0080,0.1369,-35.6400,26.4000,-3.8400,
11.828732,-0.1071,-0.5089,0.0150,-0.0234,0.0080,0.1369,-35.6400,26.4000,-3.8400,
11.829661,-0.1071,-0.5089,0.0150,-0.0421,-0.0170,0.1140,-35.6400,26.4000,-3.8400,
11.830423,-0.2165,-0.0022,-0.1155,-0.0421,-0.0170,0.1140,-35.6400,26.4000,-3.8400,
11.848320,-0.2165,-0.0022,-0.1155,0.0011,-0.0186,0.1166,-35.6400,26.4000,-3.8400,
11.869331,-0.2165,-0.0022,-0.1155,0.0352,0.0245,0.1832,-35.6400,26.4000,-3.8400,
11.877220,-0.2165,-0.0022,-0.1155,0.0352,0.0245,0.1832,-35.4600,26.4000,-3.7200,
11.889487,-0.2165,-0.0022,-0.1155,0.0352,0.0245,0.1832,-35.4600,26.4000,-3.7200,
11.890321,-0.2165,-0.0022,-0.1155,0.0080,0.0463,0.2088,-35.4600,26.4000,-3.7200,
11.890724,0.0270,-0.6038,-0.0314,0.0080,0.0463,0.2088,-35.4600,26.4000,-3.7200,
11.910346,0.0270,-0.6038,-0.0314,-0.0756,0.0474,0.1497,-35.4600,26.4000,-3.7200,
11.930442,0.0270,-0.6038,-0.0314,-0.1135,0.0495,0.0522,-35.4600,26.4000,-3.7200,
11.939068,0.0270,-0.6038,-0.0314,-0.1135,0.0495,0.0522,-35.4600,26.5200,-3.0000,
11.951119,0.0270,-0.6038,-0.0314,-0.1135,0.0495,0.0522,-35.4600,26.5200,-3.0000,
11.951986,0.0270,-0.6038,-0.0314,-0.0836,0.0527,0.1049,-35.4600,26.5200,-3.0000,
11.952420,-0.3374,0.6205,-0.1942,-0.0836,0.0527,0.1049,-35.4600,26.5200,-3.0000,
11.971777,-0.3374,0.6205,-0.1942,0.0224,0.0330,0.1646,-35.4600,26.5200,-3.0000,
11.992350,-0.3374,0.6205,-0.1942,0.0884,0.0357,0.2120,-35.4600,26.5200,-3.0000,
12.000624,-0.3374,0.6205,-0.1942,0.0884,0.0357,0.2120,-35.0400,26.7000,-3.0600,
12.012183,-0.3374,0.6205,-0.1942,0.0884,0.0357,0.2120,-35.0400,26.7000,-3.0600,
12.012963,-0.3374,0.6205,-0.1942,0.1033,0.0192,0.1800,-35.0400,26.7000,-3.0600,
12.013448,0.0817,-0.4311,0.0143,0.1033,0.0192,0.1800,-35.0400,26.7000,-3.0600,
12.033176,0.0817,-0.4311,0.0143,0.0613,0.0447,0.0820,-35.0400,26.7000,-3.0600,
12.053745,0.0817,-0.4311,0.0143,0.0389,0.0511,-0.0405,-35.0400,26.7000,-3.0600,
12.061972,0.0817,-0.4311,0.0143,0.0389,0.0511,-0.0405,-34.3800,26.7600,-2.8200,
12.074550,0.0817,-0.4311,0.0143,0.0389,0.0511,-0.0405,-34.3800,26.7600,-2.8200,
12.075335,0.0817,-0.4311,0.0143,0.0405,0.0330,-0.0735,-34.3800,26.7600,-2.8200,
12.075741,0.0275,-0.1708,-0.0540,0.0405,0.0330,-0.0735,-34.3800,26.7600,-2.8200,
12.094829,0.0275,-0.1708,-0.0540,0.0410,0.0815,-0.0895,-34.3800,26.7600,-2.8200,
12.115526,0.0275,-0.1708,-0.0540,-0.0011,0.1092,-0.1214,-34.3800,26.7600,-2.8200,
12.123427,0.0275,-0.1708,-0.0540,-0.0011,0.1092,-0.1214,-34.0800,27.4800,-2.9400,
12.136002,0.0275,-0.1708,-0.0540,-0.0011,0.1092,-0.1214,-34.0800,27.4800,-2.9400,
12.137015,0.0275,-0.1708,-0.0540,0.0325,0.1715,-0.0687,-34.0800,27.4800,-2.9400,
12.137443,-0.2085,-0.0287,0.0927,0.0325,0.1715,-0.0687,-34.0800,27.4800,-2.9400,
12.156361,-0.2085,-0.0287,0.0927,0.0527,0.1305,0.0149,-34.0800,27.4800,-2.9400,
12.177017,-0.2085,-0.0287,0.0927,0.0708,0.0927,0.0282,-34.0800,27.4800,-2.9400,
12.186377,-0.2085,-0.0287,0.0927,0.0708,0.0927,0.0282,-33.6600,27.5400,-3.7800,
12.197610,-0.2085,-0.0287,0.0927,0.0708,0.0927,0.0282,-33.6600,27.5400,-3.7800,
12.198587,-0.2085,-0.0287,0.0927,0.0176,0.0293,0.0176,-33.6600,27.5400,-3.7800,
12.198985,0.2867,-0.3473,0.0459,0.0176,0.0293,0.0176,-33.6600,27.5400,-3.7800,
12.218002,0.2867,-0.3473,0.0459,-0.0277,0.0282,0.0064,-33.6600,27.5400,-3.7800,
12.238739,0.2867,-0.3473,0.0459,-0.0256,0.0170,0.0021,-33.6600,27.5400,-3.7800,
12.246926,0.2867,-0.3473,0.0459,-0.0256,0.0170,0.0021,-33.9600,27.7200,-3.4200,
12.259988,0.2867,-0.3473,0.0459,-0.0256,0.0170,0.0021,-33.9600,27.7200,-3.4200,
12.261740,0.2867,-0.3473,0.0459,-0.0858,0.0197,0.0240,-33.9600,27.7200,-3.4200,
12.262525,-0.0780,-0.1674,-0.0831,-0.0858,0.0197,0.0240,-33.9600,27.7200,-3.4200,
12.279712,-0.0780,-0.1674,-0.0831,-0.0112,0.1001,0.0234,-33.9600,27.7200,-3.4200,
12.300126,-0.0780,-0.1674,-0.0831,0.1193,0.1411,0.0756,-33.9600,27.7200,-3.4200,
12.308424,-0.0780,-0.1674,-0.0831,0.1193,0.1411,0.0756,-34.2600,28.0200,-3.7800,
12.320608,-0.0780,-0.1674,-0.0831,0.1193,0.1411,0.0756,-34.2600,28.0200,-3.7800,
12.321382,-0.0780,-0.1674,-0.0831,0.0362,0.0836,0.0826,-34.2600,28.0200,-3.7800,
12.321795,-0.1040,-0.3506,-0.0835,0.0362,0.0836,0.0826,-34.2600,28.0200,-3.7800,
12.340696,-0.1040,-0.3506,-0.0835,-0.1358,-0.0027,-0.0176,-34.2600,28.0200,-3.7800,
12.361417,-0.1040,-0.3506,-0.0835,-0.0836,0.0826,-0.0772,-34.2600,28.0200,-3.7800,
12.370007,-0.1040,-0.3506,-0.0835,-0.0836,0.0826,-0.0772,-34.0200,27.9000,-4.4400,
