time,ax,ay,az,wx,wy,wz,Bx,By,Bz,Unnamed: 10,time_diff,acc_mag,acc_mag_filtered,label
0.072601,0.0,0.0,0.0,0.0,0.0,0.0,0.0,0.0,0.0,,0.0,0.0,-0.0002646558466170507,non_fall
0.117441,0.0,0.0,0.0,0.0,0.0,0.0,42.0938,16.2938,21.3188,,0.044840000000000005,0.0,-0.001962529736018128,non_fall
0.133621,0.0,0.0,0.0,0.0,0.0,0.0,42.0938,16.2938,21.3188,,0.016179999999999986,0.0,-0.003382332374747811,non_fall
0.135157,0.0,0.0,0.0,-0.0284,-0.0446,-0.0071,42.0938,16.2938,21.3188,,0.0015360000000000096,0.0,-0.004267663274339767,non_fall
0.176197,0.0,0.0,0.0,-0.0284,-0.0446,-0.0071,42.0938,16.2938,21.3188,,0.04103999999999999,0.0,-0.004327351901344437,non_fall
0.176877,0.0,0.0,0.0,-0.0284,-0.0446,-0.0071,42.375,15.1875,22.2938,,0.0006800000000000139,0.0,-0.0032591126272099,non_fall
0.195418,0.0,0.0,0.0,0.0015,0.0112,-0.0124,42.375,15.1875,22.2938,,0.018541000000000002,0.0,-0.000806305987867188,non_fall
0.196207,0.0,0.0,0.0,0.0015,0.0112,-0.0124,42.375,15.1875,22.2938,,0.0007889999999999842,0.0,0.003164007533602932,non_fall
0.238198,0.0,0.0,0.0,0.0015,0.0112,-0.0124,42.2625,14.6625,22.3688,,0.041991,0.0,0.008585650965639562,non_fall
0.255769,0.0,0.0,0.0,0.0015,0.0112,-0.0124,42.2625,14.6625,22.3688,,0.01757100000000003,0.0,0.015151713415306514,non_fall
0.256765,0.0,0.0,0.0,-0.0128,0.0321,0.0051,42.2625,14.6625,22.3688,,0.0009959999999999969,0.0,0.022335488976988203,non_fall
0.257494,0.0108,-0.0502,0.0095,-0.0128,0.0321,0.0051,42.2625,14.6625,22.3688,,0.0007289999999999797,0.0522200153197986,0.029486444711134287,non_fall
0.298675,0.0108,-0.0502,0.0095,-0.0128,0.0321,0.0051,42.1125,14.6813,22.6313,,0.04118100000000002,0.0522200153197986,0.03598425971389472,non_fall
0.316908,0.0108,-0.0502,0.0095,0.0111,0.0751,0.0161,42.1125,14.6813,22.6313,,0.018233,0.0522200153197986,0.04140318087053302,non_fall
0.318092,-0.0129,0.0443,0.0189,0.0111,0.0751,0.0161,42.1125,14.6813,22.6313,,0.0011839999999999629,0.04986090653006622,0.04562631496897429,non_fall
0.318896,-0.0129,0.0443,0.0189,0.0111,0.0751,0.0161,42.1125,14.6813,22.6313,,0.0008040000000000269,0.04986090653006622,0.048865529417261966,non_fall
0.358455,-0.0129,0.0443,0.0189,0.0111,0.0751,0.0161,42.1688,14.6438,22.725,,0.03955900000000001,0.04986090653006622,0.05157771181490276,non_fall
0.379372,-0.0129,0.0443,0.0189,-0.0181,-0.0112,-0.0007,42.1688,14.6438,22.725,,0.020916999999999963,0.04986090653006622,0.05430278964590196,non_fall
0.380245,-0.0129,0.0443,0.0189,-0.0181,-0.0112,-0.0007,42.1688,14.6438,22.725,,0.0008730000000000127,0.04986090653006622,0.057470691447019544,non_fall
0.380708,0.0539,-0.012,-0.0071,-0.0181,-0.0112,-0.0007,42.1688,14.6438,22.725,,0.0004629999999999912,0.055674231022978665,0.06123142236934984,non_fall
0.420149,0.0539,-0.012,-0.0071,-0.0181,-0.0112,-0.0007,42.075,14.6063,22.7063,,0.039441000000000004,0.055674231022978665,0.06535714602339322,non_fall
0.439966,0.0539,-0.012,-0.0071,-0.0181,-0.0112,-0.0007,42.075,14.6063,22.7063,,0.01981700000000003,0.055674231022978665,0.06925034908056461,non_fall
0.440891,0.0539,-0.012,-0.0071,-0.0411,-0.0521,-0.0137,42.075,14.6063,22.7063,,0.0009249999999999536,0.055674231022978665,0.0720697406860653,non_fall
0.459242,-0.0339,0.0581,-0.0621,-0.0411,-0.0521,-0.0137,42.075,14.6063,22.7063,,0.018351000000000006,0.09154905788701487,0.07295631070008426,non_fall
0.478532,-0.0339,0.0581,-0.0621,-0.0411,-0.0521,-0.0137,42.225,14.7188,22.8375,,0.01929000000000003,0.09154905788701487,0.07130829387826663,non_fall
0.499344,-0.0339,0.0581,-0.0621,-0.0501,-0.0493,-0.0166,42.225,14.7188,22.8375,,0.020811999999999997,0.09154905788701487,0.06702547999735867,non_fall
0.500302,-0.0339,0.0581,-0.0621,-0.0501,-0.0493,-0.0166,42.225,14.7188,22.8375,,0.0009580000000000144,0.09154905788701487,0.060637484033355296,non_fall
0.519663,-0.0213,-0.0113,0.017,-0.0501,-0.0493,-0.0166,42.225,14.7188,22.8375,,0.01936099999999996,0.02950220330754976,0.05325947526856491,non_fall
0.537287,-0.0213,-0.0113,0.017,-0.0501,-0.0493,-0.0166,42.3375,14.7188,22.875,,0.017623999999999973,0.02950220330754976,0.04637641095560746,non_fall
0.561568,-0.0213,-0.0113,0.017,-0.1111,-0.1582,-0.0184,42.3375,14.7188,22.875,,0.024280999999999997,0.02950220330754976,0.041517782605873445,non_fall
0.562905,-0.0213,-0.0113,0.017,-0.1111,-0.1582,-0.0184,42.3375,14.7188,22.875,,0.0013370000000000326,0.02950220330754976,0.039919105620316295,non_fall
0.580147,-0.0387,0.0269,0.0063,-0.1111,-0.1582,-0.0184,42.3375,14.7188,22.875,,0.01724199999999998,0.04754986855922948,0.04226014352860145,non_fall
0.598732,-0.0387,0.0269,0.0063,-0.1111,-0.1582,-0.0184,42.3188,14.3625,23.025,,0.018585000000000074,0.04754986855922948,0.04853525201565053,non_fall
0.621428,-0.0387,0.0269,0.0063,-0.0872,-0.1848,-0.0194,42.3188,14.3625,23.025,,0.02269599999999994,0.04754986855922948,0.058072500446553425,non_fall
0.622653,-0.0387,0.0269,0.0063,-0.0872,-0.1848,-0.0194,42.3188,14.3625,23.025,,0.0012250000000000316,0.04754986855922948,0.06969070436167218,non_fall
0.64172,-0.0691,0.0157,0.0794,-0.0872,-0.1848,-0.0194,42.3188,14.3625,23.025,,0.019066999999999945,0.10642208417429157,0.08196569477126735,non_fall
0.657491,-0.0691,0.0157,0.0794,-0.0872,-0.1848,-0.0194,42.375,14.325,23.0438,,0.01577100000000009,0.10642208417429157,0.09355982216472392,non_fall
0.682766,-0.0691,0.0157,0.0794,0.033,-0.0165,0.0004,42.375,14.325,23.0438,,0.025274999999999936,0.10642208417429157,0.1035512148982669,non_fall
0.683907,-0.0691,0.0157,0.0794,0.033,-0.0165,0.0004,42.375,14.325,23.0438,,0.0011410000000000586,0.10642208417429157,0.11169361343130914,non_fall
0.718738,-0.0691,0.0157,0.0794,0.033,-0.0165,0.0004,42.5625,14.5313,23.025,,0.034830999999999945,0.10642208417429157,0.11855115101495008,non_fall
0.722631,0.1292,-0.0902,0.028,0.033,-0.0165,0.0004,42.5625,14.5313,23.025,,0.0038930000000000353,0.16003962009452535,0.12547474160439448,non_fall
0.745994,0.1292,-0.0902,0.028,0.033,-0.0165,0.0004,42.5625,14.5313,23.025,,0.023363000000000023,0.16003962009452535,0.13440270453345018,non_fall
0.747207,0.1292,-0.0902,0.028,0.1598,0.2522,0.0722,42.5625,14.5313,23.025,,0.0012129999999999086,0.16003962009452535,0.1474804875935406,non_fall
0.779985,0.1292,-0.0902,0.028,0.1598,0.2522,0.0722,42.7125,14.4938,23.0063,,0.032778000000000085,0.16003962009452535,0.16652098586856595,non_fall
0.783509,0.0615,-0.1874,0.0235,0.1598,0.2522,0.0722,42.7125,14.4938,23.0063,,0.0035239999999999716,0.19862844710665187,0.19237652380618492,non_fall
0.804417,0.0615,-0.1874,0.0235,0.1598,0.2522,0.0722,42.7125,14.4938,23.0063,,0.020908000000000038,0.19862844710665187,0.22435089170854797,non_fall
0.805544,0.0615,-0.1874,0.0235,0.0157,-0.0715,-0.0113,42.7125,14.4938,23.0063,,0.0011269999999999891,0.19862844710665187,0.2598199139068711,non_fall
0.838789,0.0615,-0.1874,0.0235,0.0157,-0.0715,-0.0113,42.6562,14.4938,22.9688,,0.03324499999999997,0.19862844710665187,0.2942330938798666,non_fall
0.84729,-0.0869,0.2168,-0.2467,0.0157,-0.0715,-0.0113,42.6562,14.4938,22.9688,,0.00850099999999998,0.3397274495827501,0.3216213074689914,non_fall
0.864872,-0.0869,0.2168,-0.2467,-0.0471,-0.1209,-0.0297,42.6562,14.4938,22.9688,,0.017581999999999987,0.3397274495827501,0.3356257851924654,non_fall
0.866084,-0.0869,0.2168,-0.2467,-0.0471,-0.1209,-0.0297,42.6562,14.4938,22.9688,,0.0012119999999999909,0.3397274495827501,0.3309107583064273,non_fall
0.897944,-0.0869,0.2168,-0.2467,-0.0471,-0.1209,-0.0297,42.7688,14.4563,22.9875,,0.03186,0.3397274495827501,0.30468151379791747,non_fall
0.927299,-0.0869,0.2168,-0.2467,-0.0344,-0.1376,-0.0248,42.7688,14.4563,22.9875,,0.02935500000000002,0.3397274495827501,0.2579537007013418,non_fall
0.928471,-0.0869,0.2168,-0.2467,-0.0344,-0.1376,-0.0248,42.7688,14.4563,22.9875,,0.0011720000000000619,0.3397274495827501,0.19622534257606442,non_fall
0.92904,-0.0558,0.0307,0.0331,-0.0344,-0.1376,-0.0248,42.7688,14.4563,22.9875,,0.0005689999999999307,0.07177562260266364,0.12928935546044137,non_fall
0.957744,-0.0558,0.0307,0.0331,-0.0344,-0.1376,-0.0248,42.7875,14.3063,22.7438,,0.028704000000000063,0.07177562260266364,0.07008983665783783,non_fall
0.988914,-0.0558,0.0307,0.0331,-0.0344,-0.1376,-0.0248,42.7875,14.3063,22.7438,,0.03116999999999992,0.07177562260266364,0.032738109483108103,non_fall
0.991786,0.0272,-0.0392,-0.0256,-0.0344,-0.1376,-0.0248,42.7875,14.3063,22.7438,,0.0028719999999999857,0.05414646802885669,0.029993409217145935,non_fall
0.993529,0.0272,-0.0392,-0.0256,0.2542,0.2931,0.0704,42.7875,14.3063,22.7438,,0.00174300000000005,0.05414646802885669,0.07063007186995302,non_fall
1.018257,0.0272,-0.0392,-0.0256,0.2542,0.2931,0.0704,42.7875,14.2688,22.7063,,0.024727999999999972,0.05414646802885669,0.1571753322539354,non_fall
1.048188,0.0272,-0.0392,-0.0256,0.0089,0.6302,0.2277,42.7875,14.2688,22.7063,,0.02993099999999993,0.05414646802885669,0.2845354141687592,non_fall
1.049457,0.0272,-0.0392,-0.0256,0.0089,0.6302,0.2277,42.7875,14.2688,22.7063,,0.0012690000000001866,0.05414646802885669,0.43999186312177146,non_fall
1.05027,0.0514,-0.5182,0.7535,0.0089,0.6302,0.2277,42.7875,14.2688,22.7063,,0.0008129999999999526,0.9159341952345703,0.6048478587660817,non_fall
1.079737,0.0514,-0.5182,0.7535,0.0089,0.6302,0.2277,42.7313,14.3063,22.9875,,0.02946699999999991,0.9159341952345703,0.7575894284957662,non_fall
1.108256,0.0514,-0.5182,0.7535,0.0089,0.6302,0.2277,42.7313,14.3063,22.9875,,0.02851899999999996,0.9159341952345703,0.8779305522636279,non_fall
1.108956,0.0514,-0.5182,0.7535,-0.2868,-0.0527,0.3551,42.7313,14.3063,22.9875,,0.000700000000000145,0.9159341952345703,0.9508055170981458,non_fall
1.109512,0.2321,0.4812,-0.9494,-0.2868,-0.0527,0.3551,42.7313,14.3063,22.9875,,0.0005560000000000009,1.0893962594024271,0.9694108491628851,non_fall
1.137953,0.2321,0.4812,-0.9494,-0.2868,-0.0527,0.3551,42.6375,14.1563,23.1938,,0.02844099999999994,1.0893962594024271,0.936664184695911,non_fall
1.169609,0.2321,0.4812,-0.9494,-0.1192,0.653,-0.1256,42.6375,14.1563,23.1938,,0.031655999999999906,1.0893962594024271,0.8647382808765429,non_fall
1.171169,0.2321,0.4812,-0.9494,-0.1192,0.653,-0.1256,42.6375,14.1563,23.1938,,0.0015600000000000058,1.0893962594024271,0.7726127255145324,non_fall
1.189462,-0.195,-0.1649,-0.0499,-0.1192,0.653,-0.1256,42.6375,14.1563,23.1938,,0.018293000000000115,0.2602057263013249,0.6819689626274041,non_fall
1.198104,-0.195,-0.1649,-0.0499,-0.1192,0.653,-0.1256,42.2812,13.7438,23.5875,,0.008642000000000039,0.2602057263013249,0.6122634599622299,non_fall
1.23003,-0.195,-0.1649,-0.0499,-0.0646,0.6238,0.1514,42.2812,13.7438,23.5875,,0.0319259999999999,0.2602057263013249,0.5762579650164903,non_fall
1.231107,-0.195,-0.1649,-0.0499,-0.0646,0.6238,0.1514,42.2812,13.7438,23.5875,,0.0010769999999999946,0.2602057263013249,0.5773392643383226,non_fall
1.251011,0.8367,-0.1291,0.3164,-0.0646,0.6238,0.1514,42.2812,13.7438,23.5875,,0.019904000000000144,0.9037934830479805,0.6094466853686654,non_fall
1.257125,0.8367,-0.1291,0.3164,-0.0646,0.6238,0.1514,41.925,13.3125,24.0375,,0.006113999999999953,0.9037934830479805,0.6595221732665569,non_fall
1.292341,0.8367,-0.1291,0.3164,0.016,0.1862,-0.0198,41.925,13.3125,24.0375,,0.035215999999999914,0.9037934830479805,0.711540872176652,non_fall
1.293633,0.8367,-0.1291,0.3164,0.016,0.1862,-0.0198,41.925,13.3125,24.0375,,0.0012920000000000709,0.9037934830479805,0.7507712681316615,non_fall
1.312629,-0.6617,0.2096,-0.1871,0.016,0.1862,-0.0198,41.925,13.3125,24.0375,,0.018996000000000013,0.7188779173128077,0.7670756714114358,non_fall
1.318151,-0.6617,0.2096,-0.1871,0.016,0.1862,-0.0198,41.5312,12.9938,24.6938,,0.005522000000000027,0.7188779173128077,0.7565979209125917,non_fall
1.35483,-0.6617,0.2096,-0.1871,0.153,-0.0397,0.0438,41.5312,12.9938,24.6938,,0.036678999999999906,0.7188779173128077,0.7217652876594015,non_fall
1.355618,-0.6617,0.2096,-0.1871,0.153,-0.0397,0.0438,41.5312,12.9938,24.6938,,0.0007880000000000109,0.7188779173128077,0.6699231655737916,non_fall
1.379424,-0.6617,0.2096,-0.1871,0.153,-0.0397,0.0438,41.0813,12.675,25.2938,,0.023805999999999994,0.7188779173128077,0.6110848864927312,non_fall
1.392555,-0.0726,0.2891,0.1784,0.153,-0.0397,0.0438,41.0813,12.675,25.2938,,0.013131000000000004,0.34738470029637175,0.5553171034778271,non_fall
1.412743,-0.0726,0.2891,0.1784,0.1907,0.0278,0.0999,41.0813,12.675,25.2938,,0.020188000000000095,0.34738470029637175,0.5103059805791006,non_fall
1.41342,-0.0726,0.2891,0.1784,0.1907,0.0278,0.0999,41.0813,12.675,25.2938,,0.0006769999999998166,0.34738470029637175,0.4796605329412509,non_fall
1.437722,-0.0726,0.2891,0.1784,0.1907,0.0278,0.0999,40.5938,12.4313,25.9313,,0.024302000000000046,0.34738470029637175,0.4623988113819697,non_fall
1.454921,0.364,-0.3341,-0.3391,0.1907,0.0278,0.0999,40.5938,12.4313,25.9313,,0.017198999999999964,0.5992558885818311,0.4537565374958422,non_fall
1.474199,0.364,-0.3341,-0.3391,0.1985,0.2124,0.163,40.5938,12.4313,25.9313,,0.01927800000000013,0.5992558885818311,0.4470319467029491,non_fall
1.475656,0.364,-0.3341,-0.3391,0.1985,0.2124,0.163,40.5938,12.4313,25.9313,,0.0014570000000000416,0.5992558885818311,0.43582349477451143,non_fall
1.49836,0.364,-0.3341,-0.3391,0.1985,0.2124,0.163,40.2938,12.2625,26.55,,0.022703999999999835,0.5992558885818311,0.41590420100317227,non_fall
1.514295,0.2444,0.0006,-0.0254,0.1985,0.2124,0.163,40.2938,12.2625,26.55,,0.015935000000000032,0.24571707307389123,0.3861669613300112,non_fall
1.534847,0.2444,0.0006,-0.0254,0.1839,0.0953,0.1854,40.2938,12.2625,26.55,,0.020552000000000126,0.24571707307389123,0.3484784871441069,non_fall
1.536481,0.2444,0.0006,-0.0254,0.1839,0.0953,0.1854,40.2938,12.2625,26.55,,0.0016339999999999133,0.24571707307389123,0.3066978002552851,non_fall
1.557026,0.2444,0.0006,-0.0254,0.1839,0.0953,0.1854,40.0312,12.1125,27.1313,,0.020545000000000035,0.24571707307389123,0.26535125120177305,non_fall
1.575828,-0.1637,0.0772,-0.0737,0.1839,0.0953,0.1854,40.0312,12.1125,27.1313,,0.018801999999999985,0.19542062327195667,0.22843725187037767,non_fall
1.597008,-0.1637,0.0772,-0.0737,0.1839,0.0953,0.1854,40.0312,12.1125,27.1313,,0.021179999999999977,0.19542062327195667,0.19864716486409323,non_fall
1.598064,-0.1637,0.0772,-0.0737,0.1385,0.0434,0.1676,40.0312,12.1125,27.1313,,0.0010559999999999459,0.19542062327195667,0.17707762676084313,non_fall
1.618032,-0.1637,0.0772,-0.0737,0.1385,0.0434,0.1676,39.675,12.0563,27.4875,,0.019967999999999986,0.19542062327195667,0.1633570985912723,non_fall
1.657472,-0.1637,0.0772,-0.0737,0.1385,0.0434,0.1676,39.675,12.0563,27.4875,,0.03944000000000014,0.19542062327195667,0.15602925041124052,non_fall
1.659003,-0.1637,0.0772,-0.0737,0.1389,-0.1748,0.1734,39.675,12.0563,27.4875,,0.001530999999999949,0.19542062327195667,0.153022069536544,non_fall
1.66015,-0.0878,0.03,-0.0273,0.1389,-0.1748,0.1734,39.675,12.0563,27.4875,,0.0011470000000000091,0.09671675139292056,0.15207781167678164,non_fall
1.679572,-0.0878,0.03,-0.0273,0.1389,-0.1748,0.1734,39.6,12.1125,27.7125,,0.01942200000000005,0.09671675139292056,0.15110412320798278,non_fall
1.72003,-0.0878,0.03,-0.0273,0.1389,-0.1748,0.1734,39.6,12.1125,27.7125,,0.04045799999999988,0.09671675139292056,0.14848527856788524,non_fall
1.721508,-0.0878,0.03,-0.0273,0.1104,-0.2935,0.1244,39.6,12.1125,27.7125,,0.0014780000000000904,0.09671675139292056,0.14340911462219402,non_fall
1.722938,-0.2652,0.0786,-0.0926,0.1104,-0.2935,0.1244,39.6,12.1125,27.7125,,0.0014300000000000423,0.2916912065866916,0.1361941096859202,non_fall
1.745735,-0.2652,0.0786,-0.0926,0.1104,-0.2935,0.1244,39.675,12.1125,27.8625,,0.022796999999999956,0.2916912065866916,0.1284808572124039,non_fall
1.779963,-0.0328,-0.0845,0.0015,0.1104,-0.2935,0.1244,39.675,12.1125,27.8625,,0.034227999999999925,0.09065506053166586,0.12308116446292283,non_fall
1.781266,-0.0328,-0.0845,0.0015,0.1314,-0.1546,0.1525,39.675,12.1125,27.8625,,0.0013030000000000541,0.09065506053166586,0.12334999936822084,non_fall
1.782172,-0.0328,-0.0845,0.0015,0.1314,-0.1546,0.1525,39.675,12.1125,27.8625,,0.0009060000000000734,0.09065506053166586,0.13215522893640932,non_fall
1.80351,-0.0328,-0.0845,0.0015,0.1314,-0.1546,0.1525,39.8438,12.075,27.6375,,0.021337999999999857,0.09065506053166586,0.1507441441881571,non_fall
1.845869,-0.0328,-0.0845,0.0015,0.1314,-0.1546,0.1525,39.8438,12.075,27.6375,,0.042359000000000036,0.09065506053166586,0.1779122188973948,non_fall
1.847705,-0.0328,-0.0845,0.0015,0.1775,0.0826,0.2316,39.8438,12.075,27.6375,,0.0018359999999999488,0.09065506053166586,0.20983305609639272,non_fall
1.862203,-0.0328,-0.0845,0.0015,0.1775,0.0826,0.2316,40.05,12.1313,27.6375,,0.014498000000000122,0.09065506053166586,0.24074529918686577,non_fall
1.863649,0.4238,-0.0926,-0.0693,0.1775,0.0826,0.2316,40.05,12.1313,27.6375,,0.0014459999999998363,0.4392990894595617,0.264445318774688,non_fall
1.903727,0.4238,-0.0926,-0.0693,0.1374,0.2326,0.2571,40.05,12.1313,27.6375,,0.04007800000000006,0.4392990894595617,0.2762367420328049,non_fall
1.905429,0.4238,-0.0926,-0.0693,0.1374,0.2326,0.2571,40.05,12.1313,27.6375,,0.0017020000000000923,0.4392990894595617,0.2747332042320009,non_fall
1.920538,0.4238,-0.0926,-0.0693,0.1374,0.2326,0.2571,40.125,12.0,27.5813,,0.015109000000000039,0.4392990894595617,0.2628475284710127,non_fall
1.921344,0.1399,-0.058,-0.0486,0.1374,0.2326,0.2571,40.125,12.0,27.5813,,0.0008059999999998624,0.15905335582753355,0.24751824964697464,non_fall
1.962266,0.1399,-0.058,-0.0486,-0.2967,0.2586,0.2475,40.125,12.0,27.5813,,0.040922000000000125,0.15905335582753355,0.23815582328900425,non_fall
1.963795,0.1399,-0.058,-0.0486,-0.2967,0.2586,0.2475,40.125,12.0,27.5813,,0.0015289999999998916,0.15905335582753355,0.24424553629706383,non_fall
1.97838,0.1399,-0.058,-0.0486,-0.2967,0.2586,0.2475,39.9188,11.6063,27.6,,0.01458500000000007,0.15905335582753355,0.27282973185043047,non_fall
1.987064,0.208,0.1254,0.151,-0.2967,0.2586,0.2475,39.9188,11.6063,27.6,,0.008683999999999914,0.28598979002754626,0.32662152370870967,non_fall
2.029167,0.208,0.1254,0.151,-0.2967,0.2586,0.2475,39.9188,11.6063,27.6,,0.042103000000000224,0.28598979002754626,0.4033187674172939,non_fall
2.031021,0.208,0.1254,0.151,-0.6908,0.0253,0.3839,39.9188,11.6063,27.6,,0.0018539999999998003,0.28598979002754626,0.49639359683613493,non_fall
2.046142,0.208,0.1254,0.151,-0.6908,0.0253,0.3839,39.9375,10.875,27.6563,,0.015121000000000162,0.28598979002754626,0.597294013562316,non_fall
2.048258,0.3359,0.2003,1.1718,-0.6908,0.0253,0.3839,39.9375,10.875,27.6563,,0.0021160000000000068,1.2353396860782866,0.6986007551700828,non_fall
2.08761,0.3359,0.2003,1.1718,-0.8083,-0.116,0.7892,39.9375,10.875,27.6563,,0.039352000000000054,1.2353396860782866,0.7972384560578475,non_fall
2.089321,0.3359,0.2003,1.1718,-0.8083,-0.116,0.7892,39.9375,10.875,27.6563,,0.001710999999999796,1.2353396860782866,0.8965166472261092,non_fall
2.10456,0.3359,0.2003,1.1718,-0.8083,-0.116,0.7892,40.1063,9.8438,27.8438,,0.015239000000000225,1.2353396860782866,1.0058933102467786,non_fall
2.129462,-0.5061,-0.2137,-0.729,-0.8083,-0.116,0.7892,40.1063,9.8438,27.8438,,0.02490199999999998,0.9128230387101324,1.1380729135628378,non_fall
2.146089,-0.5061,-0.2137,-0.729,0.1268,-0.1141,0.3437,40.1063,9.8438,27.8438,,0.016626999999999725,0.9128230387101324,1.3041306190136244,non_fall
2.147101,-0.5061,-0.2137,-0.729,0.1268,-0.1141,0.3437,40.1063,9.8438,27.8438,,0.001012000000000235,0.9128230387101324,1.508286768584137,non_fall
2.163102,-0.5061,-0.2137,-0.729,0.1268,-0.1141,0.3437,40.2563,8.7938,27.9938,,0.01600099999999971,0.9128230387101324,1.7442810895694836,non_fall
2.188603,1.0625,1.6219,1.9352,0.1268,-0.1141,0.3437,40.2563,8.7938,27.9938,,0.025501000000000218,2.739427841721698,1.9947977002106623,non_fall
2.205365,1.0625,1.6219,1.9352,0.1268,-0.1141,0.3437,40.2563,8.7938,27.9938,,0.016761999999999944,2.739427841721698,2.234206572270026,non_fall
2.206353,1.0625,1.6219,1.9352,0.2376,-0.3218,0.9302,40.2563,8.7938,27.9938,,0.0009879999999999889,2.739427841721698,2.4335767244509996,backward_fall
2.221025,1.0625,1.6219,1.9352,0.2376,-0.3218,0.9302,40.3688,7.7813,28.1063,,0.014672000000000018,2.739427841721698,2.566245559500623,backward_fall
2.254637,-0.2952,-1.7082,-1.2104,0.2376,-0.3218,0.9302,40.3688,7.7813,28.1063,,0.03361199999999975,2.1142749206288194,2.6125711200988104,backward_fall
2.271424,-0.2952,-1.7082,-1.2104,1.2706,0.1684,1.4046,40.3688,7.7813,28.1063,,0.01678700000000033,2.1142749206288194,2.5634672746197023,backward_fall
2.273197,-0.2952,-1.7082,-1.2104,1.2706,0.1684,1.4046,40.3688,7.7813,28.1063,,0.0017730000000000246,2.1142749206288194,2.4231329653254328,backward_fall
2.280759,-0.2952,-1.7082,-1.2104,1.2706,0.1684,1.4046,40.5938,6.5063,28.4438,,0.007562000000000069,2.1142749206288194,2.211467136709876,backward_fall
2.313037,0.9827,-1.7517,-1.3476,1.2706,0.1684,1.4046,40.5938,6.5063,28.4438,,0.03227799999999981,2.418714108777637,1.9659849796178612,backward_fall
2.329584,0.9827,-1.7517,-1.3476,1.2706,0.1684,1.4046,40.5938,6.5063,28.4438,,0.01654700000000009,2.418714108777637,1.7420617747450866,backward_fall
2.331567,0.9827,-1.7517,-1.3476,2.8447,-0.0169,3.2601,40.5938,6.5063,28.4438,,0.001983000000000068,2.418714108777637,1.6096602261798663,backward_fall
2.346174,0.9827,-1.7517,-1.3476,2.8447,-0.0169,3.2601,40.5375,4.7625,28.3313,,0.014606999999999815,2.418714108777637,1.6448597779792844,backward_fall
2.388224,0.9827,-1.7517,-1.3476,2.6135,-1.93,3.56,40.5375,4.7625,28.3313,,0.04205000000000014,2.418714108777637,1.9156940597131695,backward_fall
2.390634,-0.9651,1.1209,1.6668,2.6135,-1.93,3.56,40.5375,4.7625,28.3313,,0.002409999999999801,2.22846518034274,2.463829980884791,backward_fall
2.391954,-0.9651,1.1209,1.6668,2.6135,-1.93,3.56,40.5375,4.7625,28.3313,,0.00132000000000021,2.22846518034274,3.2859840579098667,backward_fall
2.405006,-0.9651,1.1209,1.6668,2.6135,-1.93,3.56,40.9125,2.55,28.125,,0.013052000000000064,2.22846518034274,4.320927350472918,backward_fall
2.455072,-0.9651,1.1209,1.6668,3.0172,-0.3531,3.1052,40.9125,2.55,28.125,,0.05006599999999972,2.22846518034274,5.448582186529222,backward_fall
2.456887,-0.9651,1.1209,1.6668,3.0172,-0.3531,3.1052,40.9125,2.55,28.125,,0.001815000000000122,2.22846518034274,6.506135118672642,backward_fall
2.457943,3.8593,-6.7964,-8.733,3.0172,-0.3531,3.1052,40.9125,2.55,28.125,,0.001056000000000168,11.719664604842581,7.321629786990605,backward_fall
2.460086,3.8593,-6.7964,-8.733,3.0172,-0.3531,3.1052,41.3813,0.2625,27.6563,,0.002142999999999784,11.719664604842581,7.758613485088171,backward_fall
2.513258,3.8593,-6.7964,-8.733,3.0974,-2.308,2.7741,41.3813,0.2625,27.6563,,0.053172,11.719664604842581,7.758728877033499,backward_fall
2.514895,3.8593,-6.7964,-8.733,3.0974,-2.308,2.7741,41.3813,0.2625,27.6563,,0.0016370000000001106,11.719664604842581,7.366880088208207,backward_fall
2.515656,2.179,-1.2451,-2.2403,3.0974,-2.308,2.7741,41.3813,0.2625,27.6563,,0.0007609999999997896,3.364113419609987,6.72837568864904,backward_fall
2.518246,2.179,-1.2451,-2.2403,3.0974,-2.308,2.7741,41.9813,-1.7063,26.5875,,0.0025900000000000922,3.364113419609987,6.057599932719691,backward_fall
2.57076,2.179,-1.2451,-2.2403,1.3522,2.2558,2.3154,41.9813,-1.7063,26.5875,,0.05251399999999995,3.364113419609987,5.5882147786381715,backward_fall
2.573006,2.179,-1.2451,-2.2403,1.3522,2.2558,2.3154,41.9813,-1.7063,26.5875,,0.0022459999999999702,3.364113419609987,5.520551319945899,backward_fall
2.577743,2.179,-1.2451,-2.2403,1.3522,2.2558,2.3154,41.6438,-3.7875,26.3063,,0.004736999999999991,3.364113419609987,5.98070603160347,backward_fall
2.59032,-3.1935,0.7162,10.1061,1.3522,2.2558,2.3154,41.6438,-3.7875,26.3063,,0.012577000000000282,10.622835869013509,6.999655485223106,backward_fall
2.631485,-3.1935,0.7162,10.1061,4.2892,8.6213,7.8357,41.6438,-3.7875,26.3063,,0.041164999999999896,10.622835869013509,8.51298338081542,backward_fall
2.632941,-3.1935,0.7162,10.1061,4.2892,8.6213,7.8357,41.6438,-3.7875,26.3063,,0.0014560000000001239,10.622835869013509,10.375909422358227,backward_fall
2.639988,-3.1935,0.7162,10.1061,4.2892,8.6213,7.8357,38.4188,-6.1688,28.0313,,0.007046999999999581,10.622835869013509,12.386413351299316,backward_fall
2.65244,-12.9637,-3.7328,-6.841,4.2892,8.6213,7.8357,38.4188,-6.1688,28.0313,,0.01245200000000013,15.12582541648554,14.311277145547377,backward_fall
2.692852,-12.9637,-3.7328,-6.841,8.4867,9.9015,5.1323,38.4188,-6.1688,28.0313,,0.04041199999999989,15.12582541648554,15.913222191844788,backward_fall
2.694811,-12.9637,-3.7328,-6.841,8.4867,9.9015,5.1323,38.4188,-6.1688,28.0313,,0.001959000000000266,15.12582541648554,16.97922574412843,backward_fall
2.698322,-12.9637,-3.7328,-6.841,8.4867,9.9015,5.1323,32.1,-5.4,29.8688,,0.003511000000000042,15.12582541648554,17.34984121442306,backward_fall
2.713033,-7.468,-4.5589,16.87,8.4867,9.9015,5.1323,32.1,-5.4,29.8688,,0.014710999999999697,19.003986245259178,16.947492872875422,backward_fall
2.754119,-7.468,-4.5589,16.87,2.9614,6.1693,3.265,32.1,-5.4,29.8688,,0.0410860000000004,19.003986245259178,15.79875621312058,backward_fall
2.755144,-7.468,-4.5589,16.87,2.9614,6.1693,3.265,32.1,-5.4,29.8688,,0.0010249999999998316,19.003986245259178,14.042675288616502,backward_fall
2.756799,-7.468,-4.5589,16.87,2.9614,6.1693,3.265,24.3563,-2.6438,29.1938,,0.001654999999999962,19.003986245259178,11.916799475050308,backward_fall
2.773153,0.1681,-0.2675,1.9874,2.9614,6.1693,3.265,24.3563,-2.6438,29.1938,,0.0163540000000002,2.0123549935336955,9.717467424441807,backward_fall
2.815131,0.1681,-0.2675,1.9874,2.9614,6.1693,3.265,24.3563,-2.6438,29.1938,,0.04197799999999985,2.0123549935336955,7.7407284540269705,backward_fall
2.816077,0.1681,-0.2675,1.9874,1.6305,1.8557,2.4102,24.3563,-2.6438,29.1938,,0.0009459999999998914,2.0123549935336955,6.2205258671426975,backward_fall
2.817911,0.1681,-0.2675,1.9874,1.6305,1.8557,2.4102,16.8563,1.4813,28.8188,,0.0018340000000001133,2.0123549935336955,5.284430379263057,backward_fall
2.854126,0.7668,0.4633,8.3581,1.6305,1.8557,2.4102,16.8563,1.4813,28.8188,,0.036214999999999886,8.405977916935067,4.940781602629362,backward_fall
2.874309,0.7668,0.4633,8.3581,-0.2225,3.0375,3.3835,16.8563,1.4813,28.8188,,0.02018299999999984,8.405977916935067,5.0980438584710495,backward_fall
2.875905,0.7668,0.4633,8.3581,-0.2225,3.0375,3.3835,16.8563,1.4813,28.8188,,0.0015960000000001529,8.405977916935067,5.605027949584378,backward_fall
2.877575,0.7668,0.4633,8.3581,-0.2225,3.0375,3.3835,9.1875,6.7688,28.0875,,0.0016700000000002824,8.405977916935067,6.295211192584377,backward_fall
2.914839,-2.0725,-2.7745,5.7629,-0.2225,3.0375,3.3835,9.1875,6.7688,28.0875,,0.037263999999999964,6.723401141535436,7.020862294511998,backward_fall
2.935719,-2.0725,-2.7745,5.7629,-0.2225,3.0375,3.3835,9.1875,6.7688,28.0875,,0.02088000000000001,6.723401141535436,7.6701379337449715,backward_fall
2.9372,-2.0725,-2.7745,5.7629,-0.9297,2.9417,3.4489,9.1875,6.7688,28.0875,,0.0014809999999996215,6.723401141535436,8.168389799971248,backward_fall
2.941341,-2.0725,-2.7745,5.7629,-0.9297,2.9417,3.4489,2.1938,12.6188,27.2438,,0.004141000000000172,6.723401141535436,8.470292317808546,backward_fall
2.977715,-2.1935,-3.7874,6.7392,-0.9297,2.9417,3.4489,2.1938,12.6188,27.2438,,0.036373999999999906,8.035711396634401,8.55083926929282,backward_fall
2.999032,-2.1935,-3.7874,6.7392,-1.4899,2.6134,3.3062,2.1938,12.6188,27.2438,,0.021317000000000252,8.035711396634401,8.40130971917543,backward_fall
3.001339,-2.1935,-3.7874,6.7392,-1.4899,2.6134,3.3062,2.1938,12.6188,27.2438,,0.002307000000000059,8.035711396634401,8.032509264683343,backward_fall
3.002384,-2.1935,-3.7874,6.7392,-1.4899,2.6134,3.3062,-4.2188,18.75,27.1313,,0.0010449999999999626,8.035711396634401,7.483643723574205,backward_fall
3.059498,-2.1935,-3.7874,6.7392,-1.4899,2.6134,3.3062,-4.2188,18.75,27.1313,,0.05711399999999989,8.035711396634401,6.832285179181476,backward_fall
3.060468,-3.4721,-3.5164,5.2716,-1.4899,2.6134,3.3062,-4.2188,18.75,27.1313,,0.0009700000000001374,7.225670483076294,6.19957292860428,backward_fall
3.061135,-3.4721,-3.5164,5.2716,-1.4899,2.6134,3.3062,-9.4688,25.05,26.7938,,0.0006669999999999732,7.225670483076294,5.745147933083698,backward_fall
3.061649,-3.4721,-3.5164,5.2716,-1.9368,2.2096,3.1369,-9.4688,25.05,26.7938,,0.0005139999999999034,7.225670483076294,5.648264713434564,backward_fall
3.119827,-3.4721,-3.5164,5.2716,-1.1935,-1.0926,3.6375,-9.4688,25.05,26.7938,,0.05817799999999984,7.225670483076294,6.0748264741372635,backward_fall
3.12128,-3.4721,-3.5164,5.2716,-1.1935,-1.0926,3.6375,-9.4688,25.05,26.7938,,0.0014530000000001486,7.225670483076294,7.134365045919961,backward_fall
3.121965,-4.1851,-3.0313,3.9298,-1.1935,-1.0926,3.6375,-9.4688,25.05,26.7938,,0.0006849999999998246,6.492085161178957,8.835666745152242,backward_fall
3.123086,-4.1851,-3.0313,3.9298,-1.1935,-1.0926,3.6375,-10.6875,31.2938,25.1625,,0.0011209999999999276,6.492085161178957,11.053803669532446,backward_fall
3.180517,-4.1851,-3.0313,3.9298,1.6827,-11.9388,1.1336,-10.6875,31.2938,25.1625,,0.05743100000000023,6.492085161178957,13.523032098022485,backward_fall
3.186442,-4.1851,-3.0313,3.9298,1.6827,-11.9388,1.1336,-6.6,34.9875,21.825,,0.005924999999999958,6.492085161178957,15.86712636188072,backward_fall
3.187592,26.4043,-1.8032,3.7471,1.6827,-11.9388,1.1336,-6.6,34.9875,21.825,,0.0011499999999999844,26.729746484768608,17.669437561820303,backward_fall
3.188889,26.4043,-1.8032,3.7471,1.6827,-11.9388,1.1336,-6.6,34.9875,21.825,,0.0012970000000001036,26.729746484768608,18.570069979168768,backward_fall
3.239343,26.4043,-1.8032,3.7471,1.6827,-11.9388,1.1336,0.675,37.35,18.75,,0.05045399999999978,26.729746484768608,18.362727119543493,backward_fall
3.241826,26.4043,-1.8032,3.7471,1.6827,-11.9388,1.1336,0.675,37.35,18.75,,0.002483000000000235,26.729746484768608,17.058132667930227,backward_fall
3.242417,2.2529,-1.7698,5.7977,1.6827,-11.9388,1.1336,0.675,37.35,18.75,,0.0005910000000000082,6.466921658718311,14.890251904165247,backward_fall
3.243149,2.2529,-1.7698,5.7977,2.1172,-11.5281,0.2738,0.675,37.35,18.75,,0.0007319999999997329,6.466921658718311,12.262445497757527,backward_fall
3.299558,2.2529,-1.7698,5.7977,2.1172,-11.5281,0.2738,5.55,37.9875,12.525,,0.056409000000000376,6.466921658718311,9.652315811968554,backward_fall
3.302043,2.2529,-1.7698,5.7977,2.1172,-11.5281,0.2738,5.55,37.9875,12.525,,0.0024849999999996264,6.466921658718311,7.5054287573067064,backward_fall
3.303433,2.2529,-1.7698,5.7977,1.4605,-10.6513,0.3334,5.55,37.9875,12.525,,0.0013900000000002244,6.466921658718311,6.145724236957035,backward_fall
3.321925,2.4738,0.2587,4.0755,1.4605,-10.6513,0.3334,5.55,37.9875,12.525,,0.01849199999999973,4.7745483953982495,5.719583546103307,backward_fall
3.35912,2.4738,0.2587,4.0755,1.4605,-10.6513,0.3334,10.275,37.0875,6.0375,,0.03719500000000009,4.7745483953982495,6.17940618386843,backward_fall
3.361574,2.4738,0.2587,4.0755,-0.6727,-5.2978,7.515,10.275,37.0875,6.0375,,0.0024540000000001783,4.7745483953982495,7.305292879708349,backward_fall
3.362732,2.4738,0.2587,4.0755,-0.6727,-5.2978,7.515,10.275,37.0875,6.0375,,0.0011579999999997703,4.7745483953982495,8.759075989785577,backward_fall
3.383524,-13.9553,-7.2491,-4.0104,-0.6727,-5.2978,7.515,10.275,37.0875,6.0375,,0.020792000000000144,16.229083679000485,10.16076333696069,backward_fall
3.418868,-13.9553,-7.2491,-4.0104,-0.6727,-5.2978,7.515,12.9375,35.925,-0.75,,0.03534399999999982,16.229083679000485,11.172263039479722,backward_fall
3.423887,-13.9553,-7.2491,-4.0104,-0.4053,-5.8247,-3.2929,12.9375,35.925,-0.75,,0.005019000000000329,16.229083679000485,11.569008296215726,backward_fall
3.424765,-13.9553,-7.2491,-4.0104,-0.4053,-5.8247,-3.2929,12.9375,35.925,-0.75,,0.0008779999999997123,16.229083679000485,11.280931102178593,backward_fall
3.444065,4.7691,-0.623,-0.3267,-0.4053,-5.8247,-3.2929,12.9375,35.925,-0.75,,0.019300000000000317,4.820702925922733,10.392562785030757,backward_fall
3.479342,4.7691,-0.623,-0.3267,-0.4053,-5.8247,-3.2929,12.9,34.725,-8.0063,,0.03527699999999978,4.820702925922733,9.105441828666626,backward_fall
3.483833,4.7691,-0.623,-0.3267,-0.4053,-5.8247,-3.2929,12.9,34.725,-8.0063,,0.004491000000000245,4.820702925922733,7.678200132371447,backward_fall
3.48423,4.7691,-0.623,-0.3267,0.6671,-9.3264,2.0268,12.9,34.725,-8.0063,,0.0003969999999999807,4.820702925922733,6.364656760210887,backward_fall
3.524431,-6.0509,-0.5294,-1.2946,0.6671,-9.3264,2.0268,12.9,34.725,-8.0063,,0.04020099999999971,6.210446387338031,5.366315419291761,backward_fall
3.537708,-6.0509,-0.5294,-1.2946,0.6671,-9.3264,2.0268,9.6375,33.9938,-13.2375,,0.013276999999999983,6.210446387338031,4.806452237153933,backward_fall
3.544697,-6.0509,-0.5294,-1.2946,-0.472,-12.2601,-0.5153,9.6375,33.9938,-13.2375,,0.006989000000000356,6.210446387338031,4.7241284297394,backward_fall
3.546245,-6.0509,-0.5294,-1.2946,-0.472,-12.2601,-0.5153,9.6375,33.9938,-13.2375,,0.0015479999999996608,6.210446387338031,5.081636824437072,backward_fall
3.586273,0.378,0.485,-5.4342,-0.472,-12.2601,-0.5153,9.6375,33.9938,-13.2375,,0.04002799999999995,5.468879102704684,5.778622476712112,backward_fall
3.600436,0.378,0.485,-5.4342,-0.472,-12.2601,-0.5153,5.025,33.3375,-19.8938,,0.01416300000000037,5.468879102704684,6.6688582945663475,backward_fall
3.607096,0.378,0.485,-5.4342,-0.472,-12.2601,-0.5153,5.025,33.3375,-19.8938,,0.006659999999999666,5.468879102704684,7.57909714339434,backward_fall
3.607793,0.378,0.485,-5.4342,0.0266,4.023,-0.1976,5.025,33.3375,-19.8938,,0.0006970000000001697,5.468879102704684,8.331423410373853,backward_fall
3.646673,7.7627,0.1835,8.2976,0.0266,4.023,-0.1976,5.025,33.3375,-19.8938,,0.038879999999999804,11.364125540489246,8.769771502447199,backward_fall
3.657859,7.7627,0.1835,8.2976,0.0266,4.023,-0.1976,-2.3438,32.325,-24.5438,,0.011186000000000362,11.364125540489246,8.787874781514258,backward_fall
3.666183,7.7627,0.1835,8.2976,-0.006,-2.8626,-0.1345,-2.3438,32.325,-24.5438,,0.008323999999999998,11.364125540489246,8.351832706915166,backward_fall
3.667574,7.7627,0.1835,8.2976,-0.006,-2.8626,-0.1345,-2.3438,32.325,-24.5438,,0.00139099999999992,11.364125540489246,7.508893622406491,backward_fall
3.706915,-0.6197,-0.0068,2.2177,-0.006,-2.8626,-0.1345,-2.3438,32.325,-24.5438,,0.03934099999999985,2.3026653295691926,6.377105321536281,backward_fall
3.717552,-0.6197,-0.0068,2.2177,-0.006,-2.8626,-0.1345,-10.5375,31.2938,-26.0438,,0.010637000000000008,2.3026653295691926,5.117377925982652,backward_fall
3.727104,-0.6197,-0.0068,2.2177,0.0096,-0.3574,-0.2353,-10.5375,31.2938,-26.0438,,0.009552000000000227,2.3026653295691926,3.896570242111937,backward_fall
3.727933,-0.6197,-0.0068,2.2177,0.0096,-0.3574,-0.2353,-10.5375,31.2938,-26.0438,,0.0008289999999999687,2.3026653295691926,2.853274447662058,backward_fall
3.782669,-0.6197,-0.0068,2.2177,0.0096,-0.3574,-0.2353,-17.2875,30.3188,-24.9,,0.054735999999999674,2.3026653295691926,2.0755000576714515,backward_fall
3.788096,-0.6197,-0.0068,2.2177,0.0128,0.1766,-0.1686,-17.2875,30.3188,-24.9,,0.005427000000000071,2.3026653295691926,1.5936818589853667,backward_fall
3.78908,0.5762,-0.1129,1.7644,0.0128,0.1766,-0.1686,-17.2875,30.3188,-24.9,,0.0009839999999998739,1.8595322557030303,1.3870275085682038,backward_fall
3.790128,0.5762,-0.1129,1.7644,0.0128,0.1766,-0.1686,-17.2875,30.3188,-24.9,,0.001048000000000382,1.8595322557030303,1.398300355247719,backward_fall
3.839334,0.5762,-0.1129,1.7644,0.0128,0.1766,-0.1686,-24.075,30.075,-22.8938,,0.04920599999999986,1.8595322557030303,1.551703228278003,backward_fall
3.850681,0.5762,-0.1129,1.7644,-0.0092,0.0594,0.0157,-24.075,30.075,-22.8938,,0.011346999999999774,1.8595322557030303,1.7696069564404582,backward_fall
3.851468,1.4227,0.3017,1.6331,-0.0092,0.0594,0.0157,-24.075,30.075,-22.8938,,0.0007870000000003152,2.1868044699972606,1.9854633438611993,backward_fall
3.851998,1.4227,0.3017,1.6331,-0.0092,0.0594,0.0157,-24.075,30.075,-22.8938,,0.0005299999999999194,2.1868044699972606,2.151731770611154,backward_fall
3.89932,1.4227,0.3017,1.6331,-0.0092,0.0594,0.0157,-29.6438,29.7938,-20.3438,,0.047321999999999864,2.1868044699972606,2.2427870529500926,backward_fall
3.910769,1.4227,0.3017,1.6331,-0.0092,0.0594,0.0157,-29.6438,29.7938,-20.3438,,0.011449000000000265,2.1868044699972606,2.253551008822111,backward_fall
3.911852,1.4227,0.3017,1.6331,-0.0011,-0.0084,-0.0141,-29.6438,29.7938,-20.3438,,0.0010829999999999451,2.1868044699972606,2.195057385364303,backward_fall
3.912453,0.7949,0.2135,1.5914,-0.0011,-0.0084,-0.0141,-29.6438,29.7938,-20.3438,,0.0006010000000000737,1.7916479062583697,2.0883628546861543,backward_fall
3.960085,0.7949,0.2135,1.5914,-0.0011,-0.0084,-0.0141,-33.2625,29.0813,-17.6438,,0.047631999999999675,1.7916479062583697,1.9581903232082196,backward_fall
3.972807,0.7949,0.2135,1.5914,-0.0013,-0.0027,-0.0073,-33.2625,29.0813,-17.6438,,0.012722000000000122,1.7916479062583697,1.8274663113561225,backward_fall
3.975645,0.7949,0.2135,1.5914,-0.0013,-0.0027,-0.0073,-33.2625,29.0813,-17.6438,,0.002838000000000118,1.7916479062583697,1.713518678509515,backward_fall
3.992176,0.5891,0.0544,1.4514,-0.0013,-0.0027,-0.0073,-33.2625,29.0813,-17.6438,,0.016531000000000073,1.567341740017154,1.6262115267785469,backward_fall
4.019116,0.5891,0.0544,1.4514,-0.0013,-0.0027,-0.0073,-34.0688,28.8188,-16.7812,,0.026940000000000186,1.567341740017154,1.5678619240383158,backward_fall
4.033212,0.5891,0.0544,1.4514,-0.0013,-0.0027,-0.0073,-34.0688,28.8188,-16.7812,,0.014095999999999442,1.567341740017154,1.5345254169779352,backward_fall
4.034244,0.5891,0.0544,1.4514,0.0008,0.0055,0.0033,-34.0688,28.8188,-16.7812,,0.001032000000000366,1.567341740017154,1.5181405038646925,backward_fall
4.05387,0.8518,0.2579,1.2772,0.0008,0.0055,0.0033,-34.0688,28.8188,-16.7812,,0.0196259999999997,1.5567001927153474,1.5090068434196076,backward_fall
4.07912,0.8518,0.2579,1.2772,0.0008,0.0055,0.0033,-34.5563,28.5188,-15.8063,,0.025249999999999773,1.5567001927153474,1.4981022292777393,backward_fall
4.093756,0.8518,0.2579,1.2772,0.0011,0.0027,0.0061,-34.5563,28.5188,-15.8063,,0.014636000000000315,1.5567001927153474,1.4788293460751536,backward_fall
4.095609,0.8518,0.2579,1.2772,0.0011,0.0027,0.0061,-34.5563,28.5188,-15.8063,,0.0018529999999996605,1.5567001927153474,1.4479291937895187,backward_fall
4.113829,0.5314,0.0937,1.1527,0.0011,0.0027,0.0061,-34.5563,28.5188,-15.8063,,0.018220000000000347,1.2727462197940327,1.4054914624139474,backward_fall
4.138579,0.5314,0.0937,1.1527,0.0011,0.0027,0.0061,-34.6875,28.3313,-15.4875,,0.02475000000000005,1.2727462197940327,1.3542079840312926,backward_fall
4.155132,0.5314,0.0937,1.1527,0.0011,0.0027,0.0061,-34.6875,28.3313,-15.4875,,0.01655300000000004,1.2727462197940327,1.2981947022575784,backward_fall
4.15663,0.5314,0.0937,1.1527,0.0004,0.0005,0.0029,-34.6875,28.3313,-15.4875,,0.0014979999999997773,1.2727462197940327,1.2417687692836759,backward_fall
4.175044,0.4663,0.076,1.0213,0.0004,0.0005,0.0029,-34.6875,28.3313,-15.4875,,0.01841399999999993,1.125284577340328,1.1884851047863547,backward_fall
4.198589,0.4663,0.076,1.0213,0.0004,0.0005,0.0029,-34.7438,28.0688,-15.225,,0.02354500000000037,1.125284577340328,1.140582499166289,backward_fall
4.215895,0.4663,0.076,1.0213,0.0004,0.0005,0.0029,-34.7438,28.0688,-15.225,,0.0173059999999996,1.125284577340328,1.0988533980663528,non_fall
4.217196,0.4663,0.076,1.0213,0.0004,0.0008,0.0025,-34.7438,28.0688,-15.225,,0.0013010000000006627,1.125284577340328,1.0628605428034303,non_fall
4.2604,0.4223,0.0662,0.9021,0.0004,0.0008,0.0025,-34.7438,28.0688,-15.225,,0.043203999999999354,0.9982505396943194,1.0313672118462087,non_fall
4.2619,0.4223,0.0662,0.9021,0.0004,0.0008,0.0025,-34.8,27.9938,-15.2813,,0.0015000000000000568,0.9982505396943194,1.0028320816905714,non_fall
4.275303,0.4223,0.0662,0.9021,0.0004,0.0008,0.0025,-34.8,27.9938,-15.2813,,0.013403000000000276,0.9982505396943194,0.9758491487636216,non_fall
4.27622,0.4223,0.0662,0.9021,0.0011,0.0008,0.0036,-34.8,27.9938,-15.2813,,0.0009170000000002787,0.9982505396943194,0.9494601028491242,non_fall
4.316955,0.3843,0.066,0.7933,0.0011,0.0008,0.0036,-34.8,27.9938,-15.2813,,0.040734999999999744,0.8839498741444562,0.9233026319205309,non_fall
4.319503,0.3843,0.066,0.7933,0.0011,0.0008,0.0036,-34.875,27.9,-15.375,,0.0025479999999999947,0.8839498741444562,0.897588450635211,non_fall
4.33875,0.3843,0.066,0.7933,0.0015,-0.0003,0.0036,-34.875,27.9,-15.375,,0.019247000000000014,0.8839498741444562,0.8729407674068772,non_fall
4.339799,0.3843,0.066,0.7933,0.0015,-0.0003,0.0036,-34.875,27.9,-15.375,,0.0010490000000000776,0.8839498741444562,0.8501484863910893,non_fall
4.380767,0.3441,0.0576,0.7067,0.0015,-0.0003,0.0036,-34.875,27.9,-15.375,,0.04096799999999945,0.788129088411283,0.8298989734161517,non_fall
4.382417,0.3441,0.0576,0.7067,0.0015,-0.0003,0.0036,-34.725,27.9375,-15.375,,0.0016500000000005954,0.788129088411283,0.8125451357570785,non_fall
4.400024,0.3441,0.0576,0.7067,0.0051,0.0037,0.0036,-34.725,27.9375,-15.375,,0.017606999999999928,0.788129088411283,0.7979601518528499,non_fall
4.401254,0.3441,0.0576,0.7067,0.0051,0.0037,0.0036,-34.725,27.9375,-15.375,,0.0012299999999996203,0.788129088411283,0.7855219484889813,non_fall
4.439802,0.3441,0.0576,0.7067,0.0051,0.0037,0.0036,-34.8375,27.8438,-15.525,,0.03854800000000047,0.788129088411283,0.7742330610981989,non_fall
4.461176,0.3441,0.0576,0.7067,0.0,-0.0059,0.0036,-34.8375,27.8438,-15.525,,0.021373999999999782,0.788129088411283,0.7629319680902616,non_fall
4.462662,0.3441,0.0576,0.7067,0.0,-0.0059,0.0036,-34.8375,27.8438,-15.525,,0.0014859999999998763,0.788129088411283,0.7505200833582873,non_fall
4.463239,0.3238,0.0097,0.6155,0.0,-0.0059,0.0036,-34.8375,27.8438,-15.525,,0.0005769999999998277,0.6955435140952722,0.7361343556678935,non_fall
4.499958,0.3238,0.0097,0.6155,0.0,-0.0059,0.0036,-34.7625,27.9,-15.6188,,0.03671900000000061,0.6955435140952722,0.7192354594222784,non_fall
4.520156,0.3238,0.0097,0.6155,0.0011,0.0008,0.0023,-34.7625,27.9,-15.6188,,0.020197999999999716,0.6955435140952722,0.6996299192726484,non_fall
4.521833,0.3238,0.0097,0.6155,0.0011,0.0008,0.0023,-34.7625,27.9,-15.6188,,0.0016769999999999285,0.6955435140952722,0.6774664659204431,non_fall
4.522369,0.2307,0.0824,0.6005,0.0011,0.0008,0.0023,-34.7625,27.9,-15.6188,,0.000536000000000314,0.6485464516902394,0.6532290178603718,non_fall
4.562389,0.2307,0.0824,0.6005,0.0011,0.0008,0.0023,-34.95,27.9375,-15.675,,0.04001999999999928,0.6485464516902394,0.6277133504800558,non_fall
4.581496,0.2307,0.0824,0.6005,-0.0003,-0.0003,0.0015,-34.95,27.9375,-15.675,,0.019106999999999985,0.6485464516902394,0.6019549696446799,non_fall
4.583113,0.2239,0.0309,0.4787,-0.0003,-0.0003,0.0015,-34.95,27.9375,-15.675,,0.0016170000000004237,0.5293767184151567,0.5770864759737304,non_fall
4.584063,0.2239,0.0309,0.4787,-0.0003,-0.0003,0.0015,-34.95,27.9375,-15.675,,0.0009500000000004505,0.5293767184151567,0.5541380755044348,non_fall
4.618275,0.2239,0.0309,0.4787,-0.0003,-0.0003,0.0015,-35.1562,27.825,-15.8063,,0.03421199999999924,0.5293767184151567,0.5338348479529177,non_fall
4.642163,0.2239,0.0309,0.4787,0.0,-0.0003,0.0001,-35.1562,27.825,-15.8063,,0.023888000000000353,0.5293767184151567,0.5164598223157435,non_fall
4.643367,0.2124,0.0345,0.4368,0.0,-0.0003,0.0001,-35.1562,27.825,-15.8063,,0.0012039999999995388,0.48692735597828146,0.5018285289024147,non_fall
4.643894,0.2124,0.0345,0.4368,0.0,-0.0003,0.0001,-35.1562,27.825,-15.8063,,0.0005270000000008324,0.48692735597828146,0.4893773354091354,non_fall
4.680097,0.2124,0.0345,0.4368,0.0,-0.0003,0.0001,-35.175,27.9,-15.8813,,0.03620299999999954,0.48692735597828146,0.47833337086321304,non_fall
4.70316,0.2124,0.0345,0.4368,0.0,-0.0003,0.0001,-35.175,27.9,-15.8813,,0.02306299999999961,0.48692735597828146,0.46791635071757504,non_fall
4.705114,0.2124,0.0345,0.4368,-0.0011,0.0016,-0.0007,-35.175,27.9,-15.8813,,0.0019540000000004554,0.48692735597828146,0.45751665323673557,non_fall
4.72241,0.1847,0.0397,0.3779,-0.0011,0.0016,-0.0007,-35.175,27.9,-15.8813,,0.017295999999999978,0.422490934813991,0.44680164299966013,non_fall
4.73813,0.1847,0.0397,0.3779,-0.0011,0.0016,-0.0007,-35.3063,27.9,-15.9188,,0.015719999999999956,0.422490934813991,0.43572910043224383,non_fall
4.764162,0.1847,0.0397,0.3779,-0.0011,0.0016,-0.0007,-35.3063,27.9,-15.9188,,0.026031999999999833,0.422490934813991,0.42448332094561625,non_fall
4.765977,0.1847,0.0397,0.3779,-0.0011,0.0008,-0.0007,-35.3063,27.9,-15.9188,,0.0018150000000005662,0.422490934813991,0.4133728420351018,non_fall
4.78492,0.1719,0.036,0.3528,-0.0011,0.0008,-0.0007,-35.3063,27.9,-15.9188,,0.018942999999999266,0.39409827454582946,0.4027259776430364,non_fall
4.799816,0.1719,0.036,0.3528,-0.0011,0.0008,-0.0007,-35.2688,27.8813,-15.8063,,0.014896000000000242,0.39409827454582946,0.39280227929356665,non_fall
4.824301,0.1719,0.036,0.3528,-0.0013,0.0001,-0.0017,-35.2688,27.8813,-15.8063,,0.024485000000000312,0.39409827454582946,0.38372307910772563,non_fall
4.82643,0.1719,0.036,0.3528,-0.0013,0.0001,-0.0017,-35.2688,27.8813,-15.8063,,0.0021290000000000475,0.39409827454582946,0.3754190597114991,non_fall
4.843579,0.1446,0.0321,0.3085,-0.0013,0.0001,-0.0017,-35.2688,27.8813,-15.8063,,0.01714899999999986,0.3422160428735041,0.36759585248145094,non_fall
4.85896,0.1446,0.0321,0.3085,-0.0013,0.0001,-0.0017,-35.1938,27.8813,-15.7875,,0.015380999999999645,0.3422160428735041,0.3597292138421646,non_fall
4.885249,0.1446,0.0321,0.3085,-0.0013,0.0001,-0.0017,-35.1938,27.8813,-15.7875,,0.02628900000000023,0.3422160428735041,0.35111331075314306,non_fall
4.886838,0.1446,0.0321,0.3085,-0.0013,-0.0003,-0.0017,-35.1938,27.8813,-15.7875,,0.0015890000000000626,0.3422160428735041,0.3409839309153914,non_fall
4.918039,0.1446,0.0321,0.3085,-0.0013,-0.0003,-0.0017,-35.175,28.1625,-15.8438,,0.031201000000000256,0.3422160428735041,0.32871424126348353,non_fall
4.92608,0.1251,0.0321,0.28,-0.0013,-0.0003,-0.0017,-35.175,28.1625,-15.8438,,0.00804099999999952,0.3083511310178706,0.3140453997350352,non_fall
4.945762,0.1251,0.0321,0.28,-0.0013,-0.0003,-0.0017,-35.175,28.1625,-15.8438,,0.01968200000000042,0.3083511310178706,0.2972887065461296,non_fall
4.946816,0.1251,0.0321,0.28,-0.0386,-0.0478,-0.0162,-35.175,28.1625,-15.8438,,0.0010539999999998884,0.3083511310178706,0.279430500295055,non_fall
4.977915,0.1251,0.0321,0.28,-0.0386,-0.0478,-0.0162,-34.9875,28.3125,-15.7688,,0.03109900000000021,0.3083511310178706,0.26208377108323777,non_fall
4.986297,0.0632,0.1202,0.1646,-0.0386,-0.0478,-0.0162,-34.9875,28.3125,-15.7688,,0.008382000000000112,0.21339034654829162,0.24726089168717127,non_fall
5.006647,0.0632,0.1202,0.1646,-0.0277,-0.0269,-0.0205,-34.9875,28.3125,-15.7688,,0.020349999999999646,0.21339034654829162,0.236992683885494,non_fall
5.00808,0.0632,0.1202,0.1646,-0.0277,-0.0269,-0.0205,-34.9875,28.3125,-15.7688,,0.0014329999999995735,0.21339034654829162,0.2328782817561974,non_fall
5.037829,0.0632,0.1202,0.1646,-0.0277,-0.0269,-0.0205,-34.95,28.4813,-15.9188,,0.02974900000000069,0.21339034654829162,0.23568555538815786,non_fall
5.046755,0.1234,-0.0153,0.2337,-0.0277,-0.0269,-0.0205,-34.95,28.4813,-15.9188,,0.008925999999999767,0.2647212496192929,0.24510842224638013,non_fall
5.06869,0.1234,-0.0153,0.2337,0.0132,0.0129,0.0012,-34.95,28.4813,-15.9188,,0.021935000000000038,0.2647212496192929,0.25973494349411413,non_fall
5.069375,0.1234,-0.0153,0.2337,0.0132,0.0129,0.0012,-34.95,28.4813,-15.9188,,0.0006849999999998246,0.2647212496192929,0.2772226353597969,non_fall
5.097587,0.1234,-0.0153,0.2337,0.0132,0.0129,0.0012,-34.9125,28.7063,-15.8813,,0.028211999999999904,0.2647212496192929,0.2946416916388363,non_fall
5.10824,0.0953,-0.0419,0.312,0.0132,0.0129,0.0012,-34.9125,28.7063,-15.8813,,0.010653000000000468,0.32890986607275857,0.3089330734571178,non_fall
5.129005,0.0953,-0.0419,0.312,0.0132,0.0129,0.0012,-34.9125,28.7063,-15.8813,,0.020764999999999922,0.32890986607275857,0.3174177891331183,non_fall
5.13078,0.0953,-0.0419,0.312,0.0057,0.0083,-0.0009,-34.9125,28.7063,-15.8813,,0.001774999999999416,0.32890986607275857,0.31827518159378976,non_fall
5.15957,0.0953,-0.0419,0.312,0.0057,0.0083,-0.0009,-34.9688,28.8188,-15.8625,,0.02879000000000076,0.32890986607275857,0.3108936752316392,non_fall
5.190085,0.0953,-0.0419,0.312,0.0021,0.0083,0.0001,-34.9688,28.8188,-15.8625,,0.030514999999999404,0.32890986607275857,0.29600553319328904,non_fall
5.192213,0.0953,-0.0419,0.312,0.0021,0.0083,0.0001,-34.9688,28.8188,-15.8625,,0.0021279999999999077,0.32890986607275857,0.27555257751120055,non_fall
5.19291,0.0973,0.0247,0.1591,0.0021,0.0083,0.0001,-34.9688,28.8188,-15.8625,,0.0006970000000006138,0.18812280563504255,0.2522884860688966,non_fall
5.21734,0.0973,0.0247,0.1591,0.0021,0.0083,0.0001,-34.8563,28.8,-15.6188,,0.02442999999999973,0.18812280563504255,0.22919815327142365,non_fall
5.249967,0.0973,0.0247,0.1591,0.0107,0.0225,0.0015,-34.8563,28.8,-15.6188,,0.03262699999999974,0.18812280563504255,0.20888172754812315,non_fall
5.25167,0.0973,0.0247,0.1591,0.0107,0.0225,0.0015,-34.8563,28.8,-15.6188,,0.00170300000000001,0.18812280563504255,0.19306953380164035,non_fall
5.251982,0.1179,-0.0004,0.1372,0.0107,0.0225,0.0015,-34.8563,28.8,-15.6188,,0.00031200000000009,0.18089889441342644,0.18238481634945883,non_fall
5.278001,0.1179,-0.0004,0.1372,0.0107,0.0225,0.0015,-34.9125,28.95,-15.8063,,0.026018999999999792,0.18089889441342644,0.17638296473285853,non_fall
5.312839,0.1179,-0.0004,0.1372,0.0093,0.0101,0.0012,-34.9125,28.95,-15.8063,,0.03483800000000059,0.18089889441342644,0.1738169665757622,non_fall
5.314853,0.0644,0.0009,0.172,0.0093,0.0101,0.0012,-34.9125,28.95,-15.8063,,0.0020139999999999603,0.18366319718441143,0.17303458490364879,non_fall
5.316283,0.0644,0.0009,0.172,0.0093,0.0101,0.0012,-34.9125,28.95,-15.8063,,0.0014300000000000423,0.18366319718441143,0.17240087949071375,non_fall
5.340864,0.0644,0.0009,0.172,0.0093,0.0101,0.0012,-34.95,28.95,-15.8625,,0.02458099999999952,0.18366319718441143,0.17064976021408848,non_fall
5.373287,0.0644,0.0009,0.172,0.0093,0.0101,0.0012,-34.95,28.95,-15.8625,,0.032423000000000535,0.18366319718441143,0.16709293928563457,non_fall
5.375765,0.0644,0.0009,0.172,-0.0007,0.0005,-0.0028,-34.95,28.95,-15.8625,,0.0024779999999999802,0.18366319718441143,0.1616499463412011,non_fall
5.392386,0.0381,0.0285,0.1166,-0.0007,0.0005,-0.0028,-34.95,28.95,-15.8625,,0.016620999999999775,0.12593418916243515,0.1547063556064331,non_fall
5.397749,0.0381,0.0285,0.1166,-0.0007,0.0005,-0.0028,-34.9688,28.8188,-15.8063,,0.005363000000000007,0.12593418916243515,0.14685434625618726,non_fall
5.432846,0.0381,0.0285,0.1166,-0.0007,0.0005,-0.0028,-34.9688,28.8188,-15.8063,,0.03509699999999949,0.12593418916243515,0.13860712288255747,non_fall
5.435121,0.0381,0.0285,0.1166,-0.0007,0.0023,-0.0039,-34.9688,28.8188,-15.8063,,0.002275000000000027,0.12593418916243515,0.13018800852938867,non_fall
5.453167,0.0636,0.0177,0.0796,-0.0007,0.0023,-0.0039,-34.9688,28.8188,-15.8063,,0.018046000000000006,0.10341378051304381,0.12146883604937092,non_fall
5.457339,0.0636,0.0177,0.0796,-0.0007,0.0023,-0.0039,-35.0063,28.65,-15.8813,,0.004172000000000509,0.10341378051304381,0.11208379146683611,non_fall
5.494734,0.0636,0.0177,0.0796,-0.0013,0.0059,-0.0049,-35.0063,28.65,-15.8813,,0.03739500000000007,0.10341378051304381,0.1016936351547659,non_fall
5.496396,0.0636,0.0177,0.0796,-0.0013,0.0059,-0.0049,-35.0063,28.65,-15.8813,,0.0016619999999996082,0.10341378051304381,0.09033068497643881,non_fall
5.514223,0.0435,-0.0018,0.0876,-0.0013,0.0059,-0.0049,-35.0063,28.65,-15.8813,,0.01782700000000048,0.09782254341408221,0.07872013690846495,non_fall
5.51871,0.0435,-0.0018,0.0876,-0.0013,0.0059,-0.0049,-34.95,28.5,-15.675,,0.004486999999999242,0.09782254341408221,0.06845543490994462,non_fall
5.555414,0.0435,-0.0018,0.0876,-0.0013,0.0001,-0.0045,-34.95,28.5,-15.675,,0.03670400000000029,0.09782254341408221,0.06191453567183557,non_fall
5.556629,0.0435,-0.0018,0.0876,-0.0013,0.0001,-0.0045,-34.95,28.5,-15.675,,0.0012150000000001882,0.09782254341408221,0.06184562519962252,non_fall
5.575911,0.0325,0.0159,0.0778,-0.0013,0.0001,-0.0045,-34.95,28.5,-15.675,,0.019281999999999577,0.08580151513813727,0.07062414259380653,non_fall
5.577137,0.0325,0.0159,0.0778,-0.0013,0.0001,-0.0045,-34.875,28.3688,-15.675,,0.0012259999999999494,0.08580151513813727,0.08928052500333566,non_fall
5.615557,0.0325,0.0159,0.0778,-0.0021,-0.0003,-0.0095,-34.875,28.3688,-15.675,,0.03842000000000034,0.08580151513813727,0.11650369928156386,non_fall
5.617097,0.0325,0.0159,0.0778,-0.0021,-0.0003,-0.0095,-34.875,28.3688,-15.675,,0.001540000000000319,0.08580151513813727,0.1479130384987551,non_fall
5.638715,0.0325,0.0159,0.0778,-0.0021,-0.0003,-0.0095,-34.8938,28.1813,-15.6938,,0.021618000000000137,0.08580151513813727,0.17593114092144335,non_fall
5.657611,0.0486,-0.0031,0.0546,-0.0021,-0.0003,-0.0095,-34.8938,28.1813,-15.6938,,0.018895999999999802,0.07316235370735416,0.1905549825703503,non_fall
5.677799,0.0486,-0.0031,0.0546,-0.0081,0.0208,0.0004,-34.8938,28.1813,-15.6938,,0.020188000000000095,0.07316235370735416,0.18119585283009254,non_fall
5.681288,0.0486,-0.0031,0.0546,-0.0081,0.0208,0.0004,-34.8938,28.1813,-15.6938,,0.0034890000000000754,0.07316235370735416,0.13953386016769814,non_fall
5.701121,0.0486,-0.0031,0.0546,-0.0081,0.0208,0.0004,-34.9125,28.125,-15.7688,,0.019832999999999323,0.07316235370735416,0.06302716989151098,non_fall
5.718109,0.0188,0.0528,0.0826,-0.0081,0.0208,0.0004,-34.9125,28.125,-15.7688,,0.016988000000000447,0.09982003806851608,-0.04162124871214635,non_fall
5.739184,0.0188,0.0528,0.0826,-0.0081,0.0208,0.0004,-34.9125,28.125,-15.7688,,0.021074999999999733,0.09982003806851608,-0.15601947213640655,non_fall
5.740809,0.0188,0.0528,0.0826,-0.0013,-0.0095,0.0189,-34.9125,28.125,-15.7688,,0.0016249999999997655,0.09982003806851608,-0.2497605134421104,non_fall
5.76517,0.0188,0.0528,0.0826,-0.0013,-0.0095,0.0189,-34.875,27.9375,-15.6188,,0.024361000000000743,0.09982003806851608,-0.283144934169107,non_fall
5.77991,-0.0484,-0.0143,0.0643,-0.0013,-0.0095,0.0189,-34.875,27.9375,-15.6188,,0.014739999999999753,0.0817406875429856,-0.21336656703872978,non_fall
5.801442,-0.0484,-0.0143,0.0643,0.1438,-0.2125,2.122,-34.875,27.9375,-15.6188,,0.021531999999999663,0.0817406875429856,-0.003719432887938541,non_fall
5.803352,-0.0484,-0.0143,0.0643,0.1438,-0.2125,2.122,-34.875,27.9375,-15.6188,,0.0019100000000005224,0.0817406875429856,0.3656880118657984,non_fall
5.819349,-0.0484,-0.0143,0.0643,0.1438,-0.2125,2.122,-34.4438,28.3688,-15.6,,0.015996999999999595,0.0817406875429856,0.8882625224155242,non_fall
5.862958,-0.0484,-0.0143,0.0643,0.1605,-0.6029,1.8759,-34.4438,28.3688,-15.6,,0.04360900000000001,0.0817406875429856,1.5254835638464022,non_fall
5.865202,-0.0484,-0.0143,0.0643,0.1605,-0.6029,1.8759,-34.4438,28.3688,-15.6,,0.0022440000000001348,0.0817406875429856,2.208639099846865,non_fall
5.866255,-4.6618,0.3522,0.1981,0.1605,-0.6029,1.8759,-34.4438,28.3688,-15.6,,0.0010529999999997486,4.67928068083119,2.849157685727316,non_fall
5.880141,-4.6618,0.3522,0.1981,0.1605,-0.6029,1.8759,-33.4313,29.4938,-15.525,,0.013886000000000287,4.67928068083119,3.356135935519761,non_fall
5.922743,-4.6618,0.3522,0.1981,0.0831,0.1222,0.6955,-33.4313,29.4938,-15.525,,0.042601999999999585,4.67928068083119,3.656579766272557,non_fall
5.925386,-4.6618,0.3522,0.1981,0.0831,0.1222,0.6955,-33.4313,29.4938,-15.525,,0.002642999999999951,4.67928068083119,3.7123214468056562,non_fall
5.927161,2.9061,-0.0656,-0.1619,0.0831,0.1222,0.6955,-33.4313,29.4938,-15.525,,0.0017750000000003041,2.911345424369977,3.528628922791533,non_fall
5.939222,2.9061,-0.0656,-0.1619,0.0831,0.1222,0.6955,-32.4563,30.6188,-15.525,,0.0120610000000001,2.911345424369977,3.152500278090485,non_fall
5.984016,2.9061,-0.0656,-0.1619,0.2067,-0.3204,0.385,-32.4563,30.6188,-15.525,,0.044793999999999556,2.911345424369977,2.6617786596693453,non_fall
5.98805,2.9061,-0.0656,-0.1619,0.2067,-0.3204,0.385,-32.4563,30.6188,-15.525,,0.004034000000000759,2.911345424369977,2.1482227043091613,non_fall
5.989373,0.0969,-0.1978,0.2148,0.2067,-0.3204,0.385,-32.4563,30.6188,-15.525,,0.001322999999999297,0.30765807319165217,1.6984056777441119,non_fall
6.002371,0.0969,-0.1978,0.2148,0.2067,-0.3204,0.385,-31.3313,31.6688,-15.675,,0.01299800000000051,0.30765807319165217,1.3764383096473376,non_fall
6.042856,0.0969,-0.1978,0.2148,0.092,-0.0947,-0.1128,-31.3313,31.6688,-15.675,,0.04048499999999944,0.30765807319165217,1.2123599682262736,non_fall
6.044855,0.0969,-0.1978,0.2148,0.092,-0.0947,-0.1128,-31.3313,31.6688,-15.675,,0.001999000000000528,0.30765807319165217,1.1991711265636187,non_fall
6.045718,-0.7831,2.2614,0.1601,0.092,-0.0947,-0.1128,-31.3313,31.6688,-15.675,,0.0008629999999998361,2.398501111110854,1.2994004605604157,non_fall
6.059064,-0.7831,2.2614,0.1601,0.092,-0.0947,-0.1128,-30.075,32.8125,-15.75,,0.013346000000000302,2.398501111110854,1.4592249694199924,non_fall
6.103977,-0.7831,2.2614,0.1601,0.2137,0.1346,-1.2456,-30.075,32.8125,-15.75,,0.0449130000000002,2.398501111110854,1.6257106996905852,non_fall
6.106226,-0.7831,2.2614,0.1601,0.2137,0.1346,-1.2456,-30.075,32.8125,-15.75,,0.0022489999999999455,2.398501111110854,1.7618784421435132,non_fall
6.11957,-0.7831,2.2614,0.1601,0.2137,0.1346,-1.2456,-29.0625,33.8438,-15.9563,,0.013344000000000023,2.398501111110854,1.8553520666636532,non_fall
6.123384,0.7468,1.4005,-0.0664,0.2137,0.1346,-1.2456,-29.0625,33.8438,-15.9563,,0.003813999999999318,1.5885589224199397,1.9186879073462293,non_fall
6.164914,0.7468,1.4005,-0.0664,0.6437,-0.194,-2.8931,-29.0625,33.8438,-15.9563,,0.041529999999999845,1.5885589224199397,1.9820907250829836,non_fall
6.167206,0.7468,1.4005,-0.0664,0.6437,-0.194,-2.8931,-29.0625,33.8438,-15.9563,,0.002292000000000627,1.5885589224199397,2.081274621072301,non_fall
6.179202,0.7468,1.4005,-0.0664,0.6437,-0.194,-2.8931,-28.7438,34.0312,-16.35,,0.011995999999999896,1.5885589224199397,2.2442541815126713,non_fall
6.187715,1.0386,-2.2099,0.6792,0.6437,-0.194,-2.8931,-28.7438,34.0312,-16.35,,0.00851299999999977,2.534494152686094,2.4807221253234006,non_fall
6.225414,1.0386,-2.2099,0.6792,0.5314,-0.5217,-3.0078,-28.7438,34.0312,-16.35,,0.03769899999999993,2.534494152686094,2.7766295120302225,non_fall
6.227669,1.0386,-2.2099,0.6792,0.5314,-0.5217,-3.0078,-28.7438,34.0312,-16.35,,0.002254999999999896,2.534494152686094,3.0951358100692636,non_fall
6.240551,1.0386,-2.2099,0.6792,0.5314,-0.5217,-3.0078,-29.2313,33.3,-16.4625,,0.012882000000000282,2.534494152686094,3.383688409053488,non_fall
6.247584,0.6687,-4.5483,0.6774,0.5314,-0.5217,-3.0078,-29.2313,33.3,-16.4625,,0.007032999999999845,4.646833689728954,3.5857377465914433,non_fall
6.28804,0.6687,-4.5483,0.6774,0.4059,-0.4723,-2.1147,-29.2313,33.3,-16.4625,,0.040455999999999825,4.646833689728954,3.6543833754287647,non_fall
6.291613,0.6687,-4.5483,0.6774,0.4059,-0.4723,-2.1147,-29.2313,33.3,-16.4625,,0.0035730000000002704,4.646833689728954,3.56427763414995,non_fall
6.299184,0.6687,-4.5483,0.6774,0.4059,-0.4723,-2.1147,-30.75,31.2375,-16.5938,,0.0075710000000004385,4.646833689728954,3.318104087959057,non_fall
6.326717,0.6202,-1.3116,0.0828,0.4059,-0.4723,-2.1147,-30.75,31.2375,-16.5938,,0.02753300000000003,1.4532028213570192,2.9454800017210814,non_fall
6.347361,0.6202,-1.3116,0.0828,1.1006,-0.5057,-1.1697,-30.75,31.2375,-16.5938,,0.020643999999999885,1.4532028213570192,2.4948565724590543,non_fall
6.348741,0.6202,-1.3116,0.0828,1.1006,-0.5057,-1.1697,-30.75,31.2375,-16.5938,,0.0013800000000001589,1.4532028213570192,2.0216003936553926,non_fall
6.359205,0.6202,-1.3116,0.0828,1.1006,-0.5057,-1.1697,-32.7938,27.9375,-16.5563,,0.010463999999999807,1.4532028213570192,1.5764935770134119,non_fall
6.388679,0.7608,0.1753,0.882,1.1006,-0.5057,-1.1697,-32.7938,27.9375,-16.5563,,0.029473999999999556,1.1779094744503926,1.1979193362089942,non_fall
6.407947,0.7608,0.1753,0.882,1.1006,-0.5057,-1.1697,-32.7938,27.9375,-16.5563,,0.019268000000000285,1.1779094744503926,0.9088701153390173,non_fall
6.409188,0.7608,0.1753,0.882,1.4733,-0.3091,-0.5129,-32.7938,27.9375,-16.5563,,0.0012410000000002697,1.1779094744503926,0.7179585209074341,non_fall
6.418708,0.7608,0.1753,0.882,1.4733,-0.3091,-0.5129,-34.9875,24.3375,-16.4813,,0.009519999999999307,1.1779094744503926,0.622587796323419,non_fall
6.448585,-0.0389,-0.2944,0.3306,1.4733,-0.3091,-0.5129,-34.9875,24.3375,-16.4813,,0.02987699999999993,0.4443882649215661,0.6124117175252578,non_fall
6.4691,-0.0389,-0.2944,0.3306,1.7782,-0.7855,-0.6851,-34.9875,24.3375,-16.4813,,0.020515000000000505,0.4443882649215661,0.671925744386719,non_fall
6.472657,-0.0389,-0.2944,0.3306,1.7782,-0.7855,-0.6851,-34.9875,24.3375,-16.4813,,0.0035569999999998103,0.4443882649215661,0.7820517560109067,non_fall
6.47904,-0.0389,-0.2944,0.3306,1.7782,-0.7855,-0.6851,-37.3688,20.4,-16.2563,,0.006383000000000472,0.4443882649215661,0.9213570625476972,non_fall
6.51101,-0.5004,-0.9916,0.977,1.7782,-0.7855,-0.6851,-37.3688,20.4,-16.2563,,0.03196999999999939,1.4792564753956632,1.0676770297908118,non_fall
6.530125,-0.5004,-0.9916,0.977,2.0573,-1.4565,-0.9488,-37.3688,20.4,-16.2563,,0.019115000000000215,1.4792564753956632,1.2004027521298033,non_fall
6.531871,-0.5004,-0.9916,0.977,2.0573,-1.4565,-0.9488,-37.3688,20.4,-16.2563,,0.0017459999999998033,1.4792564753956632,1.3029751076125564,non_fall
6.537055,-0.5004,-0.9916,0.977,2.0573,-1.4565,-0.9488,-40.05,15.825,-15.6563,,0.005183999999999855,1.4792564753956632,1.3647282963932597,non_fall
6.593137,-0.5004,-0.9916,0.977,2.0573,-1.4565,-0.9488,-40.05,15.825,-15.6563,,0.056081999999999965,1.4792564753956632,1.3814057432634805,non_fall
6.595772,-0.0188,-0.7054,0.7495,2.0573,-1.4565,-0.9488,-40.05,15.825,-15.6563,,0.002635000000000609,1.029413838065139,1.3542569318602613,non_fall
6.596927,-0.0188,-0.7054,0.7495,2.1225,-0.3804,-1.0625,-40.05,15.825,-15.6563,,0.001154999999999795,1.029413838065139,1.288235920189566,non_fall
6.599555,-0.0188,-0.7054,0.7495,2.1225,-0.3804,-1.0625,-42.3,11.0063,-14.625,,0.0026279999999996306,1.029413838065139,1.1901556460725153,non_fall
6.655785,-0.0188,-0.7054,0.7495,2.1225,-0.3804,-1.0625,-42.3,11.0063,-14.625,,0.056230000000000224,1.029413838065139,1.0675650460187125,non_fall
6.659618,-0.0188,-0.7054,0.7495,1.8027,0.3907,-0.9314,-42.3,11.0063,-14.625,,0.0038330000000001974,1.029413838065139,0.9286517836352691,non_fall
6.661795,-0.6716,-0.4791,-0.74,1.8027,0.3907,-0.9314,-42.3,11.0063,-14.625,,0.0021769999999996514,1.108234347960755,0.7828642521851292,non_fall
6.663763,-0.6716,-0.4791,-0.74,1.8027,0.3907,-0.9314,-43.9688,6.5625,-13.4063,,0.001968000000000636,1.108234347960755,0.6415024836461618,non_fall
6.713894,-0.1105,0.0145,-0.2626,1.8027,0.3907,-0.9314,-43.9688,6.5625,-13.4063,,0.05013099999999948,0.28527050320704384,0.5174810402990456,non_fall
6.71593,-0.1105,0.0145,-0.2626,0.2301,0.2874,-0.581,-43.9688,6.5625,-13.4063,,0.002036000000000371,0.28527050320704384,0.4238686959130055,non_fall
6.716654,-0.1105,0.0145,-0.2626,0.2301,0.2874,-0.581,-43.9688,6.5625,-13.4063,,0.0007239999999999469,0.28527050320704384,0.3714604831653873,non_fall
6.718186,-0.1105,0.0145,-0.2626,0.2301,0.2874,-0.581,-44.7,2.9438,-12.3375,,0.0015320000000000888,0.28527050320704384,0.36616117983566066,non_fall
6.775713,-0.1105,0.0145,-0.2626,-0.3233,0.0197,-0.1895,-44.7,2.9438,-12.3375,,0.05752699999999944,0.28527050320704384,0.40708898444401365,non_fall
6.778074,-0.1105,0.0145,-0.2626,-0.3233,0.0197,-0.1895,-44.7,2.9438,-12.3375,,0.0023610000000005016,0.28527050320704384,0.48608456341094214,non_fall
6.780483,-0.1105,0.0145,-0.2626,-0.3233,0.0197,-0.1895,-44.9813,-0.1688,-11.5688,,0.0024090000000001055,0.28527050320704384,0.5889269409588117,non_fall
6.795075,-0.499,0.6754,-0.6937,-0.3233,0.0197,-0.1895,-44.9813,-0.1688,-11.5688,,0.014591999999999494,1.0892134088414447,0.6981128795011231,non_fall
6.834651,-0.499,0.6754,-0.6937,0.2013,-0.1192,0.0526,-44.9813,-0.1688,-11.5688,,0.03957600000000028,1.0892134088414447,0.7965690016748028,non_fall
6.837049,-0.499,0.6754,-0.6937,0.2013,-0.1192,0.0526,-44.9813,-0.1688,-11.5688,,0.0023980000000003443,1.0892134088414447,0.871261922407013,non_fall
6.83799,-0.499,0.6754,-0.6937,0.2013,-0.1192,0.0526,-45.0938,-2.5875,-10.9688,,0.0009409999999991925,1.0892134088414447,0.9156035186759051,non_fall
6.855135,0.0185,0.4935,0.5907,0.2013,-0.1192,0.0526,-45.0938,-2.5875,-10.9688,,0.017145000000000188,0.7699421991292593,0.9299516667910067,non_fall
6.895128,0.0185,0.4935,0.5907,0.2169,-0.1252,0.0417,-45.0938,-2.5875,-10.9688,,0.039992999999999945,0.7699421991292593,0.9202097064335463,non_fall
6.896095,0.0185,0.4935,0.5907,0.2169,-0.1252,0.0417,-45.0938,-2.5875,-10.9688,,0.0009670000000001622,0.7699421991292593,0.8951732808188615,non_fall
6.898623,0.0185,0.4935,0.5907,0.2169,-0.1252,0.0417,-45.1688,-4.6313,-10.2938,,0.0025279999999998637,0.7699421991292593,0.8635837437798707,non_fall
6.914292,-0.035,-0.1785,0.7491,0.2169,-0.1252,0.0417,-45.1688,-4.6313,-10.2938,,0.015668999999999933,0.7708683804645252,0.8317682672281703,non_fall
6.956612,-0.035,-0.1785,0.7491,0.2169,-0.1252,0.0417,-45.1688,-4.6313,-10.2938,,0.042320000000000135,0.7708683804645252,0.8024123857756135,non_fall
6.958397,-0.035,-0.1785,0.7491,0.1272,-0.1166,-0.4682,-45.1688,-4.6313,-10.2938,,0.0017849999999999255,0.7708683804645252,0.774609775751435,non_fall
6.959983,-0.035,-0.1785,0.7491,0.1272,-0.1166,-0.4682,-45.0375,-6.3188,-9.675,,0.0015860000000005314,0.7708683804645252,0.7449931400063464,non_fall
6.976153,-0.3653,-0.5492,0.4037,0.1272,-0.1166,-0.4682,-45.0375,-6.3188,-9.675,,0.016169999999999796,0.7733294382085814,0.7095150943404008,non_fall
7.016798,-0.3653,-0.5492,0.4037,0.0754,-0.2601,-0.8053,-45.0375,-6.3188,-9.675,,0.0406449999999996,0.7733294382085814,0.6653264766291154,non_fall
7.019082,-0.3653,-0.5492,0.4037,0.0754,-0.2601,-0.8053,-45.0375,-6.3188,-9.675,,0.002284000000000397,0.7733294382085814,0.6121943967758811,non_fall
7.020007,-0.3653,-0.5492,0.4037,0.0754,-0.2601,-0.8053,-44.7563,-7.7063,-9.3375,,0.0009249999999996206,0.7733294382085814,0.5530236100718108,non_fall
7.061728,0.1294,0.1653,-0.1654,0.0754,-0.2601,-0.8053,-44.7563,-7.7063,-9.3375,,0.0417209999999999,0.2672557015294529,0.49330357576280953,non_fall
7.078976,0.1294,0.1653,-0.1654,0.0754,-0.2601,-0.8053,-44.4188,-8.85,-9.3375,,0.017248000000000374,0.2672557015294529,0.4396713848835314,non_fall
7.080494,0.1294,0.1653,-0.1654,0.0754,-0.2601,-0.8053,-44.4188,-8.85,-9.3375,,0.0015179999999999083,0.2672557015294529,0.39813101836058074,non_fall
7.080969,0.1294,0.1653,-0.1654,0.185,-0.1603,-0.7567,-44.4188,-8.85,-9.3375,,0.00047499999999978115,0.2672557015294529,0.37260716361808344,non_fall
7.119597,-0.0221,0.3017,-0.338,0.185,-0.1603,-0.7567,-44.4188,-8.85,-9.3375,,0.03862800000000011,0.4536025793577457,0.36433355688537894,non_fall
7.140093,-0.0221,0.3017,-0.338,0.185,-0.1603,-0.7567,-44.1,-9.75,-9.3938,,0.020496000000000514,0.4536025793577457,0.372183915318083,non_fall
7.142038,-0.0221,0.3017,-0.338,0.185,-0.1603,-0.7567,-44.1,-9.75,-9.3938,,0.0019450000000000855,0.4536025793577457,0.393672419235565,non_fall
7.143175,-0.0221,0.3017,-0.338,0.1545,-0.1518,-0.5385,-44.1,-9.75,-9.3938,,0.0011369999999999436,0.4536025793577457,0.42615459219195084,non_fall
7.179752,0.0179,-0.0213,-0.5461,0.1545,-0.1518,-0.5385,-44.1,-9.75,-9.3938,,0.036576999999999416,0.5468082936459542,0.46778318553957177,non_fall
7.199314,0.0179,-0.0213,-0.5461,-0.2095,-0.3129,-0.4209,-44.1,-9.75,-9.3938,,0.019562000000000523,0.5468082936459542,0.5179400933868824,non_fall
7.201518,0.0179,-0.0213,-0.5461,-0.2095,-0.3129,-0.4209,-44.1,-9.75,-9.3938,,0.0022039999999998727,0.5468082936459542,0.5770746327132289,non_fall
7.203119,0.0179,-0.0213,-0.5461,-0.2095,-0.3129,-0.4209,-43.8375,-10.4438,-9.3563,,0.0016009999999999636,0.5468082936459542,0.6460705858936845,non_fall
7.262439,0.0179,-0.0213,-0.5461,-0.2095,-0.3129,-0.4209,-43.5188,-11.1562,-8.8688,,0.059319999999999595,0.5468082936459542,0.7254009524249434,non_fall
7.266764,0.1217,-0.1312,-0.9946,-0.2095,-0.3129,-0.4209,-43.5188,-11.1562,-8.8688,,0.004325000000000578,1.0105708733186407,0.8143597846445184,non_fall
7.269816,0.1217,-0.1312,-0.9946,-0.2095,-0.3129,-0.4209,-43.5188,-11.1562,-8.8688,,0.0030519999999993885,1.0105708733186407,0.910559005429892,non_fall
7.271291,0.1217,-0.1312,-0.9946,-0.4008,-0.2238,-0.0378,-43.5188,-11.1562,-8.8688,,0.001475000000000115,1.0105708733186407,1.0097180576723914,non_fall
7.318173,0.1217,-0.1312,-0.9946,-0.4008,-0.2238,-0.0378,-43.2,-11.8875,-8.4,,0.04688200000000009,1.0105708733186407,1.1057021978177235,non_fall
7.32069,0.1217,-0.1312,-0.9946,-0.0752,-0.3065,-0.0495,-43.2,-11.8875,-8.4,,0.0025170000000001025,1.0105708733186407,1.190845025346407,non_fall
7.32106,0.1217,-0.1312,-0.9946,-0.0752,-0.3065,-0.0495,-43.2,-11.8875,-8.4,,0.0003700000000002035,1.0105708733186407,1.2567064374390111,non_fall
7.32133,-0.0894,-0.0196,-1.4894,-0.0752,-0.3065,-0.0495,-43.2,-11.8875,-8.4,,0.0002699999999995484,1.4922093954938094,1.295380118739594,non_fall
7.379213,-0.0894,-0.0196,-1.4894,-0.0752,-0.3065,-0.0495,-43.1625,-12.5813,-8.1562,,0.05788300000000035,1.4922093954938094,1.3012052032157235,non_fall
7.382935,-0.0894,-0.0196,-1.4894,0.0345,-0.1284,-0.1238,-43.1625,-12.5813,-8.1562,,0.003721999999999781,1.4922093954938094,1.2723918275811086,non_fall
7.384142,-0.0894,-0.0196,-1.4894,0.0345,-0.1284,-0.1238,-43.1625,-12.5813,-8.1562,,0.001206999999999958,1.4922093954938094,1.2119015604926369,non_fall
7.385021,0.1856,-0.2767,-0.7574,0.0345,-0.1284,-0.1238,-43.1625,-12.5813,-8.1562,,0.0008790000000002962,0.8274448682540728,1.1271146100725258,non_fall
7.439075,0.1856,-0.2767,-0.7574,0.0345,-0.1284,-0.1238,-43.2,-13.2375,-7.8375,,0.054053999999999824,0.8274448682540728,1.028308783097299,non_fall
7.442885,0.1856,-0.2767,-0.7574,-0.1679,-0.2878,-0.3783,-43.2,-13.2375,-7.8375,,0.003810000000000535,0.8274448682540728,0.926490626581535,non_fall
7.444033,0.1856,-0.2767,-0.7574,-0.1679,-0.2878,-0.3783,-43.2,-13.2375,-7.8375,,0.0011479999999997048,0.8274448682540728,0.8313457750290321,non_fall
7.445001,-0.5412,-0.3692,-0.3126,-0.1679,-0.2878,-0.3783,-43.2,-13.2375,-7.8375,,0.000968000000000302,0.7258958878516946,0.7499067253662217,non_fall
7.497684,-0.5412,-0.3692,-0.3126,-0.1679,-0.2878,-0.3783,-43.1438,-13.8938,-7.6125,,0.05268299999999915,0.7258958878516946,0.6861413210396059,non_fall
7.50426,-0.5412,-0.3692,-0.3126,-0.1714,-0.2586,-0.3943,-43.1438,-13.8938,-7.6125,,0.006576000000000803,0.7258958878516946,0.6413034346502201,non_fall
7.505425,-0.5412,-0.3692,-0.3126,-0.1714,-0.2586,-0.3943,-43.1438,-13.8938,-7.6125,,0.0011649999999994165,0.7258958878516946,0.614696068608229,non_fall
7.52348,-0.4092,0.2965,-0.2776,-0.1714,-0.2586,-0.3943,-43.1438,-13.8938,-7.6125,,0.018055000000000376,0.5765575860224198,0.6044805827054484,non_fall
7.558251,-0.4092,0.2965,-0.2776,-0.1714,-0.2586,-0.3943,-43.0688,-14.1,-7.5,,0.03477100000000011,0.5765575860224198,0.6082824135119502,non_fall
7.563848,-0.4092,0.2965,-0.2776,-0.1714,-0.2586,-0.3943,-43.0688,-14.1,-7.5,,0.005596999999999852,0.5765575860224198,0.6235273507793178,non_fall
7.565117,-0.4092,0.2965,-0.2776,0.0157,0.0214,0.0306,-43.0688,-14.1,-7.5,,0.0012689999999997426,0.5765575860224198,0.6475974522420073,non_fall
7.584571,-0.4765,0.4911,-0.3034,0.0157,0.0214,0.0306,-43.0688,-14.1,-7.5,,0.019454000000000526,0.7485205541600043,0.6779448871562913,non_fall
7.618013,-0.4765,0.4911,-0.3034,0.0157,0.0214,0.0306,-43.125,-14.2125,-7.275,,0.03344199999999997,0.7485205541600043,0.7122435655006774,non_fall
7.625056,-0.4765,0.4911,-0.3034,-0.2346,-0.0463,0.1683,-43.125,-14.2125,-7.275,,0.007042999999999466,0.7485205541600043,0.7485615707674893,non_fall
7.626228,-0.4765,0.4911,-0.3034,-0.2346,-0.0463,0.1683,-43.125,-14.2125,-7.275,,0.001172000000000395,0.7485205541600043,0.7854833933238705,non_fall
7.64532,-0.1158,0.6594,-0.5416,-0.2346,-0.0463,0.1683,-43.125,-14.2125,-7.275,,0.019091999999999665,0.8611321385246286,0.8221277116777739,non_fall
7.678639,-0.1158,0.6594,-0.5416,-0.2346,-0.0463,0.1683,-43.2,-14.2125,-7.2,,0.03331900000000054,0.8611321385246286,0.858056077623641,non_fall
7.688613,-0.1158,0.6594,-0.5416,-0.2346,-0.0463,0.1683,-43.2,-14.2125,-7.2,,0.009973999999999705,0.8611321385246286,0.8931032240743031,non_fall
7.689835,-0.1158,0.6594,-0.5416,-0.3013,-0.132,0.0204,-43.2,-14.2125,-7.2,,0.0012220000000002784,0.8611321385246286,0.9271724838571443,non_fall
7.707006,-0.1673,0.6316,-0.8066,-0.3013,-0.132,0.0204,-43.2,-14.2125,-7.2,,0.01717099999999938,1.0380324705903954,0.9600375541087828,non_fall
7.738087,-0.1673,0.6316,-0.8066,-0.3013,-0.132,0.0204,-43.425,-14.0438,-7.2,,0.03108100000000036,1.0380324705903954,0.9911687767743016,non_fall
7.747748,-0.1673,0.6316,-0.8066,-0.2828,-0.1944,-0.2172,-43.425,-14.0438,-7.2,,0.009660999999999476,1.0380324705903954,1.0195669480568912,non_fall
7.749885,-0.1673,0.6316,-0.8066,-0.2828,-0.1944,-0.2172,-43.425,-14.0438,-7.2,,0.0021370000000002776,1.0380324705903954,1.0435842878108175,non_fall
7.787866,-0.0324,0.5792,-0.8064,-0.2828,-0.1944,-0.2172,-43.425,-14.0438,-7.2,,0.037981000000000265,0.9933797662525647,1.0607704351131402,non_fall
7.797897,-0.0324,0.5792,-0.8064,-0.2828,-0.1944,-0.2172,-43.6313,-13.95,-7.2,,0.010030999999999679,0.9933797662525647,1.0678668101874222,non_fall
7.808212,-0.0324,0.5792,-0.8064,-0.4955,-0.2487,-0.2641,-43.6313,-13.95,-7.2,,0.010315000000000296,0.9933797662525647,1.0611120865179544,non_fall
7.810136,-0.0324,0.5792,-0.8064,-0.4955,-0.2487,-0.2641,-43.6313,-13.95,-7.2,,0.0019239999999998147,0.9933797662525647,1.0369637228588515,non_fall
7.848412,-0.1575,0.6966,-0.7462,-0.4955,-0.2487,-0.2641,-43.6313,-13.95,-7.2,,0.038275999999999755,1.0328950817967912,0.9931870252093012,non_fall
7.857925,-0.1575,0.6966,-0.7462,-0.4955,-0.2487,-0.2641,-43.4813,-13.9125,-7.0688,,0.009513000000000105,1.0328950817967912,0.9300640363778944,non_fall
7.868229,-0.1575,0.6966,-0.7462,-0.0373,-0.2511,0.179,-43.4813,-13.9125,-7.0688,,0.010304000000000535,1.0328950817967912,0.8513105546218842,non_fall
7.869535,-0.1575,0.6966,-0.7462,-0.0373,-0.2511,0.179,-43.4813,-13.9125,-7.0688,,0.0013059999999995853,1.0328950817967912,0.7642506070094793,non_fall
7.91003,-0.2979,0.3525,0.1179,-0.0373,-0.2511,0.179,-43.4813,-13.9125,-7.0688,,0.04049499999999995,0.4763413376980839,0.6789531458330085,non_fall
7.917514,-0.2979,0.3525,0.1179,-0.0373,-0.2511,0.179,-43.3875,-13.9125,-6.9,,0.007483999999999824,0.4763413376980839,0.6063817436731178,non_fall
7.930164,-0.2979,0.3525,0.1179,-0.541,-0.3587,0.0587,-43.3875,-13.9125,-6.9,,0.012650000000000716,0.4763413376980839,0.5560112972589027,non_fall
7.931383,-0.2979,0.3525,0.1179,-0.541,-0.3587,0.0587,-43.3875,-13.9125,-6.9,,0.001218999999999859,0.4763413376980839,0.5336076273339819,non_fall
7.978118,-0.2979,0.3525,0.1179,-0.541,-0.3587,0.0587,-43.4813,-13.8,-6.7313,,0.04673499999999997,0.4763413376980839,0.5398184040187904,non_fall
7.990419,-0.2979,0.3525,0.1179,-0.1157,-0.1972,0.0097,-43.4813,-13.8,-6.7313,,0.012300999999999895,0.4763413376980839,0.5699585235465765,non_fall
7.992673,-0.2979,0.3525,0.1179,-0.1157,-0.1972,0.0097,-43.4813,-13.8,-6.7313,,0.002253999999999756,0.4763413376980839,0.6150484038667088,non_fall
7.99298,-0.0362,0.8752,-0.1304,-0.1157,-0.1972,0.0097,-43.4813,-13.8,-6.7313,,0.00030700000000027927,0.8856012872619371,0.6638617470935573,non_fall
8.038274,-0.0362,0.8752,-0.1304,-0.1157,-0.1972,0.0097,-43.725,-13.7625,-6.6,,0.04529399999999928,0.8856012872619371,0.7054702130537731,non_fall
8.052442,-0.0362,0.8752,-0.1304,0.3458,-0.1554,0.1088,-43.725,-13.7625,-6.6,,0.014167999999999736,0.8856012872619371,0.7315894413288399,non_fall
8.053685,-0.0362,0.8752,-0.1304,0.3458,-0.1554,0.1088,-43.725,-13.7625,-6.6,,0.0012430000000005492,0.8856012872619371,0.7380540025253993,non_fall
8.054223,-0.3199,0.2126,0.3937,0.3458,-0.1554,0.1088,-43.725,-13.7625,-6.6,,0.0005380000000005936,0.550031326380598,0.7250426218239344,non_fall
8.098221,-0.3199,0.2126,0.3937,0.3458,-0.1554,0.1088,-43.6313,-13.575,-6.0,,0.043998000000000204,0.550031326380598,0.6961389132863739,non_fall
8.112704,-0.3199,0.2126,0.3937,0.4093,-0.1927,0.0601,-43.6313,-13.575,-6.0,,0.014483000000000246,0.550031326380598,0.6567241070465473,non_fall
8.114807,-0.3199,0.2126,0.3937,0.4093,-0.1927,0.0601,-43.6313,-13.575,-6.0,,0.002102999999999966,0.550031326380598,0.6123574568031986,non_fall
8.1161,-0.1447,-0.4183,0.3841,0.4093,-0.1927,0.0601,-43.6313,-13.575,-6.0,,0.0012929999999986563,0.5860424813953337,0.5676578956678949,non_fall
8.159298,-0.1447,-0.4183,0.3841,0.4093,-0.1927,0.0601,-43.6313,-13.6875,-5.4188,,0.04319800000000029,0.5860424813953337,0.5258769702900333,non_fall
8.173843,-0.1447,-0.4183,0.3841,0.4093,-0.1927,0.0601,-43.6313,-13.6875,-5.4188,,0.01454500000000003,0.5860424813953337,0.4890351883930213,non_fall
8.176223,-0.1447,-0.4183,0.3841,0.5702,-0.1976,-0.1369,-43.6313,-13.6875,-5.4188,,0.002380000000000493,0.5860424813953337,0.45831648792555646,non_fall
8.177568,-0.0067,-0.2603,0.208,0.5702,-0.1976,-0.1369,-43.6313,-13.6875,-5.4188,,0.0013450000000005957,0.3332641294829073,0.4344224710449263,non_fall
8.218263,-0.0067,-0.2603,0.208,0.5702,-0.1976,-0.1369,-43.6313,-13.7438,-4.8,,0.04069499999999948,0.3332641294829073,0.4177441184953138,non_fall
8.236731,-0.0067,-0.2603,0.208,0.5702,-0.1976,-0.1369,-43.6313,-13.7438,-4.8,,0.018468000000000373,0.3332641294829073,0.4084092958987846,non_fall
8.238116,-0.0067,-0.2603,0.208,0.5506,-0.2605,-0.1234,-43.6313,-13.7438,-4.8,,0.0013849999999990814,0.3332641294829073,0.406373762723691,non_fall
8.255255,-0.1481,-0.4502,0.2598,0.5506,-0.2605,-0.1234,-43.6313,-13.7438,-4.8,,0.017139000000000237,0.5404717291403871,0.41166451044854896,non_fall
8.278335,-0.1481,-0.4502,0.2598,0.5506,-0.2605,-0.1234,-43.575,-13.8938,-4.05,,0.02308000000000021,0.5404717291403871,0.4247037163510859,non_fall
8.296773,-0.1481,-0.4502,0.2598,0.1178,-0.0088,-0.1043,-43.575,-13.8938,-4.05,,0.018437999999999732,0.5404717291403871,0.4464772797780287,non_fall
8.298285,-0.1481,-0.4502,0.2598,0.1178,-0.0088,-0.1043,-43.575,-13.8938,-4.05,,0.0015119999999999578,0.5404717291403871,0.47829567085232777,non_fall
8.317255,0.0704,-0.0576,-0.44,0.1178,-0.0088,-0.1043,-43.575,-13.8938,-4.05,,0.018969999999999487,0.44930381703252864,0.5210651677156918,non_fall
8.339869,0.0704,-0.0576,-0.44,0.1178,-0.0088,-0.1043,-43.575,-14.1,-3.4125,,0.0226140000000008,0.44930381703252864,0.5742653914786917,non_fall
8.356846,0.0704,-0.0576,-0.44,0.2964,0.8691,-0.3538,-43.575,-14.1,-3.4125,,0.016977000000000686,0.44930381703252864,0.6350687351711359,non_fall
8.359664,0.0704,-0.0576,-0.44,0.2964,0.8691,-0.3538,-43.575,-14.1,-3.4125,,0.002817999999999543,0.44930381703252864,0.6981043869449762,non_fall
8.377393,0.5682,-0.6956,-0.2944,0.2964,0.8691,-0.3538,-43.575,-14.1,-3.4125,,0.017728999999999218,0.9451888488550846,0.7561952787900232,non_fall
8.398936,0.5682,-0.6956,-0.2944,0.2964,0.8691,-0.3538,-43.6125,-14.6063,-3.0563,,0.0215430000000012,0.9451888488550846,0.8020157729592452,non_fall
8.419292,0.5682,-0.6956,-0.2944,0.7669,-0.194,-0.4269,-43.6125,-14.6063,-3.0563,,0.020355999999999597,0.9451888488550846,0.8301943063499492,non_fall
8.420743,0.5682,-0.6956,-0.2944,0.7669,-0.194,-0.4269,-43.6125,-14.6063,-3.0563,,0.001450999999999425,0.9451888488550846,0.8391467769527193,non_fall
8.461484,0.5682,-0.6956,-0.2944,0.7669,-0.194,-0.4269,-43.4625,-15.0938,-2.5125,,0.04074100000000058,0.9451888488550846,0.8320032754505697,non_fall
8.464264,0.2728,0.241,0.6224,0.7669,-0.194,-0.4269,-43.4625,-15.0938,-2.5125,,0.0027799999999995606,0.721028848243952,0.8163179806023776,non_fall
8.47973,0.2728,0.241,0.6224,0.147,0.2561,-0.2059,-43.4625,-15.0938,-2.5125,,0.01546599999999998,0.721028848243952,0.802655723554833,non_fall
8.482102,0.2728,0.241,0.6224,0.147,0.2561,-0.2059,-43.4625,-15.0938,-2.5125,,0.0023719999999993746,0.721028848243952,0.8024733405691761,non_fall
8.519689,0.2728,0.241,0.6224,0.147,0.2561,-0.2059,-43.2,-15.6375,-2.1,,0.03758700000000026,0.721028848243952,0.8258615651483491,non_fall
8.521577,0.0355,-0.2064,-0.98,0.147,0.2561,-0.2059,-43.2,-15.6375,-2.1,,0.001888000000001,1.002128340084243,0.8796563302658165,non_fall
8.54086,0.0355,-0.2064,-0.98,-0.6787,0.4506,0.031,-43.2,-15.6375,-2.1,,0.019282999999999717,1.002128340084243,0.966231291305429,non_fall
8.542114,0.0355,-0.2064,-0.98,-0.6787,0.4506,0.031,-43.2,-15.6375,-2.1,,0.0012539999999994222,1.002128340084243,1.0830750553859803,non_fall
8.579625,0.0355,-0.2064,-0.98,-0.6787,0.4506,0.031,-43.1625,-16.3313,-2.1938,,0.037511000000000294,1.002128340084243,1.2231413075630206,non_fall
8.581473,0.0951,0.5633,-1.2593,-0.6787,0.4506,0.031,-43.1625,-16.3313,-2.1938,,0.001848000000000738,1.3828186395908901,1.3759255512197401,non_fall
