time,ax,ay,az,wx,wy,wz,Bx,By,Bz,Unnamed: 10,time_diff,acc_mag,acc_mag_filtered,label
0.067556,0.0,0.0,0.0,0.0059,-0.0202,-0.0426,0.0,0.0,0.0,,0.0,0.0,-0.0002824047405175507,non_fall
0.119435,0.0,0.0,0.0,0.0059,-0.0202,-0.0426,42.5625,13.1063,-1.0875,,0.051878999999999995,0.0,-0.0005795340174862611,non_fall
0.161657,0.0,0.0,0.0,-0.0023,-0.0,-0.0011,42.5625,13.1063,-1.0875,,0.042221999999999996,0.0,-0.0009952234819850271,non_fall
0.177244,0.0,0.0,0.0,-0.0023,-0.0,-0.0011,43.8188,14.9063,2.8125,,0.015587000000000018,0.0,-0.0016585571297428815,non_fall
0.202554,0.0,0.0,0.0,-0.0048,-0.0505,-0.0232,43.8188,14.9063,2.8125,,0.02531,0.0,-0.0025433998581874786,non_fall
0.238418,0.0,0.0,0.0,-0.0048,-0.0505,-0.0232,44.5875,15.6938,4.3688,,0.03586399999999998,0.0,-0.0034268544714548804,non_fall
0.264314,0.0,0.0,0.0,-0.0051,0.0245,0.0109,44.5875,15.6938,4.3688,,0.025896000000000002,0.0,-0.003893942431742315,non_fall
0.266408,0.0,0.0,0.0,-0.0051,0.0245,0.0109,44.5875,15.6938,4.3688,,0.0020939999999999848,0.0,-0.003392708472273268,non_fall
0.2975,0.0,0.0,0.0,-0.0051,0.0245,0.0109,44.8125,16.05,4.8,,0.03109200000000001,0.0,-0.001334009137485438,non_fall
0.303113,0.0,0.0,0.0,-0.0051,0.0245,0.0109,44.8125,16.05,4.8,,0.005613000000000035,0.0,0.0027816592512858334,non_fall
0.325347,0.0,0.0,0.0,0.0073,-0.0458,-0.0178,44.8125,16.05,4.8,,0.022233999999999976,0.0,0.009239647143325704,non_fall
0.326988,0.0,0.0,0.0,0.0073,-0.0458,-0.0178,44.8125,16.05,4.8,,0.0016410000000000036,0.0,0.018025817516811173,non_fall
0.357335,0.0,0.0,0.0,0.0073,-0.0458,-0.0178,44.8875,16.0688,5.1562,,0.030347000000000013,0.0,0.028814662745798934,non_fall
0.36481,0.0622,0.0119,0.041,0.0073,-0.0458,-0.0178,44.8875,16.0688,5.1562,,0.007475000000000009,0.07544169934459324,0.04104616748373102,non_fall
0.383982,0.0622,0.0119,0.041,-0.0048,0.0117,-0.0,44.8875,16.0688,5.1562,,0.019171999999999967,0.07544169934459324,0.054071325844198395,non_fall
0.385178,0.0622,0.0119,0.041,-0.0048,0.0117,-0.0,44.8875,16.0688,5.1562,,0.0011960000000000304,0.07544169934459324,0.0673098828039488,non_fall
0.416833,0.0622,0.0119,0.041,-0.0048,0.0117,-0.0,44.925,16.1063,5.3813,,0.03165499999999999,0.07544169934459324,0.08035254296513815,non_fall
0.427503,0.0755,-0.0688,-0.0144,-0.0048,0.0117,-0.0,44.925,16.1063,5.3813,,0.010670000000000013,0.10315546519695405,0.09296513558009062,non_fall
0.444837,0.0755,-0.0688,-0.0144,-0.0019,0.1278,0.0166,44.925,16.1063,5.3813,,0.01733399999999996,0.10315546519695405,0.10499711784176351,non_fall
0.446066,0.0755,-0.0688,-0.0144,-0.0019,0.1278,0.0166,44.925,16.1063,5.3813,,0.0012290000000000356,0.10315546519695405,0.116235468419937,non_fall
0.478064,0.0755,-0.0688,-0.0144,-0.0019,0.1278,0.0166,44.9062,16.1438,5.55,,0.03199799999999997,0.10315546519695405,0.12626618227035222,non_fall
0.509291,0.0755,-0.0688,-0.0144,0.0037,-0.1055,0.0177,44.9062,16.1438,5.55,,0.03122700000000006,0.10315546519695405,0.1344084957047713,non_fall
0.511078,-0.1115,0.1061,0.0321,0.0037,-0.1055,0.0177,44.9062,16.1438,5.55,,0.001786999999999983,0.15722553863797065,0.13976779306373988,non_fall
0.512228,-0.1115,0.1061,0.0321,0.0037,-0.1055,0.0177,44.9062,16.1438,5.55,,0.0011499999999999844,0.15722553863797065,0.1414095251587085,non_fall
0.536592,-0.1115,0.1061,0.0321,0.0037,-0.1055,0.0177,44.925,16.2188,5.775,,0.02436399999999994,0.15722553863797065,0.13860243884613657,non_fall
0.568694,-0.1115,0.1061,0.0321,0.024,0.0075,0.0181,44.925,16.2188,5.775,,0.032102000000000075,0.15722553863797065,0.13104398078198537,non_fall
0.570748,-0.1115,0.1061,0.0321,0.024,0.0075,0.0181,44.925,16.2188,5.775,,0.0020540000000000003,0.15722553863797065,0.11898659659052839,non_fall
0.572716,0.0382,-0.0057,0.0099,0.024,0.0075,0.0181,44.925,16.2188,5.775,,0.0019679999999999698,0.039871543737357344,0.10323122225461415,non_fall
0.598291,0.0382,-0.0057,0.0099,0.024,0.0075,0.0181,45.3375,16.575,6.75,,0.025575000000000014,0.039871543737357344,0.08502318609636579,non_fall
0.627536,0.0382,-0.0057,0.0099,0.0418,0.0184,0.0109,45.3375,16.575,6.75,,0.029244999999999965,0.039871543737357344,0.06593922889864057,non_fall
0.629811,0.0498,-0.0201,-0.0348,0.0418,0.0184,0.0109,45.3375,16.575,6.75,,0.002275000000000027,0.06399289023008728,0.04785126520487969,non_fall
0.631438,0.0498,-0.0201,-0.0348,0.0418,0.0184,0.0109,45.3375,16.575,6.75,,0.001627000000000045,0.06399289023008728,0.03298194923994047,non_fall
0.657103,0.0498,-0.0201,-0.0348,0.0418,0.0184,0.0109,45.3938,16.4438,6.6938,,0.025664999999999938,0.06399289023008728,0.023970870659121683,non_fall
0.691304,-0.0069,0.0137,0.0642,0.0418,0.0184,0.0109,45.3938,16.4438,6.6938,,0.03420100000000004,0.06600712082798339,0.023812732811182482,non_fall
0.694289,-0.0069,0.0137,0.0642,0.0357,0.017,0.0056,45.3938,16.4438,6.6938,,0.0029850000000000154,0.06600712082798339,0.035547117538410625,non_fall
0.695239,-0.0069,0.0137,0.0642,0.0357,0.017,0.0056,45.3938,16.4438,6.6938,,0.0009500000000000064,0.06600712082798339,0.061667219739031706,non_fall
0.71672,-0.0069,0.0137,0.0642,0.0357,0.017,0.0056,45.3938,16.3875,6.4688,,0.021480999999999972,0.06600712082798339,0.10333974569895639,non_fall
0.751158,-0.0069,0.0137,0.0642,0.3329,0.3194,0.0589,45.3938,16.3875,6.4688,,0.03443799999999997,0.06600712082798339,0.15964751013951306,non_fall
0.753879,-0.0069,0.0137,0.0642,0.3329,0.3194,0.0589,45.3938,16.3875,6.4688,,0.0027209999999999734,0.06600712082798339,0.227131696440189,non_fall
0.772139,0.3377,-0.2296,-0.0931,0.3329,0.3194,0.0589,45.3938,16.3875,6.4688,,0.018260000000000054,0.41883774901505716,0.2998739993924893,non_fall
0.775155,0.3377,-0.2296,-0.0931,0.3329,0.3194,0.0589,45.3563,16.2563,6.6375,,0.0030160000000000187,0.41883774901505716,0.37020351853671346,non_fall
0.812901,0.3377,-0.2296,-0.0931,0.3329,0.3194,0.0589,45.3563,16.2563,6.6375,,0.037745999999999946,0.41883774901505716,0.4299004989814287,non_fall
0.814948,0.3377,-0.2296,-0.0931,-0.0019,0.1671,0.0141,45.3563,16.2563,6.6375,,0.002047000000000021,0.41883774901505716,0.4716179754668261,non_fall
0.83156,-0.4512,0.3051,0.0222,-0.0019,0.1671,0.0141,45.3563,16.2563,6.6375,,0.01661199999999996,0.5451241051357021,0.4902177991024759,non_fall
0.836822,-0.4512,0.3051,0.0222,-0.0019,0.1671,0.0141,45.45,16.3688,6.6938,,0.005261999999999989,0.5451241051357021,0.4837673223706872,non_fall
0.871964,-0.4512,0.3051,0.0222,-0.0091,-0.0309,0.0096,45.45,16.3688,6.6938,,0.03514200000000001,0.5451241051357021,0.45399107886266993,non_fall
0.874707,-0.4512,0.3051,0.0222,-0.0091,-0.0309,0.0096,45.45,16.3688,6.6938,,0.002743000000000051,0.5451241051357021,0.4060267314313917,non_fall
0.895969,0.0899,-0.0613,0.1404,-0.0091,-0.0309,0.0096,45.45,16.3688,6.6938,,0.021262000000000003,0.1776284324087785,0.34746042674917554,non_fall
0.8989,0.0899,-0.0613,0.1404,-0.0091,-0.0309,0.0096,45.5438,16.3688,6.7688,,0.002931000000000017,0.1776284324087785,0.2868268009541201,non_fall
0.935869,0.0899,-0.0613,0.1404,-0.0091,-0.0309,0.0096,45.5438,16.3688,6.7688,,0.03696899999999992,0.1776284324087785,0.23196338689389853,non_fall
0.93879,0.0899,-0.0613,0.1404,0.0589,0.0454,0.0092,45.5438,16.3688,6.7688,,0.0029210000000000624,0.1776284324087785,0.18867088912466462,non_fall
0.957712,0.0899,-0.0613,0.1404,0.0589,0.0454,0.0092,45.525,16.3688,6.9188,,0.018921999999999994,0.1776284324087785,0.15999406684427211,non_fall
0.973738,-0.0935,0.1229,-0.068,0.0589,0.0454,0.0092,45.525,16.3688,6.9188,,0.016025999999999985,0.16873251020476165,0.1461921349469973,non_fall
0.994871,-0.0935,0.1229,-0.068,-0.0123,-0.0415,-0.0011,45.525,16.3688,6.9188,,0.021132999999999957,0.16873251020476165,0.1452573544782574,non_fall
0.996584,-0.0935,0.1229,-0.068,-0.0123,-0.0415,-0.0011,45.525,16.3688,6.9188,,0.0017130000000000756,0.16873251020476165,0.15374202096831507,non_fall
1.018982,-0.0935,0.1229,-0.068,-0.0123,-0.0415,-0.0011,45.5813,16.3875,6.9375,,0.02239800000000003,0.16873251020476165,0.16765550035890595,non_fall
1.034554,0.0908,-0.0434,-0.1849,-0.0123,-0.0415,-0.0011,45.5813,16.3875,6.9375,,0.01557199999999992,0.2105141562935852,0.1832476386761083,non_fall
1.055057,0.0908,-0.0434,-0.1849,0.0418,-0.0443,0.016,45.5813,16.3875,6.9375,,0.020502999999999938,0.2105141562935852,0.19756328277967605,non_fall
1.057286,0.0908,-0.0434,-0.1849,0.0418,-0.0443,0.016,45.5813,16.3875,6.9375,,0.0022290000000000365,0.2105141562935852,0.20871630302740088,non_fall
1.076569,0.0908,-0.0434,-0.1849,0.0418,-0.0443,0.016,45.5063,16.5,6.975,,0.01928300000000016,0.2105141562935852,0.21588910802879163,non_fall
1.096588,0.135,-0.1325,0.0765,0.0418,-0.0443,0.016,45.5063,16.5,6.975,,0.020018999999999787,0.20404288764865097,0.2191157126604892,non_fall
1.115829,0.135,-0.1325,0.0765,0.1348,0.1033,0.0141,45.5063,16.5,6.975,,0.019241000000000064,0.20404288764865097,0.218944442538853,non_fall
1.117274,0.135,-0.1325,0.0765,0.1348,0.1033,0.0141,45.5063,16.5,6.975,,0.0014450000000001406,0.20404288764865097,0.21608866518875078,non_fall
1.137777,0.135,-0.1325,0.0765,0.1348,0.1033,0.0141,45.3375,16.575,7.0688,,0.020502999999999938,0.20404288764865097,0.2111573188196251,non_fall
1.156647,-0.1729,0.0976,-0.0043,0.1348,0.1033,0.0141,45.3375,16.575,7.0688,,0.018869999999999942,0.1985916916691129,0.20451917984745094,non_fall
1.179913,-0.1729,0.0976,-0.0043,0.1107,-0.0341,-0.0153,45.3375,16.575,7.0688,,0.02326600000000001,0.1985916916691129,0.1963088200898722,non_fall
1.183915,-0.1729,0.0976,-0.0043,0.1107,-0.0341,-0.0153,45.3375,16.575,7.0688,,0.004002000000000061,0.1985916916691129,0.18654020632351093,non_fall
1.197713,-0.1729,0.0976,-0.0043,0.1107,-0.0341,-0.0153,45.2063,16.5188,7.35,,0.013797999999999977,0.1985916916691129,0.17526462867075795,non_fall
1.237792,-0.1729,0.0976,-0.0043,0.1107,-0.0341,-0.0153,45.2063,16.5188,7.35,,0.040078999999999976,0.1985916916691129,0.16270026949179342,non_fall
1.239125,0.0296,-0.015,0.1091,0.1107,-0.0341,-0.0153,45.2063,16.5188,7.35,,0.0013330000000000286,0.11403495078264382,0.14927795269856645,non_fall
1.240619,0.0296,-0.015,0.1091,0.1202,0.0128,-0.0075,45.2063,16.5188,7.35,,0.0014939999999998843,0.11403495078264382,0.13559069957853292,non_fall
1.258235,0.0296,-0.015,0.1091,0.1202,0.0128,-0.0075,45.0938,16.5375,7.3688,,0.017616000000000076,0.11403495078264382,0.12228432363432065,non_fall
1.298537,0.0296,-0.015,0.1091,0.0887,0.0639,-0.0104,45.0938,16.5375,7.3688,,0.04030200000000006,0.11403495078264382,0.10995030918604548,non_fall
1.300873,0.0296,-0.015,0.1091,0.0887,0.0639,-0.0104,45.0938,16.5375,7.3688,,0.0023359999999998937,0.11403495078264382,0.09906501573719048,non_fall
1.30195,0.0776,-0.0062,-0.0346,0.0887,0.0639,-0.0104,45.0938,16.5375,7.3688,,0.0010769999999999946,0.08519014027456463,0.08997981867582312,non_fall
1.319203,0.0776,-0.0062,-0.0346,0.0887,0.0639,-0.0104,45.0,16.4438,7.4063,,0.017252999999999963,0.08519014027456463,0.08293776560390169,non_fall
1.361076,0.0776,-0.0062,-0.0346,0.0887,0.0639,-0.0104,45.0,16.4438,7.4063,,0.04187300000000005,0.08519014027456463,0.07808767516903938,non_fall
1.362688,0.0776,-0.0062,-0.0346,0.0557,-0.027,-0.0537,45.0,16.4438,7.4063,,0.0016119999999999468,0.08519014027456463,0.07547758513309188,non_fall
1.364036,-0.06,0.0148,0.0303,0.0557,-0.027,-0.0537,45.0,16.4438,7.4063,,0.0013480000000001269,0.068826811636164,0.07502400059570224,non_fall
1.377808,-0.06,0.0148,0.0303,0.0557,-0.027,-0.0537,44.9438,16.6125,7.3688,,0.013771999999999895,0.068826811636164,0.07646823793867322,non_fall
1.421896,-0.06,0.0148,0.0303,0.0557,-0.027,-0.0537,44.9438,16.6125,7.3688,,0.04408800000000013,0.068826811636164,0.07934547512669674,non_fall
1.424028,-0.06,0.0148,0.0303,0.0634,0.0258,-0.0451,44.9438,16.6125,7.3688,,0.0021320000000000228,0.068826811636164,0.08299930991969415,non_fall
1.437174,-0.06,0.0148,0.0303,0.0634,0.0258,-0.0451,44.925,16.7063,7.2188,,0.01314599999999988,0.068826811636164,0.08666628341179992,non_fall
1.439504,0.0438,-0.0282,-0.1016,0.0634,0.0258,-0.0451,44.925,16.7063,7.2188,,0.0023299999999999432,0.11417635482007647,0.08962884290787017,non_fall
1.48248,0.0438,-0.0282,-0.1016,0.1209,0.0965,-0.0437,44.925,16.7063,7.2188,,0.042976000000000125,0.11417635482007647,0.09139868430051826,non_fall
1.484901,0.0438,-0.0282,-0.1016,0.1209,0.0965,-0.0437,44.925,16.7063,7.2188,,0.0024210000000000065,0.11417635482007647,0.09186192272515001,non_fall
1.497645,0.0438,-0.0282,-0.1016,0.1209,0.0965,-0.0437,44.7,16.7438,7.125,,0.012743999999999867,0.11417635482007647,0.09131454996910648,non_fall
1.501807,0.0652,0.0024,0.0018,0.1209,0.0965,-0.0437,44.7,16.7438,7.125,,0.004161999999999999,0.06526898191331008,0.0903525728900647,non_fall
1.542975,0.0652,0.0024,0.0018,0.1646,0.0844,-0.0245,44.7,16.7438,7.125,,0.04116800000000009,0.06526898191331008,0.08964419140654269,non_fall
1.544976,0.0652,0.0024,0.0018,0.1646,0.0844,-0.0245,44.7,16.7438,7.125,,0.0020009999999999195,0.06526898191331008,0.08966988210643366,non_fall
1.557637,0.0652,0.0024,0.0018,0.1646,0.0844,-0.0245,44.6813,16.7625,7.1438,,0.012661000000000033,0.06526898191331008,0.09053758374718208,non_fall
1.563238,-0.0807,-0.0191,-0.071,0.1646,0.0844,-0.0245,44.6813,16.7625,7.1438,,0.005600999999999967,0.10917096683642588,0.09195070858574894,non_fall
1.603702,-0.0807,-0.0191,-0.071,0.214,0.0529,-0.0132,44.6813,16.7625,7.1438,,0.040464000000000055,0.10917096683642588,0.09334092076527217,non_fall
1.605936,-0.0807,-0.0191,-0.071,0.214,0.0529,-0.0132,44.6813,16.7625,7.1438,,0.0022340000000000693,0.10917096683642588,0.09410914802633404,non_fall
1.617108,-0.0807,-0.0191,-0.071,0.214,0.0529,-0.0132,44.7,16.8563,7.275,,0.01117199999999996,0.10917096683642588,0.0938797926718671,backward_fall
1.621567,-0.0411,-0.0583,-0.0576,0.214,0.0529,-0.0132,44.7,16.8563,7.275,,0.004458999999999991,0.09168347724644828,0.09267807865302738,backward_fall
1.665441,-0.0411,-0.0583,-0.0576,0.214,0.0529,-0.0132,44.7,16.8563,7.275,,0.04387399999999997,0.09168347724644828,0.0909783046199798,backward_fall
1.666746,-0.0411,-0.0583,-0.0576,0.2151,0.0642,-0.0117,44.7,16.8563,7.275,,0.0013050000000001116,0.09168347724644828,0.08961838537027715,backward_fall
1.676098,-0.0411,-0.0583,-0.0576,0.2151,0.0642,-0.0117,44.6063,16.9313,7.2188,,0.009352000000000027,0.09168347724644828,0.08961456465087471,backward_fall
1.706354,0.0595,0.0354,-0.0345,0.2151,0.0642,-0.0117,44.6063,16.9313,7.2188,,0.03025599999999984,0.07735412076935527,0.09193297219730742,backward_fall
1.725039,0.0595,0.0354,-0.0345,0.2151,0.0642,-0.0117,44.6063,16.9313,7.2188,,0.018685000000000063,0.07735412076935527,0.09728404201951138,backward_fall
1.726142,0.0595,0.0354,-0.0345,0.3016,0.022,0.0138,44.6063,16.9313,7.2188,,0.0011030000000000761,0.07735412076935527,0.10600287536781434,backward_fall
1.736588,0.0595,0.0354,-0.0345,0.3016,0.022,0.0138,44.7,17.2313,7.2188,,0.010445999999999955,0.07735412076935527,0.11805732966764687,backward_fall
1.766746,-0.1641,-0.0544,-0.106,0.3016,0.022,0.0138,44.7,17.2313,7.2188,,0.030157999999999907,0.20279095147466517,0.13317825561927024,backward_fall
1.787614,-0.1641,-0.0544,-0.106,0.3123,0.0067,0.017,44.7,17.2313,7.2188,,0.02086800000000011,0.20279095147466517,0.15103923734443783,backward_fall
1.790443,-0.1641,-0.0544,-0.106,0.3123,0.0067,0.017,44.7,17.2313,7.2188,,0.0028289999999999704,0.20279095147466517,0.1713598744485839,backward_fall
1.797189,-0.1641,-0.0544,-0.106,0.3123,0.0067,0.017,44.7375,17.3625,7.3125,,0.006745999999999919,0.20279095147466517,0.19381420659924434,backward_fall
1.825581,0.0467,0.1207,0.1707,0.3123,0.0067,0.017,44.7375,17.3625,7.3125,,0.028391999999999973,0.2142145419900339,0.21771166466243194,backward_fall
1.846506,0.0467,0.1207,0.1707,0.3272,-0.0771,0.0213,44.7375,17.3625,7.3125,,0.020925000000000082,0.2142145419900339,0.24154492123072097,backward_fall
1.849244,0.0467,0.1207,0.1707,0.3272,-0.0771,0.0213,44.7375,17.3625,7.3125,,0.0027380000000001292,0.2142145419900339,0.26260626050042063,backward_fall
1.858195,0.0467,0.1207,0.1707,0.3272,-0.0771,0.0213,44.625,17.3625,7.2188,,0.008950999999999931,0.2142145419900339,0.2769202907695915,backward_fall
1.887503,0.112,-0.0646,-0.1679,0.3272,-0.0771,0.0213,44.625,17.3625,7.2188,,0.02930799999999989,0.21191406277073732,0.27971203918980153,backward_fall
1.906623,0.112,-0.0646,-0.1679,0.4139,0.0411,0.0376,44.625,17.3625,7.2188,,0.019120000000000026,0.21191406277073732,0.26652557780444663,backward_fall
1.90727,0.112,-0.0646,-0.1679,0.4139,0.0411,0.0376,44.625,17.3625,7.2188,,0.0006470000000000642,0.21191406277073732,0.23493904332026155,backward_fall
1.916098,0.112,-0.0646,-0.1679,0.4139,0.0411,0.0376,44.625,17.4188,7.1625,,0.008828000000000058,0.21191406277073732,0.18661202677942593,backward_fall
1.967523,0.112,-0.0646,-0.1679,0.6073,-0.1157,0.0639,44.625,17.4188,7.1625,,0.05142499999999983,0.21191406277073732,0.12919324426587456,backward_fall
1.968986,0.112,-0.0646,-0.1679,0.6073,-0.1157,0.0639,44.625,17.4188,7.1625,,0.001462999999999992,0.21191406277073732,0.07746607810676964,backward_fall
1.969643,0.162,0.0688,-0.2727,0.6073,-0.1157,0.0639,44.625,17.4188,7.1625,,0.0006570000000001297,0.3245654479454028,0.05307757758453449,backward_fall
1.975689,0.162,0.0688,-0.2727,0.6073,-0.1157,0.0639,44.7938,17.5688,6.825,,0.006045999999999996,0.3245654479454028,0.08234030046827885,backward_fall
2.028798,0.162,0.0688,-0.2727,0.7951,0.1534,0.114,44.7938,17.5688,6.825,,0.05310900000000007,0.3245654479454028,0.1919615520865353,backward_fall
2.030123,0.162,0.0688,-0.2727,0.7951,0.1534,0.114,44.7938,17.5688,6.825,,0.0013250000000000206,0.3245654479454028,0.40314304555663816,backward_fall
2.030872,0.3273,0.0981,0.1677,0.7951,0.1534,0.114,44.7938,17.5688,6.825,,0.0007489999999998886,0.3806207955432808,0.7252057504821391,backward_fall
2.035762,0.3273,0.0981,0.1677,0.7951,0.1534,0.114,44.8125,17.85,6.3938,,0.004890000000000061,0.3806207955432808,1.1504961725687075,backward_fall
2.090192,0.3273,0.0981,0.1677,1.0887,0.6365,0.2581,44.8125,17.85,6.3938,,0.05442999999999998,0.3806207955432808,1.6524893074882567,backward_fall
2.092873,1.2291,0.705,3.0644,1.0887,0.6365,0.2581,44.8125,17.85,6.3938,,0.0026809999999999334,3.376130798710263,2.188393925555359,backward_fall
2.094574,1.2291,0.705,3.0644,1.0887,0.6365,0.2581,44.8125,17.85,6.3938,,0.0017010000000001746,3.376130798710263,2.706134721413639,backward_fall
2.097934,1.2291,0.705,3.0644,1.0887,0.6365,0.2581,44.8313,17.925,6.0563,,0.0033599999999998076,3.376130798710263,3.1539142366505293,backward_fall
2.151514,1.2291,0.705,3.0644,1.0887,0.6365,0.2581,44.8313,17.925,6.0563,,0.05358000000000018,3.376130798710263,3.489688437733678,backward_fall
2.152913,1.2291,0.705,3.0644,1.8562,1.8027,0.6819,44.8313,17.925,6.0563,,0.001398999999999706,3.376130798710263,3.688361568072768,backward_fall
2.156714,1.2291,0.705,3.0644,1.8562,1.8027,0.6819,44.925,17.9625,6.0938,,0.0038010000000001654,3.376130798710263,3.7457257146632665,backward_fall
2.173128,1.0056,-0.5673,-3.9924,1.8562,1.8027,0.6819,44.925,17.9625,6.0938,,0.01641400000000015,4.155997883781945,3.6790780891258024,backward_fall
2.213501,1.0056,-0.5673,-3.9924,0.6786,1.6028,1.3607,44.925,17.9625,6.0938,,0.04037299999999977,4.155997883781945,3.5245761672703724,backward_fall
2.217772,1.0056,-0.5673,-3.9924,0.6786,1.6028,1.3607,44.925,17.9625,6.0938,,0.004271000000000136,4.155997883781945,3.3311252932657567,backward_fall
2.219628,1.0056,-0.5673,-3.9924,0.6786,1.6028,1.3607,44.8875,17.3813,6.6938,,0.0018560000000000798,4.155997883781945,3.1507174359401913,backward_fall
2.232193,0.6143,-0.4669,-1.173,0.6786,1.6028,1.3607,44.8875,17.3813,6.6938,,0.012564999999999937,1.4040260325221894,3.026209516482303,backward_fall
2.272488,0.6143,-0.4669,-1.173,0.6651,0.3365,1.7622,44.8875,17.3813,6.6938,,0.04029499999999997,1.4040260325221894,2.979378199641111,backward_fall
2.274704,0.6143,-0.4669,-1.173,0.6651,0.3365,1.7622,44.8875,17.3813,6.6938,,0.0022159999999997737,1.4040260325221894,3.0036558346307807,backward_fall
2.276991,0.6143,-0.4669,-1.173,0.6651,0.3365,1.7622,44.7563,16.4438,7.3688,,0.002287000000000372,1.4040260325221894,3.0657681796955467,backward_fall
2.292629,1.3244,3.3226,3.6961,0.6651,0.3365,1.7622,44.7563,16.4438,7.3688,,0.015637999999999597,5.14342894672416,3.117779804334554,backward_fall
2.334839,1.3244,3.3226,3.6961,2.9336,2.6753,2.9926,44.7563,16.4438,7.3688,,0.0422100000000003,5.14342894672416,3.11660022700915,backward_fall
2.337092,1.3244,3.3226,3.6961,2.9336,2.6753,2.9926,44.7563,16.4438,7.3688,,0.0022530000000000605,5.14342894672416,3.0440038308523114,backward_fall
2.33824,1.3244,3.3226,3.6961,2.9336,2.6753,2.9926,44.0438,15.0938,6.9938,,0.0011479999999997048,5.14342894672416,2.919073995486864,backward_fall
2.353631,0.3743,-0.4249,0.5639,2.9336,2.6753,2.9926,44.0438,15.0938,6.9938,,0.015391000000000155,0.7991393558072334,2.797773487055694,backward_fall
2.395166,0.3743,-0.4249,0.5639,3.5961,0.9485,2.759,44.0438,15.0938,6.9938,,0.0415350000000001,0.7991393558072334,2.7599373709928288,backward_fall
2.397796,0.3743,-0.4249,0.5639,3.5961,0.9485,2.759,44.0438,15.0938,6.9938,,0.00262999999999991,0.7991393558072334,2.889528678734569,backward_fall
2.398959,0.3743,-0.4249,0.5639,3.5961,0.9485,2.759,44.0625,12.9375,8.625,,0.0011630000000000251,0.7991393558072334,3.256486514870226,backward_fall
2.434938,-3.279,-3.5834,-4.837,3.5961,0.9485,2.759,44.0625,12.9375,8.625,,0.03597899999999976,6.85486437210832,3.9065594645298933,backward_fall
2.455928,-3.279,-3.5834,-4.837,2.6886,0.7245,3.3459,44.0625,12.9375,8.625,,0.020990000000000286,6.85486437210832,4.8603617819077085,backward_fall
2.459317,-3.279,-3.5834,-4.837,2.6886,0.7245,3.3459,44.0625,12.9375,8.625,,0.0033889999999998643,6.85486437210832,6.117699868412689,backward_fall
2.461606,-3.279,-3.5834,-4.837,2.6886,0.7245,3.3459,43.875,10.1438,10.8563,,0.0022890000000002075,6.85486437210832,7.661148803788359,backward_fall
2.49722,-5.8344,-1.363,9.476,2.6886,0.7245,3.3459,43.875,10.1438,10.8563,,0.03561399999999981,11.211269703294093,9.454745759567917,backward_fall
2.518468,-5.8344,-1.363,9.476,2.6886,0.7245,3.3459,43.875,10.1438,10.8563,,0.021247999999999934,11.211269703294093,11.437588458821551,backward_fall
2.519537,-5.8344,-1.363,9.476,1.4533,-0.6629,-0.742,43.875,10.1438,10.8563,,0.0010690000000002087,11.211269703294093,13.515643915339123,backward_fall
2.520739,-5.8344,-1.363,9.476,1.4533,-0.6629,-0.742,43.5938,7.575,13.2188,,0.0012019999999997033,11.211269703294093,15.557130430095686,backward_fall
2.5587,-11.3253,-10.6743,-12.2478,1.4533,-0.6629,-0.742,43.5938,7.575,13.2188,,0.037961000000000134,19.804335520789383,17.396958188527563,backward_fall
2.577536,-11.3253,-10.6743,-12.2478,1.4533,-0.6629,-0.742,42.1125,4.1625,16.4813,,0.018835999999999853,19.804335520789383,18.85315967748615,backward_fall
2.579437,-11.3253,-10.6743,-12.2478,1.4533,-0.6629,-0.742,42.1125,4.1625,16.4813,,0.0019010000000001526,19.804335520789383,19.7535497034798,backward_fall
2.581051,-11.3253,-10.6743,-12.2478,1.5012,6.3225,4.4499,42.1125,4.1625,16.4813,,0.0016140000000000043,19.804335520789383,19.96669961102456,backward_fall
2.638497,-11.3253,-10.6743,-12.2478,1.5012,6.3225,4.4499,36.5813,1.1625,21.7875,,0.05744600000000011,19.804335520789383,19.4299653338815,backward_fall
2.642601,-11.3253,-10.6743,-12.2478,2.3383,12.4729,-0.3614,36.5813,1.1625,21.7875,,0.0041039999999998855,19.804335520789383,18.168313398724564,backward_fall
2.645411,-11.3253,-10.6743,-12.2478,2.3383,12.4729,-0.3614,36.5813,1.1625,21.7875,,0.0028100000000002012,19.804335520789383,16.299339719588765,backward_fall
2.646894,6.6753,-0.4538,9.1439,2.3383,12.4729,-0.3614,36.5813,1.1625,21.7875,,0.001482999999999901,11.330334140703883,14.021840857779162,backward_fall
2.698887,6.6753,-0.4538,9.1439,2.3383,12.4729,-0.3614,29.55,-0.7125,26.025,,0.051992999999999956,11.330334140703883,11.588382834575807,backward_fall
2.701858,6.6753,-0.4538,9.1439,-0.1567,3.3867,0.1547,29.55,-0.7125,26.025,,0.002971000000000057,11.330334140703883,9.266288132366522,backward_fall
2.702854,-2.2213,2.6065,2.2576,-0.1567,3.3867,0.1547,29.55,-0.7125,26.025,,0.0009959999999997748,4.101801275049779,7.294626245029173,backward_fall
2.70391,-2.2213,2.6065,2.2576,-0.1567,3.3867,0.1547,29.55,-0.7125,26.025,,0.001056000000000168,4.101801275049779,5.845932530305106,backward_fall
2.758908,-2.2213,2.6065,2.2576,-0.1567,3.3867,0.1547,21.3188,-1.7063,29.775,,0.05499799999999988,4.101801275049779,5.000660261445496,backward_fall
2.763001,-2.2213,2.6065,2.2576,0.7561,2.9564,1.4754,21.3188,-1.7063,29.775,,0.004093000000000124,4.101801275049779,4.739998198532403,backward_fall
2.764969,-2.2213,2.6065,2.2576,0.7561,2.9564,1.4754,21.3188,-1.7063,29.775,,0.0019679999999997477,4.101801275049779,4.958573065124954,backward_fall
2.765896,-1.7679,3.9109,6.8272,0.7561,2.9564,1.4754,21.3188,-1.7063,29.775,,0.0009270000000003442,8.064196739911546,5.493526895301617,backward_fall
2.818327,-1.7679,3.9109,6.8272,0.7561,2.9564,1.4754,13.9125,-1.9125,33.0938,,0.052430999999999894,8.064196739911546,6.162204473094602,backward_fall
2.821346,-1.7679,3.9109,6.8272,-0.304,-6.7916,-0.5372,13.9125,-1.9125,33.0938,,0.003019000000000105,8.064196739911546,6.798694610801615,backward_fall
2.82289,-1.7679,3.9109,6.8272,-0.304,-6.7916,-0.5372,13.9125,-1.9125,33.0938,,0.0015439999999999898,8.064196739911546,7.280569508929355,backward_fall
2.823959,1.0921,4.5228,-4.5061,-0.304,-6.7916,-0.5372,13.9125,-1.9125,33.0938,,0.0010689999999997646,6.4771397591838324,7.541127843289324,backward_fall
2.878449,1.0921,4.5228,-4.5061,-0.304,-6.7916,-0.5372,7.4063,-1.8375,36.6375,,0.05448999999999993,6.4771397591838324,7.567633194512917,backward_fall
2.883291,1.0921,4.5228,-4.5061,-0.2277,1.4296,-1.1658,7.4063,-1.8375,36.6375,,0.004842000000000013,6.4771397591838324,7.390184904552074,backward_fall
2.885089,1.0921,4.5228,-4.5061,-0.2277,1.4296,-1.1658,7.4063,-1.8375,36.6375,,0.0017979999999999663,6.4771397591838324,7.067439066054707,backward_fall
2.902226,5.7573,2.2636,1.7581,-0.2277,1.4296,-1.1658,7.4063,-1.8375,36.6375,,0.017137000000000402,6.431275445819437,6.674314442593419,backward_fall
2.939136,5.7573,2.2636,1.7581,-0.2277,1.4296,-1.1658,0.4313,-1.1813,39.5063,,0.036909999999999776,6.431275445819437,6.294126829044559,backward_fall
2.943431,5.7573,2.2636,1.7581,0.0595,0.9269,-1.075,0.4313,-1.1813,39.5063,,0.004294999999999938,6.431275445819437,6.014681605185154,backward_fall
2.944622,5.7573,2.2636,1.7581,0.0595,0.9269,-1.075,0.4313,-1.1813,39.5063,,0.001190999999999942,6.431275445819437,5.92570886355586,backward_fall
2.962597,5.1004,3.3611,5.114,0.0595,0.9269,-1.075,0.4313,-1.1813,39.5063,,0.017975000000000296,7.966433918008734,6.114080635099368,backward_fall
2.998481,5.1004,3.3611,5.114,0.0595,0.9269,-1.075,-6.6188,-0.7688,42.525,,0.035883999999999805,7.966433918008734,6.653637278021735,backward_fall
3.006718,5.1004,3.3611,5.114,0.1384,0.1206,0.1637,-6.6188,-0.7688,42.525,,0.008236999999999828,7.966433918008734,7.588262844627789,backward_fall
3.007923,5.1004,3.3611,5.114,0.1384,0.1206,0.1637,-6.6188,-0.7688,42.525,,0.0012050000000001226,7.966433918008734,8.910030064238198,backward_fall
3.025197,7.6199,0.9174,5.2441,0.1384,0.1206,0.1637,-6.6188,-0.7688,42.525,,0.01727400000000001,9.295433479940568,10.53809485886812,backward_fall
3.058699,7.6199,0.9174,5.2441,0.1384,0.1206,0.1637,-12.9563,0.975,44.4375,,0.03350199999999992,9.295433479940568,12.30708276606538,backward_fall
3.065493,7.6199,0.9174,5.2441,0.8189,6.7592,1.1779,-12.9563,0.975,44.4375,,0.006794000000000189,9.295433479940568,13.974336204730845,backward_fall
3.06677,7.6199,0.9174,5.2441,0.8189,6.7592,1.1779,-12.9563,0.975,44.4375,,0.0012769999999999726,9.295433479940568,15.252406973138804,backward_fall
3.104737,-15.1685,0.0445,-15.8989,0.8189,6.7592,1.1779,-12.9563,0.975,44.4375,,0.037967000000000084,21.974084593220258,15.865986162638155,backward_fall
3.118979,-15.1685,0.0445,-15.8989,0.8189,6.7592,1.1779,-17.5125,2.3438,42.5813,,0.014241999999999866,21.974084593220258,15.621848951248468,backward_fall
3.125164,-15.1685,0.0445,-15.8989,-0.4449,1.241,-0.4206,-17.5125,2.3438,42.5813,,0.006184999999999885,21.974084593220258,14.470306138542712,backward_fall
3.127526,-15.1685,0.0445,-15.8989,-0.4449,1.241,-0.4206,-17.5125,2.3438,42.5813,,0.0023620000000001973,21.974084593220258,12.53375237937003,backward_fall
3.165339,-0.3524,0.0949,0.5562,-0.4449,1.241,-0.4206,-17.5125,2.3438,42.5813,,0.037812999999999874,0.6652444738590468,10.08684338919702,backward_fall
3.177008,-0.3524,0.0949,0.5562,-0.4449,1.241,-0.4206,-19.7063,3.15,41.475,,0.01166899999999993,0.6652444738590468,7.491389226966545,backward_fall
3.185026,-0.3524,0.0949,0.5562,0.1511,-0.884,-0.294,-19.7063,3.15,41.475,,0.008018000000000303,0.6652444738590468,5.107977218410949,backward_fall
3.185806,-0.3524,0.0949,0.5562,0.1511,-0.884,-0.294,-19.7063,3.15,41.475,,0.0007799999999997809,0.6652444738590468,3.214894309712812,backward_fall
3.227889,1.7395,-1.2696,2.3335,0.1511,-0.884,-0.294,-19.7063,3.15,41.475,,0.04208299999999987,3.1753687439414024,1.9588008182107128,backward_fall
3.238481,1.7395,-1.2696,2.3335,0.1511,-0.884,-0.294,-20.9438,3.6375,40.8938,,0.010592000000000379,3.1753687439414024,1.3461686652788032,backward_fall
3.24761,1.7395,-1.2696,2.3335,0.2129,0.2052,-0.2421,-20.9438,3.6375,40.8938,,0.00912899999999972,3.1753687439414024,1.2693273794758988,backward_fall
3.249241,1.7395,-1.2696,2.3335,0.2129,0.2052,-0.2421,-20.9438,3.6375,40.8938,,0.00163100000000016,3.1753687439414024,1.5523555673463636,backward_fall
3.288137,-0.3705,-0.8499,-2.5845,0.2129,0.2052,-0.2421,-20.9438,3.6375,40.8938,,0.03889599999999982,2.745767745094257,2.0008542481208935,backward_fall
3.298156,-0.3705,-0.8499,-2.5845,0.2129,0.2052,-0.2421,-22.9125,3.75,40.4438,,0.010019000000000222,2.745767745094257,2.443419990881775,backward_fall
3.308955,-0.3705,-0.8499,-2.5845,0.0798,0.0852,-0.0181,-22.9125,3.75,40.4438,,0.010799000000000003,2.745767745094257,2.758275885094693,backward_fall
3.310084,-0.3705,-0.8499,-2.5845,0.0798,0.0852,-0.0181,-22.9125,3.75,40.4438,,0.0011289999999997136,2.745767745094257,2.88367894900945,backward_fall
3.35779,-0.3705,-0.8499,-2.5845,0.0798,0.0852,-0.0181,-25.9875,4.1813,39.3375,,0.04770600000000025,2.745767745094257,2.81429693354592,backward_fall
3.369352,-0.3705,-0.8499,-2.5845,-0.1212,0.3557,0.0731,-25.9875,4.1813,39.3375,,0.011562000000000072,2.745767745094257,2.587638569949156,backward_fall
3.371076,0.1091,-0.7411,-0.9196,-0.1212,0.3557,0.0731,-25.9875,4.1813,39.3375,,0.0017239999999998368,1.1860843899149842,2.2652861798212918,backward_fall
3.372052,0.1091,-0.7411,-0.9196,-0.1212,0.3557,0.0731,-25.9875,4.1813,39.3375,,0.0009760000000000879,1.1860843899149842,1.9136312506486446,backward_fall
3.420992,0.1091,-0.7411,-0.9196,-0.1212,0.3557,0.0731,-28.4063,4.5563,38.5688,,0.048939999999999984,1.1860843899149842,1.5882280915681135,backward_fall
3.434644,0.1091,-0.7411,-0.9196,-0.1212,0.3557,0.0731,-28.4063,4.5563,38.5688,,0.013651999999999997,1.1860843899149842,1.3246153950231532,backward_fall
3.435671,0.0761,-0.3227,-1.3473,-0.1212,0.3557,0.0731,-28.4063,4.5563,38.5688,,0.0010270000000001112,1.3874955099026447,1.1365309330727515,backward_fall
3.436782,0.0761,-0.3227,-1.3473,-0.1919,-0.0997,0.1249,-28.4063,4.5563,38.5688,,0.001110999999999862,1.3874955099026447,1.0203777323025434,backward_fall
3.479333,0.0761,-0.3227,-1.3473,-0.1919,-0.0997,0.1249,-30.675,4.9313,37.6875,,0.042551000000000005,1.3874955099026447,0.963304092842772,backward_fall
3.491664,0.0761,-0.3227,-1.3473,-0.3151,-0.6103,0.3599,-30.675,4.9313,37.6875,,0.012331000000000092,1.3874955099026447,0.9517432548399638,backward_fall
3.493713,0.0761,-0.3227,-1.3473,-0.3151,-0.6103,0.3599,-30.675,4.9313,37.6875,,0.0020489999999999675,1.3874955099026447,0.9776978408440214,backward_fall
3.495129,0.3524,-0.3703,-0.7757,-0.3151,-0.6103,0.3599,-30.675,4.9313,37.6875,,0.0014159999999998618,0.9289878040103647,1.0411697196128487,backward_fall
3.538454,0.3524,-0.3703,-0.7757,-0.3151,-0.6103,0.3599,-32.025,5.0625,36.9375,,0.04332500000000028,0.9289878040103647,1.1485572544407343,backward_fall
3.552755,0.3524,-0.3703,-0.7757,0.1252,-1.3394,0.8722,-32.025,5.0625,36.9375,,0.014300999999999675,0.9289878040103647,1.3081619444293122,backward_fall
3.555255,0.3524,-0.3703,-0.7757,0.1252,-1.3394,0.8722,-32.025,5.0625,36.9375,,0.0024999999999999467,0.9289878040103647,1.5247643574766765,backward_fall
3.573493,1.3086,1.0801,-1.3305,0.1252,-1.3394,0.8722,-32.025,5.0625,36.9375,,0.0182380000000002,2.1562189638346103,1.7952879666227048,backward_fall
3.598412,1.3086,1.0801,-1.3305,0.1252,-1.3394,0.8722,-30.6188,5.2313,38.1562,,0.024919000000000135,2.1562189638346103,2.1069219227656695,non_fall
3.612088,1.3086,1.0801,-1.3305,0.5594,-3.1496,0.0358,-30.6188,5.2313,38.1562,,0.0136759999999998,2.1562189638346103,2.4381096417049313,non_fall
3.613925,1.3086,1.0801,-1.3305,0.5594,-3.1496,0.0358,-30.6188,5.2313,38.1562,,0.0018370000000000886,2.1562189638346103,2.7620118459572596,non_fall
3.633083,-2.7153,1.8586,-1.8988,0.5594,-3.1496,0.0358,-30.6188,5.2313,38.1562,,0.01915800000000001,3.799037969012682,3.05158459535373,non_fall
3.657622,-2.7153,1.8586,-1.8988,0.5594,-3.1496,0.0358,-29.1563,5.9062,38.8313,,0.024538999999999866,3.799037969012682,3.2850591715124375,non_fall
3.673219,-2.7153,1.8586,-1.8988,0.5594,-3.1496,0.0358,-29.1563,5.9062,38.8313,,0.015597000000000083,3.799037969012682,3.4502881004071413,non_fall
3.674502,-2.7153,1.8586,-1.8988,1.8362,2.8688,1.9333,-29.1563,5.9062,38.8313,,0.001282999999999923,3.799037969012682,3.546496518217835,non_fall
3.695709,-1.4613,-0.7996,2.6757,1.8362,2.8688,1.9333,-29.1563,5.9062,38.8313,,0.021206999999999976,3.151845227799106,3.582785032517032,non_fall
3.717696,-1.4613,-0.7996,2.6757,1.8362,2.8688,1.9333,-28.1438,6.9563,38.925,,0.0219870000000002,3.151845227799106,3.5740082251125025,non_fall
3.73456,-1.4613,-0.7996,2.6757,1.8362,2.8688,1.9333,-28.1438,6.9563,38.925,,0.01686399999999999,3.151845227799106,3.5357097395938335,non_fall
3.737086,-1.4613,-0.7996,2.6757,-0.2213,-1.4513,-0.8996,-28.1438,6.9563,38.925,,0.0025260000000000282,3.151845227799106,3.4800715484841374,non_fall
3.756222,3.5647,-0.1587,0.214,-0.2213,-1.4513,-0.8996,-28.1438,6.9563,38.925,,0.019136000000000042,3.574642328961039,3.4142343968064486,non_fall
3.780281,3.5647,-0.1587,0.214,-0.2213,-1.4513,-0.8996,-27.2625,7.6875,39.1313,,0.02405899999999983,3.574642328961039,3.341208477489719,non_fall
3.796315,3.5647,-0.1587,0.214,-0.7868,0.2595,-2.5755,-27.2625,7.6875,39.1313,,0.01603399999999988,3.574642328961039,3.2624642522516587,non_fall
3.797886,3.5647,-0.1587,0.214,-0.7868,0.2595,-2.5755,-27.2625,7.6875,39.1313,,0.0015710000000002111,3.574642328961039,3.180648404274949,non_fall
3.84004,3.5647,-0.1587,0.214,-0.7868,0.2595,-2.5755,-26.5313,7.725,39.2812,,0.042154000000000025,3.574642328961039,3.100928477055297,non_fall
3.841993,1.1236,2.2878,0.4962,-0.7868,0.2595,-2.5755,-26.5313,7.725,39.2812,,0.0019529999999998715,2.5966748429481887,3.030168571329738,non_fall
3.855622,1.1236,2.2878,0.4962,-0.4289,0.6372,-1.3963,-26.5313,7.725,39.2812,,0.013628999999999891,2.5966748429481887,2.9742043446556528,non_fall
3.857313,1.1236,2.2878,0.4962,-0.4289,0.6372,-1.3963,-26.5313,7.725,39.2812,,0.001691000000000109,2.5966748429481887,2.9344838593188607,non_fall
3.902469,1.1236,2.2878,0.4962,-0.4289,0.6372,-1.3963,-26.0813,7.4625,39.6,,0.045155999999999974,2.5966748429481887,2.9057825434234226,non_fall
3.904315,2.4906,0.8801,1.2478,-0.4289,0.6372,-1.3963,-26.0813,7.4625,39.6,,0.0018460000000000143,2.9214156174704073,2.876338135891349,non_fall
3.918467,2.4906,0.8801,1.2478,-0.4289,0.6372,-1.3963,-26.0813,7.4625,39.6,,0.014152000000000164,2.9214156174704073,2.8307922656227547,non_fall
3.919894,2.4906,0.8801,1.2478,-0.0225,0.7081,-0.1402,-26.0813,7.4625,39.6,,0.001427000000000067,2.9214156174704073,2.755259278413695,non_fall
3.958717,2.4906,0.8801,1.2478,-0.0225,0.7081,-0.1402,-25.6125,7.2938,39.675,,0.03882299999999983,2.9214156174704073,2.643097937387733,non_fall
3.963223,1.8308,-1.6155,0.4714,-0.0225,0.7081,-0.1402,-25.6125,7.2938,39.675,,0.004506000000000121,2.4867422162339223,2.4997241376659494,non_fall
3.977749,1.8308,-1.6155,0.4714,0.4007,0.4447,0.4937,-25.6125,7.2938,39.675,,0.014526000000000039,2.4867422162339223,2.345026795219636,non_fall
3.979704,1.8308,-1.6155,0.4714,0.4007,0.4447,0.4937,-25.6125,7.2938,39.675,,0.001954999999999707,2.4867422162339223,2.212448145747103,non_fall
4.019782,1.8308,-1.6155,0.4714,0.4007,0.4447,0.4937,-25.875,7.4813,39.3,,0.04007800000000028,2.4867422162339223,2.1443730140793207,non_fall
4.03865,1.8308,-1.6155,0.4714,0.4007,0.4447,0.4937,-25.875,7.4813,39.3,,0.01886799999999944,2.4867422162339223,2.184080117636929,non_fall
4.041393,1.8308,-1.6155,0.4714,1.428,1.026,0.0258,-25.875,7.4813,39.3,,0.002743000000000606,2.4867422162339223,2.36522904026316,non_fall
4.042679,1.2306,-0.7664,1.6578,1.428,1.026,0.0258,-25.875,7.4813,39.3,,0.0012859999999994542,2.202282034617728,2.700755931167482,non_fall
4.07689,1.2306,-0.7664,1.6578,1.428,1.026,0.0258,-27.15,7.725,38.25,,0.03421099999999999,2.202282034617728,3.1739751155028153,non_fall
4.099981,1.2306,-0.7664,1.6578,-0.9036,3.9124,1.5709,-27.15,7.725,38.25,,0.023090999999999973,2.202282034617728,3.7351972187492675,non_fall
4.102898,1.2306,-0.7664,1.6578,-0.9036,3.9124,1.5709,-27.15,7.725,38.25,,0.0029170000000000584,2.202282034617728,4.306670235103581,non_fall
4.104073,-6.3031,-1.1966,-2.567,-0.9036,3.9124,1.5709,-27.15,7.725,38.25,,0.001174999999999926,6.910167159338477,4.796629990454592,non_fall
4.137472,-6.3031,-1.1966,-2.567,-0.9036,3.9124,1.5709,-29.3813,7.8,36.5625,,0.03339900000000018,6.910167159338477,5.119857783377509,non_fall
4.160565,-6.3031,-1.1966,-2.567,1.7944,0.9804,-0.8261,-29.3813,7.8,36.5625,,0.023093000000000252,6.910167159338477,5.218735171774013,non_fall
4.162645,-6.3031,-1.1966,-2.567,1.7944,0.9804,-0.8261,-29.3813,7.8,36.5625,,0.002080000000000304,6.910167159338477,5.07752398831386,non_fall
4.163644,0.715,1.3608,-2.4519,1.7944,0.9804,-0.8261,-29.3813,7.8,36.5625,,0.000998999999999306,2.893927305583193,4.72478759781432,non_fall
4.201304,0.715,1.3608,-2.4519,1.7944,0.9804,-0.8261,-31.5375,7.575,34.95,,0.03766000000000069,2.893927305583193,4.223604298567945,non_fall
4.223262,0.715,1.3608,-2.4519,0.6673,0.2208,-0.1743,-31.5375,7.575,34.95,,0.0219579999999997,2.893927305583193,3.653924990864257,non_fall
4.224902,0.715,1.3608,-2.4519,0.6673,0.2208,-0.1743,-31.5375,7.575,34.95,,0.0016400000000000858,2.893927305583193,3.093655092093124,non_fall
4.225484,-0.5641,-0.2661,-2.1901,0.6673,0.2208,-0.1743,-31.5375,7.575,34.95,,0.0005819999999996384,2.277181597940753,2.6041080376881016,non_fall
4.258904,-0.5641,-0.2661,-2.1901,0.6673,0.2208,-0.1743,-33.7875,7.8563,33.0,,0.03342000000000045,2.277181597940753,2.222656631111161,non_fall
4.281997,-0.5641,-0.2661,-2.1901,1.6698,-0.0473,-0.7579,-33.7875,7.8563,33.0,,0.023092999999999364,2.277181597940753,1.9625485215813483,non_fall
4.283745,-0.5641,-0.2661,-2.1901,1.6698,-0.0473,-0.7579,-33.7875,7.8563,33.0,,0.0017480000000000828,2.277181597940753,1.8179619147471153,non_fall
4.302496,-1.0792,1.0573,-1.3258,1.6698,-0.0473,-0.7579,-33.7875,7.8563,33.0,,0.018750999999999962,2.0100501411656375,1.7715605394145124,non_fall
4.317458,-1.0792,1.0573,-1.3258,1.6698,-0.0473,-0.7579,-35.8313,8.85,31.1063,,0.014962000000000586,2.0100501411656375,1.8018869730482132,non_fall
4.346101,-1.0792,1.0573,-1.3258,3.2179,-0.9003,-2.206,-35.8313,8.85,31.1063,,0.028642999999999752,2.0100501411656375,1.8886830653365518,non_fall
4.349922,-1.0792,1.0573,-1.3258,3.2179,-0.9003,-2.206,-35.8313,8.85,31.1063,,0.0038210000000002964,2.0100501411656375,2.0153036489087577,non_fall
4.364738,-0.1044,1.7723,-1.1184,3.2179,-0.9003,-2.206,-35.8313,8.85,31.1063,,0.014815999999999718,2.0982767238855793,2.1684302293310735,non_fall
4.376556,-0.1044,1.7723,-1.1184,3.2179,-0.9003,-2.206,-37.6688,9.9188,28.8938,,0.011817999999999884,2.0982767238855793,2.3360639115864608,non_fall
4.406953,-0.1044,1.7723,-1.1184,3.2179,-0.9003,-2.206,-37.6688,9.9188,28.8938,,0.030396999999999785,2.0982767238855793,2.505188972423556,non_fall
4.409704,-0.1044,1.7723,-1.1184,2.6308,-1.5546,-2.7771,-37.6688,9.9188,28.8938,,0.002750999999999948,2.0982767238855793,2.6605019476025333,non_fall
4.424161,-0.1914,3.1234,-0.008,2.6308,-1.5546,-2.7771,-37.6688,9.9188,28.8938,,0.014457000000000164,3.129269167073999,2.785149465435413,non_fall
4.437163,-0.1914,3.1234,-0.008,2.6308,-1.5546,-2.7771,-39.4313,10.4625,27.3563,,0.01300200000000018,3.129269167073999,2.8635537184937854,non_fall
4.464652,-0.1914,3.1234,-0.008,2.7561,-1.6685,-2.9544,-39.4313,10.4625,27.3563,,0.027489000000000097,3.129269167073999,2.8854127624316304,non_fall
4.466818,-0.1914,3.1234,-0.008,2.7561,-1.6685,-2.9544,-39.4313,10.4625,27.3563,,0.0021659999999998902,3.129269167073999,2.849328132911417,non_fall
4.497236,-0.1914,3.1234,-0.008,2.7561,-1.6685,-2.9544,-40.7625,10.4625,26.2313,,0.030418000000000056,3.129269167073999,2.7645680084207886,non_fall
4.507122,-0.1525,0.352,2.2981,2.7561,-1.6685,-2.9544,-40.7625,10.4625,26.2313,,0.00988599999999984,2.3298978217939084,2.6501449745220964,non_fall
4.525949,-0.1525,0.352,2.2981,3.034,0.944,-3.1656,-40.7625,10.4625,26.2313,,0.018826999999999927,2.3298978217939084,2.5313264106227753,non_fall
4.528497,-0.1525,0.352,2.2981,3.034,0.944,-3.1656,-40.7625,10.4625,26.2313,,0.0025479999999999947,2.3298978217939084,2.434521715542199,non_fall
4.558332,-0.1525,0.352,2.2981,3.034,0.944,-3.1656,-41.8875,9.6,25.5375,,0.029835000000000278,2.3298978217939084,2.3818994360471297,non_fall
4.566841,1.7395,-0.6795,-1.4615,3.034,0.944,-3.1656,-41.8875,9.6,25.5375,,0.0085090000000001,2.371405226864443,2.3869840516905665,non_fall
4.587069,1.7395,-0.6795,-1.4615,1.8139,-2.3533,-4.4901,-41.8875,9.6,25.5375,,0.02022799999999947,2.371405226864443,2.45206047342912,non_fall
4.590788,1.7395,-0.6795,-1.4615,1.8139,-2.3533,-4.4901,-41.8875,9.6,25.5375,,0.00371900000000025,2.371405226864443,2.5677658666783105,non_fall
4.617737,1.7395,-0.6795,-1.4615,1.8139,-2.3533,-4.4901,-42.075,7.35,26.3813,,0.026949000000000112,2.371405226864443,2.714897013715727,non_fall
4.626268,-2.5919,0.839,-1.8088,1.8139,-2.3533,-4.4901,-42.075,7.35,26.3813,,0.008530999999999622,3.27011070913509,2.868128199355265,non_fall
4.649745,-2.5919,0.839,-1.8088,0.7141,-0.3696,-2.0924,-42.075,7.35,26.3813,,0.023477000000000636,3.27011070913509,3.000924171793347,non_fall
4.653349,-2.5919,0.839,-1.8088,0.7141,-0.3696,-2.0924,-42.075,7.35,26.3813,,0.0036040000000001626,3.27011070913509,3.090542330740097,non_fall
4.67724,-2.5919,0.839,-1.8088,0.7141,-0.3696,-2.0924,-41.7188,4.7625,27.5625,,0.023890999999999885,3.27011070913509,3.1219265639725173,non_fall
4.688017,2.8194,-0.3502,0.3355,0.7141,-0.3696,-2.0924,-41.7188,4.7625,27.5625,,0.010777000000000037,2.8608069927906707,3.0896688722497854,non_fall
4.708699,2.8194,-0.3502,0.3355,1.8607,-1.9035,-2.7388,-41.7188,4.7625,27.5625,,0.020681999999999867,2.8608069927906707,2.9978793873086085,non_fall
4.71075,2.8194,-0.3502,0.3355,1.8607,-1.9035,-2.7388,-41.7188,4.7625,27.5625,,0.002050999999999803,2.8608069927906707,2.858382396847238,non_fall
4.738113,2.8194,-0.3502,0.3355,1.8607,-1.9035,-2.7388,-40.7063,1.9875,29.475,,0.027363000000000248,2.8608069927906707,2.687881703280835,non_fall
4.772074,2.8194,-0.3502,0.3355,1.1629,0.4786,-2.0661,-40.7063,1.9875,29.475,,0.033960999999999686,2.8608069927906707,2.504644327723816,non_fall
4.775848,1.0353,0.8485,-1.3249,1.1629,0.4786,-2.0661,-40.7063,1.9875,29.475,,0.003773999999999944,1.8833901215627102,2.325107580462999,non_fall
4.778466,1.0353,0.8485,-1.3249,1.1629,0.4786,-2.0661,-40.7063,1.9875,29.475,,0.002618000000000009,1.8833901215627102,2.1608662631632742,non_fall
4.796711,1.0353,0.8485,-1.3249,1.1629,0.4786,-2.0661,-39.525,-0.825,31.425,,0.01824500000000029,1.8833901215627102,2.016684288154751,non_fall
4.83041,1.0353,0.8485,-1.3249,0.9221,0.3475,-1.2408,-39.525,-0.825,31.425,,0.03369899999999948,1.8833901215627102,1.890171530478203,non_fall
4.834199,1.0353,0.8485,-1.3249,0.9221,0.3475,-1.2408,-39.525,-0.825,31.425,,0.0037890000000002644,1.8833901215627102,1.7733669043551772,non_fall
4.836882,1.0223,0.7367,1.0689,0.9221,0.3475,-1.2408,-39.525,-0.825,31.425,,0.002683000000000213,1.6523835480904547,1.655847257348855,non_fall
4.858258,1.0223,0.7367,1.0689,0.9221,0.3475,-1.2408,-38.3063,-3.4875,33.5625,,0.02137600000000006,1.6523835480904547,1.5284884027746084,non_fall
4.893874,1.0223,0.7367,1.0689,0.5984,0.5502,-0.7775,-38.3063,-3.4875,33.5625,,0.03561600000000009,1.6523835480904547,1.3868230362624314,non_fall
4.897477,1.0223,0.7367,1.0689,0.5984,0.5502,-0.7775,-38.3063,-3.4875,33.5625,,0.003603000000000023,1.6523835480904547,1.2330462126321473,non_fall
4.89935,0.3209,0.1299,0.6909,0.5984,0.5502,-0.7775,-38.3063,-3.4875,33.5625,,0.0018729999999997915,0.7727830419982052,1.0760614886863595,non_fall
4.916773,0.3209,0.1299,0.6909,0.5984,0.5502,-0.7775,-37.3125,-5.775,35.1938,,0.017422999999999966,0.7727830419982052,0.9295166544048548,non_fall
4.953848,0.3209,0.1299,0.6909,0.6637,-0.0138,-0.4643,-37.3125,-5.775,35.1938,,0.03707499999999975,0.7727830419982052,0.8084060716432332,non_fall
4.958013,0.3209,0.1299,0.6909,0.6637,-0.0138,-0.4643,-37.3125,-5.775,35.1938,,0.004165000000000418,0.7727830419982052,0.7252274663438164,non_fall
4.974136,0.3883,0.2568,0.2755,0.6637,-0.0138,-0.4643,-37.3125,-5.775,35.1938,,0.016122999999999443,0.5409467441440053,0.6866988708287471,non_fall
4.975978,0.3883,0.2568,0.2755,0.6637,-0.0138,-0.4643,-36.3938,-7.95,36.6938,,0.0018419999999998993,0.5409467441440053,0.6917910664804825,non_fall
5.01542,0.3883,0.2568,0.2755,0.2945,0.3763,-0.0245,-36.3938,-7.95,36.6938,,0.0394420000000002,0.5409467441440053,0.7315332383413132,non_fall
5.01959,0.3883,0.2568,0.2755,0.2945,0.3763,-0.0245,-36.3938,-7.95,36.6938,,0.004170000000000229,0.5409467441440053,0.79074776693907,non_fall
5.033707,0.2377,0.6856,-0.9362,0.2945,0.3763,-0.0245,-36.3938,-7.95,36.6938,,0.014116999999999713,1.1844910679274876,0.8514690464184783,non_fall
5.036759,0.2377,0.6856,-0.9362,0.2945,0.3763,-0.0245,-35.5875,-9.4125,37.8188,,0.0030520000000002767,1.1844910679274876,0.8972902159816352,non_fall
5.077427,0.2377,0.6856,-0.9362,0.1767,0.2744,0.2172,-35.5875,-9.4125,37.8188,,0.04066800000000015,1.1844910679274876,0.9174479839261709,non_fall
5.080636,0.2377,0.6856,-0.9362,0.1767,0.2744,0.2172,-35.5875,-9.4125,37.8188,,0.0032090000000000174,1.1844910679274876,0.9093866624730227,non_fall
5.094398,0.1849,0.3085,-0.5571,0.1767,0.2744,0.2172,-35.5875,-9.4125,37.8188,,0.01376199999999983,0.6631143717338661,0.87898495309938,non_fall
5.096522,0.1849,0.3085,-0.5571,0.1767,0.2744,0.2172,-35.0813,-9.6375,38.1938,,0.002124000000000237,0.6631143717338661,0.8384272000690799,non_fall
5.136125,0.1849,0.3085,-0.5571,0.1439,0.3603,0.4394,-35.0813,-9.6375,38.1938,,0.03960299999999961,0.6631143717338661,0.8024816291591447,non_fall
5.139796,0.1849,0.3085,-0.5571,0.1439,0.3603,0.4394,-35.0813,-9.6375,38.1938,,0.003670999999999758,0.6631143717338661,0.7843631106792393,non_fall
5.15534,-0.3164,0.7426,-0.1788,0.1439,0.3603,0.4394,-35.0813,-9.6375,38.1938,,0.015544000000000224,0.8267606425078543,0.7922912190804058,non_fall
5.158487,-0.3164,0.7426,-0.1788,0.1439,0.3603,0.4394,-34.95,-9.5063,38.5688,,0.003147000000000233,0.8267606425078543,0.8274593629727686,non_fall
5.198572,-0.3164,0.7426,-0.1788,-0.0101,-0.0888,0.3305,-34.95,-9.5063,38.5688,,0.04008500000000037,0.8267606425078543,0.8836748695103864,non_fall
5.202116,-0.3164,0.7426,-0.1788,-0.0101,-0.0888,0.3305,-34.95,-9.5063,38.5688,,0.0035439999999997696,0.8267606425078543,0.9485951920299817,non_fall
5.218494,-0.3164,0.7426,-0.1788,-0.0101,-0.0888,0.3305,-35.1375,-9.2063,38.2875,,0.01637799999999956,0.8267606425078543,1.006286256929177,non_fall
5.238945,0.368,-0.6231,1.03,-0.0101,-0.0888,0.3305,-35.1375,-9.2063,38.2875,,0.02045100000000044,1.2588000675246247,1.0406622212011818,non_fall
5.259454,0.368,-0.6231,1.03,-0.1659,-0.0057,0.4153,-35.1375,-9.2063,38.2875,,0.020508999999999666,1.2588000675246247,1.0391452909094019,non_fall
5.261932,0.368,-0.6231,1.03,-0.1659,-0.0057,0.4153,-35.1375,-9.2063,38.2875,,0.0024779999999999802,1.2588000675246247,0.9956722044815174,non_fall
5.278873,0.368,-0.6231,1.03,-0.1659,-0.0057,0.4153,-35.5312,-8.775,38.0625,,0.016941000000000095,1.2588000675246247,0.9121718409487727,non_fall
5.297882,-0.09,0.3899,0.1546,-0.1659,-0.0057,0.4153,-35.5312,-8.775,38.0625,,0.019009000000000498,0.4289792186108786,0.7980061312878937,non_fall
5.31834,-0.09,0.3899,0.1546,-0.3033,0.028,0.4426,-35.5312,-8.775,38.0625,,0.020457999999999643,0.4289792186108786,0.6675381604971378,non_fall
5.320864,-0.09,0.3899,0.1546,-0.3033,0.028,0.4426,-35.5312,-8.775,38.0625,,0.0025240000000001928,0.4289792186108786,0.5366559687416799,non_fall
5.337105,-0.09,0.3899,0.1546,-0.3033,0.028,0.4426,-35.8313,-8.2875,37.7063,,0.01624099999999995,0.4289792186108786,0.4193712993911444,non_fall
5.35795,0.2502,0.0317,-0.0318,-0.3033,0.028,0.4426,-35.8313,-8.2875,37.7063,,0.02084499999999956,0.25419710855947986,0.32540143022132934,non_fall
5.377744,0.2502,0.0317,-0.0318,-0.2965,0.1153,0.4871,-35.8313,-8.2875,37.7063,,0.01979400000000009,0.25419710855947986,0.25914499828279136,non_fall
5.379932,0.2502,0.0317,-0.0318,-0.2965,0.1153,0.4871,-35.8313,-8.2875,37.7063,,0.002188000000000301,0.25419710855947986,0.219997146968377,non_fall
5.398695,0.2502,0.0317,-0.0318,-0.2965,0.1153,0.4871,-36.0563,-7.6125,37.2375,,0.018762999999999863,0.25419710855947986,0.20365974075424398,non_fall
5.439382,0.2502,0.0317,-0.0318,-0.2021,0.1189,0.498,-36.0563,-7.6125,37.2375,,0.04068700000000014,0.25419710855947986,0.20396731302589768,non_fall
5.441267,0.2502,0.0317,-0.0318,-0.2021,0.1189,0.498,-36.0563,-7.6125,37.2375,,0.0018849999999996925,0.25419710855947986,0.21472753884460005,non_fall
5.441927,-0.0135,0.1769,-0.2349,-0.2021,0.1189,0.498,-36.0563,-7.6125,37.2375,,0.0006599999999998829,0.29437029401758597,0.2311489397352904,non_fall
5.4559,-0.0135,0.1769,-0.2349,-0.2021,0.1189,0.498,-36.45,-6.9375,36.6938,,0.013973000000000013,0.29437029401758597,0.2505733130904973,non_fall
5.501374,-0.0135,0.1769,-0.2349,-0.1868,0.1615,0.5008,-36.45,-6.9375,36.6938,,0.04547400000000046,0.29437029401758597,0.2724116516053415,non_fall
5.503457,-0.0135,0.1769,-0.2349,-0.1868,0.1615,0.5008,-36.45,-6.9375,36.6938,,0.002082999999999835,0.29437029401758597,0.2973738432028844,non_fall
5.504289,0.1643,0.1286,-0.146,-0.1868,0.1615,0.5008,-36.45,-6.9375,36.6938,,0.0008319999999999439,0.25465358823311324,0.3262622505457246,non_fall
5.517241,0.1643,0.1286,-0.146,-0.1868,0.1615,0.5008,-36.5813,-6.15,36.2438,,0.012952000000000297,0.25465358823311324,0.3587347996028876,non_fall
5.5637,0.1643,0.1286,-0.146,-0.2305,0.0501,0.6173,-36.5813,-6.15,36.2438,,0.046458999999999584,0.25465358823311324,0.3924900280651441,non_fall
5.567789,0.1643,0.1286,-0.146,-0.2305,0.0501,0.6173,-36.5813,-6.15,36.2438,,0.004089000000000453,0.25465358823311324,0.4232416898129776,non_fall
5.569993,0.2618,0.0908,0.5355,-0.2305,0.0501,0.6173,-36.5813,-6.15,36.2438,,0.0022039999999998727,0.6029462082142983,0.445614509312103,non_fall
5.580944,0.2618,0.0908,0.5355,-0.2305,0.0501,0.6173,-36.6938,-5.5125,36.0188,,0.010950999999999489,0.6029462082142983,0.454744245304166,non_fall
5.623967,0.2618,0.0908,0.5355,-0.3878,0.2012,0.6013,-36.6938,-5.5125,36.0188,,0.0430230000000007,0.6029462082142983,0.4480327013357431,non_fall
5.627269,0.2618,0.0908,0.5355,-0.3878,0.2012,0.6013,-36.6938,-5.5125,36.0188,,0.003301999999999694,0.6029462082142983,0.42637276359520143,non_fall
5.628802,0.0484,0.2113,0.1631,-0.3878,0.2012,0.6013,-36.6938,-5.5125,36.0188,,0.0015330000000002286,0.27127819669114583,0.39432708978307135,non_fall
5.63726,0.0484,0.2113,0.1631,-0.3878,0.2012,0.6013,-36.7875,-5.0063,35.7188,,0.008458000000000077,0.27127819669114583,0.3591492099631079,non_fall
5.683481,0.0484,0.2113,0.1631,-0.4229,0.4277,0.6156,-36.7875,-5.0063,35.7188,,0.04622099999999918,0.27127819669114583,0.3289713908193169,non_fall
5.687283,0.0484,0.2113,0.1631,-0.4229,0.4277,0.6156,-36.7875,-5.0063,35.7188,,0.003802000000000305,0.27127819669114583,0.310741458948857,non_fall
5.696891,0.0484,0.2113,0.1631,-0.4229,0.4277,0.6156,-37.2563,-4.5375,35.1375,,0.009608000000000061,0.27127819669114583,0.30849181676889126,non_fall
5.703752,0.0448,0.0376,-0.3055,-0.4229,0.4277,0.6156,-37.2563,-4.5375,35.1375,,0.006860999999999784,0.311048308145214,0.3223456086547087,non_fall
5.745127,0.0448,0.0376,-0.3055,-0.3875,0.3795,0.7294,-37.2563,-4.5375,35.1375,,0.041375000000000384,0.311048308145214,0.3484417858773833,non_fall
5.748894,0.0448,0.0376,-0.3055,-0.3875,0.3795,0.7294,-37.2563,-4.5375,35.1375,,0.003766999999999854,0.311048308145214,0.37977195037996,non_fall
5.757162,0.0448,0.0376,-0.3055,-0.3875,0.3795,0.7294,-37.7812,-4.0875,34.575,,0.008268000000000164,0.311048308145214,0.40777140928040173,non_fall
5.764134,0.0416,0.1372,-0.5652,-0.3875,0.3795,0.7294,-37.7812,-4.0875,34.575,,0.0069720000000002,0.583099854227387,0.4243630178803592,non_fall
5.805421,0.0416,0.1372,-0.5652,-0.2028,0.185,0.7156,-37.7812,-4.0875,34.575,,0.04128699999999963,0.583099854227387,0.42399863044925795,non_fall
5.808978,0.0416,0.1372,-0.5652,-0.2028,0.185,0.7156,-37.7812,-4.0875,34.575,,0.0035569999999998103,0.583099854227387,0.4051318313702325,non_fall
5.817931,0.0416,0.1372,-0.5652,-0.2028,0.185,0.7156,-38.4188,-3.3563,34.0125,,0.008952999999999989,0.583099854227387,0.3706056495791704,non_fall
5.827006,0.0483,-0.0529,-0.04,-0.2028,0.185,0.7156,-38.4188,-3.3563,34.0125,,0.009075000000000166,0.0820445001203615,0.3267342570045739,non_fall
5.867679,0.0483,-0.0529,-0.04,-0.2345,0.3684,0.6802,-38.4188,-3.3563,34.0125,,0.04067299999999996,0.0820445001203615,0.28133635634881154,non_fall
5.871526,0.0483,-0.0529,-0.04,-0.2345,0.3684,0.6802,-38.4188,-3.3563,34.0125,,0.003847000000000378,0.0820445001203615,0.24142172005407833,non_fall
5.878121,0.0483,-0.0529,-0.04,-0.2345,0.3684,0.6802,-38.8313,-2.6813,33.3938,,0.0065949999999999065,0.0820445001203615,0.21138591717707733,non_fall
5.907588,-0.2342,0.0833,-0.128,-0.2345,0.3684,0.6802,-38.8313,-2.6813,33.3938,,0.029466999999999466,0.27959350850833425,0.19232672633127454,non_fall
5.926486,-0.2342,0.0833,-0.128,-0.0768,0.0312,0.6063,-38.8313,-2.6813,33.3938,,0.01889800000000008,0.27959350850833425,0.18259533403968473,non_fall
5.928546,-0.2342,0.0833,-0.128,-0.0768,0.0312,0.6063,-38.8313,-2.6813,33.3938,,0.002060000000000173,0.27959350850833425,0.17920535779854677,non_fall
5.93642,-0.2342,0.0833,-0.128,-0.0768,0.0312,0.6063,-39.0563,-1.8938,32.9813,,0.007874000000000159,0.27959350850833425,0.1794589980663231,non_fall
5.967776,-0.0437,-0.1523,0.1112,-0.0768,0.0312,0.6063,-39.0563,-1.8938,32.9813,,0.03135599999999972,0.19357277701164488,0.18217504545251006,non_fall
5.98775,-0.0437,-0.1523,0.1112,-0.1308,0.218,0.5847,-39.0563,-1.8938,32.9813,,0.01997400000000038,0.19357277701164488,0.18814059196263447,non_fall
5.991266,-0.0437,-0.1523,0.1112,-0.1308,0.218,0.5847,-39.0563,-1.8938,32.9813,,0.0035160000000002967,0.19357277701164488,0.1997171579453969,non_fall
5.99718,-0.0437,-0.1523,0.1112,-0.1308,0.218,0.5847,-39.5438,-1.2,32.5312,,0.005913999999999753,0.19357277701164488,0.21979305641154065,non_fall
6.029889,0.1752,0.1302,-0.0747,-0.1308,0.218,0.5847,-39.5438,-1.2,32.5312,,0.032708999999999655,0.23071014281994626,0.2504305394886122,non_fall
6.049233,0.1752,0.1302,-0.0747,-0.2618,0.5711,0.6748,-39.5438,-1.2,32.5312,,0.01934400000000025,0.23071014281994626,0.2916100528331358,non_fall
6.053146,0.1752,0.1302,-0.0747,-0.2618,0.5711,0.6748,-39.5438,-1.2,32.5312,,0.003912999999999833,0.23071014281994626,0.3404500161961732,non_fall
6.054897,0.1752,0.1302,-0.0747,-0.2618,0.5711,0.6748,-40.1625,-0.3188,31.7438,,0.0017510000000005022,0.23071014281994626,0.391191307399747,non_fall
6.090989,-0.5147,-0.1545,-0.0682,-0.2618,0.5711,0.6748,-40.1625,-0.3188,31.7438,,0.03609200000000001,0.5416987908422909,0.43606877546061495,non_fall
6.110353,-0.5147,-0.1545,-0.0682,-0.2618,0.5711,0.6748,-40.1625,-0.3188,31.7438,,0.019363999999999493,0.5416987908422909,0.46694303374184487,non_fall
6.112522,-0.5147,-0.1545,-0.0682,-0.1798,0.1718,0.2907,-40.1625,-0.3188,31.7438,,0.0021690000000003096,0.5416987908422909,0.47729531305573925,non_fall
6.117242,-0.5147,-0.1545,-0.0682,-0.1798,0.1718,0.2907,-40.7063,0.6938,30.8625,,0.0047199999999998354,0.5416987908422909,0.46402068035588906,non_fall
6.171571,-0.5147,-0.1545,-0.0682,-0.0246,0.0663,0.0056,-40.7063,0.6938,30.8625,,0.05432900000000007,0.5416987908422909,0.4284792921304427,non_fall
6.175104,-0.5147,-0.1545,-0.0682,-0.0246,0.0663,0.0056,-40.7063,0.6938,30.8625,,0.0035330000000000084,0.5416987908422909,0.37646268031428953,non_fall
6.177353,-0.1094,0.0044,-0.0674,-0.0246,0.0663,0.0056,-40.7063,0.6938,30.8625,,0.0022489999999999455,0.1285709142846857,0.317028995270939,non_fall
6.180077,-0.1094,0.0044,-0.0674,-0.0246,0.0663,0.0056,-41.1188,1.65,30.3563,,0.0027239999999997266,0.1285709142846857,0.260493177613873,non_fall
6.233499,-0.1094,0.0044,-0.0674,0.0947,-0.2109,-0.2077,-41.1188,1.65,30.3563,,0.0534220000000003,0.1285709142846857,0.2161346034784336,non_fall
6.237213,-0.1094,0.0044,-0.0674,0.0947,-0.2109,-0.2077,-41.1188,1.65,30.3563,,0.003713999999999551,0.1285709142846857,0.19027364456461204,non_fall
6.239468,-0.1549,0.0502,-0.1422,0.0947,-0.2109,-0.2077,-41.1188,1.65,30.3563,,0.002254999999999896,0.21618253861031422,0.18520553752254765,non_fall
6.241999,-0.1549,0.0502,-0.1422,0.0947,-0.2109,-0.2077,-41.3625,2.4563,29.8688,,0.002531000000000283,0.21618253861031422,0.19915740135368434,non_fall
6.293764,-0.1549,0.0502,-0.1422,-0.0349,0.1423,0.0863,-41.3625,2.4563,29.8688,,0.051765000000000505,0.21618253861031422,0.2271230370532986,non_fall
6.296829,0.2142,-0.1787,0.2066,-0.0349,0.1423,0.0863,-41.3625,2.4563,29.8688,,0.0030649999999994293,0.3471295003309284,0.2622409514937072,non_fall
6.299459,0.2142,-0.1787,0.2066,-0.0349,0.1423,0.0863,-41.3625,2.4563,29.8688,,0.00262999999999991,0.3471295003309284,0.29732442291826144,non_fall
6.300926,0.2142,-0.1787,0.2066,-0.0349,0.1423,0.0863,-41.475,3.0188,29.4375,,0.001466999999999885,0.3471295003309284,0.32619246043924355,non_fall
6.355151,0.2142,-0.1787,0.2066,-0.0718,0.1626,-0.1615,-41.475,3.0188,29.4375,,0.054225000000000634,0.3471295003309284,0.34455714815007377,non_fall
6.359307,0.2142,-0.1787,0.2066,-0.0718,0.1626,-0.1615,-41.475,3.0188,29.4375,,0.0041560000000000485,0.3471295003309284,0.3503702119010882,non_fall
6.361795,0.2142,-0.1787,0.2066,-0.0718,0.1626,-0.1615,-41.8313,3.4688,29.25,,0.0024879999999996016,0.3471295003309284,0.34367802044712176,non_fall
6.373313,-0.2412,0.1052,-0.0397,-0.0718,0.1626,-0.1615,-41.8313,3.4688,29.25,,0.011517999999999695,0.2661213445028414,0.3261375715084732,non_fall
6.415032,-0.2412,0.1052,-0.0397,-0.0133,0.0788,-0.1943,-41.8313,3.4688,29.25,,0.041719000000000506,0.2661213445028414,0.3003902255206549,non_fall
6.41866,-0.2412,0.1052,-0.0397,-0.0133,0.0788,-0.1943,-41.8313,3.4688,29.25,,0.0036279999999999646,0.2661213445028414,0.2694777364156934,non_fall
6.420671,-0.2412,0.1052,-0.0397,-0.0133,0.0788,-0.1943,-42.1688,3.7313,28.6875,,0.002010999999999541,0.2661213445028414,0.236422827800584,non_fall
6.434645,0.1359,-0.0762,-0.1036,-0.0133,0.0788,-0.1943,-42.1688,3.7313,28.6875,,0.013974000000000153,0.18710481020005873,0.2040047251618502,non_fall
6.47584,0.1359,-0.0762,-0.1036,-0.1585,0.4132,0.3312,-42.1688,3.7313,28.6875,,0.04119500000000009,0.18710481020005873,0.17467895301057562,non_fall
6.478625,0.1359,-0.0762,-0.1036,-0.1585,0.4132,0.3312,-42.1688,3.7313,28.6875,,0.0027850000000002595,0.18710481020005873,0.15055170305734306,non_fall
6.479752,0.1359,-0.0762,-0.1036,-0.1585,0.4132,0.3312,-42.4875,3.9,28.1625,,0.0011270000000003222,0.18710481020005873,0.13332225830550357,non_fall
6.495912,-0.0426,-0.021,-0.0758,-0.1585,0.4132,0.3312,-42.4875,3.9,28.1625,,0.016159999999999286,0.08945054499554489,0.12414097864518436,non_fall
6.535639,-0.0426,-0.021,-0.0758,-0.0474,0.2928,0.2385,-42.4875,3.9,28.1625,,0.03972700000000007,0.08945054499554489,0.12339213851107694,non_fall
6.537739,-0.0426,-0.021,-0.0758,-0.0474,0.2928,0.2385,-42.4875,3.9,28.1625,,0.002100000000000435,0.08945054499554489,0.13048538190345757,non_fall
6.538602,-0.0426,-0.021,-0.0758,-0.0474,0.2928,0.2385,-42.6938,4.0312,27.7688,,0.0008629999999998361,0.08945054499554489,0.14378318391739814,non_fall
6.557899,-0.0431,-0.0296,-0.2095,-0.0474,0.2928,0.2385,-42.6938,4.0312,27.7688,,0.019296999999999898,0.21592595953242863,0.16076439383300847,non_fall
6.600898,-0.0431,-0.0296,-0.2095,-0.0474,0.2928,0.2385,-42.6938,4.0312,27.7688,,0.04299900000000001,0.21592595953242863,0.17843211487331867,non_fall
6.603573,-0.0431,-0.0296,-0.2095,-0.0474,0.2928,0.2385,-42.975,3.8438,27.525,,0.002674999999999983,0.21592595953242863,0.19387284934477333,non_fall
6.606823,-0.0431,-0.0296,-0.2095,0.0059,0.0439,0.2353,-42.975,3.8438,27.525,,0.0032500000000004192,0.21592595953242863,0.20482753859014327,non_fall
6.639631,0.032,-0.1574,-0.0435,0.0059,0.0439,0.2353,-42.975,3.8438,27.525,,0.03280799999999928,0.16640615974175957,0.21016850053842967,non_fall
6.658707,0.032,-0.1574,-0.0435,0.0059,0.0439,0.2353,-43.125,3.8813,27.2813,,0.019076000000000093,0.16640615974175957,0.21025448442535202,non_fall
6.661118,0.032,-0.1574,-0.0435,0.1164,-0.5137,0.2672,-43.125,3.8813,27.2813,,0.002411000000000385,0.16640615974175957,0.20719441701289526,non_fall
6.662814,0.032,-0.1574,-0.0435,0.1164,-0.5137,0.2672,-43.125,3.8813,27.2813,,0.0016959999999999198,0.16640615974175957,0.20504107713385375,non_fall
6.701061,-0.2658,-0.2163,0.086,0.1164,-0.5137,0.2672,-43.125,3.8813,27.2813,,0.03824700000000014,0.35331477466984024,0.20985378436852956,non_fall
6.718167,-0.2658,-0.2163,0.086,0.1164,-0.5137,0.2672,-42.9563,4.1438,27.4125,,0.017106000000000066,0.35331477466984024,0.22945787606505041,non_fall
6.720672,-0.2658,-0.2163,0.086,0.4213,-1.9657,0.1565,-42.9563,4.1438,27.4125,,0.0025050000000002015,0.35331477466984024,0.27267379051130525,non_fall
6.722699,-0.2658,-0.2163,0.086,0.4213,-1.9657,0.1565,-42.9563,4.1438,27.4125,,0.002027000000000001,0.35331477466984024,0.34787644919817723,non_fall
6.760812,0.0384,-0.4716,-0.0549,0.4213,-1.9657,0.1565,-42.9563,4.1438,27.4125,,0.038112999999999175,0.47633510263259,0.4609904754086912,non_fall
6.779527,0.0384,-0.4716,-0.0549,0.4213,-1.9657,0.1565,-42.5625,4.5,27.9938,,0.01871500000000026,0.47633510263259,0.6133393132227505,non_fall
6.782999,0.0384,-0.4716,-0.0549,0.4213,-1.9657,0.1565,-42.5625,4.5,27.9938,,0.0034720000000003637,0.47633510263259,0.8000106451092611,non_fall
6.784966,0.0384,-0.4716,-0.0549,0.1284,-1.0317,0.2538,-42.5625,4.5,27.9938,,0.001966999999999608,0.47633510263259,1.0094534835298534,non_fall
6.819972,-0.0864,-1.7111,-0.1908,0.1284,-1.0317,0.2538,-42.5625,4.5,27.9938,,0.03500600000000009,1.723871459825239,1.2247753451733803,non_fall
6.836081,-0.0864,-1.7111,-0.1908,0.1284,-1.0317,0.2538,-41.4375,4.9688,29.025,,0.01610900000000015,1.723871459825239,1.426633711272514,non_fall
6.839253,-0.0864,-1.7111,-0.1908,0.3659,-3.3043,0.4839,-41.4375,4.9688,29.025,,0.0031720000000001747,1.723871459825239,1.5969384964324385,non_fall
6.841417,-0.0864,-1.7111,-0.1908,0.3659,-3.3043,0.4839,-41.4375,4.9688,29.025,,0.0021639999999996107,1.723871459825239,1.7222389942247467,non_fall
6.897213,-0.0864,-1.7111,-0.1908,0.3659,-3.3043,0.4839,-39.2063,5.8125,30.7875,,0.05579599999999996,1.723871459825239,1.7959055119654168,non_fall
6.901667,-0.0864,-1.7111,-0.1908,0.3214,-2.2766,0.5268,-39.2063,5.8125,30.7875,,0.004453999999999958,1.723871459825239,1.8188060036926446,non_fall
6.903201,-0.0864,-1.7111,-0.1908,0.3214,-2.2766,0.5268,-39.2063,5.8125,30.7875,,0.0015340000000003684,1.723871459825239,1.7986828828525148,non_fall
6.904025,1.7756,0.0254,0.3935,0.3214,-2.2766,0.5268,-39.2063,5.8125,30.7875,,0.0008239999999997139,1.818857545273956,1.7486202163650681,non_fall
6.957643,1.7756,0.0254,0.3935,0.3214,-2.2766,0.5268,-36.15,6.6,32.9813,,0.053618000000000166,1.818857545273956,1.6849093098515882,non_fall
6.961671,1.7756,0.0254,0.3935,-0.2004,-1.9448,0.3866,-36.15,6.6,32.9813,,0.0040279999999999205,1.818857545273956,1.6244593304284574,non_fall
6.962193,1.7756,0.0254,0.3935,-0.2004,-1.9448,0.3866,-36.15,6.6,32.9813,,0.0005220000000001335,1.818857545273956,1.5818532337817486,non_fall
6.962498,0.5135,-1.0332,0.1774,-0.2004,-1.9448,0.3866,-36.15,6.6,32.9813,,0.0003049999999999997,1.1673282528920474,1.5663366554328622,non_fall
7.018939,0.5135,-1.0332,0.1774,-0.2004,-1.9448,0.3866,-32.5312,7.1625,35.3438,,0.05644099999999952,1.1673282528920474,1.5794089702619531,non_fall
7.023797,0.5135,-1.0332,0.1774,-0.3061,-1.8879,0.0806,-32.5312,7.1625,35.3438,,0.004858000000000473,1.1673282528920474,1.6140113309047364,non_fall
7.026275,0.5135,-1.0332,0.1774,-0.3061,-1.8879,0.0806,-32.5312,7.1625,35.3438,,0.0024779999999999802,1.1673282528920474,1.6562086696362825,non_fall
7.027692,-1.9361,-0.7947,1.0378,-0.3061,-1.8879,0.0806,-32.5312,7.1625,35.3438,,0.0014170000000000016,2.3360351324412907,1.689525965827973,non_fall
7.07926,-1.9361,-0.7947,1.0378,-0.3061,-1.8879,0.0806,-27.4313,7.6313,38.4938,,0.051567999999999614,2.3360351324412907,1.7009096172815654,non_fall
7.086468,-1.9361,-0.7947,1.0378,-0.3061,-1.8879,0.0806,-27.4313,7.6313,38.4938,,0.007208000000000325,2.3360351324412907,1.6862332986290178,non_fall
7.087562,-1.9361,-0.7947,1.0378,-0.4677,-3.7094,1.1984,-27.4313,7.6313,38.4938,,0.0010940000000001504,2.3360351324412907,1.6530500873132923,non_fall
7.103571,-0.7108,0.5833,0.0584,-0.4677,-3.7094,1.1984,-27.4313,7.6313,38.4938,,0.016008999999999496,0.921350145167406,1.619237843378354,non_fall
7.137187,-0.7108,0.5833,0.0584,-0.4677,-3.7094,1.1984,-21.525,7.6688,41.0813,,0.03361600000000031,0.921350145167406,1.6079469037336993,non_fall
7.145515,-0.7108,0.5833,0.0584,-0.8631,-2.6388,0.234,-21.525,7.6688,41.0813,,0.008327999999999669,0.921350145167406,1.6409436624084341,non_fall
7.147139,-0.7108,0.5833,0.0584,-0.8631,-2.6388,0.234,-21.525,7.6688,41.0813,,0.001624000000000514,0.921350145167406,1.7330997183224834,non_fall
7.165124,2.1973,1.7823,-0.7004,-0.8631,-2.6388,0.234,-21.525,7.6688,41.0813,,0.017984999999999474,2.9146664886398237,1.8899794761959197,non_fall
7.198025,2.1973,1.7823,-0.7004,-0.8631,-2.6388,0.234,-15.0938,7.3125,43.2375,,0.032901000000000735,2.9146664886398237,2.1086545686721743,non_fall
7.206522,2.1973,1.7823,-0.7004,-1.2032,-1.3582,-1.9884,-15.0938,7.3125,43.2375,,0.00849699999999931,2.9146664886398237,2.380114527977029,non_fall
7.20956,2.1973,1.7823,-0.7004,-1.2032,-1.3582,-1.9884,-15.0938,7.3125,43.2375,,0.003038000000000096,2.9146664886398237,2.6910654631135675,non_fall
7.226199,0.3997,-2.1999,1.2555,-1.2032,-1.3582,-1.9884,-15.0938,7.3125,43.2375,,0.016639000000000514,2.564293343203932,3.0238719348003356,non_fall
7.257644,0.3997,-2.1999,1.2555,-1.2032,-1.3582,-1.9884,-8.6813,6.5625,44.7938,,0.03144499999999972,2.564293343203932,3.355224094103281,non_fall
7.269873,0.3997,-2.1999,1.2555,-0.9784,-1.0274,-3.205,-8.6813,6.5625,44.7938,,0.012228999999999601,2.564293343203932,3.6556235815170375,non_fall
7.273243,0.3997,-2.1999,1.2555,-0.9784,-1.0274,-3.205,-8.6813,6.5625,44.7938,,0.003370000000000317,2.564293343203932,3.892058011583235,non_fall
7.286579,-4.2135,-1.6241,2.9436,-0.9784,-1.0274,-3.205,-8.6813,6.5625,44.7938,,0.013335999999999792,5.3903677073090295,4.034957046135492,non_fall
7.317789,-4.2135,-1.6241,2.9436,-0.9784,-1.0274,-3.205,-2.6438,5.9062,45.5625,,0.031210000000000626,5.3903677073090295,4.068075623722561,non_fall
7.328194,-4.2135,-1.6241,2.9436,0.7099,-0.5979,-2.3867,-2.6438,5.9062,45.5625,,0.010404999999999553,5.3903677073090295,3.9975059692904265,non_fall
7.330775,-4.2135,-1.6241,2.9436,0.7099,-0.5979,-2.3867,-2.6438,5.9062,45.5625,,0.0025810000000001665,5.3903677073090295,3.855171377988657,non_fall
7.368984,-2.2152,-0.0631,0.568,0.7099,-0.5979,-2.3867,-2.6438,5.9062,45.5625,,0.03820900000000016,2.287731769679304,3.693836325816251,non_fall
7.377957,-2.2152,-0.0631,0.568,0.7099,-0.5979,-2.3867,2.0813,5.5312,45.825,,0.00897300000000012,2.287731769679304,3.5742819019365353,non_fall
7.388003,-2.2152,-0.0631,0.568,2.41,1.3695,-2.6433,2.0813,5.5312,45.825,,0.010046,2.287731769679304,3.5489511084613037,non_fall
7.389553,-2.2152,-0.0631,0.568,2.41,1.3695,-2.6433,2.0813,5.5312,45.825,,0.0015499999999999403,2.287731769679304,3.6480294830524183,non_fall
7.432263,-3.3436,-0.6732,-3.7203,2.41,1.3695,-2.6433,2.0813,5.5312,45.825,,0.04270999999999958,5.047127033273484,3.87269259191242,non_fall
7.438437,-3.3436,-0.6732,-3.7203,2.41,1.3695,-2.6433,5.5875,6.4688,45.6,,0.006174000000000568,5.047127033273484,4.196926293156889,non_fall
7.450095,-3.3436,-0.6732,-3.7203,2.41,1.3695,-2.6433,5.5875,6.4688,45.6,,0.011657999999999724,5.047127033273484,4.5758394458520995,non_fall
7.451218,-3.3436,-0.6732,-3.7203,2.7277,2.6213,-3.2114,5.5875,6.4688,45.6,,0.001122999999999763,5.047127033273484,4.95653372864784,non_fall
7.490914,-3.392,-1.2463,-4.0245,2.7277,2.6213,-3.2114,5.5875,6.4688,45.6,,0.039696000000000176,5.408837947285905,5.287919820750465,non_fall
7.4979,-3.392,-1.2463,-4.0245,2.7277,2.6213,-3.2114,7.2938,8.25,45.1313,,0.006985999999999493,5.408837947285905,5.527527073052751,non_fall
7.509225,-3.392,-1.2463,-4.0245,2.3546,3.0245,-2.3552,7.2938,8.25,45.1313,,0.011325000000000252,5.408837947285905,5.645059087552724,non_fall
7.511193,-3.392,-1.2463,-4.0245,2.3546,3.0245,-2.3552,7.2938,8.25,45.1313,,0.0019679999999997477,5.408837947285905,5.623482557850397,non_fall
7.558826,-3.392,-1.2463,-4.0245,2.3546,3.0245,-2.3552,6.5813,10.6313,43.65,,0.04763300000000026,5.408837947285905,5.458745732741593,non_fall
7.571674,-3.392,-1.2463,-4.0245,2.3546,3.0245,-2.3552,6.5813,10.6313,43.65,,0.01284799999999997,5.408837947285905,5.159006709874543,non_fall
7.573751,-0.8092,1.0791,-4.0896,2.3546,3.0245,-2.3552,6.5813,10.6313,43.65,,0.0020769999999998845,4.306284896520433,4.743773587320652,non_fall
7.575511,-0.8092,1.0791,-4.0896,1.1177,3.5166,-2.8986,6.5813,10.6313,43.65,,0.0017599999999999838,4.306284896520433,4.242891339375587,non_fall
7.618257,-0.8092,1.0791,-4.0896,1.1177,3.5166,-2.8986,2.7375,13.1438,41.3625,,0.04274600000000017,4.306284896520433,3.6949947519859396,non_fall
7.634347,-0.8092,1.0791,-4.0896,1.1177,3.5166,-2.8986,2.7375,13.1438,41.3625,,0.01609000000000016,4.306284896520433,3.1448897849219475,non_fall
7.635894,-0.2289,0.7108,-1.3092,1.1177,3.5166,-2.8986,2.7375,13.1438,41.3625,,0.0015470000000004092,1.507194907767406,2.639464527890136,non_fall
7.637215,-0.2289,0.7108,-1.3092,-0.4325,3.3246,-3.1208,2.7375,13.1438,41.3625,,0.0013209999999999056,1.507194907767406,2.2224107013875423,non_fall
7.679415,-0.2289,0.7108,-1.3092,-0.4325,3.3246,-3.1208,-3.4875,14.9438,38.2875,,0.04219999999999935,1.507194907767406,1.9290293897984012,non_fall
7.692082,-0.2289,0.7108,-1.3092,-0.4325,3.3246,-3.1208,-3.4875,14.9438,38.2875,,0.012667000000000428,1.507194907767406,1.7828181534484016,non_fall
7.693651,-0.7292,1.6315,2.0335,-0.4325,3.3246,-3.1208,-3.4875,14.9438,38.2875,,0.0015689999999999316,2.7071474174857935,1.7947486525103273,non_fall
7.695146,-0.7292,1.6315,2.0335,-0.4574,3.1779,-2.7268,-3.4875,14.9438,38.2875,,0.0014950000000002461,2.7071474174857935,1.9645849094197338,non_fall
7.737135,-0.7292,1.6315,2.0335,-0.4574,3.1779,-2.7268,-10.4625,16.35,34.7438,,0.041989000000000054,2.7071474174857935,2.2824163195074703,non_fall
7.755326,-0.7292,1.6315,2.0335,0.2605,2.9483,-3.0708,-10.4625,16.35,34.7438,,0.018190999999999846,2.7071474174857935,2.72864896616459,non_fall
7.758957,-0.7292,1.6315,2.0335,0.2605,2.9483,-3.0708,-10.4625,16.35,34.7438,,0.0036309999999994957,2.7071474174857935,3.2719941778690895,non_fall
7.76026,0.7999,2.9176,2.1826,0.2605,2.9483,-3.0708,-10.4625,16.35,34.7438,,0.0013030000000000541,3.7304118445555043,3.86671706613376,non_fall
7.796622,0.7999,2.9176,2.1826,0.2605,2.9483,-3.0708,-18.0,16.9313,31.2563,,0.03636200000000045,3.7304118445555043,4.451591642733895,non_fall
7.816995,0.7999,2.9176,2.1826,1.7706,1.8208,-2.5397,-18.0,16.9313,31.2563,,0.020373000000000197,3.7304118445555043,4.953129300842687,non_fall
7.820849,0.7999,2.9176,2.1826,1.7706,1.8208,-2.5397,-18.0,16.9313,31.2563,,0.00385399999999958,3.7304118445555043,5.294687055210017,non_fall
7.835052,0.81,4.4631,5.2899,1.7706,1.8208,-2.5397,-18.0,16.9313,31.2563,,0.014203000000000188,6.968386012556997,5.4111274472048505,non_fall
7.856827,0.81,4.4631,5.2899,1.7706,1.8208,-2.5397,-25.7438,15.975,26.6063,,0.021774999999999878,6.968386012556997,5.266004864199977,non_fall
7.877349,0.81,4.4631,5.2899,2.1849,1.0096,-2.1883,-25.7438,15.975,26.6063,,0.020521999999999707,6.968386012556997,4.865700035289317,non_fall
7.879792,0.81,4.4631,5.2899,2.1849,1.0096,-2.1883,-25.7438,15.975,26.6063,,0.002443000000000417,6.968386012556997,4.264211342721942,non_fall
7.896169,0.8672,-0.038,-0.1507,2.1849,1.0096,-2.1883,-25.7438,15.975,26.6063,,0.016377000000000308,0.8810166456997279,3.5547362657723585,non_fall
7.918449,0.8672,-0.038,-0.1507,2.1849,1.0096,-2.1883,-32.9625,13.1438,21.825,,0.02227999999999941,0.8810166456997279,2.849234594667133,non_fall
7.937064,0.8672,-0.038,-0.1507,2.0817,1.498,-2.4751,-32.9625,13.1438,21.825,,0.018615000000000492,0.8810166456997279,2.2523750434656473,non_fall
7.940175,0.8672,-0.038,-0.1507,2.0817,1.498,-2.4751,-32.9625,13.1438,21.825,,0.003110999999999642,0.8810166456997279,1.838603664760692,non_fall
7.957135,1.2371,-1.5432,-1.1979,2.0817,1.498,-2.4751,-32.9625,13.1438,21.825,,0.016960000000000086,2.3123250333809042,1.6392311233155865,non_fall
7.979188,1.2371,-1.5432,-1.1979,2.0817,1.498,-2.4751,-38.6438,8.5312,16.5375,,0.022052999999999656,2.3123250333809042,1.6418699854773067,non_fall
7.997816,1.2371,-1.5432,-1.1979,2.2006,2.0452,-2.7315,-38.6438,8.5312,16.5375,,0.018628000000000533,2.3123250333809042,1.8000590375792782,non_fall
7.999568,1.2371,-1.5432,-1.1979,2.2006,2.0452,-2.7315,-38.6438,8.5312,16.5375,,0.0017519999999997538,2.3123250333809042,2.0484499202964983,non_fall
8.038147,1.2371,-1.5432,-1.1979,2.2006,2.0452,-2.7315,-42.9188,2.8125,11.6813,,0.03857900000000036,2.3123250333809042,2.31878484558641,non_fall
8.042418,-2.5553,0.3579,-1.3128,2.2006,2.0452,-2.7315,-42.9188,2.8125,11.6813,,0.004270999999999248,2.8950119757956094,2.553169642020625,non_fall
8.058119,-2.5553,0.3579,-1.3128,0.2044,0.7902,-1.0181,-42.9188,2.8125,11.6813,,0.015700999999999965,2.8950119757956094,2.7127278944023776,non_fall
8.061295,-2.5553,0.3579,-1.3128,0.2044,0.7902,-1.0181,-42.9188,2.8125,11.6813,,0.0031759999999998456,2.8950119757956094,2.7809958688850616,non_fall
8.098772,-2.5553,0.3579,-1.3128,0.2044,0.7902,-1.0181,-44.925,-2.8875,7.1813,,0.03747700000000087,2.8950119757956094,2.76235988432252,non_fall
8.101901,-0.1783,-1.1537,-1.8775,0.2044,0.7902,-1.0181,-44.925,-2.8875,7.1813,,0.0031289999999994933,2.2108416564738413,2.676618411117195,non_fall
8.117674,-0.1783,-1.1537,-1.8775,-0.5226,0.5016,-1.091,-44.925,-2.8875,7.1813,,0.01577299999999937,2.2108416564738413,2.5513851232609412,non_fall
8.119369,-0.1783,-1.1537,-1.8775,-0.5226,0.5016,-1.091,-44.925,-2.8875,7.1813,,0.0016950000000015564,2.2108416564738413,2.414354213208205,non_fall
8.156665,-0.1783,-1.1537,-1.8775,-0.5226,0.5016,-1.091,-45.6562,-8.0625,3.3375,,0.03729599999999955,2.2108416564738413,2.2872322943887733,non_fall
8.15947,-1.7218,-1.2036,0.5952,-0.5226,0.5016,-1.091,-45.6562,-8.0625,3.3375,,0.0028050000000003905,2.1834631299841085,2.1824258764836277,non_fall
8.179565,-1.7218,-1.2036,0.5952,0.1959,-0.5932,-0.629,-45.6562,-8.0625,3.3375,,0.02009499999999953,2.1834631299841085,2.102653998321793,non_fall
8.182426,-1.7218,-1.2036,0.5952,0.1959,-0.5932,-0.629,-45.6562,-8.0625,3.3375,,0.0028609999999993363,2.1834631299841085,2.042891868109952,non_fall
8.216218,-1.7218,-1.2036,0.5952,0.1959,-0.5932,-0.629,-45.4688,-12.5438,0.45,,0.033792000000000044,2.1834631299841085,1.9936394210546171,non_fall
8.218999,-1.7473,-0.3081,-0.5957,0.1959,-0.5932,-0.629,-45.4688,-12.5438,0.45,,0.0027810000000005886,1.871587932745881,1.9444586719978825,non_fall
8.240892,-1.7473,-0.3081,-0.5957,-0.1485,-0.3618,-0.1115,-45.4688,-12.5438,0.45,,0.021893000000000384,1.871587932745881,1.8869466201771283,non_fall
8.24314,-1.7473,-0.3081,-0.5957,-0.1485,-0.3618,-0.1115,-45.4688,-12.5438,0.45,,0.0022479999999998057,1.871587932745881,1.8166574636301969,non_fall
8.277634,-1.7473,-0.3081,-0.5957,-0.1485,-0.3618,-0.1115,-45.0,-16.35,-1.65,,0.03449400000000047,1.871587932745881,1.733792790783121,non_fall
8.305359,-1.7473,-0.3081,-0.5957,-0.1485,-0.3618,-0.1115,-45.0,-16.35,-1.65,,0.027724999999998445,1.871587932745881,1.6426687346861448,non_fall
8.30674,-0.3859,0.6705,1.0285,-0.1485,-0.3618,-0.1115,-45.0,-16.35,-1.65,,0.0013810000000002987,1.2869737021400243,1.550123992544439,non_fall
8.30791,-0.3859,0.6705,1.0285,-0.4297,0.066,-0.1445,-45.0,-16.35,-1.65,,0.0011700000000001154,1.2869737021400243,1.4632594606233638,non_fall
8.335238,-0.3859,0.6705,1.0285,-0.4297,0.066,-0.1445,-44.2313,-19.4062,-3.3,,0.027328000000000685,1.2869737021400243,1.3871489177447105,non_fall
8.361153,-0.3859,0.6705,1.0285,0.5871,0.0443,-0.3824,-44.2313,-19.4062,-3.3,,0.025914999999999466,1.2869737021400243,1.3232319897504268,non_fall
8.362682,-0.3859,0.6705,1.0285,0.5871,0.0443,-0.3824,-44.2313,-19.4062,-3.3,,0.0015289999999996695,1.2869737021400243,1.2688766221033454,non_fall
8.363346,-0.8323,-0.4632,0.7294,0.5871,0.0443,-0.3824,-44.2313,-19.4062,-3.3,,0.000664000000000442,1.1997090855703312,1.2181899521874082,non_fall
8.397137,-0.8323,-0.4632,0.7294,0.5871,0.0443,-0.3824,-43.4438,-21.975,-4.65,,0.03379100000000079,1.1997090855703312,1.1637809374988417,non_fall
8.422196,-0.8323,-0.4632,0.7294,0.5871,0.0443,-0.3824,-43.4438,-21.975,-4.65,,0.025058999999998832,1.1997090855703312,1.0989570980543983,non_fall
8.423328,-0.8323,-0.4632,0.7294,-0.5184,-0.1133,0.2542,-43.4438,-21.975,-4.65,,0.001132000000000133,1.1997090855703312,1.0197704556034322,non_fall
8.424544,-0.3742,-0.181,-0.7253,-0.5184,-0.1133,0.2542,-43.4438,-21.975,-4.65,,0.0012159999999994398,0.8359705317772869,0.9263891243728178,non_fall
8.455814,-0.3742,-0.181,-0.7253,-0.5184,-0.1133,0.2542,-43.05,-23.3625,-5.4375,,0.03127000000000102,0.8359705317772869,0.8234525990233815,non_fall
8.48419,-0.3742,-0.181,-0.7253,-0.5184,-0.1133,0.2542,-43.05,-23.3625,-5.4375,,0.028375999999999735,0.8359705317772869,0.719326542044532,non_fall
8.485806,-0.3742,-0.181,-0.7253,-0.0296,-0.0273,-0.0398,-43.05,-23.3625,-5.4375,,0.0016160000000002839,0.8359705317772869,0.6244169468709657,non_fall
8.506076,0.0244,-0.2426,0.0982,-0.0296,-0.0273,-0.0398,-43.05,-23.3625,-5.4375,,0.02027000000000001,0.2628561583832496,0.5488952644726104,non_fall
8.515834,0.0244,-0.2426,0.0982,-0.0296,-0.0273,-0.0398,-42.7875,-24.3,-5.85,,0.009757999999999711,0.2628561583832496,0.500368562288867,non_fall
8.544642,0.0244,-0.2426,0.0982,-0.0562,-0.0164,0.1846,-42.7875,-24.3,-5.85,,0.028807999999999723,0.2628561583832496,0.48217939905093643,non_fall
8.546699,0.0244,-0.2426,0.0982,-0.0562,-0.0164,0.1846,-42.7875,-24.3,-5.85,,0.0020570000000006416,0.2628561583832496,0.49296506436688464,non_fall
8.564829,-0.1808,-0.1546,-0.8623,-0.0562,-0.0164,0.1846,-42.7875,-24.3,-5.85,,0.018129999999999313,0.8945116488900522,0.5277005163370413,non_fall
8.577441,-0.1808,-0.1546,-0.8623,-0.0562,-0.0164,0.1846,-42.75,-24.6563,-5.9625,,0.012612000000000734,0.8945116488900522,0.5798016998605494,non_fall
8.606521,-0.1808,-0.1546,-0.8623,-0.1866,-0.2457,0.1658,-42.75,-24.6563,-5.9625,,0.02908000000000044,0.8945116488900522,0.6433211300322822,non_fall
8.607924,-0.1808,-0.1546,-0.8623,-0.1866,-0.2457,0.1658,-42.75,-24.6563,-5.9625,,0.001402999999999821,0.8945116488900522,0.7141801166724733,non_fall
8.625846,-0.0904,0.3855,0.4503,-0.1866,-0.2457,0.1658,-42.75,-24.6563,-5.9625,,0.01792199999999866,0.5996269673722155,0.78985887133229,non_fall
8.636023,-0.0904,0.3855,0.4503,-0.1866,-0.2457,0.1658,-42.8063,-24.6375,-6.1125,,0.010177000000000547,0.5996269673722155,0.8677737057926477,non_fall
8.666538,-0.0904,0.3855,0.4503,-0.2812,0.0273,0.2702,-42.8063,-24.6375,-6.1125,,0.030514999999999404,0.5996269673722155,0.9432880481517837,non_fall
8.668863,-0.0904,0.3855,0.4503,-0.2812,0.0273,0.2702,-42.8063,-24.6375,-6.1125,,0.0023250000000007987,0.5996269673722155,1.0085691305823457,non_fall
8.686695,0.0471,0.3396,1.2418,-0.2812,0.0273,0.2702,-42.8063,-24.6375,-6.1125,,0.017832000000000292,1.2882599931690808,1.0531728887081377,non_fall
8.695683,0.0471,0.3396,1.2418,-0.2812,0.0273,0.2702,-43.0125,-24.4313,-6.3,,0.00898800000000044,1.2882599931690808,1.0664445080087184,non_fall
8.727229,0.0471,0.3396,1.2418,-0.0523,-0.0969,0.1302,-43.0125,-24.4313,-6.3,,0.03154599999999874,1.2882599931690808,1.040927110234388,non_fall
8.729037,0.0471,0.3396,1.2418,-0.0523,-0.0969,0.1302,-43.0125,-24.4313,-6.3,,0.001808000000000476,1.2882599931690808,0.9754207240269769,non_fall
8.756454,0.0471,0.3396,1.2418,-0.0523,-0.0969,0.1302,-43.0312,-24.1688,-6.6,,0.027416999999999803,1.2882599931690808,0.8763942712133665,non_fall
8.768202,0.258,-0.1104,0.1772,-0.0523,-0.0969,0.1302,-43.0312,-24.1688,-6.6,,0.011748000000000758,0.33189154855163155,0.7570766654261561,non_fall
8.788019,0.258,-0.1104,0.1772,-0.1403,0.0411,0.0695,-43.0312,-24.1688,-6.6,,0.01981699999999975,0.33189154855163155,0.6344645126858321,non_fall
8.789318,0.258,-0.1104,0.1772,-0.1403,0.0411,0.0695,-43.0312,-24.1688,-6.6,,0.001298999999999495,0.33189154855163155,0.5252999625824308,non_fall
8.816032,0.258,-0.1104,0.1772,-0.1403,0.0411,0.0695,-43.125,-23.9062,-6.7125,,0.026714000000000127,0.33189154855163155,0.44240737123861634,non_fall
8.829007,0.3741,-0.1775,-0.1724,-0.1403,0.0411,0.0695,-43.125,-23.9062,-6.7125,,0.012975000000000847,0.44852961998066526,0.3924802917904913,non_fall
8.849828,0.3741,-0.1775,-0.1724,-0.1776,0.0266,-0.0816,-43.125,-23.9062,-6.7125,,0.020820999999999756,0.44852961998066526,0.3757177318157189,non_fall
8.85125,0.3741,-0.1775,-0.1724,-0.1776,0.0266,-0.0816,-43.125,-23.9062,-6.7125,,0.0014219999999998123,0.44852961998066526,0.38703734117587196,non_fall
8.878287,0.3741,-0.1775,-0.1724,-0.1776,0.0266,-0.0816,-43.2375,-23.55,-6.7688,,0.027036999999999978,0.44852961998066526,0.41821122291774426,non_fall
8.890642,-0.5216,0.1802,0.1299,-0.1776,0.0266,-0.0816,-43.2375,-23.55,-6.7688,,0.01235499999999945,0.5669326326822262,0.46020132224102545,non_fall
8.911098,-0.5216,0.1802,0.1299,-0.1645,-0.1634,-0.0739,-43.2375,-23.55,-6.7688,,0.02045600000000114,0.5669326326822262,0.5051047928141273,non_fall
8.913097,-0.5216,0.1802,0.1299,-0.1645,-0.1634,-0.0739,-43.2375,-23.55,-6.7688,,0.00199899999999964,0.5669326326822262,0.5473407103584026,non_fall
8.94072,-0.5216,0.1802,0.1299,-0.1645,-0.1634,-0.0739,-43.125,-23.4188,-6.6375,,0.027623000000000175,0.5669326326822262,0.583957416051852,non_fall
