time,ax,ay,az,wx,wy,wz,Bx,By,Bz,Unnamed: 10,time_diff,acc_mag,acc_mag_filtered,label
0.054575,0.0,0.0,0.0,0.0,0.0,0.0,0.0,0.0,0.0,,0.0,0.0,-0.00013735237151460755,non_fall
0.086951,0.0,0.0,0.0,0.0,0.0,0.0,13.2563,6.5625,8.3063,,0.032376,0.0,-0.0007338662699065322,non_fall
0.106561,0.0,0.0,0.0,0.0,0.0,0.0,13.2563,6.5625,8.3063,,0.019610000000000002,0.0,-0.0011662897811444658,non_fall
0.128052,0.0,0.0,0.0,-0.002,-0.0041,-0.0035,13.2563,6.5625,8.3063,,0.021490999999999996,0.0,-0.0013222685288805385,non_fall
0.147712,0.0,0.0,0.0,-0.002,-0.0041,-0.0035,27.5813,10.95,13.4063,,0.01966000000000001,0.0,-0.0011101601922284866,non_fall
0.167838,0.0,0.0,0.0,-0.002,-0.0041,-0.0035,27.5813,10.95,13.4063,,0.020125999999999977,0.0,-0.0004733358905732996,non_fall
0.18796,0.0,0.0,0.0,0.004,0.0055,0.004,27.5813,10.95,13.4063,,0.020122,0.0,0.0005921257057480059,non_fall
0.188593,0.0,0.0,0.0,0.004,0.0055,0.004,27.5813,10.95,13.4063,,0.0006330000000000224,0.0,0.00202186402139056,non_fall
0.206585,0.0,0.0,0.0,0.004,0.0055,0.004,32.4563,12.4313,15.225,,0.01799199999999998,0.0,0.003677953151234792,non_fall
0.228355,0.0,0.0,0.0,0.004,0.0055,0.004,32.4563,12.4313,15.225,,0.02177000000000001,0.0,0.005362343214322138,non_fall
0.249901,0.0,0.0,0.0,0.0108,0.0055,0.0055,32.4563,12.4313,15.225,,0.02154600000000001,0.0,0.006853953564811049,non_fall
0.251007,-0.0042,0.0165,0.0071,0.0108,0.0055,0.0055,32.4563,12.4313,15.225,,0.0011059999999999681,0.018447222013083707,0.007966218579947212,non_fall
0.266999,-0.0042,0.0165,0.0071,0.0108,0.0055,0.0055,35.3063,13.0688,16.5563,,0.015992000000000006,0.018447222013083707,0.008610384507541948,non_fall
0.289132,-0.0042,0.0165,0.0071,0.0108,0.0055,0.0055,35.3063,13.0688,16.5563,,0.022133000000000014,0.018447222013083707,0.00884036606284739,non_fall
0.310074,-0.0002,0.0048,-0.0028,0.0108,0.0055,0.0055,35.3063,13.0688,16.5563,,0.020942000000000016,0.0055605755097831375,0.008855503356707697,non_fall
0.31075,-0.0002,0.0048,-0.0028,-0.0024,0.0005,0.0001,35.3063,13.0688,16.5563,,0.0006760000000000099,0.0055605755097831375,0.008951676242027687,non_fall
0.326777,-0.0002,0.0048,-0.0028,-0.0024,0.0005,0.0001,36.7125,13.425,17.2688,,0.016026999999999958,0.0055605755097831375,0.009432617225273814,non_fall
0.350685,-0.0002,0.0048,-0.0028,-0.0024,0.0005,0.0001,36.7125,13.425,17.2688,,0.02390800000000004,0.0055605755097831375,0.010510074123618034,non_fall
0.370179,-0.0002,0.0048,-0.0028,0.0089,0.0063,0.0055,36.7125,13.425,17.2688,,0.019493999999999956,0.0055605755097831375,0.012226116255782673,non_fall
0.386657,-0.0002,0.0048,-0.0028,0.0089,0.0063,0.0055,37.7625,13.7813,17.6813,,0.016477999999999993,0.0055605755097831375,0.014423788001509412,non_fall
0.390792,-0.0198,0.0059,0.0114,0.0089,0.0063,0.0055,37.7625,13.7813,17.6813,,0.004135,0.0235968218198977,0.016777666161511235,non_fall
0.411286,-0.0198,0.0059,0.0114,0.0089,0.0063,0.0055,37.7625,13.7813,17.6813,,0.020494000000000012,0.0235968218198977,0.01887765424643451,non_fall
0.431219,-0.0198,0.0059,0.0114,0.0019,0.0023,0.0025,37.7625,13.7813,17.6813,,0.019933000000000034,0.0235968218198977,0.020342451766297072,non_fall
0.44594,-0.0198,0.0059,0.0114,0.0019,0.0023,0.0025,38.5312,14.0625,17.9438,,0.014720999999999984,0.0235968218198977,0.020929946104941775,non_fall
0.456322,0.0234,0.0025,-0.003,0.0019,0.0023,0.0025,38.5312,14.0625,17.9438,,0.010382000000000002,0.023723616924912608,0.02061370031908062,non_fall
0.471804,0.0234,0.0025,-0.003,0.0019,0.0023,0.0025,38.5312,14.0625,17.9438,,0.015481999999999996,0.023723616924912608,0.01960489861429313,non_fall
0.492268,0.0234,0.0025,-0.003,0.0061,0.0052,0.0057,38.5312,14.0625,17.9438,,0.020463999999999982,0.023723616924912608,0.018312076860010046,non_fall
0.506364,0.0234,0.0025,-0.003,0.0061,0.0052,0.0057,39.0375,14.3063,18.0938,,0.014096000000000053,0.023723616924912608,0.017244016190442326,non_fall
0.512629,-0.0036,-0.0035,-0.002,0.0061,0.0052,0.0057,39.0375,14.3063,18.0938,,0.006264999999999965,0.005404627646748664,0.016874806832942173,non_fall
0.533061,-0.0036,-0.0035,-0.002,0.0061,0.0052,0.0057,39.0375,14.3063,18.0938,,0.020432000000000006,0.005404627646748664,0.017504060638783882,non_fall
0.553051,-0.0036,-0.0035,-0.002,-0.0039,-0.002,0.0015,39.0375,14.3063,18.0938,,0.019989999999999952,0.005404627646748664,0.019154858613868484,non_fall
0.567434,-0.0036,-0.0035,-0.002,-0.0039,-0.002,0.0015,42.6938,15.3563,19.5375,,0.014383000000000035,0.005404627646748664,0.021548959305899104,non_fall
0.573855,-0.0228,0.0089,0.031,-0.0039,-0.002,0.0015,42.6938,15.3563,19.5375,,0.00642100000000001,0.03949746827329569,0.024177746727200293,non_fall
0.594238,-0.0228,0.0089,0.031,-0.0039,-0.002,0.0015,42.6938,15.3563,19.5375,,0.02038300000000004,0.03949746827329569,0.026452827033862966,non_fall
0.614505,-0.0228,0.0089,0.031,0.0033,-0.0016,0.0023,42.6938,15.3563,19.5375,,0.020266999999999924,0.03949746827329569,0.027886847178072292,non_fall
0.627419,-0.0228,0.0089,0.031,0.0033,-0.0016,0.0023,42.7313,15.3938,19.5938,,0.012913999999999981,0.03949746827329569,0.02824042479873928,non_fall
0.654933,-0.0228,0.0089,0.031,0.0033,-0.0016,0.0023,42.7313,15.3938,19.5938,,0.02751400000000004,0.03949746827329569,0.0275833425730103,non_fall
0.655447,0.0067,-0.0018,-0.0098,0.0033,-0.0016,0.0023,42.7313,15.3938,19.5938,,0.0005140000000000144,0.01200708124399931,0.026251204367412222,non_fall
0.674989,0.0067,-0.0018,-0.0098,0.0047,-0.0012,-0.0013,42.7313,15.3938,19.5938,,0.01954199999999995,0.01200708124399931,0.024718029323344683,non_fall
0.686989,0.0067,-0.0018,-0.0098,0.0047,-0.0012,-0.0013,42.75,15.2063,19.6688,,0.01200000000000001,0.01200708124399931,0.023435678433851206,non_fall
0.715651,0.0067,-0.0018,-0.0098,0.0047,-0.0012,-0.0013,42.75,15.2063,19.6688,,0.028662000000000076,0.01200708124399931,0.022700633485805054,non_fall
0.716619,-0.0235,0.0144,0.0019,0.0047,-0.0012,-0.0013,42.75,15.2063,19.6688,,0.0009679999999999689,0.02762643661422877,0.022593607615733886,non_fall
0.736516,-0.0235,0.0144,0.0019,0.0115,0.0097,0.0061,42.75,15.2063,19.6688,,0.019896999999999943,0.02762643661422877,0.023005846030144255,non_fall
0.746837,-0.0235,0.0144,0.0019,0.0115,0.0097,0.0061,42.675,15.15,19.6125,,0.010321000000000025,0.02762643661422877,0.023733258408173835,non_fall
0.778435,-0.0235,0.0144,0.0019,0.0115,0.0097,0.0061,42.675,15.15,19.6125,,0.031598000000000015,0.02762643661422877,0.024598886436029824,non_fall
0.780115,0.0233,-0.0201,-0.0124,0.0115,0.0097,0.0061,42.675,15.15,19.6125,,0.0016800000000000148,0.03317619628589149,0.025560043227917148,non_fall
0.797317,0.0233,-0.0201,-0.0124,0.0019,-0.0005,0.0004,42.675,15.15,19.6125,,0.01720200000000005,0.03317619628589149,0.026764884645529292,non_fall
0.807576,0.0233,-0.0201,-0.0124,0.0019,-0.0005,0.0004,42.825,14.9813,19.7063,,0.010258999999999907,0.03317619628589149,0.028538107707198848,non_fall
0.837986,0.0233,-0.0201,-0.0124,0.0019,-0.0005,0.0004,42.825,14.9813,19.7063,,0.030410000000000048,0.03317619628589149,0.03129364641783266,non_fall
0.858465,0.0233,-0.0201,-0.0124,-0.0031,-0.0052,-0.0039,42.825,14.9813,19.7063,,0.020479000000000025,0.03317619628589149,0.03539220051398717,non_fall
0.85944,0.028,0.0085,0.0043,-0.0031,-0.0052,-0.0039,42.825,14.9813,19.7063,,0.0009749999999999481,0.029576003786853967,0.04098027421225614,non_fall
0.866934,0.028,0.0085,0.0043,-0.0031,-0.0052,-0.0039,42.7875,14.8875,19.875,,0.007494000000000001,0.029576003786853967,0.04786005381900479,non_fall
0.899071,0.028,0.0085,0.0043,-0.0031,-0.0052,-0.0039,42.7875,14.8875,19.875,,0.03213699999999997,0.029576003786853967,0.05543973930426823,non_fall
0.920388,-0.0725,0.0174,0.033,-0.0031,-0.0052,-0.0039,42.7875,14.8875,19.875,,0.02131700000000003,0.08153532976569114,0.06279627375281695,non_fall
0.921566,-0.0725,0.0174,0.033,0.0044,0.0044,0.0025,42.7875,14.8875,19.875,,0.0011780000000000124,0.08153532976569114,0.06884689130286359,non_fall
0.928217,-0.0725,0.0174,0.033,0.0044,0.0044,0.0025,42.8625,14.5688,20.1938,,0.0066509999999999625,0.08153532976569114,0.07258504232297996,non_fall
0.961955,-0.0725,0.0174,0.033,0.0044,0.0044,0.0025,42.8625,14.5688,20.1938,,0.033738000000000046,0.08153532976569114,0.07331143417957381,non_fall
0.980434,-0.0725,0.0174,0.033,0.0108,0.0052,0.0019,42.8625,14.5688,20.1938,,0.018479000000000023,0.08153532976569114,0.07079528086372483,non_fall
0.981364,0.0444,-0.0079,-0.0287,0.0108,0.0052,0.0019,42.8625,14.5688,20.1938,,0.0009299999999999864,0.05345521489995153,0.06532827061806877,non_fall
0.987635,0.0444,-0.0079,-0.0287,0.0108,0.0052,0.0019,42.9563,14.4,20.475,,0.0062710000000000266,0.05345521489995153,0.05766761919390688,non_fall
1.020032,0.0444,-0.0079,-0.0287,0.0108,0.0052,0.0019,42.9563,14.4,20.475,,0.03239700000000001,0.05345521489995153,0.048891032251282544,non_fall
1.040311,0.0444,-0.0079,-0.0287,0.0029,0.002,0.0004,42.9563,14.4,20.475,,0.020278999999999936,0.05345521489995153,0.04019892264352248,non_fall
1.041509,0.0101,0.0064,-0.0123,0.0029,0.002,0.0004,42.9563,14.4,20.475,,0.0011980000000000324,0.017154008277950664,0.03270021957499676,non_fall
1.046607,0.0101,0.0064,-0.0123,0.0029,0.002,0.0004,43.1063,14.2875,20.6813,,0.005098000000000047,0.017154008277950664,0.027216752086502666,non_fall
1.083223,0.0101,0.0064,-0.0123,0.0029,0.002,0.0004,43.1063,14.2875,20.6813,,0.03661599999999998,0.017154008277950664,0.024142144776190092,non_fall
1.103058,0.0101,0.0064,-0.0123,0.0057,0.0023,0.0004,43.1063,14.2875,20.6813,,0.019835000000000047,0.017154008277950664,0.023387729545286205,non_fall
1.107265,0.0101,0.0064,-0.0123,0.0057,0.0023,0.0004,43.275,14.0625,20.9625,,0.00420699999999985,0.017154008277950664,0.02443206914045627,non_fall
1.122487,-0.0341,-0.0044,0.0204,0.0057,0.0023,0.0004,43.275,14.0625,20.9625,,0.015222000000000069,0.03997911955008514,0.026464438358042092,non_fall
1.143099,-0.0341,-0.0044,0.0204,0.0057,0.0023,0.0004,43.275,14.0625,20.9625,,0.020612000000000075,0.03997911955008514,0.028585937098530034,non_fall
1.163115,-0.0341,-0.0044,0.0204,-0.0031,0.0076,-0.006,43.275,14.0625,20.9625,,0.02001599999999981,0.03997911955008514,0.030014990531432254,non_fall
1.167624,-0.0341,-0.0044,0.0204,-0.0031,0.0076,-0.006,43.275,14.0625,21.3188,,0.004509000000000096,0.03997911955008514,0.030244212733666478,non_fall
1.183193,0.0077,-0.0038,0.0169,-0.0031,0.0076,-0.006,43.275,14.0625,21.3188,,0.015568999999999944,0.01895626545498875,0.029114503802194953,non_fall
1.203759,0.0077,-0.0038,0.0169,-0.0031,0.0076,-0.006,43.275,14.0625,21.3188,,0.020566000000000084,0.01895626545498875,0.026802227962321266,non_fall
1.223812,0.0077,-0.0038,0.0169,0.0001,0.0037,-0.0031,43.275,14.0625,21.3188,,0.020052999999999876,0.01895626545498875,0.02374246181405619,non_fall
1.228881,0.0077,-0.0038,0.0169,0.0001,0.0037,-0.0031,43.275,14.0063,21.4313,,0.00506899999999999,0.01895626545498875,0.020523540546773127,non_fall
1.244923,-0.0134,0.0144,0.004,0.0001,0.0037,-0.0031,43.275,14.0063,21.4313,,0.01604200000000011,0.020072867259063914,0.017782740285764438,non_fall
1.263533,-0.0134,0.0144,0.004,0.0001,0.0037,-0.0031,43.275,14.0063,21.4313,,0.018610000000000015,0.020072867259063914,0.016117556363326197,non_fall
1.284123,-0.0134,0.0144,0.004,-0.0007,0.0186,-0.0028,43.275,14.0063,21.4313,,0.020589999999999886,0.020072867259063914,0.016012912343107637,non_fall
1.287091,-0.0134,0.0144,0.004,-0.0007,0.0186,-0.0028,43.2188,14.0813,21.45,,0.0029680000000000817,0.020072867259063914,0.01777881362533577,non_fall
1.325935,-0.0134,0.0144,0.004,-0.0007,0.0186,-0.0028,43.2188,14.0813,21.45,,0.0388440000000001,0.020072867259063914,0.021496166251171327,non_fall
1.327015,0.0197,-0.0092,-0.0125,-0.0007,0.0186,-0.0028,43.2188,14.0813,21.45,,0.0010799999999999699,0.025079473678687916,0.026977222297571244,non_fall
1.34586,0.0197,-0.0092,-0.0125,-0.0007,0.0186,-0.0028,43.2188,14.025,21.5438,,0.018845,0.025079473678687916,0.03375620522814294,non_fall
1.346966,0.0197,-0.0092,-0.0125,-0.0188,0.0016,-0.0184,43.2188,14.025,21.5438,,0.0011060000000000514,0.025079473678687916,0.04113004534933936,non_fall
1.388229,0.0197,-0.0092,-0.0125,-0.0188,0.0016,-0.0184,43.2188,14.025,21.5438,,0.04126299999999983,0.025079473678687916,0.04826437768986206,non_fall
1.389169,-0.0621,0.02,0.0483,-0.0188,0.0016,-0.0184,43.2188,14.025,21.5438,,0.0009400000000001629,0.08117450338622344,0.054362192535936965,non_fall
1.40816,-0.0621,0.02,0.0483,-0.0188,0.0016,-0.0184,43.2,14.1563,21.5063,,0.01899099999999998,0.08117450338622344,0.058862446372018505,non_fall
1.409216,-0.0621,0.02,0.0483,0.0025,0.0009,-0.0092,43.2,14.1563,21.5063,,0.0010559999999999459,0.08117450338622344,0.06160616888740631,non_fall
1.447185,-0.0621,0.02,0.0483,0.0025,0.0009,-0.0092,43.2,14.1563,21.5063,,0.03796899999999992,0.08117450338622344,0.06290052724846393,non_fall
1.447903,0.0328,-0.0308,-0.0126,0.0025,0.0009,-0.0092,43.2,14.1563,21.5063,,0.0007179999999999964,0.04672515382532197,0.06344054230108243,non_fall
1.467247,0.0328,-0.0308,-0.0126,0.0025,0.0009,-0.0092,43.275,14.1,21.6,,0.019344000000000028,0.04672515382532197,0.0641031447510271,non_fall
1.46876,0.0328,-0.0308,-0.0126,0.0196,0.0095,0.0119,43.275,14.1,21.6,,0.0015130000000000976,0.04672515382532197,0.06568078306194194,non_fall
1.508215,0.0328,-0.0308,-0.0126,0.0196,0.0095,0.0119,43.275,14.1,21.6,,0.03945500000000002,0.04672515382532197,0.06864528660593039,non_fall
1.50891,0.0743,0.0086,-0.0458,0.0196,0.0095,0.0119,43.275,14.1,21.6,,0.0006949999999998902,0.08770456088482514,0.07301710181084657,non_fall
1.529222,0.0743,0.0086,-0.0458,0.0611,0.0012,0.0289,43.275,14.1,21.6,,0.020312000000000108,0.08770456088482514,0.07837067584831205,non_fall
1.530747,0.0743,0.0086,-0.0458,0.0611,0.0012,0.0289,43.3125,14.1,21.675,,0.0015249999999999986,0.08770456088482514,0.08395756195364963,non_fall
1.568785,0.0743,0.0086,-0.0458,0.0611,0.0012,0.0289,43.3125,14.1,21.675,,0.038038000000000016,0.08770456088482514,0.08889810394684798,non_fall
1.588463,0.0743,0.0086,-0.0458,0.0611,0.0012,0.0289,43.2,14.1,21.6938,,0.019677999999999862,0.08770456088482514,0.09238854333677199,non_fall
1.589246,0.0137,0.0221,-0.0956,0.0611,0.0012,0.0289,43.2,14.1,21.6938,,0.0007829999999999782,0.0990730033863918,0.09388272440704477,non_fall
1.590097,0.0137,0.0221,-0.0956,0.0768,-0.0052,0.0381,43.2,14.1,21.6938,,0.0008510000000001572,0.0990730033863918,0.09322011225296453,non_fall
1.630114,0.0137,0.0221,-0.0956,0.0768,-0.0052,0.0381,43.2,14.1,21.6938,,0.04001699999999997,0.0990730033863918,0.09067804669879964,non_fall
1.646718,0.0137,0.0221,-0.0956,0.0768,-0.0052,0.0381,43.1813,14.0625,21.525,,0.01660399999999984,0.0990730033863918,0.08693106588183606,non_fall
1.649482,0.0137,0.0221,-0.0956,0.1023,0.0005,0.0481,43.1813,14.0625,21.525,,0.0027639999999999887,0.0990730033863918,0.08291166710596698,non_fall
1.650096,-0.003,0.0009,-0.0591,0.1023,0.0005,0.0481,43.1813,14.0625,21.525,,0.0006140000000001145,0.05918293673010828,0.07958870779248263,non_fall
1.690707,-0.003,0.0009,-0.0591,0.1023,0.0005,0.0481,43.1813,14.0625,21.525,,0.04061099999999995,0.05918293673010828,0.07770870784141101,non_fall
1.706972,-0.003,0.0009,-0.0591,0.1023,0.0005,0.0481,42.9938,14.0438,21.525,,0.016264999999999974,0.05918293673010828,0.07757017648367935,non_fall
1.710094,-0.003,0.0009,-0.0591,0.1254,-0.0005,0.0573,42.9938,14.0438,21.525,,0.003122000000000069,0.05918293673010828,0.07890506448486703,non_fall
1.710892,0.0519,0.0118,-0.0781,0.1254,-0.0005,0.0573,42.9938,14.0438,21.525,,0.0007980000000000764,0.09451169239834825,0.08091482800177092,non_fall
1.752081,0.0519,0.0118,-0.0781,0.1254,-0.0005,0.0573,42.9938,14.0438,21.525,,0.04118899999999992,0.09451169239834825,0.0824593551150309,non_fall
1.770995,0.0519,0.0118,-0.0781,0.1254,-0.0005,0.0573,42.9938,14.0813,21.45,,0.018914000000000097,0.09451169239834825,0.0823473721082568,non_fall
1.775063,0.0519,0.0118,-0.0781,0.1289,0.0033,0.0619,42.9938,14.0813,21.45,,0.0040679999999999605,0.09451169239834825,0.0796494758222776,non_fall
1.792134,0.0127,0.0083,-0.0577,0.1289,0.0033,0.0619,42.9938,14.0813,21.45,,0.017070999999999836,0.059661293985296696,0.07395912195517405,non_fall
1.812391,0.0127,0.0083,-0.0577,0.1289,0.0033,0.0619,42.9938,14.0813,21.45,,0.02025700000000019,0.059661293985296696,0.0655543601826429,non_fall
1.827244,0.0127,0.0083,-0.0577,0.1289,0.0033,0.0619,42.9938,14.0625,21.2812,,0.014853000000000005,0.059661293985296696,0.05544433418058128,non_fall
1.832681,0.0127,0.0083,-0.0577,0.1112,-0.018,0.0466,42.9938,14.0625,21.2812,,0.005436999999999914,0.059661293985296696,0.04530268946543931,non_fall
1.854138,0.0157,0.018,-0.0352,0.1112,-0.018,0.0466,42.9938,14.0625,21.2812,,0.02145700000000006,0.042538570732924254,0.037292834028877,non_fall
1.873204,0.0157,0.018,-0.0352,0.1112,-0.018,0.0466,42.9938,14.0625,21.2812,,0.019066000000000027,0.042538570732924254,0.033790014729684785,non_fall
1.888301,0.0157,0.018,-0.0352,0.1112,-0.018,0.0466,42.9938,14.0813,21.225,,0.015096999999999916,0.042538570732924254,0.03701581281912177,non_fall
1.894435,0.0157,0.018,-0.0352,0.2013,-0.0361,0.0636,42.9938,14.0813,21.225,,0.006134000000000084,0.042538570732924254,0.04862354540187625,non_fall
1.914464,-0.0153,-0.0172,-0.0677,0.2013,-0.0361,0.0636,42.9938,14.0813,21.225,,0.020028999999999852,0.07150678289505129,0.06929995628417217,non_fall
1.935376,-0.0153,-0.0172,-0.0677,0.2013,-0.0361,0.0636,42.9938,14.0813,21.225,,0.02091200000000004,0.07150678289505129,0.09847016813438197,non_fall
1.947433,-0.0153,-0.0172,-0.0677,0.2013,-0.0361,0.0636,42.9,14.1938,21.075,,0.012056999999999984,0.07150678289505129,0.13420148644006907,non_fall
1.955076,-0.0153,-0.0172,-0.0677,0.3519,0.2483,0.1336,42.9,14.1938,21.075,,0.007643000000000066,0.07150678289505129,0.1733861762005267,non_fall
1.976135,0.279,-0.1363,-0.0833,0.3519,0.2483,0.1336,42.9,14.1938,21.075,,0.02105899999999994,0.3214927370874808,0.2122254797528833,non_fall
1.997382,0.279,-0.1363,-0.0833,0.3519,0.2483,0.1336,42.9,14.1938,21.075,,0.021247000000000016,0.3214927370874808,0.24692967343667924,non_fall
2.007554,0.279,-0.1363,-0.0833,0.3519,0.2483,0.1336,42.75,14.3438,21.0375,,0.010171999999999848,0.3214927370874808,0.2744328582178509,non_fall
2.015746,0.279,-0.1363,-0.0833,0.2731,0.3296,0.0498,42.75,14.3438,21.0375,,0.008192000000000199,0.3214927370874808,0.29288031823527577,non_fall
2.056805,0.279,-0.1363,-0.0833,0.2731,0.3296,0.0498,42.75,14.3438,21.0375,,0.04105900000000018,0.3214927370874808,0.3017304825035104,non_fall
2.057411,-0.1359,0.0457,0.1638,0.2731,0.3296,0.0498,42.75,14.3438,21.0375,,0.0006059999999998844,0.21768725272739328,0.30148244722928597,non_fall
2.067336,-0.1359,0.0457,0.1638,0.2731,0.3296,0.0498,42.7125,14.4,21.1125,,0.009924999999999962,0.21768725272739328,0.2932029462887139,non_fall
2.079016,-0.1359,0.0457,0.1638,0.0999,0.1028,-0.0045,42.7125,14.4,21.1125,,0.011680000000000135,0.21768725272739328,0.2781090578235748,non_fall
2.118238,-0.1359,0.0457,0.1638,0.0999,0.1028,-0.0045,42.7125,14.4,21.1125,,0.039221999999999646,0.21768725272739328,0.2574287472196789,non_fall
2.119484,-0.1826,0.069,-0.2006,0.0999,0.1028,-0.0045,42.7125,14.4,21.1125,,0.0012460000000000804,0.2799001964986806,0.23261849502062992,non_fall
2.127203,-0.1826,0.069,-0.2006,0.0999,0.1028,-0.0045,42.75,14.625,21.2625,,0.0077190000000002534,0.2799001964986806,0.20582292217334125,non_fall
2.138348,-0.1826,0.069,-0.2006,0.1158,-0.0382,0.0566,42.75,14.625,21.2625,,0.01114499999999996,0.2799001964986806,0.1803018396008476,non_fall
2.178766,-0.1826,0.069,-0.2006,0.1158,-0.0382,0.0566,42.75,14.625,21.2625,,0.04041799999999984,0.2799001964986806,0.16050165203426786,non_fall
2.179358,0.0234,0.0672,-0.0995,0.1158,-0.0382,0.0566,42.75,14.625,21.2625,,0.000592000000000148,0.12232599887186697,0.15154478437882138,non_fall
2.188319,0.0234,0.0672,-0.0995,0.1158,-0.0382,0.0566,42.9188,14.6813,21.375,,0.008960999999999775,0.12232599887186697,0.15812898656920876,non_fall
2.198668,0.0234,0.0672,-0.0995,0.2957,0.0009,0.1981,42.9188,14.6813,21.375,,0.010349000000000164,0.12232599887186697,0.18308742265786096,non_fall
2.239722,0.0234,0.0672,-0.0995,0.2957,0.0009,0.1981,42.9188,14.6813,21.375,,0.041053999999999924,0.12232599887186697,0.22605369821007662,non_fall
2.249386,0.0234,0.0672,-0.0995,0.2957,0.0009,0.1981,42.9,14.7375,21.5063,,0.009663999999999895,0.12232599887186697,0.2827256659716392,non_fall
2.26013,0.0234,0.0672,-0.0995,0.4065,-0.0591,0.2475,42.9,14.7375,21.5063,,0.010744000000000309,0.12232599887186697,0.34510781983772276,non_fall
2.261275,0.425,-0.1101,-0.4412,0.4065,-0.0591,0.2475,42.9,14.7375,21.5063,,0.0011449999999997296,0.622418227560858,0.40284865553998855,non_fall
2.300621,0.425,-0.1101,-0.4412,0.4065,-0.0591,0.2475,42.9,14.7375,21.5063,,0.0393460000000001,0.622418227560858,0.44542014202124064,non_fall
2.307847,0.425,-0.1101,-0.4412,0.4065,-0.0591,0.2475,42.8813,14.7,21.5625,,0.007226000000000177,0.622418227560858,0.4645357648582146,non_fall
2.319872,0.425,-0.1101,-0.4412,0.385,-0.0648,0.2983,42.8813,14.7,21.5625,,0.012024999999999952,0.622418227560858,0.45606628983353276,non_fall
2.320715,0.1257,-0.0375,-0.2052,0.385,-0.0648,0.2983,42.8813,14.7,21.5625,,0.0008429999999997051,0.24354420543301783,0.42090385849358036,non_fall
2.362479,0.1257,-0.0375,-0.2052,0.385,-0.0648,0.2983,42.8813,14.7,21.5625,,0.041764000000000134,0.24354420543301783,0.3646524904583196,non_fall
2.367298,0.1257,-0.0375,-0.2052,0.385,-0.0648,0.2983,43.0125,14.7938,21.3563,,0.004818999999999907,0.24354420543301783,0.2964428205829191,non_fall
2.381478,0.1257,-0.0375,-0.2052,0.3324,-0.3459,0.3125,43.0125,14.7938,21.3563,,0.014180000000000081,0.24354420543301783,0.22736400433555423,non_fall
2.382656,0.0326,-0.0199,-0.1653,0.3324,-0.3459,0.3125,43.0125,14.7938,21.3563,,0.0011779999999999013,0.1696551207597342,0.16892947932685257,non_fall
2.422752,0.0326,-0.0199,-0.1653,0.3324,-0.3459,0.3125,43.0125,14.7938,21.3563,,0.04009600000000013,0.1696551207597342,0.13177560241075306,non_fall
2.427099,0.0326,-0.0199,-0.1653,0.3324,-0.3459,0.3125,43.1438,14.6813,21.0375,,0.004347000000000101,0.1696551207597342,0.12460529206105128,non_fall
2.442062,0.0326,-0.0199,-0.1653,0.3206,-0.9718,0.3057,43.1438,14.6813,21.0375,,0.014962999999999838,0.1696551207597342,0.1533152263566297,non_fall
2.443109,-0.2744,0.1031,-0.071,0.3206,-0.9718,0.3057,43.1438,14.6813,21.0375,,0.0010470000000002422,0.3016056531300433,0.22027349001506014,non_fall
2.483445,-0.2744,0.1031,-0.071,0.3206,-0.9718,0.3057,43.1438,14.6813,21.0375,,0.04033599999999993,0.3016056531300433,0.32380603192548746,non_fall
2.488504,-0.2744,0.1031,-0.071,0.3206,-0.9718,0.3057,43.5188,14.4375,20.25,,0.005058999999999703,0.3016056531300433,0.45807151913794975,backward_fall
2.504768,-0.2744,0.1031,-0.071,0.6689,-1.4859,0.2788,43.5188,14.4375,20.25,,0.016264000000000056,0.3016056531300433,0.6136090268592943,backward_fall
2.525081,-0.6529,0.3162,-0.5466,0.6689,-1.4859,0.2788,43.5188,14.4375,20.25,,0.020313000000000248,0.9083129471718434,0.7788456939265838,backward_fall
2.543845,-0.6529,0.3162,-0.5466,0.6689,-1.4859,0.2788,43.5188,14.4375,20.25,,0.018764000000000003,0.9083129471718434,0.9426652819528519,backward_fall
2.547666,-0.6529,0.3162,-0.5466,0.6689,-1.4859,0.2788,44.175,14.2313,18.7313,,0.0038209999999998523,0.9083129471718434,1.097784262816456,backward_fall
2.564443,-0.6529,0.3162,-0.5466,2.0378,-1.5611,0.5787,44.175,14.2313,18.7313,,0.01677699999999982,0.9083129471718434,1.2442973103773454,backward_fall
2.585672,-0.7801,1.086,1.8128,2.0378,-1.5611,0.5787,44.175,14.2313,18.7313,,0.021229000000000386,2.2525975783526007,1.3924308494036628,backward_fall
2.604856,-0.7801,1.086,1.8128,2.0378,-1.5611,0.5787,44.175,14.2313,18.7313,,0.019183999999999646,2.2525975783526007,1.5632838955688777,backward_fall
2.606451,-0.7801,1.086,1.8128,2.0378,-1.5611,0.5787,44.925,13.6688,16.275,,0.001595000000000013,2.2525975783526007,1.7862917645201455,backward_fall
2.624831,-0.7801,1.086,1.8128,3.3907,-2.3968,1.3147,44.925,13.6688,16.275,,0.018380000000000063,2.2525975783526007,2.0926931290153723,backward_fall
2.648288,-1.0775,-2.1316,0.1195,3.3907,-2.3968,1.3147,44.925,13.6688,16.275,,0.02345700000000006,2.391444136918109,2.505588458124817,backward_fall
2.66599,-1.0775,-2.1316,0.1195,3.3907,-2.3968,1.3147,44.925,13.6688,16.275,,0.017701999999999884,2.391444136918109,3.0288644887105542,backward_fall
2.667026,-1.0775,-2.1316,0.1195,3.3907,-2.3968,1.3147,45.6938,12.8813,12.8813,,0.0010360000000000369,2.391444136918109,3.6386124960056594,backward_fall
2.689085,-1.0775,-2.1316,0.1195,2.9079,-1.031,0.4406,45.6938,12.8813,12.8813,,0.02205900000000005,2.391444136918109,4.281066509239936,backward_fall
2.727542,-1.0775,-2.1316,0.1195,2.9079,-1.031,0.4406,45.6938,12.8813,12.8813,,0.038457000000000185,2.391444136918109,4.880088551845817,backward_fall
2.729187,1.3528,-2.4754,-7.5382,2.9079,-1.031,0.4406,45.6938,12.8813,12.8813,,0.0016449999999998965,8.04873482231835,5.35454597578559,backward_fall
2.73075,1.3528,-2.4754,-7.5382,2.9079,-1.031,0.4406,46.2938,11.6813,9.2438,,0.001562999999999981,8.04873482231835,5.641860699832582,backward_fall
2.746985,1.3528,-2.4754,-7.5382,4.1206,0.543,0.9369,46.2938,11.6813,9.2438,,0.016235,8.04873482231835,5.720135345519967,backward_fall
2.791115,1.3528,-2.4754,-7.5382,4.1206,0.543,0.9369,47.0625,9.8625,5.5875,,0.04413,8.04873482231835,5.620070598678613,backward_fall
2.791751,2.8206,-2.0118,0.4951,4.1206,0.543,0.9369,47.0625,9.8625,5.5875,,0.0006360000000000809,3.4997496496178124,5.4208812079518385,backward_fall
2.79212,2.8206,-2.0118,0.4951,4.1206,0.543,0.9369,47.0625,9.8625,5.5875,,0.0003690000000000637,3.4997496496178124,5.2305252217954585,backward_fall
2.807433,2.8206,-2.0118,0.4951,3.9725,1.9339,1.3796,47.0625,9.8625,5.5875,,0.01531299999999991,3.4997496496178124,5.156720131796225,backward_fall
2.847424,2.8206,-2.0118,0.4951,3.9725,1.9339,1.3796,47.0625,9.8625,5.5875,,0.03999100000000011,3.4997496496178124,5.278398078728486,backward_fall
2.848047,4.4691,-1.6674,-4.5791,3.9725,1.9339,1.3796,47.0625,9.8625,5.5875,,0.0006230000000000402,6.6122034436335975,5.626252330574749,backward_fall
2.848607,4.4691,-1.6674,-4.5791,3.9725,1.9339,1.3796,47.4938,7.9313,3.1875,,0.0005599999999996719,6.6122034436335975,6.176991725438392,backward_fall
2.867944,4.4691,-1.6674,-4.5791,3.2693,3.2179,0.753,47.4938,7.9313,3.1875,,0.01933700000000016,6.6122034436335975,6.8612988758622135,backward_fall
2.906849,4.4691,-1.6674,-4.5791,3.2693,3.2179,0.753,47.55,5.9813,2.3438,,0.038904999999999745,6.6122034436335975,7.582331896179036,backward_fall
2.908432,4.4691,-1.6674,-4.5791,3.2693,3.2179,0.753,47.55,5.9813,2.3438,,0.001583000000000112,6.6122034436335975,8.240361176137936,backward_fall
2.909263,-0.4471,-8.5067,7.8063,3.2693,3.2179,0.753,47.55,5.9813,2.3438,,0.0008310000000002482,11.554313609643803,8.758684153967602,backward_fall
2.928487,-0.4471,-8.5067,7.8063,-0.3844,5.6277,3.0871,47.55,5.9813,2.3438,,0.019223999999999908,11.554313609643803,9.105129606188896,backward_fall
2.967658,-0.4471,-8.5067,7.8063,-0.3844,5.6277,3.0871,46.0688,2.3625,3.75,,0.03917100000000007,11.554313609643803,9.302658464889793,backward_fall
2.970136,-0.4471,-8.5067,7.8063,-0.3844,5.6277,3.0871,46.0688,2.3625,3.75,,0.0024779999999999802,11.554313609643803,9.42366511835725,backward_fall
2.992288,-2.9163,5.4964,-3.8866,-0.3844,5.6277,3.0871,46.0688,2.3625,3.75,,0.022151999999999727,7.336271410600892,9.56686675063877,backward_fall
2.994789,-2.9163,5.4964,-3.8866,2.7907,4.1676,11.2032,46.0688,2.3625,3.75,,0.0025010000000000865,7.336271410600892,9.822146743971322,backward_fall
3.027715,-2.9163,5.4964,-3.8866,2.7907,4.1676,11.2032,41.6438,-1.95,7.8188,,0.03292600000000023,7.336271410600892,10.234508856790336,backward_fall
3.032173,-2.9163,5.4964,-3.8866,2.7907,4.1676,11.2032,41.6438,-1.95,7.8188,,0.004457999999999629,7.336271410600892,10.78041120907146,backward_fall
3.051625,-2.9163,5.4964,-3.8866,5.3269,4.6354,6.7568,41.6438,-1.95,7.8188,,0.019452000000000247,7.336271410600892,11.366754044720539,backward_fall
3.054125,-11.8924,-10.2642,4.1492,5.3269,4.6354,6.7568,41.6438,-1.95,7.8188,,0.0024999999999999467,16.248041113931244,11.855350899281827,backward_fall
3.089053,-11.8924,-10.2642,4.1492,5.3269,4.6354,6.7568,35.7188,-4.125,13.2188,,0.03492799999999985,16.248041113931244,12.1061135609051,backward_fall
3.091592,-11.8924,-10.2642,4.1492,5.3269,4.6354,6.7568,35.7188,-4.125,13.2188,,0.002539000000000069,16.248041113931244,12.024019977075266,backward_fall
3.114547,-11.8924,-10.2642,4.1492,5.788,2.2424,4.0503,35.7188,-4.125,13.2188,,0.02295500000000006,16.248041113931244,11.592314393309248,backward_fall
3.118819,0.5586,-4.1948,5.7203,5.788,2.2424,4.0503,35.7188,-4.125,13.2188,,0.0042719999999998315,7.115491064571721,10.879446878054276,backward_fall
3.148566,0.5586,-4.1948,5.7203,5.788,2.2424,4.0503,28.875,-3.3375,19.3688,,0.029747000000000412,7.115491064571721,10.017960784028116,backward_fall
3.154045,0.5586,-4.1948,5.7203,5.788,2.2424,4.0503,28.875,-3.3375,19.3688,,0.00547899999999979,7.115491064571721,9.164510384502554,backward_fall
3.174366,0.5586,-4.1948,5.7203,3.3829,2.079,4.1291,28.875,-3.3375,19.3688,,0.020321000000000033,7.115491064571721,8.45607913561212,backward_fall
3.177359,4.2451,-5.8477,2.8579,3.3829,2.079,4.1291,28.875,-3.3375,19.3688,,0.0029930000000000234,7.770718223562092,7.976323084592941,backward_fall
3.209529,4.2451,-5.8477,2.8579,3.3829,2.079,4.1291,22.1625,-1.3125,25.2938,,0.03216999999999981,7.770718223562092,7.740078558461431,backward_fall
3.215643,4.2451,-5.8477,2.8579,3.3829,2.079,4.1291,22.1625,-1.3125,25.2938,,0.006114000000000175,7.770718223562092,7.697438924475806,backward_fall
3.235511,4.2451,-5.8477,2.8579,2.2135,3.1224,4.9705,22.1625,-1.3125,25.2938,,0.019867999999999775,7.770718223562092,7.7540126541427385,backward_fall
3.256085,-1.214,-6.7022,4.4208,2.2135,3.1224,4.9705,22.1625,-1.3125,25.2938,,0.020574000000000314,8.120144917426042,7.801476721162526,backward_fall
3.267795,-1.214,-6.7022,4.4208,2.2135,3.1224,4.9705,15.9563,2.325,30.5063,,0.011709999999999887,8.120144917426042,7.751674561382581,backward_fall
3.27483,-1.214,-6.7022,4.4208,2.2135,3.1224,4.9705,15.9563,2.325,30.5063,,0.0070350000000001245,8.120144917426042,7.5675324703746645,backward_fall
3.296363,-1.214,-6.7022,4.4208,-0.9065,-3.2801,4.7006,15.9563,2.325,30.5063,,0.021532999999999802,8.120144917426042,7.284606903514589,backward_fall
3.315279,-0.8934,-6.4476,5.3029,-0.9065,-3.2801,4.7006,15.9563,2.325,30.5063,,0.018915999999999933,8.39585955873489,7.018098912952763,backward_fall
3.328664,-0.8934,-6.4476,5.3029,-0.9065,-3.2801,4.7006,13.05,5.7938,33.45,,0.01338499999999998,8.39585955873489,6.951814780025953,backward_fall
3.336603,-0.8934,-6.4476,5.3029,-0.9065,-3.2801,4.7006,13.05,5.7938,33.45,,0.007939000000000362,8.39585955873489,7.308003746991991,backward_fall
3.355764,-0.8934,-6.4476,5.3029,7.8197,-7.9426,7.9563,13.05,5.7938,33.45,,0.019160999999999984,8.39585955873489,8.300372512326204,backward_fall
3.376119,-1.0781,0.7326,11.2994,7.8197,-7.9426,7.9563,13.05,5.7938,33.45,,0.0203549999999999,11.374332627895141,10.076632173282732,backward_fall
3.389588,-1.0781,0.7326,11.2994,7.8197,-7.9426,7.9563,11.9438,8.4,34.3313,,0.013468999999999731,11.374332627895141,12.661044549819582,backward_fall
3.397232,-1.0781,0.7326,11.2994,7.8197,-7.9426,7.9563,11.9438,8.4,34.3313,,0.007643999999999984,11.374332627895141,15.91081801917336,backward_fall
3.416699,-1.0781,0.7326,11.2994,-2.0124,1.6066,-0.989,11.9438,8.4,34.3313,,0.019467000000000123,11.374332627895141,19.501854480338686,backward_fall
3.448078,-1.0781,0.7326,11.2994,-2.0124,1.6066,-0.989,12.4875,13.275,32.7375,,0.03137900000000027,11.374332627895141,22.957344275909662,backward_fall
3.457589,19.0458,-20.2174,-20.1001,-2.0124,1.6066,-0.989,12.4875,13.275,32.7375,,0.009510999999999825,34.28556227349932,25.72430555783063,backward_fall
3.46031,19.0458,-20.2174,-20.1001,-2.0124,1.6066,-0.989,12.4875,13.275,32.7375,,0.0027210000000001955,34.28556227349932,27.287618726515404,backward_fall
3.478494,19.0458,-20.2174,-20.1001,1.4779,-1.696,0.167,12.4875,13.275,32.7375,,0.018183999999999756,34.28556227349932,27.29351211548594,backward_fall
3.507732,19.0458,-20.2174,-20.1001,1.4779,-1.696,0.167,15.9375,18.7875,29.0813,,0.029237999999999875,34.28556227349932,25.64470366171142,backward_fall
3.517993,19.0458,-20.2174,-20.1001,1.4779,-1.696,0.167,15.9375,18.7875,29.0813,,0.010261000000000298,34.28556227349932,22.534618103999197,backward_fall
3.519534,-2.6644,1.4485,3.6993,1.4779,-1.696,0.167,15.9375,18.7875,29.0813,,0.0015410000000000146,4.783513363627199,18.407090241445136,backward_fall
3.539443,-2.6644,1.4485,3.6993,0.2898,-0.4305,0.2447,15.9375,18.7875,29.0813,,0.019908999999999732,4.783513363627199,13.853228025161618,backward_fall
3.568936,-2.6644,1.4485,3.6993,0.2898,-0.4305,0.2447,20.9438,22.2,24.8438,,0.02949299999999999,4.783513363627199,9.478446945483132,backward_fall
3.579753,-2.6644,1.4485,3.6993,0.2898,-0.4305,0.2447,20.9438,22.2,24.8438,,0.010817000000000299,4.783513363627199,5.780219241495232,backward_fall
3.580646,0.5676,-0.0604,-2.2894,0.2898,-0.4305,0.2447,20.9438,22.2,24.8438,,0.0008930000000000327,2.3594851726594936,3.0676725912139804,backward_fall
3.601147,0.5676,-0.0604,-2.2894,-0.7714,0.8948,0.4836,20.9438,22.2,24.8438,,0.02050099999999988,2.3594851726594936,1.4351976830071205,backward_fall
3.627675,0.5676,-0.0604,-2.2894,-0.7714,0.8948,0.4836,26.3438,23.3625,21.3,,0.026527999999999885,2.3594851726594936,0.7848128726991993,backward_fall
3.64208,0.5676,-0.0604,-2.2894,-0.7714,0.8948,0.4836,26.3438,23.3625,21.3,,0.014405000000000001,2.3594851726594936,0.8819651333799629,backward_fall
3.643351,0.0611,0.0346,-3.5347,-0.7714,0.8948,0.4836,26.3438,23.3625,21.3,,0.0012710000000000221,3.5353973553194837,1.42630540072725,backward_fall
3.663265,0.0611,0.0346,-3.5347,-0.1782,0.2249,-0.1124,26.3438,23.3625,21.3,,0.019913999999999987,3.5353973553194837,2.1204250153207367,backward_fall
3.689346,0.0611,0.0346,-3.5347,-0.1782,0.2249,-0.1124,32.0063,23.1375,18.1125,,0.02608100000000002,3.5353973553194837,2.7237146385417677,backward_fall
3.70268,0.0611,0.0346,-3.5347,-0.1782,0.2249,-0.1124,32.0063,23.1375,18.1125,,0.013333999999999957,3.5353973553194837,3.084038054319328,backward_fall
3.722364,0.0611,0.0346,-3.5347,0.5113,-0.6161,0.0051,32.0063,23.1375,18.1125,,0.019683999999999813,3.5353973553194837,3.145615489175062,backward_fall
3.724975,0.638,0.7541,-1.0048,0.5113,-0.6161,0.0051,32.0063,23.1375,18.1125,,0.002611000000000363,1.4090187543109567,2.9363974460786966,backward_fall
3.74743,0.638,0.7541,-1.0048,0.5113,-0.6161,0.0051,37.125,22.1625,15.2438,,0.02245499999999989,1.4090187543109567,2.541617704595588,backward_fall
3.762772,0.638,0.7541,-1.0048,0.5113,-0.6161,0.0051,37.125,22.1625,15.2438,,0.015341999999999967,1.4090187543109567,2.0717512930368107,backward_fall
3.783441,0.638,0.7541,-1.0048,0.1499,-0.216,0.0036,37.125,22.1625,15.2438,,0.020668999999999826,1.4090187543109567,1.6326016203071574,backward_fall
3.784988,0.5716,0.5625,-0.534,0.1499,-0.216,0.0036,37.125,22.1625,15.2438,,0.001546999999999965,0.9634774569236169,1.3030513296612671,backward_fall
3.808015,0.5716,0.5625,-0.534,0.1499,-0.216,0.0036,39.0375,21.3188,13.875,,0.023027000000000353,0.9634774569236169,1.123128393569305,backward_fall
3.822475,0.5716,0.5625,-0.534,0.1499,-0.216,0.0036,39.0375,21.3188,13.875,,0.014459999999999695,0.9634774569236169,1.0924988291597748,backward_fall
3.843341,0.5716,0.5625,-0.534,0.0264,-0.002,-0.0113,39.0375,21.3188,13.875,,0.020866000000000273,0.9634774569236169,1.1777145362109351,backward_fall
3.8447,0.3788,0.233,-2.1009,0.0264,-0.002,-0.0113,39.0375,21.3188,13.875,,0.001358999999999888,2.147454132222619,1.32538286568015,backward_fall
3.867514,0.3788,0.233,-2.1009,0.0264,-0.002,-0.0113,39.3938,21.3,13.3125,,0.02281399999999989,2.147454132222619,1.477704768660651,backward_fall
3.884988,0.3788,0.233,-2.1009,0.0264,-0.002,-0.0113,39.3938,21.3,13.3125,,0.01747399999999999,2.147454132222619,1.586637007525001,backward_fall
3.903677,0.3788,0.233,-2.1009,0.2028,-0.2543,-0.019,39.3938,21.3,13.3125,,0.018689000000000178,2.147454132222619,1.6235255674951976,backward_fall
3.92511,0.3486,0.2915,-1.0004,0.2028,-0.2543,-0.019,39.3938,21.3,13.3125,,0.021433000000000035,1.0987694799183312,1.5824896596492908,backward_fall
3.926504,0.3486,0.2915,-1.0004,0.2028,-0.2543,-0.019,39.675,21.075,12.8813,,0.0013939999999998953,1.0987694799183312,1.4777145696850287,backward_fall
3.948127,0.3486,0.2915,-1.0004,0.2028,-0.2543,-0.019,39.675,21.075,12.8813,,0.021622999999999948,1.0987694799183312,1.3364387345258286,backward_fall
3.964979,0.3486,0.2915,-1.0004,0.1886,-0.3253,0.0019,39.675,21.075,12.8813,,0.01685200000000009,1.0987694799183312,1.1902085405649327,backward_fall
3.990147,0.4485,0.2925,-0.6656,0.1886,-0.3253,0.0019,39.675,21.075,12.8813,,0.025167999999999857,0.8542434430535595,1.0668055747109022,backward_fall
3.992049,0.4485,0.2925,-0.6656,0.1886,-0.3253,0.0019,39.6188,20.9625,12.675,,0.0019020000000002923,0.8542434430535595,0.984492639620477,backward_fall
4.007809,0.4485,0.2925,-0.6656,0.1886,-0.3253,0.0019,39.6188,20.9625,12.675,,0.015759999999999774,0.8542434430535595,0.9493578598988512,backward_fall
4.027809,0.4485,0.2925,-0.6656,0.0153,-0.0197,-0.0073,39.6188,20.9625,12.675,,0.020000000000000462,0.8542434430535595,0.9557985447639358,backward_fall
4.048608,0.2249,0.1402,-1.2118,0.0153,-0.0197,-0.0073,39.6188,20.9625,12.675,,0.020798999999999346,1.2404415705707383,0.9895871352426541,backward_fall
4.050948,0.2249,0.1402,-1.2118,0.0153,-0.0197,-0.0073,39.7688,20.925,12.4688,,0.002340000000000231,1.2404415705707383,1.032492909830368,backward_fall
4.068107,0.2249,0.1402,-1.2118,0.0153,-0.0197,-0.0073,39.7688,20.925,12.4688,,0.01715900000000037,1.2404415705707383,1.0671724166043528,backward_fall
4.091853,0.2249,0.1402,-1.2118,0.0125,-0.0158,-0.0073,39.7688,20.925,12.4688,,0.023746000000000045,1.2404415705707383,1.0810937688994393,backward_fall
4.108273,0.2249,0.1402,-1.2118,0.0125,-0.0158,-0.0073,39.825,21.075,11.9438,,0.016419999999999213,1.2404415705707383,1.0686414177272912,backward_fall
4.109872,0.1807,0.1144,-0.7674,0.0125,-0.0158,-0.0073,39.825,21.075,11.9438,,0.0015990000000005722,0.7966445945338486,1.0311397739777648,backward_fall
4.128335,0.1807,0.1144,-0.7674,0.0125,-0.0158,-0.0073,39.825,21.075,11.9438,,0.018462999999999674,0.7966445945338486,0.9751463685958515,backward_fall
4.149609,0.1807,0.1144,-0.7674,0.0033,-0.0095,-0.0028,39.825,21.075,11.9438,,0.021274000000000015,0.7966445945338486,0.9098085923076406,backward_fall
4.169234,0.1807,0.1144,-0.7674,0.0033,-0.0095,-0.0028,39.975,21.3375,11.4,,0.019625000000000448,0.7966445945338486,0.844205216321629,backward_fall
4.188443,0.1807,0.1144,-0.7674,0.0033,-0.0095,-0.0028,39.975,21.3375,11.4,,0.01920900000000003,0.7966445945338486,0.7853836724245726,backward_fall
4.189812,0.1643,0.0688,-0.7143,0.0033,-0.0095,-0.0028,39.975,21.3375,11.4,,0.0013689999999995095,0.7361741777595843,0.737407125321073,backward_fall
4.209513,0.1643,0.0688,-0.7143,0.0119,-0.0087,-0.0099,39.975,21.3375,11.4,,0.019701000000000413,0.7361741777595843,0.701353105768266,backward_fall
4.226321,0.1643,0.0688,-0.7143,0.0119,-0.0087,-0.0099,39.8813,21.375,11.025,,0.016808000000000156,0.7361741777595843,0.6759781361204659,backward_fall
4.249987,0.1643,0.0688,-0.7143,0.0119,-0.0087,-0.0099,39.8813,21.375,11.025,,0.02366599999999952,0.7361741777595843,0.6586855775058769,backward_fall
4.251525,0.1152,0.127,-0.5972,0.0119,-0.0087,-0.0099,39.8813,21.375,11.025,,0.0015380000000000393,0.6213275142789026,0.6464686759694346,backward_fall
4.268196,0.1152,0.127,-0.5972,0.0051,-0.0065,-0.0056,39.8813,21.375,11.025,,0.01667099999999966,0.6213275142789026,0.6366114697167103,backward_fall
4.290054,0.1152,0.127,-0.5972,0.0051,-0.0065,-0.0056,39.8438,21.525,10.8375,,0.021857999999999933,0.6213275142789026,0.627072791026786,backward_fall
4.312594,0.1152,0.127,-0.5972,0.0051,-0.0065,-0.0056,39.8438,21.525,10.8375,,0.022540000000000227,0.6213275142789026,0.6165948807398112,backward_fall
4.314953,0.1313,0.0571,-0.5632,0.0051,-0.0065,-0.0056,39.8438,21.525,10.8375,,0.002359000000000222,0.5811147391006358,0.6046302750556966,backward_fall
4.330208,0.1313,0.0571,-0.5632,0.0047,-0.0052,-0.0024,39.8438,21.525,10.8375,,0.015254999999999797,0.5811147391006358,0.5911779859592927,backward_fall
4.346317,0.1313,0.0571,-0.5632,0.0047,-0.0052,-0.0024,39.825,21.6188,10.4813,,0.01610900000000015,0.5811147391006358,0.5765942000762783,backward_fall
4.371731,0.1313,0.0571,-0.5632,0.0047,-0.0052,-0.0024,39.825,21.6188,10.4813,,0.025413999999999604,0.5811147391006358,0.5614120117834313,backward_fall
4.391909,0.1313,0.0571,-0.5632,0.0029,-0.0033,-0.0028,39.825,21.6188,10.4813,,0.020178000000000473,0.5811147391006358,0.5461762226434904,backward_fall
4.393648,0.0997,0.0771,-0.4796,0.0029,-0.0033,-0.0028,39.825,21.6188,10.4813,,0.001738999999999713,0.49588371620774163,0.5312859662299925,backward_fall
4.407046,0.0997,0.0771,-0.4796,0.0029,-0.0033,-0.0028,39.9,21.675,10.275,,0.013398000000000465,0.49588371620774163,0.5168512334981129,backward_fall
4.432092,0.0997,0.0771,-0.4796,0.0029,-0.0033,-0.0028,39.9,21.675,10.275,,0.02504599999999968,0.49588371620774163,0.502598215116005,backward_fall
4.452788,0.0997,0.0771,-0.4796,0.0079,-0.0133,0.0029,39.9,21.675,10.275,,0.020696000000000048,0.49588371620774163,0.48787246302581694,backward_fall
4.455269,0.097,0.0533,-0.4347,0.0079,-0.0133,0.0029,39.9,21.675,10.275,,0.0024810000000003996,0.44856881300420337,0.4717702384862918,backward_fall
4.467506,0.097,0.0533,-0.4347,0.0079,-0.0133,0.0029,39.9188,21.6562,10.05,,0.012236999999999831,0.44856881300420337,0.4533893509411815,backward_fall
4.493196,0.097,0.0533,-0.4347,0.0079,-0.0133,0.0029,39.9188,21.6562,10.05,,0.02568999999999999,0.44856881300420337,0.4321530924517351,non_fall
4.513471,0.097,0.0533,-0.4347,-0.0205,0.1595,-0.0372,39.9188,21.6562,10.05,,0.02027499999999982,0.44856881300420337,0.40813269299329036,non_fall
4.515166,0.0479,0.0592,-0.3625,-0.0205,0.1595,-0.0372,39.9188,21.6562,10.05,,0.00169499999999978,0.3704123378074764,0.38227803016571327,non_fall
4.527498,0.0479,0.0592,-0.3625,-0.0205,0.1595,-0.0372,39.9188,21.675,9.975,,0.012331999999999788,0.3704123378074764,0.35647344754675026,non_fall
4.555369,0.0479,0.0592,-0.3625,-0.0205,0.1595,-0.0372,39.9188,21.675,9.975,,0.0278710000000002,0.3704123378074764,0.33337041057809674,non_fall
4.574249,0.0258,0.1141,-0.2765,-0.0205,0.1595,-0.0372,39.9188,21.675,9.975,,0.01888000000000023,0.3002277468855935,0.3159994526061688,non_fall
4.576021,0.0258,0.1141,-0.2765,0.0462,-0.0917,-0.0495,39.9188,21.675,9.975,,0.0017719999999998848,0.3002277468855935,0.30721565801829653,non_fall
4.587843,0.0258,0.1141,-0.2765,0.0462,-0.0917,-0.0495,40.0125,21.8063,9.9,,0.011822000000000443,0.3002277468855935,0.3090781508173267,non_fall
4.615976,0.0258,0.1141,-0.2765,0.0462,-0.0917,-0.0495,40.0125,21.8063,9.9,,0.02813299999999952,0.3002277468855935,0.32229660147775313,non_fall
4.635795,0.0258,0.1141,-0.2765,-0.0258,0.0257,-0.0241,40.0125,21.8063,9.9,,0.01981900000000003,0.3002277468855935,0.34588431655045565,non_fall
4.647399,0.0258,0.1141,-0.2765,-0.0258,0.0257,-0.0241,39.8813,21.6188,9.9938,,0.01160400000000017,0.3002277468855935,0.3771310905916427,non_fall
4.655461,0.1493,-0.0854,-0.4623,-0.0258,0.0257,-0.0241,39.8813,21.6188,9.9938,,0.008061999999999792,0.49325950573709165,0.41194727703303585,non_fall
4.675441,0.1493,-0.0854,-0.4623,-0.0258,0.0257,-0.0241,39.8813,21.6188,9.9938,,0.01998000000000033,0.49325950573709165,0.44553719057854163,non_fall
4.696256,0.1493,-0.0854,-0.4623,0.115,-0.582,0.5862,39.8813,21.6188,9.9938,,0.020814999999999806,0.49325950573709165,0.47326598664184794,non_fall
4.707865,0.1493,-0.0854,-0.4623,0.115,-0.582,0.5862,40.1438,21.375,10.0125,,0.01160899999999998,0.49325950573709165,0.4915460963202454,non_fall
4.716275,0.3821,0.0987,-0.1958,0.115,-0.582,0.5862,40.1438,21.375,10.0125,,0.008410000000000473,0.4405448217832097,0.498615096150131,non_fall
4.737602,0.3821,0.0987,-0.1958,0.115,-0.582,0.5862,40.1438,21.375,10.0125,,0.02132699999999943,0.4405448217832097,0.4951652982581131,non_fall
4.757151,0.3821,0.0987,-0.1958,0.4186,0.4951,2.0641,40.1438,21.375,10.0125,,0.019549000000000483,0.4405448217832097,0.4848395018965922,non_fall
4.767867,0.3821,0.0987,-0.1958,0.4186,0.4951,2.0641,40.4062,20.6438,9.6938,,0.010715999999999504,0.4405448217832097,0.4745775886315095,non_fall
4.775903,0.3399,-0.4232,-0.3941,0.4186,0.4951,2.0641,40.4062,20.6438,9.6938,,0.00803599999999971,0.670779442141752,0.47469080301495076,non_fall
4.796435,0.3399,-0.4232,-0.3941,0.4186,0.4951,2.0641,40.4062,20.6438,9.6938,,0.020532000000000217,0.670779442141752,0.4984151792946339,non_fall
4.819358,0.3399,-0.4232,-0.3941,0.8133,0.0694,1.786,40.4062,20.6438,9.6938,,0.02292300000000047,0.670779442141752,0.5606561288789121,non_fall
4.828066,0.3399,-0.4232,-0.3941,0.8133,0.0694,1.786,40.7812,19.6688,9.45,,0.008707999999999494,0.670779442141752,0.6757809699078755,non_fall
4.859017,0.3399,-0.4232,-0.3941,0.8133,0.0694,1.786,40.7812,19.6688,9.45,,0.03095099999999995,0.670779442141752,0.8546490309222041,non_fall
4.860711,0.6921,-0.2089,-0.9955,0.8133,0.0694,1.786,40.7812,19.6688,9.45,,0.0016940000000005284,1.2303096642715605,1.1014573761487079,non_fall
4.878957,0.6921,-0.2089,-0.9955,-1.0137,0.5899,0.7977,40.7812,19.6688,9.45,,0.01824599999999954,1.2303096642715605,1.4112446946123254,non_fall
4.888287,0.6921,-0.2089,-0.9955,-1.0137,0.5899,0.7977,40.8563,17.9813,9.3938,,0.009330000000000283,1.2303096642715605,1.7689474897837425,non_fall
4.919801,0.6921,-0.2089,-0.9955,-1.0137,0.5899,0.7977,40.8563,17.9813,9.3938,,0.0315139999999996,1.2303096642715605,2.1507322458866613,non_fall
4.92198,0.8237,-0.6491,-3.297,-1.0137,0.5899,0.7977,40.8563,17.9813,9.3938,,0.002178999999999931,3.4597718855439012,2.5278557539412225,non_fall
4.938793,0.8237,-0.6491,-3.297,-1.5754,4.1587,0.8372,40.8563,17.9813,9.3938,,0.016813000000000855,3.4597718855439012,2.872445251670425,non_fall
4.94954,0.8237,-0.6491,-3.297,-1.5754,4.1587,0.8372,40.9125,15.9563,10.7812,,0.010746999999999396,3.4597718855439012,3.1636155011056903,non_fall
4.979421,0.8237,-0.6491,-3.297,-1.5754,4.1587,0.8372,40.9125,15.9563,10.7812,,0.02988100000000049,3.4597718855439012,3.3919312783543796,non_fall
4.980161,0.7433,-3.4486,-0.3092,-1.5754,4.1587,0.8372,40.9125,15.9563,10.7812,,0.0007399999999995188,3.5413191736978464,3.5607981526563415,non_fall
5.000529,0.7433,-3.4486,-0.3092,0.7218,4.6013,0.7434,40.9125,15.9563,10.7812,,0.020368000000000386,3.5413191736978464,3.6845608400213874,non_fall
5.008687,0.7433,-3.4486,-0.3092,0.7218,4.6013,0.7434,40.0312,13.8,13.5188,,0.008157999999999888,3.5413191736978464,3.7841736770012435,non_fall
5.042368,0.7433,-3.4486,-0.3092,0.7218,4.6013,0.7434,40.0312,13.8,13.5188,,0.03368099999999963,3.5413191736978464,3.8818517133282273,non_fall
5.04407,-2.4138,-1.8716,2.9047,0.7218,4.6013,0.7434,40.0312,13.8,13.5188,,0.0017019999999998703,4.215044375804364,3.996096658990536,non_fall
5.062437,-2.4138,-1.8716,2.9047,0.5766,3.9626,1.6,40.0312,13.8,13.5188,,0.018367000000000466,4.215044375804364,4.138085851758722,non_fall
5.066383,-2.4138,-1.8716,2.9047,0.5766,3.9626,1.6,38.0625,11.5312,17.2875,,0.003946000000000005,4.215044375804364,4.309865252445659,non_fall
5.103889,-2.4138,-1.8716,2.9047,0.5766,3.9626,1.6,38.0625,11.5312,17.2875,,0.037505999999999595,4.215044375804364,4.504372567372388,non_fall
5.123565,-2.4138,-1.8716,2.9047,0.2053,3.3692,1.0321,38.0625,11.5312,17.2875,,0.01967600000000047,4.215044375804364,4.707127159657688,non_fall
5.126336,-4.9185,-0.8592,-2.3418,0.2053,3.3692,1.0321,38.0625,11.5312,17.2875,,0.002771000000000079,5.514879339568545,4.899265727780627,non_fall
5.12775,-4.9185,-0.8592,-2.3418,0.2053,3.3692,1.0321,34.9875,9.2625,21.6188,,0.0014139999999995823,5.514879339568545,5.061252653143715,non_fall
5.164804,-4.9185,-0.8592,-2.3418,0.2053,3.3692,1.0321,34.9875,9.2625,21.6188,,0.037054000000000364,5.514879339568545,5.1761763456244845,non_fall
5.18348,-4.9185,-0.8592,-2.3418,-1.0791,2.9648,-0.1788,34.9875,9.2625,21.6188,,0.018676000000000137,5.514879339568545,5.2315090428320765,non_fall
5.185008,0.6776,1.2826,-4.4149,-1.0791,2.9648,-0.1788,34.9875,9.2625,21.6188,,0.0015279999999995297,4.647100873663063,5.218845843305291,non_fall
5.187938,0.6776,1.2826,-4.4149,-1.0791,2.9648,-0.1788,30.675,6.7875,26.6438,,0.002930000000000099,4.647100873663063,5.132197579994018,non_fall
5.223552,0.6776,1.2826,-4.4149,-1.0791,2.9648,-0.1788,30.675,6.7875,26.6438,,0.03561399999999981,4.647100873663063,4.9662632802292395,non_fall
5.244231,0.6776,1.2826,-4.4149,-0.5072,3.77,-1.8974,30.675,6.7875,26.6438,,0.020679000000000336,4.647100873663063,4.716221596267042,non_fall
5.245268,2.4619,1.3586,-2.9148,-0.5072,3.77,-1.8974,30.675,6.7875,26.6438,,0.0010370000000001767,4.050037605998246,4.379882251380728,non_fall
5.246452,2.4619,1.3586,-2.9148,-0.5072,3.77,-1.8974,24.9375,4.6688,30.9938,,0.0011839999999994077,4.050037605998246,3.9619008742895,non_fall
5.284232,2.4619,1.3586,-2.9148,-0.5072,3.77,-1.8974,24.9375,4.6688,30.9938,,0.03778000000000059,4.050037605998246,3.4786596888701795,non_fall
5.304181,2.4619,1.3586,-2.9148,-0.2591,3.8318,-2.0649,24.9375,4.6688,30.9938,,0.01994899999999955,4.050037605998246,2.9616663520582946,non_fall
5.30667,2.4619,1.3586,-2.9148,-0.2591,3.8318,-2.0649,17.55,2.8313,35.5875,,0.0024890000000006296,4.050037605998246,2.4571889720525553,non_fall
5.324458,0.5849,-0.4658,-0.2205,-0.2591,3.8318,-2.0649,17.55,2.8313,35.5875,,0.01778799999999947,0.7795498059777836,2.0206804862711496,non_fall
5.344457,0.5849,-0.4658,-0.2205,-0.2591,3.8318,-2.0649,17.55,2.8313,35.5875,,0.019999000000000322,0.7795498059777836,1.7064533402230335,non_fall
5.364914,0.5849,-0.4658,-0.2205,0.3756,4.9194,-2.2023,17.55,2.8313,35.5875,,0.020456999999999503,0.7795498059777836,1.555336746648141,non_fall
5.366158,0.5849,-0.4658,-0.2205,0.3756,4.9194,-2.2023,8.9438,1.4062,39.1688,,0.001244000000000689,0.7795498059777836,1.5843207885677686,non_fall
5.388004,-0.0347,-1.3349,-2.0237,0.3756,4.9194,-2.2023,8.9438,1.4062,39.1688,,0.021845999999999144,2.4245667221175826,1.7815734209889984,non_fall
5.407744,-0.0347,-1.3349,-2.0237,0.3756,4.9194,-2.2023,8.9438,1.4062,39.1688,,0.019740000000000535,2.4245667221175826,2.108139141659259,non_fall
5.428427,-0.0347,-1.3349,-2.0237,1.4559,5.3735,-3.1104,8.9438,1.4062,39.1688,,0.020683000000000007,2.4245667221175826,2.5053929248000397,non_fall
5.431003,-0.0347,-1.3349,-2.0237,1.4559,5.3735,-3.1104,-0.6562,-0.075,40.125,,0.0025759999999994676,2.4245667221175826,2.905992496595697,non_fall
5.44884,3.5846,-0.6479,-1.6633,1.4559,5.3735,-3.1104,-0.6562,-0.075,40.125,,0.017837000000000103,4.004459821249303,3.2458058341428333,non_fall
5.470053,3.5846,-0.6479,-1.6633,1.4559,5.3735,-3.1104,-0.6562,-0.075,40.125,,0.02121300000000037,4.004459821249303,3.4745424098958124,non_fall
5.490644,3.5846,-0.6479,-1.6633,1.7751,2.4891,-2.0542,-0.6562,-0.075,40.125,,0.020590999999999582,4.004459821249303,3.563138036194999,non_fall
5.492571,3.5846,-0.6479,-1.6633,1.7751,2.4891,-2.0542,-9.7875,-1.8,38.8313,,0.001927000000000234,4.004459821249303,3.5064782097610574,non_fall
5.508927,-0.5948,-2.2029,0.864,1.7751,2.4891,-2.0542,-9.7875,-1.8,38.8313,,0.016356000000000037,2.4398875896237517,3.321108234953139,non_fall
5.529012,-0.5948,-2.2029,0.864,1.7751,2.4891,-2.0542,-9.7875,-1.8,38.8313,,0.02008499999999991,2.4398875896237517,3.0390039181300224,non_fall
5.54817,-0.5948,-2.2029,0.864,1.7751,2.4891,-2.0542,-18.2063,-3.6375,36.0938,,0.01915800000000001,2.4398875896237517,2.6995966537763754,non_fall
5.550164,-0.5948,-2.2029,0.864,1.0566,1.5497,-1.9106,-18.2063,-3.6375,36.0938,,0.0019939999999998292,2.4398875896237517,2.342421925570544,non_fall
5.590922,-0.5948,-2.2029,0.864,1.0566,1.5497,-1.9106,-18.2063,-3.6375,36.0938,,0.040758000000000294,2.4398875896237517,2.0019346659950674,non_fall
5.59327,-1.3238,-0.2485,-0.4506,1.0566,1.5497,-1.9106,-18.2063,-3.6375,36.0938,,0.002348000000000461,1.4202954094131264,1.7048288680405315,non_fall
5.608204,-1.3238,-0.2485,-0.4506,1.0566,1.5497,-1.9106,-25.1813,-5.775,32.1562,,0.014933999999999337,1.4202954094131264,1.469365374137371,non_fall
5.609892,-1.3238,-0.2485,-0.4506,0.5116,2.2271,-1.6556,-25.1813,-5.775,32.1562,,0.001688000000000578,1.4202954094131264,1.3059942376471085,non_fall
5.652038,-1.3238,-0.2485,-0.4506,0.5116,2.2271,-1.6556,-25.1813,-5.775,32.1562,,0.042145999999999795,1.4202954094131264,1.2186608220527315,non_fall
5.654468,-0.7494,-0.5384,-0.8564,0.5116,2.2271,-1.6556,-25.1813,-5.775,32.1562,,0.002429999999999488,1.2589264791877244,1.2062846491711763,non_fall
5.667773,-0.7494,-0.5384,-0.8564,0.5116,2.2271,-1.6556,-31.3313,-8.5125,27.4125,,0.013305000000000788,1.2589264791877244,1.263986569519668,non_fall
5.670733,-0.7494,-0.5384,-0.8564,0.7613,1.5107,-1.0659,-31.3313,-8.5125,27.4125,,0.0029599999999998516,1.2589264791877244,1.38383849546596,non_fall
5.713295,-0.7494,-0.5384,-0.8564,0.7613,1.5107,-1.0659,-31.3313,-8.5125,27.4125,,0.04256199999999932,1.2589264791877244,1.5551870605275315,non_fall
5.716212,-1.9376,-0.9844,0.2796,0.7613,1.5107,-1.0659,-31.3313,-8.5125,27.4125,,0.0029170000000000584,2.1912355601349662,1.7647760159613455,non_fall
5.72761,-1.9376,-0.9844,0.2796,0.7613,1.5107,-1.0659,-36.0,-10.8938,22.1625,,0.011398000000000685,2.1912355601349662,1.9968541806834552,non_fall
5.733647,-1.9376,-0.9844,0.2796,0.3803,1.9068,-0.4866,-36.0,-10.8938,22.1625,,0.00603700000000007,2.1912355601349662,2.233323742746136,non_fall
5.771706,-1.9376,-0.9844,0.2796,0.3803,1.9068,-0.4866,-36.0,-10.8938,22.1625,,0.03805899999999962,2.1912355601349662,2.4540054033728778,non_fall
5.788126,-1.9376,-0.9844,0.2796,0.3803,1.9068,-0.4866,-39.2812,-13.1813,16.7063,,0.0164200000000001,2.1912355601349662,2.6373463014582565,non_fall
5.791314,-1.9376,-0.9844,0.2796,0.6803,1.1589,-0.2281,-39.2812,-13.1813,16.7063,,0.0031879999999997466,2.1912355601349662,2.7621078014974327,non_fall
5.792352,-2.2678,-0.4514,-2.2983,0.6803,1.1589,-0.2281,-39.2812,-13.1813,16.7063,,0.0010380000000003164,3.2601935049932234,2.810364919106833,non_fall
5.834121,-2.2678,-0.4514,-2.2983,0.6803,1.1589,-0.2281,-39.2812,-13.1813,16.7063,,0.0417689999999995,3.2601935049932234,2.7714263369281262,non_fall
5.847188,-2.2678,-0.4514,-2.2983,0.6803,1.1589,-0.2281,-41.2313,-15.3563,11.7563,,0.013067000000000384,3.2601935049932234,2.6454003431063104,non_fall
5.85271,-2.2678,-0.4514,-2.2983,0.988,0.8277,0.0462,-41.2313,-15.3563,11.7563,,0.005522000000000027,3.2601935049932234,2.4447220428533423,non_fall
5.853792,-1.2064,-0.2482,0.5548,0.988,0.8277,0.0462,-41.2313,-15.3563,11.7563,,0.0010820000000002494,1.3508542630498672,2.192474963560508,non_fall
5.894117,-1.2064,-0.2482,0.5548,0.988,0.8277,0.0462,-41.2313,-15.3563,11.7563,,0.04032499999999928,1.3508542630498672,1.9176592277991078,non_fall
5.907936,-1.2064,-0.2482,0.5548,0.988,0.8277,0.0462,-41.8313,-17.1375,7.8938,,0.013819000000000692,1.3508542630498672,1.6489615884526125,non_fall
5.914099,-1.2064,-0.2482,0.5548,0.2077,1.0116,-0.445,-41.8313,-17.1375,7.8938,,0.0061629999999999185,1.3508542630498672,1.4092127641887888,non_fall
5.914891,-0.5179,-0.2318,-0.9816,0.2077,1.0116,-0.445,-41.8313,-17.1375,7.8938,,0.0007919999999996818,1.1337946066197353,1.2122416477852083,non_fall
5.955647,-0.5179,-0.2318,-0.9816,0.2077,1.0116,-0.445,-41.8313,-17.1375,7.8938,,0.040756000000000014,1.1337946066197353,1.0626951155060536,non_fall
5.968928,-0.5179,-0.2318,-0.9816,0.2077,1.0116,-0.445,-42.0188,-18.6562,4.725,,0.013281000000000098,1.1337946066197353,0.9583057570170354,non_fall
5.975501,-0.5179,-0.2318,-0.9816,0.2742,0.3087,-0.1079,-42.0188,-18.6562,4.725,,0.006573000000000384,1.1337946066197353,0.8934516737225933,non_fall
5.976676,0.0367,-0.0549,-0.9933,0.2742,0.3087,-0.1079,-42.0188,-18.6562,4.725,,0.001174999999999926,0.995492737291438,0.8626826346487804,non_fall
6.016477,0.0367,-0.0549,-0.9933,0.2742,0.3087,-0.1079,-42.0188,-18.6562,4.725,,0.03980099999999975,0.995492737291438,0.8630894154102042,non_fall
6.027188,0.0367,-0.0549,-0.9933,0.2742,0.3087,-0.1079,-41.8125,-19.8375,1.95,,0.010710999999999693,0.995492737291438,0.8948592275740693,non_fall
6.036691,0.0367,-0.0549,-0.9933,0.0573,0.0925,0.036,-41.8125,-19.8375,1.95,,0.009503000000000483,0.995492737291438,0.9599484770558744,non_fall
6.057082,-0.6348,-0.6816,-0.1093,0.0573,0.0925,0.036,-41.8125,-19.8375,1.95,,0.020391000000000048,0.9378145285716147,1.0593719995751982,non_fall
6.076393,-0.6348,-0.6816,-0.1093,0.0573,0.0925,0.036,-41.8125,-19.8375,1.95,,0.019311000000000078,0.9378145285716147,1.19005447389545,non_fall
6.088292,-0.6348,-0.6816,-0.1093,0.0573,0.0925,0.036,-41.8875,-20.6438,-0.3375,,0.01189899999999966,0.9378145285716147,1.34243187452564,non_fall
6.096521,-0.6348,-0.6816,-0.1093,-0.5364,-0.2019,0.4617,-41.8875,-20.6438,-0.3375,,0.008229000000000042,0.9378145285716147,1.4999240214845047,non_fall
6.116999,-1.279,-0.3673,-1.5524,-0.5364,-0.2019,0.4617,-41.8875,-20.6438,-0.3375,,0.020477999999999774,2.0446750475320035,1.640927096344902,non_fall
6.141408,-1.279,-0.3673,-1.5524,-0.5364,-0.2019,0.4617,-41.8875,-20.6438,-0.3375,,0.024409000000000347,2.0446750475320035,1.7431295399813604,non_fall
6.146744,-1.279,-0.3673,-1.5524,-0.5364,-0.2019,0.4617,-41.85,-20.6438,-2.1188,,0.005335999999999785,2.0446750475320035,1.7890271743201702,non_fall
6.157977,-1.279,-0.3673,-1.5524,-0.3463,-0.2245,0.3384,-41.85,-20.6438,-2.1188,,0.011232999999999826,2.0446750475320035,1.7709737805677819,non_fall
6.178212,-1.1416,0.3203,-1.0252,-0.3463,-0.2245,0.3384,-41.85,-20.6438,-2.1188,,0.020235000000000447,1.567443042027365,1.694242164970419,non_fall
6.199124,-1.1416,0.3203,-1.0252,-0.3463,-0.2245,0.3384,-41.85,-20.6438,-2.1188,,0.02091200000000004,1.567443042027365,1.5772401481640406,non_fall
6.210117,-1.1416,0.3203,-1.0252,-0.3463,-0.2245,0.3384,-41.8313,-20.4938,-3.45,,0.01099300000000003,1.567443042027365,1.4488066317465857,non_fall
6.223004,-1.1416,0.3203,-1.0252,-0.8948,0.068,0.3298,-41.8313,-20.4938,-3.45,,0.012887000000000093,1.567443042027365,1.3430782985988263,non_fall
6.25983,-1.1416,0.3203,-1.0252,-0.8948,0.068,0.3298,-41.8313,-20.4938,-3.45,,0.03682599999999958,1.567443042027365,1.2927307832253636,non_fall
6.261436,-0.8664,0.2171,-0.2886,-0.8948,0.068,0.3298,-41.8313,-20.4938,-3.45,,0.0016059999999997743,0.9386539990859252,1.3216480305992755,non_fall
6.268429,-0.8664,0.2171,-0.2886,-0.8948,0.068,0.3298,-41.775,-20.2875,-4.3875,,0.006993000000000471,0.9386539990859252,1.4384174068612068,non_fall
6.279607,-0.8664,0.2171,-0.2886,-2.0426,-0.2955,0.1165,-41.775,-20.2875,-4.3875,,0.011178000000000132,0.9386539990859252,1.6323619058155336,non_fall
6.32125,-0.8664,0.2171,-0.2886,-2.0426,-0.2955,0.1165,-41.775,-20.2875,-4.3875,,0.04164299999999965,0.9386539990859252,1.8737174677958328,non_fall
6.325182,-0.4848,0.379,-2.9008,-2.0426,-0.2955,0.1165,-41.775,-20.2875,-4.3875,,0.0039319999999998245,2.9653520330645393,2.1187054355004804,non_fall
6.330427,-0.4848,0.379,-2.9008,-2.0426,-0.2955,0.1165,-41.9438,-19.7625,-5.2125,,0.005245000000000388,2.9653520330645393,2.3187118590474416,non_fall
6.339317,-0.4848,0.379,-2.9008,-0.9233,0.1894,0.5766,-41.9438,-19.7625,-5.2125,,0.008890000000000065,2.9653520330645393,2.4311975132406567,non_fall
6.381644,-0.4848,0.379,-2.9008,-0.9233,0.1894,0.5766,-41.9438,-19.7625,-5.2125,,0.04232699999999934,2.9653520330645393,2.429214845499016,non_fall
6.383706,-1.2194,0.9474,1.0732,-0.9233,0.1894,0.5766,-41.9438,-19.7625,-5.2125,,0.0020620000000004524,1.8804949773929205,2.306969685513543,non_fall
6.388185,-1.2194,0.9474,1.0732,-0.9233,0.1894,0.5766,-42.3,-18.8813,-5.8875,,0.0044789999999999,1.8804949773929205,2.080364434665566,non_fall
6.401562,-1.2194,0.9474,1.0732,-0.5981,-0.385,0.8041,-42.3,-18.8813,-5.8875,,0.013377000000000194,1.8804949773929205,1.7830166235206384,non_fall
6.442806,-1.2194,0.9474,1.0732,-0.5981,-0.385,0.8041,-42.3,-18.8813,-5.8875,,0.041243999999999836,1.8804949773929205,1.4591763029422267,non_fall
6.44485,-0.1648,0.3745,-0.4331,-0.5981,-0.385,0.8041,-42.3,-18.8813,-5.8875,,0.0020439999999997127,0.5958060926173884,1.155193964355398,non_fall
6.447342,-0.1648,0.3745,-0.4331,-0.5981,-0.385,0.8041,-42.675,-17.7188,-6.2438,,0.0024920000000001608,0.5958060926173884,0.9111100179231267,non_fall
6.463038,-0.1648,0.3745,-0.4331,0.0328,-0.0704,0.1254,-42.675,-17.7188,-6.2438,,0.015696000000000154,0.5958060926173884,0.7538449914666355,non_fall
6.503445,-0.1648,0.3745,-0.4331,0.0328,-0.0704,0.1254,-42.675,-17.7188,-6.2438,,0.04040700000000008,0.5958060926173884,0.6932481221510429,non_fall
6.506961,-0.1648,0.3745,-0.4331,0.0328,-0.0704,0.1254,-43.2563,-16.4438,-6.7313,,0.0035160000000002967,0.5958060926173884,0.721704534984304,non_fall
6.522692,-0.1648,0.3745,-0.4331,0.2386,-0.0254,0.1346,-43.2563,-16.4438,-6.7313,,0.015730999999999717,0.5958060926173884,0.8172083360889867,non_fall
6.523892,1.248,0.4784,0.5155,0.2386,-0.0254,0.1346,-43.2563,-16.4438,-6.7313,,0.0011999999999998678,1.4325190435034363,0.9490550138518797,non_fall
6.564428,1.248,0.4784,0.5155,0.2386,-0.0254,0.1346,-43.2563,-16.4438,-6.7313,,0.04053600000000035,1.4325190435034363,1.0847528836102642,non_fall
6.569074,1.248,0.4784,0.5155,0.2386,-0.0254,0.1346,-43.7063,-15.1313,-7.0313,,0.004645999999999262,1.4325190435034363,1.1964937730405498,non_fall
6.584029,1.248,0.4784,0.5155,0.223,0.1627,-0.1554,-43.7063,-15.1313,-7.0313,,0.014955000000000496,1.4325190435034363,1.2657000505689755,non_fall
6.585188,-0.0074,1.077,0.1371,0.223,0.1627,-0.1554,-43.7063,-15.1313,-7.0313,,0.001158999999999466,1.0857164316708117,1.2848161616264484,non_fall
6.624966,-0.0074,1.077,0.1371,0.223,0.1627,-0.1554,-43.7063,-15.1313,-7.0313,,0.03977800000000009,1.0857164316708117,1.2564001414166817,non_fall
6.626698,-0.0074,1.077,0.1371,0.223,0.1627,-0.1554,-43.8188,-14.4375,-7.2938,,0.001732000000000511,1.0857164316708117,1.190306085465971,non_fall
6.644703,-0.0074,1.077,0.1371,0.0481,0.1759,-0.1565,-43.8188,-14.4375,-7.2938,,0.018004999999999605,1.0857164316708117,1.100065231479238,non_fall
6.646131,-0.1326,0.7806,0.3487,0.0481,0.1759,-0.1565,-43.8188,-14.4375,-7.2938,,0.0014279999999997628,0.8651651923187849,0.9994634700966332,non_fall
6.684534,-0.1326,0.7806,0.3487,0.0481,0.1759,-0.1565,-43.8188,-14.4375,-7.2938,,0.03840300000000063,0.8651651923187849,0.8999660893049455,non_fall
6.687589,-0.1326,0.7806,0.3487,0.0481,0.1759,-0.1565,-44.1375,-13.5938,-7.7063,,0.003054999999999808,0.8651651923187849,0.8092624401967261,non_fall
6.704827,-0.1326,0.7806,0.3487,0.2365,-0.0023,-0.3059,-44.1375,-13.5938,-7.7063,,0.017237999999999865,0.8651651923187849,0.730894177183725,non_fall
6.725373,-0.3975,0.4038,-0.0972,0.2365,-0.0023,-0.3059,-44.1375,-13.5938,-7.7063,,0.020546000000000397,0.5748987128181798,0.6647230835417337,non_fall
6.746497,-0.3975,0.4038,-0.0972,0.2365,-0.0023,-0.3059,-44.1375,-13.5938,-7.7063,,0.021123999999999477,0.5748987128181798,0.6079174944082437,non_fall
6.747959,-0.3975,0.4038,-0.0972,0.2365,-0.0023,-0.3059,-44.2688,-12.9563,-8.0625,,0.0014620000000000744,0.5748987128181798,0.5561767373393666,non_fall
