time,ax,ay,az,wx,wy,wz,Bx,By,Bz,Unnamed: 10,time_diff,acc_mag,acc_mag_filtered,label
0.087478,0.0,0.0,0.0,-0.0013,0.0324,0.0326,0.0,0.0,0.0,,0.0,0.0,0.00023079594879602412,non_fall
0.133437,0.0,0.0,0.0,-0.0013,0.0324,0.0326,26.625,18.2625,-4.6875,,0.045959,0.0,0.000770329764617724,non_fall
0.16282,0.0,0.0,0.0,0.0008,0.004,0.0024,26.625,18.2625,-4.6875,,0.029382999999999992,0.0,0.001006242425282249,non_fall
0.193062,0.0,0.0,0.0,0.0008,0.004,0.0024,35.1188,14.6063,2.0063,,0.03024200000000002,0.0,0.0007620176703605752,non_fall
0.223765,0.0,0.0,0.0,-0.0027,0.0125,-0.0029,35.1188,14.6063,2.0063,,0.03070299999999998,0.0,-2.6234819404269083e-05,non_fall
0.244383,0.0,0.0,0.0,-0.0027,0.0125,-0.0029,35.1188,14.6063,2.0063,,0.020617999999999997,0.0,-0.001271053517461256,non_fall
0.253703,0.0,0.0,0.0,-0.0027,0.0125,-0.0029,38.9062,13.1063,3.8438,,0.009320000000000023,0.0,-0.0027143487063304604,non_fall
0.285776,0.0,0.0,0.0,0.0087,0.0569,0.0003,38.9062,13.1063,3.8438,,0.03207299999999996,0.0,-0.003937377893751419,non_fall
0.304534,0.0,0.0,0.0,0.0087,0.0569,0.0003,38.9062,13.1063,3.8438,,0.018758000000000052,0.0,-0.004408122203881107,non_fall
0.312771,0.0,0.0,0.0,0.0087,0.0569,0.0003,40.65,12.2813,4.8188,,0.008236999999999994,0.0,-0.003568665755436598,non_fall
0.345744,0.0,0.0,0.0,0.0161,-0.0503,-0.0019,40.65,12.2813,4.8188,,0.032972999999999975,0.0,-0.0009555362358744847,non_fall
0.346847,0.0,0.0,0.0,0.0161,-0.0503,-0.0019,40.65,12.2813,4.8188,,0.0011030000000000206,0.0,0.0036665213946242715,non_fall
0.366196,0.0,0.0,0.0,0.0161,-0.0503,-0.0019,40.65,12.2813,4.8188,,0.019349000000000005,0.0,0.01018918239656169,non_fall
0.373942,0.0,0.0,0.0,0.0161,-0.0503,-0.0019,41.775,11.9438,5.4375,,0.007745999999999975,0.0,0.018102820770068112,non_fall
0.406312,0.0,0.0,0.0,0.0019,0.0214,-0.0019,41.775,11.9438,5.4375,,0.03237000000000001,0.0,0.026532011302818518,non_fall
0.407261,-0.0537,0.019,-0.0096,0.0019,0.0214,-0.0019,41.775,11.9438,5.4375,,0.0009489999999999776,0.05776547411733067,0.034379415911037,non_fall
0.427176,-0.0537,0.019,-0.0096,0.0019,0.0214,-0.0019,41.775,11.9438,5.4375,,0.019915000000000016,0.05776547411733067,0.04055620177072767,non_fall
0.434506,-0.0537,0.019,-0.0096,0.0019,0.0214,-0.0019,42.7313,11.8125,5.8875,,0.007330000000000003,0.05776547411733067,0.04423708899496606,non_fall
0.466726,-0.0537,0.019,-0.0096,-0.0041,0.0111,-0.0019,42.7313,11.8125,5.8875,,0.03221999999999997,0.05776547411733067,0.04505859581425872,non_fall
0.487389,-0.0537,0.019,-0.0096,-0.0041,0.0111,-0.0019,42.7313,11.8125,5.8875,,0.020663000000000042,0.05776547411733067,0.04319467466198611,non_fall
0.489059,0.0022,0.0176,0.0077,-0.0041,0.0111,-0.0019,42.7313,11.8125,5.8875,,0.0016700000000000048,0.01933623541437164,0.03928731852028481,non_fall
0.492804,0.0022,0.0176,0.0077,-0.0041,0.0111,-0.0019,43.3125,11.7375,6.0,,0.0037449999999999983,0.01933623541437164,0.03426006940981922,non_fall
0.528417,0.0022,0.0176,0.0077,0.0023,0.0015,-0.0033,43.3125,11.7375,6.0,,0.035613000000000006,0.01933623541437164,0.02907947357769704,non_fall
0.549179,0.0022,0.0176,0.0077,0.0023,0.0015,-0.0033,43.3125,11.7375,6.0,,0.020761999999999947,0.01933623541437164,0.024539553628253663,non_fall
0.550709,0.0183,-0.0001,0.0129,0.0023,0.0015,-0.0033,43.3125,11.7375,6.0,,0.0015300000000000313,0.022389953104015203,0.021125205999470903,non_fall
0.552988,0.0183,-0.0001,0.0129,0.0023,0.0015,-0.0033,43.8563,11.5875,6.3,,0.002279000000000031,0.022389953104015203,0.01897487211437849,non_fall
0.590651,0.0183,-0.0001,0.0129,0.0023,-0.0056,-0.0029,43.8563,11.5875,6.3,,0.037663,0.022389953104015203,0.017929500878297377,non_fall
0.609455,0.0183,-0.0001,0.0129,0.0023,-0.0056,-0.0029,43.8563,11.5875,6.3,,0.018803999999999932,0.022389953104015203,0.017635388439181523,non_fall
0.610499,0.0046,0.0051,0.0164,0.0023,-0.0056,-0.0029,43.8563,11.5875,6.3,,0.001044000000000045,0.017780044994318775,0.017664479001849715,non_fall
0.612318,0.0046,0.0051,0.0164,0.0023,-0.0056,-0.0029,46.5188,10.5375,7.8188,,0.001819000000000015,0.017780044994318775,0.017622699774186464,non_fall
0.650858,0.0046,0.0051,0.0164,-0.0037,0.0004,-0.0029,46.5188,10.5375,7.8188,,0.03854000000000002,0.017780044994318775,0.017228551392235638,non_fall
0.670162,0.0046,0.0051,0.0164,-0.0037,0.0004,-0.0029,46.5188,10.5375,7.8188,,0.019303999999999988,0.017780044994318775,0.01635491830130596,non_fall
0.67393,0.0046,0.0051,0.0164,-0.0037,0.0004,-0.0029,46.7063,10.5938,7.8563,,0.0037679999999999936,0.017780044994318775,0.015034220322398699,non_fall
0.690253,0.0013,0.0089,0.006,-0.0037,0.0004,-0.0029,46.7063,10.5938,7.8563,,0.016322999999999976,0.010812030336620407,0.013431322417516312,non_fall
0.710812,0.0013,0.0089,0.006,-0.002,-0.0017,-0.0029,46.7063,10.5938,7.8563,,0.020558999999999994,0.010812030336620407,0.011792118110757439,non_fall
0.730911,0.0013,0.0089,0.006,-0.002,-0.0017,-0.0029,46.7063,10.5938,7.8563,,0.020098999999999978,0.010812030336620407,0.010378983120346129,non_fall
0.731474,0.0013,0.0089,0.006,-0.002,-0.0017,-0.0029,46.6125,10.725,7.7625,,0.0005629999999999802,0.010812030336620407,0.009406131343320617,non_fall
0.752259,0.0035,-0.0032,-0.0001,-0.002,-0.0017,-0.0029,46.6125,10.725,7.7625,,0.020785000000000053,0.00474341649025257,0.008987585000865411,non_fall
0.772529,0.0035,-0.0032,-0.0001,0.0093,-0.0105,-0.0019,46.6125,10.725,7.7625,,0.02027000000000001,0.00474341649025257,0.009108917990594797,non_fall
0.79233,0.0035,-0.0032,-0.0001,0.0093,-0.0105,-0.0019,46.6125,10.725,7.7625,,0.019800999999999958,0.00474341649025257,0.009631560785224402,non_fall
0.793608,0.0035,-0.0032,-0.0001,0.0093,-0.0105,-0.0019,46.725,10.8375,7.7625,,0.0012780000000000014,0.00474341649025257,0.010333426552084923,non_fall
0.813657,-0.002,-0.0091,0.018,0.0093,-0.0105,-0.0019,46.725,10.8375,7.7625,,0.020048999999999984,0.020268448386593384,0.010979894193686456,non_fall
0.834531,-0.002,-0.0091,0.018,0.0133,-0.0035,-0.0008,46.725,10.8375,7.7625,,0.02087400000000006,0.020268448386593384,0.01140615920666379,non_fall
0.854142,-0.002,-0.0091,0.018,0.0133,-0.0035,-0.0008,46.7812,10.8938,7.725,,0.019610999999999934,0.020268448386593384,0.011581721865104177,non_fall
0.854905,-0.002,-0.0091,0.018,0.0133,-0.0035,-0.0008,46.7812,10.8938,7.725,,0.0007630000000000692,0.020268448386593384,0.011628190847596255,non_fall
0.873759,0.0027,-0.0028,0.0018,0.0133,-0.0035,-0.0008,46.7812,10.8938,7.725,,0.018853999999999926,0.004286023798347368,0.011776351739881284,non_fall
0.893537,0.0027,-0.0028,0.0018,0.0093,-0.0013,-0.0004,46.7812,10.8938,7.725,,0.019778000000000073,0.004286023798347368,0.01227302600666708,non_fall
0.914196,0.0027,-0.0028,0.0018,0.0093,-0.0013,-0.0004,46.7812,10.8938,7.725,,0.020658999999999983,0.004286023798347368,0.01327151849382797,non_fall
0.914986,0.0027,-0.0028,0.0018,0.0093,-0.0013,-0.0004,46.4813,10.8938,7.5375,,0.0007899999999999574,0.004286023798347368,0.014749931218600252,non_fall
0.956199,0.0027,-0.0028,0.0018,0.0097,-0.0013,-0.0008,46.4813,10.8938,7.5375,,0.041213000000000055,0.004286023798347368,0.01649376424081894,non_fall
0.959432,0.0093,0.0085,-0.029,0.0097,-0.0013,-0.0008,46.4813,10.8938,7.5375,,0.0032329999999999304,0.03161866537347837,0.018155605524554336,non_fall
0.978286,0.0093,0.0085,-0.029,0.0097,-0.0013,-0.0008,46.4813,10.8938,7.5375,,0.018854000000000037,0.03161866537347837,0.019373764769968948,non_fall
0.978993,0.0093,0.0085,-0.029,0.0097,-0.0013,-0.0008,46.2938,10.8,7.65,,0.0007070000000000132,0.03161866537347837,0.01990549409502347,non_fall
1.016106,0.0093,0.0085,-0.029,0.0268,-0.0071,0.0009,46.2938,10.8,7.65,,0.03711299999999995,0.03161866537347837,0.019721825136738303,non_fall
1.01748,0.0057,-0.002,0.0084,0.0268,-0.0071,0.0009,46.2938,10.8,7.65,,0.0013739999999999863,0.010346496991735898,0.019026189230732595,non_fall
1.035156,0.0057,-0.002,0.0084,0.0268,-0.0071,0.0009,46.0875,10.8563,7.4813,,0.017676000000000025,0.010346496991735898,0.01819104416812779,non_fall
1.036461,0.0057,-0.002,0.0084,0.0268,-0.0071,0.0009,46.0875,10.8563,7.4813,,0.0013050000000001116,0.010346496991735898,0.01763939100085983,non_fall
1.07732,0.0057,-0.002,0.0084,0.0144,0.0019,-0.0004,46.0875,10.8563,7.4813,,0.04085899999999998,0.010346496991735898,0.0177158041174184,non_fall
1.078939,-0.0077,-0.0084,0.0195,0.0144,0.0019,-0.0004,46.0875,10.8563,7.4813,,0.001619000000000037,0.022585393509965683,0.018588521304249716,non_fall
1.093731,-0.0077,-0.0084,0.0195,0.0144,0.0019,-0.0004,46.1625,10.875,7.5,,0.014791999999999916,0.022585393509965683,0.020206080548705766,non_fall
1.097423,-0.0077,-0.0084,0.0195,0.0144,0.0019,-0.0004,46.1625,10.875,7.5,,0.0036920000000000286,0.022585393509965683,0.02231100008130798,non_fall
1.138339,-0.0077,-0.0084,0.0195,0.0069,-0.0024,-0.0015,46.1625,10.875,7.5,,0.04091599999999995,0.022585393509965683,0.02449901824932014,non_fall
1.155169,-0.0077,-0.0084,0.0195,0.0069,-0.0024,-0.0015,46.05,10.7625,7.3125,,0.0168299999999999,0.022585393509965683,0.026308009685182224,non_fall
1.156401,-0.0077,-0.0084,0.0195,0.0069,-0.0024,-0.0015,46.05,10.7625,7.3125,,0.0012320000000001219,0.022585393509965683,0.02732138678675481,non_fall
1.157138,0.0122,0.0091,-0.0319,0.0069,-0.0024,-0.0015,46.05,10.7625,7.3125,,0.0007369999999999877,0.03534487232966049,0.027270133992551186,non_fall
1.19869,0.0122,0.0091,-0.0319,0.0119,-0.0049,-0.004,46.05,10.7625,7.3125,,0.04155200000000003,0.03534487232966049,0.02611309999250852,non_fall
1.213667,0.0122,0.0091,-0.0319,0.0119,-0.0049,-0.004,46.1625,10.725,7.4625,,0.014977000000000018,0.03534487232966049,0.024070705620415855,non_fall
1.218682,0.0122,0.0091,-0.0319,0.0119,-0.0049,-0.004,46.1625,10.725,7.4625,,0.005014999999999992,0.03534487232966049,0.021590688694489466,non_fall
1.220398,-0.0014,0.0022,-0.0018,0.0119,-0.0049,-0.004,46.1625,10.725,7.4625,,0.0017160000000000508,0.003168595903550972,0.019241505654135373,non_fall
1.258849,-0.0014,0.0022,-0.0018,0.0012,-0.0035,-0.0061,46.1625,10.725,7.4625,,0.03845100000000001,0.003168595903550972,0.01755675746548905,non_fall
1.273549,-0.0014,0.0022,-0.0018,0.0012,-0.0035,-0.0061,46.2,10.8,7.4625,,0.014699999999999935,0.003168595903550972,0.016879827229019703,non_fall
1.279527,-0.0014,0.0022,-0.0018,0.0012,-0.0035,-0.0061,46.2,10.8,7.4625,,0.005978000000000039,0.003168595903550972,0.017265373566936505,non_fall
1.280324,-0.0226,0.0034,0.021,0.0012,-0.0035,-0.0061,46.2,10.8,7.4625,,0.0007969999999999366,0.031037396798056373,0.018475179862360153,non_fall
1.320732,-0.0226,0.0034,0.021,-0.0013,0.0033,-0.0057,46.2,10.8,7.4625,,0.040408,0.031037396798056373,0.020067885653404845,non_fall
1.3327,-0.0226,0.0034,0.021,-0.0013,0.0033,-0.0057,45.9938,10.7438,7.4625,,0.011967999999999979,0.031037396798056373,0.021544752884581318,non_fall
1.340484,-0.0226,0.0034,0.021,-0.0013,0.0033,-0.0057,45.9938,10.7438,7.4625,,0.007784000000000013,0.031037396798056373,0.022495549321695483,non_fall
1.341593,-0.0008,0.0029,-0.0184,-0.0013,0.0033,-0.0057,45.9938,10.7438,7.4625,,0.0011090000000000266,0.018644302078651268,0.02269660159225016,non_fall
1.38185,-0.0008,0.0029,-0.0184,0.0023,0.0044,-0.0057,45.9938,10.7438,7.4625,,0.04025699999999999,0.018644302078651268,0.02213897285266447,non_fall
1.394018,-0.0008,0.0029,-0.0184,0.0023,0.0044,-0.0057,46.2,10.6875,7.5,,0.012167999999999957,0.018644302078651268,0.02099294359309771,non_fall
1.402524,-0.0008,0.0029,-0.0184,0.0023,0.0044,-0.0057,46.2,10.6875,7.5,,0.008506000000000125,0.018644302078651268,0.01953306627924434,non_fall
1.421689,0.0099,-0.0077,-0.0072,0.0023,0.0044,-0.0057,46.2,10.6875,7.5,,0.019164999999999877,0.014461673485458038,0.018052495145712714,non_fall
1.442469,0.0099,-0.0077,-0.0072,-0.0048,0.0019,-0.0061,46.2,10.6875,7.5,,0.02078000000000002,0.014461673485458038,0.016790181700844432,non_fall
1.454277,0.0099,-0.0077,-0.0072,-0.0048,0.0019,-0.0061,46.275,10.6125,7.5375,,0.01180800000000004,0.014461673485458038,0.0158858364497443,non_fall
1.462839,0.0099,-0.0077,-0.0072,-0.0048,0.0019,-0.0061,46.275,10.6125,7.5375,,0.008561999999999959,0.014461673485458038,0.0153684384029031,non_fall
1.48295,-0.0138,0.0075,0.009,-0.0048,0.0019,-0.0061,46.275,10.6125,7.5375,,0.02011099999999999,0.018102209809854705,0.01517527043420583,non_fall
1.502195,-0.0138,0.0075,0.009,-0.0052,-0.0035,-0.0044,46.275,10.6125,7.5375,,0.019244999999999957,0.018102209809854705,0.015190935794489824,non_fall
1.512255,-0.0138,0.0075,0.009,-0.0052,-0.0035,-0.0044,46.35,10.7625,7.4625,,0.010059999999999958,0.018102209809854705,0.015291469767435775,non_fall
1.522559,-0.0138,0.0075,0.009,-0.0052,-0.0035,-0.0044,46.35,10.7625,7.4625,,0.01030400000000009,0.018102209809854705,0.015379160772972798,non_fall
1.54444,0.0018,-0.0005,0.0129,-0.0052,-0.0035,-0.0044,46.35,10.7625,7.4625,,0.02188100000000004,0.013034569421350289,0.01539911645149868,non_fall
1.564926,0.0018,-0.0005,0.0129,-0.0063,0.0023,-0.0033,46.35,10.7625,7.4625,,0.020486000000000004,0.013034569421350289,0.01533691509783808,non_fall
1.572429,0.0018,-0.0005,0.0129,-0.0063,0.0023,-0.0033,46.2,10.95,7.1813,,0.007503000000000037,0.013034569421350289,0.015204338929095168,non_fall
1.583022,0.0018,-0.0005,0.0129,-0.0063,0.0023,-0.0033,46.2,10.95,7.1813,,0.010592999999999853,0.013034569421350289,0.015023805492155703,non_fall
1.623858,0.0018,-0.0005,0.0129,-0.0056,-0.0007,-0.0033,46.2,10.95,7.1813,,0.040836000000000094,0.013034569421350289,0.014820340624082157,non_fall
1.624532,0.0142,-0.0001,-0.0106,-0.0056,-0.0007,-0.0033,46.2,10.95,7.1813,,0.0006740000000000634,0.017720327310746832,0.014624098100578404,non_fall
1.631369,0.0142,-0.0001,-0.0106,-0.0056,-0.0007,-0.0033,46.2375,11.1562,7.0313,,0.006836999999999982,0.017720327310746832,0.014479434120174505,non_fall
1.649421,0.0142,-0.0001,-0.0106,-0.0056,-0.0007,-0.0033,46.2375,11.1562,7.0313,,0.018051999999999957,0.017720327310746832,0.014451547798960445,non_fall
1.685756,0.0142,-0.0001,-0.0106,-0.0069,-0.0028,-0.0025,46.2375,11.1562,7.0313,,0.036335000000000006,0.017720327310746832,0.01462132191997822,non_fall
1.686768,0.0099,0.0066,0.0008,-0.0069,-0.0028,-0.0025,46.2375,11.1562,7.0313,,0.0010120000000000129,0.011925183436744275,0.015064156598179198,non_fall
1.694858,0.0099,0.0066,0.0008,-0.0069,-0.0028,-0.0025,46.2375,11.3438,6.975,,0.00808999999999993,0.011925183436744275,0.01581738413195507,non_fall
1.705562,0.0099,0.0066,0.0008,-0.0069,-0.0028,-0.0025,46.2375,11.3438,6.975,,0.010704000000000047,0.011925183436744275,0.01684899390668066,non_fall
1.746496,0.0099,0.0066,0.0008,-0.0091,-0.002,-0.0025,46.2375,11.3438,6.975,,0.040934000000000026,0.011925183436744275,0.018043212084675072,non_fall
1.747125,-0.0084,0.0017,0.0229,-0.0091,-0.002,-0.0025,46.2375,11.3438,6.975,,0.0006289999999999907,0.02445117584084659,0.019213489282991415,non_fall
1.753013,-0.0084,0.0017,0.0229,-0.0091,-0.002,-0.0025,46.1813,11.3438,6.9,,0.005887999999999893,0.02445117584084659,0.02014219905710558,non_fall
1.767589,-0.0084,0.0017,0.0229,-0.0091,-0.002,-0.0025,46.1813,11.3438,6.9,,0.014576000000000144,0.02445117584084659,0.02063437469598787,non_fall
1.807345,-0.0084,0.0017,0.0229,-0.0069,0.0047,-0.0008,46.1813,11.3438,6.9,,0.0397559999999999,0.02445117584084659,0.020566877195172445,non_fall
1.808395,0.002,0.0064,-0.0141,-0.0069,0.0047,-0.0008,46.1813,11.3438,6.9,,0.0010499999999999954,0.015613135495473034,0.01991786919310439,non_fall
1.812732,0.002,0.0064,-0.0141,-0.0069,0.0047,-0.0008,46.2,11.4375,6.75,,0.004337000000000035,0.015613135495473034,0.01877168165850756,non_fall
1.827487,0.002,0.0064,-0.0141,-0.0069,0.0047,-0.0008,46.2,11.4375,6.75,,0.014755000000000074,0.015613135495473034,0.01730446480979584,non_fall
1.869741,0.002,0.0064,-0.0141,0.0182,-0.0127,0.002,46.2,11.4375,6.75,,0.042254000000000014,0.015613135495473034,0.015760602916061787,non_fall
1.873755,0.002,0.0064,-0.0141,0.0182,-0.0127,0.002,46.05,11.5312,6.5813,,0.004013999999999962,0.015613135495473034,0.014427394132597086,non_fall
1.888602,0.002,0.0064,-0.0141,0.0182,-0.0127,0.002,46.05,11.5312,6.5813,,0.014846999999999833,0.015613135495473034,0.013609265559128099,non_fall
1.889515,0.0152,-0.0026,-0.0087,0.0182,-0.0127,0.002,46.05,11.5312,6.5813,,0.0009130000000001637,0.017705648816126452,0.013597638534521308,non_fall
1.929565,0.0152,-0.0026,-0.0087,0.0176,-0.0052,0.0045,46.05,11.5312,6.5813,,0.04004999999999992,0.017705648816126452,0.014631552466844994,non_fall
1.933001,0.0152,-0.0026,-0.0087,0.0176,-0.0052,0.0045,46.0875,11.7,6.4313,,0.0034359999999999946,0.017705648816126452,0.016848000867378646,non_fall
1.949508,0.0152,-0.0026,-0.0087,0.0176,-0.0052,0.0045,46.0875,11.7,6.4313,,0.01650700000000005,0.017705648816126452,0.02022870544478179,non_fall
1.950396,-0.0006,-0.0044,0.0168,0.0176,-0.0052,0.0045,46.0875,11.7,6.4313,,0.0008879999999999999,0.017376996288196642,0.024559247580055624,non_fall
1.990197,-0.0006,-0.0044,0.0168,0.0541,0.0029,0.0063,46.0875,11.7,6.4313,,0.039800999999999975,0.017376996288196642,0.029422901614868872,non_fall
1.99396,-0.0006,-0.0044,0.0168,0.0541,0.0029,0.0063,46.05,11.5875,6.5438,,0.003762999999999961,0.017376996288196642,0.0342501142863621,non_fall
2.011933,0.0168,-0.0185,-0.0471,0.0541,0.0029,0.0063,46.05,11.5875,6.5438,,0.017973000000000017,0.053318852200699145,0.03843126221538104,non_fall
2.013387,0.0168,-0.0185,-0.0471,0.0541,0.0029,0.0063,46.05,11.5875,6.5438,,0.0014539999999998443,0.053318852200699145,0.04147564486892754,non_fall
2.051804,0.0168,-0.0185,-0.0471,0.1016,-0.0312,0.0162,46.05,11.5875,6.5438,,0.03841700000000037,0.053318852200699145,0.04317312512922164,non_fall
2.053687,0.0168,-0.0185,-0.0471,0.1016,-0.0312,0.0162,46.125,11.5312,6.7688,,0.001882999999999857,0.053318852200699145,0.043702241876099966,non_fall
2.07171,0.0168,-0.0185,-0.0471,0.1016,-0.0312,0.0162,46.125,11.5312,6.7688,,0.0180229999999999,0.053318852200699145,0.04363988443331481,non_fall
2.092583,0.0099,-0.0198,0.0284,0.1016,-0.0312,0.0162,46.125,11.5312,6.7688,,0.02087299999999992,0.036008471225532475,0.04385822360762336,non_fall
2.112362,0.0099,-0.0198,0.0284,0.145,-0.132,0.0333,46.125,11.5312,6.7688,,0.019779000000000213,0.036008471225532475,0.04533113837037493,non_fall
2.113965,0.0099,-0.0198,0.0284,0.145,-0.132,0.0333,46.05,11.4,6.9188,,0.001602999999999799,0.036008471225532475,0.04890169535338401,non_fall
2.13304,0.0099,-0.0198,0.0284,0.145,-0.132,0.0333,46.05,11.4,6.9188,,0.019074999999999953,0.036008471225532475,0.05507431822494784,non_fall
2.153873,0.0067,-0.0402,0.0706,0.145,-0.132,0.0333,46.05,11.4,6.9188,,0.0208330000000001,0.08151864817328609,0.06388510419812797,non_fall
2.175737,0.0067,-0.0402,0.0706,0.0534,-0.1784,0.041,46.05,11.4,6.9188,,0.021863999999999884,0.08151864817328609,0.07487546571510198,non_fall
2.177995,0.0067,-0.0402,0.0706,0.0534,-0.1784,0.041,46.1438,11.325,6.5813,,0.0022580000000003153,0.08151864817328609,0.08716228822978626,non_fall
2.195335,0.0067,-0.0402,0.0706,0.0534,-0.1784,0.041,46.1438,11.325,6.5813,,0.01733999999999991,0.08151864817328609,0.09957844565291879,non_fall
2.213648,0.0277,0.0843,-0.0925,0.0534,-0.1784,0.041,46.1438,11.325,6.5813,,0.018313000000000024,0.1281796785765981,0.11085459938819514,non_fall
2.233702,0.0277,0.0843,-0.0925,0.0534,-0.1784,0.041,46.0875,11.3813,6.375,,0.020054000000000016,0.1281796785765981,0.1198152244935911,non_fall
2.234964,0.0277,0.0843,-0.0925,-0.0109,-0.0435,0.0372,46.0875,11.3813,6.375,,0.0012620000000000964,0.1281796785765981,0.12555948200972306,non_fall
2.253828,0.0277,0.0843,-0.0925,-0.0109,-0.0435,0.0372,46.0875,11.3813,6.375,,0.01886399999999977,0.1281796785765981,0.1275968463147337,non_fall
2.27628,0.0474,0.0111,-0.1072,-0.0109,-0.0435,0.0372,46.0875,11.3813,6.375,,0.022451999999999916,0.11773618814960846,0.12591741133175147,non_fall
2.29358,0.0474,0.0111,-0.1072,-0.0212,-0.0254,0.0244,46.0875,11.3813,6.375,,0.017300000000000093,0.11773618814960846,0.12099377518894036,non_fall
2.29436,0.0474,0.0111,-0.1072,-0.0212,-0.0254,0.0244,46.1813,11.3063,6.4125,,0.000780000000000225,0.11773618814960846,0.11372319701503623,non_fall
2.315072,0.0474,0.0111,-0.1072,-0.0212,-0.0254,0.0244,46.1813,11.3063,6.4125,,0.02071199999999962,0.11773618814960846,0.1053192941940167,non_fall
2.353074,0.0474,0.0111,-0.1072,-0.0212,-0.0254,0.0244,46.2563,11.1375,6.4688,,0.03800200000000009,0.11773618814960846,0.09715744301606034,non_fall
2.355014,-0.0205,0.0005,0.0708,-0.0212,-0.0254,0.0244,46.2563,11.1375,6.4688,,0.0019400000000002748,0.0737098365213219,0.09057926797175168,non_fall
2.356187,-0.0205,0.0005,0.0708,-0.0687,-0.0372,0.022,46.2563,11.1375,6.4688,,0.0011729999999996465,0.0737098365213219,0.08667696035301765,non_fall
2.37573,-0.0205,0.0005,0.0708,-0.0687,-0.0372,0.022,46.2563,11.1375,6.4688,,0.019543000000000088,0.0737098365213219,0.08610121968630016,non_fall
2.414171,-0.0205,0.0005,0.0708,-0.0687,-0.0372,0.022,46.275,11.025,6.525,,0.03844100000000017,0.0737098365213219,0.08894876668638838,non_fall
2.415493,-0.0205,0.0005,0.0708,-0.1096,-0.0105,0.0145,46.275,11.025,6.525,,0.0013220000000000454,0.0737098365213219,0.09477205185682325,non_fall
2.417005,-0.0108,0.0285,0.1317,-0.1096,-0.0105,0.0145,46.275,11.025,6.525,,0.0015119999999999578,0.13518054593764595,0.10271649025076648,non_fall
2.436701,-0.0108,0.0285,0.1317,-0.1096,-0.0105,0.0145,46.275,11.025,6.525,,0.019695999999999714,0.13518054593764595,0.11174375195986742,non_fall
2.475128,-0.0108,0.0285,0.1317,-0.1096,-0.0105,0.0145,46.3688,10.8563,6.3563,,0.03842700000000043,0.13518054593764595,0.12086422773581747,non_fall
2.477368,-0.0317,0.0165,0.1263,-0.1096,-0.0105,0.0145,46.3688,10.8563,6.3563,,0.0022399999999995757,0.13125863781100275,0.12929864855689654,non_fall
2.478426,-0.0317,0.0165,0.1263,-0.155,-0.0429,-0.0004,46.3688,10.8563,6.3563,,0.0010580000000000034,0.13125863781100275,0.13652380548584883,non_fall
2.497801,-0.0317,0.0165,0.1263,-0.155,-0.0429,-0.0004,46.3688,10.8563,6.3563,,0.019375000000000142,0.13125863781100275,0.14221162673902465,non_fall
2.53241,-0.0317,0.0165,0.1263,-0.155,-0.0429,-0.0004,46.3688,10.7438,6.1125,,0.03460900000000011,0.13125863781100275,0.14611538088942927,non_fall
2.537093,-0.0317,0.0165,0.1263,-0.1533,-0.0561,-0.0023,46.3688,10.7438,6.1125,,0.004682999999999993,0.13125863781100275,0.14797360986989266,non_fall
2.558242,-0.0317,0.0165,0.1263,-0.1533,-0.0561,-0.0023,46.3688,10.7438,6.1125,,0.021148999999999862,0.13125863781100275,0.14748984958276423,non_fall
2.55951,-0.0457,0.0428,0.1446,-0.1533,-0.0561,-0.0023,46.3688,10.7438,6.1125,,0.0012680000000000469,0.1575737605059929,0.14441111400086382,non_fall
2.593354,-0.0457,0.0428,0.1446,-0.1533,-0.0561,-0.0023,46.5,10.8188,5.85,,0.03384400000000021,0.1575737605059929,0.1386814978984829,non_fall
2.597655,-0.0457,0.0428,0.1446,-0.177,-0.2033,-0.0228,46.5,10.8188,5.85,,0.004300999999999888,0.1575737605059929,0.1306056357657423,non_fall
2.620507,-0.0457,0.0428,0.1446,-0.177,-0.2033,-0.0228,46.5,10.8188,5.85,,0.022851999999999872,0.1575737605059929,0.12094044255745588,non_fall
2.621859,-0.0527,-0.0367,0.0404,-0.177,-0.2033,-0.0228,46.5,10.8188,5.85,,0.001352000000000242,0.07587054764531491,0.11085636915436708,non_fall
2.65279,-0.0527,-0.0367,0.0404,-0.177,-0.2033,-0.0228,46.4625,10.6125,5.9062,,0.03093099999999982,0.07587054764531491,0.10176599776018928,non_fall
2.659558,-0.0527,-0.0367,0.0404,-0.1433,-0.1561,-0.0182,46.4625,10.6125,5.9062,,0.006768000000000107,0.07587054764531491,0.09507940724563592,non_fall
2.681365,-0.0527,-0.0367,0.0404,-0.1433,-0.1561,-0.0182,46.4625,10.6125,5.9062,,0.02180699999999991,0.07587054764531491,0.09197396104325956,non_fall
2.682529,0.0465,-0.0301,-0.114,-0.1433,-0.1561,-0.0182,46.4625,10.6125,5.9062,,0.001164000000000165,0.1267448618287937,0.09324220116565443,non_fall
2.71416,0.0465,-0.0301,-0.114,-0.1433,-0.1561,-0.0182,46.5375,10.5,5.7188,,0.031630999999999965,0.1267448618287937,0.09922408171243019,non_fall
2.720144,0.0465,-0.0301,-0.114,-0.0953,-0.138,0.0024,46.5375,10.5,5.7188,,0.005983999999999767,0.1267448618287937,0.1097809465731145,non_fall
2.742268,0.0465,-0.0301,-0.114,-0.0953,-0.138,0.0024,46.5375,10.5,5.7188,,0.022124000000000255,0.1267448618287937,0.12426272557961152,non_fall
2.743262,-0.001,-0.0364,-0.1121,-0.0953,-0.138,0.0024,46.5375,10.5,5.7188,,0.0009939999999999394,0.11786589837607823,0.14146089838114484,non_fall
2.774953,-0.001,-0.0364,-0.1121,-0.0953,-0.138,0.0024,46.5563,10.3875,5.4,,0.031690999999999914,0.11786589837607823,0.15960058050918197,non_fall
2.782558,-0.001,-0.0364,-0.1121,-0.0943,-0.1107,0.0226,46.5563,10.3875,5.4,,0.007604999999999862,0.11786589837607823,0.17646506703014214,non_fall
2.80232,-0.001,-0.0364,-0.1121,-0.0943,-0.1107,0.0226,46.5563,10.3875,5.4,,0.019762000000000057,0.11786589837607823,0.18973259440498805,non_fall
2.822448,0.0396,-0.0832,-0.2746,-0.0943,-0.1107,0.0226,46.5563,10.3875,5.4,,0.020128000000000146,0.28964730276665795,0.19752457217050884,non_fall
2.832684,0.0396,-0.0832,-0.2746,-0.0943,-0.1107,0.0226,46.6688,10.3875,5.1938,,0.010235999999999912,0.28964730276665795,0.19903442165662688,non_fall
2.842727,0.0396,-0.0832,-0.2746,-0.0666,-0.1234,0.0337,46.6688,10.3875,5.1938,,0.010043000000000024,0.28964730276665795,0.19498813739821355,non_fall
2.862858,0.0396,-0.0832,-0.2746,-0.0666,-0.1234,0.0337,46.6688,10.3875,5.1938,,0.02013100000000012,0.28964730276665795,0.18767062042532417,non_fall
2.882812,-0.0197,0.0108,0.0653,-0.0666,-0.1234,0.0337,46.6688,10.3875,5.1938,,0.019953999999999805,0.06905664341683572,0.180387762166512,non_fall
2.893495,-0.0197,0.0108,0.0653,-0.0666,-0.1234,0.0337,46.7625,10.35,4.8188,,0.01068300000000022,0.06905664341683572,0.1764819709624565,non_fall
2.901873,-0.0197,0.0108,0.0653,-0.013,-0.0595,0.0318,46.7625,10.35,4.8188,,0.008377999999999997,0.06905664341683572,0.17825325331816563,non_fall
2.922731,-0.0197,0.0108,0.0653,-0.013,-0.0595,0.0318,46.7625,10.35,4.8188,,0.020858000000000043,0.06905664341683572,0.18622098307439305,non_fall
2.943287,0.1978,0.0498,0.2226,-0.013,-0.0595,0.0318,46.7625,10.35,4.8188,,0.02055600000000002,0.3019199231584428,0.199030663350102,non_fall
2.952863,0.1978,0.0498,0.2226,-0.013,-0.0595,0.0318,46.7063,10.4438,4.2938,,0.009575999999999585,0.3019199231584428,0.2140254544037763,non_fall
2.965194,0.1978,0.0498,0.2226,-0.0077,0.0236,0.0403,46.7063,10.4438,4.2938,,0.012331000000000092,0.3019199231584428,0.22821411474864356,non_fall
2.984299,0.1978,0.0498,0.2226,-0.0077,0.0236,0.0403,46.7063,10.4438,4.2938,,0.01910500000000015,0.3019199231584428,0.23922519647843268,non_fall
3.005715,0.1308,0.0501,0.1658,-0.0077,0.0236,0.0403,46.7063,10.4438,4.2938,,0.02141599999999988,0.21704444245361365,0.2458998331239475,non_fall
3.014365,0.1308,0.0501,0.1658,-0.0077,0.0236,0.0403,46.8,10.3125,4.1063,,0.008650000000000269,0.21704444245361365,0.24837921469247096,non_fall
3.024931,0.1308,0.0501,0.1658,-0.0791,0.07,0.0485,46.8,10.3125,4.1063,,0.010565999999999853,0.21704444245361365,0.24776293118478795,non_fall
3.048014,0.1308,0.0501,0.1658,-0.0791,0.07,0.0485,46.8,10.3125,4.1063,,0.023082999999999743,0.21704444245361365,0.24555122496097137,non_fall
3.073527,0.1308,0.0501,0.1658,-0.0791,0.07,0.0485,46.8938,10.0312,4.0125,,0.02551300000000012,0.21704444245361365,0.24310709299096284,non_fall
3.086775,0.1308,0.0501,0.1658,-0.1912,-0.0493,0.041,46.8938,10.0312,4.0125,,0.013247999999999927,0.21704444245361365,0.24131082036657853,non_fall
3.088101,0.0023,0.0592,0.2593,-0.1912,-0.0493,0.041,46.8938,10.0312,4.0125,,0.0013260000000001604,0.26598199187163024,0.24047771454034708,non_fall
3.106456,0.0023,0.0592,0.2593,-0.1912,-0.0493,0.041,46.8938,10.0312,4.0125,,0.01835500000000012,0.26598199187163024,0.2405074114443081,non_fall
3.132613,0.0023,0.0592,0.2593,-0.1912,-0.0493,0.041,46.9125,9.9,3.8438,,0.026156999999999986,0.26598199187163024,0.24115673155459527,non_fall
3.147528,0.0023,0.0592,0.2593,-0.1788,0.0076,-0.0036,46.9125,9.9,3.8438,,0.01491499999999979,0.26598199187163024,0.24229936447655787,non_fall
3.1484,-0.2351,0.022,0.0227,-0.1788,0.0076,-0.0036,46.9125,9.9,3.8438,,0.0008720000000002059,0.23721572460526305,0.24406240351979788,non_fall
3.168201,-0.2351,0.022,0.0227,-0.1788,0.0076,-0.0036,46.9125,9.9,3.8438,,0.019800999999999735,0.23721572460526305,0.24679551271392117,non_fall
3.194015,-0.2351,0.022,0.0227,-0.1788,0.0076,-0.0036,47.0813,9.5813,3.9375,,0.025814000000000004,0.23721572460526305,0.250900693860878,non_fall
3.20755,-0.2351,0.022,0.0227,-0.0655,-0.0503,-0.0019,47.0813,9.5813,3.9375,,0.013535000000000075,0.23721572460526305,0.2565991370832048,non_fall
3.208173,-0.0411,-0.1012,-0.25,-0.0655,-0.0503,-0.0019,47.0813,9.5813,3.9375,,0.0006230000000000402,0.27281981233040975,0.2637224719391287,non_fall
3.228329,-0.0411,-0.1012,-0.25,-0.0655,-0.0503,-0.0019,47.0813,9.5813,3.9375,,0.020156000000000063,0.27281981233040975,0.27159421635840136,non_fall
3.253048,-0.0411,-0.1012,-0.25,-0.0655,-0.0503,-0.0019,47.2125,9.5438,3.9188,,0.024719000000000158,0.27281981233040975,0.2790319300539046,non_fall
3.269161,-0.0411,-0.1012,-0.25,0.0272,0.0119,-0.0015,47.2125,9.5438,3.9188,,0.016112999999999822,0.27281981233040975,0.2844707975602458,non_fall
3.28866,-0.0411,-0.1012,-0.25,0.0272,0.0119,-0.0015,47.2125,9.5438,3.9188,,0.019499000000000155,0.27281981233040975,0.28619206287296894,non_fall
3.289932,0.1045,-0.0781,-0.2577,0.0272,0.0119,-0.0015,47.2125,9.5438,3.9188,,0.0012719999999997178,0.2888410462520865,0.28262682142463025,non_fall
3.313753,0.1045,-0.0781,-0.2577,0.0272,0.0119,-0.0015,47.2688,9.525,3.8625,,0.023821000000000314,0.2888410462520865,0.2726866213241814,non_fall
3.330711,0.1045,-0.0781,-0.2577,0.0406,-0.0241,-0.0121,47.2688,9.525,3.8625,,0.016957999999999807,0.2888410462520865,0.2560494757290827,non_fall
3.350026,0.1045,-0.0781,-0.2577,0.0406,-0.0241,-0.0121,47.2688,9.525,3.8625,,0.019315000000000193,0.2888410462520865,0.23332028839520583,non_fall
3.35141,0.0016,-0.0341,-0.1398,0.0406,-0.0241,-0.0121,47.2688,9.525,3.8625,,0.0013839999999998298,0.1439076439943341,0.2060079708195142,non_fall
3.373033,0.0016,-0.0341,-0.1398,0.0406,-0.0241,-0.0121,47.2125,9.375,3.8625,,0.021622999999999948,0.1439076439943341,0.17632088443340516,non_fall
3.390476,0.0016,-0.0341,-0.1398,0.064,-0.0461,-0.0121,47.2125,9.375,3.8625,,0.017443000000000097,0.1439076439943341,0.14684922363646832,non_fall
3.411384,0.0016,-0.0341,-0.1398,0.064,-0.0461,-0.0121,47.2125,9.375,3.8625,,0.020907999999999927,0.1439076439943341,0.120230991602547,non_fall
3.413165,-0.0403,0.0207,-0.0784,0.064,-0.0461,-0.0121,47.2125,9.375,3.8625,,0.0017809999999998105,0.09054910270124161,0.09886904475437355,non_fall
3.432704,-0.0403,0.0207,-0.0784,0.064,-0.0461,-0.0121,47.2125,9.2063,4.0125,,0.019539000000000417,0.09054910270124161,0.08471332379066313,non_fall
3.451748,-0.0403,0.0207,-0.0784,0.0886,-0.0834,-0.0142,47.2125,9.2063,4.0125,,0.019043999999999617,0.09054910270124161,0.07908966462783049,non_fall
3.472332,-0.0403,0.0207,-0.0784,0.0886,-0.0834,-0.0142,47.2125,9.2063,4.0125,,0.02058400000000038,0.09054910270124161,0.08255567599760531,non_fall
3.473527,-0.0028,-0.0003,-0.1056,0.0886,-0.0834,-0.0142,47.2125,9.2063,4.0125,,0.001194999999999613,0.10563754067565184,0.0947804757003212,non_fall
3.494067,-0.0028,-0.0003,-0.1056,0.0886,-0.0834,-0.0142,47.1938,9.1313,4.125,,0.020540000000000003,0.10563754067565184,0.11446799821933684,non_fall
3.511331,-0.0028,-0.0003,-0.1056,0.1407,-0.0503,-0.0036,47.1938,9.1313,4.125,,0.01726400000000039,0.10563754067565184,0.1393701386065883,non_fall
3.532715,-0.0028,-0.0003,-0.1056,0.1407,-0.0503,-0.0036,47.1938,9.1313,4.125,,0.021383999999999848,0.10563754067565184,0.16645674910079378,non_fall
3.553531,-0.0028,-0.0003,-0.1056,0.1407,-0.0503,-0.0036,47.0813,9.2063,3.8625,,0.020815999999999946,0.10563754067565184,0.19230266813971683,backward_fall
3.555146,0.1051,-0.0568,-0.2882,0.1407,-0.0503,-0.0036,47.0813,9.2063,3.8625,,0.001615000000000144,0.31197995127892436,0.21369246593763835,backward_fall
3.574403,0.1051,-0.0568,-0.2882,0.2068,-0.1337,-0.015,47.0813,9.2063,3.8625,,0.01925700000000008,0.31197995127892436,0.22832939961370272,backward_fall
3.59457,0.1051,-0.0568,-0.2882,0.2068,-0.1337,-0.015,47.0813,9.2063,3.8625,,0.020166999999999824,0.31197995127892436,0.2354175751410688,backward_fall
3.61404,0.1051,-0.0568,-0.2882,0.2068,-0.1337,-0.015,47.0625,9.2812,3.7688,,0.0194700000000001,0.31197995127892436,0.23585650586926915,backward_fall
3.615463,-0.0932,0.0043,-0.1225,0.2068,-0.1337,-0.015,47.0625,9.2812,3.7688,,0.001422999999999952,0.1539837004361176,0.23190091994716142,backward_fall
3.633824,-0.0932,0.0043,-0.1225,0.2618,-0.0897,-0.0076,47.0625,9.2812,3.7688,,0.01836100000000007,0.1539837004361176,0.2263556628921413,backward_fall
3.655419,-0.0932,0.0043,-0.1225,0.2618,-0.0897,-0.0076,47.0625,9.2812,3.7688,,0.02159500000000003,0.1539837004361176,0.22158241021788905,backward_fall
3.675201,-0.0932,0.0043,-0.1225,0.2618,-0.0897,-0.0076,46.8938,9.4313,3.525,,0.019781999999999744,0.1539837004361176,0.21868183047410134,backward_fall
3.677171,0.0545,-0.0108,-0.2288,0.2618,-0.0897,-0.0076,46.8938,9.4313,3.525,,0.0019700000000000273,0.23544920896023416,0.21714230916183067,backward_fall
3.694845,0.0545,-0.0108,-0.2288,0.2812,-0.0241,-0.0023,46.8938,9.4313,3.525,,0.017673999999999968,0.23544920896023416,0.21506164655537055,backward_fall
3.715013,0.0545,-0.0108,-0.2288,0.2812,-0.0241,-0.0023,46.8938,9.4313,3.525,,0.020167999999999964,0.23544920896023416,0.20984547511950738,backward_fall
3.732771,0.0545,-0.0108,-0.2288,0.2812,-0.0241,-0.0023,46.8375,9.4875,3.3,,0.017758000000000163,0.23544920896023416,0.19914720720770496,backward_fall
3.75617,0.0545,-0.0108,-0.2288,0.2337,-0.0252,0.0284,46.8375,9.4875,3.3,,0.023398999999999948,0.23544920896023416,0.18177305289875764,backward_fall
3.758192,0.0229,-0.003,-0.1243,0.2337,-0.0252,0.0284,46.8375,9.4875,3.3,,0.0020220000000001903,0.12642744955111607,0.15831978642920572,backward_fall
3.776142,0.0229,-0.003,-0.1243,0.2337,-0.0252,0.0284,46.8375,9.4875,3.3,,0.01794999999999991,0.12642744955111607,0.1314071471274896,backward_fall
3.794216,0.0229,-0.003,-0.1243,0.2337,-0.0252,0.0284,46.8188,9.3188,3.2063,,0.018073999999999923,0.12642744955111607,0.1054699398993866,backward_fall
3.816911,0.0229,-0.003,-0.1243,0.2462,-0.0908,0.0531,46.8188,9.3188,3.2063,,0.02269500000000013,0.12642744955111607,0.08615120892456694,backward_fall
3.818793,0.0817,0.0393,0.0121,0.2462,-0.0908,0.0531,46.8188,9.3188,3.2063,,0.0018819999999997172,0.09146469264147777,0.07937864933326357,backward_fall
3.837155,0.0817,0.0393,0.0121,0.2462,-0.0908,0.0531,46.8188,9.3188,3.2063,,0.01836200000000021,0.09146469264147777,0.09023840700658455,backward_fall
3.853728,0.0817,0.0393,0.0121,0.2462,-0.0908,0.0531,46.95,9.4688,2.9813,,0.016572999999999727,0.09146469264147777,0.12181159868905378,backward_fall
3.877671,0.0817,0.0393,0.0121,0.4563,-0.0684,0.0766,46.95,9.4688,2.9813,,0.023943000000000048,0.09146469264147777,0.17420086533989382,backward_fall
3.87987,-0.0531,0.0234,-0.2552,0.4563,-0.0684,0.0766,46.95,9.4688,2.9813,,0.002199000000000062,0.2617139851058785,0.24400790990024648,backward_fall
3.898354,-0.0531,0.0234,-0.2552,0.4563,-0.0684,0.0766,46.95,9.4688,2.9813,,0.018483999999999945,0.2617139851058785,0.32449404884886157,backward_fall
3.912894,-0.0531,0.0234,-0.2552,0.4563,-0.0684,0.0766,47.0438,9.2625,2.8125,,0.01454000000000022,0.2617139851058785,0.40656126977617474,backward_fall
3.940219,-0.0531,0.0234,-0.2552,0.5589,-0.1252,0.1166,47.0438,9.2625,2.8125,,0.02732499999999982,0.2617139851058785,0.4805460168442669,backward_fall
3.942536,0.2874,-0.1798,-0.7139,0.5589,-0.1252,0.1166,47.0438,9.2625,2.8125,,0.0023170000000001245,0.7903037454042591,0.5386138875263192,backward_fall
3.958999,0.2874,-0.1798,-0.7139,0.5589,-0.1252,0.1166,47.0438,9.2625,2.8125,,0.016462999999999894,0.7903037454042591,0.5772675234243738,backward_fall
3.974664,0.2874,-0.1798,-0.7139,0.5589,-0.1252,0.1166,47.1,9.2438,2.2313,,0.015665000000000262,0.7903037454042591,0.5992165121097153,backward_fall
3.999814,0.2874,-0.1798,-0.7139,0.4581,-0.1217,0.2928,47.1,9.2438,2.2313,,0.025150000000000006,0.7903037454042591,0.6138064813146725,backward_fall
4.021888,0.2874,-0.1798,-0.7139,0.4581,-0.1217,0.2928,47.1,9.2438,2.2313,,0.022073999999999483,0.7903037454042591,0.6355065212870007,backward_fall
4.023213,-0.2447,-0.022,-0.4471,0.4581,-0.1217,0.2928,47.1,9.2438,2.2313,,0.0013250000000004647,0.5101573286742042,0.6805430554927969,backward_fall
4.032698,-0.2447,-0.022,-0.4471,0.4581,-0.1217,0.2928,47.1375,9.15,2.1375,,0.009484999999999744,0.5101573286742042,0.7624292832507892,backward_fall
4.060306,-0.2447,-0.022,-0.4471,0.7278,1.0324,0.5569,47.1375,9.15,2.1375,,0.027607999999999855,0.5101573286742042,0.8876354083874315,backward_fall
4.079632,-0.2447,-0.022,-0.4471,0.7278,1.0324,0.5569,47.1375,9.15,2.1375,,0.0193260000000004,0.5101573286742042,1.0527654986349655,backward_fall
4.08032,1.7022,0.1638,0.0091,0.7278,1.0324,0.5569,47.1375,9.15,2.1375,,0.000688000000000244,1.710087158597479,1.244220812462306,backward_fall
4.093711,1.7022,0.1638,0.0091,0.7278,1.0324,0.5569,47.0438,9.0938,1.9688,,0.013390999999999487,1.710087158597479,1.4405066666096678,backward_fall
4.120972,1.7022,0.1638,0.0091,0.9221,1.0814,0.8338,47.0438,9.0938,1.9688,,0.027261000000000202,1.710087158597479,1.6164342679703407,backward_fall
4.142569,1.7022,0.1638,0.0091,0.9221,1.0814,0.8338,47.0438,9.0938,1.9688,,0.021596999999999866,1.710087158597479,1.747961674792631,backward_fall
4.144386,1.5305,-0.4494,-0.8161,0.9221,1.0814,0.8338,47.0438,9.0938,1.9688,,0.0018169999999999575,1.7917616526759357,1.8165233207116156,backward_fall
4.153414,1.5305,-0.4494,-0.8161,0.9221,1.0814,0.8338,47.1375,8.6625,2.4,,0.009027999999999814,1.7917616526759357,1.8121651047080334,backward_fall
4.186667,1.5305,-0.4494,-0.8161,1.1077,0.8233,1.0674,47.1375,8.6625,2.4,,0.0332530000000002,1.7917616526759357,1.7352173902490797,backward_fall
4.202412,1.5305,-0.4494,-0.8161,1.1077,0.8233,1.0674,47.1375,8.6625,2.4,,0.015744999999999898,1.7917616526759357,1.5964227031161407,backward_fall
4.213007,1.5305,-0.4494,-0.8161,1.1077,0.8233,1.0674,47.2125,7.8188,3.2625,,0.010595000000000354,1.7917616526759357,1.4154927907069805,backward_fall
4.222628,0.3247,-0.0717,-0.7709,1.1077,0.8233,1.0674,47.2125,7.8188,3.2625,,0.009621000000000102,0.8395580920936919,1.2181988169926081,backward_fall
4.243147,0.3247,-0.0717,-0.7709,1.9565,0.9185,1.3599,47.2125,7.8188,3.2625,,0.020518999999999288,0.8395580920936919,1.0324080154373783,backward_fall
4.263642,0.3247,-0.0717,-0.7709,1.9565,0.9185,1.3599,47.2125,7.8188,3.2625,,0.020495000000000374,0.8395580920936919,0.8838625787234242,backward_fall
4.271804,0.3247,-0.0717,-0.7709,1.9565,0.9185,1.3599,47.0813,6.9938,4.1625,,0.008162000000000447,0.8395580920936919,0.7926771136987714,backward_fall
4.283852,0.4848,0.1979,-0.379,1.9565,0.9185,1.3599,47.0813,6.9938,4.1625,,0.012048000000000059,0.6464026995611946,0.7713571859597291,backward_fall
4.303772,0.4848,0.1979,-0.379,3.2991,0.1374,2.1075,47.0813,6.9938,4.1625,,0.019919999999999938,0.6464026995611946,0.8247593287270988,backward_fall
4.324382,0.4848,0.1979,-0.379,3.2991,0.1374,2.1075,47.0813,6.9938,4.1625,,0.020609999999999573,0.6464026995611946,0.95204596430863,backward_fall
4.333067,0.4848,0.1979,-0.379,3.2991,0.1374,2.1075,46.95,5.625,5.2313,,0.008684999999999832,0.6464026995611946,1.1503480198585931,backward_fall
4.345453,-0.3022,1.9308,1.407,3.2991,0.1374,2.1075,46.95,5.625,5.2313,,0.01238600000000023,2.4081035027589657,1.4193741150627912,backward_fall
4.36541,-0.3022,1.9308,1.407,3.5774,-1.0052,2.4462,46.95,5.625,5.2313,,0.01995699999999978,2.4081035027589657,1.7655698251730925,backward_fall
4.385635,-0.3022,1.9308,1.407,3.5774,-1.0052,2.4462,46.95,5.625,5.2313,,0.020224999999999937,2.4081035027589657,2.2039739519240866,backward_fall
4.395103,-0.3022,1.9308,1.407,3.5774,-1.0052,2.4462,46.9125,4.0312,6.0375,,0.009468000000000032,2.4081035027589657,2.756169037118147,backward_fall
4.405815,-1.5994,-0.2197,-4.2229,3.5774,-1.0052,2.4462,46.9125,4.0312,6.0375,,0.010711999999999833,4.520976980697867,3.443811249307201,backward_fall
4.426426,-1.5994,-0.2197,-4.2229,2.6371,-0.8988,0.9084,46.9125,4.0312,6.0375,,0.0206110000000006,4.520976980697867,4.278670133688564,backward_fall
4.446451,-1.5994,-0.2197,-4.2229,2.6371,-0.8988,0.9084,46.9125,4.0312,6.0375,,0.020024999999999515,4.520976980697867,5.251421107131463,backward_fall
4.452767,-1.5994,-0.2197,-4.2229,2.6371,-0.8988,0.9084,47.0438,2.4,7.0125,,0.006315999999999988,4.520976980697867,6.322537652293577,backward_fall
4.488374,-1.5994,-0.2197,-4.2229,0.5447,-0.5317,-0.4574,47.0438,2.4,7.0125,,0.03560700000000061,4.520976980697867,7.419298839427956,backward_fall
4.491013,-1.7657,-7.0845,7.1546,0.5447,-0.5317,-0.4574,47.0438,2.4,7.0125,,0.002638999999999392,10.222335246899311,8.442268615139062,backward_fall
4.506869,-1.7657,-7.0845,7.1546,0.5447,-0.5317,-0.4574,47.0438,2.4,7.0125,,0.015856000000000314,10.222335246899311,9.28188870139019,backward_fall
4.512787,-1.7657,-7.0845,7.1546,0.5447,-0.5317,-0.4574,47.1,0.75,7.5,,0.005918000000000312,10.222335246899311,9.841889236200013,backward_fall
4.550145,-10.0545,-1.2558,-2.6738,0.5447,-0.5317,-0.4574,47.1,0.75,7.5,,0.037357999999999336,10.47946612810023,10.06327812801709,backward_fall
4.553622,-10.0545,-1.2558,-2.6738,-0.3069,-3.3664,1.1241,47.1,0.75,7.5,,0.0034770000000001744,10.47946612810023,9.942262354690556,backward_fall
4.568092,-10.0545,-1.2558,-2.6738,-0.3069,-3.3664,1.1241,47.1,0.75,7.5,,0.014470000000000205,10.47946612810023,9.537103344997753,backward_fall
4.572402,-10.0545,-1.2558,-2.6738,-0.3069,-3.3664,1.1241,47.1375,-1.0875,6.9563,,0.004310000000000258,10.47946612810023,8.961235027963093,backward_fall
4.608897,-10.0545,-1.2558,-2.6738,1.4059,0.7304,-0.5286,47.1375,-1.0875,6.9563,,0.0364949999999995,10.47946612810023,8.3624114874781,backward_fall
4.611292,-1.9138,0.51,-5.2018,1.4059,0.7304,-0.5286,47.1375,-1.0875,6.9563,,0.002394999999999925,5.566098604947634,7.890579443188702,backward_fall
4.627755,-1.9138,0.51,-5.2018,1.4059,0.7304,-0.5286,47.1375,-1.0875,6.9563,,0.016462999999999894,5.566098604947634,7.660782655308971,backward_fall
4.631948,-1.9138,0.51,-5.2018,1.4059,0.7304,-0.5286,46.9875,-2.3813,6.225,,0.0041930000000007794,5.566098604947634,7.720665144154181,backward_fall
4.670142,-1.9138,0.51,-5.2018,0.7879,-1.8281,-0.5457,46.9875,-2.3813,6.225,,0.03819399999999984,5.566098604947634,8.032996506785127,backward_fall
4.690782,-1.9138,0.51,-5.2018,0.7879,-1.8281,-0.5457,46.9875,-2.3813,6.225,,0.020639999999999326,5.566098604947634,8.48066689239696,backward_fall
4.693104,11.6164,1.3496,-2.7348,0.7879,-1.8281,-0.5457,46.9875,-2.3813,6.225,,0.0023220000000003793,12.010049964925209,8.895238516027879,backward_fall
4.694269,11.6164,1.3496,-2.7348,0.7879,-1.8281,-0.5457,46.9313,-2.925,4.4813,,0.0011650000000003047,12.010049964925209,9.102362796060463,backward_fall
4.731587,11.6164,1.3496,-2.7348,0.5181,0.3264,-0.6884,46.9313,-2.925,4.4813,,0.03731799999999996,12.010049964925209,8.97095310477642,backward_fall
4.751064,11.6164,1.3496,-2.7348,0.5181,0.3264,-0.6884,46.9313,-2.925,4.4813,,0.01947700000000019,12.010049964925209,8.45088691515544,backward_fall
4.75241,2.7299,4.3273,-1.4651,0.5181,0.3264,-0.6884,46.9313,-2.925,4.4813,,0.0013459999999998473,5.322067014797916,7.587703677575848,backward_fall
4.753538,2.7299,4.3273,-1.4651,0.5181,0.3264,-0.6884,47.025,-3.1688,2.775,,0.0011279999999995738,5.322067014797916,6.51082379411854,backward_fall
4.791707,2.7299,4.3273,-1.4651,0.3537,0.3419,-0.2439,47.025,-3.1688,2.775,,0.0381689999999999,5.322067014797916,5.40046076045575,backward_fall
4.812861,-1.7268,1.3304,1.6935,0.3537,0.3419,-0.2439,47.025,-3.1688,2.775,,0.021154000000000117,2.7603884962084595,4.443928993432189,backward_fall
4.815629,-1.7268,1.3304,1.6935,0.3537,0.3419,-0.2439,47.025,-3.1688,2.775,,0.002768000000000548,2.7603884962084595,3.7931078658231008,backward_fall
4.816987,-1.7268,1.3304,1.6935,0.3537,0.3419,-0.2439,47.0813,-2.9813,1.2375,,0.0013579999999997483,2.7603884962084595,3.5326154578055515,backward_fall
4.853094,-1.7268,1.3304,1.6935,0.1045,-1.0294,0.5143,47.0813,-2.9813,1.2375,,0.036106999999999445,2.7603884962084595,3.6646495330168674,backward_fall
4.873804,-1.7268,1.3304,1.6935,0.1045,-1.0294,0.5143,47.0063,-2.4375,-0.3938,,0.020710000000000228,2.7603884962084595,4.112490829701855,backward_fall
4.87617,-5.7049,-1.9429,3.0949,0.1045,-1.0294,0.5143,47.0063,-2.4375,-0.3938,,0.0023660000000003123,6.7748911747717395,4.7407050832000515,backward_fall
4.876918,-5.7049,-1.9429,3.0949,0.1045,-1.0294,0.5143,47.0063,-2.4375,-0.3938,,0.0007479999999997489,6.7748911747717395,5.386523814171916,backward_fall
4.914708,-5.7049,-1.9429,3.0949,0.6707,-0.0262,0.5119,47.0063,-2.4375,-0.3938,,0.03779000000000021,6.7748911747717395,5.8944926338479045,backward_fall
4.933792,-5.7049,-1.9429,3.0949,0.6707,-0.0262,0.5119,47.0063,-2.4375,-0.3938,,0.019084000000000323,6.7748911747717395,6.146224179140956,backward_fall
4.934752,-5.7049,-1.9429,3.0949,0.6707,-0.0262,0.5119,46.6313,-2.1938,-1.9688,,0.0009599999999991837,6.7748911747717395,6.0792767055785815,backward_fall
4.954223,0.7784,-0.5313,4.411,0.6707,-0.0262,0.5119,46.6313,-2.1938,-1.9688,,0.019471000000000238,4.510555093333857,5.692810102077914,backward_fall
4.974294,0.7784,-0.5313,4.411,0.5752,-0.002,0.4096,46.6313,-2.1938,-1.9688,,0.020071000000000616,4.510555093333857,5.041191056597626,backward_fall
4.993996,0.7784,-0.5313,4.411,0.5752,-0.002,0.4096,46.5,-2.0438,-3.1125,,0.019701999999999664,4.510555093333857,4.219006360530091,backward_fall
4.995491,0.7784,-0.5313,4.411,0.5752,-0.002,0.4096,46.5,-2.0438,-3.1125,,0.0014950000000002461,4.510555093333857,3.3416207240070928,backward_fall
5.016672,0.7364,0.408,0.5243,0.5752,-0.002,0.4096,46.5,-2.0438,-3.1125,,0.02118099999999945,0.9917859900200244,2.524931886077047,backward_fall
5.035208,0.7364,0.408,0.5243,0.6807,-0.0301,0.3173,46.5,-2.0438,-3.1125,,0.018536000000000108,0.9917859900200244,1.8673303515828183,backward_fall
5.053676,0.7364,0.408,0.5243,0.6807,-0.0301,0.3173,46.3125,-1.7438,-3.375,,0.018468000000000373,0.9917859900200244,1.4365466750691847,backward_fall
5.056605,0.7364,0.408,0.5243,0.6807,-0.0301,0.3173,46.3125,-1.7438,-3.375,,0.0029289999999999594,0.9917859900200244,1.2634602696396602,backward_fall
5.075713,1.9284,0.7729,-1.1291,0.6807,-0.0301,0.3173,46.3125,-1.7438,-3.375,,0.019108000000000125,2.364522738313167,1.3433816551304534,backward_fall
5.096165,1.9284,0.7729,-1.1291,0.6437,0.1489,0.0716,46.3125,-1.7438,-3.375,,0.020451999999999693,2.364522738313167,1.643228780692641,backward_fall
5.113732,1.9284,0.7729,-1.1291,0.6437,0.1489,0.0716,46.1438,-1.6688,-3.7875,,0.017566999999999666,2.364522738313167,2.11157438544733,backward_fall
5.115632,1.9284,0.7729,-1.1291,0.6437,0.1489,0.0716,46.1438,-1.6688,-3.7875,,0.0019000000000000128,2.364522738313167,2.6885343677179456,backward_fall
5.157874,1.9284,0.7729,-1.1291,0.3268,-0.1625,-0.2614,46.1438,-1.6688,-3.7875,,0.04224199999999989,2.364522738313167,3.313683030871962,backward_fall
5.160018,3.3093,1.5629,-3.178,0.3268,-0.1625,-0.2614,46.1438,-1.6688,-3.7875,,0.002144000000000368,4.847041045834046,3.9316247695025117,backward_fall
5.174166,3.3093,1.5629,-3.178,0.3268,-0.1625,-0.2614,45.9563,-1.8938,-3.7125,,0.014147999999999605,4.847041045834046,4.495573636048544,backward_fall
5.176464,3.3093,1.5629,-3.178,0.3268,-0.1625,-0.2614,45.9563,-1.8938,-3.7125,,0.0022980000000005774,4.847041045834046,4.9692115800045755,backward_fall
5.218048,3.3093,1.5629,-3.178,-0.1554,0.0441,-0.4097,45.9563,-1.8938,-3.7125,,0.0415839999999994,4.847041045834046,5.326926303766644,backward_fall
5.220451,2.5581,2.184,-4.432,-0.1554,0.0441,-0.4097,45.9563,-1.8938,-3.7125,,0.002403000000000155,5.563843600425879,5.552791129928498,backward_fall
5.234679,2.5581,2.184,-4.432,-0.1554,0.0441,-0.4097,45.75,-2.175,-3.7688,,0.01422800000000013,5.563843600425879,5.639058906514838,backward_fall
5.236207,2.5581,2.184,-4.432,-0.1554,0.0441,-0.4097,45.75,-2.175,-3.7688,,0.001528000000000418,5.563843600425879,5.58496742233082,backward_fall
5.280654,2.5581,2.184,-4.432,-0.8011,-0.0489,-0.3756,45.75,-2.175,-3.7688,,0.0444469999999999,5.563843600425879,5.396259193498081,backward_fall
5.284524,1.0372,1.8175,-4.2027,-0.8011,-0.0489,-0.3756,45.75,-2.175,-3.7688,,0.00387000000000004,4.694867131240244,5.085363388564985,backward_fall
5.293046,1.0372,1.8175,-4.2027,-0.8011,-0.0489,-0.3756,45.525,-2.3813,-4.1438,,0.00852200000000014,4.694867131240244,4.671906739657728,backward_fall
5.299349,1.0372,1.8175,-4.2027,-0.8011,-0.0489,-0.3756,45.525,-2.3813,-4.1438,,0.0063029999999999475,4.694867131240244,4.1830637707080625,backward_fall
5.340753,1.0372,1.8175,-4.2027,-1.1416,-0.3925,-0.3579,45.525,-2.3813,-4.1438,,0.041403999999999996,4.694867131240244,3.6531332826540672,backward_fall
5.343238,-0.2905,0.908,-1.8531,-1.1416,-0.3925,-0.3579,45.525,-2.3813,-4.1438,,0.0024850000000000705,2.08394670277337,3.121786062776575,backward_fall
5.353961,-0.2905,0.908,-1.8531,-1.1416,-0.3925,-0.3579,45.3563,-2.4188,-4.2938,,0.010722999999999594,2.08394670277337,2.6309379212830293,backward_fall
5.363827,-0.2905,0.908,-1.8531,-1.1416,-0.3925,-0.3579,45.3563,-2.4188,-4.2938,,0.009865999999999708,2.08394670277337,2.221004409427058,backward_fall
5.400913,-0.2905,0.908,-1.8531,-1.1693,-0.7695,-0.2961,45.3563,-2.4188,-4.2938,,0.037086000000000396,2.08394670277337,1.9276757070292039,backward_fall
5.413405,-0.2905,0.908,-1.8531,-1.1693,-0.7695,-0.2961,45.4125,-1.8938,-4.7812,,0.012491999999999948,2.08394670277337,1.7798420228683596,backward_fall
5.423224,-0.2905,0.908,-1.8531,-1.1693,-0.7695,-0.2961,45.4125,-1.8938,-4.7812,,0.009819000000000244,2.08394670277337,1.798321969899554,backward_fall
5.424262,-1.5121,0.2285,1.9766,-1.1693,-0.7695,-0.2961,45.4125,-1.8938,-4.7812,,0.0010379999999994283,2.4991210895032676,1.9944264698937,backward_fall
5.464679,-1.5121,0.2285,1.9766,-0.5132,0.2284,-0.0434,45.4125,-1.8938,-4.7812,,0.04041700000000059,2.4991210895032676,2.367542458478348,backward_fall
5.47525,-1.5121,0.2285,1.9766,-0.5132,0.2284,-0.0434,45.45,-1.425,-5.5125,,0.010570999999999664,2.4991210895032676,2.901712187528584,backward_fall
5.482443,-1.5121,0.2285,1.9766,-0.5132,0.2284,-0.0434,45.45,-1.425,-5.5125,,0.007193000000000005,2.4991210895032676,3.562218836034186,backward_fall
5.483857,-0.3405,-0.9402,4.7567,-0.5132,0.2284,-0.0434,45.45,-1.425,-5.5125,,0.0014140000000004704,4.860669828326134,4.293942994251644,backward_fall
5.523016,-0.3405,-0.9402,4.7567,-0.3971,-0.2824,0.0241,45.45,-1.425,-5.5125,,0.03915899999999972,4.860669828326134,5.023256418697648,backward_fall
5.532884,-0.3405,-0.9402,4.7567,-0.3971,-0.2824,0.0241,45.5625,-0.9188,-6.2063,,0.009867999999999988,4.860669828326134,5.664454049486645,backward_fall
5.541616,-0.3405,-0.9402,4.7567,-0.3971,-0.2824,0.0241,45.5625,-0.9188,-6.2063,,0.008732000000000184,4.860669828326134,6.130658875167295,non_fall
5.542578,-2.2758,-1.9861,6.7272,-0.3971,-0.2824,0.0241,45.5625,-0.9188,-6.2063,,0.0009619999999994633,7.374217157773426,6.34805474779182,non_fall
5.583803,-2.2758,-1.9861,6.7272,-0.3222,-1.3557,-0.2166,45.5625,-0.9188,-6.2063,,0.041224999999999845,7.374217157773426,6.27101650447812,non_fall
5.591859,-2.2758,-1.9861,6.7272,-0.3222,-1.3557,-0.2166,45.7875,-0.1688,-7.2563,,0.00805600000000073,7.374217157773426,5.894317685066615,non_fall
5.604578,-2.2758,-1.9861,6.7272,-0.3222,-1.3557,-0.2166,45.7875,-0.1688,-7.2563,,0.012718999999999703,7.374217157773426,5.258094438350524,non_fall
5.626004,-0.7636,-1.3198,1.7334,-0.3222,-1.3557,-0.2166,45.7875,-0.1688,-7.2563,,0.021425999999999945,2.308599696785911,4.442709924819937,non_fall
5.645053,-0.7636,-1.3198,1.7334,0.0208,-0.4507,-0.336,45.7875,-0.1688,-7.2563,,0.01904899999999987,2.308599696785911,3.553984510477492,non_fall
5.655514,-0.7636,-1.3198,1.7334,0.0208,-0.4507,-0.336,45.8625,0.5625,-8.475,,0.010461000000000276,2.308599696785911,2.7028111671095116,non_fall
5.666359,-0.7636,-1.3198,1.7334,0.0208,-0.4507,-0.336,45.8625,0.5625,-8.475,,0.010844999999999771,2.308599696785911,1.9848889299410981,non_fall
5.685465,0.7771,-0.4539,-0.2113,0.0208,-0.4507,-0.336,45.8625,0.5625,-8.475,,0.019105999999999845,0.9244226901152957,1.4654119211907348,non_fall
5.705001,0.7771,-0.4539,-0.2113,0.0613,0.2597,-0.1708,45.8625,0.5625,-8.475,,0.019536000000000442,0.9244226901152957,1.171216947878394,non_fall
5.715933,0.7771,-0.4539,-0.2113,0.0613,0.2597,-0.1708,45.8625,1.3313,-9.6375,,0.010931999999999498,0.9244226901152957,1.0907767232815648,non_fall
5.724919,0.7771,-0.4539,-0.2113,0.0613,0.2597,-0.1708,45.8625,1.3313,-9.6375,,0.00898600000000016,0.9244226901152957,1.1810743550044798,non_fall
5.746538,-0.2352,0.7318,-2.0505,0.0613,0.2597,-0.1708,45.8625,1.3313,-9.6375,,0.021619000000000277,2.1898402978299583,1.3794338369731818,non_fall
5.766013,-0.2352,0.7318,-2.0505,-0.0971,-0.0908,-0.125,45.8625,1.3313,-9.6375,,0.01947499999999991,2.1898402978299583,1.6175776430592597,non_fall
5.773174,-0.2352,0.7318,-2.0505,-0.0971,-0.0908,-0.125,45.825,1.9313,-10.7438,,0.007160999999999973,2.1898402978299583,1.8347962182248143,non_fall
5.786956,-0.2352,0.7318,-2.0505,-0.0971,-0.0908,-0.125,45.825,1.9313,-10.7438,,0.013781999999999961,2.1898402978299583,1.9875171578597495,non_fall
5.806468,-0.8696,0.3772,-1.5292,-0.0971,-0.0908,-0.125,45.825,1.9313,-10.7438,,0.019511999999999752,1.7991488654360983,2.0537674101310057,non_fall
5.826824,-0.8696,0.3772,-1.5292,-0.2839,-0.2598,-0.174,45.825,1.9313,-10.7438,,0.020356000000000485,1.7991488654360983,2.032556184917176,non_fall
5.833976,-0.8696,0.3772,-1.5292,-0.2839,-0.2598,-0.174,45.7688,2.7375,-11.85,,0.007151999999999603,1.7991488654360983,1.9394276116511846,non_fall
5.84696,-0.8696,0.3772,-1.5292,-0.2839,-0.2598,-0.174,45.7688,2.7375,-11.85,,0.012984000000000329,1.7991488654360983,1.7999599066199627,non_fall
5.888777,-0.8696,0.3772,-1.5292,-0.3336,-0.0834,-0.0353,45.7688,2.7375,-11.85,,0.04181699999999999,1.7991488654360983,1.6428648179192382,non_fall
5.890305,-0.641,0.4634,-0.8673,-0.3336,-0.0834,-0.0353,45.7688,2.7375,-11.85,,0.0015279999999995297,1.1738099718438244,1.4939041244460114,non_fall
5.891729,-0.641,0.4634,-0.8673,-0.3336,-0.0834,-0.0353,45.6188,3.1125,-12.5813,,0.0014240000000000919,1.1738099718438244,1.371433578893468,non_fall
5.909499,-0.641,0.4634,-0.8673,-0.3336,-0.0834,-0.0353,45.6188,3.1125,-12.5813,,0.017770000000000508,1.1738099718438244,1.284105544996483,non_fall
5.951013,-0.641,0.4634,-0.8673,-0.4141,0.1148,0.0071,45.6188,3.1125,-12.5813,,0.041513999999999385,1.1738099718438244,1.2309614241403661,non_fall
5.953529,-0.0606,0.8336,-1.0963,-0.4141,0.1148,0.0071,45.6188,3.1125,-12.5813,,0.0025159999999999627,1.3785626608899577,1.203692578991864,non_fall
5.954605,-0.0606,0.8336,-1.0963,-0.4141,0.1148,0.0071,45.3563,3.75,-13.35,,0.001076000000000299,1.3785626608899577,1.190330853705344,non_fall
5.968654,-0.0606,0.8336,-1.0963,-0.4141,0.1148,0.0071,45.3563,3.75,-13.35,,0.014048999999999978,1.3785626608899577,1.179275197744114,non_fall
6.012544,-0.0606,0.8336,-1.0963,-0.527,0.0044,-0.0321,45.3563,3.75,-13.35,,0.04389000000000021,1.3785626608899577,1.1625418419933522,non_fall
6.015322,-0.0594,0.6598,-0.7584,-0.527,0.0044,-0.0321,45.3563,3.75,-13.35,,0.0027780000000001692,1.006993028774281,1.1374596526932421,non_fall
6.016971,-0.0594,0.6598,-0.7584,-0.527,0.0044,-0.0321,45.225,4.3875,-13.7813,,0.0016489999999995675,1.006993028774281,1.106590341259298,non_fall
6.030089,-0.0594,0.6598,-0.7584,-0.527,0.0044,-0.0321,45.225,4.3875,-13.7813,,0.013118000000000407,1.006993028774281,1.0762119358462536,non_fall
6.072678,-0.0594,0.6598,-0.7584,-0.5643,-0.0241,-0.0487,45.225,4.3875,-13.7813,,0.042588999999999544,1.006993028774281,1.0540446735262614,non_fall
6.077477,-0.0594,0.6598,-0.7584,-0.5643,-0.0241,-0.0487,44.8875,4.8938,-14.1188,,0.00479900000000022,1.006993028774281,1.0469336758723118,non_fall
6.091016,-0.0594,0.6598,-0.7584,-0.5643,-0.0241,-0.0487,44.8875,4.8938,-14.1188,,0.013538999999999746,1.006993028774281,1.0590183794629748,non_fall
6.092432,0.122,1.0267,-0.5226,-0.5643,-0.0241,-0.0487,44.8875,4.8938,-14.1188,,0.0014159999999998618,1.1584936987312446,1.090669247599812,non_fall
6.132373,0.122,1.0267,-0.5226,-0.5409,-0.045,-0.0353,44.8875,4.8938,-14.1188,,0.03994100000000067,1.1584936987312446,1.1382586589244463,non_fall
6.134435,0.122,1.0267,-0.5226,-0.5409,-0.045,-0.0353,44.7563,5.3438,-14.25,,0.002061999999999564,1.1584936987312446,1.194691878056074,non_fall
6.152682,0.122,1.0267,-0.5226,-0.5409,-0.045,-0.0353,44.7563,5.3438,-14.25,,0.01824700000000057,1.1584936987312446,1.250564666082416,non_fall
6.153937,0.1214,1.0549,-0.7749,-0.5409,-0.045,-0.0353,44.7563,5.3438,-14.25,,0.001254999999999562,1.3145424983620726,1.2958090553243424,non_fall
6.191976,0.1214,1.0549,-0.7749,-0.4198,-0.0077,-0.0385,44.7563,5.3438,-14.25,,0.03803900000000038,1.3145424983620726,1.3216723722432846,non_fall
6.195168,0.1214,1.0549,-0.7749,-0.4198,-0.0077,-0.0385,44.7375,5.8875,-14.3625,,0.0031919999999994175,1.3145424983620726,1.322803143441785,non_fall
6.214577,0.1214,1.0549,-0.7749,-0.4198,-0.0077,-0.0385,44.7375,5.8875,-14.3625,,0.019409000000000454,1.3145424983620726,1.2991159588210779,non_fall
6.216138,0.3525,0.9895,-0.8723,-0.4198,-0.0077,-0.0385,44.7375,5.8875,-14.3625,,0.0015609999999997015,1.3653841181147524,1.2570301947553528,non_fall
6.254854,0.3525,0.9895,-0.8723,-0.0971,0.1542,-0.0455,44.7375,5.8875,-14.3625,,0.03871599999999997,1.3653841181147524,1.2096574608431763,non_fall
6.256829,0.3525,0.9895,-0.8723,-0.0971,0.1542,-0.0455,44.8313,6.525,-14.5875,,0.001974999999999838,1.3653841181147524,1.1755756885130564,non_fall
6.274351,0.3525,0.9895,-0.8723,-0.0971,0.1542,-0.0455,44.8313,6.525,-14.5875,,0.01752200000000048,1.3653841181147524,1.176021371105291,non_fall
6.275245,0.4679,0.2279,0.997,-0.0971,0.1542,-0.0455,44.8313,6.525,-14.5875,,0.0008939999999997283,1.124667870973471,1.2306940935066384,non_fall
6.315929,0.4679,0.2279,0.997,-0.0971,0.1542,-0.0455,44.9625,6.7688,-14.5688,,0.04068399999999972,1.124667870973471,1.3528615053688386,non_fall
6.319501,0.4679,0.2279,0.997,0.0602,0.4031,-0.1141,44.9625,6.7688,-14.5688,,0.0035720000000001306,1.124667870973471,1.544921789621375,non_fall
6.335914,0.4679,0.2279,0.997,0.0602,0.4031,-0.1141,44.9625,6.7688,-14.5688,,0.01641300000000001,1.124667870973471,1.79577666125022,non_fall
6.354895,0.5612,-1.5543,2.0214,0.0602,0.4031,-0.1141,44.9625,6.7688,-14.5688,,0.018981000000000137,2.6109101650573887,2.081068079604657,non_fall
6.374305,0.5612,-1.5543,2.0214,0.0602,0.4031,-0.1141,45.0938,6.975,-14.5125,,0.019409999999999705,2.6109101650573887,2.3665217079895946,non_fall
6.37673,0.5612,-1.5543,2.0214,-0.1352,0.0999,-0.0025,45.0938,6.975,-14.5125,,0.0024250000000005656,2.6109101650573887,2.6136538122832422,non_fall
6.396238,0.5612,-1.5543,2.0214,-0.1352,0.0999,-0.0025,45.0938,6.975,-14.5125,,0.01950800000000008,2.6109101650573887,2.7864651815789507,non_fall
6.415516,-0.9157,-1.9766,2.0968,-0.1352,0.0999,-0.0025,45.0938,6.975,-14.5125,,0.019277999999999906,3.0235780608411615,2.857717693260544,non_fall
6.433906,-0.9157,-1.9766,2.0968,-0.1352,0.0999,-0.0025,45.3,7.1625,-14.4188,,0.01839000000000013,3.0235780608411615,2.81370942726989,non_fall
6.435875,-0.9157,-1.9766,2.0968,-0.3033,-0.4614,0.132,45.3,7.1625,-14.4188,,0.0019689999999998875,3.0235780608411615,2.656762017203092,non_fall
6.457146,-0.9157,-1.9766,2.0968,-0.3033,-0.4614,0.132,45.3,7.1625,-14.4188,,0.021270999999999596,3.0235780608411615,2.404890059837708,non_fall
6.476987,-1.2008,-0.2686,0.2099,-0.3033,-0.4614,0.132,45.3,7.1625,-14.4188,,0.01984100000000044,1.2482486170631235,2.0885878302305176,non_fall
6.492766,-1.2008,-0.2686,0.2099,-0.3033,-0.4614,0.132,45.2625,7.2188,-14.9625,,0.01577899999999932,1.2482486170631235,1.7454350136127588,non_fall
6.495496,-1.2008,-0.2686,0.2099,-0.2839,-0.478,0.0975,45.2625,7.2188,-14.9625,,0.0027300000000005653,1.2482486170631235,1.413954470039087,non_fall
6.517747,-1.2008,-0.2686,0.2099,-0.2839,-0.478,0.0975,45.2625,7.2188,-14.9625,,0.0222509999999998,1.2482486170631235,1.1282884680946614,non_fall
6.554389,-1.2008,-0.2686,0.2099,-0.2839,-0.478,0.0975,45.3563,7.2,-15.525,,0.03664199999999962,1.2482486170631235,0.9145959090748309,non_fall
6.557633,-1.2008,-0.2686,0.2099,-0.2232,-0.4373,0.198,45.3563,7.2,-15.525,,0.0032440000000004687,1.2482486170631235,0.7890877671350397,non_fall
6.559335,0.0936,-0.4431,-0.4211,-0.2232,-0.4373,0.198,45.3563,7.2,-15.525,,0.0017019999999998703,0.6184042205548083,0.7570337265861107,non_fall
6.578816,0.0936,-0.4431,-0.4211,-0.2232,-0.4373,0.198,45.3563,7.2,-15.525,,0.01948099999999986,0.6184042205548083,0.8122162274114966,non_fall
6.613767,0.0936,-0.4431,-0.4211,-0.2232,-0.4373,0.198,45.4125,7.2563,-15.8813,,0.0349510000000004,0.6184042205548083,0.9369310253507146,non_fall
6.620487,0.0936,-0.4431,-0.4211,-0.149,0.0445,0.0911,45.4125,7.2563,-15.8813,,0.006719999999999615,0.6184042205548083,1.1031881220451445,non_fall
6.622126,0.3902,-1.4445,-0.2333,-0.149,0.0445,0.0911,45.4125,7.2563,-15.8813,,0.001638999999999946,1.5143530565888523,1.2758088773456335,non_fall
6.638897,0.3902,-1.4445,-0.2333,-0.149,0.0445,0.0911,45.4125,7.2563,-15.8813,,0.016771000000000313,1.5143530565888523,1.4175764563023627,non_fall
6.674607,0.3902,-1.4445,-0.2333,-0.149,0.0445,0.0911,45.4688,7.1063,-16.125,,0.03570999999999991,1.5143530565888523,1.4957877788549352,non_fall
6.680034,1.4513,-0.6409,-0.3164,-0.149,0.0445,0.0911,45.4688,7.1063,-16.125,,0.005427000000000071,1.6177556861281621,1.4889180429427196,non_fall
6.68193,1.4513,-0.6409,-0.3164,-0.1983,1.0281,-0.1932,45.4688,7.1063,-16.125,,0.0018960000000003419,1.6177556861281621,1.3918961063846376,non_fall
6.700353,1.4513,-0.6409,-0.3164,-0.1983,1.0281,-0.1932,45.4688,7.1063,-16.125,,0.018422999999999412,1.6177556861281621,1.218652801744165,non_fall
6.734781,1.4513,-0.6409,-0.3164,-0.1983,1.0281,-0.1932,45.525,6.9938,-16.1063,,0.034428000000000125,1.6177556861281621,1.0010118143245177,non_fall
6.740199,0.1382,-0.3102,-0.104,-0.1983,1.0281,-0.1932,45.525,6.9938,-16.1063,,0.005417999999999701,0.3551609212737234,0.7836454572914955,non_fall
6.74205,0.1382,-0.3102,-0.104,-0.2852,-0.1944,-0.1747,45.525,6.9938,-16.1063,,0.001851000000000269,0.3551609212737234,0.6157461946769126,non_fall
6.761998,0.1382,-0.3102,-0.104,-0.2852,-0.1944,-0.1747,45.525,6.9938,-16.1063,,0.0199480000000003,0.3551609212737234,0.5410580558876598,non_fall
6.795195,0.1382,-0.3102,-0.104,-0.2852,-0.1944,-0.1747,45.5813,7.0313,-16.0688,,0.03319699999999948,0.3551609212737234,0.5885243102301032,non_fall
6.803834,0.1382,-0.3102,-0.104,-0.6509,-0.1682,-0.0662,45.5813,7.0313,-16.0688,,0.008639000000000507,0.3551609212737234,0.7657399047599194,non_fall
6.821917,0.1382,-0.3102,-0.104,-0.6509,-0.1682,-0.0662,45.5813,7.0313,-16.0688,,0.01808299999999985,0.3551609212737234,1.0567450922281554,non_fall
6.823351,-1.2929,1.2626,0.9971,-0.6509,-0.1682,-0.0662,45.5813,7.0313,-16.0688,,0.0014339999999997133,2.063966467750869,1.4247171912166738,non_fall
6.854228,-1.2929,1.2626,0.9971,-0.6509,-0.1682,-0.0662,45.6,7.3125,-16.0688,,0.030877000000000265,2.063966467750869,1.8189794740475658,non_fall
6.862557,-1.2929,1.2626,0.9971,-1.0312,0.0832,-0.2226,45.6,7.3125,-16.0688,,0.008328999999999809,2.063966467750869,2.184685801721001,non_fall
6.882328,0.8874,2.7394,-0.029,-1.0312,0.0832,-0.2226,45.6,7.3125,-16.0688,,0.019771000000000427,2.8796930600326136,2.4729519062915117,non_fall
6.885919,0.8874,2.7394,-0.029,-1.0312,0.0832,-0.2226,45.6,7.3125,-16.0688,,0.003591000000000122,2.8796930600326136,2.64929222817433,non_fall
6.913677,0.8874,2.7394,-0.029,-1.0312,0.0832,-0.2226,45.5438,7.7625,-15.9375,,0.027757999999999505,2.8796930600326136,2.6987805457711342,non_fall
6.923406,0.8874,2.7394,-0.029,-1.2694,-0.3925,-0.0594,45.5438,7.7625,-15.9375,,0.009729000000000099,2.8796930600326136,2.6270905827626385,non_fall
6.942998,0.8874,2.7394,-0.029,-1.2694,-0.3925,-0.0594,45.5438,7.7625,-15.9375,,0.019592000000000276,2.8796930600326136,2.457392413736377,non_fall
6.943695,-0.9934,0.6324,0.7218,-1.2694,-0.3925,-0.0594,45.5438,7.7625,-15.9375,,0.0006969999999997256,1.3812199535193517,2.2239687320725956,non_fall
6.973548,-0.9934,0.6324,0.7218,-1.2694,-0.3925,-0.0594,45.6,8.3625,-15.825,,0.02985300000000013,1.3812199535193517,1.9642574698075626,non_fall
6.983602,-0.9934,0.6324,0.7218,-1.3819,-0.8615,0.1497,45.6,8.3625,-15.825,,0.01005400000000023,1.3812199535193517,1.7115254586579944,non_fall
7.004195,-0.9934,0.6324,0.7218,-1.3819,-0.8615,0.1497,45.6,8.3625,-15.825,,0.02059299999999986,1.3812199535193517,1.4901437562018474,non_fall
7.025118,-1.3786,0.0614,0.7915,-1.3819,-0.8615,0.1497,45.6,8.3625,-15.825,,0.020922999999999803,1.590842597493542,1.3143747488248094,non_fall
7.035224,-1.3786,0.0614,0.7915,-1.3819,-0.8615,0.1497,45.7125,8.9062,-15.6563,,0.010106000000000392,1.590842597493542,1.1901548537549191,non_fall
7.044639,-1.3786,0.0614,0.7915,-1.3223,-1.045,0.3695,45.7125,8.9062,-15.6563,,0.00941499999999973,1.590842597493542,1.118275692135065,non_fall
7.065037,-1.3786,0.0614,0.7915,-1.3223,-1.045,0.3695,45.7125,8.9062,-15.6563,,0.020398000000000138,1.590842597493542,1.09709350813047,non_fall
7.087454,-0.4516,0.6025,0.2162,-1.3223,-1.045,0.3695,45.7125,8.9062,-15.6563,,0.02241699999999991,0.7833844841455567,1.1234765149870825,non_fall
7.09316,-0.4516,0.6025,0.2162,-1.3223,-1.045,0.3695,45.4313,9.4875,-15.9563,,0.005705999999999989,0.7833844841455567,1.1918421477161918,non_fall
7.105642,-0.4516,0.6025,0.2162,-1.2942,-0.481,0.3229,45.4313,9.4875,-15.9563,,0.012481999999999438,0.7833844841455567,1.2923091076474544,non_fall
7.125914,-0.4516,0.6025,0.2162,-1.2942,-0.481,0.3229,45.4313,9.4875,-15.9563,,0.02027200000000029,0.7833844841455567,1.4095903423249028,non_fall
7.1471,1.9416,0.1936,-0.5424,-1.2942,-0.481,0.3229,45.4313,9.4875,-15.9563,,0.02118600000000015,2.0252133912257246,1.5239296000019789,non_fall
7.153759,1.9416,0.1936,-0.5424,-1.2942,-0.481,0.3229,45.15,9.9563,-16.425,,0.0066589999999999705,2.0252133912257246,1.6142905783483692,non_fall
7.166557,1.9416,0.1936,-0.5424,-1.2835,0.1368,0.4149,45.15,9.9563,-16.425,,0.012798000000000087,2.0252133912257246,1.6627646031005432,non_fall
7.18695,1.9416,0.1936,-0.5424,-1.2835,0.1368,0.4149,45.15,9.9563,-16.425,,0.020393000000000328,2.0252133912257246,1.6585003383604737,non_fall
7.207927,1.1708,0.2169,-0.2959,-1.2835,0.1368,0.4149,45.15,9.9563,-16.425,,0.020976999999999357,1.2269372681600312,1.5997335866067048,non_fall
7.211643,1.1708,0.2169,-0.2959,-1.2835,0.1368,0.4149,45.0375,10.2938,-16.8938,,0.0037159999999998305,1.2269372681600312,1.493449101396611,non_fall
7.228387,1.1708,0.2169,-0.2959,-1.2215,-0.1539,0.712,45.0375,10.2938,-16.8938,,0.016744000000000092,1.2269372681600312,1.3532001220088374,non_fall
7.247825,1.1708,0.2169,-0.2959,-1.2215,-0.1539,0.712,45.0375,10.2938,-16.8938,,0.019438000000000066,1.2269372681600312,1.1960954744851726,non_fall
7.273819,1.1708,0.2169,-0.2959,-1.2215,-0.1539,0.712,44.85,10.4062,-17.3813,,0.02599399999999985,1.2269372681600312,1.0398159706314045,non_fall
7.288435,1.1708,0.2169,-0.2959,-1.1848,0.0498,0.8594,44.85,10.4062,-17.3813,,0.014616000000000184,1.2269372681600312,0.9000561452562235,non_fall
7.289925,0.1466,-0.3447,0.2651,-1.1848,0.0498,0.8594,44.85,10.4062,-17.3813,,0.0014900000000004354,0.45889831117579855,0.7884549852236514,non_fall
7.308851,0.1466,-0.3447,0.2651,-1.1848,0.0498,0.8594,44.85,10.4062,-17.3813,,0.018925999999999554,0.45889831117579855,0.7111062135921364,non_fall
7.335156,0.1466,-0.3447,0.2651,-1.1848,0.0498,0.8594,44.8313,10.2188,-17.85,,0.0263049999999998,0.45889831117579855,0.6679787182783915,non_fall
7.349203,0.1466,-0.3447,0.2651,-1.2236,-0.0862,0.7883,44.8313,10.2188,-17.85,,0.014047000000000587,0.45889831117579855,0.6536631097798078,non_fall
7.350977,0.9823,-0.0868,-0.0907,-1.2236,-0.0862,0.7883,44.8313,10.2188,-17.85,,0.0017740000000001643,0.9902898666552132,0.6595440340541527,non_fall
7.369913,0.9823,-0.0868,-0.0907,-1.2236,-0.0862,0.7883,44.8313,10.2188,-17.85,,0.018936000000000064,0.9902898666552132,0.6768894995253781,non_fall
7.39409,0.9823,-0.0868,-0.0907,-1.2236,-0.0862,0.7883,44.7375,9.6375,-18.3,,0.024176999999999893,0.9902898666552132,0.6998260547495506,non_fall
7.411239,-0.452,0.2704,0.4779,-1.2236,-0.0862,0.7883,44.7375,9.6375,-18.3,,0.01714899999999986,0.7112022005027825,0.7270902332982453,non_fall
7.413457,-0.452,0.2704,0.4779,-1.1543,-0.3702,0.7305,44.7375,9.6375,-18.3,,0.0022180000000000533,0.7112022005027825,0.7619002816861379,non_fall
7.43156,-0.452,0.2704,0.4779,-1.1543,-0.3702,0.7305,44.7375,9.6375,-18.3,,0.01810299999999998,0.7112022005027825,0.8100351221382216,non_fall
7.453763,-0.452,0.2704,0.4779,-1.1543,-0.3702,0.7305,44.775,8.85,-18.6375,,0.022203000000000195,0.7112022005027825,0.876853925841405,non_fall
7.4709,-0.452,0.2704,0.4779,-1.127,-0.951,0.5083,44.775,8.85,-18.6375,,0.017136999999999958,0.7112022005027825,0.96428433270156,non_fall
7.492556,-0.9015,0.4321,0.6497,-1.127,-0.951,0.5083,44.775,8.85,-18.6375,,0.02165600000000012,1.1922762892886867,1.068722286552134,non_fall
7.49478,-0.9015,0.4321,0.6497,-1.127,-0.951,0.5083,44.775,8.85,-18.6375,,0.0022240000000000038,1.1922762892886867,1.180434503920123,non_fall
7.514017,-0.9015,0.4321,0.6497,-1.127,-0.951,0.5083,44.6625,8.1,-19.1625,,0.019236999999999504,1.1922762892886867,1.28460793939715,non_fall
7.53285,-0.9015,0.4321,0.6497,-1.2995,-0.022,0.4326,44.6625,8.1,-19.1625,,0.018832999999999878,1.1922762892886867,1.3638246452299512,non_fall
7.554996,-0.9015,0.4321,0.6497,-1.2995,-0.022,0.4326,44.6625,8.1,-19.1625,,0.02214600000000022,1.1922762892886867,1.4015177301792523,non_fall
7.557454,0.2776,-0.7718,-1.6076,-1.2995,-0.022,0.4326,44.6625,8.1,-19.1625,,0.002457999999999849,1.8047478383419662,1.3857800506550384,non_fall
7.574449,0.2776,-0.7718,-1.6076,-1.2995,-0.022,0.4326,44.775,7.2188,-19.3125,,0.016995000000000537,1.8047478383419662,1.3126493184812202,non_fall
7.594532,0.2776,-0.7718,-1.6076,-1.1143,0.1246,0.1799,44.775,7.2188,-19.3125,,0.02008299999999963,1.8047478383419662,1.1878160923170291,non_fall
7.614216,-0.1786,0.2521,0.3423,-1.1143,0.1246,0.1799,44.775,7.2188,-19.3125,,0.019683999999999813,0.4611091627803551,1.0259312385280788,non_fall
7.617046,-0.1786,0.2521,0.3423,-1.1143,0.1246,0.1799,44.775,7.2188,-19.3125,,0.0028300000000003322,0.4611091627803551,0.8474877753610812,non_fall
7.635462,-0.1786,0.2521,0.3423,-1.1143,0.1246,0.1799,44.9625,6.6,-19.425,,0.01841600000000021,0.4611091627803551,0.6742653700211836,non_fall
7.655129,-0.1786,0.2521,0.3423,-0.9743,0.1549,0.1731,44.9625,6.6,-19.425,,0.019666999999999213,0.4611091627803551,0.5248846799664719,non_fall
7.675134,-0.1786,0.2521,0.3423,-0.9743,0.1549,0.1731,44.9625,6.6,-19.425,,0.020005000000000273,0.4611091627803551,0.41177105661178376,non_fall
7.677472,-0.3855,0.0013,0.039,-0.9743,0.1549,0.1731,44.9625,6.6,-19.425,,0.0023379999999999512,0.38746992141326275,0.34005458537313893,non_fall
7.694289,-0.3855,0.0013,0.039,-0.9743,0.1549,0.1731,45.075,6.0563,-19.575,,0.016817000000000526,0.38746992141326275,0.30818622121803335,non_fall
7.715718,-0.3855,0.0013,0.039,-0.8614,0.343,0.0783,45.075,6.0563,-19.575,,0.021428999999999476,0.38746992141326275,0.30964577534373283,non_fall
7.735845,-0.3855,0.0013,0.039,-0.8614,0.343,0.0783,45.075,6.0563,-19.575,,0.02012700000000045,0.38746992141326275,0.3350531628551945,non_fall
7.756954,-0.3855,0.0013,0.039,-0.8614,0.343,0.0783,45.1313,5.85,-19.5,,0.021109000000000044,0.38746992141326275,0.37413640991277186,non_fall
7.760502,0.2202,-0.1473,-0.3328,-0.8614,0.343,0.0783,45.1313,5.85,-19.5,,0.0035479999999994405,0.42537180207437353,0.4172371650307817,non_fall
7.775929,0.2202,-0.1473,-0.3328,-0.8057,0.724,0.2027,45.1313,5.85,-19.5,,0.015426999999999857,0.42537180207437353,0.4562630125163918,non_fall
7.796969,0.2202,-0.1473,-0.3328,-0.8057,0.724,0.2027,45.1313,5.85,-19.5,,0.02104000000000017,0.42537180207437353,0.4851700134361874,non_fall
7.817428,0.2202,-0.1473,-0.3328,-0.8057,0.724,0.2027,45.1688,5.5875,-19.4062,,0.020458999999999783,0.42537180207437353,0.5001474237282844,non_fall
7.820272,0.4711,-0.1549,-0.2085,-0.8057,0.724,0.2027,45.1688,5.5875,-19.4062,,0.002844000000000513,0.5379604725256308,0.49966919350303896,non_fall
7.837692,0.4711,-0.1549,-0.2085,-0.6455,0.5902,0.2349,45.1688,5.5875,-19.4062,,0.017419999999999547,0.5379604725256308,0.48448599267060816,non_fall
7.858717,0.4711,-0.1549,-0.2085,-0.6455,0.5902,0.2349,45.1688,5.5875,-19.4062,,0.021025000000000738,0.5379604725256308,0.4575066171694662,non_fall
7.87434,0.4711,-0.1549,-0.2085,-0.6455,0.5902,0.2349,45.4125,5.4375,-18.9563,,0.01562299999999972,0.5379604725256308,0.4234413414043896,non_fall
7.877656,0.262,0.0104,0.0211,-0.6455,0.5902,0.2349,45.4125,5.4375,-18.9563,,0.0033159999999998746,0.2630539298318883,0.38811996968939955,non_fall
7.898734,0.262,0.0104,0.0211,-0.5626,0.8755,0.4997,45.4125,5.4375,-18.9563,,0.021078000000000152,0.2630539298318883,0.35754933165514347,non_fall
7.917968,0.262,0.0104,0.0211,-0.5626,0.8755,0.4997,45.4125,5.4375,-18.9563,,0.019233999999999973,0.2630539298318883,0.3369456925010064,non_fall
7.933753,0.262,0.0104,0.0211,-0.5626,0.8755,0.4997,45.6,5.3438,-18.2063,,0.01578500000000016,0.2630539298318883,0.33003807450107225,non_fall
7.95946,0.2189,0.0549,-0.3996,-0.5626,0.8755,0.4997,45.6,5.3438,-18.2063,,0.025706999999999702,0.4589241549537353,0.33882490424006445,non_fall
7.961516,0.2189,0.0549,-0.3996,-0.4663,0.4193,0.4309,45.6,5.3438,-18.2063,,0.0020559999999996137,0.4589241549537353,0.3637411738983558,non_fall
7.979468,0.2189,0.0549,-0.3996,-0.4663,0.4193,0.4309,45.6,5.3438,-18.2063,,0.01795200000000019,0.4589241549537353,0.4040007890773724,non_fall
7.994544,0.2189,0.0549,-0.3996,-0.4663,0.4193,0.4309,45.8813,5.2688,-16.95,,0.015076000000000533,0.4589241549537353,0.4578399764438159,non_fall
8.020713,0.2189,0.0549,-0.3996,-0.4117,0.4353,0.3386,45.8813,5.2688,-16.95,,0.02616900000000033,0.4589241549537353,0.522518395491088,non_fall
8.024581,0.0771,0.0069,-0.599,-0.4117,0.4353,0.3386,45.8813,5.2688,-16.95,,0.0038679999999988723,0.603980976521612,0.5941408222007025,non_fall
8.041885,0.0771,0.0069,-0.599,-0.4117,0.4353,0.3386,45.8813,5.2688,-16.95,,0.017304000000001096,0.603980976521612,0.6675192027415903,non_fall
8.0543,0.0771,0.0069,-0.599,-0.4117,0.4353,0.3386,46.35,5.0813,-15.5625,,0.012414999999998955,0.603980976521612,0.7363376129093745,non_fall
8.081711,0.0771,0.0069,-0.599,-0.2664,0.3266,0.1582,46.35,5.0813,-15.5625,,0.02741100000000074,0.603980976521612,0.7938143773978645,non_fall
8.083637,-0.8108,0.0522,-0.6191,-0.2664,0.3266,0.1582,46.35,5.0813,-15.5625,,0.0019259999999992061,1.0214726085412178,0.833888240541899,non_fall
8.101669,-0.8108,0.0522,-0.6191,-0.2664,0.3266,0.1582,46.35,5.0813,-15.5625,,0.018031999999999826,1.0214726085412178,0.8526995641808224,non_fall
8.114072,-0.8108,0.0522,-0.6191,-0.2664,0.3266,0.1582,46.6875,4.725,-14.1938,,0.01240300000000083,1.0214726085412178,0.8498779243220679,non_fall
8.143753,-0.8108,0.0522,-0.6191,-0.0272,0.1943,-0.004,46.6875,4.725,-14.1938,,0.02968100000000007,1.0214726085412178,0.8290604607989974,non_fall
8.147509,-0.5025,0.1214,-0.324,-0.0272,0.1943,-0.004,46.6875,4.725,-14.1938,,0.0037559999999992044,0.6100985248302113,0.797278764799327,non_fall
8.162316,-0.5025,0.1214,-0.324,-0.0272,0.1943,-0.004,46.6875,4.725,-14.1938,,0.014807000000001125,0.6100985248302113,0.7633007424273178,non_fall
8.174042,-0.5025,0.1214,-0.324,-0.0272,0.1943,-0.004,46.875,4.2188,-12.6938,,0.011725999999999459,0.6100985248302113,0.7354628527415862,non_fall
8.203782,-0.5025,0.1214,-0.324,0.2256,0.2614,-0.0278,46.875,4.2188,-12.6938,,0.02974000000000032,0.6100985248302113,0.7197312107536623,non_fall
8.224172,-0.3906,0.1096,-0.6645,0.2256,0.2614,-0.0278,46.875,4.2188,-12.6938,,0.02038999999999902,0.7785504286814053,0.7185935532763587,non_fall
8.225889,-0.3906,0.1096,-0.6645,0.2256,0.2614,-0.0278,46.875,4.2188,-12.6938,,0.0017170000000010788,0.7785504286814053,0.7310181083593696,non_fall
8.235393,-0.3906,0.1096,-0.6645,0.2256,0.2614,-0.0278,47.2688,3.6563,-11.325,,0.009503999999999735,0.7785504286814053,0.7533325658272918,non_fall
8.266654,-0.3906,0.1096,-0.6645,0.474,0.1137,-0.1744,47.2688,3.6563,-11.325,,0.03126100000000065,0.7785504286814053,0.7806399299962259,non_fall
8.285205,-0.3906,0.1096,-0.6645,0.474,0.1137,-0.1744,47.2688,3.6563,-11.325,,0.018550999999998652,0.7785504286814053,0.8083336329627744,non_fall
8.287647,-0.2335,0.0158,-0.95,0.474,0.1137,-0.1744,47.2688,3.6563,-11.325,,0.0024420000000002773,0.9784027238310409,0.8333313832130886,non_fall
8.293508,-0.2335,0.0158,-0.95,0.474,0.1137,-0.1744,47.625,3.3375,-10.0688,,0.00586099999999945,0.9784027238310409,0.8547306806948066,non_fall
8.3265,-0.2335,0.0158,-0.95,0.6409,0.1617,-0.2731,47.625,3.3375,-10.0688,,0.03299200000000013,0.9784027238310409,0.8736880182627957,non_fall
8.346366,-0.0127,0.1469,-0.7686,0.6409,0.1617,-0.2731,47.625,3.3375,-10.0688,,0.019866000000000383,0.7826153972418379,0.8924966224496715,non_fall
8.348231,-0.0127,0.1469,-0.7686,0.6409,0.1617,-0.2731,47.625,3.3375,-10.0688,,0.0018650000000004496,0.7826153972418379,0.9131066191929241,non_fall
8.356763,-0.0127,0.1469,-0.7686,0.6409,0.1617,-0.2731,47.8875,3.1688,-9.1688,,0.00853200000000065,0.7826153972418379,0.9356008503854045,non_fall
8.388938,-0.0127,0.1469,-0.7686,0.7201,-0.0322,-0.4133,47.8875,3.1688,-9.1688,,0.03217499999999873,0.7826153972418379,0.9572450508708321,non_fall
8.407514,-0.6071,0.3695,-0.7453,0.7201,-0.0322,-0.4133,47.8875,3.1688,-9.1688,,0.018576000000001258,1.029841128524201,0.9725750589345065,non_fall
8.410745,-0.6071,0.3695,-0.7453,0.7201,-0.0322,-0.4133,47.8875,3.1688,-9.1688,,0.00323099999999954,1.029841128524201,0.9746127930340068,non_fall
8.41529,-0.6071,0.3695,-0.7453,0.7201,-0.0322,-0.4133,48.15,3.375,-8.3813,,0.004545000000000243,1.029841128524201,0.9568760947364413,non_fall
8.44691,-0.6071,0.3695,-0.7453,0.7922,-0.0276,-0.3373,48.15,3.375,-8.3813,,0.031620000000000203,1.029841128524201,0.9155440888899682,non_fall
8.468185,-0.6071,0.3695,-0.7453,0.7922,-0.0276,-0.3373,48.15,3.375,-8.3813,,0.021274999999999267,1.029841128524201,0.8510632808176547,non_fall
8.474849,-0.6071,0.3695,-0.7453,0.7922,-0.0276,-0.3373,48.225,3.6375,-7.8563,,0.006664000000000669,1.029841128524201,0.7686301474479147,non_fall
8.487542,-0.0708,0.1468,-0.3783,0.7922,-0.0276,-0.3373,48.225,3.6375,-7.8563,,0.012692999999998733,0.4119147605998115,0.6773157762219278,non_fall
8.507261,-0.0708,0.1468,-0.3783,0.5597,0.2561,-0.1957,48.225,3.6375,-7.8563,,0.019719000000000264,0.4119147605998115,0.5880423924401563,non_fall
8.527338,-0.0708,0.1468,-0.3783,0.5597,0.2561,-0.1957,48.225,3.6375,-7.8563,,0.020077000000000567,0.4119147605998115,0.5110383143540284,non_fall
8.531968,-0.0708,0.1468,-0.3783,0.5597,0.2561,-0.1957,48.2063,4.05,-7.3875,,0.004630000000000578,0.4119147605998115,0.4535745120016785,non_fall
8.549586,0.2385,0.3339,0.0878,0.5597,0.2561,-0.1957,48.2063,4.05,-7.3875,,0.0176179999999988,0.41961923216173014,0.4186181954292616,non_fall
8.567482,0.2385,0.3339,0.0878,0.1823,0.2099,-0.167,48.2063,4.05,-7.3875,,0.017896000000000356,0.41961923216173014,0.4046546755480806,non_fall
8.58974,0.2385,0.3339,0.0878,0.1823,0.2099,-0.167,48.2063,4.05,-7.3875,,0.022258000000000777,0.41961923216173014,0.4065582309232691,non_fall
8.593948,0.2385,0.3339,0.0878,0.1823,0.2099,-0.167,48.1313,4.5375,-7.0125,,0.004207999999998435,0.41961923216173014,0.417167389177661,non_fall
8.608131,-0.065,0.3055,0.3823,0.1823,0.2099,-0.167,48.1313,4.5375,-7.0125,,0.014183000000000945,0.49366845149350996,0.4291367570884368,non_fall
8.629087,-0.065,0.3055,0.3823,-0.0851,0.2727,-0.1346,48.1313,4.5375,-7.0125,,0.020955999999999975,0.49366845149350996,0.4366427731082149,non_fall
8.649707,-0.065,0.3055,0.3823,-0.0851,0.2727,-0.1346,48.1313,4.5375,-7.0125,,0.020619999999999195,0.49366845149350996,0.4365791707367952,non_fall
8.652273,-0.065,0.3055,0.3823,-0.0851,0.2727,-0.1346,48.2625,5.1938,-6.5813,,0.002565999999999846,0.49366845149350996,0.4289857060366311,non_fall
8.691945,-0.065,0.3055,0.3823,-0.2445,0.3139,-0.1858,48.2625,5.1938,-6.5813,,0.03967200000000126,0.49366845149350996,0.4166153032534784,non_fall
8.696637,0.2113,0.0521,0.1976,-0.2445,0.3139,-0.1858,48.2625,5.1938,-6.5813,,0.0046920000000003625,0.29395213896143024,0.40374906318621695,non_fall
8.710078,0.2113,0.0521,0.1976,-0.2445,0.3139,-0.1858,48.2625,5.1938,-6.5813,,0.013440999999998482,0.29395213896143024,0.3945808756332179,non_fall
8.713039,0.2113,0.0521,0.1976,-0.2445,0.3139,-0.1858,48.2438,5.85,-6.225,,0.0029610000000008796,0.29395213896143024,0.3916496167712448,non_fall
8.75186,0.2113,0.0521,0.1976,-0.0077,0.0334,-0.3108,48.2438,5.85,-6.225,,0.03882100000000044,0.29395213896143024,0.3948166609386081,non_fall
8.754347,-0.4136,-0.0347,0.1353,-0.0077,0.0334,-0.3108,48.2438,5.85,-6.225,,0.0024869999999985737,0.4365491266741923,0.4011300427086727,non_fall
8.771566,-0.4136,-0.0347,0.1353,-0.0077,0.0334,-0.3108,48.2438,5.85,-6.225,,0.01721900000000076,0.4365491266741923,0.4056335177375422,non_fall
8.773947,-0.4136,-0.0347,0.1353,-0.0077,0.0334,-0.3108,48.0938,6.6,-5.925,,0.0023809999999997444,0.4365491266741923,0.4028833826674451,non_fall
8.813205,-0.4136,-0.0347,0.1353,0.08,-0.2402,-0.1798,48.0938,6.6,-5.925,,0.03925800000000024,0.4365491266741923,0.38873659975019464,non_fall
8.815309,-0.2223,-0.0266,-0.3337,0.08,-0.2402,-0.1798,48.0938,6.6,-5.925,,0.0021039999999992176,0.40184641344672967,0.36191662065059427,non_fall
8.831237,-0.2223,-0.0266,-0.3337,0.08,-0.2402,-0.1798,48.0938,6.6,-5.925,,0.01592800000000061,0.40184641344672967,0.3249256504504772,non_fall
8.833596,-0.2223,-0.0266,-0.3337,0.08,-0.2402,-0.1798,47.8875,7.2938,-5.4563,,0.002359000000000222,0.40184641344672967,0.2840056994686948,non_fall
8.876681,-0.2223,-0.0266,-0.3337,0.0577,0.0686,-0.0939,47.8875,7.2938,-5.4563,,0.043084999999999596,0.40184641344672967,0.24803139463295817,non_fall
8.879146,0.0124,0.0126,0.0908,0.0577,0.0686,-0.0939,47.8875,7.2938,-5.4563,,0.0024650000000008276,0.09250491878813796,0.22645394482281883,non_fall
8.894514,0.0124,0.0126,0.0908,0.0577,0.0686,-0.0939,47.8875,7.2938,-5.4563,,0.015367999999998716,0.09250491878813796,0.22670669391768344,non_fall
8.896138,0.0124,0.0126,0.0908,0.0577,0.0686,-0.0939,47.6813,7.7813,-5.1188,,0.001624000000001402,0.09250491878813796,0.2517547183682172,non_fall
8.935474,0.0124,0.0126,0.0908,-0.0304,0.2791,-0.0494,47.6813,7.7813,-5.1188,,0.039335999999998705,0.09250491878813796,0.2985806558711893,non_fall
8.955952,0.0124,0.0126,0.0908,-0.0304,0.2791,-0.0494,47.6813,7.7813,-5.1188,,0.020478000000000662,0.09250491878813796,0.3582347540018845,non_fall
8.958582,0.6631,-0.0232,-0.031,-0.0304,0.2791,-0.0494,47.6813,7.7813,-5.1188,,0.00262999999999991,0.6642295160560091,0.4176452239417779,non_fall
8.9599,0.6631,-0.0232,-0.031,-0.0304,0.2791,-0.0494,47.6438,8.1375,-4.5938,,0.0013179999999994862,0.6642295160560091,0.4628036375306679,non_fall
8.996186,0.6631,-0.0232,-0.031,0.0236,0.2113,-0.0387,47.6438,8.1375,-4.5938,,0.036286000000000485,0.6642295160560091,0.48241508859037563,non_fall
9.015861,0.6631,-0.0232,-0.031,0.0236,0.2113,-0.0387,47.6625,8.4563,-4.2,,0.019674999999999443,0.6642295160560091,0.4708770127786918,non_fall
9.018793,0.6631,-0.0232,-0.031,0.0236,0.2113,-0.0387,47.6625,8.4563,-4.2,,0.002932000000001267,0.6642295160560091,0.4296555468231785,non_fall
9.019675,0.0109,0.088,0.0354,0.0236,0.2113,-0.0387,47.6625,8.4563,-4.2,,0.0008819999999989392,0.09547758899343867,0.3666787932964106,non_fall
9.059407,0.0109,0.088,0.0354,0.0459,-0.0815,-0.0455,47.6625,8.4563,-4.2,,0.03973200000000077,0.09547758899343867,0.2940357447689268,non_fall
9.077013,0.0109,0.088,0.0354,0.0459,-0.0815,-0.0455,47.6625,8.4563,-4.2,,0.017606000000000677,0.09547758899343867,0.22480516676432755,non_fall
9.078666,0.0109,0.088,0.0354,0.0459,-0.0815,-0.0455,47.7188,8.9625,-3.825,,0.0016529999999992384,0.09547758899343867,0.17002817380943708,non_fall
9.07993,-0.1217,-0.0364,-0.1082,0.0459,-0.0815,-0.0455,47.7188,8.9625,-3.825,,0.0012639999999990437,0.16686248829500297,0.13662202557467423,non_fall
9.115392,-0.1217,-0.0364,-0.1082,0.0146,-0.0435,0.0233,47.7188,8.9625,-3.825,,0.03546200000000077,0.16686248829500297,0.1265746549767172,non_fall
9.133687,-0.1217,-0.0364,-0.1082,0.0146,-0.0435,0.0233,47.6813,9.3,-3.6,,0.018295000000000172,0.16686248829500297,0.13731930909250814,non_fall
9.136136,-0.1217,-0.0364,-0.1082,0.0146,-0.0435,0.0233,47.6813,9.3,-3.6,,0.0024490000000003675,0.16686248829500297,0.1629293565980732,non_fall
9.156229,0.1798,-0.0107,-0.1796,0.0146,-0.0435,0.0233,47.6813,9.3,-3.6,,0.02009299999999925,0.25435937175578965,0.1957063045563518,non_fall
9.178222,0.1798,-0.0107,-0.1796,0.0427,-0.0258,0.0425,47.6813,9.3,-3.6,,0.02199300000000015,0.25435937175578965,0.22778707814385693,non_fall
9.193763,0.1798,-0.0107,-0.1796,0.0427,-0.0258,0.0425,47.55,9.525,-3.5438,,0.015541000000000693,0.25435937175578965,0.2524967346550941,non_fall
9.195986,0.1798,-0.0107,-0.1796,0.0427,-0.0258,0.0425,47.55,9.525,-3.5438,,0.002222999999998976,0.25435937175578965,0.2652841929607128,non_fall
9.217602,0.2114,-0.0287,0.1451,0.0427,-0.0258,0.0425,47.55,9.525,-3.5438,,0.021615999999999858,0.2580070929257566,0.26418528148402387,non_fall
9.237916,0.2114,-0.0287,0.1451,0.0519,-0.1909,0.0435,47.55,9.525,-3.5438,,0.02031400000000083,0.2580070929257566,0.24983858953572438,non_fall
9.254171,0.2114,-0.0287,0.1451,0.0519,-0.1909,0.0435,47.475,9.6188,-3.5063,,0.016254999999999242,0.2580070929257566,0.2251200581749713,non_fall
9.258752,0.2114,-0.0287,0.1451,0.0519,-0.1909,0.0435,47.475,9.6188,-3.5063,,0.004580999999999946,0.2580070929257566,0.1944740070912696,non_fall
9.2787,0.0577,-0.0195,-0.0521,0.0519,-0.1909,0.0435,47.475,9.6188,-3.5063,,0.019948000000001187,0.08014954772174325,0.16303491511284163,non_fall
9.299297,0.0577,-0.0195,-0.0521,0.0463,-0.2722,0.0687,47.475,9.6188,-3.5063,,0.020596999999998644,0.08014954772174325,0.13567822626859186,non_fall
9.314608,0.0577,-0.0195,-0.0521,0.0463,-0.2722,0.0687,47.4938,9.6938,-3.75,,0.015311000000000519,0.08014954772174325,0.11618846209385691,non_fall
9.322298,0.0577,-0.0195,-0.0521,0.0463,-0.2722,0.0687,47.4938,9.6938,-3.75,,0.007690000000000197,0.08014954772174325,0.1067320931765335,non_fall
9.339244,0.1074,-0.0226,-0.1064,0.0463,-0.2722,0.0687,47.4938,9.6938,-3.75,,0.016946000000000794,0.152860982595298,0.1077374224156332,non_fall
9.35976,0.1074,-0.0226,-0.1064,0.004,-0.0127,0.084,47.4938,9.6938,-3.75,,0.02051599999999887,0.152860982595298,0.1181479545984552,non_fall
9.374266,0.1074,-0.0226,-0.1064,0.004,-0.0127,0.084,47.5875,9.6562,-3.8063,,0.014506000000000796,0.152860982595298,0.13590301646099037,non_fall
9.378476,0.1074,-0.0226,-0.1064,0.004,-0.0127,0.084,47.5875,9.6562,-3.8063,,0.004209999999998715,0.152860982595298,0.1584624832521731,non_fall
9.42109,0.1899,-0.0233,-0.0943,0.004,-0.0127,0.084,47.5875,9.6562,-3.8063,,0.042614000000000374,0.21330117205491395,0.18323142477659618,non_fall
9.423178,0.1899,-0.0233,-0.0943,0.0651,0.0779,0.1153,47.5875,9.6562,-3.8063,,0.002088000000000534,0.21330117205491395,0.20781581680235892,non_fall
9.433882,0.1899,-0.0233,-0.0943,0.0651,0.0779,0.1153,47.475,9.7313,-4.0312,,0.010704000000000491,0.21330117205491395,0.23011262768535135,non_fall
9.440181,0.1899,-0.0233,-0.0943,0.0651,0.0779,0.1153,47.475,9.7313,-4.0312,,0.006299000000000277,0.21330117205491395,0.24829180681673974,non_fall
9.480714,0.1899,-0.0233,-0.0943,0.0679,0.0892,0.0265,47.475,9.7313,-4.0312,,0.04053299999999993,0.21330117205491395,0.2607599056515754,non_fall
9.482928,-0.0481,0.1416,0.2424,0.0679,0.0892,0.0265,47.475,9.7313,-4.0312,,0.002213999999998606,0.284819118038098,0.26619197959889723,non_fall
9.493651,-0.0481,0.1416,0.2424,0.0679,0.0892,0.0265,47.5125,9.7688,-4.1625,,0.010723000000000482,0.284819118038098,0.26366970158711134,non_fall
9.501965,-0.0481,0.1416,0.2424,0.0679,0.0892,0.0265,47.5125,9.7688,-4.1625,,0.008314000000000377,0.284819118038098,0.2528878290725406,non_fall
9.541625,-0.0481,0.1416,0.2424,-0.018,-0.3599,0.0226,47.5125,9.7688,-4.1625,,0.039659999999999584,0.284819118038098,0.23433379972695612,non_fall
9.543786,-0.1002,-0.109,0.0369,-0.018,-0.3599,0.0226,47.5125,9.7688,-4.1625,,0.0021610000000009677,0.15258653282645884,0.20934466359973228,non_fall
9.552757,-0.1002,-0.109,0.0369,-0.018,-0.3599,0.0226,47.4375,9.5813,-4.425,,0.008970999999998952,0.15258653282645884,0.18000110157450352,non_fall
9.560956,-0.1002,-0.109,0.0369,-0.018,-0.3599,0.0226,47.4375,9.5813,-4.425,,0.008198999999999401,0.15258653282645884,0.1488881060430795,non_fall
