time,ax,ay,az,wx,wy,wz,Bx,By,Bz,Unnamed: 10,time_diff,acc_mag,acc_mag_filtered,label
0.072648,0.0,0.0,0.0,-0.0101,0.0461,0.0518,0.0,0.0,0.0,,0.0,0.0,-6.703865633814393e-05,non_fall
0.072903,0.0,0.0,0.0,-0.0005,0.0652,0.0433,0.0,0.0,0.0,,0.00025499999999999134,0.0,-6.874732110388556e-05,non_fall
0.124596,0.0,0.0,0.0,-0.0005,0.0652,0.0433,41.475,12.6,24.15,,0.051693,0.0,-5.165551677247759e-05,non_fall
0.163228,0.0,0.0,0.0,0.0023,-0.0055,0.0013,41.475,12.6,24.15,,0.038632000000000014,0.0,-1.2539629326766667e-05,non_fall
0.184801,0.0,0.0,0.0,0.0023,-0.0055,0.0013,41.1188,12.375,23.7938,,0.02157299999999998,0.0,4.685736920290379e-05,non_fall
0.225865,0.0,0.0,0.0,-0.0031,-0.0065,-0.0025,41.1188,12.375,23.7938,,0.04106400000000002,0.0,0.00011814518096043831,non_fall
0.244221,0.0,0.0,0.0,-0.0031,-0.0065,-0.0025,41.1188,12.375,23.7938,,0.018355999999999983,0.0,0.00018580136405092892,non_fall
0.244657,0.0,0.0,0.0,-0.0031,-0.0065,-0.0025,41.1562,12.5063,23.5125,,0.0004360000000000197,0.0,0.00022857172548465386,non_fall
0.284241,0.0,0.0,0.0,-0.0027,-0.0061,-0.0025,41.1562,12.5063,23.5125,,0.03958400000000001,0.0,0.0002232231264105505,non_fall
0.304467,0.0,0.0,0.0,-0.0027,-0.0061,-0.0025,41.1562,12.5063,23.5125,,0.020225999999999966,0.0,0.00015067121691134626,non_fall
0.305324,0.0,0.0,0.0,-0.0027,-0.0061,-0.0025,41.1188,12.825,23.2125,,0.0008569999999999967,0.0,3.87196901349533e-06,non_fall
0.345341,0.0,0.0,0.0,0.0019,-0.008,-0.0075,41.1188,12.825,23.2125,,0.040017000000000025,0.0,-0.00020385392120436728,non_fall
0.346689,0.0,0.0,0.0,0.0019,-0.008,-0.0075,41.1188,12.825,23.2125,,0.0013480000000000159,0.0,-0.00043202928917971447,non_fall
0.364886,0.0,0.0,0.0,0.0019,-0.008,-0.0075,41.2125,12.7313,23.175,,0.018196999999999963,0.0,-0.0006100588006443248,non_fall
0.366104,0.0,0.0,0.0,0.0019,-0.008,-0.0075,41.2125,12.7313,23.175,,0.0012179999999999969,0.0,-0.0006402084823146463,non_fall
0.406641,0.0,0.0,0.0,0.0005,-0.0101,-0.0115,41.2125,12.7313,23.175,,0.04053699999999999,0.0,-0.0004077943184944172,non_fall
0.425797,0.0,0.0,0.0,0.0005,-0.0101,-0.0115,41.2688,12.7313,23.2688,,0.019156000000000006,0.0,0.00020162314826546778,non_fall
0.42771,0.0,0.0,0.0,0.0005,-0.0101,-0.0115,41.2688,12.7313,23.2688,,0.001912999999999998,0.0,0.0012800445771551329,non_fall
0.428426,-0.0045,-0.0002,0.0011,0.0005,-0.0101,-0.0115,41.2688,12.7313,23.2688,,0.0007159999999999944,0.004636809247747851,0.0028734100839662383,non_fall
0.467806,-0.0045,-0.0002,0.0011,-0.0037,-0.0313,-0.0107,41.2688,12.7313,23.2688,,0.039380000000000026,0.004636809247747851,0.004960921716124797,non_fall
0.485497,-0.0045,-0.0002,0.0011,-0.0037,-0.0313,-0.0107,41.3438,12.6938,23.4563,,0.017691000000000012,0.004636809247747851,0.007441747582709042,non_fall
0.487049,-0.009,0.0017,0.0071,-0.0037,-0.0313,-0.0107,41.3438,12.6938,23.4563,,0.0015519999999999978,0.011588787684654508,0.010133312671138872,non_fall
0.488045,-0.009,0.0017,0.0071,-0.0037,-0.0313,-0.0107,41.3438,12.6938,23.4563,,0.0009959999999999969,0.011588787684654508,0.012784822050094399,non_fall
0.528983,-0.009,0.0017,0.0071,-0.0169,-0.0232,-0.0011,41.3438,12.6938,23.4563,,0.040937999999999974,0.011588787684654508,0.015108266539869228,non_fall
0.544819,-0.009,0.0017,0.0071,-0.0169,-0.0232,-0.0011,41.5125,12.6938,23.5875,,0.015836000000000072,0.011588787684654508,0.01682667617737521,non_fall
0.549916,0.0155,0.0052,0.0144,-0.0169,-0.0232,-0.0011,41.5125,12.6938,23.5875,,0.005096999999999907,0.021786463687344947,0.017735452657757448,non_fall
0.550421,0.0155,0.0052,0.0144,-0.0169,-0.0232,-0.0011,41.5125,12.6938,23.5875,,0.0005050000000000887,0.021786463687344947,0.01776660754880861,non_fall
0.589844,0.0155,0.0052,0.0144,-0.0233,-0.0451,0.0035,41.5125,12.6938,23.5875,,0.039422999999999986,0.021786463687344947,0.017038965509353788,non_fall
0.605162,0.0155,0.0052,0.0144,-0.0233,-0.0451,0.0035,41.6063,12.7313,23.5312,,0.015317999999999943,0.021786463687344947,0.015874225360540454,non_fall
0.609405,0.0155,0.0052,0.0144,-0.0233,-0.0451,0.0035,41.6063,12.7313,23.5312,,0.004242999999999997,0.021786463687344947,0.014763341123262705,non_fall
0.60989,0.0069,0.0025,0.0056,-0.0233,-0.0451,0.0035,41.6063,12.7313,23.5312,,0.0004850000000000687,0.009231467922275418,0.014280264503882995,non_fall
0.649185,0.0069,0.0025,0.0056,-0.019,-0.0221,0.0117,41.6063,12.7313,23.5312,,0.03929499999999997,0.009231467922275418,0.014957182327464286,non_fall
0.665094,0.0069,0.0025,0.0056,-0.019,-0.0221,0.0117,41.9438,12.7313,23.6063,,0.01590899999999995,0.009231467922275418,0.017151093973004617,non_fall
0.671263,0.0069,0.0025,0.0056,-0.019,-0.0221,0.0117,41.9438,12.7313,23.6063,,0.006169000000000091,0.009231467922275418,0.02093888778706741,non_fall
0.691695,0.0304,-0.0013,0.0162,-0.019,-0.0221,0.0117,41.9438,12.7313,23.6063,,0.020431999999999895,0.034471582499212304,0.026072205069137367,non_fall
0.711336,0.0304,-0.0013,0.0162,-0.0037,-0.0342,0.0237,41.9438,12.7313,23.6063,,0.01964100000000002,0.034471582499212304,0.03200583388428954,non_fall
0.72498,0.0304,-0.0013,0.0162,-0.0037,-0.0342,0.0237,42.1125,12.6938,23.8313,,0.01364399999999999,0.034471582499212304,0.03799240075317784,non_fall
0.731259,0.0304,-0.0013,0.0162,-0.0037,-0.0342,0.0237,42.1125,12.6938,23.8313,,0.0062790000000000346,0.034471582499212304,0.043221396017350006,non_fall
0.751859,0.0259,-0.0211,-0.047,-0.0037,-0.0342,0.0237,42.1125,12.6938,23.8313,,0.020600000000000063,0.0576629863950871,0.04697500944316592,non_fall
0.774524,0.0259,-0.0211,-0.047,-0.0005,-0.0494,0.0352,42.1125,12.6938,23.8313,,0.022664999999999935,0.0576629863950871,0.04877168264815517,non_fall
0.784964,0.0259,-0.0211,-0.047,-0.0005,-0.0494,0.0352,42.3938,12.5625,23.85,,0.010440000000000005,0.0576629863950871,0.04846696996045406,non_fall
0.791865,0.0259,-0.0211,-0.047,-0.0005,-0.0494,0.0352,42.3938,12.5625,23.85,,0.006901000000000046,0.0576629863950871,0.04628511749291698,non_fall
0.812812,0.0277,-0.0035,0.0001,-0.0005,-0.0494,0.0352,42.3938,12.5625,23.85,,0.020946999999999938,0.027920422632904396,0.042770507083542214,non_fall
0.833374,0.0277,-0.0035,0.0001,0.0104,-0.0292,0.0461,42.3938,12.5625,23.85,,0.02056199999999997,0.027920422632904396,0.03867365153873206,non_fall
0.845635,0.0277,-0.0035,0.0001,0.0104,-0.0292,0.0461,42.6938,12.5063,23.9625,,0.012261000000000077,0.027920422632904396,0.0348095217799717,non_fall
0.853962,0.0277,-0.0035,0.0001,0.0104,-0.0292,0.0461,42.6938,12.5063,23.9625,,0.008326999999999973,0.027920422632904396,0.031932861809389444,non_fall
0.894838,0.0277,-0.0035,0.0001,0.0264,-0.102,0.0667,42.6938,12.5063,23.9625,,0.04087600000000002,0.027920422632904396,0.03066136098163438,non_fall
0.896149,0.0267,-0.0161,-0.0312,0.0264,-0.102,0.0667,42.6938,12.5063,23.9625,,0.001310999999999951,0.044108275867460515,0.03145145016170421,non_fall
0.90463,0.0267,-0.0161,-0.0312,0.0264,-0.102,0.0667,42.9188,12.3563,23.925,,0.008481000000000072,0.044108275867460515,0.034606929528988174,non_fall
0.915504,0.0267,-0.0161,-0.0312,0.0264,-0.102,0.0667,42.9188,12.3563,23.925,,0.01087399999999994,0.044108275867460515,0.04028837026981765,non_fall
0.956016,0.0437,-0.0152,-0.0345,0.0264,-0.102,0.0667,42.9188,12.3563,23.925,,0.04051199999999999,0.05771464285603785,0.048495929982608904,non_fall
0.957819,0.0437,-0.0152,-0.0345,0.0651,-0.1439,0.072,42.9188,12.3563,23.925,,0.001802999999999999,0.05771464285603785,0.05901776368623742,non_fall
0.96619,0.0437,-0.0152,-0.0345,0.0651,-0.1439,0.072,42.9938,12.225,23.7,,0.008371000000000017,0.05771464285603785,0.07136255311408042,non_fall
0.975321,0.0437,-0.0152,-0.0345,0.0651,-0.1439,0.072,42.9938,12.225,23.7,,0.009131,0.05771464285603785,0.08471739555146084,non_fall
1.016407,0.0437,-0.0152,-0.0345,0.0988,-0.1431,0.1111,42.9938,12.225,23.7,,0.04108600000000007,0.05771464285603785,0.09798020404772666,non_fall
1.017842,0.1449,-0.0128,0.0295,0.0988,-0.1431,0.1111,42.9938,12.225,23.7,,0.001434999999999853,0.1484254021385827,0.10989750169264227,non_fall
1.024509,0.1449,-0.0128,0.0295,0.0988,-0.1431,0.1111,42.9938,11.9813,23.4563,,0.0066669999999999785,0.1484254021385827,0.11929167542530383,non_fall
1.036156,0.1449,-0.0128,0.0295,0.0988,-0.1431,0.1111,42.9938,11.9813,23.4563,,0.011647000000000185,0.1484254021385827,0.1253072038787432,non_fall
1.07733,0.1449,-0.0128,0.0295,0.0696,-0.1144,0.1824,42.9938,11.9813,23.4563,,0.04117399999999982,0.1484254021385827,0.12758167479449695,non_fall
1.079606,0.0965,0.0129,-0.0036,0.0696,-0.1144,0.1824,42.9938,11.9813,23.4563,,0.0022760000000001668,0.09742494547085978,0.1262781655507295,non_fall
1.084934,0.0965,0.0129,-0.0036,0.0696,-0.1144,0.1824,43.2,11.7938,23.25,,0.005327999999999999,0.09742494547085978,0.1219844601223008,non_fall
1.098087,0.0965,0.0129,-0.0036,0.0696,-0.1144,0.1824,43.2,11.7938,23.25,,0.01315299999999997,0.09742494547085978,0.11554824942251984,non_fall
1.13762,0.0965,0.0129,-0.0036,0.0633,0.0073,0.1618,43.2,11.7938,23.25,,0.03953300000000004,0.09742494547085978,0.10793874379632294,non_fall
1.144709,0.0965,0.0129,-0.0036,0.0633,0.0073,0.1618,43.1625,11.6063,23.0063,,0.007088999999999901,0.09742494547085978,0.10019574215237574,non_fall
1.159929,0.0965,0.0129,-0.0036,0.0633,0.0073,0.1618,43.1625,11.6063,23.0063,,0.015220000000000011,0.09742494547085978,0.09346753400183154,non_fall
1.161078,0.0211,0.0315,-0.1232,0.0633,0.0073,0.1618,43.1625,11.6063,23.0063,,0.0011490000000000666,0.1289019006842025,0.08907946416569462,non_fall
1.200053,0.0211,0.0315,-0.1232,0.0321,0.057,0.0955,43.1625,11.6063,23.0063,,0.03897499999999998,0.1289019006842025,0.08853895603240713,non_fall
1.204874,0.0211,0.0315,-0.1232,0.0321,0.057,0.0955,43.2563,11.4375,22.65,,0.004820999999999964,0.1289019006842025,0.09338556138458642,non_fall
1.218695,0.074,-0.0346,-0.0466,0.0321,0.057,0.0955,43.2563,11.4375,22.65,,0.013821000000000083,0.09404637154085213,0.10484542224231803,non_fall
1.219715,0.074,-0.0346,-0.0466,0.0321,0.057,0.0955,43.2563,11.4375,22.65,,0.0010200000000000209,0.09404637154085213,0.12334167798933603,non_fall
1.259872,0.074,-0.0346,-0.0466,-0.0506,0.0531,0.0262,43.2563,11.4375,22.65,,0.040157,0.09404637154085213,0.14801319630768112,non_fall
1.265451,0.074,-0.0346,-0.0466,-0.0506,0.0531,0.0262,43.2375,11.2125,22.7063,,0.005579000000000001,0.09404637154085213,0.17645500989823443,non_fall
1.281342,0.074,-0.0346,-0.0466,-0.0506,0.0531,0.0262,43.2375,11.2125,22.7063,,0.015890999999999877,0.09404637154085213,0.2048747578307349,non_fall
1.28232,-0.2862,0.0723,0.142,-0.0506,0.0531,0.0262,43.2375,11.2125,22.7063,,0.0009779999999999234,0.32756942775539966,0.22874493971898685,non_fall
1.320696,-0.2862,0.0723,0.142,-0.1188,0.0499,-0.0121,43.2375,11.2125,22.7063,,0.03837600000000019,0.32756942775539966,0.24384181844437666,non_fall
1.323966,-0.2862,0.0723,0.142,-0.1188,0.0499,-0.0121,43.1625,11.1,22.5938,,0.003269999999999884,0.32756942775539966,0.24737111589391256,non_fall
1.340896,-0.2862,0.0723,0.142,-0.1188,0.0499,-0.0121,43.1625,11.1,22.5938,,0.01693000000000011,0.32756942775539966,0.23879541918824113,non_fall
1.341752,-0.1241,0.0671,0.0737,-0.1188,0.0499,-0.0121,43.1625,11.1,22.5938,,0.0008559999999999679,0.1591694380212483,0.2200635383770667,non_fall
1.381933,-0.1241,0.0671,0.0737,-0.1049,0.0872,-0.0104,43.1625,11.1,22.5938,,0.04018100000000002,0.1591694380212483,0.19515870303887903,non_fall
1.38489,-0.1241,0.0671,0.0737,-0.1049,0.0872,-0.0104,43.0312,10.9313,22.5563,,0.0029569999999998764,0.1591694380212483,0.1691151392492365,non_fall
1.402802,-0.1241,0.0671,0.0737,-0.1049,0.0872,-0.0104,43.0312,10.9313,22.5563,,0.01791200000000015,0.1591694380212483,0.14679529477681338,non_fall
1.422408,0.0359,-0.0034,0.0682,-0.1049,0.0872,-0.0104,43.0312,10.9313,22.5563,,0.01960599999999979,0.07714667847678214,0.13174272950662494,non_fall
1.441859,0.0359,-0.0034,0.0682,0.0268,0.0372,-0.0338,43.0312,10.9313,22.5563,,0.019451000000000107,0.07714667847678214,0.12537298188072027,non_fall
1.443468,0.0359,-0.0034,0.0682,0.0268,0.0372,-0.0338,43.1063,10.7625,22.5938,,0.0016089999999999716,0.07714667847678214,0.12668911165489624,non_fall
1.463345,0.0359,-0.0034,0.0682,0.0268,0.0372,-0.0338,43.1063,10.7625,22.5938,,0.019876999999999923,0.07714667847678214,0.13261665814140638,non_fall
1.48271,0.0865,-0.1387,-0.1051,0.0268,0.0372,-0.0338,43.1063,10.7625,22.5938,,0.019365000000000077,0.19433463407226206,0.13892565410597643,non_fall
1.503258,0.0865,-0.1387,-0.1051,0.07,-0.0189,-0.0878,43.1063,10.7625,22.5938,,0.02054800000000001,0.19433463407226206,0.14155242277408922,non_fall
1.50529,0.0865,-0.1387,-0.1051,0.07,-0.0189,-0.0878,43.0875,10.8,22.65,,0.0020320000000000338,0.19433463407226206,0.13799980345985513,non_fall
1.522991,0.0865,-0.1387,-0.1051,0.07,-0.0189,-0.0878,43.0875,10.8,22.65,,0.017700999999999967,0.19433463407226206,0.128442967580264,non_fall
1.543776,-0.097,-0.0609,-0.045,0.07,-0.0189,-0.0878,43.0875,10.8,22.65,,0.020785000000000053,0.12305612540625517,0.11622992629734925,non_fall
1.564756,-0.097,-0.0609,-0.045,-0.3222,-0.0281,-0.0015,43.0875,10.8,22.65,,0.02098,0.12305612540625517,0.10761821044064018,non_fall
1.566463,-0.097,-0.0609,-0.045,-0.3222,-0.0281,-0.0015,43.0312,10.575,22.7063,,0.001706999999999903,0.12305612540625517,0.11077407510821154,non_fall
1.586456,-0.097,-0.0609,-0.045,-0.3222,-0.0281,-0.0015,43.0312,10.575,22.7063,,0.01999300000000015,0.12305612540625517,0.13422322455390553,non_fall
1.625191,-0.097,-0.0609,-0.045,-1.0585,0.292,0.2148,43.0312,10.575,22.7063,,0.038734999999999964,0.12305612540625517,0.18505444811516364,non_fall
1.626891,-0.097,-0.0609,-0.045,-1.0585,0.292,0.2148,43.1063,10.3875,22.9875,,0.0017000000000000348,0.12305612540625517,0.2672323097075159,non_fall
1.628493,0.1853,0.2267,0.4446,-1.0585,0.292,0.2148,43.1063,10.3875,22.9875,,0.0016019999999998813,0.5323515192051207,0.3803616961491899,non_fall
1.647542,0.1853,0.2267,0.4446,-1.0585,0.292,0.2148,43.1063,10.3875,22.9875,,0.019049000000000094,0.5323515192051207,0.5191571605548415,non_fall
1.686262,0.1853,0.2267,0.4446,-0.9381,-0.2011,0.3273,43.1063,10.3875,22.9875,,0.038719999999999866,0.5323515192051207,0.6737411576168539,non_fall
1.688124,0.1853,0.2267,0.4446,-0.9381,-0.2011,0.3273,43.0312,9.9375,23.2875,,0.0018620000000000303,0.5323515192051207,0.8307978172025801,non_fall
1.688902,0.4758,0.0488,1.1016,-0.9381,-0.2011,0.3273,43.0312,9.9375,23.2875,,0.0007779999999999454,1.2009536377396088,0.9755374231897075,non_fall
1.706219,0.4758,0.0488,1.1016,-0.9381,-0.2011,0.3273,43.0312,9.9375,23.2875,,0.017317000000000027,1.2009536377396088,1.0942805040723054,non_fall
1.746328,0.4758,0.0488,1.1016,-0.9381,-0.2011,0.3273,43.2938,9.3563,23.0438,,0.04010900000000017,1.2009536377396088,1.177228938379687,non_fall
1.747641,0.4758,0.0488,1.1016,-0.3712,-3.2463,-0.1637,43.2938,9.3563,23.0438,,0.0013129999999998976,1.2009536377396088,1.2208125728311272,non_fall
1.748093,-0.5274,-1.1928,0.2832,-0.3712,-3.2463,-0.1637,43.2938,9.3563,23.0438,,0.00045199999999989693,1.3345878914481428,1.2290299489467003,non_fall
1.765537,-0.5274,-1.1928,0.2832,-0.3712,-3.2463,-0.1637,43.2938,9.3563,23.0438,,0.017444000000000015,1.3345878914481428,1.2133924717780726,non_fall
1.804355,-0.5274,-1.1928,0.2832,-0.3712,-3.2463,-0.1637,43.875,8.9062,21.525,,0.03881800000000002,1.3345878914481428,1.1913032683937408,non_fall
1.806573,-0.5274,-1.1928,0.2832,-0.2483,-3.0361,-0.6469,43.875,8.9062,21.525,,0.0022180000000000533,1.3345878914481428,1.1829340774712354,non_fall
1.807806,-0.7471,0.7521,0.2375,-0.2483,-3.0361,-0.6469,43.875,8.9062,21.525,,0.0012330000000000396,1.0863788795811524,1.2069709288705974,non_fall
1.827969,-0.7471,0.7521,0.2375,-0.2483,-3.0361,-0.6469,43.875,8.9062,21.525,,0.02016299999999993,1.0863788795811524,1.2759892289702983,non_fall
1.864433,-0.7471,0.7521,0.2375,-0.2483,-3.0361,-0.6469,44.7938,8.6063,19.1813,,0.03646400000000005,1.0863788795811524,1.392572891165766,non_fall
1.866923,-0.7471,0.7521,0.2375,-0.1057,-1.1709,-0.1044,44.7938,8.6063,19.1813,,0.0024900000000001032,1.0863788795811524,1.5474138876058399,non_fall
1.888077,-0.7471,0.7521,0.2375,-0.1057,-1.1709,-0.1044,44.7938,8.6063,19.1813,,0.021153999999999895,1.0863788795811524,1.7203448952476463,non_fall
1.888703,0.3243,1.2016,-2.262,-0.1057,-1.1709,-0.1044,44.7938,8.6063,19.1813,,0.0006260000000000154,2.5817933786420633,1.8845020821490233,non_fall
1.924244,0.3243,1.2016,-2.262,-0.1057,-1.1709,-0.1044,45.4688,8.4938,16.5188,,0.035541000000000045,2.5817933786420633,2.01271128465091,non_fall
1.929218,0.3243,1.2016,-2.262,-0.1028,0.1,0.0152,45.4688,8.4938,16.5188,,0.004974000000000034,2.5817933786420633,2.084164601227353,non_fall
1.94989,0.3243,1.2016,-2.262,-0.1028,0.1,0.0152,45.4688,8.4938,16.5188,,0.0206719999999998,2.5817933786420633,2.0891309764240082,non_fall
1.951248,-1.3168,0.0227,0.7335,-0.1028,0.1,0.0152,45.4688,8.4938,16.5188,,0.0013580000000001924,1.507481270198738,2.0301696929255115,non_fall
1.985056,-1.3168,0.0227,0.7335,-0.1028,0.1,0.0152,46.3875,8.25,14.0063,,0.03380799999999984,1.507481270198738,1.9197701549624495,non_fall
1.989372,-1.3168,0.0227,0.7335,-0.1292,-0.2823,0.067,46.3875,8.25,14.0063,,0.0043159999999999865,1.507481270198738,1.7757321214128985,non_fall
2.010405,-1.3168,0.0227,0.7335,-0.1292,-0.2823,0.067,46.3875,8.25,14.0063,,0.02103300000000008,1.507481270198738,1.6162206259903842,non_fall
2.011198,1.2112,-0.6051,-0.3758,-0.1292,-0.2823,0.067,46.3875,8.25,14.0063,,0.0007929999999998216,1.4051252933457572,1.4561004185804884,non_fall
2.045767,1.2112,-0.6051,-0.3758,-0.1292,-0.2823,0.067,47.1,8.025,11.6063,,0.034569000000000294,1.4051252933457572,1.3052568104469418,non_fall
2.051186,1.2112,-0.6051,-0.3758,-0.0823,0.3691,0.273,47.1,8.025,11.6063,,0.005418999999999841,1.4051252933457572,1.1687059472324934,non_fall
2.071807,1.2112,-0.6051,-0.3758,-0.0823,0.3691,0.273,47.1,8.025,11.6063,,0.020621000000000222,1.4051252933457572,1.0477467232234612,non_fall
2.091567,0.6575,-0.105,-0.1865,-0.0823,0.3691,0.273,47.1,8.025,11.6063,,0.019759999999999778,0.6914575185794135,0.9413113197956927,non_fall
2.105033,0.6575,-0.105,-0.1865,-0.0823,0.3691,0.273,47.7,7.8,9.1688,,0.0134660000000002,0.6914575185794135,0.846974342478112,non_fall
2.112827,0.6575,-0.105,-0.1865,-0.0585,0.1288,0.2144,47.7,7.8,9.1688,,0.0077939999999996346,0.6914575185794135,0.7615634600600297,non_fall
2.132511,0.6575,-0.105,-0.1865,-0.0585,0.1288,0.2144,47.7,7.8,9.1688,,0.019684000000000257,0.6914575185794135,0.6816485275456341,non_fall
2.153468,-0.5914,0.0375,0.0758,-0.0585,0.1288,0.2144,47.7,7.8,9.1688,,0.020957000000000114,0.597415977355812,0.6041752276909225,non_fall
2.164856,-0.5914,0.0375,0.0758,-0.0585,0.1288,0.2144,48.5438,7.575,6.7125,,0.011387999999999732,0.597415977355812,0.5272542832723723,non_fall
2.172738,-0.5914,0.0375,0.0758,-0.1049,-0.1429,0.1927,48.5438,7.575,6.7125,,0.007881999999999945,0.597415977355812,0.4508633353441396,non_fall
2.193524,-0.5914,0.0375,0.0758,-0.1049,-0.1429,0.1927,48.5438,7.575,6.7125,,0.020786000000000193,0.597415977355812,0.3771219878780669,non_fall
2.214018,-0.1153,-0.0084,0.0525,-0.1049,-0.1429,0.1927,48.5438,7.575,6.7125,,0.02049399999999979,0.12696810623144697,0.30989672268709995,non_fall
2.224414,-0.1153,-0.0084,0.0525,-0.1049,-0.1429,0.1927,48.9938,7.35,4.5,,0.010396000000000072,0.12696810623144697,0.2537529399039038,non_fall
2.233591,-0.1153,-0.0084,0.0525,-0.133,-0.0104,0.2751,48.9938,7.35,4.5,,0.009177000000000213,0.12696810623144697,0.21258203618902385,non_fall
2.253913,-0.1153,-0.0084,0.0525,-0.133,-0.0104,0.2751,48.9938,7.35,4.5,,0.02032199999999973,0.12696810623144697,0.1884013784156112,non_fall
2.27436,0.1687,-0.0774,-0.142,-0.133,-0.0104,0.2751,48.9938,7.35,4.5,,0.020447000000000326,0.2336973470110433,0.18073631467316917,non_fall
2.286021,0.1687,-0.0774,-0.142,-0.133,-0.0104,0.2751,49.1625,7.0688,3.6188,,0.0116609999999997,0.2336973470110433,0.18671928966299361,non_fall
2.305296,0.1687,-0.0774,-0.142,-0.1443,0.0073,0.3241,49.1625,7.0688,3.6188,,0.01927499999999993,0.2336973470110433,0.20176545654304873,non_fall
2.317731,0.1687,-0.0774,-0.142,-0.1443,0.0073,0.3241,49.1625,7.0688,3.6188,,0.012435000000000418,0.2336973470110433,0.22054000675019989,backward_fall
2.35096,0.1687,-0.0774,-0.142,-0.1443,0.0073,0.3241,49.1063,6.5063,3.4125,,0.03322899999999995,0.2336973470110433,0.23793704782485445,backward_fall
2.359734,0.1687,-0.0774,-0.142,-0.1316,-0.0875,0.3393,49.1063,6.5063,3.4125,,0.008773999999999837,0.2336973470110433,0.24987985303060897,backward_fall
2.361046,0.2062,-0.1427,-0.1121,-0.1316,-0.0875,0.3393,49.1063,6.5063,3.4125,,0.0013119999999999798,0.27467824813770747,0.2538492842982334,backward_fall
2.384211,0.2062,-0.1427,-0.1121,-0.1316,-0.0875,0.3393,49.1063,6.5063,3.4125,,0.023165000000000102,0.27467824813770747,0.24910722517822745,backward_fall
2.409364,0.2062,-0.1427,-0.1121,-0.1316,-0.0875,0.3393,49.2,5.6813,3.5438,,0.02515299999999998,0.27467824813770747,0.23660783741308017,backward_fall
2.417636,0.2062,-0.1427,-0.1121,-0.2033,-0.0846,0.4021,49.2,5.6813,3.5438,,0.008271999999999835,0.27467824813770747,0.21861328777971226,backward_fall
2.418631,0.0985,0.0131,0.0016,-0.2033,-0.0846,0.4021,49.2,5.6813,3.5438,,0.0009950000000000792,0.09938017911032361,0.19808336354840428,backward_fall
2.443682,0.0985,0.0131,0.0016,-0.2033,-0.0846,0.4021,49.2,5.6813,3.5438,,0.025050999999999934,0.09938017911032361,0.17799047001159254,backward_fall
2.46799,0.0985,0.0131,0.0016,-0.2033,-0.0846,0.4021,49.2563,4.725,3.5625,,0.024307999999999996,0.09938017911032361,0.16077684322102764,backward_fall
2.484935,0.0985,0.0131,0.0016,-0.2888,-0.2742,0.4377,49.2563,4.725,3.5625,,0.01694500000000021,0.09938017911032361,0.14815003802427165,backward_fall
2.487449,0.1483,0.0018,0.1845,-0.2888,-0.2742,0.4377,49.2563,4.725,3.5625,,0.002513999999999683,0.23672004562351706,0.14127543268603818,backward_fall
2.500906,0.1483,0.0018,0.1845,-0.2888,-0.2742,0.4377,49.2563,4.725,3.5625,,0.013457000000000274,0.23672004562351706,0.14122262707926136,backward_fall
2.526107,0.1483,0.0018,0.1845,-0.2888,-0.2742,0.4377,49.3875,3.7313,3.2813,,0.02520100000000003,0.23672004562351706,0.14936537373819686,backward_fall
2.541941,0.1483,0.0018,0.1845,-0.4979,-0.1322,0.6123,49.3875,3.7313,3.2813,,0.015833999999999904,0.23672004562351706,0.16741924522565274,backward_fall
2.559603,0.1633,-0.0524,0.0107,-0.4979,-0.1322,0.6123,49.3875,3.7313,3.2813,,0.017662000000000067,0.1718346298043558,0.19695295209889066,backward_fall
2.561779,0.1633,-0.0524,0.0107,-0.4979,-0.1322,0.6123,49.3875,3.7313,3.2813,,0.0021759999999999557,0.1718346298043558,0.2384664273012633,backward_fall
2.592815,0.1633,-0.0524,0.0107,-0.4979,-0.1322,0.6123,49.4813,2.4188,2.7188,,0.03103599999999984,0.1718346298043558,0.290379053315249,backward_fall
2.600829,0.1633,-0.0524,0.0107,-0.6553,-0.369,0.5973,49.4813,2.4188,2.7188,,0.008014000000000188,0.1718346298043558,0.34840625966721633,backward_fall
2.625573,0.1633,-0.0524,0.0107,-0.6553,-0.369,0.5973,49.4813,2.4188,2.7188,,0.0247440000000001,0.1718346298043558,0.4057522448414836,backward_fall
2.626662,0.0511,0.2172,0.6522,-0.6553,-0.369,0.5973,49.4813,2.4188,2.7188,,0.0010889999999998956,0.689312621384521,0.4542909835092105,backward_fall
2.650672,0.0511,0.2172,0.6522,-0.6553,-0.369,0.5973,49.5563,1.1438,2.0063,,0.024010000000000087,0.689312621384521,0.4864993807866422,backward_fall
2.666619,0.0511,0.2172,0.6522,-0.7713,-0.4225,0.5406,49.5563,1.1438,2.0063,,0.01594699999999971,0.689312621384521,0.497509645148519,backward_fall
2.683714,0.0511,0.2172,0.6522,-0.7713,-0.4225,0.5406,49.5563,1.1438,2.0063,,0.017095000000000304,0.689312621384521,0.4865003159560817,backward_fall
2.684408,0.0728,-0.2192,0.085,-0.7713,-0.4225,0.5406,49.5563,1.1438,2.0063,,0.0006939999999997504,0.2461168015394317,0.4568851956701036,backward_fall
2.708368,0.0728,-0.2192,0.085,-0.7713,-0.4225,0.5406,49.7063,-0.1875,1.35,,0.023960000000000203,0.2461168015394317,0.41528192320186513,backward_fall
2.725173,0.0728,-0.2192,0.085,-0.6112,-0.3651,0.4692,49.7063,-0.1875,1.35,,0.016804999999999737,0.2461168015394317,0.3697559773142783,backward_fall
2.742133,0.0728,-0.2192,0.085,-0.6112,-0.3651,0.4692,49.7063,-0.1875,1.35,,0.016960000000000086,0.2461168015394317,0.328062115122288,backward_fall
2.742663,0.0613,-0.3267,-0.1511,-0.6112,-0.3651,0.4692,49.7063,-0.1875,1.35,,0.0005299999999999194,0.36513256496784835,0.2964556408044504,backward_fall
2.7664,0.0613,-0.3267,-0.1511,-0.6112,-0.3651,0.4692,49.8,-1.5188,0.5063,,0.02373700000000012,0.36513256496784835,0.2792628306799678,backward_fall
2.782981,0.0613,-0.3267,-0.1511,-0.2839,-0.3937,0.3678,49.8,-1.5188,0.5063,,0.016580999999999957,0.36513256496784835,0.279027632662578,backward_fall
2.808273,0.0613,-0.3267,-0.1511,-0.2839,-0.3937,0.3678,49.8,-1.5188,0.5063,,0.02529199999999987,0.36513256496784835,0.29686845625628255,backward_fall
2.824666,-0.0863,-0.1025,-0.2938,-0.2839,-0.3937,0.3678,49.8,-1.5188,0.5063,,0.016393000000000324,0.32291234104629696,0.332724390026135,backward_fall
2.825187,-0.0863,-0.1025,-0.2938,-0.2839,-0.3937,0.3678,49.65,-2.925,-0.5063,,0.0005209999999999937,0.32291234104629696,0.38537083577328485,backward_fall
2.842318,-0.0863,-0.1025,-0.2938,0.1989,-0.4555,0.3135,49.65,-2.925,-0.5063,,0.017131000000000007,0.32291234104629696,0.452314572730914,backward_fall
2.86609,-0.0863,-0.1025,-0.2938,0.1989,-0.4555,0.3135,49.65,-2.925,-0.5063,,0.023771999999999682,0.32291234104629696,0.5298161634654107,backward_fall
2.891259,0.0585,-0.1919,-0.8099,0.1989,-0.4555,0.3135,49.65,-2.925,-0.5063,,0.025168999999999997,0.8343775344530796,0.613252836177491,backward_fall
2.892553,0.0585,-0.1919,-0.8099,0.1989,-0.4555,0.3135,49.5375,-4.35,-1.6688,,0.0012940000000001284,0.8343775344530796,0.6978285609535204,backward_fall
2.908032,0.0585,-0.1919,-0.8099,0.7212,-0.3935,0.1515,49.5375,-4.35,-1.6688,,0.01547900000000002,0.8343775344530796,0.7793841244269119,backward_fall
2.932653,0.0585,-0.1919,-0.8099,0.7212,-0.3935,0.1515,49.5375,-4.35,-1.6688,,0.024621000000000226,0.8343775344530796,0.8549540465253493,backward_fall
2.949183,0.0585,-0.1919,-0.8099,0.7212,-0.3935,0.1515,49.4625,-5.5875,-3.0,,0.016529999999999934,0.8343775344530796,0.922851392821555,backward_fall
2.950481,-0.0581,-0.0674,-1.0126,0.7212,-0.3935,0.1515,49.4625,-5.5875,-3.0,,0.0012979999999997993,1.0165024003906729,0.9823221530239981,backward_fall
2.965709,-0.0581,-0.0674,-1.0126,1.1357,-0.6206,-0.147,49.4625,-5.5875,-3.0,,0.01522800000000002,1.0165024003906729,1.0330043164221108,backward_fall
2.990858,-0.0581,-0.0674,-1.0126,1.1357,-0.6206,-0.147,49.4625,-5.5875,-3.0,,0.025148999999999866,1.0165024003906729,1.0744705800054972,backward_fall
3.007692,-0.0581,-0.0674,-1.0126,1.1357,-0.6206,-0.147,49.275,-6.525,-4.2188,,0.016834000000000238,1.0165024003906729,1.1060781459950602,backward_fall
3.032645,-0.0581,-0.0674,-1.0126,1.4346,-1.1858,-0.4513,49.275,-6.525,-4.2188,,0.024953000000000003,1.0165024003906729,1.1272574167304128,backward_fall
3.033962,-0.7279,0.123,-1.0593,1.4346,-1.1858,-0.4513,49.275,-6.525,-4.2188,,0.0013169999999997906,1.291156032398873,1.1382430125313283,backward_fall
3.048899,-0.7279,0.123,-1.0593,1.4346,-1.1858,-0.4513,49.275,-6.525,-4.2188,,0.0149370000000002,1.291156032398873,1.141073031605546,backward_fall
3.065898,-0.7279,0.123,-1.0593,1.4346,-1.1858,-0.4513,48.9375,-6.9938,-5.8313,,0.016998999999999764,1.291156032398873,1.140522475125602,backward_fall
3.090495,-0.7871,0.2163,-0.6634,1.4346,-1.1858,-0.4513,48.9375,-6.9938,-5.8313,,0.024597000000000424,1.0518610459561661,1.144627307508875,backward_fall
3.09186,-0.7871,0.2163,-0.6634,2.2363,-2.4877,-1.1129,48.9375,-6.9938,-5.8313,,0.0013649999999998386,1.0518610459561661,1.164660664528773,backward_fall
3.107564,-0.7871,0.2163,-0.6634,2.2363,-2.4877,-1.1129,48.9375,-6.9938,-5.8313,,0.01570399999999994,1.0518610459561661,1.2147309790119394,backward_fall
3.132388,-0.7871,0.2163,-0.6634,2.2363,-2.4877,-1.1129,48.375,-7.0688,-8.3438,,0.02482400000000018,1.0518610459561661,1.3113622999989254,backward_fall
3.149989,-0.7871,0.2163,-0.6634,2.4621,-2.3062,-1.6959,48.375,-7.0688,-8.3438,,0.017600999999999978,1.0518610459561661,1.4733226263591854,backward_fall
3.151282,-1.4425,-0.8124,2.0685,2.4621,-2.3062,-1.6959,48.375,-7.0688,-8.3438,,0.0012929999999999886,2.6494324411088495,1.7215592529836352,backward_fall
3.173962,-1.4425,-0.8124,2.0685,2.4621,-2.3062,-1.6959,48.375,-7.0688,-8.3438,,0.02267999999999981,2.6494324411088495,2.0785242628365106,backward_fall
3.191891,-1.4425,-0.8124,2.0685,2.4621,-2.3062,-1.6959,47.8688,-6.9,-10.4813,,0.017929000000000084,2.6494324411088495,2.5658026637098095,backward_fall
3.21551,-1.4425,-0.8124,2.0685,1.7564,3.3866,0.2477,47.8688,-6.9,-10.4813,,0.023619000000000057,2.6494324411088495,3.199240916325411,backward_fall
3.216519,3.8045,-0.9164,3.14,1.7564,3.3866,0.2477,47.8688,-6.9,-10.4813,,0.0010089999999998156,5.017330885042365,3.9817557919685123,backward_fall
3.231963,3.8045,-0.9164,3.14,1.7564,3.3866,0.2477,47.8688,-6.9,-10.4813,,0.015444000000000013,5.017330885042365,4.895170387204152,backward_fall
3.248893,3.8045,-0.9164,3.14,1.7564,3.3866,0.2477,47.4563,-7.2938,-11.6625,,0.01692999999999989,5.017330885042365,5.893327038514996,backward_fall
3.273328,3.8045,-0.9164,3.14,-0.0041,-0.4165,-0.1828,47.4563,-7.2938,-11.6625,,0.024434999999999985,5.017330885042365,6.899370788412654,backward_fall
3.290051,3.8045,-0.9164,3.14,-0.0041,-0.4165,-0.1828,47.4563,-7.2938,-11.6625,,0.016723000000000265,5.017330885042365,7.8103132261182,backward_fall
3.290738,-4.1167,2.0903,-9.2656,-0.0041,-0.4165,-0.1828,47.4563,-7.2938,-11.6625,,0.0006870000000001042,10.352193793587906,8.510907845352673,backward_fall
3.306385,-4.1167,2.0903,-9.2656,-0.0041,-0.4165,-0.1828,47.2688,-6.9,-12.825,,0.015646999999999966,10.352193793587906,8.89582333572652,backward_fall
3.332065,-4.1167,2.0903,-9.2656,-0.5313,-1.5817,-0.7981,47.2688,-6.9,-12.825,,0.025679999999999925,10.352193793587906,8.895065652005908,backward_fall
3.356343,-4.1167,2.0903,-9.2656,-0.5313,-1.5817,-0.7981,47.2688,-6.9,-12.825,,0.0242779999999998,10.352193793587906,8.495036604235782,backward_fall
3.357137,-4.9559,-0.8864,-4.0221,-0.5313,-1.5817,-0.7981,47.2688,-6.9,-12.825,,0.0007939999999999614,6.443907058609707,7.748370282763036,backward_fall
3.373153,-4.9559,-0.8864,-4.0221,-0.5313,-1.5817,-0.7981,46.9688,-6.2438,-13.9875,,0.01601600000000003,6.443907058609707,6.769297689551606,backward_fall
3.39167,-4.9559,-0.8864,-4.0221,-0.3342,-0.6803,-0.0594,46.9688,-6.2438,-13.9875,,0.018517000000000117,6.443907058609707,5.715558660478217,backward_fall
3.411151,-4.9559,-0.8864,-4.0221,-0.3342,-0.6803,-0.0594,46.9688,-6.2438,-13.9875,,0.01948099999999986,6.443907058609707,4.7608084213508794,backward_fall
3.41199,2.2319,-0.1738,-0.1126,-0.3342,-0.6803,-0.0594,46.9688,-6.2438,-13.9875,,0.0008390000000000342,2.241486740982422,4.062713533993782,backward_fall
3.42491,2.2319,-0.1738,-0.1126,-0.3342,-0.6803,-0.0594,46.5188,-5.5312,-14.8125,,0.012920000000000265,2.241486740982422,3.7325671523135537,backward_fall
3.453008,2.2319,-0.1738,-0.1126,0.4755,2.1462,-0.3635,46.5188,-5.5312,-14.8125,,0.028097999999999956,2.241486740982422,3.8129067533325807,backward_fall
3.472532,2.2319,-0.1738,-0.1126,0.4755,2.1462,-0.3635,46.5188,-5.5312,-14.8125,,0.019524000000000097,2.241486740982422,4.26934850865321,backward_fall
3.484156,2.2319,-0.1738,-0.1126,0.4755,2.1462,-0.3635,46.35,-4.8375,-15.1688,,0.011623999999999857,2.241486740982422,5.000332362710827,backward_fall
3.49225,8.4811,3.3596,4.3764,0.4755,2.1462,-0.3635,46.35,-4.8375,-15.1688,,0.008093999999999824,10.117749074275364,5.863587990831439,backward_fall
3.512468,8.4811,3.3596,4.3764,0.2993,-0.4979,0.1756,46.35,-4.8375,-15.1688,,0.02021800000000029,10.117749074275364,6.712208280609977,backward_fall
3.53355,8.4811,3.3596,4.3764,0.2993,-0.4979,0.1756,46.35,-4.8375,-15.1688,,0.021081999999999823,10.117749074275364,7.428739137183895,backward_fall
3.545201,8.4811,3.3596,4.3764,0.2993,-0.4979,0.1756,46.3688,-4.3125,-15.2813,,0.011651000000000078,10.117749074275364,7.9455839202273735,backward_fall
3.554717,-1.0572,4.21,-3.1709,0.2993,-0.4979,0.1756,46.3688,-4.3125,-15.2813,,0.00951600000000008,5.3755351966106595,8.245470262201309,backward_fall
3.57412,-1.0572,4.21,-3.1709,0.5,-0.5252,-0.5798,46.3688,-4.3125,-15.2813,,0.01940300000000006,5.3755351966106595,8.344481855781472,backward_fall
3.594802,-1.0572,4.21,-3.1709,0.5,-0.5252,-0.5798,46.3688,-4.3125,-15.2813,,0.020681999999999867,5.3755351966106595,8.267701323061159,backward_fall
3.60573,-1.0572,4.21,-3.1709,0.5,-0.5252,-0.5798,46.6125,-3.8625,-14.4563,,0.010927999999999827,5.3755351966106595,8.029974780051008,backward_fall
3.615904,-1.7595,-6.0116,6.9793,0.5,-0.5252,-0.5798,46.6125,-3.8625,-14.4563,,0.010174000000000127,9.377942380927704,7.630615776716522,backward_fall
3.634554,-1.7595,-6.0116,6.9793,-0.126,-0.3061,-0.086,46.6125,-3.8625,-14.4563,,0.018650000000000055,9.377942380927704,7.0631035580711945,backward_fall
3.655971,-1.7595,-6.0116,6.9793,-0.126,-0.3061,-0.086,46.6125,-3.8625,-14.4563,,0.02141700000000002,9.377942380927704,6.333000422659398,backward_fall
3.665739,-1.7595,-6.0116,6.9793,-0.126,-0.3061,-0.086,46.7625,-3.4125,-13.65,,0.009767999999999777,9.377942380927704,5.473287051708284,backward_fall
3.675609,1.0113,-1.0396,-0.3887,-0.126,-0.3061,-0.086,46.7625,-3.4125,-13.65,,0.009870000000000267,1.5015270693530638,4.54799974150274,backward_fall
3.695554,1.0113,-1.0396,-0.3887,0.0931,0.5714,-0.0121,46.7625,-3.4125,-13.65,,0.01994499999999988,1.5015270693530638,3.6414266439820575,backward_fall
3.716153,1.0113,-1.0396,-0.3887,0.0931,0.5714,-0.0121,46.7625,-3.4125,-13.65,,0.020598999999999812,1.5015270693530638,2.837569164120736,backward_fall
3.724778,1.0113,-1.0396,-0.3887,0.0931,0.5714,-0.0121,46.725,-2.475,-13.7063,,0.008625000000000327,1.5015270693530638,2.1988679252065815,backward_fall
3.757022,1.0113,-1.0396,-0.3887,-0.018,-0.2948,0.0529,46.725,-2.475,-13.7063,,0.03224399999999994,1.5015270693530638,1.7523877002900063,backward_fall
3.758676,0.2855,1.5332,1.1393,-0.018,-0.2948,0.0529,46.725,-2.475,-13.7063,,0.0016539999999998223,1.931376964758563,1.4873281628753856,backward_fall
3.77811,0.2855,1.5332,1.1393,-0.018,-0.2948,0.0529,46.725,-2.475,-13.7063,,0.01943399999999995,1.931376964758563,1.36299783300896,backward_fall
3.784262,0.2855,1.5332,1.1393,-0.018,-0.2948,0.0529,46.8563,-1.9125,-13.7063,,0.006152000000000157,1.931376964758563,1.3232934187215488,backward_fall
3.818082,0.2855,1.5332,1.1393,-0.2722,-0.9249,0.0848,46.8563,-1.9125,-13.7063,,0.03381999999999996,1.931376964758563,1.3126781053467647,backward_fall
3.820106,-0.4967,1.0629,0.8054,-0.2722,-0.9249,0.0848,46.8563,-1.9125,-13.7063,,0.0020240000000000258,1.4230728934246482,1.2892486105189787,backward_fall
3.838083,-0.4967,1.0629,0.8054,-0.2722,-0.9249,0.0848,46.8563,-1.9125,-13.7063,,0.017977000000000132,1.4230728934246482,1.2320764900322587,backward_fall
3.845413,-0.4967,1.0629,0.8054,-0.2722,-0.9249,0.0848,46.8188,-1.5938,-13.8938,,0.007330000000000059,1.4230728934246482,1.1419286873667835,backward_fall
3.878958,-0.3783,-0.301,-0.2849,-0.2722,-0.9249,0.0848,46.8188,-1.5938,-13.8938,,0.033544999999999714,0.5611416042319443,1.0361890554767128,backward_fall
3.881,-0.3783,-0.301,-0.2849,-0.1706,-0.0963,0.137,46.8188,-1.5938,-13.8938,,0.0020419999999998772,0.5611416042319443,0.9400442057532283,backward_fall
3.897923,-0.3783,-0.301,-0.2849,-0.1706,-0.0963,0.137,46.8188,-1.5938,-13.8938,,0.016923000000000243,0.5611416042319443,0.8766565446582109,backward_fall
3.906516,-0.3783,-0.301,-0.2849,-0.1706,-0.0963,0.137,46.8188,-1.4625,-14.0813,,0.00859299999999985,0.5611416042319443,0.8590419038441346,backward_fall
3.939745,-0.3783,-0.301,-0.2849,-0.0499,0.3872,0.2555,46.8188,-1.4625,-14.0813,,0.03322899999999995,0.5611416042319443,0.8857016936218121,backward_fall
3.959517,-0.3783,-0.301,-0.2849,-0.0499,0.3872,0.2555,46.8188,-1.4625,-14.0813,,0.019772000000000123,0.5611416042319443,0.9409389643156146,backward_fall
3.961435,1.2581,-0.6778,-0.5435,-0.0499,0.3872,0.2555,46.8188,-1.4625,-14.0813,,0.0019179999999998643,1.5289279577534056,0.9995148845831318,backward_fall
3.964574,1.2581,-0.6778,-0.5435,-0.0499,0.3872,0.2555,46.8,-1.5188,-14.6063,,0.003139000000000003,1.5289279577534056,1.034117503219593,backward_fall
3.999703,1.2581,-0.6778,-0.5435,0.0157,0.0403,0.2286,46.8,-1.5188,-14.6063,,0.035128999999999966,1.5289279577534056,1.0232852211218773,backward_fall
4.020057,1.2581,-0.6778,-0.5435,0.0157,0.0403,0.2286,46.8,-1.5188,-14.6063,,0.02035400000000065,1.5289279577534056,0.957305634523582,backward_fall
4.021087,-0.1755,0.3004,0.0846,0.0157,0.0403,0.2286,46.8,-1.5188,-14.6063,,0.0010299999999991982,0.3580468824050839,0.8403817780644325,backward_fall
4.024117,-0.1755,0.3004,0.0846,0.0157,0.0403,0.2286,46.5938,-1.4625,-15.0375,,0.0030300000000007543,0.3580468824050839,0.6887610140980819,backward_fall
4.061179,-0.1755,0.3004,0.0846,0.092,-0.0048,0.2559,46.5938,-1.4625,-15.0375,,0.037061999999999706,0.3580468824050839,0.5259153014210532,backward_fall
4.082245,-0.1755,0.3004,0.0846,0.092,-0.0048,0.2559,46.5938,-1.4625,-15.0375,,0.02106600000000025,0.3580468824050839,0.3766089456124257,backward_fall
4.084125,-0.0899,0.0666,0.0482,0.092,-0.0048,0.2559,46.5938,-1.4625,-15.0375,,0.0018799999999998818,0.12182286320719933,0.2615877992796763,backward_fall
4.085052,-0.0899,0.0666,0.0482,0.092,-0.0048,0.2559,46.6125,-1.65,-15.1875,,0.0009269999999999001,0.12182286320719933,0.19399510660810718,backward_fall
4.122367,-0.0899,0.0666,0.0482,0.1237,0.1848,0.2581,46.6125,-1.65,-15.1875,,0.03731499999999954,0.12182286320719933,0.17793548197386524,backward_fall
4.143419,-0.0899,0.0666,0.0482,0.1237,0.1848,0.2581,46.6125,-1.65,-15.1875,,0.02105200000000007,0.12182286320719933,0.20908928167253915,backward_fall
4.144571,0.3857,-0.3636,-0.1837,0.1237,0.1848,0.2581,46.6125,-1.65,-15.1875,,0.001152000000000264,0.5609947771592887,0.2768986179046617,backward_fall
4.145261,0.3857,-0.3636,-0.1837,0.1237,0.1848,0.2581,46.575,-2.0625,-15.525,,0.0006899999999996353,0.5609947771592887,0.36756539789651527,backward_fall
4.185512,0.3857,-0.3636,-0.1837,0.0988,-0.1009,0.2758,46.575,-2.0625,-15.525,,0.04025100000000048,0.5609947771592887,0.4669861305752689,backward_fall
4.203897,0.3857,-0.3636,-0.1837,0.0988,-0.1009,0.2758,46.575,-2.0625,-15.525,,0.018385000000000318,0.5609947771592887,0.5628974949173886,backward_fall
4.204795,0.3857,-0.3636,-0.1837,0.0988,-0.1009,0.2758,46.5375,-2.55,-15.8813,,0.0008979999999993993,0.5609947771592887,0.6459092493592297,backward_fall
4.22437,-0.2728,0.3607,0.4339,0.0988,-0.1009,0.2758,46.5375,-2.55,-15.8813,,0.019575000000000564,0.6267324309464127,0.7095786546063999,backward_fall
4.244621,-0.2728,0.3607,0.4339,0.0739,-0.2439,0.3084,46.5375,-2.55,-15.8813,,0.02025100000000002,0.6267324309464127,0.7500100976195248,backward_fall
4.265355,-0.2728,0.3607,0.4339,0.0739,-0.2439,0.3084,46.3125,-3.2625,-16.0125,,0.020733999999999142,0.6267324309464127,0.7655335884080867,backward_fall
4.266645,-0.2728,0.3607,0.4339,0.0739,-0.2439,0.3084,46.3125,-3.2625,-16.0125,,0.0012900000000000134,0.6267324309464127,0.7568472295853492,backward_fall
4.28599,-0.0877,0.5952,0.6596,0.0739,-0.2439,0.3084,46.3125,-3.2625,-16.0125,,0.01934500000000039,0.8927634009075417,0.727679472533185,backward_fall
4.307308,-0.0877,0.5952,0.6596,0.047,-0.2742,0.3759,46.3125,-3.2625,-16.0125,,0.021317999999999948,0.8927634009075417,0.6856339570684304,backward_fall
4.327823,-0.0877,0.5952,0.6596,0.047,-0.2742,0.3759,46.3125,-3.2625,-16.0125,,0.020515000000000505,0.8927634009075417,0.642565122623153,non_fall
4.32891,-0.0877,0.5952,0.6596,0.047,-0.2742,0.3759,46.35,-4.1063,-15.9,,0.001086999999999172,0.8927634009075417,0.6137747979583572,non_fall
4.346508,0.2994,-0.162,0.3914,0.047,-0.2742,0.3759,46.35,-4.1063,-15.9,,0.017598000000000447,0.5187275971066124,0.6156295886829807,non_fall
4.366175,0.2994,-0.162,0.3914,0.3569,-0.3704,0.4537,46.35,-4.1063,-15.9,,0.0196670000000001,0.5187275971066124,0.6618129162705924,non_fall
4.385587,0.2994,-0.162,0.3914,0.3569,-0.3704,0.4537,46.3125,-5.1,-16.1625,,0.019411999999999985,0.5187275971066124,0.7591061309552315,non_fall
4.387034,0.2994,-0.162,0.3914,0.3569,-0.3704,0.4537,46.3125,-5.1,-16.1625,,0.001446999999999754,0.5187275971066124,0.9040376014598377,non_fall
4.428782,0.2994,-0.162,0.3914,0.747,-0.2256,0.4465,46.3125,-5.1,-16.1625,,0.04174800000000012,0.5187275971066124,1.0817275534756825,non_fall
4.432126,0.4089,0.2438,1.5933,0.747,-0.2256,0.4465,46.3125,-5.1,-16.1625,,0.0033440000000002357,1.6629018431645326,1.267734883115613,non_fall
4.446495,0.4089,0.2438,1.5933,0.747,-0.2256,0.4465,45.8438,-6.375,-16.5375,,0.01436899999999941,1.6629018431645326,1.4328009495267782,non_fall
4.447923,0.4089,0.2438,1.5933,0.747,-0.2256,0.4465,45.8438,-6.375,-16.5375,,0.001428000000000651,1.6629018431645326,1.549405823260739,non_fall
4.4894,0.4089,0.2438,1.5933,0.9433,-0.5561,0.2879,45.8438,-6.375,-16.5375,,0.04147699999999954,1.6629018431645326,1.5984439351283208,non_fall
4.491532,0.886,0.5663,1.3831,0.9433,-0.5561,0.2879,45.8438,-6.375,-16.5375,,0.002132000000000467,1.7374283582352397,1.5743263975721546,non_fall
4.508544,0.886,0.5663,1.3831,0.9433,-0.5561,0.2879,45.5063,-8.0063,-16.7438,,0.01701199999999936,1.7374283582352397,1.4872629227828085,non_fall
4.509843,0.886,0.5663,1.3831,0.9433,-0.5561,0.2879,45.5063,-8.0063,-16.7438,,0.0012990000000003832,1.7374283582352397,1.3620561385036527,non_fall
4.549256,0.886,0.5663,1.3831,0.8653,-0.4129,0.2854,45.5063,-8.0063,-16.7438,,0.0394129999999997,1.7374283582352397,1.2333517872927824,non_fall
4.551588,0.1048,-0.4766,-0.0604,0.8653,-0.4129,0.2854,45.5063,-8.0063,-16.7438,,0.0023320000000000007,0.49171003650525585,1.1380347240931397,non_fall
4.564943,0.1048,-0.4766,-0.0604,0.8653,-0.4129,0.2854,44.8875,-9.5813,-17.2313,,0.013355000000000672,0.49171003650525585,1.1063705762701777,non_fall
4.568531,0.1048,-0.4766,-0.0604,0.8653,-0.4129,0.2854,44.8875,-9.5813,-17.2313,,0.0035879999999997025,0.49171003650525585,1.1542653908502847,non_fall
4.610001,0.1048,-0.4766,-0.0604,0.6117,-0.0903,0.2297,44.8875,-9.5813,-17.2313,,0.04146999999999945,0.49171003650525585,1.2790956857179792,non_fall
4.612027,-1.0214,-0.9093,-1.7523,0.6117,-0.0903,0.2297,44.8875,-9.5813,-17.2313,,0.0020260000000007494,2.222754988747073,1.460590987628638,non_fall
4.625234,-1.0214,-0.9093,-1.7523,0.6117,-0.0903,0.2297,44.175,-11.3438,-17.6438,,0.013206999999999525,2.222754988747073,1.6664854853534248,non_fall
4.628883,-1.0214,-0.9093,-1.7523,0.6117,-0.0903,0.2297,44.175,-11.3438,-17.6438,,0.0036490000000002354,2.222754988747073,1.8609196065810187,non_fall
4.671244,-1.0214,-0.9093,-1.7523,0.3451,-0.2376,0.1874,44.175,-11.3438,-17.6438,,0.04236099999999965,2.222754988747073,2.0127581345349452,non_fall
4.684727,-1.0214,-0.9093,-1.7523,0.3451,-0.2376,0.1874,43.3688,-13.125,-18.1125,,0.013482999999999912,2.222754988747073,2.101427272661439,non_fall
4.689891,-1.0214,-0.9093,-1.7523,0.3451,-0.2376,0.1874,43.3688,-13.125,-18.1125,,0.0051640000000006125,2.222754988747073,2.1191217058195724,non_fall
4.690355,-0.0329,-0.5064,-1.581,0.3451,-0.2376,0.1874,43.3688,-13.125,-18.1125,,0.00046400000000001995,1.6604470392035995,2.0695671936908733,non_fall
4.731476,-0.0329,-0.5064,-1.581,0.2198,-0.2582,0.2265,43.3688,-13.125,-18.1125,,0.04112099999999952,1.6604470392035995,1.9644809497851354,non_fall
4.745965,-0.0329,-0.5064,-1.581,0.2198,-0.2582,0.2265,42.5438,-14.85,-18.7688,,0.014489000000000196,1.6604470392035995,1.8192943726224104,non_fall
4.752234,-0.0329,-0.5064,-1.581,0.2198,-0.2582,0.2265,42.5438,-14.85,-18.7688,,0.006268999999999636,1.6604470392035995,1.6495590497794275,non_fall
4.753084,-0.9146,0.0559,-1.0565,0.2198,-0.2582,0.2265,42.5438,-14.85,-18.7688,,0.0008500000000006835,1.3985028494786844,1.468857102014727,non_fall
4.793134,-0.9146,0.0559,-1.0565,0.174,-0.0268,0.2201,42.5438,-14.85,-18.7688,,0.04004999999999992,1.3985028494786844,1.2882780411279053,non_fall
4.805158,-0.9146,0.0559,-1.0565,0.174,-0.0268,0.2201,41.7188,-16.3875,-19.1625,,0.012023999999999369,1.3985028494786844,1.1169245518647628,non_fall
4.812748,-0.9146,0.0559,-1.0565,0.174,-0.0268,0.2201,41.7188,-16.3875,-19.1625,,0.00759000000000043,1.3985028494786844,0.9626320033578998,non_fall
4.813817,-0.0528,0.4841,-0.2121,0.174,-0.0268,0.2201,41.7188,-16.3875,-19.1625,,0.0010690000000002087,0.5311563423324624,0.8321735497350584,non_fall
4.853613,-0.0528,0.4841,-0.2121,0.0807,-0.0097,0.2527,41.7188,-16.3875,-19.1625,,0.03979599999999994,0.5311563423324624,0.7306529844506071,non_fall
4.86612,-0.0528,0.4841,-0.2121,0.0807,-0.0097,0.2527,40.9125,-17.775,-19.5,,0.01250699999999938,0.5311563423324624,0.6603756892300611,non_fall
4.87445,-0.0528,0.4841,-0.2121,0.0807,-0.0097,0.2527,40.9125,-17.775,-19.5,,0.008330000000000837,0.5311563423324624,0.6198778306972611,non_fall
4.893737,-0.6167,0.2078,-0.0038,0.0807,-0.0097,0.2527,40.9125,-17.775,-19.5,,0.019286999999999388,0.6507796631733355,0.6037411638834023,non_fall
4.91384,-0.6167,0.2078,-0.0038,0.0487,-0.0664,0.2276,40.9125,-17.775,-19.5,,0.020103000000000648,0.6507796631733355,0.6034263120357715,non_fall
4.925888,-0.6167,0.2078,-0.0038,0.0487,-0.0664,0.2276,40.3875,-18.975,-19.7063,,0.01204799999999917,0.6507796631733355,0.6089234333734774,non_fall
4.93462,-0.6167,0.2078,-0.0038,0.0487,-0.0664,0.2276,40.3875,-18.975,-19.7063,,0.008732000000000184,0.6507796631733355,0.6107618146930891,non_fall
4.954638,-0.5226,0.1316,0.3264,0.0487,-0.0664,0.2276,40.3875,-18.975,-19.7063,,0.020018000000000313,0.6300526009786801,0.6018733247952645,non_fall
4.974788,-0.5226,0.1316,0.3264,0.0449,-0.1585,0.1057,40.3875,-18.975,-19.7063,,0.020150000000000112,0.6300526009786801,0.5788968704598669,non_fall
4.985266,-0.5226,0.1316,0.3264,0.0449,-0.1585,0.1057,39.6375,-19.8,-19.65,,0.010477999999999987,0.6300526009786801,0.5426590043168384,non_fall
4.99747,-0.5226,0.1316,0.3264,0.0449,-0.1585,0.1057,39.6375,-19.8,-19.65,,0.01220399999999966,0.6300526009786801,0.497729497098751,non_fall
5.015522,0.0363,0.1622,0.2384,0.0449,-0.1585,0.1057,39.6375,-19.8,-19.65,,0.018051999999999957,0.29062190213402705,0.4511362834852668,non_fall
5.037204,0.0363,0.1622,0.2384,-0.0666,-0.0076,0.0589,39.6375,-19.8,-19.65,,0.0216820000000002,0.29062190213402705,0.4105381259725219,non_fall
5.045149,0.0363,0.1622,0.2384,-0.0666,-0.0076,0.0589,39.1313,-20.625,-19.6875,,0.007945000000000313,0.29062190213402705,0.3823385787405206,non_fall
5.056609,0.0363,0.1622,0.2384,-0.0666,-0.0076,0.0589,39.1313,-20.625,-19.6875,,0.011459999999999582,0.29062190213402705,0.37026643625567557,non_fall
5.076911,0.3763,-0.1661,-0.1891,-0.0666,-0.0076,0.0589,39.1313,-20.625,-19.6875,,0.020302000000000042,0.45271371748600686,0.37478135488130365,non_fall
5.09666,0.3763,-0.1661,-0.1891,-0.1799,-0.0129,0.0245,39.1313,-20.625,-19.6875,,0.019749000000000017,0.45271371748600686,0.39336055988621654,non_fall
5.104173,0.3763,-0.1661,-0.1891,-0.1799,-0.0129,0.0245,38.6438,-21.1125,-19.8,,0.007513000000000325,0.45271371748600686,0.4214406969682455,non_fall
5.118022,0.3763,-0.1661,-0.1891,-0.1799,-0.0129,0.0245,38.6438,-21.1125,-19.8,,0.013848999999999556,0.45271371748600686,0.453650779108679,non_fall
5.158522,0.3763,-0.1661,-0.1891,-0.2281,-0.2177,0.0138,38.6438,-21.1125,-19.8,,0.04049999999999976,0.45271371748600686,0.48499482727853366,non_fall
5.162167,0.3443,0.3989,-0.2419,-0.2281,-0.2177,0.0138,38.6438,-21.1125,-19.8,,0.0036450000000005645,0.5798097187871206,0.5117504156857926,non_fall
5.165326,0.3443,0.3989,-0.2419,-0.2281,-0.2177,0.0138,38.325,-21.4688,-19.95,,0.003159000000000134,0.5798097187871206,0.5319512629683325,non_fall
5.17804,0.3443,0.3989,-0.2419,-0.2281,-0.2177,0.0138,38.325,-21.4688,-19.95,,0.012713999999999892,0.5798097187871206,0.5453900448011086,non_fall
5.218798,0.3443,0.3989,-0.2419,-0.1458,0.028,0.0341,38.325,-21.4688,-19.95,,0.040757999999999406,0.5798097187871206,0.5531481543731797,non_fall
5.221497,0.3784,0.2607,0.1109,-0.1458,0.028,0.0341,38.325,-21.4688,-19.95,,0.002699000000000673,0.4727048339080107,0.5567674080591843,non_fall
5.228639,0.3784,0.2607,0.1109,-0.1458,0.028,0.0341,38.1,-21.825,-19.9875,,0.007141999999999982,0.4727048339080107,0.5573052672411243,non_fall
5.239929,0.3784,0.2607,0.1109,-0.1458,0.028,0.0341,38.1,-21.825,-19.9875,,0.0112899999999998,0.4727048339080107,0.5545941419112382,non_fall
5.27977,0.3422,0.1194,0.3955,-0.1458,0.028,0.0341,38.1,-21.825,-19.9875,,0.039841000000000015,0.5364489258074807,0.5469929823244338,non_fall
5.281623,0.3422,0.1194,0.3955,-0.0883,-0.0999,-0.0153,38.1,-21.825,-19.9875,,0.0018529999999996605,0.5364489258074807,0.5317636329598936,non_fall
5.285664,0.3422,0.1194,0.3955,-0.0883,-0.0999,-0.0153,37.8563,-22.0875,-20.2688,,0.004040999999999961,0.5364489258074807,0.5059825184603217,non_fall
5.300376,0.3422,0.1194,0.3955,-0.0883,-0.0999,-0.0153,37.8563,-22.0875,-20.2688,,0.01471200000000028,0.5364489258074807,0.4677018037108582,non_fall
5.340642,0.3422,0.1194,0.3955,-0.0457,0.0644,-0.0232,37.8563,-22.0875,-20.2688,,0.04026599999999991,0.5364489258074807,0.4169729876864075,non_fall
5.344937,0.3422,0.1194,0.3955,-0.0457,0.0644,-0.0232,37.4813,-22.0688,-20.5875,,0.004294999999999938,0.5364489258074807,0.35636828765268347,non_fall
5.360706,0.0393,0.0826,0.066,-0.0457,0.0644,-0.0232,37.4813,-22.0688,-20.5875,,0.015769000000000588,0.11279738472145531,0.29078674997178544,non_fall
5.361681,0.0393,0.0826,0.066,-0.0457,0.0644,-0.0232,37.4813,-22.0688,-20.5875,,0.000974999999999504,0.11279738472145531,0.2265895261137994,non_fall
5.402627,0.0393,0.0826,0.066,-0.0272,0.1149,-0.0121,37.4813,-22.0688,-20.5875,,0.04094599999999993,0.11279738472145531,0.17037470749796074,non_fall
5.405338,0.0393,0.0826,0.066,-0.0272,0.1149,-0.0121,37.2375,-22.1063,-20.6625,,0.002711000000000574,0.11279738472145531,0.12782316170841831,non_fall
5.422504,0.0393,0.0826,0.066,-0.0272,0.1149,-0.0121,37.2375,-22.1063,-20.6625,,0.01716599999999957,0.11279738472145531,0.10294578136726619,non_fall
5.424714,0.0672,-0.1196,-0.0857,-0.0272,0.1149,-0.0121,37.2375,-22.1063,-20.6625,,0.0022099999999998232,0.1617544126136904,0.09782528316588789,non_fall
5.462768,0.0672,-0.1196,-0.0857,-0.0425,-0.0931,-0.0575,37.2375,-22.1063,-20.6625,,0.03805399999999981,0.1617544126136904,0.1127321484539437,non_fall
5.465062,0.0672,-0.1196,-0.0857,-0.0425,-0.0931,-0.0575,36.9938,-22.125,-20.8125,,0.0022940000000000182,0.1617544126136904,0.1464023273066306,non_fall
5.481626,0.0672,-0.1196,-0.0857,-0.0425,-0.0931,-0.0575,36.9938,-22.125,-20.8125,,0.01656400000000069,0.1617544126136904,0.19629811811676612,non_fall
5.48321,-0.13,-0.2674,0.0339,-0.0425,-0.0931,-0.0575,36.9938,-22.125,-20.8125,,0.0015839999999993637,0.2992523517033743,0.25878125811066877,non_fall
5.522247,-0.13,-0.2674,0.0339,-0.0212,-0.0541,-0.0498,36.9938,-22.125,-20.8125,,0.03903700000000043,0.2992523517033743,0.32923990283193444,non_fall
5.524507,-0.13,-0.2674,0.0339,-0.0212,-0.0541,-0.0498,36.6938,-22.0875,-21.2438,,0.0022599999999997067,0.2992523517033743,0.4022811042629672,non_fall
5.542862,-0.13,-0.2674,0.0339,-0.0212,-0.0541,-0.0498,36.6938,-22.0875,-21.2438,,0.018355000000000565,0.2992523517033743,0.47211221134921455,non_fall
5.544133,-0.1637,-0.4957,0.483,-0.0212,-0.0541,-0.0498,36.6938,-22.0875,-21.2438,,0.0012710000000000221,0.7111998172103252,0.5331731000629513,non_fall
5.584589,-0.1637,-0.4957,0.483,-0.0301,-0.1133,-0.0937,36.6938,-22.0875,-21.2438,,0.040455999999999825,0.7111998172103252,0.5809316379784496,non_fall
5.587913,-0.1637,-0.4957,0.483,-0.0301,-0.1133,-0.0937,36.6,-21.9,-21.5625,,0.0033240000000001046,0.7111998172103252,0.6125760997350441,non_fall
5.60525,-0.1637,-0.4957,0.483,-0.0301,-0.1133,-0.0937,36.6,-21.9,-21.5625,,0.01733699999999949,0.7111998172103252,0.6272775692554663,non_fall
5.627305,-0.3034,-0.2912,0.2224,-0.0301,-0.1133,-0.0937,36.6,-21.9,-21.5625,,0.022054999999999936,0.4757213049675198,0.6258540047737039,non_fall
5.6461,-0.3034,-0.2912,0.2224,0.025,0.0887,-0.0671,36.6,-21.9,-21.5625,,0.018794999999999895,0.4757213049675198,0.6099753661072295,non_fall
5.647774,-0.3034,-0.2912,0.2224,0.025,0.0887,-0.0671,36.5813,-21.8063,-21.7875,,0.0016740000000003974,0.4757213049675198,0.5813118820589473,non_fall
5.666926,-0.3034,-0.2912,0.2224,0.025,0.0887,-0.0671,36.5813,-21.8063,-21.7875,,0.019152000000000058,0.4757213049675198,0.5410772455141442,non_fall
5.685738,0.4159,0.246,0.2158,0.025,0.0887,-0.0671,36.5813,-21.8063,-21.7875,,0.018811999999999607,0.5292054893895187,0.49022110946477154,non_fall
5.705756,0.4159,0.246,0.2158,0.025,0.0887,-0.0671,36.4875,-21.6562,-21.8625,,0.020018000000000313,0.5292054893895187,0.4301876302526736,non_fall
5.707253,0.4159,0.246,0.2158,0.0268,-0.1361,-0.0754,36.4875,-21.6562,-21.8625,,0.0014969999999996375,0.5292054893895187,0.3638487298327544,non_fall
5.726524,0.4159,0.246,0.2158,0.0268,-0.1361,-0.0754,36.4875,-21.6562,-21.8625,,0.019271000000000704,0.5292054893895187,0.29608407190564323,non_fall
5.745796,-0.0063,0.0857,-0.0144,0.0268,-0.1361,-0.0754,36.4875,-21.6562,-21.8625,,0.019271999999999956,0.08712944393257654,0.2335844514383852,non_fall
5.765795,-0.0063,0.0857,-0.0144,0.0268,-0.1361,-0.0754,36.15,-21.3188,-22.1063,,0.019998999999999434,0.08712944393257654,0.18377680931254198,non_fall
5.767439,-0.0063,0.0857,-0.0144,0.0108,-0.0747,-0.0551,36.15,-21.3188,-22.1063,,0.001644000000000645,0.08712944393257654,0.15316583736910733,non_fall
5.786461,-0.0063,0.0857,-0.0144,0.0108,-0.0747,-0.0551,36.15,-21.3188,-22.1063,,0.01902199999999965,0.08712944393257654,0.1456511955334008,non_fall
5.827699,-0.0063,0.0857,-0.0144,0.0108,-0.0747,-0.0551,36.1125,-21.3188,-22.0875,,0.041237999999999886,0.08712944393257654,0.1613864702991593,non_fall
5.829956,-0.0063,0.0857,-0.0144,-0.0439,0.018,0.0035,36.1125,-21.3188,-22.0875,,0.0022570000000001755,0.08712944393257654,0.1965444053778907,non_fall
5.831033,0.0639,0.0816,-0.3461,-0.0439,0.018,0.0035,36.1125,-21.3188,-22.0875,,0.0010769999999995505,0.3612851782179834,0.24407163872726528,non_fall
5.848523,0.0639,0.0816,-0.3461,-0.0439,0.018,0.0035,36.1125,-21.3188,-22.0875,,0.01749000000000045,0.3612851782179834,0.29524356445685357,non_fall
5.885375,0.0639,0.0816,-0.3461,-0.0439,0.018,0.0035,35.9625,-21.1688,-22.2938,,0.03685199999999966,0.3612851782179834,0.3416208751045191,non_fall
5.888363,0.0639,0.0816,-0.3461,-0.0989,-0.0112,0.012,35.9625,-21.1688,-22.2938,,0.0029880000000002127,0.3612851782179834,0.3769240202923331,non_fall
5.889009,-0.0191,0.2345,-0.4307,-0.0989,-0.0112,0.012,35.9625,-21.1688,-22.2938,,0.0006459999999997024,0.49077240142453,0.39839864138970627,non_fall
5.909611,-0.0191,0.2345,-0.4307,-0.0989,-0.0112,0.012,35.9625,-21.1688,-22.2938,,0.02060200000000023,0.49077240142453,0.4073833202077915,non_fall
5.946486,-0.0191,0.2345,-0.4307,-0.0989,-0.0112,0.012,35.9062,-20.9438,-22.575,,0.03687500000000021,0.49077240142453,0.40894331544602536,non_fall
5.949875,0.0512,0.2712,-0.2279,-0.0989,-0.0112,0.012,35.9062,-20.9438,-22.575,,0.0033889999999994203,0.35792358122928974,0.4106006061349211,non_fall
5.951671,0.0512,0.2712,-0.2279,-0.0866,-0.0112,-0.0288,35.9062,-20.9438,-22.575,,0.001796000000000575,0.35792358122928974,0.4203953403641075,non_fall
5.971569,0.0512,0.2712,-0.2279,-0.0866,-0.0112,-0.0288,35.9062,-20.9438,-22.575,,0.019897999999999527,0.35792358122928974,0.4447193831576142,non_fall
6.005127,0.0512,0.2712,-0.2279,-0.0866,-0.0112,-0.0288,36.0,-20.8688,-22.5375,,0.0335580000000002,0.35792358122928974,0.48647623988098754,non_fall
6.010336,0.0512,0.2712,-0.2279,0.0399,0.1422,-0.076,36.0,-20.8688,-22.5375,,0.005208999999999797,0.35792358122928974,0.5440723809596577,non_fall
6.011704,0.4079,-0.2306,0.6224,0.0399,0.1422,-0.076,36.0,-20.8688,-22.5375,,0.001368000000000258,0.7790638805643604,0.6115280134235579,non_fall
6.030802,0.4079,-0.2306,0.6224,0.0399,0.1422,-0.076,36.0,-20.8688,-22.5375,,0.019098000000000503,0.7790638805643604,0.6796667619259465,non_fall
6.065749,0.4079,-0.2306,0.6224,0.0399,0.1422,-0.076,36.0563,-20.7938,-22.65,,0.03494699999999984,0.7790638805643604,0.7380218910658068,non_fall
6.071756,0.4079,-0.2306,0.6224,0.0033,0.0133,-0.0451,36.0563,-20.7938,-22.65,,0.0060069999999994295,0.7790638805643604,0.7769312475143886,non_fall
6.092213,0.4079,-0.2306,0.6224,0.0033,0.0133,-0.0451,36.0563,-20.7938,-22.65,,0.02045700000000039,0.7790638805643604,0.7893497474137712,non_fall
6.094134,-0.2692,-0.6486,0.2622,0.0033,0.0133,-0.0451,36.0563,-20.7938,-22.65,,0.0019210000000002836,0.7495995197437095,0.7720976061479292,non_fall
6.126272,-0.2692,-0.6486,0.2622,0.0033,0.0133,-0.0451,35.925,-20.6625,-22.4813,,0.03213799999999978,0.7495995197437095,0.7264352256366188,non_fall
6.13484,-0.2692,-0.6486,0.2622,0.0072,0.0776,-0.0451,35.925,-20.6625,-22.4813,,0.008567999999999465,0.7495995197437095,0.6579398887696926,non_fall
6.15301,-0.2692,-0.6486,0.2622,0.0072,0.0776,-0.0451,35.925,-20.6625,-22.4813,,0.018170000000000464,0.7495995197437095,0.5756873122018651,non_fall
6.154277,0.0555,0.1387,-0.2835,0.0072,0.0776,-0.0451,35.925,-20.6625,-22.4813,,0.0012670000000003512,0.320453101092812,0.49079392902197194,non_fall
6.185182,0.0555,0.1387,-0.2835,0.0072,0.0776,-0.0451,35.8313,-20.6438,-22.5188,,0.030904999999999738,0.320453101092812,0.4145097442733614,non_fall
6.192996,0.0555,0.1387,-0.2835,0.0483,0.1735,-0.0426,35.8313,-20.6438,-22.5188,,0.007813999999999766,0.320453101092812,0.3562242864969133,non_fall
6.214077,0.0555,0.1387,-0.2835,0.0483,0.1735,-0.0426,35.8313,-20.6438,-22.5188,,0.021080999999999683,0.320453101092812,0.3218300815129541,non_fall
6.216219,0.2691,0.0263,-0.1245,0.0483,0.1735,-0.0426,35.8313,-20.6438,-22.5188,,0.0021420000000000883,0.2976688596410448,0.3127992935612748,non_fall
6.247,0.2691,0.0263,-0.1245,0.0483,0.1735,-0.0426,36.1125,-20.8688,-22.1438,,0.03078100000000017,0.2976688596410448,0.32613328249195617,non_fall
6.253365,0.2691,0.0263,-0.1245,0.0462,0.2292,-0.0579,36.1125,-20.8688,-22.1438,,0.006364999999999732,0.2976688596410448,0.35516196923685533,non_fall
6.275362,0.2691,0.0263,-0.1245,0.0462,0.2292,-0.0579,36.1125,-20.8688,-22.1438,,0.02199700000000071,0.2976688596410448,0.391044542272752,non_fall
6.276582,0.4931,-0.2766,-0.0836,0.0462,0.2292,-0.0579,36.1125,-20.8688,-22.1438,,0.0012199999999999989,0.5715278908329846,0.4247170538402518,non_fall
6.306136,0.4931,-0.2766,-0.0836,0.0462,0.2292,-0.0579,36.2438,-20.925,-21.9563,,0.02955400000000008,0.5715278908329846,0.4489120970963735,non_fall
6.31676,0.4931,-0.2766,-0.0836,0.0268,0.1831,-0.1148,36.2438,-20.925,-21.9563,,0.010623999999999967,0.5715278908329846,0.4597813509453955,non_fall
6.335313,0.4931,-0.2766,-0.0836,0.0268,0.1831,-0.1148,36.2438,-20.925,-21.9563,,0.01855299999999982,0.5715278908329846,0.4576824588350463,non_fall
6.355614,0.264,-0.1949,0.0221,0.0268,0.1831,-0.1148,36.2438,-20.925,-21.9563,,0.020300999999999902,0.3288927180708019,0.44690759612289865,non_fall
6.366417,0.264,-0.1949,0.0221,0.0268,0.1831,-0.1148,36.6188,-20.7563,-21.7688,,0.010803000000000118,0.3288927180708019,0.43447224440457044,non_fall
6.375467,0.264,-0.1949,0.0221,-0.0482,-0.0995,-0.2166,36.6188,-20.7563,-21.7688,,0.009050000000000225,0.3288927180708019,0.4283933530620126,non_fall
6.396376,0.264,-0.1949,0.0221,-0.0482,-0.0995,-0.2166,36.6188,-20.7563,-21.7688,,0.020908999999999622,0.3288927180708019,0.4360137984778396,non_fall
6.416466,-0.5581,-0.09,-0.0419,-0.0482,-0.0995,-0.2166,36.6188,-20.7563,-21.7688,,0.02008999999999972,0.5668608471221135,0.46282073536088747,non_fall
6.425667,-0.5581,-0.09,-0.0419,-0.0482,-0.0995,-0.2166,37.0875,-20.6813,-21.4875,,0.009201000000000015,0.5668608471221135,0.5119355693688908,non_fall
6.436941,-0.5581,-0.09,-0.0419,-0.1017,-0.0417,-0.0711,37.0875,-20.6813,-21.4875,,0.011274000000000228,0.5668608471221135,0.5841781091867693,non_fall
6.457603,-0.5581,-0.09,-0.0419,-0.1017,-0.0417,-0.0711,37.0875,-20.6813,-21.4875,,0.020661999999999736,0.5668608471221135,0.6784570330285008,non_fall
6.479328,-0.9587,-0.0335,-0.401,-0.1017,-0.0417,-0.0711,37.0875,-20.6813,-21.4875,,0.021724999999999994,1.0397254156747346,0.7922307918728142,non_fall
6.485093,-0.9587,-0.0335,-0.401,-0.1017,-0.0417,-0.0711,37.3688,-20.55,-21.4688,,0.005765000000000242,1.0397254156747346,0.9218413300475581,non_fall
6.497821,-0.9587,-0.0335,-0.401,-0.3577,0.1309,0.2364,37.3688,-20.55,-21.4688,,0.012728000000000073,1.0397254156747346,1.0626066979269602,non_fall
6.518538,-0.9587,-0.0335,-0.401,-0.3577,0.1309,0.2364,37.3688,-20.55,-21.4688,,0.02071700000000032,1.0397254156747346,1.2087175003123312,non_fall
6.546389,-0.9587,-0.0335,-0.401,-0.3577,0.1309,0.2364,37.6313,-20.4375,-21.2438,,0.027850999999999182,1.0397254156747346,1.3532203372540257,non_fall
6.558745,-0.9587,-0.0335,-0.401,-0.706,0.7233,0.3031,37.6313,-20.4375,-21.2438,,0.012356000000000478,1.0397254156747346,1.4885247568438382,non_fall
6.560698,-1.3671,-0.301,-1.571,-0.706,0.7233,0.3031,37.6313,-20.4375,-21.2438,,0.0019530000000003156,2.104187351449485,1.607710973417432,non_fall
6.579233,-1.3671,-0.301,-1.571,-0.706,0.7233,0.3031,37.6313,-20.4375,-21.2438,,0.018534999999999968,2.104187351449485,1.7063953962674272,non_fall
6.605548,-1.3671,-0.301,-1.571,-0.706,0.7233,0.3031,38.1375,-20.1375,-21.2625,,0.026314999999999422,2.104187351449485,1.7843152566265221,non_fall
6.622326,-1.3671,-0.301,-1.571,-0.8494,0.0879,-0.1395,38.1375,-20.1375,-21.2625,,0.016778000000000404,2.104187351449485,1.8456081937003868,non_fall
6.62385,0.9993,-1.1407,-0.2381,-0.8494,0.0879,-0.1395,38.1375,-20.1375,-21.2625,,0.0015239999999998588,1.535085857533708,1.897262998032905,non_fall
6.64048,0.9993,-1.1407,-0.2381,-0.8494,0.0879,-0.1395,38.1375,-20.1375,-21.2625,,0.016630000000000145,1.535085857533708,1.9461787850982046,non_fall
6.664084,0.9993,-1.1407,-0.2381,-0.8494,0.0879,-0.1395,38.7563,-19.5188,-21.3188,,0.023603999999999736,1.535085857533708,1.9961229532864415,non_fall
6.680315,0.9993,-1.1407,-0.2381,-0.7993,0.1356,-0.2095,38.7563,-19.5188,-21.3188,,0.01623100000000033,1.535085857533708,2.046104968792425,non_fall
6.681759,1.8687,-0.4182,1.7406,-0.7993,0.1356,-0.2095,38.7563,-19.5188,-21.3188,,0.0014439999999993347,2.587782697600399,2.091100062798303,non_fall
6.701516,1.8687,-0.4182,1.7406,-0.7993,0.1356,-0.2095,38.7563,-19.5188,-21.3188,,0.019757000000000247,2.587782697600399,2.1249059136965975,non_fall
6.725091,1.8687,-0.4182,1.7406,-0.7993,0.1356,-0.2095,39.3563,-18.675,-21.4688,,0.023575000000000124,2.587782697600399,2.1437789261415356,non_fall
6.741417,1.8687,-0.4182,1.7406,-0.8242,1.8083,0.1107,39.3563,-18.675,-21.4688,,0.016326000000000285,2.587782697600399,2.1490185185704838,non_fall
6.743352,0.3199,1.8267,0.0338,-0.8242,1.8083,0.1107,39.3563,-18.675,-21.4688,,0.001934999999999576,1.8548076288391744,2.1471489404749224,non_fall
6.761487,0.3199,1.8267,0.0338,-0.8242,1.8083,0.1107,39.3563,-18.675,-21.4688,,0.018135000000000012,1.8548076288391744,2.1475265442247067,non_fall
6.78504,0.3199,1.8267,0.0338,-0.8242,1.8083,0.1107,40.3688,-17.6438,-21.0188,,0.0235530000000006,1.8548076288391744,2.1584370963142474,non_fall
6.802022,0.3199,1.8267,0.0338,-0.4597,0.8562,0.2623,40.3688,-17.6438,-21.0188,,0.01698199999999961,1.8548076288391744,2.1834374676049824,non_fall
6.822392,0.3199,1.8267,0.0338,-0.4597,0.8562,0.2623,40.3688,-17.6438,-21.0188,,0.020369999999999777,1.8548076288391744,2.219585667946399,non_fall
6.823657,-0.7925,1.2504,2.0125,-0.4597,0.8562,0.2623,40.3688,-17.6438,-21.0188,,0.0012650000000000716,2.498341982195392,2.258439813582791,non_fall
6.846643,-0.7925,1.2504,2.0125,-0.4597,0.8562,0.2623,41.1562,-16.8563,-20.2688,,0.022986000000000395,2.498341982195392,2.2896510910356964,non_fall
6.862955,-0.7925,1.2504,2.0125,-1.0823,3.5432,0.5314,41.1562,-16.8563,-20.2688,,0.016312000000000104,2.498341982195392,2.306019298599869,non_fall
6.883369,-0.7925,1.2504,2.0125,-1.0823,3.5432,0.5314,41.1562,-16.8563,-20.2688,,0.02041399999999971,2.498341982195392,2.308353581955058,non_fall
6.884696,-0.6353,0.0706,-2.401,-1.0823,3.5432,0.5314,41.1562,-16.8563,-20.2688,,0.001326999999999856,2.484631049069459,2.3085305387918598,non_fall
6.905001,-0.6353,0.0706,-2.401,-1.0823,3.5432,0.5314,42.1688,-16.0875,-17.9813,,0.02030500000000046,2.484631049069459,2.3296444100975044,non_fall
6.924787,-0.6353,0.0706,-2.401,-1.9144,2.3276,0.192,42.1688,-16.0875,-17.9813,,0.01978599999999986,2.484631049069459,2.4028467335326193,non_fall
6.946278,-0.6353,0.0706,-2.401,-1.9144,2.3276,0.192,42.1688,-16.0875,-17.9813,,0.02149100000000015,2.484631049069459,2.5611868319817166,non_fall
6.948923,0.8009,-2.4626,-1.8659,-1.9144,2.3276,0.192,42.1688,-16.0875,-17.9813,,0.0026449999999993423,3.1917741743425396,2.831397174405871,non_fall
6.96619,0.8009,-2.4626,-1.8659,-1.9144,2.3276,0.192,43.3125,-15.2813,-15.0,,0.017267000000000365,3.1917741743425396,3.225078120656909,non_fall
6.985074,0.8009,-2.4626,-1.8659,-1.5179,1.0418,0.5732,43.3125,-15.2813,-15.0,,0.0188839999999999,3.1917741743425396,3.7311386711557883,non_fall
7.005337,0.8009,-2.4626,-1.8659,-1.5179,1.0418,0.5732,43.3125,-15.2813,-15.0,,0.02026299999999992,3.1917741743425396,4.3116427725993445,non_fall
7.02508,0.8009,-2.4626,-1.8659,-1.5179,1.0418,0.5732,44.5875,-14.7938,-12.1125,,0.019743000000000066,3.1917741743425396,4.9031645316880175,non_fall
7.026786,-0.2201,0.6719,6.6885,-1.5179,1.0418,0.5732,44.5875,-14.7938,-12.1125,,0.0017060000000004294,6.725765820336001,5.424868936638721,non_fall
7.047898,-0.2201,0.6719,6.6885,-1.2875,-0.7555,0.624,44.5875,-14.7938,-12.1125,,0.021111999999999576,6.725765820336001,5.792537608509405,non_fall
7.066196,-0.2201,0.6719,6.6885,-1.2875,-0.7555,0.624,44.5875,-14.7938,-12.1125,,0.018297999999999703,6.725765820336001,5.93532161142972,non_fall
7.086473,-0.2201,0.6719,6.6885,-1.2875,-0.7555,0.624,45.4313,-14.8688,-9.4688,,0.0202770000000001,6.725765820336001,5.810593776644521,non_fall
7.088149,-2.8248,0.9244,3.3418,-1.2875,-0.7555,0.624,45.4313,-14.8688,-9.4688,,0.0016759999999997888,4.472319044969847,5.412895105223294,non_fall
7.107468,-2.8248,0.9244,3.3418,-0.6587,0.6811,0.7938,45.4313,-14.8688,-9.4688,,0.019319000000000308,4.472319044969847,4.775174847294848,non_fall
7.126912,-2.8248,0.9244,3.3418,-0.6587,0.6811,0.7938,45.4313,-14.8688,-9.4688,,0.019444000000000017,4.472319044969847,3.962873783454355,non_fall
7.148613,-2.8248,0.9244,3.3418,-0.6587,0.6811,0.7938,46.1438,-15.525,-6.6375,,0.021701000000000192,4.472319044969847,3.062750940613376,non_fall
7.150457,0.3004,-0.0579,0.3113,-0.6587,0.6811,0.7938,46.1438,-15.525,-6.6375,,0.0018440000000001788,0.4364633547046075,2.168711502979674,non_fall
7.167457,0.3004,-0.0579,0.3113,-0.432,0.9896,0.5321,46.1438,-15.525,-6.6375,,0.01699999999999946,0.4364633547046075,1.3670823089064685,non_fall
7.188681,0.3004,-0.0579,0.3113,-0.432,0.9896,0.5321,46.1438,-15.525,-6.6375,,0.02122400000000013,0.4364633547046075,0.7241391594305391,non_fall
7.205121,0.3004,-0.0579,0.3113,-0.432,0.9896,0.5321,46.5375,-16.575,-3.525,,0.016440000000000232,0.4364633547046075,0.2784879527211765,non_fall
7.207047,0.0095,0.327,-0.1567,-0.432,0.9896,0.5321,46.5375,-16.575,-3.525,,0.0019260000000000943,0.3627314984944098,0.03951209068029203,non_fall
7.228522,0.0095,0.327,-0.1567,-0.2264,1.2232,0.3659,46.5375,-16.575,-3.525,,0.02147499999999969,0.3627314984944098,-0.008872010770609565,non_fall
7.249497,0.0095,0.327,-0.1567,-0.2264,1.2232,0.3659,46.5375,-16.575,-3.525,,0.020974999999999966,0.3627314984944098,0.09873442380269898,non_fall
7.265005,0.0095,0.327,-0.1567,-0.2264,1.2232,0.3659,46.575,-17.7375,-0.6562,,0.015508000000000521,0.3627314984944098,0.3170423624280624,non_fall
7.290518,0.0095,0.327,-0.1567,-0.23,1.1667,-0.0213,46.575,-17.7375,-0.6562,,0.02551299999999923,0.3627314984944098,0.5971292235025146,non_fall
7.292257,-0.7692,0.5678,0.4598,-0.23,1.1667,-0.0213,46.575,-17.7375,-0.6562,,0.0017390000000006012,1.060887138200855,0.8919826034858402,non_fall
7.310241,-0.7692,0.5678,0.4598,-0.23,1.1667,-0.0213,46.575,-17.7375,-0.6562,,0.017984000000000222,1.060887138200855,1.160517410168917,non_fall
7.325208,-0.7692,0.5678,0.4598,-0.23,1.1667,-0.0213,46.0312,-18.45,1.7438,,0.014966999999999508,1.060887138200855,1.3703842423509403,non_fall
7.350935,0.2108,-0.3752,-1.5501,-0.23,1.1667,-0.0213,46.0312,-18.45,1.7438,,0.025726999999999833,1.6087329455195478,1.4999044662215915,non_fall
7.353027,0.2108,-0.3752,-1.5501,-0.0393,1.2211,0.0113,46.0312,-18.45,1.7438,,0.002092000000000205,1.6087329455195478,1.5392999979281186,non_fall
7.371574,0.2108,-0.3752,-1.5501,-0.0393,1.2211,0.0113,46.0312,-18.45,1.7438,,0.01854699999999987,1.6087329455195478,1.491122400318515,non_fall
7.385711,0.2108,-0.3752,-1.5501,-0.0393,1.2211,0.0113,45.7313,-19.4625,3.4125,,0.014136999999999844,1.6087329455195478,1.3695523747708238,non_fall
7.412621,0.2108,-0.3752,-1.5501,-0.1482,1.0741,0.061,45.7313,-19.4625,3.4125,,0.02690999999999999,1.6087329455195478,1.1982116826791505,non_fall
7.416063,0.0422,0.2884,-0.4738,-0.1482,1.0741,0.061,45.7313,-19.4625,3.4125,,0.0034420000000006112,0.5562749679789664,1.006404006743417,non_fall
7.433648,0.0422,0.2884,-0.4738,-0.1482,1.0741,0.061,45.7313,-19.4625,3.4125,,0.017584999999999518,0.5562749679789664,0.8242202064959577,non_fall
7.446188,0.0422,0.2884,-0.4738,-0.1482,1.0741,0.061,45.2438,-20.7938,5.0438,,0.01254000000000044,0.5562749679789664,0.6774676562791626,non_fall
7.472546,0.0422,0.2884,-0.4738,-0.2722,0.6659,-0.1743,45.2438,-20.7938,5.0438,,0.026358000000000104,0.5562749679789664,0.5835745126029316,non_fall
7.492551,0.0422,0.2884,-0.4738,-0.2722,0.6659,-0.1743,45.2438,-20.7938,5.0438,,0.020004999999999384,0.5562749679789664,0.5493198955948213,non_fall
7.494204,0.3268,-0.3856,-0.395,-0.2722,0.6659,-0.1743,45.2438,-20.7938,5.0438,,0.0016530000000001266,0.6414909196551422,0.5706564065331491,non_fall
7.505107,0.3268,-0.3856,-0.395,-0.2722,0.6659,-0.1743,44.5312,-21.825,6.7313,,0.010902999999999885,0.6414909196551422,0.6343768342592471,non_fall
7.533073,0.3268,-0.3856,-0.395,-0.2547,0.3133,-0.2894,44.5312,-21.825,6.7313,,0.027966000000000157,0.6414909196551422,0.7211138115055803,non_fall
7.553745,0.3268,-0.3856,-0.395,-0.2547,0.3133,-0.2894,44.5312,-21.825,6.7313,,0.020672000000000246,0.6414909196551422,0.8091045565081367,non_fall
7.556292,0.543,-0.3489,-0.9032,-0.2547,0.3133,-0.2894,44.5312,-21.825,6.7313,,0.002546999999999855,1.110112809582882,0.8781591038370942,non_fall
7.565744,0.543,-0.3489,-0.9032,-0.2547,0.3133,-0.2894,44.0813,-22.3875,8.6813,,0.009451999999999572,1.110112809582882,0.9132275126189956,non_fall
7.594744,0.543,-0.3489,-0.9032,-0.2232,0.2115,-0.3202,44.0813,-22.3875,8.6813,,0.029000000000000803,1.110112809582882,0.906895509281484,non_fall
7.614418,0.543,-0.3489,-0.9032,-0.2232,0.2115,-0.3202,44.0813,-22.3875,8.6813,,0.019673999999999303,1.110112809582882,0.8602145817775271,non_fall
7.615816,0.1297,0.215,-0.3852,-0.2232,0.2115,-0.3202,44.0813,-22.3875,8.6813,,0.0013980000000000103,0.45981097203089877,0.7816298301243154,non_fall
7.626125,0.1297,0.215,-0.3852,-0.2232,0.2115,-0.3202,43.6688,-22.5,10.575,,0.010309000000000346,0.45981097203089877,0.6843405355823876,non_fall
7.65472,0.1297,0.215,-0.3852,-0.1838,0.1369,-0.4349,43.6688,-22.5,10.575,,0.028595000000000148,0.45981097203089877,0.5829439069048619,non_fall
7.675399,0.1297,0.215,-0.3852,-0.1838,0.1369,-0.4349,43.6688,-22.5,10.575,,0.020678999999999448,0.45981097203089877,0.49037842540555626,non_fall
7.677071,-0.0309,0.2041,-0.3576,-0.1838,0.1369,-0.4349,43.6688,-22.5,10.575,,0.0016720000000001178,0.41290359649680936,0.4159160393196826,non_fall
7.686513,-0.0309,0.2041,-0.3576,-0.1838,0.1369,-0.4349,43.65,-22.2938,12.15,,0.00944199999999995,0.41290359649680936,0.36444843052547227,non_fall
7.716606,-0.0309,0.2041,-0.3576,-0.0621,0.0929,-0.4385,43.65,-22.2938,12.15,,0.030092999999999925,0.41290359649680936,0.33685968677029704,non_fall
7.736787,-0.0309,0.2041,-0.3576,-0.0621,0.0929,-0.4385,43.65,-22.2938,12.15,,0.020181000000000004,0.41290359649680936,0.3310342627101297,non_fall
7.746408,-0.0309,0.2041,-0.3576,-0.0621,0.0929,-0.4385,43.5188,-22.125,13.5563,,0.009621000000000102,0.41290359649680936,0.34301945655981186,non_fall
7.757165,0.0171,0.1501,-0.3073,-0.0621,0.0929,-0.4385,43.5188,-22.125,13.5563,,0.010756999999999906,0.3424262110294713,0.36798887825920096,non_fall
7.776575,0.0171,0.1501,-0.3073,0.1645,0.1202,-0.3143,43.5188,-22.125,13.5563,,0.019410000000000593,0.3424262110294713,0.4008674181281966,non_fall
7.797011,0.0171,0.1501,-0.3073,0.1645,0.1202,-0.3143,43.5188,-22.125,13.5563,,0.02043600000000012,0.3424262110294713,0.4366932509772966,non_fall
7.804855,0.0171,0.1501,-0.3073,0.1645,0.1202,-0.3143,43.65,-21.6,14.55,,0.007843999999999518,0.3424262110294713,0.4709165402312102,non_fall
7.817733,0.2128,-0.0082,-0.5806,0.1645,0.1202,-0.3143,43.65,-21.6,14.55,,0.012877999999999723,0.6184233501413089,0.49980751567149306,non_fall
7.837747,0.2128,-0.0082,-0.5806,0.2742,0.0378,-0.2546,43.65,-21.6,14.55,,0.020014000000000642,0.6184233501413089,0.5209819409194458,non_fall
7.857812,0.2128,-0.0082,-0.5806,0.2742,0.0378,-0.2546,43.65,-21.6,14.55,,0.020064999999999777,0.6184233501413089,0.5338519525616442,non_fall
7.865685,0.2128,-0.0082,-0.5806,0.2742,0.0378,-0.2546,43.7625,-21.2063,15.3375,,0.007873000000000019,0.6184233501413089,0.5397188821734867,non_fall
7.878265,-0.1265,0.2309,-0.3911,0.2742,0.0378,-0.2546,43.7625,-21.2063,15.3375,,0.012579999999999814,0.471461843631062,0.5413228586930613,non_fall
7.898774,-0.1265,0.2309,-0.3911,0.4502,0.0613,-0.1917,43.7625,-21.2063,15.3375,,0.020509000000000555,0.471461843631062,0.5419011870796575,non_fall
7.919469,-0.1265,0.2309,-0.3911,0.4502,0.0613,-0.1917,43.7625,-21.2063,15.3375,,0.020694999999999908,0.471461843631062,0.5440451228613293,non_fall
7.924947,-0.1265,0.2309,-0.3911,0.4502,0.0613,-0.1917,43.9688,-20.4,15.6563,,0.005478000000000094,0.471461843631062,0.5487566208996421,non_fall
7.959522,-0.1265,0.2309,-0.3911,0.5049,0.1579,-0.1232,43.9688,-20.4,15.6563,,0.034574999999999356,0.471461843631062,0.5550464928082073,non_fall
7.961177,0.4323,-0.0973,-0.4604,0.5049,0.1579,-0.1232,43.9688,-20.4,15.6563,,0.0016550000000004061,0.6389982316094467,0.5602195769420931,non_fall
7.978846,0.4323,-0.0973,-0.4604,0.5049,0.1579,-0.1232,43.9688,-20.4,15.6563,,0.017668999999999713,0.6389982316094467,0.5607419831093338,non_fall
7.984334,0.4323,-0.0973,-0.4604,0.5049,0.1579,-0.1232,44.2125,-19.4813,16.0312,,0.005487999999999715,0.6389982316094467,0.5533740964749342,non_fall
8.020862,0.4323,-0.0973,-0.4604,0.4776,0.2545,0.0021,44.2125,-19.4813,16.0312,,0.03652799999999967,0.6389982316094467,0.5361688118703493,non_fall
8.022919,0.0669,0.339,-0.2281,0.4776,0.2545,0.0021,44.2125,-19.4813,16.0312,,0.0020570000000006416,0.41403649597589826,0.5090197844899091,non_fall
8.039889,0.0669,0.339,-0.2281,0.4776,0.2545,0.0021,44.2125,-19.4813,16.0312,,0.016970000000000596,0.41403649597589826,0.4736561983282233,non_fall
8.044493,0.0669,0.339,-0.2281,0.4776,0.2545,0.0021,44.325,-18.6,16.4625,,0.00460399999999872,0.41403649597589826,0.4332034738834734,non_fall
8.080743,0.0669,0.339,-0.2281,0.5412,0.1905,-0.1917,44.325,-18.6,16.4625,,0.03625000000000078,0.41403649597589826,0.3915468525485928,non_fall
8.082822,0.2249,-0.048,-0.2226,0.5412,0.1905,-0.1917,44.325,-18.6,16.4625,,0.002079000000000164,0.3200543235139935,0.35271138637099325,non_fall
8.100953,0.2249,-0.048,-0.2226,0.5412,0.1905,-0.1917,44.325,-18.6,16.4625,,0.01813100000000034,0.3200543235139935,0.32037065561104117,non_fall
8.103872,0.2249,-0.048,-0.2226,0.5412,0.1905,-0.1917,44.4938,-17.5688,16.95,,0.002919000000000338,0.3200543235139935,0.29750287325290414,non_fall
8.141456,0.2249,-0.048,-0.2226,0.4779,0.1579,-0.2305,44.4938,-17.5688,16.95,,0.03758399999999895,0.3200543235139935,0.2861597890252207,non_fall
8.143463,0.1284,0.1411,-0.2332,0.4779,0.1579,-0.2305,44.4938,-17.5688,16.95,,0.002007000000000758,0.30129389306788146,0.2872947179666288,non_fall
8.161769,0.1284,0.1411,-0.2332,0.4779,0.1579,-0.2305,44.4938,-17.5688,16.95,,0.018305999999999045,0.30129389306788146,0.3006097658919205,non_fall
8.162952,0.1284,0.1411,-0.2332,0.4779,0.1579,-0.2305,44.3625,-16.4438,17.4563,,0.0011830000000010443,0.30129389306788146,0.32442987114832167,non_fall
8.202015,0.1284,0.1411,-0.2332,0.4159,-0.0016,-0.4261,44.3625,-16.4438,17.4563,,0.03906299999999874,0.30129389306788146,0.3556722899944872,non_fall
8.222752,0.1284,0.1411,-0.2332,0.4159,-0.0016,-0.4261,44.3625,-16.4438,17.4563,,0.02073700000000045,0.30129389306788146,0.39001629657535114,non_fall
8.22528,-0.3464,0.2975,0.1635,0.4159,-0.0016,-0.4261,44.3625,-16.4438,17.4563,,0.0025279999999998637,0.4850066597480905,0.4223546425969484,non_fall
8.227186,-0.3464,0.2975,0.1635,0.4159,-0.0016,-0.4261,44.475,-15.3188,18.0188,,0.0019059999999999633,0.4850066597480905,0.44751744353576767,non_fall
8.262994,-0.3464,0.2975,0.1635,0.3356,0.0889,-0.372,44.475,-15.3188,18.0188,,0.03580800000000117,0.4850066597480905,0.46113830891277396,non_fall
8.284077,-0.3464,0.2975,0.1635,0.3356,0.0889,-0.372,44.475,-15.3188,18.0188,,0.021082999999999075,0.4850066597480905,0.4604536343635743,non_fall
8.285472,-0.3464,0.2975,0.1635,0.3356,0.0889,-0.372,44.4,-14.025,18.5063,,0.0013950000000004792,0.4850066597480905,0.44483700435539003,non_fall
8.286736,0.0664,-0.1153,-0.3408,0.3356,0.0889,-0.372,44.4,-14.025,18.5063,,0.0012639999999990437,0.365852005597892,0.41595534928943334,non_fall
8.325714,0.0664,-0.1153,-0.3408,0.1403,0.0493,-0.338,44.4,-14.025,18.5063,,0.03897800000000018,0.365852005597892,0.37753921985496847,non_fall
8.345323,0.0664,-0.1153,-0.3408,0.1403,0.0493,-0.338,44.175,-12.7875,18.975,,0.019609000000000876,0.365852005597892,0.33484139431470944,non_fall
8.347338,0.0664,-0.1153,-0.3408,0.1403,0.0493,-0.338,44.175,-12.7875,18.975,,0.0020150000000001,0.365852005597892,0.2938951614228053,non_fall
8.348393,-0.0908,0.1277,0.0753,0.1403,0.0493,-0.338,44.175,-12.7875,18.975,,0.00105499999999914,0.17384481585598116,0.26068919227795523,non_fall
8.385128,-0.0908,0.1277,0.0753,-0.0862,0.1475,-0.2734,44.175,-12.7875,18.975,,0.036735000000000184,0.17384481585598116,0.2403868953231494,non_fall
8.40542,-0.0908,0.1277,0.0753,-0.0862,0.1475,-0.2734,44.175,-12.7875,18.975,,0.020291999999999533,0.17384481585598116,0.23674072043996042,non_fall
8.407423,-0.0908,0.1277,0.0753,-0.0862,0.1475,-0.2734,44.25,-11.4938,19.7063,,0.002003000000000199,0.17384481585598116,0.2518330123410058,non_fall
8.426239,0.4144,-0.0099,0.223,-0.0862,0.1475,-0.2734,44.25,-11.4938,19.7063,,0.018816000000001054,0.4706956235190635,0.2861630545174839,non_fall
8.44617,0.4144,-0.0099,0.223,-0.0354,-0.222,-0.6089,44.25,-11.4938,19.7063,,0.0199309999999997,0.4706956235190635,0.3389244354355412,non_fall
8.467669,0.4144,-0.0099,0.223,-0.0354,-0.222,-0.6089,44.3625,-10.3125,20.0813,,0.02149900000000038,0.4706956235190635,0.4081927721143574,non_fall
8.46996,0.4144,-0.0099,0.223,-0.0354,-0.222,-0.6089,44.3625,-10.3125,20.0813,,0.002290999999999599,0.4706956235190635,0.4907906997497782,non_fall
8.487191,-0.5023,0.1555,-0.0313,-0.0354,-0.222,-0.6089,44.3625,-10.3125,20.0813,,0.017230999999998886,0.5267496843852875,0.5818299057944958,non_fall
8.507782,-0.5023,0.1555,-0.0313,0.1165,-0.134,-0.5314,44.3625,-10.3125,20.0813,,0.020591000000001358,0.5267496843852875,0.6742257047893783,non_fall
8.525645,-0.5023,0.1555,-0.0313,0.1165,-0.134,-0.5314,44.55,-9.0,20.3438,,0.017863000000000184,0.5267496843852875,0.7586673158014094,non_fall
8.527034,-0.5023,0.1555,-0.0313,0.1165,-0.134,-0.5314,44.55,-9.0,20.3438,,0.0013889999999996405,0.5267496843852875,0.8244932615831733,non_fall
8.548556,0.7282,-0.2598,-0.8178,0.1165,-0.134,-0.5314,44.55,-9.0,20.3438,,0.021521999999999153,1.1254190863851563,0.8616300856246838,non_fall
8.568832,0.7282,-0.2598,-0.8178,0.3771,0.1032,-0.3096,44.55,-9.0,20.3438,,0.02027600000000085,1.1254190863851563,0.8632540478103292,non_fall
8.585716,0.7282,-0.2598,-0.8178,0.3771,0.1032,-0.3096,44.775,-7.8,20.7188,,0.016883999999999233,1.1254190863851563,0.8283255589340702,non_fall
8.588328,0.7282,-0.2598,-0.8178,0.3771,0.1032,-0.3096,44.775,-7.8,20.7188,,0.002612000000000947,1.1254190863851563,0.7629366446084681,non_fall
8.609062,0.0038,-0.2598,-0.2846,0.3771,0.1032,-0.3096,44.775,-7.8,20.7188,,0.020733999999999142,0.3853668901190137,0.6797153915188598,non_fall
8.630284,0.0038,-0.2598,-0.2846,0.4513,0.2136,-0.3795,44.775,-7.8,20.7188,,0.021221999999999852,0.3853668901190137,0.5952570626931488,non_fall
8.645213,0.0038,-0.2598,-0.2846,0.4513,0.2136,-0.3795,45.0563,-6.5625,21.2063,,0.014929000000000414,0.3853668901190137,0.5263310460642656,non_fall
8.650925,0.0038,-0.2598,-0.2846,0.4513,0.2136,-0.3795,45.0563,-6.5625,21.2063,,0.0057120000000008275,0.3853668901190137,0.48603854000155977,non_fall
8.691442,0.0038,-0.2598,-0.2846,0.4272,-0.0342,-0.4033,45.0563,-6.5625,21.2063,,0.04051699999999947,0.3853668901190137,0.4809997323494778,non_fall
8.693771,0.1044,0.5025,-0.2903,0.4272,-0.0342,-0.4033,45.0563,-6.5625,21.2063,,0.0023289999999995814,0.5896437059784493,0.5101893628446079,non_fall
8.705146,0.1044,0.5025,-0.2903,0.4272,-0.0342,-0.4033,45.075,-5.1375,21.4313,,0.011374999999999247,0.5896437059784493,0.5655096619026498,non_fall
8.71073,0.1044,0.5025,-0.2903,0.4272,-0.0342,-0.4033,45.075,-5.1375,21.4313,,0.0055840000000006995,0.5896437059784493,0.6337914525717478,non_fall
8.753734,0.1044,0.5025,-0.2903,0.4666,0.0883,-0.2563,45.075,-5.1375,21.4313,,0.04300399999999982,0.5896437059784493,0.6997043783045809,non_fall
8.757102,-0.4808,0.7888,0.0813,0.4666,0.0883,-0.2563,45.075,-5.1375,21.4313,,0.0033680000000000376,0.9273530988787388,0.7489871750978013,non_fall
8.765466,-0.4808,0.7888,0.0813,0.4666,0.0883,-0.2563,45.0938,-3.8438,21.6562,,0.00836400000000026,0.9273530988787388,0.7713864224191118,non_fall
8.769887,-0.4808,0.7888,0.0813,0.4666,0.0883,-0.2563,45.0938,-3.8438,21.6562,,0.004421000000000674,0.9273530988787388,0.7626900982979622,non_fall
8.812905,-0.4808,0.7888,0.0813,0.3899,0.2232,-0.0839,45.0938,-3.8438,21.6562,,0.043018,0.9273530988787388,0.7253490115711106,non_fall
8.815664,-0.1799,-0.0178,0.396,0.3899,0.2232,-0.0839,45.0938,-3.8438,21.6562,,0.00275899999999929,0.43531235911699084,0.6674893122961678,non_fall
8.825075,-0.1799,-0.0178,0.396,0.3899,0.2232,-0.0839,45.2438,-2.5875,22.1438,,0.009411000000000058,0.43531235911699084,0.6005878579887565,non_fall
8.832921,-0.1799,-0.0178,0.396,0.3899,0.2232,-0.0839,45.2438,-2.5875,22.1438,,0.007846000000000686,0.43531235911699084,0.5365101552349166,non_fall
8.873142,-0.1799,-0.0178,0.396,0.2017,0.1759,0.0429,45.2438,-2.5875,22.1438,,0.04022099999999895,0.43531235911699084,0.4847735820621742,non_fall
8.885459,-0.1799,-0.0178,0.396,0.2017,0.1759,0.0429,45.0188,-1.1063,22.3125,,0.012317000000001244,0.43531235911699084,0.45072253554443853,non_fall
8.892449,-0.1799,-0.0178,0.396,0.2017,0.1759,0.0429,45.0188,-1.1063,22.3125,,0.006989999999998275,0.43531235911699084,0.43492208913939323,non_fall
8.893738,0.4278,-0.1783,0.0891,0.2017,0.1759,0.0429,45.0188,-1.1063,22.3125,,0.00128900000000165,0.4719560784649351,0.43370281701405117,non_fall
8.933983,0.4278,-0.1783,0.0891,0.1035,0.1678,0.0979,45.0188,-1.1063,22.3125,,0.040244999999998754,0.4719560784649351,0.44054354238554017,non_fall
8.946036,0.4278,-0.1783,0.0891,0.1035,0.1678,0.0979,44.775,-0.0938,22.7063,,0.01205299999999987,0.4719560784649351,0.44787272904114067,non_fall
8.954649,0.4278,-0.1783,0.0891,0.1035,0.1678,0.0979,44.775,-0.0938,22.7063,,0.008613000000000426,0.4719560784649351,0.4488698846256522,non_fall
8.955697,0.2009,-0.0897,0.4149,0.1035,0.1678,0.0979,44.775,-0.0938,22.7063,,0.001048000000000826,0.46962635147529785,0.43891658589216537,non_fall
8.995937,0.2009,-0.0897,0.4149,0.1073,0.2242,0.0716,44.775,-0.0938,22.7063,,0.04023999999999894,0.46962635147529785,0.4164466763561909,non_fall
9.004969,0.2009,-0.0897,0.4149,0.1073,0.2242,0.0716,44.55,0.8438,23.1562,,0.009031999999999485,0.46962635147529785,0.3830558613004997,non_fall
9.015198,0.2009,-0.0897,0.4149,0.1073,0.2242,0.0716,44.55,0.8438,23.1562,,0.01022900000000071,0.46962635147529785,0.3428571982100787,non_fall
9.016131,0.0659,-0.0462,-0.0097,0.1073,0.2242,0.0716,44.55,0.8438,23.1562,,0.0009329999999998506,0.08106380203271987,0.30123267268424514,non_fall
9.05678,0.0659,-0.0462,-0.0097,0.0796,-0.0519,-0.0807,44.55,0.8438,23.1562,,0.04064900000000016,0.08106380203271987,0.2633281562221446,non_fall
9.066702,0.0659,-0.0462,-0.0097,0.0796,-0.0519,-0.0807,44.4,1.6313,23.5312,,0.009921999999999542,0.08106380203271987,0.2327846509219563,non_fall
9.076445,-0.2945,0.0096,0.0749,0.0796,-0.0519,-0.0807,44.4,1.6313,23.5312,,0.00974300000000028,0.30402700537945637,0.21115126372035603,non_fall
9.0779,-0.2945,0.0096,0.0749,0.0796,-0.0519,-0.0807,44.4,1.6313,23.5312,,0.001454999999999984,0.30402700537945637,0.19813141187136546,non_fall
9.117135,-0.2945,0.0096,0.0749,0.0818,-0.0931,-0.0554,44.4,1.6313,23.5312,,0.03923499999999969,0.30402700537945637,0.19241651669180948,non_fall
9.124982,-0.2945,0.0096,0.0749,0.0818,-0.0931,-0.0554,44.25,2.2125,23.6813,,0.007846999999999937,0.30402700537945637,0.1926032875612062,non_fall
9.138269,-0.2945,0.0096,0.0749,0.0818,-0.0931,-0.0554,44.25,2.2125,23.6813,,0.013287000000000049,0.30402700537945637,0.1977110763045719,non_fall
9.157431,-0.0092,0.0163,0.0775,0.0818,-0.0931,-0.0554,44.25,2.2125,23.6813,,0.019162000000001456,0.07972816315455913,0.20707485815686127,non_fall
9.177485,-0.0092,0.0163,0.0775,0.1056,0.0222,0.0177,44.25,2.2125,23.6813,,0.020054000000000016,0.07972816315455913,0.21974457488649324,non_fall
9.18543,-0.0092,0.0163,0.0775,0.1056,0.0222,0.0177,44.1938,2.5875,24.0563,,0.007944999999999425,0.07972816315455913,0.23381059562071457,non_fall
9.199398,-0.0092,0.0163,0.0775,0.1056,0.0222,0.0177,44.1938,2.5875,24.0563,,0.013968000000000202,0.07972816315455913,0.246156816708762,non_fall
9.218946,0.3842,-0.0718,-0.0784,0.1056,0.0222,0.0177,44.1938,2.5875,24.0563,,0.019548000000000343,0.39863697771280576,0.25295482862719965,non_fall
9.239314,0.3842,-0.0718,-0.0784,0.0892,-0.0193,-0.0083,44.1938,2.5875,24.0563,,0.020367999999999498,0.39863697771280576,0.2508277105475178,non_fall
9.243924,0.3842,-0.0718,-0.0784,0.0892,-0.0193,-0.0083,44.0625,2.8875,24.45,,0.004609999999999559,0.39863697771280576,0.23822405190389584,non_fall
9.258992,0.3842,-0.0718,-0.0784,0.0892,-0.0193,-0.0083,44.0625,2.8875,24.45,,0.015067999999999415,0.39863697771280576,0.21636758011519563,non_fall
9.279549,0.0364,-0.0293,-0.0428,0.0892,-0.0193,-0.0083,44.0625,2.8875,24.45,,0.02055700000000016,0.0633663159730783,0.18929316484534636,non_fall
9.2993,0.0364,-0.0293,-0.0428,0.0609,-0.0228,-0.0164,44.0625,2.8875,24.45,,0.019751000000001184,0.0633663159730783,0.16287292430426017,non_fall
9.304087,0.0364,-0.0293,-0.0428,0.0609,-0.0228,-0.0164,43.95,3.0375,24.45,,0.004787000000000319,0.0633663159730783,0.14316698909291495,non_fall
9.320167,0.0364,-0.0293,-0.0428,0.0609,-0.0228,-0.0164,43.95,3.0375,24.45,,0.016079999999998762,0.0633663159730783,0.13468562853970195,non_fall
9.359729,0.0364,-0.0293,-0.0428,0.059,-0.0558,0.0053,43.95,3.0375,24.45,,0.0395620000000001,0.0633663159730783,0.13913028171588301,non_fall
9.361328,-0.1505,0.0535,0.1304,0.059,-0.0558,0.0053,43.95,3.0375,24.45,,0.0015990000000005722,0.20619568375695937,0.1549571162153601,non_fall
9.364897,-0.1505,0.0535,0.1304,0.059,-0.0558,0.0053,43.875,3.1125,24.525,,0.003568999999998823,0.20619568375695937,0.17781736570836865,non_fall
9.38033,-0.1505,0.0535,0.1304,0.059,-0.0558,0.0053,43.875,3.1125,24.525,,0.015433000000001584,0.20619568375695937,0.20168708919158773,non_fall
9.421572,-0.1505,0.0535,0.1304,0.0736,-0.053,-0.0622,43.875,3.1125,24.525,,0.04124199999999867,0.20619568375695937,0.2203636261582269,non_fall
9.424809,0.2471,-0.1154,-0.0752,0.0736,-0.053,-0.0622,43.875,3.1125,24.525,,0.0032370000000003785,0.28289681864595084,0.228979236053291,non_fall
9.426258,0.2471,-0.1154,-0.0752,0.0736,-0.053,-0.0622,43.8375,3.3938,24.525,,0.0014490000000009218,0.28289681864595084,0.22521991033194105,non_fall
9.441642,0.2471,-0.1154,-0.0752,0.0736,-0.053,-0.0622,43.8375,3.3938,24.525,,0.015383999999999176,0.28289681864595084,0.2099977531173876,non_fall
9.483808,0.2471,-0.1154,-0.0752,0.0758,-0.0083,0.1334,43.8375,3.3938,24.525,,0.042165999999999926,0.28289681864595084,0.18741336766231323,non_fall
9.485638,-0.0274,-0.0506,-0.0072,0.0758,-0.0083,0.1334,43.8375,3.3938,24.525,,0.0018299999999999983,0.057991033789716144,0.16398849011763947,non_fall
9.486491,-0.0274,-0.0506,-0.0072,0.0758,-0.0083,0.1334,43.8188,3.5813,24.4313,,0.0008529999999993265,0.057991033789716144,0.1473427659739548,non_fall
9.502431,-0.0274,-0.0506,-0.0072,0.0758,-0.0083,0.1334,43.8188,3.5813,24.4313,,0.01594000000000051,0.057991033789716144,0.14466320191013146,non_fall
9.543834,-0.0274,-0.0506,-0.0072,0.0573,0.4663,-0.1165,43.8188,3.5813,24.4313,,0.041403000000000745,0.057991033789716144,0.16136984853005523,non_fall
9.546953,0.3719,0.0024,-0.0181,0.0573,0.4663,-0.1165,43.8188,3.5813,24.4313,,0.003118999999999872,0.3723479286903581,0.20026390583626694,non_fall
9.549075,0.3719,0.0024,-0.0181,0.0573,0.4663,-0.1165,43.65,3.75,24.5063,,0.0021219999999999573,0.3723479286903581,0.2612107489144314,non_fall
9.563697,0.3719,0.0024,-0.0181,0.0573,0.4663,-0.1165,43.65,3.75,24.5063,,0.014621999999999247,0.3723479286903581,0.3412057639054925,non_fall
9.604627,0.3719,0.0024,-0.0181,0.0573,0.4663,-0.1165,43.5,3.9188,24.6938,,0.04093000000000124,0.3723479286903581,0.43463368988395995,non_fall
9.606604,0.3719,0.0024,-0.0181,0.0161,0.3747,-0.1651,43.5,3.9188,24.6938,,0.0019770000000001176,0.3723479286903581,0.5336779859950846,non_fall
9.624359,0.3719,0.0024,-0.0181,0.0161,0.3747,-0.1651,43.5,3.9188,24.6938,,0.0177549999999993,0.3723479286903581,0.6290249709655479,non_fall
9.625573,-0.4105,-0.7965,-0.0508,0.0161,0.3747,-0.1651,43.5,3.9188,24.6938,,0.0012139999999991602,0.8974982674077984,0.7110450929673451,non_fall
9.666421,-0.4105,-0.7965,-0.0508,0.0161,0.3747,-0.1651,43.2375,4.0875,24.8813,,0.04084800000000044,0.8974982674077984,0.7714355319974926,non_fall
9.668407,-0.4105,-0.7965,-0.0508,-0.0844,0.2174,0.0936,43.2375,4.0875,24.8813,,0.0019860000000004874,0.8974982674077984,0.8049856569877227,non_fall
9.687335,-0.4105,-0.7965,-0.0508,-0.0844,0.2174,0.0936,43.2375,4.0875,24.8813,,0.018927999999998946,0.8974982674077984,0.8109170764310162,non_fall
9.689269,0.159,0.7025,0.2737,-0.0844,0.2174,0.0936,43.2375,4.0875,24.8813,,0.0019340000000003243,0.7705186175557344,0.7933119807235048,non_fall
9.726568,0.159,0.7025,0.2737,-0.0844,0.2174,0.0936,42.975,4.0688,25.05,,0.03729900000000086,0.7705186175557344,0.7604238273763155,non_fall
9.730312,0.159,0.7025,0.2737,0.004,0.2615,0.0258,42.975,4.0688,25.05,,0.0037439999999993034,0.7705186175557344,0.7229867884155223,non_fall
9.747006,0.159,0.7025,0.2737,0.004,0.2615,0.0258,42.975,4.0688,25.05,,0.016694000000001097,0.7705186175557344,0.6918792411771484,non_fall
9.748933,0.2231,-0.4251,0.0465,0.004,0.2615,0.0258,42.975,4.0688,25.05,,0.0019269999999984577,0.48233377447572545,0.6756412532707964,non_fall
9.786175,0.2231,-0.4251,0.0465,-0.0823,-0.0238,-0.0117,42.975,4.0688,25.05,,0.037242000000000886,0.48233377447572545,0.6784362042047468,non_fall
9.787795,0.2231,-0.4251,0.0465,-0.0823,-0.0238,-0.0117,42.7125,4.05,25.4625,,0.0016199999999990666,0.48233377447572545,0.6990659098478407,non_fall
9.806924,0.2231,-0.4251,0.0465,-0.0823,-0.0238,-0.0117,42.7125,4.05,25.4625,,0.019129000000001284,0.48233377447572545,0.7314950634160021,non_fall
9.828032,0.0828,-1.0887,-0.0533,-0.0823,-0.0238,-0.0117,42.7125,4.05,25.4625,,0.021107999999999905,1.0931442814194292,0.766932346664978,non_fall
9.846006,0.0828,-1.0887,-0.0533,-0.0823,-0.0238,-0.0117,42.5625,3.9563,25.9125,,0.017973999999998824,1.0931442814194292,0.7969262887779256,non_fall
9.848821,0.0828,-1.0887,-0.0533,-0.1788,-0.0406,-0.0149,42.5625,3.9563,25.9125,,0.002815000000000012,1.0931442814194292,0.8164235088105501,non_fall
9.867621,0.0828,-1.0887,-0.0533,-0.1788,-0.0406,-0.0149,42.5625,3.9563,25.9125,,0.018800000000000594,1.0931442814194292,0.8256212811828432,non_fall
9.888765,0.0272,-0.6151,0.0957,-0.1788,-0.0406,-0.0149,42.5625,3.9563,25.9125,,0.021143999999999608,0.6230941662381377,0.8298681754498117,non_fall
9.90524,0.0272,-0.6151,0.0957,-0.1788,-0.0406,-0.0149,42.3563,3.6938,26.4188,,0.016474999999999795,0.6230941662381377,0.8376572344879668,non_fall
9.907687,0.0272,-0.6151,0.0957,-0.2268,0.0557,0.0891,42.3563,3.6938,26.4188,,0.002447000000000088,0.6230941662381377,0.8575300139400917,non_fall
9.929625,0.0272,-0.6151,0.0957,-0.2268,0.0557,0.0891,42.3563,3.6938,26.4188,,0.021938000000000457,0.6230941662381377,0.8950979916393961,non_fall
9.948766,-0.5337,-0.9689,0.0378,-0.2268,0.0557,0.0891,42.3563,3.6938,26.4188,,0.019141000000001185,1.1068115196364736,0.9512388844863324,non_fall
9.965624,-0.5337,-0.9689,0.0378,-0.2268,0.0557,0.0891,42.1125,3.3938,26.925,,0.01685799999999915,1.1068115196364736,1.0219693978930384,non_fall
9.968663,-0.5337,-0.9689,0.0378,-0.5402,0.0148,0.0575,42.1125,3.3938,26.925,,0.0030389999999993478,1.1068115196364736,1.0998476553732695,non_fall
9.989889,-0.5337,-0.9689,0.0378,-0.5402,0.0148,0.0575,42.1125,3.3938,26.925,,0.02122600000000041,1.1068115196364736,1.1763187068424297,non_fall
10.010047,0.0933,-1.3694,0.3614,-0.5402,0.0148,0.0575,42.1125,3.3938,26.925,,0.020158000000000342,1.4193559137862497,1.244288918295698,non_fall
10.025834,0.0933,-1.3694,0.3614,-0.5402,0.0148,0.0575,41.7375,2.7563,27.2063,,0.01578699999999955,1.4193559137862497,1.3002908243522855,non_fall
10.029676,0.0933,-1.3694,0.3614,-1.0994,0.187,0.017,41.7375,2.7563,27.2063,,0.003842000000000567,1.4193559137862497,1.3457423707918252,non_fall
10.050589,0.0933,-1.3694,0.3614,-1.0994,0.187,0.017,41.7375,2.7563,27.2063,,0.02091300000000018,1.4193559137862497,1.3869994929372358,non_fall
10.086372,0.0933,-1.3694,0.3614,-1.0994,0.187,0.017,41.2875,1.8375,27.525,,0.03578300000000034,1.4193559137862497,1.4341845063539929,non_fall
10.090308,0.0933,-1.3694,0.3614,-1.067,0.198,-0.1875,41.2875,1.8375,27.525,,0.0039359999999994955,1.4193559137862497,1.4990995185907336,non_fall
10.091559,-0.23,-1.358,0.4881,-1.067,0.198,-0.1875,41.2875,1.8375,27.525,,0.001250999999999891,1.4612684934672342,1.592793458049451,non_fall
10.113143,-0.23,-1.358,0.4881,-1.067,0.198,-0.1875,41.2875,1.8375,27.525,,0.021584000000000714,1.4612684934672342,1.723454365254656,non_fall
10.145122,-0.23,-1.358,0.4881,-1.067,0.198,-0.1875,40.8,0.7125,27.6375,,0.03197899999999976,1.4612684934672342,1.8951948867900177,non_fall
10.152113,-0.551,-1.6069,2.2059,-1.067,0.198,-0.1875,40.8,0.7125,27.6375,,0.006990999999999303,2.784191699578174,2.1079546155867943,non_fall
10.153316,-0.551,-1.6069,2.2059,0.3296,-0.1908,0.3539,40.8,0.7125,27.6375,,0.0012030000000002872,2.784191699578174,2.358206387367597,non_fall
10.172804,-0.551,-1.6069,2.2059,0.3296,-0.1908,0.3539,40.8,0.7125,27.6375,,0.01948799999999906,2.784191699578174,2.6396927798377354,non_fall
10.205286,-0.551,-1.6069,2.2059,0.3296,-0.1908,0.3539,40.5,-0.6188,27.5813,,0.0324819999999999,2.784191699578174,2.9434406894898433,non_fall
10.212853,-0.551,-1.6069,2.2059,1.0306,-0.6963,2.1228,40.5,-0.6188,27.5813,,0.007567000000001656,2.784191699578174,3.256930510650102,non_fall
10.21406,-2.0977,2.2356,1.9577,1.0306,-0.6963,2.1228,40.5,-0.6188,27.5813,,0.00120699999999907,3.6374224307880434,3.5631183375270887,non_fall
10.234255,-2.0977,2.2356,1.9577,1.0306,-0.6963,2.1228,40.5,-0.6188,27.5813,,0.020194999999999297,3.6374224307880434,3.8404327643487397,non_fall
10.263429,-2.0977,2.2356,1.9577,1.0306,-0.6963,2.1228,40.1438,-2.775,27.375,,0.029174000000001143,3.6374224307880434,4.064673385652137,non_fall
10.273768,-2.0977,2.2356,1.9577,1.4783,-1.0619,5.2082,40.1438,-2.775,27.375,,0.010339000000000098,3.6374224307880434,4.213129850903989,non_fall
10.29396,-1.6017,4.5735,-0.0639,1.4783,-1.0619,5.2082,40.1438,-2.775,27.375,,0.020191999999999766,4.846279846438915,4.270445050805552,non_fall
10.295696,-1.6017,4.5735,-0.0639,1.4783,-1.0619,5.2082,40.1438,-2.775,27.375,,0.0017359999999992937,4.846279846438915,4.2348313436327425,non_fall
10.325283,-1.6017,4.5735,-0.0639,1.4783,-1.0619,5.2082,38.9813,-6.375,26.7375,,0.02958700000000114,4.846279846438915,4.122420613017331,non_fall
10.335548,-1.6017,4.5735,-0.0639,1.0758,-1.561,6.4524,38.9813,-6.375,26.7375,,0.010264999999998636,4.846279846438915,3.9673166448966826,non_fall
10.355553,-1.6017,4.5735,-0.0639,1.0758,-1.561,6.4524,38.9813,-6.375,26.7375,,0.02000500000000116,4.846279846438915,3.8158003075856994,non_fall
10.357275,-0.0172,-0.7429,-1.9764,1.0758,-1.561,6.4524,38.9813,-6.375,26.7375,,0.0017219999999991131,2.1114812833648324,3.7151002476744597,non_fall
10.385324,-0.0172,-0.7429,-1.9764,1.0758,-1.561,6.4524,36.9,-11.2688,25.9125,,0.0280490000000011,2.1114812833648324,3.699606824127716,non_fall
10.395739,-0.0172,-0.7429,-1.9764,0.9814,-2.205,5.026,36.9,-11.2688,25.9125,,0.010415000000000063,2.1114812833648324,3.7792851373600187,non_fall
10.416066,2.1066,-3.4555,-2.2618,0.9814,-2.205,5.026,36.9,-11.2688,25.9125,,0.020326999999999984,4.636160377942074,3.935045781304248,non_fall
10.4177,2.1066,-3.4555,-2.2618,0.9814,-2.205,5.026,36.9,-11.2688,25.9125,,0.0016339999999992472,4.636160377942074,4.123469065098377,non_fall
10.445157,2.1066,-3.4555,-2.2618,0.9814,-2.205,5.026,34.2938,-16.4438,24.9375,,0.027457000000000065,4.636160377942074,4.289670634357845,non_fall
10.458004,2.1066,-3.4555,-2.2618,1.3492,-1.767,2.4399,34.2938,-16.4438,24.9375,,0.012847000000000719,4.636160377942074,4.384242991833182,non_fall
10.477393,2.1066,-3.4555,-2.2618,1.3492,-1.767,2.4399,34.2938,-16.4438,24.9375,,0.019388999999998546,4.636160377942074,4.379282608918599,non_fall
10.47944,4.0185,-2.7888,-1.0561,1.3492,-1.767,2.4399,34.2938,-16.4438,24.9375,,0.0020470000000010202,5.004107802595784,4.27918207977671,non_fall
10.505122,4.0185,-2.7888,-1.0561,1.3492,-1.767,2.4399,31.4813,-21.3938,24.2625,,0.02568199999999976,5.004107802595784,4.12318906728566,non_fall
10.517064,4.0185,-2.7888,-1.0561,0.8358,-1.15,1.8814,31.4813,-21.3938,24.2625,,0.011941999999999453,5.004107802595784,3.978248219139939,non_fall
10.538145,4.0185,-2.7888,-1.0561,0.8358,-1.15,1.8814,31.4813,-21.3938,24.2625,,0.02108100000000057,5.004107802595784,3.9225125766742104,non_fall
10.560216,1.2891,-0.8854,-1.4561,0.8358,-1.15,1.8814,31.4813,-21.3938,24.2625,,0.022071000000000396,2.136805835821308,4.022385749740211,non_fall
10.564691,1.2891,-0.8854,-1.4561,0.8358,-1.15,1.8814,28.0313,-26.625,23.175,,0.004474999999999341,2.136805835821308,4.30877053931041,non_fall
10.578392,1.2891,-0.8854,-1.4561,-1.4085,-1.5938,3.3408,28.0313,-26.625,23.175,,0.013700999999999297,2.136805835821308,4.7602302488421095,non_fall
10.599333,1.2891,-0.8854,-1.4561,-1.4085,-1.5938,3.3408,28.0313,-26.625,23.175,,0.020941000000000543,2.136805835821308,5.300357061933442,non_fall
10.619285,-5.6804,-4.5573,-5.1866,-1.4085,-1.5938,3.3408,28.0313,-26.625,23.175,,0.01995199999999997,8.940735261151623,5.812748253612799,non_fall
10.625525,-5.6804,-4.5573,-5.1866,-1.4085,-1.5938,3.3408,24.1688,-31.8,21.5625,,0.006240000000000023,8.940735261151623,6.170414640784988,non_fall
10.639977,-5.6804,-4.5573,-5.1866,-1.0446,-1.887,2.8886,24.1688,-31.8,21.5625,,0.014452000000000353,8.940735261151623,6.270067324985663,non_fall
10.659418,-5.6804,-4.5573,-5.1866,-1.0446,-1.887,2.8886,24.1688,-31.8,21.5625,,0.019441000000000486,8.940735261151623,6.059162872780527,non_fall
10.680707,1.1612,2.53,0.1165,-1.0446,-1.887,2.8886,24.1688,-31.8,21.5625,,0.021288999999999447,2.7861905336857347,5.546663968630317,non_fall
10.684329,1.1612,2.53,0.1165,-1.0446,-1.887,2.8886,19.5188,-37.05,19.6688,,0.003622000000000014,2.7861905336857347,4.795628592332635,non_fall
10.700767,1.1612,2.53,0.1165,-1.9892,-1.6974,1.7686,19.5188,-37.05,19.6688,,0.01643800000000084,2.7861905336857347,3.9029758370658936,non_fall
10.720724,1.1612,2.53,0.1165,-1.9892,-1.6974,1.7686,19.5188,-37.05,19.6688,,0.01995699999999978,2.7861905336857347,2.975338637066706,non_fall
10.744744,1.1612,2.53,0.1165,-1.9892,-1.6974,1.7686,14.5313,-41.5125,17.1562,,0.024020000000000152,2.7861905336857347,2.1087336610150587,non_fall
10.76016,-0.8411,-0.1635,0.0961,-1.9892,-1.6974,1.7686,14.5313,-41.5125,17.1562,,0.015416000000000096,0.8622161387958358,1.3758670094723344,non_fall
10.761938,-0.8411,-0.1635,0.0961,-1.569,-4.1256,0.912,14.5313,-41.5125,17.1562,,0.0017779999999998353,0.8622161387958358,0.8212203817607471,non_fall
10.781302,-0.8411,-0.1635,0.0961,-1.569,-4.1256,0.912,14.5313,-41.5125,17.1562,,0.019363999999999493,0.8622161387958358,0.46210217511605756,non_fall
10.80566,-0.8411,-0.1635,0.0961,-1.569,-4.1256,0.912,10.05,-44.475,14.4938,,0.024357999999999436,0.8622161387958358,0.29327483270033755,non_fall
10.821447,-0.8411,-0.1635,0.0961,-1.3404,-2.304,1.8325,10.05,-44.475,14.4938,,0.01578699999999955,0.8622161387958358,0.2928371027898114,non_fall
10.822888,0.0693,-0.052,0.1895,-1.3404,-2.304,1.8325,10.05,-44.475,14.4938,,0.00144100000000158,0.208366839972199,0.4275511634906137,non_fall
10.842352,0.0693,-0.052,0.1895,-1.3404,-2.304,1.8325,10.05,-44.475,14.4938,,0.01946399999999926,0.208366839972199,0.6568351809790562,non_fall
10.865477,0.0693,-0.052,0.1895,-1.3404,-2.304,1.8325,5.8875,-46.05,11.8125,,0.023125000000000284,0.208366839972199,0.9358983230023059,non_fall
10.884226,0.0693,-0.052,0.1895,-0.9144,-1.3488,0.9574,5.8875,-46.05,11.8125,,0.018748999999999683,0.208366839972199,1.2192837582380807,non_fall
10.886286,-0.8468,-1.9462,1.2028,-0.9144,-1.3488,0.9574,5.8875,-46.05,11.8125,,0.002060000000000173,2.4395681011195403,1.4658244963153495,non_fall
10.902894,-0.8468,-1.9462,1.2028,-0.9144,-1.3488,0.9574,5.8875,-46.05,11.8125,,0.016607999999999734,2.4395681011195403,1.6447318406651952,non_fall
10.925582,-0.8468,-1.9462,1.2028,-0.9144,-1.3488,0.9574,1.9125,-46.9688,8.9625,,0.022688000000000486,2.4395681011195403,1.7410024444361858,non_fall
10.944319,-0.8468,-1.9462,1.2028,-0.3201,-0.1144,1.0788,1.9125,-46.9688,8.9625,,0.01873699999999978,2.4395681011195403,1.7576785573524896,non_fall
10.946101,0.9588,-0.3361,0.1174,-0.3201,-0.1144,1.0788,1.9125,-46.9688,8.9625,,0.0017820000000003944,1.0227626361966886,1.713363854465695,non_fall
10.964755,0.9588,-0.3361,0.1174,-0.3201,-0.1144,1.0788,1.9125,-46.9688,8.9625,,0.018653999999999726,1.0227626361966886,1.635368333690371,non_fall
10.98661,0.9588,-0.3361,0.1174,-0.3201,-0.1144,1.0788,-1.8,-47.8313,5.2688,,0.021855000000000402,1.0227626361966886,1.5507899891358314,non_fall
11.006682,0.9588,-0.3361,0.1174,0.0423,0.3598,0.7991,-1.8,-47.8313,5.2688,,0.02007199999999898,1.0227626361966886,1.4786959795618306,non_fall
11.026858,0.9588,-0.3361,0.1174,0.0423,0.3598,0.7991,-1.8,-47.8313,5.2688,,0.020176000000001082,1.0227626361966886,1.4260039441805406,non_fall
11.029058,-0.1503,-1.7705,-0.4934,0.0423,0.3598,0.7991,-1.8,-47.8313,5.2688,,0.0021999999999984254,1.84409975326716,1.3881019048473733,non_fall
11.045853,-0.1503,-1.7705,-0.4934,0.0423,0.3598,0.7991,-5.0625,-47.9438,2.4938,,0.016795000000000115,1.84409975326716,1.3534367270862189,non_fall
11.066282,-0.1503,-1.7705,-0.4934,0.0059,-0.3852,0.257,-5.0625,-47.9438,2.4938,,0.02042900000000003,1.84409975326716,1.3099295808279192,non_fall
11.086839,-0.1503,-1.7705,-0.4934,0.0059,-0.3852,0.257,-5.0625,-47.9438,2.4938,,0.02055700000000016,1.84409975326716,1.2506137596304325,non_fall
11.089103,0.5351,-0.3179,-0.4677,0.0059,-0.3852,0.257,-5.0625,-47.9438,2.4938,,0.002264000000000266,0.7785471790456889,1.176484919935104,non_fall
11.108305,0.5351,-0.3179,-0.4677,0.0059,-0.3852,0.257,-7.8188,-48.0,0.4313,,0.01920199999999994,0.7785471790456889,1.095903895877304,non_fall
11.126464,0.5351,-0.3179,-0.4677,0.0473,-0.2216,-0.0696,-7.8188,-48.0,0.4313,,0.018159000000000702,0.7785471790456889,1.0213321966194417,non_fall
11.146563,0.5351,-0.3179,-0.4677,0.0473,-0.2216,-0.0696,-7.8188,-48.0,0.4313,,0.02009900000000009,0.7785471790456889,0.9650316306268112,non_fall
11.15081,0.8355,0.1325,0.5225,0.0473,-0.2216,-0.0696,-7.8188,-48.0,0.4313,,0.004246999999999446,0.994295102069803,0.9353396583955483,non_fall
11.164038,0.8355,0.1325,0.5225,0.0473,-0.2216,-0.0696,-10.0125,-47.7188,-1.2,,0.013227999999999795,0.994295102069803,0.9344928350000158,non_fall
11.186997,0.8355,0.1325,0.5225,0.2535,0.1075,0.0787,-10.0125,-47.7188,-1.2,,0.022959000000000174,0.994295102069803,0.9582156537249068,non_fall
11.208167,0.8355,0.1325,0.5225,0.2535,0.1075,0.0787,-10.0125,-47.7188,-1.2,,0.02116999999999969,0.994295102069803,0.9967847145736717,non_fall
