time,ax,ay,az,wx,wy,wz,Bx,By,Bz,Unnamed: 10,time_diff,acc_mag,acc_mag_filtered,label
0.065361,0.0,0.0,0.0,0.0157,-0.3248,-0.1723,0.0,0.0,0.0,,0.0,0.0,-9.246203433001618e-06,non_fall
0.096267,0.0,0.0,0.0,0.0157,-0.3248,-0.1723,8.475,35.325,-4.8,,0.030906000000000003,0.0,-0.0010342448664255371,non_fall
0.106212,0.0,0.0,0.0,0.0157,-0.3248,-0.1723,8.475,35.325,-4.8,,0.009944999999999996,0.0,-0.002046544444218439,non_fall
0.145446,0.0,0.0,0.0,0.0157,-0.3248,-0.1723,8.475,35.325,-4.8,,0.03923399999999999,0.0,-0.0029291851878577753,non_fall
0.156589,0.0,0.0,0.0,0.0157,-0.3248,-0.1723,17.2688,33.7125,3.7125,,0.011143000000000014,0.0,-0.0034735224534497523,non_fall
0.165565,0.0,0.0,0.0,-0.0393,0.004,0.0056,17.2688,33.7125,3.7125,,0.008975999999999984,0.0,-0.003382067585762322,non_fall
0.206404,0.0,0.0,0.0,-0.0393,0.004,0.0056,17.2688,33.7125,3.7125,,0.040839000000000014,0.0,-0.00230829718605832,non_fall
0.207496,0.0,0.0,0.0,-0.0393,0.004,0.0056,17.2688,33.7125,3.7125,,0.0010920000000000096,0.0,7.081775550082714e-05,non_fall
0.217166,0.0,0.0,0.0,-0.0393,0.004,0.0056,20.4188,33.3,6.6,,0.009669999999999984,0.0,0.003964417612640237,non_fall
0.227434,0.0,0.0,0.0,-0.0312,-0.0222,-0.0087,20.4188,33.3,6.6,,0.010268,0.0,0.00938340803673459,non_fall
0.266218,0.0,0.0,0.0,-0.0312,-0.0222,-0.0087,20.4188,33.3,6.6,,0.03878400000000001,0.0,0.016090004761026674,non_fall
0.267413,-0.0342,0.0026,0.0095,-0.0312,-0.0222,-0.0087,20.4188,33.3,6.6,,0.0011950000000000016,0.03559002669288125,0.02360384662650943,non_fall
0.276586,-0.0342,0.0026,0.0095,-0.0312,-0.0222,-0.0087,21.975,33.3188,8.1,,0.009172999999999987,0.03559002669288125,0.031271757612486385,non_fall
0.287214,-0.0342,0.0026,0.0095,-0.0162,-0.012,-0.0072,21.975,33.3188,8.1,,0.010628000000000026,0.03559002669288125,0.03838778788712674,non_fall
0.32821,-0.0342,0.0026,0.0095,-0.0162,-0.012,-0.0072,21.975,33.3188,8.1,,0.04099599999999998,0.03559002669288125,0.04433547886594984,non_fall
0.329231,-0.0426,-0.0372,-0.0245,-0.0162,-0.012,-0.0072,21.975,33.3188,8.1,,0.0010209999999999941,0.06163481159215139,0.04872062472941311,non_fall
0.33958,-0.0426,-0.0372,-0.0245,-0.0162,-0.012,-0.0072,23.0438,33.0188,9.0,,0.010348999999999997,0.06163481159215139,0.051465092032709936,non_fall
0.348602,-0.0426,-0.0372,-0.0245,-0.0127,0.0161,-0.0027,23.0438,33.0188,9.0,,0.00902200000000003,0.06163481159215139,0.05283527672365134,non_fall
0.389993,-0.0426,-0.0372,-0.0245,-0.0127,0.0161,-0.0027,23.0438,33.0188,9.0,,0.041390999999999956,0.06163481159215139,0.05338639110279955,non_fall
0.392858,0.0075,-0.0365,-0.028,-0.0127,0.0161,-0.0027,23.0438,33.0188,9.0,,0.0028650000000000064,0.04661008474568567,0.053822233518578,non_fall
0.398389,0.0075,-0.0365,-0.028,-0.0127,0.0161,-0.0027,23.7563,32.9625,9.6,,0.005531000000000008,0.04661008474568567,0.05479696633604353,non_fall
0.409428,0.0075,-0.0365,-0.028,-0.0286,-0.0063,-0.0104,23.7563,32.9625,9.6,,0.011039000000000021,0.04661008474568567,0.05670978497985744,non_fall
0.449729,0.0075,-0.0365,-0.028,-0.0286,-0.0063,-0.0104,23.7563,32.9625,9.6,,0.040300999999999976,0.04661008474568567,0.05955397243515477,non_fall
0.456356,0.0075,-0.0365,-0.028,-0.0286,-0.0063,-0.0104,24.1688,32.85,10.1063,,0.006626999999999994,0.04661008474568567,0.0628735609484466,non_fall
0.470002,0.0075,-0.0365,-0.028,-0.0301,0.0012,-0.0051,24.1688,32.85,10.1063,,0.013645999999999991,0.04661008474568567,0.06585523011701234,non_fall
0.470732,-0.0827,0.0019,0.0393,-0.0301,0.0012,-0.0051,24.1688,32.85,10.1063,,0.0007300000000000084,0.09158269487190251,0.06754484989269648,non_fall
0.511035,-0.0827,0.0019,0.0393,-0.0301,0.0012,-0.0051,24.1688,32.85,10.1063,,0.04030300000000003,0.09158269487190251,0.06713426959788457,non_fall
0.515778,-0.0827,0.0019,0.0393,-0.0301,0.0012,-0.0051,24.4125,32.7938,10.5188,,0.004742999999999942,0.09158269487190251,0.06422870305994867,non_fall
0.531341,-0.0827,0.0019,0.0393,-0.0158,-0.0035,-0.0093,24.4125,32.7938,10.5188,,0.015562999999999994,0.09158269487190251,0.05899878612633972,non_fall
0.533156,-0.0119,-0.0173,0.0054,-0.0158,-0.0035,-0.0093,24.4125,32.7938,10.5188,,0.001815000000000011,0.021680867141329933,0.05215664240472218,non_fall
0.571725,-0.0119,-0.0173,0.0054,-0.0158,-0.0035,-0.0093,24.4125,32.7938,10.5188,,0.038569000000000075,0.021680867141329933,0.04476215068195689,non_fall
0.576685,-0.0119,-0.0173,0.0054,-0.0158,-0.0035,-0.0093,26.5875,32.4375,12.675,,0.0049599999999999644,0.021680867141329933,0.03793252856256768,non_fall
0.590681,-0.0119,-0.0173,0.0054,-0.012,0.0121,-0.0076,26.5875,32.4375,12.675,,0.013996000000000008,0.021680867141329933,0.03256030807216249,non_fall
0.591214,-0.0256,-0.0197,-0.0017,-0.012,0.0121,-0.0076,26.5875,32.4375,12.675,,0.0005330000000000057,0.03234717916604166,0.02912782574848727,non_fall
0.631643,-0.0256,-0.0197,-0.0017,-0.012,0.0121,-0.0076,26.5875,32.4375,12.675,,0.04042899999999994,0.03234717916604166,0.027657141702791647,non_fall
0.63621,-0.0256,-0.0197,-0.0017,-0.012,0.0121,-0.0076,26.5313,32.625,12.5063,,0.004567000000000099,0.03234717916604166,0.02778330973895148,non_fall
0.652474,-0.0256,-0.0197,-0.0017,-0.0162,-0.0009,-0.0146,26.5313,32.625,12.5063,,0.016263999999999945,0.03234717916604166,0.028906943296277413,non_fall
0.674843,-0.0256,-0.0178,-0.0189,-0.0162,-0.0009,-0.0146,26.5313,32.625,12.5063,,0.022368999999999972,0.03646107513499842,0.03037277024780919,non_fall
0.693396,-0.0256,-0.0178,-0.0189,-0.0162,-0.0009,-0.0146,26.5313,32.625,12.5063,,0.01855300000000004,0.03646107513499842,0.03162757036702498,non_fall
0.695949,-0.0256,-0.0178,-0.0189,-0.0162,-0.0009,-0.0146,26.5125,32.775,12.3188,,0.0025530000000000275,0.03646107513499842,0.032325205339791156,non_fall
0.71271,-0.0256,-0.0178,-0.0189,-0.0162,0.0168,-0.0165,26.5125,32.775,12.3188,,0.016760999999999915,0.03646107513499842,0.0323634275424249,non_fall
0.734058,-0.0229,-0.0032,-0.0094,-0.0162,0.0168,-0.0165,26.5125,32.775,12.3188,,0.021348000000000034,0.024960168268663575,0.031854771464922535,non_fall
0.753747,-0.0229,-0.0032,-0.0094,-0.0162,0.0168,-0.0165,26.5125,32.775,12.3188,,0.019688999999999957,0.024960168268663575,0.03105001292534792,non_fall
0.756865,-0.0229,-0.0032,-0.0094,-0.0162,0.0168,-0.0165,26.4938,32.8688,12.1313,,0.003118000000000065,0.024960168268663575,0.03024362370251999,non_fall
0.773639,-0.0229,-0.0032,-0.0094,-0.012,0.02,-0.0144,26.4938,32.8688,12.1313,,0.016773999999999956,0.024960168268663575,0.029692151689724326,non_fall
0.794361,-0.0294,-0.0111,0.0074,-0.012,0.02,-0.0144,26.4938,32.8688,12.1313,,0.020722000000000018,0.03228513589873829,0.029567400632615884,non_fall
0.814629,-0.0294,-0.0111,0.0074,-0.012,0.02,-0.0144,26.4938,32.8688,12.1313,,0.020268000000000064,0.03228513589873829,0.0299506586384449,non_fall
0.815742,-0.0294,-0.0111,0.0074,-0.012,0.02,-0.0144,26.2875,33.0188,12.1125,,0.0011129999999999196,0.03228513589873829,0.030859014278665654,non_fall
0.835635,-0.0294,-0.0111,0.0074,-0.0177,0.0001,-0.0125,26.2875,33.0188,12.1125,,0.01989300000000005,0.03228513589873829,0.03228569870825177,non_fall
0.855133,-0.026,-0.0041,0.0314,-0.0177,0.0001,-0.0125,26.2875,33.0188,12.1125,,0.019498000000000015,0.04097279585285827,0.03423491047823857,non_fall
0.875524,-0.026,-0.0041,0.0314,-0.0177,0.0001,-0.0125,26.2875,33.0188,12.1125,,0.020390999999999937,0.04097279585285827,0.03673558483337671,non_fall
0.877791,-0.026,-0.0041,0.0314,-0.0177,0.0001,-0.0125,26.2875,33.1125,12.1313,,0.002267000000000019,0.04097279585285827,0.03982572352830575,non_fall
0.898231,-0.026,-0.0041,0.0314,-0.034,-0.0095,-0.0065,26.2875,33.1125,12.1313,,0.020440000000000014,0.04097279585285827,0.04350866361912354,non_fall
0.938236,-0.026,-0.0041,0.0314,-0.034,-0.0095,-0.0065,26.2875,33.1125,12.1313,,0.04000499999999996,0.04097279585285827,0.04769404930023286,non_fall
0.939352,-0.0208,0.0015,0.0481,-0.034,-0.0095,-0.0065,26.2875,33.1125,12.1313,,0.0011160000000000059,0.05242613851887243,0.05214548397768859,non_fall
0.940148,-0.0208,0.0015,0.0481,-0.034,-0.0095,-0.0065,26.25,33.225,11.9062,,0.0007960000000000189,0.05242613851887243,0.05645941942302272,non_fall
0.957047,-0.0208,0.0015,0.0481,-0.0414,-0.039,-0.0072,26.25,33.225,11.9062,,0.016898999999999997,0.05242613851887243,0.06009471100291885,non_fall
0.999462,-0.0208,0.0015,0.0481,-0.0414,-0.039,-0.0072,26.25,33.225,11.9062,,0.04241499999999998,0.05242613851887243,0.06246186619439062,non_fall
1.000589,-0.0208,0.0015,0.0481,-0.0414,-0.039,-0.0072,26.2313,33.3188,11.5875,,0.0011269999999999891,0.05242613851887243,0.06306712414886671,non_fall
1.001649,-0.0526,0.0007,0.0593,-0.0414,-0.039,-0.0072,26.2313,33.3188,11.5875,,0.001060000000000061,0.07927004478363817,0.06168811980175775,non_fall
1.026474,-0.0526,0.0007,0.0593,-0.0627,-0.0113,-0.0093,26.2313,33.3188,11.5875,,0.024825000000000097,0.07927004478363817,0.05853571698979074,non_fall
1.060453,-0.0526,0.0007,0.0593,-0.0627,-0.0113,-0.0093,26.2688,33.45,11.3625,,0.03397899999999998,0.07927004478363817,0.05433952929999158,non_fall
1.062082,-0.0526,0.0007,0.0593,-0.0627,-0.0113,-0.0093,26.2688,33.45,11.3625,,0.0016289999999998805,0.07927004478363817,0.05029817154694831,non_fall
1.063037,0.0205,0.0016,0.0093,-0.0627,-0.0113,-0.0093,26.2688,33.45,11.3625,,0.0009550000000000392,0.02256767599909215,0.04786985410284808,non_fall
1.079439,0.0205,0.0016,0.0093,-0.0744,-0.0606,-0.0061,26.2688,33.45,11.3625,,0.016402000000000028,0.02256767599909215,0.048438098711456955,non_fall
1.117541,0.0205,0.0016,0.0093,-0.0744,-0.0606,-0.0061,33.7125,16.1063,21.2438,,0.03810199999999986,0.02256767599909215,0.05294579964284807,non_fall
1.120026,0.0205,0.0016,0.0093,-0.0744,-0.0606,-0.0061,33.7125,16.1063,21.2438,,0.0024850000000000705,0.02256767599909215,0.06161598466581277,non_fall
1.139969,-0.0642,0.0003,0.0908,-0.0744,-0.0606,-0.0061,33.7125,16.1063,21.2438,,0.019943000000000044,0.11120418157605406,0.07385058727664946,non_fall
1.140763,-0.0642,0.0003,0.0908,-0.0482,-0.0156,-0.0044,33.7125,16.1063,21.2438,,0.0007939999999999614,0.11120418157605406,0.08832997462116317,non_fall
1.176293,-0.0642,0.0003,0.0908,-0.0482,-0.0156,-0.0044,33.7313,16.2,21.225,,0.03553000000000006,0.11120418157605406,0.10326289223577671,non_fall
1.180254,-0.0642,0.0003,0.0908,-0.0482,-0.0156,-0.0044,33.7313,16.2,21.225,,0.003960999999999881,0.11120418157605406,0.11669915738049375,non_fall
1.202108,-0.0642,0.0003,0.0908,-0.0254,-0.0017,-0.0027,33.7313,16.2,21.225,,0.02185400000000004,0.11120418157605406,0.12682901778630082,non_fall
1.202715,0.0773,-0.0423,-0.1057,-0.0254,-0.0017,-0.0027,33.7313,16.2,21.225,,0.0006070000000000242,0.13761202709065803,0.1322298334978805,non_fall
1.238499,0.0773,-0.0423,-0.1057,-0.0254,-0.0017,-0.0027,33.675,16.2563,21.1313,,0.03578400000000004,0.13761202709065803,0.1320478090954143,non_fall
1.243372,0.0773,-0.0423,-0.1057,-0.0254,-0.0017,-0.0027,33.675,16.2563,21.1313,,0.004872999999999905,0.13761202709065803,0.12610679226776123,non_fall
1.263731,0.0773,-0.0423,-0.1057,-0.0252,0.0015,-0.0008,33.675,16.2563,21.1313,,0.020359000000000016,0.13761202709065803,0.11493047423911448,non_fall
1.265277,0.0266,0.0115,-0.0649,-0.0252,0.0015,-0.0008,33.675,16.2563,21.1313,,0.0015460000000000473,0.07107615633952077,0.09966757157103616,non_fall
1.296755,0.0266,0.0115,-0.0649,-0.0252,0.0015,-0.0008,33.5438,16.3125,20.8125,,0.03147800000000012,0.07107615633952077,0.08192803012387008,non_fall
1.303522,0.0266,0.0115,-0.0649,-0.0252,0.0015,-0.0008,33.5438,16.3125,20.8125,,0.0067669999999999675,0.07107615633952077,0.06356072250347548,non_fall
1.322852,0.0266,0.0115,-0.0649,-0.0237,-0.0071,-0.0029,33.5438,16.3125,20.8125,,0.019329999999999847,0.07107615633952077,0.04641184842468534,non_fall
1.323393,0.0014,0.0034,-0.0117,-0.0237,-0.0071,-0.0029,33.5438,16.3125,20.8125,,0.0005410000000001247,0.012264175471673584,0.03209474530392008,non_fall
1.356348,0.0014,0.0034,-0.0117,-0.0237,-0.0071,-0.0029,33.3375,16.35,20.5312,,0.03295500000000007,0.012264175471673584,0.02179176078727715,non_fall
1.362995,0.0014,0.0034,-0.0117,-0.0237,-0.0071,-0.0029,33.3375,16.35,20.5312,,0.0066469999999998475,0.012264175471673584,0.016109670845900606,non_fall
1.383299,0.0014,0.0034,-0.0117,-0.0137,-0.0035,0.0027,33.3375,16.35,20.5312,,0.0203040000000001,0.012264175471673584,0.015013455591193218,non_fall
1.403186,0.0005,-0.0026,-0.023,-0.0137,-0.0035,0.0027,33.3375,16.35,20.5312,,0.019886999999999988,0.023151889771679545,0.01785487720403707,non_fall
1.416461,0.0005,-0.0026,-0.023,-0.0137,-0.0035,0.0027,33.3938,16.4062,20.5312,,0.013274999999999926,0.023151889771679545,0.023493392495040944,non_fall
1.423714,0.0005,-0.0026,-0.023,-0.0137,-0.0035,0.0027,33.3938,16.4062,20.5312,,0.007252999999999954,0.023151889771679545,0.030489768138834947,non_fall
1.444248,0.0005,-0.0026,-0.023,-0.0052,-0.0073,0.008,33.3938,16.4062,20.5312,,0.020534000000000052,0.023151889771679545,0.03734403842022513,non_fall
1.465164,0.0349,-0.0106,-0.0501,-0.0052,-0.0073,0.008,33.3938,16.4062,20.5312,,0.020915999999999935,0.06197079957528384,0.04274495489867047,non_fall
1.476615,0.0349,-0.0106,-0.0501,-0.0052,-0.0073,0.008,33.3,16.4062,20.775,,0.0114510000000001,0.06197079957528384,0.045790986768319934,non_fall
1.485449,0.0349,-0.0106,-0.0501,-0.0052,-0.0073,0.008,33.3,16.4062,20.775,,0.008834000000000009,0.06197079957528384,0.04613527318845424,non_fall
1.505586,0.0349,-0.0106,-0.0501,0.0023,-0.0052,0.0059,33.3,16.4062,20.775,,0.02013700000000007,0.06197079957528384,0.04401133454321555,non_fall
1.526371,-0.0123,-0.0018,-0.014,0.0023,-0.0052,0.0059,33.3,16.4062,20.775,,0.02078499999999983,0.018722446421341417,0.040123074145538624,non_fall
1.5371,-0.0123,-0.0018,-0.014,0.0023,-0.0052,0.0059,33.3563,16.2188,21.0375,,0.010728999999999989,0.018722446421341417,0.03542598862789901,non_fall
1.546554,-0.0123,-0.0018,-0.014,0.0023,-0.0052,0.0059,33.3563,16.2188,21.0375,,0.009454000000000073,0.018722446421341417,0.03086604739226687,non_fall
1.566309,-0.0123,-0.0018,-0.014,0.0104,0.0004,0.0027,33.3563,16.2188,21.0375,,0.019754999999999967,0.018722446421341417,0.02715687051060822,non_fall
1.596302,-0.0123,-0.0018,-0.014,0.0104,0.0004,0.0027,33.2812,16.1063,21.1688,,0.02999300000000016,0.018722446421341417,0.024657492050744675,non_fall
1.607502,-0.0123,-0.0018,-0.014,0.0104,0.0004,0.0027,33.2812,16.1063,21.1688,,0.011199999999999877,0.018722446421341417,0.023373489715813846,non_fall
1.608244,-0.0028,-0.007,-0.0415,0.0104,0.0004,0.0027,33.2812,16.1063,21.1688,,0.0007420000000000204,0.042179260306458674,0.023061943983011042,non_fall
1.627539,-0.0028,-0.007,-0.0415,0.0119,0.0004,0.0048,33.2812,16.1063,21.1688,,0.019295000000000062,0.042179260306458674,0.02338864413702979,non_fall
1.657163,-0.0028,-0.007,-0.0415,0.0119,0.0004,0.0048,33.0938,15.8438,21.2063,,0.029623999999999873,0.042179260306458674,0.024072161266998834,non_fall
1.667416,0.0056,0.0057,-0.0146,0.0119,0.0004,0.0048,33.0938,15.8438,21.2063,,0.010253000000000068,0.01664361739526597,0.024960059034649096,non_fall
1.668044,0.0056,0.0057,-0.0146,0.0119,0.0004,0.0048,33.0938,15.8438,21.2063,,0.0006280000000000729,0.01664361739526597,0.026016512809242876,non_fall
1.688152,0.0056,0.0057,-0.0146,0.0185,0.014,0.0035,33.0938,15.8438,21.2063,,0.020108000000000015,0.01664361739526597,0.02724312468772751,non_fall
1.716537,0.0056,0.0057,-0.0146,0.0185,0.014,0.0035,33.075,15.7125,21.3188,,0.028384999999999883,0.01664361739526597,0.028583900612284153,non_fall
1.72839,0.0056,0.0057,-0.0146,0.0185,0.014,0.0035,33.075,15.7125,21.3188,,0.011853000000000113,0.01664361739526597,0.029867938194531877,non_fall
1.728893,-0.0049,-0.0161,-0.0369,0.0185,0.014,0.0035,33.075,15.7125,21.3188,,0.0005029999999999202,0.04055650379408955,0.03082179701671949,non_fall
1.748518,-0.0049,-0.0161,-0.0369,0.0221,0.0157,0.0045,33.075,15.7125,21.3188,,0.019625000000000004,0.04055650379408955,0.03114992882308091,non_fall
1.776438,-0.0049,-0.0161,-0.0369,0.0221,0.0157,0.0045,33.3,15.6938,21.5438,,0.027919999999999945,0.04055650379408955,0.030650368110280875,non_fall
1.790462,-0.0049,-0.0161,-0.0369,0.0221,0.0157,0.0045,33.3,15.6938,21.5438,,0.014024000000000036,0.04055650379408955,0.029317091300941983,non_fall
1.791422,0.0043,-0.0012,-0.0226,0.0221,0.0157,0.0045,33.3,15.6938,21.5438,,0.0009600000000000719,0.02303670983452281,0.027386357049300977,non_fall
1.810139,0.0043,-0.0012,-0.0226,0.0168,0.0023,0.0067,33.3,15.6938,21.5438,,0.018716999999999873,0.02303670983452281,0.0253072421827596,non_fall
1.836851,0.0043,-0.0012,-0.0226,0.0168,0.0023,0.0067,33.3,15.5625,21.6188,,0.02671200000000007,0.02303670983452281,0.02364395828274332,non_fall
1.851127,0.0043,-0.0012,-0.0226,0.0168,0.0023,0.0067,33.3,15.5625,21.6188,,0.014275999999999955,0.02303670983452281,0.022937470223943483,non_fall
1.870616,0.0043,-0.0012,-0.0226,-0.0045,-0.0301,0.0056,33.3,15.5625,21.6188,,0.01948900000000009,0.02303670983452281,0.023561917751466363,non_fall
1.87135,-0.0092,0.0075,0.0096,-0.0045,-0.0301,0.0056,33.3,15.5625,21.6188,,0.0007340000000000124,0.01526597523907333,0.02561068136485286,non_fall
1.896454,-0.0092,0.0075,0.0096,-0.0045,-0.0301,0.0056,33.3563,15.4125,21.6562,,0.025104000000000015,0.01526597523907333,0.028842570831470942,non_fall
1.911472,-0.0092,0.0075,0.0096,-0.0045,-0.0301,0.0056,33.3563,15.4125,21.6562,,0.015017999999999976,0.01526597523907333,0.03271040132290106,non_fall
1.93318,-0.0226,0.0241,0.0411,-0.0045,-0.0301,0.0056,33.3563,15.4125,21.6562,,0.02170799999999984,0.052733101558698404,0.03647728379318087,non_fall
1.934022,-0.0226,0.0241,0.0411,-0.0177,-0.0169,0.0067,33.3563,15.4125,21.6562,,0.0008420000000000094,0.052733101558698404,0.039398595072111006,non_fall
1.957043,-0.0226,0.0241,0.0411,-0.0177,-0.0169,0.0067,33.3563,15.3188,21.7313,,0.02302100000000018,0.052733101558698404,0.04091899590167061,non_fall
1.972022,-0.0226,0.0241,0.0411,-0.0177,-0.0169,0.0067,33.3563,15.3188,21.7313,,0.014978999999999854,0.052733101558698404,0.04082086866050869,non_fall
1.99213,-0.0226,0.0241,0.0411,0.004,-0.019,0.0027,33.3563,15.3188,21.7313,,0.020108000000000015,0.052733101558698404,0.03927352597458166,non_fall
1.99264,-0.011,-0.0161,0.0052,0.004,-0.019,0.0027,33.3563,15.3188,21.7313,,0.0005100000000000104,0.020180436070610566,0.03676664752256351,non_fall
2.01685,-0.011,-0.0161,0.0052,0.004,-0.019,0.0027,33.3375,15.4313,21.6375,,0.024209999999999843,0.020180436070610566,0.033952126547167095,non_fall
2.032594,-0.011,-0.0161,0.0052,0.004,-0.019,0.0027,33.3375,15.4313,21.6375,,0.015744000000000202,0.020180436070610566,0.03145006929260202,non_fall
2.053213,-0.011,-0.0161,0.0052,-0.0145,-0.0109,0.0037,33.3375,15.4313,21.6375,,0.020618999999999943,0.020180436070610566,0.029684219279503328,non_fall
2.074121,0.0011,-0.0138,-0.0306,-0.0145,-0.0109,0.0037,33.3375,15.4313,21.6375,,0.020907999999999927,0.033585860119996924,0.028795574014764198,non_fall
2.075988,0.0011,-0.0138,-0.0306,-0.0145,-0.0109,0.0037,33.45,15.3,21.6,,0.001867000000000285,0.033585860119996924,0.02864973302766338,non_fall
2.096814,0.0011,-0.0138,-0.0306,-0.0145,-0.0109,0.0037,33.45,15.3,21.6,,0.02082600000000001,0.033585860119996924,0.0289203457110176,non_fall
2.114241,0.0011,-0.0138,-0.0306,-0.0258,0.0033,0.0041,33.45,15.3,21.6,,0.017426999999999637,0.033585860119996924,0.02921115854299636,non_fall
2.134956,-0.0249,0.0163,-0.0085,-0.0258,0.0033,0.0041,33.45,15.3,21.6,,0.02071500000000004,0.030950767357207802,0.02917629229274248,non_fall
2.136427,-0.0249,0.0163,-0.0085,-0.0258,0.0033,0.0041,33.5813,15.3,21.7313,,0.001471,0.030950767357207802,0.028607837478264037,non_fall
2.155473,-0.0249,0.0163,-0.0085,-0.0258,0.0033,0.0041,33.5813,15.3,21.7313,,0.01904600000000034,0.030950767357207802,0.02747405241542911,non_fall
2.175376,-0.0249,0.0163,-0.0085,-0.0216,-0.0009,-0.0012,33.5813,15.3,21.7313,,0.019902999999999782,0.030950767357207802,0.025905139613048953,non_fall
2.195566,-0.0026,-0.0052,0.0154,-0.0216,-0.0009,-0.0012,33.5813,15.3,21.7313,,0.02018999999999993,0.0164608626748418,0.024135402624749225,non_fall
2.196293,-0.0026,-0.0052,0.0154,-0.0216,-0.0009,-0.0012,33.5438,15.15,21.8813,,0.0007269999999999222,0.0164608626748418,0.02242081695079146,non_fall
2.216115,-0.0026,-0.0052,0.0154,-0.0216,-0.0009,-0.0012,33.5438,15.15,21.8813,,0.019822000000000006,0.0164608626748418,0.020958088624416248,non_fall
2.238511,-0.0026,-0.0052,0.0154,-0.0103,-0.0095,-0.0033,33.5438,15.15,21.8813,,0.022396000000000083,0.0164608626748418,0.01983121628015513,non_fall
2.257825,-0.0026,-0.0052,0.0154,-0.0103,-0.0095,-0.0033,33.45,15.0375,21.8813,,0.019314000000000053,0.0164608626748418,0.019002380167874148,non_fall
2.25937,0.0078,-0.0164,-0.0123,-0.0103,-0.0095,-0.0033,33.45,15.0375,21.8813,,0.0015450000000001296,0.021933763926877667,0.018348731549253983,non_fall
2.27751,0.0078,-0.0164,-0.0123,-0.0103,-0.0095,-0.0033,33.45,15.0375,21.8813,,0.018139999999999823,0.021933763926877667,0.017731286503930344,non_fall
2.297506,0.0078,-0.0164,-0.0123,-0.0148,0.0087,-0.0069,33.45,15.0375,21.8813,,0.019995999999999903,0.021933763926877667,0.017071636535782222,non_fall
2.317756,0.0078,-0.0164,-0.0123,-0.0148,0.0087,-0.0069,33.45,14.9438,22.0125,,0.020250000000000323,0.021933763926877667,0.016409470673971593,non_fall
2.33921,0.0078,-0.0164,-0.0123,-0.0148,0.0087,-0.0069,33.45,14.9438,22.0125,,0.021453999999999862,0.021933763926877667,0.0159196896239961,non_fall
2.343375,-0.0098,-0.003,0.0055,-0.0148,0.0087,-0.0069,33.45,14.9438,22.0125,,0.004164999999999974,0.011631422956801115,0.01588056740012616,non_fall
2.357851,-0.0098,-0.003,0.0055,-0.0127,-0.0077,-0.0069,33.45,14.9438,22.0125,,0.014476000000000155,0.011631422956801115,0.016600439192275697,non_fall
2.376665,-0.0098,-0.003,0.0055,-0.0127,-0.0077,-0.0069,33.375,15.0938,22.1625,,0.018813999999999886,0.011631422956801115,0.018324699375922633,non_fall
2.399311,-0.0067,-0.0052,0.0213,-0.0127,-0.0077,-0.0069,33.375,15.0938,22.1625,,0.022645999999999944,0.022926403991904182,0.021151866360727672,non_fall
2.399978,-0.0067,-0.0052,0.0213,-0.0127,-0.0077,-0.0069,33.375,15.0938,22.1625,,0.0006669999999999732,0.022926403991904182,0.024984293052920048,non_fall
2.419214,-0.0067,-0.0052,0.0213,0.0044,0.0068,-0.0037,33.375,15.0938,22.1625,,0.019236000000000253,0.022926403991904182,0.02952857962193305,non_fall
2.437564,-0.0067,-0.0052,0.0213,0.0044,0.0068,-0.0037,33.4313,15.225,22.0125,,0.018349999999999866,0.022926403991904182,0.03434848913118838,non_fall
2.460709,0.0251,-0.017,-0.0425,0.0044,0.0068,-0.0037,33.4313,15.225,22.0125,,0.02314499999999997,0.05220402283349436,0.038961478252732384,non_fall
2.461696,0.0251,-0.017,-0.0425,0.0044,0.0068,-0.0037,33.4313,15.225,22.0125,,0.0009869999999998491,0.05220402283349436,0.04295746677322847,non_fall
2.479575,0.0251,-0.017,-0.0425,0.0249,0.014,-0.0051,33.4313,15.225,22.0125,,0.0178790000000002,0.05220402283349436,0.04610708898846084,non_fall
2.496158,0.0251,-0.017,-0.0425,0.0249,0.014,-0.0051,33.3375,15.2438,22.0688,,0.016582999999999792,0.05220402283349436,0.048424227368731684,non_fall
2.520486,0.0251,-0.017,-0.0425,0.0249,0.014,-0.0051,33.3375,15.2438,22.0688,,0.024328000000000127,0.05220402283349436,0.050159502858754,non_fall
2.540464,0.0251,-0.017,-0.0425,0.0451,0.0193,0.0005,33.3375,15.2438,22.0688,,0.01997800000000005,0.05220402283349436,0.051723103778786514,non_fall
2.541173,0.0149,-0.0183,-0.0416,0.0451,0.0193,0.0005,33.3375,15.2438,22.0688,,0.0007090000000000707,0.04782739800574562,0.053557133798533725,non_fall
2.557304,0.0149,-0.0183,-0.0416,0.0451,0.0193,0.0005,33.3188,15.4125,22.05,,0.016130999999999673,0.04782739800574562,0.055992834485870425,non_fall
2.581355,0.0149,-0.0183,-0.0416,0.0451,0.0193,0.0005,33.3188,15.4125,22.05,,0.024051000000000045,0.04782739800574562,0.05913394973721394,non_fall
2.601401,0.0149,-0.0183,-0.0416,0.065,0.0253,-0.0008,33.3188,15.4125,22.05,,0.02004600000000023,0.04782739800574562,0.0628024638527365,non_fall
2.602023,-0.0009,-0.0046,-0.081,0.065,0.0253,-0.0008,33.3188,15.4125,22.05,,0.0006219999999999004,0.08113550394247884,0.0665659159639259,non_fall
2.617424,-0.0009,-0.0046,-0.081,0.065,0.0253,-0.0008,33.3,15.45,21.9563,,0.01540100000000022,0.08113550394247884,0.06983930396698884,non_fall
2.64396,-0.0009,-0.0046,-0.081,0.065,0.0253,-0.0008,33.3,15.45,21.9563,,0.02653599999999967,0.08113550394247884,0.07202912135907544,non_fall
2.662763,0.0113,0.0099,-0.0654,0.065,0.0253,-0.0008,33.3,15.45,21.9563,,0.018803000000000125,0.06710335312039183,0.07267596960519633,non_fall
2.663533,0.0113,0.0099,-0.0654,0.0756,0.0193,-0.0059,33.3,15.45,21.9563,,0.0007700000000001594,0.06710335312039183,0.07156147170225471,non_fall
2.676603,0.0113,0.0099,-0.0654,0.0756,0.0193,-0.0059,33.1875,15.4125,21.8813,,0.013069999999999915,0.06710335312039183,0.06876584911676317,non_fall
2.703052,0.0113,0.0099,-0.0654,0.0756,0.0193,-0.0059,33.1875,15.4125,21.8813,,0.026448999999999945,0.06710335312039183,0.06467866430612194,non_fall
2.725439,0.0113,0.0099,-0.0654,0.0874,0.0076,-0.0101,33.1875,15.4125,21.8813,,0.022387000000000157,0.06710335312039183,0.05996916765593589,non_fall
2.727369,-0.0298,0.0084,-0.0439,0.0874,0.0076,-0.0101,33.1875,15.4125,21.8813,,0.0019299999999997652,0.053719735665768126,0.05551924922474053,non_fall
2.737104,-0.0298,0.0084,-0.0439,0.0874,0.0076,-0.0101,33.2063,15.4313,21.9188,,0.00973500000000005,0.053719735665768126,0.052320301481622235,non_fall
2.764022,-0.0298,0.0084,-0.0439,0.0874,0.0076,-0.0101,33.2063,15.4313,21.9188,,0.02691800000000022,0.053719735665768126,0.05133939669671449,non_fall
2.784105,-0.0298,0.0084,-0.0439,0.1169,-0.0152,-0.0136,33.2063,15.4313,21.9188,,0.02008299999999963,0.053719735665768126,0.053367601266409104,non_fall
2.796957,-0.0298,0.0084,-0.0439,0.1169,-0.0152,-0.0136,33.2063,15.4875,21.8063,,0.012852000000000086,0.053719735665768126,0.058870097697065076,non_fall
2.804371,0.0027,0.0142,-0.0712,0.1169,-0.0152,-0.0136,33.2063,15.4875,21.8063,,0.007414000000000254,0.07265239156421487,0.06786250500562152,non_fall
2.825173,0.0027,0.0142,-0.0712,0.1169,-0.0152,-0.0136,33.2063,15.4875,21.8063,,0.020801999999999765,0.07265239156421487,0.0798401487793854,non_fall
2.845347,0.0027,0.0142,-0.0712,0.1666,0.0029,-0.0146,33.2063,15.4875,21.8063,,0.020173999999999914,0.07265239156421487,0.0937863996839872,non_fall
2.857848,0.0027,0.0142,-0.0712,0.1666,0.0029,-0.0146,33.1313,15.4688,21.6188,,0.012501000000000317,0.07265239156421487,0.10828028885787794,non_fall
2.867227,0.0261,-0.0067,-0.1537,0.1666,0.0029,-0.0146,33.1313,15.4688,21.6188,,0.009379000000000026,0.15604419245841866,0.12170646016939894,non_fall
2.890906,0.0261,-0.0067,-0.1537,0.1666,0.0029,-0.0146,33.1313,15.4688,21.6188,,0.023679000000000006,0.15604419245841866,0.1325373789212523,non_fall
2.906508,0.0261,-0.0067,-0.1537,0.2032,-0.0173,-0.0176,33.1313,15.4688,21.6188,,0.015601999999999894,0.15604419245841866,0.13961927419739756,non_fall
2.91744,0.0261,-0.0067,-0.1537,0.2032,-0.0173,-0.0176,33.075,15.5063,21.525,,0.010931999999999942,0.15604419245841866,0.14237685436978473,non_fall
2.926705,0.0217,-0.0296,-0.1199,0.2032,-0.0173,-0.0176,33.075,15.5063,21.525,,0.009265000000000079,0.12539162651469196,0.14087583224305164,non_fall
2.946205,0.0217,-0.0296,-0.1199,0.2032,-0.0173,-0.0176,33.075,15.5063,21.525,,0.01949999999999985,0.12539162651469196,0.1357346151199594,non_fall
2.968071,0.0217,-0.0296,-0.1199,0.1979,-0.0177,-0.0338,33.075,15.5063,21.525,,0.021866000000000163,0.12539162651469196,0.12792597251646162,non_fall
2.977121,0.0217,-0.0296,-0.1199,0.1979,-0.0177,-0.0338,33.1875,15.675,21.5063,,0.00904999999999978,0.12539162651469196,0.1185330431870532,non_fall
3.008169,0.0217,-0.0296,-0.1199,0.1979,-0.0177,-0.0338,33.1875,15.675,21.5063,,0.031048000000000187,0.12539162651469196,0.10852089085925025,non_fall
3.008788,-0.019,0.0439,-0.0428,0.1979,-0.0177,-0.0338,33.1875,15.675,21.5063,,0.0006189999999999252,0.06418761562793869,0.09857156023664286,non_fall
3.027668,-0.019,0.0439,-0.0428,0.2194,0.0302,-0.036,33.1875,15.675,21.5063,,0.018879999999999786,0.06418761562793869,0.08902312718830085,non_fall
3.036367,-0.019,0.0439,-0.0428,0.2194,0.0302,-0.036,33.15,15.8625,21.3563,,0.008699000000000012,0.06418761562793869,0.07994891875724043,non_fall
3.067944,-0.019,0.0439,-0.0428,0.2194,0.0302,-0.036,33.15,15.8625,21.3563,,0.031576999999999966,0.06418761562793869,0.07139313169096896,non_fall
3.068396,0.0312,-0.0463,-0.0611,0.2194,0.0302,-0.036,33.15,15.8625,21.3563,,0.000452000000000119,0.08276678077586441,0.06373250706674785,non_fall
3.088335,0.0312,-0.0463,-0.0611,0.2305,0.0083,-0.0146,33.15,15.8625,21.3563,,0.01993899999999993,0.08276678077586441,0.05807429416294321,non_fall
3.09608,0.0312,-0.0463,-0.0611,0.2305,0.0083,-0.0146,33.0938,16.2375,21.1125,,0.007745000000000335,0.08276678077586441,0.056557243533034325,non_fall
3.12871,0.0312,-0.0463,-0.0611,0.2305,0.0083,-0.0146,33.0938,16.2375,21.1125,,0.032629999999999715,0.08276678077586441,0.06241718144082255,backward_fall
3.129262,-0.0546,0.0139,0.1226,0.2305,0.0083,-0.0146,33.0938,16.2375,21.1125,,0.00055200000000033,0.1349263873376887,0.07971673880223912,backward_fall
3.149378,-0.0546,0.0139,0.1226,-0.0173,-0.0401,-0.0332,33.0938,16.2375,21.1125,,0.0201159999999998,0.1349263873376887,0.11271139607712212,backward_fall
3.15723,-0.0546,0.0139,0.1226,-0.0173,-0.0401,-0.0332,33.2625,16.4625,20.925,,0.007852000000000192,0.1349263873376887,0.16491960545704193,backward_fall
3.192602,-0.0546,0.0139,0.1226,-0.0173,-0.0401,-0.0332,33.2625,16.4625,20.925,,0.03537199999999974,0.1349263873376887,0.2380690032370566,backward_fall
3.193236,-0.1,0.192,0.3343,-0.0173,-0.0401,-0.0332,33.2625,16.4625,20.925,,0.0006340000000002455,0.39827187949941933,0.33117297246284705,backward_fall
3.21197,-0.1,0.192,0.3343,-0.4731,-0.0411,-0.1425,33.2625,16.4625,20.925,,0.018733999999999806,0.39827187949941933,0.4400120570980889,backward_fall
3.217356,-0.1,0.192,0.3343,-0.4731,-0.0411,-0.1425,33.2625,16.7812,20.7563,,0.005386000000000113,0.39827187949941933,0.5572431751392115,backward_fall
3.251619,-0.1,0.192,0.3343,-0.4731,-0.0411,-0.1425,33.2625,16.7812,20.7563,,0.03426299999999971,0.39827187949941933,0.6732601113410326,backward_fall
3.271768,-0.2814,0.38,0.932,-0.4731,-0.0411,-0.1425,33.2625,16.7812,20.7563,,0.020148999999999972,1.0450884938606873,0.7777759439705261,backward_fall
3.272607,-0.2814,0.38,0.932,-0.7418,0.3349,-0.0161,33.2625,16.7812,20.7563,,0.0008390000000000342,1.0450884938606873,0.8618550236043324,backward_fall
3.277177,-0.2814,0.38,0.932,-0.7418,0.3349,-0.0161,33.225,17.0063,20.9062,,0.004570000000000185,1.0450884938606873,0.91984655960784,backward_fall
3.312295,-0.2814,0.38,0.932,-0.7418,0.3349,-0.0161,33.225,17.0063,20.9062,,0.035118000000000205,1.0450884938606873,0.9505589426177001,backward_fall
3.332271,-0.2814,0.38,0.932,-0.8505,0.349,0.4514,33.225,17.0063,20.9062,,0.01997599999999977,1.0450884938606873,0.9572078644632617,backward_fall
3.333004,0.7737,-0.0316,0.146,-0.8505,0.349,0.4514,33.225,17.0063,20.9062,,0.0007329999999998726,0.7879887372291561,0.9460969763918934,backward_fall
3.336365,0.7737,-0.0316,0.146,-0.8505,0.349,0.4514,33.1125,16.875,21.2812,,0.0033609999999999474,0.7879887372291561,0.924437810529259,backward_fall
3.373034,0.7737,-0.0316,0.146,-0.8505,0.349,0.4514,33.1125,16.875,21.2812,,0.036669000000000285,0.7879887372291561,0.8980081694305942,backward_fall
3.393644,0.7737,-0.0316,0.146,-0.7693,-0.3045,0.4352,33.1125,16.875,21.2812,,0.020610000000000017,0.7879887372291561,0.8693929630513821,backward_fall
3.396934,0.7737,-0.0316,0.146,-0.7693,-0.3045,0.4352,33.3,16.425,21.75,,0.003289999999999793,0.7879887372291561,0.8373497554699965,backward_fall
3.397995,0.3434,0.1379,0.6896,-0.7693,-0.3045,0.4352,33.3,16.425,21.75,,0.0010609999999999786,0.7826162086233583,0.7974901209572327,backward_fall
3.434102,0.3434,0.1379,0.6896,-0.7693,-0.3045,0.4352,33.3,16.425,21.75,,0.03610700000000033,0.7826162086233583,0.744100891830588,backward_fall
3.454494,0.3434,0.1379,0.6896,-0.6896,-0.1262,0.5087,33.3,16.425,21.75,,0.020391999999999744,0.7826162086233583,0.6726412737994355,backward_fall
3.456604,0.3434,0.1379,0.6896,-0.6896,-0.1262,0.5087,33.3938,15.4688,22.1063,,0.0021100000000000563,0.7826162086233583,0.5822900007128295,backward_fall
3.475348,0.18,-0.2788,0.1487,-0.6896,-0.1262,0.5087,33.3938,15.4688,22.1063,,0.018743999999999872,0.3636497353223291,0.4779111672900193,backward_fall
3.495333,0.18,-0.2788,0.1487,-0.6896,-0.1262,0.5087,33.3938,15.4688,22.1063,,0.01998500000000014,0.3636497353223291,0.3709625382654816,backward_fall
3.515419,0.18,-0.2788,0.1487,-0.0301,0.0055,0.4661,33.3938,15.4688,22.1063,,0.020086000000000048,0.3636497353223291,0.27911987952952316,backward_fall
3.517982,0.18,-0.2788,0.1487,-0.0301,0.0055,0.4661,33.5438,14.4188,22.6125,,0.002562999999999871,0.3636497353223291,0.2246155822472139,backward_fall
3.535781,0.2187,-0.215,-0.0432,-0.0301,0.0055,0.4661,33.5438,14.4188,22.6125,,0.01779900000000012,0.30971104274791367,0.23143288545645574,backward_fall
3.556408,0.2187,-0.215,-0.0432,-0.0301,0.0055,0.4661,33.5438,14.4188,22.6125,,0.02062699999999973,0.30971104274791367,0.3216270774131295,backward_fall
3.577121,0.2187,-0.215,-0.0432,-0.0301,0.0055,0.4661,33.7688,13.1063,23.1938,,0.020713000000000203,0.30971104274791367,0.5112462607859204,backward_fall
3.578778,0.2187,-0.215,-0.0432,1.2227,0.075,0.6999,33.7688,13.1063,23.1938,,0.0016569999999997975,0.30971104274791367,0.8065517083226978,backward_fall
3.59824,0.7493,-0.9818,-1.2712,1.2227,0.075,0.6999,33.7688,13.1063,23.1938,,0.019462000000000312,1.7723800862117582,1.201322206552458,backward_fall
3.618691,0.7493,-0.9818,-1.2712,1.2227,0.075,0.6999,33.7688,13.1063,23.1938,,0.020450999999999997,1.7723800862117582,1.675844383989496,backward_fall
3.6387,0.7493,-0.9818,-1.2712,1.2227,0.075,0.6999,33.975,11.9813,23.7563,,0.020008999999999943,1.7723800862117582,2.197855140091219,backward_fall
3.641032,0.7493,-0.9818,-1.2712,2.091,0.3394,1.0772,33.975,11.9813,23.7563,,0.0023320000000000007,1.7723800862117582,2.7254774999805407,backward_fall
3.659105,1.7049,-0.9321,-3.4555,2.091,0.3394,1.0772,33.975,11.9813,23.7563,,0.018072999999999784,3.9643378602233184,3.2120900586543457,backward_fall
3.677661,1.7049,-0.9321,-3.4555,2.091,0.3394,1.0772,33.975,11.9813,23.7563,,0.01855600000000024,3.9643378602233184,3.6127626403510087,backward_fall
3.698037,1.7049,-0.9321,-3.4555,2.091,0.3394,1.0772,34.2563,10.5375,24.0,,0.020375999999999728,3.9643378602233184,3.891274207079417,backward_fall
3.700152,1.7049,-0.9321,-3.4555,2.1655,-0.602,0.8778,34.2563,10.5375,24.0,,0.002115000000000311,3.9643378602233184,4.02626976846143,backward_fall
3.739005,1.7049,-0.9321,-3.4555,2.1655,-0.602,0.8778,34.2563,10.5375,24.0,,0.038853000000000026,3.9643378602233184,4.015258446246418,backward_fall
3.740592,-1.2621,0.4129,-3.7094,2.1655,-0.602,0.8778,34.2563,10.5375,24.0,,0.001586999999999783,3.939927814059542,3.8757239734210973,backward_fall
3.756633,-1.2621,0.4129,-3.7094,2.1655,-0.602,0.8778,34.7438,9.2812,23.7,,0.016040999999999972,3.939927814059542,3.6431142493158934,backward_fall
3.758918,-1.2621,0.4129,-3.7094,2.2955,-1.0358,0.3662,34.7438,9.2812,23.7,,0.0022850000000000925,3.939927814059542,3.365719753399218,backward_fall
3.80019,-1.2621,0.4129,-3.7094,2.2955,-1.0358,0.3662,34.7438,9.2812,23.7,,0.0412720000000002,3.939927814059542,3.096684416951575,backward_fall
3.801559,-1.7554,0.5599,-0.1032,2.2955,-1.0358,0.3662,34.7438,9.2812,23.7,,0.0013689999999999536,1.8454179499506338,2.88396894771235,backward_fall
3.818397,-1.7554,0.5599,-0.1032,2.2955,-1.0358,0.3662,35.4188,8.3438,22.4062,,0.01683799999999991,1.8454179499506338,2.7601008384083863,backward_fall
3.819811,-1.7554,0.5599,-0.1032,3.1329,-2.022,0.0152,35.4188,8.3438,22.4062,,0.0014140000000000263,1.8454179499506338,2.734545025856256,backward_fall
3.860476,-1.7554,0.5599,-0.1032,3.1329,-2.022,0.0152,35.4188,8.3438,22.4062,,0.04066499999999973,1.8454179499506338,2.791648509139944,backward_fall
3.862032,-2.3269,1.3686,2.4351,3.1329,-2.022,0.0152,35.4188,8.3438,22.4062,,0.001556000000000335,3.635552444952486,2.8957919601583786,backward_fall
3.876551,-2.3269,1.3686,2.4351,3.1329,-2.022,0.0152,35.8313,7.9875,19.875,,0.014518999999999949,3.635552444952486,3.00298158382347,backward_fall
3.879857,-2.3269,1.3686,2.4351,2.7084,-1.6159,0.1874,35.8313,7.9875,19.875,,0.003305999999999809,3.635552444952486,3.0757373916821176,backward_fall
3.921434,-2.3269,1.3686,2.4351,2.7084,-1.6159,0.1874,35.8313,7.9875,19.875,,0.0415770000000002,3.635552444952486,3.0968866209584114,backward_fall
3.937122,-2.3269,1.3686,2.4351,2.7084,-1.6159,0.1874,36.225,7.2563,17.5875,,0.015687999999999924,3.635552444952486,3.0781868727134536,backward_fall
3.94015,-2.3269,1.3686,2.4351,1.2416,2.8504,2.0291,36.225,7.2563,17.5875,,0.0030280000000000307,3.635552444952486,3.0612109253270683,backward_fall
3.940888,-0.0436,1.3375,-2.6639,1.2416,2.8504,2.0291,36.225,7.2563,17.5875,,0.0007380000000001274,2.981135760075344,3.10993849141574,backward_fall
3.982218,-0.0436,1.3375,-2.6639,1.2416,2.8504,2.0291,36.225,7.2563,17.5875,,0.04132999999999987,2.981135760075344,3.2965220963745607,backward_fall
3.996485,-0.0436,1.3375,-2.6639,1.2416,2.8504,2.0291,36.7125,6.6375,15.675,,0.014266999999999808,2.981135760075344,3.6833974944683687,backward_fall
4.001869,-0.0436,1.3375,-2.6639,0.6313,-1.0297,-1.7165,36.7125,6.6375,15.675,,0.0053840000000002775,2.981135760075344,4.305916752674213,backward_fall
4.003741,5.7336,0.1221,1.9734,0.6313,-1.0297,-1.7165,36.7125,6.6375,15.675,,0.0018719999999996517,6.064930744039869,5.159632269128463,backward_fall
4.043115,5.7336,0.1221,1.9734,0.6313,-1.0297,-1.7165,36.7125,6.6375,15.675,,0.039374000000000464,6.064930744039869,6.195221646639664,backward_fall
4.058762,5.7336,0.1221,1.9734,0.6313,-1.0297,-1.7165,37.0125,6.675,13.5563,,0.015646999999999522,6.064930744039869,7.322333846516839,backward_fall
4.062968,5.7336,0.1221,1.9734,1.3484,-0.6677,-1.1404,37.0125,6.675,13.5563,,0.004205999999999932,6.064930744039869,8.422069956414706,backward_fall
4.063726,-7.1595,-9.2271,1.1858,1.3484,-0.6677,-1.1404,37.0125,6.675,13.5563,,0.0007580000000002585,11.738992133058101,9.366459149082523,backward_fall
4.105167,-7.1595,-9.2271,1.1858,1.3484,-0.6677,-1.1404,37.0125,6.675,13.5563,,0.04144099999999984,11.738992133058101,10.041569542776047,backward_fall
4.117796,-7.1595,-9.2271,1.1858,1.3484,-0.6677,-1.1404,37.0688,6.8625,10.8938,,0.012629000000000445,11.738992133058101,10.368956967490915,backward_fall
4.123724,-7.1595,-9.2271,1.1858,2.1251,-2.0287,-0.6274,37.0688,6.8625,10.8938,,0.005927999999999933,11.738992133058101,10.319561740019516,backward_fall
4.124922,-4.7962,-4.6602,4.4225,2.1251,-2.0287,-0.6274,37.0688,6.8625,10.8938,,0.0011979999999995883,8.017450014187803,9.916242998201515,backward_fall
4.165716,-4.7962,-4.6602,4.4225,2.1251,-2.0287,-0.6274,37.0688,6.8625,10.8938,,0.040794,8.017450014187803,9.225186656963155,backward_fall
4.177199,-4.7962,-4.6602,4.4225,2.1251,-2.0287,-0.6274,36.825,6.975,7.9875,,0.011483000000000132,8.017450014187803,8.340147259751987,backward_fall
4.184593,-4.7962,-4.6602,4.4225,2.6757,-0.898,-0.2475,36.825,6.975,7.9875,,0.007393999999999679,8.017450014187803,7.364925374142996,backward_fall
4.205077,0.3875,-4.3874,2.9247,2.6757,-0.898,-0.2475,36.825,6.975,7.9875,,0.020484000000000613,5.287088527724876,6.398429663718337,backward_fall
4.225963,0.3875,-4.3874,2.9247,2.6757,-0.898,-0.2475,36.825,6.975,7.9875,,0.02088599999999996,5.287088527724876,5.524508234569006,backward_fall
4.237326,0.3875,-4.3874,2.9247,2.6757,-0.898,-0.2475,36.225,6.825,4.725,,0.011363000000000234,5.287088527724876,4.806873919970758,backward_fall
4.246762,0.3875,-4.3874,2.9247,2.8873,-1.4902,-0.229,36.225,6.825,4.725,,0.009436,5.287088527724876,4.288214298648667,backward_fall
4.266159,0.2659,-3.6327,-1.3738,2.8873,-1.4902,-0.229,36.225,6.825,4.725,,0.019396999999999665,3.8928830627184268,3.9917871160037333,backward_fall
4.287044,0.2659,-3.6327,-1.3738,2.8873,-1.4902,-0.229,36.225,6.825,4.725,,0.02088499999999982,3.8928830627184268,3.923650017130941,backward_fall
4.295839,0.2659,-3.6327,-1.3738,2.8873,-1.4902,-0.229,35.475,6.3563,1.875,,0.008795000000000108,3.8928830627184268,4.07436132389537,backward_fall
4.307083,0.2659,-3.6327,-1.3738,2.818,-0.335,-0.2113,35.475,6.3563,1.875,,0.011244000000000476,3.8928830627184268,4.420068619959049,backward_fall
4.326983,1.5826,-1.1407,-5.2566,2.818,-0.335,-0.2113,35.475,6.3563,1.875,,0.019899999999999807,5.606929891660854,4.923623079553792,backward_fall
4.347653,1.5826,-1.1407,-5.2566,2.818,-0.335,-0.2113,35.475,6.3563,1.875,,0.020669999999999966,5.606929891660854,5.536423460629795,backward_fall
4.356726,1.5826,-1.1407,-5.2566,2.818,-0.335,-0.2113,34.7625,5.2875,0.0938,,0.009072999999999887,5.606929891660854,6.201412548098315,backward_fall
4.367536,1.5826,-1.1407,-5.2566,2.1939,-0.0467,0.0802,34.7625,5.2875,0.0938,,0.010810000000000208,5.606929891660854,6.857450785991119,backward_fall
4.408555,0.5206,1.049,-8.396,2.1939,-0.0467,0.0802,34.7625,5.2875,0.0938,,0.04101899999999947,8.47727794518972,7.445162809581683,backward_fall
4.410627,0.5206,1.049,-8.396,2.1939,-0.0467,0.0802,34.7625,5.2875,0.0938,,0.0020720000000000738,8.47727794518972,7.913874918390812,backward_fall
4.419082,0.5206,1.049,-8.396,2.1939,-0.0467,0.0802,26.4,21.9375,-11.6063,,0.008455000000000545,8.47727794518972,8.228390646230883,backward_fall
4.429373,0.5206,1.049,-8.396,1.5263,0.5188,0.1224,26.4,21.9375,-11.6063,,0.010290999999999606,8.47727794518972,8.373789957886897,backward_fall
4.470276,0.5206,1.049,-8.396,1.5263,0.5188,0.1224,26.4,21.9375,-11.6063,,0.040903000000000134,8.47727794518972,8.356823640557309,backward_fall
4.471792,2.3602,2.0219,-7.1302,1.5263,0.5188,0.1224,26.4,21.9375,-11.6063,,0.0015159999999996288,7.778070177749749,8.203574491196498,backward_fall
4.477015,2.3602,2.0219,-7.1302,1.5263,0.5188,0.1224,25.5938,21.0938,-13.6125,,0.005222999999999978,7.778070177749749,7.954126845123253,backward_fall
4.490522,2.3602,2.0219,-7.1302,1.0257,0.4201,-0.2194,25.5938,21.0938,-13.6125,,0.013507000000000602,7.778070177749749,7.655536798276074,backward_fall
4.531904,2.3602,2.0219,-7.1302,1.0257,0.4201,-0.2194,25.5938,21.0938,-13.6125,,0.041381999999999586,7.778070177749749,7.35438639206026,backward_fall
4.53386,2.2415,3.511,-5.1838,1.0257,0.4201,-0.2194,25.5938,21.0938,-13.6125,,0.0019559999999998468,6.650054562934051,7.089895677589217,backward_fall
4.53888,2.2415,3.511,-5.1838,1.0257,0.4201,-0.2194,24.8063,19.725,-15.3375,,0.0050200000000000244,6.650054562934051,6.88832083260331,backward_fall
4.552396,2.2415,3.511,-5.1838,0.2571,0.0402,-0.5646,24.8063,19.725,-15.3375,,0.013516000000000084,6.650054562934051,6.759326363806101,backward_fall
4.591398,2.2415,3.511,-5.1838,0.2571,0.0402,-0.5646,24.8063,19.725,-15.3375,,0.03900199999999998,6.650054562934051,6.694961935737488,backward_fall
4.593062,1.0947,4.252,-4.9346,0.2571,0.0402,-0.5646,24.8063,19.725,-15.3375,,0.0016639999999998878,6.605160804249961,6.671546990140356,backward_fall
4.596607,1.0947,4.252,-4.9346,0.2571,0.0402,-0.5646,24.3563,18.4875,-16.5938,,0.0035449999999999093,6.605160804249961,6.654228872352653,backward_fall
4.611995,1.0947,4.252,-4.9346,-0.335,-0.0137,-0.5535,24.3563,18.4875,-16.5938,,0.015388000000000623,6.605160804249961,6.603472678887437,backward_fall
4.653901,1.0947,4.252,-4.9346,-0.335,-0.0137,-0.5535,24.3563,18.4875,-16.5938,,0.041906,6.605160804249961,6.482388835544039,backward_fall
4.66015,1.0947,4.252,-4.9346,-0.335,-0.0137,-0.5535,24.15,17.7563,-17.25,,0.006248999999999505,6.605160804249961,6.263599648639785,backward_fall
4.672321,1.0947,4.252,-4.9346,-0.6855,-0.1053,-0.3764,24.15,17.7563,-17.25,,0.012171000000000376,6.605160804249961,5.934308086388528,backward_fall
4.673315,-0.2781,3.8145,-3.3358,-0.6855,-0.1053,-0.3764,24.15,17.7563,-17.25,,0.0009939999999994953,5.074969113206503,5.4984732474802716,backward_fall
4.717113,-0.2781,3.8145,-3.3358,-0.6855,-0.1053,-0.3764,24.15,17.7563,-17.25,,0.04379800000000067,5.074969113206503,4.975604351779758,backward_fall
4.718817,-0.2781,3.8145,-3.3358,-0.6855,-0.1053,-0.3764,24.15,17.4375,-17.3813,,0.0017039999999992617,5.074969113206503,4.396530277689732,backward_fall
4.734031,-1.0979,1.7794,-1.5723,-0.6855,-0.1053,-0.3764,24.15,17.4375,-17.3813,,0.015214000000000283,2.6160611728321643,3.7972770435016168,backward_fall
4.736133,-1.0979,1.7794,-1.5723,-1.0103,-0.0254,-0.1993,24.15,17.4375,-17.3813,,0.0021019999999998262,2.6160611728321643,3.2126699959649936,backward_fall
4.775645,-1.0979,1.7794,-1.5723,-1.0103,-0.0254,-0.1993,24.15,17.4375,-17.3813,,0.039512000000000214,2.6160611728321643,2.671350434731665,backward_fall
4.777279,-1.0979,1.7794,-1.5723,-1.0103,-0.0254,-0.1993,24.1125,17.3625,-17.025,,0.0016340000000001353,2.6160611728321643,2.1933682320601045,backward_fall
4.798143,-1.0979,1.7794,-1.5723,-1.1228,0.1186,-0.0636,24.1125,17.3625,-17.025,,0.02086399999999955,2.6160611728321643,1.7904050973821821,backward_fall
4.799712,-0.8655,0.6132,-0.175,-1.1228,0.1186,-0.0636,24.1125,17.3625,-17.025,,0.0015690000000008197,1.0750485989014635,1.4676024738222837,backward_fall
4.837689,-0.8655,0.6132,-0.175,-1.1228,0.1186,-0.0636,24.1125,17.3625,-17.025,,0.037976999999999705,1.0750485989014635,1.2256548385386359,backward_fall
4.839675,-0.8655,0.6132,-0.175,-1.1228,0.1186,-0.0636,24.1875,17.7938,-16.5188,,0.001985999999999599,1.0750485989014635,1.0623441569697696,backward_fall
4.855522,-0.8655,0.6132,-0.175,-1.084,0.3437,-0.1009,24.1875,17.7938,-16.5188,,0.015846999999999944,1.0750485989014635,0.9733956338943388,backward_fall
4.876474,-0.1737,0.119,0.9753,-1.084,0.3437,-0.1009,24.1875,17.7938,-16.5188,,0.020952000000000304,0.9977689010988465,0.952862877241204,backward_fall
4.897467,-0.1737,0.119,0.9753,-1.084,0.3437,-0.1009,24.3375,18.6562,-16.1063,,0.020992999999999817,0.9977689010988465,0.9932188819463852,backward_fall
4.898745,-0.1737,0.119,0.9753,-1.084,0.3437,-0.1009,24.3375,18.6562,-16.1063,,0.0012780000000001124,0.9977689010988465,1.08526155408811,backward_fall
4.91671,-0.1737,0.119,0.9753,-1.1488,0.2714,-0.0931,24.3375,18.6562,-16.1063,,0.01796500000000023,0.9977689010988465,1.217986804897424,backward_fall
4.9379,0.253,-0.4004,1.5346,-1.1488,0.2714,-0.0931,24.3375,18.6562,-16.1063,,0.02118999999999982,1.606028119305512,1.3786389999915738,backward_fall
4.958059,0.253,-0.4004,1.5346,-1.1488,0.2714,-0.0931,24.3375,18.6562,-16.1063,,0.020159000000000482,1.606028119305512,1.5530962262497132,backward_fall
4.960734,0.253,-0.4004,1.5346,-1.1488,0.2714,-0.0931,24.5063,19.875,-15.7313,,0.002674999999999983,1.606028119305512,1.726609085754404,backward_fall
4.979446,0.253,-0.4004,1.5346,-0.8952,-0.3095,-0.1052,24.5063,19.875,-15.7313,,0.01871199999999984,1.606028119305512,1.8848125445318542,backward_fall
4.997361,-0.9659,0.2966,2.0192,-0.8952,-0.3095,-0.1052,24.5063,19.875,-15.7313,,0.01791499999999946,2.257897918418811,2.0149129944228283,backward_fall
5.020694,-0.9659,0.2966,2.0192,-0.8952,-0.3095,-0.1052,28.35,4.2375,-9.7125,,0.023333000000000048,2.257897918418811,2.1069103049303743,backward_fall
5.022644,-0.9659,0.2966,2.0192,-0.8952,-0.3095,-0.1052,28.35,4.2375,-9.7125,,0.0019499999999998963,2.257897918418811,2.1545904686926467,backward_fall
5.038914,-0.9659,0.2966,2.0192,-0.6105,-0.1699,-0.0197,28.35,4.2375,-9.7125,,0.01627000000000045,2.257897918418811,2.1559594901950128,backward_fall
5.059003,-0.1837,0.0633,1.845,-0.6105,-0.1699,-0.0197,28.35,4.2375,-9.7125,,0.02008899999999958,1.8552028406619046,2.112944491326129,backward_fall
5.078197,-0.1837,0.0633,1.845,-0.6105,-0.1699,-0.0197,28.35,4.2375,-9.7125,,0.0191940000000006,1.8552028406619046,2.0305090273524633,backward_fall
5.079237,-0.1837,0.0633,1.845,-0.6105,-0.1699,-0.0197,28.2375,5.3625,-9.4875,,0.0010399999999997078,1.8552028406619046,1.9155817210671344,backward_fall
5.099318,-0.1837,0.0633,1.845,-0.5306,0.1216,0.0567,28.2375,5.3625,-9.4875,,0.020081000000000238,1.8552028406619046,1.7761836299516647,backward_fall
5.137765,-0.1837,0.0633,1.845,-0.5306,0.1216,0.0567,28.2938,6.3375,-9.1688,,0.038446999999999676,1.8552028406619046,1.620866168782891,non_fall
5.139913,-0.1837,0.0633,1.845,-0.5306,0.1216,0.0567,28.2938,6.3375,-9.1688,,0.0021480000000000388,1.8552028406619046,1.4582517203675907,non_fall
5.140803,0.1906,-0.4986,0.7306,-0.5306,0.1216,0.0567,28.2938,6.3375,-9.1688,,0.0008900000000000574,0.9048241155053285,1.2963725731692803,non_fall
5.159755,0.1906,-0.4986,0.7306,-0.6766,0.4108,0.1919,28.2938,6.3375,-9.1688,,0.018951999999999636,0.9048241155053285,1.1417409784992094,non_fall
5.198895,0.1906,-0.4986,0.7306,-0.6766,0.4108,0.1919,28.3875,7.0313,-8.4938,,0.03914000000000062,0.9048241155053285,0.9984760053044593,non_fall
5.202812,0.1906,-0.4986,0.7306,-0.6766,0.4108,0.1919,28.3875,7.0313,-8.4938,,0.003916999999999504,0.9048241155053285,0.8680065741059709,non_fall
5.203911,0.24,-0.6788,0.041,-0.6766,0.4108,0.1919,28.3875,7.0313,-8.4938,,0.0010989999999999611,0.7211452280920952,0.7496693191559025,non_fall
5.221048,0.24,-0.6788,0.041,-0.8417,0.0108,0.2477,28.3875,7.0313,-8.4938,,0.017136999999999958,0.7211452280920952,0.6420822464042717,non_fall
5.258053,0.24,-0.6788,0.041,-0.8417,0.0108,0.2477,28.65,7.7063,-8.0063,,0.03700500000000062,0.7211452280920952,0.5448035671144372,non_fall
5.261178,0.24,-0.6788,0.041,-0.8417,0.0108,0.2477,28.65,7.7063,-8.0063,,0.0031249999999998224,0.7211452280920952,0.4596419445003937,non_fall
5.262083,0.077,-0.1606,0.2233,-0.8417,0.0108,0.2477,28.65,7.7063,-8.0063,,0.0009049999999994895,0.28562956779717324,0.39107995326714173,non_fall
5.281319,0.077,-0.1606,0.2233,-0.9939,-0.34,0.2164,28.65,7.7063,-8.0063,,0.019236000000000253,0.28562956779717324,0.34557029134582445,non_fall
5.317291,0.077,-0.1606,0.2233,-0.9939,-0.34,0.2164,28.6875,8.2125,-7.6313,,0.035972000000000115,0.28562956779717324,0.3298657840721201,non_fall
5.321252,0.077,-0.1606,0.2233,-0.9939,-0.34,0.2164,28.6875,8.2125,-7.6313,,0.003961000000000325,0.28562956779717324,0.3488702513859597,non_fall
5.322074,0.3637,-0.216,-0.1446,-0.9939,-0.34,0.2164,28.6875,8.2125,-7.6313,,0.0008219999999994343,0.44703786193117917,0.40361106225102533,non_fall
5.34225,0.3637,-0.216,-0.1446,-1.0426,-0.159,0.1294,28.6875,8.2125,-7.6313,,0.020176000000000194,0.44703786193117917,0.48985736202952873,non_fall
5.37725,0.3637,-0.216,-0.1446,-1.0426,-0.159,0.1294,29.0063,8.6813,-7.2563,,0.03500000000000014,0.44703786193117917,0.597761753873779,non_fall
5.384146,0.3637,-0.216,-0.1446,-1.0426,-0.159,0.1294,29.0063,8.6813,-7.2563,,0.006896000000000235,0.44703786193117917,0.7127651338960084,non_fall
5.403369,0.3637,-0.216,-0.1446,-1.0262,0.385,0.1848,29.0063,8.6813,-7.2563,,0.019222999999999324,0.44703786193117917,0.817836387473489,non_fall
5.405178,1.3902,-0.2729,0.2033,-1.0262,0.385,0.1848,29.0063,8.6813,-7.2563,,0.0018090000000006157,1.4312446820861904,0.8968093520830712,non_fall
5.438867,1.3902,-0.2729,0.2033,-1.0262,0.385,0.1848,29.175,9.0563,-6.9563,,0.03368899999999986,1.4312446820861904,0.938098128594861,non_fall
5.44419,1.3902,-0.2729,0.2033,-1.0262,0.385,0.1848,29.175,9.0563,-6.9563,,0.005322999999999745,1.4312446820861904,0.9376412976597454,non_fall
5.464324,0.5548,-0.0423,-0.0126,-1.0262,0.385,0.1848,29.175,9.0563,-6.9563,,0.02013400000000054,0.5565528636167457,0.8999547599285027,non_fall
5.465377,0.5548,-0.0423,-0.0126,-0.9641,0.6618,0.3744,29.175,9.0563,-6.9563,,0.0010529999999997486,0.5565528636167457,0.8368537945194975,non_fall
5.498319,0.5548,-0.0423,-0.0126,-0.9641,0.6618,0.3744,29.2688,9.1688,-6.3,,0.03294200000000025,0.5565528636167457,0.7643941792632686,non_fall
5.504792,0.5548,-0.0423,-0.0126,-0.9641,0.6618,0.3744,29.2688,9.1688,-6.3,,0.006472999999999729,0.5565528636167457,0.6992432646264539,non_fall
5.52498,0.5548,-0.0423,-0.0126,-0.9282,1.363,0.4578,29.2688,9.1688,-6.3,,0.020188000000000095,0.5565528636167457,0.6556707383715509,non_fall
5.527091,0.126,-0.7801,0.276,-0.9282,1.363,0.4578,29.2688,9.1688,-6.3,,0.002111000000000196,0.8370233031403607,0.643808638170438,non_fall
5.559092,0.126,-0.7801,0.276,-0.9282,1.363,0.4578,29.7,9.3563,-5.1375,,0.03200099999999928,0.8370233031403607,0.6691771203726397,non_fall
5.565684,0.126,-0.7801,0.276,-0.9282,1.363,0.4578,29.7,9.3563,-5.1375,,0.006592000000000375,0.8370233031403607,0.7330257363882081,non_fall
5.586709,0.126,-0.7801,0.276,-1.2392,1.3737,0.5565,29.7,9.3563,-5.1375,,0.02102499999999985,0.8370233031403607,0.832937491055311,non_fall
5.60664,0.3132,-0.9188,-0.0399,-1.2392,1.3737,0.5565,29.7,9.3563,-5.1375,,0.0199309999999997,0.9715347085925443,0.9633542443084903,non_fall
5.616791,0.3132,-0.9188,-0.0399,-1.2392,1.3737,0.5565,30.075,9.2812,-3.5063,,0.010151000000000465,0.9715347085925443,1.1160389111340112,non_fall
5.625939,0.3132,-0.9188,-0.0399,-1.2392,1.3737,0.5565,30.075,9.2812,-3.5063,,0.009147999999999712,0.9715347085925443,1.2807857549941684,non_fall
5.64626,0.3132,-0.9188,-0.0399,-1.4326,0.8748,0.6161,30.075,9.2812,-3.5063,,0.020321000000000033,0.9715347085925443,1.4467740502254234,non_fall
5.667541,-1.3033,-1.6581,0.2065,-1.4326,0.8748,0.6161,30.075,9.2812,-3.5063,,0.021281000000000105,2.119086772645235,1.604743209974397,non_fall
5.677669,-1.3033,-1.6581,0.2065,-1.4326,0.8748,0.6161,35.7938,-2.5875,-2.4188,,0.010127999999999915,2.119086772645235,1.7496581592123785,non_fall
5.687832,-1.3033,-1.6581,0.2065,-1.4326,0.8748,0.6161,35.7938,-2.5875,-2.4188,,0.010163000000000366,2.119086772645235,1.8829699238809072,non_fall
5.708104,-1.3033,-1.6581,0.2065,-1.3663,0.0008,0.6222,35.7938,-2.5875,-2.4188,,0.0202719999999994,2.119086772645235,2.013379345776605,non_fall
5.728581,-1.5741,-1.1598,0.9341,-1.3663,0.0008,0.6222,35.7938,-2.5875,-2.4188,,0.020477000000000523,2.1669032419561334,2.1554191887191108,non_fall
5.736701,-1.5741,-1.1598,0.9341,-1.3663,0.0008,0.6222,36.075,-3.0375,-0.375,,0.008119999999999905,2.1669032419561334,2.325975403434199,non_fall
5.748649,-1.5741,-1.1598,0.9341,-1.3663,0.0008,0.6222,36.075,-3.0375,-0.375,,0.011948000000000292,2.1669032419561334,2.539633427556951,non_fall
5.768715,-1.5741,-1.1598,0.9341,-0.5726,-0.3165,0.6911,36.075,-3.0375,-0.375,,0.020065999999999917,2.1669032419561334,2.8041344622099107,non_fall
5.789988,-1.2959,-1.7591,3.1255,-0.5726,-0.3165,0.6911,36.075,-3.0375,-0.375,,0.021272999999999875,3.8134682206621315,3.117124733596769,non_fall
5.796463,-1.2959,-1.7591,3.1255,-0.5726,-0.3165,0.6911,36.5813,-3.6938,1.5375,,0.0064750000000000085,3.8134682206621315,3.464821705715233,non_fall
5.810104,-1.2959,-1.7591,3.1255,-0.5726,-0.3165,0.6911,36.5813,-3.6938,1.5375,,0.013640999999999792,3.8134682206621315,3.822530985187074,non_fall
5.829819,-1.2959,-1.7591,3.1255,0.0788,1.0647,0.8125,36.5813,-3.6938,1.5375,,0.019714999999999705,3.8134682206621315,4.156633497226303,non_fall
5.8583,-1.2959,-1.7591,3.1255,0.0788,1.0647,0.8125,36.9563,-4.6313,3.8438,,0.0284810000000002,3.8134682206621315,4.427916149159584,non_fall
5.870767,-1.2959,-1.7591,3.1255,0.0788,1.0647,0.8125,36.9563,-4.6313,3.8438,,0.012467000000000006,3.8134682206621315,4.596509844941587,non_fall
5.872053,2.6761,-1.1965,4.2582,0.0788,1.0647,0.8125,36.9563,-4.6313,3.8438,,0.0012860000000003424,5.169660598143751,4.628563201095104,non_fall
5.891045,2.6761,-1.1965,4.2582,-0.2549,0.5947,0.3772,36.9563,-4.6313,3.8438,,0.018991999999999898,5.169660598143751,4.503882005724962,non_fall
5.917741,2.6761,-1.1965,4.2582,-0.2549,0.5947,0.3772,37.2375,-5.925,6.2625,,0.026696000000000275,5.169660598143751,4.222568788833761,non_fall
5.931513,2.6761,-1.1965,4.2582,-0.2549,0.5947,0.3772,37.2375,-5.925,6.2625,,0.013771999999999451,5.169660598143751,3.8080996028298384,non_fall
5.932821,-0.2712,-1.2996,-1.5013,-0.2549,0.5947,0.3772,37.2375,-5.925,6.2625,,0.0013079999999998648,2.0040986228227395,3.304972067225191,non_fall
5.951269,-0.2712,-1.2996,-1.5013,-0.377,1.0711,0.1575,37.2375,-5.925,6.2625,,0.018448000000000242,2.0040986228227395,2.770963468405438,non_fall
5.977624,-0.2712,-1.2996,-1.5013,-0.377,1.0711,0.1575,37.4813,-7.3313,8.7375,,0.026354999999999684,2.0040986228227395,2.2661710667481882,non_fall
5.993149,-0.2712,-1.2996,-1.5013,-0.377,1.0711,0.1575,37.4813,-7.3313,8.7375,,0.015525000000000233,2.0040986228227395,1.8420975162491153,non_fall
5.994707,0.7888,0.893,-0.35,-0.377,1.0711,0.1575,37.4813,-7.3313,8.7375,,0.0015580000000001704,1.2418351098273877,1.5335787087272916,non_fall
6.012469,0.7888,0.893,-0.35,-0.4394,0.6963,-0.1485,37.4813,-7.3313,8.7375,,0.017762000000000278,1.2418351098273877,1.354989344492079,non_fall
6.037211,0.7888,0.893,-0.35,-0.4394,0.6963,-0.1485,37.65,-8.55,11.0813,,0.02474199999999982,1.2418351098273877,1.3008995962007193,non_fall
6.053191,0.7888,0.893,-0.35,-0.4394,0.6963,-0.1485,37.65,-8.55,11.0813,,0.015979999999999883,1.2418351098273877,1.3505641283734804,non_fall
6.073841,0.7888,0.893,-0.35,-0.8204,1.4709,-0.9249,37.65,-8.55,11.0813,,0.020649999999999835,1.2418351098273877,1.4751075790850166,non_fall
6.077653,-0.2277,2.0795,-1.1857,-0.8204,1.4709,-0.9249,37.65,-8.55,11.0813,,0.0038119999999999266,2.404589784141985,1.6458294045456723,non_fall
6.096996,-0.2277,2.0795,-1.1857,-0.8204,1.4709,-0.9249,37.5188,-9.4875,13.275,,0.01934300000000011,2.404589784141985,1.841704523762552,non_fall
6.114718,-0.2277,2.0795,-1.1857,-0.8204,1.4709,-0.9249,37.5188,-9.4875,13.275,,0.017722000000000016,2.404589784141985,2.0541088671148438,non_fall
6.134299,-0.2277,2.0795,-1.1857,-1.3084,0.3999,-1.4623,37.5188,-9.4875,13.275,,0.019581000000000515,2.404589784141985,2.2873261687920285,non_fall
6.135454,0.9261,2.0394,1.1441,-1.3084,0.3999,-1.4623,37.5188,-9.4875,13.275,,0.001154999999999795,2.5151100134984157,2.5545473466593203,non_fall
6.157777,0.9261,2.0394,1.1441,-1.3084,0.3999,-1.4623,37.1625,-9.9188,15.3,,0.022323000000000093,2.5151100134984157,2.8704934033525995,non_fall
6.175194,0.9261,2.0394,1.1441,-1.3084,0.3999,-1.4623,37.1625,-9.9188,15.3,,0.017417000000000016,2.5151100134984157,3.2429266937627506,non_fall
6.196467,0.9261,2.0394,1.1441,-1.4974,-2.0873,-1.6111,37.1625,-9.9188,15.3,,0.021272999999999875,2.5151100134984157,3.665760358558399,non_fall
6.198012,-4.4853,1.9042,0.5542,-1.4974,-2.0873,-1.6111,37.1625,-9.9188,15.3,,0.0015450000000001296,4.90418508724946,4.1160378856618065,non_fall
6.217155,-4.4853,1.9042,0.5542,-1.4974,-2.0873,-1.6111,37.1813,-9.8813,16.6875,,0.019142999999999688,4.90418508724946,4.555780753574229,non_fall
6.237107,-4.4853,1.9042,0.5542,-1.4974,-2.0873,-1.6111,37.1813,-9.8813,16.6875,,0.01995199999999997,4.90418508724946,4.938082693908579,non_fall
6.25591,-4.4853,1.9042,0.5542,-2.1466,-3.3823,-1.2107,37.1813,-9.8813,16.6875,,0.018803000000000125,4.90418508724946,5.215681599830198,non_fall
6.257127,-5.2132,1.1834,1.4013,-2.1466,-3.3823,-1.2107,37.1813,-9.8813,16.6875,,0.0012169999999995795,5.52643931388014,5.350001018184203,non_fall
6.278394,-5.2132,1.1834,1.4013,-2.1466,-3.3823,-1.2107,37.35,-9.4125,17.0625,,0.021266999999999925,5.52643931388014,5.3189634099494345,non_fall
6.297938,-5.2132,1.1834,1.4013,-2.1466,-3.3823,-1.2107,37.35,-9.4125,17.0625,,0.019544000000000672,5.52643931388014,5.122153927346619,non_fall
6.318313,-5.2132,1.1834,1.4013,-2.3774,-1.252,-0.0513,37.35,-9.4125,17.0625,,0.020374999999999588,5.52643931388014,4.782073157000028,non_fall
6.339385,-5.2132,1.1834,1.4013,-2.3774,-1.252,-0.0513,37.5938,-8.5875,16.6125,,0.0210720000000002,5.52643931388014,4.340622759704266,non_fall
6.340308,1.9367,-1.0541,-0.8478,-2.3774,-1.252,-0.0513,37.5938,-8.5875,16.6125,,0.0009230000000002292,2.362350215357579,3.8509553261471328,non_fall
6.357973,1.9367,-1.0541,-0.8478,-2.3774,-1.252,-0.0513,37.5938,-8.5875,16.6125,,0.017665000000000042,2.362350215357579,3.3663514919624133,non_fall
6.3788,1.9367,-1.0541,-0.8478,-2.9297,-0.9374,0.1483,37.5938,-8.5875,16.6125,,0.020826999999999707,2.362350215357579,2.9292232368339253,non_fall
6.399337,1.9367,-1.0541,-0.8478,-2.9297,-0.9374,0.1483,37.8188,-7.7813,15.6188,,0.020537000000000027,2.362350215357579,2.563660035031515,non_fall
6.400197,0.7301,2.2712,0.5192,-2.9297,-0.9374,0.1483,37.8188,-7.7813,15.6188,,0.000860000000000305,2.441508568487934,2.2736561967160696,non_fall
6.419262,0.7301,2.2712,0.5192,-2.9297,-0.9374,0.1483,37.8188,-7.7813,15.6188,,0.019064999999999444,2.441508568487934,2.0469590876117914,non_fall
6.439406,0.7301,2.2712,0.5192,-2.9134,-0.618,0.1526,37.8188,-7.7813,15.6188,,0.020144000000000162,2.441508568487934,1.8625660654604976,non_fall
6.457139,0.7301,2.2712,0.5192,-2.9134,-0.618,0.1526,38.2313,-6.9188,14.2125,,0.017732999999999777,2.441508568487934,1.6990337703322667,non_fall
6.457999,1.1188,0.0256,0.1908,-2.9134,-0.618,0.1526,38.2313,-6.9188,14.2125,,0.000860000000000305,1.1352415778150482,1.5410412756587926,non_fall
6.479658,1.1188,0.0256,0.1908,-2.9134,-0.618,0.1526,38.2313,-6.9188,14.2125,,0.02165899999999965,1.1352415778150482,1.382758162812012,non_fall
6.500046,1.1188,0.0256,0.1908,-2.8229,-0.368,-0.1894,38.2313,-6.9188,14.2125,,0.020388000000000517,1.1352415778150482,1.2279384671761584,non_fall
6.517799,1.1188,0.0256,0.1908,-2.8229,-0.368,-0.1894,38.6438,-6.1688,12.5438,,0.017752999999999908,1.1352415778150482,1.0876340648806941,non_fall
6.540949,1.1188,0.0256,0.1908,-2.8229,-0.368,-0.1894,38.6438,-6.1688,12.5438,,0.023150000000000226,1.1352415778150482,0.9766676288216837,non_fall
6.542534,-0.4821,-0.5531,0.2234,-2.8229,-0.368,-0.1894,38.6438,-6.1688,12.5438,,0.0015849999999995035,0.7669729982209282,0.9097561162161212,non_fall
6.561708,-0.4821,-0.5531,0.2234,-2.4328,-0.1571,0.0457,38.6438,-6.1688,12.5438,,0.01917400000000047,0.7669729982209282,0.8978914476918639,non_fall
6.577044,-0.4821,-0.5531,0.2234,-2.4328,-0.1571,0.0457,39.2812,-5.7563,10.6125,,0.015335999999999572,0.7669729982209282,0.9454728979842362,non_fall
6.603361,1.0875,0.5574,-0.2296,-2.4328,-0.1571,0.0457,39.2812,-5.7563,10.6125,,0.026316999999999702,1.2434094940927545,1.0486253637337328,non_fall
6.605693,1.0875,0.5574,-0.2296,-2.4328,-0.1571,0.0457,39.2812,-5.7563,10.6125,,0.0023320000000000007,1.2434094940927545,1.1949688957710918,non_fall
6.621124,1.0875,0.5574,-0.2296,-2.2492,-0.7936,0.1057,39.2812,-5.7563,10.6125,,0.015431000000000417,1.2434094940927545,1.364859533309544,non_fall
6.636519,1.0875,0.5574,-0.2296,-2.2492,-0.7936,0.1057,40.125,-5.4563,7.9875,,0.015394999999999825,1.2434094940927545,1.533952514703877,non_fall
6.662701,1.0875,0.5574,-0.2296,-2.2492,-0.7936,0.1057,40.125,-5.4563,7.9875,,0.02618200000000037,1.2434094940927545,1.6768735008112061,non_fall
6.664442,0.8556,-0.5254,-2.0152,-2.2492,-0.7936,0.1057,40.125,-5.4563,7.9875,,0.0017409999999999926,2.2514723094011173,1.7716393364350747,non_fall
6.682754,0.8556,-0.5254,-2.0152,-1.6972,-0.0834,0.374,40.125,-5.4563,7.9875,,0.018311999999999884,2.2514723094011173,1.80408785103137,non_fall
6.699097,0.8556,-0.5254,-2.0152,-1.6972,-0.0834,0.374,40.6688,-5.85,6.0375,,0.016342999999999996,2.2514723094011173,1.7711182969607695,non_fall
6.723405,0.8556,-0.5254,-2.0152,-1.6972,-0.0834,0.374,40.6688,-5.85,6.0375,,0.024307999999999552,2.2514723094011173,1.6814614819995137,non_fall
6.725589,0.3186,0.332,-0.7732,-1.6972,-0.0834,0.374,40.6688,-5.85,6.0375,,0.00218400000000063,0.8997600791322096,1.5533251886287323,non_fall
6.743298,0.3186,0.332,-0.7732,-1.0493,0.43,0.0439,40.6688,-5.85,6.0375,,0.017708999999999975,0.8997600791322096,1.4094459190057642,non_fall
6.757309,0.3186,0.332,-0.7732,-1.0493,0.43,0.0439,40.8563,-6.45,5.4188,,0.014010999999999996,0.8997600791322096,1.2712164676168398,non_fall
6.783763,0.3186,0.332,-0.7732,-1.0493,0.43,0.0439,40.8563,-6.45,5.4188,,0.0264540000000002,0.8997600791322096,1.1539793318266185,non_fall
6.804032,0.3186,0.332,-0.7732,-0.7503,0.4272,-0.1009,40.8563,-6.45,5.4188,,0.02026899999999987,0.8997600791322096,1.0650258477871388,non_fall
6.806483,-0.2076,-0.0481,-1.3546,-0.7503,0.4272,-0.1009,40.8563,-6.45,5.4188,,0.002450999999999759,1.3712594685179025,1.0046529132981048,non_fall
6.816821,-0.2076,-0.0481,-1.3546,-0.7503,0.4272,-0.1009,41.0438,-7.0313,5.4375,,0.010337999999999958,1.3712594685179025,0.9694054436974806,non_fall
6.845802,-0.2076,-0.0481,-1.3546,-0.7503,0.4272,-0.1009,41.0438,-7.0313,5.4375,,0.028980999999999923,1.3712594685179025,0.9558560882457009,non_fall
6.865862,-0.2076,-0.0481,-1.3546,-0.2892,0.1549,-0.2671,41.0438,-7.0313,5.4375,,0.020059999999999967,1.3712594685179025,0.9631940914620837,non_fall
6.86928,-0.3866,0.3394,-0.5115,-0.2892,0.1549,-0.2671,41.0438,-7.0313,5.4375,,0.003417999999999921,0.7254544575643601,0.9935257395935679,non_fall
6.877906,-0.3866,0.3394,-0.5115,-0.2892,0.1549,-0.2671,41.2875,-7.275,5.9062,,0.008626000000000467,0.7254544575643601,1.0498732456868807,non_fall
6.905994,-0.3866,0.3394,-0.5115,-0.2892,0.1549,-0.2671,41.2875,-7.275,5.9062,,0.028087999999999447,0.7254544575643601,1.132925234048259,non_fall
6.92674,-0.3866,0.3394,-0.5115,0.1282,-0.0041,-0.2337,41.2875,-7.275,5.9062,,0.02074599999999993,0.7254544575643601,1.2381496871257687,non_fall
6.928288,-1.5271,0.6836,0.0991,0.1282,-0.0041,-0.2337,41.2875,-7.275,5.9062,,0.001548000000000549,1.6760561386779382,1.354673789176389,non_fall
6.937095,-1.5271,0.6836,0.0991,0.1282,-0.0041,-0.2337,41.4,-7.2375,6.375,,0.00880700000000001,1.6760561386779382,1.4664986082003162,non_fall
6.966912,-1.5271,0.6836,0.0991,0.1282,-0.0041,-0.2337,41.4,-7.2375,6.375,,0.02981699999999954,1.6760561386779382,1.5556116579506538,non_fall
6.988229,-1.5271,0.6836,0.0991,0.4012,-0.1249,-0.1674,41.4,-7.2375,6.375,,0.02131699999999981,1.6760561386779382,1.6059050257279728,non_fall
6.998393,-1.5271,0.6836,0.0991,0.4012,-0.1249,-0.1674,41.5312,-7.2563,6.8625,,0.010164000000000506,1.6760561386779382,1.6067370202998328,non_fall
7.008077,0.5127,0.8163,-1.1324,0.4012,-0.1249,-0.1674,41.5312,-7.2563,6.8625,,0.009684000000000026,1.487123646506907,1.5553265852236924,non_fall
7.028116,0.5127,0.8163,-1.1324,0.4012,-0.1249,-0.1674,41.5312,-7.2563,6.8625,,0.020038999999999696,1.487123646506907,1.4576104000282857,non_fall
7.046708,0.5127,0.8163,-1.1324,0.7332,-0.3972,0.0216,41.5312,-7.2563,6.8625,,0.018591999999999942,1.487123646506907,1.3275149110320787,non_fall
7.056584,0.5127,0.8163,-1.1324,0.7332,-0.3972,0.0216,41.5688,-6.9938,6.825,,0.009876000000000218,1.487123646506907,1.1847825769536582,non_fall
7.067672,0.0038,0.3016,-0.6775,0.7332,-0.3972,0.0216,41.5688,-6.9938,6.825,,0.011087999999999987,0.7416085557758891,1.0516454437449991,non_fall
7.088234,0.0038,0.3016,-0.6775,0.7332,-0.3972,0.0216,41.5688,-6.9938,6.825,,0.02056199999999997,0.7416085557758891,0.948868027420924,non_fall
7.107984,0.0038,0.3016,-0.6775,0.7995,-0.5946,-0.1929,41.5688,-6.9938,6.825,,0.019750000000000156,0.7416085557758891,0.8919455441658912,non_fall
7.116465,0.0038,0.3016,-0.6775,0.7995,-0.5946,-0.1929,41.4188,-6.9,6.9375,,0.008480999999999739,0.7416085557758891,0.8883307141324015,non_fall
7.128152,-0.1835,0.8168,-0.7126,0.7995,-0.5946,-0.1929,41.4188,-6.9,6.9375,,0.011687000000000225,1.099378574468322,0.9363132952120724,non_fall
7.148682,-0.1835,0.8168,-0.7126,0.7995,-0.5946,-0.1929,41.4188,-6.9,6.9375,,0.020529999999999937,1.099378574468322,1.0256882786375845,non_fall
7.168803,-0.1835,0.8168,-0.7126,0.8389,0.1101,0.3613,41.4188,-6.9,6.9375,,0.02012099999999961,1.099378574468322,1.139888542123274,non_fall
7.176595,-0.1835,0.8168,-0.7126,0.8389,0.1101,0.3613,41.3625,-6.5438,6.8813,,0.007792000000000243,1.099378574468322,1.2590233976866343,non_fall
7.189531,1.0342,0.4613,-1.0539,0.8389,0.1101,0.3613,41.3625,-6.5438,6.8813,,0.012935999999999837,1.5469558946524624,1.3632486045822996,non_fall
7.210074,1.0342,0.4613,-1.0539,0.8389,0.1101,0.3613,41.3625,-6.5438,6.8813,,0.020542999999999978,1.5469558946524624,1.4359464861171056,non_fall
7.229759,1.0342,0.4613,-1.0539,0.9049,0.2759,0.3989,41.3625,-6.5438,6.8813,,0.019684999999999953,1.5469558946524624,1.4662198291197213,non_fall
7.238799,1.0342,0.4613,-1.0539,0.9049,0.2759,0.3989,41.2688,-6.4875,6.6375,,0.009040000000000603,1.5469558946524624,1.4502607484341858,non_fall
7.271933,1.0342,0.4613,-1.0539,0.9049,0.2759,0.3989,41.2688,-6.4875,6.6375,,0.03313399999999955,1.5469558946524624,1.3913457776667777,non_fall
7.273637,0.2808,0.6266,-0.7576,0.9049,0.2759,0.3989,41.2688,-6.4875,6.6375,,0.0017040000000001498,1.0224646497556773,1.298524686994672,non_fall
7.29197,0.2808,0.6266,-0.7576,1.0488,0.2752,0.4,41.2688,-6.4875,6.6375,,0.018333000000000155,1.0224646497556773,1.1844096830903417,non_fall
7.296679,0.2808,0.6266,-0.7576,1.0488,0.2752,0.4,41.25,-6.5625,6.375,,0.004709000000000074,1.0224646497556773,1.0626971567752674,non_fall
7.333859,0.2808,0.6266,-0.7576,1.0488,0.2752,0.4,41.25,-6.5625,6.375,,0.03718000000000021,1.0224646497556773,0.9460453444369419,non_fall
7.335904,0.2084,0.4654,-0.59,1.0488,0.2752,0.4,41.25,-6.5625,6.375,,0.0020449999999998525,0.779825442006094,0.8446846456063789,non_fall
7.352695,0.2084,0.4654,-0.59,1.0413,0.4924,0.6261,41.25,-6.5625,6.375,,0.016790999999999556,0.779825442006094,0.7658113056162821,non_fall
7.357064,0.2084,0.4654,-0.59,1.0413,0.4924,0.6261,41.175,-7.05,6.1688,,0.004369000000000511,0.779825442006094,0.7135856281623225,non_fall
7.393436,0.2084,0.4654,-0.59,1.0413,0.4924,0.6261,41.175,-7.05,6.1688,,0.03637200000000007,0.779825442006094,0.6894661526509339,non_fall
7.395106,0.0369,0.127,-0.7056,1.0413,0.4924,0.6261,41.175,-7.05,6.1688,,0.0016699999999998383,0.7178871568707716,0.6926175288444888,non_fall
7.415047,0.0369,0.127,-0.7056,1.0438,0.3882,0.0393,41.175,-7.05,6.1688,,0.01994100000000021,0.7178871568707716,0.7202097667247758,non_fall
7.416844,0.0369,0.127,-0.7056,1.0438,0.3882,0.0393,41.2125,-7.65,6.1313,,0.0017969999999998265,0.7178871568707716,0.7675715661791802,non_fall
7.455341,0.0369,0.127,-0.7056,1.0438,0.3882,0.0393,41.2125,-7.65,6.1313,,0.03849699999999956,0.7178871568707716,0.8283194175406647,non_fall
7.475254,0.0369,0.127,-0.7056,1.0534,0.151,-0.392,41.2125,-7.65,6.1313,,0.019912999999999847,0.7178871568707716,0.8946744673288007,non_fall
7.477167,-0.9975,0.3477,-0.3367,1.0534,0.151,-0.392,41.2125,-7.65,6.1313,,0.0019130000000000535,1.1087237843574926,0.9581378555749738,non_fall
7.479225,-0.9975,0.3477,-0.3367,1.0534,0.151,-0.392,41.1,-8.1188,6.0188,,0.0020579999999998932,1.1087237843574926,1.0105198567054325,non_fall
7.51683,-0.9975,0.3477,-0.3367,1.0534,0.151,-0.392,41.1,-8.1188,6.0188,,0.03760500000000011,1.1087237843574926,1.045096130415695,non_fall
7.535318,-0.9975,0.3477,-0.3367,0.9181,0.1216,-0.3651,41.1,-8.1188,6.0188,,0.018488000000000504,1.1087237843574926,1.0575439588076687,non_fall
7.538881,-0.8604,0.4417,-0.1432,0.9181,0.1216,-0.3651,41.1,-8.1188,6.0188,,0.003562999999999761,0.977697954380595,1.04638140339114,non_fall
7.540522,-0.8604,0.4417,-0.1432,0.9181,0.1216,-0.3651,41.1375,-8.4563,6.2438,,0.0016410000000002256,0.977697954380595,1.0128354852479615,non_fall
7.577428,-0.8604,0.4417,-0.1432,0.9181,0.1216,-0.3651,41.1375,-8.4563,6.2438,,0.036906000000000105,0.977697954380595,0.9602611548761165,non_fall
7.597937,-0.8604,0.4417,-0.1432,0.7438,0.2682,-0.2162,41.1375,-8.4563,6.2438,,0.020508999999999666,0.977697954380595,0.8933255827218542,non_fall
7.600128,-0.2754,0.5563,-0.2133,0.7438,0.2682,-0.2162,41.1375,-8.4563,6.2438,,0.002190999999999832,0.6563625065464967,0.8171695219059595,non_fall
7.601689,-0.2754,0.5563,-0.2133,0.7438,0.2682,-0.2162,41.1562,-8.775,6.9188,,0.0015610000000005897,0.6563625065464967,0.7367238142839857,non_fall
7.640244,-0.2754,0.5563,-0.2133,0.7438,0.2682,-0.2162,41.1562,-8.775,6.9188,,0.03855499999999967,0.6563625065464967,0.6563206695730228,non_fall
7.658106,-0.2754,0.5563,-0.2133,0.7438,0.2682,-0.2162,40.875,-9.0,7.725,,0.017862000000000045,0.6563625065464967,0.5796545009271478,non_fall
7.660482,-0.2754,0.5563,-0.2133,0.5812,0.479,-0.0846,40.875,-9.0,7.725,,0.0023759999999999337,0.6563625065464967,0.5099983117690771,non_fall
7.662026,0.1935,0.3436,-0.0471,0.5812,0.479,-0.0846,40.875,-9.0,7.725,,0.0015439999999999898,0.39714181346214356,0.4504509947244125,non_fall
7.70054,0.1935,0.3436,-0.0471,0.5812,0.479,-0.0846,40.875,-9.0,7.725,,0.03851400000000016,0.39714181346214356,0.4039858085495484,non_fall
7.721393,0.1935,0.3436,-0.0471,0.5812,0.479,-0.0846,40.8563,-8.7375,8.5312,,0.02085299999999979,0.39714181346214356,0.3731964791035353,non_fall
7.724392,0.1935,0.3436,-0.0471,0.5167,0.3373,-0.1574,40.8563,-8.7375,8.5312,,0.002998999999999974,0.39714181346214356,0.3597958267041102,non_fall
7.738163,-0.1029,0.0154,0.2926,0.5167,0.3373,-0.1574,40.8563,-8.7375,8.5312,,0.0137710000000002,0.31054843422564543,0.3640255702135272,non_fall
7.760428,-0.1029,0.0154,0.2926,0.5167,0.3373,-0.1574,40.8563,-8.7375,8.5312,,0.02226499999999998,0.31054843422564543,0.3841819607086275,non_fall
7.7799,-0.1029,0.0154,0.2926,0.5167,0.3373,-0.1574,40.7812,-8.3625,9.2438,,0.01947199999999949,0.31054843422564543,0.4164758024340444,non_fall
7.781634,-0.1029,0.0154,0.2926,0.3842,0.1676,-0.206,40.7812,-8.3625,9.2438,,0.0017340000000007905,0.31054843422564543,0.4554077478120564,non_fall
7.799603,-0.6092,0.2405,0.0799,0.3842,0.1676,-0.206,40.7812,-8.3625,9.2438,,0.0179689999999999,0.6598097453054175,0.49470505313220114,non_fall
7.822341,-0.6092,0.2405,0.0799,0.3842,0.1676,-0.206,40.7812,-8.3625,9.2438,,0.02273799999999948,0.6598097453054175,0.5286390348841886,non_fall
7.840234,-0.6092,0.2405,0.0799,0.3842,0.1676,-0.206,40.5375,-7.7625,9.7125,,0.017892999999999937,0.6598097453054175,0.5533215153444185,non_fall
7.843834,-0.6092,0.2405,0.0799,0.1342,-0.0996,-0.1621,40.5375,-7.7625,9.7125,,0.0036000000000004917,0.6598097453054175,0.5675100941377914,non_fall
7.860454,0.0293,0.2343,0.4402,0.1342,-0.0996,-0.1621,40.5375,-7.7625,9.7125,,0.016619999999999635,0.4995307998512204,0.5726111065523384,non_fall
7.882694,0.0293,0.2343,0.4402,0.1342,-0.0996,-0.1621,40.5375,-7.7625,9.7125,,0.022240000000000038,0.4995307998512204,0.5718825217366087,non_fall
7.897954,0.0293,0.2343,0.4402,0.1342,-0.0996,-0.1621,40.2375,-7.05,9.9,,0.015260000000000495,0.4995307998512204,0.5691420080055438,non_fall
7.900126,0.0293,0.2343,0.4402,-0.0493,-0.176,-0.1346,40.2375,-7.05,9.9,,0.0021719999999998407,0.4995307998512204,0.5674400212319236,non_fall
7.944544,0.0293,0.2343,0.4402,-0.0493,-0.176,-0.1346,40.2375,-7.05,9.9,,0.0444179999999994,0.4995307998512204,0.5681230668519192,non_fall
7.948022,-0.1969,0.1903,0.5404,-0.0493,-0.176,-0.1346,40.2375,-7.05,9.9,,0.003478000000000314,0.6058183391083501,0.570537497184422,non_fall
7.958274,-0.1969,0.1903,0.5404,-0.0493,-0.176,-0.1346,40.1438,-6.3563,10.3688,,0.010252000000000372,0.6058183391083501,0.57239609857724,non_fall
7.962278,-0.1969,0.1903,0.5404,0.0522,0.1442,0.0037,40.1438,-6.3563,10.3688,,0.004004000000000119,0.6058183391083501,0.5706282372198523,non_fall
8.006872,-0.1969,0.1903,0.5404,0.0522,0.1442,0.0037,40.1438,-6.3563,10.3688,,0.044593999999999134,0.6058183391083501,0.5624173114789413,non_fall
8.008517,0.4843,-0.198,-0.1543,0.0522,0.1442,0.0037,40.1438,-6.3563,10.3688,,0.0016449999999998965,0.5454896699296881,0.5461189990024167,non_fall
8.019645,0.4843,-0.198,-0.1543,0.0522,0.1442,0.0037,39.8813,-6.0,10.8375,,0.011128000000001137,0.5454896699296881,0.5218270093671377,non_fall
8.021474,0.4843,-0.198,-0.1543,0.2273,0.0381,-0.1229,39.8813,-6.0,10.8375,,0.0018289999999989703,0.5454896699296881,0.49146116664422185,non_fall
8.065178,0.4843,-0.198,-0.1543,0.2273,0.0381,-0.1229,39.8813,-6.0,10.8375,,0.043703999999999965,0.5454896699296881,0.4583599159218038,non_fall
8.068353,0.0001,-0.2976,-0.1098,0.2273,0.0381,-0.1229,39.8813,-6.0,10.8375,,0.003175000000000594,0.3172094103269952,0.4264636102482081,non_fall
8.077943,0.0001,-0.2976,-0.1098,0.2273,0.0381,-0.1229,39.8438,-5.4563,11.1,,0.009589999999999321,0.3172094103269952,0.39928742553922586,non_fall
8.083965,0.0001,-0.2976,-0.1098,0.0597,0.0377,-0.0249,39.8438,-5.4563,11.1,,0.00602199999999975,0.3172094103269952,0.37897928279271165,non_fall
8.126267,0.0001,-0.2976,-0.1098,0.0597,0.0377,-0.0249,39.8438,-5.4563,11.1,,0.04230200000000117,0.3172094103269952,0.36577088064614816,non_fall
8.128026,-0.0112,0.2988,0.237,0.0597,0.0377,-0.0249,39.8438,-5.4563,11.1,,0.001758999999999844,0.38154407346989416,0.3580160182783173,non_fall
8.138898,-0.0112,0.2988,0.237,0.0597,0.0377,-0.0249,39.9,-4.8938,11.2313,,0.010871999999999105,0.38154407346989416,0.3528111167060016,non_fall
8.145866,-0.0112,0.2988,0.237,-0.0776,0.0814,-0.0246,39.9,-4.8938,11.2313,,0.006968000000000529,0.38154407346989416,0.3470015848900139,non_fall
8.185755,-0.0112,0.2988,0.237,-0.0776,0.0814,-0.0246,39.9,-4.8938,11.2313,,0.03988900000000051,0.38154407346989416,0.3382675155575658,non_fall
8.197747,-0.0112,0.2988,0.237,-0.0776,0.0814,-0.0246,39.975,-4.5938,11.2313,,0.011991999999999337,0.38154407346989416,0.325973533223934,non_fall
8.205635,-0.0112,0.2988,0.237,-0.0326,-0.0791,-0.047,39.975,-4.5938,11.2313,,0.007887999999999451,0.38154407346989416,0.3115418275793443,non_fall
8.207138,0.1237,-0.08,0.214,-0.0326,-0.0791,-0.047,39.975,-4.5938,11.2313,,0.0015030000000013644,0.25980317550022364,0.2982356995358807,non_fall
8.247921,0.1237,-0.08,0.214,-0.0326,-0.0791,-0.047,39.975,-4.5938,11.2313,,0.04078299999999935,0.25980317550022364,0.29039721997228507,non_fall
8.25704,0.1237,-0.08,0.214,-0.0326,-0.0791,-0.047,39.8625,-4.3688,11.1938,,0.0091190000000001,0.25980317550022364,0.29233092746092326,non_fall
8.266026,0.1237,-0.08,0.214,0.0703,0.2358,0.0542,39.8625,-4.3688,11.1938,,0.00898600000000016,0.25980317550022364,0.30711672038779125,non_fall
8.267289,-0.3421,-0.0657,0.0826,0.0703,0.2358,0.0542,39.8625,-4.3688,11.1938,,0.001262999999999792,0.358010698164175,0.33563783610427733,non_fall
8.308214,-0.3421,-0.0657,0.0826,0.0703,0.2358,0.0542,39.8625,-4.3688,11.1938,,0.040924999999999656,0.358010698164175,0.3760388639150973,non_fall
8.317585,-0.3421,-0.0657,0.0826,0.0703,0.2358,0.0542,39.8625,-4.0312,11.2313,,0.009370999999999796,0.358010698164175,0.423730589257764,non_fall
8.326298,-0.3421,-0.0657,0.0826,0.1768,-0.0116,-0.1499,39.8625,-4.0312,11.2313,,0.008713000000000193,0.358010698164175,0.4719686076034293,non_fall
8.328825,0.5136,-0.1674,-0.2818,0.1768,-0.0116,-0.1499,39.8625,-4.0312,11.2313,,0.002527000000000612,0.6092774080827221,0.5129453830563688,non_fall
8.369443,0.5136,-0.1674,-0.2818,0.1768,-0.0116,-0.1499,39.8625,-4.0312,11.2313,,0.040618000000000265,0.6092774080827221,0.5392230136992046,non_fall
8.377516,0.5136,-0.1674,-0.2818,0.1768,-0.0116,-0.1499,39.9188,-3.7125,11.4563,,0.008072999999999553,0.6092774080827221,0.5452098153627125,non_fall
8.38788,0.5136,-0.1674,-0.2818,0.1095,0.0988,-0.0796,39.9188,-3.7125,11.4563,,0.010363999999999152,0.6092774080827221,0.5283239091018278,non_fall
8.407866,-0.3866,0.0294,0.1513,0.1095,0.0988,-0.0796,39.9188,-3.7125,11.4563,,0.01998600000000117,0.41619179472930506,0.4895558804809568,non_fall
8.428222,-0.3866,0.0294,0.1513,0.1095,0.0988,-0.0796,39.9188,-3.7125,11.4563,,0.020355999999999597,0.41619179472930506,0.43331606718884785,non_fall
8.438855,-0.3866,0.0294,0.1513,0.1095,0.0988,-0.0796,39.9563,-3.4875,11.3813,,0.010633000000000337,0.41619179472930506,0.3666358757971034,non_fall
8.448336,-0.3866,0.0294,0.1513,0.1595,0.1378,-0.1248,39.9563,-3.4875,11.3813,,0.009480999999999185,0.41619179472930506,0.29790706339834533,non_fall
8.469215,-0.052,0.0694,0.0111,0.1595,0.1378,-0.1248,39.9563,-3.4875,11.3813,,0.020879000000000758,0.0874275128320599,0.2353880825250892,non_fall
8.489068,-0.052,0.0694,0.0111,0.1595,0.1378,-0.1248,39.9563,-3.4875,11.3813,,0.019852999999999454,0.0874275128320599,0.1857410572833437,non_fall
8.498004,-0.052,0.0694,0.0111,0.1595,0.1378,-0.1248,39.9188,-3.2813,11.3625,,0.008936000000000277,0.0874275128320599,0.15290402466703737,non_fall
8.509785,-0.052,0.0694,0.0111,0.1595,0.1389,-0.0579,39.9188,-3.2813,11.3625,,0.01178100000000093,0.0874275128320599,0.13758041783199396,non_fall
8.529327,0.1348,0.0323,-0.1606,0.1595,0.1389,-0.0579,39.9188,-3.2813,11.3625,,0.019541999999999504,0.2121478022511664,0.1374776679521215,non_fall
8.549606,0.1348,0.0323,-0.1606,0.1595,0.1389,-0.0579,39.9188,-3.2813,11.3625,,0.02027900000000038,0.2121478022511664,0.1481935189149178,non_fall
8.558497,0.1348,0.0323,-0.1606,0.1595,0.1389,-0.0579,39.825,-3.1875,11.3625,,0.008890999999998428,0.2121478022511664,0.16445195585013025,non_fall
8.570203,0.1348,0.0323,-0.1606,0.0633,0.1332,-0.0455,39.825,-3.1875,11.3625,,0.011706000000000216,0.2121478022511664,0.1813229384419387,non_fall
8.590148,0.0556,0.089,0.1656,0.0633,0.1332,-0.0455,39.825,-3.1875,11.3625,,0.01994499999999988,0.1960502996682229,0.19513083642061424,non_fall
8.611762,0.0556,0.089,0.1656,0.0633,0.1332,-0.0455,39.825,-3.1875,11.3625,,0.021614000000001354,0.1960502996682229,0.2039057416036851,non_fall
8.617076,0.0556,0.089,0.1656,0.0633,0.1332,-0.0455,39.6938,-2.9625,11.4,,0.005314000000000263,0.1960502996682229,0.2073819373845147,non_fall
8.634703,0.0556,0.089,0.1656,-0.0035,0.1928,-0.0366,39.6938,-2.9625,11.4,,0.01762699999999917,0.1960502996682229,0.20664908571545604,non_fall
