
time,ax,ay,az,wx,wy,wz,Bx,By,Bz,
0.075050,0.0000,0.0000,0.0000,0.0000,0.0000,0.0000,-35.7750,10.8750,26.4750,
0.089799,0.0000,0.0000,0.0000,0.0000,0.0000,0.0000,-35.7750,10.8750,26.4750,
0.109153,0.0000,0.0000,0.0000,-0.0145,-0.0105,-0.0099,-35.7750,10.8750,26.4750,
0.138731,0.0000,0.0000,0.0000,-0.0145,-0.0105,-0.0099,-35.7750,10.8750,26.4750,
0.142589,0.0046,0.0594,-0.0071,-0.0145,-0.0105,-0.0099,-35.7750,10.8750,26.4750,
0.160002,0.0046,0.0594,-0.0071,-0.0145,-0.0105,-0.0099,-35.6250,11.3250,26.8500,
0.176645,0.0046,0.0594,-0.0071,-0.0037,-0.0104,-0.0107,-35.6250,11.3250,26.8500,
0.186853,0.0046,0.0594,-0.0071,-0.0037,-0.0104,-0.0107,-35.6250,11.3250,26.8500,
0.190275,0.0357,0.0634,-0.0874,-0.0037,-0.0104,-0.0107,-35.6250,11.3250,26.8500,
0.213509,0.0357,0.0634,-0.0874,-0.0037,-0.0104,-0.0107,-35.7750,11.8500,27.4500,
0.236216,0.0357,0.0634,-0.0874,-0.0037,-0.0104,-0.0107,-35.7750,11.8500,27.4500,
0.239226,-0.0691,0.0158,-0.1007,-0.0037,-0.0104,-0.0107,-35.7750,11.8500,27.4500,
0.253254,-0.0691,0.0158,-0.1007,-0.0365,-0.0218,-0.0284,-35.7750,11.8500,27.4500,
0.281204,-0.0691,0.0158,-0.1007,-0.0365,-0.0218,-0.0284,-35.7000,11.6250,27.8250,
0.287002,-0.0691,0.0158,-0.1007,-0.0365,-0.0218,-0.0284,-35.7000,11.6250,27.8250,
0.290869,-0.0967,0.0881,0.0229,-0.0365,-0.0218,-0.0284,-35.7000,11.6250,27.8250,
0.313311,-0.0967,0.0881,0.0229,0.0133,-0.0220,-0.0567,-35.7000,11.6250,27.8250,
0.335756,-0.0967,0.0881,0.0229,0.0133,-0.0220,-0.0567,-35.7000,11.6250,27.8250,
0.337998,-0.0356,-0.0904,0.1048,0.0133,-0.0220,-0.0567,-35.7000,11.6250,27.8250,
0.351403,-0.0356,-0.0904,0.1048,0.0133,-0.0220,-0.0567,-35.3250,10.6500,27.7500,
0.383077,-0.0356,-0.0904,0.1048,-0.0050,-0.0397,-0.0287,-35.3250,10.6500,27.7500,
0.385301,-0.0356,-0.0904,0.1048,-0.0050,-0.0397,-0.0287,-35.3250,10.6500,27.7500,
0.386770,0.0174,0.1277,-0.0730,-0.0050,-0.0397,-0.0287,-35.3250,10.6500,27.7500,
0.420705,0.0174,0.1277,-0.0730,-0.0050,-0.0397,-0.0287,-35.7000,11.1750,27.9750,
0.432100,0.0174,0.1277,-0.0730,-0.0050,-0.0397,-0.0287,-35.7000,11.1750,27.9750,
0.434268,0.0098,0.1957,0.0191,-0.0050,-0.0397,-0.0287,-35.7000,11.1750,27.9750,
0.451530,0.0098,0.1957,0.0191,-0.0199,-0.0249,-0.0234,-35.7000,11.1750,27.9750,
0.480237,0.0098,0.1957,0.0191,-0.0199,-0.0249,-0.0234,-35.7000,11.1750,27.9750,
0.483174,-0.0373,0.0204,0.0315,-0.0199,-0.0249,-0.0234,-35.7000,11.1750,27.9750,
0.490419,-0.0373,0.0204,0.0315,-0.0199,-0.0249,-0.0234,-35.1000,11.2500,28.0500,
0.519135,-0.0373,0.0204,0.0315,-0.0182,0.0027,-0.0127,-35.1000,11.2500,28.0500,
0.532493,-0.0373,0.0204,0.0315,-0.0182,0.0027,-0.0127,-35.1000,11.2500,28.0500,
0.534651,-0.0121,0.0201,0.0100,-0.0182,0.0027,-0.0127,-35.1000,11.2500,28.0500,
0.562084,-0.0121,0.0201,0.0100,-0.0182,0.0027,-0.0127,-35.4000,11.3250,27.7500,
0.588252,-0.0121,0.0201,0.0100,-0.0182,0.0027,-0.0127,-35.4000,11.3250,27.7500,
0.593971,-0.0313,0.0777,0.0189,-0.0182,0.0027,-0.0127,-35.4000,11.3250,27.7500,
0.600378,-0.0313,0.0777,0.0189,-0.0191,0.0060,-0.0034,-35.4000,11.3250,27.7500,
0.627270,-0.0313,0.0777,0.0189,-0.0191,0.0060,-0.0034,-35.4000,11.3250,27.7500,
0.631970,-0.0115,0.0310,0.0400,-0.0191,0.0060,-0.0034,-35.4000,11.3250,27.7500,
0.633912,-0.0115,0.0310,0.0400,-0.0191,0.0060,-0.0034,-35.0250,11.3250,27.5250,
0.660709,-0.0115,0.0310,0.0400,-0.0182,0.0035,-0.0002,-35.0250,11.3250,27.5250,
0.680752,-0.0115,0.0310,0.0400,-0.0182,0.0035,-0.0002,-35.0250,11.3250,27.5250,
0.684802,-0.0149,0.0839,0.0315,-0.0182,0.0035,-0.0002,-35.0250,11.3250,27.5250,
0.703389,-0.0149,0.0839,0.0315,-0.0182,0.0035,-0.0002,-35.4750,11.2500,27.4500,
0.730350,-0.0149,0.0839,0.0315,-0.0182,0.0035,-0.0002,-35.4750,11.2500,27.4500,
0.734341,-0.0053,0.0535,0.0429,-0.0182,0.0035,-0.0002,-35.4750,11.2500,27.4500,
0.736968,-0.0053,0.0535,0.0429,-0.0249,0.0026,0.0038,-35.4750,11.2500,27.4500,
0.765390,-0.0053,0.0535,0.0429,-0.0249,0.0026,0.0038,-35.5500,10.4250,27.7500,
0.781027,-0.0053,0.0535,0.0429,-0.0249,0.0026,0.0038,-35.5500,10.4250,27.7500,
0.783672,-0.0057,0.0419,0.0856,-0.0249,0.0026,0.0038,-35.5500,10.4250,27.7500,
0.798040,-0.0057,0.0419,0.0856,-0.0223,-0.0093,0.0032,-35.5500,10.4250,27.7500,
0.827518,-0.0057,0.0419,0.0856,-0.0223,-0.0093,0.0032,-35.5500,10.4250,27.7500,
0.831959,0.0307,0.0396,0.1029,-0.0223,-0.0093,0.0032,-35.5500,10.4250,27.7500,
0.834016,0.0307,0.0396,0.1029,-0.0223,-0.0093,0.0032,-35.4000,11.0250,28.1250,
0.865735,0.0307,0.0396,0.1029,0.0073,-0.0276,0.0069,-35.4000,11.0250,28.1250,
0.879953,0.0307,0.0396,0.1029,0.0073,-0.0276,0.0069,-35.4000,11.0250,28.1250,
0.881404,0.0091,0.0576,0.0866,0.0073,-0.0276,0.0069,-35.4000,11.0250,28.1250,
0.905487,0.0091,0.0576,0.0866,0.0073,-0.0276,0.0069,-35.4750,10.4250,28.0500,
0.932083,0.0091,0.0576,0.0866,0.0073,-0.0276,0.0069,-35.4750,10.4250,28.0500,
0.936719,0.0251,0.0883,0.1779,0.0073,-0.0276,0.0069,-35.4750,10.4250,28.0500,
0.939635,0.0251,0.0883,0.1779,0.0136,-0.0396,0.0125,-35.4750,10.4250,28.0500,
0.975687,0.0251,0.0883,0.1779,0.0136,-0.0396,0.0125,-35.5500,10.9500,27.6750,
0.983100,0.0251,0.0883,0.1779,0.0136,-0.0396,0.0125,-35.5500,10.9500,27.6750,
0.985436,0.0341,0.0618,0.0655,0.0136,-0.0396,0.0125,-35.5500,10.9500,27.6750,
1.009301,0.0341,0.0618,0.0655,0.0188,-0.0308,0.0299,-35.5500,10.9500,27.6750,
1.030089,0.0341,0.0618,0.0655,0.0188,-0.0308,0.0299,-35.5500,10.9500,27.6750,
1.033103,0.0702,0.0886,-0.1950,0.0188,-0.0308,0.0299,-35.5500,10.9500,27.6750,
1.042840,0.0702,0.0886,-0.1950,0.0188,-0.0308,0.0299,-35.1000,11.5500,27.4500,
1.077369,0.0702,0.0886,-0.1950,-0.0669,-0.0429,0.0367,-35.1000,11.5500,27.4500,
1.080506,0.0702,0.0886,-0.1950,-0.0669,-0.0429,0.0367,-35.1000,11.5500,27.4500,
1.082152,0.0539,0.0306,0.1613,-0.0669,-0.0429,0.0367,-35.1000,11.5500,27.4500,
1.112148,0.0539,0.0306,0.1613,-0.0669,-0.0429,0.0367,-35.0250,11.0250,28.1250,
1.125430,0.0539,0.0306,0.1613,-0.0669,-0.0429,0.0367,-35.0250,11.0250,28.1250,
1.127267,0.0431,0.1156,-0.0259,-0.0669,-0.0429,0.0367,-35.0250,11.0250,28.1250,
1.147094,0.0431,0.1156,-0.0259,-0.0354,-0.0585,0.0417,-35.0250,11.0250,28.1250,
1.181510,0.0431,0.1156,-0.0259,-0.0354,-0.0585,0.0417,-35.0250,11.0250,28.1250,
1.185287,0.0265,0.0416,-0.1210,-0.0354,-0.0585,0.0417,-35.0250,11.0250,28.1250,
1.187188,0.0265,0.0416,-0.1210,-0.0354,-0.0585,0.0417,-34.5000,11.0250,28.3500,
1.218121,0.0265,0.0416,-0.1210,-0.0996,-0.0956,0.0316,-34.5000,11.0250,28.3500,
1.230784,0.0265,0.0416,-0.1210,-0.0996,-0.0956,0.0316,-34.5000,11.0250,28.3500,
1.233418,0.0433,-0.0037,-0.0347,-0.0996,-0.0956,0.0316,-34.5000,11.0250,28.3500,
1.252856,0.0433,-0.0037,-0.0347,-0.0996,-0.0956,0.0316,-34.6500,11.0250,28.1250,
1.276919,0.0433,-0.0037,-0.0347,-0.0996,-0.0956,0.0316,-34.6500,11.0250,28.1250,
1.279344,-0.0836,0.0408,0.0961,-0.0996,-0.0956,0.0316,-34.6500,11.0250,28.1250,
1.288257,-0.0836,0.0408,0.0961,-0.1275,-0.1504,0.0261,-34.6500,11.0250,28.1250,
1.321956,-0.0836,0.0408,0.0961,-0.1275,-0.1504,0.0261,-34.1250,10.7250,28.9500,
1.325585,-0.0836,0.0408,0.0961,-0.1275,-0.1504,0.0261,-34.1250,10.7250,28.9500,
1.327125,-0.1375,0.0173,0.0800,-0.1275,-0.1504,0.0261,-34.1250,10.7250,28.9500,
1.354499,-0.1375,0.0173,0.0800,-0.1605,-0.2353,0.0652,-34.1250,10.7250,28.9500,
1.374810,-0.1375,0.0173,0.0800,-0.1605,-0.2353,0.0652,-34.1250,10.7250,28.9500,
1.377019,-0.3417,-0.0011,-0.0002,-0.1605,-0.2353,0.0652,-34.1250,10.7250,28.9500,
1.389757,-0.3417,-0.0011,-0.0002,-0.1605,-0.2353,0.0652,-33.9000,10.4250,28.9500,
1.424295,-0.3417,-0.0011,-0.0002,-0.2448,-0.4216,0.1118,-33.9000,10.4250,28.9500,
1.428088,-0.3417,-0.0011,-0.0002,-0.2448,-0.4216,0.1118,-33.9000,10.4250,28.9500,
1.429802,-0.6819,0.1919,-0.0841,-0.2448,-0.4216,0.1118,-33.9000,10.4250,28.9500,
1.460532,-0.6819,0.1919,-0.0841,-0.2448,-0.4216,0.1118,-33.0750,10.5750,29.8500,
1.472783,-0.6819,0.1919,-0.0841,-0.2448,-0.4216,0.1118,-33.0750,10.5750,29.8500,
1.475275,-0.9087,0.3450,-0.2176,-0.2448,-0.4216,0.1118,-33.0750,10.5750,29.8500,
1.492666,-0.9087,0.3450,-0.2176,-0.3288,-0.5658,0.1802,-33.0750,10.5750,29.8500,
1.522087,-0.9087,0.3450,-0.2176,-0.3288,-0.5658,0.1802,-33.0750,10.5750,29.8500,
1.525202,-0.9744,0.6340,-0.2620,-0.3288,-0.5658,0.1802,-33.0750,10.5750,29.8500,
1.530332,-0.9744,0.6340,-0.2620,-0.3288,-0.5658,0.1802,-31.2000,10.2750,31.7250,
1.567037,-0.9744,0.6340,-0.2620,-0.4306,-0.6869,0.2176,-31.2000,10.2750,31.7250,
1.577194,-0.9744,0.6340,-0.2620,-0.4306,-0.6869,0.2176,-31.2000,10.2750,31.7250,
1.580307,-1.1559,0.2197,0.1577,-0.4306,-0.6869,0.2176,-31.2000,10.2750,31.7250,
1.600474,-1.1559,0.2197,0.1577,-0.4306,-0.6869,0.2176,-29.8500,9.2250,32.7750,
1.624257,-1.1559,0.2197,0.1577,-0.4306,-0.6869,0.2176,-29.8500,9.2250,32.7750,
1.626128,-1.0653,-0.1725,0.1670,-0.4306,-0.6869,0.2176,-29.8500,9.2250,32.7750,
1.634536,-1.0653,-0.1725,0.1670,-0.2511,-0.7008,0.1805,-29.8500,9.2250,32.7750,
1.669967,-1.0653,-0.1725,0.1670,-0.2511,-0.7008,0.1805,-28.5000,9.0750,34.0500,
1.673627,-1.0653,-0.1725,0.1670,-0.2511,-0.7008,0.1805,-28.5000,9.0750,34.0500,
1.675463,-0.8627,-0.1702,0.1643,-0.2511,-0.7008,0.1805,-28.5000,9.0750,34.0500,
1.702554,-0.8627,-0.1702,0.1643,-0.1292,-0.7191,0.0386,-28.5000,9.0750,34.0500,
1.721879,-0.8627,-0.1702,0.1643,-0.1292,-0.7191,0.0386,-28.5000,9.0750,34.0500,
1.724736,-0.8029,0.2683,0.3027,-0.1292,-0.7191,0.0386,-28.5000,9.0750,34.0500,
1.740347,-0.8029,0.2683,0.3027,-0.1292,-0.7191,0.0386,-26.5500,8.5500,35.9250,
1.770997,-0.8029,0.2683,0.3027,-0.1292,-0.7191,0.0386,-26.5500,8.5500,35.9250,
1.774076,-0.9974,0.2449,0.2875,-0.1292,-0.7191,0.0386,-26.5500,8.5500,35.9250,
1.776087,-0.9974,0.2449,0.2875,-0.0318,-0.7046,-0.0901,-26.5500,8.5500,35.9250,
1.810479,-0.9974,0.2449,0.2875,-0.0318,-0.7046,-0.0901,-24.7500,8.8500,37.2750,
1.825420,-0.9974,0.2449,0.2875,-0.0318,-0.7046,-0.0901,-24.7500,8.8500,37.2750,
1.827952,-1.2360,0.2219,0.1526,-0.0318,-0.7046,-0.0901,-24.7500,8.8500,37.2750,
1.843793,-1.2360,0.2219,0.1526,0.0460,-0.6852,-0.1727,-24.7500,8.8500,37.2750,
1.873944,-1.2360,0.2219,0.1526,0.0460,-0.6852,-0.1727,-24.7500,8.8500,37.2750,
1.877778,-1.1939,0.3655,0.2147,0.0460,-0.6852,-0.1727,-24.7500,8.8500,37.2750,
1.887641,-1.1939,0.3655,0.2147,0.0460,-0.6852,-0.1727,-23.6250,8.7750,38.4750,
1.912827,-1.1939,0.3655,0.2147,0.0996,-0.6959,-0.2469,-23.6250,8.7750,38.4750,
1.922363,-1.1939,0.3655,0.2147,0.0996,-0.6959,-0.2469,-23.6250,8.7750,38.4750,
1.924545,-1.1692,0.1947,0.2547,0.0996,-0.6959,-0.2469,-23.6250,8.7750,38.4750,
1.950439,-1.1692,0.1947,0.2547,0.0996,-0.6959,-0.2469,-22.2000,9.1500,38.8500,
1.972833,-1.1692,0.1947,0.2547,0.0996,-0.6959,-0.2469,-22.2000,9.1500,38.8500,
1.976023,-0.9643,-0.3425,0.0443,0.0996,-0.6959,-0.2469,-22.2000,9.1500,38.8500,
1.988307,-0.9643,-0.3425,0.0443,0.1451,-0.8166,-0.2873,-22.2000,9.1500,38.8500,
2.020880,-0.9643,-0.3425,0.0443,0.1451,-0.8166,-0.2873,-22.2000,9.1500,38.8500,
2.023362,-0.3512,-0.1416,0.2139,0.1451,-0.8166,-0.2873,-22.2000,9.1500,38.8500,
2.025102,-0.3512,-0.1416,0.2139,0.1451,-0.8166,-0.2873,-19.7250,9.1500,40.2750,
2.050253,-0.3512,-0.1416,0.2139,0.2246,-0.9789,-0.3179,-19.7250,9.1500,40.2750,
2.069357,-0.3512,-0.1416,0.2139,0.2246,-0.9789,-0.3179,-19.7250,9.1500,40.2750,
2.071731,0.3522,0.1927,-0.2945,0.2246,-0.9789,-0.3179,-19.7250,9.1500,40.2750,
2.090280,0.3522,0.1927,-0.2945,0.2246,-0.9789,-0.3179,-17.2500,9.5250,41.2500,
2.118193,0.3522,0.1927,-0.2945,0.1823,-1.0349,-0.3106,-17.2500,9.5250,41.2500,
2.121539,0.3522,0.1927,-0.2945,0.1823,-1.0349,-0.3106,-17.2500,9.5250,41.2500,
2.123239,0.5782,0.1322,-0.5200,0.1823,-1.0349,-0.3106,-17.2500,9.5250,41.2500,
2.160615,0.5782,0.1322,-0.5200,0.1823,-1.0349,-0.3106,-15.0000,9.9750,41.8500,
2.172132,0.5782,0.1322,-0.5200,0.1823,-1.0349,-0.3106,-15.0000,9.9750,41.8500,
2.175924,0.4881,-0.1583,-0.4176,0.1823,-1.0349,-0.3106,-15.0000,9.9750,41.8500,
2.186448,0.4881,-0.1583,-0.4176,0.1952,-1.0913,-0.3230,-15.0000,9.9750,41.8500,
2.221704,0.4881,-0.1583,-0.4176,0.1952,-1.0913,-0.3230,-15.0000,9.9750,41.8500,
2.225075,0.3688,-0.3055,-0.5251,0.1952,-1.0913,-0.3230,-15.0000,9.9750,41.8500,
2.230190,0.3688,-0.3055,-0.5251,0.1952,-1.0913,-0.3230,-12.1500,9.8250,42.4500,
2.260328,0.3688,-0.3055,-0.5251,0.1800,-1.0562,-0.1246,-12.1500,9.8250,42.4500,
2.270481,0.3688,-0.3055,-0.5251,0.1800,-1.0562,-0.1246,-12.1500,9.8250,42.4500,
2.273043,0.9732,-0.2018,-0.5835,0.1800,-1.0562,-0.1246,-12.1500,9.8250,42.4500,
2.296314,0.9732,-0.2018,-0.5835,0.1800,-1.0562,-0.1246,-9.5250,10.4250,43.3500,
2.318575,0.9732,-0.2018,-0.5835,0.1800,-1.0562,-0.1246,-9.5250,10.4250,43.3500,
2.321799,1.0325,0.0588,-0.4341,0.1800,-1.0562,-0.1246,-9.5250,10.4250,43.3500,
2.331942,1.0325,0.0588,-0.4341,0.1122,-0.9490,-0.0747,-9.5250,10.4250,43.3500,
2.363532,1.0325,0.0588,-0.4341,0.1122,-0.9490,-0.0747,-6.6750,11.5500,43.9500,
2.368994,1.0325,0.0588,-0.4341,0.1122,-0.9490,-0.0747,-6.6750,11.5500,43.9500,
2.369897,0.6132,0.0598,-0.1355,0.1122,-0.9490,-0.0747,-6.6750,11.5500,43.9500,
2.398334,0.6132,0.0598,-0.1355,0.0754,-0.8567,-0.0874,-6.6750,11.5500,43.9500,
2.420893,0.6132,0.0598,-0.1355,0.0754,-0.8567,-0.0874,-6.6750,11.5500,43.9500,
2.422264,0.3215,0.1548,0.1976,0.0754,-0.8567,-0.0874,-6.6750,11.5500,43.9500,
2.433535,0.3215,0.1548,0.1976,0.0754,-0.8567,-0.0874,-3.9000,11.6250,43.5750,
2.471189,0.3215,0.1548,0.1976,0.0504,-0.8370,-0.0328,-3.9000,11.6250,43.5750,
2.472765,0.3215,0.1548,0.1976,0.0504,-0.8370,-0.0328,-3.9000,11.6250,43.5750,
2.473710,0.0818,0.3216,0.1641,0.0504,-0.8370,-0.0328,-3.9000,11.6250,43.5750,
2.506408,0.0818,0.3216,0.1641,0.0504,-0.8370,-0.0328,-2.8500,12.3750,43.3500,
2.520694,0.0818,0.3216,0.1641,0.0504,-0.8370,-0.0328,-2.8500,12.3750,43.3500,
2.523335,0.0385,0.3746,0.5834,0.0504,-0.8370,-0.0328,-2.8500,12.3750,43.3500,
2.538478,0.0385,0.3746,0.5834,-0.0748,-0.8711,0.0333,-2.8500,12.3750,43.3500,
2.568436,0.0385,0.3746,0.5834,-0.0748,-0.8711,0.0333,-2.8500,12.3750,43.3500,
2.574899,0.3225,0.4002,0.6584,-0.0748,-0.8711,0.0333,-2.8500,12.3750,43.3500,
2.578129,0.3225,0.4002,0.6584,-0.0748,-0.8711,0.0333,-0.9750,11.5500,42.8250,
2.607090,0.3225,0.4002,0.6584,-0.1283,-0.9024,0.0764,-0.9750,11.5500,42.8250,
2.618199,0.3225,0.4002,0.6584,-0.1283,-0.9024,0.0764,-0.9750,11.5500,42.8250,
2.620908,0.3515,0.5419,0.6736,-0.1283,-0.9024,0.0764,-0.9750,11.5500,42.8250,
2.642222,0.3515,0.5419,0.6736,-0.1283,-0.9024,0.0764,1.8000,12.2250,42.1500,
2.666323,0.3515,0.5419,0.6736,-0.1283,-0.9024,0.0764,1.8000,12.2250,42.1500,
2.669246,0.1167,0.4196,0.9447,-0.1283,-0.9024,0.0764,1.8000,12.2250,42.1500,
2.675232,0.1167,0.4196,0.9447,-0.1611,-0.9430,0.1694,1.8000,12.2250,42.1500,
2.715321,0.1167,0.4196,0.9447,-0.1611,-0.9430,0.1694,5.5500,11.8500,42.3750,
2.719700,0.1167,0.4196,0.9447,-0.1611,-0.9430,0.1694,5.5500,11.8500,42.3750,
2.721281,0.1436,0.5022,0.6164,-0.1611,-0.9430,0.1694,5.5500,11.8500,42.3750,
2.749016,0.1436,0.5022,0.6164,-0.1663,-1.0899,0.3080,5.5500,11.8500,42.3750,
2.770907,0.1436,0.5022,0.6164,-0.1663,-1.0899,0.3080,5.5500,11.8500,42.3750,
2.774796,0.1418,0.4069,0.3512,-0.1663,-1.0899,0.3080,5.5500,11.8500,42.3750,
2.783479,0.1418,0.4069,0.3512,-0.1663,-1.0899,0.3080,8.3250,10.9500,41.5500,
2.817608,0.1418,0.4069,0.3512,-0.1225,-1.2054,0.4772,8.3250,10.9500,41.5500,
2.820889,0.1418,0.4069,0.3512,-0.1225,-1.2054,0.4772,8.3250,10.9500,41.5500,
2.822377,0.4082,-0.5262,-0.0291,-0.1225,-1.2054,0.4772,8.3250,10.9500,41.5500,
2.852301,0.4082,-0.5262,-0.0291,-0.1225,-1.2054,0.4772,11.8500,10.7250,40.6500,
2.867083,0.4082,-0.5262,-0.0291,-0.1225,-1.2054,0.4772,11.8500,10.7250,40.6500,
2.870823,0.5501,-1.7215,0.0871,-0.1225,-1.2054,0.4772,11.8500,10.7250,40.6500,
2.885531,0.5501,-1.7215,0.0871,-0.0562,-1.1424,0.5157,11.8500,10.7250,40.6500,
2.915870,0.5501,-1.7215,0.0871,-0.0562,-1.1424,0.5157,11.8500,10.7250,40.6500,
2.918014,0.1284,-1.3764,-0.7745,-0.0562,-1.1424,0.5157,11.8500,10.7250,40.6500,
2.920304,0.1284,-1.3764,-0.7745,-0.0562,-1.1424,0.5157,14.4750,10.3500,39.4500,
2.954534,0.1284,-1.3764,-0.7745,-0.0658,-1.1450,0.3903,14.4750,10.3500,39.4500,
2.967420,0.1284,-1.3764,-0.7745,-0.0658,-1.1450,0.3903,14.4750,10.3500,39.4500,
2.970271,-0.4607,0.2110,-0.4630,-0.0658,-1.1450,0.3903,14.4750,10.3500,39.4500,
2.989802,-0.4607,0.2110,-0.4630,-0.0658,-1.1450,0.3903,18.0750,9.1500,37.5750,
3.014354,-0.4607,0.2110,-0.4630,-0.0658,-1.1450,0.3903,18.0750,9.1500,37.5750,
3.017900,-0.8627,0.7353,-0.3603,-0.0658,-1.1450,0.3903,18.0750,9.1500,37.5750,
3.022606,-0.8627,0.7353,-0.3603,0.0513,-1.0870,0.2401,18.0750,9.1500,37.5750,
3.061166,-0.8627,0.7353,-0.3603,0.0513,-1.0870,0.2401,21.3750,8.9250,36.1500,
3.069757,-0.8627,0.7353,-0.3603,0.0513,-1.0870,0.2401,21.3750,8.9250,36.1500,
3.072629,-0.8845,0.0752,-0.4791,0.0513,-1.0870,0.2401,21.3750,8.9250,36.1500,
3.091560,-0.8845,0.0752,-0.4791,0.0693,-0.8407,0.1927,21.3750,8.9250,36.1500,
3.116366,-0.8845,0.0752,-0.4791,0.0693,-0.8407,0.1927,21.3750,8.9250,36.1500,
3.118151,-0.6050,0.1206,-0.1620,0.0693,-0.8407,0.1927,21.3750,8.9250,36.1500,
3.131354,-0.6050,0.1206,-0.1620,0.0693,-0.8407,0.1927,22.8750,9.2250,34.6500,
3.166412,-0.6050,0.1206,-0.1620,0.0693,-0.8407,0.1927,22.8750,9.2250,34.6500,
3.168252,-0.8352,1.1375,-0.1050,0.0693,-0.8407,0.1927,22.8750,9.2250,34.6500,
3.169778,-0.8352,1.1375,-0.1050,0.0079,-0.7093,0.1055,22.8750,9.2250,34.6500,
3.200663,-0.8352,1.1375,-0.1050,0.0079,-0.7093,0.1055,25.5750,8.8500,32.8500,
3.214056,-0.8352,1.1375,-0.1050,0.0079,-0.7093,0.1055,25.5750,8.8500,32.8500,
3.215626,-1.0953,0.8444,0.0913,0.0079,-0.7093,0.1055,25.5750,8.8500,32.8500,
3.236377,-1.0953,0.8444,0.0913,-0.1074,-0.5997,0.0825,25.5750,8.8500,32.8500,
3.264073,-1.0953,0.8444,0.0913,-0.1074,-0.5997,0.0825,25.5750,8.8500,32.8500,
3.266808,-0.8277,0.1735,0.1427,-0.1074,-0.5997,0.0825,25.5750,8.8500,32.8500,
3.270164,-0.8277,0.1735,0.1427,-0.1074,-0.5997,0.0825,27.0000,8.8500,31.9500,
3.302196,-0.8277,0.1735,0.1427,-0.1072,-0.5217,-0.0089,27.0000,8.8500,31.9500,
3.313628,-0.8277,0.1735,0.1427,-0.1072,-0.5217,-0.0089,27.0000,8.8500,31.9500,
3.316819,-0.7125,0.0260,0.3276,-0.1072,-0.5217,-0.0089,27.0000,8.8500,31.9500,
3.340204,-0.7125,0.0260,0.3276,-0.1072,-0.5217,-0.0089,26.9250,8.5500,30.3750,
3.366206,-0.7125,0.0260,0.3276,-0.1072,-0.5217,-0.0089,26.9250,8.5500,30.3750,
3.370183,-0.6488,0.3005,0.3786,-0.1072,-0.5217,-0.0089,26.9250,8.5500,30.3750,
3.375273,-0.6488,0.3005,0.3786,-0.1066,-0.3375,-0.0959,26.9250,8.5500,30.3750,
3.411584,-0.6488,0.3005,0.3786,-0.1066,-0.3375,-0.0959,28.2000,8.8500,29.2500,
3.417273,-0.6488,0.3005,0.3786,-0.1066,-0.3375,-0.0959,28.2000,8.8500,29.2500,
3.419063,-0.9840,0.4362,0.4176,-0.1066,-0.3375,-0.0959,28.2000,8.8500,29.2500,
3.443384,-0.9840,0.4362,0.4176,-0.1022,-0.2167,-0.1698,28.2000,8.8500,29.2500,
3.465827,-0.9840,0.4362,0.4176,-0.1022,-0.2167,-0.1698,28.2000,8.8500,29.2500,
3.470438,-1.3939,0.1505,0.6341,-0.1022,-0.2167,-0.1698,28.2000,8.8500,29.2500,
3.481908,-1.3939,0.1505,0.6341,-0.1022,-0.2167,-0.1698,28.1250,9.5250,29.0250,
3.512966,-1.3939,0.1505,0.6341,-0.1022,-0.2167,-0.1698,28.1250,9.5250,29.0250,
3.516417,-1.2937,0.0549,0.5024,-0.1022,-0.2167,-0.1698,28.1250,9.5250,29.0250,
3.518306,-1.2937,0.0549,0.5024,-0.0075,-0.1855,-0.1880,28.1250,9.5250,29.0250,
3.550798,-1.2937,0.0549,0.5024,-0.0075,-0.1855,-0.1880,28.1250,9.4500,28.3500,
3.561319,-1.2937,0.0549,0.5024,-0.0075,-0.1855,-0.1880,28.1250,9.4500,28.3500,
3.564595,-1.2764,-0.0589,0.5428,-0.0075,-0.1855,-0.1880,28.1250,9.4500,28.3500,
3.581619,-1.2764,-0.0589,0.5428,0.0976,-0.1640,-0.2036,28.1250,9.4500,28.3500,
3.609543,-1.2764,-0.0589,0.5428,0.0976,-0.1640,-0.2036,28.1250,9.4500,28.3500,
3.612771,-1.1044,-1.1354,0.5484,0.0976,-0.1640,-0.2036,28.1250,9.4500,28.3500,
3.620611,-1.1044,-1.1354,0.5484,0.0976,-0.1640,-0.2036,28.3500,11.2500,27.9750,
3.650094,-1.1044,-1.1354,0.5484,0.2862,-0.1936,-0.1953,28.3500,11.2500,27.9750,
3.658603,-1.1044,-1.1354,0.5484,0.2862,-0.1936,-0.1953,28.3500,11.2500,27.9750,
3.660893,-1.2346,-1.5718,0.1255,0.2862,-0.1936,-0.1953,28.3500,11.2500,27.9750,
3.690305,-1.2346,-1.5718,0.1255,0.2862,-0.1936,-0.1953,29.1750,12.0750,27.1500,
3.707318,-1.2346,-1.5718,0.1255,0.2862,-0.1936,-0.1953,29.1750,12.0750,27.1500,
3.710396,-0.3333,0.0751,-0.1429,0.2862,-0.1936,-0.1953,29.1750,12.0750,27.1500,
3.720645,-0.3333,0.0751,-0.1429,0.2758,-0.3163,-0.1179,29.1750,12.0750,27.1500,
3.761609,-0.3333,0.0751,-0.1429,0.2758,-0.3163,-0.1179,29.5500,11.8500,25.6500,
3.766389,-0.3333,0.0751,-0.1429,0.2758,-0.3163,-0.1179,29.5500,11.8500,25.6500,
3.769011,0.2554,0.5132,-0.9427,0.2758,-0.3163,-0.1179,29.5500,11.8500,25.6500,
3.790583,0.2554,0.5132,-0.9427,0.1014,-0.2802,-0.0826,29.5500,11.8500,25.6500,
3.810497,0.2554,0.5132,-0.9427,0.1014,-0.2802,-0.0826,29.5500,11.8500,25.6500,
3.814346,1.0975,0.2036,-1.4891,0.1014,-0.2802,-0.0826,29.5500,11.8500,25.6500,
3.834538,1.0975,0.2036,-1.4891,0.1014,-0.2802,-0.0826,29.8500,13.9500,25.6500,
3.859133,1.0975,0.2036,-1.4891,-0.2217,-0.2292,-0.0880,29.8500,13.9500,25.6500,
3.863390,1.0975,0.2036,-1.4891,-0.2217,-0.2292,-0.0880,29.8500,13.9500,25.6500,
3.866030,1.2429,0.7453,-1.2992,-0.2217,-0.2292,-0.0880,29.8500,13.9500,25.6500,
3.900662,1.2429,0.7453,-1.2992,-0.2217,-0.2292,-0.0880,31.3500,14.1750,24.9750,
3.908247,1.2429,0.7453,-1.2992,-0.2217,-0.2292,-0.0880,31.3500,14.1750,24.9750,
3.910506,1.1810,0.3727,-0.6456,-0.2217,-0.2292,-0.0880,31.3500,14.1750,24.9750,
3.927310,1.1810,0.3727,-0.6456,-0.3702,-0.1567,-0.1271,31.3500,14.1750,24.9750,
3.957221,1.1810,0.3727,-0.6456,-0.3702,-0.1567,-0.1271,31.3500,14.1750,24.9750,
3.960713,1.4959,-0.0584,-0.1625,-0.3702,-0.1567,-0.1271,31.3500,14.1750,24.9750,
3.963592,1.4959,-0.0584,-0.1625,-0.3702,-0.1567,-0.1271,31.4250,13.1250,24.4500,
3.996507,1.4959,-0.0584,-0.1625,-0.2483,-0.0987,-0.1626,31.4250,13.1250,24.4500,
4.006428,1.4959,-0.0584,-0.1625,-0.2483,-0.0987,-0.1626,31.4250,13.1250,24.4500,
4.010813,1.0051,0.0874,0.1219,-0.2483,-0.0987,-0.1626,31.4250,13.1250,24.4500,
4.035533,1.0051,0.0874,0.1219,-0.2483,-0.0987,-0.1626,30.7500,13.8750,24.3750,
4.060049,1.0051,0.0874,0.1219,-0.2483,-0.0987,-0.1626,30.7500,13.8750,24.3750,
4.064827,0.3284,0.2608,0.2039,-0.2483,-0.0987,-0.1626,30.7500,13.8750,24.3750,
4.069369,0.3284,0.2608,0.2039,-0.1272,-0.0722,-0.0861,30.7500,13.8750,24.3750,
4.105468,0.3284,0.2608,0.2039,-0.1272,-0.0722,-0.0861,31.6500,13.9500,23.2500,
4.112205,0.3284,0.2608,0.2039,-0.1272,-0.0722,-0.0861,31.6500,13.9500,23.2500,
4.115138,0.3487,0.5681,0.1242,-0.1272,-0.0722,-0.0861,31.6500,13.9500,23.2500,
4.138277,0.3487,0.5681,0.1242,-0.0895,0.0018,0.0559,31.6500,13.9500,23.2500,
4.158308,0.3487,0.5681,0.1242,-0.0895,0.0018,0.0559,31.6500,13.9500,23.2500,
4.161700,0.7437,0.3939,0.1633,-0.0895,0.0018,0.0559,31.6500,13.9500,23.2500,
4.172433,0.7437,0.3939,0.1633,-0.0895,0.0018,0.0559,31.2000,14.1750,24.1500,
4.206831,0.7437,0.3939,0.1633,-0.0834,0.0777,0.0698,31.2000,14.1750,24.1500,
4.210412,0.7437,0.3939,0.1633,-0.0834,0.0777,0.0698,31.2000,14.1750,24.1500,
4.212748,1.0762,0.3434,0.5329,-0.0834,0.0777,0.0698,31.2000,14.1750,24.1500,
4.241986,1.0762,0.3434,0.5329,-0.0834,0.0777,0.0698,30.9750,14.2500,24.6750,
4.256566,1.0762,0.3434,0.5329,-0.0834,0.0777,0.0698,30.9750,14.2500,24.6750,
4.259658,0.7171,0.5026,0.4805,-0.0834,0.0777,0.0698,30.9750,14.2500,24.6750,
4.275645,0.7171,0.5026,0.4805,0.0440,0.0651,0.0994,30.9750,14.2500,24.6750,
4.305339,0.7171,0.5026,0.4805,0.0440,0.0651,0.0994,30.9750,14.2500,24.6750,
4.311038,0.3546,-0.0535,0.4870,0.0440,0.0651,0.0994,30.9750,14.2500,24.6750,
4.315015,0.3546,-0.0535,0.4870,0.0440,0.0651,0.0994,30.8250,14.2500,23.9250,
4.343731,0.3546,-0.0535,0.4870,0.0571,0.0586,0.2054,30.8250,14.2500,23.9250,
4.353628,0.3546,-0.0535,0.4870,0.0571,0.0586,0.2054,30.8250,14.2500,23.9250,
4.356884,0.3075,-0.2402,0.6151,0.0571,0.0586,0.2054,30.8250,14.2500,23.9250,
4.381710,0.3075,-0.2402,0.6151,0.0571,0.0586,0.2054,31.5000,13.3500,24.7500,
4.402583,0.3075,-0.2402,0.6151,0.0571,0.0586,0.2054,31.5000,13.3500,24.7500,
4.406869,0.2117,-0.0935,0.7888,0.0571,0.0586,0.2054,31.5000,13.3500,24.7500,
4.413026,0.2117,-0.0935,0.7888,0.1788,0.0102,0.3097,31.5000,13.3500,24.7500,
4.451227,0.2117,-0.0935,0.7888,0.1788,0.0102,0.3097,31.1250,13.6500,24.5250,
4.455108,0.2117,-0.0935,0.7888,0.1788,0.0102,0.3097,31.1250,13.6500,24.5250,
4.456805,0.4619,-1.4770,0.4612,0.1788,0.0102,0.3097,31.1250,13.6500,24.5250,
4.486009,0.4619,-1.4770,0.4612,0.3491,0.0785,0.3883,31.1250,13.6500,24.5250,
4.504969,0.4619,-1.4770,0.4612,0.3491,0.0785,0.3883,31.1250,13.6500,24.5250,
4.508116,1.0114,-1.8713,-0.4392,0.3491,0.0785,0.3883,31.1250,13.6500,24.5250,
4.520430,1.0114,-1.8713,-0.4392,0.3491,0.0785,0.3883,31.8000,13.0500,24.4500,
4.553361,1.0114,-1.8713,-0.4392,0.2289,0.1341,0.2558,31.8000,13.0500,24.4500,
4.556536,1.0114,-1.8713,-0.4392,0.2289,0.1341,0.2558,31.8000,13.0500,24.4500,
4.557917,0.7774,0.5499,-0.7506,0.2289,0.1341,0.2558,31.8000,13.0500,24.4500,
4.590123,0.7774,0.5499,-0.7506,0.2289,0.1341,0.2558,32.0250,13.4250,23.3250,
4.602181,0.7774,0.5499,-0.7506,0.2289,0.1341,0.2558,32.0250,13.4250,23.3250,
4.604481,0.1767,2.0707,-1.3122,0.2289,0.1341,0.2558,32.0250,13.4250,23.3250,
4.621818,0.1767,2.0707,-1.3122,0.1403,0.2062,0.0951,32.0250,13.4250,23.3250,
4.651449,0.1767,2.0707,-1.3122,0.1403,0.2062,0.0951,32.0250,13.4250,23.3250,
4.653625,-0.5105,0.1271,-1.4314,0.1403,0.2062,0.0951,32.0250,13.4250,23.3250,
4.659736,-0.5105,0.1271,-1.4314,0.1403,0.2062,0.0951,31.0500,13.4250,24.4500,
4.690287,-0.5105,0.1271,-1.4314,-0.0696,0.4012,0.0567,31.0500,13.4250,24.4500,
4.702165,-0.5105,0.1271,-1.4314,-0.0696,0.4012,0.0567,31.0500,13.4250,24.4500,
4.704345,-0.3227,-1.1807,-0.8257,-0.0696,0.4012,0.0567,31.0500,13.4250,24.4500,
4.730851,-0.3227,-1.1807,-0.8257,-0.0696,0.4012,0.0567,30.4500,13.3500,25.7250,
4.750613,-0.3227,-1.1807,-0.8257,-0.0696,0.4012,0.0567,30.4500,13.3500,25.7250,
4.752679,0.5236,-0.2792,0.0057,-0.0696,0.4012,0.0567,30.4500,13.3500,25.7250,
4.760328,0.5236,-0.2792,0.0057,0.0082,0.6189,-0.0279,30.4500,13.3500,25.7250,
4.801954,0.5236,-0.2792,0.0057,0.0082,0.6189,-0.0279,30.5250,13.8750,27.1500,
4.807789,0.5236,-0.2792,0.0057,0.0082,0.6189,-0.0279,30.5250,13.8750,27.1500,
4.811164,0.1790,0.7888,-0.1418,0.0082,0.6189,-0.0279,30.5250,13.8750,27.1500,
4.839676,0.1790,0.7888,-0.1418,0.0768,0.8308,-0.0854,30.5250,13.8750,27.1500,
4.858178,0.1790,0.7888,-0.1418,0.0768,0.8308,-0.0854,30.5250,13.8750,27.1500,
4.862152,-0.5281,0.4587,-0.3810,0.0768,0.8308,-0.0854,30.5250,13.8750,27.1500,
4.873862,-0.5281,0.4587,-0.3810,0.0768,0.8308,-0.0854,28.8000,14.2500,29.3250,
4.901718,-0.5281,0.4587,-0.3810,-0.0244,0.9806,-0.0889,28.8000,14.2500,29.3250,
4.906290,-0.5281,0.4587,-0.3810,-0.0244,0.9806,-0.0889,28.8000,14.2500,29.3250,
4.908967,-0.4749,-0.2184,-0.4200,-0.0244,0.9806,-0.0889,28.8000,14.2500,29.3250,
4.940736,-0.4749,-0.2184,-0.4200,-0.0244,0.9806,-0.0889,26.9250,13.9500,31.6500,
4.950067,-0.4749,-0.2184,-0.4200,-0.0244,0.9806,-0.0889,26.9250,13.9500,31.6500,
4.952762,-0.4755,0.1931,-0.4985,-0.0244,0.9806,-0.0889,26.9250,13.9500,31.6500,
4.968875,-0.4755,0.1931,-0.4985,-0.0617,1.0542,-0.1591,26.9250,13.9500,31.6500,
4.998928,-0.4755,0.1931,-0.4985,-0.0617,1.0542,-0.1591,26.9250,13.9500,31.6500,
5.003550,-0.3236,0.1476,0.0370,-0.0617,1.0542,-0.1591,26.9250,13.9500,31.6500,
5.006459,-0.3236,0.1476,0.0370,-0.0617,1.0542,-0.1591,25.0500,14.0250,33.5250,
5.037735,-0.3236,0.1476,0.0370,-0.0483,1.1692,-0.2036,25.0500,14.0250,33.5250,
5.047429,-0.3236,0.1476,0.0370,-0.0483,1.1692,-0.2036,25.0500,14.0250,33.5250,
5.050321,-0.3677,0.1308,0.1237,-0.0483,1.1692,-0.2036,25.0500,14.0250,33.5250,
5.073008,-0.3677,0.1308,0.1237,-0.0483,1.1692,-0.2036,22.1250,14.6250,35.2500,
5.096818,-0.3677,0.1308,0.1237,-0.0483,1.1692,-0.2036,22.1250,14.6250,35.2500,
5.099760,-0.7622,0.2544,0.0382,-0.0483,1.1692,-0.2036,22.1250,14.6250,35.2500,
5.106220,-0.7622,0.2544,0.0382,0.0263,1.1902,-0.3150,22.1250,14.6250,35.2500,
5.142677,-0.7622,0.2544,0.0382,0.0263,1.1902,-0.3150,19.0500,14.8500,38.2500,
5.149298,-0.7622,0.2544,0.0382,0.0263,1.1902,-0.3150,19.0500,14.8500,38.2500,
5.152893,-0.7144,0.3015,-0.0142,0.0263,1.1902,-0.3150,19.0500,14.8500,38.2500,
5.179758,-0.7144,0.3015,-0.0142,0.0302,1.0064,-0.4343,19.0500,14.8500,38.2500,
5.199550,-0.7144,0.3015,-0.0142,0.0302,1.0064,-0.4343,19.0500,14.8500,38.2500,
5.203766,-0.9236,-0.2709,0.0848,0.0302,1.0064,-0.4343,19.0500,14.8500,38.2500,
5.219120,-0.9236,-0.2709,0.0848,0.0302,1.0064,-0.4343,16.4250,15.5250,39.4500,
5.248995,-0.9236,-0.2709,0.0848,0.1031,0.7733,-0.4273,16.4250,15.5250,39.4500,
5.252853,-0.9236,-0.2709,0.0848,0.1031,0.7733,-0.4273,16.4250,15.5250,39.4500,
5.254477,-1.4554,-0.2771,-0.0117,0.1031,0.7733,-0.4273,16.4250,15.5250,39.4500,
5.283104,-1.4554,-0.2771,-0.0117,0.1031,0.7733,-0.4273,13.0500,16.6500,41.1750,
5.297345,-1.4554,-0.2771,-0.0117,0.1031,0.7733,-0.4273,13.0500,16.6500,41.1750,
5.301708,-1.7442,0.0482,0.1692,0.1031,0.7733,-0.4273,13.0500,16.6500,41.1750,
5.318581,-1.7442,0.0482,0.1692,0.2307,0.5038,-0.2900,13.0500,16.6500,41.1750,
5.345738,-1.7442,0.0482,0.1692,0.2307,0.5038,-0.2900,13.0500,16.6500,41.1750,
5.349329,-2.0272,-0.8940,-0.3414,0.2307,0.5038,-0.2900,13.0500,16.6500,41.1750,
5.351999,-2.0272,-0.8940,-0.3414,0.2307,0.5038,-0.2900,12.1500,17.5500,41.4750,
5.384706,-2.0272,-0.8940,-0.3414,0.2338,0.0713,-0.1132,12.1500,17.5500,41.4750,
5.404245,-2.0272,-0.8940,-0.3414,0.2338,0.0713,-0.1132,12.1500,17.5500,41.4750,
5.407448,-0.1912,-0.7438,-0.6691,0.2338,0.0713,-0.1132,12.1500,17.5500,41.4750,
5.420630,-0.1912,-0.7438,-0.6691,0.2338,0.0713,-0.1132,10.4250,18.8250,41.2500,
5.443490,-0.1912,-0.7438,-0.6691,0.2338,0.0713,-0.1132,10.4250,18.8250,41.2500,
5.446249,0.6495,0.1748,-0.4840,0.2338,0.0713,-0.1132,10.4250,18.8250,41.2500,
5.453119,0.6495,0.1748,-0.4840,0.1151,-0.2442,-0.0501,10.4250,18.8250,41.2500,
5.489958,0.6495,0.1748,-0.4840,0.1151,-0.2442,-0.0501,11.0250,19.1250,41.2500,
5.493701,0.6495,0.1748,-0.4840,0.1151,-0.2442,-0.0501,11.0250,19.1250,41.2500,
5.495162,0.4910,1.1851,-0.4759,0.1151,-0.2442,-0.0501,11.0250,19.1250,41.2500,
5.522193,0.4910,1.1851,-0.4759,-0.0063,-0.2391,-0.0182,11.0250,19.1250,41.2500,
5.541913,0.4910,1.1851,-0.4759,-0.0063,-0.2391,-0.0182,11.0250,19.1250,41.2500,
5.545376,1.0442,0.9621,-0.6445,-0.0063,-0.2391,-0.0182,11.0250,19.1250,41.2500,
5.564152,1.0442,0.9621,-0.6445,-0.0063,-0.2391,-0.0182,11.5500,19.4250,40.7250,
5.595471,1.0442,0.9621,-0.6445,-0.0692,-0.3483,-0.0550,11.5500,19.4250,40.7250,
5.599547,1.0442,0.9621,-0.6445,-0.0692,-0.3483,-0.0550,11.5500,19.4250,40.7250,
5.601739,0.9231,-0.2491,-0.5988,-0.0692,-0.3483,-0.0550,11.5500,19.4250,40.7250,
5.629760,0.9231,-0.2491,-0.5988,-0.0692,-0.3483,-0.0550,12.2250,19.0500,40.9500,
5.643944,0.9231,-0.2491,-0.5988,-0.0692,-0.3483,-0.0550,12.2250,19.0500,40.9500,
5.646404,0.6553,-0.4179,-0.0146,-0.0692,-0.3483,-0.0550,12.2250,19.0500,40.9500,
5.663284,0.6553,-0.4179,-0.0146,-0.1017,-0.3457,-0.0188,12.2250,19.0500,40.9500,
5.693345,0.6553,-0.4179,-0.0146,-0.1017,-0.3457,-0.0188,12.2250,19.0500,40.9500,
5.697693,0.7354,0.4066,-0.0515,-0.1017,-0.3457,-0.0188,12.2250,19.0500,40.9500,
5.701539,0.7354,0.4066,-0.0515,-0.1017,-0.3457,-0.0188,13.3500,18.9750,40.2750,
5.732267,0.7354,0.4066,-0.0515,-0.1005,-0.2891,0.0087,13.3500,18.9750,40.2750,
5.744561,0.7354,0.4066,-0.0515,-0.1005,-0.2891,0.0087,13.3500,18.9750,40.2750,
5.749807,0.5115,0.3913,-0.0131,-0.1005,-0.2891,0.0087,13.3500,18.9750,40.2750,
5.770071,0.5115,0.3913,-0.0131,-0.1005,-0.2891,0.0087,14.1750,19.4250,40.0500,
5.790402,0.5115,0.3913,-0.0131,-0.1005,-0.2891,0.0087,14.1750,19.4250,40.0500,
5.793353,0.3375,0.3052,-0.3227,-0.1005,-0.2891,0.0087,14.1750,19.4250,40.0500,
5.802950,0.3375,0.3052,-0.3227,-0.2072,-0.3346,0.0200,14.1750,19.4250,40.0500,
5.842178,0.3375,0.3052,-0.3227,-0.2072,-0.3346,0.0200,14.4750,19.0500,40.4250,
5.846249,0.3375,0.3052,-0.3227,-0.2072,-0.3346,0.0200,14.4750,19.0500,40.4250,
5.848659,0.1530,0.2955,-0.1941,-0.2072,-0.3346,0.0200,14.4750,19.0500,40.4250,
5.873845,0.1530,0.2955,-0.1941,-0.3367,-0.4888,0.0666,14.4750,19.0500,40.4250,
5.893895,0.1530,0.2955,-0.1941,-0.3367,-0.4888,0.0666,14.4750,19.0500,40.4250,
5.898014,0.4430,0.3798,0.6482,-0.3367,-0.4888,0.0666,14.4750,19.0500,40.4250,
5.911042,0.4430,0.3798,0.6482,-0.3367,-0.4888,0.0666,15.6000,18.6750,40.2750,
5.942865,0.4430,0.3798,0.6482,-0.0999,-0.4595,0.0959,15.6000,18.6750,40.2750,
5.948159,0.4430,0.3798,0.6482,-0.0999,-0.4595,0.0959,15.6000,18.6750,40.2750,
5.950574,0.5834,0.2629,-0.1063,-0.0999,-0.4595,0.0959,15.6000,18.6750,40.2750,
5.980656,0.5834,0.2629,-0.1063,-0.0999,-0.4595,0.0959,16.8750,18.0750,40.5750,
5.991423,0.5834,0.2629,-0.1063,-0.0999,-0.4595,0.0959,16.8750,18.0750,40.5750,
5.995069,0.4289,-0.0555,0.5712,-0.0999,-0.4595,0.0959,16.8750,18.0750,40.5750,
6.010450,0.4289,-0.0555,0.5712,-0.0864,-0.3874,0.1451,16.8750,18.0750,40.5750,
6.040367,0.4289,-0.0555,0.5712,-0.0864,-0.3874,0.1451,16.8750,18.0750,40.5750,
6.045129,0.4799,-0.0077,0.7169,-0.0864,-0.3874,0.1451,16.8750,18.0750,40.5750,
6.052196,0.4799,-0.0077,0.7169,-0.0864,-0.3874,0.1451,18.3750,17.2500,39.9750,
6.079742,0.4799,-0.0077,0.7169,0.1587,-0.3147,0.1431,18.3750,17.2500,39.9750,
6.091195,0.4799,-0.0077,0.7169,0.1587,-0.3147,0.1431,18.3750,17.2500,39.9750,
6.095524,0.6348,0.2269,0.4704,0.1587,-0.3147,0.1431,18.3750,17.2500,39.9750,
6.120485,0.6348,0.2269,0.4704,0.1587,-0.3147,0.1431,19.4250,17.2500,38.8500,
6.137867,0.6348,0.2269,0.4704,0.1587,-0.3147,0.1431,19.4250,17.2500,38.8500,
6.140428,0.6919,0.0661,0.2374,0.1587,-0.3147,0.1431,19.4250,17.2500,38.8500,
6.147332,0.6919,0.0661,0.2374,0.1970,-0.2191,0.0948,19.4250,17.2500,38.8500,
6.187345,0.6919,0.0661,0.2374,0.1970,-0.2191,0.0948,19.4250,17.2500,38.8500,
6.192310,0.3013,0.0082,0.4757,0.1970,-0.2191,0.0948,19.4250,17.2500,38.8500,
6.195151,0.3013,0.0082,0.4757,0.1970,-0.2191,0.0948,19.5750,17.8500,38.8500,
6.217121,0.3013,0.0082,0.4757,0.2245,-0.2196,0.0750,19.5750,17.8500,38.8500,
6.243371,0.3013,0.0082,0.4757,0.2245,-0.2196,0.0750,19.5750,17.8500,38.8500,
6.246663,0.1839,-0.0540,0.2703,0.2245,-0.2196,0.0750,19.5750,17.8500,38.8500,
6.260468,0.1839,-0.0540,0.2703,0.2245,-0.2196,0.0750,20.7750,18.3750,37.7250,
6.289786,0.1839,-0.0540,0.2703,0.2691,-0.0956,0.1321,20.7750,18.3750,37.7250,
6.294137,0.1839,-0.0540,0.2703,0.2691,-0.0956,0.1321,20.7750,18.3750,37.7250,
6.296135,0.1074,-1.4536,0.0124,0.2691,-0.0956,0.1321,20.7750,18.3750,37.7250,
6.324797,0.1074,-1.4536,0.0124,0.2691,-0.0956,0.1321,20.7750,18.7500,37.1250,
6.338335,0.1074,-1.4536,0.0124,0.2691,-0.0956,0.1321,20.7750,18.7500,37.1250,
6.341331,0.2624,-0.7650,-0.1746,0.2691,-0.0956,0.1321,20.7750,18.7500,37.1250,
6.358173,0.2624,-0.7650,-0.1746,0.0774,0.0625,0.1295,20.7750,18.7500,37.1250,
6.387473,0.2624,-0.7650,-0.1746,0.0774,0.0625,0.1295,20.7750,18.7500,37.1250,
6.390730,0.3421,0.2310,0.0838,0.0774,0.0625,0.1295,20.7750,18.7500,37.1250,
6.392653,0.3421,0.2310,0.0838,0.0774,0.0625,0.1295,20.3250,18.4500,37.3500,
6.427055,0.3421,0.2310,0.0838,0.0593,0.0057,0.0400,20.3250,18.4500,37.3500,
6.436270,0.3421,0.2310,0.0838,0.0593,0.0057,0.0400,20.3250,18.4500,37.3500,
6.438207,-0.3694,0.6610,-0.6009,0.0593,0.0057,0.0400,20.3250,18.4500,37.3500,
6.462891,-0.3694,0.6610,-0.6009,0.0593,0.0057,0.0400,20.6250,19.5750,37.6500,
6.490560,-0.3694,0.6610,-0.6009,0.0593,0.0057,0.0400,20.6250,19.5750,37.6500,
6.495028,-1.7393,0.7299,-1.1165,0.0593,0.0057,0.0400,20.6250,19.5750,37.6500,
6.506721,-1.7393,0.7299,-1.1165,-0.0861,-0.2340,0.1135,20.6250,19.5750,37.6500,
6.534371,-1.7393,0.7299,-1.1165,-0.0861,-0.2340,0.1135,21.0750,19.1250,37.3500,
6.538983,-1.7393,0.7299,-1.1165,-0.0861,-0.2340,0.1135,21.0750,19.1250,37.3500,
6.542436,-1.8416,-0.5452,-0.8593,-0.0861,-0.2340,0.1135,21.0750,19.1250,37.3500,
6.568098,-1.8416,-0.5452,-0.8593,-0.2723,-0.3163,0.2081,21.0750,19.1250,37.3500,
6.588985,-1.8416,-0.5452,-0.8593,-0.2723,-0.3163,0.2081,21.0750,19.1250,37.3500,
6.593091,-0.6530,-0.3563,-0.0240,-0.2723,-0.3163,0.2081,21.0750,19.1250,37.3500,
6.602885,-0.6530,-0.3563,-0.0240,-0.2723,-0.3163,0.2081,22.7250,18.1500,37.0500,
6.637685,-0.6530,-0.3563,-0.0240,-0.1904,-0.4937,0.0623,22.7250,18.1500,37.0500,
6.642290,-0.6530,-0.3563,-0.0240,-0.1904,-0.4937,0.0623,22.7250,18.1500,37.0500,
6.645141,-0.4834,0.6810,0.1031,-0.1904,-0.4937,0.0623,22.7250,18.1500,37.0500,
6.671644,-0.4834,0.6810,0.1031,-0.1904,-0.4937,0.0623,22.8750,17.7750,36.7500,
6.685790,-0.4834,0.6810,0.1031,-0.1904,-0.4937,0.0623,22.8750,17.7750,36.7500,
6.689680,-1.0803,0.3944,0.2973,-0.1904,-0.4937,0.0623,22.8750,17.7750,36.7500,
6.705628,-1.0803,0.3944,0.2973,-0.1397,-0.4907,-0.0020,22.8750,17.7750,36.7500,
6.734538,-1.0803,0.3944,0.2973,-0.1397,-0.4907,-0.0020,22.8750,17.7750,36.7500,
6.737589,-1.0182,-0.1587,0.0635,-0.1397,-0.4907,-0.0020,22.8750,17.7750,36.7500,
6.739685,-1.0182,-0.1587,0.0635,-0.1397,-0.4907,-0.0020,24.6000,16.2750,36.3750,
6.773646,-1.0182,-0.1587,0.0635,-0.1035,-0.2471,0.0008,24.6000,16.2750,36.3750,
6.783248,-1.0182,-0.1587,0.0635,-0.1035,-0.2471,0.0008,24.6000,16.2750,36.3750,
6.785760,-0.6943,0.1905,0.3180,-0.1035,-0.2471,0.0008,24.6000,16.2750,36.3750,
6.810185,-0.6943,0.1905,0.3180,-0.1035,-0.2471,0.0008,25.0500,16.8750,35.5500,
6.833615,-0.6943,0.1905,0.3180,-0.1035,-0.2471,0.0008,25.0500,16.8750,35.5500,
6.837536,-0.9546,0.5293,0.6629,-0.1035,-0.2471,0.0008,25.0500,16.8750,35.5500,
6.841654,-0.9546,0.5293,0.6629,-0.0116,-0.0938,-0.0556,25.0500,16.8750,35.5500,
6.881466,-0.9546,0.5293,0.6629,-0.0116,-0.0938,-0.0556,24.9000,16.9500,35.3250,
6.888459,-0.9546,0.5293,0.6629,-0.0116,-0.0938,-0.0556,24.9000,16.9500,35.3250,
6.892673,-1.5285,0.3395,0.5648,-0.0116,-0.0938,-0.0556,24.9000,16.9500,35.3250,
6.915440,-1.5285,0.3395,0.5648,0.0589,0.0275,-0.0709,24.9000,16.9500,35.3250,
6.934996,-1.5285,0.3395,0.5648,0.0589,0.0275,-0.0709,24.9000,16.9500,35.3250,
6.937816,-1.5289,0.1975,0.2842,0.0589,0.0275,-0.0709,24.9000,16.9500,35.3250,
6.951223,-1.5289,0.1975,0.2842,0.0589,0.0275,-0.0709,24.9750,16.4250,35.5500,
6.985314,-1.5289,0.1975,0.2842,0.0223,0.0162,-0.1758,24.9750,16.4250,35.5500,
6.990554,-1.5289,0.1975,0.2842,0.0223,0.0162,-0.1758,24.9750,16.4250,35.5500,
6.993643,-1.2809,-0.0496,0.4777,0.0223,0.0162,-0.1758,24.9750,16.4250,35.5500,
7.020712,-1.2809,-0.0496,0.4777,0.0223,0.0162,-0.1758,24.6000,17.3250,35.3250,
7.033590,-1.2809,-0.0496,0.4777,0.0223,0.0162,-0.1758,24.6000,17.3250,35.3250,
7.036658,-0.7832,-0.6270,0.0889,0.0223,0.0162,-0.1758,24.6000,17.3250,35.3250,
7.053302,-0.7832,-0.6270,0.0889,0.0154,-0.0496,-0.3163,24.6000,17.3250,35.3250,
7.083704,-0.7832,-0.6270,0.0889,0.0154,-0.0496,-0.3163,24.6000,17.3250,35.3250,
7.089487,-0.1898,-0.8435,0.3789,0.0154,-0.0496,-0.3163,24.6000,17.3250,35.3250,
7.092919,-0.1898,-0.8435,0.3789,0.0154,-0.0496,-0.3163,24.3750,18.4500,35.9250,
7.121654,-0.1898,-0.8435,0.3789,0.0765,-0.1813,-0.3696,24.3750,18.4500,35.9250,
7.133240,-0.1898,-0.8435,0.3789,0.0765,-0.1813,-0.3696,24.3750,18.4500,35.9250,
7.136589,0.7361,-0.7493,-0.4835,0.0765,-0.1813,-0.3696,24.3750,18.4500,35.9250,
7.161288,0.7361,-0.7493,-0.4835,0.0765,-0.1813,-0.3696,24.3750,18.4500,35.3250,
7.186288,0.7361,-0.7493,-0.4835,0.0765,-0.1813,-0.3696,24.3750,18.4500,35.3250,
7.191744,-0.0445,-0.6215,-1.4702,0.0765,-0.1813,-0.3696,24.3750,18.4500,35.3250,
7.196547,-0.0445,-0.6215,-1.4702,0.1339,0.0699,-0.1643,24.3750,18.4500,35.3250,
7.230454,-0.0445,-0.6215,-1.4702,0.1339,0.0699,-0.1643,24.0750,19.4250,35.5500,
7.236273,-0.0445,-0.6215,-1.4702,0.1339,0.0699,-0.1643,24.0750,19.4250,35.5500,
7.239419,0.7849,0.2938,-0.9572,0.1339,0.0699,-0.1643,24.0750,19.4250,35.5500,
7.265165,0.7849,0.2938,-0.9572,-0.0334,0.0941,-0.0605,24.0750,19.4250,35.5500,
7.286434,0.7849,0.2938,-0.9572,-0.0334,0.0941,-0.0605,24.0750,19.4250,35.5500,
7.288883,1.6394,0.8279,-0.4861,-0.0334,0.0941,-0.0605,24.0750,19.4250,35.5500,
7.300206,1.6394,0.8279,-0.4861,-0.0334,0.0941,-0.0605,23.4750,19.9500,36.5250,
7.331439,1.6394,0.8279,-0.4861,-0.0334,0.0941,-0.0605,23.4750,19.9500,36.5250,
7.335943,1.5432,0.2364,-0.5057,-0.0334,0.0941,-0.0605,23.4750,19.9500,36.5250,
7.339018,1.5432,0.2364,-0.5057,0.1533,0.2233,-0.1035,23.4750,19.9500,36.5250,
7.371489,1.5432,0.2364,-0.5057,0.1533,0.2233,-0.1035,23.0250,20.0250,36.7500,
7.384274,1.5432,0.2364,-0.5057,0.1533,0.2233,-0.1035,23.0250,20.0250,36.7500,
7.387168,0.7967,-0.2045,-0.3090,0.1533,0.2233,-0.1035,23.0250,20.0250,36.7500,
7.405632,0.7967,-0.2045,-0.3090,0.1248,0.2150,-0.1190,23.0250,20.0250,36.7500,
7.435614,0.7967,-0.2045,-0.3090,0.1248,0.2150,-0.1190,23.0250,20.0250,36.7500,
7.437561,0.3715,0.5469,0.1042,0.1248,0.2150,-0.1190,23.0250,20.0250,36.7500,
7.440592,0.3715,0.5469,0.1042,0.1248,0.2150,-0.1190,22.3500,20.6250,36.4500,
7.474304,0.3715,0.5469,0.1042,0.0554,0.2932,-0.0560,22.3500,20.6250,36.4500,
7.486339,0.3715,0.5469,0.1042,0.0554,0.2932,-0.0560,22.3500,20.6250,36.4500,
7.488013,0.4461,0.9011,-0.0429,0.0554,0.2932,-0.0560,22.3500,20.6250,36.4500,
7.510422,0.4461,0.9011,-0.0429,0.0554,0.2932,-0.0560,21.7500,21.4500,37.2750,
7.532512,0.4461,0.9011,-0.0429,0.0554,0.2932,-0.0560,21.7500,21.4500,37.2750,
7.536683,0.4963,0.3329,0.0253,0.0554,0.2932,-0.0560,21.7500,21.4500,37.2750,
7.541307,0.4963,0.3329,0.0253,-0.0353,0.3198,-0.0374,21.7500,21.4500,37.2750,
7.582026,0.4963,0.3329,0.0253,-0.0353,0.3198,-0.0374,21.7500,21.4500,37.2750,
7.587764,0.4792,0.1861,0.1120,-0.0353,0.3198,-0.0374,21.7500,21.4500,37.2750,
7.592619,0.4792,0.1861,0.1120,-0.0353,0.3198,-0.0374,20.1750,21.1500,37.9500,
7.610049,0.4792,0.1861,0.1120,-0.0857,0.3251,-0.0093,20.1750,21.1500,37.9500,
7.630480,0.4792,0.1861,0.1120,-0.0857,0.3251,-0.0093,20.1750,21.1500,37.9500,
7.633153,0.7046,0.3114,0.3137,-0.0857,0.3251,-0.0093,20.1750,21.1500,37.9500,
7.650519,0.7046,0.3114,0.3137,-0.0857,0.3251,-0.0093,19.8750,21.2250,38.4750,
7.678718,0.7046,0.3114,0.3137,-0.0716,0.3493,0.0302,19.8750,21.2250,38.4750,
7.682775,0.7046,0.3114,0.3137,-0.0716,0.3493,0.0302,19.8750,21.2250,38.4750,
7.684526,0.6568,0.4495,0.3151,-0.0716,0.3493,0.0302,19.8750,21.2250,38.4750,
7.720733,0.6568,0.4495,0.3151,-0.0716,0.3493,0.0302,19.2000,20.8500,39.4500,
7.727116,0.6568,0.4495,0.3151,-0.0716,0.3493,0.0302,19.2000,20.8500,39.4500,
7.728929,0.7402,0.3091,0.4809,-0.0716,0.3493,0.0302,19.2000,20.8500,39.4500,
7.746427,0.7402,0.3091,0.4809,-0.0594,0.3286,0.0860,19.2000,20.8500,39.4500,
7.777117,0.7402,0.3091,0.4809,-0.0594,0.3286,0.0860,19.2000,20.8500,39.4500,
7.781383,0.8170,0.1519,0.5212,-0.0594,0.3286,0.0860,19.2000,20.8500,39.4500,
7.790641,0.8170,0.1519,0.5212,-0.0594,0.3286,0.0860,17.6250,20.4750,39.9750,
7.821566,0.8170,0.1519,0.5212,-0.0287,0.2903,0.1559,17.6250,20.4750,39.9750,
7.837777,0.8170,0.1519,0.5212,-0.0287,0.2903,0.1559,17.6250,20.4750,39.9750,
7.841148,0.8969,0.4363,0.5125,-0.0287,0.2903,0.1559,17.6250,20.4750,39.9750,
7.856133,0.8969,0.4363,0.5125,-0.0287,0.2903,0.1559,17.4000,19.8750,40.4250,
7.879445,0.8969,0.4363,0.5125,-0.0287,0.2903,0.1559,17.4000,19.8750,40.4250,
7.884078,0.9975,0.4485,0.3978,-0.0287,0.2903,0.1559,17.4000,19.8750,40.4250,
7.889174,0.9975,0.4485,0.3978,-0.0693,0.3732,0.2194,17.4000,19.8750,40.4250,
7.923377,0.9975,0.4485,0.3978,-0.0693,0.3732,0.2194,17.3250,18.9750,41.1750,
7.929866,0.9975,0.4485,0.3978,-0.0693,0.3732,0.2194,17.3250,18.9750,41.1750,
7.932025,0.5398,-0.2349,0.8656,-0.0693,0.3732,0.2194,17.3250,18.9750,41.1750,
7.958044,0.5398,-0.2349,0.8656,-0.0486,0.4303,0.2874,17.3250,18.9750,41.1750,
7.976795,0.5398,-0.2349,0.8656,-0.0486,0.4303,0.2874,17.3250,18.9750,41.1750,
7.979552,0.0858,-0.1706,0.7018,-0.0486,0.4303,0.2874,17.3250,18.9750,41.1750,
7.991777,0.0858,-0.1706,0.7018,-0.0486,0.4303,0.2874,15.9000,18.7500,42.1500,
8.026595,0.0858,-0.1706,0.7018,0.1585,0.6246,0.4018,15.9000,18.7500,42.1500,
8.033634,0.0858,-0.1706,0.7018,0.1585,0.6246,0.4018,15.9000,18.7500,42.1500,
8.038926,0.3826,-1.5913,0.8336,0.1585,0.6246,0.4018,15.9000,18.7500,42.1500,
8.068151,0.3826,-1.5913,0.8336,0.1585,0.6246,0.4018,14.7750,18.1500,42.4500,
8.080477,0.3826,-1.5913,0.8336,0.1585,0.6246,0.4018,14.7750,18.1500,42.4500,
8.084250,0.8232,-1.7989,-0.1486,0.1585,0.6246,0.4018,14.7750,18.1500,42.4500,
8.106996,0.8232,-1.7989,-0.1486,0.3248,0.7987,0.2133,14.7750,18.1500,42.4500,
8.129760,0.8232,-1.7989,-0.1486,0.3248,0.7987,0.2133,14.7750,18.1500,42.4500,
8.133080,0.5194,0.3910,-1.1482,0.3248,0.7987,0.2133,14.7750,18.1500,42.4500,
8.134742,0.5194,0.3910,-1.1482,0.3248,0.7987,0.2133,13.8000,18.5250,43.0500,
8.167315,0.5194,0.3910,-1.1482,0.2187,0.8798,0.0165,13.8000,18.5250,43.0500,
8.177433,0.5194,0.3910,-1.1482,0.2187,0.8798,0.0165,13.8000,18.5250,43.0500,
8.178996,-0.3374,1.5223,-1.5405,0.2187,0.8798,0.0165,13.8000,18.5250,43.0500,
8.201898,-0.3374,1.5223,-1.5405,0.2187,0.8798,0.0165,11.2500,19.3500,44.3250,
8.226021,-0.3374,1.5223,-1.5405,0.2187,0.8798,0.0165,11.2500,19.3500,44.3250,
8.229022,-1.4189,-0.2723,-1.6265,0.2187,0.8798,0.0165,11.2500,19.3500,44.3250,
8.236172,-1.4189,-0.2723,-1.6265,0.1607,0.8549,-0.0023,11.2500,19.3500,44.3250,
8.271059,-1.4189,-0.2723,-1.6265,0.1607,0.8549,-0.0023,9.7500,19.9500,44.7750,
8.275626,-1.4189,-0.2723,-1.6265,0.1607,0.8549,-0.0023,9.7500,19.9500,44.7750,
8.278402,-0.8926,-0.7628,-1.2019,0.1607,0.8549,-0.0023,9.7500,19.9500,44.7750,
8.304577,-0.8926,-0.7628,-1.2019,0.0316,0.8928,-0.0283,9.7500,19.9500,44.7750,
8.324245,-0.8926,-0.7628,-1.2019,0.0316,0.8928,-0.0283,9.7500,19.9500,44.7750,
8.327118,0.0050,0.5057,-0.6509,0.0316,0.8928,-0.0283,9.7500,19.9500,44.7750,
8.340166,0.0050,0.5057,-0.6509,0.0316,0.8928,-0.0283,6.5250,19.8750,45.4500,
8.373608,0.0050,0.5057,-0.6509,-0.0113,0.9051,-0.1413,6.5250,19.8750,45.4500,
8.378369,0.0050,0.5057,-0.6509,-0.0113,0.9051,-0.1413,6.5250,19.8750,45.4500,
8.380904,-0.0174,0.7106,-0.3857,-0.0113,0.9051,-0.1413,6.5250,19.8750,45.4500,
8.410198,-0.0174,0.7106,-0.3857,-0.0113,0.9051,-0.1413,2.9250,19.7250,45.6750,
8.422613,-0.0174,0.7106,-0.3857,-0.0113,0.9051,-0.1413,2.9250,19.7250,45.6750,
8.426370,-0.2248,0.2831,-0.2833,-0.0113,0.9051,-0.1413,2.9250,19.7250,45.6750,
8.441449,-0.2248,0.2831,-0.2833,-0.0823,1.1064,-0.1552,2.9250,19.7250,45.6750,
8.476968,-0.2248,0.2831,-0.2833,-0.0823,1.1064,-0.1552,2.9250,19.7250,45.6750,
8.482797,-0.3315,0.3437,-0.0124,-0.0823,1.1064,-0.1552,2.9250,19.7250,45.6750,
8.486265,-0.3315,0.3437,-0.0124,-0.0823,1.1064,-0.1552,-0.0750,19.3500,46.3500,
8.515238,-0.3315,0.3437,-0.0124,-0.1329,1.0933,-0.1765,-0.0750,19.3500,46.3500,
8.525406,-0.3315,0.3437,-0.0124,-0.1329,1.0933,-0.1765,-0.0750,19.3500,46.3500,
8.529016,-0.8047,0.1681,0.5544,-0.1329,1.0933,-0.1765,-0.0750,19.3500,46.3500,
8.549945,-0.8047,0.1681,0.5544,-0.1329,1.0933,-0.1765,-3.2250,19.0500,46.6500,
8.573929,-0.8047,0.1681,0.5544,-0.1329,1.0933,-0.1765,-3.2250,19.0500,46.6500,
8.578038,-0.5530,0.3750,0.6922,-0.1329,1.0933,-0.1765,-3.2250,19.0500,46.6500,
8.583923,-0.5530,0.3750,0.6922,0.0073,0.9479,-0.2343,-3.2250,19.0500,46.6500,
8.621873,-0.5530,0.3750,0.6922,0.0073,0.9479,-0.2343,-6.8250,19.0500,46.5750,
8.627680,-0.5530,0.3750,0.6922,0.0073,0.9479,-0.2343,-6.8250,19.0500,46.5750,
8.630627,-0.4855,0.0441,0.3322,0.0073,0.9479,-0.2343,-6.8250,19.0500,46.5750,
8.652455,-0.4855,0.0441,0.3322,0.0939,0.8628,-0.2646,-6.8250,19.0500,46.5750,
8.672358,-0.4855,0.0441,0.3322,0.0939,0.8628,-0.2646,-6.8250,19.0500,46.5750,
8.678960,-0.9205,-0.2746,-0.1719,0.0939,0.8628,-0.2646,-6.8250,19.0500,46.5750,
8.697014,-0.9205,-0.2746,-0.1719,0.0939,0.8628,-0.2646,-9.3750,18.9750,45.4500,
8.725579,-0.9205,-0.2746,-0.1719,-0.0276,0.8120,-0.2659,-9.3750,18.9750,45.4500,
8.730121,-0.9205,-0.2746,-0.1719,-0.0276,0.8120,-0.2659,-9.3750,18.9750,45.4500,
8.732629,-0.6606,-0.1700,0.1485,-0.0276,0.8120,-0.2659,-9.3750,18.9750,45.4500,
8.760130,-0.6606,-0.1700,0.1485,-0.0276,0.8120,-0.2659,-12.2250,18.7500,45.2250,
8.773895,-0.6606,-0.1700,0.1485,-0.0276,0.8120,-0.2659,-12.2250,18.7500,45.2250,
8.776380,0.2713,-1.3358,-0.3540,-0.0276,0.8120,-0.2659,-12.2250,18.7500,45.2250,
8.793880,0.2713,-1.3358,-0.3540,0.1932,0.9189,-0.4129,-12.2250,18.7500,45.2250,
8.822826,0.2713,-1.3358,-0.3540,0.1932,0.9189,-0.4129,-12.2250,18.7500,45.2250,
8.825494,-0.2154,-2.1609,-1.0576,0.1932,0.9189,-0.4129,-12.2250,18.7500,45.2250,
8.833358,-0.2154,-2.1609,-1.0576,0.1932,0.9189,-0.4129,-15.1500,19.0500,44.2500,
8.862456,-0.2154,-2.1609,-1.0576,0.1390,0.6209,-0.4401,-15.1500,19.0500,44.2500,
8.872429,-0.2154,-2.1609,-1.0576,0.1390,0.6209,-0.4401,-15.1500,19.0500,44.2500,
8.876046,-0.4714,-0.2435,-0.7697,0.1390,0.6209,-0.4401,-15.1500,19.0500,44.2500,
8.900654,-0.4714,-0.2435,-0.7697,0.1390,0.6209,-0.4401,-18.1500,18.7500,43.7250,
8.921181,-0.4714,-0.2435,-0.7697,0.1390,0.6209,-0.4401,-18.1500,18.7500,43.7250,
8.925649,0.2862,1.9274,-1.1513,0.1390,0.6209,-0.4401,-18.1500,18.7500,43.7250,
8.941191,0.2862,1.9274,-1.1513,0.0788,0.7675,-0.2541,-18.1500,18.7500,43.7250,
8.969076,0.2862,1.9274,-1.1513,0.0788,0.7675,-0.2541,-18.1500,18.7500,43.7250,
8.971297,1.0204,1.0708,-1.5488,0.0788,0.7675,-0.2541,-18.1500,18.7500,43.7250,
8.973084,1.0204,1.0708,-1.5488,0.0788,0.7675,-0.2541,-20.3250,18.4500,43.7250,
8.998664,1.0204,1.0708,-1.5488,-0.0472,0.5824,-0.2934,-20.3250,18.4500,43.7250,
9.020725,1.0204,1.0708,-1.5488,-0.0472,0.5824,-0.2934,-20.3250,18.4500,43.7250,
9.024221,0.4194,-0.8185,-0.8845,-0.0472,0.5824,-0.2934,-20.3250,18.4500,43.7250,
9.041303,0.4194,-0.8185,-0.8845,-0.0472,0.5824,-0.2934,-22.5750,18.5250,42.1500,
9.067578,0.4194,-0.8185,-0.8845,-0.0796,0.4737,-0.1602,-22.5750,18.5250,42.1500,
9.068797,0.4194,-0.8185,-0.8845,-0.0796,0.4737,-0.1602,-22.5750,18.5250,42.1500,
9.069453,0.5259,0.1572,-0.3514,-0.0796,0.4737,-0.1602,-22.5750,18.5250,42.1500,
9.112560,0.5259,0.1572,-0.3514,-0.0796,0.4737,-0.1602,-24.0750,17.8500,41.0250,
9.122251,0.5259,0.1572,-0.3514,-0.0796,0.4737,-0.1602,-24.0750,17.8500,41.0250,
9.123767,0.5164,0.9618,-0.3193,-0.0796,0.4737,-0.1602,-24.0750,17.8500,41.0250,
9.141680,0.5164,0.9618,-0.3193,-0.0411,0.4048,-0.0757,-24.0750,17.8500,41.0250,
9.170787,0.5164,0.9618,-0.3193,-0.0411,0.4048,-0.0757,-24.0750,17.8500,41.0250,
9.172936,0.7008,0.4021,-0.4598,-0.0411,0.4048,-0.0757,-24.0750,17.8500,41.0250,
9.182994,0.7008,0.4021,-0.4598,-0.0411,0.4048,-0.0757,-25.6500,17.2500,40.3500,
9.209606,0.7008,0.4021,-0.4598,-0.0608,0.3360,-0.0099,-25.6500,17.2500,40.3500,
9.219670,0.7008,0.4021,-0.4598,-0.0608,0.3360,-0.0099,-25.6500,17.2500,40.3500,
9.223615,0.9168,0.2524,-0.3265,-0.0608,0.3360,-0.0099,-25.6500,17.2500,40.3500,
9.251057,0.9168,0.2524,-0.3265,-0.0608,0.3360,-0.0099,-26.7000,17.5500,39.1500,
9.269854,0.9168,0.2524,-0.3265,-0.0608,0.3360,-0.0099,-26.7000,17.5500,39.1500,
9.278468,0.7133,0.4178,0.2971,-0.0608,0.3360,-0.0099,-26.7000,17.5500,39.1500,
9.282853,0.7133,0.4178,0.2971,-0.0495,0.2775,0.0545,-26.7000,17.5500,39.1500,
9.312088,0.7133,0.4178,0.2971,-0.0495,0.2775,0.0545,-27.0750,17.3250,39.1500,
9.316380,0.7133,0.4178,0.2971,-0.0495,0.2775,0.0545,-27.0750,17.3250,39.1500,
9.317936,0.6202,0.3504,0.3145,-0.0495,0.2775,0.0545,-27.0750,17.3250,39.1500,
9.345983,0.6202,0.3504,0.3145,0.0380,0.3221,0.1495,-27.0750,17.3250,39.1500,
9.374610,0.6202,0.3504,0.3145,0.0380,0.3221,0.1495,-27.0750,17.3250,39.1500,
9.379545,0.6778,0.3699,-0.0341,0.0380,0.3221,0.1495,-27.0750,17.3250,39.1500,
9.390080,0.6778,0.3699,-0.0341,0.0380,0.3221,0.1495,-27.4500,17.6250,39.4500,
9.419348,0.6778,0.3699,-0.0341,-0.0803,0.2763,0.1800,-27.4500,17.6250,39.4500,
9.424421,0.6778,0.3699,-0.0341,-0.0803,0.2763,0.1800,-27.4500,17.6250,39.4500,
9.426843,0.5972,0.1012,-0.1578,-0.0803,0.2763,0.1800,-27.4500,17.6250,39.4500,
9.455247,0.5972,0.1012,-0.1578,-0.0803,0.2763,0.1800,-28.5000,17.8500,39.1500,
9.470282,0.5972,0.1012,-0.1578,-0.0803,0.2763,0.1800,-28.5000,17.8500,39.1500,
9.475080,0.2197,-0.2914,0.4464,-0.0803,0.2763,0.1800,-28.5000,17.8500,39.1500,
9.490347,0.2197,-0.2914,0.4464,-0.1576,0.0638,0.2283,-28.5000,17.8500,39.1500,
9.517342,0.2197,-0.2914,0.4464,-0.1576,0.0638,0.2283,-28.5000,17.8500,39.1500,
9.521570,0.1662,-1.0102,1.1552,-0.1576,0.0638,0.2283,-28.5000,17.8500,39.1500,
9.524380,0.1662,-1.0102,1.1552,-0.1576,0.0638,0.2283,-28.8750,17.9250,38.2500,
9.557361,0.1662,-1.0102,1.1552,0.1457,0.0058,0.3358,-28.8750,17.9250,38.2500,
9.572604,0.1662,-1.0102,1.1552,0.1457,0.0058,0.3358,-28.8750,17.9250,38.2500,
9.576512,1.4939,-1.4426,0.7178,0.1457,0.0058,0.3358,-28.8750,17.9250,38.2500,
9.590717,1.4939,-1.4426,0.7178,0.1457,0.0058,0.3358,-28.0500,18.7500,37.9500,
9.615110,1.4939,-1.4426,0.7178,0.1457,0.0058,0.3358,-28.0500,18.7500,37.9500,
9.618854,1.7189,-1.0335,-0.3381,0.1457,0.0058,0.3358,-28.0500,18.7500,37.9500,
9.634607,1.7189,-1.0335,-0.3381,0.3280,0.2732,0.2173,-28.0500,18.7500,37.9500,
9.664354,1.7189,-1.0335,-0.3381,0.3280,0.2732,0.2173,-28.5000,19.3500,37.3500,
9.669128,1.7189,-1.0335,-0.3381,0.3280,0.2732,0.2173,-28.5000,19.3500,37.3500,
9.670943,0.3979,0.5549,-1.7533,0.3280,0.2732,0.2173,-28.5000,19.3500,37.3500,
9.697813,0.3979,0.5549,-1.7533,0.0699,0.3488,0.0800,-28.5000,19.3500,37.3500,
9.717518,0.3979,0.5549,-1.7533,0.0699,0.3488,0.0800,-28.5000,19.3500,37.3500,
9.719680,-0.8650,1.1509,-1.8623,0.0699,0.3488,0.0800,-28.5000,19.3500,37.3500,
9.733877,-0.8650,1.1509,-1.8623,0.0699,0.3488,0.0800,-28.9500,20.3250,36.7500,
9.768764,-0.8650,1.1509,-1.8623,-0.2014,0.2304,0.1019,-28.9500,20.3250,36.7500,
9.774112,-0.8650,1.1509,-1.8623,-0.2014,0.2304,0.1019,-28.9500,20.3250,36.7500,
9.776836,-1.1725,0.2651,-1.3186,-0.2014,0.2304,0.1019,-28.9500,20.3250,36.7500,
9.801518,-1.1725,0.2651,-1.3186,-0.2014,0.2304,0.1019,-29.1750,19.9500,35.8500,
9.816762,-1.1725,0.2651,-1.3186,-0.2014,0.2304,0.1019,-29.1750,19.9500,35.8500,
9.818952,-0.3483,-0.6216,-0.7234,-0.2014,0.2304,0.1019,-29.1750,19.9500,35.8500,
9.835411,-0.3483,-0.6216,-0.7234,-0.1695,0.4697,0.1322,-29.1750,19.9500,35.8500,
9.865377,-0.3483,-0.6216,-0.7234,-0.1695,0.4697,0.1322,-29.1750,19.9500,35.8500,
9.870272,0.0136,0.0605,-0.5098,-0.1695,0.4697,0.1322,-29.1750,19.9500,35.8500,
9.872752,0.0136,0.0605,-0.5098,-0.1695,0.4697,0.1322,-30.2250,19.5750,35.6250,
9.903134,0.0136,0.0605,-0.5098,-0.0840,0.5452,0.0134,-30.2250,19.5750,35.6250,
9.913944,0.0136,0.0605,-0.5098,-0.0840,0.5452,0.0134,-30.2250,19.5750,35.6250,
9.917205,-0.1263,0.5414,-0.4244,-0.0840,0.5452,0.0134,-30.2250,19.5750,35.6250,
9.940490,-0.1263,0.5414,-0.4244,-0.0840,0.5452,0.0134,-32.1750,19.0500,34.6500,
9.962491,-0.1263,0.5414,-0.4244,-0.0840,0.5452,0.0134,-32.1750,19.0500,34.6500,
9.966959,-0.5677,0.3847,-0.6944,-0.0840,0.5452,0.0134,-32.1750,19.0500,34.6500,
9.971774,-0.5677,0.3847,-0.6944,-0.0869,0.5899,-0.0593,-32.1750,19.0500,34.6500,
10.010346,-0.5677,0.3847,-0.6944,-0.0869,0.5899,-0.0593,-34.3500,18.4500,32.9250,
10.016142,-0.5677,0.3847,-0.6944,-0.0869,0.5899,-0.0593,-34.3500,18.4500,32.9250,
10.017913,-0.3151,0.1220,-0.3963,-0.0869,0.5899,-0.0593,-34.3500,18.4500,32.9250,
10.046288,-0.3151,0.1220,-0.3963,-0.1646,0.6418,-0.0954,-34.3500,18.4500,32.9250,
10.072539,-0.3151,0.1220,-0.3963,-0.1646,0.6418,-0.0954,-34.3500,18.4500,32.9250,
10.077083,-0.5795,0.3032,0.0194,-0.1646,0.6418,-0.0954,-34.3500,18.4500,32.9250,
10.081300,-0.5795,0.3032,0.0194,-0.1646,0.6418,-0.0954,-35.4000,18.8250,32.4750,
10.114864,-0.5795,0.3032,0.0194,-0.1170,0.6244,-0.0997,-35.4000,18.8250,32.4750,
10.119406,-0.5795,0.3032,0.0194,-0.1170,0.6244,-0.0997,-35.4000,18.8250,32.4750,
10.121663,-0.6913,0.3571,0.1183,-0.1170,0.6244,-0.0997,-35.4000,18.8250,32.4750,
10.150197,-0.6913,0.3571,0.1183,-0.1170,0.6244,-0.0997,-36.0750,17.8500,31.1250,
10.166870,-0.6913,0.3571,0.1183,-0.1170,0.6244,-0.0997,-36.0750,17.8500,31.1250,
10.172156,-0.7369,-0.0590,0.3733,-0.1170,0.6244,-0.0997,-36.0750,17.8500,31.1250,
10.185840,-0.7369,-0.0590,0.3733,0.0188,0.5647,-0.1190,-36.0750,17.8500,31.1250,
10.212146,-0.7369,-0.0590,0.3733,0.0188,0.5647,-0.1190,-36.0750,17.8500,31.1250,
10.215262,-0.7022,-0.0659,0.3302,0.0188,0.5647,-0.1190,-36.0750,17.8500,31.1250,
10.219781,-0.7022,-0.0659,0.3302,0.0188,0.5647,-0.1190,-38.1000,17.0250,29.5500,
10.250526,-0.7022,-0.0659,0.3302,0.1555,0.5563,-0.1936,-38.1000,17.0250,29.5500,
10.260804,-0.7022,-0.0659,0.3302,0.1555,0.5563,-0.1936,-38.1000,17.0250,29.5500,
10.263291,-0.3503,-0.3301,0.4199,0.1555,0.5563,-0.1936,-38.1000,17.0250,29.5500,
10.291089,-0.3503,-0.3301,0.4199,0.1555,0.5563,-0.1936,-39.5250,17.2500,28.1250,
10.316461,-0.3503,-0.3301,0.4199,0.1555,0.5563,-0.1936,-39.5250,17.2500,28.1250,
10.325594,0.0135,-0.9829,0.3355,0.1555,0.5563,-0.1936,-39.5250,17.2500,28.1250,
10.331021,0.0135,-0.9829,0.3355,0.3262,0.6344,-0.3350,-39.5250,17.2500,28.1250,
10.359793,0.0135,-0.9829,0.3355,0.3262,0.6344,-0.3350,-41.7750,16.9500,25.9500,
10.367183,0.0135,-0.9829,0.3355,0.3262,0.6344,-0.3350,-41.7750,16.9500,25.9500,
10.370876,-0.7094,-1.4057,-0.2986,0.3262,0.6344,-0.3350,-41.7750,16.9500,25.9500,
10.392480,-0.7094,-1.4057,-0.2986,0.2668,0.4754,-0.3957,-41.7750,16.9500,25.9500,
10.412072,-0.7094,-1.4057,-0.2986,0.2668,0.4754,-0.3957,-41.7750,16.9500,25.9500,
10.415765,-0.4099,-1.0722,-0.7587,0.2668,0.4754,-0.3957,-41.7750,16.9500,25.9500,
10.431272,-0.4099,-1.0722,-0.7587,0.2668,0.4754,-0.3957,-43.4250,15.8250,24.0750,
10.461437,-0.4099,-1.0722,-0.7587,0.0832,0.4539,-0.3083,-43.4250,15.8250,24.0750,
10.467071,-0.4099,-1.0722,-0.7587,0.0832,0.4539,-0.3083,-43.4250,15.8250,24.0750,
10.470598,0.2742,0.5736,-0.8934,0.0832,0.4539,-0.3083,-43.4250,15.8250,24.0750,
10.500330,0.2742,0.5736,-0.8934,0.0832,0.4539,-0.3083,-44.4750,15.3750,22.3500,
10.509657,0.2742,0.5736,-0.8934,0.0832,0.4539,-0.3083,-44.4750,15.3750,22.3500,
10.511205,1.5405,1.7851,-1.8615,0.0832,0.4539,-0.3083,-44.4750,15.3750,22.3500,
10.528976,1.5405,1.7851,-1.8615,-0.0672,0.7969,-0.3115,-44.4750,15.3750,22.3500,
10.559062,1.5405,1.7851,-1.8615,-0.0672,0.7969,-0.3115,-44.4750,15.3750,22.3500,
10.561669,1.4334,0.3867,-1.9456,-0.0672,0.7969,-0.3115,-44.4750,15.3750,22.3500,
10.570033,1.4334,0.3867,-1.9456,-0.0672,0.7969,-0.3115,-46.6500,14.1750,20.2500,
10.599454,1.4334,0.3867,-1.9456,-0.3326,0.7419,-0.3983,-46.6500,14.1750,20.2500,
10.608562,1.4334,0.3867,-1.9456,-0.3326,0.7419,-0.3983,-46.6500,14.1750,20.2500,
10.609870,0.7662,-0.8411,-0.8077,-0.3326,0.7419,-0.3983,-46.6500,14.1750,20.2500,
10.641089,0.7662,-0.8411,-0.8077,-0.3326,0.7419,-0.3983,-47.1000,12.6750,18.1500,
10.656942,0.7662,-0.8411,-0.8077,-0.3326,0.7419,-0.3983,-47.1000,12.6750,18.1500,
10.659389,0.7273,0.3225,-0.0802,-0.3326,0.7419,-0.3983,-47.1000,12.6750,18.1500,
10.666190,0.7273,0.3225,-0.0802,-0.3103,0.8880,-0.2790,-47.1000,12.6750,18.1500,
10.709977,0.7273,0.3225,-0.0802,-0.3103,0.8880,-0.2790,-47.1000,12.6750,18.1500,
10.712483,1.1123,1.3036,-0.1859,-0.3103,0.8880,-0.2790,-47.1000,12.6750,18.1500,
10.714264,1.1123,1.3036,-0.1859,-0.3103,0.8880,-0.2790,-48.1500,11.2500,14.8500,
10.739169,1.1123,1.3036,-0.1859,-0.2407,1.0453,-0.2291,-48.1500,11.2500,14.8500,
10.758936,1.1123,1.3036,-0.1859,-0.2407,1.0453,-0.2291,-48.1500,11.2500,14.8500,
10.761842,0.9446,0.4554,-0.5220,-0.2407,1.0453,-0.2291,-48.1500,11.2500,14.8500,
10.779762,0.9446,0.4554,-0.5220,-0.2407,1.0453,-0.2291,-49.2000,10.0500,11.5500,
10.808269,0.9446,0.4554,-0.5220,-0.2613,0.9039,-0.1266,-49.2000,10.0500,11.5500,
10.815005,0.9446,0.4554,-0.5220,-0.2613,0.9039,-0.1266,-49.2000,10.0500,11.5500,
10.817775,1.0473,0.0736,-0.1913,-0.2613,0.9039,-0.1266,-49.2000,10.0500,11.5500,
10.843399,1.0473,0.0736,-0.1913,-0.2613,0.9039,-0.1266,-49.9500,9.1500,8.6250,
10.857768,1.0473,0.0736,-0.1913,-0.2613,0.9039,-0.1266,-49.9500,9.1500,8.6250,
10.861756,1.1426,0.4884,0.1717,-0.2613,0.9039,-0.1266,-49.9500,9.1500,8.6250,
10.877391,1.1426,0.4884,0.1717,-0.1397,1.0135,0.0971,-49.9500,9.1500,8.6250,
10.906083,1.1426,0.4884,0.1717,-0.1397,1.0135,0.0971,-49.9500,9.1500,8.6250,
10.908090,0.6081,0.1165,0.2301,-0.1397,1.0135,0.0971,-49.9500,9.1500,8.6250,
10.913323,0.6081,0.1165,0.2301,-0.1397,1.0135,0.0971,-50.7750,9.5250,5.5500,
10.949705,0.6081,0.1165,0.2301,-0.0101,1.1229,0.2547,-50.7750,9.5250,5.5500,
10.959559,0.6081,0.1165,0.2301,-0.0101,1.1229,0.2547,-50.7750,9.5250,5.5500,
10.962596,0.0172,-0.1613,0.1514,-0.0101,1.1229,0.2547,-50.7750,9.5250,5.5500,
10.985402,0.0172,-0.1613,0.1514,-0.0101,1.1229,0.2547,-50.4750,10.0500,1.2750,
11.009208,0.0172,-0.1613,0.1514,-0.0101,1.1229,0.2547,-50.4750,10.0500,1.2750,
11.012689,0.2404,0.1755,0.5416,-0.0101,1.1229,0.2547,-50.4750,10.0500,1.2750,
11.018159,0.2404,0.1755,0.5416,0.0252,0.9344,0.4445,-50.4750,10.0500,1.2750,
11.053934,0.2404,0.1755,0.5416,0.0252,0.9344,0.4445,-50.1000,12.0750,-2.5500,
11.059536,0.2404,0.1755,0.5416,0.0252,0.9344,0.4445,-50.1000,12.0750,-2.5500,
11.062229,0.9174,-0.8680,-0.2377,0.0252,0.9344,0.4445,-50.1000,12.0750,-2.5500,
11.087205,0.9174,-0.8680,-0.2377,0.2198,1.0184,0.4458,-50.1000,12.0750,-2.5500,
11.106446,0.9174,-0.8680,-0.2377,0.2198,1.0184,0.4458,-50.1000,12.0750,-2.5500,
11.108992,2.2009,-2.6698,-0.7891,0.2198,1.0184,0.4458,-50.1000,12.0750,-2.5500,
11.121361,2.2009,-2.6698,-0.7891,0.2198,1.0184,0.4458,-48.8250,13.3500,-6.2250,
11.156603,2.2009,-2.6698,-0.7891,0.2135,1.0180,0.1828,-48.8250,13.3500,-6.2250,
11.162684,2.2009,-2.6698,-0.7891,0.2135,1.0180,0.1828,-48.8250,13.3500,-6.2250,
11.166343,1.3118,-0.8642,-0.4463,0.2135,1.0180,0.1828,-48.8250,13.3500,-6.2250,
11.196545,1.3118,-0.8642,-0.4463,0.2135,1.0180,0.1828,-48.3000,13.4250,-10.1250,
11.209339,1.3118,-0.8642,-0.4463,0.2135,1.0180,0.1828,-48.3000,13.4250,-10.1250,
11.211541,1.1379,1.5411,-1.2805,0.2135,1.0180,0.1828,-48.3000,13.4250,-10.1250,
11.228406,1.1379,1.5411,-1.2805,0.3486,0.9442,-0.0854,-48.3000,13.4250,-10.1250,
11.258802,1.1379,1.5411,-1.2805,0.3486,0.9442,-0.0854,-48.3000,13.4250,-10.1250,
11.262458,-0.1339,0.7636,-2.0079,0.3486,0.9442,-0.0854,-48.3000,13.4250,-10.1250,
11.265671,-0.1339,0.7636,-2.0079,0.3486,0.9442,-0.0854,-47.2500,13.4250,-12.2250,
11.297833,-0.1339,0.7636,-2.0079,0.0669,1.0751,-0.0504,-47.2500,13.4250,-12.2250,
11.306603,-0.1339,0.7636,-2.0079,0.0669,1.0751,-0.0504,-47.2500,13.4250,-12.2250,
11.308099,-0.3234,-0.3529,-1.4362,0.0669,1.0751,-0.0504,-47.2500,13.4250,-12.2250,
11.332827,-0.3234,-0.3529,-1.4362,0.0669,1.0751,-0.0504,-46.2000,13.5750,-16.0500,
11.356792,-0.3234,-0.3529,-1.4362,0.0669,1.0751,-0.0504,-46.2000,13.5750,-16.0500,
11.361793,0.5345,-0.0412,-0.7394,0.0669,1.0751,-0.0504,-46.2000,13.5750,-16.0500,
11.366516,0.5345,-0.0412,-0.7394,-0.0875,1.3625,-0.0528,-46.2000,13.5750,-16.0500,
11.400339,0.5345,-0.0412,-0.7394,-0.0875,1.3625,-0.0528,-44.1750,13.2750,-19.3500,
11.404888,0.5345,-0.0412,-0.7394,-0.0875,1.3625,-0.0528,-44.1750,13.2750,-19.3500,
11.406774,1.0222,0.1396,-0.5264,-0.0875,1.3625,-0.0528,-44.1750,13.2750,-19.3500,
11.433960,1.0222,0.1396,-0.5264,-0.0996,1.5129,-0.1678,-44.1750,13.2750,-19.3500,
11.454237,1.0222,0.1396,-0.5264,-0.0996,1.5129,-0.1678,-44.1750,13.2750,-19.3500,
11.457601,0.6844,0.3738,-0.4400,-0.0996,1.5129,-0.1678,-44.1750,13.2750,-19.3500,
11.470305,0.6844,0.3738,-0.4400,-0.0996,1.5129,-0.1678,-42.3750,13.4250,-23.4750,
11.504013,0.6844,0.3738,-0.4400,-0.1255,1.7324,-0.2636,-42.3750,13.4250,-23.4750,
11.509076,0.6844,0.3738,-0.4400,-0.1255,1.7324,-0.2636,-42.3750,13.4250,-23.4750,
11.511931,0.6270,0.3269,-0.4441,-0.1255,1.7324,-0.2636,-42.3750,13.4250,-23.4750,
11.541146,0.6270,0.3269,-0.4441,-0.1255,1.7324,-0.2636,-39.3750,13.4250,-28.2750,
11.553147,0.6270,0.3269,-0.4441,-0.1255,1.7324,-0.2636,-39.3750,13.4250,-28.2750,
11.557097,-0.1997,-0.0252,-0.4307,-0.1255,1.7324,-0.2636,-39.3750,13.4250,-28.2750,
11.577313,-0.1997,-0.0252,-0.4307,-0.0840,1.7311,-0.2676,-39.3750,13.4250,-28.2750,
11.606353,-0.1997,-0.0252,-0.4307,-0.0840,1.7311,-0.2676,-39.3750,13.4250,-28.2750,
11.612084,-0.4098,0.0575,-0.1094,-0.0840,1.7311,-0.2676,-39.3750,13.4250,-28.2750,
11.615543,-0.4098,0.0575,-0.1094,-0.0840,1.7311,-0.2676,-36.0750,12.8250,-32.2500,
11.645559,-0.4098,0.0575,-0.1094,-0.1086,1.5948,-0.1993,-36.0750,12.8250,-32.2500,
11.655055,-0.4098,0.0575,-0.1094,-0.1086,1.5948,-0.1993,-36.0750,12.8250,-32.2500,
11.659319,-0.0215,0.0937,0.2348,-0.1086,1.5948,-0.1993,-36.0750,12.8250,-32.2500,
11.680907,-0.0215,0.0937,0.2348,-0.1086,1.5948,-0.1993,-32.4750,12.7500,-35.0250,
11.705608,-0.0215,0.0937,0.2348,-0.1086,1.5948,-0.1993,-32.4750,12.7500,-35.0250,
11.709934,0.3842,0.0729,0.4493,-0.1086,1.5948,-0.1993,-32.4750,12.7500,-35.0250,
11.721173,0.3842,0.0729,0.4493,-0.0140,1.5654,-0.1625,-32.4750,12.7500,-35.0250,
11.750590,0.3842,0.0729,0.4493,-0.0140,1.5654,-0.1625,-28.9500,13.0500,-37.5750,
11.754963,0.3842,0.0729,0.4493,-0.0140,1.5654,-0.1625,-28.9500,13.0500,-37.5750,
11.756953,0.2969,-0.0535,0.3200,-0.0140,1.5654,-0.1625,-28.9500,13.0500,-37.5750,
11.782222,0.2969,-0.0535,0.3200,0.0725,1.5409,-0.2657,-28.9500,13.0500,-37.5750,
11.803383,0.2969,-0.0535,0.3200,0.0725,1.5409,-0.2657,-28.9500,13.0500,-37.5750,
11.807584,0.2668,-0.0315,0.3975,0.0725,1.5409,-0.2657,-28.9500,13.0500,-37.5750,
11.820757,0.2668,-0.0315,0.3975,0.0725,1.5409,-0.2657,-24.9750,12.0750,-39.2250,
11.855494,0.2668,-0.0315,0.3975,0.2480,1.5740,-0.4595,-24.9750,12.0750,-39.2250,
11.861591,0.2668,-0.0315,0.3975,0.2480,1.5740,-0.4595,-24.9750,12.0750,-39.2250,
11.866102,0.4908,-0.9845,0.2159,0.2480,1.5740,-0.4595,-24.9750,12.0750,-39.2250,
11.892019,0.4908,-0.9845,0.2159,0.2480,1.5740,-0.4595,-21.2250,11.8500,-41.6250,
11.905547,0.4908,-0.9845,0.2159,0.2480,1.5740,-0.4595,-21.2250,11.8500,-41.6250,
11.908339,-0.0010,-1.4341,-0.6245,0.2480,1.5740,-0.4595,-21.2250,11.8500,-41.6250,
11.923423,-0.0010,-1.4341,-0.6245,0.1226,1.2987,-0.6086,-21.2250,11.8500,-41.6250,
11.953605,-0.0010,-1.4341,-0.6245,0.1226,1.2987,-0.6086,-21.2250,11.8500,-41.6250,
11.956651,0.6304,0.1499,-0.8403,0.1226,1.2987,-0.6086,-21.2250,11.8500,-41.6250,
11.960603,0.6304,0.1499,-0.8403,0.1226,1.2987,-0.6086,-17.9250,10.5750,-43.1250,
11.992663,0.6304,0.1499,-0.8403,-0.0533,1.4022,-0.4913,-17.9250,10.5750,-43.1250,
12.001633,0.6304,0.1499,-0.8403,-0.0533,1.4022,-0.4913,-17.9250,10.5750,-43.1250,
12.004188,0.5167,0.8164,-1.0437,-0.0533,1.4022,-0.4913,-17.9250,10.5750,-43.1250,
12.032024,0.5167,0.8164,-1.0437,-0.0533,1.4022,-0.4913,-14.0250,10.2750,-43.7250,
12.050853,0.5167,0.8164,-1.0437,-0.0533,1.4022,-0.4913,-14.0250,10.2750,-43.7250,
12.053397,0.6487,0.5576,-1.5010,-0.0533,1.4022,-0.4913,-14.0250,10.2750,-43.7250,
12.059617,0.6487,0.5576,-1.5010,-0.1707,1.5873,-0.3816,-14.0250,10.2750,-43.7250,
12.100898,0.6487,0.5576,-1.5010,-0.1707,1.5873,-0.3816,-14.0250,10.2750,-43.7250,
12.106384,1.0415,0.2719,-1.3485,-0.1707,1.5873,-0.3816,-14.0250,10.2750,-43.7250,
12.112277,1.0415,0.2719,-1.3485,-0.1707,1.5873,-0.3816,-10.1250,10.6500,-44.4750,
12.128744,1.0415,0.2719,-1.3485,-0.3114,1.5158,-0.3282,-10.1250,10.6500,-44.4750,
12.150054,1.0415,0.2719,-1.3485,-0.3114,1.5158,-0.3282,-10.1250,10.6500,-44.4750,
12.153861,0.4966,-0.3087,-0.7012,-0.3114,1.5158,-0.3282,-10.1250,10.6500,-44.4750,
12.169840,0.4966,-0.3087,-0.7012,-0.3114,1.5158,-0.3282,-5.7000,11.5500,-44.3250,
12.199382,0.4966,-0.3087,-0.7012,-0.3465,1.4868,-0.1984,-5.7000,11.5500,-44.3250,
12.203719,0.4966,-0.3087,-0.7012,-0.3465,1.4868,-0.1984,-5.7000,11.5500,-44.3250,
12.205454,0.6507,-0.1665,-0.0006,-0.3465,1.4868,-0.1984,-5.7000,11.5500,-44.3250,
12.241157,0.6507,-0.1665,-0.0006,-0.3465,1.4868,-0.1984,-1.8000,12.7500,-43.7250,
12.253286,0.6507,-0.1665,-0.0006,-0.3465,1.4868,-0.1984,-1.8000,12.7500,-43.7250,
12.258654,0.8662,0.0979,0.6927,-0.3465,1.4868,-0.1984,-1.8000,12.7500,-43.7250,
12.270065,0.8662,0.0979,0.6927,-0.1865,1.4349,-0.1110,-1.8000,12.7500,-43.7250,
12.300341,0.8662,0.0979,0.6927,-0.1865,1.4349,-0.1110,-1.8000,12.7500,-43.7250,
12.303010,1.0109,1.0346,-0.7202,-0.1865,1.4349,-0.1110,-1.8000,12.7500,-43.7250,
12.305531,1.0109,1.0346,-0.7202,-0.1865,1.4349,-0.1110,1.7250,13.3500,-42.8250,
12.339160,1.0109,1.0346,-0.7202,-0.2312,1.3040,-0.0476,1.7250,13.3500,-42.8250,
12.351258,1.0109,1.0346,-0.7202,-0.2312,1.3040,-0.0476,1.7250,13.3500,-42.8250,
12.356065,0.9273,0.9037,-0.2881,-0.2312,1.3040,-0.0476,1.7250,13.3500,-42.8250,
12.374159,0.9273,0.9037,-0.2881,-0.2312,1.3040,-0.0476,5.1000,14.5500,-42.3750,
12.397805,0.9273,0.9037,-0.2881,-0.2312,1.3040,-0.0476,5.1000,14.5500,-42.3750,
12.401188,0.6702,0.3747,0.6169,-0.2312,1.3040,-0.0476,5.1000,14.5500,-42.3750,
12.406858,0.6702,0.3747,0.6169,-0.3419,1.0641,-0.0110,5.1000,14.5500,-42.3750,
12.442813,0.6702,0.3747,0.6169,-0.3419,1.0641,-0.0110,8.7750,15.7500,-41.5500,
12.447726,0.6702,0.3747,0.6169,-0.3419,1.0641,-0.0110,8.7750,15.7500,-41.5500,
12.450602,0.8029,0.4827,0.7014,-0.3419,1.0641,-0.0110,8.7750,15.7500,-41.5500,
12.476380,0.8029,0.4827,0.7014,-0.2468,0.8126,0.0928,8.7750,15.7500,-41.5500,
12.497921,0.8029,0.4827,0.7014,-0.2468,0.8126,0.0928,8.7750,15.7500,-41.5500,
12.502115,0.9379,0.2761,0.1735,-0.2468,0.8126,0.0928,8.7750,15.7500,-41.5500,
12.515191,0.9379,0.2761,0.1735,-0.2468,0.8126,0.0928,11.1750,16.6500,-40.5750,
12.550055,0.9379,0.2761,0.1735,-0.4226,0.4917,0.1744,11.1750,16.6500,-40.5750,
12.554515,0.9379,0.2761,0.1735,-0.4226,0.4917,0.1744,11.1750,16.6500,-40.5750,
12.556686,0.5096,0.0949,0.4625,-0.4226,0.4917,0.1744,11.1750,16.6500,-40.5750,
12.585154,0.5096,0.0949,0.4625,-0.4226,0.4917,0.1744,12.4500,17.3250,-39.1500,
12.603575,0.5096,0.0949,0.4625,-0.4226,0.4917,0.1744,12.4500,17.3250,-39.1500,
12.607775,0.3543,-0.7910,0.6019,-0.4226,0.4917,0.1744,12.4500,17.3250,-39.1500,
12.622744,0.3543,-0.7910,0.6019,0.0365,0.4754,0.2750,12.4500,17.3250,-39.1500,
12.647302,0.3543,-0.7910,0.6019,0.0365,0.4754,0.2750,12.4500,17.3250,-39.1500,
12.651171,1.3370,-1.9773,-0.3806,0.0365,0.4754,0.2750,12.4500,17.3250,-39.1500,
12.653447,1.3370,-1.9773,-0.3806,0.0365,0.4754,0.2750,14.1000,17.1750,-37.9500,
12.686493,1.3370,-1.9773,-0.3806,0.1335,0.4571,0.1362,14.1000,17.1750,-37.9500,
12.700217,1.3370,-1.9773,-0.3806,0.1335,0.4571,0.1362,14.1000,17.1750,-37.9500,
12.701963,0.6977,-0.8007,-0.6277,0.1335,0.4571,0.1362,14.1000,17.1750,-37.9500,
12.720535,0.6977,-0.8007,-0.6277,0.1335,0.4571,0.1362,15.0750,16.5750,-38.7750,
12.745224,0.6977,-0.8007,-0.6277,0.1335,0.4571,0.1362,15.0750,16.5750,-38.7750,
12.748100,-0.3862,0.5853,-1.4639,0.1335,0.4571,0.1362,15.0750,16.5750,-38.7750,
12.754641,-0.3862,0.5853,-1.4639,0.2352,0.4592,0.0675,15.0750,16.5750,-38.7750,
12.790573,-0.3862,0.5853,-1.4639,0.2352,0.4592,0.0675,16.3500,15.7500,-38.1750,
12.794545,-0.3862,0.5853,-1.4639,0.2352,0.4592,0.0675,16.3500,15.7500,-38.1750,
12.796524,-0.9793,0.3085,-1.0859,0.2352,0.4592,0.0675,16.3500,15.7500,-38.1750,
12.823646,-0.9793,0.3085,-1.0859,0.2616,0.6504,0.1223,16.3500,15.7500,-38.1750,
12.843334,-0.9793,0.3085,-1.0859,0.2616,0.6504,0.1223,16.3500,15.7500,-38.1750,
12.846600,-0.9959,-0.5262,-1.0624,0.2616,0.6504,0.1223,16.3500,15.7500,-38.1750,
12.860634,-0.9959,-0.5262,-1.0624,0.2616,0.6504,0.1223,18.5250,15.7500,-37.5750,
12.892336,-0.9959,-0.5262,-1.0624,0.0657,0.5901,0.2107,18.5250,15.7500,-37.5750,
12.896599,-0.9959,-0.5262,-1.0624,0.0657,0.5901,0.2107,18.5250,15.7500,-37.5750,
12.898719,-1.0252,0.9556,-0.6913,0.0657,0.5901,0.2107,18.5250,15.7500,-37.5750,
12.931180,-1.0252,0.9556,-0.6913,0.0657,0.5901,0.2107,20.2500,14.8500,-36.3750,
12.948847,-1.0252,0.9556,-0.6913,0.0657,0.5901,0.2107,20.2500,14.8500,-36.3750,
12.952751,-1.0090,0.7887,-0.0935,0.0657,0.5901,0.2107,20.2500,14.8500,-36.3750,
12.964964,-1.0090,0.7887,-0.0935,0.0315,0.2640,0.0046,20.2500,14.8500,-36.3750,
12.994335,-1.0090,0.7887,-0.0935,0.0315,0.2640,0.0046,20.2500,14.8500,-36.3750,
12.998217,-0.8036,0.3550,-0.0037,0.0315,0.2640,0.0046,20.2500,14.8500,-36.3750,
13.001199,-0.8036,0.3550,-0.0037,0.0315,0.2640,0.0046,20.7750,14.8500,-36.1500,
13.034827,-0.8036,0.3550,-0.0037,0.0312,0.0947,-0.0292,20.7750,14.8500,-36.1500,
13.044943,-0.8036,0.3550,-0.0037,0.0312,0.0947,-0.0292,20.7750,14.8500,-36.1500,
13.049734,-0.5911,0.2616,0.1238,0.0312,0.0947,-0.0292,20.7750,14.8500,-36.1500,
13.075462,-0.5911,0.2616,0.1238,0.0312,0.0947,-0.0292,21.1500,15.1500,-36.3750,
13.092259,-0.5911,0.2616,0.1238,0.0312,0.0947,-0.0292,21.1500,15.1500,-36.3750,
13.094701,-0.5737,0.5058,0.0919,0.0312,0.0947,-0.0292,21.1500,15.1500,-36.3750,
13.106093,-0.5737,0.5058,0.0919,-0.0273,-0.0788,-0.0620,21.1500,15.1500,-36.3750,
13.140375,-0.5737,0.5058,0.0919,-0.0273,-0.0788,-0.0620,20.8500,15.1500,-35.5500,
13.143398,-0.5737,0.5058,0.0919,-0.0273,-0.0788,-0.0620,20.8500,15.1500,-35.5500,
13.145193,-1.1657,0.4620,0.2246,-0.0273,-0.0788,-0.0620,20.8500,15.1500,-35.5500,
13.170110,-1.1657,0.4620,0.2246,0.0174,-0.1226,-0.0889,20.8500,15.1500,-35.5500,
13.196282,-1.1657,0.4620,0.2246,0.0174,-0.1226,-0.0889,20.8500,15.1500,-35.5500,
13.198621,-1.0018,-0.4344,0.5804,0.0174,-0.1226,-0.0889,20.8500,15.1500,-35.5500,
13.209875,-1.0018,-0.4344,0.5804,0.0174,-0.1226,-0.0889,20.8500,15.1500,-36.0750,
13.244193,-1.0018,-0.4344,0.5804,0.3380,0.0006,-0.2219,20.8500,15.1500,-36.0750,
13.249188,-1.0018,-0.4344,0.5804,0.3380,0.0006,-0.2219,20.8500,15.1500,-36.0750,
13.252438,-0.2482,-0.6145,0.4886,0.3380,0.0006,-0.2219,20.8500,15.1500,-36.0750,
13.280622,-0.2482,-0.6145,0.4886,0.3380,0.0006,-0.2219,20.4750,14.2500,-36.7500,
13.293458,-0.2482,-0.6145,0.4886,0.3380,0.0006,-0.2219,20.4750,14.2500,-36.7500,
13.297395,0.0153,-2.7491,-1.0660,0.3380,0.0006,-0.2219,20.4750,14.2500,-36.7500,
13.316453,0.0153,-2.7491,-1.0660,0.2395,-0.0768,-0.4287,20.4750,14.2500,-36.7500,
13.342480,0.0153,-2.7491,-1.0660,0.2395,-0.0768,-0.4287,20.4750,14.2500,-36.7500,
13.346354,-0.9927,-1.0799,-1.6595,0.2395,-0.0768,-0.4287,20.4750,14.2500,-36.7500,
13.349960,-0.9927,-1.0799,-1.6595,0.2395,-0.0768,-0.4287,19.3500,14.2500,-37.6500,
13.380581,-0.9927,-1.0799,-1.6595,-0.0157,0.0046,-0.1054,19.3500,14.2500,-37.6500,
13.390485,-0.9927,-1.0799,-1.6595,-0.0157,0.0046,-0.1054,19.3500,14.2500,-37.6500,
13.392192,-0.7966,1.4386,-0.8704,-0.0157,0.0046,-0.1054,19.3500,14.2500,-37.6500,
13.420694,-0.7966,1.4386,-0.8704,-0.0157,0.0046,-0.1054,18.9750,15.1500,-37.6500,
13.439280,-0.7966,1.4386,-0.8704,-0.0157,0.0046,-0.1054,18.9750,15.1500,-37.6500,
13.442271,0.0701,1.7130,-1.5257,-0.0157,0.0046,-0.1054,18.9750,15.1500,-37.6500,
13.451160,0.0701,1.7130,-1.5257,0.2231,-0.1005,-0.0177,18.9750,15.1500,-37.6500,
13.488094,0.0701,1.7130,-1.5257,0.2231,-0.1005,-0.0177,18.9750,15.1500,-37.6500,
13.490728,-0.4058,-1.5016,-1.4204,0.2231,-0.1005,-0.0177,18.9750,15.1500,-37.6500,
13.493269,-0.4058,-1.5016,-1.4204,0.2231,-0.1005,-0.0177,18.7500,14.7750,-38.2500,
13.517692,-0.4058,-1.5016,-1.4204,0.2231,-0.1005,-0.0177,18.7500,14.7750,-38.2500,
13.520642,0.4018,-0.4782,-1.7308,0.2231,-0.1005,-0.0177,18.7500,14.7750,-38.2500,
13.522291,0.4018,-0.4782,-1.7308,-0.2453,-0.5084,0.0483,18.7500,14.7750,-38.2500,
13.537462,0.4018,-0.4782,-1.7308,-0.2453,-0.5084,0.0483,18.7500,14.7750,-38.2500,
13.540421,0.5877,0.6559,-0.5257,-0.2453,-0.5084,0.0483,18.7500,14.7750,-38.2500,
13.557529,0.5877,0.6559,-0.5257,-0.2453,-0.5084,0.0483,18.7500,14.7750,-38.2500,
13.558899,0.1761,0.6647,-0.0304,-0.2453,-0.5084,0.0483,18.7500,14.7750,-38.2500,
13.559947,0.1761,0.6647,-0.0304,-0.2453,-0.5084,0.0483,17.4000,14.5500,-38.6250,
13.582793,0.1761,0.6647,-0.0304,-0.2453,-0.5084,0.0483,17.4000,14.5500,-38.6250,
13.585119,-0.0631,0.5872,-0.5869,-0.2453,-0.5084,0.0483,17.4000,14.5500,-38.6250,
13.591527,-0.0631,0.5872,-0.5869,-0.0754,-0.6060,0.0170,17.4000,14.5500,-38.6250,
13.601774,-0.0631,0.5872,-0.5869,-0.0754,-0.6060,0.0170,17.4000,14.5500,-38.6250,
13.603357,0.2393,0.8118,-0.1802,-0.0754,-0.6060,0.0170,17.4000,14.5500,-38.6250,
13.622265,0.2393,0.8118,-0.1802,-0.0754,-0.6060,0.0170,17.4000,14.5500,-38.6250,
13.625485,0.0680,0.9011,0.3433,-0.0754,-0.6060,0.0170,17.4000,14.5500,-38.6250,
13.633500,0.0680,0.9011,0.3433,-0.0754,-0.6060,0.0170,15.6750,15.1500,-39.9750,
13.640123,0.0680,0.9011,0.3433,-0.0754,-0.6060,0.0170,15.6750,15.1500,-39.9750,
13.641502,-0.2928,0.5462,-0.2952,-0.0754,-0.6060,0.0170,15.6750,15.1500,-39.9750,
13.658682,-0.2928,0.5462,-0.2952,0.2833,-0.6652,-0.0382,15.6750,15.1500,-39.9750,
13.661325,-0.2928,0.5462,-0.2952,0.2833,-0.6652,-0.0382,15.6750,15.1500,-39.9750,
13.662564,-0.5020,0.0477,-0.9074,0.2833,-0.6652,-0.0382,15.6750,15.1500,-39.9750,
13.680638,-0.5020,0.0477,-0.9074,0.2833,-0.6652,-0.0382,15.6750,15.1500,-39.9750,
13.684191,-0.2468,-0.1106,-0.8460,0.2833,-0.6652,-0.0382,15.6750,15.1500,-39.9750,
13.694480,-0.2468,-0.1106,-0.8460,0.2833,-0.6652,-0.0382,14.3250,14.5500,-40.6500,
13.703518,-0.2468,-0.1106,-0.8460,0.2833,-0.6652,-0.0382,14.3250,14.5500,-40.6500,
13.705647,-0.0169,0.0291,-0.0086,0.2833,-0.6652,-0.0382,14.3250,14.5500,-40.6500,
13.718115,-0.0169,0.0291,-0.0086,0.2833,-0.6652,-0.0382,14.3250,14.5500,-40.6500,
13.721233,0.0732,-0.1308,0.5969,0.2833,-0.6652,-0.0382,14.3250,14.5500,-40.6500,
13.731476,0.0732,-0.1308,0.5969,-0.0034,-0.8178,0.0944,14.3250,14.5500,-40.6500,
13.737593,0.0732,-0.1308,0.5969,-0.0034,-0.8178,0.0944,14.3250,14.5500,-40.6500,
13.740297,0.3980,-0.3777,-0.4689,-0.0034,-0.8178,0.0944,14.3250,14.5500,-40.6500,
13.756945,0.3980,-0.3777,-0.4689,-0.0034,-0.8178,0.0944,14.3250,14.5500,-40.6500,
13.759638,0.5853,0.3131,-0.5972,-0.0034,-0.8178,0.0944,14.3250,14.5500,-40.6500,
13.768540,0.5853,0.3131,-0.5972,-0.0034,-0.8178,0.0944,12.7500,13.8750,-41.5500,
13.777113,0.5853,0.3131,-0.5972,-0.0034,-0.8178,0.0944,12.7500,13.8750,-41.5500,
13.778047,0.4654,0.6542,0.3847,-0.0034,-0.8178,0.0944,12.7500,13.8750,-41.5500,
13.796757,0.4654,0.6542,0.3847,-0.0034,-0.8178,0.0944,12.7500,13.8750,-41.5500,
13.797976,0.0442,0.1314,1.0137,-0.0034,-0.8178,0.0944,12.7500,13.8750,-41.5500,
13.798937,0.0442,0.1314,1.0137,-0.0449,-0.7631,0.0910,12.7500,13.8750,-41.5500,
13.815695,0.0442,0.1314,1.0137,-0.0449,-0.7631,0.0910,12.7500,13.8750,-41.5500,
13.816791,-0.2622,0.0750,0.6307,-0.0449,-0.7631,0.0910,12.7500,13.8750,-41.5500,
13.836182,-0.2622,0.0750,0.6307,-0.0449,-0.7631,0.0910,9.2250,14.0250,-42.6750,
13.839784,-0.2622,0.0750,0.6307,-0.0449,-0.7631,0.0910,9.2250,14.0250,-42.6750,
13.841129,-0.2318,0.3869,0.2026,-0.0449,-0.7631,0.0910,9.2250,14.0250,-42.6750,
13.859470,-0.2318,0.3869,0.2026,-0.0449,-0.7631,0.0910,9.2250,14.0250,-42.6750,
13.862592,0.0458,0.7105,0.4085,-0.0449,-0.7631,0.0910,9.2250,14.0250,-42.6750,
13.869289,0.0458,0.7105,0.4085,-0.0029,-0.6990,0.1156,9.2250,14.0250,-42.6750,
13.882925,0.0458,0.7105,0.4085,-0.0029,-0.6990,0.1156,9.2250,14.0250,-42.6750,
13.884797,0.1677,0.7338,0.4675,-0.0029,-0.6990,0.1156,9.2250,14.0250,-42.6750,
13.899732,0.1677,0.7338,0.4675,-0.0029,-0.6990,0.1156,9.2250,14.0250,-42.6750,
13.902019,0.0646,0.6679,0.5650,-0.0029,-0.6990,0.1156,9.2250,14.0250,-42.6750,
13.904021,0.0646,0.6679,0.5650,-0.0029,-0.6990,0.1156,7.8750,13.8750,-43.5750,
13.918456,0.0646,0.6679,0.5650,-0.0029,-0.6990,0.1156,7.8750,13.8750,-43.5750,
13.921913,-0.1060,0.6049,0.8670,-0.0029,-0.6990,0.1156,7.8750,13.8750,-43.5750,
13.937992,-0.1060,0.6049,0.8670,0.0246,-0.8208,0.1090,7.8750,13.8750,-43.5750,
13.940938,-0.1060,0.6049,0.8670,0.0246,-0.8208,0.1090,7.8750,13.8750,-43.5750,
13.942518,-0.1853,0.4192,1.0106,0.0246,-0.8208,0.1090,7.8750,13.8750,-43.5750,
13.958199,-0.1853,0.4192,1.0106,0.0246,-0.8208,0.1090,7.8750,13.8750,-43.5750,
13.961343,0.0300,0.1672,0.8356,0.0246,-0.8208,0.1090,7.8750,13.8750,-43.5750,
13.972503,0.0300,0.1672,0.8356,0.0246,-0.8208,0.1090,5.1750,13.3500,-44.4750,
13.976963,0.0300,0.1672,0.8356,0.0246,-0.8208,0.1090,5.1750,13.3500,-44.4750,
13.978493,0.2802,0.1061,0.6678,0.0246,-0.8208,0.1090,5.1750,13.3500,-44.4750,
13.997045,0.2802,0.1061,0.6678,0.0246,-0.8208,0.1090,5.1750,13.3500,-44.4750,
14.001359,0.3191,0.0691,0.4651,0.0246,-0.8208,0.1090,5.1750,13.3500,-44.4750,
14.005959,0.3191,0.0691,0.4651,0.2449,-0.9125,0.1990,5.1750,13.3500,-44.4750,
14.016512,0.3191,0.0691,0.4651,0.2449,-0.9125,0.1990,5.1750,13.3500,-44.4750,
14.018717,0.3169,0.1437,0.4254,0.2449,-0.9125,0.1990,5.1750,13.3500,-44.4750,
14.036110,0.3169,0.1437,0.4254,0.2449,-0.9125,0.1990,5.1750,13.3500,-44.4750,
14.038769,0.4167,0.1653,0.4469,0.2449,-0.9125,0.1990,5.1750,13.3500,-44.4750,
14.040799,0.4167,0.1653,0.4469,0.2449,-0.9125,0.1990,2.1000,12.1500,-45.9750,
14.055250,0.4167,0.1653,0.4469,0.2449,-0.9125,0.1990,2.1000,12.1500,-45.9750,
14.057749,0.6451,0.1784,0.3818,0.2449,-0.9125,0.1990,2.1000,12.1500,-45.9750,
14.074878,0.6451,0.1784,0.3818,0.2931,-0.8972,0.2868,2.1000,12.1500,-45.9750,
14.078176,0.6451,0.1784,0.3818,0.2931,-0.8972,0.2868,2.1000,12.1500,-45.9750,
14.079717,0.9829,0.1930,0.2974,0.2931,-0.8972,0.2868,2.1000,12.1500,-45.9750,
14.099136,0.9829,0.1930,0.2974,0.2931,-0.8972,0.2868,2.1000,12.1500,-45.9750,
14.100852,1.2476,-0.0199,0.2878,0.2931,-0.8972,0.2868,2.1000,12.1500,-45.9750,
14.115272,1.2476,-0.0199,0.2878,0.2931,-0.8972,0.2868,0.0750,11.5500,-46.0500,
14.119654,1.2476,-0.0199,0.2878,0.2931,-0.8972,0.2868,0.0750,11.5500,-46.0500,
14.121179,0.9481,-0.6939,0.1956,0.2931,-0.8972,0.2868,0.0750,11.5500,-46.0500,
14.139287,0.9481,-0.6939,0.1956,0.2931,-0.8972,0.2868,0.0750,11.5500,-46.0500,
14.141386,-0.1225,-2.9667,-1.5393,0.2931,-0.8972,0.2868,0.0750,11.5500,-46.0500,
14.148533,-0.1225,-2.9667,-1.5393,0.2842,-0.6684,0.3489,0.0750,11.5500,-46.0500,
14.160356,-0.1225,-2.9667,-1.5393,0.2842,-0.6684,0.3489,0.0750,11.5500,-46.0500,
14.162288,-0.3121,-2.0662,-1.2761,0.2842,-0.6684,0.3489,0.0750,11.5500,-46.0500,
14.178776,-0.3121,-2.0662,-1.2761,0.2842,-0.6684,0.3489,0.0750,11.5500,-46.0500,
14.182993,0.3162,-2.8983,-0.6371,0.2842,-0.6684,0.3489,0.0750,11.5500,-46.0500,
14.185652,0.3162,-2.8983,-0.6371,0.2842,-0.6684,0.3489,-1.6500,11.1750,-46.2750,
14.197974,0.3162,-2.8983,-0.6371,0.2842,-0.6684,0.3489,-1.6500,11.1750,-46.2750,
14.200755,1.0083,-2.0108,-0.4841,0.2842,-0.6684,0.3489,-1.6500,11.1750,-46.2750,
14.216705,1.0083,-2.0108,-0.4841,-0.2650,-0.2533,0.3239,-1.6500,11.1750,-46.2750,
14.221617,1.0083,-2.0108,-0.4841,-0.2650,-0.2533,0.3239,-1.6500,11.1750,-46.2750,
14.223146,1.0308,-0.6266,-0.1513,-0.2650,-0.2533,0.3239,-1.6500,11.1750,-46.2750,
14.236839,1.0308,-0.6266,-0.1513,-0.2650,-0.2533,0.3239,-1.6500,11.1750,-46.2750,
14.239310,0.6903,0.2573,0.0637,-0.2650,-0.2533,0.3239,-1.6500,11.1750,-46.2750,
14.251208,0.6903,0.2573,0.0637,-0.2650,-0.2533,0.3239,-2.7000,11.7750,-46.8750,
14.256154,0.6903,0.2573,0.0637,-0.2650,-0.2533,0.3239,-2.7000,11.7750,-46.8750,
14.257555,0.1472,1.3106,-0.2128,-0.2650,-0.2533,0.3239,-2.7000,11.7750,-46.8750,
14.276367,0.1472,1.3106,-0.2128,-0.2650,-0.2533,0.3239,-2.7000,11.7750,-46.8750,
14.278939,-0.5666,1.8386,-0.8771,-0.2650,-0.2533,0.3239,-2.7000,11.7750,-46.8750,
14.287805,-0.5666,1.8386,-0.8771,-0.1029,-0.3714,0.1063,-2.7000,11.7750,-46.8750,
14.299719,-0.5666,1.8386,-0.8771,-0.1029,-0.3714,0.1063,-2.7000,11.7750,-46.8750,
14.302171,-1.1485,1.6920,-1.3110,-0.1029,-0.3714,0.1063,-2.7000,11.7750,-46.8750,
14.317467,-1.1485,1.6920,-1.3110,-0.1029,-0.3714,0.1063,-2.7000,11.7750,-46.8750,
14.319329,-1.7133,1.2894,-1.5938,-0.1029,-0.3714,0.1063,-2.7000,11.7750,-46.8750,
14.321140,-1.7133,1.2894,-1.5938,-0.1029,-0.3714,0.1063,-4.1250,11.3250,-46.3500,
14.333944,-1.7133,1.2894,-1.5938,-0.1029,-0.3714,0.1063,-4.1250,11.3250,-46.3500,
14.335662,-2.4895,0.9350,-1.8202,-0.1029,-0.3714,0.1063,-4.1250,11.3250,-46.3500,
14.353186,-2.4895,0.9350,-1.8202,-0.1483,-0.4629,0.1487,-4.1250,11.3250,-46.3500,
14.355078,-2.4895,0.9350,-1.8202,-0.1483,-0.4629,0.1487,-4.1250,11.3250,-46.3500,
14.356266,-2.9581,0.1611,-1.8374,-0.1483,-0.4629,0.1487,-4.1250,11.3250,-46.3500,
14.373981,-2.9581,0.1611,-1.8374,-0.1483,-0.4629,0.1487,-4.1250,11.3250,-46.3500,
14.377378,-2.6652,-0.8785,-1.5971,-0.1483,-0.4629,0.1487,-4.1250,11.3250,-46.3500,
14.390738,-2.6652,-0.8785,-1.5971,-0.1483,-0.4629,0.1487,-4.8000,12.0750,-46.3500,
14.397169,-2.6652,-0.8785,-1.5971,-0.1483,-0.4629,0.1487,-4.8000,12.0750,-46.3500,
14.400263,-1.6775,-0.9670,-1.1561,-0.1483,-0.4629,0.1487,-4.8000,12.0750,-46.3500,
14.416898,-1.6775,-0.9670,-1.1561,-0.1483,-0.4629,0.1487,-4.8000,12.0750,-46.3500,
14.419788,-0.6820,-0.7944,-1.0166,-0.1483,-0.4629,0.1487,-4.8000,12.0750,-46.3500,
14.422131,-0.6820,-0.7944,-1.0166,-0.2034,-0.3230,0.3008,-4.8000,12.0750,-46.3500,
14.433366,-0.6820,-0.7944,-1.0166,-0.2034,-0.3230,0.3008,-4.8000,12.0750,-46.3500,
14.435408,-0.3025,-0.2991,-0.7346,-0.2034,-0.3230,0.3008,-4.8000,12.0750,-46.3500,
14.452673,-0.3025,-0.2991,-0.7346,-0.2034,-0.3230,0.3008,-4.8000,12.0750,-46.3500,
14.454396,-0.4530,0.1312,-0.1645,-0.2034,-0.3230,0.3008,-4.8000,12.0750,-46.3500,
14.460421,-0.4530,0.1312,-0.1645,-0.2034,-0.3230,0.3008,-5.6250,12.1500,-45.6750,
14.477161,-0.4530,0.1312,-0.1645,-0.2034,-0.3230,0.3008,-5.6250,12.1500,-45.6750,
14.479085,-0.6764,0.4475,0.2715,-0.2034,-0.3230,0.3008,-5.6250,12.1500,-45.6750,
14.496434,-0.6764,0.4475,0.2715,-0.0531,-0.4262,0.1286,-5.6250,12.1500,-45.6750,
14.498442,-0.6764,0.4475,0.2715,-0.0531,-0.4262,0.1286,-5.6250,12.1500,-45.6750,
14.499687,-0.8025,0.6310,0.1402,-0.0531,-0.4262,0.1286,-5.6250,12.1500,-45.6750,
14.517859,-0.8025,0.6310,0.1402,-0.0531,-0.4262,0.1286,-5.6250,12.1500,-45.6750,
14.519274,-0.9223,0.8051,-0.1558,-0.0531,-0.4262,0.1286,-5.6250,12.1500,-45.6750,
14.533835,-0.9223,0.8051,-0.1558,-0.0531,-0.4262,0.1286,-7.1250,12.6750,-46.3500,
14.538210,-0.9223,0.8051,-0.1558,-0.0531,-0.4262,0.1286,-7.1250,12.6750,-46.3500,
14.539278,-0.9645,0.6873,-0.2983,-0.0531,-0.4262,0.1286,-7.1250,12.6750,-46.3500,
14.554620,-0.9645,0.6873,-0.2983,-0.0531,-0.4262,0.1286,-7.1250,12.6750,-46.3500,
14.555654,-0.9371,0.1294,-0.1737,-0.0531,-0.4262,0.1286,-7.1250,12.6750,-46.3500,
14.567342,-0.9371,0.1294,-0.1737,0.0646,-0.4050,0.1107,-7.1250,12.6750,-46.3500,
14.574848,-0.9371,0.1294,-0.1737,0.0646,-0.4050,0.1107,-7.1250,12.6750,-46.3500,
14.575641,-0.8188,-0.2818,-0.0919,0.0646,-0.4050,0.1107,-7.1250,12.6750,-46.3500,
14.594821,-0.8188,-0.2818,-0.0919,0.0646,-0.4050,0.1107,-7.1250,12.6750,-46.3500,
14.596465,-0.7861,-0.2075,-0.0697,0.0646,-0.4050,0.1107,-7.1250,12.6750,-46.3500,
14.601975,-0.7861,-0.2075,-0.0697,0.0646,-0.4050,0.1107,-7.8750,12.8250,-46.2750,
14.614436,-0.7861,-0.2075,-0.0697,0.0646,-0.4050,0.1107,-7.8750,12.8250,-46.2750,
14.616573,-1.0223,0.0086,-0.1309,0.0646,-0.4050,0.1107,-7.8750,12.8250,-46.2750,
14.633707,-1.0223,0.0086,-0.1309,0.0646,-0.4050,0.1107,-7.8750,12.8250,-46.2750,
14.635655,-1.0706,0.2323,-0.1416,0.0646,-0.4050,0.1107,-7.8750,12.8250,-46.2750,
14.637463,-1.0706,0.2323,-0.1416,0.0663,-0.3048,0.1080,-7.8750,12.8250,-46.2750,
14.653039,-1.0706,0.2323,-0.1416,0.0663,-0.3048,0.1080,-7.8750,12.8250,-46.2750,
14.654706,-1.0435,0.4128,-0.0966,0.0663,-0.3048,0.1080,-7.8750,12.8250,-46.2750,
14.671797,-1.0435,0.4128,-0.0966,0.0663,-0.3048,0.1080,-8.9250,11.8500,-45.6750,
14.675008,-1.0435,0.4128,-0.0966,0.0663,-0.3048,0.1080,-8.9250,11.8500,-45.6750,
14.677189,-1.0168,0.4799,-0.1270,0.0663,-0.3048,0.1080,-8.9250,11.8500,-45.6750,
14.692286,-1.0168,0.4799,-0.1270,0.0663,-0.3048,0.1080,-8.9250,11.8500,-45.6750,
14.694734,-0.9994,0.4724,-0.0188,0.0663,-0.3048,0.1080,-8.9250,11.8500,-45.6750,
14.703577,-0.9994,0.4724,-0.0188,0.0079,-0.2828,0.1622,-8.9250,11.8500,-45.6750,
14.710743,-0.9994,0.4724,-0.0188,0.0079,-0.2828,0.1622,-8.9250,11.8500,-45.6750,
14.712659,-0.9801,0.4209,0.0739,0.0079,-0.2828,0.1622,-8.9250,11.8500,-45.6750,
14.735423,-0.9801,0.4209,0.0739,0.0079,-0.2828,0.1622,-8.9250,11.8500,-45.6750,
14.738531,-0.8428,0.3759,0.1616,0.0079,-0.2828,0.1622,-8.9250,11.8500,-45.6750,
14.740877,-0.8428,0.3759,0.1616,0.0079,-0.2828,0.1622,-9.9000,12.7500,-46.0500,
14.755432,-0.8428,0.3759,0.1616,0.0079,-0.2828,0.1622,-9.9000,12.7500,-46.0500,
14.759654,-0.6973,0.4097,0.1419,0.0079,-0.2828,0.1622,-9.9000,12.7500,-46.0500,
14.773896,-0.6973,0.4097,0.1419,-0.0761,-0.2511,0.1115,-9.9000,12.7500,-46.0500,
14.776438,-0.6973,0.4097,0.1419,-0.0761,-0.2511,0.1115,-9.9000,12.7500,-46.0500,
14.777717,-0.6411,0.4008,-0.0133,-0.0761,-0.2511,0.1115,-9.9000,12.7500,-46.0500,
14.793888,-0.6411,0.4008,-0.0133,-0.0761,-0.2511,0.1115,-9.9000,12.7500,-46.0500,
14.796498,-0.5853,0.3631,0.1151,-0.0761,-0.2511,0.1115,-9.9000,12.7500,-46.0500,
14.809854,-0.5853,0.3631,0.1151,-0.0761,-0.2511,0.1115,-10.6500,13.0500,-45.5250,
14.818012,-0.5853,0.3631,0.1151,-0.0761,-0.2511,0.1115,-10.6500,13.0500,-45.5250,
14.820453,-0.4874,0.2517,0.5545,-0.0761,-0.2511,0.1115,-10.6500,13.0500,-45.5250,
14.833092,-0.4874,0.2517,0.5545,-0.0761,-0.2511,0.1115,-10.6500,13.0500,-45.5250,
14.835240,-0.5150,0.0534,0.6108,-0.0761,-0.2511,0.1115,-10.6500,13.0500,-45.5250,
14.842223,-0.5150,0.0534,0.6108,-0.1457,-0.1367,0.0174,-10.6500,13.0500,-45.5250,
14.853069,-0.5150,0.0534,0.6108,-0.1457,-0.1367,0.0174,-10.6500,13.0500,-45.5250,
14.855329,-0.8019,0.2287,0.5279,-0.1457,-0.1367,0.0174,-10.6500,13.0500,-45.5250,
14.872411,-0.8019,0.2287,0.5279,-0.1457,-0.1367,0.0174,-10.6500,13.0500,-45.5250,
14.875960,-1.1515,0.2698,0.4907,-0.1457,-0.1367,0.0174,-10.6500,13.0500,-45.5250,
14.884495,-1.1515,0.2698,0.4907,-0.1457,-0.1367,0.0174,-11.2500,12.8250,-45.5250,
14.891771,-1.1515,0.2698,0.4907,-0.1457,-0.1367,0.0174,-11.2500,12.8250,-45.5250,
14.893970,-1.3599,0.2138,0.5718,-0.1457,-0.1367,0.0174,-11.2500,12.8250,-45.5250,
14.912314,-1.3599,0.2138,0.5718,-0.0357,-0.2489,-0.1136,-11.2500,12.8250,-45.5250,
14.914959,-1.3599,0.2138,0.5718,-0.0357,-0.2489,-0.1136,-11.2500,12.8250,-45.5250,
14.916260,-1.2427,0.1783,0.6497,-0.0357,-0.2489,-0.1136,-11.2500,12.8250,-45.5250,
14.932601,-1.2427,0.1783,0.6497,-0.0357,-0.2489,-0.1136,-11.2500,12.8250,-45.5250,
14.934432,-0.9951,0.1699,0.7413,-0.0357,-0.2489,-0.1136,-11.2500,12.8250,-45.5250,
14.950479,-0.9951,0.1699,0.7413,-0.0357,-0.2489,-0.1136,-11.2500,12.8250,-45.5250,
14.953570,-0.8284,-0.0469,0.8662,-0.0357,-0.2489,-0.1136,-11.2500,12.8250,-45.5250,
14.955692,-0.8284,-0.0469,0.8662,-0.0357,-0.2489,-0.1136,-11.9250,13.0500,-45.0750,
14.975003,-0.8284,-0.0469,0.8662,-0.0357,-0.2489,-0.1136,-11.9250,13.0500,-45.0750,
14.978257,-0.8330,-0.1682,0.8695,-0.0357,-0.2489,-0.1136,-11.9250,13.0500,-45.0750,
14.984674,-0.8330,-0.1682,0.8695,0.0602,-0.2863,-0.1955,-11.9250,13.0500,-45.0750,
14.998790,-0.8330,-0.1682,0.8695,0.0602,-0.2863,-0.1955,-11.9250,13.0500,-45.0750,
15.002017,-1.0552,-0.0732,0.5892,0.0602,-0.2863,-0.1955,-11.9250,13.0500,-45.0750,
15.015774,-1.0552,-0.0732,0.5892,0.0602,-0.2863,-0.1955,-11.9250,13.0500,-45.0750,
15.018829,-1.1856,-0.1030,0.5542,0.0602,-0.2863,-0.1955,-11.9250,13.0500,-45.0750,
15.021258,-1.1856,-0.1030,0.5542,0.0602,-0.2863,-0.1955,-13.2750,12.7500,-45.0750,
15.034009,-1.1856,-0.1030,0.5542,0.0602,-0.2863,-0.1955,-13.2750,12.7500,-45.0750,
15.036679,-1.1120,-0.0379,0.5622,0.0602,-0.2863,-0.1955,-13.2750,12.7500,-45.0750,
15.053276,-1.1120,-0.0379,0.5622,0.1374,-0.3415,-0.2782,-13.2750,12.7500,-45.0750,
15.056695,-1.1120,-0.0379,0.5622,0.1374,-0.3415,-0.2782,-13.2750,12.7500,-45.0750,
15.058263,-0.9289,0.0740,0.5190,0.1374,-0.3415,-0.2782,-13.2750,12.7500,-45.0750,
15.072815,-0.9289,0.0740,0.5190,0.1374,-0.3415,-0.2782,-13.2750,12.7500,-45.0750,
15.075508,-0.1123,-0.3588,0.6113,0.1374,-0.3415,-0.2782,-13.2750,12.7500,-45.0750,
15.090300,-0.1123,-0.3588,0.6113,0.1374,-0.3415,-0.2782,-14.8500,11.8500,-44.9250,
15.093735,-0.1123,-0.3588,0.6113,0.1374,-0.3415,-0.2782,-14.8500,11.8500,-44.9250,
15.095000,0.0761,-3.5576,-1.1676,0.1374,-0.3415,-0.2782,-14.8500,11.8500,-44.9250,
15.112076,0.0761,-3.5576,-1.1676,0.1374,-0.3415,-0.2782,-14.8500,11.8500,-44.9250,
15.115329,-1.4972,-2.3789,-0.9196,0.1374,-0.3415,-0.2782,-14.8500,11.8500,-44.9250,
15.121464,-1.4972,-2.3789,-0.9196,0.2005,-0.4930,-0.3317,-14.8500,11.8500,-44.9250,
15.133892,-1.4972,-2.3789,-0.9196,0.2005,-0.4930,-0.3317,-14.8500,11.8500,-44.9250,
15.136222,-1.1545,-1.9299,0.3086,0.2005,-0.4930,-0.3317,-14.8500,11.8500,-44.9250,
15.150640,-1.1545,-1.9299,0.3086,0.2005,-0.4930,-0.3317,-14.8500,11.8500,-44.9250,
15.152719,0.1155,-1.7406,0.4421,0.2005,-0.4930,-0.3317,-14.8500,11.8500,-44.9250,
15.159723,0.1155,-1.7406,0.4421,0.2005,-0.4930,-0.3317,-16.6500,11.5500,-44.0250,
15.170244,0.1155,-1.7406,0.4421,0.2005,-0.4930,-0.3317,-16.6500,11.5500,-44.0250,
15.172695,0.9333,-0.3351,-0.2552,0.2005,-0.4930,-0.3317,-16.6500,11.5500,-44.0250,
15.189328,0.9333,-0.3351,-0.2552,0.3019,-0.8781,-0.3181,-16.6500,11.5500,-44.0250,
15.191748,0.9333,-0.3351,-0.2552,0.3019,-0.8781,-0.3181,-16.6500,11.5500,-44.0250,
15.193034,0.3671,1.0406,-1.4408,0.3019,-0.8781,-0.3181,-16.6500,11.5500,-44.0250,
15.210125,0.3671,1.0406,-1.4408,0.3019,-0.8781,-0.3181,-16.6500,11.5500,-44.0250,
15.211312,-0.8495,1.1581,-1.9944,0.3019,-0.8781,-0.3181,-16.6500,11.5500,-44.0250,
15.230404,-0.8495,1.1581,-1.9944,0.3019,-0.8781,-0.3181,-19.2000,9.9750,-42.8250,
15.233072,-0.8495,1.1581,-1.9944,0.3019,-0.8781,-0.3181,-19.2000,9.9750,-42.8250,
15.234431,-1.6097,0.7020,-2.2908,0.3019,-0.8781,-0.3181,-19.2000,9.9750,-42.8250,
15.249638,-1.6097,0.7020,-2.2908,0.3019,-0.8781,-0.3181,-19.2000,9.9750,-42.8250,
15.251417,-1.0637,0.7883,-2.4093,0.3019,-0.8781,-0.3181,-19.2000,9.9750,-42.8250,
15.259409,-1.0637,0.7883,-2.4093,0.1912,-0.8398,-0.0994,-19.2000,9.9750,-42.8250,
15.271036,-1.0637,0.7883,-2.4093,0.1912,-0.8398,-0.0994,-19.2000,9.9750,-42.8250,
15.273086,0.4522,0.6084,-2.4427,0.1912,-0.8398,-0.0994,-19.2000,9.9750,-42.8250,
15.289023,0.4522,0.6084,-2.4427,0.1912,-0.8398,-0.0994,-19.2000,9.9750,-42.8250,
15.292191,1.0240,-0.4154,-2.5073,0.1912,-0.8398,-0.0994,-19.2000,9.9750,-42.8250,
15.301452,1.0240,-0.4154,-2.5073,0.1912,-0.8398,-0.0994,-21.9000,8.9250,-42.1500,
15.307416,1.0240,-0.4154,-2.5073,0.1912,-0.8398,-0.0994,-21.9000,8.9250,-42.1500,
15.309303,0.7330,-0.4128,-1.8171,0.1912,-0.8398,-0.0994,-21.9000,8.9250,-42.1500,
15.327012,0.7330,-0.4128,-1.8171,-0.0322,-1.0554,-0.0345,-21.9000,8.9250,-42.1500,
15.330021,0.7330,-0.4128,-1.8171,-0.0322,-1.0554,-0.0345,-21.9000,8.9250,-42.1500,
15.331498,0.3536,-0.1068,-1.2737,-0.0322,-1.0554,-0.0345,-21.9000,8.9250,-42.1500,
15.347032,0.3536,-0.1068,-1.2737,-0.0322,-1.0554,-0.0345,-21.9000,8.9250,-42.1500,
15.349694,0.1218,0.2065,-0.9889,-0.0322,-1.0554,-0.0345,-21.9000,8.9250,-42.1500,
15.368498,0.1218,0.2065,-0.9889,-0.0322,-1.0554,-0.0345,-24.8250,9.0750,-40.3500,
15.371612,0.1218,0.2065,-0.9889,-0.0322,-1.0554,-0.0345,-24.8250,9.0750,-40.3500,
15.373594,0.1654,0.5987,-0.7778,-0.0322,-1.0554,-0.0345,-24.8250,9.0750,-40.3500,
15.385464,0.1654,0.5987,-0.7778,-0.0322,-1.0554,-0.0345,-24.8250,9.0750,-40.3500,
15.387626,0.3743,0.6994,-0.5201,-0.0322,-1.0554,-0.0345,-24.8250,9.0750,-40.3500,
15.400095,0.3743,0.6994,-0.5201,0.1107,-1.1426,0.0154,-24.8250,9.0750,-40.3500,
15.409738,0.3743,0.6994,-0.5201,0.1107,-1.1426,0.0154,-24.8250,9.0750,-40.3500,
15.411091,0.5572,0.3215,-0.4008,0.1107,-1.1426,0.0154,-24.8250,9.0750,-40.3500,
15.432269,0.5572,0.3215,-0.4008,0.1107,-1.1426,0.0154,-24.8250,9.0750,-40.3500,
15.435140,0.5091,0.1237,-0.5115,0.1107,-1.1426,0.0154,-24.8250,9.0750,-40.3500,
15.436998,0.5091,0.1237,-0.5115,0.1107,-1.1426,0.0154,-27.5250,8.3250,-39.1500,
15.450164,0.5091,0.1237,-0.5115,0.1107,-1.1426,0.0154,-27.5250,8.3250,-39.1500,
15.452012,0.3807,0.1469,-0.5909,0.1107,-1.1426,0.0154,-27.5250,8.3250,-39.1500,
15.468915,0.3807,0.1469,-0.5909,0.2153,-1.1030,0.0455,-27.5250,8.3250,-39.1500,
15.471443,0.3807,0.1469,-0.5909,0.2153,-1.1030,0.0455,-27.5250,8.3250,-39.1500,
15.473021,0.3102,0.2618,-0.5087,0.2153,-1.1030,0.0455,-27.5250,8.3250,-39.1500,
15.488679,0.3102,0.2618,-0.5087,0.2153,-1.1030,0.0455,-27.5250,8.3250,-39.1500,
15.490783,0.2580,0.4268,-0.4345,0.2153,-1.1030,0.0455,-27.5250,8.3250,-39.1500,
15.503536,0.2580,0.4268,-0.4345,0.2153,-1.1030,0.0455,-30.8250,7.3500,-37.3500,
15.507479,0.2580,0.4268,-0.4345,0.2153,-1.1030,0.0455,-30.8250,7.3500,-37.3500,
15.508836,0.1258,0.5385,-0.4031,0.2153,-1.1030,0.0455,-30.8250,7.3500,-37.3500,
15.527974,0.1258,0.5385,-0.4031,0.2153,-1.1030,0.0455,-30.8250,7.3500,-37.3500,
15.531574,0.0767,0.5459,-0.3251,0.2153,-1.1030,0.0455,-30.8250,7.3500,-37.3500,
15.537289,0.0767,0.5459,-0.3251,0.0767,-1.0736,0.0983,-30.8250,7.3500,-37.3500,
15.547406,0.0767,0.5459,-0.3251,0.0767,-1.0736,0.0983,-30.8250,7.3500,-37.3500,
15.550478,0.0160,0.3943,-0.2029,0.0767,-1.0736,0.0983,-30.8250,7.3500,-37.3500,
15.566871,0.0160,0.3943,-0.2029,0.0767,-1.0736,0.0983,-30.8250,7.3500,-37.3500,
15.569938,-0.0194,0.1970,-0.2550,0.0767,-1.0736,0.0983,-30.8250,7.3500,-37.3500,
15.572567,-0.0194,0.1970,-0.2550,0.0767,-1.0736,0.0983,-33.7500,6.7500,-35.1750,
15.586051,-0.0194,0.1970,-0.2550,0.0767,-1.0736,0.0983,-33.7500,6.7500,-35.1750,
15.588247,0.0297,0.2222,-0.2489,0.0767,-1.0736,0.0983,-33.7500,6.7500,-35.1750,
15.605899,0.0297,0.2222,-0.2489,-0.0524,-1.0752,0.1775,-33.7500,6.7500,-35.1750,
15.608191,0.0297,0.2222,-0.2489,-0.0524,-1.0752,0.1775,-33.7500,6.7500,-35.1750,
15.609747,0.0719,0.2512,0.0196,-0.0524,-1.0752,0.1775,-33.7500,6.7500,-35.1750,
15.625369,0.0719,0.2512,0.0196,-0.0524,-1.0752,0.1775,-33.7500,6.7500,-35.1750,
15.627344,0.0257,0.1267,0.1726,-0.0524,-1.0752,0.1775,-33.7500,6.7500,-35.1750,
15.639590,0.0257,0.1267,0.1726,-0.0524,-1.0752,0.1775,-36.4500,7.2750,-31.3500,
15.647180,0.0257,0.1267,0.1726,-0.0524,-1.0752,0.1775,-36.4500,7.2750,-31.3500,
15.649921,-0.0408,0.2801,0.1747,-0.0524,-1.0752,0.1775,-36.4500,7.2750,-31.3500,
15.669629,-0.0408,0.2801,0.1747,-0.0524,-1.0752,0.1775,-36.4500,7.2750,-31.3500,
15.671779,-0.0410,0.5954,0.3360,-0.0524,-1.0752,0.1775,-36.4500,7.2750,-31.3500,
15.674366,-0.0410,0.5954,0.3360,-0.0864,-1.0943,0.2350,-36.4500,7.2750,-31.3500,
15.684243,-0.0410,0.5954,0.3360,-0.0864,-1.0943,0.2350,-36.4500,7.2750,-31.3500,
15.686234,0.1222,0.7384,0.6147,-0.0864,-1.0943,0.2350,-36.4500,7.2750,-31.3500,
15.703450,0.1222,0.7384,0.6147,-0.0864,-1.0943,0.2350,-36.4500,7.2750,-31.3500,
15.705612,0.4777,0.6467,0.5928,-0.0864,-1.0943,0.2350,-36.4500,7.2750,-31.3500,
15.710007,0.4777,0.6467,0.5928,-0.0864,-1.0943,0.2350,-38.1000,7.8750,-28.9500,
15.723132,0.4777,0.6467,0.5928,-0.0864,-1.0943,0.2350,-38.1000,7.8750,-28.9500,
15.725714,0.8194,0.5199,0.4893,-0.0864,-1.0943,0.2350,-38.1000,7.8750,-28.9500,
15.742273,0.8194,0.5199,0.4893,-0.0041,-1.0962,0.2188,-38.1000,7.8750,-28.9500,
15.746182,0.8194,0.5199,0.4893,-0.0041,-1.0962,0.2188,-38.1000,7.8750,-28.9500,
15.747938,1.0381,0.4547,0.4471,-0.0041,-1.0962,0.2188,-38.1000,7.8750,-28.9500,
15.768186,1.0381,0.4547,0.4471,-0.0041,-1.0962,0.2188,-38.1000,7.8750,-28.9500,
15.770584,1.2264,0.2383,0.6408,-0.0041,-1.0962,0.2188,-38.1000,7.8750,-28.9500,
15.782356,1.2264,0.2383,0.6408,-0.0041,-1.0962,0.2188,-39.3750,7.7250,-25.6500,
15.784674,1.2264,0.2383,0.6408,-0.0041,-1.0962,0.2188,-39.3750,7.7250,-25.6500,
15.785954,1.2641,-0.0714,0.8949,-0.0041,-1.0962,0.2188,-39.3750,7.7250,-25.6500,
15.801274,1.2641,-0.0714,0.8949,-0.0041,-1.0962,0.2188,-39.3750,7.7250,-25.6500,
15.803536,1.0303,-0.0763,0.7729,-0.0041,-1.0962,0.2188,-39.3750,7.7250,-25.6500,
15.816234,1.0303,-0.0763,0.7729,0.0725,-0.8682,0.2431,-39.3750,7.7250,-25.6500,
15.825793,1.0303,-0.0763,0.7729,0.0725,-0.8682,0.2431,-39.3750,7.7250,-25.6500,
15.827110,0.6005,0.1019,0.3110,0.0725,-0.8682,0.2431,-39.3750,7.7250,-25.6500,
15.845893,0.6005,0.1019,0.3110,0.0725,-0.8682,0.2431,-39.3750,7.7250,-25.6500,
15.848741,0.4427,0.1340,0.2790,0.0725,-0.8682,0.2431,-39.3750,7.7250,-25.6500,
15.852035,0.4427,0.1340,0.2790,0.0725,-0.8682,0.2431,-41.6250,8.0250,-23.5500,
15.866326,0.4427,0.1340,0.2790,0.0725,-0.8682,0.2431,-41.6250,8.0250,-23.5500,
15.869366,0.4208,-0.2294,0.4312,0.0725,-0.8682,0.2431,-41.6250,8.0250,-23.5500,
15.885184,0.4208,-0.2294,0.4312,0.1052,-0.7645,0.3179,-41.6250,8.0250,-23.5500,
15.887494,0.4208,-0.2294,0.4312,0.1052,-0.7645,0.3179,-41.6250,8.0250,-23.5500,
15.888892,0.4247,-0.6059,0.6035,0.1052,-0.7645,0.3179,-41.6250,8.0250,-23.5500,
15.904425,0.4247,-0.6059,0.6035,0.1052,-0.7645,0.3179,-41.6250,8.0250,-23.5500,
15.906741,0.5816,-0.7553,0.9118,0.1052,-0.7645,0.3179,-41.6250,8.0250,-23.5500,
15.920591,0.5816,-0.7553,0.9118,0.1052,-0.7645,0.3179,-42.4500,8.7750,-22.0500,
15.923774,0.5816,-0.7553,0.9118,0.1052,-0.7645,0.3179,-42.4500,8.7750,-22.0500,
15.925360,0.4062,-0.6085,1.0732,0.1052,-0.7645,0.3179,-42.4500,8.7750,-22.0500,
15.944276,0.4062,-0.6085,1.0732,0.1052,-0.7645,0.3179,-42.4500,8.7750,-22.0500,
15.948155,-0.1352,-1.8709,0.2103,0.1052,-0.7645,0.3179,-42.4500,8.7750,-22.0500,
15.952531,-0.1352,-1.8709,0.2103,0.3134,-0.7712,0.4270,-42.4500,8.7750,-22.0500,
15.967623,-0.1352,-1.8709,0.2103,0.3134,-0.7712,0.4270,-42.4500,8.7750,-22.0500,
15.970072,0.2936,-2.8927,-0.7293,0.3134,-0.7712,0.4270,-42.4500,8.7750,-22.0500,
15.985143,0.2936,-2.8927,-0.7293,0.3134,-0.7712,0.4270,-42.4500,8.7750,-22.0500,
15.987732,0.5377,-1.9187,-0.8552,0.3134,-0.7712,0.4270,-42.4500,8.7750,-22.0500,
15.989889,0.5377,-1.9187,-0.8552,0.3134,-0.7712,0.4270,-43.1250,9.2250,-18.8250,
16.002452,0.5377,-1.9187,-0.8552,0.3134,-0.7712,0.4270,-43.1250,9.2250,-18.8250,
16.003997,-0.1379,-1.2339,-0.8940,0.3134,-0.7712,0.4270,-43.1250,9.2250,-18.8250,
16.023483,-0.1379,-1.2339,-0.8940,0.1003,-0.5380,0.4297,-43.1250,9.2250,-18.8250,
16.025648,-0.1379,-1.2339,-0.8940,0.1003,-0.5380,0.4297,-43.1250,9.2250,-18.8250,
16.027026,-0.6526,-0.3862,-0.8690,0.1003,-0.5380,0.4297,-43.1250,9.2250,-18.8250,
16.042322,-0.6526,-0.3862,-0.8690,0.1003,-0.5380,0.4297,-43.1250,9.2250,-18.8250,
16.044495,-0.9078,0.7028,-0.9719,0.1003,-0.5380,0.4297,-43.1250,9.2250,-18.8250,
16.061259,-0.9078,0.7028,-0.9719,0.1003,-0.5380,0.4297,-43.5000,10.0500,-17.6250,
16.067739,-0.9078,0.7028,-0.9719,0.1003,-0.5380,0.4297,-43.5000,10.0500,-17.6250,
16.069801,-1.0815,1.2969,-1.2730,0.1003,-0.5380,0.4297,-43.5000,10.0500,-17.6250,
16.087346,-1.0815,1.2969,-1.2730,0.1003,-0.5380,0.4297,-43.5000,10.0500,-17.6250,
16.088980,-1.2790,1.4671,-1.3777,0.1003,-0.5380,0.4297,-43.5000,10.0500,-17.6250,
16.099463,-1.2790,1.4671,-1.3777,-0.0768,-0.5435,0.2989,-43.5000,10.0500,-17.6250,
16.105951,-1.2790,1.4671,-1.3777,-0.0768,-0.5435,0.2989,-43.5000,10.0500,-17.6250,
16.108340,-1.5203,1.1654,-1.3244,-0.0768,-0.5435,0.2989,-43.5000,10.0500,-17.6250,
16.124255,-1.5203,1.1654,-1.3244,-0.0768,-0.5435,0.2989,-43.5000,10.0500,-17.6250,
16.126833,-1.5879,0.2587,-1.1784,-0.0768,-0.5435,0.2989,-43.5000,10.0500,-17.6250,
16.135033,-1.5879,0.2587,-1.1784,-0.0768,-0.5435,0.2989,-43.1250,10.9500,-15.7500,
16.143790,-1.5879,0.2587,-1.1784,-0.0768,-0.5435,0.2989,-43.1250,10.9500,-15.7500,
16.146091,-1.1133,-0.4867,-0.6686,-0.0768,-0.5435,0.2989,-43.1250,10.9500,-15.7500,
16.164463,-1.1133,-0.4867,-0.6686,-0.0768,-0.5435,0.2989,-43.1250,10.9500,-15.7500,
16.167459,-0.8173,-0.5778,-0.4713,-0.0768,-0.5435,0.2989,-43.1250,10.9500,-15.7500,
16.169624,-0.8173,-0.5778,-0.4713,-0.2112,-0.4215,0.3152,-43.1250,10.9500,-15.7500,
16.184820,-0.8173,-0.5778,-0.4713,-0.2112,-0.4215,0.3152,-43.1250,10.9500,-15.7500,
16.186340,-0.6369,-0.2104,-0.5516,-0.2112,-0.4215,0.3152,-43.1250,10.9500,-15.7500,
16.201612,-0.6369,-0.2104,-0.5516,-0.2112,-0.4215,0.3152,-44.4000,11.0250,-14.2500,
16.204039,-0.6369,-0.2104,-0.5516,-0.2112,-0.4215,0.3152,-44.4000,11.0250,-14.2500,
16.205551,-0.6198,0.1809,-0.4041,-0.2112,-0.4215,0.3152,-44.4000,11.0250,-14.2500,
16.223505,-0.6198,0.1809,-0.4041,-0.2112,-0.4215,0.3152,-44.4000,11.0250,-14.2500,
16.225547,-0.8109,0.5081,-0.0649,-0.2112,-0.4215,0.3152,-44.4000,11.0250,-14.2500,
16.232270,-0.8109,0.5081,-0.0649,-0.1671,-0.3540,0.1985,-44.4000,11.0250,-14.2500,
16.243070,-0.8109,0.5081,-0.0649,-0.1671,-0.3540,0.1985,-44.4000,11.0250,-14.2500,
16.244743,-1.0255,0.8012,0.1691,-0.1671,-0.3540,0.1985,-44.4000,11.0250,-14.2500,
16.261996,-1.0255,0.8012,0.1691,-0.1671,-0.3540,0.1985,-44.4000,11.0250,-14.2500,
16.263865,-1.2160,1.0330,0.1477,-0.1671,-0.3540,0.1985,-44.4000,11.0250,-14.2500,
16.270676,-1.2160,1.0330,0.1477,-0.1671,-0.3540,0.1985,-44.4000,12.4500,-13.1250,
16.285082,-1.2160,1.0330,0.1477,-0.1671,-0.3540,0.1985,-44.4000,12.4500,-13.1250,
16.287718,-1.1620,1.1013,0.0959,-0.1671,-0.3540,0.1985,-44.4000,12.4500,-13.1250,
16.299548,-1.1620,1.1013,0.0959,-0.1194,-0.2950,0.1075,-44.4000,12.4500,-13.1250,
16.302255,-1.1620,1.1013,0.0959,-0.1194,-0.2950,0.1075,-44.4000,12.4500,-13.1250,
16.303743,-0.9850,0.9358,0.0384,-0.1194,-0.2950,0.1075,-44.4000,12.4500,-13.1250,
16.324782,-0.9850,0.9358,0.0384,-0.1194,-0.2950,0.1075,-44.4000,12.4500,-13.1250,
16.327196,-0.8607,0.6914,0.0570,-0.1194,-0.2950,0.1075,-44.4000,12.4500,-13.1250,
16.340118,-0.8607,0.6914,0.0570,-0.1194,-0.2950,0.1075,-44.3250,12.4500,-11.6250,
16.350885,-0.8607,0.6914,0.0570,-0.1194,-0.2950,0.1075,-44.3250,12.4500,-11.6250,
16.353216,-0.8271,0.4892,0.1138,-0.1194,-0.2950,0.1075,-44.3250,12.4500,-11.6250,
16.363600,-0.8271,0.4892,0.1138,-0.1194,-0.2950,0.1075,-44.3250,12.4500,-11.6250,
16.366642,-0.9017,0.3318,0.0061,-0.1194,-0.2950,0.1075,-44.3250,12.4500,-11.6250,
16.373671,-0.9017,0.3318,0.0061,-0.0973,-0.2350,-0.0119,-44.3250,12.4500,-11.6250,
16.383129,-0.9017,0.3318,0.0061,-0.0973,-0.2350,-0.0119,-44.3250,12.4500,-11.6250,
16.385850,-0.9902,0.2370,-0.0920,-0.0973,-0.2350,-0.0119,-44.3250,12.4500,-11.6250,
16.402501,-0.9902,0.2370,-0.0920,-0.0973,-0.2350,-0.0119,-44.3250,12.4500,-11.6250,
16.404907,-1.1078,0.1182,0.1696,-0.0973,-0.2350,-0.0119,-44.3250,12.4500,-11.6250,
16.409740,-1.1078,0.1182,0.1696,-0.0973,-0.2350,-0.0119,-44.4750,11.7750,-11.1750,
16.422302,-1.1078,0.1182,0.1696,-0.0973,-0.2350,-0.0119,-44.4750,11.7750,-11.1750,
16.424251,-1.1768,0.1321,0.4410,-0.0973,-0.2350,-0.0119,-44.4750,11.7750,-11.1750,
16.442066,-1.1768,0.1321,0.4410,-0.1200,-0.1747,-0.1031,-44.4750,11.7750,-11.1750,
16.444973,-1.1768,0.1321,0.4410,-0.1200,-0.1747,-0.1031,-44.4750,11.7750,-11.1750,
16.446840,-1.0281,0.2175,0.6022,-0.1200,-0.1747,-0.1031,-44.4750,11.7750,-11.1750,
16.461839,-1.0281,0.2175,0.6022,-0.1200,-0.1747,-0.1031,-44.4750,11.7750,-11.1750,
16.464661,-0.7089,0.2754,0.7616,-0.1200,-0.1747,-0.1031,-44.4750,11.7750,-11.1750,
16.485564,-0.7089,0.2754,0.7616,-0.1200,-0.1747,-0.1031,-44.6250,11.9250,-10.9500,
16.488149,-0.7089,0.2754,0.7616,-0.1200,-0.1747,-0.1031,-44.6250,11.9250,-10.9500,
16.489685,-0.5895,0.2542,0.9169,-0.1200,-0.1747,-0.1031,-44.6250,11.9250,-10.9500,
16.501135,-0.5895,0.2542,0.9169,-0.1200,-0.1747,-0.1031,-44.6250,11.9250,-10.9500,
16.503525,-0.5503,0.1436,0.7942,-0.1200,-0.1747,-0.1031,-44.6250,11.9250,-10.9500,
16.509827,-0.5503,0.1436,0.7942,0.0447,-0.1668,-0.2075,-44.6250,11.9250,-10.9500,
16.520577,-0.5503,0.1436,0.7942,0.0447,-0.1668,-0.2075,-44.6250,11.9250,-10.9500,
16.522999,-0.5350,0.1895,0.5372,0.0447,-0.1668,-0.2075,-44.6250,11.9250,-10.9500,
16.540330,-0.5350,0.1895,0.5372,0.0447,-0.1668,-0.2075,-44.6250,11.9250,-10.9500,
16.544687,-0.6816,0.2965,0.3974,0.0447,-0.1668,-0.2075,-44.6250,11.9250,-10.9500,
16.550722,-0.6816,0.2965,0.3974,0.0447,-0.1668,-0.2075,-44.2500,10.8750,-10.0500,
16.562995,-0.6816,0.2965,0.3974,0.0447,-0.1668,-0.2075,-44.2500,10.8750,-10.0500,
16.566111,-0.9855,0.4422,0.3386,0.0447,-0.1668,-0.2075,-44.2500,10.8750,-10.0500,
16.580824,-0.9855,0.4422,0.3386,0.1674,-0.2590,-0.3205,-44.2500,10.8750,-10.0500,
16.583785,-0.9855,0.4422,0.3386,0.1674,-0.2590,-0.3205,-44.2500,10.8750,-10.0500,
16.585464,-1.2297,0.4913,0.3909,0.1674,-0.2590,-0.3205,-44.2500,10.8750,-10.0500,
16.600732,-1.2297,0.4913,0.3909,0.1674,-0.2590,-0.3205,-44.2500,10.8750,-10.0500,
16.603502,-1.0892,0.0640,0.5062,0.1674,-0.2590,-0.3205,-44.2500,10.8750,-10.0500,
16.618413,-1.0892,0.0640,0.5062,0.1674,-0.2590,-0.3205,-44.2500,10.8750,-10.0500,
16.621189,-0.7373,-0.9856,0.1509,0.1674,-0.2590,-0.3205,-44.2500,10.8750,-10.0500,
16.623270,-0.7373,-0.9856,0.1509,0.1674,-0.2590,-0.3205,-44.8500,9.7500,-10.1250,
16.638342,-0.7373,-0.9856,0.1509,0.1674,-0.2590,-0.3205,-44.8500,9.7500,-10.1250,
16.641167,-0.9690,-0.9908,-0.4073,0.1674,-0.2590,-0.3205,-44.8500,9.7500,-10.1250,
16.650532,-0.9690,-0.9908,-0.4073,0.3503,-0.2425,-0.2506,-44.8500,9.7500,-10.1250,
16.657508,-0.9690,-0.9908,-0.4073,0.3503,-0.2425,-0.2506,-44.8500,9.7500,-10.1250,
16.659534,-1.1766,-1.3062,-0.6821,0.3503,-0.2425,-0.2506,-44.8500,9.7500,-10.1250,
16.678051,-1.1766,-1.3062,-0.6821,0.3503,-0.2425,-0.2506,-44.8500,9.7500,-10.1250,
16.681023,-1.2628,-2.1365,-0.9461,0.3503,-0.2425,-0.2506,-44.8500,9.7500,-10.1250,
16.689724,-1.2628,-2.1365,-0.9461,0.3503,-0.2425,-0.2506,-45.2250,8.8500,-10.0500,
16.701989,-1.2628,-2.1365,-0.9461,0.3503,-0.2425,-0.2506,-45.2250,8.8500,-10.0500,
16.704977,-1.1788,-1.8502,-0.9445,0.3503,-0.2425,-0.2506,-45.2250,8.8500,-10.0500,
16.722197,-1.1788,-1.8502,-0.9445,0.2172,-0.5178,-0.1171,-45.2250,8.8500,-10.0500,
16.724016,-1.1788,-1.8502,-0.9445,0.2172,-0.5178,-0.1171,-45.2250,8.8500,-10.0500,
16.725100,-0.5304,-1.5427,-0.4133,0.2172,-0.5178,-0.1171,-45.2250,8.8500,-10.0500,
16.742245,-0.5304,-1.5427,-0.4133,0.2172,-0.5178,-0.1171,-45.2250,8.8500,-10.0500,
16.744248,-0.0719,-1.1647,-0.3769,0.2172,-0.5178,-0.1171,-45.2250,8.8500,-10.0500,
16.761567,-0.0719,-1.1647,-0.3769,0.2172,-0.5178,-0.1171,-45.2250,8.8500,-10.0500,
16.763375,0.1359,-0.3394,-0.7882,0.2172,-0.5178,-0.1171,-45.2250,8.8500,-10.0500,
16.765005,0.1359,-0.3394,-0.7882,0.2172,-0.5178,-0.1171,-45.3000,7.3500,-8.2500,
16.780126,0.1359,-0.3394,-0.7882,0.2172,-0.5178,-0.1171,-45.3000,7.3500,-8.2500,
16.782085,0.4773,0.6051,-1.0202,0.2172,-0.5178,-0.1171,-45.3000,7.3500,-8.2500,
16.789913,0.4773,0.6051,-1.0202,0.1982,-0.2860,0.0313,-45.3000,7.3500,-8.2500,
16.804485,0.4773,0.6051,-1.0202,0.1982,-0.2860,0.0313,-45.3000,7.3500,-8.2500,
16.806686,0.8524,1.1372,-1.1395,0.1982,-0.2860,0.0313,-45.3000,7.3500,-8.2500,
16.820449,0.8524,1.1372,-1.1395,0.1982,-0.2860,0.0313,-45.3000,7.3500,-8.2500,
16.823893,1.1847,1.4039,-1.2393,0.1982,-0.2860,0.0313,-45.3000,7.3500,-8.2500,
16.832189,1.1847,1.4039,-1.2393,0.1982,-0.2860,0.0313,-45.4500,7.2750,-7.0500,
16.837948,1.1847,1.4039,-1.2393,0.1982,-0.2860,0.0313,-45.4500,7.2750,-7.0500,
16.839231,1.4416,1.2824,-1.3433,0.1982,-0.2860,0.0313,-45.4500,7.2750,-7.0500,
16.858123,1.4416,1.2824,-1.3433,0.0987,-0.1326,-0.0420,-45.4500,7.2750,-7.0500,
16.859724,1.4416,1.2824,-1.3433,0.0987,-0.1326,-0.0420,-45.4500,7.2750,-7.0500,
16.861043,1.4776,0.5830,-1.4667,0.0987,-0.1326,-0.0420,-45.4500,7.2750,-7.0500,
16.877078,1.4776,0.5830,-1.4667,0.0987,-0.1326,-0.0420,-45.4500,7.2750,-7.0500,
16.879376,1.1259,-0.2671,-1.5350,0.0987,-0.1326,-0.0420,-45.4500,7.2750,-7.0500,
16.892415,1.1259,-0.2671,-1.5350,0.0987,-0.1326,-0.0420,-45.7500,7.0500,-6.9750,
16.897382,1.1259,-0.2671,-1.5350,0.0987,-0.1326,-0.0420,-45.7500,7.0500,-6.9750,
16.899578,0.7017,-0.5796,-1.3329,0.0987,-0.1326,-0.0420,-45.7500,7.0500,-6.9750,
16.917116,0.7017,-0.5796,-1.3329,0.0987,-0.1326,-0.0420,-45.7500,7.0500,-6.9750,
16.918578,0.4706,-0.4053,-1.0530,0.0987,-0.1326,-0.0420,-45.7500,7.0500,-6.9750,
16.927148,0.4706,-0.4053,-1.0530,-0.0638,-0.2007,-0.1744,-45.7500,7.0500,-6.9750,
16.936593,0.4706,-0.4053,-1.0530,-0.0638,-0.2007,-0.1744,-45.7500,7.0500,-6.9750,
16.938035,0.5024,-0.2020,-0.7426,-0.0638,-0.2007,-0.1744,-45.7500,7.0500,-6.9750,
16.967031,0.5024,-0.2020,-0.7426,-0.0638,-0.2007,-0.1744,-45.7500,7.0500,-6.9750,
16.969269,0.6897,0.1291,-0.2448,-0.0638,-0.2007,-0.1744,-45.7500,7.0500,-6.9750,
16.970603,0.6897,0.1291,-0.2448,-0.0638,-0.2007,-0.1744,-45.1500,5.8500,-6.5250,
16.985139,0.6897,0.1291,-0.2448,-0.0638,-0.2007,-0.1744,-45.1500,5.8500,-6.5250,
16.987490,0.6378,0.3857,0.1535,-0.0638,-0.2007,-0.1744,-45.1500,5.8500,-6.5250,
17.000564,0.6378,0.3857,0.1535,-0.1206,-0.1558,-0.1312,-45.1500,5.8500,-6.5250,
17.004282,0.6378,0.3857,0.1535,-0.1206,-0.1558,-0.1312,-45.1500,5.8500,-6.5250,
17.005563,0.6231,0.6418,0.2278,-0.1206,-0.1558,-0.1312,-45.1500,5.8500,-6.5250,
17.024048,0.6231,0.6418,0.2278,-0.1206,-0.1558,-0.1312,-45.1500,5.8500,-6.5250,
17.028295,0.6721,0.8789,0.0542,-0.1206,-0.1558,-0.1312,-45.1500,5.8500,-6.5250,
17.034128,0.6721,0.8789,0.0542,-0.1206,-0.1558,-0.1312,-45.8250,5.5500,-5.5500,
17.040440,0.6721,0.8789,0.0542,-0.1206,-0.1558,-0.1312,-45.8250,5.5500,-5.5500,
17.042502,0.6031,0.9134,-0.2187,-0.1206,-0.1558,-0.1312,-45.8250,5.5500,-5.5500,
17.063609,0.6031,0.9134,-0.2187,-0.1206,-0.1558,-0.1312,-45.8250,5.5500,-5.5500,
17.067575,0.4731,0.7596,-0.3438,-0.1206,-0.1558,-0.1312,-45.8250,5.5500,-5.5500,
17.070981,0.4731,0.7596,-0.3438,-0.0524,-0.0185,-0.0625,-45.8250,5.5500,-5.5500,
17.082435,0.4731,0.7596,-0.3438,-0.0524,-0.0185,-0.0625,-45.8250,5.5500,-5.5500,
17.085522,0.3245,0.5193,-0.1955,-0.0524,-0.0185,-0.0625,-45.8250,5.5500,-5.5500,
17.101902,0.3245,0.5193,-0.1955,-0.0524,-0.0185,-0.0625,-45.8250,5.5500,-5.5500,
17.104983,0.2692,0.3334,0.0730,-0.0524,-0.0185,-0.0625,-45.8250,5.5500,-5.5500,
17.106512,0.2692,0.3334,0.0730,-0.0524,-0.0185,-0.0625,-45.6750,5.0250,-5.2500,
17.122760,0.2692,0.3334,0.0730,-0.0524,-0.0185,-0.0625,-45.6750,5.0250,-5.2500,
17.125526,0.3208,0.2487,0.2317,-0.0524,-0.0185,-0.0625,-45.6750,5.0250,-5.2500,
17.136228,0.3208,0.2487,0.2317,-0.0961,-0.0449,0.0250,-45.6750,5.0250,-5.2500,
17.140357,0.3208,0.2487,0.2317,-0.0961,-0.0449,0.0250,-45.6750,5.0250,-5.2500,
17.141800,0.4256,0.2818,0.2301,-0.0961,-0.0449,0.0250,-45.6750,5.0250,-5.2500,
17.160280,0.4256,0.2818,0.2301,-0.0961,-0.0449,0.0250,-45.6750,5.0250,-5.2500,
17.164148,0.5247,0.3555,0.1299,-0.0961,-0.0449,0.0250,-45.6750,5.0250,-5.2500,
17.170545,0.5247,0.3555,0.1299,-0.0961,-0.0449,0.0250,-45.6000,4.9500,-5.4750,
17.180477,0.5247,0.3555,0.1299,-0.0961,-0.0449,0.0250,-45.6000,4.9500,-5.4750,
17.183034,0.6099,0.4234,0.1086,-0.0961,-0.0449,0.0250,-45.6000,4.9500,-5.4750,
17.204974,0.6099,0.4234,0.1086,-0.0961,-0.0449,0.0250,-45.6000,4.9500,-5.4750,
17.207359,0.6335,0.5132,0.1720,-0.0961,-0.0449,0.0250,-45.6000,4.9500,-5.4750,
17.209520,0.6335,0.5132,0.1720,-0.0348,-0.0189,0.1072,-45.6000,4.9500,-5.4750,
17.223662,0.6335,0.5132,0.1720,-0.0348,-0.0189,0.1072,-45.6000,4.9500,-5.4750,
17.225867,0.5025,0.4655,0.4923,-0.0348,-0.0189,0.1072,-45.6000,4.9500,-5.4750,
17.240497,0.5025,0.4655,0.4923,-0.0348,-0.0189,0.1072,-45.6000,4.9500,-5.4750,
17.242965,0.1999,0.4078,0.6094,-0.0348,-0.0189,0.1072,-45.6000,4.9500,-5.4750,
17.245023,0.1999,0.4078,0.6094,-0.0348,-0.0189,0.1072,-45.6000,4.7250,-5.5500,
17.263519,0.1999,0.4078,0.6094,-0.0348,-0.0189,0.1072,-45.6000,4.7250,-5.5500,
17.266527,-0.0055,0.3406,0.6020,-0.0348,-0.0189,0.1072,-45.6000,4.7250,-5.5500,
17.284818,-0.0055,0.3406,0.6020,0.0670,-0.0936,0.2306,-45.6000,4.7250,-5.5500,
17.287359,-0.0055,0.3406,0.6020,0.0670,-0.0936,0.2306,-45.6000,4.7250,-5.5500,
17.289263,0.1453,0.3026,0.5466,0.0670,-0.0936,0.2306,-45.6000,4.7250,-5.5500,
17.302394,0.1453,0.3026,0.5466,0.0670,-0.0936,0.2306,-45.6000,4.7250,-5.5500,
17.304581,0.4641,0.2328,0.4304,0.0670,-0.0936,0.2306,-45.6000,4.7250,-5.5500,
17.312847,0.4641,0.2328,0.4304,0.0670,-0.0936,0.2306,-45.4500,5.3250,-5.8500,
17.321627,0.4641,0.2328,0.4304,0.0670,-0.0936,0.2306,-45.4500,5.3250,-5.8500,
17.323167,0.6871,0.1305,0.3014,0.0670,-0.0936,0.2306,-45.4500,5.3250,-5.8500,
17.340407,0.6871,0.1305,0.3014,0.0670,-0.0936,0.2306,-45.4500,5.3250,-5.8500,
17.342980,0.8148,0.0461,0.3341,0.0670,-0.0936,0.2306,-45.4500,5.3250,-5.8500,
17.349038,0.8148,0.0461,0.3341,0.1406,-0.1652,0.2796,-45.4500,5.3250,-5.8500,
17.368828,0.8148,0.0461,0.3341,0.1406,-0.1652,0.2796,-45.4500,5.3250,-5.8500,
17.370620,0.8169,0.0345,0.4359,0.1406,-0.1652,0.2796,-45.4500,5.3250,-5.8500,
17.381906,0.8169,0.0345,0.4359,0.1406,-0.1652,0.2796,-45.6000,5.9250,-5.5500,
17.384675,0.8169,0.0345,0.4359,0.1406,-0.1652,0.2796,-45.6000,5.9250,-5.5500,
17.385930,0.3955,-0.8399,0.2768,0.1406,-0.1652,0.2796,-45.6000,5.9250,-5.5500,
17.399742,0.3955,-0.8399,0.2768,0.1406,-0.1652,0.2796,-45.6000,5.9250,-5.5500,
17.401836,0.1989,-2.4214,-0.6152,0.1406,-0.1652,0.2796,-45.6000,5.9250,-5.5500,
17.416201,0.1989,-2.4214,-0.6152,0.1406,-0.1652,0.2796,-45.6000,5.9250,-5.5500,
17.418375,0.3736,-2.0793,-0.6063,0.1406,-0.1652,0.2796,-45.6000,5.9250,-5.5500,
17.420084,0.3736,-2.0793,-0.6063,0.2527,-0.1141,0.3323,-45.6000,5.9250,-5.5500,
17.439297,0.3736,-2.0793,-0.6063,0.2527,-0.1141,0.3323,-45.6000,5.9250,-5.5500,
17.442044,0.3330,-2.7253,-0.6038,0.2527,-0.1141,0.3323,-45.6000,5.9250,-5.5500,
17.450461,0.3330,-2.7253,-0.6038,0.2527,-0.1141,0.3323,-45.7500,6.7500,-5.1750,
17.459759,0.3330,-2.7253,-0.6038,0.2527,-0.1141,0.3323,-45.7500,6.7500,-5.1750,
17.461240,0.4137,-2.3959,-0.4210,0.2527,-0.1141,0.3323,-45.7500,6.7500,-5.1750,
17.479438,0.4137,-2.3959,-0.4210,0.2527,-0.1141,0.3323,-45.7500,6.7500,-5.1750,
17.481651,0.2289,-1.2760,0.3385,0.2527,-0.1141,0.3323,-45.7500,6.7500,-5.1750,
17.484898,0.2289,-1.2760,0.3385,0.0834,-0.1012,0.2885,-45.7500,6.7500,-5.1750,
17.499552,0.2289,-1.2760,0.3385,0.0834,-0.1012,0.2885,-45.7500,6.7500,-5.1750,
17.501426,0.4395,-0.4812,0.5162,0.0834,-0.1012,0.2885,-45.7500,6.7500,-5.1750,
17.514869,0.4395,-0.4812,0.5162,0.0834,-0.1012,0.2885,-45.7500,6.7500,-5.1750,
17.517147,0.8086,0.2941,-0.3952,0.0834,-0.1012,0.2885,-45.7500,6.7500,-5.1750,
17.520966,0.8086,0.2941,-0.3952,0.0834,-0.1012,0.2885,-45.1500,7.0500,-5.0250,
17.535389,0.8086,0.2941,-0.3952,0.0834,-0.1012,0.2885,-45.1500,7.0500,-5.0250,
17.537796,0.8417,1.2960,-1.3682,0.0834,-0.1012,0.2885,-45.1500,7.0500,-5.0250,
17.552091,0.8417,1.2960,-1.3682,0.2756,-0.1260,0.0709,-45.1500,7.0500,-5.0250,
17.554885,0.8417,1.2960,-1.3682,0.2756,-0.1260,0.0709,-45.1500,7.0500,-5.0250,
17.556268,0.6512,1.8674,-1.7505,0.2756,-0.1260,0.0709,-45.1500,7.0500,-5.0250,
17.576384,0.6512,1.8674,-1.7505,0.2756,-0.1260,0.0709,-45.1500,7.0500,-5.0250,
17.578703,-0.0361,1.4934,-1.6230,0.2756,-0.1260,0.0709,-45.1500,7.0500,-5.0250,
17.590135,-0.0361,1.4934,-1.6230,0.2756,-0.1260,0.0709,-44.1000,7.4250,-5.1750,
17.601331,-0.0361,1.4934,-1.6230,0.2756,-0.1260,0.0709,-44.1000,7.4250,-5.1750,
17.604711,-1.2340,0.6632,-1.6799,0.2756,-0.1260,0.0709,-44.1000,7.4250,-5.1750,
17.620852,-1.2340,0.6632,-1.6799,0.2756,-0.1260,0.0709,-44.1000,7.4250,-5.1750,
17.623582,-2.3125,-0.2433,-1.7063,0.2756,-0.1260,0.0709,-44.1000,7.4250,-5.1750,
17.626237,-2.3125,-0.2433,-1.7063,-0.0139,-0.0702,0.0409,-44.1000,7.4250,-5.1750,
17.635768,-2.3125,-0.2433,-1.7063,-0.0139,-0.0702,0.0409,-44.1000,7.4250,-5.1750,
17.638956,-2.1589,-0.4949,-1.6157,-0.0139,-0.0702,0.0409,-44.1000,7.4250,-5.1750,
17.655331,-2.1589,-0.4949,-1.6157,-0.0139,-0.0702,0.0409,-44.1000,7.4250,-5.1750,
17.656574,-1.5611,-0.5033,-1.4411,-0.0139,-0.0702,0.0409,-44.1000,7.4250,-5.1750,
17.661350,-1.5611,-0.5033,-1.4411,-0.0139,-0.0702,0.0409,-44.8500,7.0500,-4.7250,
17.680826,-1.5611,-0.5033,-1.4411,-0.0139,-0.0702,0.0409,-44.8500,7.0500,-4.7250,
17.682717,-0.8946,-0.3837,-1.4517,-0.0139,-0.0702,0.0409,-44.8500,7.0500,-4.7250,
17.694849,-0.8946,-0.3837,-1.4517,-0.1480,-0.0287,0.1704,-44.8500,7.0500,-4.7250,
17.701730,-0.8946,-0.3837,-1.4517,-0.1480,-0.0287,0.1704,-44.8500,7.0500,-4.7250,
17.703368,-0.3304,-0.0283,-1.0457,-0.1480,-0.0287,0.1704,-44.8500,7.0500,-4.7250,
17.718708,-0.3304,-0.0283,-1.0457,-0.1480,-0.0287,0.1704,-44.8500,7.0500,-4.7250,
17.721433,0.0424,0.1366,-0.8165,-0.1480,-0.0287,0.1704,-44.8500,7.0500,-4.7250,
17.733074,0.0424,0.1366,-0.8165,-0.1480,-0.0287,0.1704,-45.1500,7.7250,-4.5750,
17.737495,0.0424,0.1366,-0.8165,-0.1480,-0.0287,0.1704,-45.1500,7.7250,-4.5750,
17.739084,0.2199,0.3439,-0.6512,-0.1480,-0.0287,0.1704,-45.1500,7.7250,-4.5750,
17.756971,0.2199,0.3439,-0.6512,-0.1480,-0.0287,0.1704,-45.1500,7.7250,-4.5750,
17.758948,0.1032,0.3754,-0.5736,-0.1480,-0.0287,0.1704,-45.1500,7.7250,-4.5750,
17.763123,0.1032,0.3754,-0.5736,-0.1530,0.0399,0.0498,-45.1500,7.7250,-4.5750,
17.777147,0.1032,0.3754,-0.5736,-0.1530,0.0399,0.0498,-45.1500,7.7250,-4.5750,
17.780080,-0.1143,0.3601,-0.6789,-0.1530,0.0399,0.0498,-45.1500,7.7250,-4.5750,
17.798112,-0.1143,0.3601,-0.6789,-0.1530,0.0399,0.0498,-45.1500,7.7250,-4.5750,
17.800907,-0.4158,0.3720,-0.7139,-0.1530,0.0399,0.0498,-45.1500,7.7250,-4.5750,
17.802729,-0.4158,0.3720,-0.7139,-0.1530,0.0399,0.0498,-44.6250,7.6500,-4.5750,
17.816283,-0.4158,0.3720,-0.7139,-0.1530,0.0399,0.0498,-44.6250,7.6500,-4.5750,
17.818116,-0.5063,0.2715,-0.6424,-0.1530,0.0399,0.0498,-44.6250,7.6500,-4.5750,
17.830975,-0.5063,0.2715,-0.6424,-0.1652,0.2022,-0.0128,-44.6250,7.6500,-4.5750,
17.835527,-0.5063,0.2715,-0.6424,-0.1652,0.2022,-0.0128,-44.6250,7.6500,-4.5750,
17.837151,-0.5114,0.0092,-0.5196,-0.1652,0.2022,-0.0128,-44.6250,7.6500,-4.5750,
17.860463,-0.5114,0.0092,-0.5196,-0.1652,0.2022,-0.0128,-44.6250,7.6500,-4.5750,
17.863421,-0.5360,-0.2118,-0.5050,-0.1652,0.2022,-0.0128,-44.6250,7.6500,-4.5750,
17.875327,-0.5360,-0.2118,-0.5050,-0.1652,0.2022,-0.0128,-45.2250,8.0250,-4.9500,
17.884398,-0.5360,-0.2118,-0.5050,-0.1652,0.2022,-0.0128,-45.2250,8.0250,-4.9500,
17.887187,-0.6176,-0.0571,-0.7075,-0.1652,0.2022,-0.0128,-45.2250,8.0250,-4.9500,
17.900354,-0.6176,-0.0571,-0.7075,-0.1652,0.2022,-0.0128,-45.2250,8.0250,-4.9500,
17.902899,-0.7012,0.0922,-0.8353,-0.1652,0.2022,-0.0128,-45.2250,8.0250,-4.9500,
17.904663,-0.7012,0.0922,-0.8353,-0.0805,0.4494,-0.0956,-45.2250,8.0250,-4.9500,
