
time,ax,ay,az,wx,wy,wz,Bx,By,Bz,
0.039460,0.0000,0.0000,0.0000,0.0000,0.0000,0.0000,0.0000,0.0000,0.0000,
0.054101,0.0000,0.0000,0.0000,0.0000,0.0000,0.0000,22.5700,22.8506,-38.3202,
0.088631,0.0000,0.0000,0.0000,0.0186,-0.0245,-0.0075,22.5700,22.8506,-38.3202,
0.096901,0.0000,0.0000,0.0000,0.0186,-0.0245,-0.0075,22.5700,22.8506,-38.3202,
0.097969,0.0000,0.0000,0.0000,0.0186,-0.0245,-0.0075,22.5700,22.8506,-38.3202,
0.098984,0.0000,0.0000,0.0000,0.0186,-0.0245,-0.0075,22.5700,22.8506,-38.3202,
0.099824,0.0000,0.0000,0.0000,0.0186,-0.0245,-0.0075,22.5700,22.8506,-38.3202,
0.115162,0.0000,0.0000,0.0000,0.0186,-0.0245,-0.0075,22.6432,22.9848,-38.2592,
0.159268,0.0000,0.0000,0.0000,0.0064,-0.0354,0.0241,22.6432,22.9848,-38.2592,
0.166517,0.0000,0.0000,0.0000,0.0064,-0.0354,0.0241,22.6432,22.9848,-38.2592,
0.167473,0.0000,0.0000,0.0000,0.0064,-0.0354,0.0241,22.6432,22.9848,-38.2592,
0.168154,0.0000,0.0000,0.0000,0.0064,-0.0354,0.0241,22.6432,22.9848,-38.2592,
0.168823,0.0000,0.0000,0.0000,0.0064,-0.0354,0.0241,22.6432,22.9848,-38.2592,
0.169521,-0.0228,-0.1679,0.0222,0.0064,-0.0354,0.0241,22.6432,22.9848,-38.2592,
0.177549,-0.0228,-0.1679,0.0222,0.0064,-0.0354,0.0241,22.5578,23.0336,-38.3446,
0.227623,-0.0228,-0.1679,0.0222,0.0563,-0.0382,0.0740,22.5578,23.0336,-38.3446,
0.231331,-0.0228,-0.1679,0.0222,0.0563,-0.0382,0.0740,22.5578,23.0336,-38.3446,
0.232225,-0.0228,-0.1679,0.0222,0.0563,-0.0382,0.0740,22.5578,23.0336,-38.3446,
0.232894,-0.0228,-0.1679,0.0222,0.0563,-0.0382,0.0740,22.5578,23.0336,-38.3446,
0.238128,-0.0228,-0.1679,0.0222,0.0563,-0.0382,0.0740,22.5578,22.9848,-38.3080,
0.239148,-0.0859,-0.0310,0.0634,0.0563,-0.0382,0.0740,22.5578,22.9848,-38.3080,
0.295647,-0.0859,-0.0310,0.0634,0.0563,-0.0382,0.0740,22.5334,22.9116,-38.2958,
0.297503,-0.0859,-0.0310,0.0634,0.1340,-0.0585,0.0827,22.5334,22.9116,-38.2958,
0.298456,-0.0859,-0.0310,0.0634,0.1340,-0.0585,0.0827,22.5334,22.9116,-38.2958,
0.299232,-0.0859,-0.0310,0.0634,0.1340,-0.0585,0.0827,22.5334,22.9116,-38.2958,
0.299904,-0.0859,-0.0310,0.0634,0.1340,-0.0585,0.0827,22.5334,22.9116,-38.2958,
0.306935,-0.1214,-0.0007,0.1549,0.1340,-0.0585,0.0827,22.5334,22.9116,-38.2958,
0.357343,-0.1214,-0.0007,0.1549,0.1340,-0.0585,0.0827,22.5212,22.7774,-38.3568,
0.365742,-0.1214,-0.0007,0.1549,0.1863,-0.0455,0.0494,22.5212,22.7774,-38.3568,
0.366921,-0.1214,-0.0007,0.1549,0.1863,-0.0455,0.0494,22.5212,22.7774,-38.3568,
0.367627,-0.1214,-0.0007,0.1549,0.1863,-0.0455,0.0494,22.5212,22.7774,-38.3568,
0.368317,-0.1214,-0.0007,0.1549,0.1863,-0.0455,0.0494,22.5212,22.7774,-38.3568,
0.368944,-0.1214,-0.0007,0.1549,0.1863,-0.0455,0.0494,22.5212,22.7774,-38.3568,
0.376925,-0.3647,0.0035,0.1395,0.1863,-0.0455,0.0494,22.5212,22.7774,-38.3568,
0.418615,-0.3647,0.0035,0.1395,0.1863,-0.0455,0.0494,22.4968,22.6310,-38.4910,
0.432699,-0.3647,0.0035,0.1395,0.1863,-0.0455,0.0494,22.4968,22.6310,-38.4910,
0.433850,-0.3647,0.0035,0.1395,0.1863,-0.0455,0.0494,22.4968,22.6310,-38.4910,
0.434650,-0.3647,0.0035,0.1395,0.1863,-0.0455,0.0494,22.4968,22.6310,-38.4910,
0.435387,-0.3647,0.0035,0.1395,0.0650,-0.2589,0.0503,22.4968,22.6310,-38.4910,
0.446415,-0.3519,0.1664,-0.0475,0.0650,-0.2589,0.0503,22.4968,22.6310,-38.4910,
0.476367,-0.3519,0.1664,-0.0475,0.0650,-0.2589,0.0503,22.3870,22.4846,-38.5886,
0.499710,-0.3519,0.1664,-0.0475,0.0650,-0.2589,0.0503,22.3870,22.4846,-38.5886,
0.501000,-0.3519,0.1664,-0.0475,0.0650,-0.2589,0.0503,22.3870,22.4846,-38.5886,
0.501707,-0.3519,0.1664,-0.0475,0.0650,-0.2589,0.0503,22.3870,22.4846,-38.5886,
0.507006,-0.3519,0.1664,-0.0475,0.0088,-0.2462,-0.0093,22.3870,22.4846,-38.5886,
0.517540,0.2170,-0.0664,-0.2898,0.0088,-0.2462,-0.0093,22.3870,22.4846,-38.5886,
0.536800,0.2170,-0.0664,-0.2898,0.0088,-0.2462,-0.0093,22.2040,22.2894,-38.7472,
0.566587,0.2170,-0.0664,-0.2898,0.0088,-0.2462,-0.0093,22.2040,22.2894,-38.7472,
0.568011,0.2170,-0.0664,-0.2898,0.0088,-0.2462,-0.0093,22.2040,22.2894,-38.7472,
0.568887,0.2170,-0.0664,-0.2898,0.0088,-0.2462,-0.0093,22.2040,22.2894,-38.7472,
0.569970,0.2170,-0.0664,-0.2898,0.0088,-0.2462,-0.0093,22.2040,22.2894,-38.7472,
0.576038,0.2170,-0.0664,-0.2898,0.0172,0.0072,-0.0819,22.2040,22.2894,-38.7472,
0.586394,0.5081,-0.0901,-0.3035,0.0172,0.0072,-0.0819,22.2040,22.2894,-38.7472,
0.595907,0.5081,-0.0901,-0.3035,0.0172,0.0072,-0.0819,21.9844,22.0698,-38.9302,
0.632888,0.5081,-0.0901,-0.3035,0.0172,0.0072,-0.0819,21.9844,22.0698,-38.9302,
0.634243,0.5081,-0.0901,-0.3035,0.0172,0.0072,-0.0819,21.9844,22.0698,-38.9302,
0.635122,0.5081,-0.0901,-0.3035,0.0172,0.0072,-0.0819,21.9844,22.0698,-38.9302,
0.647586,0.5081,-0.0901,-0.3035,0.0634,0.1003,-0.0774,21.9844,22.0698,-38.9302,
0.656323,0.5081,-0.0901,-0.3035,0.0634,0.1003,-0.0774,21.8014,21.8502,-39.0766,
0.657453,0.3811,0.1168,-0.2518,0.0634,0.1003,-0.0774,21.8014,21.8502,-39.0766,
0.699038,0.3811,0.1168,-0.2518,0.0634,0.1003,-0.0774,21.8014,21.8502,-39.0766,
0.700353,0.3811,0.1168,-0.2518,0.0634,0.1003,-0.0774,21.8014,21.8502,-39.0766,
0.701048,0.3811,0.1168,-0.2518,0.0634,0.1003,-0.0774,21.8014,21.8502,-39.0766,
0.718019,0.3811,0.1168,-0.2518,0.0824,0.1819,-0.0495,21.8014,21.8502,-39.0766,
0.719221,0.3811,0.1168,-0.2518,0.0824,0.1819,-0.0495,21.6428,21.6794,-39.2474,
0.726508,0.0414,0.0320,-0.1198,0.0824,0.1819,-0.0495,21.6428,21.6794,-39.2474,
0.766813,0.0414,0.0320,-0.1198,0.0824,0.1819,-0.0495,21.6428,21.6794,-39.2474,
0.768260,0.0414,0.0320,-0.1198,0.0824,0.1819,-0.0495,21.6428,21.6794,-39.2474,
0.768992,0.0414,0.0320,-0.1198,0.0824,0.1819,-0.0495,21.6428,21.6794,-39.2474,
0.769680,0.0414,0.0320,-0.1198,0.0824,0.1819,-0.0495,21.6428,21.6794,-39.2474,
0.775338,0.0414,0.0320,-0.1198,0.0824,0.1819,-0.0495,21.5818,21.4720,-39.3572,
0.785181,0.0414,0.0320,-0.1198,0.1204,0.2932,-0.0795,21.5818,21.4720,-39.3572,
0.796362,0.0810,-0.0073,-0.0134,0.1204,0.2932,-0.0795,21.5818,21.4720,-39.3572,
0.833908,0.0810,-0.0073,-0.0134,0.1204,0.2932,-0.0795,21.5940,21.3256,-39.3938,
0.835749,0.0810,-0.0073,-0.0134,0.1204,0.2932,-0.0795,21.5940,21.3256,-39.3938,
0.836484,0.0810,-0.0073,-0.0134,0.1204,0.2932,-0.0795,21.5940,21.3256,-39.3938,
0.837164,0.0810,-0.0073,-0.0134,0.1204,0.2932,-0.0795,21.5940,21.3256,-39.3938,
0.855641,0.0810,-0.0073,-0.0134,0.0951,0.3780,-0.0904,21.5940,21.3256,-39.3938,
0.865046,-0.1482,0.0537,-0.0720,0.0951,0.3780,-0.0904,21.5940,21.3256,-39.3938,
0.895187,-0.1482,0.0537,-0.0720,0.0951,0.3780,-0.0904,21.7526,21.1304,-39.2230,
0.897924,-0.1482,0.0537,-0.0720,0.0951,0.3780,-0.0904,21.7526,21.1304,-39.2230,
0.898819,-0.1482,0.0537,-0.0720,0.0951,0.3780,-0.0904,21.7526,21.1304,-39.2230,
0.899465,-0.1482,0.0537,-0.0720,0.0951,0.3780,-0.0904,21.7526,21.1304,-39.2230,
0.925936,-0.1482,0.0537,-0.0720,0.0640,0.5389,-0.1369,21.7526,21.1304,-39.2230,
0.935041,-0.1479,-0.1026,-0.1379,0.0640,0.5389,-0.1369,21.7526,21.1304,-39.2230,
0.954960,-0.1479,-0.1026,-0.1379,0.0640,0.5389,-0.1369,22.1186,21.0084,-38.9302,
0.966460,-0.1479,-0.1026,-0.1379,0.0640,0.5389,-0.1369,22.1186,21.0084,-38.9302,
0.967571,-0.1479,-0.1026,-0.1379,0.0640,0.5389,-0.1369,22.1186,21.0084,-38.9302,
0.968331,-0.1479,-0.1026,-0.1379,0.0640,0.5389,-0.1369,22.1186,21.0084,-38.9302,
0.969047,-0.1479,-0.1026,-0.1379,0.0640,0.5389,-0.1369,22.1186,21.0084,-38.9302,
0.997460,-0.1479,-0.1026,-0.1379,-0.0527,0.4000,-0.0411,22.1186,21.0084,-38.9302,
1.006422,-0.4903,0.5064,-0.3460,-0.0527,0.4000,-0.0411,22.1186,21.0084,-38.9302,
1.015076,-0.4903,0.5064,-0.3460,-0.0527,0.4000,-0.0411,22.6066,20.9230,-38.5520,
1.033483,-0.4903,0.5064,-0.3460,-0.0527,0.4000,-0.0411,22.6066,20.9230,-38.5520,
1.034906,-0.4903,0.5064,-0.3460,-0.0527,0.4000,-0.0411,22.6066,20.9230,-38.5520,
1.035853,-0.4903,0.5064,-0.3460,-0.0527,0.4000,-0.0411,22.6066,20.9230,-38.5520,
1.064989,-0.4903,0.5064,-0.3460,-0.2557,0.0136,-0.0218,22.6066,20.9230,-38.5520,
1.073940,-0.8156,0.7369,-0.2505,-0.2557,0.0136,-0.0218,22.6066,20.9230,-38.5520,
1.084063,-0.8156,0.7369,-0.2505,-0.2557,0.0136,-0.0218,23.1434,20.8742,-38.1494,
1.098495,-0.8156,0.7369,-0.2505,-0.2557,0.0136,-0.0218,23.1434,20.8742,-38.1494,
1.100124,-0.8156,0.7369,-0.2505,-0.2557,0.0136,-0.0218,23.1434,20.8742,-38.1494,
1.101103,-0.8156,0.7369,-0.2505,-0.2557,0.0136,-0.0218,23.1434,20.8742,-38.1494,
1.135325,-0.8156,0.7369,-0.2505,-0.1851,-0.4141,-0.1651,23.1434,20.8742,-38.1494,
1.148222,-0.8156,0.7369,-0.2505,-0.1851,-0.4141,-0.1651,23.6314,20.8864,-37.7468,
1.150069,-1.2213,0.2953,0.4395,-0.1851,-0.4141,-0.1651,23.6314,20.8864,-37.7468,
1.166277,-1.2213,0.2953,0.4395,-0.1851,-0.4141,-0.1651,23.6314,20.8864,-37.7468,
1.168053,-1.2213,0.2953,0.4395,-0.1851,-0.4141,-0.1651,23.6314,20.8864,-37.7468,
1.169290,-1.2213,0.2953,0.4395,-0.1851,-0.4141,-0.1651,23.6314,20.8864,-37.7468,
1.170657,-1.2213,0.2953,0.4395,-0.1851,-0.4141,-0.1651,23.6314,20.8864,-37.7468,
1.203719,-1.2213,0.2953,0.4395,-0.1851,-0.4141,-0.1651,23.9364,20.9474,-37.3686,
1.207264,-1.2213,0.2953,0.4395,-0.1083,-0.3847,-0.2949,23.9364,20.9474,-37.3686,
1.212752,-1.1739,-0.1456,0.4574,-0.1083,-0.3847,-0.2949,23.9364,20.9474,-37.3686,
1.233358,-1.1739,-0.1456,0.4574,-0.1083,-0.3847,-0.2949,23.9364,20.9474,-37.3686,
1.237888,-1.1739,-0.1456,0.4574,-0.1083,-0.3847,-0.2949,23.9364,20.9474,-37.3686,
1.241835,-1.1739,-0.1456,0.4574,-0.1083,-0.3847,-0.2949,23.9364,20.9474,-37.3686,
1.264336,-1.1739,-0.1456,0.4574,-0.1083,-0.3847,-0.2949,23.9852,21.1792,-37.1856,
1.273353,-1.1739,-0.1456,0.4574,-0.3539,-0.8400,-0.3931,23.9852,21.1792,-37.1856,
1.282812,-1.7257,1.7113,-0.0999,-0.3539,-0.8400,-0.3931,23.9852,21.1792,-37.1856,
1.299195,-1.7257,1.7113,-0.0999,-0.3539,-0.8400,-0.3931,23.9852,21.1792,-37.1856,
1.300783,-1.7257,1.7113,-0.0999,-0.3539,-0.8400,-0.3931,23.9852,21.1792,-37.1856,
1.301899,-1.7257,1.7113,-0.0999,-0.3539,-0.8400,-0.3931,23.9852,21.1792,-37.1856,
1.323816,-1.7257,1.7113,-0.0999,-0.3539,-0.8400,-0.3931,23.6436,21.6306,-37.0758,
1.344069,-1.7257,1.7113,-0.0999,-1.0888,-1.4120,-0.6151,23.6436,21.6306,-37.0758,
1.354134,-1.8705,1.8527,-0.2715,-1.0888,-1.4120,-0.6151,23.6436,21.6306,-37.0758,
1.367109,-1.8705,1.8527,-0.2715,-1.0888,-1.4120,-0.6151,23.6436,21.6306,-37.0758,
1.368555,-1.8705,1.8527,-0.2715,-1.0888,-1.4120,-0.6151,23.6436,21.6306,-37.0758,
1.369669,-1.8705,1.8527,-0.2715,-1.0888,-1.4120,-0.6151,23.6436,21.6306,-37.0758,
1.370920,-1.8705,1.8527,-0.2715,-1.0888,-1.4120,-0.6151,23.6436,21.6306,-37.0758,
1.382397,-1.8705,1.8527,-0.2715,-1.0888,-1.4120,-0.6151,22.6554,22.5334,-37.1368,
1.412309,-1.8705,1.8527,-0.2715,-1.0278,-1.2753,-0.7068,22.6554,22.5334,-37.1368,
1.422199,0.1874,0.7151,0.8122,-1.0278,-1.2753,-0.7068,22.6554,22.5334,-37.1368,
1.433880,0.1874,0.7151,0.8122,-1.0278,-1.2753,-0.7068,22.6554,22.5334,-37.1368,
1.435509,0.1874,0.7151,0.8122,-1.0278,-1.2753,-0.7068,22.6554,22.5334,-37.1368,
1.436690,0.1874,0.7151,0.8122,-1.0278,-1.2753,-0.7068,22.6554,22.5334,-37.1368,
1.444542,0.1874,0.7151,0.8122,-1.0278,-1.2753,-0.7068,21.0816,23.7412,-37.2100,
1.482759,0.1874,0.7151,0.8122,-0.8277,-0.6751,-0.6627,21.0816,23.7412,-37.2100,
1.492281,0.3545,1.5264,0.5060,-0.8277,-0.6751,-0.6627,21.0816,23.7412,-37.2100,
1.498217,0.3545,1.5264,0.5060,-0.8277,-0.6751,-0.6627,21.0816,23.7412,-37.2100,
1.499987,0.3545,1.5264,0.5060,-0.8277,-0.6751,-0.6627,21.0816,23.7412,-37.2100,
1.501132,0.3545,1.5264,0.5060,-0.8277,-0.6751,-0.6627,21.0816,23.7412,-37.2100,
1.502268,0.3545,1.5264,0.5060,-0.8277,-0.6751,-0.6627,19.1540,25.2296,-37.2832,
1.553159,0.3545,1.5264,0.5060,-0.2772,0.3706,-1.0079,19.1540,25.2296,-37.2832,
1.566020,0.3545,1.5264,0.5060,-0.2772,0.3706,-1.0079,17.0068,26.8522,-37.2954,
1.568867,0.7472,0.0554,0.9893,-0.2772,0.3706,-1.0079,17.0068,26.8522,-37.2954,
1.570681,0.7472,0.0554,0.9893,-0.2772,0.3706,-1.0079,17.0068,26.8522,-37.2954,
1.572030,0.7472,0.0554,0.9893,-0.2772,0.3706,-1.0079,17.0068,26.8522,-37.2954,
1.573547,0.7472,0.0554,0.9893,-0.2772,0.3706,-1.0079,17.0068,26.8522,-37.2954,
1.574846,0.7472,0.0554,0.9893,-0.2772,0.3706,-1.0079,17.0068,26.8522,-37.2954,
1.621571,0.7472,0.0554,0.9893,-0.2772,0.3706,-1.0079,15.0060,28.4504,-37.1612,
1.623600,0.7472,0.0554,0.9893,-0.1318,0.9254,-1.2208,15.0060,28.4504,-37.1612,
1.632959,-2.4145,3.8092,0.1999,-0.1318,0.9254,-1.2208,15.0060,28.4504,-37.1612,
1.635501,-2.4145,3.8092,0.1999,-0.1318,0.9254,-1.2208,15.0060,28.4504,-37.1612,
1.637009,-2.4145,3.8092,0.1999,-0.1318,0.9254,-1.2208,15.0060,28.4504,-37.1612,
1.638395,-2.4145,3.8092,0.1999,-0.1318,0.9254,-1.2208,15.0060,28.4504,-37.1612,
1.683034,-2.4145,3.8092,0.1999,-0.1318,0.9254,-1.2208,13.0296,30.0730,-36.9660,
1.692583,-2.4145,3.8092,0.1999,-0.8784,0.5313,-1.3405,13.0296,30.0730,-36.9660,
1.699258,-2.4145,3.8092,0.1999,-0.8784,0.5313,-1.3405,13.0296,30.0730,-36.9660,
1.700727,-2.4145,3.8092,0.1999,-0.8784,0.5313,-1.3405,13.0296,30.0730,-36.9660,
1.701942,-2.4145,3.8092,0.1999,-0.8784,0.5313,-1.3405,13.0296,30.0730,-36.9660,
1.703841,-2.9660,5.4199,-3.5530,-0.8784,0.5313,-1.3405,13.0296,30.0730,-36.9660,
1.743437,-2.9660,5.4199,-3.5530,-0.8784,0.5313,-1.3405,11.2118,32.0006,-36.2340,
1.763391,-2.9660,5.4199,-3.5530,-2.7207,1.2473,-3.1180,11.2118,32.0006,-36.2340,
1.767221,-2.9660,5.4199,-3.5530,-2.7207,1.2473,-3.1180,11.2118,32.0006,-36.2340,
1.768467,-2.9660,5.4199,-3.5530,-2.7207,1.2473,-3.1180,11.2118,32.0006,-36.2340,
1.769731,-2.9660,5.4199,-3.5530,-2.7207,1.2473,-3.1180,11.2118,32.0006,-36.2340,
1.771817,-2.9660,5.4199,-3.5530,-2.7207,1.2473,-3.1180,11.2118,32.0006,-36.2340,
1.773065,3.3692,-3.1977,-6.1441,-2.7207,1.2473,-3.1180,11.2118,32.0006,-36.2340,
1.801035,3.3692,-3.1977,-6.1441,-2.7207,1.2473,-3.1180,9.3086,34.3796,-34.7944,
1.834249,3.3692,-3.1977,-6.1441,-2.7207,1.2473,-3.1180,9.3086,34.3796,-34.7944,
1.837711,3.3692,-3.1977,-6.1441,-2.7207,1.2473,-3.1180,9.3086,34.3796,-34.7944,
1.841496,3.3692,-3.1977,-6.1441,-2.7207,1.2473,-3.1180,9.3086,34.3796,-34.7944,
1.843864,3.3692,-3.1977,-6.1441,-1.1139,1.5655,-2.0911,9.3086,34.3796,-34.7944,
1.845662,6.4298,-6.7439,2.2412,-1.1139,1.5655,-2.0911,9.3086,34.3796,-34.7944,
1.860630,6.4298,-6.7439,2.2412,-1.1139,1.5655,-2.0911,7.7470,36.4536,-32.9278,
1.901179,6.4298,-6.7439,2.2412,1.0651,3.3419,-0.4911,7.7470,36.4536,-32.9278,
1.903737,6.4298,-6.7439,2.2412,1.0651,3.3419,-0.4911,7.7470,36.4536,-32.9278,
1.904597,6.4298,-6.7439,2.2412,1.0651,3.3419,-0.4911,7.7470,36.4536,-32.9278,
1.905321,6.4298,-6.7439,2.2412,1.0651,3.3419,-0.4911,7.7470,36.4536,-32.9278,
1.906071,6.4298,-6.7439,2.2412,1.0651,3.3419,-0.4911,7.7470,36.4536,-32.9278,
1.913540,-8.3215,-4.8489,-0.5111,1.0651,3.3419,-0.4911,7.7470,36.4536,-32.9278,
1.920888,-8.3215,-4.8489,-0.5111,1.0651,3.3419,-0.4911,6.8320,38.0762,-31.2808,
1.968617,-8.3215,-4.8489,-0.5111,1.0651,3.3419,-0.4911,6.8320,38.0762,-31.2808,
1.971792,-8.3215,-4.8489,-0.5111,1.0651,3.3419,-0.4911,6.8320,38.0762,-31.2808,
1.974621,-8.3215,-4.8489,-0.5111,1.0651,3.3419,-0.4911,6.8320,38.0762,-31.2808,
1.975993,-8.3215,-4.8489,-0.5111,1.6874,1.6735,-0.7248,6.8320,38.0762,-31.2808,
1.981713,-8.3215,-4.8489,-0.5111,1.6874,1.6735,-0.7248,6.6368,38.7716,-29.8290,
1.984001,9.9492,6.8179,-1.7251,1.6874,1.6735,-0.7248,6.6368,38.7716,-29.8290,
2.034947,9.9492,6.8179,-1.7251,1.6874,1.6735,-0.7248,6.6368,38.7716,-29.8290,
2.037827,9.9492,6.8179,-1.7251,1.6874,1.6735,-0.7248,6.6368,38.7716,-29.8290,
2.040951,9.9492,6.8179,-1.7251,1.6874,1.6735,-0.7248,6.6368,38.7716,-29.8290,
2.043654,9.9492,6.8179,-1.7251,1.6874,1.6735,-0.7248,6.8320,39.1498,-28.5846,
2.046617,9.9492,6.8179,-1.7251,2.0284,3.2528,-3.5303,6.8320,39.1498,-28.5846,
2.052822,12.5167,-12.2257,2.3938,2.0284,3.2528,-3.5303,6.8320,39.1498,-28.5846,
2.100690,12.5167,-12.2257,2.3938,2.0284,3.2528,-3.5303,6.1244,38.9668,-27.9868,
2.102738,12.5167,-12.2257,2.3938,2.0284,3.2528,-3.5303,6.1244,38.9668,-27.9868,
2.103906,12.5167,-12.2257,2.3938,2.0284,3.2528,-3.5303,6.1244,38.9668,-27.9868,
2.105978,12.5167,-12.2257,2.3938,2.0284,3.2528,-3.5303,6.1244,38.9668,-27.9868,
2.107760,12.5167,-12.2257,2.3938,2.0284,3.2528,-3.5303,6.1244,38.9668,-27.9868,
2.115356,12.5167,-12.2257,2.3938,1.0518,-2.3494,0.1839,6.1244,38.9668,-27.9868,
2.122347,-5.9522,10.4104,-0.0208,1.0518,-2.3494,0.1839,6.1244,38.9668,-27.9868,
2.158621,-5.9522,10.4104,-0.0208,1.0518,-2.3494,0.1839,5.1972,38.2958,-27.6940,
2.164159,-5.9522,10.4104,-0.0208,1.0518,-2.3494,0.1839,5.1972,38.2958,-27.6940,
2.164540,-5.9522,10.4104,-0.0208,1.0518,-2.3494,0.1839,5.1972,38.2958,-27.6940,
2.164823,-5.9522,10.4104,-0.0208,1.0518,-2.3494,0.1839,5.1972,38.2958,-27.6940,
2.178925,-5.9522,10.4104,-0.0208,1.1412,-1.2767,-1.3397,5.1972,38.2958,-27.6940,
2.191631,-1.8606,0.3988,1.6781,1.1412,-1.2767,-1.3397,5.1972,38.2958,-27.6940,
2.220903,-1.8606,0.3988,1.6781,1.1412,-1.2767,-1.3397,4.0016,37.0148,-27.9868,
2.234020,-1.8606,0.3988,1.6781,1.1412,-1.2767,-1.3397,4.0016,37.0148,-27.9868,
2.235314,-1.8606,0.3988,1.6781,1.1412,-1.2767,-1.3397,4.0016,37.0148,-27.9868,
2.236103,-1.8606,0.3988,1.6781,1.1412,-1.2767,-1.3397,4.0016,37.0148,-27.9868,
2.250603,-1.8606,0.3988,1.6781,1.3743,1.7068,-1.4641,4.0016,37.0148,-27.9868,
2.260954,0.6892,0.7603,2.8407,1.3743,1.7068,-1.4641,4.0016,37.0148,-27.9868,
2.279074,0.6892,0.7603,2.8407,1.3743,1.7068,-1.4641,3.3550,34.5504,-29.4508,
2.299364,0.6892,0.7603,2.8407,1.3743,1.7068,-1.4641,3.3550,34.5504,-29.4508,
2.300451,0.6892,0.7603,2.8407,1.3743,1.7068,-1.4641,3.3550,34.5504,-29.4508,
2.301024,0.6892,0.7603,2.8407,1.3743,1.7068,-1.4641,3.3550,34.5504,-29.4508,
2.301547,0.6892,0.7603,2.8407,1.3743,1.7068,-1.4641,3.3550,34.5504,-29.4508,
2.319534,0.6892,0.7603,2.8407,0.9863,1.2462,-1.1099,3.3550,34.5504,-29.4508,
2.331665,3.9946,5.4943,-1.3655,0.9863,1.2462,-1.1099,3.3550,34.5504,-29.4508,
2.340091,3.9946,5.4943,-1.3655,0.9863,1.2462,-1.1099,3.0134,31.5370,-31.3784,
2.367264,3.9946,5.4943,-1.3655,0.9863,1.2462,-1.1099,3.0134,31.5370,-31.3784,
2.368342,3.9946,5.4943,-1.3655,0.9863,1.2462,-1.1099,3.0134,31.5370,-31.3784,
2.368951,3.9946,5.4943,-1.3655,0.9863,1.2462,-1.1099,3.0134,31.5370,-31.3784,
2.389913,3.9946,5.4943,-1.3655,0.7161,0.9328,0.3208,3.0134,31.5370,-31.3784,
2.398983,3.9946,5.4943,-1.3655,0.7161,0.9328,0.3208,2.8182,28.4260,-33.2938,
2.399880,-1.5895,2.7821,0.4814,0.7161,0.9328,0.3208,2.8182,28.4260,-33.2938,
2.434277,-1.5895,2.7821,0.4814,0.7161,0.9328,0.3208,2.8182,28.4260,-33.2938,
2.435140,-1.5895,2.7821,0.4814,0.7161,0.9328,0.3208,2.8182,28.4260,-33.2938,
2.435533,-1.5895,2.7821,0.4814,0.7161,0.9328,0.3208,2.8182,28.4260,-33.2938,
2.460174,-1.5895,2.7821,0.4814,0.7161,0.9328,0.3208,2.4156,25.8518,-35.1726,
2.461213,-1.5895,2.7821,0.4814,0.5053,0.6064,0.3467,2.4156,25.8518,-35.1726,
2.471096,-4.8049,1.7224,1.6362,0.5053,0.6064,0.3467,2.4156,25.8518,-35.1726,
2.501308,-4.8049,1.7224,1.6362,0.5053,0.6064,0.3467,2.4156,25.8518,-35.1726,
2.502107,-4.8049,1.7224,1.6362,0.5053,0.6064,0.3467,2.4156,25.8518,-35.1726,
2.502739,-4.8049,1.7224,1.6362,0.5053,0.6064,0.3467,2.4156,25.8518,-35.1726,
2.503168,-4.8049,1.7224,1.6362,0.5053,0.6064,0.3467,2.4156,25.8518,-35.1726,
2.521380,-4.8049,1.7224,1.6362,0.5053,0.6064,0.3467,2.0008,23.2776,-37.0026,
2.529288,-4.8049,1.7224,1.6362,0.3322,0.1439,-0.1172,2.0008,23.2776,-37.0026,
2.539479,-1.8241,0.5265,1.8787,0.3322,0.1439,-0.1172,2.0008,23.2776,-37.0026,
2.569236,-1.8241,0.5265,1.8787,0.3322,0.1439,-0.1172,2.0008,23.2776,-37.0026,
2.570804,-1.8241,0.5265,1.8787,0.3322,0.1439,-0.1172,2.0008,23.2776,-37.0026,
2.571460,-1.8241,0.5265,1.8787,0.3322,0.1439,-0.1172,2.0008,23.2776,-37.0026,
2.580360,-1.8241,0.5265,1.8787,0.3322,0.1439,-0.1172,2.3790,21.1548,-38.3446,
2.600476,-1.8241,0.5265,1.8787,-0.1423,-0.5960,0.2133,2.3790,21.1548,-38.3446,
2.607849,-0.1969,-0.2582,0.1994,-0.1423,-0.5960,0.2133,2.3790,21.1548,-38.3446,
2.634590,-0.1969,-0.2582,0.1994,-0.1423,-0.5960,0.2133,2.3790,21.1548,-38.3446,
2.635928,-0.1969,-0.2582,0.1994,-0.1423,-0.5960,0.2133,2.3790,21.1548,-38.3446,
2.636664,-0.1969,-0.2582,0.1994,-0.1423,-0.5960,0.2133,2.3790,21.1548,-38.3446,
2.637391,-0.1969,-0.2582,0.1994,-0.1423,-0.5960,0.2133,2.8670,19.5078,-39.5036,
2.668360,-0.1969,-0.2582,0.1994,-0.1437,-0.5806,0.3144,2.8670,19.5078,-39.5036,
2.679223,0.4930,-0.1076,-0.7712,-0.1437,-0.5806,0.3144,2.8670,19.5078,-39.5036,
2.698439,0.4930,-0.1076,-0.7712,-0.1437,-0.5806,0.3144,3.5258,18.0804,-40.3942,
2.701236,0.4930,-0.1076,-0.7712,-0.1437,-0.5806,0.3144,3.5258,18.0804,-40.3942,
2.702571,0.4930,-0.1076,-0.7712,-0.1437,-0.5806,0.3144,3.5258,18.0804,-40.3942,
2.703559,0.4930,-0.1076,-0.7712,-0.1437,-0.5806,0.3144,3.5258,18.0804,-40.3942,
2.704534,0.4930,-0.1076,-0.7712,-0.1437,-0.5806,0.3144,3.5258,18.0804,-40.3942,
2.739838,0.4930,-0.1076,-0.7712,-0.0383,-0.3667,0.2402,3.5258,18.0804,-40.3942,
2.750222,-0.5484,-1.7306,-0.5107,-0.0383,-0.3667,0.2402,3.5258,18.0804,-40.3942,
2.760104,-0.5484,-1.7306,-0.5107,-0.0383,-0.3667,0.2402,3.9528,17.2386,-40.7846,
2.767515,-0.5484,-1.7306,-0.5107,-0.0383,-0.3667,0.2402,3.9528,17.2386,-40.7846,
2.769691,-0.5484,-1.7306,-0.5107,-0.0383,-0.3667,0.2402,3.9528,17.2386,-40.7846,
2.771374,-0.5484,-1.7306,-0.5107,-0.0383,-0.3667,0.2402,3.9528,17.2386,-40.7846,
2.809415,-0.5484,-1.7306,-0.5107,0.0328,-0.4450,0.1121,3.9528,17.2386,-40.7846,
2.821674,-0.5484,-1.7306,-0.5107,0.0328,-0.4450,0.1121,4.1114,16.8726,-41.0896,
2.825096,0.1073,0.2609,-1.6864,0.0328,-0.4450,0.1121,4.1114,16.8726,-41.0896,
2.834210,0.1073,0.2609,-1.6864,0.0328,-0.4450,0.1121,4.1114,16.8726,-41.0896,
2.836939,0.1073,0.2609,-1.6864,0.0328,-0.4450,0.1121,4.1114,16.8726,-41.0896,
2.837839,0.1073,0.2609,-1.6864,0.0328,-0.4450,0.1121,4.1114,16.8726,-41.0896,
2.879369,0.1073,0.2609,-1.6864,0.0328,-0.4450,0.1121,3.9040,16.7384,-41.2970,
2.884159,0.1073,0.2609,-1.6864,-0.1780,0.1638,0.0304,3.9040,16.7384,-41.2970,
2.894477,0.9332,-0.2171,-1.1850,-0.1780,0.1638,0.0304,3.9040,16.7384,-41.2970,
2.900762,0.9332,-0.2171,-1.1850,-0.1780,0.1638,0.0304,3.9040,16.7384,-41.2970,
2.902022,0.9332,-0.2171,-1.1850,-0.1780,0.1638,0.0304,3.9040,16.7384,-41.2970,
2.903223,0.9332,-0.2171,-1.1850,-0.1780,0.1638,0.0304,3.9040,16.7384,-41.2970,
2.904261,0.9332,-0.2171,-1.1850,-0.1780,0.1638,0.0304,3.9040,16.7384,-41.2970,
2.939296,0.9332,-0.2171,-1.1850,-0.1780,0.1638,0.0304,3.6356,16.8360,-41.4068,
2.951796,0.9332,-0.2171,-1.1850,-0.3609,0.3712,0.0036,3.6356,16.8360,-41.4068,
2.959488,-0.0880,-0.0802,-0.5939,-0.3609,0.3712,0.0036,3.6356,16.8360,-41.4068,
2.967040,-0.0880,-0.0802,-0.5939,-0.3609,0.3712,0.0036,3.6356,16.8360,-41.4068,
2.968460,-0.0880,-0.0802,-0.5939,-0.3609,0.3712,0.0036,3.6356,16.8360,-41.4068,
2.970099,-0.0880,-0.0802,-0.5939,-0.3609,0.3712,0.0036,3.6356,16.8360,-41.4068,
2.996812,-0.0880,-0.0802,-0.5939,-0.3609,0.3712,0.0036,3.3062,17.1654,-41.3946,
3.017118,-0.0880,-0.0802,-0.5939,-0.3481,0.6081,0.1483,3.3062,17.1654,-41.3946,
3.026642,-1.2081,-0.3907,-0.1792,-0.3481,0.6081,0.1483,3.3062,17.1654,-41.3946,
3.032479,-1.2081,-0.3907,-0.1792,-0.3481,0.6081,0.1483,3.3062,17.1654,-41.3946,
3.034659,-1.2081,-0.3907,-0.1792,-0.3481,0.6081,0.1483,3.3062,17.1654,-41.3946,
3.036953,-1.2081,-0.3907,-0.1792,-0.3481,0.6081,0.1483,3.3062,17.1654,-41.3946,
3.057943,-1.2081,-0.3907,-0.1792,-0.3481,0.6081,0.1483,3.2086,17.6656,-41.2848,
3.088254,-1.2081,-0.3907,-0.1792,0.0208,0.3088,0.1352,3.2086,17.6656,-41.2848,
3.102772,-0.3729,-1.0930,-0.0775,0.0208,0.3088,0.1352,3.2086,17.6656,-41.2848,
3.104505,-0.3729,-1.0930,-0.0775,0.0208,0.3088,0.1352,3.2086,17.6656,-41.2848,
3.105340,-0.3729,-1.0930,-0.0775,0.0208,0.3088,0.1352,3.2086,17.6656,-41.2848,
3.106152,-0.3729,-1.0930,-0.0775,0.0208,0.3088,0.1352,3.2086,17.6656,-41.2848,
3.107700,-0.3729,-1.0930,-0.0775,0.0208,0.3088,0.1352,3.2086,17.6656,-41.2848,
3.115421,-0.3729,-1.0930,-0.0775,0.0208,0.3088,0.1352,3.4404,18.0560,-41.0896,
3.157334,-0.3729,-1.0930,-0.0775,-0.0566,0.3041,0.5465,3.4404,18.0560,-41.0896,
3.171007,-0.3729,-1.0930,-0.0775,-0.0566,0.3041,0.5465,3.4404,18.0560,-41.0896,
3.173696,-0.3729,-1.0930,-0.0775,-0.0566,0.3041,0.5465,3.4404,18.0560,-41.0896,
3.175664,-0.3729,-1.0930,-0.0775,-0.0566,0.3041,0.5465,3.4404,18.0560,-41.0896,
3.176968,0.6042,0.8770,-0.2368,-0.0566,0.3041,0.5465,3.4404,18.0560,-41.0896,
3.179371,0.6042,0.8770,-0.2368,-0.0566,0.3041,0.5465,3.9162,18.4220,-40.9188,
3.229359,0.6042,0.8770,-0.2368,-0.4935,0.4752,1.0312,3.9162,18.4220,-40.9188,
3.233478,0.6042,0.8770,-0.2368,-0.4935,0.4752,1.0312,3.9162,18.4220,-40.9188,
3.235897,0.6042,0.8770,-0.2368,-0.4935,0.4752,1.0312,3.9162,18.4220,-40.9188,
3.237488,0.6042,0.8770,-0.2368,-0.4935,0.4752,1.0312,3.9162,18.4220,-40.9188,
3.238699,0.6042,0.8770,-0.2368,-0.4935,0.4752,1.0312,4.7336,18.7758,-40.6382,
3.240021,0.9346,1.9397,-0.6667,-0.4935,0.4752,1.0312,4.7336,18.7758,-40.6382,
3.296894,0.9346,1.9397,-0.6667,-0.4935,0.4752,1.0312,5.9902,19.3492,-40.2356,
3.300834,0.9346,1.9397,-0.6667,-0.9982,0.5049,0.9658,5.9902,19.3492,-40.2356,
3.302821,0.9346,1.9397,-0.6667,-0.9982,0.5049,0.9658,5.9902,19.3492,-40.2356,
3.304929,0.9346,1.9397,-0.6667,-0.9982,0.5049,0.9658,5.9902,19.3492,-40.2356,
3.306099,0.9346,1.9397,-0.6667,-0.9982,0.5049,0.9658,5.9902,19.3492,-40.2356,
3.307147,0.9346,1.9397,-0.6667,-0.9982,0.5049,0.9658,5.9902,19.3492,-40.2356,
3.307832,0.2321,0.8616,0.0564,-0.9982,0.5049,0.9658,5.9902,19.3492,-40.2356,
3.357905,0.2321,0.8616,0.0564,-0.9982,0.5049,0.9658,7.6616,20.1300,-39.5768,
3.367452,0.2321,0.8616,0.0564,-1.4148,0.7747,1.4940,7.6616,20.1300,-39.5768,
3.370163,0.2321,0.8616,0.0564,-1.4148,0.7747,1.4940,7.6616,20.1300,-39.5768,
3.371669,0.2321,0.8616,0.0564,-1.4148,0.7747,1.4940,7.6616,20.1300,-39.5768,
3.372802,0.2321,0.8616,0.0564,-1.4148,0.7747,1.4940,7.6616,20.1300,-39.5768,
3.376225,0.0968,1.2175,-0.3386,-1.4148,0.7747,1.4940,7.6616,20.1300,-39.5768,
3.417669,0.0968,1.2175,-0.3386,-1.4148,0.7747,1.4940,9.5892,21.0572,-38.5886,
3.436156,0.0968,1.2175,-0.3386,-1.4148,0.7747,1.4940,9.5892,21.0572,-38.5886,
3.438980,0.0968,1.2175,-0.3386,-1.4148,0.7747,1.4940,9.5892,21.0572,-38.5886,
3.440903,0.0968,1.2175,-0.3386,-1.4148,0.7747,1.4940,9.5892,21.0572,-38.5886,
3.443225,0.0968,1.2175,-0.3386,-1.5850,0.9830,1.3500,9.5892,21.0572,-38.5886,
3.448426,-0.7864,-0.2379,0.2383,-1.5850,0.9830,1.3500,9.5892,21.0572,-38.5886,
3.476100,-0.7864,-0.2379,0.2383,-1.5850,0.9830,1.3500,11.8828,22.1064,-37.2344,
3.501124,-0.7864,-0.2379,0.2383,-1.5850,0.9830,1.3500,11.8828,22.1064,-37.2344,
3.505317,-0.7864,-0.2379,0.2383,-1.5850,0.9830,1.3500,11.8828,22.1064,-37.2344,
3.508123,-0.7864,-0.2379,0.2383,-1.5850,0.9830,1.3500,11.8828,22.1064,-37.2344,
3.510039,-0.7864,-0.2379,0.2383,-1.5850,0.9830,1.3500,11.8828,22.1064,-37.2344,
3.511454,-0.7864,-0.2379,0.2383,-1.6449,0.6458,1.0440,11.8828,22.1064,-37.2344,
3.517190,-0.9020,-0.2318,0.1652,-1.6449,0.6458,1.0440,11.8828,22.1064,-37.2344,
3.536459,-0.9020,-0.2318,0.1652,-1.6449,0.6458,1.0440,14.2984,23.2532,-35.4776,
3.567734,-0.9020,-0.2318,0.1652,-1.6449,0.6458,1.0440,14.2984,23.2532,-35.4776,
3.570733,-0.9020,-0.2318,0.1652,-1.6449,0.6458,1.0440,14.2984,23.2532,-35.4776,
3.572677,-0.9020,-0.2318,0.1652,-1.6449,0.6458,1.0440,14.2984,23.2532,-35.4776,
3.575790,-0.9020,-0.2318,0.1652,-1.5016,0.3372,0.7396,14.2984,23.2532,-35.4776,
3.586169,-1.1736,-0.4289,0.1008,-1.5016,0.3372,0.7396,14.2984,23.2532,-35.4776,
3.597983,-1.1736,-0.4289,0.1008,-1.5016,0.3372,0.7396,16.8238,24.5708,-33.3914,
3.635428,-1.1736,-0.4289,0.1008,-1.5016,0.3372,0.7396,16.8238,24.5708,-33.3914,
3.638681,-1.1736,-0.4289,0.1008,-1.5016,0.3372,0.7396,16.8238,24.5708,-33.3914,
3.640673,-1.1736,-0.4289,0.1008,-1.5016,0.3372,0.7396,16.8238,24.5708,-33.3914,
3.643111,-1.1736,-0.4289,0.1008,-1.5016,0.3372,0.7396,16.8238,24.5708,-33.3914,
3.647946,-1.1736,-0.4289,0.1008,-1.3334,-0.0866,0.4879,16.8238,24.5708,-33.3914,
3.657225,-1.1736,-0.4289,0.1008,-1.3334,-0.0866,0.4879,19.3248,26.0226,-31.0368,
3.659214,-0.5160,0.0091,0.2227,-1.3334,-0.0866,0.4879,19.3248,26.0226,-31.0368,
3.700970,-0.5160,0.0091,0.2227,-1.3334,-0.0866,0.4879,19.3248,26.0226,-31.0368,
3.704466,-0.5160,0.0091,0.2227,-1.3334,-0.0866,0.4879,19.3248,26.0226,-31.0368,
3.707031,-0.5160,0.0091,0.2227,-1.3334,-0.0866,0.4879,19.3248,26.0226,-31.0368,
3.715807,-0.5160,0.0091,0.2227,-1.3334,-0.0866,0.4879,21.6306,27.5110,-28.4870,
3.719099,-0.5160,0.0091,0.2227,-1.2172,-0.5326,0.3606,21.6306,27.5110,-28.4870,
3.726176,-1.1681,-1.1708,0.4571,-1.2172,-0.5326,0.3606,21.6306,27.5110,-28.4870,
3.768170,-1.1681,-1.1708,0.4571,-1.2172,-0.5326,0.3606,21.6306,27.5110,-28.4870,
3.771498,-1.1681,-1.1708,0.4571,-1.2172,-0.5326,0.3606,21.6306,27.5110,-28.4870,
3.773875,-1.1681,-1.1708,0.4571,-1.2172,-0.5326,0.3606,21.6306,27.5110,-28.4870,
3.776359,-1.1681,-1.1708,0.4571,-1.2172,-0.5326,0.3606,23.5948,28.8774,-26.0226,
3.785428,-1.1681,-1.1708,0.4571,-0.9800,-1.1784,0.2910,23.5948,28.8774,-26.0226,
3.796448,-0.3673,-0.3496,1.3555,-0.9800,-1.1784,0.2910,23.5948,28.8774,-26.0226,
3.835500,-0.3673,-0.3496,1.3555,-0.9800,-1.1784,0.2910,25.0588,30.1340,-23.8632,
3.839516,-0.3673,-0.3496,1.3555,-0.9800,-1.1784,0.2910,25.0588,30.1340,-23.8632,
3.841746,-0.3673,-0.3496,1.3555,-0.9800,-1.1784,0.2910,25.0588,30.1340,-23.8632,
3.844075,-0.3673,-0.3496,1.3555,-0.9800,-1.1784,0.2910,25.0588,30.1340,-23.8632,
3.846234,-0.3673,-0.3496,1.3555,-0.9800,-1.1784,0.2910,25.0588,30.1340,-23.8632,
3.856649,-0.3673,-0.3496,1.3555,-0.8706,-1.3839,0.4732,25.0588,30.1340,-23.8632,
3.865594,0.9071,0.1811,0.6683,-0.8706,-1.3839,0.4732,25.0588,30.1340,-23.8632,
3.895638,0.9071,0.1811,0.6683,-0.8706,-1.3839,0.4732,26.0470,31.1588,-22.0576,
3.900450,0.9071,0.1811,0.6683,-0.8706,-1.3839,0.4732,26.0470,31.1588,-22.0576,
3.903413,0.9071,0.1811,0.6683,-0.8706,-1.3839,0.4732,26.0470,31.1588,-22.0576,
3.905863,0.9071,0.1811,0.6683,-0.8706,-1.3839,0.4732,26.0470,31.1588,-22.0576,
3.925614,0.9071,0.1811,0.6683,-0.5237,-0.6954,0.6093,26.0470,31.1588,-22.0576,
3.935717,2.0025,0.5366,0.2825,-0.5237,-0.6954,0.6093,26.0470,31.1588,-22.0576,
3.965029,2.0025,0.5366,0.2825,-0.5237,-0.6954,0.6093,26.6448,31.9518,-20.6546,
3.968857,2.0025,0.5366,0.2825,-0.5237,-0.6954,0.6093,26.6448,31.9518,-20.6546,
3.971215,2.0025,0.5366,0.2825,-0.5237,-0.6954,0.6093,26.6448,31.9518,-20.6546,
3.973471,2.0025,0.5366,0.2825,-0.5237,-0.6954,0.6093,26.6448,31.9518,-20.6546,
3.995079,2.0025,0.5366,0.2825,-0.7723,-0.3438,0.7534,26.6448,31.9518,-20.6546,
4.004819,-0.9210,-0.5693,-0.9825,-0.7723,-0.3438,0.7534,26.6448,31.9518,-20.6546,
4.025025,-0.9210,-0.5693,-0.9825,-0.7723,-0.3438,0.7534,26.9376,32.5496,-19.5078,
4.033495,-0.9210,-0.5693,-0.9825,-0.7723,-0.3438,0.7534,26.9376,32.5496,-19.5078,
4.036467,-0.9210,-0.5693,-0.9825,-0.7723,-0.3438,0.7534,26.9376,32.5496,-19.5078,
4.038884,-0.9210,-0.5693,-0.9825,-0.7723,-0.3438,0.7534,26.9376,32.5496,-19.5078,
4.040477,-0.9210,-0.5693,-0.9825,-0.7723,-0.3438,0.7534,26.9376,32.5496,-19.5078,
4.063521,-0.9210,-0.5693,-0.9825,-0.8223,-1.1007,0.4606,26.9376,32.5496,-19.5078,
4.077385,-1.7567,-1.2703,-2.1269,-0.8223,-1.1007,0.4606,26.9376,32.5496,-19.5078,
4.084221,-1.7567,-1.2703,-2.1269,-0.8223,-1.1007,0.4606,27.0230,33.0132,-18.7392,
4.101069,-1.7567,-1.2703,-2.1269,-0.8223,-1.1007,0.4606,27.0230,33.0132,-18.7392,
4.104615,-1.7567,-1.2703,-2.1269,-0.8223,-1.1007,0.4606,27.0230,33.0132,-18.7392,
4.107128,-1.7567,-1.2703,-2.1269,-0.8223,-1.1007,0.4606,27.0230,33.0132,-18.7392,
4.134306,-1.7567,-1.2703,-2.1269,-0.8285,-0.9250,0.2542,27.0230,33.0132,-18.7392,
4.144179,-1.7567,-1.2703,-2.1269,-0.8285,-0.9250,0.2542,26.8888,33.4280,-18.3000,
4.147971,1.6029,-0.1100,-0.3756,-0.8285,-0.9250,0.2542,26.8888,33.4280,-18.3000,
4.168250,1.6029,-0.1100,-0.3756,-0.8285,-0.9250,0.2542,26.8888,33.4280,-18.3000,
4.171701,1.6029,-0.1100,-0.3756,-0.8285,-0.9250,0.2542,26.8888,33.4280,-18.3000,
4.175232,1.6029,-0.1100,-0.3756,-0.8285,-0.9250,0.2542,26.8888,33.4280,-18.3000,
4.204578,1.6029,-0.1100,-0.3756,-0.8285,-0.9250,0.2542,26.7790,33.7940,-17.9950,
4.208981,1.6029,-0.1100,-0.3756,-0.7728,-0.0771,0.3293,26.7790,33.7940,-17.9950,
4.215181,0.4827,-0.0168,0.2588,-0.7728,-0.0771,0.3293,26.7790,33.7940,-17.9950,
4.233866,0.4827,-0.0168,0.2588,-0.7728,-0.0771,0.3293,26.7790,33.7940,-17.9950,
4.236875,0.4827,-0.0168,0.2588,-0.7728,-0.0771,0.3293,26.7790,33.7940,-17.9950,
4.240453,0.4827,-0.0168,0.2588,-0.7728,-0.0771,0.3293,26.7790,33.7940,-17.9950,
4.243496,0.4827,-0.0168,0.2588,-0.7728,-0.0771,0.3293,26.7790,33.7940,-17.9950,
4.263489,0.4827,-0.0168,0.2588,-0.7728,-0.0771,0.3293,26.6692,34.1844,-17.5680,
4.274232,0.4827,-0.0168,0.2588,-0.4025,0.1728,0.0260,26.6692,34.1844,-17.5680,
4.284556,0.2522,-0.3398,0.3371,-0.4025,0.1728,0.0260,26.6692,34.1844,-17.5680,
4.301369,0.2522,-0.3398,0.3371,-0.4025,0.1728,0.0260,26.6692,34.1844,-17.5680,
4.304068,0.2522,-0.3398,0.3371,-0.4025,0.1728,0.0260,26.6692,34.1844,-17.5680,
4.305109,0.2522,-0.3398,0.3371,-0.4025,0.1728,0.0260,26.6692,34.1844,-17.5680,
4.323637,0.2522,-0.3398,0.3371,-0.4025,0.1728,0.0260,26.6936,34.4650,-16.9336,
4.342137,0.2522,-0.3398,0.3371,-0.2931,0.1286,-0.0097,26.6936,34.4650,-16.9336,
4.353137,0.2797,-0.1668,0.8839,-0.2931,0.1286,-0.0097,26.6936,34.4650,-16.9336,
4.365939,0.2797,-0.1668,0.8839,-0.2931,0.1286,-0.0097,26.6936,34.4650,-16.9336,
4.367959,0.2797,-0.1668,0.8839,-0.2931,0.1286,-0.0097,26.6936,34.4650,-16.9336,
4.369466,0.2797,-0.1668,0.8839,-0.2931,0.1286,-0.0097,26.6936,34.4650,-16.9336,
4.381843,0.2797,-0.1668,0.8839,-0.2931,0.1286,-0.0097,26.8400,34.7822,-16.1528,
4.412080,0.2797,-0.1668,0.8839,-0.1533,0.0087,-0.0332,26.8400,34.7822,-16.1528,
4.422858,-0.2552,0.0592,0.7043,-0.1533,0.0087,-0.0332,26.8400,34.7822,-16.1528,
4.434521,-0.2552,0.0592,0.7043,-0.1533,0.0087,-0.0332,26.8400,34.7822,-16.1528,
4.436418,-0.2552,0.0592,0.7043,-0.1533,0.0087,-0.0332,26.8400,34.7822,-16.1528,
4.438015,-0.2552,0.0592,0.7043,-0.1533,0.0087,-0.0332,26.8400,34.7822,-16.1528,
4.439388,-0.2552,0.0592,0.7043,-0.1533,0.0087,-0.0332,26.8400,34.7822,-16.1528,
4.441692,-0.2552,0.0592,0.7043,-0.1533,0.0087,-0.0332,26.8034,35.1726,-15.3110,
4.482147,-0.2552,0.0592,0.7043,0.1755,-0.0461,-0.0334,26.8034,35.1726,-15.3110,
4.494864,0.0212,1.1573,0.7105,0.1755,-0.0461,-0.0334,26.8034,35.1726,-15.3110,
4.504729,0.0212,1.1573,0.7105,0.1755,-0.0461,-0.0334,26.6936,35.5874,-14.7132,
4.507853,0.0212,1.1573,0.7105,0.1755,-0.0461,-0.0334,26.6936,35.5874,-14.7132,
4.509894,0.0212,1.1573,0.7105,0.1755,-0.0461,-0.0334,26.6936,35.5874,-14.7132,
4.512109,0.0212,1.1573,0.7105,0.1755,-0.0461,-0.0334,26.6936,35.5874,-14.7132,
4.552648,0.0212,1.1573,0.7105,0.4518,0.0198,-0.2129,26.6936,35.5874,-14.7132,
4.561794,0.0212,1.1573,0.7105,0.4518,0.0198,-0.2129,26.4740,36.0632,-14.2496,
4.564481,-1.8419,1.8085,0.1945,0.4518,0.0198,-0.2129,26.4740,36.0632,-14.2496,
4.567715,-1.8419,1.8085,0.1945,0.4518,0.0198,-0.2129,26.4740,36.0632,-14.2496,
4.569646,-1.8419,1.8085,0.1945,0.4518,0.0198,-0.2129,26.4740,36.0632,-14.2496,
4.571800,-1.8419,1.8085,0.1945,0.4518,0.0198,-0.2129,26.4740,36.0632,-14.2496,
4.622241,-1.8419,1.8085,0.1945,0.4518,0.0198,-0.2129,26.3154,36.4536,-13.9446,
4.625461,-1.8419,1.8085,0.1945,0.4521,-0.3120,-0.2031,26.3154,36.4536,-13.9446,
4.631520,-1.4325,1.0727,-0.6083,0.4521,-0.3120,-0.2031,26.3154,36.4536,-13.9446,
4.634879,-1.4325,1.0727,-0.6083,0.4521,-0.3120,-0.2031,26.3154,36.4536,-13.9446,
4.637130,-1.4325,1.0727,-0.6083,0.4521,-0.3120,-0.2031,26.3154,36.4536,-13.9446,
4.639501,-1.4325,1.0727,-0.6083,0.4521,-0.3120,-0.2031,26.3154,36.4536,-13.9446,
4.641682,-1.4325,1.0727,-0.6083,0.4521,-0.3120,-0.2031,26.3154,36.4536,-13.9446,
4.681471,-1.4325,1.0727,-0.6083,0.4521,-0.3120,-0.2031,26.0104,36.8806,-13.8836,
4.691583,-1.4325,1.0727,-0.6083,0.1451,-0.5370,0.1818,26.0104,36.8806,-13.8836,
4.708033,-1.4325,1.0727,-0.6083,0.1451,-0.5370,0.1818,26.0104,36.8806,-13.8836,
4.710727,-1.4325,1.0727,-0.6083,0.1451,-0.5370,0.1818,26.0104,36.8806,-13.8836,
4.711890,-1.4325,1.0727,-0.6083,0.1451,-0.5370,0.1818,26.0104,36.8806,-13.8836,
4.713336,-0.3744,-0.2509,-0.7962,0.1451,-0.5370,0.1818,26.0104,36.8806,-13.8836,
4.742908,-0.3744,-0.2509,-0.7962,0.1451,-0.5370,0.1818,25.7664,37.1002,-14.0788,
4.762134,-0.3744,-0.2509,-0.7962,0.4035,-0.2890,0.5784,25.7664,37.1002,-14.0788,
4.767170,-0.3744,-0.2509,-0.7962,0.4035,-0.2890,0.5784,25.7664,37.1002,-14.0788,
4.769811,-0.3744,-0.2509,-0.7962,0.4035,-0.2890,0.5784,25.7664,37.1002,-14.0788,
4.771864,-0.3744,-0.2509,-0.7962,0.4035,-0.2890,0.5784,25.7664,37.1002,-14.0788,
4.775717,0.1602,0.2015,-0.3917,0.4035,-0.2890,0.5784,25.7664,37.1002,-14.0788,
4.801074,0.1602,0.2015,-0.3917,0.4035,-0.2890,0.5784,25.5834,37.1978,-14.6278,
4.835106,0.1602,0.2015,-0.3917,0.3814,-0.2960,0.9428,25.5834,37.1978,-14.6278,
4.838703,0.1602,0.2015,-0.3917,0.3814,-0.2960,0.9428,25.5834,37.1978,-14.6278,
4.840590,0.1602,0.2015,-0.3917,0.3814,-0.2960,0.9428,25.5834,37.1978,-14.6278,
4.842856,0.1602,0.2015,-0.3917,0.3814,-0.2960,0.9428,25.5834,37.1978,-14.6278,
4.843898,0.1602,0.2015,-0.3917,0.3814,-0.2960,0.9428,25.5834,37.1978,-14.6278,
4.844845,0.9900,0.5930,0.0535,0.3814,-0.2960,0.9428,25.5834,37.1978,-14.6278,
4.862404,0.9900,0.5930,0.0535,0.3814,-0.2960,0.9428,25.5834,37.0392,-15.4940,
4.901810,0.9900,0.5930,0.0535,0.4272,-0.2373,1.1144,25.5834,37.0392,-15.4940,
4.905256,0.9900,0.5930,0.0535,0.4272,-0.2373,1.1144,25.5834,37.0392,-15.4940,
4.907586,0.9900,0.5930,0.0535,0.4272,-0.2373,1.1144,25.5834,37.0392,-15.4940,
4.909637,0.9900,0.5930,0.0535,0.4272,-0.2373,1.1144,25.5834,37.0392,-15.4940,
4.914549,1.6955,-0.6847,-0.3401,0.4272,-0.2373,1.1144,25.5834,37.0392,-15.4940,
4.921027,1.6955,-0.6847,-0.3401,0.4272,-0.2373,1.1144,25.8396,36.6000,-16.5676,
4.968226,1.6955,-0.6847,-0.3401,0.4272,-0.2373,1.1144,25.8396,36.6000,-16.5676,
4.971266,1.6955,-0.6847,-0.3401,0.4272,-0.2373,1.1144,25.8396,36.6000,-16.5676,
4.973209,1.6955,-0.6847,-0.3401,0.4272,-0.2373,1.1144,25.8396,36.6000,-16.5676,
4.975476,1.6955,-0.6847,-0.3401,0.2847,-0.2221,0.9689,25.8396,36.6000,-16.5676,
4.981153,1.6955,-0.6847,-0.3401,0.2847,-0.2221,0.9689,26.3276,35.9168,-17.7022,
4.984090,-0.0831,-1.7498,-2.7064,0.2847,-0.2221,0.9689,26.3276,35.9168,-17.7022,
5.034696,-0.0831,-1.7498,-2.7064,0.2847,-0.2221,0.9689,26.3276,35.9168,-17.7022,
5.037730,-0.0831,-1.7498,-2.7064,0.2847,-0.2221,0.9689,26.3276,35.9168,-17.7022,
5.039958,-0.0831,-1.7498,-2.7064,0.2847,-0.2221,0.9689,26.3276,35.9168,-17.7022,
5.041919,-0.0831,-1.7498,-2.7064,0.2847,-0.2221,0.9689,26.3276,35.9168,-17.7022,
5.044109,-0.0831,-1.7498,-2.7064,0.2847,-0.2221,0.9689,26.8522,35.0140,-18.9832,
5.046866,-0.0831,-1.7498,-2.7064,0.6361,-0.7434,0.3127,26.8522,35.0140,-18.9832,
5.050707,-1.8755,-0.3111,-1.0955,0.6361,-0.7434,0.3127,26.8522,35.0140,-18.9832,
5.100326,-1.8755,-0.3111,-1.0955,0.6361,-0.7434,0.3127,27.2426,34.1234,-20.3740,
5.103463,-1.8755,-0.3111,-1.0955,0.6361,-0.7434,0.3127,27.2426,34.1234,-20.3740,
5.105162,-1.8755,-0.3111,-1.0955,0.6361,-0.7434,0.3127,27.2426,34.1234,-20.3740,
5.106989,-1.8755,-0.3111,-1.0955,0.6361,-0.7434,0.3127,27.2426,34.1234,-20.3740,
5.109265,-1.8755,-0.3111,-1.0955,-0.5538,-1.3449,-0.2205,27.2426,34.1234,-20.3740,
5.120397,0.3615,0.2310,0.8283,-0.5538,-1.3449,-0.2205,27.2426,34.1234,-20.3740,
5.160414,0.3615,0.2310,0.8283,-0.5538,-1.3449,-0.2205,27.5232,33.2572,-21.5574,
5.166697,0.3615,0.2310,0.8283,-0.5538,-1.3449,-0.2205,27.5232,33.2572,-21.5574,
5.169340,0.3615,0.2310,0.8283,-0.5538,-1.3449,-0.2205,27.5232,33.2572,-21.5574,
5.171960,0.3615,0.2310,0.8283,-0.5538,-1.3449,-0.2205,27.5232,33.2572,-21.5574,
5.178505,0.3615,0.2310,0.8283,-0.3344,-0.3903,-0.1252,27.5232,33.2572,-21.5574,
5.192778,0.8531,-3.5232,-0.2821,-0.3344,-0.3903,-0.1252,27.5232,33.2572,-21.5574,
5.219979,0.8531,-3.5232,-0.2821,-0.3344,-0.3903,-0.1252,27.6574,32.6838,-22.8506,
5.234583,0.8531,-3.5232,-0.2821,-0.3344,-0.3903,-0.1252,27.6574,32.6838,-22.8506,
5.237715,0.8531,-3.5232,-0.2821,-0.3344,-0.3903,-0.1252,27.6574,32.6838,-22.8506,
5.240615,0.8531,-3.5232,-0.2821,-0.3344,-0.3903,-0.1252,27.6574,32.6838,-22.8506,
5.243288,0.8531,-3.5232,-0.2821,-0.3344,-0.3903,-0.1252,27.6574,32.6838,-22.8506,
5.249872,0.8531,-3.5232,-0.2821,0.3675,-0.4710,0.2798,27.6574,32.6838,-22.8506,
5.261607,-1.5458,-0.3770,0.6470,0.3675,-0.4710,0.2798,27.6574,32.6838,-22.8506,
5.278818,-1.5458,-0.3770,0.6470,0.3675,-0.4710,0.2798,27.6208,32.1470,-24.1682,
5.301452,-1.5458,-0.3770,0.6470,0.3675,-0.4710,0.2798,27.6208,32.1470,-24.1682,
5.304990,-1.5458,-0.3770,0.6470,0.3675,-0.4710,0.2798,27.6208,32.1470,-24.1682,
5.307569,-1.5458,-0.3770,0.6470,0.3675,-0.4710,0.2798,27.6208,32.1470,-24.1682,
5.320300,-1.5458,-0.3770,0.6470,0.0629,-0.3333,0.3546,27.6208,32.1470,-24.1682,
5.329129,-0.8311,0.3849,0.5120,0.0629,-0.3333,0.3546,27.6208,32.1470,-24.1682,
5.338995,-0.8311,0.3849,0.5120,0.0629,-0.3333,0.3546,27.3158,31.7444,-25.4614,
5.369309,-0.8311,0.3849,0.5120,0.0629,-0.3333,0.3546,27.3158,31.7444,-25.4614,
5.371371,-0.8311,0.3849,0.5120,0.0629,-0.3333,0.3546,27.3158,31.7444,-25.4614,
5.372027,-0.8311,0.3849,0.5120,0.0629,-0.3333,0.3546,27.3158,31.7444,-25.4614,
5.372697,-0.8311,0.3849,0.5120,0.0629,-0.3333,0.3546,27.3158,31.7444,-25.4614,
5.388161,-0.8311,0.3849,0.5120,-0.0660,-0.3212,0.4854,27.3158,31.7444,-25.4614,
5.399349,-0.8311,0.3849,0.5120,-0.0660,-0.3212,0.4854,26.8400,31.4272,-26.6326,
5.400657,-0.5050,-0.4379,0.0360,-0.0660,-0.3212,0.4854,26.8400,31.4272,-26.6326,
5.435947,-0.5050,-0.4379,0.0360,-0.0660,-0.3212,0.4854,26.8400,31.4272,-26.6326,
5.439917,-0.5050,-0.4379,0.0360,-0.0660,-0.3212,0.4854,26.8400,31.4272,-26.6326,
5.442155,-0.5050,-0.4379,0.0360,-0.0660,-0.3212,0.4854,26.8400,31.4272,-26.6326,
5.460091,-0.5050,-0.4379,0.0360,-0.0660,-0.3212,0.4854,26.1690,31.2076,-27.8038,
5.464042,-0.5050,-0.4379,0.0360,0.0121,-0.1531,0.6221,26.1690,31.2076,-27.8038,
5.477629,0.0181,0.9227,0.0981,0.0121,-0.1531,0.6221,26.1690,31.2076,-27.8038,
5.502210,0.0181,0.9227,0.0981,0.0121,-0.1531,0.6221,26.1690,31.2076,-27.8038,
5.505212,0.0181,0.9227,0.0981,0.0121,-0.1531,0.6221,26.1690,31.2076,-27.8038,
5.507680,0.0181,0.9227,0.0981,0.0121,-0.1531,0.6221,26.1690,31.2076,-27.8038,
5.519566,0.0181,0.9227,0.0981,0.0121,-0.1531,0.6221,25.6322,31.1100,-28.6944,
5.529903,0.0181,0.9227,0.0981,-0.1972,-0.0770,0.7598,25.6322,31.1100,-28.6944,
5.543841,0.0547,1.2718,-0.5800,-0.1972,-0.0770,0.7598,25.6322,31.1100,-28.6944,
5.569562,0.0547,1.2718,-0.5800,-0.1972,-0.0770,0.7598,25.6322,31.1100,-28.6944,
5.572289,0.0547,1.2718,-0.5800,-0.1972,-0.0770,0.7598,25.6322,31.1100,-28.6944,
5.574275,0.0547,1.2718,-0.5800,-0.1972,-0.0770,0.7598,25.6322,31.1100,-28.6944,
5.575960,0.0547,1.2718,-0.5800,-0.1972,-0.0770,0.7598,25.6322,31.1100,-28.6944,
5.579409,0.0547,1.2718,-0.5800,-0.1972,-0.0770,0.7598,25.3028,30.8904,-29.3288,
5.600082,0.0547,1.2718,-0.5800,-0.0744,-0.5057,0.6422,25.3028,30.8904,-29.3288,
5.609754,-1.8064,2.4600,0.1667,-0.0744,-0.5057,0.6422,25.3028,30.8904,-29.3288,
5.637258,-1.8064,2.4600,0.1667,-0.0744,-0.5057,0.6422,25.3028,30.8904,-29.3288,
5.640117,-1.8064,2.4600,0.1667,-0.0744,-0.5057,0.6422,25.3028,30.8904,-29.3288,
5.641337,-1.8064,2.4600,0.1667,-0.0744,-0.5057,0.6422,25.3028,30.8904,-29.3288,
5.642710,-1.8064,2.4600,0.1667,-0.0744,-0.5057,0.6422,25.1320,30.4146,-30.1950,
5.668760,-1.8064,2.4600,0.1667,0.1011,0.2301,-0.1844,25.1320,30.4146,-30.1950,
5.679911,0.6465,2.1890,1.0055,0.1011,0.2301,-0.1844,25.1320,30.4146,-30.1950,
5.701556,0.6465,2.1890,1.0055,0.1011,0.2301,-0.1844,25.1198,29.7680,-30.8782,
5.705411,0.6465,2.1890,1.0055,0.1011,0.2301,-0.1844,25.1198,29.7680,-30.8782,
5.707309,0.6465,2.1890,1.0055,0.1011,0.2301,-0.1844,25.1198,29.7680,-30.8782,
5.708435,0.6465,2.1890,1.0055,0.1011,0.2301,-0.1844,25.1198,29.7680,-30.8782,
5.739278,0.6465,2.1890,1.0055,-0.1124,-0.4426,-0.1843,25.1198,29.7680,-30.8782,
5.756051,-0.4599,-0.7695,-0.1333,-0.1124,-0.4426,-0.1843,25.1198,29.7680,-30.8782,
5.759555,-0.4599,-0.7695,-0.1333,-0.1124,-0.4426,-0.1843,25.0344,29.2678,-31.3296,
5.768896,-0.4599,-0.7695,-0.1333,-0.1124,-0.4426,-0.1843,25.0344,29.2678,-31.3296,
5.771805,-0.4599,-0.7695,-0.1333,-0.1124,-0.4426,-0.1843,25.0344,29.2678,-31.3296,
5.773036,-0.4599,-0.7695,-0.1333,-0.1124,-0.4426,-0.1843,25.0344,29.2678,-31.3296,
5.774272,-0.4599,-0.7695,-0.1333,-0.1124,-0.4426,-0.1843,25.0344,29.2678,-31.3296,
5.808923,-0.4599,-0.7695,-0.1333,0.3019,-0.2610,-0.1960,25.0344,29.2678,-31.3296,
5.823037,-0.4599,-0.7695,-0.1333,0.3019,-0.2610,-0.1960,24.9246,28.8042,-31.7688,
5.826169,1.2529,-0.2075,0.6653,0.3019,-0.2610,-0.1960,24.9246,28.8042,-31.7688,
5.835541,1.2529,-0.2075,0.6653,0.3019,-0.2610,-0.1960,24.9246,28.8042,-31.7688,
5.836999,1.2529,-0.2075,0.6653,0.3019,-0.2610,-0.1960,24.9246,28.8042,-31.7688,
5.837901,1.2529,-0.2075,0.6653,0.3019,-0.2610,-0.1960,24.9246,28.8042,-31.7688,
5.878868,1.2529,-0.2075,0.6653,0.3019,-0.2610,-0.1960,24.7050,28.4138,-32.2446,
5.882208,1.2529,-0.2075,0.6653,0.2410,0.0889,-0.1863,24.7050,28.4138,-32.2446,
5.889616,0.3817,2.2936,-1.5836,0.2410,0.0889,-0.1863,24.7050,28.4138,-32.2446,
5.900812,0.3817,2.2936,-1.5836,0.2410,0.0889,-0.1863,24.7050,28.4138,-32.2446,
5.904233,0.3817,2.2936,-1.5836,0.2410,0.0889,-0.1863,24.7050,28.4138,-32.2446,
5.906209,0.3817,2.2936,-1.5836,0.2410,0.0889,-0.1863,24.7050,28.4138,-32.2446,
5.938840,0.3817,2.2936,-1.5836,0.2410,0.0889,-0.1863,24.5952,28.1210,-32.5862,
5.948321,0.3817,2.2936,-1.5836,0.0260,0.4619,0.2174,24.5952,28.1210,-32.5862,
5.958408,-0.0456,-0.6053,0.6530,0.0260,0.4619,0.2174,24.5952,28.1210,-32.5862,
5.967226,-0.0456,-0.6053,0.6530,0.0260,0.4619,0.2174,24.5952,28.1210,-32.5862,
5.968169,-0.0456,-0.6053,0.6530,0.0260,0.4619,0.2174,24.5952,28.1210,-32.5862,
5.968648,-0.0456,-0.6053,0.6530,0.0260,0.4619,0.2174,24.5952,28.1210,-32.5862,
5.969086,-0.0456,-0.6053,0.6530,0.0260,0.4619,0.2174,24.5952,28.1210,-32.5862,
5.997829,-0.0456,-0.6053,0.6530,0.0260,0.4619,0.2174,24.5098,27.8892,-32.7936,
6.018812,-0.0456,-0.6053,0.6530,-0.3222,-0.1165,-0.0643,24.5098,27.8892,-32.7936,
6.037127,-0.8879,0.0721,0.1727,-0.3222,-0.1165,-0.0643,24.5098,27.8892,-32.7936,
6.040992,-0.8879,0.0721,0.1727,-0.3222,-0.1165,-0.0643,24.5098,27.8892,-32.7936,
6.043382,-0.8879,0.0721,0.1727,-0.3222,-0.1165,-0.0643,24.5098,27.8892,-32.7936,
6.045042,-0.8879,0.0721,0.1727,-0.3222,-0.1165,-0.0643,24.5098,27.8892,-32.7936,
6.056633,-0.8879,0.0721,0.1727,-0.3222,-0.1165,-0.0643,24.3024,27.8770,-33.0010,
6.088146,-0.8879,0.0721,0.1727,-0.2559,-0.7887,-0.3634,24.3024,27.8770,-33.0010,
6.097456,0.4100,-1.8077,0.2137,-0.2559,-0.7887,-0.3634,24.3024,27.8770,-33.0010,
6.101441,0.4100,-1.8077,0.2137,-0.2559,-0.7887,-0.3634,24.3024,27.8770,-33.0010,
6.104135,0.4100,-1.8077,0.2137,-0.2559,-0.7887,-0.3634,24.3024,27.8770,-33.0010,
6.106995,0.4100,-1.8077,0.2137,-0.2559,-0.7887,-0.3634,24.3024,27.8770,-33.0010,
6.114569,0.4100,-1.8077,0.2137,-0.2559,-0.7887,-0.3634,23.8510,28.1942,-33.2084,
6.157425,0.4100,-1.8077,0.2137,-0.0234,-1.4151,-0.7404,23.8510,28.1942,-33.2084,
6.168372,-1.4039,-0.1597,1.0445,-0.0234,-1.4151,-0.7404,23.8510,28.1942,-33.2084,
6.171867,-1.4039,-0.1597,1.0445,-0.0234,-1.4151,-0.7404,23.8510,28.1942,-33.2084,
6.173863,-1.4039,-0.1597,1.0445,-0.0234,-1.4151,-0.7404,23.8510,28.1942,-33.2084,
6.176076,-1.4039,-0.1597,1.0445,-0.0234,-1.4151,-0.7404,23.8510,28.1942,-33.2084,
6.178121,-1.4039,-0.1597,1.0445,-0.0234,-1.4151,-0.7404,23.8510,28.1942,-33.2084,
6.180545,-1.4039,-0.1597,1.0445,-0.0234,-1.4151,-0.7404,22.8750,28.5846,-33.6110,
6.226470,-1.4039,-0.1597,1.0445,-0.2181,-0.9215,-0.8017,22.8750,28.5846,-33.6110,
6.235522,-1.4039,-0.1597,1.0445,-0.2181,-0.9215,-0.8017,21.5940,29.0482,-34.0746,
6.239019,-1.4039,-0.1597,1.0445,-0.2181,-0.9215,-0.8017,21.5940,29.0482,-34.0746,
6.241817,-1.4039,-0.1597,1.0445,-0.2181,-0.9215,-0.8017,21.5940,29.0482,-34.0746,
6.244406,-1.4039,-0.1597,1.0445,-0.2181,-0.9215,-0.8017,21.5940,29.0482,-34.0746,
6.246974,1.5439,0.4946,0.4150,-0.2181,-0.9215,-0.8017,21.5940,29.0482,-34.0746,
6.297570,1.5439,0.4946,0.4150,-0.2181,-0.9215,-0.8017,20.1544,29.5972,-34.4162,
6.301484,1.5439,0.4946,0.4150,0.0052,-0.3836,-0.5502,20.1544,29.5972,-34.4162,
6.303762,1.5439,0.4946,0.4150,0.0052,-0.3836,-0.5502,20.1544,29.5972,-34.4162,
6.305225,1.5439,0.4946,0.4150,0.0052,-0.3836,-0.5502,20.1544,29.5972,-34.4162,
6.306842,1.5439,0.4946,0.4150,0.0052,-0.3836,-0.5502,20.1544,29.5972,-34.4162,
6.308489,2.3282,0.3210,1.4998,0.0052,-0.3836,-0.5502,20.1544,29.5972,-34.4162,
6.356139,2.3282,0.3210,1.4998,0.0052,-0.3836,-0.5502,18.6904,30.1828,-34.7212,
6.365383,2.3282,0.3210,1.4998,0.1788,0.0514,0.0288,18.6904,30.1828,-34.7212,
6.369232,2.3282,0.3210,1.4998,0.1788,0.0514,0.0288,18.6904,30.1828,-34.7212,
6.371501,2.3282,0.3210,1.4998,0.1788,0.0514,0.0288,18.6904,30.1828,-34.7212,
6.372919,2.3282,0.3210,1.4998,0.1788,0.0514,0.0288,18.6904,30.1828,-34.7212,
6.374206,2.3282,0.3210,1.4998,0.1788,0.0514,0.0288,18.6904,30.1828,-34.7212,
6.376029,1.0830,0.5306,1.7836,0.1788,0.0514,0.0288,18.6904,30.1828,-34.7212,
6.417314,1.0830,0.5306,1.7836,0.1788,0.0514,0.0288,17.2752,30.6708,-35.0018,
6.435386,1.0830,0.5306,1.7836,0.3147,0.5786,0.2145,17.2752,30.6708,-35.0018,
6.438173,1.0830,0.5306,1.7836,0.3147,0.5786,0.2145,17.2752,30.6708,-35.0018,
6.440100,1.0830,0.5306,1.7836,0.3147,0.5786,0.2145,17.2752,30.6708,-35.0018,
6.441906,1.0830,0.5306,1.7836,0.3147,0.5786,0.2145,17.2752,30.6708,-35.0018,
6.446743,0.8002,0.5014,-0.4823,0.3147,0.5786,0.2145,17.2752,30.6708,-35.0018,
6.475113,0.8002,0.5014,-0.4823,0.3147,0.5786,0.2145,15.8966,31.1344,-35.4776,
6.501702,0.8002,0.5014,-0.4823,0.3147,0.5786,0.2145,15.8966,31.1344,-35.4776,
6.504047,0.8002,0.5014,-0.4823,0.3147,0.5786,0.2145,15.8966,31.1344,-35.4776,
6.505629,0.8002,0.5014,-0.4823,0.3147,0.5786,0.2145,15.8966,31.1344,-35.4776,
6.508272,0.8002,0.5014,-0.4823,0.1652,0.9671,0.4459,15.8966,31.1344,-35.4776,
6.515043,0.7842,-3.3406,-0.5150,0.1652,0.9671,0.4459,15.8966,31.1344,-35.4776,
6.535696,0.7842,-3.3406,-0.5150,0.1652,0.9671,0.4459,14.9694,31.4272,-35.9290,
6.568123,0.7842,-3.3406,-0.5150,0.1652,0.9671,0.4459,14.9694,31.4272,-35.9290,
6.570803,0.7842,-3.3406,-0.5150,0.1652,0.9671,0.4459,14.9694,31.4272,-35.9290,
6.572107,0.7842,-3.3406,-0.5150,0.1652,0.9671,0.4459,14.9694,31.4272,-35.9290,
6.573583,0.7842,-3.3406,-0.5150,0.1652,0.9671,0.4459,14.9694,31.4272,-35.9290,
6.575016,0.7842,-3.3406,-0.5150,0.4830,0.5826,0.1748,14.9694,31.4272,-35.9290,
6.584381,-2.3081,0.1926,-1.7410,0.4830,0.5826,0.1748,14.9694,31.4272,-35.9290,
6.594288,-2.3081,0.1926,-1.7410,0.4830,0.5826,0.1748,14.4448,31.3784,-36.2340,
6.636593,-2.3081,0.1926,-1.7410,0.4830,0.5826,0.1748,14.4448,31.3784,-36.2340,
6.639268,-2.3081,0.1926,-1.7410,0.4830,0.5826,0.1748,14.4448,31.3784,-36.2340,
6.640925,-2.3081,0.1926,-1.7410,0.4830,0.5826,0.1748,14.4448,31.3784,-36.2340,
6.645896,-2.3081,0.1926,-1.7410,0.2328,-0.2657,0.3245,14.4448,31.3784,-36.2340,
6.658946,-2.3081,0.1926,-1.7410,0.2328,-0.2657,0.3245,14.4204,31.1222,-36.4170,
6.662120,-2.1210,1.9127,-1.3324,0.2328,-0.2657,0.3245,14.4204,31.1222,-36.4170,
6.702686,-2.1210,1.9127,-1.3324,0.2328,-0.2657,0.3245,14.4204,31.1222,-36.4170,
6.705232,-2.1210,1.9127,-1.3324,0.2328,-0.2657,0.3245,14.4204,31.1222,-36.4170,
6.706728,-2.1210,1.9127,-1.3324,0.2328,-0.2657,0.3245,14.4204,31.1222,-36.4170,
6.715601,-2.1210,1.9127,-1.3324,0.2328,-0.2657,0.3245,14.9816,30.6708,-36.4902,
6.718238,-2.1210,1.9127,-1.3324,0.0778,0.5699,0.1736,14.9816,30.6708,-36.4902,
6.725362,1.1365,-0.6927,-0.3595,0.0778,0.5699,0.1736,14.9816,30.6708,-36.4902,
6.768927,1.1365,-0.6927,-0.3595,0.0778,0.5699,0.1736,14.9816,30.6708,-36.4902,
6.770966,1.1365,-0.6927,-0.3595,0.0778,0.5699,0.1736,14.9816,30.6708,-36.4902,
6.771971,1.1365,-0.6927,-0.3595,0.0778,0.5699,0.1736,14.9816,30.6708,-36.4902,
6.772953,1.1365,-0.6927,-0.3595,0.0778,0.5699,0.1736,14.9816,30.6708,-36.4902,
6.774847,1.1365,-0.6927,-0.3595,0.0778,0.5699,0.1736,15.9820,30.1096,-36.5146,
6.784993,1.1365,-0.6927,-0.3595,0.1587,0.7100,0.3285,15.9820,30.1096,-36.5146,
6.796140,-0.6509,0.1497,0.0281,0.1587,0.7100,0.3285,15.9820,30.1096,-36.5146,
6.836332,-0.6509,0.1497,0.0281,0.1587,0.7100,0.3285,17.2508,29.4752,-36.4414,
6.839506,-0.6509,0.1497,0.0281,0.1587,0.7100,0.3285,17.2508,29.4752,-36.4414,
6.841056,-0.6509,0.1497,0.0281,0.1587,0.7100,0.3285,17.2508,29.4752,-36.4414,
6.842676,-0.6509,0.1497,0.0281,0.1587,0.7100,0.3285,17.2508,29.4752,-36.4414,
6.856575,-0.6509,0.1497,0.0281,0.2511,0.5262,0.2574,17.2508,29.4752,-36.4414,
6.865790,-0.6897,0.5915,-0.1586,0.2511,0.5262,0.2574,17.2508,29.4752,-36.4414,
6.902902,-0.6897,0.5915,-0.1586,0.2511,0.5262,0.2574,17.2508,29.4752,-36.4414,
6.905271,-0.6897,0.5915,-0.1586,0.2511,0.5262,0.2574,17.2508,29.4752,-36.4414,
6.907071,-0.6897,0.5915,-0.1586,0.2511,0.5262,0.2574,17.2508,29.4752,-36.4414,
6.908747,-0.6897,0.5915,-0.1586,0.2511,0.5262,0.2574,18.6050,28.8286,-36.3438,
6.925274,-0.6897,0.5915,-0.1586,0.2603,0.7143,0.2268,18.6050,28.8286,-36.3438,
6.934831,-0.1520,0.5707,-0.9907,0.2603,0.7143,0.2268,18.6050,28.8286,-36.3438,
6.964712,-0.1520,0.5707,-0.9907,0.2603,0.7143,0.2268,19.9836,28.1088,-36.0998,
6.968510,-0.1520,0.5707,-0.9907,0.2603,0.7143,0.2268,19.9836,28.1088,-36.0998,
6.970103,-0.1520,0.5707,-0.9907,0.2603,0.7143,0.2268,19.9836,28.1088,-36.0998,
6.971943,-0.1520,0.5707,-0.9907,0.2603,0.7143,0.2268,19.9836,28.1088,-36.0998,
6.973519,-0.1520,0.5707,-0.9907,0.2603,0.7143,0.2268,19.9836,28.1088,-36.0998,
6.995104,-0.1520,0.5707,-0.9907,-0.0688,0.7597,0.0430,19.9836,28.1088,-36.0998,
7.004798,-0.8083,-0.2678,-1.0455,-0.0688,0.7597,0.0430,19.9836,28.1088,-36.0998,
7.024349,-0.8083,-0.2678,-1.0455,-0.0688,0.7597,0.0430,21.2280,27.4378,-35.7216,
7.035193,-0.8083,-0.2678,-1.0455,-0.0688,0.7597,0.0430,21.2280,27.4378,-35.7216,
7.037098,-0.8083,-0.2678,-1.0455,-0.0688,0.7597,0.0430,21.2280,27.4378,-35.7216,
7.038598,-0.8083,-0.2678,-1.0455,-0.0688,0.7597,0.0430,21.2280,27.4378,-35.7216,
7.064660,-0.8083,-0.2678,-1.0455,-0.0886,0.2404,0.0960,21.2280,27.4378,-35.7216,
7.074309,-0.0630,0.0757,-0.2583,-0.0886,0.2404,0.0960,21.2280,27.4378,-35.7216,
7.084082,-0.0630,0.0757,-0.2583,-0.0886,0.2404,0.0960,22.4236,26.9376,-35.2824,
7.103259,-0.0630,0.0757,-0.2583,-0.0886,0.2404,0.0960,22.4236,26.9376,-35.2824,
7.106200,-0.0630,0.0757,-0.2583,-0.0886,0.2404,0.0960,22.4236,26.9376,-35.2824,
7.108725,-0.0630,0.0757,-0.2583,-0.0886,0.2404,0.0960,22.4236,26.9376,-35.2824,
7.134086,-0.0630,0.0757,-0.2583,-0.1139,0.3983,-0.1754,22.4236,26.9376,-35.2824,
7.150675,-0.0630,0.0757,-0.2583,-0.1139,0.3983,-0.1754,23.6680,26.5594,-34.7212,
7.153835,0.4240,0.4894,-0.3525,-0.1139,0.3983,-0.1754,23.6680,26.5594,-34.7212,
7.167696,0.4240,0.4894,-0.3525,-0.1139,0.3983,-0.1754,23.6680,26.5594,-34.7212,
7.169037,0.4240,0.4894,-0.3525,-0.1139,0.3983,-0.1754,23.6680,26.5594,-34.7212,
7.169805,0.4240,0.4894,-0.3525,-0.1139,0.3983,-0.1754,23.6680,26.5594,-34.7212,
7.170654,0.4240,0.4894,-0.3525,-0.1139,0.3983,-0.1754,23.6680,26.5594,-34.7212,
7.205995,0.4240,0.4894,-0.3525,-0.1139,0.3983,-0.1754,24.8392,26.2910,-34.0624,
7.207995,0.4240,0.4894,-0.3525,-0.1796,0.1330,0.1357,24.8392,26.2910,-34.0624,
7.212979,0.2464,-0.9492,0.4273,-0.1796,0.1330,0.1357,24.8392,26.2910,-34.0624,
7.235595,0.2464,-0.9492,0.4273,-0.1796,0.1330,0.1357,24.8392,26.2910,-34.0624,
7.238274,0.2464,-0.9492,0.4273,-0.1796,0.1330,0.1357,24.8392,26.2910,-34.0624,
7.240054,0.2464,-0.9492,0.4273,-0.1796,0.1330,0.1357,24.8392,26.2910,-34.0624,
7.264553,0.2464,-0.9492,0.4273,-0.1796,0.1330,0.1357,25.8518,26.0226,-33.3792,
7.273450,0.2464,-0.9492,0.4273,-0.0694,0.0385,0.0518,25.8518,26.0226,-33.3792,
7.283731,0.8706,0.1365,0.3775,-0.0694,0.0385,0.0518,25.8518,26.0226,-33.3792,
7.303546,0.8706,0.1365,0.3775,-0.0694,0.0385,0.0518,25.8518,26.0226,-33.3792,
7.306164,0.8706,0.1365,0.3775,-0.0694,0.0385,0.0518,25.8518,26.0226,-33.3792,
7.308551,0.8706,0.1365,0.3775,-0.0694,0.0385,0.0518,25.8518,26.0226,-33.3792,
7.311795,0.8706,0.1365,0.3775,-0.0694,0.0385,0.0518,25.8518,26.0226,-33.3792,
7.321491,0.8706,0.1365,0.3775,-0.0694,0.0385,0.0518,26.7546,25.8884,-32.7692,
7.343374,0.8706,0.1365,0.3775,-0.0989,0.4056,0.0065,26.7546,25.8884,-32.7692,
7.357956,0.6184,-0.3829,0.5122,-0.0989,0.4056,0.0065,26.7546,25.8884,-32.7692,
7.369796,0.6184,-0.3829,0.5122,-0.0989,0.4056,0.0065,26.7546,25.8884,-32.7692,
7.371460,0.6184,-0.3829,0.5122,-0.0989,0.4056,0.0065,26.7546,25.8884,-32.7692,
7.372478,0.6184,-0.3829,0.5122,-0.0989,0.4056,0.0065,26.7546,25.8884,-32.7692,
7.383033,0.6184,-0.3829,0.5122,-0.0989,0.4056,0.0065,27.5354,25.8640,-32.0982,
7.414674,0.6184,-0.3829,0.5122,0.0462,0.2270,-0.2093,27.5354,25.8640,-32.0982,
7.425694,-0.3520,-0.2478,0.1836,0.0462,0.2270,-0.2093,27.5354,25.8640,-32.0982,
7.433809,-0.3520,-0.2478,0.1836,0.0462,0.2270,-0.2093,27.5354,25.8640,-32.0982,
7.435270,-0.3520,-0.2478,0.1836,0.0462,0.2270,-0.2093,27.5354,25.8640,-32.0982,
7.436232,-0.3520,-0.2478,0.1836,0.0462,0.2270,-0.2093,27.5354,25.8640,-32.0982,
7.441100,-0.3520,-0.2478,0.1836,0.0462,0.2270,-0.2093,28.1088,25.9738,-31.4394,
7.483170,-0.3520,-0.2478,0.1836,-0.0522,-0.1736,-0.1433,28.1088,25.9738,-31.4394,
7.495308,0.0109,-0.0159,0.0005,-0.0522,-0.1736,-0.1433,28.1088,25.9738,-31.4394,
7.502608,0.0109,-0.0159,0.0005,-0.0522,-0.1736,-0.1433,28.4382,26.1324,-31.0002,
7.504523,0.0109,-0.0159,0.0005,-0.0522,-0.1736,-0.1433,28.4382,26.1324,-31.0002,
7.505629,0.0109,-0.0159,0.0005,-0.0522,-0.1736,-0.1433,28.4382,26.1324,-31.0002,
7.507266,0.0109,-0.0159,0.0005,-0.0522,-0.1736,-0.1433,28.4382,26.1324,-31.0002,
7.508320,0.0109,-0.0159,0.0005,-0.0522,-0.1736,-0.1433,28.4382,26.1324,-31.0002,
7.553682,0.0109,-0.0159,0.0005,-0.0447,-0.1919,-0.0422,28.4382,26.1324,-31.0002,
7.562684,0.0109,-0.0159,0.0005,-0.0447,-0.1919,-0.0422,28.6578,26.3154,-30.5854,
7.565038,0.3344,-0.3182,0.3025,-0.0447,-0.1919,-0.0422,28.6578,26.3154,-30.5854,
7.567954,0.3344,-0.3182,0.3025,-0.0447,-0.1919,-0.0422,28.6578,26.3154,-30.5854,
7.570087,0.3344,-0.3182,0.3025,-0.0447,-0.1919,-0.0422,28.6578,26.3154,-30.5854,
7.572288,0.3344,-0.3182,0.3025,-0.0447,-0.1919,-0.0422,28.6578,26.3154,-30.5854,
7.622072,0.3344,-0.3182,0.3025,-0.0447,-0.1919,-0.0422,28.7798,26.4984,-30.3414,
7.626211,0.3344,-0.3182,0.3025,-0.0320,-0.0899,-0.0016,28.7798,26.4984,-30.3414,
7.631805,0.3646,-0.1869,0.3697,-0.0320,-0.0899,-0.0016,28.7798,26.4984,-30.3414,
7.635455,0.3646,-0.1869,0.3697,-0.0320,-0.0899,-0.0016,28.7798,26.4984,-30.3414,
7.637998,0.3646,-0.1869,0.3697,-0.0320,-0.0899,-0.0016,28.7798,26.4984,-30.3414,
7.640793,0.3646,-0.1869,0.3697,-0.0320,-0.0899,-0.0016,28.7798,26.4984,-30.3414,
7.681087,0.3646,-0.1869,0.3697,-0.0320,-0.0899,-0.0016,28.8286,26.6204,-30.2072,
7.691611,0.3646,-0.1869,0.3697,0.0467,-0.0549,-0.0125,28.8286,26.6204,-30.2072,
7.708295,0.3646,-0.1869,0.3697,0.0467,-0.0549,-0.0125,28.8286,26.6204,-30.2072,
7.710832,0.3646,-0.1869,0.3697,0.0467,-0.0549,-0.0125,28.8286,26.6204,-30.2072,
7.713297,0.3646,-0.1869,0.3697,0.0467,-0.0549,-0.0125,28.8286,26.6204,-30.2072,
7.716412,0.3646,-0.1869,0.3697,0.0467,-0.0549,-0.0125,28.8286,26.6204,-30.2072,
7.718516,0.0440,-0.1236,0.1803,0.0467,-0.0549,-0.0125,28.8286,26.6204,-30.2072,
7.741967,0.0440,-0.1236,0.1803,0.0467,-0.0549,-0.0125,28.8164,26.7790,-30.1706,
7.762886,0.0440,-0.1236,0.1803,0.0353,-0.0768,-0.0317,28.8164,26.7790,-30.1706,
7.770250,0.0440,-0.1236,0.1803,0.0353,-0.0768,-0.0317,28.8164,26.7790,-30.1706,
7.773005,0.0440,-0.1236,0.1803,0.0353,-0.0768,-0.0317,28.8164,26.7790,-30.1706,
7.775996,0.0440,-0.1236,0.1803,0.0353,-0.0768,-0.0317,28.8164,26.7790,-30.1706,
7.778848,0.1070,-0.2148,0.0603,0.0353,-0.0768,-0.0317,28.8164,26.7790,-30.1706,
7.802263,0.1070,-0.2148,0.0603,0.0353,-0.0768,-0.0317,28.7310,26.9132,-30.1706,
7.832424,0.1070,-0.2148,0.0603,0.2162,0.0154,-0.0127,28.7310,26.9132,-30.1706,
7.837075,0.1070,-0.2148,0.0603,0.2162,0.0154,-0.0127,28.7310,26.9132,-30.1706,
7.839440,0.1070,-0.2148,0.0603,0.2162,0.0154,-0.0127,28.7310,26.9132,-30.1706,
7.841384,0.1070,-0.2148,0.0603,0.2162,0.0154,-0.0127,28.7310,26.9132,-30.1706,
7.843428,-0.0463,0.0375,-0.0084,0.2162,0.0154,-0.0127,28.7310,26.9132,-30.1706,
7.866224,-0.0463,0.0375,-0.0084,0.2162,0.0154,-0.0127,28.5480,26.9864,-30.3048,
