
time,ax,ay,az,wx,wy,wz,Bx,By,Bz,
0.041482,0.0000,0.0000,0.0000,0.0000,0.0000,0.0000,0.0000,0.0000,0.0000,
0.063322,0.0000,0.0000,0.0000,0.0000,0.0000,0.0000,10.3334,22.3016,-40.0404,
0.082206,0.0000,0.0000,0.0000,0.0719,-0.0180,-0.0015,10.3334,22.3016,-40.0404,
0.098994,0.0000,0.0000,0.0000,0.0719,-0.0180,-0.0015,10.3334,22.3016,-40.0404,
0.100043,0.0000,0.0000,0.0000,0.0719,-0.0180,-0.0015,10.3334,22.3016,-40.0404,
0.100802,0.0000,0.0000,0.0000,0.0719,-0.0180,-0.0015,10.3334,22.3016,-40.0404,
0.114475,0.0000,0.0000,0.0000,0.0719,-0.0180,-0.0015,10.0528,22.1674,-40.2478,
0.152537,0.0000,0.0000,0.0000,0.0478,-0.1055,-0.0330,10.0528,22.1674,-40.2478,
0.161625,0.0000,0.0000,0.0000,0.0478,-0.1055,-0.0330,9.9796,22.2528,-40.8090,
0.162919,0.0000,0.0000,0.0000,0.0478,-0.1055,-0.0330,9.9796,22.2528,-40.8090,
0.165831,0.0000,0.0000,0.0000,0.0478,-0.1055,-0.0330,9.9796,22.2528,-40.8090,
0.166671,0.0000,0.0000,0.0000,0.0478,-0.1055,-0.0330,9.9796,22.2528,-40.8090,
0.167589,0.0000,0.0000,0.0000,0.0478,-0.1055,-0.0330,9.9796,22.2528,-40.8090,
0.215317,0.0000,0.0000,0.0000,0.0478,-0.1055,-0.0330,9.8576,22.2528,-40.8334,
0.221691,0.0000,0.0000,0.0000,0.0618,-0.0264,-0.0011,9.8576,22.2528,-40.8334,
0.233026,0.0000,0.0000,0.0000,0.0618,-0.0264,-0.0011,9.8576,22.2528,-40.8334,
0.233981,0.0000,0.0000,0.0000,0.0618,-0.0264,-0.0011,9.8576,22.2528,-40.8334,
0.234795,0.0000,0.0000,0.0000,0.0618,-0.0264,-0.0011,9.8576,22.2528,-40.8334,
0.235731,0.0000,0.0000,0.0000,0.0618,-0.0264,-0.0011,9.8576,22.2528,-40.8334,
0.236521,0.1151,-0.0345,-0.0716,0.0618,-0.0264,-0.0011,9.8576,22.2528,-40.8334,
0.267315,0.1151,-0.0345,-0.0716,0.0618,-0.0264,-0.0011,9.7234,22.3260,-40.9798,
0.271687,0.1151,-0.0345,-0.0716,0.0618,-0.0264,-0.0011,9.6380,22.3748,-41.0774,
0.293067,0.1151,-0.0345,-0.0716,0.0133,-0.0092,0.0060,9.6380,22.3748,-41.0774,
0.299279,0.1151,-0.0345,-0.0716,0.0133,-0.0092,0.0060,9.6380,22.3748,-41.0774,
0.300040,0.1151,-0.0345,-0.0716,0.0133,-0.0092,0.0060,9.6380,22.3748,-41.0774,
0.300683,0.1151,-0.0345,-0.0716,0.0133,-0.0092,0.0060,9.6380,22.3748,-41.0774,
0.304281,0.1067,0.0410,-0.0819,0.0133,-0.0092,0.0060,9.6380,22.3748,-41.0774,
0.321291,0.1067,0.0410,-0.0819,0.0133,-0.0092,0.0060,9.6258,22.3382,-41.0286,
0.362399,0.1067,0.0410,-0.0819,-0.0276,-0.0513,0.0017,9.6258,22.3382,-41.0286,
0.365316,0.1067,0.0410,-0.0819,-0.0276,-0.0513,0.0017,9.6258,22.3382,-41.0286,
0.366199,0.1067,0.0410,-0.0819,-0.0276,-0.0513,0.0017,9.6258,22.3382,-41.0286,
0.367008,0.1067,0.0410,-0.0819,-0.0276,-0.0513,0.0017,9.6258,22.3382,-41.0286,
0.373139,-0.0380,0.0594,0.0325,-0.0276,-0.0513,0.0017,9.6258,22.3382,-41.0286,
0.381999,-0.0380,0.0594,0.0325,-0.0276,-0.0513,0.0017,9.6258,22.2528,-40.8822,
0.431314,-0.0380,0.0594,0.0325,-0.0076,-0.0513,0.0220,9.6258,22.2528,-40.8822,
0.433047,-0.0380,0.0594,0.0325,-0.0076,-0.0513,0.0220,9.6258,22.2528,-40.8822,
0.433863,-0.0380,0.0594,0.0325,-0.0076,-0.0513,0.0220,9.6258,22.2528,-40.8822,
0.434639,-0.0380,0.0594,0.0325,-0.0076,-0.0513,0.0220,9.6258,22.2528,-40.8822,
0.435546,-0.0380,0.0594,0.0325,-0.0076,-0.0513,0.0220,9.6258,22.2528,-40.8822,
0.440354,-0.0380,0.0594,0.0325,-0.0076,-0.0513,0.0220,9.5282,22.1796,-40.8944,
0.441481,-0.0272,-0.0907,0.0779,-0.0076,-0.0513,0.0220,9.5282,22.1796,-40.8944,
0.501711,-0.0272,-0.0907,0.0779,0.0310,-0.0189,0.0234,9.5282,22.1796,-40.8944,
0.503128,-0.0272,-0.0907,0.0779,0.0310,-0.0189,0.0234,9.5282,22.1796,-40.8944,
0.503850,-0.0272,-0.0907,0.0779,0.0310,-0.0189,0.0234,9.5282,22.1796,-40.8944,
0.504455,-0.0272,-0.0907,0.0779,0.0310,-0.0189,0.0234,9.5282,22.1796,-40.8944,
0.505034,-0.0272,-0.0907,0.0779,0.0310,-0.0189,0.0234,9.4550,22.1674,-40.9676,
0.509948,0.0822,-0.0800,0.0310,0.0310,-0.0189,0.0234,9.4550,22.1674,-40.9676,
0.561398,0.0822,-0.0800,0.0310,0.0310,-0.0189,0.0234,9.4062,22.0942,-40.8456,
0.565652,0.0822,-0.0800,0.0310,0.0310,-0.0189,0.0234,9.4062,22.0942,-40.8456,
0.566432,0.0822,-0.0800,0.0310,0.0310,-0.0189,0.0234,9.4062,22.0942,-40.8456,
0.567497,0.0822,-0.0800,0.0310,0.0310,-0.0189,0.0234,9.4062,22.0942,-40.8456,
0.568177,0.0822,-0.0800,0.0310,0.0205,0.0181,0.0214,9.4062,22.0942,-40.8456,
0.580599,0.0814,-0.0114,-0.0373,0.0205,0.0181,0.0214,9.4062,22.0942,-40.8456,
0.620750,0.0814,-0.0114,-0.0373,0.0205,0.0181,0.0214,9.3940,22.0698,-40.8578,
0.634571,0.0814,-0.0114,-0.0373,0.0205,0.0181,0.0214,9.3940,22.0698,-40.8578,
0.635341,0.0814,-0.0114,-0.0373,0.0205,0.0181,0.0214,9.3940,22.0698,-40.8578,
0.635758,0.0814,-0.0114,-0.0373,0.0205,0.0181,0.0214,9.3940,22.0698,-40.8578,
0.636160,0.0814,-0.0114,-0.0373,0.0205,0.0181,0.0214,9.3940,22.0698,-40.8578,
0.639437,0.0814,-0.0114,-0.0373,0.0150,0.0204,0.0265,9.3940,22.0698,-40.8578,
0.649986,0.0242,0.0409,0.0275,0.0150,0.0204,0.0265,9.3940,22.0698,-40.8578,
0.679750,0.0242,0.0409,0.0275,0.0150,0.0204,0.0265,9.4062,21.9478,-40.7480,
0.699596,0.0242,0.0409,0.0275,0.0150,0.0204,0.0265,9.4062,21.9478,-40.7480,
0.700400,0.0242,0.0409,0.0275,0.0150,0.0204,0.0265,9.4062,21.9478,-40.7480,
0.700824,0.0242,0.0409,0.0275,0.0150,0.0204,0.0265,9.4062,21.9478,-40.7480,
0.710015,0.0242,0.0409,0.0275,0.0364,-0.0103,0.0099,9.4062,21.9478,-40.7480,
0.720198,0.0015,-0.0920,0.0522,0.0364,-0.0103,0.0099,9.4062,21.9478,-40.7480,
0.739998,0.0015,-0.0920,0.0522,0.0364,-0.0103,0.0099,9.4550,21.8258,-40.6626,
0.766901,0.0015,-0.0920,0.0522,0.0364,-0.0103,0.0099,9.4550,21.8258,-40.6626,
0.768207,0.0015,-0.0920,0.0522,0.0364,-0.0103,0.0099,9.4550,21.8258,-40.6626,
0.768879,0.0015,-0.0920,0.0522,0.0364,-0.0103,0.0099,9.4550,21.8258,-40.6626,
0.781499,0.0015,-0.0920,0.0522,0.0353,0.0048,0.0064,9.4550,21.8258,-40.6626,
0.790153,-0.0003,0.0023,-0.0299,0.0353,0.0048,0.0064,9.4550,21.8258,-40.6626,
0.801798,-0.0003,0.0023,-0.0299,0.0353,0.0048,0.0064,9.4428,21.7892,-40.7236,
0.833748,-0.0003,0.0023,-0.0299,0.0353,0.0048,0.0064,9.4428,21.7892,-40.7236,
0.834597,-0.0003,0.0023,-0.0299,0.0353,0.0048,0.0064,9.4428,21.7892,-40.7236,
0.835005,-0.0003,0.0023,-0.0299,0.0353,0.0048,0.0064,9.4428,21.7892,-40.7236,
0.835546,-0.0003,0.0023,-0.0299,0.0353,0.0048,0.0064,9.4428,21.7892,-40.7236,
0.850715,-0.0003,0.0023,-0.0299,0.0332,-0.0617,-0.0001,9.4428,21.7892,-40.7236,
0.860097,-0.0003,0.0023,-0.0299,0.0332,-0.0617,-0.0001,9.4062,21.7770,-40.8944,
0.861190,-0.0548,0.0073,-0.0065,0.0332,-0.0617,-0.0001,9.4062,21.7770,-40.8944,
0.900537,-0.0548,0.0073,-0.0065,0.0332,-0.0617,-0.0001,9.4062,21.7770,-40.8944,
0.902085,-0.0548,0.0073,-0.0065,0.0332,-0.0617,-0.0001,9.4062,21.7770,-40.8944,
0.902860,-0.0548,0.0073,-0.0065,0.0332,-0.0617,-0.0001,9.4062,21.7770,-40.8944,
0.915854,-0.0548,0.0073,-0.0065,0.0332,-0.0617,-0.0001,9.3574,21.7648,-41.0164,
0.919864,-0.0548,0.0073,-0.0065,-0.0020,-0.0316,-0.0145,9.3574,21.7648,-41.0164,
0.932532,0.0102,0.0086,-0.0036,-0.0020,-0.0316,-0.0145,9.3574,21.7648,-41.0164,
0.967928,0.0102,0.0086,-0.0036,-0.0020,-0.0316,-0.0145,9.3574,21.7648,-41.0164,
0.969490,0.0102,0.0086,-0.0036,-0.0020,-0.0316,-0.0145,9.3574,21.7648,-41.0164,
0.970438,0.0102,0.0086,-0.0036,-0.0020,-0.0316,-0.0145,9.3574,21.7648,-41.0164,
0.980298,0.0102,0.0086,-0.0036,-0.0020,-0.0316,-0.0145,9.3330,21.7160,-41.0286,
0.989340,0.0102,0.0086,-0.0036,-0.0116,0.0085,-0.0134,9.3330,21.7160,-41.0286,
0.998296,0.0091,0.0139,0.0508,-0.0116,0.0085,-0.0134,9.3330,21.7160,-41.0286,
1.033545,0.0091,0.0139,0.0508,-0.0116,0.0085,-0.0134,9.3330,21.7160,-41.0286,
1.034965,0.0091,0.0139,0.0508,-0.0116,0.0085,-0.0134,9.3330,21.7160,-41.0286,
1.036011,0.0091,0.0139,0.0508,-0.0116,0.0085,-0.0134,9.3330,21.7160,-41.0286,
1.036829,0.0091,0.0139,0.0508,-0.0116,0.0085,-0.0134,9.3330,21.7160,-41.0286,
1.039798,0.0091,0.0139,0.0508,-0.0116,0.0085,-0.0134,9.2598,21.6794,-41.0042,
1.059028,0.0091,0.0139,0.0508,-0.0136,0.0405,0.0045,9.2598,21.6794,-41.0042,
1.068956,0.0503,0.0023,0.0238,-0.0136,0.0405,0.0045,9.2598,21.6794,-41.0042,
1.100289,0.0503,0.0023,0.0238,-0.0136,0.0405,0.0045,9.2476,21.6672,-41.0286,
1.101874,0.0503,0.0023,0.0238,-0.0136,0.0405,0.0045,9.2476,21.6672,-41.0286,
1.102508,0.0503,0.0023,0.0238,-0.0136,0.0405,0.0045,9.2476,21.6672,-41.0286,
1.103139,0.0503,0.0023,0.0238,-0.0136,0.0405,0.0045,9.2476,21.6672,-41.0286,
1.129904,0.0503,0.0023,0.0238,-0.0318,0.0109,0.0089,9.2476,21.6672,-41.0286,
1.140135,-0.0266,0.0074,0.0530,-0.0318,0.0109,0.0089,9.2476,21.6672,-41.0286,
1.159986,-0.0266,0.0074,0.0530,-0.0318,0.0109,0.0089,9.2476,21.6794,-41.1018,
1.166544,-0.0266,0.0074,0.0530,-0.0318,0.0109,0.0089,9.2476,21.6794,-41.1018,
1.167626,-0.0266,0.0074,0.0530,-0.0318,0.0109,0.0089,9.2476,21.6794,-41.1018,
1.168307,-0.0266,0.0074,0.0530,-0.0318,0.0109,0.0089,9.2476,21.6794,-41.1018,
1.197603,-0.0266,0.0074,0.0530,-0.0009,-0.0288,0.0228,9.2476,21.6794,-41.1018,
1.207403,-0.0674,-0.0206,0.0836,-0.0009,-0.0288,0.0228,9.2476,21.6794,-41.1018,
1.218175,-0.0674,-0.0206,0.0836,-0.0009,-0.0288,0.0228,9.1622,21.6794,-41.1140,
1.233329,-0.0674,-0.0206,0.0836,-0.0009,-0.0288,0.0228,9.1622,21.6794,-41.1140,
1.234404,-0.0674,-0.0206,0.0836,-0.0009,-0.0288,0.0228,9.1622,21.6794,-41.1140,
1.235326,-0.0674,-0.0206,0.0836,-0.0009,-0.0288,0.0228,9.1622,21.6794,-41.1140,
1.236160,-0.0674,-0.0206,0.0836,-0.0009,-0.0288,0.0228,9.1622,21.6794,-41.1140,
1.268139,-0.0674,-0.0206,0.0836,0.0069,0.0104,0.0025,9.1622,21.6794,-41.1140,
1.277873,-0.0674,-0.0206,0.0836,0.0069,0.0104,0.0025,9.1134,21.6794,-41.1018,
1.278497,0.0314,0.0127,-0.0017,0.0069,0.0104,0.0025,9.1134,21.6794,-41.1018,
1.300599,0.0314,0.0127,-0.0017,0.0069,0.0104,0.0025,9.1134,21.6794,-41.1018,
1.301315,0.0314,0.0127,-0.0017,0.0069,0.0104,0.0025,9.1134,21.6794,-41.1018,
1.301723,0.0314,0.0127,-0.0017,0.0069,0.0104,0.0025,9.1134,21.6794,-41.1018,
1.338645,0.0314,0.0127,-0.0017,0.0069,0.0104,0.0025,9.1012,21.7038,-41.0896,
1.341051,0.0314,0.0127,-0.0017,0.0265,0.0309,0.0011,9.1012,21.7038,-41.0896,
1.348602,0.0325,0.0064,-0.0757,0.0265,0.0309,0.0011,9.1012,21.7038,-41.0896,
1.368237,0.0325,0.0064,-0.0757,0.0265,0.0309,0.0011,9.1012,21.7038,-41.0896,
1.370104,0.0325,0.0064,-0.0757,0.0265,0.0309,0.0011,9.1012,21.7038,-41.0896,
1.372119,0.0325,0.0064,-0.0757,0.0265,0.0309,0.0011,9.1012,21.7038,-41.0896,
1.374322,0.0325,0.0064,-0.0757,0.0265,0.0309,0.0011,9.1012,21.7038,-41.0896,
1.398201,0.0325,0.0064,-0.0757,0.0265,0.0309,0.0011,9.1256,21.7038,-41.0896,
1.410675,0.0325,0.0064,-0.0757,0.0136,0.0290,0.0051,9.1256,21.7038,-41.0896,
1.418016,0.0191,0.0076,-0.0424,0.0136,0.0290,0.0051,9.1256,21.7038,-41.0896,
1.433013,0.0191,0.0076,-0.0424,0.0136,0.0290,0.0051,9.1256,21.7038,-41.0896,
1.434688,0.0191,0.0076,-0.0424,0.0136,0.0290,0.0051,9.1256,21.7038,-41.0896,
1.436586,0.0191,0.0076,-0.0424,0.0136,0.0290,0.0051,9.1256,21.7038,-41.0896,
1.458713,0.0191,0.0076,-0.0424,0.0136,0.0290,0.0051,9.1988,21.6916,-41.1140,
1.477986,0.0191,0.0076,-0.0424,-0.0084,0.0746,-0.0117,9.1988,21.6916,-41.1140,
1.491715,-0.0938,-0.0105,0.0051,-0.0084,0.0746,-0.0117,9.1988,21.6916,-41.1140,
1.499575,-0.0938,-0.0105,0.0051,-0.0084,0.0746,-0.0117,9.1988,21.6916,-41.1140,
1.501315,-0.0938,-0.0105,0.0051,-0.0084,0.0746,-0.0117,9.1988,21.6916,-41.1140,
1.502615,-0.0938,-0.0105,0.0051,-0.0084,0.0746,-0.0117,9.1988,21.6916,-41.1140,
1.517431,-0.0938,-0.0105,0.0051,-0.0084,0.0746,-0.0117,9.2720,21.6916,-41.1140,
1.548108,-0.0938,-0.0105,0.0051,0.0421,0.0932,-0.0079,9.2720,21.6916,-41.1140,
1.559847,-0.0754,-0.0323,-0.0107,0.0421,0.0932,-0.0079,9.2720,21.6916,-41.1140,
1.568297,-0.0754,-0.0323,-0.0107,0.0421,0.0932,-0.0079,9.2720,21.6916,-41.1140,
1.569740,-0.0754,-0.0323,-0.0107,0.0421,0.0932,-0.0079,9.2720,21.6916,-41.1140,
1.571055,-0.0754,-0.0323,-0.0107,0.0421,0.0932,-0.0079,9.2720,21.6916,-41.1140,
1.572492,-0.0754,-0.0323,-0.0107,0.0421,0.0932,-0.0079,9.2720,21.6916,-41.1140,
1.575981,-0.0754,-0.0323,-0.0107,0.0421,0.0932,-0.0079,9.3208,21.6184,-41.1140,
1.618575,-0.0754,-0.0323,-0.0107,0.0495,0.0493,-0.0380,9.3208,21.6184,-41.1140,
1.627964,-0.1850,-0.1142,0.0475,0.0495,0.0493,-0.0380,9.3208,21.6184,-41.1140,
1.635593,-0.1850,-0.1142,0.0475,0.0495,0.0493,-0.0380,9.3208,21.6184,-41.1140,
1.636858,-0.1850,-0.1142,0.0475,0.0495,0.0493,-0.0380,9.3208,21.6184,-41.1140,
1.638052,-0.1850,-0.1142,0.0475,0.0495,0.0493,-0.0380,9.3208,21.6184,-41.1140,
1.639681,-0.1850,-0.1142,0.0475,0.0495,0.0493,-0.0380,9.3696,21.5208,-41.0652,
1.687763,-0.1850,-0.1142,0.0475,-0.0262,-0.0265,0.0980,9.3696,21.5208,-41.0652,
1.697771,-0.1850,-0.1142,0.0475,-0.0262,-0.0265,0.0980,9.5038,21.4110,-41.0164,
1.700316,-0.1632,0.1241,0.0343,-0.0262,-0.0265,0.0980,9.5038,21.4110,-41.0164,
1.702632,-0.1632,0.1241,0.0343,-0.0262,-0.0265,0.0980,9.5038,21.4110,-41.0164,
1.704622,-0.1632,0.1241,0.0343,-0.0262,-0.0265,0.0980,9.5038,21.4110,-41.0164,
1.706765,-0.1632,0.1241,0.0343,-0.0262,-0.0265,0.0980,9.5038,21.4110,-41.0164,
1.757292,-0.1632,0.1241,0.0343,0.0981,0.0862,-0.1642,9.5038,21.4110,-41.0164,
1.760798,-0.1632,0.1241,0.0343,0.0981,0.0862,-0.1642,9.6136,21.3134,-40.9798,
1.770301,-0.1632,0.1241,0.0343,0.0981,0.0862,-0.1642,9.6136,21.3134,-40.9798,
1.771794,-0.1632,0.1241,0.0343,0.0981,0.0862,-0.1642,9.6136,21.3134,-40.9798,
1.773181,-0.1632,0.1241,0.0343,0.0981,0.0862,-0.1642,9.6136,21.3134,-40.9798,
1.774318,-0.1632,0.1241,0.0343,0.0981,0.0862,-0.1642,9.6136,21.3134,-40.9798,
1.775437,-0.0194,-0.0486,0.3991,0.0981,0.0862,-0.1642,9.6136,21.3134,-40.9798,
1.815774,-0.0194,-0.0486,0.3991,0.0981,0.0862,-0.1642,9.7600,21.0694,-40.8700,
1.825578,-0.0194,-0.0486,0.3991,0.1036,0.0324,0.0437,9.7600,21.0694,-40.8700,
1.836672,-0.0194,-0.0486,0.3991,0.1036,0.0324,0.0437,9.7600,21.0694,-40.8700,
1.837995,-0.0194,-0.0486,0.3991,0.1036,0.0324,0.0437,9.7600,21.0694,-40.8700,
1.839439,-0.0194,-0.0486,0.3991,0.1036,0.0324,0.0437,9.7600,21.0694,-40.8700,
1.840806,-0.5014,-0.2182,-0.0719,0.1036,0.0324,0.0437,9.7600,21.0694,-40.8700,
1.875152,-0.5014,-0.2182,-0.0719,0.1036,0.0324,0.0437,9.8454,20.8742,-40.7846,
1.895237,-0.5014,-0.2182,-0.0719,0.0703,0.1226,-0.0266,9.8454,20.8742,-40.7846,
1.905118,-0.5014,-0.2182,-0.0719,0.0703,0.1226,-0.0266,9.8454,20.8742,-40.7846,
1.907479,-0.5014,-0.2182,-0.0719,0.0703,0.1226,-0.0266,9.8454,20.8742,-40.7846,
1.910474,-0.5014,-0.2182,-0.0719,0.0703,0.1226,-0.0266,9.8454,20.8742,-40.7846,
1.912078,-0.2664,0.1438,0.0439,0.0703,0.1226,-0.0266,9.8454,20.8742,-40.7846,
1.934455,-0.2664,0.1438,0.0439,0.0703,0.1226,-0.0266,9.9552,20.7034,-40.7602,
1.966780,-0.2664,0.1438,0.0439,0.0779,0.1867,0.0111,9.9552,20.7034,-40.7602,
1.969616,-0.2664,0.1438,0.0439,0.0779,0.1867,0.0111,9.9552,20.7034,-40.7602,
1.971339,-0.2664,0.1438,0.0439,0.0779,0.1867,0.0111,9.9552,20.7034,-40.7602,
1.973780,-0.2664,0.1438,0.0439,0.0779,0.1867,0.0111,9.9552,20.7034,-40.7602,
1.976208,-0.2664,0.1438,0.0439,0.0779,0.1867,0.0111,9.9552,20.7034,-40.7602,
1.977881,-0.4996,0.0832,-0.0911,0.0779,0.1867,0.0111,9.9552,20.7034,-40.7602,
1.994783,-0.4996,0.0832,-0.0911,0.0779,0.1867,0.0111,10.1504,20.4472,-40.7602,
2.034154,-0.4996,0.0832,-0.0911,0.1180,0.2718,0.0127,10.1504,20.4472,-40.7602,
2.037981,-0.4996,0.0832,-0.0911,0.1180,0.2718,0.0127,10.1504,20.4472,-40.7602,
2.039704,-0.4996,0.0832,-0.0911,0.1180,0.2718,0.0127,10.1504,20.4472,-40.7602,
2.041319,-0.4996,0.0832,-0.0911,0.1180,0.2718,0.0127,10.1504,20.4472,-40.7602,
2.045531,-0.4000,-0.0549,0.0332,0.1180,0.2718,0.0127,10.1504,20.4472,-40.7602,
2.054479,-0.4000,-0.0549,0.0332,0.1180,0.2718,0.0127,10.4188,20.1788,-40.6870,
2.100688,-0.4000,-0.0549,0.0332,0.1180,0.2718,0.0127,10.4188,20.1788,-40.6870,
2.103631,-0.4000,-0.0549,0.0332,0.1180,0.2718,0.0127,10.4188,20.1788,-40.6870,
2.105066,-0.4000,-0.0549,0.0332,0.1180,0.2718,0.0127,10.4188,20.1788,-40.6870,
2.106570,-0.4000,-0.0549,0.0332,0.1015,0.3446,0.0289,10.4188,20.1788,-40.6870,
2.114051,-0.4000,-0.0549,0.0332,0.1015,0.3446,0.0289,10.7726,19.9226,-40.6748,
2.115624,-0.5037,0.1576,-0.0104,0.1015,0.3446,0.0289,10.7726,19.9226,-40.6748,
2.166541,-0.5037,0.1576,-0.0104,0.1015,0.3446,0.0289,10.7726,19.9226,-40.6748,
2.168961,-0.5037,0.1576,-0.0104,0.1015,0.3446,0.0289,10.7726,19.9226,-40.6748,
2.170493,-0.5037,0.1576,-0.0104,0.1015,0.3446,0.0289,10.7726,19.9226,-40.6748,
2.172204,-0.5037,0.1576,-0.0104,0.1015,0.3446,0.0289,10.7726,19.9226,-40.6748,
2.174492,-0.5037,0.1576,-0.0104,0.1015,0.3446,0.0289,11.1996,19.6420,-40.6748,
2.176441,-0.5037,0.1576,-0.0104,0.1269,0.3503,0.0563,11.1996,19.6420,-40.6748,
2.184053,-0.4979,0.1268,0.0183,0.1269,0.3503,0.0563,11.1996,19.6420,-40.6748,
2.234845,-0.4979,0.1268,0.0183,0.1269,0.3503,0.0563,11.1996,19.6420,-40.6748,
2.237869,-0.4979,0.1268,0.0183,0.1269,0.3503,0.0563,11.1996,19.6420,-40.6748,
2.239866,-0.4979,0.1268,0.0183,0.1269,0.3503,0.0563,11.1996,19.6420,-40.6748,
2.246245,-0.4979,0.1268,0.0183,0.1000,0.3357,-0.0232,11.1996,19.6420,-40.6748,
2.249147,-0.4979,0.1268,0.0183,0.1000,0.3357,-0.0232,11.7852,19.3004,-40.6016,
2.254550,-0.3792,0.0892,0.0175,0.1000,0.3357,-0.0232,11.7852,19.3004,-40.6016,
2.300486,-0.3792,0.0892,0.0175,0.1000,0.3357,-0.0232,11.7852,19.3004,-40.6016,
2.303001,-0.3792,0.0892,0.0175,0.1000,0.3357,-0.0232,11.7852,19.3004,-40.6016,
2.304744,-0.3792,0.0892,0.0175,0.1000,0.3357,-0.0232,11.7852,19.3004,-40.6016,
2.306172,-0.3792,0.0892,0.0175,0.1000,0.3357,-0.0232,12.3586,19.0198,-40.6016,
2.313142,-0.3792,0.0892,0.0175,0.0457,0.0928,-0.0819,12.3586,19.0198,-40.6016,
2.323533,-0.0709,0.4548,-0.0057,0.0457,0.0928,-0.0819,12.3586,19.0198,-40.6016,
2.366498,-0.0709,0.4548,-0.0057,0.0457,0.0928,-0.0819,12.9686,18.7270,-40.5650,
2.370102,-0.0709,0.4548,-0.0057,0.0457,0.0928,-0.0819,12.9686,18.7270,-40.5650,
2.372338,-0.0709,0.4548,-0.0057,0.0457,0.0928,-0.0819,12.9686,18.7270,-40.5650,
2.374258,-0.0709,0.4548,-0.0057,0.0457,0.0928,-0.0819,12.9686,18.7270,-40.5650,
2.376679,-0.0709,0.4548,-0.0057,0.0457,0.0928,-0.0819,12.9686,18.7270,-40.5650,
2.386299,-0.0709,0.4548,-0.0057,-0.0113,0.0360,-0.2088,12.9686,18.7270,-40.5650,
2.394080,-0.0738,0.2058,0.1506,-0.0113,0.0360,-0.2088,12.9686,18.7270,-40.5650,
2.423805,-0.0738,0.2058,0.1506,-0.0113,0.0360,-0.2088,13.5664,18.4342,-40.4430,
2.435757,-0.0738,0.2058,0.1506,-0.0113,0.0360,-0.2088,13.5664,18.4342,-40.4430,
2.438504,-0.0738,0.2058,0.1506,-0.0113,0.0360,-0.2088,13.5664,18.4342,-40.4430,
2.441030,-0.0738,0.2058,0.1506,-0.0113,0.0360,-0.2088,13.5664,18.4342,-40.4430,
2.455568,-0.0738,0.2058,0.1506,-0.0964,-0.0294,-0.2230,13.5664,18.4342,-40.4430,
2.466179,0.1133,0.5460,0.1086,-0.0964,-0.0294,-0.2230,13.5664,18.4342,-40.4430,
2.483795,0.1133,0.5460,0.1086,-0.0964,-0.0294,-0.2230,14.0666,18.2634,-40.3820,
2.501429,0.1133,0.5460,0.1086,-0.0964,-0.0294,-0.2230,14.0666,18.2634,-40.3820,
2.503893,0.1133,0.5460,0.1086,-0.0964,-0.0294,-0.2230,14.0666,18.2634,-40.3820,
2.505346,0.1133,0.5460,0.1086,-0.0964,-0.0294,-0.2230,14.0666,18.2634,-40.3820,
2.522731,0.1133,0.5460,0.1086,-0.0518,-0.1502,-0.2831,14.0666,18.2634,-40.3820,
2.534486,-0.6680,0.6719,0.0980,-0.0518,-0.1502,-0.2831,14.0666,18.2634,-40.3820,
2.542604,-0.6680,0.6719,0.0980,-0.0518,-0.1502,-0.2831,14.4448,18.1780,-40.3332,
2.566499,-0.6680,0.6719,0.0980,-0.0518,-0.1502,-0.2831,14.4448,18.1780,-40.3332,
2.568401,-0.6680,0.6719,0.0980,-0.0518,-0.1502,-0.2831,14.4448,18.1780,-40.3332,
2.569776,-0.6680,0.6719,0.0980,-0.0518,-0.1502,-0.2831,14.4448,18.1780,-40.3332,
2.571299,-0.6680,0.6719,0.0980,-0.0518,-0.1502,-0.2831,14.4448,18.1780,-40.3332,
2.593000,-0.6680,0.6719,0.0980,0.2728,-0.0418,-0.4338,14.4448,18.1780,-40.3332,
2.608229,-0.6680,0.6719,0.0980,0.2728,-0.0418,-0.4338,14.6400,18.0316,-40.2722,
2.611767,-0.6151,0.7620,-0.1167,0.2728,-0.0418,-0.4338,14.6400,18.0316,-40.2722,
2.632768,-0.6151,0.7620,-0.1167,0.2728,-0.0418,-0.4338,14.6400,18.0316,-40.2722,
2.634357,-0.6151,0.7620,-0.1167,0.2728,-0.0418,-0.4338,14.6400,18.0316,-40.2722,
2.635922,-0.6151,0.7620,-0.1167,0.2728,-0.0418,-0.4338,14.6400,18.0316,-40.2722,
2.662835,-0.6151,0.7620,-0.1167,0.2728,-0.0418,-0.4338,14.6888,17.8486,-40.2844,
2.666762,-0.6151,0.7620,-0.1167,0.1667,-0.0137,-0.4273,14.6888,17.8486,-40.2844,
2.671794,-0.3172,1.8385,-0.1534,0.1667,-0.0137,-0.4273,14.6888,17.8486,-40.2844,
2.700695,-0.3172,1.8385,-0.1534,0.1667,-0.0137,-0.4273,14.6888,17.8486,-40.2844,
2.702183,-0.3172,1.8385,-0.1534,0.1667,-0.0137,-0.4273,14.6888,17.8486,-40.2844,
2.703159,-0.3172,1.8385,-0.1534,0.1667,-0.0137,-0.4273,14.6888,17.8486,-40.2844,
2.723179,-0.3172,1.8385,-0.1534,0.1667,-0.0137,-0.4273,14.6156,17.7388,-40.2966,
2.732643,-0.3172,1.8385,-0.1534,0.0915,-0.2131,-0.5040,14.6156,17.7388,-40.2966,
2.744771,-0.6884,2.0622,0.3855,0.0915,-0.2131,-0.5040,14.6156,17.7388,-40.2966,
2.767410,-0.6884,2.0622,0.3855,0.0915,-0.2131,-0.5040,14.6156,17.7388,-40.2966,
2.769177,-0.6884,2.0622,0.3855,0.0915,-0.2131,-0.5040,14.6156,17.7388,-40.2966,
2.770716,-0.6884,2.0622,0.3855,0.0915,-0.2131,-0.5040,14.6156,17.7388,-40.2966,
2.772231,-0.6884,2.0622,0.3855,0.0915,-0.2131,-0.5040,14.6156,17.7388,-40.2966,
2.781405,-0.6884,2.0622,0.3855,0.0915,-0.2131,-0.5040,14.3716,17.6534,-40.3576,
2.801817,-0.6884,2.0622,0.3855,0.2613,-0.4870,-0.6916,14.3716,17.6534,-40.3576,
2.813269,-1.6879,1.2366,0.3042,0.2613,-0.4870,-0.6916,14.3716,17.6534,-40.3576,
2.834488,-1.6879,1.2366,0.3042,0.2613,-0.4870,-0.6916,14.3716,17.6534,-40.3576,
2.836840,-1.6879,1.2366,0.3042,0.2613,-0.4870,-0.6916,14.3716,17.6534,-40.3576,
2.838799,-1.6879,1.2366,0.3042,0.2613,-0.4870,-0.6916,14.3716,17.6534,-40.3576,
2.843694,-1.6879,1.2366,0.3042,0.2613,-0.4870,-0.6916,13.8714,17.5314,-40.5040,
2.873063,-1.6879,1.2366,0.3042,-0.3248,-0.5606,-0.8377,13.8714,17.5314,-40.5040,
2.884942,-1.3577,2.5299,0.6659,-0.3248,-0.5606,-0.8377,13.8714,17.5314,-40.5040,
2.899671,-1.3577,2.5299,0.6659,-0.3248,-0.5606,-0.8377,13.8714,17.5314,-40.5040,
2.901145,-1.3577,2.5299,0.6659,-0.3248,-0.5606,-0.8377,13.8714,17.5314,-40.5040,
2.902188,-1.3577,2.5299,0.6659,-0.3248,-0.5606,-0.8377,13.8714,17.5314,-40.5040,
2.903473,-1.3577,2.5299,0.6659,-0.3248,-0.5606,-0.8377,13.2126,17.5192,-40.6138,
2.944033,-1.3577,2.5299,0.6659,-2.0562,0.2016,-1.0013,13.2126,17.5192,-40.6138,
2.954362,-2.0025,3.9875,-2.7358,-2.0562,0.2016,-1.0013,13.2126,17.5192,-40.6138,
2.961371,-2.0025,3.9875,-2.7358,-2.0562,0.2016,-1.0013,12.5904,18.0560,-40.4552,
2.966691,-2.0025,3.9875,-2.7358,-2.0562,0.2016,-1.0013,12.5904,18.0560,-40.4552,
2.967869,-2.0025,3.9875,-2.7358,-2.0562,0.2016,-1.0013,12.5904,18.0560,-40.4552,
2.968774,-2.0025,3.9875,-2.7358,-2.0562,0.2016,-1.0013,12.5904,18.0560,-40.4552,
2.969620,-2.0025,3.9875,-2.7358,-2.0562,0.2016,-1.0013,12.5904,18.0560,-40.4552,
3.014151,-2.0025,3.9875,-2.7358,-1.4649,1.5678,-1.4139,12.5904,18.0560,-40.4552,
3.023494,-2.0025,3.9875,-2.7358,-1.4649,1.5678,-1.4139,12.1512,19.1174,-39.9062,
3.026501,3.3934,-2.2354,-7.2198,-1.4649,1.5678,-1.4139,12.1512,19.1174,-39.9062,
3.033429,3.3934,-2.2354,-7.2198,-1.4649,1.5678,-1.4139,12.1512,19.1174,-39.9062,
3.035255,3.3934,-2.2354,-7.2198,-1.4649,1.5678,-1.4139,12.1512,19.1174,-39.9062,
3.036874,3.3934,-2.2354,-7.2198,-1.4649,1.5678,-1.4139,12.1512,19.1174,-39.9062,
3.082324,3.3934,-2.2354,-7.2198,-1.4649,1.5678,-1.4139,12.1146,20.4960,-39.0156,
3.086281,3.3934,-2.2354,-7.2198,-0.0573,2.6178,-2.0269,12.1146,20.4960,-39.0156,
3.093561,-1.7705,-2.6751,4.4155,-0.0573,2.6178,-2.0269,12.1146,20.4960,-39.0156,
3.100202,-1.7705,-2.6751,4.4155,-0.0573,2.6178,-2.0269,12.1146,20.4960,-39.0156,
3.102392,-1.7705,-2.6751,4.4155,-0.0573,2.6178,-2.0269,12.1146,20.4960,-39.0156,
3.103930,-1.7705,-2.6751,4.4155,-0.0573,2.6178,-2.0269,12.1146,20.4960,-39.0156,
3.142731,-1.7705,-2.6751,4.4155,-0.0573,2.6178,-2.0269,12.5172,22.1552,-37.7834,
3.151419,-1.7705,-2.6751,4.4155,0.8858,3.3230,-4.4962,12.5172,22.1552,-37.7834,
3.162076,5.3245,-4.8959,0.0932,0.8858,3.3230,-4.4962,12.5172,22.1552,-37.7834,
3.165897,5.3245,-4.8959,0.0932,0.8858,3.3230,-4.4962,12.5172,22.1552,-37.7834,
3.167475,5.3245,-4.8959,0.0932,0.8858,3.3230,-4.4962,12.5172,22.1552,-37.7834,
3.169149,5.3245,-4.8959,0.0932,0.8858,3.3230,-4.4962,12.5172,22.1552,-37.7834,
3.170336,5.3245,-4.8959,0.0932,0.8858,3.3230,-4.4962,12.5172,22.1552,-37.7834,
3.201363,5.3245,-4.8959,0.0932,0.8858,3.3230,-4.4962,12.0292,23.9120,-36.7220,
3.220833,5.3245,-4.8959,0.0932,1.2091,-0.0320,-2.8190,12.0292,23.9120,-36.7220,
3.231431,14.9614,-13.1884,-1.0302,1.2091,-0.0320,-2.8190,12.0292,23.9120,-36.7220,
3.234254,14.9614,-13.1884,-1.0302,1.2091,-0.0320,-2.8190,12.0292,23.9120,-36.7220,
3.236518,14.9614,-13.1884,-1.0302,1.2091,-0.0320,-2.8190,12.0292,23.9120,-36.7220,
3.238047,14.9614,-13.1884,-1.0302,1.2091,-0.0320,-2.8190,12.0292,23.9120,-36.7220,
3.260453,14.9614,-13.1884,-1.0302,1.2091,-0.0320,-2.8190,11.1386,25.3638,-35.9046,
3.290583,14.9614,-13.1884,-1.0302,1.5686,0.2482,-2.2134,11.1386,25.3638,-35.9046,
3.302810,14.9614,-13.1884,-1.0302,1.5686,0.2482,-2.2134,11.1386,25.3638,-35.9046,
3.304671,14.9614,-13.1884,-1.0302,1.5686,0.2482,-2.2134,11.1386,25.3638,-35.9046,
3.306240,14.9614,-13.1884,-1.0302,1.5686,0.2482,-2.2134,11.1386,25.3638,-35.9046,
3.307922,14.9614,-13.1884,-1.0302,1.5686,0.2482,-2.2134,11.1386,25.3638,-35.9046,
3.309702,-10.6615,-0.9912,1.5564,1.5686,0.2482,-2.2134,11.1386,25.3638,-35.9046,
3.321105,-10.6615,-0.9912,1.5564,1.5686,0.2482,-2.2134,10.1382,26.3520,-35.3556,
3.362206,-10.6615,-0.9912,1.5564,0.8890,0.7195,-1.8056,10.1382,26.3520,-35.3556,
3.368627,-10.6615,-0.9912,1.5564,0.8890,0.7195,-1.8056,10.1382,26.3520,-35.3556,
3.370798,-10.6615,-0.9912,1.5564,0.8890,0.7195,-1.8056,10.1382,26.3520,-35.3556,
3.372845,-10.6615,-0.9912,1.5564,0.8890,0.7195,-1.8056,10.1382,26.3520,-35.3556,
3.374700,-2.7225,0.7299,1.2404,0.8890,0.7195,-1.8056,10.1382,26.3520,-35.3556,
3.384299,-2.7225,0.7299,1.2404,0.8890,0.7195,-1.8056,9.2110,26.7790,-34.9652,
3.428533,-2.7225,0.7299,1.2404,0.6276,0.7020,-1.7790,9.2110,26.7790,-34.9652,
3.431766,-2.7225,0.7299,1.2404,0.6276,0.7020,-1.7790,9.2110,26.7790,-34.9652,
3.432516,-2.7225,0.7299,1.2404,0.6276,0.7020,-1.7790,9.2110,26.7790,-34.9652,
3.433168,-2.7225,0.7299,1.2404,0.6276,0.7020,-1.7790,9.2110,26.7790,-34.9652,
3.438928,-2.7225,0.7299,1.2404,0.6276,0.7020,-1.7790,8.2106,26.3642,-34.8310,
3.440220,3.0785,5.9930,-0.4141,0.6276,0.7020,-1.7790,8.2106,26.3642,-34.8310,
3.502920,3.0785,5.9930,-0.4141,0.6276,0.7020,-1.7790,6.9052,25.2052,-35.4288,
3.504762,3.0785,5.9930,-0.4141,0.6276,0.7020,-1.7790,6.9052,25.2052,-35.4288,
3.505504,3.0785,5.9930,-0.4141,0.6276,0.7020,-1.7790,6.9052,25.2052,-35.4288,
3.506208,3.0785,5.9930,-0.4141,0.6276,0.7020,-1.7790,6.9052,25.2052,-35.4288,
3.506956,3.0785,5.9930,-0.4141,0.6276,0.7020,-1.7790,6.9052,25.2052,-35.4288,
3.507727,3.0785,5.9930,-0.4141,0.7720,0.0783,-0.3025,6.9052,25.2052,-35.4288,
3.509972,0.0938,1.1420,0.1969,0.7720,0.0783,-0.3025,6.9052,25.2052,-35.4288,
3.562084,0.0938,1.1420,0.1969,0.7720,0.0783,-0.3025,5.3680,23.6070,-36.4536,
3.565621,0.0938,1.1420,0.1969,0.7720,0.0783,-0.3025,5.3680,23.6070,-36.4536,
3.566424,0.0938,1.1420,0.1969,0.7720,0.0783,-0.3025,5.3680,23.6070,-36.4536,
3.567297,0.0938,1.1420,0.1969,0.7720,0.0783,-0.3025,5.3680,23.6070,-36.4536,
3.568015,0.0938,1.1420,0.1969,0.3985,0.7225,0.3756,5.3680,23.6070,-36.4536,
3.580183,-0.1529,4.0255,0.0865,0.3985,0.7225,0.3756,5.3680,23.6070,-36.4536,
3.611597,-0.1529,4.0255,0.0865,0.3985,0.7225,0.3756,5.3680,23.6070,-36.4536,
3.612625,-0.1529,4.0255,0.0865,0.3985,0.7225,0.3756,5.3680,23.6070,-36.4536,
3.617518,-0.1529,4.0255,0.0865,0.3985,0.7225,0.3756,3.5746,21.8136,-37.8200,
3.621210,-0.1529,4.0255,0.0865,0.3985,0.7225,0.3756,3.5746,21.8136,-37.8200,
3.641653,-0.1529,4.0255,0.0865,0.1435,0.8068,0.3334,3.5746,21.8136,-37.8200,
3.649567,-3.4190,2.6228,-0.7757,0.1435,0.8068,0.3334,3.5746,21.8136,-37.8200,
3.681415,-3.4190,2.6228,-0.7757,0.1435,0.8068,0.3334,3.0256,19.8494,-39.0522,
3.700473,-3.4190,2.6228,-0.7757,0.1435,0.8068,0.3334,3.0256,19.8494,-39.0522,
3.701424,-3.4190,2.6228,-0.7757,0.1435,0.8068,0.3334,3.0256,19.8494,-39.0522,
3.701811,-3.4190,2.6228,-0.7757,0.1435,0.8068,0.3334,3.0256,19.8494,-39.0522,
3.702670,-3.4190,2.6228,-0.7757,0.1435,0.8068,0.3334,3.0256,19.8494,-39.0522,
3.709013,-3.4190,2.6228,-0.7757,-0.1337,0.5135,0.2525,3.0256,19.8494,-39.0522,
3.718256,-1.0387,1.7919,-0.7231,-0.1337,0.5135,0.2525,3.0256,19.8494,-39.0522,
3.739270,-1.0387,1.7919,-0.7231,-0.1337,0.5135,0.2525,3.1842,18.2146,-39.9916,
3.770590,-1.0387,1.7919,-0.7231,-0.1337,0.5135,0.2525,3.1842,18.2146,-39.9916,
3.772156,-1.0387,1.7919,-0.7231,-0.1337,0.5135,0.2525,3.1842,18.2146,-39.9916,
3.772782,-1.0387,1.7919,-0.7231,-0.1337,0.5135,0.2525,3.1842,18.2146,-39.9916,
3.781361,-1.0387,1.7919,-0.7231,-0.0024,-0.0320,0.4099,3.1842,18.2146,-39.9916,
3.789003,-0.0356,1.5338,0.8953,-0.0024,-0.0320,0.4099,3.1842,18.2146,-39.9916,
3.799115,-0.0356,1.5338,0.8953,-0.0024,-0.0320,0.4099,3.7088,17.1166,-40.5772,
3.836021,-0.0356,1.5338,0.8953,-0.0024,-0.0320,0.4099,3.7088,17.1166,-40.5772,
3.837723,-0.0356,1.5338,0.8953,-0.0024,-0.0320,0.4099,3.7088,17.1166,-40.5772,
3.838506,-0.0356,1.5338,0.8953,-0.0024,-0.0320,0.4099,3.7088,17.1166,-40.5772,
3.849965,-0.0356,1.5338,0.8953,0.0899,-0.3493,0.5053,3.7088,17.1166,-40.5772,
3.858763,-0.0356,1.5338,0.8953,0.0899,-0.3493,0.5053,4.2944,16.4334,-41.1018,
3.860009,-1.7261,0.0056,0.8275,0.0899,-0.3493,0.5053,4.2944,16.4334,-41.1018,
3.900390,-1.7261,0.0056,0.8275,0.0899,-0.3493,0.5053,4.2944,16.4334,-41.1018,
3.901939,-1.7261,0.0056,0.8275,0.0899,-0.3493,0.5053,4.2944,16.4334,-41.1018,
3.902575,-1.7261,0.0056,0.8275,0.0899,-0.3493,0.5053,4.2944,16.4334,-41.1018,
3.903347,-1.7261,0.0056,0.8275,0.0899,-0.3493,0.5053,4.2944,16.4334,-41.1018,
3.913590,-1.7261,0.0056,0.8275,0.0899,-0.3493,0.5053,4.8678,15.9454,-41.6142,
3.917531,-1.7261,0.0056,0.8275,-0.0499,-0.5308,0.5429,4.8678,15.9454,-41.6142,
3.933155,0.0372,-0.0502,0.0800,-0.0499,-0.5308,0.5429,4.8678,15.9454,-41.6142,
3.968040,0.0372,-0.0502,0.0800,-0.0499,-0.5308,0.5429,4.8678,15.9454,-41.6142,
3.971743,0.0372,-0.0502,0.0800,-0.0499,-0.5308,0.5429,4.8678,15.9454,-41.6142,
3.973962,0.0372,-0.0502,0.0800,-0.0499,-0.5308,0.5429,4.8678,15.9454,-41.6142,
3.978880,0.0372,-0.0502,0.0800,-0.0499,-0.5308,0.5429,5.5388,15.6526,-41.7972,
3.987980,0.0372,-0.0502,0.0800,-0.1663,-0.3571,0.5806,5.5388,15.6526,-41.7972,
3.998056,0.0847,-0.5470,-0.1667,-0.1663,-0.3571,0.5806,5.5388,15.6526,-41.7972,
4.033953,0.0847,-0.5470,-0.1667,-0.1663,-0.3571,0.5806,5.5388,15.6526,-41.7972,
4.037393,0.0847,-0.5470,-0.1667,-0.1663,-0.3571,0.5806,5.5388,15.6526,-41.7972,
4.040063,0.0847,-0.5470,-0.1667,-0.1663,-0.3571,0.5806,5.5388,15.6526,-41.7972,
4.042261,0.0847,-0.5470,-0.1667,-0.1663,-0.3571,0.5806,6.0512,15.6160,-41.8704,
4.060350,0.0847,-0.5470,-0.1667,-0.3336,-0.1546,0.6334,6.0512,15.6160,-41.8704,
4.068818,0.2750,0.3025,-0.7280,-0.3336,-0.1546,0.6334,6.0512,15.6160,-41.8704,
4.098577,0.2750,0.3025,-0.7280,-0.3336,-0.1546,0.6334,6.5270,15.6648,-41.7972,
4.102298,0.2750,0.3025,-0.7280,-0.3336,-0.1546,0.6334,6.5270,15.6648,-41.7972,
4.105102,0.2750,0.3025,-0.7280,-0.3336,-0.1546,0.6334,6.5270,15.6648,-41.7972,
4.107615,0.2750,0.3025,-0.7280,-0.3336,-0.1546,0.6334,6.5270,15.6648,-41.7972,
4.109839,0.2750,0.3025,-0.7280,-0.3336,-0.1546,0.6334,6.5270,15.6648,-41.7972,
4.128535,0.2750,0.3025,-0.7280,-0.6265,0.0941,0.6848,6.5270,15.6648,-41.7972,
4.145511,0.6325,0.4657,-0.8336,-0.6265,0.0941,0.6848,6.5270,15.6648,-41.7972,
4.156665,0.6325,0.4657,-0.8336,-0.6265,0.0941,0.6848,6.7100,15.9576,-41.6630,
4.166547,0.6325,0.4657,-0.8336,-0.6265,0.0941,0.6848,6.7100,15.9576,-41.6630,
4.167958,0.6325,0.4657,-0.8336,-0.6265,0.0941,0.6848,6.7100,15.9576,-41.6630,
4.168833,0.6325,0.4657,-0.8336,-0.6265,0.0941,0.6848,6.7100,15.9576,-41.6630,
4.198217,0.6325,0.4657,-0.8336,-0.7880,0.1734,0.7464,6.7100,15.9576,-41.6630,
4.207195,0.0662,0.5581,-0.2873,-0.7880,0.1734,0.7464,6.7100,15.9576,-41.6630,
4.218202,0.0662,0.5581,-0.2873,-0.7880,0.1734,0.7464,6.9296,16.4334,-41.3946,
4.234652,0.0662,0.5581,-0.2873,-0.7880,0.1734,0.7464,6.9296,16.4334,-41.3946,
4.238544,0.0662,0.5581,-0.2873,-0.7880,0.1734,0.7464,6.9296,16.4334,-41.3946,
4.240794,0.0662,0.5581,-0.2873,-0.7880,0.1734,0.7464,6.9296,16.4334,-41.3946,
4.268393,0.0662,0.5581,-0.2873,-0.8774,0.1298,0.7734,6.9296,16.4334,-41.3946,
4.278035,0.0662,0.5581,-0.2873,-0.8774,0.1298,0.7734,7.2346,17.0922,-41.0042,
4.281144,-0.1805,0.3462,-0.1901,-0.8774,0.1298,0.7734,7.2346,17.0922,-41.0042,
4.300779,-0.1805,0.3462,-0.1901,-0.8774,0.1298,0.7734,7.2346,17.0922,-41.0042,
4.305044,-0.1805,0.3462,-0.1901,-0.8774,0.1298,0.7734,7.2346,17.0922,-41.0042,
4.307268,-0.1805,0.3462,-0.1901,-0.8774,0.1298,0.7734,7.2346,17.0922,-41.0042,
4.309424,-0.1805,0.3462,-0.1901,-0.8774,0.1298,0.7734,7.2346,17.0922,-41.0042,
4.336872,-0.1805,0.3462,-0.1901,-0.8774,0.1298,0.7734,7.7348,18.0194,-40.4186,
4.339897,-0.1805,0.3462,-0.1901,-1.0025,0.0722,0.7621,7.7348,18.0194,-40.4186,
4.346525,-0.4082,0.3904,-0.3144,-1.0025,0.0722,0.7621,7.7348,18.0194,-40.4186,
4.369667,-0.4082,0.3904,-0.3144,-1.0025,0.0722,0.7621,7.7348,18.0194,-40.4186,
4.373234,-0.4082,0.3904,-0.3144,-1.0025,0.0722,0.7621,7.7348,18.0194,-40.4186,
4.375309,-0.4082,0.3904,-0.3144,-1.0025,0.0722,0.7621,7.7348,18.0194,-40.4186,
4.397842,-0.4082,0.3904,-0.3144,-1.0025,0.0722,0.7621,8.4912,19.2394,-39.6622,
4.408103,-0.4082,0.3904,-0.3144,-0.9108,0.1896,0.6922,8.4912,19.2394,-39.6622,
4.418751,-0.4747,0.4889,-0.2388,-0.9108,0.1896,0.6922,8.4912,19.2394,-39.6622,
4.434485,-0.4747,0.4889,-0.2388,-0.9108,0.1896,0.6922,8.4912,19.2394,-39.6622,
4.436027,-0.4747,0.4889,-0.2388,-0.9108,0.1896,0.6922,8.4912,19.2394,-39.6622,
4.436774,-0.4747,0.4889,-0.2388,-0.9108,0.1896,0.6922,8.4912,19.2394,-39.6622,
4.456868,-0.4747,0.4889,-0.2388,-0.9108,0.1896,0.6922,9.5038,20.6180,-38.6618,
4.476219,-0.4747,0.4889,-0.2388,-0.7064,0.0991,0.7479,9.5038,20.6180,-38.6618,
4.487657,-0.5377,-0.9794,0.0647,-0.7064,0.0991,0.7479,9.5038,20.6180,-38.6618,
4.500596,-0.5377,-0.9794,0.0647,-0.7064,0.0991,0.7479,9.5038,20.6180,-38.6618,
4.504066,-0.5377,-0.9794,0.0647,-0.7064,0.0991,0.7479,9.5038,20.6180,-38.6618,
4.506473,-0.5377,-0.9794,0.0647,-0.7064,0.0991,0.7479,9.5038,20.6180,-38.6618,
4.508624,-0.5377,-0.9794,0.0647,-0.7064,0.0991,0.7479,9.5038,20.6180,-38.6618,
4.515801,-0.5377,-0.9794,0.0647,-0.7064,0.0991,0.7479,10.7482,22.0332,-37.5150,
4.546146,-0.5377,-0.9794,0.0647,-0.6519,0.0999,0.7900,10.7482,22.0332,-37.5150,
4.556005,-0.3959,-0.4011,-0.3072,-0.6519,0.0999,0.7900,10.7482,22.0332,-37.5150,
4.566984,-0.3959,-0.4011,-0.3072,-0.6519,0.0999,0.7900,10.7482,22.0332,-37.5150,
4.569731,-0.3959,-0.4011,-0.3072,-0.6519,0.0999,0.7900,10.7482,22.0332,-37.5150,
4.571876,-0.3959,-0.4011,-0.3072,-0.6519,0.0999,0.7900,10.7482,22.0332,-37.5150,
4.576823,-0.3959,-0.4011,-0.3072,-0.6519,0.0999,0.7900,12.0902,23.4240,-36.2462,
4.616078,-0.3959,-0.4011,-0.3072,-0.6999,0.1898,0.8497,12.0902,23.4240,-36.2462,
4.625575,-0.0164,-0.0517,-0.3186,-0.6999,0.1898,0.8497,12.0902,23.4240,-36.2462,
4.634018,-0.0164,-0.0517,-0.3186,-0.6999,0.1898,0.8497,13.5664,24.7050,-34.8432,
4.636953,-0.0164,-0.0517,-0.3186,-0.6999,0.1898,0.8497,13.5664,24.7050,-34.8432,
4.638724,-0.0164,-0.0517,-0.3186,-0.6999,0.1898,0.8497,13.5664,24.7050,-34.8432,
4.639886,-0.0164,-0.0517,-0.3186,-0.6999,0.1898,0.8497,13.5664,24.7050,-34.8432,
4.685639,-0.0164,-0.0517,-0.3186,-0.7413,0.2447,0.7727,13.5664,24.7050,-34.8432,
4.695344,-0.0164,-0.0517,-0.3186,-0.7413,0.2447,0.7727,15.1524,25.8518,-33.3060,
4.697815,-0.0769,0.0269,-0.4667,-0.7413,0.2447,0.7727,15.1524,25.8518,-33.3060,
4.701106,-0.0769,0.0269,-0.4667,-0.7413,0.2447,0.7727,15.1524,25.8518,-33.3060,
4.703802,-0.0769,0.0269,-0.4667,-0.7413,0.2447,0.7727,15.1524,25.8518,-33.3060,
4.705632,-0.0769,0.0269,-0.4667,-0.7413,0.2447,0.7727,15.1524,25.8518,-33.3060,
4.707148,-0.0769,0.0269,-0.4667,-0.7413,0.2447,0.7727,15.1524,25.8518,-33.3060,
4.756001,-0.0769,0.0269,-0.4667,-0.7413,0.2447,0.7727,16.7506,26.7668,-31.7200,
4.759436,-0.0769,0.0269,-0.4667,-0.5878,0.1981,0.7346,16.7506,26.7668,-31.7200,
4.765005,-0.3640,-0.1354,0.2862,-0.5878,0.1981,0.7346,16.7506,26.7668,-31.7200,
4.767821,-0.3640,-0.1354,0.2862,-0.5878,0.1981,0.7346,16.7506,26.7668,-31.7200,
4.768834,-0.3640,-0.1354,0.2862,-0.5878,0.1981,0.7346,16.7506,26.7668,-31.7200,
4.769973,-0.3640,-0.1354,0.2862,-0.5878,0.1981,0.7346,16.7506,26.7668,-31.7200,
4.814796,-0.3640,-0.1354,0.2862,-0.5878,0.1981,0.7346,18.3488,27.4866,-30.2438,
4.824812,-0.3640,-0.1354,0.2862,-0.5161,0.0746,0.7747,18.3488,27.4866,-30.2438,
4.834816,-0.3640,-0.1354,0.2862,-0.5161,0.0746,0.7747,18.3488,27.4866,-30.2438,
4.837724,-0.3640,-0.1354,0.2862,-0.5161,0.0746,0.7747,18.3488,27.4866,-30.2438,
4.839846,-0.3640,-0.1354,0.2862,-0.5161,0.0746,0.7747,18.3488,27.4866,-30.2438,
4.841611,-0.1755,-0.3101,0.3822,-0.5161,0.0746,0.7747,18.3488,27.4866,-30.2438,
4.874405,-0.1755,-0.3101,0.3822,-0.5161,0.0746,0.7747,19.9836,27.9258,-28.7676,
4.894499,-0.1755,-0.3101,0.3822,-0.5240,0.0021,0.7918,19.9836,27.9258,-28.7676,
4.901030,-0.1755,-0.3101,0.3822,-0.5240,0.0021,0.7918,19.9836,27.9258,-28.7676,
4.903601,-0.1755,-0.3101,0.3822,-0.5240,0.0021,0.7918,19.9836,27.9258,-28.7676,
4.906909,-0.1755,-0.3101,0.3822,-0.5240,0.0021,0.7918,19.9836,27.9258,-28.7676,
4.909680,-0.1755,-0.3101,0.3822,-0.5240,0.0021,0.7918,19.9836,27.9258,-28.7676,
4.911663,-0.3591,-0.1703,0.2223,-0.5240,0.0021,0.7918,19.9836,27.9258,-28.7676,
4.933863,-0.3591,-0.1703,0.2223,-0.5240,0.0021,0.7918,21.5574,28.1454,-27.3890,
4.964524,-0.3591,-0.1703,0.2223,-0.5558,-0.1087,0.6324,21.5574,28.1454,-27.3890,
4.968841,-0.3591,-0.1703,0.2223,-0.5558,-0.1087,0.6324,21.5574,28.1454,-27.3890,
4.970992,-0.3591,-0.1703,0.2223,-0.5558,-0.1087,0.6324,21.5574,28.1454,-27.3890,
4.972543,-0.3591,-0.1703,0.2223,-0.5558,-0.1087,0.6324,21.5574,28.1454,-27.3890,
4.973830,-0.5714,0.4107,-0.1984,-0.5558,-0.1087,0.6324,21.5574,28.1454,-27.3890,
4.993828,-0.5714,0.4107,-0.1984,-0.5558,-0.1087,0.6324,23.0702,28.2674,-26.1080,
5.034749,-0.5714,0.4107,-0.1984,-0.5823,-0.1791,0.1237,23.0702,28.2674,-26.1080,
5.038410,-0.5714,0.4107,-0.1984,-0.5823,-0.1791,0.1237,23.0702,28.2674,-26.1080,
5.040844,-0.5714,0.4107,-0.1984,-0.5823,-0.1791,0.1237,23.0702,28.2674,-26.1080,
5.043020,-0.5714,0.4107,-0.1984,-0.5823,-0.1791,0.1237,23.0702,28.2674,-26.1080,
5.045398,-0.5714,0.4107,-0.1984,-0.5823,-0.1791,0.1237,23.0702,28.2674,-26.1080,
5.047830,0.0578,0.1034,0.3502,-0.5823,-0.1791,0.1237,23.0702,28.2674,-26.1080,
5.054384,0.0578,0.1034,0.3502,-0.5823,-0.1791,0.1237,24.3390,28.4260,-24.9246,
5.101231,0.0578,0.1034,0.3502,-0.5823,-0.1791,0.1237,24.3390,28.4260,-24.9246,
5.104709,0.0578,0.1034,0.3502,-0.5823,-0.1791,0.1237,24.3390,28.4260,-24.9246,
5.106957,0.0578,0.1034,0.3502,-0.5823,-0.1791,0.1237,24.3390,28.4260,-24.9246,
5.109399,0.0578,0.1034,0.3502,-0.7996,-0.5880,0.1265,24.3390,28.4260,-24.9246,
5.115440,-0.3392,-0.6575,0.2577,-0.7996,-0.5880,0.1265,24.3390,28.4260,-24.9246,
5.124549,-0.3392,-0.6575,0.2577,-0.7996,-0.5880,0.1265,25.3394,28.6212,-23.8998,
5.168567,-0.3392,-0.6575,0.2577,-0.7996,-0.5880,0.1265,25.3394,28.6212,-23.8998,
5.172300,-0.3392,-0.6575,0.2577,-0.7996,-0.5880,0.1265,25.3394,28.6212,-23.8998,
5.174861,-0.3392,-0.6575,0.2577,-0.7996,-0.5880,0.1265,25.3394,28.6212,-23.8998,
5.177339,-0.3392,-0.6575,0.2577,-0.6748,-0.4101,0.0662,25.3394,28.6212,-23.8998,
5.184746,-0.3392,-0.6575,0.2577,-0.6748,-0.4101,0.0662,26.0104,28.8530,-23.0458,
5.188183,-0.0073,0.0150,0.1095,-0.6748,-0.4101,0.0662,26.0104,28.8530,-23.0458,
5.234020,-0.0073,0.0150,0.1095,-0.6748,-0.4101,0.0662,26.0104,28.8530,-23.0458,
5.237484,-0.0073,0.0150,0.1095,-0.6748,-0.4101,0.0662,26.0104,28.8530,-23.0458,
5.240039,-0.0073,0.0150,0.1095,-0.6748,-0.4101,0.0662,26.0104,28.8530,-23.0458,
5.242239,-0.0073,0.0150,0.1095,-0.6748,-0.4101,0.0662,26.0104,28.8530,-23.0458,
5.244638,-0.0073,0.0150,0.1095,-0.6748,-0.4101,0.0662,26.4618,29.1702,-22.2406,
5.247768,-0.0073,0.0150,0.1095,-0.8938,-0.3890,-0.0119,26.4618,29.1702,-22.2406,
5.254320,-0.7427,-0.3041,0.0013,-0.8938,-0.3890,-0.0119,26.4618,29.1702,-22.2406,
5.301584,-0.7427,-0.3041,0.0013,-0.8938,-0.3890,-0.0119,26.4618,29.1702,-22.2406,
5.304644,-0.7427,-0.3041,0.0013,-0.8938,-0.3890,-0.0119,26.4618,29.1702,-22.2406,
5.306360,-0.7427,-0.3041,0.0013,-0.8938,-0.3890,-0.0119,26.4618,29.1702,-22.2406,
5.308725,-0.7427,-0.3041,0.0013,-0.8938,-0.3890,-0.0119,26.7424,29.5972,-21.2768,
5.314850,-0.7427,-0.3041,0.0013,-1.3488,-0.3577,-0.0121,26.7424,29.5972,-21.2768,
5.322535,-0.5599,-0.7332,0.0941,-1.3488,-0.3577,-0.0121,26.7424,29.5972,-21.2768,
5.364786,-0.5599,-0.7332,0.0941,-1.3488,-0.3577,-0.0121,26.7180,30.2072,-20.2276,
5.369441,-0.5599,-0.7332,0.0941,-1.3488,-0.3577,-0.0121,26.7180,30.2072,-20.2276,
5.372017,-0.5599,-0.7332,0.0941,-1.3488,-0.3577,-0.0121,26.7180,30.2072,-20.2276,
5.374605,-0.5599,-0.7332,0.0941,-1.3488,-0.3577,-0.0121,26.7180,30.2072,-20.2276,
5.384963,-0.5599,-0.7332,0.0941,-1.0485,-0.8123,0.1494,26.7180,30.2072,-20.2276,
5.393562,-0.5581,-1.6618,0.9612,-1.0485,-0.8123,0.1494,26.7180,30.2072,-20.2276,
5.422634,-0.5581,-1.6618,0.9612,-1.0485,-0.8123,0.1494,26.5106,30.9270,-19.2516,
5.434581,-0.5581,-1.6618,0.9612,-1.0485,-0.8123,0.1494,26.5106,30.9270,-19.2516,
5.437421,-0.5581,-1.6618,0.9612,-1.0485,-0.8123,0.1494,26.5106,30.9270,-19.2516,
5.439820,-0.5581,-1.6618,0.9612,-1.0485,-0.8123,0.1494,26.5106,30.9270,-19.2516,
5.442396,-0.5581,-1.6618,0.9612,-1.0485,-0.8123,0.1494,26.5106,30.9270,-19.2516,
5.455585,-0.5581,-1.6618,0.9612,-0.0908,-0.8991,0.0735,26.5106,30.9270,-19.2516,
5.463417,2.0125,-0.5093,1.7244,-0.0908,-0.8991,0.0735,26.5106,30.9270,-19.2516,
5.484067,2.0125,-0.5093,1.7244,-0.0908,-0.8991,0.0735,26.1324,31.6590,-18.4464,
5.502379,2.0125,-0.5093,1.7244,-0.0908,-0.8991,0.0735,26.1324,31.6590,-18.4464,
5.505623,2.0125,-0.5093,1.7244,-0.0908,-0.8991,0.0735,26.1324,31.6590,-18.4464,
5.507894,2.0125,-0.5093,1.7244,-0.0908,-0.8991,0.0735,26.1324,31.6590,-18.4464,
5.523939,2.0125,-0.5093,1.7244,0.4590,-0.7647,-0.2746,26.1324,31.6590,-18.4464,
5.538543,2.9084,0.8106,0.0783,0.4590,-0.7647,-0.2746,26.1324,31.6590,-18.4464,
5.544827,2.9084,0.8106,0.0783,0.4590,-0.7647,-0.2746,25.6322,32.3422,-18.0072,
5.566530,2.9084,0.8106,0.0783,0.4590,-0.7647,-0.2746,25.6322,32.3422,-18.0072,
5.568760,2.9084,0.8106,0.0783,0.4590,-0.7647,-0.2746,25.6322,32.3422,-18.0072,
5.570296,2.9084,0.8106,0.0783,0.4590,-0.7647,-0.2746,25.6322,32.3422,-18.0072,
5.593434,2.9084,0.8106,0.0783,0.1109,-1.0566,-0.2149,25.6322,32.3422,-18.0072,
5.603782,2.9084,0.8106,0.0783,0.1109,-1.0566,-0.2149,24.9978,32.9888,-17.8120,
5.607470,1.0064,-0.4289,-2.4590,0.1109,-1.0566,-0.2149,24.9978,32.9888,-17.8120,
5.634695,1.0064,-0.4289,-2.4590,0.1109,-1.0566,-0.2149,24.9978,32.9888,-17.8120,
5.637595,1.0064,-0.4289,-2.4590,0.1109,-1.0566,-0.2149,24.9978,32.9888,-17.8120,
5.639561,1.0064,-0.4289,-2.4590,0.1109,-1.0566,-0.2149,24.9978,32.9888,-17.8120,
5.641378,1.0064,-0.4289,-2.4590,0.1109,-1.0566,-0.2149,24.9978,32.9888,-17.8120,
5.662469,1.0064,-0.4289,-2.4590,0.1109,-1.0566,-0.2149,24.1072,33.6720,-17.8730,
5.665606,1.0064,-0.4289,-2.4590,-0.3248,-1.4004,-0.3657,24.1072,33.6720,-17.8730,
5.674031,1.0469,0.3545,-1.1737,-0.3248,-1.4004,-0.3657,24.1072,33.6720,-17.8730,
5.702207,1.0469,0.3545,-1.1737,-0.3248,-1.4004,-0.3657,24.1072,33.6720,-17.8730,
5.706207,1.0469,0.3545,-1.1737,-0.3248,-1.4004,-0.3657,24.1072,33.6720,-17.8730,
5.708870,1.0469,0.3545,-1.1737,-0.3248,-1.4004,-0.3657,24.1072,33.6720,-17.8730,
5.722694,1.0469,0.3545,-1.1737,-0.3248,-1.4004,-0.3657,22.8872,34.4040,-18.0560,
5.731901,1.0469,0.3545,-1.1737,-0.3819,-0.8943,-0.7631,22.8872,34.4040,-18.0560,
5.741238,1.2244,0.6698,-0.3208,-0.3819,-0.8943,-0.7631,22.8872,34.4040,-18.0560,
5.767626,1.2244,0.6698,-0.3208,-0.3819,-0.8943,-0.7631,22.8872,34.4040,-18.0560,
5.769492,1.2244,0.6698,-0.3208,-0.3819,-0.8943,-0.7631,22.8872,34.4040,-18.0560,
5.770508,1.2244,0.6698,-0.3208,-0.3819,-0.8943,-0.7631,22.8872,34.4040,-18.0560,
5.780376,1.2244,0.6698,-0.3208,-0.3819,-0.8943,-0.7631,21.3134,35.1726,-18.4830,
5.801590,1.2244,0.6698,-0.3208,0.0304,-0.7324,-0.4947,21.3134,35.1726,-18.4830,
5.818826,0.3992,-0.4628,1.4445,0.0304,-0.7324,-0.4947,21.3134,35.1726,-18.4830,
5.834470,0.3992,-0.4628,1.4445,0.0304,-0.7324,-0.4947,21.3134,35.1726,-18.4830,
5.836436,0.3992,-0.4628,1.4445,0.0304,-0.7324,-0.4947,21.3134,35.1726,-18.4830,
5.837554,0.3992,-0.4628,1.4445,0.0304,-0.7324,-0.4947,21.3134,35.1726,-18.4830,
5.838697,0.3992,-0.4628,1.4445,0.0304,-0.7324,-0.4947,21.3134,35.1726,-18.4830,
5.840062,0.3992,-0.4628,1.4445,0.0304,-0.7324,-0.4947,19.5444,35.8680,-19.2516,
5.872664,0.3992,-0.4628,1.4445,0.7818,-0.2779,-0.0554,19.5444,35.8680,-19.2516,
5.882374,-0.5593,-0.0266,3.2352,0.7818,-0.2779,-0.0554,19.5444,35.8680,-19.2516,
5.902073,-0.5593,-0.0266,3.2352,0.7818,-0.2779,-0.0554,17.6778,36.4536,-20.3008,
5.906186,-0.5593,-0.0266,3.2352,0.7818,-0.2779,-0.0554,17.6778,36.4536,-20.3008,
5.908603,-0.5593,-0.0266,3.2352,0.7818,-0.2779,-0.0554,17.6778,36.4536,-20.3008,
5.911388,-0.5593,-0.0266,3.2352,0.7818,-0.2779,-0.0554,17.6778,36.4536,-20.3008,
5.942668,-0.5593,-0.0266,3.2352,0.5947,-0.0687,0.2277,17.6778,36.4536,-20.3008,
5.950814,-2.5496,-0.1421,2.6082,0.5947,-0.0687,0.2277,17.6778,36.4536,-20.3008,
5.962289,-2.5496,-0.1421,2.6082,0.5947,-0.0687,0.2277,15.9210,36.9172,-21.4232,
5.966301,-2.5496,-0.1421,2.6082,0.5947,-0.0687,0.2277,15.9210,36.9172,-21.4232,
5.968266,-2.5496,-0.1421,2.6082,0.5947,-0.0687,0.2277,15.9210,36.9172,-21.4232,
5.969896,-2.5496,-0.1421,2.6082,0.5947,-0.0687,0.2277,15.9210,36.9172,-21.4232,
6.012472,-2.5496,-0.1421,2.6082,0.2200,-0.2856,0.5381,15.9210,36.9172,-21.4232,
6.022516,-2.5496,-0.1421,2.6082,0.2200,-0.2856,0.5381,14.4326,37.2466,-22.2528,
6.025563,-2.2224,0.6979,-0.9886,0.2200,-0.2856,0.5381,14.4326,37.2466,-22.2528,
6.034648,-2.2224,0.6979,-0.9886,0.2200,-0.2856,0.5381,14.4326,37.2466,-22.2528,
6.037250,-2.2224,0.6979,-0.9886,0.2200,-0.2856,0.5381,14.4326,37.2466,-22.2528,
6.039212,-2.2224,0.6979,-0.9886,0.2200,-0.2856,0.5381,14.4326,37.2466,-22.2528,
6.041250,-2.2224,0.6979,-0.9886,0.2200,-0.2856,0.5381,14.4326,37.2466,-22.2528,
6.081698,-2.2224,0.6979,-0.9886,0.2200,-0.2856,0.5381,13.2248,37.4418,-23.0092,
6.085151,-2.2224,0.6979,-0.9886,0.2810,-0.2768,0.8004,13.2248,37.4418,-23.0092,
6.091929,-1.1013,-0.0561,-1.1412,0.2810,-0.2768,0.8004,13.2248,37.4418,-23.0092,
6.102593,-1.1013,-0.0561,-1.1412,0.2810,-0.2768,0.8004,13.2248,37.4418,-23.0092,
6.105403,-1.1013,-0.0561,-1.1412,0.2810,-0.2768,0.8004,13.2248,37.4418,-23.0092,
6.107675,-1.1013,-0.0561,-1.1412,0.2810,-0.2768,0.8004,13.2248,37.4418,-23.0092,
6.142413,-1.1013,-0.0561,-1.1412,0.2810,-0.2768,0.8004,12.5416,37.4418,-23.7412,
6.151172,-1.1013,-0.0561,-1.1412,0.5320,0.3410,0.7855,12.5416,37.4418,-23.7412,
6.163767,0.1616,0.1256,-0.6353,0.5320,0.3410,0.7855,12.5416,37.4418,-23.7412,
6.167661,0.1616,0.1256,-0.6353,0.5320,0.3410,0.7855,12.5416,37.4418,-23.7412,
6.169765,0.1616,0.1256,-0.6353,0.5320,0.3410,0.7855,12.5416,37.4418,-23.7412,
6.171498,0.1616,0.1256,-0.6353,0.5320,0.3410,0.7855,12.5416,37.4418,-23.7412,
6.201787,0.1616,0.1256,-0.6353,0.5320,0.3410,0.7855,12.4684,37.1978,-24.5708,
6.221274,0.1616,0.1256,-0.6353,0.5926,0.2284,0.8638,12.4684,37.1978,-24.5708,
6.233194,-0.6757,0.9098,-0.4791,0.5926,0.2284,0.8638,12.4684,37.1978,-24.5708,
6.237329,-0.6757,0.9098,-0.4791,0.5926,0.2284,0.8638,12.4684,37.1978,-24.5708,
6.238892,-0.6757,0.9098,-0.4791,0.5926,0.2284,0.8638,12.4684,37.1978,-24.5708,
6.241055,-0.6757,0.9098,-0.4791,0.5926,0.2284,0.8638,12.4684,37.1978,-24.5708,
6.242671,-0.6757,0.9098,-0.4791,0.5926,0.2284,0.8638,12.4684,37.1978,-24.5708,
6.260461,-0.6757,0.9098,-0.4791,0.5926,0.2284,0.8638,13.0540,36.5146,-25.4980,
6.291402,-0.6757,0.9098,-0.4791,0.2449,0.4961,0.6272,13.0540,36.5146,-25.4980,
6.300674,-0.1210,1.7863,-0.4839,0.2449,0.4961,0.6272,13.0540,36.5146,-25.4980,
6.303055,-0.1210,1.7863,-0.4839,0.2449,0.4961,0.6272,13.0540,36.5146,-25.4980,
6.305258,-0.1210,1.7863,-0.4839,0.2449,0.4961,0.6272,13.0540,36.5146,-25.4980,
6.306806,-0.1210,1.7863,-0.4839,0.2449,0.4961,0.6272,13.0540,36.5146,-25.4980,
6.320612,-0.1210,1.7863,-0.4839,0.2449,0.4961,0.6272,14.1886,35.6972,-26.2666,
6.360118,-0.1210,1.7863,-0.4839,0.6631,1.0177,0.8686,14.1886,35.6972,-26.2666,
6.367656,-0.1210,1.7863,-0.4839,0.6631,1.0177,0.8686,14.1886,35.6972,-26.2666,
6.369539,-0.1210,1.7863,-0.4839,0.6631,1.0177,0.8686,14.1886,35.6972,-26.2666,
6.371354,-0.1210,1.7863,-0.4839,0.6631,1.0177,0.8686,14.1886,35.6972,-26.2666,
6.376919,1.5280,0.3113,-0.8606,0.6631,1.0177,0.8686,14.1886,35.6972,-26.2666,
6.384073,1.5280,0.3113,-0.8606,0.6631,1.0177,0.8686,15.8356,34.7578,-26.8400,
6.430867,1.5280,0.3113,-0.8606,1.0575,0.4549,1.9205,15.8356,34.7578,-26.8400,
6.434814,1.5280,0.3113,-0.8606,1.0575,0.4549,1.9205,15.8356,34.7578,-26.8400,
6.436718,1.5280,0.3113,-0.8606,1.0575,0.4549,1.9205,15.8356,34.7578,-26.8400,
6.438224,1.5280,0.3113,-0.8606,1.0575,0.4549,1.9205,15.8356,34.7578,-26.8400,
6.440075,1.5280,0.3113,-0.8606,1.0575,0.4549,1.9205,15.8356,34.7578,-26.8400,
6.441717,1.5280,0.3113,-0.8606,1.0575,0.4549,1.9205,17.9096,33.4524,-27.2670,
6.443552,1.1717,-2.6934,-1.4247,1.0575,0.4549,1.9205,17.9096,33.4524,-27.2670,
6.499339,1.1717,-2.6934,-1.4247,1.0575,0.4549,1.9205,20.0080,31.8420,-27.9746,
6.501783,1.1717,-2.6934,-1.4247,0.6362,-0.5953,0.7844,20.0080,31.8420,-27.9746,
6.504237,1.1717,-2.6934,-1.4247,0.6362,-0.5953,0.7844,20.0080,31.8420,-27.9746,
6.505922,1.1717,-2.6934,-1.4247,0.6362,-0.5953,0.7844,20.0080,31.8420,-27.9746,
6.507618,1.1717,-2.6934,-1.4247,0.6362,-0.5953,0.7844,20.0080,31.8420,-27.9746,
6.509204,-1.8110,-1.6060,-1.5906,0.6362,-0.5953,0.7844,20.0080,31.8420,-27.9746,
6.559743,-1.8110,-1.6060,-1.5906,0.6362,-0.5953,0.7844,21.8746,30.1462,-28.7798,
6.567283,-1.8110,-1.6060,-1.5906,0.6362,-0.5953,0.7844,21.8746,30.1462,-28.7798,
6.569289,-1.8110,-1.6060,-1.5906,0.6362,-0.5953,0.7844,21.8746,30.1462,-28.7798,
6.571456,-1.8110,-1.6060,-1.5906,0.6362,-0.5953,0.7844,21.8746,30.1462,-28.7798,
6.573390,-1.8110,-1.6060,-1.5906,0.1249,-0.9015,-0.1013,21.8746,30.1462,-28.7798,
6.581824,-1.3655,-0.3526,-0.6760,0.1249,-0.9015,-0.1013,21.8746,30.1462,-28.7798,
6.618814,-1.3655,-0.3526,-0.6760,0.1249,-0.9015,-0.1013,23.1800,28.6212,-29.6338,
6.633794,-1.3655,-0.3526,-0.6760,0.1249,-0.9015,-0.1013,23.1800,28.6212,-29.6338,
6.637032,-1.3655,-0.3526,-0.6760,0.1249,-0.9015,-0.1013,23.1800,28.6212,-29.6338,
6.639549,-1.3655,-0.3526,-0.6760,0.1249,-0.9015,-0.1013,23.1800,28.6212,-29.6338,
6.641819,-1.3655,-0.3526,-0.6760,0.1249,-0.9015,-0.1013,23.1800,28.6212,-29.6338,
6.644461,-1.3655,-0.3526,-0.6760,-0.3214,-0.6679,-0.3824,23.1800,28.6212,-29.6338,
6.654430,0.1401,-0.8727,-0.7178,-0.3214,-0.6679,-0.3824,23.1800,28.6212,-29.6338,
6.678755,0.1401,-0.8727,-0.7178,-0.3214,-0.6679,-0.3824,23.9974,27.3524,-30.4878,
6.702199,0.1401,-0.8727,-0.7178,-0.3214,-0.6679,-0.3824,23.9974,27.3524,-30.4878,
6.705870,0.1401,-0.8727,-0.7178,-0.3214,-0.6679,-0.3824,23.9974,27.3524,-30.4878,
6.708498,0.1401,-0.8727,-0.7178,-0.3214,-0.6679,-0.3824,23.9974,27.3524,-30.4878,
6.711034,0.1401,-0.8727,-0.7178,-0.2491,-0.6746,-0.2912,23.9974,27.3524,-30.4878,
6.720927,0.0466,-1.0231,0.6686,-0.2491,-0.6746,-0.2912,23.9974,27.3524,-30.4878,
6.738251,0.0466,-1.0231,0.6686,-0.2491,-0.6746,-0.2912,24.2048,26.4374,-31.3418,
6.769787,0.0466,-1.0231,0.6686,-0.2491,-0.6746,-0.2912,24.2048,26.4374,-31.3418,
6.772193,0.0466,-1.0231,0.6686,-0.2491,-0.6746,-0.2912,24.2048,26.4374,-31.3418,
6.773468,0.0466,-1.0231,0.6686,-0.2491,-0.6746,-0.2912,24.2048,26.4374,-31.3418,
6.774786,0.0466,-1.0231,0.6686,-0.2491,-0.6746,-0.2912,24.2048,26.4374,-31.3418,
6.777376,0.0466,-1.0231,0.6686,0.1229,-0.7341,-0.1372,24.2048,26.4374,-31.3418,
6.788923,-1.0888,-1.2672,0.9255,0.1229,-0.7341,-0.1372,24.2048,26.4374,-31.3418,
6.797201,-1.0888,-1.2672,0.9255,0.1229,-0.7341,-0.1372,23.8632,25.5468,-32.3666,
6.834619,-1.0888,-1.2672,0.9255,0.1229,-0.7341,-0.1372,23.8632,25.5468,-32.3666,
6.837998,-1.0888,-1.2672,0.9255,0.1229,-0.7341,-0.1372,23.8632,25.5468,-32.3666,
6.840547,-1.0888,-1.2672,0.9255,0.1229,-0.7341,-0.1372,23.8632,25.5468,-32.3666,
6.850158,-1.0888,-1.2672,0.9255,0.1826,-1.0579,-0.1862,23.8632,25.5468,-32.3666,
6.858619,-1.0888,-1.2672,0.9255,0.1826,-1.0579,-0.1862,22.7774,24.7660,-33.5622,
6.861908,-0.9512,-1.0665,0.6174,0.1826,-1.0579,-0.1862,22.7774,24.7660,-33.5622,
6.900749,-0.9512,-1.0665,0.6174,0.1826,-1.0579,-0.1862,22.7774,24.7660,-33.5622,
6.904156,-0.9512,-1.0665,0.6174,0.1826,-1.0579,-0.1862,22.7774,24.7660,-33.5622,
6.906347,-0.9512,-1.0665,0.6174,0.1826,-1.0579,-0.1862,22.7774,24.7660,-33.5622,
6.913590,-0.9512,-1.0665,0.6174,0.1826,-1.0579,-0.1862,20.8986,24.3512,-34.8676,
6.916792,-0.9512,-1.0665,0.6174,0.2858,-1.1012,-0.0449,20.8986,24.3512,-34.8676,
6.927881,-1.4991,1.6802,0.4372,0.2858,-1.1012,-0.0449,20.8986,24.3512,-34.8676,
6.967696,-1.4991,1.6802,0.4372,0.2858,-1.1012,-0.0449,20.8986,24.3512,-34.8676,
6.970738,-1.4991,1.6802,0.4372,0.2858,-1.1012,-0.0449,20.8986,24.3512,-34.8676,
6.973309,-1.4991,1.6802,0.4372,0.2858,-1.1012,-0.0449,20.8986,24.3512,-34.8676,
6.975648,-1.4991,1.6802,0.4372,0.2858,-1.1012,-0.0449,20.8986,24.3512,-34.8676,
6.977891,-1.4991,1.6802,0.4372,0.2858,-1.1012,-0.0449,18.5562,24.1804,-36.0266,
6.987629,-1.4991,1.6802,0.4372,0.3144,-0.4694,-0.0290,18.5562,24.1804,-36.0266,
6.997344,-0.1551,2.7984,-0.5095,0.3144,-0.4694,-0.0290,18.5562,24.1804,-36.0266,
7.034247,-0.1551,2.7984,-0.5095,0.3144,-0.4694,-0.0290,18.5562,24.1804,-36.0266,
7.038116,-0.1551,2.7984,-0.5095,0.3144,-0.4694,-0.0290,18.5562,24.1804,-36.0266,
7.040560,-0.1551,2.7984,-0.5095,0.3144,-0.4694,-0.0290,18.5562,24.1804,-36.0266,
7.042827,-0.1551,2.7984,-0.5095,0.3144,-0.4694,-0.0290,16.2504,24.0706,-37.0514,
7.057131,-0.1551,2.7984,-0.5095,0.0506,-0.0381,0.0374,16.2504,24.0706,-37.0514,
7.066616,0.5739,4.3501,0.0592,0.0506,-0.0381,0.0374,16.2504,24.0706,-37.0514,
7.097078,0.5739,4.3501,0.0592,0.0506,-0.0381,0.0374,14.3472,23.9120,-37.8810,
7.100688,0.5739,4.3501,0.0592,0.0506,-0.0381,0.0374,14.3472,23.9120,-37.8810,
7.103688,0.5739,4.3501,0.0592,0.0506,-0.0381,0.0374,14.3472,23.9120,-37.8810,
7.105726,0.5739,4.3501,0.0592,0.0506,-0.0381,0.0374,14.3472,23.9120,-37.8810,
7.127155,0.5739,4.3501,0.0592,-0.0376,0.4557,0.0579,14.3472,23.9120,-37.8810,
7.145569,0.5739,4.3501,0.0592,-0.0376,0.4557,0.0579,14.3472,23.9120,-37.8810,
7.148321,0.5739,4.3501,0.0592,-0.0376,0.4557,0.0579,14.3472,23.9120,-37.8810,
7.150525,0.2739,1.8195,0.2840,-0.0376,0.4557,0.0579,14.3472,23.9120,-37.8810,
7.156911,0.2739,1.8195,0.2840,-0.0376,0.4557,0.0579,12.8100,23.6070,-38.5154,
7.166986,0.2739,1.8195,0.2840,-0.0376,0.4557,0.0579,12.8100,23.6070,-38.5154,
7.169734,0.2739,1.8195,0.2840,-0.0376,0.4557,0.0579,12.8100,23.6070,-38.5154,
7.198405,0.2739,1.8195,0.2840,-0.1545,0.3248,0.2245,12.8100,23.6070,-38.5154,
7.208206,-0.0892,0.4563,0.3541,-0.1545,0.3248,0.2245,12.8100,23.6070,-38.5154,
7.218051,-0.0892,0.4563,0.3541,-0.1545,0.3248,0.2245,11.7486,23.2288,-39.0400,
7.234070,-0.0892,0.4563,0.3541,-0.1545,0.3248,0.2245,11.7486,23.2288,-39.0400,
7.235714,-0.0892,0.4563,0.3541,-0.1545,0.3248,0.2245,11.7486,23.2288,-39.0400,
7.236792,-0.0892,0.4563,0.3541,-0.1545,0.3248,0.2245,11.7486,23.2288,-39.0400,
7.266604,-0.0892,0.4563,0.3541,0.0157,0.1755,0.1119,11.7486,23.2288,-39.0400,
7.279475,-0.0892,0.4563,0.3541,0.0157,0.1755,0.1119,11.0166,22.8750,-39.3938,
7.281504,-0.9420,-0.1637,0.2424,0.0157,0.1755,0.1119,11.0166,22.8750,-39.3938,
7.301090,-0.9420,-0.1637,0.2424,0.0157,0.1755,0.1119,11.0166,22.8750,-39.3938,
7.304063,-0.9420,-0.1637,0.2424,0.0157,0.1755,0.1119,11.0166,22.8750,-39.3938,
7.305634,-0.9420,-0.1637,0.2424,0.0157,0.1755,0.1119,11.0166,22.8750,-39.3938,
7.336906,-0.9420,-0.1637,0.2424,0.0157,0.1755,0.1119,10.7482,22.5334,-39.5890,
7.339644,-0.9420,-0.1637,0.2424,0.3882,0.4318,-0.0767,10.7482,22.5334,-39.5890,
7.345838,-0.3657,-0.5866,0.6011,0.3882,0.4318,-0.0767,10.7482,22.5334,-39.5890,
7.369288,-0.3657,-0.5866,0.6011,0.3882,0.4318,-0.0767,10.7482,22.5334,-39.5890,
7.372392,-0.3657,-0.5866,0.6011,0.3882,0.4318,-0.0767,10.7482,22.5334,-39.5890,
7.374988,-0.3657,-0.5866,0.6011,0.3882,0.4318,-0.0767,10.7482,22.5334,-39.5890,
7.377207,-0.3657,-0.5866,0.6011,0.3882,0.4318,-0.0767,10.7482,22.5334,-39.5890,
7.397078,-0.3657,-0.5866,0.6011,0.3882,0.4318,-0.0767,10.8946,22.1186,-39.7110,
7.408293,-0.3657,-0.5866,0.6011,0.3989,0.1165,-0.0063,10.8946,22.1186,-39.7110,
7.418693,0.8447,0.1964,0.2770,0.3989,0.1165,-0.0063,10.8946,22.1186,-39.7110,
7.436003,0.8447,0.1964,0.2770,0.3989,0.1165,-0.0063,10.8946,22.1186,-39.7110,
7.437293,0.8447,0.1964,0.2770,0.3989,0.1165,-0.0063,10.8946,22.1186,-39.7110,
7.438004,0.8447,0.1964,0.2770,0.3989,0.1165,-0.0063,10.8946,22.1186,-39.7110,
7.457310,0.8447,0.1964,0.2770,0.3989,0.1165,-0.0063,11.4314,21.8502,-39.5768,
7.477187,0.8447,0.1964,0.2770,-0.3089,0.0909,-0.1206,11.4314,21.8502,-39.5768,
7.491342,-0.3647,-0.4711,-1.2612,-0.3089,0.0909,-0.1206,11.4314,21.8502,-39.5768,
7.500926,-0.3647,-0.4711,-1.2612,-0.3089,0.0909,-0.1206,11.4314,21.8502,-39.5768,
7.503492,-0.3647,-0.4711,-1.2612,-0.3089,0.0909,-0.1206,11.4314,21.8502,-39.5768,
7.505354,-0.3647,-0.4711,-1.2612,-0.3089,0.0909,-0.1206,11.4314,21.8502,-39.5768,
7.515207,-0.3647,-0.4711,-1.2612,-0.3089,0.0909,-0.1206,12.0780,21.7160,-39.3816,
7.547019,-0.3647,-0.4711,-1.2612,0.1238,-0.1529,0.0497,12.0780,21.7160,-39.3816,
7.557733,0.1675,-0.5944,0.2457,0.1238,-0.1529,0.0497,12.0780,21.7160,-39.3816,
7.568597,0.1675,-0.5944,0.2457,0.1238,-0.1529,0.0497,12.0780,21.7160,-39.3816,
7.570757,0.1675,-0.5944,0.2457,0.1238,-0.1529,0.0497,12.0780,21.7160,-39.3816,
7.572459,0.1675,-0.5944,0.2457,0.1238,-0.1529,0.0497,12.0780,21.7160,-39.3816,
7.573640,0.1675,-0.5944,0.2457,0.1238,-0.1529,0.0497,12.0780,21.7160,-39.3816,
7.574807,0.1675,-0.5944,0.2457,0.1238,-0.1529,0.0497,12.5904,21.5452,-39.3206,
7.617152,0.1675,-0.5944,0.2457,0.0988,0.0996,-0.1659,12.5904,21.5452,-39.3206,
7.626942,0.5586,-0.0988,0.1111,0.0988,0.0996,-0.1659,12.5904,21.5452,-39.3206,
7.637970,0.5586,-0.0988,0.1111,0.0988,0.0996,-0.1659,12.9686,21.4110,-39.3816,
7.640362,0.5586,-0.0988,0.1111,0.0988,0.0996,-0.1659,12.9686,21.4110,-39.3816,
7.642274,0.5586,-0.0988,0.1111,0.0988,0.0996,-0.1659,12.9686,21.4110,-39.3816,
7.644401,0.5586,-0.0988,0.1111,0.0988,0.0996,-0.1659,12.9686,21.4110,-39.3816,
7.686913,0.5586,-0.0988,0.1111,0.0157,0.0077,0.0843,12.9686,21.4110,-39.3816,
7.702801,0.5586,-0.0988,0.1111,0.0157,0.0077,0.0843,13.2370,21.1914,-39.4060,
7.705163,0.3508,0.0104,-0.2252,0.0157,0.0077,0.0843,13.2370,21.1914,-39.4060,
7.706998,0.3508,0.0104,-0.2252,0.0157,0.0077,0.0843,13.2370,21.1914,-39.4060,
7.708021,0.3508,0.0104,-0.2252,0.0157,0.0077,0.0843,13.2370,21.1914,-39.4060,
7.708897,0.3508,0.0104,-0.2252,0.0157,0.0077,0.0843,13.2370,21.1914,-39.4060,
7.756764,0.3508,0.0104,-0.2252,0.0157,0.0077,0.0843,13.4322,21.0084,-39.4670,
7.758705,0.3508,0.0104,-0.2252,0.0393,0.0732,-0.0636,13.4322,21.0084,-39.4670,
7.767023,0.4683,-0.2526,-0.1819,0.0393,0.0732,-0.0636,13.4322,21.0084,-39.4670,
7.768566,0.4683,-0.2526,-0.1819,0.0393,0.0732,-0.0636,13.4322,21.0084,-39.4670,
7.769474,0.4683,-0.2526,-0.1819,0.0393,0.0732,-0.0636,13.4322,21.0084,-39.4670,
7.770371,0.4683,-0.2526,-0.1819,0.0393,0.0732,-0.0636,13.4322,21.0084,-39.4670,
7.771539,0.4683,-0.2526,-0.1819,0.0393,0.0732,-0.0636,13.4322,21.0084,-39.4670,
7.814235,0.4683,-0.2526,-0.1819,0.0393,0.0732,-0.0636,13.5542,20.8254,-39.5280,
7.825821,0.4683,-0.2526,-0.1819,-0.0101,-0.0944,-0.0599,13.5542,20.8254,-39.5280,
7.846350,0.4683,-0.2526,-0.1819,-0.0101,-0.0944,-0.0599,13.5542,20.8254,-39.5280,
7.847919,0.4683,-0.2526,-0.1819,-0.0101,-0.0944,-0.0599,13.5542,20.8254,-39.5280,
7.848912,0.4683,-0.2526,-0.1819,-0.0101,-0.0944,-0.0599,13.5542,20.8254,-39.5280,
7.850312,0.3530,-0.2271,0.0316,-0.0101,-0.0944,-0.0599,13.5542,20.8254,-39.5280,
