
time,ax,ay,az,wx,wy,wz,Bx,By,Bz,
0.043538,0.0000,0.0000,0.0000,0.0000,0.0000,0.0000,0.0000,0.0000,0.0000,
0.055947,0.0000,0.0000,0.0000,0.0000,0.0000,0.0000,0.0000,0.0000,0.0000,
0.068665,0.0000,0.0000,0.0000,0.0000,0.0000,0.0000,0.8052,-0.4758,36.3072,
0.078437,0.0000,0.0000,0.0000,-0.0522,-0.1413,0.0479,0.8052,-0.4758,36.3072,
0.099762,0.0000,0.0000,0.0000,-0.0522,-0.1413,0.0479,0.8052,-0.4758,36.3072,
0.102582,0.0000,0.0000,0.0000,-0.0522,-0.1413,0.0479,0.8052,-0.4758,36.3072,
0.103681,0.0000,0.0000,0.0000,-0.0522,-0.1413,0.0479,0.8052,-0.4758,36.3072,
0.131298,0.0000,0.0000,0.0000,-0.0522,-0.1413,0.0479,-4.0748,8.8694,39.0278,
0.150626,0.0000,0.0000,0.0000,-0.0296,-0.1205,0.0474,-4.0748,8.8694,39.0278,
0.168994,0.0364,-0.0574,-0.0146,-0.0296,-0.1205,0.0474,-4.0748,8.8694,39.0278,
0.170122,0.0364,-0.0574,-0.0146,-0.0296,-0.1205,0.0474,-4.0748,8.8694,39.0278,
0.171002,0.0364,-0.0574,-0.0146,-0.0296,-0.1205,0.0474,-4.0748,8.8694,39.0278,
0.171759,0.0364,-0.0574,-0.0146,-0.0296,-0.1205,0.0474,-4.0748,8.8694,39.0278,
0.172498,0.0364,-0.0574,-0.0146,-0.0296,-0.1205,0.0474,-4.0748,8.8694,39.0278,
0.187828,0.0364,-0.0574,-0.0146,-0.0296,-0.1205,0.0474,-5.5754,11.8340,39.9550,
0.220291,0.0364,-0.0574,-0.0146,0.0097,-0.0804,0.0478,-5.5754,11.8340,39.9550,
0.240348,0.1014,0.0708,0.0615,0.0097,-0.0804,0.0478,-5.5754,11.8340,39.9550,
0.241425,0.1014,0.0708,0.0615,0.0097,-0.0804,0.0478,-5.5754,11.8340,39.9550,
0.242093,0.1014,0.0708,0.0615,0.0097,-0.0804,0.0478,-5.5754,11.8340,39.9550,
0.242721,0.1014,0.0708,0.0615,0.0097,-0.0804,0.0478,-5.5754,11.8340,39.9550,
0.248763,0.1014,0.0708,0.0615,0.0097,-0.0804,0.0478,-6.2830,13.3590,40.4674,
0.288859,0.1014,0.0708,0.0615,-0.0072,-0.0824,0.0602,-6.2830,13.3590,40.4674,
0.303709,0.1014,0.0708,0.0615,-0.0072,-0.0824,0.0602,-6.2830,13.3590,40.4674,
0.304783,0.1014,0.0708,0.0615,-0.0072,-0.0824,0.0602,-6.2830,13.3590,40.4674,
0.305538,0.1014,0.0708,0.0615,-0.0072,-0.0824,0.0602,-6.2830,13.3590,40.4674,
0.307887,0.1014,0.0708,0.0615,-0.0072,-0.0824,0.0602,-6.5880,14.2496,40.7724,
0.309036,0.0360,-0.0112,0.0036,-0.0072,-0.0824,0.0602,-6.5880,14.2496,40.7724,
0.359235,0.0360,-0.0112,0.0036,-0.0336,0.0091,0.0578,-6.5880,14.2496,40.7724,
0.368695,0.0360,-0.0112,0.0036,-0.0336,0.0091,0.0578,-6.8442,14.8352,40.9676,
0.369838,0.0360,-0.0112,0.0036,-0.0336,0.0091,0.0578,-6.8442,14.8352,40.9676,
0.370525,0.0360,-0.0112,0.0036,-0.0336,0.0091,0.0578,-6.8442,14.8352,40.9676,
0.371236,0.0360,-0.0112,0.0036,-0.0336,0.0091,0.0578,-6.8442,14.8352,40.9676,
0.371862,0.0360,-0.0112,0.0036,-0.0336,0.0091,0.0578,-6.8442,14.8352,40.9676,
0.378551,0.0942,-0.1516,0.1603,-0.0336,0.0091,0.0578,-6.8442,14.8352,40.9676,
0.430091,0.0942,-0.1516,0.1603,-0.0336,0.0091,0.0578,-7.0150,15.2500,41.1140,
0.431689,0.0942,-0.1516,0.1603,-0.0495,0.0374,0.0708,-7.0150,15.2500,41.1140,
0.436487,0.0942,-0.1516,0.1603,-0.0495,0.0374,0.0708,-7.0150,15.2500,41.1140,
0.437253,0.0942,-0.1516,0.1603,-0.0495,0.0374,0.0708,-7.0150,15.2500,41.1140,
0.437897,0.0942,-0.1516,0.1603,-0.0495,0.0374,0.0708,-7.0150,15.2500,41.1140,
0.448740,-0.1538,0.2325,-0.0596,-0.0495,0.0374,0.0708,-7.0150,15.2500,41.1140,
0.489594,-0.1538,0.2325,-0.0596,-0.0495,0.0374,0.0708,-7.1370,15.5550,41.2116,
0.499349,-0.1538,0.2325,-0.0596,-0.1095,-0.0230,0.0871,-7.1370,15.5550,41.2116,
0.503353,-0.1538,0.2325,-0.0596,-0.1095,-0.0230,0.0871,-7.1370,15.5550,41.2116,
0.504307,-0.1538,0.2325,-0.0596,-0.1095,-0.0230,0.0871,-7.1370,15.5550,41.2116,
0.505067,-0.1538,0.2325,-0.0596,-0.1095,-0.0230,0.0871,-7.1370,15.5550,41.2116,
0.518778,-0.3467,0.0665,-0.1458,-0.1095,-0.0230,0.0871,-7.1370,15.5550,41.2116,
0.548470,-0.3467,0.0665,-0.1458,-0.1095,-0.0230,0.0871,-8.2472,17.7754,41.9680,
0.568297,-0.3467,0.0665,-0.1458,-0.1069,-0.0427,-0.0076,-8.2472,17.7754,41.9680,
0.569752,-0.3467,0.0665,-0.1458,-0.1069,-0.0427,-0.0076,-8.2472,17.7754,41.9680,
0.570728,-0.3467,0.0665,-0.1458,-0.1069,-0.0427,-0.0076,-8.2472,17.7754,41.9680,
0.572010,-0.3467,0.0665,-0.1458,-0.1069,-0.0427,-0.0076,-8.2472,17.7754,41.9680,
0.572999,-0.3467,0.0665,-0.1458,-0.1069,-0.0427,-0.0076,-8.2472,17.7754,41.9680,
0.589712,-0.1641,-0.1289,0.1208,-0.1069,-0.0427,-0.0076,-8.2472,17.7754,41.9680,
0.607478,-0.1641,-0.1289,0.1208,-0.1069,-0.0427,-0.0076,-8.1130,17.5924,42.0778,
0.637774,-0.1641,-0.1289,0.1208,-0.0352,0.0891,-0.0033,-8.1130,17.5924,42.0778,
0.639273,-0.1641,-0.1289,0.1208,-0.0352,0.0891,-0.0033,-8.1130,17.5924,42.0778,
0.640130,-0.1641,-0.1289,0.1208,-0.0352,0.0891,-0.0033,-8.1130,17.5924,42.0778,
0.640903,-0.1641,-0.1289,0.1208,-0.0352,0.0891,-0.0033,-8.1130,17.5924,42.0778,
0.657289,-0.1737,-0.1460,0.2318,-0.0352,0.0891,-0.0033,-8.1130,17.5924,42.0778,
0.678785,-0.1737,-0.1460,0.2318,-0.0352,0.0891,-0.0033,-8.0276,17.4826,42.1266,
0.704536,-0.1737,-0.1460,0.2318,-0.0352,0.0891,-0.0033,-8.0276,17.4826,42.1266,
0.705825,-0.1737,-0.1460,0.2318,-0.0352,0.0891,-0.0033,-8.0276,17.4826,42.1266,
0.706598,-0.1737,-0.1460,0.2318,-0.0352,0.0891,-0.0033,-8.0276,17.4826,42.1266,
0.707530,-0.1737,-0.1460,0.2318,-0.0186,0.0832,0.0555,-8.0276,17.4826,42.1266,
0.727812,-0.3381,0.1009,0.1475,-0.0186,0.0832,0.0555,-8.0276,17.4826,42.1266,
0.737241,-0.3381,0.1009,0.1475,-0.0186,0.0832,0.0555,-8.0276,17.3484,42.1632,
0.772344,-0.3381,0.1009,0.1475,-0.0186,0.0832,0.0555,-8.0276,17.3484,42.1632,
0.775936,-0.3381,0.1009,0.1475,-0.0186,0.0832,0.0555,-8.0276,17.3484,42.1632,
0.777804,-0.3381,0.1009,0.1475,-0.0186,0.0832,0.0555,-8.0276,17.3484,42.1632,
0.779719,-0.3381,0.1009,0.1475,-0.0186,0.0832,0.0555,-8.0276,17.3484,42.1632,
0.781807,-0.3381,0.1009,0.1475,-0.0614,0.0880,0.0393,-8.0276,17.3484,42.1632,
0.796359,-0.3381,0.1009,0.1475,-0.0614,0.0880,0.0393,-8.0886,17.2142,42.1876,
0.797692,-0.2564,0.1113,0.2261,-0.0614,0.0880,0.0393,-8.0886,17.2142,42.1876,
0.838864,-0.2564,0.1113,0.2261,-0.0614,0.0880,0.0393,-8.0886,17.2142,42.1876,
0.842273,-0.2564,0.1113,0.2261,-0.0614,0.0880,0.0393,-8.0886,17.2142,42.1876,
0.844520,-0.2564,0.1113,0.2261,-0.0614,0.0880,0.0393,-8.0886,17.2142,42.1876,
0.849985,-0.2564,0.1113,0.2261,-0.0698,0.1710,0.0310,-8.0886,17.2142,42.1876,
0.858080,-0.2564,0.1113,0.2261,-0.0698,0.1710,0.0310,-8.1618,17.0678,42.2364,
0.867741,0.0383,-0.1450,0.3225,-0.0698,0.1710,0.0310,-8.1618,17.0678,42.2364,
0.904090,0.0383,-0.1450,0.3225,-0.0698,0.1710,0.0310,-8.1618,17.0678,42.2364,
0.906518,0.0383,-0.1450,0.3225,-0.0698,0.1710,0.0310,-8.1618,17.0678,42.2364,
0.908213,0.0383,-0.1450,0.3225,-0.0698,0.1710,0.0310,-8.1618,17.0678,42.2364,
0.915799,0.0383,-0.1450,0.3225,-0.0153,0.2784,-0.0076,-8.1618,17.0678,42.2364,
0.918044,0.0383,-0.1450,0.3225,-0.0153,0.2784,-0.0076,-8.3448,16.9092,42.2608,
0.935880,-0.0266,0.1305,0.0463,-0.0153,0.2784,-0.0076,-8.3448,16.9092,42.2608,
0.973006,-0.0266,0.1305,0.0463,-0.0153,0.2784,-0.0076,-8.3448,16.9092,42.2608,
0.977008,-0.0266,0.1305,0.0463,-0.0153,0.2784,-0.0076,-8.3448,16.9092,42.2608,
0.979364,-0.0266,0.1305,0.0463,-0.0153,0.2784,-0.0076,-8.3448,16.9092,42.2608,
0.980611,-0.0266,0.1305,0.0463,-0.0153,0.2784,-0.0076,-8.3448,16.9092,42.2608,
0.982093,-0.0266,0.1305,0.0463,-0.0153,0.2784,-0.0076,-8.5766,16.7384,42.3218,
0.985191,-0.0266,0.1305,0.0463,-0.0573,0.0832,-0.0173,-8.5766,16.7384,42.3218,
1.007487,-0.7181,0.0734,-0.2362,-0.0573,0.0832,-0.0173,-8.5766,16.7384,42.3218,
1.038523,-0.7181,0.0734,-0.2362,-0.0573,0.0832,-0.0173,-8.8206,16.5432,42.3950,
1.040375,-0.7181,0.0734,-0.2362,-0.0573,0.0832,-0.0173,-8.8206,16.5432,42.3950,
1.041300,-0.7181,0.0734,-0.2362,-0.0573,0.0832,-0.0173,-8.8206,16.5432,42.3950,
1.042197,-0.7181,0.0734,-0.2362,-0.0573,0.0832,-0.0173,-8.8206,16.5432,42.3950,
1.056443,-0.7181,0.0734,-0.2362,-0.0403,-0.0742,-0.1216,-8.8206,16.5432,42.3950,
1.076917,-0.0044,0.0781,-0.4069,-0.0403,-0.0742,-0.1216,-8.8206,16.5432,42.3950,
1.096504,-0.0044,0.0781,-0.4069,-0.0403,-0.0742,-0.1216,-9.0402,16.4212,42.3950,
1.103144,-0.0044,0.0781,-0.4069,-0.0403,-0.0742,-0.1216,-9.0402,16.4212,42.3950,
1.106076,-0.0044,0.0781,-0.4069,-0.0403,-0.0742,-0.1216,-9.0402,16.4212,42.3950,
1.108771,-0.0044,0.0781,-0.4069,-0.0403,-0.0742,-0.1216,-9.0402,16.4212,42.3950,
1.126498,-0.0044,0.0781,-0.4069,-0.0137,0.1992,-0.2083,-9.0402,16.4212,42.3950,
1.149112,1.0354,-0.3194,0.1242,-0.0137,0.1992,-0.2083,-9.0402,16.4212,42.3950,
1.158424,1.0354,-0.3194,0.1242,-0.0137,0.1992,-0.2083,-9.3940,16.2992,42.3462,
1.171822,1.0354,-0.3194,0.1242,-0.0137,0.1992,-0.2083,-9.3940,16.2992,42.3462,
1.175243,1.0354,-0.3194,0.1242,-0.0137,0.1992,-0.2083,-9.3940,16.2992,42.3462,
1.177492,1.0354,-0.3194,0.1242,-0.0137,0.1992,-0.2083,-9.3940,16.2992,42.3462,
1.179687,1.0354,-0.3194,0.1242,-0.0137,0.1992,-0.2083,-9.3940,16.2992,42.3462,
1.196160,1.0354,-0.3194,0.1242,0.1438,0.3329,-0.1948,-9.3940,16.2992,42.3462,
1.216101,1.0354,-0.3194,0.1242,0.1438,0.3329,-0.1948,-9.7844,16.2870,42.2730,
1.217512,-0.0690,0.0811,-0.0809,0.1438,0.3329,-0.1948,-9.7844,16.2870,42.2730,
1.237195,-0.0690,0.0811,-0.0809,0.1438,0.3329,-0.1948,-9.7844,16.2870,42.2730,
1.238846,-0.0690,0.0811,-0.0809,0.1438,0.3329,-0.1948,-9.7844,16.2870,42.2730,
1.240423,-0.0690,0.0811,-0.0809,0.1438,0.3329,-0.1948,-9.7844,16.2870,42.2730,
1.266208,-0.0690,0.0811,-0.0809,0.0158,0.1660,-0.1928,-9.7844,16.2870,42.2730,
1.276330,-0.0690,0.0811,-0.0809,0.0158,0.1660,-0.1928,-10.3212,16.2260,42.1998,
1.285839,0.5261,0.0498,-0.3957,0.0158,0.1660,-0.1928,-10.3212,16.2260,42.1998,
1.304412,0.5261,0.0498,-0.3957,0.0158,0.1660,-0.1928,-10.3212,16.2260,42.1998,
1.307504,0.5261,0.0498,-0.3957,0.0158,0.1660,-0.1928,-10.3212,16.2260,42.1998,
1.309955,0.5261,0.0498,-0.3957,0.0158,0.1660,-0.1928,-10.3212,16.2260,42.1998,
1.312192,0.5261,0.0498,-0.3957,0.0158,0.1660,-0.1928,-10.3212,16.2260,42.1998,
1.334414,0.5261,0.0498,-0.3957,0.0158,0.1660,-0.1928,-10.8580,16.1894,42.0656,
1.336387,0.5261,0.0498,-0.3957,-0.0848,0.2457,-0.1888,-10.8580,16.1894,42.0656,
1.356037,0.5388,-0.1873,-0.0141,-0.0848,0.2457,-0.1888,-10.8580,16.1894,42.0656,
1.371229,0.5388,-0.1873,-0.0141,-0.0848,0.2457,-0.1888,-10.8580,16.1894,42.0656,
1.373640,0.5388,-0.1873,-0.0141,-0.0848,0.2457,-0.1888,-10.8580,16.1894,42.0656,
1.375402,0.5388,-0.1873,-0.0141,-0.0848,0.2457,-0.1888,-10.8580,16.1894,42.0656,
1.394696,0.5388,-0.1873,-0.0141,-0.0848,0.2457,-0.1888,-11.3704,16.1528,41.9802,
1.405346,0.5388,-0.1873,-0.0141,-0.0119,0.1794,-0.1650,-11.3704,16.1528,41.9802,
1.425338,0.2464,0.2324,0.0201,-0.0119,0.1794,-0.1650,-11.3704,16.1528,41.9802,
1.438229,0.2464,0.2324,0.0201,-0.0119,0.1794,-0.1650,-11.3704,16.1528,41.9802,
1.441482,0.2464,0.2324,0.0201,-0.0119,0.1794,-0.1650,-11.3704,16.1528,41.9802,
1.444229,0.2464,0.2324,0.0201,-0.0119,0.1794,-0.1650,-11.3704,16.1528,41.9802,
1.453821,0.2464,0.2324,0.0201,-0.0119,0.1794,-0.1650,-11.8828,16.1040,41.8216,
1.474359,0.2464,0.2324,0.0201,-0.0764,0.1035,-0.0985,-11.8828,16.1040,41.8216,
1.495019,0.2446,0.0869,-0.0876,-0.0764,0.1035,-0.0985,-11.8828,16.1040,41.8216,
1.502946,0.2446,0.0869,-0.0876,-0.0764,0.1035,-0.0985,-11.8828,16.1040,41.8216,
1.503840,0.2446,0.0869,-0.0876,-0.0764,0.1035,-0.0985,-11.8828,16.1040,41.8216,
1.504603,0.2446,0.0869,-0.0876,-0.0764,0.1035,-0.0985,-11.8828,16.1040,41.8216,
1.505408,0.2446,0.0869,-0.0876,-0.0764,0.1035,-0.0985,-11.8828,16.1040,41.8216,
1.514272,0.2446,0.0869,-0.0876,-0.0764,0.1035,-0.0985,-12.4684,16.0674,41.5898,
1.545209,0.2446,0.0869,-0.0876,-0.0294,-0.0153,-0.0372,-12.4684,16.0674,41.5898,
1.565158,0.1704,-0.0673,0.2011,-0.0294,-0.0153,-0.0372,-12.4684,16.0674,41.5898,
1.570967,0.1704,-0.0673,0.2011,-0.0294,-0.0153,-0.0372,-12.4684,16.0674,41.5898,
1.572542,0.1704,-0.0673,0.2011,-0.0294,-0.0153,-0.0372,-12.4684,16.0674,41.5898,
1.574468,0.1704,-0.0673,0.2011,-0.0294,-0.0153,-0.0372,-12.4684,16.0674,41.5898,
1.576581,0.1704,-0.0673,0.2011,-0.0294,-0.0153,-0.0372,-13.0540,16.0186,41.3702,
1.615340,0.1704,-0.0673,0.2011,-0.0427,-0.0411,0.0648,-13.0540,16.0186,41.3702,
1.635082,0.1704,-0.0673,0.2011,-0.0427,-0.0411,0.0648,-13.5176,15.9332,41.3214,
1.640183,0.6245,0.2275,-0.2368,-0.0427,-0.0411,0.0648,-13.5176,15.9332,41.3214,
1.642993,0.6245,0.2275,-0.2368,-0.0427,-0.0411,0.0648,-13.5176,15.9332,41.3214,
1.645328,0.6245,0.2275,-0.2368,-0.0427,-0.0411,0.0648,-13.5176,15.9332,41.3214,
1.647949,0.6245,0.2275,-0.2368,-0.0427,-0.0411,0.0648,-13.5176,15.9332,41.3214,
1.683452,0.6245,0.2275,-0.2368,0.0048,-0.0100,0.1430,-13.5176,15.9332,41.3214,
1.699462,0.6245,0.2275,-0.2368,0.0048,-0.0100,0.1430,-13.8592,15.7746,41.2238,
1.704652,-0.2130,-0.3095,0.0258,0.0048,-0.0100,0.1430,-13.8592,15.7746,41.2238,
1.706126,-0.2130,-0.3095,0.0258,0.0048,-0.0100,0.1430,-13.8592,15.7746,41.2238,
1.707692,-0.2130,-0.3095,0.0258,0.0048,-0.0100,0.1430,-13.8592,15.7746,41.2238,
1.709191,-0.2130,-0.3095,0.0258,0.0048,-0.0100,0.1430,-13.8592,15.7746,41.2238,
1.710418,-0.2130,-0.3095,0.0258,0.0048,-0.0100,0.1430,-13.8592,15.7746,41.2238,
1.755608,-0.2130,-0.3095,0.0258,0.0048,-0.0100,0.1430,-14.0300,15.7258,41.2116,
1.759374,-0.2130,-0.3095,0.0258,0.1173,-0.1912,0.1441,-14.0300,15.7258,41.2116,
1.772747,-0.0427,0.1382,-0.0329,0.1173,-0.1912,0.1441,-14.0300,15.7258,41.2116,
1.775981,-0.0427,0.1382,-0.0329,0.1173,-0.1912,0.1441,-14.0300,15.7258,41.2116,
1.778315,-0.0427,0.1382,-0.0329,0.1173,-0.1912,0.1441,-14.0300,15.7258,41.2116,
1.780530,-0.0427,0.1382,-0.0329,0.1173,-0.1912,0.1441,-14.0300,15.7258,41.2116,
1.815058,-0.0427,0.1382,-0.0329,0.1173,-0.1912,0.1441,-14.0544,15.6770,41.2360,
1.824123,-0.0427,0.1382,-0.0329,0.0715,-0.3025,0.1664,-14.0544,15.6770,41.2360,
1.838693,-0.0427,0.1382,-0.0329,0.0715,-0.3025,0.1664,-14.0544,15.6770,41.2360,
1.841728,-0.0427,0.1382,-0.0329,0.0715,-0.3025,0.1664,-14.0544,15.6770,41.2360,
1.844263,-0.0427,0.1382,-0.0329,0.0715,-0.3025,0.1664,-14.0544,15.6770,41.2360,
1.845482,0.3858,0.0300,0.0420,0.0715,-0.3025,0.1664,-14.0544,15.6770,41.2360,
1.874347,0.3858,0.0300,0.0420,0.0715,-0.3025,0.1664,-13.9202,15.6648,41.2360,
1.893674,0.3858,0.0300,0.0420,0.0036,-0.1562,0.1630,-13.9202,15.6648,41.2360,
1.906543,0.3858,0.0300,0.0420,0.0036,-0.1562,0.1630,-13.9202,15.6648,41.2360,
1.909842,0.3858,0.0300,0.0420,0.0036,-0.1562,0.1630,-13.9202,15.6648,41.2360,
1.912792,0.3858,0.0300,0.0420,0.0036,-0.1562,0.1630,-13.9202,15.6648,41.2360,
1.915204,0.3858,0.0300,0.0420,0.0036,-0.1562,0.1630,-13.9202,15.6648,41.2360,
1.916376,0.3936,0.1975,-0.1741,0.0036,-0.1562,0.1630,-13.9202,15.6648,41.2360,
1.932254,0.3936,0.1975,-0.1741,0.0036,-0.1562,0.1630,-13.6152,15.6892,41.2970,
1.963955,0.3936,0.1975,-0.1741,-0.0843,-0.1369,0.1816,-13.6152,15.6892,41.2970,
1.976559,0.3936,0.1975,-0.1741,-0.0843,-0.1369,0.1816,-13.6152,15.6892,41.2970,
1.978566,0.3936,0.1975,-0.1741,-0.0843,-0.1369,0.1816,-13.6152,15.6892,41.2970,
1.980049,0.3936,0.1975,-0.1741,-0.0843,-0.1369,0.1816,-13.6152,15.6892,41.2970,
1.983501,0.0181,0.0403,-0.1798,-0.0843,-0.1369,0.1816,-13.6152,15.6892,41.2970,
1.993261,0.0181,0.0403,-0.1798,-0.0843,-0.1369,0.1816,-13.2004,15.7502,41.3580,
2.034230,0.0181,0.0403,-0.1798,-0.2153,-0.2365,0.2225,-13.2004,15.7502,41.3580,
2.038148,0.0181,0.0403,-0.1798,-0.2153,-0.2365,0.2225,-13.2004,15.7502,41.3580,
2.041028,0.0181,0.0403,-0.1798,-0.2153,-0.2365,0.2225,-13.2004,15.7502,41.3580,
2.043686,0.0181,0.0403,-0.1798,-0.2153,-0.2365,0.2225,-13.2004,15.7502,41.3580,
2.054572,0.0181,0.0403,-0.1798,-0.2153,-0.2365,0.2225,-12.7368,15.7380,41.5044,
2.056219,-0.1235,0.2863,-0.1156,-0.2153,-0.2365,0.2225,-12.7368,15.7380,41.5044,
2.105357,-0.1235,0.2863,-0.1156,-0.3170,-0.3112,0.2260,-12.7368,15.7380,41.5044,
2.111133,-0.1235,0.2863,-0.1156,-0.3170,-0.3112,0.2260,-12.7368,15.7380,41.5044,
2.114434,-0.1235,0.2863,-0.1156,-0.3170,-0.3112,0.2260,-12.7368,15.7380,41.5044,
2.117018,-0.1235,0.2863,-0.1156,-0.3170,-0.3112,0.2260,-12.7368,15.7380,41.5044,
2.119668,-0.1235,0.2863,-0.1156,-0.3170,-0.3112,0.2260,-12.7368,15.7380,41.5044,
2.121263,-0.1235,0.2863,-0.1156,-0.3170,-0.3112,0.2260,-12.1756,15.6526,41.6386,
2.123297,0.3995,0.2040,0.1743,-0.3170,-0.3112,0.2260,-12.1756,15.6526,41.6386,
2.173348,0.3995,0.2040,0.1743,-0.2177,-0.0964,0.2297,-12.1756,15.6526,41.6386,
2.178615,0.3995,0.2040,0.1743,-0.2177,-0.0964,0.2297,-11.4924,15.4330,41.9314,
2.181942,0.3995,0.2040,0.1743,-0.2177,-0.0964,0.2297,-11.4924,15.4330,41.9314,
2.184712,0.3995,0.2040,0.1743,-0.2177,-0.0964,0.2297,-11.4924,15.4330,41.9314,
2.187322,0.3995,0.2040,0.1743,-0.2177,-0.0964,0.2297,-11.4924,15.4330,41.9314,
2.192695,0.3395,-0.4609,0.4218,-0.2177,-0.0964,0.2297,-11.4924,15.4330,41.9314,
2.233208,0.3395,-0.4609,0.4218,-0.2177,-0.0964,0.2297,-10.8824,15.1158,42.1266,
2.237463,0.3395,-0.4609,0.4218,-0.2177,-0.0964,0.2297,-10.8824,15.1158,42.1266,
2.239818,0.3395,-0.4609,0.4218,-0.2177,-0.0964,0.2297,-10.8824,15.1158,42.1266,
2.241380,0.3395,-0.4609,0.4218,-0.2177,-0.0964,0.2297,-10.8824,15.1158,42.1266,
2.242918,0.3395,-0.4609,0.4218,-0.1999,0.1069,0.2790,-10.8824,15.1158,42.1266,
2.260968,0.0549,0.6889,0.0440,-0.1999,0.1069,0.2790,-10.8824,15.1158,42.1266,
2.292623,0.0549,0.6889,0.0440,-0.1999,0.1069,0.2790,-10.3578,14.7498,42.3340,
2.305737,0.0549,0.6889,0.0440,-0.1999,0.1069,0.2790,-10.3578,14.7498,42.3340,
2.308491,0.0549,0.6889,0.0440,-0.1999,0.1069,0.2790,-10.3578,14.7498,42.3340,
2.310817,0.0549,0.6889,0.0440,-0.1999,0.1069,0.2790,-10.3578,14.7498,42.3340,
2.312642,0.0549,0.6889,0.0440,-0.1999,0.1069,0.2790,-10.3578,14.7498,42.3340,
2.313961,0.0549,0.6889,0.0440,-0.5091,-0.0234,0.2884,-10.3578,14.7498,42.3340,
2.332300,-0.2057,0.9285,-0.3447,-0.5091,-0.0234,0.2884,-10.3578,14.7498,42.3340,
2.352088,-0.2057,0.9285,-0.3447,-0.5091,-0.0234,0.2884,-9.8820,14.1398,42.6146,
2.372595,-0.2057,0.9285,-0.3447,-0.5091,-0.0234,0.2884,-9.8820,14.1398,42.6146,
2.375517,-0.2057,0.9285,-0.3447,-0.5091,-0.0234,0.2884,-9.8820,14.1398,42.6146,
2.378545,-0.2057,0.9285,-0.3447,-0.5091,-0.0234,0.2884,-9.8820,14.1398,42.6146,
2.382154,-0.2057,0.9285,-0.3447,-0.8349,-0.1459,0.2517,-9.8820,14.1398,42.6146,
2.402184,0.6422,1.0376,-0.4269,-0.8349,-0.1459,0.2517,-9.8820,14.1398,42.6146,
2.412478,0.6422,1.0376,-0.4269,-0.8349,-0.1459,0.2517,-9.4794,13.2980,42.9074,
2.439221,0.6422,1.0376,-0.4269,-0.8349,-0.1459,0.2517,-9.4794,13.2980,42.9074,
2.442386,0.6422,1.0376,-0.4269,-0.8349,-0.1459,0.2517,-9.4794,13.2980,42.9074,
2.445658,0.6422,1.0376,-0.4269,-0.8349,-0.1459,0.2517,-9.4794,13.2980,42.9074,
2.452028,0.6422,1.0376,-0.4269,-0.7177,-0.0788,0.2683,-9.4794,13.2980,42.9074,
2.470593,0.6422,1.0376,-0.4269,-0.7177,-0.0788,0.2683,-9.0646,12.1512,43.3222,
2.473108,1.0901,1.7317,0.3126,-0.7177,-0.0788,0.2683,-9.0646,12.1512,43.3222,
2.506111,1.0901,1.7317,0.3126,-0.7177,-0.0788,0.2683,-9.0646,12.1512,43.3222,
2.509587,1.0901,1.7317,0.3126,-0.7177,-0.0788,0.2683,-9.0646,12.1512,43.3222,
2.512489,1.0901,1.7317,0.3126,-0.7177,-0.0788,0.2683,-9.0646,12.1512,43.3222,
2.515164,1.0901,1.7317,0.3126,-0.7177,-0.0788,0.2683,-9.0646,12.1512,43.3222,
2.523220,1.0901,1.7317,0.3126,-0.7674,0.2892,0.1551,-9.0646,12.1512,43.3222,
2.532703,1.0901,1.7317,0.3126,-0.7674,0.2892,0.1551,-8.8206,10.8336,43.7004,
2.540625,1.4005,1.3401,0.9964,-0.7674,0.2892,0.1551,-8.8206,10.8336,43.7004,
2.572530,1.4005,1.3401,0.9964,-0.7674,0.2892,0.1551,-8.8206,10.8336,43.7004,
2.574679,1.4005,1.3401,0.9964,-0.7674,0.2892,0.1551,-8.8206,10.8336,43.7004,
2.577157,1.4005,1.3401,0.9964,-0.7674,0.2892,0.1551,-8.8206,10.8336,43.7004,
2.592061,1.4005,1.3401,0.9964,-0.7674,0.2892,0.1551,-8.8328,9.4672,43.8956,
2.595395,1.4005,1.3401,0.9964,-0.7433,0.2401,0.0960,-8.8328,9.4672,43.8956,
2.611894,-0.3869,-0.5423,0.8332,-0.7433,0.2401,0.0960,-8.8328,9.4672,43.8956,
2.640053,-0.3869,-0.5423,0.8332,-0.7433,0.2401,0.0960,-8.8328,9.4672,43.8956,
2.642423,-0.3869,-0.5423,0.8332,-0.7433,0.2401,0.0960,-8.8328,9.4672,43.8956,
2.644771,-0.3869,-0.5423,0.8332,-0.7433,0.2401,0.0960,-8.8328,9.4672,43.8956,
2.652989,-0.3869,-0.5423,0.8332,-0.7433,0.2401,0.0960,-9.0646,7.9422,44.0420,
2.660667,-0.3869,-0.5423,0.8332,-0.7461,-0.1220,0.1430,-9.0646,7.9422,44.0420,
2.681076,0.2525,-0.4839,-0.2098,-0.7461,-0.1220,0.1430,-9.0646,7.9422,44.0420,
2.705274,0.2525,-0.4839,-0.2098,-0.7461,-0.1220,0.1430,-9.0646,7.9422,44.0420,
2.708548,0.2525,-0.4839,-0.2098,-0.7461,-0.1220,0.1430,-9.0646,7.9422,44.0420,
2.711989,0.2525,-0.4839,-0.2098,-0.7461,-0.1220,0.1430,-9.0646,7.9422,44.0420,
2.715375,0.2525,-0.4839,-0.2098,-0.7461,-0.1220,0.1430,-9.0646,7.9422,44.0420,
2.717887,0.2525,-0.4839,-0.2098,-0.7461,-0.1220,0.1430,-9.2232,6.1610,44.2738,
2.730544,0.2525,-0.4839,-0.2098,-0.7934,-0.4630,0.5169,-9.2232,6.1610,44.2738,
2.749865,0.5965,0.2993,0.0735,-0.7934,-0.4630,0.5169,-9.2232,6.1610,44.2738,
2.770056,0.5965,0.2993,0.0735,-0.7934,-0.4630,0.5169,-9.2720,4.2334,44.5056,
2.773819,0.5965,0.2993,0.0735,-0.7934,-0.4630,0.5169,-9.2720,4.2334,44.5056,
2.775928,0.5965,0.2993,0.0735,-0.7934,-0.4630,0.5169,-9.2720,4.2334,44.5056,
2.777952,0.5965,0.2993,0.0735,-0.7934,-0.4630,0.5169,-9.2720,4.2334,44.5056,
2.799315,0.5965,0.2993,0.0735,-0.9041,-0.3200,0.8864,-9.2720,4.2334,44.5056,
2.820673,2.1492,1.8655,1.8569,-0.9041,-0.3200,0.8864,-9.2720,4.2334,44.5056,
2.831378,2.1492,1.8655,1.8569,-0.9041,-0.3200,0.8864,-9.3696,2.2082,44.6276,
2.837611,2.1492,1.8655,1.8569,-0.9041,-0.3200,0.8864,-9.3696,2.2082,44.6276,
2.839869,2.1492,1.8655,1.8569,-0.9041,-0.3200,0.8864,-9.3696,2.2082,44.6276,
2.841190,2.1492,1.8655,1.8569,-0.9041,-0.3200,0.8864,-9.3696,2.2082,44.6276,
2.869170,2.1492,1.8655,1.8569,-0.9458,0.1088,1.4842,-9.3696,2.2082,44.6276,
2.887742,2.1492,1.8655,1.8569,-0.9458,0.1088,1.4842,-9.7478,0.2440,44.6764,
2.890306,-0.1502,2.4303,2.9946,-0.9458,0.1088,1.4842,-9.7478,0.2440,44.6764,
2.904745,-0.1502,2.4303,2.9946,-0.9458,0.1088,1.4842,-9.7478,0.2440,44.6764,
2.906561,-0.1502,2.4303,2.9946,-0.9458,0.1088,1.4842,-9.7478,0.2440,44.6764,
2.908204,-0.1502,2.4303,2.9946,-0.9458,0.1088,1.4842,-9.7478,0.2440,44.6764,
2.909698,-0.1502,2.4303,2.9946,-0.9458,0.1088,1.4842,-9.7478,0.2440,44.6764,
2.941099,-0.1502,2.4303,2.9946,-1.3153,-0.1313,2.4139,-9.7478,0.2440,44.6764,
2.950144,-0.1502,2.4303,2.9946,-1.3153,-0.1313,2.4139,-10.3822,-1.5860,44.5178,
2.960862,0.9672,1.4778,4.8081,-1.3153,-0.1313,2.4139,-10.3822,-1.5860,44.5178,
2.970456,0.9672,1.4778,4.8081,-1.3153,-0.1313,2.4139,-10.3822,-1.5860,44.5178,
2.972172,0.9672,1.4778,4.8081,-1.3153,-0.1313,2.4139,-10.3822,-1.5860,44.5178,
2.973713,0.9672,1.4778,4.8081,-1.3153,-0.1313,2.4139,-10.3822,-1.5860,44.5178,
3.010266,0.9672,1.4778,4.8081,-1.3153,-0.1313,2.4139,-11.0776,-3.1354,44.3470,
3.015011,0.9672,1.4778,4.8081,-0.7714,-1.3918,3.5155,-11.0776,-3.1354,44.3470,
3.031353,-4.1955,-1.5312,1.2082,-0.7714,-1.3918,3.5155,-11.0776,-3.1354,44.3470,
3.036860,-4.1955,-1.5312,1.2082,-0.7714,-1.3918,3.5155,-11.0776,-3.1354,44.3470,
3.038846,-4.1955,-1.5312,1.2082,-0.7714,-1.3918,3.5155,-11.0776,-3.1354,44.3470,
3.040901,-4.1955,-1.5312,1.2082,-0.7714,-1.3918,3.5155,-11.0776,-3.1354,44.3470,
3.070013,-4.1955,-1.5312,1.2082,-0.7714,-1.3918,3.5155,-10.9800,-4.1358,44.4202,
3.079612,-4.1955,-1.5312,1.2082,0.5980,-4.5520,2.7645,-10.9800,-4.1358,44.4202,
3.098671,-2.8733,-3.5138,-7.5279,0.5980,-4.5520,2.7645,-10.9800,-4.1358,44.4202,
3.103143,-2.8733,-3.5138,-7.5279,0.5980,-4.5520,2.7645,-10.9800,-4.1358,44.4202,
3.104031,-2.8733,-3.5138,-7.5279,0.5980,-4.5520,2.7645,-10.9800,-4.1358,44.4202,
3.104744,-2.8733,-3.5138,-7.5279,0.5980,-4.5520,2.7645,-10.9800,-4.1358,44.4202,
3.105481,-2.8733,-3.5138,-7.5279,0.5980,-4.5520,2.7645,-10.9800,-4.1358,44.4202,
3.130701,-2.8733,-3.5138,-7.5279,0.5980,-4.5520,2.7645,-9.3086,-4.6238,44.6032,
3.149806,-2.8733,-3.5138,-7.5279,1.4674,-4.0674,5.2729,-9.3086,-4.6238,44.6032,
3.169420,-24.4316,-8.3092,-7.3379,1.4674,-4.0674,5.2729,-9.3086,-4.6238,44.6032,
3.173798,-24.4316,-8.3092,-7.3379,1.4674,-4.0674,5.2729,-9.3086,-4.6238,44.6032,
3.176640,-24.4316,-8.3092,-7.3379,1.4674,-4.0674,5.2729,-9.3086,-4.6238,44.6032,
3.179282,-24.4316,-8.3092,-7.3379,1.4674,-4.0674,5.2729,-9.3086,-4.6238,44.6032,
3.196086,-24.4316,-8.3092,-7.3379,1.4674,-4.0674,5.2729,-7.3322,-4.6970,44.6398,
3.217861,-24.4316,-8.3092,-7.3379,0.5706,2.1100,1.0388,-7.3322,-4.6970,44.6398,
3.237515,6.2034,-0.3274,4.1563,0.5706,2.1100,1.0388,-7.3322,-4.6970,44.6398,
3.239112,6.2034,-0.3274,4.1563,0.5706,2.1100,1.0388,-7.3322,-4.6970,44.6398,
3.240235,6.2034,-0.3274,4.1563,0.5706,2.1100,1.0388,-7.3322,-4.6970,44.6398,
3.241267,6.2034,-0.3274,4.1563,0.5706,2.1100,1.0388,-7.3322,-4.6970,44.6398,
3.242280,6.2034,-0.3274,4.1563,0.5706,2.1100,1.0388,-7.3322,-4.6970,44.6398,
3.247890,6.2034,-0.3274,4.1563,0.5706,2.1100,1.0388,-6.1366,-4.7580,44.6642,
3.288922,6.2034,-0.3274,4.1563,0.2894,0.4899,0.3989,-6.1366,-4.7580,44.6642,
3.305481,6.2034,-0.3274,4.1563,0.2894,0.4899,0.3989,-6.1366,-4.7580,44.6642,
3.307600,6.2034,-0.3274,4.1563,0.2894,0.4899,0.3989,-6.1366,-4.7580,44.6642,
3.308475,6.2034,-0.3274,4.1563,0.2894,0.4899,0.3989,-6.1366,-4.7580,44.6642,
3.309338,6.2034,-0.3274,4.1563,0.2894,0.4899,0.3989,-5.1118,-4.5506,44.6154,
3.310576,8.2131,3.5838,-0.5129,0.2894,0.4899,0.3989,-5.1118,-4.5506,44.6154,
3.357733,8.2131,3.5838,-0.5129,-0.4091,-1.0731,1.4018,-5.1118,-4.5506,44.6154,
3.371676,8.2131,3.5838,-0.5129,-0.4091,-1.0731,1.4018,-3.9772,-4.3554,44.5422,
3.373149,8.2131,3.5838,-0.5129,-0.4091,-1.0731,1.4018,-3.9772,-4.3554,44.5422,
3.374138,8.2131,3.5838,-0.5129,-0.4091,-1.0731,1.4018,-3.9772,-4.3554,44.5422,
3.375135,8.2131,3.5838,-0.5129,-0.4091,-1.0731,1.4018,-3.9772,-4.3554,44.5422,
3.378763,-4.9303,6.8241,1.8383,-0.4091,-1.0731,1.4018,-3.9772,-4.3554,44.5422,
3.419902,-4.9303,6.8241,1.8383,-0.4091,-1.0731,1.4018,-3.9772,-4.3554,44.5422,
3.422728,-4.9303,6.8241,1.8383,-0.4091,-1.0731,1.4018,-3.9772,-4.3554,44.5422,
3.424415,-4.9303,6.8241,1.8383,-0.4091,-1.0731,1.4018,-3.9772,-4.3554,44.5422,
3.428310,-4.9303,6.8241,1.8383,-0.4091,-1.0731,1.4018,-2.3668,-3.9162,44.5788,
3.430715,-4.9303,6.8241,1.8383,0.9980,-0.2517,-0.4675,-2.3668,-3.9162,44.5788,
3.438605,-4.9303,6.8241,1.8383,0.9980,-0.2517,-0.4675,-2.3668,-3.9162,44.5788,
3.447042,1.4311,4.3043,1.9959,0.9980,-0.2517,-0.4675,-2.3668,-3.9162,44.5788,
3.489299,1.4311,4.3043,1.9959,0.9980,-0.2517,-0.4675,-0.5124,-3.3672,44.5422,
3.499759,1.4311,4.3043,1.9959,0.1559,0.3265,0.0096,-0.5124,-3.3672,44.5422,
3.504002,1.4311,4.3043,1.9959,0.1559,0.3265,0.0096,-0.5124,-3.3672,44.5422,
3.505790,1.4311,4.3043,1.9959,0.1559,0.3265,0.0096,-0.5124,-3.3672,44.5422,
3.507737,1.4311,4.3043,1.9959,0.1559,0.3265,0.0096,-0.5124,-3.3672,44.5422,
3.517074,4.0187,1.0684,1.3749,0.1559,0.3265,0.0096,-0.5124,-3.3672,44.5422,
3.548813,4.0187,1.0684,1.3749,0.1559,0.3265,0.0096,0.4514,-3.1598,44.3958,
3.568869,4.0187,1.0684,1.3749,0.0137,0.0502,0.3672,0.4514,-3.1598,44.3958,
3.572415,4.0187,1.0684,1.3749,0.0137,0.0502,0.3672,0.4514,-3.1598,44.3958,
3.574180,4.0187,1.0684,1.3749,0.0137,0.0502,0.3672,0.4514,-3.1598,44.3958,
3.576291,4.0187,1.0684,1.3749,0.0137,0.0502,0.3672,0.4514,-3.1598,44.3958,
3.588052,-1.6957,3.7879,-0.8345,0.0137,0.0502,0.3672,0.4514,-3.1598,44.3958,
3.618305,-1.6957,3.7879,-0.8345,0.0137,0.0502,0.3672,-0.0488,-3.2452,44.0542,
3.638102,-1.6957,3.7879,-0.8345,0.2071,-0.1948,0.0567,-0.0488,-3.2452,44.0542,
3.641572,-1.6957,3.7879,-0.8345,0.2071,-0.1948,0.0567,-0.0488,-3.2452,44.0542,
3.643992,-1.6957,3.7879,-0.8345,0.2071,-0.1948,0.0567,-0.0488,-3.2452,44.0542,
3.646127,-1.6957,3.7879,-0.8345,0.2071,-0.1948,0.0567,-0.0488,-3.2452,44.0542,
3.648571,-1.6957,3.7879,-0.8345,0.2071,-0.1948,0.0567,-0.0488,-3.2452,44.0542,
3.657191,1.6230,1.3932,1.1993,0.2071,-0.1948,0.0567,-0.0488,-3.2452,44.0542,
3.676063,1.6230,1.3932,1.1993,0.2071,-0.1948,0.0567,-0.8174,-3.3550,43.7858,
3.705818,1.6230,1.3932,1.1993,0.1081,0.0629,-0.2800,-0.8174,-3.3550,43.7858,
3.709302,1.6230,1.3932,1.1993,0.1081,0.0629,-0.2800,-0.8174,-3.3550,43.7858,
3.711660,1.6230,1.3932,1.1993,0.1081,0.0629,-0.2800,-0.8174,-3.3550,43.7858,
3.715176,1.6230,1.3932,1.1993,0.1081,0.0629,-0.2800,-0.8174,-3.3550,43.7858,
3.726600,1.2624,0.4817,-0.1283,0.1081,0.0629,-0.2800,-0.8174,-3.3550,43.7858,
3.737441,1.2624,0.4817,-0.1283,0.1081,0.0629,-0.2800,-0.8906,-3.2086,43.5540,
3.772814,1.2624,0.4817,-0.1283,0.1081,0.0629,-0.2800,-0.8906,-3.2086,43.5540,
3.776042,1.2624,0.4817,-0.1283,0.1081,0.0629,-0.2800,-0.8906,-3.2086,43.5540,
3.778191,1.2624,0.4817,-0.1283,0.1081,0.0629,-0.2800,-0.8906,-3.2086,43.5540,
3.780503,1.2624,0.4817,-0.1283,0.0234,-0.0368,-0.2431,-0.8906,-3.2086,43.5540,
3.797064,1.2624,0.4817,-0.1283,0.0234,-0.0368,-0.2431,-0.8418,-3.0012,43.4320,
3.799274,-0.5331,-0.4445,-0.7833,0.0234,-0.0368,-0.2431,-0.8418,-3.0012,43.4320,
3.839554,-0.5331,-0.4445,-0.7833,0.0234,-0.0368,-0.2431,-0.8418,-3.0012,43.4320,
3.842681,-0.5331,-0.4445,-0.7833,0.0234,-0.0368,-0.2431,-0.8418,-3.0012,43.4320,
3.845264,-0.5331,-0.4445,-0.7833,0.0234,-0.0368,-0.2431,-0.8418,-3.0012,43.4320,
3.847854,-0.5331,-0.4445,-0.7833,0.0234,-0.0368,-0.2431,-0.8418,-3.0012,43.4320,
3.850300,-0.5331,-0.4445,-0.7833,-0.0305,-0.0364,-0.0798,-0.8418,-3.0012,43.4320,
3.860546,-0.5331,-0.4445,-0.7833,-0.0305,-0.0364,-0.0798,-0.5612,-2.5864,43.4564,
3.866555,0.4197,-0.3153,-0.1904,-0.0305,-0.0364,-0.0798,-0.5612,-2.5864,43.4564,
3.906433,0.4197,-0.3153,-0.1904,-0.0305,-0.0364,-0.0798,-0.5612,-2.5864,43.4564,
3.910621,0.4197,-0.3153,-0.1904,-0.0305,-0.0364,-0.0798,-0.5612,-2.5864,43.4564,
3.913797,0.4197,-0.3153,-0.1904,-0.0305,-0.0364,-0.0798,-0.5612,-2.5864,43.4564,
3.916827,0.4197,-0.3153,-0.1904,-0.0305,-0.0364,-0.0798,-0.6100,-2.3058,43.4808,
3.919814,0.4197,-0.3153,-0.1904,-0.1226,0.0061,-0.0301,-0.6100,-2.3058,43.4808,
3.936360,0.6097,-1.2433,0.3006,-0.1226,0.0061,-0.0301,-0.6100,-2.3058,43.4808,
3.972270,0.6097,-1.2433,0.3006,-0.1226,0.0061,-0.0301,-0.6100,-2.3058,43.4808,
3.975927,0.6097,-1.2433,0.3006,-0.1226,0.0061,-0.0301,-0.6100,-2.3058,43.4808,
3.978531,0.6097,-1.2433,0.3006,-0.1226,0.0061,-0.0301,-0.6100,-2.3058,43.4808,
3.980427,0.6097,-1.2433,0.3006,-0.1226,0.0061,-0.0301,-0.7564,-2.0984,43.4808,
3.985992,0.6097,-1.2433,0.3006,0.1438,0.2510,-0.0775,-0.7564,-2.0984,43.4808,
4.005391,0.4807,-0.5301,0.1219,0.1438,0.2510,-0.0775,-0.7564,-2.0984,43.4808,
4.035298,0.4807,-0.5301,0.1219,0.1438,0.2510,-0.0775,-0.7442,-1.8788,43.5052,
4.038789,0.4807,-0.5301,0.1219,0.1438,0.2510,-0.0775,-0.7442,-1.8788,43.5052,
4.040980,0.4807,-0.5301,0.1219,0.1438,0.2510,-0.0775,-0.7442,-1.8788,43.5052,
4.043547,0.4807,-0.5301,0.1219,0.1438,0.2510,-0.0775,-0.7442,-1.8788,43.5052,
4.045659,0.4807,-0.5301,0.1219,0.1438,0.2510,-0.0775,-0.7442,-1.8788,43.5052,
4.055008,0.4807,-0.5301,0.1219,0.1719,0.3072,-0.0800,-0.7442,-1.8788,43.5052,
4.075400,0.2160,0.6217,-0.1700,0.1719,0.3072,-0.0800,-0.7442,-1.8788,43.5052,
4.095004,0.2160,0.6217,-0.1700,0.1719,0.3072,-0.0800,-0.8662,-1.5860,43.5296,
4.104162,0.2160,0.6217,-0.1700,0.1719,0.3072,-0.0800,-0.8662,-1.5860,43.5296,
4.106857,0.2160,0.6217,-0.1700,0.1719,0.3072,-0.0800,-0.8662,-1.5860,43.5296,
4.109231,0.2160,0.6217,-0.1700,0.1719,0.3072,-0.0800,-0.8662,-1.5860,43.5296,
4.124805,0.2160,0.6217,-0.1700,-0.0403,0.3858,-0.2911,-0.8662,-1.5860,43.5296,
4.147249,0.4238,0.3328,-0.4896,-0.0403,0.3858,-0.2911,-0.8662,-1.5860,43.5296,
4.154653,0.4238,0.3328,-0.4896,-0.0403,0.3858,-0.2911,-1.1956,-1.3908,43.5906,
4.171192,0.4238,0.3328,-0.4896,-0.0403,0.3858,-0.2911,-1.1956,-1.3908,43.5906,
4.174665,0.4238,0.3328,-0.4896,-0.0403,0.3858,-0.2911,-1.1956,-1.3908,43.5906,
4.177546,0.4238,0.3328,-0.4896,-0.0403,0.3858,-0.2911,-1.1956,-1.3908,43.5906,
4.194370,0.4238,0.3328,-0.4896,-0.1882,0.0988,-0.4282,-1.1956,-1.3908,43.5906,
4.214823,0.4238,0.3328,-0.4896,-0.1882,0.0988,-0.4282,-1.5738,-1.3176,43.6150,
4.218542,-0.5183,0.4457,-0.4873,-0.1882,0.0988,-0.4282,-1.5738,-1.3176,43.6150,
4.237837,-0.5183,0.4457,-0.4873,-0.1882,0.0988,-0.4282,-1.5738,-1.3176,43.6150,
4.240945,-0.5183,0.4457,-0.4873,-0.1882,0.0988,-0.4282,-1.5738,-1.3176,43.6150,
4.244223,-0.5183,0.4457,-0.4873,-0.1882,0.0988,-0.4282,-1.5738,-1.3176,43.6150,
4.246668,-0.5183,0.4457,-0.4873,-0.1882,0.0988,-0.4282,-1.5738,-1.3176,43.6150,
4.265718,-0.5183,0.4457,-0.4873,-0.2692,0.1662,-0.5285,-1.5738,-1.3176,43.6150,
4.275956,-0.5183,0.4457,-0.4873,-0.2692,0.1662,-0.5285,-1.9764,-1.2932,43.6394,
4.285552,0.3232,0.4802,-0.5299,-0.2692,0.1662,-0.5285,-1.9764,-1.2932,43.6394,
4.305440,0.3232,0.4802,-0.5299,-0.2692,0.1662,-0.5285,-1.9764,-1.2932,43.6394,
4.308711,0.3232,0.4802,-0.5299,-0.2692,0.1662,-0.5285,-1.9764,-1.2932,43.6394,
4.310814,0.3232,0.4802,-0.5299,-0.2692,0.1662,-0.5285,-1.9764,-1.2932,43.6394,
4.335718,0.3232,0.4802,-0.5299,-0.2692,0.1662,-0.5285,-2.4522,-1.4030,43.5418,
4.339325,0.3232,0.4802,-0.5299,-0.3542,-0.0469,-0.7057,-2.4522,-1.4030,43.5418,
4.355523,-0.8083,-0.1106,-0.9539,-0.3542,-0.0469,-0.7057,-2.4522,-1.4030,43.5418,
4.370626,-0.8083,-0.1106,-0.9539,-0.3542,-0.0469,-0.7057,-2.4522,-1.4030,43.5418,
4.372889,-0.8083,-0.1106,-0.9539,-0.3542,-0.0469,-0.7057,-2.4522,-1.4030,43.5418,
4.374577,-0.8083,-0.1106,-0.9539,-0.3542,-0.0469,-0.7057,-2.4522,-1.4030,43.5418,
4.395854,-0.8083,-0.1106,-0.9539,-0.3542,-0.0469,-0.7057,-2.8060,-1.5616,43.4442,
4.404786,-0.8083,-0.1106,-0.9539,-0.4766,-0.4591,-0.9141,-2.8060,-1.5616,43.4442,
4.424004,0.1501,0.0993,-0.4687,-0.4766,-0.4591,-0.9141,-2.8060,-1.5616,43.4442,
4.438825,0.1501,0.0993,-0.4687,-0.4766,-0.4591,-0.9141,-2.8060,-1.5616,43.4442,
4.442388,0.1501,0.0993,-0.4687,-0.4766,-0.4591,-0.9141,-2.8060,-1.5616,43.4442,
4.445554,0.1501,0.0993,-0.4687,-0.4766,-0.4591,-0.9141,-2.8060,-1.5616,43.4442,
4.448351,0.1501,0.0993,-0.4687,-0.4766,-0.4591,-0.9141,-2.8060,-1.5616,43.4442,
4.454990,0.1501,0.0993,-0.4687,-0.4766,-0.4591,-0.9141,-2.8670,-1.9398,43.4442,
4.473817,0.1501,0.0993,-0.4687,-0.6899,-0.6712,-1.0227,-2.8670,-1.9398,43.4442,
4.495500,-0.2886,0.4370,-0.0363,-0.6899,-0.6712,-1.0227,-2.8670,-1.9398,43.4442,
4.504446,-0.2886,0.4370,-0.0363,-0.6899,-0.6712,-1.0227,-2.8670,-1.9398,43.4442,
4.507916,-0.2886,0.4370,-0.0363,-0.6899,-0.6712,-1.0227,-2.8670,-1.9398,43.4442,
4.509577,-0.2886,0.4370,-0.0363,-0.6899,-0.6712,-1.0227,-2.8670,-1.9398,43.4442,
4.513281,-0.2886,0.4370,-0.0363,-0.6899,-0.6712,-1.0227,-2.5742,-2.5742,43.3954,
4.544847,-0.2886,0.4370,-0.0363,-0.7238,-0.7693,-1.1016,-2.5742,-2.5742,43.3954,
4.564603,0.3507,0.3853,0.0255,-0.7238,-0.7693,-1.1016,-2.5742,-2.5742,43.3954,
4.571846,0.3507,0.3853,0.0255,-0.7238,-0.7693,-1.1016,-2.5742,-2.5742,43.3954,
4.575941,0.3507,0.3853,0.0255,-0.7238,-0.7693,-1.1016,-2.5742,-2.5742,43.3954,
4.579355,0.3507,0.3853,0.0255,-0.7238,-0.7693,-1.1016,-2.5742,-2.5742,43.3954,
4.580974,0.3507,0.3853,0.0255,-0.7238,-0.7693,-1.1016,-1.7568,-3.4404,43.3344,
4.615211,0.3507,0.3853,0.0255,-0.4898,-0.6246,-1.0884,-1.7568,-3.4404,43.3344,
4.633128,0.3507,0.3853,0.0255,-0.4898,-0.6246,-1.0884,-0.5124,-4.4530,43.2368,
4.637177,0.7586,0.3393,0.0192,-0.4898,-0.6246,-1.0884,-0.5124,-4.4530,43.2368,
4.640458,0.7586,0.3393,0.0192,-0.4898,-0.6246,-1.0884,-0.5124,-4.4530,43.2368,
4.643072,0.7586,0.3393,0.0192,-0.4898,-0.6246,-1.0884,-0.5124,-4.4530,43.2368,
4.645530,0.7586,0.3393,0.0192,-0.4898,-0.6246,-1.0884,-0.5124,-4.4530,43.2368,
4.648034,0.7586,0.3393,0.0192,-0.4898,-0.6246,-1.0884,-0.5124,-4.4530,43.2368,
4.684150,0.7586,0.3393,0.0192,-0.3711,-0.5117,-0.8798,-0.5124,-4.4530,43.2368,
4.693745,0.7586,0.3393,0.0192,-0.3711,-0.5117,-0.8798,1.0004,-5.4046,43.1026,
4.703445,0.6294,-0.3126,-0.0516,-0.3711,-0.5117,-0.8798,1.0004,-5.4046,43.1026,
4.705860,0.6294,-0.3126,-0.0516,-0.3711,-0.5117,-0.8798,1.0004,-5.4046,43.1026,
4.707486,0.6294,-0.3126,-0.0516,-0.3711,-0.5117,-0.8798,1.0004,-5.4046,43.1026,
4.709012,0.6294,-0.3126,-0.0516,-0.3711,-0.5117,-0.8798,1.0004,-5.4046,43.1026,
4.754740,0.6294,-0.3126,-0.0516,-0.3711,-0.5117,-0.8798,2.8426,-6.3806,42.9196,
4.759364,0.6294,-0.3126,-0.0516,-0.3336,-0.4735,-0.6908,2.8426,-6.3806,42.9196,
4.772678,0.6294,-0.3126,-0.0516,-0.3336,-0.4735,-0.6908,2.8426,-6.3806,42.9196,
4.777595,0.6294,-0.3126,-0.0516,-0.3336,-0.4735,-0.6908,2.8426,-6.3806,42.9196,
4.780704,0.6294,-0.3126,-0.0516,-0.3336,-0.4735,-0.6908,2.8426,-6.3806,42.9196,
4.783521,0.6294,-0.3126,-0.0516,-0.3336,-0.4735,-0.6908,2.8426,-6.3806,42.9196,
4.785104,0.6327,-0.7300,-0.5116,-0.3336,-0.4735,-0.6908,2.8426,-6.3806,42.9196,
4.814199,0.6327,-0.7300,-0.5116,-0.3336,-0.4735,-0.6908,4.9044,-7.2102,42.7366,
4.823940,0.6327,-0.7300,-0.5116,-0.2139,-0.4172,-0.5445,4.9044,-7.2102,42.7366,
4.838681,0.6327,-0.7300,-0.5116,-0.2139,-0.4172,-0.5445,4.9044,-7.2102,42.7366,
4.842432,0.6327,-0.7300,-0.5116,-0.2139,-0.4172,-0.5445,4.9044,-7.2102,42.7366,
4.845769,0.6327,-0.7300,-0.5116,-0.2139,-0.4172,-0.5445,4.9044,-7.2102,42.7366,
4.848810,0.4822,-0.3408,0.1067,-0.2139,-0.4172,-0.5445,4.9044,-7.2102,42.7366,
4.873478,0.4822,-0.3408,0.1067,-0.2139,-0.4172,-0.5445,7.0028,-7.9544,42.4560,
4.893488,0.4822,-0.3408,0.1067,-0.1816,-0.1870,-0.5076,7.0028,-7.9544,42.4560,
4.905213,0.4822,-0.3408,0.1067,-0.1816,-0.1870,-0.5076,7.0028,-7.9544,42.4560,
4.909114,0.4822,-0.3408,0.1067,-0.1816,-0.1870,-0.5076,7.0028,-7.9544,42.4560,
4.912403,0.4822,-0.3408,0.1067,-0.1816,-0.1870,-0.5076,7.0028,-7.9544,42.4560,
4.915249,0.1914,-0.3391,0.4391,-0.1816,-0.1870,-0.5076,7.0028,-7.9544,42.4560,
4.931933,0.1914,-0.3391,0.4391,-0.1816,-0.1870,-0.5076,8.9548,-8.5156,42.1632,
4.961653,0.1914,-0.3391,0.4391,-0.1033,-0.0752,-0.5856,8.9548,-8.5156,42.1632,
4.970759,0.1914,-0.3391,0.4391,-0.1033,-0.0752,-0.5856,8.9548,-8.5156,42.1632,
4.973077,0.1914,-0.3391,0.4391,-0.1033,-0.0752,-0.5856,8.9548,-8.5156,42.1632,
4.975287,0.1914,-0.3391,0.4391,-0.1033,-0.0752,-0.5856,8.9548,-8.5156,42.1632,
4.977209,0.1914,-0.3391,0.4391,-0.1033,-0.0752,-0.5856,8.9548,-8.5156,42.1632,
4.982821,0.2684,-0.1349,0.3932,-0.1033,-0.0752,-0.5856,8.9548,-8.5156,42.1632,
4.992858,0.2684,-0.1349,0.3932,-0.1033,-0.0752,-0.5856,10.6628,-8.8694,41.8826,
5.033467,0.2684,-0.1349,0.3932,-0.1415,-0.0052,-0.5569,10.6628,-8.8694,41.8826,
5.037694,0.2684,-0.1349,0.3932,-0.1415,-0.0052,-0.5569,10.6628,-8.8694,41.8826,
5.040594,0.2684,-0.1349,0.3932,-0.1415,-0.0052,-0.5569,10.6628,-8.8694,41.8826,
5.043590,0.2684,-0.1349,0.3932,-0.1415,-0.0052,-0.5569,10.6628,-8.8694,41.8826,
5.054314,-0.0268,0.1926,0.0685,-0.1415,-0.0052,-0.5569,10.6628,-8.8694,41.8826,
5.056478,-0.0268,0.1926,0.0685,-0.1415,-0.0052,-0.5569,12.0658,-8.9670,41.6630,
5.103336,-0.0268,0.1926,0.0685,-0.3238,0.0783,-0.6145,12.0658,-8.9670,41.6630,
5.107863,-0.0268,0.1926,0.0685,-0.3238,0.0783,-0.6145,12.0658,-8.9670,41.6630,
5.110369,-0.0268,0.1926,0.0685,-0.3238,0.0783,-0.6145,12.0658,-8.9670,41.6630,
5.113045,-0.0268,0.1926,0.0685,-0.3238,0.0783,-0.6145,12.0658,-8.9670,41.6630,
5.115903,-0.0268,0.1926,0.0685,-0.3238,0.0783,-0.6145,13.1394,-8.9182,41.4068,
5.123486,-0.2443,0.0575,0.0921,-0.3238,0.0783,-0.6145,13.1394,-8.9182,41.4068,
5.172709,-0.2443,0.0575,0.0921,-0.4791,0.1146,-0.8904,13.1394,-8.9182,41.4068,
5.176949,-0.2443,0.0575,0.0921,-0.4791,0.1146,-0.8904,13.1394,-8.9182,41.4068,
5.179504,-0.2443,0.0575,0.0921,-0.4791,0.1146,-0.8904,13.1394,-8.9182,41.4068,
5.181626,-0.2443,0.0575,0.0921,-0.4791,0.1146,-0.8904,13.1394,-8.9182,41.4068,
5.183925,-0.2443,0.0575,0.0921,-0.4791,0.1146,-0.8904,13.1394,-8.9182,41.4068,
5.185892,-0.2443,0.0575,0.0921,-0.4791,0.1146,-0.8904,14.0422,-8.9182,41.1750,
5.191301,-0.5486,0.3944,-0.0596,-0.4791,0.1146,-0.8904,14.0422,-8.9182,41.1750,
5.232769,-0.5486,0.3944,-0.0596,-0.4791,0.1146,-0.8904,14.7498,-8.9426,41.0896,
5.239990,-0.5486,0.3944,-0.0596,-0.4791,0.1146,-0.8904,14.7498,-8.9426,41.0896,
5.243008,-0.5486,0.3944,-0.0596,-0.4791,0.1146,-0.8904,14.7498,-8.9426,41.0896,
5.245495,-0.5486,0.3944,-0.0596,-0.4791,0.1146,-0.8904,14.7498,-8.9426,41.0896,
5.248720,-0.5486,0.3944,-0.0596,-0.5639,-0.0241,-0.8683,14.7498,-8.9426,41.0896,
5.260763,0.0022,1.0600,0.0236,-0.5639,-0.0241,-0.8683,14.7498,-8.9426,41.0896,
5.292216,0.0022,1.0600,0.0236,-0.5639,-0.0241,-0.8683,15.3232,-9.0036,41.0286,
5.306846,0.0022,1.0600,0.0236,-0.5639,-0.0241,-0.8683,15.3232,-9.0036,41.0286,
5.311166,0.0022,1.0600,0.0236,-0.5639,-0.0241,-0.8683,15.3232,-9.0036,41.0286,
5.313110,0.0022,1.0600,0.0236,-0.5639,-0.0241,-0.8683,15.3232,-9.0036,41.0286,
5.315396,0.0022,1.0600,0.0236,-0.4992,0.0393,-0.5815,15.3232,-9.0036,41.0286,
5.330374,0.4572,-0.5382,0.3867,-0.4992,0.0393,-0.5815,15.3232,-9.0036,41.0286,
5.351618,0.4572,-0.5382,0.3867,-0.4992,0.0393,-0.5815,15.8112,-9.1378,41.0164,
5.371371,0.4572,-0.5382,0.3867,-0.4992,0.0393,-0.5815,15.8112,-9.1378,41.0164,
5.374394,0.4572,-0.5382,0.3867,-0.4992,0.0393,-0.5815,15.8112,-9.1378,41.0164,
5.377321,0.4572,-0.5382,0.3867,-0.4992,0.0393,-0.5815,15.8112,-9.1378,41.0164,
5.380152,0.4572,-0.5382,0.3867,-0.4992,0.0393,-0.5815,15.8112,-9.1378,41.0164,
5.382693,0.4572,-0.5382,0.3867,-0.4606,0.1680,-0.6450,15.8112,-9.1378,41.0164,
5.400982,-0.0568,-0.2590,0.3121,-0.4606,0.1680,-0.6450,15.8112,-9.1378,41.0164,
5.410433,-0.0568,-0.2590,0.3121,-0.4606,0.1680,-0.6450,16.2016,-9.2842,40.8822,
5.437795,-0.0568,-0.2590,0.3121,-0.4606,0.1680,-0.6450,16.2016,-9.2842,40.8822,
5.441023,-0.0568,-0.2590,0.3121,-0.4606,0.1680,-0.6450,16.2016,-9.2842,40.8822,
5.443681,-0.0568,-0.2590,0.3121,-0.4606,0.1680,-0.6450,16.2016,-9.2842,40.8822,
5.451011,-0.0568,-0.2590,0.3121,-0.4364,0.3629,-0.8450,16.2016,-9.2842,40.8822,
5.470494,-0.0568,-0.2590,0.3121,-0.4364,0.3629,-0.8450,16.5188,-9.5038,40.8578,
5.474036,-0.6783,0.9171,0.3450,-0.4364,0.3629,-0.8450,16.5188,-9.5038,40.8578,
5.504310,-0.6783,0.9171,0.3450,-0.4364,0.3629,-0.8450,16.5188,-9.5038,40.8578,
5.507739,-0.6783,0.9171,0.3450,-0.4364,0.3629,-0.8450,16.5188,-9.5038,40.8578,
5.510177,-0.6783,0.9171,0.3450,-0.4364,0.3629,-0.8450,16.5188,-9.5038,40.8578,
5.519598,-0.6783,0.9171,0.3450,-0.8378,0.1506,-0.5613,16.5188,-9.5038,40.8578,
5.529700,-0.6783,0.9171,0.3450,-0.8378,0.1506,-0.5613,16.7872,-9.9186,40.7846,
5.539766,0.3589,-0.9471,0.4786,-0.8378,0.1506,-0.5613,16.7872,-9.9186,40.7846,
5.570808,0.3589,-0.9471,0.4786,-0.8378,0.1506,-0.5613,16.7872,-9.9186,40.7846,
5.573475,0.3589,-0.9471,0.4786,-0.8378,0.1506,-0.5613,16.7872,-9.9186,40.7846,
5.575941,0.3589,-0.9471,0.4786,-0.8378,0.1506,-0.5613,16.7872,-9.9186,40.7846,
5.577329,0.3589,-0.9471,0.4786,-0.8378,0.1506,-0.5613,16.7872,-9.9186,40.7846,
5.589331,0.3589,-0.9471,0.4786,-0.8378,0.1506,-0.5613,17.0800,-10.5530,40.6992,
5.591925,0.3589,-0.9471,0.4786,-1.2075,0.4047,-0.7306,17.0800,-10.5530,40.6992,
5.610816,-1.2137,-0.4591,0.4891,-1.2075,0.4047,-0.7306,17.0800,-10.5530,40.6992,
5.637723,-1.2137,-0.4591,0.4891,-1.2075,0.4047,-0.7306,17.0800,-10.5530,40.6992,
5.639544,-1.2137,-0.4591,0.4891,-1.2075,0.4047,-0.7306,17.0800,-10.5530,40.6992,
5.640309,-1.2137,-0.4591,0.4891,-1.2075,0.4047,-0.7306,17.0800,-10.5530,40.6992,
5.651349,-1.2137,-0.4591,0.4891,-1.2075,0.4047,-0.7306,17.3240,-11.3460,40.6382,
5.662271,-1.2137,-0.4591,0.4891,-0.9077,0.4944,-0.9674,17.3240,-11.3460,40.6382,
5.680722,-1.2698,-0.2097,0.1509,-0.9077,0.4944,-0.9674,17.3240,-11.3460,40.6382,
5.705584,-1.2698,-0.2097,0.1509,-0.9077,0.4944,-0.9674,17.3240,-11.3460,40.6382,
5.709151,-1.2698,-0.2097,0.1509,-0.9077,0.4944,-0.9674,17.3240,-11.3460,40.6382,
5.712555,-1.2698,-0.2097,0.1509,-0.9077,0.4944,-0.9674,17.3240,-11.3460,40.6382,
5.715534,-1.2698,-0.2097,0.1509,-0.9077,0.4944,-0.9674,17.3606,-12.0902,40.4064,
5.729246,-1.2698,-0.2097,0.1509,-0.3639,0.5780,-0.2740,17.3606,-12.0902,40.4064,
5.751032,-0.4219,-0.8877,-0.8010,-0.3639,0.5780,-0.2740,17.3606,-12.0902,40.4064,
5.772739,-0.4219,-0.8877,-0.8010,-0.3639,0.5780,-0.2740,17.1532,-12.8588,40.2478,
5.776399,-0.4219,-0.8877,-0.8010,-0.3639,0.5780,-0.2740,17.1532,-12.8588,40.2478,
5.778300,-0.4219,-0.8877,-0.8010,-0.3639,0.5780,-0.2740,17.1532,-12.8588,40.2478,
5.780491,-0.4219,-0.8877,-0.8010,-0.3639,0.5780,-0.2740,17.1532,-12.8588,40.2478,
5.782999,-0.4219,-0.8877,-0.8010,-0.3639,0.5780,-0.2740,17.1532,-12.8588,40.2478,
5.800511,-0.4219,-0.8877,-0.8010,-0.6183,0.7341,0.3059,17.1532,-12.8588,40.2478,
5.819109,-0.8119,-1.5558,-0.3035,-0.6183,0.7341,0.3059,17.1532,-12.8588,40.2478,
5.830090,-0.8119,-1.5558,-0.3035,-0.6183,0.7341,0.3059,16.5920,-13.6884,40.0404,
5.838112,-0.8119,-1.5558,-0.3035,-0.6183,0.7341,0.3059,16.5920,-13.6884,40.0404,
5.840659,-0.8119,-1.5558,-0.3035,-0.6183,0.7341,0.3059,16.5920,-13.6884,40.0404,
5.842776,-0.8119,-1.5558,-0.3035,-0.6183,0.7341,0.3059,16.5920,-13.6884,40.0404,
5.870614,-0.8119,-1.5558,-0.3035,-0.6866,0.9784,0.4799,16.5920,-13.6884,40.0404,
5.888163,-0.8119,-1.5558,-0.3035,-0.6866,0.9784,0.4799,15.7868,-14.7620,39.9916,
5.891353,-0.7041,-1.3130,1.3155,-0.6866,0.9784,0.4799,15.7868,-14.7620,39.9916,
5.905510,-0.7041,-1.3130,1.3155,-0.6866,0.9784,0.4799,15.7868,-14.7620,39.9916,
5.908510,-0.7041,-1.3130,1.3155,-0.6866,0.9784,0.4799,15.7868,-14.7620,39.9916,
5.910612,-0.7041,-1.3130,1.3155,-0.6866,0.9784,0.4799,15.7868,-14.7620,39.9916,
5.939982,-0.7041,-1.3130,1.3155,-0.6591,0.8742,0.3932,15.7868,-14.7620,39.9916,
5.949997,-0.7041,-1.3130,1.3155,-0.6591,0.8742,0.3932,14.6644,-15.9698,39.8452,
5.960049,-0.9780,-1.7461,1.4707,-0.6591,0.8742,0.3932,14.6644,-15.9698,39.8452,
5.972016,-0.9780,-1.7461,1.4707,-0.6591,0.8742,0.3932,14.6644,-15.9698,39.8452,
5.974191,-0.9780,-1.7461,1.4707,-0.6591,0.8742,0.3932,14.6644,-15.9698,39.8452,
5.976309,-0.9780,-1.7461,1.4707,-0.6591,0.8742,0.3932,14.6644,-15.9698,39.8452,
5.978409,-0.9780,-1.7461,1.4707,-0.6591,0.8742,0.3932,14.6644,-15.9698,39.8452,
6.009631,-0.9780,-1.7461,1.4707,-0.6591,0.8742,0.3932,13.2126,-17.1532,39.7232,
6.013083,-0.9780,-1.7461,1.4707,-0.1656,0.9966,0.6615,13.2126,-17.1532,39.7232,
6.029679,1.9897,-2.1188,1.7009,-0.1656,0.9966,0.6615,13.2126,-17.1532,39.7232,
6.037485,1.9897,-2.1188,1.7009,-0.1656,0.9966,0.6615,13.2126,-17.1532,39.7232,
6.039860,1.9897,-2.1188,1.7009,-0.1656,0.9966,0.6615,13.2126,-17.1532,39.7232,
6.041907,1.9897,-2.1188,1.7009,-0.1656,0.9966,0.6615,13.2126,-17.1532,39.7232,
6.069636,1.9897,-2.1188,1.7009,-0.1656,0.9966,0.6615,11.2850,-18.0804,39.7476,
6.079302,1.9897,-2.1188,1.7009,0.0067,1.5687,1.7749,11.2850,-18.0804,39.7476,
6.098764,5.8448,0.0347,-0.0817,0.0067,1.5687,1.7749,11.2850,-18.0804,39.7476,
6.103542,5.8448,0.0347,-0.0817,0.0067,1.5687,1.7749,11.2850,-18.0804,39.7476,
6.104338,5.8448,0.0347,-0.0817,0.0067,1.5687,1.7749,11.2850,-18.0804,39.7476,
6.105268,5.8448,0.0347,-0.0817,0.0067,1.5687,1.7749,11.2850,-18.0804,39.7476,
6.129360,5.8448,0.0347,-0.0817,0.0067,1.5687,1.7749,8.5278,-18.7758,39.6500,
6.147773,5.8448,0.0347,-0.0817,0.0132,2.2300,1.6141,8.5278,-18.7758,39.6500,
6.167641,3.8528,2.3968,1.9032,0.0132,2.2300,1.6141,8.5278,-18.7758,39.6500,
6.169962,3.8528,2.3968,1.9032,0.0132,2.2300,1.6141,8.5278,-18.7758,39.6500,
6.171264,3.8528,2.3968,1.9032,0.0132,2.2300,1.6141,8.5278,-18.7758,39.6500,
6.172269,3.8528,2.3968,1.9032,0.0132,2.2300,1.6141,8.5278,-18.7758,39.6500,
6.173284,3.8528,2.3968,1.9032,0.0132,2.2300,1.6141,8.5278,-18.7758,39.6500,
6.187864,3.8528,2.3968,1.9032,0.0132,2.2300,1.6141,5.0996,-19.3370,39.5890,
6.217675,3.8528,2.3968,1.9032,0.3867,0.8799,1.5541,5.0996,-19.3370,39.5890,
6.237632,-0.5076,3.6414,0.8367,0.3867,0.8799,1.5541,5.0996,-19.3370,39.5890,
6.240535,-0.5076,3.6414,0.8367,0.3867,0.8799,1.5541,5.0996,-19.3370,39.5890,
6.242248,-0.5076,3.6414,0.8367,0.3867,0.8799,1.5541,5.0996,-19.3370,39.5890,
6.244208,-0.5076,3.6414,0.8367,0.3867,0.8799,1.5541,5.0996,-19.3370,39.5890,
6.248373,-0.5076,3.6414,0.8367,0.3867,0.8799,1.5541,1.2444,-19.5566,39.4426,
6.288140,-0.5076,3.6414,0.8367,0.4658,0.5704,1.3127,1.2444,-19.5566,39.4426,
6.304422,-0.5076,3.6414,0.8367,0.4658,0.5704,1.3127,1.2444,-19.5566,39.4426,
6.307564,-0.5076,3.6414,0.8367,0.4658,0.5704,1.3127,1.2444,-19.5566,39.4426,
6.309449,-0.5076,3.6414,0.8367,0.4658,0.5704,1.3127,1.2444,-19.5566,39.4426,
6.311436,-0.5076,3.6414,0.8367,0.4658,0.5704,1.3127,-2.7084,-19.2638,39.2962,
6.313999,0.6274,0.6926,-0.8122,0.4658,0.5704,1.3127,-2.7084,-19.2638,39.2962,
6.359202,0.6274,0.6926,-0.8122,0.4017,0.7329,1.4080,-2.7084,-19.2638,39.2962,
6.368972,0.6274,0.6926,-0.8122,0.4017,0.7329,1.4080,-6.7588,-18.4098,39.1010,
6.372005,0.6274,0.6926,-0.8122,0.4017,0.7329,1.4080,-6.7588,-18.4098,39.1010,
6.373887,0.6274,0.6926,-0.8122,0.4017,0.7329,1.4080,-6.7588,-18.4098,39.1010,
6.375732,0.6274,0.6926,-0.8122,0.4017,0.7329,1.4080,-6.7588,-18.4098,39.1010,
6.377393,0.6274,0.6926,-0.8122,0.4017,0.7329,1.4080,-6.7588,-18.4098,39.1010,
6.379292,-0.8219,0.9844,-3.2239,0.4017,0.7329,1.4080,-6.7588,-18.4098,39.1010,
6.429318,-0.8219,0.9844,-3.2239,0.4017,0.7329,1.4080,-10.7604,-17.1410,38.8204,
6.431695,-0.8219,0.9844,-3.2239,0.1607,0.7016,0.6594,-10.7604,-17.1410,38.8204,
6.436946,-0.8219,0.9844,-3.2239,0.1607,0.7016,0.6594,-10.7604,-17.1410,38.8204,
6.438151,-0.8219,0.9844,-3.2239,0.1607,0.7016,0.6594,-10.7604,-17.1410,38.8204,
6.439567,-0.8219,0.9844,-3.2239,0.1607,0.7016,0.6594,-10.7604,-17.1410,38.8204,
6.447734,-0.5834,-1.0416,0.4475,0.1607,0.7016,0.6594,-10.7604,-17.1410,38.8204,
6.498518,-0.5834,-1.0416,0.4475,0.1607,0.7016,0.6594,-14.5302,-15.5306,38.6496,
6.501861,-0.5834,-1.0416,0.4475,1.1293,0.2419,0.2372,-14.5302,-15.5306,38.6496,
6.504164,-0.5834,-1.0416,0.4475,1.1293,0.2419,0.2372,-14.5302,-15.5306,38.6496,
6.505877,-0.5834,-1.0416,0.4475,1.1293,0.2419,0.2372,-14.5302,-15.5306,38.6496,
6.507830,-0.5834,-1.0416,0.4475,1.1293,0.2419,0.2372,-14.5302,-15.5306,38.6496,
6.517881,0.0514,-0.8483,0.4558,1.1293,0.2419,0.2372,-14.5302,-15.5306,38.6496,
6.556397,0.0514,-0.8483,0.4558,1.1293,0.2419,0.2372,-17.9584,-13.4932,38.4422,
6.566863,0.0514,-0.8483,0.4558,1.5300,0.1076,-0.1844,-17.9584,-13.4932,38.4422,
6.571109,0.0514,-0.8483,0.4558,1.5300,0.1076,-0.1844,-17.9584,-13.4932,38.4422,
6.572325,0.0514,-0.8483,0.4558,1.5300,0.1076,-0.1844,-17.9584,-13.4932,38.4422,
6.573451,0.0514,-0.8483,0.4558,1.5300,0.1076,-0.1844,-17.9584,-13.4932,38.4422,
6.574656,0.0514,-0.8483,0.4558,1.5300,0.1076,-0.1844,-17.9584,-13.4932,38.4422,
6.586212,-0.1807,-1.3478,-0.8311,1.5300,0.1076,-0.1844,-17.9584,-13.4932,38.4422,
6.616370,-0.1807,-1.3478,-0.8311,1.5300,0.1076,-0.1844,-20.5692,-11.0654,38.2958,
6.636910,-0.1807,-1.3478,-0.8311,0.9942,0.0053,-0.4850,-20.5692,-11.0654,38.2958,
6.641297,-0.1807,-1.3478,-0.8311,0.9942,0.0053,-0.4850,-20.5692,-11.0654,38.2958,
6.643656,-0.1807,-1.3478,-0.8311,0.9942,0.0053,-0.4850,-20.5692,-11.0654,38.2958,
6.645962,-0.1807,-1.3478,-0.8311,0.9942,0.0053,-0.4850,-20.5692,-11.0654,38.2958,
6.656330,0.2785,0.5231,-0.8282,0.9942,0.0053,-0.4850,-20.5692,-11.0654,38.2958,
6.676046,0.2785,0.5231,-0.8282,0.9942,0.0053,-0.4850,-22.3382,-8.6010,38.2958,
6.705249,0.2785,0.5231,-0.8282,0.1571,-0.3177,-0.7530,-22.3382,-8.6010,38.2958,
6.709587,0.2785,0.5231,-0.8282,0.1571,-0.3177,-0.7530,-22.3382,-8.6010,38.2958,
6.712244,0.2785,0.5231,-0.8282,0.1571,-0.3177,-0.7530,-22.3382,-8.6010,38.2958,
6.715204,0.2785,0.5231,-0.8282,0.1571,-0.3177,-0.7530,-22.3382,-8.6010,38.2958,
6.726688,0.8253,0.0246,-0.5974,0.1571,-0.3177,-0.7530,-22.3382,-8.6010,38.2958,
6.735197,0.8253,0.0246,-0.5974,0.1571,-0.3177,-0.7530,-23.4362,-6.5270,38.4178,
6.772691,0.8253,0.0246,-0.5974,0.1571,-0.3177,-0.7530,-23.4362,-6.5270,38.4178,
6.776622,0.8253,0.0246,-0.5974,0.1571,-0.3177,-0.7530,-23.4362,-6.5270,38.4178,
6.779142,0.8253,0.0246,-0.5974,0.1571,-0.3177,-0.7530,-23.4362,-6.5270,38.4178,
6.781569,0.8253,0.0246,-0.5974,0.1571,-0.3177,-0.7530,-23.4362,-6.5270,38.4178,
6.784101,0.8253,0.0246,-0.5974,-0.0603,-0.9992,-1.2153,-23.4362,-6.5270,38.4178,
6.798238,0.8253,0.0246,-0.5974,-0.0603,-0.9992,-1.2153,-23.8510,-4.9898,38.6862,
6.800104,0.3312,1.1471,-0.5388,-0.0603,-0.9992,-1.2153,-23.8510,-4.9898,38.6862,
6.839497,0.3312,1.1471,-0.5388,-0.0603,-0.9992,-1.2153,-23.8510,-4.9898,38.6862,
6.843347,0.3312,1.1471,-0.5388,-0.0603,-0.9992,-1.2153,-23.8510,-4.9898,38.6862,
6.846241,0.3312,1.1471,-0.5388,-0.0603,-0.9992,-1.2153,-23.8510,-4.9898,38.6862,
6.849302,0.3312,1.1471,-0.5388,-0.4233,-1.2129,-1.4496,-23.8510,-4.9898,38.6862,
6.856846,0.3312,1.1471,-0.5388,-0.4233,-1.2129,-1.4496,-23.4362,-4.1236,39.1254,
6.866352,1.1524,-0.6954,0.1625,-0.4233,-1.2129,-1.4496,-23.4362,-4.1236,39.1254,
6.905931,1.1524,-0.6954,0.1625,-0.4233,-1.2129,-1.4496,-23.4362,-4.1236,39.1254,
6.909814,1.1524,-0.6954,0.1625,-0.4233,-1.2129,-1.4496,-23.4362,-4.1236,39.1254,
6.913112,1.1524,-0.6954,0.1625,-0.4233,-1.2129,-1.4496,-23.4362,-4.1236,39.1254,
6.916115,1.1524,-0.6954,0.1625,-0.4233,-1.2129,-1.4496,-23.4362,-4.1236,39.1254,
6.919134,1.1524,-0.6954,0.1625,-0.4233,-1.2129,-1.4496,-22.4236,-3.5014,39.7476,
6.921045,1.1524,-0.6954,0.1625,0.6961,-0.3003,-1.2582,-22.4236,-3.5014,39.7476,
6.935847,-1.0151,-0.7558,-0.5383,0.6961,-0.3003,-1.2582,-22.4236,-3.5014,39.7476,
6.972497,-1.0151,-0.7558,-0.5383,0.6961,-0.3003,-1.2582,-22.4236,-3.5014,39.7476,
6.977182,-1.0151,-0.7558,-0.5383,0.6961,-0.3003,-1.2582,-22.4236,-3.5014,39.7476,
6.979889,-1.0151,-0.7558,-0.5383,0.6961,-0.3003,-1.2582,-22.4236,-3.5014,39.7476,
6.982388,-1.0151,-0.7558,-0.5383,0.6961,-0.3003,-1.2582,-21.2158,-3.0378,40.3942,
6.986709,-1.0151,-0.7558,-0.5383,0.7004,-0.1811,-0.6486,-21.2158,-3.0378,40.3942,
7.004607,1.0405,-0.4995,0.0099,0.7004,-0.1811,-0.6486,-21.2158,-3.0378,40.3942,
7.036074,1.0405,-0.4995,0.0099,0.7004,-0.1811,-0.6486,-19.8494,-2.8182,41.0286,
7.040225,1.0405,-0.4995,0.0099,0.7004,-0.1811,-0.6486,-19.8494,-2.8182,41.0286,
7.042751,1.0405,-0.4995,0.0099,0.7004,-0.1811,-0.6486,-19.8494,-2.8182,41.0286,
7.045499,1.0405,-0.4995,0.0099,0.7004,-0.1811,-0.6486,-19.8494,-2.8182,41.0286,
7.055646,1.0405,-0.4995,0.0099,0.6205,0.1446,-0.5453,-19.8494,-2.8182,41.0286,
7.076959,1.6074,1.1513,0.2257,0.6205,0.1446,-0.5453,-19.8494,-2.8182,41.0286,
7.080613,1.6074,1.1513,0.2257,0.6205,0.1446,-0.5453,-19.8494,-2.8182,41.0286,
7.082748,1.6074,1.1513,0.2257,0.6205,0.1446,-0.5453,-19.8494,-2.8182,41.0286,
7.095881,1.6074,1.1513,0.2257,0.6205,0.1446,-0.5453,-18.4708,-2.9158,41.6874,
7.104779,1.6074,1.1513,0.2257,0.6205,0.1446,-0.5453,-18.4708,-2.9158,41.6874,
7.109073,1.6074,1.1513,0.2257,0.6205,0.1446,-0.5453,-18.4708,-2.9158,41.6874,
7.124563,1.6074,1.1513,0.2257,1.0232,-0.0936,-0.3465,-18.4708,-2.9158,41.6874,
7.145670,-0.1129,-0.8968,-1.7608,1.0232,-0.0936,-0.3465,-18.4708,-2.9158,41.6874,
7.156487,-0.1129,-0.8968,-1.7608,1.0232,-0.0936,-0.3465,-17.0556,-2.8060,42.3218,
7.175260,-0.1129,-0.8968,-1.7608,1.0232,-0.0936,-0.3465,-17.0556,-2.8060,42.3218,
7.178382,-0.1129,-0.8968,-1.7608,1.0232,-0.0936,-0.3465,-17.0556,-2.8060,42.3218,
7.181087,-0.1129,-0.8968,-1.7608,1.0232,-0.0936,-0.3465,-17.0556,-2.8060,42.3218,
7.194092,-0.1129,-0.8968,-1.7608,0.8964,-0.0312,-0.4451,-17.0556,-2.8060,42.3218,
7.215857,-0.1129,-0.8968,-1.7608,0.8964,-0.0312,-0.4451,-15.7624,-2.3790,42.8830,
7.219938,0.5143,1.3725,-1.1471,0.8964,-0.0312,-0.4451,-15.7624,-2.3790,42.8830,
7.239618,0.5143,1.3725,-1.1471,0.8964,-0.0312,-0.4451,-15.7624,-2.3790,42.8830,
7.242818,0.5143,1.3725,-1.1471,0.8964,-0.0312,-0.4451,-15.7624,-2.3790,42.8830,
7.245707,0.5143,1.3725,-1.1471,0.8964,-0.0312,-0.4451,-15.7624,-2.3790,42.8830,
7.265258,0.5143,1.3725,-1.1471,0.6557,0.1752,-0.0240,-15.7624,-2.3790,42.8830,
7.275659,0.5143,1.3725,-1.1471,0.6557,0.1752,-0.0240,-14.8230,-1.5494,43.2246,
7.285446,-0.4476,0.6070,0.1254,0.6557,0.1752,-0.0240,-14.8230,-1.5494,43.2246,
7.305898,-0.4476,0.6070,0.1254,0.6557,0.1752,-0.0240,-14.8230,-1.5494,43.2246,
7.307417,-0.4476,0.6070,0.1254,0.6557,0.1752,-0.0240,-14.8230,-1.5494,43.2246,
7.308225,-0.4476,0.6070,0.1254,0.6557,0.1752,-0.0240,-14.8230,-1.5494,43.2246,
7.308966,-0.4476,0.6070,0.1254,0.6557,0.1752,-0.0240,-14.8230,-1.5494,43.2246,
7.335213,-0.4476,0.6070,0.1254,0.6557,0.1752,-0.0240,-14.3472,-0.1708,43.5052,
7.338457,-0.4476,0.6070,0.1254,0.7242,-0.0052,-0.0716,-14.3472,-0.1708,43.5052,
7.355097,-1.2377,-1.1326,0.0801,0.7242,-0.0052,-0.0716,-14.3472,-0.1708,43.5052,
7.373332,-1.2377,-1.1326,0.0801,0.7242,-0.0052,-0.0716,-14.3472,-0.1708,43.5052,
7.376400,-1.2377,-1.1326,0.0801,0.7242,-0.0052,-0.0716,-14.3472,-0.1708,43.5052,
7.379780,-1.2377,-1.1326,0.0801,0.7242,-0.0052,-0.0716,-14.3472,-0.1708,43.5052,
7.395115,-1.2377,-1.1326,0.0801,0.7242,-0.0052,-0.0716,-14.1886,1.4884,43.5784,
7.404423,-1.2377,-1.1326,0.0801,0.8593,-0.1739,-0.1888,-14.1886,1.4884,43.5784,
7.424685,-1.2491,-1.1888,1.4364,0.8593,-0.1739,-0.1888,-14.1886,1.4884,43.5784,
7.439423,-1.2491,-1.1888,1.4364,0.8593,-0.1739,-0.1888,-14.1886,1.4884,43.5784,
7.442332,-1.2491,-1.1888,1.4364,0.8593,-0.1739,-0.1888,-14.1886,1.4884,43.5784,
7.444939,-1.2491,-1.1888,1.4364,0.8593,-0.1739,-0.1888,-14.1886,1.4884,43.5784,
7.454465,-1.2491,-1.1888,1.4364,0.8593,-0.1739,-0.1888,-14.1398,3.3306,43.5662,
7.474560,-1.2491,-1.1888,1.4364,0.8983,0.1859,-0.2666,-14.1398,3.3306,43.5662,
7.494395,-0.7491,-0.5858,1.1887,0.8983,0.1859,-0.2666,-14.1398,3.3306,43.5662,
7.505933,-0.7491,-0.5858,1.1887,0.8983,0.1859,-0.2666,-14.1398,3.3306,43.5662,
7.508818,-0.7491,-0.5858,1.1887,0.8983,0.1859,-0.2666,-14.1398,3.3306,43.5662,
7.511279,-0.7491,-0.5858,1.1887,0.8983,0.1859,-0.2666,-14.1398,3.3306,43.5662,
7.513943,-0.7491,-0.5858,1.1887,0.8983,0.1859,-0.2666,-14.1398,3.3306,43.5662,
7.516727,-0.7491,-0.5858,1.1887,0.8983,0.1859,-0.2666,-14.2130,5.2338,43.3466,
7.544682,-0.7491,-0.5858,1.1887,0.9918,0.4258,-0.3933,-14.2130,5.2338,43.3466,
7.564351,-1.9738,-0.0338,0.3205,0.9918,0.4258,-0.3933,-14.2130,5.2338,43.3466,
7.571929,-1.9738,-0.0338,0.3205,0.9918,0.4258,-0.3933,-14.3960,7.3078,43.0294,
7.576890,-1.9738,-0.0338,0.3205,0.9918,0.4258,-0.3933,-14.3960,7.3078,43.0294,
7.578686,-1.9738,-0.0338,0.3205,0.9918,0.4258,-0.3933,-14.3960,7.3078,43.0294,
7.580096,-1.9738,-0.0338,0.3205,0.9918,0.4258,-0.3933,-14.3960,7.3078,43.0294,
7.614220,-1.9738,-0.0338,0.3205,0.3298,0.2212,-0.3325,-14.3960,7.3078,43.0294,
7.634305,-1.9738,-0.0338,0.3205,0.3298,0.2212,-0.3325,-14.7620,9.1256,42.5902,
7.638007,-1.4013,0.8799,-0.1027,0.3298,0.2212,-0.3325,-14.7620,9.1256,42.5902,
7.640666,-1.4013,0.8799,-0.1027,0.3298,0.2212,-0.3325,-14.7620,9.1256,42.5902,
7.643137,-1.4013,0.8799,-0.1027,0.3298,0.2212,-0.3325,-14.7620,9.1256,42.5902,
7.645279,-1.4013,0.8799,-0.1027,0.3298,0.2212,-0.3325,-14.7620,9.1256,42.5902,
7.684182,-1.4013,0.8799,-0.1027,0.3792,-0.3565,-0.2349,-14.7620,9.1256,42.5902,
7.696082,-1.4013,0.8799,-0.1027,0.3792,-0.3565,-0.2349,-15.1036,10.8214,42.1266,
7.704618,-1.2591,2.2579,-0.5401,0.3792,-0.3565,-0.2349,-15.1036,10.8214,42.1266,
7.706331,-1.2591,2.2579,-0.5401,0.3792,-0.3565,-0.2349,-15.1036,10.8214,42.1266,
7.707472,-1.2591,2.2579,-0.5401,0.3792,-0.3565,-0.2349,-15.1036,10.8214,42.1266,
7.708392,-1.2591,2.2579,-0.5401,0.3792,-0.3565,-0.2349,-15.1036,10.8214,42.1266,
7.709329,-1.2591,2.2579,-0.5401,0.3792,-0.3565,-0.2349,-15.1036,10.8214,42.1266,
7.754093,-1.2591,2.2579,-0.5401,0.3792,-0.3565,-0.2349,-15.1890,12.1756,41.8582,
7.757770,-1.2591,2.2579,-0.5401,-0.2618,-0.8382,-0.2285,-15.1890,12.1756,41.8582,
7.776731,2.1364,2.1107,-0.3676,-0.2618,-0.8382,-0.2285,-15.1890,12.1756,41.8582,
7.780595,2.1364,2.1107,-0.3676,-0.2618,-0.8382,-0.2285,-15.1890,12.1756,41.8582,
7.783428,2.1364,2.1107,-0.3676,-0.2618,-0.8382,-0.2285,-15.1890,12.1756,41.8582,
7.784894,2.1364,2.1107,-0.3676,-0.2618,-0.8382,-0.2285,-15.1890,12.1756,41.8582,
7.813295,2.1364,2.1107,-0.3676,-0.2618,-0.8382,-0.2285,-14.9938,13.2858,41.6264,
7.825833,2.1364,2.1107,-0.3676,0.3947,-0.8273,0.0144,-14.9938,13.2858,41.6264,
7.841731,2.1364,2.1107,-0.3676,0.3947,-0.8273,0.0144,-14.9938,13.2858,41.6264,
7.844366,2.1364,2.1107,-0.3676,0.3947,-0.8273,0.0144,-14.9938,13.2858,41.6264,
7.847414,2.1364,2.1107,-0.3676,0.3947,-0.8273,0.0144,-14.9938,13.2858,41.6264,
7.848968,1.2597,2.5020,-1.4443,0.3947,-0.8273,0.0144,-14.9938,13.2858,41.6264,
7.871460,1.2597,2.5020,-1.4443,0.3947,-0.8273,0.0144,-14.5058,14.2984,41.5288,
7.891850,1.2597,2.5020,-1.4443,0.2222,-0.8103,0.0901,-14.5058,14.2984,41.5288,
7.904458,1.2597,2.5020,-1.4443,0.2222,-0.8103,0.0901,-14.5058,14.2984,41.5288,
7.905889,1.2597,2.5020,-1.4443,0.2222,-0.8103,0.0901,-14.5058,14.2984,41.5288,
7.907198,1.2597,2.5020,-1.4443,0.2222,-0.8103,0.0901,-14.5058,14.2984,41.5288,
7.908030,1.2597,2.5020,-1.4443,0.2222,-0.8103,0.0901,-14.5058,14.2984,41.5288,
7.910932,2.8337,-0.4311,-1.8848,0.2222,-0.8103,0.0901,-14.5058,14.2984,41.5288,
7.931150,2.8337,-0.4311,-1.8848,0.2222,-0.8103,0.0901,-13.7006,15.0548,41.6020,
7.961214,2.8337,-0.4311,-1.8848,0.0952,0.1246,0.2850,-13.7006,15.0548,41.6020,
7.973420,2.8337,-0.4311,-1.8848,0.0952,0.1246,0.2850,-13.7006,15.0548,41.6020,
7.974670,2.8337,-0.4311,-1.8848,0.0952,0.1246,0.2850,-13.7006,15.0548,41.6020,
7.975858,2.8337,-0.4311,-1.8848,0.0952,0.1246,0.2850,-13.7006,15.0548,41.6020,
7.981021,1.1890,-4.3137,-1.8623,0.0952,0.1246,0.2850,-13.7006,15.0548,41.6020,
7.991476,1.1890,-4.3137,-1.8623,0.0952,0.1246,0.2850,-12.8588,15.6038,41.8582,
8.031007,1.1890,-4.3137,-1.8623,-0.0597,0.4252,-0.0442,-12.8588,15.6038,41.8582,
8.037885,1.1890,-4.3137,-1.8623,-0.0597,0.4252,-0.0442,-12.8588,15.6038,41.8582,
8.039065,1.1890,-4.3137,-1.8623,-0.0597,0.4252,-0.0442,-12.8588,15.6038,41.8582,
8.039970,1.1890,-4.3137,-1.8623,-0.0597,0.4252,-0.0442,-12.8588,15.6038,41.8582,
8.050537,1.1890,-4.3137,-1.8623,-0.0597,0.4252,-0.0442,-12.0536,15.8722,42.2120,
8.051369,-0.4761,-1.0888,0.5070,-0.0597,0.4252,-0.0442,-12.0536,15.8722,42.2120,
8.103124,-0.4761,-1.0888,0.5070,-0.2419,-0.0013,0.1045,-12.0536,15.8722,42.2120,
8.107472,-0.4761,-1.0888,0.5070,-0.2419,-0.0013,0.1045,-12.0536,15.8722,42.2120,
8.109947,-0.4761,-1.0888,0.5070,-0.2419,-0.0013,0.1045,-12.0536,15.8722,42.2120,
8.113256,-0.4761,-1.0888,0.5070,-0.2419,-0.0013,0.1045,-12.0536,15.8722,42.2120,
8.116196,-0.4761,-1.0888,0.5070,-0.2419,-0.0013,0.1045,-12.0536,15.8722,42.2120,
8.118814,-0.4761,-1.0888,0.5070,-0.2419,-0.0013,0.1045,-11.2850,16.0674,42.4438,
8.125493,-1.1762,2.5362,2.0579,-0.2419,-0.0013,0.1045,-11.2850,16.0674,42.4438,
8.173045,-1.1762,2.5362,2.0579,-0.2419,-0.0013,0.1045,-10.4798,16.1162,42.7000,
8.178032,-1.1762,2.5362,2.0579,-0.2419,-0.0013,0.1045,-10.4798,16.1162,42.7000,
8.180752,-1.1762,2.5362,2.0579,-0.2419,-0.0013,0.1045,-10.4798,16.1162,42.7000,
8.183123,-1.1762,2.5362,2.0579,-0.2419,-0.0013,0.1045,-10.4798,16.1162,42.7000,
8.184722,-1.1762,2.5362,2.0579,-0.2435,-0.0341,0.1116,-10.4798,16.1162,42.7000,
8.191598,0.7159,0.0509,1.2682,-0.2435,-0.0341,0.1116,-10.4798,16.1162,42.7000,
8.232762,0.7159,0.0509,1.2682,-0.2435,-0.0341,0.1116,-10.0162,16.2504,42.8464,
8.240416,0.7159,0.0509,1.2682,-0.2435,-0.0341,0.1116,-10.0162,16.2504,42.8464,
8.243604,0.7159,0.0509,1.2682,-0.2435,-0.0341,0.1116,-10.0162,16.2504,42.8464,
8.246339,0.7159,0.0509,1.2682,-0.2435,-0.0341,0.1116,-10.0162,16.2504,42.8464,
8.249122,0.7159,0.0509,1.2682,-0.0101,0.4302,-0.4394,-10.0162,16.2504,42.8464,
8.261547,-1.5471,-3.2193,0.1696,-0.0101,0.4302,-0.4394,-10.0162,16.2504,42.8464,
8.291813,-1.5471,-3.2193,0.1696,-0.0101,0.4302,-0.4394,-9.9308,16.4700,42.8342,
8.305943,-1.5471,-3.2193,0.1696,-0.0101,0.4302,-0.4394,-9.9308,16.4700,42.8342,
8.309266,-1.5471,-3.2193,0.1696,-0.0101,0.4302,-0.4394,-9.9308,16.4700,42.8342,
8.312493,-1.5471,-3.2193,0.1696,-0.0101,0.4302,-0.4394,-9.9308,16.4700,42.8342,
8.315385,-1.5471,-3.2193,0.1696,-0.0101,0.4302,-0.4394,-9.9308,16.4700,42.8342,
8.317894,-1.5471,-3.2193,0.1696,0.4470,0.1581,-0.4334,-9.9308,16.4700,42.8342,
8.330274,0.3939,-1.3794,-0.5705,0.4470,0.1581,-0.4334,-9.9308,16.4700,42.8342,
8.350101,0.3939,-1.3794,-0.5705,0.4470,0.1581,-0.4334,-10.2602,16.6408,42.6756,
8.372800,0.3939,-1.3794,-0.5705,0.4470,0.1581,-0.4334,-10.2602,16.6408,42.6756,
8.376074,0.3939,-1.3794,-0.5705,0.4470,0.1581,-0.4334,-10.2602,16.6408,42.6756,
8.378282,0.3939,-1.3794,-0.5705,0.4470,0.1581,-0.4334,-10.2602,16.6408,42.6756,
8.381358,0.3939,-1.3794,-0.5705,0.4414,0.4687,-0.3633,-10.2602,16.6408,42.6756,
8.401434,-0.0597,-2.6299,0.7807,0.4414,0.4687,-0.3633,-10.2602,16.6408,42.6756,
8.411582,-0.0597,-2.6299,0.7807,0.4414,0.4687,-0.3633,-11.1142,16.8482,42.2242,
8.439954,-0.0597,-2.6299,0.7807,0.4414,0.4687,-0.3633,-11.1142,16.8482,42.2242,
8.443377,-0.0597,-2.6299,0.7807,0.4414,0.4687,-0.3633,-11.1142,16.8482,42.2242,
8.445482,-0.0597,-2.6299,0.7807,0.4414,0.4687,-0.3633,-11.1142,16.8482,42.2242,
8.447929,-0.0597,-2.6299,0.7807,0.4414,0.4687,-0.3633,-11.1142,16.8482,42.2242,
8.452733,-0.0597,-2.6299,0.7807,0.2230,0.2679,-0.6205,-11.1142,16.8482,42.2242,
8.471085,-1.0768,-0.1992,-0.2510,0.2230,0.2679,-0.6205,-11.1142,16.8482,42.2242,
8.473993,-1.0768,-0.1992,-0.2510,0.2230,0.2679,-0.6205,-12.0780,17.0068,41.7362,
8.506139,-1.0768,-0.1992,-0.2510,0.2230,0.2679,-0.6205,-12.0780,17.0068,41.7362,
8.509458,-1.0768,-0.1992,-0.2510,0.2230,0.2679,-0.6205,-12.0780,17.0068,41.7362,
8.511777,-1.0768,-0.1992,-0.2510,0.2230,0.2679,-0.6205,-12.0780,17.0068,41.7362,
8.520721,-1.0768,-0.1992,-0.2510,0.1991,0.9296,-0.3013,-12.0780,17.0068,41.7362,
8.532282,-1.0768,-0.1992,-0.2510,0.1991,0.9296,-0.3013,-13.0784,17.1654,41.1384,
8.540592,-0.1271,0.3285,0.2527,0.1991,0.9296,-0.3013,-13.0784,17.1654,41.1384,
8.572583,-0.1271,0.3285,0.2527,0.1991,0.9296,-0.3013,-13.0784,17.1654,41.1384,
8.575615,-0.1271,0.3285,0.2527,0.1991,0.9296,-0.3013,-13.0784,17.1654,41.1384,
8.577705,-0.1271,0.3285,0.2527,0.1991,0.9296,-0.3013,-13.0784,17.1654,41.1384,
8.591554,-0.1271,0.3285,0.2527,0.1991,0.9296,-0.3013,-14.2374,17.3362,40.5772,
8.596182,-0.1271,0.3285,0.2527,0.0112,0.8626,-0.1266,-14.2374,17.3362,40.5772,
8.610467,-0.6592,0.3108,-0.0511,0.0112,0.8626,-0.1266,-14.2374,17.3362,40.5772,
8.639932,-0.6592,0.3108,-0.0511,0.0112,0.8626,-0.1266,-14.2374,17.3362,40.5772,
8.642704,-0.6592,0.3108,-0.0511,0.0112,0.8626,-0.1266,-14.2374,17.3362,40.5772,
8.645006,-0.6592,0.3108,-0.0511,0.0112,0.8626,-0.1266,-14.2374,17.3362,40.5772,
8.647215,-0.6592,0.3108,-0.0511,0.0112,0.8626,-0.1266,-14.2374,17.3362,40.5772,
8.651760,-0.6592,0.3108,-0.0511,0.0112,0.8626,-0.1266,-15.5672,17.4948,39.9672,
8.661272,-0.6592,0.3108,-0.0511,-0.2992,0.4262,-0.2238,-15.5672,17.4948,39.9672,
8.680345,-0.9800,2.1363,-0.2502,-0.2992,0.4262,-0.2238,-15.5672,17.4948,39.9672,
8.705037,-0.9800,2.1363,-0.2502,-0.2992,0.4262,-0.2238,-15.5672,17.4948,39.9672,
8.708166,-0.9800,2.1363,-0.2502,-0.2992,0.4262,-0.2238,-15.5672,17.4948,39.9672,
8.711109,-0.9800,2.1363,-0.2502,-0.2992,0.4262,-0.2238,-15.5672,17.4948,39.9672,
8.714070,-0.9800,2.1363,-0.2502,-0.2992,0.4262,-0.2238,-16.9092,17.5070,39.3694,
8.728351,-0.9800,2.1363,-0.2502,-0.4947,0.5483,-0.1619,-16.9092,17.5070,39.3694,
8.748968,0.1364,-0.6000,1.1402,-0.4947,0.5483,-0.1619,-16.9092,17.5070,39.3694,
8.768904,0.1364,-0.6000,1.1402,-0.4947,0.5483,-0.1619,-18.2878,17.3362,38.7594,
8.772740,0.1364,-0.6000,1.1402,-0.4947,0.5483,-0.1619,-18.2878,17.3362,38.7594,
8.775344,0.1364,-0.6000,1.1402,-0.4947,0.5483,-0.1619,-18.2878,17.3362,38.7594,
8.778671,0.1364,-0.6000,1.1402,-0.4947,0.5483,-0.1619,-18.2878,17.3362,38.7594,
8.799797,0.1364,-0.6000,1.1402,-0.4603,0.8542,0.0322,-18.2878,17.3362,38.7594,
8.820152,-0.5226,0.4169,0.7873,-0.4603,0.8542,0.0322,-18.2878,17.3362,38.7594,
8.829553,-0.5226,0.4169,0.7873,-0.4603,0.8542,0.0322,-19.7518,16.9458,38.1616,
8.839830,-0.5226,0.4169,0.7873,-0.4603,0.8542,0.0322,-19.7518,16.9458,38.1616,
8.842429,-0.5226,0.4169,0.7873,-0.4603,0.8542,0.0322,-19.7518,16.9458,38.1616,
8.844846,-0.5226,0.4169,0.7873,-0.4603,0.8542,0.0322,-19.7518,16.9458,38.1616,
8.848518,-0.5226,0.4169,0.7873,-0.4603,0.8542,0.0322,-19.7518,16.9458,38.1616,
8.869774,-0.5226,0.4169,0.7873,-0.1033,0.2989,0.1732,-19.7518,16.9458,38.1616,
8.888521,0.0974,0.6913,0.4314,-0.1033,0.2989,0.1732,-19.7518,16.9458,38.1616,
8.892129,0.0974,0.6913,0.4314,-0.1033,0.2989,0.1732,-21.1182,16.5066,37.6004,
8.905876,0.0974,0.6913,0.4314,-0.1033,0.2989,0.1732,-21.1182,16.5066,37.6004,
8.909002,0.0974,0.6913,0.4314,-0.1033,0.2989,0.1732,-21.1182,16.5066,37.6004,
8.911395,0.0974,0.6913,0.4314,-0.1033,0.2989,0.1732,-21.1182,16.5066,37.6004,
8.939579,0.0974,0.6913,0.4314,-0.1840,0.3176,0.0855,-21.1182,16.5066,37.6004,
8.951208,0.0974,0.6913,0.4314,-0.1840,0.3176,0.0855,-22.3748,16.0308,37.0270,
8.959470,0.4401,-0.3894,0.2349,-0.1840,0.3176,0.0855,-22.3748,16.0308,37.0270,
8.972536,0.4401,-0.3894,0.2349,-0.1840,0.3176,0.0855,-22.3748,16.0308,37.0270,
8.975818,0.4401,-0.3894,0.2349,-0.1840,0.3176,0.0855,-22.3748,16.0308,37.0270,
8.978251,0.4401,-0.3894,0.2349,-0.1840,0.3176,0.0855,-22.3748,16.0308,37.0270,
9.009370,0.4401,-0.3894,0.2349,-0.2503,0.3240,-0.1121,-22.3748,16.0308,37.0270,
9.012991,0.4401,-0.3894,0.2349,-0.2503,0.3240,-0.1121,-23.4972,15.5062,36.5146,
9.027596,-0.0564,0.0572,-0.0398,-0.2503,0.3240,-0.1121,-23.4972,15.5062,36.5146,
9.040202,-0.0564,0.0572,-0.0398,-0.2503,0.3240,-0.1121,-23.4972,15.5062,36.5146,
9.043106,-0.0564,0.0572,-0.0398,-0.2503,0.3240,-0.1121,-23.4972,15.5062,36.5146,
9.045761,-0.0564,0.0572,-0.0398,-0.2503,0.3240,-0.1121,-23.4972,15.5062,36.5146,
9.048512,-0.0564,0.0572,-0.0398,-0.2503,0.3240,-0.1121,-23.4972,15.5062,36.5146,
9.069034,-0.0564,0.0572,-0.0398,-0.2503,0.3240,-0.1121,-24.3024,14.9816,36.1486,
9.078731,-0.0564,0.0572,-0.0398,0.2037,0.0778,0.1044,-24.3024,14.9816,36.1486,
9.097202,0.2155,1.0398,-0.6611,0.2037,0.0778,0.1044,-24.3024,14.9816,36.1486,
9.103892,0.2155,1.0398,-0.6611,0.2037,0.0778,0.1044,-24.3024,14.9816,36.1486,
9.104827,0.2155,1.0398,-0.6611,0.2037,0.0778,0.1044,-24.3024,14.9816,36.1486,
9.105678,0.2155,1.0398,-0.6611,0.2037,0.0778,0.1044,-24.3024,14.9816,36.1486,
9.128699,0.2155,1.0398,-0.6611,0.2037,0.0778,0.1044,-25.0588,14.5180,35.7826,
9.147452,0.2155,1.0398,-0.6611,0.1269,0.4382,-0.0061,-25.0588,14.5180,35.7826,
9.167717,0.6056,0.8144,0.0380,0.1269,0.4382,-0.0061,-25.0588,14.5180,35.7826,
9.171026,0.6056,0.8144,0.0380,0.1269,0.4382,-0.0061,-25.0588,14.5180,35.7826,
9.173310,0.6056,0.8144,0.0380,0.1269,0.4382,-0.0061,-25.0588,14.5180,35.7826,
9.175457,0.6056,0.8144,0.0380,0.1269,0.4382,-0.0061,-25.0588,14.5180,35.7826,
9.188856,0.6056,0.8144,0.0380,0.1269,0.4382,-0.0061,-25.7420,14.2496,35.3434,
9.218247,0.6056,0.8144,0.0380,0.1139,0.6157,-0.1250,-25.7420,14.2496,35.3434,
9.239278,0.8865,1.0810,0.7373,0.1139,0.6157,-0.1250,-25.7420,14.2496,35.3434,
9.242583,0.8865,1.0810,0.7373,0.1139,0.6157,-0.1250,-25.7420,14.2496,35.3434,
9.245049,0.8865,1.0810,0.7373,0.1139,0.6157,-0.1250,-25.7420,14.2496,35.3434,
9.247470,0.8865,1.0810,0.7373,0.1139,0.6157,-0.1250,-25.7420,14.2496,35.3434,
9.249928,0.8865,1.0810,0.7373,0.1139,0.6157,-0.1250,-25.7420,14.2496,35.3434,
9.252139,0.8865,1.0810,0.7373,0.1139,0.6157,-0.1250,-26.4252,14.2008,34.8066,
9.289013,0.8865,1.0810,0.7373,0.4069,0.0931,0.1905,-26.4252,14.2008,34.8066,
9.306815,0.8865,1.0810,0.7373,0.4069,0.0931,0.1905,-26.4252,14.2008,34.8066,
9.309370,0.8865,1.0810,0.7373,0.4069,0.0931,0.1905,-26.4252,14.2008,34.8066,
9.311160,0.8865,1.0810,0.7373,0.4069,0.0931,0.1905,-26.4252,14.2008,34.8066,
9.312897,0.0458,0.0750,-0.5773,0.4069,0.0931,0.1905,-26.4252,14.2008,34.8066,
9.321355,0.0458,0.0750,-0.5773,0.4069,0.0931,0.1905,-26.9376,14.3106,34.3918,
9.358402,0.0458,0.0750,-0.5773,0.4550,0.7221,0.1619,-26.9376,14.3106,34.3918,
9.373019,0.0458,0.0750,-0.5773,0.4550,0.7221,0.1619,-26.9376,14.3106,34.3918,
9.375583,0.0458,0.0750,-0.5773,0.4550,0.7221,0.1619,-26.9376,14.3106,34.3918,
9.377610,0.0458,0.0750,-0.5773,0.4550,0.7221,0.1619,-26.9376,14.3106,34.3918,
9.379672,0.0458,0.0750,-0.5773,0.4550,0.7221,0.1619,-27.4500,14.6034,33.8672,
9.382452,1.0184,-0.9289,-0.0752,0.4550,0.7221,0.1619,-27.4500,14.6034,33.8672,
9.428261,1.0184,-0.9289,-0.0752,0.1900,0.7984,0.1992,-27.4500,14.6034,33.8672,
9.438358,1.0184,-0.9289,-0.0752,0.1900,0.7984,0.1992,-28.0966,15.0670,33.1474,
9.440967,1.0184,-0.9289,-0.0752,0.1900,0.7984,0.1992,-28.0966,15.0670,33.1474,
9.442635,1.0184,-0.9289,-0.0752,0.1900,0.7984,0.1992,-28.0966,15.0670,33.1474,
9.444503,1.0184,-0.9289,-0.0752,0.1900,0.7984,0.1992,-28.0966,15.0670,33.1474,
9.446173,1.0184,-0.9289,-0.0752,0.1900,0.7984,0.1992,-28.0966,15.0670,33.1474,
9.448039,-0.9462,1.7776,-0.6026,0.1900,0.7984,0.1992,-28.0966,15.0670,33.1474,
9.498061,-0.9462,1.7776,-0.6026,0.1900,0.7984,0.1992,-28.8408,15.6160,32.2446,
9.501192,-0.9462,1.7776,-0.6026,0.1079,0.7867,0.1381,-28.8408,15.6160,32.2446,
9.505169,-0.9462,1.7776,-0.6026,0.1079,0.7867,0.1381,-28.8408,15.6160,32.2446,
9.507033,-0.9462,1.7776,-0.6026,0.1079,0.7867,0.1381,-28.8408,15.6160,32.2446,
9.508682,-0.9462,1.7776,-0.6026,0.1079,0.7867,0.1381,-28.8408,15.6160,32.2446,
9.517447,-0.3744,-0.2826,-0.2727,0.1079,0.7867,0.1381,-28.8408,15.6160,32.2446,
9.557222,-0.3744,-0.2826,-0.2727,0.1079,0.7867,0.1381,-29.7192,16.2626,31.1466,
9.566812,-0.3744,-0.2826,-0.2727,0.3000,0.9092,-0.0442,-29.7192,16.2626,31.1466,
9.571574,-0.3744,-0.2826,-0.2727,0.3000,0.9092,-0.0442,-29.7192,16.2626,31.1466,
9.573971,-0.3744,-0.2826,-0.2727,0.3000,0.9092,-0.0442,-29.7192,16.2626,31.1466,
9.576677,-0.3744,-0.2826,-0.2727,0.3000,0.9092,-0.0442,-29.7192,16.2626,31.1466,
9.587395,-0.4503,0.5580,-0.4321,0.3000,0.9092,-0.0442,-29.7192,16.2626,31.1466,
9.614659,-0.4503,0.5580,-0.4321,0.3000,0.9092,-0.0442,-30.7196,16.8848,29.8656,
9.638819,-0.4503,0.5580,-0.4321,0.1491,0.5310,-0.1844,-30.7196,16.8848,29.8656,
9.639455,-0.4503,0.5580,-0.4321,0.1491,0.5310,-0.1844,-30.7196,16.8848,29.8656,
9.639676,-0.4503,0.5580,-0.4321,0.1491,0.5310,-0.1844,-30.7196,16.8848,29.8656,
9.639880,-0.4503,0.5580,-0.4321,0.1491,0.5310,-0.1844,-30.7196,16.8848,29.8656,
9.640089,-0.4503,0.5580,-0.4321,0.1491,0.5310,-0.1844,-30.7196,16.8848,29.8656,
9.654633,-1.0302,0.9030,0.1306,0.1491,0.5310,-0.1844,-30.7196,16.8848,29.8656,
9.676592,-1.0302,0.9030,0.1306,0.1491,0.5310,-0.1844,-31.6590,17.3972,28.6334,
9.705722,-1.0302,0.9030,0.1306,-0.0410,0.2963,-0.3008,-31.6590,17.3972,28.6334,
9.707485,-1.0302,0.9030,0.1306,-0.0410,0.2963,-0.3008,-31.6590,17.3972,28.6334,
9.708546,-1.0302,0.9030,0.1306,-0.0410,0.2963,-0.3008,-31.6590,17.3972,28.6334,
9.709561,-1.0302,0.9030,0.1306,-0.0410,0.2963,-0.3008,-31.6590,17.3972,28.6334,
9.726351,0.4091,-1.4332,-0.3219,-0.0410,0.2963,-0.3008,-31.6590,17.3972,28.6334,
9.735994,0.4091,-1.4332,-0.3219,-0.0410,0.2963,-0.3008,-32.6228,17.8730,27.3646,
9.773022,0.4091,-1.4332,-0.3219,-0.0410,0.2963,-0.3008,-32.6228,17.8730,27.3646,
9.774438,0.4091,-1.4332,-0.3219,-0.0410,0.2963,-0.3008,-32.6228,17.8730,27.3646,
9.775342,0.4091,-1.4332,-0.3219,-0.0410,0.2963,-0.3008,-32.6228,17.8730,27.3646,
9.776178,0.4091,-1.4332,-0.3219,0.1024,0.0084,0.0210,-32.6228,17.8730,27.3646,
9.797476,0.4091,-1.4332,-0.3219,0.1024,0.0084,0.0210,-33.4890,18.2756,26.0836,
9.798354,0.3126,-1.6536,0.2708,0.1024,0.0084,0.0210,-33.4890,18.2756,26.0836,
9.839148,0.3126,-1.6536,0.2708,0.1024,0.0084,0.0210,-33.4890,18.2756,26.0836,
9.840129,0.3126,-1.6536,0.2708,0.1024,0.0084,0.0210,-33.4890,18.2756,26.0836,
9.840617,0.3126,-1.6536,0.2708,0.1024,0.0084,0.0210,-33.4890,18.2756,26.0836,
9.841120,0.3126,-1.6536,0.2708,0.1024,0.0084,0.0210,-33.4890,18.2756,26.0836,
9.845471,0.3126,-1.6536,0.2708,0.1515,-0.0109,0.0192,-33.4890,18.2756,26.0836,
9.855362,0.3126,-1.6536,0.2708,0.1515,-0.0109,0.0192,-34.2942,18.6172,24.9490,
9.865406,-0.6432,0.3890,0.9541,0.1515,-0.0109,0.0192,-34.2942,18.6172,24.9490,
9.907998,-0.6432,0.3890,0.9541,0.1515,-0.0109,0.0192,-34.2942,18.6172,24.9490,
9.909466,-0.6432,0.3890,0.9541,0.1515,-0.0109,0.0192,-34.2942,18.6172,24.9490,
9.910210,-0.6432,0.3890,0.9541,0.1515,-0.0109,0.0192,-34.2942,18.6172,24.9490,
9.916007,-0.6432,0.3890,0.9541,0.1515,-0.0109,0.0192,-34.8798,18.7880,24.0584,
9.917111,-0.6432,0.3890,0.9541,-0.0502,-0.2115,-0.1023,-34.8798,18.7880,24.0584,
9.935768,0.4456,0.8388,0.0387,-0.0502,-0.2115,-0.1023,-34.8798,18.7880,24.0584,
9.975300,0.4456,0.8388,0.0387,-0.0502,-0.2115,-0.1023,-35.3190,18.9100,23.4728,
9.977116,0.4456,0.8388,0.0387,-0.0502,-0.2115,-0.1023,-35.3190,18.9100,23.4728,
9.978090,0.4456,0.8388,0.0387,-0.0502,-0.2115,-0.1023,-35.3190,18.9100,23.4728,
9.979226,0.4456,0.8388,0.0387,-0.0502,-0.2115,-0.1023,-35.3190,18.9100,23.4728,
9.985569,0.4456,0.8388,0.0387,-0.0389,-0.0955,0.1393,-35.3190,18.9100,23.4728,
10.006412,0.5480,0.2148,-0.2694,-0.0389,-0.0955,0.1393,-35.3190,18.9100,23.4728,
10.037043,0.5480,0.2148,-0.2694,-0.0389,-0.0955,0.1393,-35.5508,18.9222,23.1556,
10.038577,0.5480,0.2148,-0.2694,-0.0389,-0.0955,0.1393,-35.5508,18.9222,23.1556,
10.039641,0.5480,0.2148,-0.2694,-0.0389,-0.0955,0.1393,-35.5508,18.9222,23.1556,
10.040432,0.5480,0.2148,-0.2694,-0.0389,-0.0955,0.1393,-35.5508,18.9222,23.1556,
10.041198,0.5480,0.2148,-0.2694,-0.0389,-0.0955,0.1393,-35.5508,18.9222,23.1556,
10.057239,0.5480,0.2148,-0.2694,0.0951,-0.0348,0.0072,-35.5508,18.9222,23.1556,
10.076824,0.6837,0.3006,0.1338,0.0951,-0.0348,0.0072,-35.5508,18.9222,23.1556,
10.096685,0.6837,0.3006,0.1338,0.0951,-0.0348,0.0072,-35.6362,18.9954,23.0214,
10.106205,0.6837,0.3006,0.1338,0.0951,-0.0348,0.0072,-35.6362,18.9954,23.0214,
10.107301,0.6837,0.3006,0.1338,0.0951,-0.0348,0.0072,-35.6362,18.9954,23.0214,
10.107957,0.6837,0.3006,0.1338,0.0951,-0.0348,0.0072,-35.6362,18.9954,23.0214,
10.125381,0.6837,0.3006,0.1338,-0.1727,0.2132,0.0073,-35.6362,18.9954,23.0214,
10.144983,0.5266,-0.1162,0.5172,-0.1727,0.2132,0.0073,-35.6362,18.9954,23.0214,
10.154549,0.5266,-0.1162,0.5172,-0.1727,0.2132,0.0073,-35.7338,19.0930,22.8628,
10.172560,0.5266,-0.1162,0.5172,-0.1727,0.2132,0.0073,-35.7338,19.0930,22.8628,
10.175431,0.5266,-0.1162,0.5172,-0.1727,0.2132,0.0073,-35.7338,19.0930,22.8628,
10.176949,0.5266,-0.1162,0.5172,-0.1727,0.2132,0.0073,-35.7338,19.0930,22.8628,
10.195260,0.5266,-0.1162,0.5172,-0.0101,0.1160,0.0127,-35.7338,19.0930,22.8628,
10.215284,0.5266,-0.1162,0.5172,-0.0101,0.1160,0.0127,-35.6484,19.1784,22.8994,
10.219129,-0.1625,-0.2945,-0.0010,-0.0101,0.1160,0.0127,-35.6484,19.1784,22.8994,
10.240183,-0.1625,-0.2945,-0.0010,-0.0101,0.1160,0.0127,-35.6484,19.1784,22.8994,
10.243359,-0.1625,-0.2945,-0.0010,-0.0101,0.1160,0.0127,-35.6484,19.1784,22.8994,
10.245495,-0.1625,-0.2945,-0.0010,-0.0101,0.1160,0.0127,-35.6484,19.1784,22.8994,
10.247720,-0.1625,-0.2945,-0.0010,-0.0101,0.1160,0.0127,-35.6484,19.1784,22.8994,
10.264943,-0.1625,-0.2945,-0.0010,0.0880,-0.0109,-0.0040,-35.6484,19.1784,22.8994,
10.274984,-0.1625,-0.2945,-0.0010,0.0880,-0.0109,-0.0040,-35.6240,19.3004,22.8872,
10.285458,0.2863,0.3980,-0.0213,0.0880,-0.0109,-0.0040,-35.6240,19.3004,22.8872,
10.305199,0.2863,0.3980,-0.0213,0.0880,-0.0109,-0.0040,-35.6240,19.3004,22.8872,
10.307568,0.2863,0.3980,-0.0213,0.0880,-0.0109,-0.0040,-35.6240,19.3004,22.8872,
10.309185,0.2863,0.3980,-0.0213,0.0880,-0.0109,-0.0040,-35.6240,19.3004,22.8872,
10.334582,0.2863,0.3980,-0.0213,0.0880,-0.0109,-0.0040,-35.6118,19.2638,22.9360,
10.338233,0.2863,0.3980,-0.0213,-0.2129,0.0638,0.0306,-35.6118,19.2638,22.9360,
10.358159,-0.0307,-0.4177,0.2051,-0.2129,0.0638,0.0306,-35.6118,19.2638,22.9360,
10.372701,-0.0307,-0.4177,0.2051,-0.2129,0.0638,0.0306,-35.6118,19.2638,22.9360,
10.374321,-0.0307,-0.4177,0.2051,-0.2129,0.0638,0.0306,-35.6118,19.2638,22.9360,
10.376161,-0.0307,-0.4177,0.2051,-0.2129,0.0638,0.0306,-35.6118,19.2638,22.9360,
10.377444,-0.0307,-0.4177,0.2051,-0.2129,0.0638,0.0306,-35.6118,19.2638,22.9360,
10.394291,-0.0307,-0.4177,0.2051,-0.2129,0.0638,0.0306,-35.6484,19.2638,22.9848,
10.403863,-0.0307,-0.4177,0.2051,-0.1234,0.0286,0.0322,-35.6484,19.2638,22.9848,
10.423272,-0.1050,-0.5304,0.4047,-0.1234,0.0286,0.0322,-35.6484,19.2638,22.9848,
10.438015,-0.1050,-0.5304,0.4047,-0.1234,0.0286,0.0322,-35.6484,19.2638,22.9848,
10.440300,-0.1050,-0.5304,0.4047,-0.1234,0.0286,0.0322,-35.6484,19.2638,22.9848,
10.441956,-0.1050,-0.5304,0.4047,-0.1234,0.0286,0.0322,-35.6484,19.2638,22.9848,
10.452264,-0.1050,-0.5304,0.4047,-0.1234,0.0286,0.0322,-35.6728,19.2394,22.9726,
10.474022,-0.1050,-0.5304,0.4047,0.1168,-0.1121,0.0337,-35.6728,19.2394,22.9726,
10.492680,-0.0907,0.2940,-0.3477,0.1168,-0.1121,0.0337,-35.6728,19.2394,22.9726,
10.504426,-0.0907,0.2940,-0.3477,0.1168,-0.1121,0.0337,-35.6728,19.2394,22.9726,
10.505478,-0.0907,0.2940,-0.3477,0.1168,-0.1121,0.0337,-35.6728,19.2394,22.9726,
10.506169,-0.0907,0.2940,-0.3477,0.1168,-0.1121,0.0337,-35.6728,19.2394,22.9726,
10.512841,-0.0907,0.2940,-0.3477,0.1168,-0.1121,0.0337,-35.6728,19.2028,23.0092,
10.544352,-0.0907,0.2940,-0.3477,-0.1426,0.0169,0.0285,-35.6728,19.2028,23.0092,
10.563799,-0.0330,-0.3868,0.1788,-0.1426,0.0169,0.0285,-35.6728,19.2028,23.0092,
10.572050,-0.0330,-0.3868,0.1788,-0.1426,0.0169,0.0285,-35.7216,19.1418,22.9482,
10.575371,-0.0330,-0.3868,0.1788,-0.1426,0.0169,0.0285,-35.7216,19.1418,22.9482,
10.577999,-0.0330,-0.3868,0.1788,-0.1426,0.0169,0.0285,-35.7216,19.1418,22.9482,
10.579782,-0.0330,-0.3868,0.1788,-0.1426,0.0169,0.0285,-35.7216,19.1418,22.9482,
10.580824,-0.0330,-0.3868,0.1788,-0.1426,0.0169,0.0285,-35.7216,19.1418,22.9482,
10.613970,-0.0330,-0.3868,0.1788,-0.2241,0.0859,-0.0184,-35.7216,19.1418,22.9482,
10.634009,-0.0330,-0.3868,0.1788,-0.2241,0.0859,-0.0184,-35.7216,19.1052,22.9848,
10.637031,0.0247,0.1899,-0.0868,-0.2241,0.0859,-0.0184,-35.7216,19.1052,22.9848,
10.640230,0.0247,0.1899,-0.0868,-0.2241,0.0859,-0.0184,-35.7216,19.1052,22.9848,
10.642303,0.0247,0.1899,-0.0868,-0.2241,0.0859,-0.0184,-35.7216,19.1052,22.9848,
10.644334,0.0247,0.1899,-0.0868,-0.2241,0.0859,-0.0184,-35.7216,19.1052,22.9848,
10.684055,0.0247,0.1899,-0.0868,0.1633,-0.0973,0.0927,-35.7216,19.1052,22.9848,
10.695660,0.0247,0.1899,-0.0868,0.1633,-0.0973,0.0927,-35.7338,19.0564,23.0458,
10.703351,-0.3178,-0.7140,-0.8961,0.1633,-0.0973,0.0927,-35.7338,19.0564,23.0458,
10.706796,-0.3178,-0.7140,-0.8961,0.1633,-0.0973,0.0927,-35.7338,19.0564,23.0458,
10.708644,-0.3178,-0.7140,-0.8961,0.1633,-0.0973,0.0927,-35.7338,19.0564,23.0458,
10.710422,-0.3178,-0.7140,-0.8961,0.1633,-0.0973,0.0927,-35.7338,19.0564,23.0458,
10.752849,-0.3178,-0.7140,-0.8961,0.1633,-0.0973,0.0927,-35.6972,19.0198,23.2166,
10.756425,-0.3178,-0.7140,-0.8961,0.1760,-0.2304,0.0631,-35.6972,19.0198,23.2166,
10.772657,-0.1292,0.5276,-0.2655,0.1760,-0.2304,0.0631,-35.6972,19.0198,23.2166,
10.777360,-0.1292,0.5276,-0.2655,0.1760,-0.2304,0.0631,-35.6972,19.0198,23.2166,
10.779983,-0.1292,0.5276,-0.2655,0.1760,-0.2304,0.0631,-35.6972,19.0198,23.2166,
10.782217,-0.1292,0.5276,-0.2655,0.1760,-0.2304,0.0631,-35.6972,19.0198,23.2166,
10.783881,-0.1292,0.5276,-0.2655,0.1760,-0.2304,0.0631,-35.6972,19.0198,23.2166,
10.813820,-0.1292,0.5276,-0.2655,0.1760,-0.2304,0.0631,-35.5508,19.0198,23.4606,
10.825588,-0.1292,0.5276,-0.2655,-0.3051,-0.1874,0.0770,-35.5508,19.0198,23.4606,
10.842603,-0.1292,0.5276,-0.2655,-0.3051,-0.1874,0.0770,-35.5508,19.0198,23.4606,
10.845805,-0.1292,0.5276,-0.2655,-0.3051,-0.1874,0.0770,-35.5508,19.0198,23.4606,
10.848656,-0.1292,0.5276,-0.2655,-0.3051,-0.1874,0.0770,-35.5508,19.0198,23.4606,
10.851645,0.1426,-0.1480,0.5640,-0.3051,-0.1874,0.0770,-35.5508,19.0198,23.4606,
10.871168,0.1426,-0.1480,0.5640,-0.3051,-0.1874,0.0770,-35.3312,18.9222,23.7656,
10.892766,0.1426,-0.1480,0.5640,-0.3044,-0.0353,0.0517,-35.3312,18.9222,23.7656,
10.905880,0.1426,-0.1480,0.5640,-0.3044,-0.0353,0.0517,-35.3312,18.9222,23.7656,
10.909325,0.1426,-0.1480,0.5640,-0.3044,-0.0353,0.0517,-35.3312,18.9222,23.7656,
10.912171,0.1426,-0.1480,0.5640,-0.3044,-0.0353,0.0517,-35.3312,18.9222,23.7656,
10.914697,0.3073,-0.2841,0.2199,-0.3044,-0.0353,0.0517,-35.3312,18.9222,23.7656,
10.932229,0.3073,-0.2841,0.2199,-0.3044,-0.0353,0.0517,-35.1726,18.9222,23.9730,
10.962199,0.3073,-0.2841,0.2199,0.1972,-0.0526,0.0182,-35.1726,18.9222,23.9730,
10.975098,0.3073,-0.2841,0.2199,0.1972,-0.0526,0.0182,-35.1726,18.9222,23.9730,
10.977557,0.3073,-0.2841,0.2199,0.1972,-0.0526,0.0182,-35.1726,18.9222,23.9730,
10.980150,0.3073,-0.2841,0.2199,0.1972,-0.0526,0.0182,-35.1726,18.9222,23.9730,
10.983247,0.3073,-0.2841,0.2199,0.1972,-0.0526,0.0182,-35.1726,18.9222,23.9730,
10.985365,-0.2840,-0.0061,-0.3494,0.1972,-0.0526,0.0182,-35.1726,18.9222,23.9730,
10.991697,-0.2840,-0.0061,-0.3494,0.1972,-0.0526,0.0182,-35.0872,18.9466,24.0950,
11.032072,-0.2840,-0.0061,-0.3494,-0.0798,-0.0341,0.0198,-35.0872,18.9466,24.0950,
11.042421,-0.2840,-0.0061,-0.3494,-0.0798,-0.0341,0.0198,-35.0872,18.9466,24.0950,
11.045540,-0.2840,-0.0061,-0.3494,-0.0798,-0.0341,0.0198,-35.0872,18.9466,24.0950,
11.048577,-0.2840,-0.0061,-0.3494,-0.0798,-0.0341,0.0198,-35.0872,18.9466,24.0950,
11.053830,-0.2840,-0.0061,-0.3494,-0.0798,-0.0341,0.0198,-34.9286,18.9832,24.3268,
11.055640,-0.2936,0.3565,0.0635,-0.0798,-0.0341,0.0198,-34.9286,18.9832,24.3268,
11.102632,-0.2936,0.3565,0.0635,-0.2743,-0.1479,0.1000,-34.9286,18.9832,24.3268,
11.106361,-0.2936,0.3565,0.0635,-0.2743,-0.1479,0.1000,-34.9286,18.9832,24.3268,
11.109026,-0.2936,0.3565,0.0635,-0.2743,-0.1479,0.1000,-34.9286,18.9832,24.3268,
11.111707,-0.2936,0.3565,0.0635,-0.2743,-0.1479,0.1000,-34.9286,18.9832,24.3268,
11.114259,-0.2936,0.3565,0.0635,-0.2743,-0.1479,0.1000,-34.7700,19.0320,24.5830,
11.121295,-0.1107,-0.2506,0.2091,-0.2743,-0.1479,0.1000,-34.7700,19.0320,24.5830,
11.172957,-0.1107,-0.2506,0.2091,-0.2743,-0.1479,0.1000,-34.5260,19.0320,24.8758,
11.175924,-0.1107,-0.2506,0.2091,-0.0352,-0.1762,0.1406,-34.5260,19.0320,24.8758,
11.177923,-0.1107,-0.2506,0.2091,-0.0352,-0.1762,0.1406,-34.5260,19.0320,24.8758,
11.180359,-0.1107,-0.2506,0.2091,-0.0352,-0.1762,0.1406,-34.5260,19.0320,24.8758,
11.182397,-0.1107,-0.2506,0.2091,-0.0352,-0.1762,0.1406,-34.5260,19.0320,24.8758,
11.184534,-0.1107,-0.2506,0.2091,-0.0352,-0.1762,0.1406,-34.5260,19.0320,24.8758,
11.191321,-0.1438,-0.6554,0.0076,-0.0352,-0.1762,0.1406,-34.5260,19.0320,24.8758,
11.231656,-0.1438,-0.6554,0.0076,-0.0352,-0.1762,0.1406,-34.3064,19.0442,25.1320,
11.238509,-0.1438,-0.6554,0.0076,-0.0352,-0.1762,0.1406,-34.3064,19.0442,25.1320,
11.241538,-0.1438,-0.6554,0.0076,-0.0352,-0.1762,0.1406,-34.3064,19.0442,25.1320,
11.244233,-0.1438,-0.6554,0.0076,-0.0352,-0.1762,0.1406,-34.3064,19.0442,25.1320,
11.246684,-0.1438,-0.6554,0.0076,0.1188,-0.1364,0.0527,-34.3064,19.0442,25.1320,
11.260574,0.3546,0.7532,0.0968,0.1188,-0.1364,0.0527,-34.3064,19.0442,25.1320,
11.291553,0.3546,0.7532,0.0968,0.1188,-0.1364,0.0527,-34.1356,19.0808,25.3150,
11.306217,0.3546,0.7532,0.0968,0.1188,-0.1364,0.0527,-34.1356,19.0808,25.3150,
11.309420,0.3546,0.7532,0.0968,0.1188,-0.1364,0.0527,-34.1356,19.0808,25.3150,
11.311631,0.3546,0.7532,0.0968,0.1188,-0.1364,0.0527,-34.1356,19.0808,25.3150,
11.313808,0.3546,0.7532,0.0968,-0.1165,-0.0386,0.0795,-34.1356,19.0808,25.3150,
11.330679,-0.0837,-0.2127,0.2055,-0.1165,-0.0386,0.0795,-34.1356,19.0808,25.3150,
11.349853,-0.0837,-0.2127,0.2055,-0.1165,-0.0386,0.0795,-34.0014,19.2028,25.4248,
11.373216,-0.0837,-0.2127,0.2055,-0.1165,-0.0386,0.0795,-34.0014,19.2028,25.4248,
11.376790,-0.0837,-0.2127,0.2055,-0.1165,-0.0386,0.0795,-34.0014,19.2028,25.4248,
11.380033,-0.0837,-0.2127,0.2055,-0.1165,-0.0386,0.0795,-34.0014,19.2028,25.4248,
11.382542,-0.0837,-0.2127,0.2055,-0.1165,-0.0386,0.0795,-34.0014,19.2028,25.4248,
11.384549,-0.0837,-0.2127,0.2055,-0.0751,-0.0399,-0.0221,-34.0014,19.2028,25.4248,
11.399387,0.0641,-0.1931,-0.1177,-0.0751,-0.0399,-0.0221,-34.0014,19.2028,25.4248,
11.409165,0.0641,-0.1931,-0.1177,-0.0751,-0.0399,-0.0221,-33.8184,19.2516,25.6688,
11.440085,0.0641,-0.1931,-0.1177,-0.0751,-0.0399,-0.0221,-33.8184,19.2516,25.6688,
11.443958,0.0641,-0.1931,-0.1177,-0.0751,-0.0399,-0.0221,-33.8184,19.2516,25.6688,
11.447202,0.0641,-0.1931,-0.1177,-0.0751,-0.0399,-0.0221,-33.8184,19.2516,25.6688,
11.452646,0.0641,-0.1931,-0.1177,0.0878,-0.0233,-0.0278,-33.8184,19.2516,25.6688,
11.470345,0.0641,-0.1931,-0.1177,0.0878,-0.0233,-0.0278,-33.6598,19.2760,25.9006,
11.473710,-0.2269,-0.0651,-0.2189,0.0878,-0.0233,-0.0278,-33.6598,19.2760,25.9006,
11.506191,-0.2269,-0.0651,-0.2189,0.0878,-0.0233,-0.0278,-33.6598,19.2760,25.9006,
11.509683,-0.2269,-0.0651,-0.2189,0.0878,-0.0233,-0.0278,-33.6598,19.2760,25.9006,
11.512449,-0.2269,-0.0651,-0.2189,0.0878,-0.0233,-0.0278,-33.6598,19.2760,25.9006,
11.520379,-0.2269,-0.0651,-0.2189,0.1003,-0.0855,-0.0317,-33.6598,19.2760,25.9006,
11.531697,-0.2269,-0.0651,-0.2189,0.1003,-0.0855,-0.0317,-33.4890,19.2516,26.1568,
11.540337,0.0497,0.1012,-0.2221,0.1003,-0.0855,-0.0317,-33.4890,19.2516,26.1568,
11.572670,0.0497,0.1012,-0.2221,0.1003,-0.0855,-0.0317,-33.4890,19.2516,26.1568,
11.576028,0.0497,0.1012,-0.2221,0.1003,-0.0855,-0.0317,-33.4890,19.2516,26.1568,
11.579227,0.0497,0.1012,-0.2221,0.1003,-0.0855,-0.0317,-33.4890,19.2516,26.1568,
11.581759,0.0497,0.1012,-0.2221,0.1003,-0.0855,-0.0317,-33.4890,19.2516,26.1568,
11.591668,0.0497,0.1012,-0.2221,0.1003,-0.0855,-0.0317,-33.3548,19.2882,26.3154,
11.593503,0.0497,0.1012,-0.2221,0.0228,0.0613,-0.0083,-33.3548,19.2882,26.3154,
11.610237,0.0150,-0.2271,0.0836,0.0228,0.0613,-0.0083,-33.3548,19.2882,26.3154,
11.639555,0.0150,-0.2271,0.0836,0.0228,0.0613,-0.0083,-33.3548,19.2882,26.3154,
11.642478,0.0150,-0.2271,0.0836,0.0228,0.0613,-0.0083,-33.3548,19.2882,26.3154,
11.644813,0.0150,-0.2271,0.0836,0.0228,0.0613,-0.0083,-33.3548,19.2882,26.3154,
11.650239,0.0150,-0.2271,0.0836,0.0228,0.0613,-0.0083,-33.2938,19.3492,26.4008,
11.661014,0.0150,-0.2271,0.0836,0.0344,0.0232,-0.0502,-33.2938,19.3492,26.4008,
11.680148,-0.4962,0.0204,-0.2282,0.0344,0.0232,-0.0502,-33.2938,19.3492,26.4008,
11.705527,-0.4962,0.0204,-0.2282,0.0344,0.0232,-0.0502,-33.2938,19.3492,26.4008,
11.708829,-0.4962,0.0204,-0.2282,0.0344,0.0232,-0.0502,-33.2938,19.3492,26.4008,
11.711681,-0.4962,0.0204,-0.2282,0.0344,0.0232,-0.0502,-33.2938,19.3492,26.4008,
11.714281,-0.4962,0.0204,-0.2282,0.0344,0.0232,-0.0502,-33.2938,19.3614,26.4374,
11.727948,-0.4962,0.0204,-0.2282,0.0383,-0.1803,0.0152,-33.2938,19.3614,26.4374,
11.749790,-0.1807,0.1171,-0.1887,0.0383,-0.1803,0.0152,-33.2938,19.3614,26.4374,
11.769483,-0.1807,0.1171,-0.1887,0.0383,-0.1803,0.0152,-33.2206,19.3614,26.4984,
11.773796,-0.1807,0.1171,-0.1887,0.0383,-0.1803,0.0152,-33.2206,19.3614,26.4984,
11.776622,-0.1807,0.1171,-0.1887,0.0383,-0.1803,0.0152,-33.2206,19.3614,26.4984,
11.779690,-0.1807,0.1171,-0.1887,0.0383,-0.1803,0.0152,-33.2206,19.3614,26.4984,
11.780971,-0.1807,0.1171,-0.1887,0.0383,-0.1803,0.0152,-33.2206,19.3614,26.4984,
11.799282,-0.1807,0.1171,-0.1887,-0.0310,-0.1996,0.0627,-33.2206,19.3614,26.4984,
11.819684,-0.0746,-0.1197,0.1240,-0.0310,-0.1996,0.0627,-33.2206,19.3614,26.4984,
11.828945,-0.0746,-0.1197,0.1240,-0.0310,-0.1996,0.0627,-33.1596,19.3980,26.6082,
11.838791,-0.0746,-0.1197,0.1240,-0.0310,-0.1996,0.0627,-33.1596,19.3980,26.6082,
11.841851,-0.0746,-0.1197,0.1240,-0.0310,-0.1996,0.0627,-33.1596,19.3980,26.6082,
11.845197,-0.0746,-0.1197,0.1240,-0.0310,-0.1996,0.0627,-33.1596,19.3980,26.6082,
11.869540,-0.0746,-0.1197,0.1240,-0.0057,-0.1814,0.0264,-33.1596,19.3980,26.6082,
11.888538,0.1141,-0.0670,0.1362,-0.0057,-0.1814,0.0264,-33.1596,19.3980,26.6082,
11.891909,0.1141,-0.0670,0.1362,-0.0057,-0.1814,0.0264,-33.0376,19.4468,26.7180,
11.906598,0.1141,-0.0670,0.1362,-0.0057,-0.1814,0.0264,-33.0376,19.4468,26.7180,
11.910016,0.1141,-0.0670,0.1362,-0.0057,-0.1814,0.0264,-33.0376,19.4468,26.7180,
11.913085,0.1141,-0.0670,0.1362,-0.0057,-0.1814,0.0264,-33.0376,19.4468,26.7180,
11.938995,0.1141,-0.0670,0.1362,0.1601,-0.1613,0.0173,-33.0376,19.4468,26.7180,
11.955662,0.1141,-0.0670,0.1362,0.1601,-0.1613,0.0173,-32.8668,19.4956,26.8400,
11.959075,0.1754,0.1260,-0.1562,0.1601,-0.1613,0.0173,-32.8668,19.4956,26.8400,
11.971593,0.1754,0.1260,-0.1562,0.1601,-0.1613,0.0173,-32.8668,19.4956,26.8400,
11.973493,0.1754,0.1260,-0.1562,0.1601,-0.1613,0.0173,-32.8668,19.4956,26.8400,
11.975084,0.1754,0.1260,-0.1562,0.1601,-0.1613,0.0173,-32.8668,19.4956,26.8400,
11.976718,0.1754,0.1260,-0.1562,0.1601,-0.1613,0.0173,-32.8668,19.4956,26.8400,
12.008651,0.1754,0.1260,-0.1562,0.1601,-0.1613,0.0173,-32.7082,19.5932,26.9742,
12.011925,0.1754,0.1260,-0.1562,-0.0052,-0.0543,0.0085,-32.7082,19.5932,26.9742,
12.028764,0.2600,0.1490,0.0683,-0.0052,-0.0543,0.0085,-32.7082,19.5932,26.9742,
12.039885,0.2600,0.1490,0.0683,-0.0052,-0.0543,0.0085,-32.7082,19.5932,26.9742,
12.042145,0.2600,0.1490,0.0683,-0.0052,-0.0543,0.0085,-32.7082,19.5932,26.9742,
12.044356,0.2600,0.1490,0.0683,-0.0052,-0.0543,0.0085,-32.7082,19.5932,26.9742,
12.069031,0.2600,0.1490,0.0683,-0.0052,-0.0543,0.0085,-32.5130,19.6908,27.1328,
12.078661,0.2600,0.1490,0.0683,0.0650,0.0743,0.0138,-32.5130,19.6908,27.1328,
12.096915,0.2049,-0.0405,0.0347,0.0650,0.0743,0.0138,-32.5130,19.6908,27.1328,
12.105423,0.2049,-0.0405,0.0347,0.0650,0.0743,0.0138,-32.5130,19.6908,27.1328,
12.106129,0.2049,-0.0405,0.0347,0.0650,0.0743,0.0138,-32.5130,19.6908,27.1328,
12.106614,0.2049,-0.0405,0.0347,0.0650,0.0743,0.0138,-32.5130,19.6908,27.1328,
12.128632,0.2049,-0.0405,0.0347,0.0650,0.0743,0.0138,-32.3056,19.7518,27.3524,
12.148721,0.2049,-0.0405,0.0347,-0.0393,0.0409,-0.0751,-32.3056,19.7518,27.3524,
12.169225,0.0471,-0.0690,0.1761,-0.0393,0.0409,-0.0751,-32.3056,19.7518,27.3524,
12.171555,0.0471,-0.0690,0.1761,-0.0393,0.0409,-0.0751,-32.3056,19.7518,27.3524,
12.172876,0.0471,-0.0690,0.1761,-0.0393,0.0409,-0.0751,-32.3056,19.7518,27.3524,
12.174228,0.0471,-0.0690,0.1761,-0.0393,0.0409,-0.0751,-32.3056,19.7518,27.3524,
12.175421,0.0471,-0.0690,0.1761,-0.0393,0.0409,-0.0751,-32.3056,19.7518,27.3524,
