time,ax,ay,az,wx,wy,wz,Bx,By,Bz,Unnamed: 10,time_diff,acc_mag,acc_mag_filtered,label
0.055678,0.0,0.0,0.0,0.0,0.0,0.0,0.0,0.0,0.0,,0.0,0.0,-2.170954180769963e-05,non_fall
0.056136,0.0,0.0,0.0,0.0,0.0,0.0,0.0,0.0,0.0,,0.0004580000000000001,0.0,3.6937843722463845e-05,non_fall
0.099161,0.0,0.0,0.0,0.0064,-0.0064,0.0019,0.0,0.0,0.0,,0.043025,0.0,0.00039574432729068225,non_fall
0.101808,0.0,0.0,0.0,0.0064,-0.0064,0.0019,43.0172,12.261,13.4566,,0.0026469999999999966,0.0,0.0013158285600847312,non_fall
0.109722,0.0,0.0,0.0,0.0064,-0.0064,0.0019,43.0172,12.261,13.4566,,0.007914000000000004,0.0,0.003003449253704155,non_fall
0.117713,0.0,0.0,0.0,0.0064,-0.0064,0.0019,43.0172,12.261,13.4566,,0.007990999999999998,0.0,0.005589124700618986,non_fall
0.119185,0.0,0.0,0.0,0.0064,-0.0064,0.0019,43.0172,12.261,13.4566,,0.001472000000000001,0.0,0.00911360518852766,non_fall
0.11997,0.0,0.0,0.0,0.0064,-0.0064,0.0019,43.0172,12.261,13.4566,,0.000784999999999994,0.0,0.01352254827600533,non_fall
0.15842,0.0,0.0,0.0,0.0064,-0.0064,0.0019,43.0172,12.2732,12.932,,0.03845000000000001,0.0,0.018671183842852213,non_fall
0.169669,0.0,0.0,0.0,-0.018,-0.0364,0.0035,43.0172,12.2732,12.932,,0.011248999999999981,0.0,0.02433931077006701,non_fall
0.18507,-0.0309,0.0434,-0.0189,-0.018,-0.0364,0.0035,43.0172,12.2732,12.932,,0.015401000000000026,0.05652946134539052,0.030255548840779158,non_fall
0.18858,-0.0309,0.0434,-0.0189,-0.018,-0.0364,0.0035,43.0172,12.2732,12.932,,0.0035099999999999854,0.05652946134539052,0.036127986844653535,non_fall
0.190774,-0.0309,0.0434,-0.0189,-0.018,-0.0364,0.0035,43.0172,12.2732,12.932,,0.0021940000000000015,0.05652946134539052,0.041676766554061224,non_fall
0.19328,-0.0309,0.0434,-0.0189,-0.018,-0.0364,0.0035,43.0172,12.2732,12.932,,0.0025060000000000082,0.05652946134539052,0.04666355366140573,non_fall
0.216159,-0.0309,0.0434,-0.0189,-0.018,-0.0364,0.0035,42.9562,12.2488,12.7246,,0.022878999999999983,0.05652946134539052,0.05091368766788237,non_fall
0.237864,-0.0309,0.0434,-0.0189,-0.0515,-0.0447,0.0016,42.9562,12.2488,12.7246,,0.021705000000000002,0.05652946134539052,0.05432862790807226,non_fall
0.248094,0.0342,-0.017,0.042,-0.0515,-0.0447,0.0016,42.9562,12.2488,12.7246,,0.010230000000000017,0.05676830101385808,0.056888264026956674,non_fall
0.252642,0.0342,-0.017,0.042,-0.0515,-0.0447,0.0016,42.9562,12.2488,12.7246,,0.004547999999999969,0.05676830101385808,0.05864416747646803,non_fall
0.255844,0.0342,-0.017,0.042,-0.0515,-0.0447,0.0016,42.9562,12.2488,12.7246,,0.003202000000000038,0.05676830101385808,0.059705800380561946,non_fall
0.257432,0.0342,-0.017,0.042,-0.0515,-0.0447,0.0016,42.9562,12.2488,12.7246,,0.0015879999999999783,0.05676830101385808,0.06022215172749,non_fall
0.259179,0.0342,-0.017,0.042,-0.0515,-0.0447,0.0016,42.9562,12.2488,12.7246,,0.0017469999999999986,0.05676830101385808,0.06036135462526078,non_fall
0.276291,0.0342,-0.017,0.042,-0.0515,-0.0447,0.0016,42.9806,12.2366,12.6148,,0.017112000000000016,0.05676830101385808,0.06029065920821739,non_fall
0.307366,0.0342,-0.017,0.042,-0.0846,-0.0289,0.0029,42.9806,12.2366,12.6148,,0.031074999999999964,0.05676830101385808,0.06015878531850182,non_fall
0.316952,0.0342,-0.017,0.042,-0.0846,-0.0289,0.0029,42.9806,12.2366,12.6148,,0.009586000000000039,0.05676830101385808,0.06008223115451734,non_fall
0.318014,0.0342,-0.017,0.042,-0.0846,-0.0289,0.0029,42.9806,12.2366,12.6148,,0.0010620000000000074,0.05676830101385808,0.06013662262645437,non_fall
0.319043,0.0342,-0.017,0.042,-0.0846,-0.0289,0.0029,42.9806,12.2366,12.6148,,0.0010290000000000021,0.05676830101385808,0.060353686087667884,non_fall
0.319965,0.0015,0.0544,-0.026,-0.0846,-0.0289,0.0029,42.9806,12.2366,12.6148,,0.0009219999999999784,0.0603126023315194,0.060723929759430036,non_fall
0.336618,0.0015,0.0544,-0.026,-0.0846,-0.0289,0.0029,42.9806,12.2122,12.5294,,0.016652999999999973,0.0603126023315194,0.06120463823622077,non_fall
0.378013,0.0015,0.0544,-0.026,-0.1618,-0.023,0.0113,42.9806,12.2122,12.5294,,0.041395000000000015,0.0603126023315194,0.06173234727558811,non_fall
0.385636,0.0015,0.0544,-0.026,-0.1618,-0.023,0.0113,42.9806,12.2122,12.5294,,0.007622999999999991,0.0603126023315194,0.0622386111014179,non_fall
0.38885,0.0015,0.0544,-0.026,-0.1618,-0.023,0.0113,42.9806,12.2122,12.5294,,0.0032139999999999946,0.0603126023315194,0.06266761219321441,non_fall
0.391532,0.0015,0.0544,-0.026,-0.1618,-0.023,0.0113,42.9806,12.2122,12.5294,,0.0026820000000000177,0.0603126023315194,0.06299395254864026,non_fall
0.394149,-0.0142,0.0435,-0.0568,-0.1618,-0.023,0.0113,42.9806,12.2122,12.5294,,0.002617000000000036,0.07293922127360561,0.06323875023184936,non_fall
0.396935,-0.0142,0.0435,-0.0568,-0.1618,-0.023,0.0113,43.005,12.1878,12.505,,0.002785999999999955,0.07293922127360561,0.06348195688152193,non_fall
0.445108,-0.0142,0.0435,-0.0568,-0.1521,-0.0415,0.0145,43.005,12.1878,12.505,,0.04817300000000002,0.07293922127360561,0.06386874713752046,non_fall
0.449279,-0.0142,0.0435,-0.0568,-0.1521,-0.0415,0.0145,43.005,12.1878,12.505,,0.00417099999999998,0.07293922127360561,0.0646081170310513,non_fall
0.451386,-0.0142,0.0435,-0.0568,-0.1521,-0.0415,0.0145,43.005,12.1878,12.505,,0.0021070000000000255,0.07293922127360561,0.06596256940328894,non_fall
0.453206,-0.0142,0.0435,-0.0568,-0.1521,-0.0415,0.0145,43.005,12.1878,12.505,,0.0018199999999999883,0.07293922127360561,0.06822885102148983,non_fall
0.455961,-0.0142,0.0435,-0.0568,-0.1521,-0.0415,0.0145,43.005,12.1878,12.505,,0.0027550000000000074,0.07293922127360561,0.07171090752431036,non_fall
0.457447,-0.0142,0.0435,-0.0568,-0.1521,-0.0415,0.0145,42.9928,12.139,12.4806,,0.0014859999999999873,0.07293922127360561,0.07668733643868969,non_fall
0.459124,-0.0462,-0.0748,-0.0072,-0.1521,-0.0415,0.0145,42.9928,12.139,12.4806,,0.001676999999999984,0.0882117905951353,0.08337650960271158,non_fall
0.515809,-0.0462,-0.0748,-0.0072,-0.1521,-0.0415,0.0145,43.0172,12.078,12.4928,,0.056684999999999985,0.0882117905951353,0.09190312453259221,non_fall
0.518132,-0.0462,-0.0748,-0.0072,-0.1397,-0.014,0.025,43.0172,12.078,12.4928,,0.002323000000000075,0.0882117905951353,0.10227023010841739,non_fall
0.519802,-0.0462,-0.0748,-0.0072,-0.1397,-0.014,0.025,43.0172,12.078,12.4928,,0.0016699999999999493,0.0882117905951353,0.11434078973461183,non_fall
0.521602,-0.0462,-0.0748,-0.0072,-0.1397,-0.014,0.025,43.0172,12.078,12.4928,,0.0018000000000000238,0.0882117905951353,0.12783248046670903,non_fall
0.523194,-0.0462,-0.0748,-0.0072,-0.1397,-0.014,0.025,43.0172,12.078,12.4928,,0.0015920000000000378,0.0882117905951353,0.1423283076618197,non_fall
0.525957,0.1919,-0.0091,0.0911,-0.1397,-0.014,0.025,43.0172,12.078,12.4928,,0.00276299999999996,0.21262085974805012,0.1573033208933715,non_fall
0.577171,0.1919,-0.0091,0.0911,-0.1397,-0.014,0.025,43.0782,11.9926,12.3708,,0.05121399999999998,0.21262085974805012,0.1721643420069969,non_fall
0.584224,0.1919,-0.0091,0.0911,-0.1009,0.0507,-0.0218,43.0782,11.9926,12.3708,,0.007052999999999976,0.21262085974805012,0.18629632609759042,non_fall
0.587955,0.1919,-0.0091,0.0911,-0.1009,0.0507,-0.0218,43.0782,11.9926,12.3708,,0.00373100000000004,0.21262085974805012,0.19910761162343607,non_fall
0.591781,0.1919,-0.0091,0.0911,-0.1009,0.0507,-0.0218,43.0782,11.9926,12.3708,,0.003825999999999996,0.21262085974805012,0.21006780696178035,non_fall
0.593236,0.1919,-0.0091,0.0911,-0.1009,0.0507,-0.0218,43.0782,11.9926,12.3708,,0.001454999999999984,0.21262085974805012,0.2187354369874035,non_fall
0.600619,-0.0865,-0.1545,0.1191,-0.1009,0.0507,-0.0218,43.0782,11.9926,12.3708,,0.007383000000000028,0.21339472814481616,0.224775857671446,non_fall
0.636356,-0.0865,-0.1545,0.1191,-0.1009,0.0507,-0.0218,43.0538,11.895,12.4074,,0.03573700000000002,0.21339472814481616,0.2279721114796429,non_fall
0.650556,-0.0865,-0.1545,0.1191,-0.1009,0.0507,-0.0218,43.0538,11.895,12.4074,,0.01419999999999999,0.21339472814481616,0.22823211215499373,non_fall
0.653293,-0.0865,-0.1545,0.1191,-0.1009,0.0507,-0.0218,43.0538,11.895,12.4074,,0.0027369999999999894,0.21339472814481616,0.22559507440328982,non_fall
0.659096,-0.0865,-0.1545,0.1191,-0.1009,0.0507,-0.0218,43.0538,11.895,12.4074,,0.005803000000000003,0.21339472814481616,0.2202388136933155,non_fall
0.661691,-0.0865,-0.1545,0.1191,-0.1009,0.0507,-0.0218,43.0538,11.895,12.4074,,0.002595000000000014,0.21339472814481616,0.21248782353084905,non_fall
0.66353,-0.0865,-0.1545,0.1191,-0.0672,0.0539,-0.0517,43.0538,11.895,12.4074,,0.001838999999999924,0.21339472814481616,0.20282028808354433,non_fall
0.667683,-0.1164,0.1411,0.0589,-0.0672,0.0539,-0.0517,43.0538,11.895,12.4074,,0.004153000000000073,0.19216498120105027,0.19187078752357833,non_fall
0.695943,-0.1164,0.1411,0.0589,-0.0672,0.0539,-0.0517,43.1026,11.8828,12.4196,,0.028259999999999952,0.19216498120105027,0.18042468885494548,non_fall
0.716889,-0.1164,0.1411,0.0589,-0.0672,0.0539,-0.0517,43.1026,11.8828,12.4196,,0.02094600000000002,0.19216498120105027,0.16940017088386083,non_fall
0.720261,-0.1164,0.1411,0.0589,-0.0672,0.0539,-0.0517,43.1026,11.8828,12.4196,,0.0033720000000000416,0.19216498120105027,0.15981442704871132,non_fall
0.723792,-0.1164,0.1411,0.0589,-0.0672,0.0539,-0.0517,43.1026,11.8828,12.4196,,0.003530999999999951,0.19216498120105027,0.15273182037901054,non_fall
0.7255,-0.1164,0.1411,0.0589,-0.0602,0.0577,-0.0772,43.1026,11.8828,12.4196,,0.0017080000000000428,0.19216498120105027,0.1491938536903556,non_fall
0.734499,-0.0937,0.0788,-0.0584,-0.0602,0.0577,-0.0772,43.1026,11.8828,12.4196,,0.00899899999999998,0.13564545698253222,0.15013399627538151,non_fall
0.75434,-0.0937,0.0788,-0.0584,-0.0602,0.0577,-0.0772,43.1026,11.8096,12.6148,,0.019840999999999998,0.13564545698253222,0.15628447696432346,non_fall
0.784002,-0.0937,0.0788,-0.0584,-0.0602,0.0577,-0.0772,43.1026,11.8096,12.6148,,0.029661999999999966,0.13564545698253222,0.16808619407413647,non_fall
0.785886,-0.0937,0.0788,-0.0584,-0.0602,0.0577,-0.0772,43.1026,11.8096,12.6148,,0.0018839999999999968,0.13564545698253222,0.18561551792577755,non_fall
0.787589,-0.0937,0.0788,-0.0584,-0.0602,0.0577,-0.0772,43.1026,11.8096,12.6148,,0.00170300000000001,0.13564545698253222,0.2085418986906927,non_fall
0.789648,-0.0937,0.0788,-0.0584,-0.0602,0.0577,-0.0772,43.1026,11.8096,12.6148,,0.002059000000000033,0.13564545698253222,0.2361275743221157,non_fall
0.793859,-0.0937,0.0788,-0.0584,-0.1321,0.0928,-0.0779,43.1026,11.8096,12.6148,,0.004210999999999965,0.13564545698253222,0.26727542886322864,non_fall
0.804124,0.1062,0.1319,-0.4058,-0.1321,0.0928,-0.0779,43.1026,11.8096,12.6148,,0.010264999999999969,0.43971546481787516,0.3006232193964224,non_fall
0.813857,0.1062,0.1319,-0.4058,-0.1321,0.0928,-0.0779,43.1026,11.7242,12.8588,,0.009733000000000103,0.43971546481787516,0.3346726765943924,non_fall
0.85156,0.1062,0.1319,-0.4058,-0.1321,0.0928,-0.0779,43.1026,11.7242,12.8588,,0.03770299999999993,0.43971546481787516,0.3679332507523517,non_fall
0.856133,0.1062,0.1319,-0.4058,-0.1321,0.0928,-0.0779,43.1026,11.7242,12.8588,,0.004573000000000049,0.43971546481787516,0.39905688134503015,non_fall
0.859376,0.1062,0.1319,-0.4058,-0.1321,0.0928,-0.0779,43.1026,11.7242,12.8588,,0.003242999999999996,0.43971546481787516,0.4269442327575362,non_fall
0.865824,0.1062,0.1319,-0.4058,-0.2786,0.1666,-0.0482,43.1026,11.7242,12.8588,,0.006448000000000009,0.43971546481787516,0.45081183871409886,non_fall
0.874783,0.1062,0.1319,-0.4058,-0.2786,0.1666,-0.0482,43.0538,11.6876,13.0662,,0.00895899999999994,0.43971546481787516,0.4702187878904,non_fall
0.876224,-0.0801,0.2289,-0.4353,-0.2786,0.1666,-0.0482,43.0538,11.6876,13.0662,,0.0014410000000000256,0.49829440093181865,0.48505781576170404,non_fall
0.917566,-0.0801,0.2289,-0.4353,-0.2786,0.1666,-0.0482,43.0538,11.6876,13.0662,,0.04134199999999999,0.49829440093181865,0.4955183930915263,non_fall
0.921284,-0.0801,0.2289,-0.4353,-0.2786,0.1666,-0.0482,43.0538,11.6876,13.0662,,0.003717999999999999,0.49829440093181865,0.502029649982662,non_fall
0.923878,-0.0801,0.2289,-0.4353,-0.2786,0.1666,-0.0482,43.0538,11.6876,13.0662,,0.002593999999999985,0.49829440093181865,0.5051902808844893,non_fall
0.935095,-0.0801,0.2289,-0.4353,-0.2786,0.1666,-0.0482,42.9928,11.6632,13.3468,,0.011217000000000033,0.49829440093181865,0.5056920294506205,non_fall
0.936602,-0.0801,0.2289,-0.4353,-0.4503,0.096,0.0352,42.9928,11.6632,13.3468,,0.001507000000000036,0.49829440093181865,0.5042430895137914,non_fall
0.943951,-0.4076,0.2054,-0.1658,-0.4503,0.096,0.0352,42.9928,11.6632,13.3468,,0.007348999999999939,0.48560947272474003,0.5014973904180784,non_fall
0.985468,-0.4076,0.2054,-0.1658,-0.4503,0.096,0.0352,42.9928,11.6632,13.3468,,0.041517000000000026,0.48560947272474003,0.49799501907470617,non_fall
0.989574,-0.4076,0.2054,-0.1658,-0.4503,0.096,0.0352,42.9928,11.6632,13.3468,,0.004105999999999943,0.48560947272474003,0.49411797429949966,non_fall
0.992386,-0.4076,0.2054,-0.1658,-0.4503,0.096,0.0352,42.9928,11.6632,13.3468,,0.0028120000000000367,0.48560947272474003,0.49006410722773613,non_fall
0.995696,-0.4076,0.2054,-0.1658,-0.4503,0.096,0.0352,42.9928,11.6632,13.3468,,0.003310000000000035,0.48560947272474003,0.485840578407043,non_fall
0.998167,-0.4076,0.2054,-0.1658,-0.4503,0.096,0.0352,42.8952,11.5534,13.6396,,0.002471000000000001,0.48560947272474003,0.4812766906791112,non_fall
1.004094,-0.4076,0.2054,-0.1658,-0.3918,-0.0743,0.1084,42.8952,11.5534,13.6396,,0.005927000000000016,0.48560947272474003,0.47605481940430366,non_fall
1.015385,-0.2551,-0.2534,0.245,-0.3918,-0.0743,0.1084,42.8952,11.5534,13.6396,,0.01129099999999994,0.43510064352974703,0.46975752593164677,non_fall
1.051364,-0.2551,-0.2534,0.245,-0.3918,-0.0743,0.1084,42.8952,11.5534,13.6396,,0.03597899999999998,0.43510064352974703,0.4619287055330857,non_fall
1.055088,-0.2551,-0.2534,0.245,-0.3918,-0.0743,0.1084,42.8952,11.5534,13.6396,,0.0037240000000000606,0.43510064352974703,0.45214629021075003,non_fall
1.057545,-0.2551,-0.2534,0.245,-0.3918,-0.0743,0.1084,42.8952,11.5534,13.6396,,0.0024569999999999315,0.43510064352974703,0.4401029052938366,non_fall
1.059551,-0.2551,-0.2534,0.245,-0.3918,-0.0743,0.1084,42.7854,11.4192,13.9446,,0.0020059999999999523,0.43510064352974703,0.42568872605969216,non_fall
1.073325,-0.2551,-0.2534,0.245,-0.1618,-0.1842,0.0951,42.7854,11.4192,13.9446,,0.013774000000000175,0.43510064352974703,0.4090682163369778,non_fall
1.083323,-0.005,-0.3558,0.1904,-0.1618,-0.1842,0.0951,42.7854,11.4192,13.9446,,0.009997999999999951,0.403572546142574,0.39074050890398626,non_fall
1.114765,-0.005,-0.3558,0.1904,-0.1618,-0.1842,0.0951,42.7488,11.224,14.1398,,0.03144199999999997,0.403572546142574,0.37157265704095205,non_fall
1.117396,-0.005,-0.3558,0.1904,-0.1618,-0.1842,0.0951,42.7488,11.224,14.1398,,0.00263100000000005,0.403572546142574,0.35279599638869386,non_fall
1.119761,-0.005,-0.3558,0.1904,-0.1618,-0.1842,0.0951,42.7488,11.224,14.1398,,0.0023649999999999505,0.403572546142574,0.33595820699979206,non_fall
1.121525,-0.005,-0.3558,0.1904,-0.1618,-0.1842,0.0951,42.7488,11.224,14.1398,,0.0017640000000000988,0.403572546142574,0.3228273031093607,non_fall
1.144737,-0.005,-0.3558,0.1904,-0.1226,-0.2708,0.0041,42.7488,11.224,14.1398,,0.02321199999999979,0.403572546142574,0.31524902530920207,non_fall
1.154613,0.1056,0.2092,-0.1276,-0.1226,-0.2708,0.0041,42.7488,11.224,14.1398,,0.009875999999999996,0.2668290838720547,0.3149662902485022,non_fall
1.17359,0.1056,0.2092,-0.1276,-0.1226,-0.2708,0.0041,42.7,10.9068,14.2984,,0.01897700000000002,0.2668290838720547,0.32341796918858895,non_fall
1.184863,0.1056,0.2092,-0.1276,-0.1226,-0.2708,0.0041,42.7,10.9068,14.2984,,0.011273000000000089,0.2668290838720547,0.34154234036926145,non_fall
1.18806,0.1056,0.2092,-0.1276,-0.1226,-0.2708,0.0041,42.7,10.9068,14.2984,,0.0031969999999998944,0.2668290838720547,0.369615140014232,non_fall
1.191164,0.1056,0.2092,-0.1276,-0.1226,-0.2708,0.0041,42.7,10.9068,14.2984,,0.0031039999999999957,0.2668290838720547,0.4071511165186933,backward_fall
1.19296,0.1056,0.2092,-0.1276,-0.1226,-0.2708,0.0041,42.7,10.9068,14.2984,,0.0017960000000001308,0.2668290838720547,0.4528912600549533,backward_fall
1.215582,0.1056,0.2092,-0.1276,-0.2679,-0.2495,-0.0111,42.7,10.9068,14.2984,,0.02262199999999992,0.2668290838720547,0.5048862975782451,backward_fall
1.225064,0.2277,0.4595,-0.638,-0.2679,-0.2495,-0.0111,42.7,10.9068,14.2984,,0.00948199999999999,0.818554543081889,0.560671137830017,backward_fall
1.237799,0.2277,0.4595,-0.638,-0.2679,-0.2495,-0.0111,42.7244,10.6628,14.2252,,0.012735000000000163,0.818554543081889,0.6175061926189572,backward_fall
1.249279,0.2277,0.4595,-0.638,-0.2679,-0.2495,-0.0111,42.7244,10.6628,14.2252,,0.011479999999999935,0.818554543081889,0.6726451425350057,backward_fall
1.250774,0.2277,0.4595,-0.638,-0.2679,-0.2495,-0.0111,42.7244,10.6628,14.2252,,0.001495000000000024,0.818554543081889,0.7235827018543961,backward_fall
1.251865,0.2277,0.4595,-0.638,-0.2679,-0.2495,-0.0111,42.7244,10.6628,14.2252,,0.0010909999999999531,0.818554543081889,0.7682441473609881,backward_fall
1.284114,0.2277,0.4595,-0.638,-0.2653,-0.2286,-0.0447,42.7244,10.6628,14.2252,,0.03224899999999997,0.818554543081889,0.8050962665882773,backward_fall
1.29653,0.2277,0.4595,-0.638,-0.2653,-0.2286,-0.0447,42.7488,10.4554,14.0788,,0.012415999999999983,0.818554543081889,0.8331783840076615,backward_fall
1.299447,-0.0644,0.6873,-0.4106,-0.2653,-0.2286,-0.0447,42.7488,10.4554,14.0788,,0.0029170000000000584,0.8031942542125161,0.8520665093495067,backward_fall
1.316728,-0.0644,0.6873,-0.4106,-0.2653,-0.2286,-0.0447,42.7488,10.4554,14.0788,,0.01728099999999988,0.8031942542125161,0.8617920024857342,backward_fall
1.319262,-0.0644,0.6873,-0.4106,-0.2653,-0.2286,-0.0447,42.7488,10.4554,14.0788,,0.0025340000000000362,0.8031942542125161,0.8627390326763344,backward_fall
1.321322,-0.0644,0.6873,-0.4106,-0.2653,-0.2286,-0.0447,42.7488,10.4554,14.0788,,0.002060000000000173,0.8031942542125161,0.8555434827922617,backward_fall
1.35308,-0.0644,0.6873,-0.4106,-0.2653,-0.2286,-0.0447,42.8342,10.0772,13.8836,,0.03175799999999995,0.8031942542125161,0.8410109622124232,backward_fall
1.357641,-0.0644,0.6873,-0.4106,-0.5368,-0.3036,-0.0004,42.8342,10.0772,13.8836,,0.004561000000000037,0.8031942542125161,0.820064649979766,backward_fall
1.363642,-0.317,0.5742,-0.3606,-0.5368,-0.3036,-0.0004,42.8342,10.0772,13.8836,,0.006000999999999923,0.748483132742482,0.7937262460289263,backward_fall
1.383977,-0.317,0.5742,-0.3606,-0.5368,-0.3036,-0.0004,42.8342,10.0772,13.8836,,0.020334999999999992,0.748483132742482,0.7631264786942553,backward_fall
1.387829,-0.317,0.5742,-0.3606,-0.5368,-0.3036,-0.0004,42.8342,10.0772,13.8836,,0.0038519999999999666,0.748483132742482,0.7295358893271491,backward_fall
1.391758,-0.317,0.5742,-0.3606,-0.5368,-0.3036,-0.0004,42.8342,10.0772,13.8836,,0.003929000000000071,0.748483132742482,0.6944020450808239,backward_fall
1.395063,-0.317,0.5742,-0.3606,-0.5368,-0.3036,-0.0004,42.8342,10.0772,13.8836,,0.0033049999999998914,0.748483132742482,0.6593762511622153,backward_fall
1.413286,-0.317,0.5742,-0.3606,-0.5368,-0.3036,-0.0004,43.005,9.6868,13.6274,,0.0182230000000001,0.748483132742482,0.6263122791804409,backward_fall
1.423184,-0.317,0.5742,-0.3606,-0.6218,-0.3003,-0.0069,43.005,9.6868,13.6274,,0.009897999999999962,0.748483132742482,0.5972228797649182,backward_fall
1.432299,-0.2056,0.3844,-0.2494,-0.6218,-0.3003,-0.0069,43.005,9.6868,13.6274,,0.009114999999999984,0.5022301066244436,0.5741875839779421,backward_fall
1.450229,-0.2056,0.3844,-0.2494,-0.6218,-0.3003,-0.0069,43.005,9.6868,13.6274,,0.01793,0.5022301066244436,0.5592167139149784,backward_fall
1.453373,-0.2056,0.3844,-0.2494,-0.6218,-0.3003,-0.0069,43.005,9.6868,13.6274,,0.0031440000000000357,0.5022301066244436,0.5540885430257965,backward_fall
1.455785,-0.2056,0.3844,-0.2494,-0.6218,-0.3003,-0.0069,43.005,9.6868,13.6274,,0.0024120000000000807,0.5022301066244436,0.5601846648454918,backward_fall
1.466535,-0.2056,0.3844,-0.2494,-0.6218,-0.3003,-0.0069,43.2002,9.333,13.2492,,0.010749999999999815,0.5022301066244436,0.5783500151172901,backward_fall
1.493114,-0.2056,0.3844,-0.2494,-0.5669,-0.37,0.0047,43.2002,9.333,13.2492,,0.02657900000000013,0.5022301066244436,0.6087994669332154,backward_fall
1.50548,-0.212,0.6439,-0.2987,-0.5669,-0.37,0.0047,43.2002,9.333,13.2492,,0.012365999999999877,0.7407920760915305,0.6510851612601938,backward_fall
1.516249,-0.212,0.6439,-0.2987,-0.5669,-0.37,0.0047,43.2002,9.333,13.2492,,0.010769000000000029,0.7407920760915305,0.7041299376572568,backward_fall
1.517716,-0.212,0.6439,-0.2987,-0.5669,-0.37,0.0047,43.2002,9.333,13.2492,,0.001467000000000107,0.7407920760915305,0.7663244167252933,backward_fall
1.519118,-0.212,0.6439,-0.2987,-0.5669,-0.37,0.0047,43.2002,9.333,13.2492,,0.0014019999999999033,0.7407920760915305,0.8356806996822824,backward_fall
1.531517,-0.212,0.6439,-0.2987,-0.5669,-0.37,0.0047,43.3954,8.9304,12.7856,,0.012399000000000049,0.7407920760915305,0.9100345557237032,backward_fall
1.562035,-0.212,0.6439,-0.2987,-0.5438,-0.4357,-0.0119,43.3954,8.9304,12.7856,,0.030518000000000045,0.7407920760915305,0.9872869739487157,backward_fall
1.576779,0.036,1.2307,-0.6015,-0.5438,-0.4357,-0.0119,43.3954,8.9304,12.7856,,0.014743999999999868,1.3702995074070485,1.0656703443507725,backward_fall
1.584921,0.036,1.2307,-0.6015,-0.5438,-0.4357,-0.0119,43.3954,8.9304,12.7856,,0.008142000000000094,1.3702995074070485,1.144013075485883,backward_fall
1.587189,0.036,1.2307,-0.6015,-0.5438,-0.4357,-0.0119,43.3954,8.9304,12.7856,,0.0022679999999999367,1.3702995074070485,1.2219646256551298,backward_fall
1.588156,0.036,1.2307,-0.6015,-0.5438,-0.4357,-0.0119,43.3954,8.9304,12.7856,,0.0009669999999999401,1.3702995074070485,1.3001401358462497,backward_fall
1.589108,0.036,1.2307,-0.6015,-0.5438,-0.4357,-0.0119,43.3954,8.9304,12.7856,,0.0009520000000000639,1.3702995074070485,1.380154867918472,backward_fall
1.590896,0.036,1.2307,-0.6015,-0.5438,-0.4357,-0.0119,43.6394,8.54,12.3708,,0.0017880000000001228,1.3702995074070485,1.4645383504570355,backward_fall
1.631932,0.036,1.2307,-0.6015,-0.5016,-0.38,-0.053,43.6394,8.54,12.3708,,0.04103599999999985,1.3702995074070485,1.5565364179330161,backward_fall
1.641674,0.2602,1.994,0.0317,-0.5016,-0.38,-0.053,43.6394,8.54,12.3708,,0.00974200000000014,2.011155123306007,1.6598192305575499,backward_fall
1.652152,0.2602,1.994,0.0317,-0.5016,-0.38,-0.053,43.8712,8.113,11.8828,,0.010477999999999987,2.011155123306007,1.778114532933722,backward_fall
1.65386,0.2602,1.994,0.0317,-0.5016,-0.38,-0.053,43.8712,8.113,11.8828,,0.0017080000000000428,2.011155123306007,1.9147840437113928,backward_fall
1.655562,0.2602,1.994,0.0317,-0.5016,-0.38,-0.053,43.8712,8.113,11.8828,,0.0017019999999998703,2.011155123306007,2.0723660022599715,backward_fall
1.656658,0.2602,1.994,0.0317,-0.5016,-0.38,-0.053,43.8712,8.113,11.8828,,0.0010959999999999859,2.011155123306007,2.2521219851980847,backward_fall
1.702728,0.2602,1.994,0.0317,-0.3882,-0.21,-0.1798,43.8712,8.113,11.8828,,0.046070000000000055,2.011155123306007,2.4536439141783126,backward_fall
1.711403,0.2602,1.994,0.0317,-0.3882,-0.21,-0.1798,44.042,7.686,11.4314,,0.008674999999999988,2.011155123306007,2.674584949355831,backward_fall
1.716192,0.4724,3.2821,1.0024,-0.3882,-0.21,-0.1798,44.042,7.686,11.4314,,0.004788999999999932,3.4641229669282816,2.9105663778150648,backward_fall
1.718498,0.4724,3.2821,1.0024,-0.3882,-0.21,-0.1798,44.042,7.686,11.4314,,0.0023060000000001413,3.4641229669282816,3.1552819039368765,backward_fall
1.719981,0.4724,3.2821,1.0024,-0.3882,-0.21,-0.1798,44.042,7.686,11.4314,,0.001482999999999901,3.4641229669282816,3.400784191807661,backward_fall
1.721403,0.4724,3.2821,1.0024,-0.3882,-0.21,-0.1798,44.042,7.686,11.4314,,0.0014220000000000343,3.4641229669282816,3.6379166881002876,backward_fall
1.774884,0.4724,3.2821,1.0024,-0.3882,-0.21,-0.1798,44.2006,7.1736,11.1142,,0.05348099999999989,3.4641229669282816,3.856856314540806,backward_fall
1.779684,0.4724,3.2821,1.0024,-0.4686,0.168,-0.2269,44.2006,7.1736,11.1142,,0.0048000000000001375,3.4641229669282816,4.047746956247069,backward_fall
1.784242,0.7842,3.7518,2.3779,-0.4686,0.168,-0.2269,44.2006,7.1736,11.1142,,0.004558000000000062,4.51058547086739,4.201407305175269,backward_fall
1.786906,0.7842,3.7518,2.3779,-0.4686,0.168,-0.2269,44.2006,7.1736,11.1142,,0.0026639999999999997,4.51058547086739,4.3100784996423975,backward_fall
1.788684,0.7842,3.7518,2.3779,-0.4686,0.168,-0.2269,44.2006,7.1736,11.1142,,0.0017779999999998353,4.51058547086739,4.368145897239772,backward_fall
1.79055,0.7842,3.7518,2.3779,-0.4686,0.168,-0.2269,44.2006,7.1736,11.1142,,0.0018660000000001453,4.51058547086739,4.372745045309699,backward_fall
1.791873,0.7842,3.7518,2.3779,-0.4686,0.168,-0.2269,44.2006,7.1736,11.1142,,0.001322999999999963,4.51058547086739,4.324158013838923,backward_fall
1.831223,0.7842,3.7518,2.3779,-0.4686,0.168,-0.2269,44.286,6.7344,10.98,,0.039349999999999996,4.51058547086739,4.225920642929738,backward_fall
1.843625,0.7842,3.7518,2.3779,0.1129,0.2085,0.0294,44.286,6.7344,10.98,,0.012402000000000024,4.51058547086739,4.084584247972471,backward_fall
1.858895,0.7842,3.7518,2.3779,0.1129,0.2085,0.0294,44.286,6.7344,10.98,,0.015269999999999895,4.51058547086739,3.9091023606494932,backward_fall
1.86252,0.7842,3.7518,2.3779,0.1129,0.2085,0.0294,44.286,6.7344,10.98,,0.0036249999999999893,4.51058547086739,3.7098472844879193,backward_fall
1.863421,0.7842,3.7518,2.3779,0.1129,0.2085,0.0294,44.286,6.7344,10.98,,0.0009010000000000407,4.51058547086739,3.4973088228502123,backward_fall
1.864233,0.6424,1.3296,1.3481,0.1129,0.2085,0.0294,44.286,6.7344,10.98,,0.0008120000000000349,1.9994718127545583,3.2805930105810517,backward_fall
1.892423,0.6424,1.3296,1.3481,0.1129,0.2085,0.0294,44.347,6.2708,10.919,,0.028189999999999937,1.9994718127545583,3.065916834105248,backward_fall
1.911993,0.6424,1.3296,1.3481,-0.0794,0.0198,0.3081,44.347,6.2708,10.919,,0.019570000000000087,1.9994718127545583,2.8553606573063752,backward_fall
1.915731,0.6424,1.3296,1.3481,-0.0794,0.0198,0.3081,44.347,6.2708,10.919,,0.003738000000000019,1.9994718127545583,2.646155539972807,backward_fall
1.916912,0.6424,1.3296,1.3481,-0.0794,0.0198,0.3081,44.347,6.2708,10.919,,0.0011809999999998766,1.9994718127545583,2.4307288680528543,backward_fall
1.917872,0.6424,1.3296,1.3481,-0.0794,0.0198,0.3081,44.347,6.2708,10.919,,0.0009600000000000719,1.9994718127545583,2.197628975180174,backward_fall
1.924386,-0.0537,0.5518,0.5319,-0.0794,0.0198,0.3081,44.347,6.2708,10.919,,0.006513999999999909,0.7682997722243577,1.9333370651110193,backward_fall
1.951416,-0.0537,0.5518,0.5319,-0.0794,0.0198,0.3081,44.408,5.8072,10.9678,,0.02703000000000011,0.7682997722243577,1.62487685507033,backward_fall
1.982585,-0.0537,0.5518,0.5319,1.798,-0.4422,-0.0672,44.408,5.8072,10.9678,,0.031169000000000002,0.7682997722243577,1.263046367254919,backward_fall
1.986709,-0.0537,0.5518,0.5319,1.798,-0.4422,-0.0672,44.408,5.8072,10.9678,,0.0041240000000000165,0.7682997722243577,0.8460068580749436,backward_fall
1.98926,-0.0537,0.5518,0.5319,1.798,-0.4422,-0.0672,44.408,5.8072,10.9678,,0.00255099999999997,0.7682997722243577,0.38286562007905417,backward_fall
1.992137,-0.0537,0.5518,0.5319,1.798,-0.4422,-0.0672,44.408,5.8072,10.9678,,0.0028770000000000184,0.7682997722243577,-0.1032020192146414,backward_fall
1.99494,-0.0537,0.5518,0.5319,1.798,-0.4422,-0.0672,44.408,5.8072,10.9678,,0.002802999999999889,0.7682997722243577,-0.5728044465045107,backward_fall
1.99629,0.455,-0.5493,-1.0709,1.798,-0.4422,-0.0672,44.408,5.8072,10.9678,,0.0013499999999999623,1.2866943304452694,-0.9696765693410485,backward_fall
2.01036,0.455,-0.5493,-1.0709,1.798,-0.4422,-0.0672,44.4812,5.5144,11.0532,,0.014070000000000027,1.2866943304452694,-1.2219697705392494,backward_fall
2.052215,0.455,-0.5493,-1.0709,4.0152,0.1378,-0.275,44.4812,5.5144,11.0532,,0.041854999999999976,1.2866943304452694,-1.2458106456435725,backward_fall
2.055996,0.455,-0.5493,-1.0709,4.0152,0.1378,-0.275,44.4812,5.5144,11.0532,,0.0037810000000000343,1.2866943304452694,-0.9512389624527099,backward_fall
2.057996,0.455,-0.5493,-1.0709,4.0152,0.1378,-0.275,44.4812,5.5144,11.0532,,0.002000000000000224,1.2866943304452694,-0.25035595015335893,backward_fall
2.062048,0.455,-0.5493,-1.0709,4.0152,0.1378,-0.275,44.4812,5.5144,11.0532,,0.0040519999999997225,1.2866943304452694,0.9328066478837719,backward_fall
2.064341,-2.8665,-2.1475,2.606,4.0152,0.1378,-0.275,44.4812,5.5144,11.0532,,0.0022930000000003226,4.429425978611675,2.6515078531355565,backward_fall
2.072944,-2.8665,-2.1475,2.606,4.0152,0.1378,-0.275,44.4934,5.5754,11.2484,,0.008602999999999916,4.429425978611675,4.925703202213083,backward_fall
2.117813,-2.8665,-2.1475,2.606,4.0152,0.1378,-0.275,44.4934,5.5754,11.2484,,0.044868999999999826,4.429425978611675,7.732949983813997,backward_fall
2.121095,-2.8665,-2.1475,2.606,4.0152,0.1378,-0.275,44.4934,5.5754,11.2484,,0.003282000000000007,4.429425978611675,11.002268518994846,backward_fall
2.123621,-2.8665,-2.1475,2.606,4.0152,0.1378,-0.275,44.4934,5.5754,11.2484,,0.0025260000000000282,4.429425978611675,14.612430078972663,backward_fall
2.125645,-2.8665,-2.1475,2.606,6.5705,-1.4594,-1.1049,44.4934,5.5754,11.2484,,0.0020240000000000258,4.429425978611675,18.39592870867217,backward_fall
2.13507,-2.8665,-2.1475,2.606,6.5705,-1.4594,-1.1049,44.5422,6.039,11.0776,,0.009424999999999795,4.429425978611675,22.149332740864224,backward_fall
2.136871,-0.3295,-40.5519,0.019,6.5705,-1.4594,-1.1049,44.5422,6.039,11.0776,,0.0018010000000003856,40.553243086835856,25.649726699726152,backward_fall
2.184973,-0.3295,-40.5519,0.019,6.5705,-1.4594,-1.1049,44.5422,6.039,11.0776,,0.048101999999999645,40.553243086835856,28.675633653198773,backward_fall
2.189017,-0.3295,-40.5519,0.019,6.5705,-1.4594,-1.1049,44.5422,6.039,11.0776,,0.004044000000000381,40.553243086835856,31.029540547769393,backward_fall
2.192783,-0.3295,-40.5519,0.019,6.5705,-1.4594,-1.1049,44.5422,6.039,11.0776,,0.003765999999999714,40.553243086835856,32.55851671554003,backward_fall
2.196122,-0.3295,-40.5519,0.019,6.5705,-1.4594,-1.1049,44.5422,6.039,11.0776,,0.003338999999999981,40.553243086835856,33.16974265933364,backward_fall
2.199084,-0.3295,-40.5519,0.019,1.4336,0.0383,-0.183,44.5422,6.039,11.0776,,0.002962000000000131,40.553243086835856,32.83883053061627,backward_fall
2.201119,-0.3295,-40.5519,0.019,1.4336,0.0383,-0.183,44.3958,6.7832,10.1626,,0.002034999999999787,40.553243086835856,31.610135922634697,backward_fall
2.20312,-1.7894,17.7067,-3.4747,1.4336,0.0383,-0.183,44.3958,6.7832,10.1626,,0.0020010000000003636,18.13291805915419,29.589520887984197,backward_fall
2.251352,-1.7894,17.7067,-3.4747,1.4336,0.0383,-0.183,44.3226,7.869,8.7352,,0.04823199999999961,18.13291805915419,26.93112149893982,backward_fall
2.253095,-1.7894,17.7067,-3.4747,1.4336,0.0383,-0.183,44.3226,7.869,8.7352,,0.0017430000000002721,18.13291805915419,23.82045184021391,backward_fall
2.254007,-1.7894,17.7067,-3.4747,1.4336,0.0383,-0.183,44.3226,7.869,8.7352,,0.0009120000000000239,18.13291805915419,20.456405172005926,backward_fall
2.255074,-1.7894,17.7067,-3.4747,1.4336,0.0383,-0.183,44.3226,7.869,8.7352,,0.0010669999999999291,18.13291805915419,17.034322100058336,backward_fall
2.258898,-1.7894,17.7067,-3.4747,1.5854,-0.6594,-0.3057,44.3226,7.869,8.7352,,0.0038239999999998275,18.13291805915419,13.731551730650148,backward_fall
2.270866,0.912,3.5622,-0.2525,1.5854,-0.6594,-0.3057,44.3226,7.869,8.7352,,0.011967999999999979,3.685752174251546,10.696247515969112,backward_fall
2.310914,0.912,3.5622,-0.2525,1.5854,-0.6594,-0.3057,44.2372,9.0768,6.8686,,0.040048000000000084,3.685752174251546,8.039749525361765,backward_fall
2.318102,0.912,3.5622,-0.2525,1.5854,-0.6594,-0.3057,44.2372,9.0768,6.8686,,0.007188000000000194,3.685752174251546,5.832745052408914,backward_fall
2.31947,0.912,3.5622,-0.2525,1.5854,-0.6594,-0.3057,44.2372,9.0768,6.8686,,0.0013679999999998138,3.685752174251546,4.105239226528825,backward_fall
2.320368,0.912,3.5622,-0.2525,1.5854,-0.6594,-0.3057,44.2372,9.0768,6.8686,,0.0008980000000002875,3.685752174251546,2.8500578657486946,backward_fall
2.330655,0.912,3.5622,-0.2525,2.5711,-0.2277,-0.3061,44.2372,9.0768,6.8686,,0.010286999999999935,3.685752174251546,2.0292117583161455,backward_fall
2.340697,-0.4244,-0.4426,3.4826,2.5711,-0.2277,-0.3061,44.2372,9.0768,6.8686,,0.010041999999999884,3.5361720659492804,1.582145113490399,backward_fall
2.370765,-0.4244,-0.4426,3.4826,2.5711,-0.2277,-0.3061,44.1518,10.3212,4.4652,,0.030067999999999984,3.5361720659492804,1.4347702298104694,backward_fall
2.384721,-0.4244,-0.4426,3.4826,2.5711,-0.2277,-0.3061,44.1518,10.3212,4.4652,,0.013955999999999857,3.5361720659492804,1.5082469259217723,backward_fall
2.387258,-0.4244,-0.4426,3.4826,2.5711,-0.2277,-0.3061,44.1518,10.3212,4.4652,,0.0025370000000002335,3.5361720659492804,1.7266448200393498,backward_fall
2.389157,-0.4244,-0.4426,3.4826,2.5711,-0.2277,-0.3061,44.1518,10.3212,4.4652,,0.001898999999999873,3.5361720659492804,2.0228755159747096,backward_fall
2.391716,-0.4244,-0.4426,3.4826,2.5711,-0.2277,-0.3061,44.1518,10.3212,4.4652,,0.0025590000000002,3.5361720659492804,2.342558476493631,backward_fall
2.404035,-0.4244,-0.4426,3.4826,2.9674,0.0441,-0.2081,44.1518,10.3212,4.4652,,0.012318999999999747,3.5361720659492804,2.645758742729842,backward_fall
2.415512,1.8048,0.6394,0.4143,2.9674,0.0441,-0.2081,44.1518,10.3212,4.4652,,0.011477000000000182,1.959025239755731,2.90678522530162,backward_fall
2.428516,1.8048,0.6394,0.4143,2.9674,0.0441,-0.2081,43.981,11.407,1.83,,0.013004000000000016,1.959025239755731,3.112446302450268,backward_fall
2.449477,1.8048,0.6394,0.4143,2.9674,0.0441,-0.2081,43.981,11.407,1.83,,0.020960999999999785,1.959025239755731,3.2593016515981637,backward_fall
2.451926,1.8048,0.6394,0.4143,2.9674,0.0441,-0.2081,43.981,11.407,1.83,,0.0024489999999999235,1.959025239755731,3.3505009140781388,backward_fall
2.45323,1.8048,0.6394,0.4143,2.9674,0.0441,-0.2081,43.981,11.407,1.83,,0.001304000000000194,1.959025239755731,3.3927527679562965,backward_fall
2.467334,1.8048,0.6394,0.4143,2.3276,1.4189,0.1236,43.981,11.407,1.83,,0.014104000000000116,1.959025239755731,3.3938414770484497,backward_fall
2.480215,2.5781,2.0557,-1.5668,2.3276,1.4189,0.1236,43.981,11.407,1.83,,0.012880999999999698,3.6506662871317066,3.3609356593132826,backward_fall
2.49008,2.5781,2.0557,-1.5668,2.3276,1.4189,0.1236,43.8712,12.1512,-0.4758,,0.009865000000000013,3.6506662871317066,3.2997480962258807,backward_fall
2.518741,2.5781,2.0557,-1.5668,2.3276,1.4189,0.1236,43.8712,12.1512,-0.4758,,0.028661000000000048,3.6506662871317066,3.2144383259648395,backward_fall
2.520407,2.5781,2.0557,-1.5668,2.3276,1.4189,0.1236,43.8712,12.1512,-0.4758,,0.0016660000000001673,3.6506662871317066,3.10803539071825,backward_fall
2.521736,2.5781,2.0557,-1.5668,2.3276,1.4189,0.1236,43.8712,12.1512,-0.4758,,0.0013290000000001356,3.6506662871317066,2.9831150278418446,backward_fall
2.538147,2.5781,2.0557,-1.5668,1.6797,1.2518,0.0515,43.8712,12.1512,-0.4758,,0.01641099999999973,3.6506662871317066,2.8424846552325134,backward_fall
2.548986,2.5781,2.0557,-1.5668,1.6797,1.2518,0.0515,43.7492,12.4684,-2.623,,0.010839000000000265,3.6506662871317066,2.689687434013263,backward_fall
2.550345,1.0829,1.395,-0.6582,1.6797,1.2518,0.0515,43.7492,12.4684,-2.623,,0.001358999999999888,1.8846550480127657,2.5292163913942347,backward_fall
2.583816,1.0829,1.395,-0.6582,1.6797,1.2518,0.0515,43.7492,12.4684,-2.623,,0.03347100000000003,1.8846550480127657,2.366419962760235,backward_fall
2.586726,1.0829,1.395,-0.6582,1.6797,1.2518,0.0515,43.7492,12.4684,-2.623,,0.002909999999999968,1.8846550480127657,2.207162515522885,backward_fall
2.588109,1.0829,1.395,-0.6582,1.6797,1.2518,0.0515,43.7492,12.4684,-2.623,,0.0013830000000001341,1.8846550480127657,2.0573509822244946,backward_fall
2.589443,1.0829,1.395,-0.6582,1.6797,1.2518,0.0515,43.7492,12.4684,-2.623,,0.0013339999999999463,1.8846550480127657,1.9224386048716133,backward_fall
2.609173,1.0829,1.395,-0.6582,1.6797,1.2518,0.0515,43.5784,12.3098,-4.087,,0.019730000000000025,1.8846550480127657,1.8069833044881864,backward_fall
2.610452,1.0829,1.395,-0.6582,1.534,0.4583,0.1021,43.5784,12.3098,-4.087,,0.001278999999999808,1.8846550480127657,1.7142989342595345,backward_fall
2.619999,0.4095,1.4645,-0.0473,1.534,0.4583,0.1021,43.5784,12.3098,-4.087,,0.009546999999999972,1.5214098034389025,1.646211215248979,backward_fall
2.650054,0.4095,1.4645,-0.0473,1.534,0.4583,0.1021,43.5784,12.3098,-4.087,,0.030054999999999943,1.5214098034389025,1.6029200303323459,backward_fall
2.652956,0.4095,1.4645,-0.0473,1.534,0.4583,0.1021,43.5784,12.3098,-4.087,,0.002902000000000182,1.5214098034389025,1.5829701816564996,backward_fall
2.65445,0.4095,1.4645,-0.0473,1.534,0.4583,0.1021,43.5784,12.3098,-4.087,,0.0014940000000001064,1.5214098034389025,1.58333481320558,backward_fall
2.66847,0.4095,1.4645,-0.0473,1.534,0.4583,0.1021,43.6272,11.8096,-4.8556,,0.014019999999999921,1.5214098034389025,1.5996132221477646,backward_fall
2.677214,0.4095,1.4645,-0.0473,1.2306,0.1349,0.1848,43.6272,11.8096,-4.8556,,0.008744000000000085,1.5214098034389025,1.6263372475087032,backward_fall
2.688411,0.0341,1.5674,-0.7415,1.2306,0.1349,0.1848,43.6272,11.8096,-4.8556,,0.01119699999999968,1.7342802022741306,1.657370561397347,backward_fall
2.719701,0.0341,1.5674,-0.7415,1.2306,0.1349,0.1848,43.6272,11.8096,-4.8556,,0.03129000000000026,1.7342802022741306,1.6863752115864399,backward_fall
2.721857,0.0341,1.5674,-0.7415,1.2306,0.1349,0.1848,43.6272,11.8096,-4.8556,,0.0021559999999998247,1.7342802022741306,1.7073113751363744,backward_fall
2.724059,0.0341,1.5674,-0.7415,1.2306,0.1349,0.1848,43.6272,11.8096,-4.8556,,0.0022020000000000373,1.7342802022741306,1.714931649607696,backward_fall
2.725704,0.0341,1.5674,-0.7415,1.2306,0.1349,0.1848,43.6272,11.8096,-4.8556,,0.0016449999999998965,1.7342802022741306,1.7052314260121992,backward_fall
2.730791,0.0341,1.5674,-0.7415,1.2306,0.1349,0.1848,43.5784,10.8824,-5.185,,0.005087000000000064,1.7342802022741306,1.6758205137552378,backward_fall
2.747923,0.0341,1.5674,-0.7415,0.8032,0.2172,0.3585,43.5784,10.8824,-5.185,,0.017132000000000147,1.7342802022741306,1.6261858949775299,backward_fall
2.759486,-0.4729,1.4575,-0.03,0.8032,0.2172,0.3585,43.5784,10.8824,-5.185,,0.011562999999999768,1.532592790013055,1.5578205001536878,backward_fall
2.785283,-0.4729,1.4575,-0.03,0.8032,0.2172,0.3585,43.5784,10.8824,-5.185,,0.025797000000000292,1.532592790013055,1.4741988605840484,backward_fall
2.787661,-0.4729,1.4575,-0.03,0.8032,0.2172,0.3585,43.5784,10.8824,-5.185,,0.002377999999999769,1.532592790013055,1.3805875950214515,backward_fall
2.788513,-0.4729,1.4575,-0.03,0.8032,0.2172,0.3585,43.5784,10.8824,-5.185,,0.0008520000000000749,1.532592790013055,1.2836863762137607,backward_fall
2.789349,-0.4729,1.4575,-0.03,0.8032,0.2172,0.3585,43.5906,9.7356,-5.0996,,0.0008360000000000589,1.532592790013055,1.1911041400348459,backward_fall
2.819834,-0.4729,1.4575,-0.03,-0.8417,0.927,0.0136,43.5906,9.7356,-5.0996,,0.030485000000000095,1.532592790013055,1.1106894194507961,backward_fall
2.832637,-0.2245,0.3286,0.4882,-0.8417,0.927,0.0136,43.5906,9.7356,-5.0996,,0.012802999999999898,0.6298551023846676,1.0497567596849295,backward_fall
2.847363,-0.2245,0.3286,0.4882,-0.8417,0.927,0.0136,43.6516,8.723,-4.148,,0.014726000000000017,0.6298551023846676,1.0142822544648884,backward_fall
2.848686,-0.2245,0.3286,0.4882,-0.8417,0.927,0.0136,43.6516,8.723,-4.148,,0.001322999999999741,0.6298551023846676,1.008170215433398,backward_fall
2.849602,-0.2245,0.3286,0.4882,-0.8417,0.927,0.0136,43.6516,8.723,-4.148,,0.0009160000000001389,0.6298551023846676,1.0327038990535284,backward_fall
2.850603,-0.2245,0.3286,0.4882,-0.8417,0.927,0.0136,43.6516,8.723,-4.148,,0.0010010000000000296,0.6298551023846676,1.0862762370907237,backward_fall
2.888701,-0.2245,0.3286,0.4882,0.5272,0.0774,-0.0156,43.6516,8.723,-4.148,,0.03809800000000019,0.6298551023846676,1.1644554198803982,backward_fall
2.898143,-0.352,1.0964,-1.3113,0.5272,0.0774,-0.0156,43.6516,8.723,-4.148,,0.00944199999999995,1.7451374301183273,1.2603860644379585,backward_fall
2.918422,-0.352,1.0964,-1.3113,0.5272,0.0774,-0.0156,43.676,7.93,-2.9646,,0.020278999999999936,1.7451374301183273,1.3654702084625303,backward_fall
2.919867,-0.352,1.0964,-1.3113,0.5272,0.0774,-0.0156,43.676,7.93,-2.9646,,0.0014449999999999186,1.7451374301183273,1.4702259481920112,backward_fall
2.920646,-0.352,1.0964,-1.3113,0.5272,0.0774,-0.0156,43.676,7.93,-2.9646,,0.0007790000000000852,1.7451374301183273,1.5652002075684828,backward_fall
2.921353,-0.352,1.0964,-1.3113,0.5272,0.0774,-0.0156,43.676,7.93,-2.9646,,0.0007069999999997911,1.7451374301183273,1.6418224261831469,backward_fall
2.922047,-0.352,1.0964,-1.3113,0.5272,0.0774,-0.0156,43.676,7.93,-2.9646,,0.0006940000000001945,1.7451374301183273,1.6931177997314466,backward_fall
2.957308,-0.352,1.0964,-1.3113,-0.0258,0.1322,-0.1971,43.676,7.93,-2.9646,,0.035260999999999765,1.7451374301183273,1.714234390656445,backward_fall
2.97127,-1.347,0.4081,-0.8096,-0.0258,0.1322,-0.1971,43.676,7.93,-2.9646,,0.013962000000000252,1.6237015643276322,1.7027664996399505,backward_fall
2.978079,-1.347,0.4081,-0.8096,-0.0258,0.1322,-0.1971,43.6394,7.4298,-2.0252,,0.006809000000000065,1.6237015643276322,1.658874677357486,backward_fall
2.982792,-1.347,0.4081,-0.8096,-0.0258,0.1322,-0.1971,43.6394,7.4298,-2.0252,,0.004712999999999745,1.6237015643276322,1.5852120338088875,backward_fall
2.984259,-1.347,0.4081,-0.8096,-0.0258,0.1322,-0.1971,43.6394,7.4298,-2.0252,,0.0014670000000003292,1.6237015643276322,1.486669183895714,backward_fall
2.985699,-1.347,0.4081,-0.8096,-0.0258,0.1322,-0.1971,43.6394,7.4298,-2.0252,,0.0014399999999996638,1.6237015643276322,1.3699496659045056,backward_fall
3.03236,-1.347,0.4081,-0.8096,0.0694,-0.2312,0.0613,43.6394,7.4298,-2.0252,,0.046661000000000286,1.6237015643276322,1.2429893172870277,backward_fall
3.036618,-1.347,0.4081,-0.8096,0.0694,-0.2312,0.0613,43.6638,7.076,-1.3664,,0.004257999999999651,1.6237015643276322,1.114242839630817,backward_fall
3.03915,-0.3632,-0.0582,-0.0,0.0694,-0.2312,0.0613,43.6638,7.076,-1.3664,,0.0025319999999999787,0.36783349494030587,0.9918826647614801,backward_fall
3.053137,-0.3632,-0.0582,-0.0,0.0694,-0.2312,0.0613,43.6638,7.076,-1.3664,,0.013987000000000194,0.36783349494030587,0.8829872048696334,backward_fall
3.054196,-0.3632,-0.0582,-0.0,0.0694,-0.2312,0.0613,43.6638,7.076,-1.3664,,0.0010590000000001432,0.36783349494030587,0.7928248391478007,backward_fall
3.05514,-0.3632,-0.0582,-0.0,0.0694,-0.2312,0.0613,43.6638,7.076,-1.3664,,0.0009440000000000559,0.36783349494030587,0.7243468658245142,backward_fall
3.09897,-0.3632,-0.0582,-0.0,0.0694,-0.2312,0.0613,43.6516,6.8686,-0.915,,0.043829999999999814,0.36783349494030587,0.6779763594971151,backward_fall
3.102483,-0.3632,-0.0582,-0.0,-0.053,-0.2309,-0.1503,43.6516,6.8686,-0.915,,0.0035129999999998773,0.36783349494030587,0.6517287083567548,backward_fall
3.114385,0.7285,0.2922,-0.4957,-0.053,-0.2309,-0.1503,43.6516,6.8686,-0.915,,0.01190200000000008,0.9283380741949563,0.6416414710768755,backward_fall
3.118406,0.7285,0.2922,-0.4957,-0.053,-0.2309,-0.1503,43.6516,6.8686,-0.915,,0.00402099999999983,0.9283380741949563,0.6424397946379509,backward_fall
3.120002,0.7285,0.2922,-0.4957,-0.053,-0.2309,-0.1503,43.6516,6.8686,-0.915,,0.0015960000000001529,0.9283380741949563,0.6483274603849426,backward_fall
3.12135,0.7285,0.2922,-0.4957,-0.053,-0.2309,-0.1503,43.6516,6.8686,-0.915,,0.0013480000000001269,0.9283380741949563,0.6537796597538855,backward_fall
3.122837,0.7285,0.2922,-0.4957,-0.053,-0.2309,-0.1503,43.6516,6.8686,-0.915,,0.001487000000000016,0.9283380741949563,0.6542241370317141,backward_fall
3.15502,0.7285,0.2922,-0.4957,-0.053,-0.2309,-0.1503,43.676,6.7588,-0.4392,,0.03218299999999985,0.9283380741949563,0.6465264039330376,backward_fall
3.164762,0.7285,0.2922,-0.4957,-0.0694,-0.096,-0.1257,43.676,6.7588,-0.4392,,0.00974200000000014,0.9283380741949563,0.6292326321082506,backward_fall
3.175378,0.3359,-0.0895,-0.1065,-0.0694,-0.096,-0.1257,43.676,6.7588,-0.4392,,0.010615999999999737,0.36356747654321336,0.6025638052466311,backward_fall
3.183454,0.3359,-0.0895,-0.1065,-0.0694,-0.096,-0.1257,43.676,6.7588,-0.4392,,0.008075999999999972,0.36356747654321336,0.5681928161381057,backward_fall
3.184685,0.3359,-0.0895,-0.1065,-0.0694,-0.096,-0.1257,43.676,6.7588,-0.4392,,0.0012310000000002042,0.36356747654321336,0.5288666387713601,non_fall
3.185877,0.3359,-0.0895,-0.1065,-0.0694,-0.096,-0.1257,43.676,6.7588,-0.4392,,0.0011920000000000819,0.36356747654321336,0.4879506647487881,non_fall
3.218531,0.3359,-0.0895,-0.1065,-0.0694,-0.096,-0.1257,43.737,6.8198,-0.0366,,0.03265399999999996,0.36356747654321336,0.4489684330201216,non_fall
3.236866,0.3359,-0.0895,-0.1065,-0.126,-0.1394,-0.0146,43.737,6.8198,-0.0366,,0.01833499999999999,0.36356747654321336,0.41519276672117156,non_fall
3.247086,-0.0228,0.2901,-0.1876,-0.126,-0.1394,-0.0146,43.737,6.8198,-0.0366,,0.010219999999999896,0.34622479691668534,0.38932337358006314,non_fall
3.249624,-0.0228,0.2901,-0.1876,-0.126,-0.1394,-0.0146,43.737,6.8198,-0.0366,,0.002537999999999929,0.34622479691668534,0.3732678258425172,non_fall
3.250785,-0.0228,0.2901,-0.1876,-0.126,-0.1394,-0.0146,43.737,6.8198,-0.0366,,0.0011610000000001897,0.34622479691668534,0.368029313000676,non_fall
3.251688,-0.0228,0.2901,-0.1876,-0.126,-0.1394,-0.0146,43.737,6.8198,-0.0366,,0.0009030000000000982,0.34622479691668534,0.3736950208722041,non_fall
3.275972,-0.0228,0.2901,-0.1876,-0.126,-0.1394,-0.0146,43.7248,7.0516,0.244,,0.02428399999999975,0.34622479691668534,0.38951225449840265,non_fall
3.305413,-0.0228,0.2901,-0.1876,-0.1915,-0.1381,-0.0477,43.7248,7.0516,0.244,,0.029441000000000273,0.34622479691668534,0.4140343257303634,non_fall
3.315293,0.5576,0.2408,0.028,-0.1915,-0.1381,-0.0477,43.7248,7.0516,0.244,,0.009879999999999889,0.6080184207735815,0.4453137483250607,non_fall
3.316843,0.5576,0.2408,0.028,-0.1915,-0.1381,-0.0477,43.7248,7.0516,0.244,,0.0015499999999999403,0.6080184207735815,0.4811161943558161,non_fall
3.317843,0.5576,0.2408,0.028,-0.1915,-0.1381,-0.0477,43.7248,7.0516,0.244,,0.0009999999999998899,0.6080184207735815,0.5191266325979212,non_fall
3.318977,0.5576,0.2408,0.028,-0.1915,-0.1381,-0.0477,43.7248,7.0516,0.244,,0.0011339999999999684,0.6080184207735815,0.5571220746156773,non_fall
3.319967,0.5576,0.2408,0.028,-0.1915,-0.1381,-0.0477,43.7248,7.0516,0.244,,0.0009900000000002684,0.6080184207735815,0.5930945400057064,non_fall
3.33612,0.5576,0.2408,0.028,-0.1915,-0.1381,-0.0477,43.6516,7.1736,0.0854,,0.016153000000000084,0.6080184207735815,0.6253204899354049,non_fall
3.378149,0.5576,0.2408,0.028,-0.2324,0.0447,-0.0483,43.6516,7.1736,0.0854,,0.04202899999999987,0.6080184207735815,0.6523845678707646,non_fall
3.383806,0.5576,0.2408,0.028,-0.2324,0.0447,-0.0483,43.6516,7.1736,0.0854,,0.005656999999999801,0.6080184207735815,0.6731730249830195,non_fall
3.384855,0.5576,0.2408,0.028,-0.2324,0.0447,-0.0483,43.6516,7.1736,0.0854,,0.0010490000000000776,0.6080184207735815,0.6868549087051788,non_fall
3.385657,0.5576,0.2408,0.028,-0.2324,0.0447,-0.0483,43.6516,7.1736,0.0854,,0.0008020000000001914,0.6080184207735815,0.6928673095195725,non_fall
3.388204,0.5016,0.307,-0.3654,-0.2324,0.0447,-0.0483,43.6516,7.1736,0.0854,,0.002546999999999855,0.6923645860383097,0.6909154493612312,non_fall
3.394953,0.5016,0.307,-0.3654,-0.2324,0.0447,-0.0483,43.6882,7.3322,-0.0366,,0.006749000000000116,0.6923645860383097,0.6809903628140137,non_fall
3.44717,0.5016,0.307,-0.3654,-0.2802,0.0377,-0.0699,43.6882,7.3322,-0.0366,,0.052216999999999736,0.6923645860383097,0.6633983233127129,non_fall
3.449313,0.5016,0.307,-0.3654,-0.2802,0.0377,-0.0699,43.6882,7.3322,-0.0366,,0.002143000000000228,0.6923645860383097,0.6387894200263958,non_fall
3.450468,0.5016,0.307,-0.3654,-0.2802,0.0377,-0.0699,43.6882,7.3322,-0.0366,,0.001154999999999795,0.6923645860383097,0.6081695854136483,non_fall
3.451453,0.5016,0.307,-0.3654,-0.2802,0.0377,-0.0699,43.6882,7.3322,-0.0366,,0.0009850000000000136,0.6923645860383097,0.5728813519364965,non_fall
3.458196,0.5016,0.307,-0.3654,-0.2802,0.0377,-0.0699,43.7126,7.4786,-0.183,,0.0067430000000001655,0.6923645860383097,0.534543403116999,non_fall
3.459554,-0.2782,0.1652,0.1084,-0.2802,0.0377,-0.0699,43.7126,7.4786,-0.183,,0.0013579999999997483,0.34122842788958835,0.4949473914418404,non_fall
3.516494,-0.2782,0.1652,0.1084,-0.2802,0.0377,-0.0699,43.7004,7.6128,-0.3172,,0.05693999999999999,0.34122842788958835,0.45592161845163803,non_fall
3.51867,-0.2782,0.1652,0.1084,-0.2641,-0.027,-0.0332,43.7004,7.6128,-0.3172,,0.0021760000000004,0.34122842788958835,0.41918161139471444,non_fall
3.519785,-0.2782,0.1652,0.1084,-0.2641,-0.027,-0.0332,43.7004,7.6128,-0.3172,,0.0011149999999999771,0.34122842788958835,0.3861922164840094,non_fall
3.520767,-0.2782,0.1652,0.1084,-0.2641,-0.027,-0.0332,43.7004,7.6128,-0.3172,,0.0009820000000000384,0.34122842788958835,0.35806194451031226,non_fall
3.521692,-0.2782,0.1652,0.1084,-0.2641,-0.027,-0.0332,43.7004,7.6128,-0.3172,,0.0009249999999996206,0.34122842788958835,0.3354806781705415,non_fall
3.522871,-0.2782,0.1652,0.1084,-0.2641,-0.027,-0.0332,43.7004,7.6128,-0.3172,,0.0011790000000000411,0.34122842788958835,0.31870177410921585,non_fall
3.523837,-0.1563,0.2627,-0.0823,-0.2641,-0.027,-0.0332,43.7004,7.6128,-0.3172,,0.0009660000000000224,0.3165663753464666,0.30756254887822804,non_fall
3.574552,-0.1563,0.2627,-0.0823,-0.2641,-0.027,-0.0332,43.6882,7.8324,-0.427,,0.05071500000000029,0.3165663753464666,0.3015337774623566,non_fall
3.583721,-0.1563,0.2627,-0.0823,-0.3702,-0.0736,-0.0373,43.6882,7.8324,-0.427,,0.009168999999999983,0.3165663753464666,0.2997883286998606,non_fall
3.585148,-0.1563,0.2627,-0.0823,-0.3702,-0.0736,-0.0373,43.6882,7.8324,-0.427,,0.001426999999999623,0.3165663753464666,0.30128023566043743,non_fall
3.586049,-0.1563,0.2627,-0.0823,-0.3702,-0.0736,-0.0373,43.6882,7.8324,-0.427,,0.0009010000000002627,0.3165663753464666,0.30482738594422815,non_fall
3.587029,-0.1563,0.2627,-0.0823,-0.3702,-0.0736,-0.0373,43.6882,7.8324,-0.427,,0.0009799999999997588,0.3165663753464666,0.3091931121770862,non_fall
3.595148,0.0407,0.2771,-0.0945,-0.3702,-0.0736,-0.0373,43.6882,7.8324,-0.427,,0.00811900000000021,0.2955861126643131,0.31316405557221305,non_fall
3.636313,0.0407,0.2771,-0.0945,-0.3702,-0.0736,-0.0373,43.6882,7.991,-0.4758,,0.041164999999999896,0.2955861126643131,0.3156235108971031,non_fall
3.651355,0.0407,0.2771,-0.0945,-0.3702,-0.0736,-0.0373,43.6882,7.991,-0.4758,,0.015042000000000222,0.2955861126643131,0.31562060808952325,non_fall
3.655426,0.0407,0.2771,-0.0945,-0.3702,-0.0736,-0.0373,43.6882,7.991,-0.4758,,0.004070999999999714,0.2955861126643131,0.3124357018243675,non_fall
3.658213,0.0407,0.2771,-0.0945,-0.3702,-0.0736,-0.0373,43.6882,7.991,-0.4758,,0.002787000000000095,0.2955861126643131,0.30564110216420515,non_fall
3.660901,0.0407,0.2771,-0.0945,-0.3955,-0.0429,-0.0779,43.6882,7.991,-0.4758,,0.0026880000000000237,0.2955861126643131,0.2951541501129732,non_fall
3.666948,0.2064,0.1794,-0.0972,-0.3955,-0.0429,-0.0779,43.6882,7.991,-0.4758,,0.006047000000000136,0.2902294953997612,0.28127727741239467,non_fall
3.695632,0.2064,0.1794,-0.0972,-0.3955,-0.0429,-0.0779,43.6272,8.2106,-0.5002,,0.02868399999999971,0.2902294953997612,0.2647177286219526,non_fall
3.71731,0.2064,0.1794,-0.0972,-0.3955,-0.0429,-0.0779,43.6272,8.2106,-0.5002,,0.021678000000000086,0.2902294953997612,0.24657856390322525,non_fall
3.719567,0.2064,0.1794,-0.0972,-0.3955,-0.0429,-0.0779,43.6272,8.2106,-0.5002,,0.0022570000000001755,0.2902294953997612,0.22831281214098922,non_fall
3.721056,0.2064,0.1794,-0.0972,-0.3955,-0.0429,-0.0779,43.6272,8.2106,-0.5002,,0.0014889999999998516,0.2902294953997612,0.21163459949436525,non_fall
3.724029,0.2064,0.1794,-0.0972,-0.3955,-0.0429,-0.0779,43.6272,8.2106,-0.5002,,0.0029729999999998924,0.2902294953997612,0.19838511567197706,non_fall
3.725837,0.2064,0.1794,-0.0972,-0.4338,-0.0537,-0.1212,43.6272,8.2106,-0.5002,,0.0018080000000000318,0.2902294953997612,0.19035766573219925,non_fall
3.734128,0.0391,0.0628,0.045,-0.4338,-0.0537,-0.1212,43.6272,8.2106,-0.5002,,0.00829100000000027,0.08658897158414575,0.18909471698052743,non_fall
3.755307,0.0391,0.0628,0.045,-0.4338,-0.0537,-0.1212,43.6272,8.4424,-0.5246,,0.02117900000000006,0.08658897158414575,0.19567975199871562,non_fall
3.784033,0.0391,0.0628,0.045,-0.4338,-0.0537,-0.1212,43.6272,8.4424,-0.5246,,0.028725999999999807,0.08658897158414575,0.21055507672869045,non_fall
3.787494,0.0391,0.0628,0.045,-0.4338,-0.0537,-0.1212,43.6272,8.4424,-0.5246,,0.0034610000000001584,0.08658897158414575,0.2333995415623993,non_fall
3.790063,0.0391,0.0628,0.045,-0.4338,-0.0537,-0.1212,43.6272,8.4424,-0.5246,,0.0025689999999998214,0.08658897158414575,0.26309487336808984,non_fall
3.795144,0.0391,0.0628,0.045,-0.4848,-0.1206,-0.1433,43.6272,8.4424,-0.5246,,0.005081000000000113,0.08658897158414575,0.2977965560824989,non_fall
3.804892,-0.3716,0.373,0.0196,-0.4848,-0.1206,-0.1433,43.6272,8.4424,-0.5246,,0.00974800000000009,0.5268773291763463,0.33510732890044975,non_fall
3.815021,-0.3716,0.373,0.0196,-0.4848,-0.1206,-0.1433,43.615,8.7352,-0.4758,,0.010129000000000055,0.5268773291763463,0.37233141273570014,non_fall
3.851289,-0.3716,0.373,0.0196,-0.4848,-0.1206,-0.1433,43.615,8.7352,-0.4758,,0.036267999999999745,0.5268773291763463,0.4067704477689213,non_fall
3.855212,-0.3716,0.373,0.0196,-0.4848,-0.1206,-0.1433,43.615,8.7352,-0.4758,,0.003922999999999899,0.5268773291763463,0.4360143001539767,non_fall
3.85781,-0.3716,0.373,0.0196,-0.4848,-0.1206,-0.1433,43.615,8.7352,-0.4758,,0.0025980000000003223,0.5268773291763463,0.4581845404644948,non_fall
3.864548,-0.3716,0.373,0.0196,-0.5438,-0.2431,-0.0065,43.615,8.7352,-0.4758,,0.006737999999999911,0.5268773291763463,0.47210201880252445,non_fall
3.874824,-0.3716,0.373,0.0196,-0.5438,-0.2431,-0.0065,43.5906,9.0768,-0.488,,0.01027599999999973,0.5268773291763463,0.4773659182228943,non_fall
3.877615,-0.358,0.1946,-0.0784,-0.5438,-0.2431,-0.0065,43.5906,9.0768,-0.488,,0.00279100000000021,0.41494544219692303,0.47434557173594566,non_fall
3.91721,-0.358,0.1946,-0.0784,-0.5438,-0.2431,-0.0065,43.5906,9.0768,-0.488,,0.039594999999999825,0.41494544219692303,0.46409691333122666,non_fall
3.921422,-0.358,0.1946,-0.0784,-0.5438,-0.2431,-0.0065,43.5906,9.0768,-0.488,,0.004212000000000327,0.41494544219692303,0.4482222696598027,non_fall
3.924638,-0.358,0.1946,-0.0784,-0.5438,-0.2431,-0.0065,43.5906,9.0768,-0.488,,0.0032159999999996636,0.41494544219692303,0.4286946557925184,non_fall
3.927519,-0.358,0.1946,-0.0784,-0.5438,-0.2431,-0.0065,43.5906,9.0768,-0.488,,0.0028810000000003555,0.41494544219692303,0.4076660337957547,non_fall
3.933484,-0.358,0.1946,-0.0784,-0.5438,-0.2431,-0.0065,43.5906,9.394,-0.5978,,0.005964999999999776,0.41494544219692303,0.38727499222778067,non_fall
3.93702,-0.358,0.1946,-0.0784,-0.6123,-0.3115,0.102,43.5906,9.394,-0.5978,,0.0035359999999999836,0.41494544219692303,0.3694655558288092,non_fall
3.94792,0.2107,0.0163,0.1946,-0.6123,-0.3115,0.102,43.5906,9.394,-0.5978,,0.01089999999999991,0.28727920217098907,0.3558270436008425,non_fall
3.984304,0.2107,0.0163,0.1946,-0.6123,-0.3115,0.102,43.5906,9.394,-0.5978,,0.03638399999999997,0.28727920217098907,0.3474652173584329,non_fall
3.988219,0.2107,0.0163,0.1946,-0.6123,-0.3115,0.102,43.5906,9.394,-0.5978,,0.003915000000000113,0.28727920217098907,0.3449159479530975,non_fall
3.990493,0.2107,0.0163,0.1946,-0.6123,-0.3115,0.102,43.5906,9.394,-0.5978,,0.0022739999999998872,0.28727920217098907,0.3481119144593608,non_fall
3.992866,0.2107,0.0163,0.1946,-0.6123,-0.3115,0.102,43.5662,9.6258,-0.671,,0.0023729999999999585,0.28727920217098907,0.3564088874262987,non_fall
4.004035,0.2107,0.0163,0.1946,-0.6424,-0.2549,0.1241,43.5662,9.6258,-0.671,,0.011169000000000207,0.28727920217098907,0.3686712591119634,non_fall
4.016057,0.426,0.208,-0.1103,-0.6424,-0.2549,0.1241,43.5662,9.6258,-0.671,,0.012021999999999977,0.4867299970209356,0.3834080558279196,non_fall
4.051976,0.426,0.208,-0.1103,-0.6424,-0.2549,0.1241,43.5662,9.6258,-0.671,,0.03591899999999981,0.4867299970209356,0.39894219024366123,non_fall
4.055273,0.426,0.208,-0.1103,-0.6424,-0.2549,0.1241,43.5662,9.6258,-0.671,,0.0032969999999998834,0.4867299970209356,0.41358928723604244,non_fall
4.057607,0.426,0.208,-0.1103,-0.6424,-0.2549,0.1241,43.5662,9.6258,-0.671,,0.0023340000000002803,0.4867299970209356,0.42582076622033466,non_fall
4.060037,0.426,0.208,-0.1103,-0.6424,-0.2549,0.1241,43.5296,9.821,-0.8174,,0.0024300000000003763,0.4867299970209356,0.4343902399009551,non_fall
4.074544,0.426,0.208,-0.1103,-0.7145,-0.1722,0.0924,43.5296,9.821,-0.8174,,0.014507000000000048,0.4867299970209356,0.4384109922455459,non_fall
4.084134,0.2157,0.0744,-0.3074,-0.7145,-0.1722,0.0924,43.5296,9.821,-0.8174,,0.009589999999999321,0.3828271280878616,0.43738220127516014,non_fall
4.114446,0.2157,0.0744,-0.3074,-0.7145,-0.1722,0.0924,43.5052,10.004,-0.9516,,0.03031200000000034,0.3828271280878616,0.43117030653655203,non_fall
4.119223,0.2157,0.0744,-0.3074,-0.7145,-0.1722,0.0924,43.5052,10.004,-0.9516,,0.004776999999999809,0.3828271280878616,0.41995799494478675,non_fall
4.120686,0.2157,0.0744,-0.3074,-0.7145,-0.1722,0.0924,43.5052,10.004,-0.9516,,0.0014630000000002141,0.3828271280878616,0.40417553284271546,non_fall
4.121926,0.2157,0.0744,-0.3074,-0.7145,-0.1722,0.0924,43.5052,10.004,-0.9516,,0.0012400000000001299,0.3828271280878616,0.3844274628261665,non_fall
4.123187,0.2157,0.0744,-0.3074,-0.7145,-0.1722,0.0924,43.5052,10.004,-0.9516,,0.0012609999999995125,0.3828271280878616,0.3614235475513263,non_fall
4.142866,0.2157,0.0744,-0.3074,-0.7482,-0.1936,0.0754,43.5052,10.004,-0.9516,,0.019679000000000002,0.3828271280878616,0.33591862556878754,non_fall
4.152711,0.0782,0.0083,0.2225,-0.7482,-0.1936,0.0754,43.5052,10.004,-0.9516,,0.009845000000000326,0.2359880929199607,0.3086634838789967,non_fall
4.172597,0.0782,0.0083,0.2225,-0.7482,-0.1936,0.0754,43.5296,10.126,-1.0736,,0.019885999999999626,0.2359880929199607,0.2803683389190598,non_fall
4.185525,0.0782,0.0083,0.2225,-0.7482,-0.1936,0.0754,43.5296,10.126,-1.0736,,0.012928000000000495,0.2359880929199607,0.2516809081344959,non_fall
4.18876,0.0782,0.0083,0.2225,-0.7482,-0.1936,0.0754,43.5296,10.126,-1.0736,,0.003235000000000099,0.2359880929199607,0.22318037443544286,non_fall
4.19108,0.0782,0.0083,0.2225,-0.7482,-0.1936,0.0754,43.5296,10.126,-1.0736,,0.0023200000000000998,0.2359880929199607,0.19538588672301854,non_fall
4.213316,0.0782,0.0083,0.2225,-0.7796,-0.1437,0.0312,43.5296,10.126,-1.0736,,0.02223599999999948,0.2359880929199607,0.16877492975316488,non_fall
4.222499,0.062,-0.0649,0.0099,-0.7796,-0.1437,0.0312,43.5296,10.126,-1.0736,,0.009183000000000163,0.09029961240226893,0.14380525701172214,non_fall
4.2322,0.062,-0.0649,0.0099,-0.7796,-0.1437,0.0312,43.615,10.187,-1.1102,,0.009700999999999738,0.09029961240226893,0.12093518193443688,non_fall
4.250591,0.062,-0.0649,0.0099,-0.7796,-0.1437,0.0312,43.615,10.187,-1.1102,,0.018391000000000268,0.09029961240226893,0.10063969655669495,non_fall
4.25406,0.062,-0.0649,0.0099,-0.7796,-0.1437,0.0312,43.615,10.187,-1.1102,,0.0034689999999999444,0.09029961240226893,0.08342172734287677,non_fall
4.256539,0.062,-0.0649,0.0099,-0.7796,-0.1437,0.0312,43.615,10.187,-1.1102,,0.00247900000000012,0.09029961240226893,0.06981744709256128,non_fall
4.282622,0.062,-0.0649,0.0099,-0.786,-0.0574,-0.013,43.615,10.187,-1.1102,,0.026082999999999856,0.09029961240226893,0.06039279135745252,non_fall
4.292554,0.062,-0.0649,0.0099,-0.786,-0.0574,-0.013,43.6516,10.2358,-1.2078,,0.009932000000000052,0.09029961240226893,0.05572711860071103,non_fall
4.295975,-0.0785,0.0285,0.0096,-0.786,-0.0574,-0.013,43.6516,10.2358,-1.2078,,0.0034210000000003404,0.08406342843353463,0.05638050622319877,non_fall
4.318099,-0.0785,0.0285,0.0096,-0.786,-0.0574,-0.013,43.6516,10.2358,-1.2078,,0.02212399999999981,0.08406342843353463,0.06284351496554746,non_fall
4.321653,-0.0785,0.0285,0.0096,-0.786,-0.0574,-0.013,43.6516,10.2358,-1.2078,,0.003554000000000279,0.08406342843353463,0.07547178455320433,non_fall
4.324647,-0.0785,0.0285,0.0096,-0.786,-0.0574,-0.013,43.6516,10.2358,-1.2078,,0.002993999999999275,0.08406342843353463,0.09441175555296367,non_fall
4.327357,-0.0785,0.0285,0.0096,-0.786,-0.0574,-0.013,43.6516,10.2358,-1.2078,,0.0027100000000004343,0.08406342843353463,0.1195273333212284,non_fall
4.353608,-0.0785,0.0285,0.0096,-0.786,-0.0574,-0.013,43.7004,10.3212,-1.22,,0.026251000000000246,0.08406342843353463,0.15033964377009423,non_fall
4.357511,-0.0785,0.0285,0.0096,-0.7944,0.0758,-0.1226,43.7004,10.3212,-1.22,,0.0039029999999993237,0.08406342843353463,0.18599240974261597,non_fall
4.367961,0.0237,0.1912,-0.2161,-0.7944,0.0758,-0.1226,43.7004,10.3212,-1.22,,0.010450000000000514,0.28951397202898516,0.2252532105193011,non_fall
4.38331,0.0237,0.1912,-0.2161,-0.7944,0.0758,-0.1226,43.7004,10.3212,-1.22,,0.015348999999999613,0.28951397202898516,0.26655596751639704,non_fall
4.384996,0.0237,0.1912,-0.2161,-0.7944,0.0758,-0.1226,43.7004,10.3212,-1.22,,0.0016860000000002984,0.28951397202898516,0.3080839902129872,non_fall
4.386492,0.0237,0.1912,-0.2161,-0.7944,0.0758,-0.1226,43.7004,10.3212,-1.22,,0.0014959999999994977,0.28951397202898516,0.3478884365076087,non_fall
4.41452,0.0237,0.1912,-0.2161,-0.7944,0.0758,-0.1226,43.7248,10.4066,-1.037,,0.02802800000000083,0.28951397202898516,0.3840352476572623,non_fall
4.423364,0.0237,0.1912,-0.2161,-0.7244,0.1794,0.0176,43.7248,10.4066,-1.037,,0.008843999999999852,0.28951397202898516,0.414772611671752,non_fall
4.434998,0.5171,-0.1513,0.1828,-0.7244,0.1794,0.0176,43.7248,10.4066,-1.037,,0.011633999999999922,0.5689463419339297,0.43870766356409485,non_fall
4.452462,0.5171,-0.1513,0.1828,-0.7244,0.1794,0.0176,43.7248,10.4066,-1.037,,0.01746399999999948,0.5689463419339297,0.4549744697104746,non_fall
4.455362,0.5171,-0.1513,0.1828,-0.7244,0.1794,0.0176,43.7248,10.4066,-1.037,,0.0029000000000003467,0.5689463419339297,0.4633682319863787,non_fall
4.456473,0.5171,-0.1513,0.1828,-0.7244,0.1794,0.0176,43.7248,10.4066,-1.037,,0.001110999999999862,0.5689463419339297,0.46441815267733555,non_fall
4.457697,0.5171,-0.1513,0.1828,-0.7244,0.1794,0.0176,43.7248,10.4066,-1.037,,0.0012239999999996698,0.5689463419339297,0.45937666293621,non_fall
4.466299,0.5171,-0.1513,0.1828,-0.7244,0.1794,0.0176,43.7858,10.5774,-0.7198,,0.008602000000000665,0.5689463419339297,0.45011453472063584,non_fall
4.493366,0.5171,-0.1513,0.1828,-0.6674,0.3004,-0.0549,43.7858,10.5774,-0.7198,,0.02706699999999973,0.5689463419339297,0.438926363742953,non_fall
4.503642,0.2518,0.028,0.0273,-0.6674,0.3004,-0.0549,43.7858,10.5774,-0.7198,,0.010276000000000174,0.2548186217685042,0.42826664153677674,non_fall
4.517355,0.2518,0.028,0.0273,-0.6674,0.3004,-0.0549,43.7858,10.5774,-0.7198,,0.013713000000000086,0.2548186217685042,0.4204515673144462,non_fall
4.519944,0.2518,0.028,0.0273,-0.6674,0.3004,-0.0549,43.7858,10.5774,-0.7198,,0.0025889999999995084,0.2548186217685042,0.4173727102293049,non_fall
4.521809,0.2518,0.028,0.0273,-0.6674,0.3004,-0.0549,43.7858,10.5774,-0.7198,,0.0018650000000004496,0.2548186217685042,0.4202708779440637,non_fall
4.532316,0.2518,0.028,0.0273,-0.6674,0.3004,-0.0549,43.8956,10.7604,-0.183,,0.0105069999999996,0.2548186217685042,0.4296095201559048,non_fall
4.56175,0.2518,0.028,0.0273,-0.6467,0.1352,-0.1346,43.8956,10.7604,-0.183,,0.029434000000000182,0.2548186217685042,0.44506884092611176,non_fall
4.571416,-0.2938,0.1121,-0.5664,-0.6467,0.1352,-0.1346,43.8956,10.7604,-0.183,,0.009666000000000174,0.6478377960570069,0.46565913570683637,non_fall
4.583826,-0.2938,0.1121,-0.5664,-0.6467,0.1352,-0.1346,43.8956,10.7604,-0.183,,0.012410000000000032,0.6478377960570069,0.4899290808842899,non_fall
4.585881,-0.2938,0.1121,-0.5664,-0.6467,0.1352,-0.1346,43.8956,10.7604,-0.183,,0.002054999999999474,0.6478377960570069,0.5162266750974265,non_fall
4.587373,-0.2938,0.1121,-0.5664,-0.6467,0.1352,-0.1346,43.8956,10.7604,-0.183,,0.001492000000000715,0.6478377960570069,0.5429628995513651,non_fall
4.591391,-0.2938,0.1121,-0.5664,-0.6467,0.1352,-0.1346,43.9322,11.0044,0.5002,,0.004017999999999411,0.6478377960570069,0.5688333749827452,non_fall
4.632161,-0.2938,0.1121,-0.5664,-0.6202,0.1087,-0.1824,43.9322,11.0044,0.5002,,0.040770000000000195,0.6478377960570069,0.5929677108810123,non_fall
4.642901,0.2425,0.0794,0.5823,-0.6202,0.1087,-0.1824,43.9322,11.0044,0.5002,,0.010740000000000194,0.6357545910176348,0.614993302221221,non_fall
4.652902,0.2425,0.0794,0.5823,-0.6202,0.1087,-0.1824,43.981,11.3582,1.2688,,0.010000999999999927,0.6357545910176348,0.6350154116056724,non_fall
4.656448,0.2425,0.0794,0.5823,-0.6202,0.1087,-0.1824,43.981,11.3582,1.2688,,0.003546000000000049,0.6357545910176348,0.6535268461184943,non_fall
4.659294,0.2425,0.0794,0.5823,-0.6202,0.1087,-0.1824,43.981,11.3582,1.2688,,0.002845999999999904,0.6357545910176348,0.6712681672602485,non_fall
4.661876,0.2425,0.0794,0.5823,-0.6202,0.1087,-0.1824,43.981,11.3582,1.2688,,0.0025820000000003063,0.6357545910176348,0.6890633040196181,non_fall
4.664505,0.2425,0.0794,0.5823,-0.6202,0.1087,-0.1824,43.981,11.3582,1.2688,,0.0026289999999997704,0.6357545910176348,0.7076560075058029,non_fall
4.702814,0.2425,0.0794,0.5823,-0.7912,0.0663,-0.2687,43.981,11.3582,1.2688,,0.038308999999999926,0.6357545910176348,0.7275701681299173,non_fall
4.712153,0.2425,0.0794,0.5823,-0.7912,0.0663,-0.2687,43.9444,11.8218,2.0252,,0.009338999999999764,0.6357545910176348,0.749011850422061,non_fall
4.71712,-0.6103,0.0757,0.59,-0.7912,0.0663,-0.2687,43.9444,11.8218,2.0252,,0.00496700000000061,0.8522303561831155,0.7718231599557087,non_fall
4.71943,-0.6103,0.0757,0.59,-0.7912,0.0663,-0.2687,43.9444,11.8218,2.0252,,0.00230999999999959,0.8522303561831155,0.7954885236637262,non_fall
4.720633,-0.6103,0.0757,0.59,-0.7912,0.0663,-0.2687,43.9444,11.8218,2.0252,,0.0012030000000002872,0.8522303561831155,0.8191849518593977,non_fall
4.721818,-0.6103,0.0757,0.59,-0.7912,0.0663,-0.2687,43.9444,11.8218,2.0252,,0.0011849999999995475,0.8522303561831155,0.8418626316400445,non_fall
4.772401,-0.6103,0.0757,0.59,-0.7912,0.0663,-0.2687,43.9322,12.1878,3.0988,,0.05058300000000049,0.8522303561831155,0.8623423505337786,non_fall
4.775884,-0.6103,0.0757,0.59,-1.0227,0.2272,-0.0394,43.9322,12.1878,3.0988,,0.0034829999999992367,0.8522303561831155,0.8794199619014986,non_fall
4.782039,-0.7125,0.3901,0.3689,-1.0227,0.2272,-0.0394,43.9322,12.1878,3.0988,,0.006155000000000577,0.8921443100754496,0.8919719837035978,non_fall
4.785021,-0.7125,0.3901,0.3689,-1.0227,0.2272,-0.0394,43.9322,12.1878,3.0988,,0.0029820000000002622,0.8921443100754496,0.8990583337239061,non_fall
4.78766,-0.7125,0.3901,0.3689,-1.0227,0.2272,-0.0394,43.9322,12.1878,3.0988,,0.002638999999999392,0.8921443100754496,0.9000180629908106,non_fall
4.789858,-0.7125,0.3901,0.3689,-1.0227,0.2272,-0.0394,43.9322,12.1878,3.0988,,0.0021979999999999222,0.8921443100754496,0.8945527508926916,non_fall
4.830825,-0.7125,0.3901,0.3689,-1.0227,0.2272,-0.0394,43.92,12.4318,4.2334,,0.0409670000000002,0.8921443100754496,0.8827909204740793,non_fall
4.842717,-0.7125,0.3901,0.3689,-1.0376,0.0734,0.0541,43.92,12.4318,4.2334,,0.011892000000000458,0.8921443100754496,0.8653258585087636,non_fall
4.851269,-0.7125,0.3901,0.3689,-1.0376,0.0734,0.0541,43.92,12.4318,4.2334,,0.008551999999999893,0.8921443100754496,0.8432187867773453,non_fall
4.853374,-0.7125,0.3901,0.3689,-1.0376,0.0734,0.0541,43.92,12.4318,4.2334,,0.0021049999999993574,0.8921443100754496,0.8179598491506438,non_fall
4.855679,-0.7125,0.3901,0.3689,-1.0376,0.0734,0.0541,43.92,12.4318,4.2334,,0.0023050000000006676,0.8921443100754496,0.7913815454554696,non_fall
4.857554,-0.7125,0.3901,0.3689,-1.0376,0.0734,0.0541,43.92,12.4318,4.2334,,0.001875000000000071,0.8921443100754496,0.7655237992762968,non_fall
4.859836,0.2141,0.5327,0.2587,-1.0376,0.0734,0.0541,43.92,12.4318,4.2334,,0.002281999999999229,0.629709290069632,0.7424572593944232,non_fall
4.889684,0.2141,0.5327,0.2587,-1.0376,0.0734,0.0541,43.9444,12.6636,5.3192,,0.02984800000000032,0.629709290069632,0.7240810705093926,non_fall
4.911227,0.2141,0.5327,0.2587,-1.0288,0.0217,-0.0578,43.9444,12.6636,5.3192,,0.021543000000000312,0.629709290069632,0.7119203880349207,non_fall
4.91534,0.2141,0.5327,0.2587,-1.0288,0.0217,-0.0578,43.9444,12.6636,5.3192,,0.004112999999999367,0.629709290069632,0.7069530681525286,non_fall
4.91629,0.2141,0.5327,0.2587,-1.0288,0.0217,-0.0578,43.9444,12.6636,5.3192,,0.0009500000000004505,0.629709290069632,0.7094917676514948,non_fall
4.917122,0.2141,0.5327,0.2587,-1.0288,0.0217,-0.0578,43.9444,12.6636,5.3192,,0.0008319999999999439,0.629709290069632,0.7191385975224068,non_fall
4.922522,0.6359,0.2196,0.4359,-1.0288,0.0217,-0.0578,43.9444,12.6636,5.3192,,0.005399999999999849,0.8016244631995708,0.7348179375046237,non_fall
4.95085,0.6359,0.2196,0.4359,-1.0288,0.0217,-0.0578,43.9444,12.81,6.405,,0.02832800000000013,0.8016244631995708,0.7548817502124374,non_fall
4.979865,0.6359,0.2196,0.4359,-1.2745,-0.0782,-0.1217,43.9444,12.81,6.405,,0.029015000000000235,0.8016244631995708,0.7772727391975972,non_fall
4.982707,0.6359,0.2196,0.4359,-1.2745,-0.0782,-0.1217,43.9444,12.81,6.405,,0.0028420000000002332,0.8016244631995708,0.7997259215813882,non_fall
4.98385,0.6359,0.2196,0.4359,-1.2745,-0.0782,-0.1217,43.9444,12.81,6.405,,0.001142999999999894,0.8016244631995708,0.8199892032925011,non_fall
4.984746,0.6359,0.2196,0.4359,-1.2745,-0.0782,-0.1217,43.9444,12.81,6.405,,0.0008960000000000079,0.8016244631995708,0.8360464043472468,non_fall
4.990976,-0.3953,0.4651,0.6234,-1.2745,-0.0782,-0.1217,43.9444,12.81,6.405,,0.006229999999999514,0.8724721542834476,0.8463288768667848,non_fall
5.009641,-0.3953,0.4651,0.6234,-1.2745,-0.0782,-0.1217,43.9444,12.9076,7.4908,,0.018665000000000376,0.8724721542834476,0.8499027056258803,non_fall
5.052755,-0.3953,0.4651,0.6234,-1.446,-0.3803,-0.0929,43.9444,12.9076,7.4908,,0.0431140000000001,0.8724721542834476,0.846617886308049,non_fall
5.057566,-0.3953,0.4651,0.6234,-1.446,-0.3803,-0.0929,43.9444,12.9076,7.4908,,0.0048109999999992326,0.8724721542834476,0.8372054188461363,non_fall
5.060348,-0.3953,0.4651,0.6234,-1.446,-0.3803,-0.0929,43.9444,12.9076,7.4908,,0.0027820000000007283,0.8724721542834476,0.8233092464169139,non_fall
5.063143,-0.3953,0.4651,0.6234,-1.446,-0.3803,-0.0929,43.9444,12.9076,7.4908,,0.002794999999999881,0.8724721542834476,0.807442716086494,non_fall
5.06555,-0.3953,0.4651,0.6234,-1.446,-0.3803,-0.0929,43.9444,12.9076,7.4908,,0.002406999999999826,0.8724721542834476,0.7928634804807446,non_fall
5.067664,-0.5932,0.3112,0.4872,-1.446,-0.3803,-0.0929,43.9444,12.9076,7.4908,,0.002113999999999727,0.8283088312942221,0.7833664335365755,non_fall
5.069252,-0.5932,0.3112,0.4872,-1.446,-0.3803,-0.0929,43.9322,13.0296,8.2716,,0.0015879999999999228,0.8283088312942221,0.783001450108446,non_fall
5.118227,-0.5932,0.3112,0.4872,-1.446,-0.3803,-0.0929,43.9322,13.0296,8.2716,,0.048975000000000435,0.8283088312942221,0.795731019347362,non_fall
5.121771,-0.5932,0.3112,0.4872,-1.446,-0.3803,-0.0929,43.9322,13.0296,8.2716,,0.0035439999999997696,0.8283088312942221,0.8250513607268725,non_fall
5.124075,-0.5932,0.3112,0.4872,-1.446,-0.3803,-0.0929,43.9322,13.0296,8.2716,,0.002304000000000528,0.8283088312942221,0.873608164189691,non_fall
5.126343,-0.5932,0.3112,0.4872,-1.6831,-0.3854,0.0935,43.9322,13.0296,8.2716,,0.0022679999999999367,0.8283088312942221,0.9428437391128103,non_fall
5.136847,-0.5932,0.3112,0.4872,-1.6831,-0.3854,0.0935,43.9322,12.9442,8.9792,,0.010504000000000069,0.8283088312942221,1.0327149558719548,non_fall
5.138861,0.37,0.1984,1.1816,-1.6831,-0.3854,0.0935,43.9322,12.9442,8.9792,,0.0020139999999999603,1.2539701431852355,1.141519370165661,non_fall
5.185397,0.37,0.1984,1.1816,-1.6831,-0.3854,0.0935,43.9322,12.9442,8.9792,,0.04653599999999969,1.2539701431852355,1.2658595752070974,non_fall
5.18909,0.37,0.1984,1.1816,-1.6831,-0.3854,0.0935,43.9322,12.9442,8.9792,,0.0036930000000001684,1.2539701431852355,1.4007651963631638,non_fall
5.191482,0.37,0.1984,1.1816,-1.6831,-0.3854,0.0935,43.9322,12.9442,8.9792,,0.0023919999999995056,1.2539701431852355,1.539982033766721,non_fall
5.193706,0.37,0.1984,1.1816,-1.6831,-0.3854,0.0935,44.0542,12.566,9.8088,,0.0022240000000000038,1.2539701431852355,1.6764295414903245,non_fall
5.19662,0.37,0.1984,1.1816,-1.5811,-0.1278,0.2883,44.0542,12.566,9.8088,,0.0029140000000005273,1.2539701431852355,1.802815677446146,non_fall
5.199253,-0.4453,-0.3376,2.3576,-1.5811,-0.1278,0.2883,44.0542,12.566,9.8088,,0.0026329999999994413,2.422920471249521,1.9123746943974118,non_fall
5.251482,-0.4453,-0.3376,2.3576,-1.5811,-0.1278,0.2883,44.2006,12.139,10.2724,,0.052229000000000525,2.422920471249521,1.9996579657702704,non_fall
5.255488,-0.4453,-0.3376,2.3576,-1.5811,-0.1278,0.2883,44.2006,12.139,10.2724,,0.00400599999999951,2.422920471249521,2.0612724762001418,non_fall
5.25804,-0.4453,-0.3376,2.3576,-1.5811,-0.1278,0.2883,44.2006,12.139,10.2724,,0.002552000000000554,2.422920471249521,2.0964459086915452,non_fall
5.260151,-0.4453,-0.3376,2.3576,-1.5811,-0.1278,0.2883,44.2006,12.139,10.2724,,0.002110999999999308,2.422920471249521,2.1073128931820944,non_fall
5.262092,-0.4453,-0.3376,2.3576,-1.5811,-0.1278,0.2883,44.2006,12.139,10.2724,,0.0019410000000004146,2.422920471249521,2.098857592853025,non_fall
5.264047,-0.4453,-0.3376,2.3576,-0.9123,-0.5432,0.2509,44.2006,12.139,10.2724,,0.001954999999999707,2.422920471249521,2.0784981547887673,non_fall
5.272175,0.7582,-1.2771,1.0246,-0.9123,-0.5432,0.2509,44.2006,12.139,10.2724,,0.008128000000000135,1.8043438724367369,2.055348440119327,non_fall
5.311756,0.7582,-1.2771,1.0246,-0.9123,-0.5432,0.2509,44.5666,11.6754,10.4554,,0.03958100000000009,1.8043438724367369,2.0392379035070753,non_fall
5.317041,0.7582,-1.2771,1.0246,-0.9123,-0.5432,0.2509,44.5666,11.6754,10.4554,,0.005284999999999762,1.8043438724367369,2.039606289454532,non_fall
5.318075,0.7582,-1.2771,1.0246,-0.9123,-0.5432,0.2509,44.5666,11.6754,10.4554,,0.0010340000000006455,1.8043438724367369,2.0644076045168354,non_fall
5.319217,0.7582,-1.2771,1.0246,-0.9123,-0.5432,0.2509,44.5666,11.6754,10.4554,,0.0011419999999997543,1.8043438724367369,2.1191529949314547,non_fall
5.328171,0.7582,-1.2771,1.0246,0.0744,-0.0675,0.0115,44.5666,11.6754,10.4554,,0.008954000000000129,1.8043438724367369,2.2061986639348437,non_fall
5.3413,0.0048,-1.4714,-2.0209,0.0744,-0.0675,0.0115,44.5666,11.6754,10.4554,,0.013129000000000168,2.4998155551960233,2.324350855509334,non_fall
5.369942,0.0048,-1.4714,-2.0209,0.0744,-0.0675,0.0115,44.835,11.3948,10.5164,,0.028641999999999612,2.4998155551960233,2.468821799686646,non_fall
5.385337,0.0048,-1.4714,-2.0209,0.0744,-0.0675,0.0115,44.835,11.3948,10.5164,,0.015394999999999825,2.4998155551960233,2.631534812966749,non_fall
5.388146,0.0048,-1.4714,-2.0209,0.0744,-0.0675,0.0115,44.835,11.3948,10.5164,,0.0028090000000000614,2.4998155551960233,2.8017506958654956,non_fall
5.39021,0.0048,-1.4714,-2.0209,0.0744,-0.0675,0.0115,44.835,11.3948,10.5164,,0.0020639999999998437,2.4998155551960233,2.9669726806354486,non_fall
5.400059,0.0048,-1.4714,-2.0209,1.1416,1.9452,-0.4192,44.835,11.3948,10.5164,,0.009848999999999997,2.4998155551960233,3.114074550458636,non_fall
5.416493,0.0248,-2.1432,-3.1797,1.1416,1.9452,-0.4192,44.835,11.3948,10.5164,,0.01643400000000028,3.8346334075110753,3.2305735812926764,non_fall
5.429575,0.0248,-2.1432,-3.1797,1.1416,1.9452,-0.4192,44.9448,11.3094,10.8702,,0.013081999999999816,3.8346334075110753,3.305933204942424,non_fall
5.450159,0.0248,-2.1432,-3.1797,1.1416,1.9452,-0.4192,44.9448,11.3094,10.8702,,0.02058400000000038,3.8346334075110753,3.332742978427024,non_fall
5.452856,0.0248,-2.1432,-3.1797,1.1416,1.9452,-0.4192,44.9448,11.3094,10.8702,,0.0026969999999995053,3.8346334075110753,3.3076089674559093,non_fall
5.454804,0.0248,-2.1432,-3.1797,1.1416,1.9452,-0.4192,44.9448,11.3094,10.8702,,0.0019480000000005049,3.8346334075110753,3.2316108137402932,non_fall
5.456433,0.0248,-2.1432,-3.1797,1.1416,1.9452,-0.4192,44.9448,11.3094,10.8702,,0.0016289999999994365,3.8346334075110753,3.110237480445182,non_fall
5.469457,0.0248,-2.1432,-3.1797,1.8115,0.2751,0.6653,44.9448,11.3094,10.8702,,0.01302400000000059,3.8346334075110753,2.952787212351744,non_fall
5.481202,0.4715,1.3017,-1.0007,1.8115,0.2751,0.6653,44.9448,11.3094,10.8702,,0.01174499999999945,1.7082551419504055,2.771299156846908,non_fall
5.488702,0.4715,1.3017,-1.0007,1.8115,0.2751,0.6653,45.0668,11.3704,10.9678,,0.007500000000000284,1.7082551419504055,2.5791673833983593,non_fall
5.51752,0.4715,1.3017,-1.0007,1.8115,0.2751,0.6653,45.0668,11.3704,10.9678,,0.028818000000000232,1.7082551419504055,2.389653848912823,non_fall
5.520086,0.4715,1.3017,-1.0007,1.8115,0.2751,0.6653,45.0668,11.3704,10.9678,,0.002565999999999846,1.7082551419504055,2.214536201621014,non_fall
5.521213,0.4715,1.3017,-1.0007,1.8115,0.2751,0.6653,45.0668,11.3704,10.9678,,0.0011270000000003222,1.7082551419504055,2.063085577986769,non_fall
5.539298,0.4715,1.3017,-1.0007,1.6381,0.0839,0.351,45.0668,11.3704,10.9678,,0.01808499999999924,1.7082551419504055,1.9414872128528482,non_fall
5.549074,0.4715,1.3017,-1.0007,1.6381,0.0839,0.351,45.2986,11.3582,11.0044,,0.009776000000000451,1.7082551419504055,1.8527264218820543,non_fall
5.55192,1.0422,1.4731,-1.0732,1.6381,0.0839,0.351,45.2986,11.3582,11.0044,,0.002845999999999904,2.0995148701545316,1.7968869756066608,non_fall
5.584641,1.0422,1.4731,-1.0732,1.6381,0.0839,0.351,45.2986,11.3582,11.0044,,0.032721000000000444,2.0995148701545316,1.7717550658011791,non_fall
5.587378,1.0422,1.4731,-1.0732,1.6381,0.0839,0.351,45.2986,11.3582,11.0044,,0.0027369999999997674,2.0995148701545316,1.7735917242224148,non_fall
5.589045,1.0422,1.4731,-1.0732,1.6381,0.0839,0.351,45.2986,11.3582,11.0044,,0.001666999999999419,2.0995148701545316,1.7979315461300769,non_fall
5.607466,1.0422,1.4731,-1.0732,1.6381,0.0839,0.351,45.4938,11.529,10.8336,,0.01842100000000002,2.0995148701545316,1.8402845442834501,non_fall
5.610115,1.0422,1.4731,-1.0732,0.9469,-0.0196,-0.1294,45.4938,11.529,10.8336,,0.0026490000000007896,2.0995148701545316,1.8966535497277806,non_fall
5.618627,-0.0104,1.2534,-1.6585,0.9469,-0.0196,-0.1294,45.4938,11.529,10.8336,,0.008511999999999631,2.078879979700608,1.9638217284672708,non_fall
5.649408,-0.0104,1.2534,-1.6585,0.9469,-0.0196,-0.1294,45.4938,11.529,10.8336,,0.03078100000000017,2.078879979700608,2.0394057046751204,non_fall
5.652671,-0.0104,1.2534,-1.6585,0.9469,-0.0196,-0.1294,45.4938,11.529,10.8336,,0.003262999999999572,2.078879979700608,2.1217049981494993,non_fall
5.654771,-0.0104,1.2534,-1.6585,0.9469,-0.0196,-0.1294,45.4938,11.529,10.8336,,0.002100000000000435,2.078879979700608,2.2094053041523853,non_fall
5.656601,-0.0104,1.2534,-1.6585,0.9469,-0.0196,-0.1294,45.4938,11.529,10.8336,,0.0018299999999999983,2.078879979700608,2.3012097210262863,non_fall
5.667458,-0.0104,1.2534,-1.6585,0.9469,-0.0196,-0.1294,45.628,12.0048,10.2724,,0.010856999999999672,2.078879979700608,2.395477212811175,non_fall
5.6791,-0.0104,1.2534,-1.6585,0.1334,-0.533,-0.5205,45.628,12.0048,10.2724,,0.011642000000000152,2.078879979700608,2.4899406792284084,non_fall
5.690145,-1.5867,0.1409,-2.2633,0.1334,-0.533,-0.5205,45.628,12.0048,10.2724,,0.011045000000000194,2.767669884578,2.5815578311305747,non_fall
5.72001,-1.5867,0.1409,-2.2633,0.1334,-0.533,-0.5205,45.628,12.0048,10.2724,,0.02986500000000003,2.767669884578,2.666518907870982,non_fall
5.72411,-1.5867,0.1409,-2.2633,0.1334,-0.533,-0.5205,45.628,12.0048,10.2724,,0.004099999999999326,2.767669884578,2.740403693832164,non_fall
5.727164,-1.5867,0.1409,-2.2633,0.1334,-0.533,-0.5205,45.628,12.0048,10.2724,,0.0030540000000005563,2.767669884578,2.7984573360199496,non_fall
5.728412,-1.5867,0.1409,-2.2633,0.1334,-0.533,-0.5205,45.7134,12.7856,9.577,,0.0012479999999994718,2.767669884578,2.8359461339434677,non_fall
5.748996,-1.5867,0.1409,-2.2633,-0.3696,-0.4621,-0.3225,45.7134,12.7856,9.577,,0.02058400000000038,2.767669884578,2.8485563355076025,non_fall
5.763394,0.5157,-2.2564,-1.6865,-0.3696,-0.4621,-0.3225,45.7134,12.7856,9.577,,0.014397999999999911,2.863838281048705,2.8328017741126583,non_fall
5.784677,0.5157,-2.2564,-1.6865,-0.3696,-0.4621,-0.3225,45.7134,12.7856,9.577,,0.021283000000000385,2.863838281048705,2.786404771705541,non_fall
5.786455,0.5157,-2.2564,-1.6865,-0.3696,-0.4621,-0.3225,45.7134,12.7856,9.577,,0.0017779999999998353,2.863838281048705,2.7086103940383097,non_fall
5.787541,0.5157,-2.2564,-1.6865,-0.3696,-0.4621,-0.3225,45.7134,12.7856,9.577,,0.0010859999999999204,2.863838281048705,2.6003915194148663,non_fall
5.799007,0.5157,-2.2564,-1.6865,-0.3696,-0.4621,-0.3225,45.628,13.725,8.845,,0.011465999999999532,2.863838281048705,2.4645059925685016,non_fall
5.818181,0.5157,-2.2564,-1.6865,-0.83,-0.1084,0.137,45.628,13.725,8.845,,0.01917400000000047,2.863838281048705,2.3053808598962338,non_fall
5.828024,-0.6409,-0.7537,-1.1019,-0.83,-0.1084,0.137,45.628,13.725,8.845,,0.009843000000000046,1.4808781550147874,2.128824330227043,non_fall
5.850508,-0.6409,-0.7537,-1.1019,-0.83,-0.1084,0.137,45.628,13.725,8.845,,0.022483999999999504,1.4808781550147874,1.9416012567042875,non_fall
5.85377,-0.6409,-0.7537,-1.1019,-0.83,-0.1084,0.137,45.628,13.725,8.845,,0.00326200000000032,1.4808781550147874,1.750940274490866,non_fall
5.857056,-0.6409,-0.7537,-1.1019,-0.83,-0.1084,0.137,45.628,13.725,8.845,,0.003286000000000122,1.4808781550147874,1.5640513734025643,non_fall
5.859173,-0.6409,-0.7537,-1.1019,-0.83,-0.1084,0.137,45.628,13.725,8.845,,0.0021170000000001465,1.4808781550147874,1.3877130275745015,non_fall
5.86086,-0.6409,-0.7537,-1.1019,-0.83,-0.1084,0.137,45.6158,14.3838,8.2594,,0.00168699999999955,1.4808781550147874,1.2279505387614795,non_fall
5.88602,-0.6409,-0.7537,-1.1019,-1.2689,-0.3401,0.5198,45.6158,14.3838,8.2594,,0.025160000000000515,1.4808781550147874,1.0897944920101779,non_fall
5.899154,0.7071,-0.1902,-0.183,-1.2689,-0.3401,0.5198,45.6158,14.3838,8.2594,,0.013133999999999979,0.7547552252220583,0.9770949945261147,non_fall
5.918896,0.7071,-0.1902,-0.183,-1.2689,-0.3401,0.5198,45.8598,14.6644,7.2468,,0.019741999999999926,0.7547552252220583,0.8923748544869838,non_fall
5.923102,0.7071,-0.1902,-0.183,-1.2689,-0.3401,0.5198,45.8598,14.6644,7.2468,,0.004205999999999932,0.7547552252220583,0.8367233146725814,non_fall
5.925032,0.7071,-0.1902,-0.183,-1.2689,-0.3401,0.5198,45.8598,14.6644,7.2468,,0.0019299999999997652,0.7547552252220583,0.8097468509884906,non_fall
5.927005,0.7071,-0.1902,-0.183,-1.2689,-0.3401,0.5198,45.8598,14.6644,7.2468,,0.0019730000000004466,0.7547552252220583,0.8095955839520461,non_fall
5.95662,0.7071,-0.1902,-0.183,-1.2469,-0.2611,0.7113,45.8598,14.6644,7.2468,,0.029614999999999725,0.7547552252220583,0.8330749449158118,non_fall
5.969392,0.081,-0.345,0.9505,-1.2469,-0.2611,0.7113,45.8598,14.6644,7.2468,,0.012772000000000006,1.0144142398448475,0.8758400763729262,non_fall
5.977547,0.081,-0.345,0.9505,-1.2469,-0.2611,0.7113,46.116,14.518,6.405,,0.008155000000000356,1.0144142398448475,0.9326603512168874,non_fall
5.983601,0.081,-0.345,0.9505,-1.2469,-0.2611,0.7113,46.116,14.518,6.405,,0.006053999999999782,1.0144142398448475,0.9977354987349768,non_fall
5.986696,0.081,-0.345,0.9505,-1.2469,-0.2611,0.7113,46.116,14.518,6.405,,0.00309500000000007,1.0144142398448475,1.0650443961268765,non_fall
5.98948,0.081,-0.345,0.9505,-1.2469,-0.2611,0.7113,46.116,14.518,6.405,,0.0027840000000001197,1.0144142398448475,1.1287120093385192,non_fall
6.026775,0.081,-0.345,0.9505,-0.8428,-0.4526,0.5145,46.116,14.518,6.405,,0.03729499999999941,1.0144142398448475,1.1833852144476797,non_fall
6.035979,0.081,-0.345,0.9505,-0.8428,-0.4526,0.5145,46.3722,14.1642,5.6974,,0.009204000000000434,1.0144142398448475,1.2246089965930005,non_fall
6.039877,0.7407,-0.5303,1.0972,-0.8428,-0.4526,0.5145,46.3722,14.1642,5.6974,,0.003897999999999513,1.4260793876920037,1.2491877420145572,non_fall
6.051511,0.7407,-0.5303,1.0972,-0.8428,-0.4526,0.5145,46.3722,14.1642,5.6974,,0.011633999999999922,1.4260793876920037,1.25550306922411,non_fall
6.054569,0.7407,-0.5303,1.0972,-0.8428,-0.4526,0.5145,46.3722,14.1642,5.6974,,0.003058000000000227,1.4260793876920037,1.2437456005572882,non_fall
6.056973,0.7407,-0.5303,1.0972,-0.8428,-0.4526,0.5145,46.3722,14.1642,5.6974,,0.002404000000000295,1.4260793876920037,1.2160115858080263,non_fall
6.059501,0.7407,-0.5303,1.0972,-0.8428,-0.4526,0.5145,46.3722,14.1642,5.6974,,0.0025279999999998637,1.4260793876920037,1.176221830043548,non_fall
6.096187,0.7407,-0.5303,1.0972,-0.8428,-0.4526,0.5145,46.6162,13.5908,5.0142,,0.03668599999999955,1.4260793876920037,1.129839073528656,non_fall
6.10019,0.7407,-0.5303,1.0972,-0.6124,-0.5511,0.377,46.6162,13.5908,5.0142,,0.004002999999999979,1.4260793876920037,1.0833866320164298,non_fall
6.106368,0.1008,-0.6414,0.265,-0.6124,-0.5511,0.377,46.6162,13.5908,5.0142,,0.006178000000000239,0.7012699908024013,1.0438027078357168,non_fall
6.11658,0.1008,-0.6414,0.265,-0.6124,-0.5511,0.377,46.6162,13.5908,5.0142,,0.01021200000000011,0.7012699908024013,1.0176983439770084,non_fall
6.118032,0.1008,-0.6414,0.265,-0.6124,-0.5511,0.377,46.6162,13.5908,5.0142,,0.001452000000000453,0.7012699908024013,1.0106148525825474,non_fall
6.119186,0.1008,-0.6414,0.265,-0.6124,-0.5511,0.377,46.6162,13.5908,5.0142,,0.0011539999999996553,0.7012699908024013,1.0263871218025726,non_fall
6.156147,0.1008,-0.6414,0.265,-0.6124,-0.5511,0.377,46.8602,12.7246,4.4408,,0.0369609999999998,0.7012699908024013,1.0667057692864323,non_fall
6.165462,0.1008,-0.6414,0.265,-0.9164,-0.324,0.5129,46.8602,12.7246,4.4408,,0.009314999999999962,0.7012699908024013,1.1309376241145361,non_fall
6.175859,-0.733,-1.0533,-0.9684,-0.9164,-0.324,0.5129,46.8602,12.7246,4.4408,,0.010397000000000212,1.6076468673188151,1.216220005207326,non_fall
6.183515,-0.733,-1.0533,-0.9684,-0.9164,-0.324,0.5129,46.8602,12.7246,4.4408,,0.007655999999999885,1.6076468673188151,1.3177985442284175,non_fall
6.186496,-0.733,-1.0533,-0.9684,-0.9164,-0.324,0.5129,46.8602,12.7246,4.4408,,0.0029810000000001224,1.6076468673188151,1.4295408170439123,non_fall
6.188861,-0.733,-1.0533,-0.9684,-0.9164,-0.324,0.5129,46.8602,12.7246,4.4408,,0.0023650000000001725,1.6076468673188151,1.5445404723020801,non_fall
6.215553,-0.733,-1.0533,-0.9684,-0.9164,-0.324,0.5129,47.1652,11.3826,3.9894,,0.026691999999999716,1.6076468673188151,1.6557332952824564,non_fall
6.235718,-0.733,-1.0533,-0.9684,-1.2376,-0.3277,0.665,47.1652,11.3826,3.9894,,0.020165000000000433,1.6076468673188151,1.7564683287767713,non_fall
6.245922,0.2116,-1.9745,-0.4862,-1.2376,-0.3277,0.665,47.1652,11.3826,3.9894,,0.01020399999999988,2.0444596474374346,1.8409982418364434,non_fall
6.252219,0.2116,-1.9745,-0.4862,-1.2376,-0.3277,0.665,47.1652,11.3826,3.9894,,0.006296999999999997,2.0444596474374346,1.9048645746772404,non_fall
6.25514,0.2116,-1.9745,-0.4862,-1.2376,-0.3277,0.665,47.1652,11.3826,3.9894,,0.0029209999999997294,2.0444596474374346,1.9451571519095885,non_fall
6.256746,0.2116,-1.9745,-0.4862,-1.2376,-0.3277,0.665,47.1652,11.3826,3.9894,,0.0016059999999997743,2.0444596474374346,1.9606306815525758,non_fall
6.257939,0.2116,-1.9745,-0.4862,-1.2376,-0.3277,0.665,47.1652,11.3826,3.9894,,0.0011930000000006658,2.0444596474374346,1.9516709989185457,non_fall
6.27615,0.2116,-1.9745,-0.4862,-1.2376,-0.3277,0.665,47.4824,9.7478,3.6844,,0.018210999999999977,2.0444596474374346,1.9201178854234495,non_fall
6.30534,0.2116,-1.9745,-0.4862,-1.1822,-0.3353,0.339,47.4824,9.7478,3.6844,,0.029189999999999827,2.0444596474374346,1.8689671356719981,non_fall
6.316025,0.4051,-1.3464,0.2331,-1.1822,-0.3353,0.339,47.4824,9.7478,3.6844,,0.010684999999999611,1.4252138716697926,1.8019896253225822,non_fall
6.319622,0.4051,-1.3464,0.2331,-1.1822,-0.3353,0.339,47.4824,9.7478,3.6844,,0.0035970000000000724,1.4252138716697926,1.7233186953354085,non_fall
6.322454,0.4051,-1.3464,0.2331,-1.1822,-0.3353,0.339,47.4824,9.7478,3.6844,,0.0028319999999997236,1.4252138716697926,1.6370650499395099,non_fall
6.324719,0.4051,-1.3464,0.2331,-1.1822,-0.3353,0.339,47.4824,9.7478,3.6844,,0.0022650000000004056,1.4252138716697926,1.5470134490648886,non_fall
6.335462,0.4051,-1.3464,0.2331,-1.1822,-0.3353,0.339,47.7752,8.0886,3.233,,0.010742999999999725,1.4252138716697926,1.4564350813447466,non_fall
6.375832,0.4051,-1.3464,0.2331,-0.8812,-0.3625,-0.0517,47.7752,8.0886,3.233,,0.04037000000000024,1.4252138716697926,1.368020261268136,non_fall
6.387073,0.4051,-1.3464,0.2331,-0.8812,-0.3625,-0.0517,47.7752,8.0886,3.233,,0.011241000000000057,1.4252138716697926,1.2839090070216346,non_fall
6.388703,0.4051,-1.3464,0.2331,-0.8812,-0.3625,-0.0517,47.7752,8.0886,3.233,,0.0016299999999995762,1.4252138716697926,1.2057797868668896,non_fall
6.390297,0.4051,-1.3464,0.2331,-0.8812,-0.3625,-0.0517,47.7752,8.0886,3.233,,0.0015940000000007615,1.4252138716697926,1.134951892165619,non_fall
6.391745,0.6945,-0.2358,0.5629,-0.8812,-0.3625,-0.0517,47.7752,8.0886,3.233,,0.0014479999999998938,0.9245476191089348,1.0724643338609599,non_fall
6.39557,0.6945,-0.2358,0.5629,-0.8812,-0.3625,-0.0517,48.0436,6.6246,2.7206,,0.0038249999999999673,0.9245476191089348,1.0191113136961722,non_fall
6.445991,0.6945,-0.2358,0.5629,-0.4944,-0.3505,-0.0494,48.0436,6.6246,2.7206,,0.05042100000000005,0.9245476191089348,0.9754346811722124,non_fall
6.450484,0.6945,-0.2358,0.5629,-0.4944,-0.3505,-0.0494,48.0436,6.6246,2.7206,,0.00449300000000008,0.9245476191089348,0.9416883619458701,non_fall
6.452212,0.6945,-0.2358,0.5629,-0.4944,-0.3505,-0.0494,48.0436,6.6246,2.7206,,0.0017279999999999518,0.9245476191089348,0.9177933716784465,non_fall
6.453918,0.6945,-0.2358,0.5629,-0.4944,-0.3505,-0.0494,48.0436,6.6246,2.7206,,0.0017059999999995412,0.9245476191089348,0.9032974051925523,non_fall
6.456272,0.6945,-0.2358,0.5629,-0.4944,-0.3505,-0.0494,48.0436,6.6246,2.7206,,0.0023540000000004113,0.9245476191089348,0.8973467187423738,non_fall
6.458114,0.6945,-0.2358,0.5629,-0.4944,-0.3505,-0.0494,48.19,5.49,2.0618,,0.0018419999999998993,0.9245476191089348,0.8986743993594137,non_fall
6.460048,0.5476,0.1932,0.6446,-0.4944,-0.3505,-0.0494,48.19,5.49,2.0618,,0.0019339999999994362,0.8675835175935513,0.9056087196558393,non_fall
6.515492,0.5476,0.1932,0.6446,-0.4944,-0.3505,-0.0494,48.2388,4.6848,1.2444,,0.05544400000000049,0.8675835175935513,0.91610685658403,non_fall
6.519207,0.5476,0.1932,0.6446,-0.3346,-0.2071,-0.3032,48.2388,4.6848,1.2444,,0.0037149999999996908,0.8675835175935513,0.9278209759458322,non_fall
6.52243,0.5476,0.1932,0.6446,-0.3346,-0.2071,-0.3032,48.2388,4.6848,1.2444,,0.003223000000000198,0.8675835175935513,0.9382036421951572,non_fall
6.525037,0.5476,0.1932,0.6446,-0.3346,-0.2071,-0.3032,48.2388,4.6848,1.2444,,0.002607000000000248,0.8675835175935513,0.9446564880395801,non_fall
6.528082,0.5476,0.1932,0.6446,-0.3346,-0.2071,-0.3032,48.2388,4.6848,1.2444,,0.0030450000000001864,0.8675835175935513,0.9447200475029375,non_fall
6.530567,-0.5512,0.0819,0.7844,-0.3346,-0.2071,-0.3032,48.2388,4.6848,1.2444,,0.0024849999999991823,0.962191462236077,0.9362944298677686,non_fall
6.574717,-0.5512,0.0819,0.7844,-0.3346,-0.2071,-0.3032,48.2632,4.209,0.5246,,0.044150000000000134,0.962191462236077,0.9178713136036094,non_fall
6.584286,-0.5512,0.0819,0.7844,-0.0913,-0.2827,-0.4886,48.2632,4.209,0.5246,,0.009568999999999939,0.962191462236077,0.8887494217142162,non_fall
6.588519,-0.5512,0.0819,0.7844,-0.0913,-0.2827,-0.4886,48.2632,4.209,0.5246,,0.004233000000000153,0.962191462236077,0.8492006185326593,non_fall
6.591354,-0.5512,0.0819,0.7844,-0.0913,-0.2827,-0.4886,48.2632,4.209,0.5246,,0.002835000000000143,0.962191462236077,0.8005539463947414,non_fall
6.593484,-0.5512,0.0819,0.7844,-0.0913,-0.2827,-0.4886,48.2632,4.209,0.5246,,0.0021300000000001873,0.962191462236077,0.7451708861464232,non_fall
6.595818,-0.5512,0.0819,0.7844,-0.0913,-0.2827,-0.4886,48.2632,4.209,0.5246,,0.0023340000000002803,0.962191462236077,0.6862967919648673,non_fall
6.597798,-0.0498,0.3098,0.2749,-0.0913,-0.2827,-0.4886,48.2632,4.209,0.5246,,0.0019799999999996487,0.41716434411392356,0.6277908024172288,non_fall
6.634012,-0.0498,0.3098,0.2749,-0.0913,-0.2827,-0.4886,48.2632,4.026,-0.183,,0.03621400000000019,0.41716434411392356,0.5737582008723294,non_fall
6.650814,-0.0498,0.3098,0.2749,-0.0913,-0.2827,-0.4886,48.2632,4.026,-0.183,,0.016801999999999317,0.41716434411392356,0.5281297961418333,non_fall
6.651929,-0.0498,0.3098,0.2749,-0.0913,-0.2827,-0.4886,48.2632,4.026,-0.183,,0.0011150000000004212,0.41716434411392356,0.49424416574930063,non_fall
6.652488,-0.0498,0.3098,0.2749,-0.0913,-0.2827,-0.4886,48.2632,4.026,-0.183,,0.0005589999999999762,0.41716434411392356,0.4744861245215928,non_fall
6.65503,-0.0498,0.3098,0.2749,0.2467,-0.3004,-0.2318,48.2632,4.026,-0.183,,0.0025420000000000442,0.41716434411392356,0.470022262784753,non_fall
6.663317,-0.0376,0.3875,0.2064,0.2467,-0.3004,-0.2318,48.2632,4.026,-0.183,,0.008287000000000155,0.44064835186347856,0.48065939140880626,non_fall
6.693981,-0.0376,0.3875,0.2064,0.2467,-0.3004,-0.2318,48.19,4.1968,-0.9516,,0.030663999999999803,0.44064835186347856,0.5048389508870758,non_fall
6.717364,-0.0376,0.3875,0.2064,0.2467,-0.3004,-0.2318,48.19,4.1968,-0.9516,,0.02338299999999993,0.44064835186347856,0.5397704391986502,non_fall
6.721275,-0.0376,0.3875,0.2064,0.2467,-0.3004,-0.2318,48.19,4.1968,-0.9516,,0.003911000000000442,0.44064835186347856,0.5816983366123141,non_fall
6.724878,-0.0376,0.3875,0.2064,0.2467,-0.3004,-0.2318,48.19,4.1968,-0.9516,,0.003603000000000023,0.44064835186347856,0.6262880350103707,non_fall
6.727831,-0.0376,0.3875,0.2064,0.2438,-0.3846,-0.1551,48.19,4.1968,-0.9516,,0.0029529999999997614,0.44064835186347856,0.6691049287805193,non_fall
6.733956,-0.4127,0.8641,0.3339,0.2438,-0.3846,-0.1551,48.19,4.1968,-0.9516,,0.006124999999999936,1.014139689589161,0.7061456151452901,non_fall
6.753376,-0.4127,0.8641,0.3339,0.2438,-0.3846,-0.1551,47.9582,4.6116,-1.8666,,0.019420000000000215,1.014139689589161,0.7343621603935863,non_fall
6.784043,-0.4127,0.8641,0.3339,0.2438,-0.3846,-0.1551,47.9582,4.6116,-1.8666,,0.030666999999999334,1.014139689589161,0.7521056671702226,non_fall
6.787335,-0.4127,0.8641,0.3339,0.2438,-0.3846,-0.1551,47.9582,4.6116,-1.8666,,0.0032920000000000726,1.014139689589161,0.7594132390853966,non_fall
6.789552,-0.4127,0.8641,0.3339,0.2438,-0.3846,-0.1551,47.9582,4.6116,-1.8666,,0.0022169999999999135,1.014139689589161,0.758078153464803,non_fall
6.792086,-0.4127,0.8641,0.3339,0.2438,-0.3846,-0.1551,47.9582,4.6116,-1.8666,,0.0025340000000007024,1.014139689589161,0.751473145279422,non_fall
6.794797,-0.4127,0.8641,0.3339,0.3875,-0.3477,-0.0491,47.9582,4.6116,-1.8666,,0.002710999999999686,1.014139689589161,0.7441333358239907,non_fall
6.80452,-0.0253,0.1894,0.4252,0.3875,-0.3477,-0.0491,47.9582,4.6116,-1.8666,,0.009723000000000148,0.4661625145804841,0.741142952153417,non_fall
6.813434,-0.0253,0.1894,0.4252,0.3875,-0.3477,-0.0491,47.7264,5.2094,-2.8914,,0.008913999999999866,0.4661625145804841,0.7474051550849656,non_fall
6.850768,-0.0253,0.1894,0.4252,0.3875,-0.3477,-0.0491,47.7264,5.2094,-2.8914,,0.03733400000000042,0.4661625145804841,0.7669010756997054,non_fall
6.85415,-0.0253,0.1894,0.4252,0.3875,-0.3477,-0.0491,47.7264,5.2094,-2.8914,,0.00338199999999933,0.4661625145804841,0.802053862191216,non_fall
6.856563,-0.0253,0.1894,0.4252,0.3875,-0.3477,-0.0491,47.7264,5.2094,-2.8914,,0.0024130000000006646,0.4661625145804841,0.8533011925459348,non_fall
6.863021,-0.0253,0.1894,0.4252,0.7265,-0.6541,-0.5438,47.7264,5.2094,-2.8914,,0.006457999999999409,0.4661625145804841,0.9189484575947453,non_fall
6.872741,-0.0253,0.1894,0.4252,0.7265,-0.6541,-0.5438,47.3726,5.8194,-4.1236,,0.009720000000000617,0.4661625145804841,0.9953316766234507,non_fall
6.874955,-1.1833,1.0521,-0.3389,0.7265,-0.6541,-0.5438,47.3726,5.8194,-4.1236,,0.002213999999999494,1.6192487486485825,1.0772690559560685,non_fall
6.916981,-1.1833,1.0521,-0.3389,0.7265,-0.6541,-0.5438,47.3726,5.8194,-4.1236,,0.0420259999999999,1.6192487486485825,1.1587276611950863,non_fall
6.920649,-1.1833,1.0521,-0.3389,0.7265,-0.6541,-0.5438,47.3726,5.8194,-4.1236,,0.0036680000000002266,1.6192487486485825,1.2335885451951305,non_fall
6.923132,-1.1833,1.0521,-0.3389,0.7265,-0.6541,-0.5438,47.3726,5.8194,-4.1236,,0.002482999999999791,1.6192487486485825,1.2963768602227084,non_fall
6.933194,-1.1833,1.0521,-0.3389,0.7265,-0.6541,-0.5438,46.9822,6.5514,-5.5266,,0.01006200000000046,1.6192487486485825,1.3428414728247033,non_fall
6.93698,-1.1833,1.0521,-0.3389,0.2692,-0.8044,-0.3033,46.9822,6.5514,-5.5266,,0.003785999999999845,1.6192487486485825,1.3703122991777619,non_fall
6.943458,0.8935,0.5402,0.483,0.2692,-0.8044,-0.3033,46.9822,6.5514,-5.5266,,0.00647799999999954,1.1504117914903342,1.3778152380015727,non_fall
6.984134,0.8935,0.5402,0.483,0.2692,-0.8044,-0.3033,46.9822,6.5514,-5.5266,,0.04067600000000038,1.1504117914903342,1.3659708101857195,non_fall
6.987635,0.8935,0.5402,0.483,0.2692,-0.8044,-0.3033,46.9822,6.5514,-5.5266,,0.0035009999999999764,1.1504117914903342,1.3367356572228597,non_fall
6.989785,0.8935,0.5402,0.483,0.2692,-0.8044,-0.3033,46.9822,6.5514,-5.5266,,0.0021500000000003183,1.1504117914903342,1.2930603141988095,non_fall
6.992218,0.8935,0.5402,0.483,0.2692,-0.8044,-0.3033,46.9822,6.5514,-5.5266,,0.0024329999999999075,1.1504117914903342,1.2385311082867083,non_fall
6.994792,0.8935,0.5402,0.483,0.2692,-0.8044,-0.3033,46.543,7.2712,-7.015,,0.0025740000000000762,1.1504117914903342,1.1770449985365807,non_fall
7.002919,0.8935,0.5402,0.483,0.3922,-0.744,-0.2794,46.543,7.2712,-7.015,,0.008126999999999995,1.1504117914903342,1.112543518691039,non_fall
7.012781,-0.3501,0.8856,0.241,0.3922,-0.744,-0.2794,46.543,7.2712,-7.015,,0.009862000000000037,0.9823127658744948,1.0488129551820486,non_fall
7.050867,-0.3501,0.8856,0.241,0.3922,-0.744,-0.2794,46.543,7.2712,-7.015,,0.03808599999999984,0.9823127658744948,0.9893452158399787,non_fall
7.054194,-0.3501,0.8856,0.241,0.3922,-0.744,-0.2794,46.543,7.2712,-7.015,,0.003326999999999636,0.9823127658744948,0.9372468788418227,non_fall
7.056654,-0.3501,0.8856,0.241,0.3922,-0.744,-0.2794,46.543,7.2712,-7.015,,0.0024600000000001288,0.9823127658744948,0.8951804381753821,non_fall
7.059072,-0.3501,0.8856,0.241,0.3922,-0.744,-0.2794,46.0184,7.7836,-8.7352,,0.002417999999999587,0.9823127658744948,0.8653203713868939,non_fall
7.07285,-0.3501,0.8856,0.241,0.5376,-0.9674,-0.2439,46.0184,7.7836,-8.7352,,0.01377800000000029,0.9823127658744948,0.8493081195403529,non_fall
7.085583,0.5671,0.5884,0.0587,0.5376,-0.9674,-0.2439,46.0184,7.7836,-8.7352,,0.012732999999999883,0.8193062064942509,0.8481959627542955,non_fall
7.112058,0.5671,0.5884,0.0587,0.5376,-0.9674,-0.2439,45.323,8.235,-10.6872,,0.02647500000000047,0.8193062064942509,0.8623799710105324,non_fall
7.11737,0.5671,0.5884,0.0587,0.5376,-0.9674,-0.2439,45.323,8.235,-10.6872,,0.005311999999999983,0.8193062064942509,0.8915338260058251,non_fall
7.120148,0.5671,0.5884,0.0587,0.5376,-0.9674,-0.2439,45.323,8.235,-10.6872,,0.0027780000000001692,0.8193062064942509,0.9345639168377858,non_fall
7.122654,0.5671,0.5884,0.0587,0.5376,-0.9674,-0.2439,45.323,8.235,-10.6872,,0.002505999999999453,0.8193062064942509,0.9896083393998485,non_fall
7.142975,0.5671,0.5884,0.0587,0.4589,-0.3374,-0.4416,45.323,8.235,-10.6872,,0.020321000000000033,0.8193062064942509,1.0540974515909445,non_fall
7.153218,0.9387,0.6317,0.7644,0.4589,-0.3374,-0.4416,45.323,8.235,-10.6872,,0.010243000000000002,1.365470592872655,1.1248822898187272,non_fall
7.172184,0.9387,0.6317,0.7644,0.4589,-0.3374,-0.4416,44.6032,8.6254,-12.6636,,0.018965999999999816,1.365470592872655,1.1984215529460005,non_fall
7.184201,0.9387,0.6317,0.7644,0.4589,-0.3374,-0.4416,44.6032,8.6254,-12.6636,,0.012017000000000166,1.365470592872655,1.271003217892752,non_fall
7.186888,0.9387,0.6317,0.7644,0.4589,-0.3374,-0.4416,44.6032,8.6254,-12.6636,,0.002686999999999884,1.365470592872655,1.3389706606426797,non_fall
7.189102,0.9387,0.6317,0.7644,0.4589,-0.3374,-0.4416,44.6032,8.6254,-12.6636,,0.0022140000000003823,1.365470592872655,1.39892890374709,non_fall
7.191396,0.9387,0.6317,0.7644,0.4589,-0.3374,-0.4416,44.6032,8.6254,-12.6636,,0.0022940000000000182,1.365470592872655,1.4479195727852974,non_fall
7.21242,0.9387,0.6317,0.7644,0.1011,-0.2617,-0.3521,44.6032,8.6254,-12.6636,,0.02102399999999971,1.365470592872655,1.4835647570695676,non_fall
7.223391,-1.4866,0.3323,-0.1412,0.1011,-0.2617,-0.3521,44.6032,8.6254,-12.6636,,0.010971000000000508,1.5298170773004203,1.5041847521446048,non_fall
7.231313,-1.4866,0.3323,-0.1412,0.1011,-0.2617,-0.3521,43.92,9.1012,-14.5668,,0.007921999999999763,1.5298170773004203,1.508892197573491,non_fall
7.251209,-1.4866,0.3323,-0.1412,0.1011,-0.2617,-0.3521,43.92,9.1012,-14.5668,,0.019896000000000136,1.5298170773004203,1.4976584847482564,non_fall
7.254099,-1.4866,0.3323,-0.1412,0.1011,-0.2617,-0.3521,43.92,9.1012,-14.5668,,0.002889999999999837,1.5298170773004203,1.4713419545766113,non_fall
7.256448,-1.4866,0.3323,-0.1412,0.1011,-0.2617,-0.3521,43.92,9.1012,-14.5668,,0.0023489999999997124,1.5298170773004203,1.431664715261671,non_fall
7.282559,-1.4866,0.3323,-0.1412,0.431,-0.2346,-0.3787,43.92,9.1012,-14.5668,,0.026111000000000217,1.5298170773004203,1.3811267710561224,non_fall
7.291645,-1.4866,0.3323,-0.1412,0.431,-0.2346,-0.3787,43.1514,9.5648,-16.4212,,0.009085999999999927,1.5298170773004203,1.322852141436839,non_fall
7.294646,0.7498,0.5339,-0.4777,0.431,-0.2346,-0.3787,43.1514,9.5648,-16.4212,,0.0030010000000002535,1.0370373860184599,1.2603716905874638,non_fall
7.317101,0.7498,0.5339,-0.4777,0.431,-0.2346,-0.3787,43.1514,9.5648,-16.4212,,0.02245499999999989,1.0370373860184599,1.1973606991442745,non_fall
7.320451,0.7498,0.5339,-0.4777,0.431,-0.2346,-0.3787,43.1514,9.5648,-16.4212,,0.003350000000000186,1.0370373860184599,1.137361590175433,non_fall
7.322898,0.7498,0.5339,-0.4777,0.431,-0.2346,-0.3787,43.1514,9.5648,-16.4212,,0.002447000000000088,1.0370373860184599,1.0835268935926985,non_fall
7.351941,0.7498,0.5339,-0.4777,0.4803,0.2566,-0.2056,43.1514,9.5648,-16.4212,,0.029042999999999708,1.0370373860184599,1.0384111670698475,non_fall
7.355803,0.7498,0.5339,-0.4777,0.4803,0.2566,-0.2056,42.4194,10.0284,-18.0072,,0.00386199999999981,1.0370373860184599,1.0038272050604264,non_fall
7.368653,0.0629,0.947,-0.2319,0.4803,0.2566,-0.2056,42.4194,10.0284,-18.0072,,0.01285000000000025,0.9770071749992422,0.9807688873186342,non_fall
7.383983,0.0629,0.947,-0.2319,0.4803,0.2566,-0.2056,42.4194,10.0284,-18.0072,,0.015329999999999622,0.9770071749992422,0.9693949954610597,non_fall
7.385841,0.0629,0.947,-0.2319,0.4803,0.2566,-0.2056,42.4194,10.0284,-18.0072,,0.0018580000000003594,0.9770071749992422,0.9690653745153469,non_fall
7.387328,0.0629,0.947,-0.2319,0.4803,0.2566,-0.2056,42.4194,10.0284,-18.0072,,0.001487000000000016,0.9770071749992422,0.9784208435586244,non_fall
7.388418,0.0629,0.947,-0.2319,0.4803,0.2566,-0.2056,42.4194,10.0284,-18.0072,,0.0010899999999995913,0.9770071749992422,0.9954992287228457,non_fall
7.411298,0.0629,0.947,-0.2319,0.4803,0.2566,-0.2056,41.8094,10.2968,-19.2516,,0.022880000000000678,0.9770071749992422,1.0178806940620073,non_fall
7.421296,0.0629,0.947,-0.2319,0.4358,0.5482,-0.2164,41.8094,10.2968,-19.2516,,0.009997999999999507,0.9770071749992422,1.0428556318617368,non_fall
7.431638,0.2227,1.1226,0.0206,0.4358,0.5482,-0.2164,41.8094,10.2968,-19.2516,,0.010342000000000517,1.1446617011152247,1.0676071983455888,non_fall
7.452416,0.2227,1.1226,0.0206,0.4358,0.5482,-0.2164,41.8094,10.2968,-19.2516,,0.020777999999999963,1.1446617011152247,1.0893979908718758,non_fall
7.455303,0.2227,1.1226,0.0206,0.4358,0.5482,-0.2164,41.8094,10.2968,-19.2516,,0.002886999999999418,1.1446617011152247,1.1057475687256428,non_fall
7.457225,0.2227,1.1226,0.0206,0.4358,0.5482,-0.2164,41.8094,10.2968,-19.2516,,0.0019220000000004234,1.1446617011152247,1.1145868284448373,non_fall
7.466568,0.2227,1.1226,0.0206,0.4358,0.5482,-0.2164,41.3824,10.5408,-20.0934,,0.009342999999999435,1.1446617011152247,1.1143780122490812,non_fall
7.493018,0.2227,1.1226,0.0206,0.2057,0.4691,-0.143,41.3824,10.5408,-20.0934,,0.02645000000000053,1.1446617011152247,1.1041944148333318,non_fall
7.502902,-0.5865,0.7405,-0.2966,0.2057,0.4691,-0.143,41.3824,10.5408,-20.0934,,0.00988399999999956,0.9900980052499854,1.0837596365761841,non_fall
7.517142,-0.5865,0.7405,-0.2966,0.2057,0.4691,-0.143,41.3824,10.5408,-20.0934,,0.01424000000000003,0.9900980052499854,1.0534510064412452,non_fall
7.520074,-0.5865,0.7405,-0.2966,0.2057,0.4691,-0.143,41.3824,10.5408,-20.0934,,0.0029320000000003787,0.9900980052499854,1.0142743708672013,non_fall
7.521912,-0.5865,0.7405,-0.2966,0.2057,0.4691,-0.143,41.3824,10.5408,-20.0934,,0.0018380000000002283,0.9900980052499854,0.967816618932776,non_fall
7.53164,-0.5865,0.7405,-0.2966,0.2057,0.4691,-0.143,41.1384,10.8092,-20.4472,,0.009727999999999959,0.9900980052499854,0.9161782572386814,non_fall
7.563046,-0.5865,0.7405,-0.2966,0.1289,0.3645,-0.1623,41.1384,10.8092,-20.4472,,0.0314059999999996,0.9900980052499854,0.861883637519493,non_fall
7.572654,-0.4771,0.1719,-0.5044,0.1289,0.3645,-0.1623,41.1384,10.8092,-20.4472,,0.009608000000000061,0.7152575620012696,0.8077645876689411,non_fall
7.584702,-0.4771,0.1719,-0.5044,0.1289,0.3645,-0.1623,41.1384,10.8092,-20.4472,,0.012048000000000059,0.7152575620012696,0.7568158526348784,non_fall
7.587733,-0.4771,0.1719,-0.5044,0.1289,0.3645,-0.1623,41.1384,10.8092,-20.4472,,0.003031000000000006,0.7152575620012696,0.7120260991646864,non_fall
7.59057,-0.4771,0.1719,-0.5044,0.1289,0.3645,-0.1623,41.1384,10.8092,-20.4472,,0.0028369999999995343,0.7152575620012696,0.6761923334862736,non_fall
7.59249,-0.4771,0.1719,-0.5044,0.1289,0.3645,-0.1623,41.1384,10.8092,-20.4472,,0.0019200000000001438,0.7152575620012696,0.6517261880164119,non_fall
7.594627,-0.4771,0.1719,-0.5044,0.1289,0.3645,-0.1623,41.1018,10.98,-20.3862,,0.0021370000000002776,0.7152575620012696,0.6404593801400363,non_fall
7.63097,-0.4771,0.1719,-0.5044,-0.0567,-0.1257,-0.0716,41.1018,10.98,-20.3862,,0.03634299999999957,0.7152575620012696,0.6434562403087859,non_fall
7.648115,-0.4635,-0.3233,-0.2421,-0.0567,-0.1257,-0.0716,41.1018,10.98,-20.3862,,0.017145000000000188,0.614790655426707,0.6608453689010395,non_fall
7.651593,-0.4635,-0.3233,-0.2421,-0.0567,-0.1257,-0.0716,41.1262,11.1142,-20.1666,,0.003478000000000314,0.614790655426707,0.6916893348646161,non_fall
7.653467,-0.4635,-0.3233,-0.2421,-0.0567,-0.1257,-0.0716,41.1262,11.1142,-20.1666,,0.0018739999999999313,0.614790655426707,0.7339180773411116,non_fall
7.655299,-0.4635,-0.3233,-0.2421,-0.0567,-0.1257,-0.0716,41.1262,11.1142,-20.1666,,0.0018320000000002779,0.614790655426707,0.7843547727759561,non_fall
7.656872,-0.4635,-0.3233,-0.2421,-0.0567,-0.1257,-0.0716,41.1262,11.1142,-20.1666,,0.0015729999999996025,0.614790655426707,0.8388596415672697,non_fall
7.700954,-0.4635,-0.3233,-0.2421,-0.2075,-0.235,0.0292,41.1262,11.1142,-20.1666,,0.0440820000000004,0.614790655426707,0.8926064912594787,non_fall
7.71444,-0.4635,-0.3233,-0.2421,-0.2075,-0.235,0.0292,41.1872,11.2362,-19.825,,0.013485999999999443,0.614790655426707,0.9404888247272635,non_fall
7.717693,-0.4539,-1.2042,-0.2804,-0.2075,-0.235,0.0292,41.1872,11.2362,-19.825,,0.0032529999999999504,1.317097950040163,0.9776275618586642,non_fall
7.719783,-0.4539,-1.2042,-0.2804,-0.2075,-0.235,0.0292,41.1872,11.2362,-19.825,,0.0020899999999999253,1.317097950040163,0.999923527869234,non_fall
7.721114,-0.4539,-1.2042,-0.2804,-0.2075,-0.235,0.0292,41.1872,11.2362,-19.825,,0.0013310000000004152,1.317097950040163,1.0045730396832029,non_fall
7.722638,-0.4539,-1.2042,-0.2804,-0.2075,-0.235,0.0292,41.1872,11.2362,-19.825,,0.0015239999999998588,1.317097950040163,0.9904561726927119,non_fall
7.772459,-0.4539,-1.2042,-0.2804,-0.2075,-0.235,0.0292,41.2848,11.346,-19.5932,,0.04982099999999967,1.317097950040163,0.9583216562947522,non_fall
7.776951,-0.4539,-1.2042,-0.2804,-0.0321,-0.4675,0.0719,41.2848,11.346,-19.5932,,0.004492000000000829,1.317097950040163,0.9107262162634137,non_fall
7.781258,0.2486,-0.3131,0.2596,-0.0321,-0.4675,0.0719,41.2848,11.346,-19.5932,,0.004306999999999839,0.47668200091885155,0.8517302310048099,non_fall
7.784401,0.2486,-0.3131,0.2596,-0.0321,-0.4675,0.0719,41.2848,11.346,-19.5932,,0.003142999999999674,0.47668200091885155,0.7863969386041908,non_fall
7.787207,0.2486,-0.3131,0.2596,-0.0321,-0.4675,0.0719,41.2848,11.346,-19.5932,,0.0028060000000005303,0.47668200091885155,0.7201791427759137,non_fall
7.789425,0.2486,-0.3131,0.2596,-0.0321,-0.4675,0.0719,41.2848,11.346,-19.5932,,0.002217999999999165,0.47668200091885155,0.658293681688326,non_fall
7.791193,0.2486,-0.3131,0.2596,-0.0321,-0.4675,0.0719,41.2848,11.346,-19.5932,,0.0017680000000002138,0.47668200091885155,0.6051746739214752,non_fall
7.831856,0.2486,-0.3131,0.2596,-0.0321,-0.4675,0.0719,41.3702,11.468,-19.4468,,0.04066300000000034,0.47668200091885155,0.5640692966273602,non_fall
7.844461,0.2486,-0.3131,0.2596,-0.1916,-0.017,0.0346,41.3702,11.468,-19.4468,,0.012604999999999755,0.47668200091885155,0.5368081206144057,non_fall
7.853794,0.2486,-0.3131,0.2596,-0.1916,-0.017,0.0346,41.3702,11.468,-19.4468,,0.009332999999999814,0.47668200091885155,0.5237548580503929,non_fall
7.856646,0.2486,-0.3131,0.2596,-0.1916,-0.017,0.0346,41.3702,11.468,-19.4468,,0.0028519999999998547,0.47668200091885155,0.5239200030917236,non_fall
7.859447,0.2486,-0.3131,0.2596,-0.1916,-0.017,0.0346,41.3702,11.468,-19.4468,,0.0028010000000007196,0.47668200091885155,0.535208189799853,non_fall
7.861964,0.6436,-0.3647,-0.0349,-0.1916,-0.017,0.0346,41.3702,11.468,-19.4468,,0.0025170000000001025,0.7405707663687515,0.5547584948676769,non_fall
7.891327,0.6436,-0.3647,-0.0349,-0.1916,-0.017,0.0346,41.4312,11.6632,-19.3614,,0.029363000000000028,0.7405707663687515,0.5793295469774823,non_fall
7.911343,0.6436,-0.3647,-0.0349,-0.0715,-0.0515,-0.065,41.4312,11.6632,-19.3614,,0.020015999999999146,0.7405707663687515,0.6056784027874166,non_fall
7.917046,0.6436,-0.3647,-0.0349,-0.0715,-0.0515,-0.065,41.4312,11.6632,-19.3614,,0.005703000000000458,0.7405707663687515,0.6308864026801717,non_fall
7.921816,0.6436,-0.3647,-0.0349,-0.0715,-0.0515,-0.065,41.4312,11.6632,-19.3614,,0.004769999999999719,0.7405707663687515,0.6525975811407001,non_fall
7.924202,0.6436,-0.3647,-0.0349,-0.0715,-0.0515,-0.065,41.4312,11.6632,-19.3614,,0.0023860000000004433,0.7405707663687515,0.6691528486541091,non_fall
7.925808,-0.5944,-0.0147,-0.0791,-0.0715,-0.0515,-0.065,41.4312,11.6632,-19.3614,,0.0016059999999997743,0.5998201897235538,0.6796215018882066,non_fall
7.950826,-0.5944,-0.0147,-0.0791,-0.0715,-0.0515,-0.065,41.419,11.895,-19.459,,0.025018000000000207,0.5998201897235538,0.6837471853812911,non_fall
7.98111,-0.5944,-0.0147,-0.0791,-0.1854,-0.2212,-0.0509,41.419,11.895,-19.459,,0.030283999999999978,0.5998201897235538,0.681835983212776,non_fall
7.98549,-0.5944,-0.0147,-0.0791,-0.1854,-0.2212,-0.0509,41.419,11.895,-19.459,,0.0043800000000002726,0.5998201897235538,0.6746181214406181,non_fall
7.98836,-0.5944,-0.0147,-0.0791,-0.1854,-0.2212,-0.0509,41.419,11.895,-19.459,,0.002869999999999706,0.5998201897235538,0.6631114819769138,non_fall
7.991632,-0.5944,-0.0147,-0.0791,-0.1854,-0.2212,-0.0509,41.419,11.895,-19.459,,0.0032719999999999416,0.5998201897235538,0.6485067292461991,non_fall
7.994125,-0.5944,-0.0147,-0.0791,-0.1854,-0.2212,-0.0509,41.419,11.895,-19.459,,0.0024930000000003005,0.5998201897235538,0.6320833900828365,non_fall
7.995972,0.526,-0.3879,-0.0934,-0.1854,-0.2212,-0.0509,41.419,11.895,-19.459,,0.00184699999999971,0.6602014616766613,0.6151560691682898,non_fall
8.009746,0.526,-0.3879,-0.0934,-0.1854,-0.2212,-0.0509,41.2726,12.0902,-19.7396,,0.013773999999999731,0.6602014616766613,0.5990415248794818,non_fall
8.052522,0.526,-0.3879,-0.0934,-0.2133,0.1799,-0.0108,41.2726,12.0902,-19.7396,,0.042775999999999925,0.6602014616766613,0.5850317767924446,non_fall
8.056754,0.526,-0.3879,-0.0934,-0.2133,0.1799,-0.0108,41.2726,12.0902,-19.7396,,0.0042320000000000135,0.6602014616766613,0.5743569860271084,non_fall
8.059195,0.526,-0.3879,-0.0934,-0.2133,0.1799,-0.0108,41.2726,12.0902,-19.7396,,0.0024410000000010257,0.6602014616766613,0.5681250964853591,non_fall
8.061558,0.526,-0.3879,-0.0934,-0.2133,0.1799,-0.0108,41.2726,12.0902,-19.7396,,0.002362999999999005,0.6602014616766613,0.5672325540232565,non_fall
8.063921,-0.0659,-0.1417,-0.4811,-0.2133,0.1799,-0.0108,41.2726,12.0902,-19.7396,,0.002363000000000781,0.505844748910177,0.5722504865347291,non_fall
8.073403,-0.0659,-0.1417,-0.4811,-0.2133,0.1799,-0.0108,41.0896,12.3708,-20.0324,,0.009482000000000212,0.505844748910177,0.5833017637249935,non_fall
8.119619,-0.0659,-0.1417,-0.4811,-0.2133,0.1799,-0.0108,41.0896,12.3708,-20.0324,,0.04621599999999937,0.505844748910177,0.5999537508116651,non_fall
8.123303,-0.0659,-0.1417,-0.4811,-0.2133,0.1799,-0.0108,41.0896,12.3708,-20.0324,,0.0036839999999997985,0.505844748910177,0.6211561044534973,non_fall
8.125655,-0.0659,-0.1417,-0.4811,-0.2133,0.1799,-0.0108,41.0896,12.3708,-20.0324,,0.0023520000000001318,0.505844748910177,0.6452506072661808,non_fall
8.128204,-0.0659,-0.1417,-0.4811,-0.3369,0.4784,0.0687,41.0896,12.3708,-20.0324,,0.0025490000000001345,0.505844748910177,0.6700712282562663,non_fall
8.131328,-0.0659,-0.1417,-0.4811,-0.3369,0.4784,0.0687,40.9676,12.688,-20.1544,,0.0031239999999996826,0.505844748910177,0.693139058579274,non_fall
8.134162,-0.8353,0.1256,-0.1979,-0.3369,0.4784,0.0687,40.9676,12.688,-20.1544,,0.002834000000000003,0.8675631734922824,0.7119398874624105,non_fall
8.185616,-0.8353,0.1256,-0.1979,-0.3369,0.4784,0.0687,40.9676,12.688,-20.1544,,0.05145399999999967,0.8675631734922824,0.7242536538116512,non_fall
8.187277,-0.8353,0.1256,-0.1979,-0.3369,0.4784,0.0687,40.9676,12.688,-20.1544,,0.0016610000000003566,0.8675631734922824,0.7284889714299702,non_fall
8.187922,-0.8353,0.1256,-0.1979,-0.3369,0.4784,0.0687,40.9676,12.688,-20.1544,,0.0006450000000004508,0.8675631734922824,0.7239683959800732,non_fall
8.188547,-0.8353,0.1256,-0.1979,-0.3369,0.4784,0.0687,40.9676,12.688,-20.1544,,0.0006249999999994316,0.8675631734922824,0.7111145371299536,non_fall
8.18919,-0.8353,0.1256,-0.1979,-0.3369,0.4784,0.0687,40.992,12.9198,-20.1544,,0.0006430000000001712,0.8675631734922824,0.6915014958276706,non_fall
8.190081,-0.8353,0.1256,-0.1979,-0.4125,0.5281,0.1766,40.992,12.9198,-20.1544,,0.000890999999999309,0.8675631734922824,0.6677557139620801,non_fall
8.199695,0.2448,-0.4431,-0.0091,-0.4125,0.5281,0.1766,40.992,12.9198,-20.1544,,0.0096140000000009,0.5063076732580694,0.6433119646710003,non_fall
8.252298,0.2448,-0.4431,-0.0091,-0.4125,0.5281,0.1766,41.1384,13.115,-19.7152,,0.05260299999999951,0.5063076732580694,0.6220520622040209,non_fall
8.256109,0.2448,-0.4431,-0.0091,-0.4125,0.5281,0.1766,41.1384,13.115,-19.7152,,0.003811000000000675,0.5063076732580694,0.607872455280472,non_fall
8.257575,0.2448,-0.4431,-0.0091,-0.4125,0.5281,0.1766,41.1384,13.115,-19.7152,,0.001465999999998857,0.5063076732580694,0.6042369262871302,non_fall
8.259359,0.2448,-0.4431,-0.0091,-0.4125,0.5281,0.1766,41.1384,13.115,-19.7152,,0.001784000000000674,0.5063076732580694,0.6137693151852592,non_fall
8.260947,0.2448,-0.4431,-0.0091,-0.4466,0.1672,0.2317,41.1384,13.115,-19.7152,,0.0015879999999999228,0.5063076732580694,0.6379309324826999,non_fall
8.268702,-0.4171,0.0179,0.6252,-0.4466,0.1672,0.2317,41.1384,13.115,-19.7152,,0.007754999999999512,0.7517764694375583,0.6768130410931084,non_fall
8.308622,-0.4171,0.0179,0.6252,-0.4466,0.1672,0.2317,41.3336,13.298,-19.1784,,0.0399200000000004,0.7517764694375583,0.729060140297624,non_fall
8.31896,-0.4171,0.0179,0.6252,-0.4466,0.1672,0.2317,41.3336,13.298,-19.1784,,0.010338000000000847,0.7517764694375583,0.7919272518622491,non_fall
8.321099,-0.4171,0.0179,0.6252,-0.4466,0.1672,0.2317,41.3336,13.298,-19.1784,,0.002138999999999669,0.7517764694375583,0.8614661649303974,non_fall
8.323653,-0.4171,0.0179,0.6252,-0.4466,0.1672,0.2317,41.3336,13.298,-19.1784,,0.002553999999999945,0.7517764694375583,0.9328316572487227,non_fall
8.325715,-0.4171,0.0179,0.6252,-0.4466,0.1672,0.2317,41.3336,13.298,-19.1784,,0.0020620000000004524,0.7517764694375583,1.000695371613106,non_fall
8.332927,-0.4171,0.0179,0.6252,-0.0744,-0.055,0.0009,41.3336,13.298,-19.1784,,0.007211999999999108,0.7517764694375583,1.0597470031629586,non_fall
8.339545,0.6003,-0.8917,0.9993,-0.0744,-0.055,0.0009,41.3336,13.298,-19.1784,,0.006617999999999569,1.4676816650759115,1.1052465147041215,non_fall
8.368852,0.6003,-0.8917,0.9993,-0.0744,-0.055,0.0009,41.4556,13.4322,-18.6538,,0.029307000000001082,1.4676816650759115,1.1335689157578221,non_fall
8.383917,0.6003,-0.8917,0.9993,-0.0744,-0.055,0.0009,41.4556,13.4322,-18.6538,,0.015064999999999884,1.4676816650759115,1.1426632222103714,non_fall
8.387242,0.6003,-0.8917,0.9993,-0.0744,-0.055,0.0009,41.4556,13.4322,-18.6538,,0.0033250000000002444,1.4676816650759115,1.1323421545700767,non_fall
8.390018,0.6003,-0.8917,0.9993,-0.0744,-0.055,0.0009,41.4556,13.4322,-18.6538,,0.0027759999999990015,1.4676816650759115,1.104336447448796,non_fall
8.401868,0.6003,-0.8917,0.9993,-0.4617,0.1214,-0.1154,41.4556,13.4322,-18.6538,,0.011850000000000804,1.4676816650759115,1.062083912586806,non_fall
8.408742,0.7157,0.6288,0.0582,-0.4617,0.1214,-0.1154,41.4556,13.4322,-18.6538,,0.006873999999999825,0.9544648605370446,1.010269473597603,non_fall
