time,ax,ay,az,wx,wy,wz,Bx,By,Bz,Unnamed: 10,time_diff,acc_mag,acc_mag_filtered,label
0.052405,-0.0839,-0.7429,-0.5004,0.0,0.0,0.0,0.0,0.0,0.0,,0.0,0.8996331363394747,0.9091094847385223,non_fall
0.072076,-0.0839,-0.7429,-0.5004,0.0,0.0,0.0,0.0,0.0,0.0,,0.019671,0.8996331363394747,0.8560741070076135,non_fall
0.085806,-0.0839,-0.7429,-0.5004,0.0,0.0,0.0,0.0,0.0,0.0,,0.013729999999999992,0.8996331363394747,0.8015217687241691,non_fall
0.091778,-0.0839,-0.7429,-0.5004,0.0,0.0,0.0,0.0,0.0,0.0,,0.005972000000000005,0.8996331363394747,0.7451371639151108,non_fall
0.092945,-0.0839,-0.7429,-0.5004,0.0,0.0,0.0,39.5438,9.9938,17.8313,,0.0011670000000000014,0.8996331363394747,0.6870236135093626,non_fall
0.094486,-0.0839,-0.7429,-0.5004,-0.0154,-0.0355,-0.0078,39.5438,9.9938,17.8313,,0.0015410000000000007,0.8996331363394747,0.6278134929169579,non_fall
0.109854,-0.0839,-0.7429,-0.5004,-0.0154,-0.0355,-0.0078,39.5438,9.9938,17.8313,,0.015367999999999993,0.8996331363394747,0.5686966905028542,non_fall
0.130055,0.0511,-0.2363,-0.0337,-0.0154,-0.0355,-0.0078,39.5438,9.9938,17.8313,,0.02020100000000001,0.24409954936459838,0.5113600772824981,non_fall
0.148004,0.0511,-0.2363,-0.0337,-0.0154,-0.0355,-0.0078,39.5438,9.9938,17.8313,,0.017948999999999993,0.24409954936459838,0.4578483877525369,non_fall
0.150677,0.0584,-0.2218,-0.1372,-0.0154,-0.0355,-0.0078,39.5438,9.9938,17.8313,,0.0026730000000000087,0.26726324101903726,0.41037309055871257,non_fall
0.152955,0.0584,-0.2218,-0.1372,-0.0154,-0.0355,-0.0078,38.7563,10.0312,17.7563,,0.0022780000000000022,0.26726324101903726,0.37110421448368636,non_fall
0.158098,0.0584,-0.2218,-0.1372,-0.0179,-0.1319,-0.0236,38.7563,10.0312,17.7563,,0.005142999999999981,0.26726324101903726,0.3419773828342869,non_fall
0.169284,0.1178,-0.277,-0.1774,-0.0179,-0.1319,-0.0236,38.7563,10.0312,17.7563,,0.011186000000000001,0.34939461930602195,0.32453767317692805,non_fall
0.186736,0.1391,-0.3085,-0.1107,-0.0179,-0.1319,-0.0236,38.7563,10.0312,17.7563,,0.017452000000000023,0.3560555434198434,0.31982969213741685,non_fall
0.20556,0.0718,-0.3184,-0.1505,-0.0179,-0.1319,-0.0236,38.7563,10.0312,17.7563,,0.01882399999999998,0.35942182738392503,0.3283338792937796,non_fall
0.210691,0.0718,-0.3184,-0.1505,-0.0179,-0.1319,-0.0236,38.7563,10.0312,17.7563,,0.005130999999999997,0.35942182738392503,0.34994392196926377,non_fall
0.212945,0.0718,-0.3184,-0.1505,-0.0179,-0.1319,-0.0236,39.2625,9.7688,16.6875,,0.002254000000000006,0.35942182738392503,0.38397881944977835,non_fall
0.219159,0.0718,-0.3184,-0.1505,-0.0056,-0.3836,-0.0847,39.2625,9.7688,16.6875,,0.006213999999999997,0.35942182738392503,0.42922406478353503,non_fall
0.224855,-0.1048,-0.35,-0.2716,-0.0056,-0.3836,-0.0847,39.2625,9.7688,16.6875,,0.005696000000000007,0.45524674628161815,0.4839976467913954,non_fall
0.24421,-0.3633,-0.37,-0.4528,-0.0056,-0.3836,-0.0847,39.2625,9.7688,16.6875,,0.01935500000000001,0.6884146497569615,0.5462366197045161,non_fall
0.264217,-0.0137,-0.3789,-0.5889,-0.0056,-0.3836,-0.0847,39.2625,9.7688,16.6875,,0.02000699999999997,0.700397108789007,0.613598739946685,non_fall
0.270587,-0.0137,-0.3789,-0.5889,-0.0056,-0.3836,-0.0847,39.6562,9.9938,16.1625,,0.006370000000000042,0.700397108789007,0.6835727303422688,non_fall
0.271722,-0.0137,-0.3789,-0.5889,-0.0056,-0.3836,-0.0847,39.6562,9.9938,16.1625,,0.0011349999999999971,0.700397108789007,0.7535921509654129,non_fall
0.281586,-0.0137,-0.3789,-0.5889,-0.1412,-0.6414,-0.1409,39.6562,9.9938,16.1625,,0.009863999999999984,0.700397108789007,0.8211517810257785,non_fall
0.282855,0.1683,-0.3911,-0.6099,-0.1412,-0.6414,-0.1409,39.6562,9.9938,16.1625,,0.0012690000000000201,0.743815911365171,0.8839293449246876,non_fall
0.302684,0.5352,-0.4452,-0.4715,-0.1412,-0.6414,-0.1409,39.6562,9.9938,16.1625,,0.019828999999999986,0.8408057623494264,0.9399161800117238,non_fall
0.321114,0.8993,-0.4565,-0.1738,-0.1412,-0.6414,-0.1409,39.6562,9.9938,16.1625,,0.018430000000000002,1.0233959057959925,0.9875566261124105,non_fall
0.330497,0.8993,-0.4565,-0.1738,-0.1412,-0.6414,-0.1409,39.9375,10.6688,14.6063,,0.009382999999999975,1.0233959057959925,1.025888606584091,non_fall
0.336136,0.8993,-0.4565,-0.1738,-0.1412,-0.6414,-0.1409,39.9375,10.6688,14.6063,,0.005639000000000005,1.0233959057959925,1.0546698547816202,non_fall
0.339581,1.2481,-0.4075,-0.0757,-0.1412,-0.6414,-0.1409,39.9375,10.6688,14.6063,,0.0034450000000000314,1.31511989947685,1.074468292518258,non_fall
0.34362,1.2481,-0.4075,-0.0757,0.0201,-0.3444,-0.2009,39.9375,10.6688,14.6063,,0.004038999999999959,1.31511989947685,1.0866926213960493,non_fall
0.358812,1.387,-0.2838,-0.1205,0.0201,-0.3444,-0.2009,39.9375,10.6688,14.6063,,0.015192000000000039,1.4208559708851562,1.0935409590313703,non_fall
0.37818,1.1891,-0.1809,-0.0896,0.0201,-0.3444,-0.2009,39.9375,10.6688,14.6063,,0.019367999999999996,1.2061143312306675,1.0978526195156306,non_fall
0.391868,1.1891,-0.1809,-0.0896,0.0201,-0.3444,-0.2009,39.525,11.1938,14.4188,,0.013687999999999978,1.2061143312306675,1.1028617632556932,non_fall
0.396882,1.1891,-0.1809,-0.0896,0.0201,-0.3444,-0.2009,39.525,11.1938,14.4188,,0.0050140000000000184,1.2061143312306675,1.1118698222835839,non_fall
0.399068,0.6786,0.1464,0.1719,0.0201,-0.3444,-0.2009,39.525,11.1938,14.4188,,0.0021859999999999657,0.7151786699839418,1.127872001244933,non_fall
0.405336,0.6786,0.1464,0.1719,0.1519,-0.2443,0.0032,39.525,11.1938,14.4188,,0.006267999999999996,0.7151786699839418,1.1531870448652062,non_fall
0.415569,0.4005,0.6985,-0.0757,0.1519,-0.2443,0.0032,39.525,11.1938,14.4188,,0.010233000000000048,0.8087230613751534,1.1891445935206406,non_fall
0.435952,0.1898,1.2229,-0.4551,0.1519,-0.2443,0.0032,39.525,11.1938,14.4188,,0.020382999999999984,1.3185690956487643,1.2358772751055025,non_fall
0.451688,0.1898,1.2229,-0.4551,0.1519,-0.2443,0.0032,40.3125,11.2125,13.4625,,0.015735999999999972,1.3185690956487643,1.292245381846102,non_fall
0.455189,0.2727,1.46,-0.3991,0.1519,-0.2443,0.0032,40.3125,11.2125,13.4625,,0.003501000000000032,1.5379356618532516,1.355897402395169,non_fall
0.461148,0.2727,1.46,-0.3991,0.1519,-0.2443,0.0032,40.3125,11.2125,13.4625,,0.005958999999999992,1.5379356618532516,1.4234500588770973,non_fall
0.468528,0.2727,1.46,-0.3991,-0.0716,-0.2382,0.2647,40.3125,11.2125,13.4625,,0.007379999999999998,1.5379356618532516,1.4907631195845148,non_fall
0.473612,0.3188,1.0748,0.0176,-0.0716,-0.2382,0.2647,40.3125,11.2125,13.4625,,0.005083999999999977,1.1212217621862322,1.5532861336809722,non_fall
0.493162,0.2345,-0.3788,-0.3096,-0.0716,-0.2382,0.2647,40.3125,11.2125,13.4625,,0.019550000000000012,0.5425235939569818,1.6064600443979105,non_fall
0.511805,-0.4906,-1.8963,-0.8286,-0.0716,-0.2382,0.2647,40.3125,11.2125,13.4625,,0.018642999999999965,2.1267863103753513,1.646157258625223,non_fall
0.515009,-0.4906,-1.8963,-0.8286,-0.0716,-0.2382,0.2647,40.7438,10.4438,13.0125,,0.0032040000000000957,2.1267863103753513,1.6691313964093977,non_fall
0.521934,-0.4906,-1.8963,-0.8286,-0.0716,-0.2382,0.2647,40.7438,10.4438,13.0125,,0.006924999999999959,2.1267863103753513,1.6734247485836324,non_fall
0.530542,-0.4906,-1.8963,-0.8286,-0.3415,-0.3543,0.1706,40.7438,10.4438,13.0125,,0.008607999999999949,2.1267863103753513,1.6586627396201077,non_fall
0.531792,-0.6713,-2.441,-0.7327,-0.3415,-0.3543,0.1706,40.7438,10.4438,13.0125,,0.0012500000000000844,2.635521576462617,1.6261666702380075,non_fall
0.550525,-0.7195,-1.5748,-0.1096,-0.3415,-0.3543,0.1706,40.7438,10.4438,13.0125,,0.018733,1.7348450795388042,1.5788419088772219,non_fall
0.568706,-0.692,-0.7487,0.3167,-0.3415,-0.3543,0.1706,40.7438,10.4438,13.0125,,0.018181000000000003,1.067574156674842,1.5208405557567013,non_fall
0.569997,-0.692,-0.7487,0.3167,-0.3415,-0.3543,0.1706,40.575,9.9563,12.8063,,0.001290999999999931,1.067574156674842,1.4570442735636453,non_fall
0.582672,-0.692,-0.7487,0.3167,-0.3415,-0.3543,0.1706,40.575,9.9563,12.8063,,0.012674999999999992,1.067574156674842,1.3924509606345308,non_fall
0.58783,-0.8223,0.0146,0.2829,-0.3415,-0.3543,0.1706,40.575,9.9563,12.8063,,0.005157999999999996,0.8697257383796343,1.3315651224485912,non_fall
0.592157,-0.8223,0.0146,0.2829,0.1997,-0.3714,0.0459,40.575,9.9563,12.8063,,0.004327000000000081,0.8697257383796343,1.2778826717682903,non_fall
0.607723,-0.8547,0.751,0.0692,0.1997,-0.3714,0.0459,40.575,9.9563,12.8063,,0.015565999999999969,1.1398691723175953,1.2335343714406621,non_fall
0.626718,-0.9722,0.8942,-0.1853,0.1997,-0.3714,0.0459,40.575,9.9563,12.8063,,0.018994999999999984,1.3338300378983823,1.1991189459863005,non_fall
0.63185,-0.9722,0.8942,-0.1853,0.1997,-0.3714,0.0459,41.475,9.7313,11.1188,,0.005132000000000025,1.3338300378983823,1.1737250410756959,non_fall
0.645691,-0.9722,0.8942,-0.1853,0.1997,-0.3714,0.0459,41.475,9.7313,11.1188,,0.013840999999999992,1.3338300378983823,1.155117232088295,non_fall
0.646652,-0.8232,0.1714,-0.0262,0.1997,-0.3714,0.0459,41.475,9.7313,11.1188,,0.0009609999999999896,0.8412625273955806,1.1400497873992157,non_fall
0.654589,-0.8232,0.1714,-0.0262,-0.2305,-0.5424,0.1046,41.475,9.7313,11.1188,,0.007936999999999972,0.8412625273955806,1.1246719037107764,non_fall
0.665945,-0.5957,-0.6578,0.0694,-0.2305,-0.5424,0.1046,41.475,9.7313,11.1188,,0.011356000000000033,0.8901548685481645,1.104992261274539,non_fall
0.685136,-0.4736,-1.2575,0.0234,-0.2305,-0.5424,0.1046,41.475,9.7313,11.1188,,0.019190999999999958,1.343931088263085,1.077370021768093,non_fall
0.693002,-0.4736,-1.2575,0.0234,-0.2305,-0.5424,0.1046,41.6063,9.3938,9.975,,0.00786600000000004,1.343931088263085,1.0389904993198542,non_fall
0.704339,-0.4637,-1.2603,0.0234,-0.2305,-0.5424,0.1046,41.6063,9.3938,9.975,,0.011337000000000041,1.3431013885779435,0.9882723295148895,non_fall
0.707693,-0.4637,-1.2603,0.0234,-0.2305,-0.5424,0.1046,41.6063,9.3938,9.975,,0.003353999999999968,1.3431013885779435,0.9251490442559721,non_fall
0.716546,-0.4637,-1.2603,0.0234,-0.0019,-0.4972,0.0716,41.6063,9.3938,9.975,,0.008853,1.3431013885779435,0.851177724229298,non_fall
0.721824,-0.4455,-0.8163,-0.0178,-0.0019,-0.4972,0.0716,41.6063,9.3938,9.975,,0.005278000000000005,0.930125142117984,0.7694500379740744,non_fall
0.741921,-0.1326,-0.3571,0.0017,-0.0019,-0.4972,0.0716,41.6063,9.3938,9.975,,0.02009700000000003,0.38092789343916517,0.6843115369468424,non_fall
0.751264,-0.1326,-0.3571,0.0017,-0.0019,-0.4972,0.0716,42.0,9.5813,8.4,,0.00934299999999999,0.38092789343916517,0.6009268672170843,non_fall
0.76007,0.1588,0.1186,0.1228,-0.0019,-0.4972,0.0716,42.0,9.5813,8.4,,0.00880599999999998,0.2331592588768458,0.5247531863637287,non_fall
0.770597,0.1588,0.1186,0.1228,-0.0019,-0.4972,0.0716,42.0,9.5813,8.4,,0.010526999999999953,0.2331592588768458,0.4609940532460154,non_fall
0.779211,0.1588,0.1186,0.1228,-0.0276,-0.2163,0.0654,42.0,9.5813,8.4,,0.00861400000000001,0.2331592588768458,0.4140998935721332,non_fall
0.780192,0.2455,0.3638,0.1782,-0.0276,-0.2163,0.0654,42.0,9.5813,8.4,,0.0009810000000000096,0.4736833647068472,0.38736413540965603,non_fall
0.799113,0.159,0.2442,0.2228,-0.0276,-0.2163,0.0654,42.0,9.5813,8.4,,0.018920999999999966,0.36681668446241644,0.3826438872857913,non_fall
0.810792,0.159,0.2442,0.2228,-0.0276,-0.2163,0.0654,42.2063,9.1688,8.4,,0.011678999999999995,0.36681668446241644,0.4002166751864019,non_fall
0.817686,-0.1635,0.0571,0.1116,-0.0276,-0.2163,0.0654,42.2063,9.1688,8.4,,0.006894000000000067,0.2060272312098573,0.4387734070647359,non_fall
0.83123,-0.1635,0.0571,0.1116,-0.0276,-0.2163,0.0654,42.2063,9.1688,8.4,,0.013544,0.2060272312098573,0.4955416614225426,non_fall
0.83689,-0.584,-0.1712,-0.0485,-0.0276,-0.2163,0.0654,42.2063,9.1688,8.4,,0.005659999999999998,0.6105060933356848,0.5665283539270116,non_fall
0.840728,-0.584,-0.1712,-0.0485,-0.1254,-0.0648,-0.0945,42.2063,9.1688,8.4,,0.003838000000000008,0.6105060933356848,0.6468625088581309,non_fall
0.855166,-0.8786,-0.4405,-0.1334,-0.1254,-0.0648,-0.0945,42.2063,9.1688,8.4,,0.014437999999999951,0.9918537039301714,0.7312070335959105,non_fall
0.870649,-0.8786,-0.4405,-0.1334,-0.1254,-0.0648,-0.0945,42.0188,9.3,8.1,,0.015483000000000025,0.9918537039301714,0.814197473294379,non_fall
0.874995,-0.9097,-0.6186,-0.105,-0.1254,-0.0648,-0.0945,42.0188,9.3,8.1,,0.004345999999999961,1.1050995656500822,0.8908610652238403,non_fall
0.894077,-0.9097,-0.6186,-0.105,-0.1254,-0.0648,-0.0945,42.0188,9.3,8.1,,0.019082000000000043,1.1050995656500822,0.9569734668494783,non_fall
0.897023,-0.931,-0.5904,-0.1117,-0.1254,-0.0648,-0.0945,42.0188,9.3,8.1,,0.002946000000000004,1.1080659050796573,1.0093220084504193,non_fall
0.903056,-0.931,-0.5904,-0.1117,-0.0032,-0.1649,-0.2118,42.0188,9.3,8.1,,0.006032999999999955,1.1080659050796573,1.045859710162927,non_fall
0.912946,-0.8761,-0.4994,-0.1557,-0.0032,-0.1649,-0.2118,42.0188,9.3,8.1,,0.009890000000000065,1.0203891708559043,1.0657498479451115,non_fall
0.931739,-0.8761,-0.4994,-0.1557,-0.0032,-0.1649,-0.2118,41.5125,9.7125,8.0063,,0.01879299999999995,1.0203891708559043,1.0693138038097043,non_fall
0.935315,-0.6325,-0.5563,-0.272,-0.0032,-0.1649,-0.2118,41.5125,9.7125,8.0063,,0.0035760000000000236,0.8851609684119607,1.0579037021268423,non_fall
0.951964,-0.355,-0.5774,-0.6586,-0.0032,-0.1649,-0.2118,41.5125,9.7125,8.0063,,0.016649000000000025,0.9450765683266091,1.0337251003704717,non_fall
0.95597,-0.355,-0.5774,-0.6586,-0.0032,-0.1649,-0.2118,41.5125,9.7125,8.0063,,0.004005999999999954,0.9450765683266091,0.9996336207629641,non_fall
0.965822,-0.355,-0.5774,-0.6586,0.1629,-0.2981,-0.312,41.5125,9.7125,8.0063,,0.009851999999999972,0.9450765683266091,0.9589237317748746,non_fall
0.970465,-0.1067,-0.5895,-0.7981,0.1629,-0.2981,-0.312,41.5125,9.7125,8.0063,,0.004643000000000064,0.9979272268056424,0.9151200193322824,non_fall
0.991577,0.3278,-0.7983,-0.5245,0.1629,-0.2981,-0.312,41.5125,9.7125,8.0063,,0.02111200000000002,1.009869288571546,0.8717740735213103,non_fall
0.994944,0.3278,-0.7983,-0.5245,0.1629,-0.2981,-0.312,41.775,10.7438,6.975,,0.003367000000000009,1.009869288571546,0.8322661039057159,non_fall
1.009112,0.175,-0.691,-0.12,0.1629,-0.2981,-0.312,41.775,10.7438,6.975,,0.014167999999999958,0.7228457650149165,0.7996110791139073,non_fall
1.018637,0.175,-0.691,-0.12,0.1629,-0.2981,-0.312,41.775,10.7438,6.975,,0.009525000000000006,0.7228457650149165,0.776274420499313,non_fall
1.02734,0.175,-0.691,-0.12,0.0751,-0.5583,-0.0579,41.775,10.7438,6.975,,0.008702999999999905,0.7228457650149165,0.7640096819809336,non_fall
1.028865,0.1935,-0.4753,-0.1373,0.0751,-0.5583,-0.0579,41.775,10.7438,6.975,,0.0015249999999999986,0.5312284160321246,0.7637363510408273,non_fall
1.047659,-0.1827,0.2461,-0.4726,0.0751,-0.5583,-0.0579,41.775,10.7438,6.975,,0.018793999999999977,0.563289676809366,0.775476931461525,non_fall
1.051741,-0.1827,0.2461,-0.4726,0.0751,-0.5583,-0.0579,41.9625,10.9125,5.7188,,0.004082000000000141,0.563289676809366,0.7983679572990917,non_fall
1.066418,-0.2802,0.4194,-0.9377,0.0751,-0.5583,-0.0579,41.9625,10.9125,5.7188,,0.014677000000000051,1.0647486510909512,0.83074991533897,non_fall
1.080333,-0.2802,0.4194,-0.9377,0.0751,-0.5583,-0.0579,41.9625,10.9125,5.7188,,0.0139149999999999,1.0647486510909512,0.8703278657280951,non_fall
1.085825,-0.031,0.1157,-0.926,0.0751,-0.5583,-0.0579,41.9625,10.9125,5.7188,,0.005492000000000052,0.9337148868899972,0.9143822001847267,non_fall
1.090438,-0.031,0.1157,-0.926,0.1434,-0.2896,-0.1177,41.9625,10.9125,5.7188,,0.004612999999999978,0.9337148868899972,0.9600030625606795,non_fall
1.104213,0.1893,0.0361,-0.8779,0.1434,-0.2896,-0.1177,41.9625,10.9125,5.7188,,0.01377499999999987,0.8988025979045677,1.0043242738534142,non_fall
1.111585,0.1893,0.0361,-0.8779,0.1434,-0.2896,-0.1177,42.3563,11.175,4.35,,0.007372000000000156,0.8988025979045677,1.0447388766653878,non_fall
1.124267,0.693,-0.4973,-1.1536,0.1434,-0.2896,-0.1177,42.3563,11.175,4.35,,0.01268199999999986,1.4346948281777556,1.0790825089693257,non_fall
1.14234,0.693,-0.4973,-1.1536,0.1434,-0.2896,-0.1177,42.3563,11.175,4.35,,0.018073000000000006,1.4346948281777556,1.105770638952665,non_fall
1.143239,0.7401,-0.409,-0.7084,0.1434,-0.2896,-0.1177,42.3563,11.175,4.35,,0.0008989999999999831,1.1031135798275715,1.1238749307798812,non_fall
1.151828,0.7401,-0.409,-0.7084,0.0958,-0.0916,-0.1801,42.3563,11.175,4.35,,0.00858900000000018,1.1031135798275715,1.133128447148952,non_fall
1.16213,0.6614,-0.5118,-0.7277,0.0958,-0.0916,-0.1801,42.3563,11.175,4.35,,0.010302000000000033,1.108574079617596,1.1338605228685847,non_fall
1.17123,0.6614,-0.5118,-0.7277,0.0958,-0.0916,-0.1801,41.85,12.1313,3.75,,0.009099999999999886,1.108574079617596,1.126874919347868,non_fall
1.180857,0.5265,-0.2642,-0.8359,0.0958,-0.0916,-0.1801,41.85,12.1313,3.75,,0.009627000000000052,1.022610727500939,1.1132930960152925,non_fall
1.203362,0.44,-0.0111,-0.9255,0.0958,-0.0916,-0.1801,41.85,12.1313,3.75,,0.022504999999999997,1.0248285027261879,1.0943865503512016,non_fall
1.206841,0.44,-0.0111,-0.9255,0.0958,-0.0916,-0.1801,41.85,12.1313,3.75,,0.00347900000000001,1.0248285027261879,1.0714203160287068,non_fall
1.213461,0.44,-0.0111,-0.9255,0.1727,-0.0378,-0.0652,41.85,12.1313,3.75,,0.006619999999999848,1.0248285027261879,1.0455258522520252,non_fall
1.219192,0.5515,0.1966,-0.6743,0.1727,-0.0378,-0.0652,41.85,12.1313,3.75,,0.005731000000000153,0.8930197646189025,1.0176166157323814,non_fall
1.231068,0.5515,0.1966,-0.6743,0.1727,-0.0378,-0.0652,41.9438,12.2063,3.8625,,0.011875999999999998,0.8930197646189025,0.9883542573452303,non_fall
1.238696,0.552,0.222,-0.6075,0.1727,-0.0378,-0.0652,41.9438,12.2063,3.8625,,0.007627999999999968,0.8503200867908508,0.9581678885682574,non_fall
1.257941,0.6083,0.0335,-0.7082,0.1727,-0.0378,-0.0652,41.9438,12.2063,3.8625,,0.019244999999999957,0.9341832689574353,0.9273226990777464,non_fall
1.266741,0.6083,0.0335,-0.7082,0.1727,-0.0378,-0.0652,41.9438,12.2063,3.8625,,0.008799999999999919,0.9341832689574353,0.8960270263818738,non_fall
1.278944,0.6083,0.0335,-0.7082,0.0811,0.2223,-0.1264,41.9438,12.2063,3.8625,,0.012203000000000186,0.9341832689574353,0.8645597810120559,non_fall
1.281632,0.6887,-0.3041,-0.5253,0.0811,0.2223,-0.1264,41.9438,12.2063,3.8625,,0.0026880000000000237,0.9180003213507062,0.8333949521680835,non_fall
1.293047,0.6887,-0.3041,-0.5253,0.0811,0.2223,-0.1264,41.8313,12.225,3.6563,,0.011414999999999953,0.9180003213507062,0.8032983580215627,non_fall
1.295548,0.8041,-0.5246,-0.3817,0.0811,0.2223,-0.1264,41.8313,12.225,3.6563,,0.0025009999999998644,1.033187717697031,0.7753741598271338,non_fall
1.315356,0.7656,-0.436,-0.2418,0.0811,0.2223,-0.1264,41.8313,12.225,3.6563,,0.019808000000000048,0.9136227886825066,0.7510445250896568,non_fall
1.329217,0.7656,-0.436,-0.2418,0.0811,0.2223,-0.1264,41.8313,12.225,3.6563,,0.013861000000000123,0.9136227886825066,0.731955100274805,non_fall
1.337907,0.4757,-0.2726,-0.1757,0.0811,0.2223,-0.1264,41.8313,12.225,3.6563,,0.008689999999999864,0.5757358248363567,0.7198115752162987,non_fall
1.340195,0.4757,-0.2726,-0.1757,0.1666,0.2883,-0.0714,41.8313,12.225,3.6563,,0.0022880000000000678,0.5757358248363567,0.716167031117099,non_fall
1.358572,0.4757,-0.2726,-0.1757,0.1666,0.2883,-0.0714,41.0438,12.4125,4.4062,,0.018376999999999866,0.5757358248363567,0.7221921420106112,non_fall
1.359849,0.0006,-0.1561,-0.412,0.1666,0.2883,-0.0714,41.0438,12.4125,4.4062,,0.0012770000000001946,0.44058094602467773,0.7384662204007544,non_fall
1.372743,-0.3491,0.0215,-0.6015,0.1666,0.2883,-0.0714,41.0438,12.4125,4.4062,,0.012893999999999961,0.695798325666281,0.764824382675365,non_fall
1.391619,-0.3491,0.0215,-0.6015,0.1666,0.2883,-0.0714,41.0438,12.4125,4.4062,,0.018875999999999893,0.695798325666281,0.8002859445900664,non_fall
1.39284,-0.5006,0.3365,-0.6739,0.1666,0.2883,-0.0714,41.0438,12.4125,4.4062,,0.0012210000000001386,0.9044190511040776,0.8430748935873119,non_fall
1.400271,-0.5006,0.3365,-0.6739,0.1496,0.3164,0.0509,41.0438,12.4125,4.4062,,0.007430999999999965,0.9044190511040776,0.8907289068365983,non_fall
1.410822,-0.0123,0.163,-0.85,0.1496,0.3164,0.0509,41.0438,12.4125,4.4062,,0.010550999999999977,0.8655751209456056,0.9402823153122998,non_fall
1.412086,-0.0123,0.163,-0.85,0.1496,0.3164,0.0509,41.1188,12.5625,5.1188,,0.0012639999999999318,0.8655751209456056,0.9885020781554107,non_fall
1.430167,0.7006,-0.208,-0.7991,0.1496,0.3164,0.0509,41.1188,12.5625,5.1188,,0.018081000000000014,1.0828966571192287,1.0321528742923993,non_fall
1.449639,1.004,-0.4009,-0.7434,0.1496,0.3164,0.0509,41.1188,12.5625,5.1188,,0.019471999999999934,1.3120138604450793,1.0682651467236701,non_fall
1.453218,1.004,-0.4009,-0.7434,0.1496,0.3164,0.0509,41.1188,12.5625,5.1188,,0.003578999999999999,1.3120138604450793,1.0943774534056507,non_fall
1.462194,1.004,-0.4009,-0.7434,0.1629,0.4997,-0.0066,41.1188,12.5625,5.1188,,0.008976000000000095,1.3120138604450793,1.108724332916887,non_fall
1.467916,0.9047,-0.4674,-0.6834,0.1629,0.4997,-0.0066,41.1188,12.5625,5.1188,,0.005722000000000005,1.2263687903726186,1.1103466928476113,non_fall
1.471827,0.9047,-0.4674,-0.6834,0.1629,0.4997,-0.0066,41.625,12.1688,6.4688,,0.003910999999999998,1.2263687903726186,1.0991141667694897,non_fall
1.487439,0.4846,-0.3322,-0.6654,0.1629,0.4997,-0.0066,41.625,12.1688,6.4688,,0.01561199999999996,0.8876661309298671,1.0756648594119853,non_fall
1.506761,-0.0062,-0.1075,-0.7469,0.1629,0.4997,-0.0066,41.625,12.1688,6.4688,,0.01932200000000006,0.7546219583341053,1.0412828321855334,non_fall
1.516055,-0.0062,-0.1075,-0.7469,0.1629,0.4997,-0.0066,41.625,12.1688,6.4688,,0.009293999999999913,0.7546219583341053,0.9977433012415595,non_fall
1.527726,-0.0062,-0.1075,-0.7469,0.1154,0.5742,0.0289,41.625,12.1688,6.4688,,0.011670999999999987,0.7546219583341053,0.947156374170717,non_fall
1.531086,-0.438,0.1662,-0.9411,0.1154,0.5742,0.0289,41.625,12.1688,6.4688,,0.0033600000000000296,1.0512543222265487,0.8918311544279475,non_fall
1.534528,-0.438,0.1662,-0.9411,0.1154,0.5742,0.0289,40.8188,12.3188,7.725,,0.003441999999999945,1.0512543222265487,0.8341665322493209,non_fall
1.546376,-0.4827,0.2009,-0.8764,0.1154,0.5742,0.0289,40.8188,12.3188,7.725,,0.01184800000000008,1.02050823612551,0.7765601400502733,non_fall
1.564047,-0.333,0.1035,-0.6304,0.1154,0.5742,0.0289,40.8188,12.3188,7.725,,0.017670999999999992,0.7204203009355025,0.7213199696462052,non_fall
1.577521,-0.333,0.1035,-0.6304,0.1154,0.5742,0.0289,40.8188,12.3188,7.725,,0.013473999999999986,0.7204203009355025,0.6705667639456302,non_fall
1.583288,-0.1907,0.0031,-0.4439,0.1154,0.5742,0.0289,40.8188,12.3188,7.725,,0.005767000000000078,0.4831390172610778,0.6261261544129002,non_fall
1.586497,-0.1907,0.0031,-0.4439,0.1178,0.4654,0.0081,40.8188,12.3188,7.725,,0.0032090000000000174,0.4831390172610778,0.5894209516296893,non_fall
1.591013,-0.1907,0.0031,-0.4439,0.1178,0.4654,0.0081,41.1938,12.3375,8.9625,,0.0045159999999999645,0.4831390172610778,0.5613806484130558,non_fall
1.602354,-0.1587,-0.1623,-0.419,0.1178,0.4654,0.0081,41.1938,12.3375,8.9625,,0.011341000000000045,0.47653749065524736,0.5423853703996276,non_fall
1.621713,-0.1403,-0.3062,-0.3749,0.1178,0.4654,0.0081,41.1938,12.3375,8.9625,,0.019358999999999904,0.5039767256530802,0.5322565888195744,non_fall
1.640171,-0.1403,-0.3062,-0.3749,0.1178,0.4654,0.0081,41.1938,12.3375,8.9625,,0.018458000000000085,0.5039767256530802,0.5302996602946726,non_fall
1.643118,-0.1887,-0.3307,-0.2992,0.1178,0.4654,0.0081,41.1938,12.3375,8.9625,,0.002947000000000033,0.48424252188340505,0.5353961932202632,non_fall
1.649481,-0.1887,-0.3307,-0.2992,0.0836,0.3116,-0.0249,41.1938,12.3375,8.9625,,0.0063629999999998965,0.48424252188340505,0.5461385765363395,non_fall
1.650607,-0.1887,-0.3307,-0.2992,0.0836,0.3116,-0.0249,40.8,12.225,9.6,,0.0011259999999999604,0.48424252188340505,0.5609946017147383,non_fall
1.658744,-0.3471,-0.3265,-0.3715,0.0836,0.3116,-0.0249,40.8,12.225,9.6,,0.00813700000000006,0.6042291866502313,0.5784861115278673,non_fall
1.678618,-0.2663,-0.4036,-0.5664,0.0836,0.3116,-0.0249,40.8,12.225,9.6,,0.019873999999999947,0.7447265337021368,0.5973614241808397,non_fall
1.698167,-0.0168,-0.3179,-0.7967,0.0836,0.3116,-0.0249,40.8,12.225,9.6,,0.01954900000000004,0.857947282762758,0.6167375715776795,non_fall
1.702245,-0.0168,-0.3179,-0.7967,0.0836,0.3116,-0.0249,40.8,12.225,9.6,,0.004078000000000026,0.857947282762758,0.6361873934393478,non_fall
1.711546,-0.0168,-0.3179,-0.7967,0.0836,0.3116,-0.0249,40.8,12.2813,10.125,,0.009301000000000004,0.857947282762758,0.6557509298476728,non_fall
1.7135,-0.0168,-0.3179,-0.7967,0.0896,0.4166,0.0411,40.8,12.2813,10.125,,0.0019540000000000113,0.857947282762758,0.6758614797018535,backward_fall
1.716325,0.191,-0.1002,-0.6276,0.0896,0.4166,0.0411,40.8,12.2813,10.125,,0.0028250000000000774,0.6636285105388406,0.6971926574632477,backward_fall
1.736823,0.1039,0.2228,-0.3356,0.0896,0.4166,0.0411,40.8,12.2813,10.125,,0.020497999999999905,0.41600770425558226,0.7204503351829868,backward_fall
1.757388,-0.3318,0.3755,-0.1733,0.0896,0.4166,0.0411,40.8,12.2813,10.125,,0.020564999999999944,0.5302116369903626,0.74614805378971,backward_fall
1.764964,-0.3318,0.3755,-0.1733,0.0896,0.4166,0.0411,40.8,12.2813,10.125,,0.007576000000000027,0.5302116369903626,0.774411625836193,backward_fall
1.770897,-0.3318,0.3755,-0.1733,0.0896,0.4166,0.0411,40.5938,11.925,11.475,,0.005932999999999966,0.5302116369903626,0.8048551509156157,backward_fall
1.774068,-0.3318,0.3755,-0.1733,0.1935,0.2749,0.0532,40.5938,11.925,11.475,,0.003171000000000035,0.5302116369903626,0.8365572005695606,backward_fall
1.775272,-0.693,0.0162,-0.3836,0.1935,0.2749,0.0532,40.5938,11.925,11.475,,0.0012039999999999829,0.792250213000918,0.8681461589539924,backward_fall
1.793309,-0.7563,-0.5557,-0.6739,0.1935,0.2749,0.0532,40.5938,11.925,11.475,,0.01803700000000008,1.1553931755034734,0.8979815170813664,backward_fall
1.814432,-0.5203,-0.7824,-0.8266,0.1935,0.2749,0.0532,40.5938,11.925,11.475,,0.021123000000000003,1.251450921930221,0.9243970858903051,backward_fall
1.827389,-0.5203,-0.7824,-0.8266,0.1935,0.2749,0.0532,40.5938,11.925,11.475,,0.012956999999999885,1.251450921930221,0.9459578686869126,backward_fall
1.831625,-0.5773,-0.4225,-0.8601,0.1935,0.2749,0.0532,40.5938,11.925,11.475,,0.0042360000000001286,1.1187285416936497,0.9616801348085089,backward_fall
1.834982,-0.5773,-0.4225,-0.8601,0.1935,0.2749,0.0532,39.9188,11.925,11.6063,,0.0033569999999998323,1.1187285416936497,0.9711753198720869,backward_fall
1.837264,-0.5773,-0.4225,-0.8601,0.1386,0.1442,0.0447,39.9188,11.925,11.6063,,0.0022820000000001173,1.1187285416936497,0.9746981308839016,backward_fall
1.850427,-0.4405,0.0224,-0.6773,0.1386,0.1442,0.0447,39.9188,11.925,11.6063,,0.013163000000000036,0.808255714486449,0.9731006377925208,backward_fall
1.870195,-0.2676,0.4085,-0.5477,0.1386,0.1442,0.0447,39.9188,11.925,11.6063,,0.019768000000000008,0.7337964976749344,0.9677119914654375,backward_fall
1.889321,-0.2676,0.4085,-0.5477,0.1386,0.1442,0.0447,39.9188,11.925,11.6063,,0.019125999999999976,0.7337964976749344,0.9601748063566746,backward_fall
1.891831,-0.1367,0.3702,-0.8098,0.1386,0.1442,0.0447,39.9188,11.925,11.6063,,0.0025100000000000122,0.9008390366763642,0.9522720579039335,backward_fall
1.894036,-0.1367,0.3702,-0.8098,0.1386,0.1442,0.0447,40.5,11.55,12.7313,,0.0022050000000000125,0.9008390366763642,0.9457720301033908,backward_fall
1.898341,-0.1367,0.3702,-0.8098,0.1959,0.1893,0.0289,40.5,11.55,12.7313,,0.004305000000000003,0.9008390366763642,0.9423064322297675,backward_fall
1.907561,-0.0753,0.1008,-1.119,0.1959,0.1893,0.0289,40.5,11.55,12.7313,,0.009220000000000006,1.1260513887030201,0.9432837456523016,backward_fall
1.926891,-0.0117,0.0295,-1.2041,0.1959,0.1893,0.0289,40.5,11.55,12.7313,,0.019329999999999847,1.204518140170583,0.9498305860008762,backward_fall
1.948359,0.0793,0.0041,-0.9343,0.1959,0.1893,0.0289,40.5,11.55,12.7313,,0.021468000000000043,0.9376682728982569,0.9627504387496542,backward_fall
1.951573,0.0793,0.0041,-0.9343,0.1959,0.1893,0.0289,40.5,11.55,12.7313,,0.00321400000000005,0.9376682728982569,0.9824920619140769,backward_fall
1.953892,0.0793,0.0041,-0.9343,0.1959,0.1893,0.0289,40.125,11.3625,12.6375,,0.00231899999999996,0.9376682728982569,1.0091276044714497,backward_fall
1.960007,0.0793,0.0041,-0.9343,0.1617,0.2113,0.1277,40.125,11.3625,12.6375,,0.006115000000000093,0.9376682728982569,1.0423487618504081,backward_fall
1.965613,0.1165,-0.152,-0.6561,0.1617,0.2113,0.1277,40.125,11.3625,12.6375,,0.005606,0.6834789389586193,1.0814933988942677,backward_fall
1.984893,-0.1051,-0.2642,-0.8016,0.1617,0.2113,0.1277,40.125,11.3625,12.6375,,0.019279999999999964,0.8505352491225745,1.1256127904651063,backward_fall
2.004223,-0.5509,-0.0917,-1.3845,0.1617,0.2113,0.1277,40.125,11.3625,12.6375,,0.01933000000000007,1.4928964967471792,1.1735807400981784,backward_fall
2.011475,-0.5509,-0.0917,-1.3845,0.1617,0.2113,0.1277,40.2188,11.55,12.8438,,0.007251999999999814,1.4928964967471792,1.2242316539599467,backward_fall
2.01474,-0.5509,-0.0917,-1.3845,0.1617,0.2113,0.1277,40.2188,11.55,12.8438,,0.0032650000000002954,1.4928964967471792,1.2765002829766638,backward_fall
2.022667,-0.5509,-0.0917,-1.3845,0.2265,0.1173,0.0814,40.2188,11.55,12.8438,,0.007927000000000017,1.4928964967471792,1.3295294890277414,backward_fall
2.02425,-0.5534,0.2236,-1.6458,0.2265,0.1173,0.0814,40.2188,11.55,12.8438,,0.001582999999999668,1.7506873393041944,1.3827187054577292,backward_fall
2.041219,-0.1478,0.8098,-1.1996,0.2265,0.1173,0.0814,40.2188,11.55,12.8438,,0.016969000000000012,1.454874922458972,1.4357019655116727,backward_fall
2.061394,0.3654,0.8766,-0.8072,0.2265,0.1173,0.0814,40.2188,11.55,12.8438,,0.020175000000000054,1.246401444158342,1.488264343371115,backward_fall
2.071222,0.3654,0.8766,-0.8072,0.2265,0.1173,0.0814,40.425,10.8375,13.0313,,0.00982800000000017,1.246401444158342,1.540224327324778,backward_fall
2.074638,0.3654,0.8766,-0.8072,0.2265,0.1173,0.0814,40.425,10.8375,13.0313,,0.0034160000000000856,1.246401444158342,1.5913221635513004,backward_fall
2.07992,0.492,0.628,-1.1534,0.2265,0.1173,0.0814,40.425,10.8375,13.0313,,0.005281999999999787,1.402419181272133,1.6411555498419355,backward_fall
2.083695,0.492,0.628,-1.1534,0.334,0.0538,0.1107,40.425,10.8375,13.0313,,0.003775000000000084,1.402419181272133,1.6891925047599068,backward_fall
2.099584,0.2727,0.7394,-1.6172,0.334,0.0538,0.1107,40.425,10.8375,13.0313,,0.015889000000000042,1.7990034713696357,1.7348702663522644,backward_fall
2.118703,-0.1061,0.9634,-1.8677,0.334,0.0538,0.1107,40.425,10.8375,13.0313,,0.019118999999999886,2.1042100798161765,1.7777649910999798,backward_fall
2.131088,-0.1061,0.9634,-1.8677,0.334,0.0538,0.1107,40.1625,10.4625,12.9375,,0.01238500000000009,2.1042100798161765,1.817796467820964,backward_fall
2.138194,-0.1061,0.9634,-1.8677,0.334,0.0538,0.1107,40.1625,10.4625,12.9375,,0.007105999999999835,2.1042100798161765,1.8554211923813742,backward_fall
2.139043,0.0568,1.3481,-1.4681,0.334,0.0538,0.1107,40.1625,10.4625,12.9375,,0.0008490000000000997,1.993970275605933,1.8917696804436734,backward_fall
2.149358,0.0568,1.3481,-1.4681,0.1972,0.1235,0.0654,40.1625,10.4625,12.9375,,0.010314999999999852,1.993970275605933,1.9286982030022,backward_fall
2.158078,0.2532,1.4608,-1.2118,0.1972,0.1235,0.0654,40.1625,10.4625,12.9375,,0.008720000000000283,1.9148122936726724,1.9687447276617525,backward_fall
2.176143,0.2991,1.1444,-1.584,0.1972,0.1235,0.0654,40.1625,10.4625,12.9375,,0.018064999999999998,1.9769087409387416,2.0149966774951182,backward_fall
2.192696,0.2991,1.1444,-1.584,0.1972,0.1235,0.0654,39.9563,10.5563,13.1438,,0.01655300000000004,1.9769087409387416,2.0708900979992806,backward_fall
2.195857,0.2942,0.8467,-2.0402,0.1972,0.1235,0.0654,39.9563,10.5563,13.1438,,0.0031609999999999694,2.2284233372499043,2.139965226825003,backward_fall
2.199407,0.2942,0.8467,-2.0402,0.1972,0.1235,0.0654,39.9563,10.5563,13.1438,,0.00354999999999972,2.2284233372499043,2.225603805506305,backward_fall
2.208257,0.2942,0.8467,-2.0402,0.0786,0.088,0.0154,39.9563,10.5563,13.1438,,0.008850000000000247,2.2284233372499043,2.330771450855702,backward_fall
2.214266,0.1026,1.3673,-1.6975,0.0786,0.088,0.0154,39.9563,10.5563,13.1438,,0.006008999999999709,2.18209585032372,2.457786381793245,backward_fall
2.234407,-0.0056,2.0551,-1.5892,0.0786,0.088,0.0154,39.9563,10.5563,13.1438,,0.020141000000000187,2.5978883752001356,2.608133858390083,backward_fall
2.251899,-0.0056,2.0551,-1.5892,0.0786,0.088,0.0154,40.1438,10.725,13.5563,,0.01749199999999984,2.5978883752001356,2.782341561119764,backward_fall
2.255067,-0.0878,2.7198,-1.7136,0.0786,0.088,0.0154,40.1438,10.725,13.5563,,0.0031680000000000597,3.2158118477299014,2.9799231764916887,backward_fall
2.261173,-0.0878,2.7198,-1.7136,0.0786,0.088,0.0154,40.1438,10.725,13.5563,,0.006105999999999945,3.2158118477299014,3.1993873900612644,backward_fall
2.270347,-0.0878,2.7198,-1.7136,-0.0484,0.0708,0.0972,40.1438,10.725,13.5563,,0.009174000000000238,3.2158118477299014,3.4383013683236365,backward_fall
2.271695,-0.1087,3.3476,-1.6632,-0.0484,0.0708,0.0972,40.1438,10.725,13.5563,,0.0013479999999996828,3.739582288170699,3.693394207936815,backward_fall
2.290481,-0.1123,3.8839,-1.3004,-0.0484,0.0708,0.0972,40.1438,10.725,13.5563,,0.018786000000000413,4.097356545383865,3.9606853963888584,backward_fall
2.310025,-0.1885,4.4251,-1.2285,-0.0484,0.0708,0.0972,40.1438,10.725,13.5563,,0.019543999999999784,4.596330548383134,4.235623015631226,backward_fall
2.314492,-0.1885,4.4251,-1.2285,-0.0484,0.0708,0.0972,40.1813,9.9188,13.7625,,0.004466999999999999,4.596330548383134,4.513216365399498,backward_fall
2.323037,-0.1885,4.4251,-1.2285,-0.0484,0.0708,0.0972,40.1813,9.9188,13.7625,,0.008544999999999803,4.596330548383134,4.788151671121968,backward_fall
2.328319,-0.3103,4.818,-1.2995,-0.0484,0.0708,0.0972,40.1813,9.9188,13.7625,,0.005282000000000231,4.99981103042905,5.054889269285823,backward_fall
2.332838,-0.3103,4.818,-1.2995,-0.454,-0.1478,0.1046,40.1813,9.9188,13.7625,,0.004519000000000162,4.99981103042905,5.307751727114443,backward_fall
2.348636,-0.4945,5.3223,-0.879,-0.454,-0.1478,0.1046,40.1813,9.9188,13.7625,,0.015797999999999757,5.417014725843008,5.54101775530264,backward_fall
2.368076,-0.7443,5.7733,-0.9284,-0.454,-0.1478,0.1046,40.1813,9.9188,13.7625,,0.019439999999999902,5.894650281399228,5.749033168782466,backward_fall
2.371214,-0.7443,5.7733,-0.9284,-0.454,-0.1478,0.1046,40.1813,9.4688,14.7,,0.003138000000000307,5.894650281399228,5.926339849745415,backward_fall
2.385859,-0.7443,5.7733,-0.9284,-0.454,-0.1478,0.1046,40.1813,9.4688,14.7,,0.014644999999999797,5.894650281399228,6.067812134616257,backward_fall
2.386907,-0.718,6.2303,-2.1713,-0.454,-0.1478,0.1046,40.1813,9.4688,14.7,,0.0010479999999999379,6.636769227568486,6.168781983486164,backward_fall
2.39515,-0.718,6.2303,-2.1713,-0.4943,-0.2516,-0.0762,40.1813,9.4688,14.7,,0.008243000000000222,6.636769227568486,6.22513126319203,backward_fall
2.40593,-0.6195,6.224,-2.6984,-0.4943,-0.2516,-0.0762,40.1813,9.4688,14.7,,0.010780000000000012,6.811998151056708,6.233332056163003,backward_fall
2.426153,-0.2332,5.2821,-3.2763,-0.4943,-0.2516,-0.0762,40.1813,9.4688,14.7,,0.020222999999999658,6.220056618713369,6.190427080376885,backward_fall
2.430922,-0.2332,5.2821,-3.2763,-0.4943,-0.2516,-0.0762,39.6188,8.9813,14.8125,,0.004769000000000023,6.220056618713369,6.093964754472512,backward_fall
2.444035,0.1739,3.9758,-3.4592,-0.4943,-0.2516,-0.0762,39.6188,8.9813,14.8125,,0.013113000000000152,5.27288265467761,5.941933324564583,backward_fall
2.447749,0.1739,3.9758,-3.4592,-0.4943,-0.2516,-0.0762,39.6188,8.9813,14.8125,,0.003713999999999995,5.27288265467761,5.732765130056499,backward_fall
2.457179,0.1739,3.9758,-3.4592,-0.6043,-0.5717,-0.1519,39.6188,8.9813,14.8125,,0.00943000000000005,5.27288265467761,5.465494244527315,backward_fall
2.4626,0.4876,3.4206,-1.9386,-0.6043,-0.5717,-0.1519,39.6188,8.9813,14.8125,,0.00542100000000012,3.9618717899497957,5.140142648614616,backward_fall
2.481675,1.0144,3.5077,-0.8363,-0.6043,-0.5717,-0.1519,39.6188,8.9813,14.8125,,0.019074999999999953,3.7459797570195166,4.75838312224766,backward_fall
2.492026,1.0144,3.5077,-0.8363,-0.6043,-0.5717,-0.1519,40.2188,8.5125,14.0625,,0.010350999999999999,3.7459797570195166,4.324484968093482,backward_fall
2.501766,1.0755,3.5981,-0.5274,-0.6043,-0.5717,-0.1519,40.2188,8.5125,14.0625,,0.00973999999999986,3.792251919374556,3.846492963222333,backward_fall
2.510203,1.0755,3.5981,-0.5274,-0.6043,-0.5717,-0.1519,40.2188,8.5125,14.0625,,0.00843700000000025,3.792251919374556,3.337524111648453,backward_fall
2.520647,1.0755,3.5981,-0.5274,0.1935,-0.2003,-0.0934,40.2188,8.5125,14.0625,,0.010443999999999676,3.792251919374556,2.817003927708373,backward_fall
2.524879,1.3751,2.0923,-0.16,0.1935,-0.2003,-0.0934,40.2188,8.5125,14.0625,,0.0042320000000000135,2.508828272321563,2.3116230764862125,backward_fall
2.53914,1.6387,-0.3429,-1.2528,0.1935,-0.2003,-0.0934,40.2188,8.5125,14.0625,,0.014261000000000301,2.091034657771124,1.8557882039687186,backward_fall
2.551072,1.6387,-0.3429,-1.2528,0.1935,-0.2003,-0.0934,40.2188,8.3625,14.7938,,0.011931999999999832,2.091034657771124,1.4913643465485111,backward_fall
2.560723,0.5195,-1.5594,-1.9942,0.1935,-0.2003,-0.0934,40.2188,8.3625,14.7938,,0.009650999999999854,2.5842682233080994,1.2665457234669468,backward_fall
2.572154,0.5195,-1.5594,-1.9942,0.1935,-0.2003,-0.0934,40.2188,8.3625,14.7938,,0.011430999999999969,2.5842682233080994,1.2337353015434125,backward_fall
2.577182,-0.2766,-1.1676,-4.6077,0.1935,-0.2003,-0.0934,40.2188,8.3625,14.7938,,0.0050280000000002545,4.761375495589484,1.4463646112160518,backward_fall
2.580907,-0.2766,-1.1676,-4.6077,0.6626,0.083,-0.0396,40.2188,8.3625,14.7938,,0.0037249999999997563,4.761375495589484,1.95466027178958,backward_fall
2.597974,-0.8878,0.5114,-5.2949,0.6626,0.083,-0.0396,40.2188,8.3625,14.7938,,0.017066999999999943,5.3931145741584245,2.8004810336645254,backward_fall
2.612741,-0.8878,0.5114,-5.2949,0.6626,0.083,-0.0396,40.4062,8.6625,14.775,,0.014767000000000419,5.3931145741584245,4.011518333117522,backward_fall
2.615913,-1.0878,1.6097,-3.5517,0.6626,0.083,-0.0396,40.4062,8.6625,14.775,,0.0031719999999997306,4.048334944146791,5.59536374890599,backward_fall
2.634493,-1.0878,1.6097,-3.5517,0.6626,0.083,-0.0396,40.4062,8.6625,14.775,,0.01858000000000004,4.048334944146791,7.534160785084761,backward_fall
2.635504,-2.1063,4.3895,-0.517,0.6626,0.083,-0.0396,40.4062,8.6625,14.775,,0.0010110000000000952,4.896069744192785,9.78071735022692,backward_fall
2.643746,-2.1063,4.3895,-0.517,2.0798,0.6659,0.5969,40.4062,8.6625,14.775,,0.008242000000000083,4.896069744192785,12.25699734840557,backward_fall
2.654002,-2.3996,6.5717,4.391,2.0798,0.6659,0.5969,40.4062,8.6625,14.775,,0.010256000000000043,8.25991537789583,14.855791889556455,backward_fall
2.671462,-2.3996,6.5717,4.391,2.0798,0.6659,0.5969,39.9563,7.9688,15.1125,,0.01745999999999981,8.25991537789583,17.446081231347307,backward_fall
2.672838,-1.3123,6.8331,4.8831,2.0798,0.6659,0.5969,39.9563,7.9688,15.1125,,0.0013760000000000439,8.500473663861326,19.88215248203702,backward_fall
2.692334,-1.0497,-15.5242,20.4402,2.0798,0.6659,0.5969,39.9563,7.9688,15.1125,,0.019495999999999736,25.688605095839673,22.01596239369177,backward_fall
2.697537,-1.0497,-15.5242,20.4402,2.0798,0.6659,0.5969,39.9563,7.9688,15.1125,,0.005203000000000291,25.688605095839673,23.711576517573352,backward_fall
2.705829,-1.0497,-15.5242,20.4402,7.6875,0.094,1.0893,39.9563,7.9688,15.1125,,0.008291999999999966,25.688605095839673,24.85988041442141,backward_fall
2.711471,4.9328,-69.4191,17.117,7.6875,0.094,1.0893,39.9563,7.9688,15.1125,,0.005641999999999925,71.66823319749135,25.391313566722943,backward_fall
2.730705,-3.495,-16.4015,36.0511,7.6875,0.094,1.0893,39.9563,7.9688,15.1125,,0.019233999999999973,39.76060913089738,25.284312680723062,backward_fall
2.732377,-3.495,-16.4015,36.0511,7.6875,0.094,1.0893,40.1625,8.2125,12.5063,,0.0016720000000001178,39.76060913089738,24.567657843457283,backward_fall
2.750043,-1.8611,-0.8464,-0.1367,7.6875,0.094,1.0893,40.1625,8.2125,12.5063,,0.017665999999999737,2.0490907886182104,23.316082730701485,backward_fall
2.765853,-1.8611,-0.8464,-0.1367,7.6875,0.094,1.0893,40.1625,8.2125,12.5063,,0.015810000000000102,2.0490907886182104,21.640084034544312,backward_fall
2.772307,-1.8611,-0.8464,-0.1367,2.6968,1.3659,0.3563,40.1625,8.2125,12.5063,,0.006454000000000182,2.0490907886182104,19.67219738510152,backward_fall
2.773475,1.2063,15.3468,-22.3554,2.6968,1.3659,0.3563,40.1625,8.2125,12.5063,,0.0011679999999998358,27.143016396303487,17.552474229758996,backward_fall
2.787519,-0.4218,7.3978,-8.6296,2.6968,1.3659,0.3563,40.1625,8.2125,12.5063,,0.014044000000000167,11.374328825913203,15.415401321784858,backward_fall
2.79453,-0.4218,7.3978,-8.6296,2.6968,1.3659,0.3563,40.7812,10.3313,9.6938,,0.0070109999999998784,11.374328825913203,13.379529994932042,backward_fall
2.808331,0.374,9.3643,2.423,2.6968,1.3659,0.3563,40.7812,10.3313,9.6938,,0.013800999999999952,9.679923527073962,11.540230603984778,backward_fall
2.821598,0.374,9.3643,2.423,2.6968,1.3659,0.3563,40.7812,10.3313,9.6938,,0.013266999999999918,9.679923527073962,9.965517101697033,backward_fall
2.826624,-3.6313,6.2446,-6.5719,2.6968,1.3659,0.3563,40.7812,10.3313,9.6938,,0.005025999999999975,9.765819907206973,8.694678488546543,backward_fall
2.829968,-3.6313,6.2446,-6.5719,4.0957,-0.193,0.6702,40.7812,10.3313,9.6938,,0.0033440000000002357,9.765819907206973,7.739325151728247,backward_fall
2.845687,0.7962,0.3976,-6.6614,4.0957,-0.193,0.6702,40.7812,10.3313,9.6938,,0.015718999999999816,6.720585551869719,7.086362818696269,backward_fall
2.851792,0.7962,0.3976,-6.6614,4.0957,-0.193,0.6702,40.8,10.4813,7.0875,,0.006105000000000249,6.720585551869719,6.702374969280088,backward_fall
2.864732,4.2161,0.9177,-4.3247,4.0957,-0.193,0.6702,40.8,10.4813,7.0875,,0.012939999999999952,6.109067243859736,6.53892662407476,backward_fall
2.883529,4.2161,0.9177,-4.3247,4.0957,-0.193,0.6702,40.8,10.4813,7.0875,,0.01879699999999973,6.109067243859736,6.53835713002009,backward_fall
2.886256,-1.4398,4.5941,3.8142,4.0957,-0.193,0.6702,40.8,10.4813,7.0875,,0.002727000000000146,6.142222764602404,6.639664855024878,backward_fall
2.891973,-1.4398,4.5941,3.8142,2.3389,0.2713,0.1865,40.8,10.4813,7.0875,,0.005717000000000194,6.142222764602404,6.784088526650941,backward_fall
2.904317,-2.8141,3.5262,13.061,2.3389,0.2713,0.1865,40.8,10.4813,7.0875,,0.012343999999999689,13.818211398368458,6.919969144220966,backward_fall
2.912211,-2.8141,3.5262,13.061,2.3389,0.2713,0.1865,40.95,9.5625,5.8313,,0.00789400000000029,13.818211398368458,7.006462694531732,backward_fall
2.921712,-1.5877,-3.0861,8.375,2.3389,0.2713,0.1865,40.95,9.5625,5.8313,,0.00950099999999976,9.065617987760128,7.015724860462272,backward_fall
2.94239,-0.0104,-2.9326,3.3534,2.3389,0.2713,0.1865,40.95,9.5625,5.8313,,0.020678000000000196,4.454833608564971,6.933368521975084,backward_fall
2.946178,-0.0104,-2.9326,3.3534,2.3389,0.2713,0.1865,40.95,9.5625,5.8313,,0.0037880000000001246,4.454833608564971,6.757297054854945,backward_fall
2.954758,-0.0104,-2.9326,3.3534,3.0999,0.3041,0.5578,40.95,9.5625,5.8313,,0.00857999999999981,4.454833608564971,6.495325717286864,backward_fall
2.959657,0.4871,0.3133,-3.2998,3.0999,0.3041,0.5578,40.95,9.5625,5.8313,,0.004898999999999987,3.3502392959309635,6.162178502577128,backward_fall
2.970278,0.4871,0.3133,-3.2998,3.0999,0.3041,0.5578,41.1938,9.0,3.3375,,0.010620999999999992,3.3502392959309635,5.7764391103018005,backward_fall
2.979138,1.0515,4.7506,-3.3681,3.0999,0.3041,0.5578,41.1938,9.0,3.3375,,0.008859999999999868,5.917596659117619,5.357894267452376,backward_fall
2.998505,0.1207,4.0523,-2.7653,3.0999,0.3041,0.5578,41.1938,9.0,3.3375,,0.019367000000000356,4.907401335737683,4.925515094679945,backward_fall
3.007347,0.1207,4.0523,-2.7653,3.0999,0.3041,0.5578,41.1938,9.0,3.3375,,0.008842000000000017,4.907401335737683,4.4961388308398735,backward_fall
3.017172,0.1207,4.0523,-2.7653,1.8978,0.5034,0.0214,41.1938,9.0,3.3375,,0.00982499999999975,4.907401335737683,4.083780899943886,backward_fall
3.021055,-0.4591,2.6303,-1.6019,1.8978,0.5034,0.0214,41.1938,9.0,3.3375,,0.003883000000000081,3.113733211114915,3.6994438724727456,backward_fall
3.031278,-0.4591,2.6303,-1.6019,1.8978,0.5034,0.0214,41.2313,8.5312,2.8125,,0.010222999999999871,3.113733211114915,3.3512822897073073,backward_fall
3.03631,-0.7726,2.7383,1.9503,1.8978,0.5034,0.0214,41.2313,8.5312,2.8125,,0.005031999999999925,3.4494735453399263,3.0449999873486537,backward_fall
3.055402,0.0039,2.0878,2.0585,1.8978,0.5034,0.0214,41.2313,8.5312,2.8125,,0.01909200000000011,2.9319526428644784,2.78437304669889,backward_fall
3.070991,0.0039,2.0878,2.0585,1.8978,0.5034,0.0214,41.2313,8.5312,2.8125,,0.015588999999999853,2.9319526428644784,2.5717974383091122,backward_fall
3.075228,0.7009,2.9032,0.7872,1.8978,0.5034,0.0214,41.2313,8.5312,2.8125,,0.004237000000000268,3.0886105112169777,2.4087630128721624,backward_fall
3.080397,0.7009,2.9032,0.7872,1.1892,0.1735,0.2878,41.2313,8.5312,2.8125,,0.005168999999999979,3.0886105112169777,2.296166280530899,backward_fall
3.092673,0.7009,2.9032,0.7872,1.1892,0.1735,0.2878,41.9438,7.9688,1.95,,0.012275999999999954,3.0886105112169777,2.234399023794557,backward_fall
3.09383,0.7996,2.542,-0.2106,1.1892,0.1735,0.2878,41.9438,7.9688,1.95,,0.0011570000000000746,2.6731024147982057,2.223189038733264,backward_fall
3.113278,1.2283,1.7369,0.0604,1.1892,0.1735,0.2878,41.9438,7.9688,1.95,,0.019448000000000132,2.1281895263345323,2.2612216932975775,backward_fall
3.132374,1.2283,1.7369,0.0604,1.1892,0.1735,0.2878,41.9438,7.9688,1.95,,0.01909599999999978,2.1281895263345323,2.3456297146131435,backward_fall
3.135216,0.1873,-0.2909,0.5051,1.1892,0.1735,0.2878,41.9438,7.9688,1.95,,0.002841999999999789,0.6122337053772848,2.471490103136849,backward_fall
3.142008,0.1873,-0.2909,0.5051,0.538,0.4679,0.4528,41.9438,7.9688,1.95,,0.006792000000000353,0.6122337053772848,2.6314945408814943,backward_fall
3.151108,-1.1324,1.5334,0.751,0.538,0.4679,0.4528,41.9438,7.9688,1.95,,0.009099999999999664,2.048815833597544,2.8159473932362444,backward_fall
3.152302,-1.1324,1.5334,0.751,0.538,0.4679,0.4528,41.6813,6.7313,3.0,,0.0011940000000003614,2.048815833597544,3.0131845936172033,backward_fall
3.170876,-1.7986,3.4295,-1.0241,0.538,0.4679,0.4528,41.6813,6.7313,3.0,,0.018573999999999646,4.0056476405195705,3.2104055650114645,backward_fall
3.192918,-2.0049,4.2033,-2.3495,0.538,0.4679,0.4528,41.6813,6.7313,3.0,,0.02204200000000034,5.216081397946163,3.394798166886583,backward_fall
3.196229,-2.0049,4.2033,-2.3495,0.538,0.4679,0.4528,41.6813,6.7313,3.0,,0.003311000000000064,5.216081397946163,3.554752261998905,backward_fall
3.205524,-2.0049,4.2033,-2.3495,-0.5468,0.3176,0.096,41.6813,6.7313,3.0,,0.009294999999999831,5.216081397946163,3.680931866494965,backward_fall
3.209129,-1.5495,2.476,-1.5728,-0.5468,0.3176,0.096,41.6813,6.7313,3.0,,0.0036049999999998583,3.3174125595108004,3.767019616400082,backward_fall
3.212013,-1.5495,2.476,-1.5728,-0.5468,0.3176,0.096,41.8125,6.0938,3.6,,0.0028839999999998867,3.3174125595108004,3.8100433168394217,backward_fall
3.227332,-0.8705,-1.7362,-1.2802,-0.5468,0.3176,0.096,41.8125,6.0938,3.6,,0.015319000000000305,2.3261712598172988,3.8103015312488435,backward_fall
3.247601,-1.1458,-4.0045,0.7083,-0.5468,0.3176,0.096,41.8125,6.0938,3.6,,0.02026899999999987,4.224993110053554,3.770978944241287,backward_fall
3.255813,-1.1458,-4.0045,0.7083,-0.5468,0.3176,0.096,41.8125,6.0938,3.6,,0.008211999999999886,4.224993110053554,3.697560593991711,backward_fall
3.265206,-1.1458,-4.0045,0.7083,0.1972,-0.193,0.074,41.8125,6.0938,3.6,,0.009393000000000207,4.224993110053554,3.597130090575913,backward_fall
3.266397,-1.5599,-2.6395,0.1707,0.1972,-0.193,0.074,41.8125,6.0938,3.6,,0.001190999999999942,3.0707306540952106,3.477606456171367,backward_fall
3.271716,-1.5599,-2.6395,0.1707,0.1972,-0.193,0.074,41.7,6.0563,4.3313,,0.005319000000000074,3.0707306540952106,3.3469657911567197,backward_fall
3.285518,-1.7687,0.2182,-0.8803,0.1972,-0.193,0.074,41.7,6.0563,4.3313,,0.013802000000000092,1.987671758616095,3.2125070935104594,backward_fall
3.306451,-1.598,3.0936,-0.7542,0.1972,-0.193,0.074,41.7,6.0563,4.3313,,0.02093299999999987,3.5626931666928603,3.0802337053573203,backward_fall
3.321834,-1.598,3.0936,-0.7542,0.1972,-0.193,0.074,41.7,6.0563,4.3313,,0.015382999999999925,3.5626931666928603,2.954414107119132,backward_fall
3.322841,-0.8404,1.8227,-0.3514,0.1972,-0.193,0.074,41.7,6.0563,4.3313,,0.0010069999999999801,2.037643101723165,2.8373604549298013,backward_fall
3.326326,-0.8404,1.8227,-0.3514,-0.6922,0.171,-0.0983,41.7,6.0563,4.3313,,0.0034849999999999604,2.037643101723165,2.729438215655613,backward_fall
3.329963,-0.8404,1.8227,-0.3514,-0.6922,0.171,-0.0983,41.3438,5.7188,3.3,,0.0036369999999998903,2.037643101723165,2.629306093341425,backward_fall
3.343103,-0.7193,-1.2561,1.1359,-0.6922,0.171,-0.0983,41.3438,5.7188,3.3,,0.013140000000000374,1.8399588337786255,2.5343722585263424,backward_fall
3.361987,-0.9383,-2.921,1.069,-0.6922,0.171,-0.0983,41.3438,5.7188,3.3,,0.0188839999999999,3.2489088768384993,2.4414248323914816,backward_fall
3.380842,-0.9383,-2.921,1.069,-0.6922,0.171,-0.0983,41.3438,5.7188,3.3,,0.018854999999999844,3.2489088768384993,2.3473521483127757,backward_fall
3.383748,-0.409,-2.9216,0.7659,-0.6922,0.171,-0.0983,41.3438,5.7188,3.3,,0.0029060000000002972,3.047889494387879,2.249830632552498,backward_fall
3.390934,-0.409,-2.9216,0.7659,-0.1572,-0.1063,0.0117,41.3438,5.7188,3.3,,0.007185999999999915,3.047889494387879,2.1478477296283707,backward_fall
3.393559,-0.409,-2.9216,0.7659,-0.1572,-0.1063,0.0117,41.7938,6.3563,4.0312,,0.0026250000000000995,3.047889494387879,2.0419543704551004,backward_fall
3.399474,0.3313,-1.6157,-0.1235,-0.1572,-0.1063,0.0117,41.7938,6.3563,4.0312,,0.0059149999999998926,1.653934227833743,1.934199045125768,backward_fall
3.418858,0.9243,-0.2449,-0.5606,-0.1572,-0.1063,0.0117,41.7938,6.3563,4.0312,,0.019384000000000068,1.1084127660758876,1.827766432978792,backward_fall
3.438523,1.0227,0.4611,-0.434,-0.1572,-0.1063,0.0117,41.7938,6.3563,4.0312,,0.01966499999999982,1.2028651212833466,1.7264081771074764,backward_fall
3.443361,1.0227,0.4611,-0.434,-0.1572,-0.1063,0.0117,41.7938,6.3563,4.0312,,0.004837999999999898,1.2028651212833466,1.6337929505602127,backward_fall
3.451255,1.0227,0.4611,-0.434,-0.1572,-0.1063,0.0117,41.8875,6.4688,3.9188,,0.00789400000000029,1.2028651212833466,1.552906698769868,backward_fall
3.453931,1.0227,0.4611,-0.434,-0.267,-0.017,-0.1666,41.8875,6.4688,3.9188,,0.0026759999999996786,1.2028651212833466,1.4856073784925838,backward_fall
3.457291,0.0828,-0.0479,-0.4477,-0.267,-0.017,-0.1666,41.8875,6.4688,3.9188,,0.0033600000000002517,0.4578051332171801,1.432398141007386,backward_fall
3.477607,-0.1217,-1.0917,-0.0837,-0.267,-0.017,-0.1666,41.8875,6.4688,3.9188,,0.02031599999999978,1.1016467083416532,1.3924412962241233,backward_fall
3.496054,0.1648,-1.9396,0.0803,-0.267,-0.017,-0.1666,41.8875,6.4688,3.9188,,0.018447000000000102,1.9482441556437426,1.3637945959893862,backward_fall
3.505086,0.1648,-1.9396,0.0803,-0.267,-0.017,-0.1666,41.8875,6.4688,3.9188,,0.009031999999999929,1.9482441556437426,1.3438107143786866,backward_fall
3.510974,0.1648,-1.9396,0.0803,-0.267,-0.017,-0.1666,41.775,6.7125,4.9688,,0.005888000000000115,1.9482441556437426,1.3296078288049027,backward_fall
3.513975,0.1648,-1.9396,0.0803,-0.1547,0.1796,-0.1936,41.775,6.7125,4.9688,,0.0030009999999998094,1.9482441556437426,1.3185081843004678,backward_fall
3.515359,0.2686,-1.5927,0.5372,-0.1547,0.1796,-0.1936,41.775,6.7125,4.9688,,0.001384000000000274,1.7021818616117375,1.3083598615937653,backward_fall
3.534224,-0.4323,-0.5041,0.5642,-0.1547,0.1796,-0.1936,41.775,6.7125,4.9688,,0.01886499999999991,0.8713906930877792,1.2976976339963604,backward_fall
3.553457,-0.9786,0.2018,-0.136,-0.1547,0.1796,-0.1936,41.775,6.7125,4.9688,,0.019232999999999834,1.0084032923389332,1.2857462516597262,backward_fall
3.565843,-0.9786,0.2018,-0.136,-0.1547,0.1796,-0.1936,41.775,6.7125,4.9688,,0.01238600000000023,1.0084032923389332,1.2723079591269029,backward_fall
3.570338,-0.9786,0.2018,-0.136,-0.1547,0.1796,-0.1936,44.175,7.125,5.1,,0.004494999999999916,1.0084032923389332,1.2575944786431392,backward_fall
3.571222,-0.9532,0.1885,-0.532,-0.1547,0.1796,-0.1936,44.175,7.125,5.1,,0.0008840000000001069,1.1077664419903683,1.2420602441022213,backward_fall
3.575022,-0.9532,0.1885,-0.532,-0.2402,0.2175,-0.2069,44.175,7.125,5.1,,0.0038000000000000256,1.1077664419903683,1.226275966639803,backward_fall
3.591741,-0.7628,-0.4578,-0.6343,-0.2402,0.2175,-0.2069,44.175,7.125,5.1,,0.016718999999999706,1.0926029333660057,1.2108598398214185,backward_fall
3.611046,-0.7715,-0.963,-0.0367,-0.2402,0.2175,-0.2069,44.175,7.125,5.1,,0.019305000000000128,1.2344748438101119,1.1964641312096886,backward_fall
3.629167,-0.7715,-0.963,-0.0367,-0.2402,0.2175,-0.2069,44.175,7.125,5.1,,0.01812099999999983,1.2344748438101119,1.1837995504926984,backward_fall
3.631718,-0.6708,-1.3466,0.479,-0.2402,0.2175,-0.2069,44.175,7.125,5.1,,0.00255099999999997,1.578842994094093,1.1736690912796126,backward_fall
3.633193,-0.6708,-1.3466,0.479,-0.2402,0.2175,-0.2069,41.025,7.8563,6.0375,,0.001475000000000115,1.578842994094093,1.1669781377830486,backward_fall
3.637759,-0.6708,-1.3466,0.479,-0.0716,0.017,-0.1019,41.025,7.8563,6.0375,,0.00456600000000007,1.578842994094093,1.1646909460864014,backward_fall
3.648342,-0.4788,-1.2016,-0.1615,-0.0716,0.017,-0.1019,41.025,7.8563,6.0375,,0.010583000000000009,1.3035237819081016,1.1677175267172677,backward_fall
3.668219,-0.5541,-0.3932,-0.1823,-0.0716,0.017,-0.1019,41.025,7.8563,6.0375,,0.019877000000000145,0.7034673695346502,1.1767387045810547,backward_fall
3.687104,-0.4175,-0.4766,-0.5171,-0.0716,0.017,-0.1019,41.025,7.8563,6.0375,,0.01888500000000004,0.81783019019843,1.1920042708095504,backward_fall
3.690919,-0.4175,-0.4766,-0.5171,-0.0716,0.017,-0.1019,41.025,7.8563,6.0375,,0.003814999999999902,0.81783019019843,1.2131587226586682,backward_fall
3.692929,-0.4175,-0.4766,-0.5171,-0.0716,0.017,-0.1019,41.2125,7.9875,5.4,,0.0020099999999998452,0.81783019019843,1.2391515739415153,backward_fall
3.700267,-0.4175,-0.4766,-0.5171,-0.217,0.0758,-0.0556,41.2125,7.9875,5.4,,0.007338000000000289,0.81783019019843,1.2682727583179854,backward_fall
3.7057,-0.1036,-1.2613,-0.2532,-0.217,0.0758,-0.0556,41.2125,7.9875,5.4,,0.005433000000000021,1.2906280990277563,1.2983240960149183,backward_fall
3.725467,-0.0664,-1.768,0.2094,-0.217,0.0758,-0.0556,41.2125,7.9875,5.4,,0.019766999999999868,1.7815951616458776,1.326903427937789,non_fall
3.745666,-0.013,-1.8308,0.0753,-0.217,0.0758,-0.0556,41.2125,7.9875,5.4,,0.020198999999999856,1.8323939887480531,1.3517469095739008,non_fall
3.751808,-0.013,-1.8308,0.0753,-0.217,0.0758,-0.0556,41.3813,8.2875,6.8625,,0.006142000000000092,1.8323939887480531,1.3710560022591287,non_fall
3.754594,-0.013,-1.8308,0.0753,-0.217,0.0758,-0.0556,41.3813,8.2875,6.8625,,0.002785999999999955,1.8323939887480531,1.3837364006790784,non_fall
3.762735,-0.013,-1.8308,0.0753,0.0261,0.077,-0.0824,41.3813,8.2875,6.8625,,0.008141000000000176,1.8323939887480531,1.3894971736003947,non_fall
3.76413,-0.1158,-1.1724,-0.317,0.0261,0.077,-0.0824,41.3813,8.2875,6.8625,,0.001395000000000035,1.2200083606270902,1.3887929216450725,non_fall
3.783191,-0.2193,-0.6366,-0.5407,0.0261,0.077,-0.0824,41.3813,8.2875,6.8625,,0.019060999999999773,0.8635441737398267,1.3826300149773258,non_fall
3.802097,-0.1529,-0.978,-0.3054,0.0261,0.077,-0.0824,41.3813,8.2875,6.8625,,0.018905999999999867,1.035920638852224,1.372290098524625,non_fall
3.812249,-0.1529,-0.978,-0.3054,0.0261,0.077,-0.0824,41.0063,8.3438,6.3563,,0.010152000000000161,1.035920638852224,1.3590406100787713,non_fall
3.817779,-0.1529,-0.978,-0.3054,0.0261,0.077,-0.0824,41.0063,8.3438,6.3563,,0.005529999999999813,1.035920638852224,1.3438978911488675,non_fall
3.820765,-0.1867,-1.2771,-0.033,0.0261,0.077,-0.0824,41.0063,8.3438,6.3563,,0.0029860000000003772,1.291096549449343,1.327487133817042,non_fall
3.826239,-0.1867,-1.2771,-0.033,-0.085,0.0953,-0.0481,41.0063,8.3438,6.3563,,0.005473999999999979,1.291096549449343,1.3100146902045229,non_fall
3.840373,-0.5045,-1.2941,-0.0785,-0.085,0.0953,-0.0481,41.0063,8.3438,6.3563,,0.014133999999999869,1.3911783889925835,1.2913413990814961,non_fall
3.858405,-0.6748,-1.2894,0.0553,-0.085,0.0953,-0.0481,41.0063,8.3438,6.3563,,0.018031999999999826,1.456353490743233,1.2711259424061045,non_fall
3.870911,-0.6748,-1.2894,0.0553,-0.085,0.0953,-0.0481,40.8938,8.3063,6.7688,,0.012506000000000128,1.456353490743233,1.24899701713554,non_fall
3.877461,-0.6748,-1.2894,0.0553,-0.085,0.0953,-0.0481,40.8938,8.3063,6.7688,,0.006549999999999834,1.456353490743233,1.2247123076787196,non_fall
3.878393,-0.7012,-1.0878,-0.3305,-0.085,0.0953,-0.0481,40.8938,8.3063,6.7688,,0.0009320000000001549,1.3357471804200076,1.1982694944033954,non_fall
3.887388,-0.7012,-1.0878,-0.3305,0.0652,0.05,-0.0481,40.8938,8.3063,6.7688,,0.008995000000000086,1.3357471804200076,1.169947678292181,non_fall
3.89745,-0.7912,-0.7274,-0.5049,0.0652,0.05,-0.0481,40.8938,8.3063,6.7688,,0.010062000000000015,1.187447771483024,1.1402739258113483,non_fall
3.917093,-0.8917,-0.2831,-0.1725,0.0652,0.05,-0.0481,40.8938,8.3063,6.7688,,0.019642999999999855,0.9513310412259237,1.1099261987841857,non_fall
3.931426,-0.8917,-0.2831,-0.1725,0.0652,0.05,-0.0481,41.175,8.9062,6.7688,,0.014333000000000151,0.9513310412259237,1.0795979362259032,non_fall
3.938764,-0.7434,-0.2399,0.0899,0.0652,0.05,-0.0481,41.175,8.9062,6.7688,,0.007337999999999845,0.7863062889230887,1.0498583248089466,non_fall
3.939888,-0.7434,-0.2399,0.0899,0.0652,0.05,-0.0481,41.175,8.9062,6.7688,,0.0011239999999999029,0.7863062889230887,1.0210436097010769,non_fall
3.949653,-0.7434,-0.2399,0.0899,0.0236,0.0648,0.0287,41.175,8.9062,6.7688,,0.009765000000000246,0.7863062889230887,0.9932079616815856,non_fall
3.954798,-0.6096,-0.5139,0.1568,0.0236,0.0648,0.0287,41.175,8.9062,6.7688,,0.005144999999999733,0.8125832941920478,0.9661487629711537,non_fall
3.974722,-0.8282,-0.6483,-0.2016,0.0236,0.0648,0.0287,41.175,8.9062,6.7688,,0.019924000000000053,1.0709111494423802,0.9395034659919345,non_fall
3.991233,-0.8282,-0.6483,-0.2016,0.0236,0.0648,0.0287,40.6125,8.3438,6.5625,,0.016510999999999942,1.0709111494423802,0.912897072364621,non_fall
3.994456,-0.9672,-0.5728,-0.2411,0.0236,0.0648,0.0287,40.6125,8.3438,6.5625,,0.003223000000000198,1.1496542480241614,0.8861051366645981,non_fall
4.002568,-0.9672,-0.5728,-0.2411,0.0236,0.0648,0.0287,40.6125,8.3438,6.5625,,0.008112000000000119,1.1496542480241614,0.8591911388926997,non_fall
4.011291,-0.9672,-0.5728,-0.2411,-0.0874,-0.1258,0.0239,40.6125,8.3438,6.5625,,0.008722999999999814,1.1496542480241614,0.8325811901064873,non_fall
4.012998,-0.7465,-0.5133,-0.3192,-0.0874,-0.1258,0.0239,40.6125,8.3438,6.5625,,0.001706999999999681,0.9605351529225779,0.807052544863256,non_fall
4.031391,-0.4438,-0.2997,0.0704,-0.0874,-0.1258,0.0239,40.6125,8.3438,6.5625,,0.018393000000000548,0.5401246985650628,0.7836322834473513,non_fall
4.050443,-0.5855,0.1759,-0.0327,-0.0874,-0.1258,0.0239,40.6125,8.3438,6.5625,,0.019051999999999403,0.6122257345130144,0.7634240946717434,non_fall
4.05219,-0.5855,0.1759,-0.0327,-0.0874,-0.1258,0.0239,42.4688,8.55,5.1562,,0.0017470000000008312,0.6122257345130144,0.7473981206134894,non_fall
4.065436,-0.5855,0.1759,-0.0327,-0.0874,-0.1258,0.0239,42.4688,8.55,5.1562,,0.013245999999999647,0.6122257345130144,0.7361859072312729,non_fall
4.071936,-0.485,0.2461,-0.2333,-0.0874,-0.1258,0.0239,42.4688,8.55,5.1562,,0.00649999999999995,0.5917931226366187,0.7299188009652116,non_fall
4.073447,-0.485,0.2461,-0.2333,-0.2377,-0.1821,-0.0799,42.4688,8.55,5.1562,,0.001510999999999818,0.5917931226366187,0.728137635532395,non_fall
4.088762,-0.3255,-0.1519,-0.0142,-0.2377,-0.1821,-0.0799,42.4688,8.55,5.1562,,0.01531500000000019,0.3594794848110251,0.7297888795948407,non_fall
4.107803,-0.6328,-0.543,0.2728,-0.2377,-0.1821,-0.0799,42.4688,8.55,5.1562,,0.01904099999999964,0.8773281484142635,0.7333093232383917,non_fall
4.113172,-0.6328,-0.543,0.2728,-0.2377,-0.1821,-0.0799,41.1938,8.4188,6.45,,0.005368999999999957,0.8773281484142635,0.7367876047768599,non_fall
4.126419,-0.6328,-0.543,0.2728,-0.2377,-0.1821,-0.0799,41.1938,8.4188,6.45,,0.013247000000000675,0.8773281484142635,0.7381775087687086,non_fall
4.129642,-0.8916,-0.3033,-0.052,-0.2377,-0.1821,-0.0799,41.1938,8.4188,6.45,,0.0032229999999993098,0.9432101833631781,0.7355289520045138,non_fall
4.136861,-0.8916,-0.3033,-0.052,-0.355,-0.2126,-0.1239,41.1938,8.4188,6.45,,0.0072190000000000865,0.9432101833631781,0.727201838711395,non_fall
4.146637,-0.6225,0.0322,-0.2671,-0.355,-0.2126,-0.1239,41.1938,8.4188,6.45,,0.009776000000000451,0.6781485825392545,0.712035685868407,non_fall
4.164913,-0.4739,0.0356,-0.0679,-0.355,-0.2126,-0.1239,41.1938,8.4188,6.45,,0.01827600000000018,0.48006143356866315,0.6894606893854119,non_fall
4.170157,-0.4739,0.0356,-0.0679,-0.355,-0.2126,-0.1239,41.1,8.3438,6.0375,,0.00524399999999936,0.48006143356866315,0.6595488852767547,non_fall
4.18416,-0.6935,-0.2497,0.1679,-0.355,-0.2126,-0.1239,41.1,8.3438,6.0375,,0.014003000000000654,0.7559647809256725,0.6230122242203701,non_fall
4.188004,-0.6935,-0.2497,0.1679,-0.355,-0.2126,-0.1239,41.1,8.3438,6.0375,,0.0038439999999999586,0.7559647809256725,0.581154835066517,non_fall
4.198148,-0.6935,-0.2497,0.1679,-0.4748,-0.281,-0.1361,41.1,8.3438,6.0375,,0.010143999999999487,0.7559647809256725,0.5357819593932686,non_fall
4.206103,-0.561,-0.4045,-0.0628,-0.4748,-0.281,-0.1361,41.1,8.3438,6.0375,,0.007954999999999934,0.6944674866399435,0.4890648249183175,non_fall
4.222067,0.0039,-0.2609,-0.0481,-0.4748,-0.281,-0.1361,41.1,8.3438,6.0375,,0.01596400000000031,0.26532551705405194,0.4433645686992374,non_fall
4.231935,0.0039,-0.2609,-0.0481,-0.4748,-0.281,-0.1361,41.2688,8.9813,5.1938,,0.009867999999999988,0.26532551705405194,0.4010288495133035,non_fall
4.241367,0.0615,-0.0212,0.0751,-0.4748,-0.281,-0.1361,41.2688,8.9813,5.1938,,0.009432000000000329,0.09935642908236991,0.3641863811308968,non_fall
4.250082,0.0615,-0.0212,0.0751,-0.4748,-0.281,-0.1361,41.2688,8.9813,5.1938,,0.008714999999999584,0.09935642908236991,0.3345704644617706,non_fall
4.259646,0.0615,-0.0212,0.0751,-0.6311,-0.3006,-0.1214,41.2688,8.9813,5.1938,,0.009564000000000128,0.09935642908236991,0.3133988901809131,non_fall
4.261497,-0.3493,-0.1442,-0.1634,-0.6311,-0.3006,-0.1214,41.2688,8.9813,5.1938,,0.001851000000000269,0.4117082583577842,0.3013251501739896,non_fall
4.280058,-0.4685,-0.1045,-0.2446,-0.6311,-0.3006,-0.1214,41.2688,8.9813,5.1938,,0.01856100000000005,0.5387408096663924,0.2984589966914624,non_fall
4.294116,-0.4685,-0.1045,-0.2446,-0.6311,-0.3006,-0.1214,41.0625,9.0375,6.15,,0.01405799999999946,0.5387408096663924,0.3044390062966065,non_fall
4.298889,-0.2644,-0.1051,0.0747,-0.6311,-0.3006,-0.1214,41.0625,9.0375,6.15,,0.004773000000000138,0.294165701603705,0.3185319190431304,non_fall
4.313426,-0.2644,-0.1051,0.0747,-0.6311,-0.3006,-0.1214,41.0625,9.0375,6.15,,0.0145369999999998,0.294165701603705,0.33973590842537826,non_fall
4.318041,-0.0774,-0.2378,0.2676,-0.6311,-0.3006,-0.1214,41.0625,9.0375,6.15,,0.004615000000000258,0.36626405775068893,0.3668745608111863,non_fall
4.322062,-0.0774,-0.2378,0.2676,-0.7802,-0.2346,-0.1997,41.0625,9.0375,6.15,,0.00402099999999983,0.36626405775068893,0.3986784619118095,non_fall
4.337791,-0.2006,-0.2044,-0.143,-0.7802,-0.2346,-0.1997,41.0625,9.0375,6.15,,0.015729000000000326,0.3201073569913694,0.4338569578244195,non_fall
4.352149,-0.2006,-0.2044,-0.143,-0.7802,-0.2346,-0.1997,41.0438,9.5438,5.9438,,0.014357999999999649,0.3201073569913694,0.4711633855300608,non_fall
4.356351,-0.4986,-0.1559,-0.5142,-0.7802,-0.2346,-0.1997,41.0438,9.5438,5.9438,,0.004202000000000261,0.7330132399895652,0.5094545141770541,non_fall
4.375241,-0.4986,-0.1559,-0.5142,-0.7802,-0.2346,-0.1997,41.0438,9.5438,5.9438,,0.01888999999999985,0.7330132399895652,0.5477405920208238,non_fall
4.378222,-0.6092,-0.032,-0.1012,-0.7802,-0.2346,-0.1997,41.0438,9.5438,5.9438,,0.0029810000000001224,0.6183769724043741,0.5852185110817449,non_fall
4.384562,-0.6092,-0.032,-0.1012,-0.9207,-0.2504,-0.2156,41.0438,9.5438,5.9438,,0.00633999999999979,0.6183769724043741,0.6212806256377805,non_fall
4.394686,-0.5536,-0.0239,0.2243,-0.9207,-0.2504,-0.2156,41.0438,9.5438,5.9438,,0.010124000000000244,0.5977914853859997,0.6554971082952993,non_fall
4.412124,-0.5536,-0.0239,0.2243,-0.9207,-0.2504,-0.2156,40.6313,10.0312,6.375,,0.017438000000000287,0.5977914853859997,0.6875774232695137,non_fall
4.417139,-0.316,-0.4934,0.1627,-0.9207,-0.2504,-0.2156,40.6313,10.0312,6.375,,0.0050149999999993256,0.6080878637170783,0.7173218656028555,non_fall
4.433287,-0.2935,-0.7256,-0.0533,-0.9207,-0.2504,-0.2156,40.6313,10.0312,6.375,,0.016148000000000273,0.7845243782063117,0.7445747935937413,non_fall
4.43722,-0.2935,-0.7256,-0.0533,-0.9207,-0.2504,-0.2156,40.6313,10.0312,6.375,,0.003932999999999964,0.7845243782063117,0.7691878521034995,non_fall
4.449243,-0.2935,-0.7256,-0.0533,-0.9562,-0.2846,-0.2229,40.6313,10.0312,6.375,,0.012023000000000117,0.7845243782063117,0.7909964719923414,non_fall
4.453111,-0.5247,-0.6161,-0.1404,-0.9562,-0.2846,-0.2229,40.6313,10.0312,6.375,,0.0038679999999997605,0.8213412567258508,0.8098087673039085,non_fall
4.470997,-0.6867,-0.3017,-0.5302,-0.9562,-0.2846,-0.2229,40.6313,10.0312,6.375,,0.017885999999999846,0.9185269838170242,0.8254040096089296,non_fall
4.472763,-0.6867,-0.3017,-0.5302,-0.9562,-0.2846,-0.2229,40.9313,10.05,5.7375,,0.0017659999999999343,0.9185269838170242,0.8375379527508885,non_fall
4.490356,-0.6217,-0.2768,-0.3591,-0.9562,-0.2846,-0.2229,40.9313,10.05,5.7375,,0.017593000000000636,0.7694686088463908,0.8459538480358639,non_fall
4.49951,-0.6217,-0.2768,-0.3591,-0.9562,-0.2846,-0.2229,40.9313,10.05,5.7375,,0.009153999999999662,0.7694686088463908,0.8504008032282175,non_fall
4.508876,-0.6217,-0.2768,-0.3591,-1.1565,-0.2798,-0.2131,40.9313,10.05,5.7375,,0.009365999999999985,0.7694686088463908,0.8506642866599692,non_fall
4.510417,-0.225,-0.479,-0.225,-1.1565,-0.2798,-0.2131,40.9313,10.05,5.7375,,0.0015410000000004587,0.5750573884404929,0.8466148997461285,non_fall
4.52811,-0.3729,-0.6947,-0.0664,-1.1565,-0.2798,-0.2131,40.9313,10.05,5.7375,,0.017692999999999515,0.7912467756648365,0.8382789864969078,non_fall
4.530381,-0.3729,-0.6947,-0.0664,-1.1565,-0.2798,-0.2131,42.0938,10.6875,4.575,,0.002271000000000356,0.7912467756648365,0.8259276868612822,non_fall
4.548955,-0.726,-0.784,-0.1206,-1.1565,-0.2798,-0.2131,42.0938,10.6875,4.575,,0.01857400000000009,1.0753029154614993,0.810170982421136,non_fall
4.561446,-0.726,-0.784,-0.1206,-1.1565,-0.2798,-0.2131,42.0938,10.6875,4.575,,0.012490999999999808,1.0753029154614993,0.7920334387787602,non_fall
4.567129,-0.6977,-0.2975,-0.6327,-1.1565,-0.2798,-0.2131,42.0938,10.6875,4.575,,0.005683000000000327,0.9877250781467483,0.7729835134686536,non_fall
4.573043,-0.6977,-0.2975,-0.6327,-1.159,-0.3579,-0.1849,42.0938,10.6875,4.575,,0.005913999999999753,0.9877250781467483,0.754892347620093,non_fall
4.586278,-0.0361,-0.5682,-0.3579,-1.159,-0.3579,-0.1849,42.0938,10.6875,4.575,,0.013234999999999886,0.6724930185511222,0.7399110778825153,non_fall
4.592245,-0.0361,-0.5682,-0.3579,-1.159,-0.3579,-0.1849,40.2188,10.875,5.6625,,0.005967000000000056,0.6724930185511222,0.7302739279538479,non_fall
4.605138,0.2187,-0.6139,-0.0943,-1.159,-0.3579,-0.1849,40.2188,10.875,5.6625,,0.012893000000000043,0.6584796048474091,0.7280517073622308,non_fall
4.623789,0.2187,-0.6139,-0.0943,-1.159,-0.3579,-0.1849,40.2188,10.875,5.6625,,0.018651000000000195,0.6584796048474091,0.7348918906524099,non_fall
4.626911,0.006,-0.4852,-0.1444,-1.159,-0.3579,-0.1849,40.2188,10.875,5.6625,,0.003121999999999403,0.5062671231672071,0.7517853168600227,non_fall
4.633105,0.006,-0.4852,-0.1444,-1.027,-0.463,-0.2584,40.2188,10.875,5.6625,,0.006193999999999811,0.5062671231672071,0.7788968439038485,non_fall
4.64368,-0.2375,-0.4741,-0.0487,-1.027,-0.463,-0.2584,40.2188,10.875,5.6625,,0.010575000000000223,0.5324929576999118,0.8154895990755298,non_fall
4.650345,-0.2375,-0.4741,-0.0487,-1.027,-0.463,-0.2584,40.5,11.2313,6.1688,,0.006664999999999921,0.5324929576999118,0.8599599109706964,non_fall
4.662733,-0.7503,-0.5716,0.0423,-1.027,-0.463,-0.2584,40.5,11.2313,6.1688,,0.01238800000000051,0.944174740183193,0.9099822445933516,non_fall
4.681836,-0.8849,-1.0647,-0.6169,-1.027,-0.463,-0.2584,40.5,11.2313,6.1688,,0.019102999999999426,1.5156515793545693,0.9627421043990672,non_fall
4.685808,-0.8849,-1.0647,-0.6169,-1.027,-0.463,-0.2584,40.5,11.2313,6.1688,,0.003972000000000087,1.5156515793545693,1.0152151879735167,non_fall
4.695171,-0.8849,-1.0647,-0.6169,-1.1883,-0.3849,-0.2559,40.5,11.2313,6.1688,,0.009363000000000454,1.5156515793545693,1.064441571771511,non_fall
4.700798,-0.2362,-0.6115,-0.47,-1.1883,-0.3849,-0.2559,40.5,11.2313,6.1688,,0.0056269999999996045,0.8066118583308828,1.1077515662954838,non_fall
4.71086,-0.2362,-0.6115,-0.47,-1.1883,-0.3849,-0.2559,40.6875,11.2313,6.1688,,0.01006200000000046,0.8066118583308828,1.142923753207888,non_fall
4.719845,-0.4341,-0.1808,-0.5445,-1.1883,-0.3849,-0.2559,40.6875,11.2313,6.1688,,0.00898500000000002,0.7194523611748036,1.1682834930713129,non_fall
4.739348,-1.0901,-0.4373,0.2145,-1.1883,-0.3849,-0.2559,40.6875,11.2313,6.1688,,0.019502999999999382,1.1939679853329401,1.182766332892313,non_fall
4.748696,-1.0901,-0.4373,0.2145,-1.1883,-0.3849,-0.2559,40.6875,11.2313,6.1688,,0.009348000000000134,1.1939679853329401,1.1859676538421897,non_fall
4.757917,-1.0901,-0.4373,0.2145,-1.1063,-0.5229,-0.1789,40.6875,11.2313,6.1688,,0.009221000000000146,1.1939679853329401,1.178182765889265,non_fall
4.759113,-1.3766,-1.1044,-0.0994,-1.1063,-0.5229,-0.1789,40.6875,11.2313,6.1688,,0.001196000000000197,1.7676558714863027,1.1604227245824343,non_fall
4.771338,-1.3766,-1.1044,-0.0994,-1.1063,-0.5229,-0.1789,40.6688,11.7375,5.8688,,0.01222499999999993,1.7676558714863027,1.1343806613843754,non_fall
4.777231,-0.4493,-0.232,-0.3454,-1.1063,-0.5229,-0.1789,40.6688,11.7375,5.8688,,0.005892999999999482,0.6123688839253674,1.102326309717345,non_fall
4.796312,0.0475,-0.5758,-0.9234,-1.1063,-0.5229,-0.1789,40.6688,11.7375,5.8688,,0.019081000000000792,1.0892517844832754,1.0669227645990753,non_fall
4.809772,0.0475,-0.5758,-0.9234,-1.1063,-0.5229,-0.1789,40.6688,11.7375,5.8688,,0.013459999999999361,1.0892517844832754,1.0309828211290284,non_fall
4.815739,-0.1459,-0.402,-0.5394,-1.1063,-0.5229,-0.1789,40.6688,11.7375,5.8688,,0.005967000000000056,0.6883626733052861,0.9972008855461383,non_fall
4.819108,-0.1459,-0.402,-0.5394,-0.8719,-0.6793,-0.1068,40.6688,11.7375,5.8688,,0.0033690000000001774,0.6883626733052861,0.9679030389068972,non_fall
4.832918,-0.1459,-0.402,-0.5394,-0.8719,-0.6793,-0.1068,40.5563,12.1313,5.9813,,0.013810000000000322,0.6883626733052861,0.9448538510879635,non_fall
4.836264,0.0624,-0.6439,-0.2857,-0.8719,-0.6793,-0.1068,40.5563,12.1313,5.9813,,0.003345999999999627,0.7071954892390082,0.9291477845358359,non_fall
4.853749,0.125,-0.9527,-0.4832,-0.8719,-0.6793,-0.1068,40.5563,12.1313,5.9813,,0.01748499999999975,1.0755205855770498,0.9211967804433479,non_fall
4.872198,0.125,-0.9527,-0.4832,-0.8719,-0.6793,-0.1068,40.5563,12.1313,5.9813,,0.018449000000000382,1.0755205855770498,0.9208060658792646,non_fall
4.875279,0.2713,-0.7686,-0.5983,-0.8719,-0.6793,-0.1068,40.5563,12.1313,5.9813,,0.0030809999999998894,1.0110947235546233,0.9273128731399495,non_fall
4.881706,0.2713,-0.7686,-0.5983,-1.0538,-0.3934,-0.1471,40.5563,12.1313,5.9813,,0.006427000000000405,1.0110947235546233,0.9397533219661883,non_fall
4.893534,0.2152,-0.8204,-0.8363,-1.0538,-0.3934,-0.1471,40.5563,12.1313,5.9813,,0.011827999999999506,1.1911191753976593,0.9570228800276781,non_fall
4.895166,0.2152,-0.8204,-0.8363,-1.0538,-0.3934,-0.1471,40.2563,12.4875,5.1562,,0.0016319999999998558,1.1911191753976593,0.9780028558340751,non_fall
4.911292,0.0881,-0.9399,-0.9278,-1.0538,-0.3934,-0.1471,40.2563,12.4875,5.1562,,0.01612600000000075,1.3236262538949581,1.0016358801195653,non_fall
4.930187,-0.2816,-0.4668,-0.5347,-1.0538,-0.3934,-0.1471,40.2563,12.4875,5.1562,,0.018894999999999662,0.7636130499146803,1.026946343537309,non_fall
4.934045,-0.2816,-0.4668,-0.5347,-1.0538,-0.3934,-0.1471,40.2563,12.4875,5.1562,,0.003858000000000139,0.7636130499146803,1.0530170048281629,non_fall
4.944046,-0.2816,-0.4668,-0.5347,-1.0185,-0.3506,-0.0494,40.2563,12.4875,5.1562,,0.010000999999999927,0.7636130499146803,1.0789468736205172,non_fall
4.951122,-0.677,-0.5085,-0.4695,-1.0185,-0.3506,-0.0494,40.2563,12.4875,5.1562,,0.007075999999999638,0.9681588196158727,1.1038212508438963,non_fall
4.952816,-0.677,-0.5085,-0.4695,-1.0185,-0.3506,-0.0494,40.05,12.6938,5.0625,,0.0016940000000005284,0.9681588196158727,1.1267181035755942,non_fall
4.968777,-0.6915,-0.7585,-0.8448,-1.0185,-0.3506,-0.0494,40.05,12.6938,5.0625,,0.015960999999999892,1.329353805425779,1.1467583045305647,non_fall
4.987615,-0.2033,-0.8871,-1.0104,-1.0185,-0.3506,-0.0494,40.05,12.6938,5.0625,,0.01883799999999969,1.3598475870479014,1.163188243808266,non_fall
4.996103,-0.2033,-0.8871,-1.0104,-1.0185,-0.3506,-0.0494,40.05,12.6938,5.0625,,0.008487999999999829,1.3598475870479014,1.1754693682028716,non_fall
5.005614,-0.2033,-0.8871,-1.0104,-0.9195,-0.3873,-0.0054,40.05,12.6938,5.0625,,0.009510999999999825,1.3598475870479014,1.183344658556221,non_fall
5.007105,0.1681,-0.8464,-1.0415,-0.9195,-0.3873,-0.0054,40.05,12.6938,5.0625,,0.0014910000000005752,1.3525430935833431,1.186857430818233,non_fall
5.011292,0.1681,-0.8464,-1.0415,-0.9195,-0.3873,-0.0054,41.925,12.525,3.5438,,0.004186999999999941,1.3525430935833431,1.1863103190068862,non_fall
5.025828,0.3465,-0.275,-0.7802,-0.9195,-0.3873,-0.0054,41.925,12.525,3.5438,,0.01453599999999966,0.896883097175992,1.1821677310535068,non_fall
5.044984,0.5342,-0.4478,-0.7896,-0.9195,-0.3873,-0.0054,41.925,12.525,3.5438,,0.019156000000000617,1.0532628541821838,1.1749197232243507,non_fall
5.06203,0.5342,-0.4478,-0.7896,-0.9195,-0.3873,-0.0054,41.925,12.525,3.5438,,0.017045999999999673,1.0532628541821838,1.1649354699988954,non_fall
5.06523,0.3816,-0.5682,-0.8013,-0.9195,-0.3873,-0.0054,41.925,12.525,3.5438,,0.0031999999999996476,1.0538270683560942,1.1523370623126603,non_fall
5.068166,0.3816,-0.5682,-0.8013,-1.0868,-0.1002,-0.0531,41.925,12.525,3.5438,,0.0029360000000000497,1.0538270683560942,1.136918923606991,non_fall
5.070417,0.3816,-0.5682,-0.8013,-1.0868,-0.1002,-0.0531,41.7188,12.0375,7.0875,,0.002251000000000225,1.0538270683560942,1.1181281021420681,non_fall
5.082636,0.1604,-0.8305,-0.6157,-1.0868,-0.1002,-0.0531,41.7188,12.0375,7.0875,,0.01221899999999998,1.0462049990322164,1.0951101481595622,non_fall
5.102301,-0.3185,-0.6787,-0.7204,-1.0868,-0.1002,-0.0531,41.7188,12.0375,7.0875,,0.01966499999999982,1.0397365531710425,1.0668161583649096,non_fall
5.1209,-0.3185,-0.6787,-0.7204,-1.0868,-0.1002,-0.0531,41.7188,12.0375,7.0875,,0.018599000000000032,1.0397365531710425,1.0321591040068971,non_fall
5.123499,-0.5729,-0.4857,-0.6925,-1.0868,-0.1002,-0.0531,41.7188,12.0375,7.0875,,0.002599000000000018,1.021604204180856,0.9902017236685303,non_fall
5.129381,-0.5729,-0.4857,-0.6925,-0.9927,-0.1185,0.0239,41.7188,12.0375,7.0875,,0.005882000000000609,1.021604204180856,0.9403542524170106,non_fall
5.130828,-0.5729,-0.4857,-0.6925,-0.9927,-0.1185,0.0239,40.6688,11.6063,6.4875,,0.001446999999999754,1.021604204180856,0.8825584349723714,non_fall
5.139937,-0.6178,-0.2093,-0.6842,-0.9927,-0.1185,0.0239,40.6688,11.6063,6.4875,,0.00910899999999959,0.9453110440484657,0.8174350997527794,non_fall
5.158819,-0.5271,-0.0896,-0.5041,-0.9927,-0.1185,0.0239,40.6688,11.6063,6.4875,,0.01888200000000051,0.7348328925680995,0.746376451901951,non_fall
5.178725,-0.2592,-0.243,-0.5553,-0.9927,-0.1185,0.0239,40.6688,11.6063,6.4875,,0.019905999999999757,0.6592357165688157,0.6715709083879399,non_fall
5.182734,-0.2592,-0.243,-0.5553,-0.9927,-0.1185,0.0239,40.6688,11.6063,6.4875,,0.004008999999999929,0.6592357165688157,0.595956157749268,non_fall
5.191172,-0.2592,-0.243,-0.5553,-0.9927,-0.1185,0.0239,41.325,11.7375,7.4063,,0.008437999999999946,0.6592357165688157,0.5231028874947506,non_fall
5.192408,-0.2592,-0.243,-0.5553,-1.1675,-0.044,0.0275,41.325,11.7375,7.4063,,0.001236000000000459,0.6592357165688157,0.4570363739191083,non_fall
5.19824,0.0674,-0.0892,-0.3017,-1.1675,-0.044,0.0275,41.325,11.7375,7.4063,,0.005831999999999837,0.32174879953156005,0.40200747246725815,non_fall
5.217793,0.102,-0.005,0.0717,-1.1675,-0.044,0.0275,41.325,11.7375,7.4063,,0.019553000000000154,0.12477936528128358,0.3622306144233668,non_fall
5.236761,0.1305,-0.0341,0.1887,-1.1675,-0.044,0.0275,41.325,11.7375,7.4063,,0.018968000000000096,0.2319498868290304,0.3416135003659355,non_fall
5.245547,0.1305,-0.0341,0.1887,-1.1675,-0.044,0.0275,41.325,11.7375,7.4063,,0.008785999999999738,0.2319498868290304,0.3435072205381066,non_fall
5.251283,0.1305,-0.0341,0.1887,-1.1675,-0.044,0.0275,40.4625,11.2125,8.3625,,0.005735999999999741,0.2319498868290304,0.37050289267035547,non_fall
5.254505,0.1305,-0.0341,0.1887,-1.3031,0.165,0.0777,40.4625,11.2125,8.3625,,0.003222000000000058,0.2319498868290304,0.4242920231986673,non_fall
5.256726,-0.267,-0.1733,0.2799,-1.3031,0.165,0.0777,40.4625,11.2125,8.3625,,0.0022209999999995844,0.42387014520959126,0.505595931157958,non_fall
5.274312,-0.2834,-0.1214,0.683,-1.3031,0.165,0.0777,40.4625,11.2125,8.3625,,0.017586000000000546,0.7493614081336188,0.6141571759442513,non_fall
5.293722,-0.2625,-0.9246,0.905,-1.3031,0.165,0.0777,40.4625,11.2125,8.3625,,0.019409999999999705,1.3201577216378353,0.7487743534258396,non_fall
5.307153,-0.2625,-0.9246,0.905,-1.3031,0.165,0.0777,40.4625,11.2125,8.3625,,0.013430999999999749,1.3201577216378353,0.90735402624448,non_fall
5.311574,-0.2625,-0.9246,0.905,-1.3031,0.165,0.0777,40.3875,10.3875,10.65,,0.004421000000000674,1.3201577216378353,1.0869556021291131,non_fall
5.314548,0.1122,-0.7571,0.5189,-1.3031,0.165,0.0777,40.3875,10.3875,10.65,,0.002974000000000032,0.9246872227948216,1.2838204599545728,non_fall
5.317166,0.1122,-0.7571,0.5189,-1.5157,0.3054,0.0337,40.3875,10.3875,10.65,,0.002618000000000009,0.9246872227948216,1.4934015637480864,non_fall
5.331744,-0.0715,-0.5782,0.8331,-1.5157,0.3054,0.0337,40.3875,10.3875,10.65,,0.014577999999999314,1.0166037084331336,1.7104318105893734,non_fall
5.350874,-0.2674,-1.3698,0.7997,-1.5157,0.3054,0.0337,40.3875,10.3875,10.65,,0.019130000000000535,1.6085319051855949,1.9290745506831801,non_fall
5.369478,-0.2674,-1.3698,0.7997,-1.5157,0.3054,0.0337,40.3875,10.3875,10.65,,0.018603999999999843,1.6085319051855949,2.1431817864751537,non_fall
5.37233,-0.6116,-3.1887,0.6261,-1.5157,0.3054,0.0337,40.3875,10.3875,10.65,,0.0028519999999998547,3.3066392999539573,2.3466495927064295,non_fall
5.374629,-0.6116,-3.1887,0.6261,-1.5157,0.3054,0.0337,40.5188,9.225,11.775,,0.002298999999999829,3.3066392999539573,2.5338200483315223,non_fall
5.378206,-0.6116,-3.1887,0.6261,-1.8297,0.2101,0.0899,40.5188,9.225,11.775,,0.0035769999999999413,3.3066392999539573,2.6998517727714115,non_fall
5.389586,-0.7455,-2.9789,0.3501,-1.8297,0.2101,0.0899,40.5188,9.225,11.775,,0.011380000000000834,3.090661008586998,2.8409814413735637,non_fall
5.407769,-0.7224,-2.6648,-0.239,-1.8297,0.2101,0.0899,40.5188,9.225,11.775,,0.018182999999999616,2.7713068758259163,2.954628754056664,non_fall
5.42703,-0.2829,-2.6443,0.7768,-1.8297,0.2101,0.0899,40.5188,9.225,11.775,,0.019261000000000195,2.770518568788161,3.0393433710129774,non_fall
5.431262,-0.2829,-2.6443,0.7768,-1.8297,0.2101,0.0899,40.5563,7.6125,14.1563,,0.0042320000000000135,2.770518568788161,3.0946332048914957,non_fall
5.433648,-0.2829,-2.6443,0.7768,-1.8297,0.2101,0.0899,40.5563,7.6125,14.1563,,0.002385999999999555,2.770518568788161,3.1207347187394014,non_fall
5.440886,-0.2829,-2.6443,0.7768,-1.3984,0.1821,0.366,40.5563,7.6125,14.1563,,0.007238000000000078,2.770518568788161,3.118385165546203,non_fall
5.446302,-0.0137,-2.7111,2.8887,-1.3984,0.1821,0.366,40.5563,7.6125,14.1563,,0.0054160000000003095,3.9616711865070275,3.088640151987936,non_fall
5.465919,0.3605,-1.8317,2.78,-1.3984,0.1821,0.366,40.5563,7.6125,14.1563,,0.019617000000000218,3.348654228193768,3.032757642456856,non_fall
5.485193,-0.0831,-1.2369,1.6997,-1.3984,0.1821,0.366,40.5563,7.6125,14.1563,,0.019273999999999347,2.1037602786439336,2.952153525552382,non_fall
5.49132,-0.0831,-1.2369,1.6997,-1.3984,0.1821,0.366,42.0,5.9062,13.7813,,0.006127000000000216,2.1037602786439336,2.848432018501982,non_fall
5.495263,-0.0831,-1.2369,1.6997,-1.3984,0.1821,0.366,42.0,5.9062,13.7813,,0.003942999999999586,2.1037602786439336,2.7235000163944636,non_fall
5.502776,-0.0831,-1.2369,1.6997,0.1789,0.3481,0.2365,42.0,5.9062,13.7813,,0.007513000000000325,2.1037602786439336,2.5797688987698684,non_fall
5.504646,-0.363,-2.8413,1.6716,0.1789,0.3481,0.2365,42.0,5.9062,13.7813,,0.0018700000000002603,3.316474219709841,2.4204178838450834,non_fall
5.522818,-1.1946,-2.9699,2.4019,0.1789,0.3481,0.2365,42.0,5.9062,13.7813,,0.018171999999999855,4.0020618161142885,2.2496489799876627,non_fall
5.54235,-0.9242,-1.0596,1.9761,0.1789,0.3481,0.2365,42.0,5.9062,13.7813,,0.019531999999999883,2.4252564833435657,2.0728304884862534,non_fall
5.551861,-0.9242,-1.0596,1.9761,0.1789,0.3481,0.2365,41.1188,5.5312,15.5813,,0.009510999999999825,2.4252564833435657,1.896428600786897,non_fall
5.555828,-0.9242,-1.0596,1.9761,0.1789,0.3481,0.2365,41.1188,5.5312,15.5813,,0.003967000000000276,2.4252564833435657,1.7276712356223627,non_fall
5.561021,-0.4565,-0.4522,0.9249,0.1789,0.3481,0.2365,41.1188,5.5312,15.5813,,0.005193000000000225,1.1261958533043888,1.5739573916792593,non_fall
5.565516,-0.4565,-0.4522,0.9249,0.8189,0.2786,0.5236,41.1188,5.5312,15.5813,,0.004494999999999472,1.1261958533043888,1.4420927147093416,non_fall
5.580266,-0.2622,-0.0991,0.0606,0.8189,0.2786,0.5236,41.1188,5.5312,15.5813,,0.014750000000000263,0.28677867772901106,1.337480375631052,non_fall
5.600328,-0.0099,0.3996,-0.2278,0.8189,0.2786,0.5236,41.1188,5.5312,15.5813,,0.020062000000000246,0.4600771783081617,1.2634178283422084,non_fall
5.610947,-0.0099,0.3996,-0.2278,0.8189,0.2786,0.5236,40.9125,5.6813,16.4062,,0.010619000000000156,0.4600771783081617,1.2206402992746297,non_fall
5.618357,-0.0099,0.3996,-0.2278,0.8189,0.2786,0.5236,40.9125,5.6813,16.4062,,0.0074099999999992505,0.4600771783081617,1.2072121187472786,non_fall
5.621068,-0.0751,0.896,0.1594,0.8189,0.2786,0.5236,40.9125,5.6813,16.4062,,0.002711000000000574,0.9131617436139121,1.21880618432905,non_fall
5.626695,-0.0751,0.896,0.1594,0.8935,0.3151,0.5907,40.9125,5.6813,16.4062,,0.0056269999999996045,0.9131617436139121,1.2493428583177866,non_fall
5.638304,1.0841,1.5705,0.5509,0.8935,0.3151,0.5907,40.9125,5.6813,16.4062,,0.01160899999999998,1.986261279388993,1.2918942152552493,non_fall
5.656373,1.5187,2.1817,-0.3735,0.8935,0.3151,0.5907,40.9125,5.6813,16.4062,,0.018069000000000557,2.684355943238527,1.3397074877534805,non_fall
5.672072,1.5187,2.1817,-0.3735,0.8935,0.3151,0.5907,40.5938,5.85,17.0438,,0.015698999999999685,2.684355943238527,1.3871732136778945,non_fall
5.67662,0.4602,1.4045,-1.0213,0.8935,0.3151,0.5907,40.5938,5.85,17.0438,,0.0045479999999997744,1.79651272748066,1.4305703122589255,non_fall
5.680159,0.4602,1.4045,-1.0213,0.8935,0.3151,0.5907,40.5938,5.85,17.0438,,0.003538999999999959,1.79651272748066,1.46846653407387,non_fall
5.690185,0.4602,1.4045,-1.0213,0.4317,0.7085,0.4185,40.5938,5.85,17.0438,,0.010025999999999868,1.79651272748066,1.501726404300436,non_fall
5.694673,-0.0943,-1.2553,-0.8578,0.4317,0.7085,0.4185,40.5938,5.85,17.0438,,0.0044880000000002696,1.5233159291493017,1.5331554415085333,non_fall
5.714609,-0.1142,-0.8114,-0.4754,0.4317,0.7085,0.4185,40.5938,5.85,17.0438,,0.019936000000000398,0.9473208326644147,1.566869118229389,non_fall
5.731217,-0.1142,-0.8114,-0.4754,0.4317,0.7085,0.4185,39.7313,5.175,18.825,,0.016607999999999734,0.9473208326644147,1.6075114160510076,non_fall
5.734865,-0.0933,0.5877,-0.9104,0.4317,0.7085,0.4185,39.7313,5.175,18.825,,0.0036480000000000956,1.0876232527856327,1.659461126610855,non_fall
5.741616,-0.0933,0.5877,-0.9104,0.4317,0.7085,0.4185,39.7313,5.175,18.825,,0.006750999999999507,1.0876232527856327,1.7261536303008576,non_fall
5.751867,-0.0933,0.5877,-0.9104,0.2082,0.5192,0.3,39.7313,5.175,18.825,,0.010251000000000232,1.0876232527856327,1.8096131983557664,non_fall
5.753611,-0.8846,0.7593,-1.8662,0.2082,0.5192,0.3,39.7313,5.175,18.825,,0.0017440000000004119,2.200399075167957,1.910243030362216,non_fall
5.771774,-1.2117,-0.4906,-2.4192,0.2082,0.5192,0.3,39.7313,5.175,18.825,,0.018162999999999485,2.749806154986202,2.0268676984661247,non_fall
5.790923,-1.8746,-0.432,-1.3495,0.2082,0.5192,0.3,39.7313,5.175,18.825,,0.019149000000000527,2.3498722114191657,2.1569774734937837,non_fall
5.794491,-1.8746,-0.432,-1.3495,0.2082,0.5192,0.3,39.825,5.1375,19.6688,,0.0035679999999995715,2.3498722114191657,2.297098955176683,non_fall
5.806526,-1.8746,-0.432,-1.3495,0.2082,0.5192,0.3,39.825,5.1375,19.6688,,0.012035000000000018,2.3498722114191657,2.443217493416284,non_fall
5.809736,-2.3888,0.0535,-1.0349,0.2082,0.5192,0.3,39.825,5.1375,19.6688,,0.003210000000000157,2.6038904930891387,2.5911956459901853,non_fall
5.81361,-2.3888,0.0535,-1.0349,-0.5053,0.6022,0.1534,39.825,5.1375,19.6688,,0.003873999999999711,2.6038904930891387,2.737151927998258,non_fall
5.828985,-2.5527,0.0924,-1.6049,-0.5053,0.6022,0.1534,39.825,5.1375,19.6688,,0.015375000000000583,3.016706657930134,2.8777750190624074,non_fall
5.847712,-2.398,-0.2536,-2.3931,-0.5053,0.6022,0.1534,39.825,5.1375,19.6688,,0.018726999999999272,3.3972995996820767,3.0105508714346656,non_fall
5.851502,-2.398,-0.2536,-2.3931,-0.5053,0.6022,0.1534,39.3563,4.2563,21.225,,0.003790000000000404,3.3972995996820767,3.133879872742296,non_fall
5.866558,-2.398,-0.2536,-2.3931,-0.5053,0.6022,0.1534,39.3563,4.2563,21.225,,0.015056000000000402,3.3972995996820767,3.2470648794331303,non_fall
5.869857,-2.3962,-0.6284,-2.8969,-0.5053,0.6022,0.1534,39.3563,4.2563,21.225,,0.0032989999999992747,3.8116519528939152,3.3501625916742848,non_fall
5.875587,-2.3962,-0.6284,-2.8969,-1.0612,0.2761,0.3611,39.3563,4.2563,21.225,,0.005730000000000679,3.8116519528939152,3.443710085956964,non_fall
5.885817,-1.5055,-0.2655,-2.8579,-1.0612,0.2761,0.3611,39.3563,4.2563,21.225,,0.010229999999999961,3.2410820585107065,3.528362232305165,non_fall
5.905355,-0.8219,-0.239,-2.5195,-1.0612,0.2761,0.3611,39.3563,4.2563,21.225,,0.019537999999999833,2.660924812917494,3.6045007247303236,non_fall
5.912015,-0.8219,-0.239,-2.5195,-1.0612,0.2761,0.3611,39.4125,2.4938,22.5563,,0.00666000000000011,2.660924812917494,3.671895220652574,non_fall
5.924118,-0.6036,-1.3438,-3.26,-1.0612,0.2761,0.3611,39.4125,2.4938,22.5563,,0.012102999999999753,3.5773917034621747,3.7294997832646635,non_fall
5.929114,-0.6036,-1.3438,-3.26,-1.0612,0.2761,0.3611,39.4125,2.4938,22.5563,,0.0049960000000002225,3.5773917034621747,3.775443640388859,non_fall
5.939356,-0.6036,-1.3438,-3.26,-1.231,0.4801,0.1643,39.4125,2.4938,22.5563,,0.010241999999999862,3.5773917034621747,3.8072285843252565,non_fall
5.94335,-0.3246,-1.8523,-3.8573,-1.231,0.4801,0.1643,39.4125,2.4938,22.5563,,0.003993999999999609,4.291286956147305,3.8220940039577544,non_fall
5.962378,-0.1157,-2.1529,-4.0127,-1.231,0.4801,0.1643,39.4125,2.4938,22.5563,,0.01902800000000049,4.5552306407030585,3.817471723426691,non_fall
5.973028,-0.1157,-2.1529,-4.0127,-1.231,0.4801,0.1643,38.8875,0.525,24.3375,,0.010650000000000048,4.5552306407030585,3.7914343890385824,non_fall
5.982785,-0.1103,-2.3414,-3.1077,-1.231,0.4801,0.1643,38.8875,0.525,24.3375,,0.009756999999999572,3.892572329450026,3.743045691366507,non_fall
5.990684,-0.1103,-2.3414,-3.1077,-1.231,0.4801,0.1643,38.8875,0.525,24.3375,,0.0078990000000001,3.892572329450026,3.672547975407851,non_fall
6.001252,-0.1103,-2.3414,-3.1077,-1.7453,0.2993,0.1412,38.8875,0.525,24.3375,,0.010568000000000133,3.892572329450026,3.5813652275800134,non_fall
6.002989,-0.0336,-1.6756,-2.4033,-1.7453,0.2993,0.1412,38.8875,0.525,24.3375,,0.0017370000000003216,2.9299514006208365,3.471943145442851,non_fall
6.021209,1.1326,-1.3921,-2.0572,-1.7453,0.2993,0.1412,38.8875,0.525,24.3375,,0.01821999999999946,2.729981137297472,3.3474814019855508,non_fall
6.031781,1.1326,-1.3921,-2.0572,-1.7453,0.2993,0.1412,38.7,-1.95,24.4313,,0.010571999999999804,2.729981137297472,3.2116304951680723,non_fall
6.039489,1.2093,-1.3293,-2.0322,-1.7453,0.2993,0.1412,38.7,-1.95,24.4313,,0.007708000000000048,2.712799627690921,3.0682231762985315,non_fall
6.052986,1.2093,-1.3293,-2.0322,-1.7453,0.2993,0.1412,38.7,-1.95,24.4313,,0.013497000000000092,2.712799627690921,2.9210877606665995,non_fall
6.058672,1.7987,-0.7769,-2.3186,-1.7453,0.2993,0.1412,38.7,-1.95,24.4313,,0.005685999999999858,3.035589112511771,2.773954438381931,non_fall
6.062394,1.7987,-0.7769,-2.3186,-1.6684,0.2591,-0.0311,38.7,-1.95,24.4313,,0.0037220000000006692,3.035589112511771,2.630428547117206,non_fall
6.077822,1.9693,-0.4443,-2.3978,-1.6684,0.2591,-0.0311,38.7,-1.95,24.4313,,0.015427999999999997,3.1344839798601623,2.4939784647053242,non_fall
6.091803,1.9693,-0.4443,-2.3978,-1.6684,0.2591,-0.0311,38.3063,-4.3313,24.9375,,0.013980999999999355,3.1344839798601623,2.36787807477695,non_fall
6.096282,1.3367,-0.2203,-1.8703,-1.6684,0.2591,-0.0311,38.3063,-4.3313,24.9375,,0.004479000000000788,2.3093984216674266,2.2550577059398216,non_fall
6.115235,1.3367,-0.2203,-1.8703,-1.6684,0.2591,-0.0311,38.3063,-4.3313,24.9375,,0.018952999999999776,2.3093984216674266,2.1578502339668657,non_fall
6.11849,0.9132,-0.383,-1.2195,-1.6684,0.2591,-0.0311,38.3063,-4.3313,24.9375,,0.00325500000000023,1.5709244062016479,2.077661189708398,non_fall
6.124581,0.9132,-0.383,-1.2195,-1.7832,0.3629,-0.036,38.3063,-4.3313,24.9375,,0.0060909999999996245,1.5709244062016479,2.0146294253728945,non_fall
6.135022,0.6923,-0.6313,-0.6965,-1.7832,0.3629,-0.036,38.3063,-4.3313,24.9375,,0.010441000000000145,1.1674464570163379,1.9673656563990598,non_fall
6.151702,0.6923,-0.6313,-0.6965,-1.7832,0.3629,-0.036,38.4,-6.7688,25.8563,,0.016680000000000028,1.1674464570163379,1.932853580841829,non_fall
6.155347,1.5149,-0.879,-0.4766,-1.7832,0.3629,-0.036,38.4,-6.7688,25.8563,,0.0036449999999996763,1.8151337609112999,1.906572500861805,non_fall
6.173387,1.4535,-1.3403,-0.2599,-1.7832,0.3629,-0.036,38.4,-6.7688,25.8563,,0.018040000000000056,1.9941450172943793,1.8828571981804456,non_fall
6.177558,1.4535,-1.3403,-0.2599,-1.7832,0.3629,-0.036,38.4,-6.7688,25.8563,,0.004171000000000369,1.9941450172943793,1.8554614550673547,non_fall
6.187339,1.4535,-1.3403,-0.2599,-1.4839,0.744,0.0715,38.4,-6.7688,25.8563,,0.009780999999999374,1.9941450172943793,1.8182503760631576,non_fall
6.193916,1.5853,-1.7512,0.0618,-1.4839,0.744,0.0715,38.4,-6.7688,25.8563,,0.006577000000000055,2.3629847164126985,1.7659239436315564,non_fall
6.211671,0.998,-1.9277,0.386,-1.4839,0.744,0.0715,38.4,-6.7688,25.8563,,0.017755000000000187,2.2047737502972953,1.694671516013483,non_fall
6.215508,0.998,-1.9277,0.386,-1.4839,0.744,0.0715,37.35,-9.4125,25.8563,,0.0038369999999998683,2.2047737502972953,1.602670447395225,non_fall
6.230877,0.2546,-1.1969,0.1226,-1.4839,0.744,0.0715,37.35,-9.4125,25.8563,,0.015369000000000632,1.2298054846194175,1.490368439032149,non_fall
6.239828,0.2546,-1.1969,0.1226,-1.4839,0.744,0.0715,37.35,-9.4125,25.8563,,0.00895099999999971,1.2298054846194175,1.3605247915756957,non_fall
6.249377,0.2546,-1.1969,0.1226,-0.2622,0.7928,-0.0128,37.35,-9.4125,25.8563,,0.009548999999999808,1.2298054846194175,1.218021697988201,non_fall
6.250842,0.4461,-0.9633,-0.1886,-0.2622,0.7928,-0.0128,37.35,-9.4125,25.8563,,0.0014649999999996055,1.0782031626738997,1.0694820214197025,non_fall
6.270284,0.2423,-0.9599,-0.1598,-0.2622,0.7928,-0.0128,37.35,-9.4125,25.8563,,0.019442000000000625,1.0028226862212481,0.9227399607879959,non_fall
6.272048,0.2423,-0.9599,-0.1598,-0.2622,0.7928,-0.0128,36.375,-9.8625,27.2438,,0.0017639999999996547,1.0028226862212481,0.7862108482632169,non_fall
6.287432,0.0555,-0.4784,-0.2142,-0.2622,0.7928,-0.0128,36.375,-9.8625,27.2438,,0.015384000000000064,0.5270943463935086,0.6682048431101009,non_fall
6.301819,0.0555,-0.4784,-0.2142,-0.2622,0.7928,-0.0128,36.375,-9.8625,27.2438,,0.01438700000000015,0.5270943463935086,0.5762312511998072,non_fall
6.307533,-0.0245,-0.0557,-0.2627,-0.2622,0.7928,-0.0128,36.375,-9.8625,27.2438,,0.005714000000000219,0.26965539119402004,0.5163447215961522,non_fall
6.310801,-0.0245,-0.0557,-0.2627,0.1019,0.7085,0.0312,36.375,-9.8625,27.2438,,0.0032679999999993825,0.26965539119402004,0.49258756584612845,non_fall
6.325918,-0.006,0.2489,-0.3324,0.1019,0.7085,0.0312,36.375,-9.8625,27.2438,,0.015117000000000047,0.4153034673585088,0.5065799599357373,non_fall
6.331648,-0.006,0.2489,-0.3324,0.1019,0.7085,0.0312,34.9875,-9.5625,28.1063,,0.005730000000000679,0.4153034673585088,0.5573006582994443,non_fall
6.344576,0.0682,-0.1177,-0.1113,0.1019,0.7085,0.0312,34.9875,-9.5625,28.1063,,0.012927999999999606,0.17576182748253386,0.6410869872695307,non_fall
6.364846,0.0682,-0.1177,-0.1113,0.1019,0.7085,0.0312,34.9875,-9.5625,28.1063,,0.02027000000000001,0.17576182748253386,0.7518667743807899,non_fall
6.36798,0.3027,-0.7496,0.3172,0.1019,0.7085,0.0312,34.9875,-9.5625,28.1063,,0.003134000000000192,0.8684142387132998,0.8816163209395251,non_fall
6.375254,0.3027,-0.7496,0.3172,0.2485,0.8821,0.1277,34.9875,-9.5625,28.1063,,0.007273999999999781,0.8684142387132998,1.0210150296652503,non_fall
6.383204,0.8905,-1.1951,0.5447,0.2485,0.8821,0.1277,34.9875,-9.5625,28.1063,,0.007950000000000124,1.5868057064429786,1.1602392401920336,non_fall
6.391608,0.8905,-1.1951,0.5447,0.2485,0.8821,0.1277,33.4875,-9.2438,30.3375,,0.008403999999999634,1.5868057064429786,1.2898118809159593,non_fall
6.404576,1.1769,-1.3524,0.7493,0.2485,0.8821,0.1277,33.4875,-9.2438,30.3375,,0.012967999999999869,1.9430722734885597,1.4014098521988239,non_fall
6.422524,1.0594,-1.4728,0.7975,0.2485,0.8821,0.1277,33.4875,-9.2438,30.3375,,0.01794800000000052,1.981785672064464,1.4885330613897638,non_fall
6.4264,1.0594,-1.4728,0.7975,0.2485,0.8821,0.1277,33.4875,-9.2438,30.3375,,0.0038759999999999906,1.981785672064464,1.546957626001795,non_fall
6.436321,1.0594,-1.4728,0.7975,0.5111,0.5474,-0.0311,33.4875,-9.2438,30.3375,,0.00992100000000029,1.981785672064464,1.5749271130918487,non_fall
6.441011,0.2927,-1.2958,0.3084,0.5111,0.5474,-0.0311,33.4875,-9.2438,30.3375,,0.004689999999999195,1.3637747211324898,1.573074304565499,non_fall
6.450509,0.2927,-1.2958,0.3084,0.5111,0.5474,-0.0311,31.9688,-8.1,31.95,,0.009498000000000673,1.3637747211324898,1.544105394179938,non_fall
6.461224,-0.1507,-0.9836,-0.5669,0.5111,0.5474,-0.0311,31.9688,-8.1,31.95,,0.010714999999999364,1.1452314438575288,1.492311092302365,non_fall
6.4797,-0.2237,-0.7199,-0.8442,0.5111,0.5474,-0.0311,31.9688,-8.1,31.95,,0.018476000000000603,1.1318000441774156,1.422987490539242,non_fall
6.487943,-0.2237,-0.7199,-0.8442,0.5111,0.5474,-0.0311,31.9688,-8.1,31.95,,0.008242999999999334,1.1318000441774156,1.3418504099875646,non_fall
6.49783,-0.2237,-0.7199,-0.8442,0.5527,0.2516,-0.0873,31.9688,-8.1,31.95,,0.009887000000000867,1.1318000441774156,1.2545132472172051,non_fall
6.499362,0.1399,-0.6969,-0.6671,0.5527,0.2516,-0.0873,31.9688,-8.1,31.95,,0.0015319999999992007,0.9748148696034545,1.1660769221712424,non_fall
6.510543,0.1399,-0.6969,-0.6671,0.5527,0.2516,-0.0873,32.1188,-7.1438,32.3625,,0.011181000000000552,0.9748148696034545,1.0808580341159033,non_fall
6.51759,0.5388,-0.4965,-0.4562,0.5527,0.2516,-0.0873,32.1188,-7.1438,32.3625,,0.0070470000000000255,0.863096825390987,1.0022614690903158,non_fall
6.536037,0.6478,-0.1179,-0.5124,0.5527,0.2516,-0.0873,32.1188,-7.1438,32.3625,,0.018447000000000102,0.8343254820512197,0.9327871409720784,non_fall
6.550556,0.6478,-0.1179,-0.5124,0.5527,0.2516,-0.0873,32.1188,-7.1438,32.3625,,0.014518999999999949,0.8343254820512197,0.8741464427786849,non_fall
6.556793,0.807,0.1478,-0.7496,0.5527,0.2516,-0.0873,32.1188,-7.1438,32.3625,,0.006236999999999604,1.1113028390137407,0.8274517924256624,non_fall
6.561825,0.807,0.1478,-0.7496,0.5258,0.3556,-0.1753,32.1188,-7.1438,32.3625,,0.005031999999999925,1.1113028390137407,0.7934332725571377,non_fall
6.570766,0.807,0.1478,-0.7496,0.5258,0.3556,-0.1753,31.95,-5.775,32.7,,0.008941000000000088,1.1113028390137407,0.7726325383413142,non_fall
6.574546,0.8109,0.0506,-0.7365,0.5258,0.3556,-0.1753,31.95,-5.775,32.7,,0.0037799999999998946,1.096609055224331,0.765529382944887,non_fall
6.594386,0.3772,-0.0547,-0.7031,0.5258,0.3556,-0.1753,31.95,-5.775,32.7,,0.019840000000000302,0.7997634275209138,0.7725719356538058,non_fall
6.612543,0.3772,-0.0547,-0.7031,0.5258,0.3556,-0.1753,31.95,-5.775,32.7,,0.018156999999999535,0.7997634275209138,0.7941045345636117,non_fall
6.615368,0.0538,-0.0924,-0.7064,0.5258,0.3556,-0.1753,31.95,-5.775,32.7,,0.0028250000000005215,0.7144460511473207,0.8302117068154836,non_fall
6.622003,0.0538,-0.0924,-0.7064,0.4696,0.3579,-0.1141,31.95,-5.775,32.7,,0.0066350000000001685,0.7144460511473207,0.8805159326791633,non_fall
6.631088,0.0538,-0.0924,-0.7064,0.4696,0.3579,-0.1141,30.7125,-4.1625,32.9438,,0.009084999999999788,0.7144460511473207,0.943976970229727,non_fall
6.632784,0.0578,-0.1688,-0.9844,0.4696,0.3579,-0.1141,30.7125,-4.1625,32.9438,,0.0016959999999999198,1.0004387237607308,1.0187409564292877,non_fall
6.65186,0.3078,0.3354,-0.3173,0.4696,0.3579,-0.1141,30.7125,-4.1625,32.9438,,0.019076000000000093,0.5548993512340774,1.1020801911537552,non_fall
6.67051,0.2896,0.9582,0.0726,0.4696,0.3579,-0.1141,30.7125,-4.1625,32.9438,,0.018650000000000055,1.0036364680500605,1.1904518877737782,non_fall
6.674886,0.2896,0.9582,0.0726,0.4696,0.3579,-0.1141,30.7125,-4.1625,32.9438,,0.0043759999999997135,1.0036364680500605,1.2796875060994624,non_fall
6.685046,0.2896,0.9582,0.0726,0.6358,0.2773,-0.1924,30.7125,-4.1625,32.9438,,0.010159999999999947,1.0036364680500605,1.3653035085659604,non_fall
6.689602,-0.2101,1.592,-1.384,0.6358,0.2773,-0.1924,30.7125,-4.1625,32.9438,,0.0045560000000000045,2.119920283878618,1.4429002265582247,non_fall
6.692109,-0.2101,1.592,-1.384,0.6358,0.2773,-0.1924,30.75,-2.8313,33.7875,,0.002507000000000481,2.119920283878618,1.508592017944456,non_fall
6.708954,-0.1839,1.8298,-1.0295,0.6358,0.2773,-0.1924,30.75,-2.8313,33.7875,,0.016845,2.1075714697252854,1.5593971270656861,non_fall
6.728324,0.0631,1.5943,-0.3037,0.6358,0.2773,-0.1924,30.75,-2.8313,33.7875,,0.019369999999999443,1.624194504977775,1.593518889711839,non_fall
6.737696,0.0631,1.5943,-0.3037,0.6358,0.2773,-0.1924,30.75,-2.8313,33.7875,,0.009371999999999936,1.624194504977775,1.6104739377994293,non_fall
6.747042,0.0631,1.5943,-0.3037,0.2815,0.2504,-0.1301,30.75,-2.8313,33.7875,,0.009346000000000743,1.624194504977775,1.6110587372687215,non_fall
6.750604,0.2154,1.3161,0.3472,0.2815,0.2504,-0.1301,30.75,-2.8313,33.7875,,0.003561999999999621,1.3780653866925183,1.5971780838289935,non_fall
6.753052,0.2154,1.3161,0.3472,0.2815,0.2504,-0.1301,30.4125,-1.875,34.5375,,0.0024480000000002278,1.3780653866925183,1.5715785477843085,non_fall
6.765892,0.0827,1.2765,0.1354,0.2815,0.2504,-0.1301,30.4125,-1.875,34.5375,,0.01283999999999974,1.286322160269347,1.5375357170233785,non_fall
6.784643,-0.1362,1.3536,-0.4602,0.2815,0.2504,-0.1301,30.4125,-1.875,34.5375,,0.018750999999999962,1.4361641410368107,1.4985397223363972,non_fall
6.799214,-0.1362,1.3536,-0.4602,0.2815,0.2504,-0.1301,30.4125,-1.875,34.5375,,0.014571000000000112,1.4361641410368107,1.4580121621341406,non_fall
6.807453,-0.0304,1.38,-0.5164,0.2815,0.2504,-0.1301,30.4125,-1.875,34.5375,,0.008238999999999663,1.473768340004629,1.419072808723258,non_fall
6.809199,-0.0304,1.38,-0.5164,0.1397,0.1686,-0.0115,30.4125,-1.875,34.5375,,0.0017459999999998033,1.473768340004629,1.3843608961937308,non_fall
6.810175,-0.0304,1.38,-0.5164,0.1397,0.1686,-0.0115,29.7938,-1.05,34.35,,0.000976000000000532,1.473768340004629,1.3559070541515945,non_fall
6.824355,0.1531,1.2536,-0.4983,0.1397,0.1686,-0.0115,29.7938,-1.05,34.35,,0.014179999999999637,1.3576654447985337,1.3350493463804194,non_fall
6.843172,0.2819,1.1472,-0.1807,0.1397,0.1686,-0.0115,29.7938,-1.05,34.35,,0.018817000000000306,1.195068173787588,1.3223893801545379,non_fall
6.861513,0.2819,1.1472,-0.1807,0.1397,0.1686,-0.0115,29.7938,-1.05,34.35,,0.018341000000000385,1.195068173787588,1.3177894722438621,non_fall
6.864829,0.1344,1.2084,-0.2196,0.1397,0.1686,-0.0115,29.7938,-1.05,34.35,,0.0033159999999998746,1.235523403258716,1.320415854220275,non_fall
6.870839,0.1344,1.2084,-0.2196,0.472,0.2383,0.0129,29.7938,-1.05,34.35,,0.006009999999999849,1.235523403258716,1.3288328153053799,non_fall
6.872561,0.1344,1.2084,-0.2196,0.472,0.2383,0.0129,29.3625,0.075,34.1625,,0.0017220000000000013,1.235523403258716,1.3411477944129562,non_fall
6.880901,-0.1836,1.2431,-0.5757,0.472,0.2383,0.0129,29.3625,0.075,34.1625,,0.00833999999999957,1.3821856098223568,1.3551994874002755,non_fall
6.90036,-0.3163,1.1326,-1.001,0.472,0.2383,0.0129,29.3625,0.075,34.1625,,0.019459000000000337,1.5442893025595947,1.3687725065120713,non_fall
6.919445,-0.2015,1.174,-0.8926,0.472,0.2383,0.0129,29.3625,0.075,34.1625,,0.019084999999999575,1.4884935371038732,1.3798152106165473,non_fall
6.923166,-0.2015,1.174,-0.8926,0.472,0.2383,0.0129,29.3625,0.075,34.1625,,0.0037210000000005294,1.4884935371038732,1.3866342136362764,non_fall
6.930886,-0.2015,1.174,-0.8926,0.472,0.2383,0.0129,28.7813,-0.225,34.5,,0.007719999999999949,1.4884935371038732,1.3880413461274526,non_fall
6.932644,-0.2015,1.174,-0.8926,0.213,0.3372,0.0434,28.7813,-0.225,34.5,,0.0017579999999997042,1.4884935371038732,1.383435938746718,non_fall
6.939045,0.0547,1.2825,-0.4596,0.213,0.3372,0.0434,28.7813,-0.225,34.5,,0.006401000000000323,1.3634626874249254,1.372814800431475,non_fall
6.957978,0.3315,1.403,0.013,0.213,0.3372,0.0434,28.7813,-0.225,34.5,,0.018932999999999645,1.441690067247465,1.356711845501992,non_fall
6.976964,0.6397,1.1081,0.1575,0.213,0.3372,0.0434,28.7813,-0.225,34.5,,0.018985999999999947,1.289150088236432,1.3360777070420606,non_fall
6.985395,0.6397,1.1081,0.1575,0.213,0.3372,0.0434,28.7813,-0.225,34.5,,0.008430999999999855,1.289150088236432,1.3121162240620623,non_fall
6.991869,0.6397,1.1081,0.1575,0.213,0.3372,0.0434,28.05,0.6375,35.1375,,0.006474000000000757,1.289150088236432,1.286099059032353,non_fall
6.995205,0.6397,1.1081,0.1575,0.2839,0.3921,0.1228,28.05,0.6375,35.1375,,0.0033360000000000056,1.289150088236432,1.2591818657535019,non_fall
6.996695,0.728,0.504,-0.2498,0.2839,0.3921,0.1228,28.05,0.6375,35.1375,,0.0014899999999995472,0.9200000217391302,1.2322457418338228,non_fall
7.015072,0.5693,0.2504,-0.7104,0.2839,0.3921,0.1228,28.05,0.6375,35.1375,,0.018377000000000088,0.94417731915144,1.2057864225902843,non_fall
7.034145,0.2721,0.2444,-1.0654,0.2839,0.3921,0.1228,28.05,0.6375,35.1375,,0.019072999999999674,1.1264310586982231,1.1798697692473448,non_fall
7.048352,0.2721,0.2444,-1.0654,0.2839,0.3921,0.1228,28.05,0.6375,35.1375,,0.014207000000000747,1.1264310586982231,1.1541635543964517,non_fall
7.050917,0.2721,0.2444,-1.0654,0.2839,0.3921,0.1228,27.5438,1.2,36.0938,,0.0025649999999997064,1.1264310586982231,1.1280424378150584,non_fall
7.053537,-0.0343,0.4457,-1.113,0.2839,0.3921,0.1228,27.5438,1.2,36.0938,,0.0026200000000002888,1.1994140152591182,1.1007492202390319,non_fall
7.05884,-0.0343,0.4457,-1.113,0.1519,0.4801,0.1425,27.5438,1.2,36.0938,,0.005302999999999614,1.1994140152591182,1.0715856119419849,non_fall
7.072223,-0.1063,0.7444,-0.8119,0.1519,0.4801,0.1425,27.5438,1.2,36.0938,,0.013383000000000145,1.1066221848490116,1.040101835325674,non_fall
7.091525,-0.0771,1.0156,-0.3335,0.1519,0.4801,0.1425,27.5438,1.2,36.0938,,0.01930199999999971,1.0717322520107342,1.0062558580008507,non_fall
7.110165,-0.0771,1.0156,-0.3335,0.1519,0.4801,0.1425,27.5438,1.2,36.0938,,0.018640000000000434,1.0717322520107342,0.9705184107634123,non_fall
7.111725,-0.1497,1.0167,-0.2657,0.1519,0.4801,0.1425,27.5438,1.2,36.0938,,0.0015599999999995617,1.0614544125868053,0.9339073220701688,non_fall
7.112749,-0.1497,1.0167,-0.2657,0.1519,0.4801,0.1425,26.9438,1.2938,36.6375,,0.001024000000000136,1.0614544125868053,0.8979426397482415,non_fall
7.119359,-0.1497,1.0167,-0.2657,0.2998,0.3751,0.14,26.9438,1.2938,36.6375,,0.006610000000000227,1.0614544125868053,0.8645223779417242,non_fall
7.129915,-0.1028,0.8139,-0.1977,0.2998,0.3751,0.14,26.9438,1.2938,36.6375,,0.010555999999999344,0.8438520841948546,0.8357283880269395,non_fall
7.149032,-0.0615,0.6191,-0.1878,0.2998,0.3751,0.14,26.9438,1.2938,36.6375,,0.019117000000000495,0.6498737569713059,0.8135831641298801,non_fall
7.167776,-0.0505,0.2651,-0.4832,0.2998,0.3751,0.14,26.9438,1.2938,36.6375,,0.018743999999999872,0.5534532500582141,0.7997897239268889,non_fall
7.171078,-0.0505,0.2651,-0.4832,0.2998,0.3751,0.14,26.1563,1.5,36.7688,,0.003301999999999694,0.5534532500582141,0.7954942248767111,non_fall
7.172554,-0.0505,0.2651,-0.4832,0.2998,0.3751,0.14,26.1563,1.5,36.7688,,0.0014760000000002549,0.5534532500582141,0.8011106357777785,non_fall
7.182909,-0.0505,0.2651,-0.4832,0.1177,0.4252,0.1155,26.1563,1.5,36.7688,,0.010355000000000558,0.5534532500582141,0.816237183206786,non_fall
7.186791,0.1985,0.3242,-0.8933,0.1177,0.4252,0.1155,26.1563,1.5,36.7688,,0.003881999999999941,0.9708206734510756,0.8396775345397959,non_fall
7.206946,-0.1729,0.5539,-0.904,0.1177,0.4252,0.1155,26.1563,1.5,36.7688,,0.020154999999999923,1.0742046453074015,0.8695600174919519,non_fall
7.226273,0.0052,0.5164,-0.8537,0.1177,0.4252,0.1155,26.1563,1.5,36.7688,,0.01932699999999965,0.9977473076886753,0.9035308833720984,non_fall
7.231313,0.0052,0.5164,-0.8537,0.1177,0.4252,0.1155,25.3875,1.2,37.4062,,0.0050400000000001555,0.9977473076886753,0.9389878716932031,non_fall
7.234044,0.0052,0.5164,-0.8537,0.1177,0.4252,0.1155,25.3875,1.2,37.4062,,0.002730999999999817,0.9977473076886753,0.9733203122393566,non_fall
7.244183,0.0052,0.5164,-0.8537,0.0786,0.2358,-0.0238,25.3875,1.2,37.4062,,0.010138999999999676,0.9977473076886753,1.0041288597598304,non_fall
7.247295,-0.2077,0.6704,-0.868,0.0786,0.2358,-0.0238,25.3875,1.2,37.4062,,0.00311200000000067,1.1162434546280664,1.0294063122573498,non_fall
7.263724,-0.4303,0.6036,-1.0499,0.0786,0.2358,-0.0238,25.3875,1.2,37.4062,,0.016428999999999583,1.2852163475462022,1.0476674044878553,non_fall
7.28321,-0.3769,0.5654,-0.8147,0.0786,0.2358,-0.0238,25.3875,1.2,37.4062,,0.01948600000000056,1.0608802288665766,1.0580202500903164,non_fall
7.291994,-0.3769,0.5654,-0.8147,0.0786,0.2358,-0.0238,24.675,1.65,38.3625,,0.008783999999999459,1.0608802288665766,1.0601774872783194,non_fall
7.298142,-0.3769,0.5654,-0.8147,0.0786,0.2358,-0.0238,24.675,1.65,38.3625,,0.006148000000000486,1.0608802288665766,1.0544124587067478,non_fall
7.301521,-0.4545,0.4248,-0.5939,0.0786,0.2358,-0.0238,24.675,1.65,38.3625,,0.003378999999999799,0.8600828448469368,1.041473479328723,non_fall
7.307654,-0.4545,0.4248,-0.5939,0.0224,0.132,0.0092,24.675,1.65,38.3625,,0.006133000000000166,0.8600828448469368,1.0224744317888923,non_fall
7.32039,-0.4445,0.3802,-0.6603,0.0224,0.132,0.0092,24.675,1.65,38.3625,,0.012735999999999414,0.8821158540690673,0.9987804349776186,non_fall
7.340031,-0.4404,0.2919,-0.8869,0.0224,0.132,0.0092,24.675,1.65,38.3625,,0.01964100000000002,1.0323513839773741,0.9719026802605516,non_fall
7.352029,-0.4404,0.2919,-0.8869,0.0224,0.132,0.0092,24.5625,1.9688,38.2688,,0.011998000000000175,1.0323513839773741,0.943408011380275,non_fall
7.359192,-0.4404,0.2919,-0.8869,0.0224,0.132,0.0092,24.5625,1.9688,38.2688,,0.0071630000000002525,1.0323513839773741,0.9148397680772248,non_fall
7.360097,-0.264,0.3425,-0.9264,0.0224,0.132,0.0092,24.5625,1.9688,38.2688,,0.0009049999999994895,1.022359628506525,0.8876409341018605,non_fall
7.368207,-0.264,0.3425,-0.9264,-0.0949,0.1466,0.0032,24.5625,1.9688,38.2688,,0.008110000000000284,1.022359628506525,0.8630710642942349,non_fall
7.378085,-0.125,0.2642,-0.8327,-0.0949,0.1466,0.0032,24.5625,1.9688,38.2688,,0.00987799999999961,0.8825054844022218,0.8421143716957665,non_fall
7.397789,-0.0956,-0.0492,-0.5929,-0.0949,0.1466,0.0032,24.5625,1.9688,38.2688,,0.019704000000000832,0.6025698382760292,0.8253856119799906,non_fall
7.411826,-0.0956,-0.0492,-0.5929,-0.0949,0.1466,0.0032,24.3938,1.2375,38.7938,,0.014036999999999189,0.6025698382760292,0.8130500226116082,non_fall
7.417539,-0.2022,-0.4378,-0.3945,-0.0949,0.1466,0.0032,24.3938,1.2375,38.7938,,0.005713000000000079,0.6230440835125554,0.8047796171770947,non_fall
7.419752,-0.2022,-0.4378,-0.3945,-0.0949,0.1466,0.0032,24.3938,1.2375,38.7938,,0.0022130000000002426,0.6230440835125554,0.7997669016468836,non_fall
7.429974,-0.2022,-0.4378,-0.3945,-0.0752,0.1979,0.0153,24.3938,1.2375,38.7938,,0.010221999999999731,0.6230440835125554,0.7968077391351206,non_fall
7.435952,-0.2855,-0.7381,-0.4135,-0.0752,0.1979,0.0153,24.3938,1.2375,38.7938,,0.005978000000000705,0.8929076715988054,0.7944504098776706,non_fall
7.455433,-0.258,-0.9078,-0.306,-0.0752,0.1979,0.0153,24.3938,1.2375,38.7938,,0.01948099999999986,0.9921193678182076,0.7911921794583873,non_fall
7.47357,-0.258,-0.9078,-0.306,-0.0752,0.1979,0.0153,23.5125,1.0688,38.8125,,0.018136999999999404,0.9921193678182076,0.7856920609810156,non_fall
7.478443,-0.1682,-0.8911,-0.2294,-0.0752,0.1979,0.0153,23.5125,1.0688,38.8125,,0.004873000000000793,0.9354008819752097,0.7769627027030419,non_fall
7.482109,-0.1682,-0.8911,-0.2294,-0.0752,0.1979,0.0153,23.5125,1.0688,38.8125,,0.003665999999999947,0.9354008819752097,0.7645075548819457,non_fall
7.491511,-0.1682,-0.8911,-0.2294,0.0469,0.1858,0.0947,23.5125,1.0688,38.8125,,0.009401999999999688,0.9354008819752097,0.7483804264757618,non_fall
7.492703,-0.2619,-0.5469,-0.2693,0.0469,0.1858,0.0947,23.5125,1.0688,38.8125,,0.0011919999999996378,0.6634860284889201,0.7291595406769849,non_fall
7.512086,-0.4159,-0.3131,-0.3914,0.0469,0.1858,0.0947,23.5125,1.0688,38.8125,,0.019383000000000372,0.6513051358618325,0.7078436022039717,non_fall
7.53112,-0.3796,-0.0401,-0.3989,0.0469,0.1858,0.0947,23.5125,1.0688,38.8125,,0.01903399999999955,0.5521099347050368,0.6856903831080735,non_fall
7.534662,-0.3796,-0.0401,-0.3989,0.0469,0.1858,0.0947,23.5125,1.1625,39.0188,,0.003542000000000378,0.5521099347050368,0.6640263756505949,non_fall
7.544854,-0.3796,-0.0401,-0.3989,0.0469,0.1858,0.0947,23.5125,1.1625,39.0188,,0.010191999999999979,0.5521099347050368,0.644057576098469,non_fall
7.550386,-0.3793,0.2001,-0.4229,0.0469,0.1858,0.0947,23.5125,1.1625,39.0188,,0.005531999999999648,0.6022897226418529,0.6267070875957581,non_fall
7.554624,-0.3793,0.2001,-0.4229,-0.0459,0.2285,0.0434,23.5125,1.1625,39.0188,,0.004237999999999964,0.6022897226418529,0.6124974645494214,non_fall
7.569341,-0.3173,0.2135,-0.5102,-0.0459,0.2285,0.0434,23.5125,1.1625,39.0188,,0.014717000000000091,0.6376249524603002,0.6014874627848756,non_fall
7.589025,-0.4216,-0.0814,-0.0398,-0.0459,0.2285,0.0434,23.5125,1.1625,39.0188,,0.0196840000000007,0.43122680807203995,0.5932662544257324,non_fall
7.592935,-0.4216,-0.0814,-0.0398,-0.0459,0.2285,0.0434,22.8375,0.75,39.5625,,0.003909999999999414,0.43122680807203995,0.5870038330664455,non_fall
7.606458,-0.4216,-0.0814,-0.0398,-0.0459,0.2285,0.0434,22.8375,0.75,39.5625,,0.013523000000000174,0.43122680807203995,0.5815529066459189,non_fall
7.607376,-0.3334,-0.1048,-0.7181,-0.0459,0.2285,0.0434,22.8375,0.75,39.5625,,0.0009180000000004185,0.7986277042527388,0.5755925776099485,non_fall
7.616227,-0.3334,-0.1048,-0.7181,0.0444,0.1698,-0.0408,22.8375,0.75,39.5625,,0.008850999999999942,0.7986277042527388,0.567796675172017,non_fall
7.627767,-0.2635,0.1353,-0.5422,0.0444,0.1698,-0.0408,22.8375,0.75,39.5625,,0.011540000000000106,0.6178342658027313,0.5570026952792506,non_fall
7.645679,-0.25,0.1813,-0.5013,0.0444,0.1698,-0.0408,22.8375,0.75,39.5625,,0.017911999999999928,0.5887880603409006,0.5423558682777374,non_fall
7.65085,-0.25,0.1813,-0.5013,0.0444,0.1698,-0.0408,22.2375,1.35,39.675,,0.005170999999999815,0.5887880603409006,0.5234088189368942,non_fall
7.665323,-0.0494,0.0349,-0.4735,0.0444,0.1698,-0.0408,22.2375,1.35,39.675,,0.014472999999999736,0.4773474834960377,0.5001673720855401,non_fall
7.669009,-0.0494,0.0349,-0.4735,0.0444,0.1698,-0.0408,22.2375,1.35,39.675,,0.003686000000000078,0.4773474834960377,0.47308246196607173,non_fall
7.67884,-0.0494,0.0349,-0.4735,-0.2817,-0.0868,0.091,22.2375,1.35,39.675,,0.009831000000000145,0.4773474834960377,0.44299447890832394,non_fall
7.685182,0.223,-0.3283,0.0884,-0.2817,-0.0868,0.091,22.2375,1.35,39.675,,0.00634200000000007,0.4066010944402388,0.41103998168303496,non_fall
