time,ax,ay,az,wx,wy,wz,Bx,By,Bz,Unnamed: 10,time_diff,acc_mag,acc_mag_filtered,label
0.050524,-0.3792,-0.1885,1.1631,0.0,0.0,0.0,0.0,0.0,0.0,,0.0,1.2377909758921335,1.2371885720504738,non_fall
0.069088,-0.3792,-0.1885,1.1631,0.0,0.0,0.0,0.0,0.0,0.0,,0.018563999999999997,1.2377909758921335,1.1607155212666926,non_fall
0.083277,-0.3792,-0.1885,1.1631,0.0,0.0,0.0,0.0,0.0,0.0,,0.014189000000000007,1.2377909758921335,1.0830849696964426,non_fall
0.08967,-0.3792,-0.1885,1.1631,0.0,0.0,0.0,0.0,0.0,0.0,,0.006392999999999996,1.2377909758921335,1.0033734295813768,non_fall
0.090618,-0.3792,-0.1885,1.1631,0.0,0.0,0.0,39.4688,9.5438,17.2125,,0.0009480000000000044,1.2377909758921335,0.9212023426539501,non_fall
0.092128,-0.3792,-0.1885,1.1631,0.0151,-0.0012,0.0008,39.4688,9.5438,17.2125,,0.0015099999999999975,1.2377909758921335,0.8368933881606503,non_fall
0.107541,-0.3792,-0.1885,1.1631,0.0151,-0.0012,0.0008,39.4688,9.5438,17.2125,,0.015412999999999996,1.2377909758921335,0.751501652325724,non_fall
0.126907,0.0188,-0.2687,-0.0579,0.0151,-0.0012,0.0008,39.4688,9.5438,17.2125,,0.019365999999999994,0.2755096005586738,0.6667192741441365,non_fall
0.145178,0.0188,-0.2687,-0.0579,0.0151,-0.0012,0.0008,39.4688,9.5438,17.2125,,0.01827100000000001,0.2755096005586738,0.5846682406959872,non_fall
0.146127,0.0474,-0.25,-0.0624,0.0151,-0.0012,0.0008,39.4688,9.5438,17.2125,,0.0009490000000000054,0.2619933586944524,0.5076250481056092,non_fall
0.151097,0.0474,-0.25,-0.0624,0.0151,-0.0012,0.0008,39.675,9.2625,16.7812,,0.004970000000000002,0.2619933586944524,0.43773234669288236,non_fall
0.156045,0.0474,-0.25,-0.0624,0.0054,-0.0073,-0.0054,39.675,9.2625,16.7812,,0.00494799999999998,0.2619933586944524,0.3767484433476937,non_fall
0.165066,0.0728,-0.2435,-0.0593,0.0054,-0.0073,-0.0054,39.675,9.2625,16.7812,,0.009021000000000001,0.2609762058119475,0.32586905914581976,non_fall
0.184445,0.093,-0.2344,-0.0217,0.0054,-0.0073,-0.0054,39.675,9.2625,16.7812,,0.019379000000000007,0.25310719073151594,0.28563615102859946,non_fall
0.203762,0.0913,-0.2658,-0.038,0.0054,-0.0073,-0.0054,39.675,9.2625,16.7812,,0.019317,0.2836006523264712,0.25593221546723294,non_fall
0.208008,0.0913,-0.2658,-0.038,0.0054,-0.0073,-0.0054,39.675,9.2625,16.7812,,0.004246,0.2836006523264712,0.23604708657610463,non_fall
0.210363,0.0913,-0.2658,-0.038,0.0054,-0.0073,-0.0054,39.8813,9.1688,16.6688,,0.002354999999999996,0.2836006523264712,0.22479752805037792,non_fall
0.216915,0.0913,-0.2658,-0.038,0.0139,-0.0012,-0.0077,39.8813,9.1688,16.6688,,0.006552000000000002,0.2836006523264712,0.2206772856784277,non_fall
0.221885,0.0823,-0.2757,-0.0302,0.0139,-0.0012,-0.0077,39.8813,9.1688,16.6688,,0.004970000000000002,0.28930229864278645,0.22201601266459958,non_fall
0.242667,0.0542,-0.2782,-0.03,0.0139,-0.0012,-0.0077,39.8813,9.1688,16.6688,,0.020781999999999995,0.2850138242261242,0.2271286930624848,non_fall
0.261526,0.0544,-0.2523,-0.046,0.0139,-0.0012,-0.0077,39.8813,9.1688,16.6688,,0.018858999999999987,0.2621653104436207,0.23444188327008245,non_fall
0.269122,0.0544,-0.2523,-0.046,0.0139,-0.0012,-0.0077,39.8813,9.1688,16.6688,,0.007595999999999992,0.2621653104436207,0.24258840157797976,non_fall
0.270015,0.0544,-0.2523,-0.046,0.0139,-0.0012,-0.0077,39.8813,9.3938,16.2563,,0.0008930000000000327,0.2621653104436207,0.25046727217903264,non_fall
0.279017,0.0544,-0.2523,-0.046,0.0054,0.0049,-0.0126,39.8813,9.3938,16.2563,,0.00900200000000001,0.2621653104436207,0.2572701284541631,non_fall
0.280147,0.0448,-0.2123,-0.0841,0.0054,0.0049,-0.0126,39.8813,9.3938,16.2563,,0.0011299999999999644,0.2327039750412528,0.26247852101296065,non_fall
0.298926,0.0452,-0.2323,-0.0569,0.0054,0.0049,-0.0126,39.8813,9.3938,16.2563,,0.018779000000000046,0.24340078060680087,0.26583860598948234,non_fall
0.317798,0.0438,-0.247,0.0164,0.0054,0.0049,-0.0126,39.8813,9.3938,16.2563,,0.018872,0.251388941682008,0.2673205712810165,non_fall
0.33016,0.0438,-0.247,0.0164,0.0054,0.0049,-0.0126,40.1625,9.3563,16.6688,,0.012361999999999984,0.251388941682008,0.2670699391265468,non_fall
0.331418,0.0438,-0.247,0.0164,0.0054,0.0049,-0.0126,40.1625,9.3563,16.6688,,0.0012579999999999814,0.251388941682008,0.2653567604022967,non_fall
0.337212,0.0215,-0.259,-0.0198,0.0054,0.0049,-0.0126,40.1625,9.3563,16.6688,,0.005794000000000021,0.26064399091481083,0.26252713078592127,non_fall
0.341821,0.0215,-0.259,-0.0198,0.0213,-0.0122,-0.0089,40.1625,9.3563,16.6688,,0.004608999999999974,0.26064399091481083,0.25895987210044386,non_fall
0.356587,0.0136,-0.2591,-0.058,0.0213,-0.0122,-0.0089,40.1625,9.3563,16.6688,,0.014766000000000001,0.265860433310412,0.25502991252157525,non_fall
0.376405,0.0103,-0.2307,-0.0544,0.0213,-0.0122,-0.0089,40.1625,9.3563,16.6688,,0.019818000000000002,0.23725079557295484,0.2510790064413704,non_fall
0.392195,0.0103,-0.2307,-0.0544,0.0213,-0.0122,-0.0089,39.5813,9.0375,17.3063,,0.015790000000000026,0.23725079557295484,0.24739399626978226,non_fall
0.393275,0.0103,-0.2307,-0.0544,0.0213,-0.0122,-0.0089,39.5813,9.0375,17.3063,,0.0010799999999999699,0.23725079557295484,0.24419267940636621,non_fall
0.393954,0.0254,-0.236,-0.0549,0.0213,-0.0122,-0.0089,39.5813,9.0375,17.3063,,0.0006790000000000407,0.24362916492078693,0.2416171863968527,non_fall
0.403891,0.0254,-0.236,-0.0549,0.0115,-0.022,-0.0187,39.5813,9.0375,17.3063,,0.009936999999999974,0.24362916492078693,0.23973438800101224,non_fall
0.413306,0.0258,-0.2295,-0.0454,0.0115,-0.022,-0.0187,39.5813,9.0375,17.3063,,0.009415000000000007,0.23536577916086274,0.23854232176482817,non_fall
0.433207,0.0289,-0.2348,-0.0361,0.0115,-0.022,-0.0187,39.5813,9.0375,17.3063,,0.019901000000000002,0.23931038422935183,0.2379812155730254,non_fall
0.450765,0.0289,-0.2348,-0.0361,0.0115,-0.022,-0.0187,39.75,9.8625,16.575,,0.017558000000000018,0.23931038422935183,0.2379475102251168,non_fall
0.454236,0.0252,-0.2426,-0.048,0.0115,-0.022,-0.0187,39.75,9.8625,16.575,,0.0034709999999999464,0.24858358755155177,0.23830927466189858,non_fall
0.456758,0.0252,-0.2426,-0.048,0.0115,-0.022,-0.0187,39.75,9.8625,16.575,,0.0025220000000000242,0.24858358755155177,0.23892147572443123,non_fall
0.465289,0.0252,-0.2426,-0.048,0.0091,-0.0403,-0.0175,39.75,9.8625,16.575,,0.00853100000000001,0.24858358755155177,0.23963973727648794,non_fall
0.470963,0.045,-0.2314,-0.0547,0.0091,-0.0403,-0.0175,39.75,9.8625,16.575,,0.005674000000000012,0.24199803718212262,0.2403315930112209,non_fall
0.491156,0.0507,-0.2273,-0.0517,0.0091,-0.0403,-0.0175,39.75,9.8625,16.575,,0.02019299999999996,0.23855538141069046,0.24088481437140172,non_fall
0.512051,0.0559,-0.2161,-0.0606,0.0091,-0.0403,-0.0175,39.75,9.8625,16.575,,0.020895000000000052,0.23129284467963981,0.24121304456037462,non_fall
0.514944,0.0559,-0.2161,-0.0606,0.0091,-0.0403,-0.0175,39.3563,9.8625,17.0063,,0.0028929999999999234,0.23129284467963981,0.24125947237909692,non_fall
0.519369,0.0559,-0.2161,-0.0606,0.0091,-0.0403,-0.0175,39.3563,9.8625,17.0063,,0.004425000000000012,0.23129284467963981,0.24099944912043306,non_fall
0.527315,0.0559,-0.2161,-0.0606,0.0041,-0.039,-0.0151,39.3563,9.8625,17.0063,,0.007946000000000009,0.23129284467963981,0.24044271817338328,non_fall
0.528751,0.0635,-0.2266,-0.0406,0.0041,-0.039,-0.0151,39.3563,9.8625,17.0063,,0.0014359999999999928,0.23880571601199166,0.23963535445769504,non_fall
0.547177,0.0692,-0.2682,-0.0367,0.0041,-0.039,-0.0151,39.3563,9.8625,17.0063,,0.018426000000000053,0.2794043127798853,0.2386607734588611,non_fall
0.567209,0.0696,-0.2213,-0.0517,0.0041,-0.039,-0.0151,39.3563,9.8625,17.0063,,0.02003199999999994,0.23767780712552866,0.23763854666567297,non_fall
0.572477,0.0696,-0.2213,-0.0517,0.0041,-0.039,-0.0151,39.3563,9.9375,17.2125,,0.00526800000000005,0.23767780712552866,0.23671959957282698,non_fall
0.580149,0.0696,-0.2213,-0.0517,0.0041,-0.039,-0.0151,39.3563,9.9375,17.2125,,0.007672000000000012,0.23767780712552866,0.2360768548148622,non_fall
0.5856,0.0896,-0.2344,-0.0681,0.0041,-0.039,-0.0151,39.3563,9.9375,17.2125,,0.005450999999999984,0.2600175570995159,0.23589128697611705,non_fall
0.590497,0.0896,-0.2344,-0.0681,-0.0104,-0.033,-0.0089,39.3563,9.9375,17.2125,,0.00489700000000004,0.2600175570995159,0.23633424733199884,non_fall
0.605734,0.0245,-0.2,-0.0228,-0.0104,-0.033,-0.0089,39.3563,9.9375,17.2125,,0.015236999999999945,0.2027808916047072,0.23754767286325842,non_fall
0.624614,0.0319,-0.2156,-0.0043,-0.0104,-0.033,-0.0089,39.3563,9.9375,17.2125,,0.018880000000000008,0.21798958690726494,0.2396245829389205,non_fall
0.63181,0.0319,-0.2156,-0.0043,-0.0104,-0.033,-0.0089,40.725,10.2188,15.2063,,0.00719599999999998,0.21798958690726494,0.24259298284496542,non_fall
0.642662,0.0319,-0.2156,-0.0043,-0.0104,-0.033,-0.0089,40.725,10.2188,15.2063,,0.010851999999999973,0.21798958690726494,0.24640639471180656,non_fall
0.643742,0.0515,-0.2335,0.0351,-0.0104,-0.033,-0.0089,40.725,10.2188,15.2063,,0.001080000000000081,0.2416743883823853,0.2509433226049106,non_fall
0.652325,0.0515,-0.2335,0.0351,-0.0154,-0.0268,-0.0029,40.725,10.2188,15.2063,,0.008583000000000007,0.2416743883823853,0.25601621848777517,non_fall
0.662496,0.0564,-0.2846,0.0777,-0.0154,-0.0268,-0.0029,40.725,10.2188,15.2063,,0.01017099999999993,0.300358802101753,0.2613885058087504,non_fall
0.681314,0.0753,-0.2757,0.0567,-0.0154,-0.0268,-0.0029,40.725,10.2188,15.2063,,0.018818,0.2913682721230985,0.2667964967572376,non_fall
0.691904,0.0753,-0.2757,0.0567,-0.0154,-0.0268,-0.0029,40.1438,10.05,16.6688,,0.010589999999999988,0.2913682721230985,0.27197209764224506,non_fall
0.702329,0.0906,-0.2743,0.0297,-0.0154,-0.0268,-0.0029,40.1438,10.05,16.6688,,0.010425000000000018,0.2903978994414388,0.2766623764200129,non_fall
0.705312,0.0906,-0.2743,0.0297,-0.0154,-0.0268,-0.0029,40.1438,10.05,16.6688,,0.002983000000000069,0.2903978994414388,0.2806433009373102,non_fall
0.7144,0.0906,-0.2743,0.0297,-0.0214,-0.0146,-0.0077,40.1438,10.05,16.6688,,0.009087999999999985,0.2903978994414388,0.28372672802236565,non_fall
0.719924,0.0843,-0.2613,0.0312,-0.0214,-0.0146,-0.0077,40.1438,10.05,16.6688,,0.005523999999999973,0.2763288258578898,0.28576143556257266,non_fall
0.738433,0.0593,-0.2606,0.0149,-0.0214,-0.0146,-0.0077,40.1438,10.05,16.6688,,0.018508999999999998,0.26767678270630796,0.28663030280984425,non_fall
0.751996,0.0593,-0.2606,0.0149,-0.0214,-0.0146,-0.0077,39.9563,9.45,16.6688,,0.013562999999999992,0.26767678270630796,0.28624652017104985,non_fall
0.758089,0.0278,-0.2597,0.0102,-0.0214,-0.0146,-0.0077,39.9563,9.45,16.6688,,0.006093000000000015,0.2613828035659576,0.28455183380919913,non_fall
0.768017,0.0278,-0.2597,0.0102,-0.0214,-0.0146,-0.0077,39.9563,9.45,16.6688,,0.009927999999999937,0.2613828035659576,0.281519232746168,non_fall
0.775953,0.0278,-0.2597,0.0102,-0.0142,-0.028,-0.0102,39.9563,9.45,16.6688,,0.007936000000000054,0.2613828035659576,0.27716125524627216,non_fall
0.776882,0.0278,-0.2513,0.0113,-0.0142,-0.028,-0.0102,39.9563,9.45,16.6688,,0.0009289999999999576,0.25308540060619855,0.27154345754812276,non_fall
0.795992,0.011,-0.274,0.0504,-0.0142,-0.028,-0.0102,39.9563,9.45,16.6688,,0.01911000000000007,0.27881384470646364,0.2648008126545715,non_fall
0.812405,0.011,-0.274,0.0504,-0.0142,-0.028,-0.0102,39.6562,9.8625,16.575,,0.01641300000000001,0.27881384470646364,0.2571531422642859,non_fall
0.815393,0.0584,-0.2894,0.0934,-0.0142,-0.028,-0.0102,39.6562,9.8625,16.575,,0.0029879999999999907,0.309655421396106,0.24891444911035246,non_fall
0.82946,0.0584,-0.2894,0.0934,-0.0142,-0.028,-0.0102,39.6562,9.8625,16.575,,0.01406699999999994,0.309655421396106,0.2404906603925666,non_fall
0.835774,0.0881,-0.2666,0.0887,-0.0142,-0.028,-0.0102,39.6562,9.8625,16.575,,0.006314000000000042,0.29445688988373153,0.23236131234863322,non_fall
0.838649,0.0881,-0.2666,0.0887,-0.0154,-0.0415,-0.0126,39.6562,9.8625,16.575,,0.002874999999999961,0.29445688988373153,0.22504340323640665,non_fall
0.853957,0.0841,-0.0021,0.0964,-0.0154,-0.0415,-0.0126,39.6562,9.8625,16.575,,0.015307999999999988,0.12794600423616206,0.21903985119994301,non_fall
0.871037,0.0841,-0.0021,0.0964,-0.0154,-0.0415,-0.0126,39.675,9.5813,16.575,,0.017079999999999984,0.12794600423616206,0.2147798387673306,non_fall
0.874257,0.0436,-0.1138,0.0574,-0.0154,-0.0415,-0.0126,39.675,9.5813,16.575,,0.0032200000000000006,0.13470768352250734,0.21256214227891929,non_fall
0.891905,0.0436,-0.1138,0.0574,-0.0154,-0.0415,-0.0126,39.675,9.5813,16.575,,0.017647999999999997,0.13470768352250734,0.2125134555036545,non_fall
0.892893,0.0704,-0.1822,-0.0494,-0.0154,-0.0415,-0.0126,39.675,9.5813,16.575,,0.0009880000000001,0.20147793923901447,0.21457092192795793,non_fall
0.900878,0.0704,-0.1822,-0.0494,-0.0166,-0.0415,-0.0151,39.675,9.5813,16.575,,0.007984999999999909,0.20147793923901447,0.21849260772354714,non_fall
0.911877,0.0547,-0.2629,0.0009,-0.0166,-0.0415,-0.0151,39.675,9.5813,16.575,,0.010999000000000092,0.26853176720827654,0.22389354600049818,non_fall
0.931034,0.0937,-0.255,0.013,-0.0166,-0.0415,-0.0151,39.675,9.5813,16.575,,0.01915699999999998,0.27198104713380306,0.23030008072488228,non_fall
0.934268,0.0937,-0.255,0.013,-0.0166,-0.0415,-0.0151,40.1625,9.5625,16.4625,,0.003233999999999959,0.27198104713380306,0.23721253001616055,non_fall
0.949867,0.096,-0.259,-0.002,-0.0166,-0.0415,-0.0151,40.1625,9.5625,16.4625,,0.01559900000000003,0.2762263564542674,0.24416588976296735,non_fall
0.953678,0.096,-0.259,-0.002,-0.0166,-0.0415,-0.0151,40.1625,9.5625,16.4625,,0.003811000000000009,0.2762263564542674,0.25077997737332414,non_fall
0.963152,0.096,-0.259,-0.002,-0.0142,-0.0525,-0.0236,40.1625,9.5625,16.4625,,0.009473999999999982,0.2762263564542674,0.2567932143055955,non_fall
0.96827,0.0716,-0.2293,0.0681,-0.0142,-0.0525,-0.0236,40.1625,9.5625,16.4625,,0.005117999999999956,0.24968512170331655,0.26207729282108083,non_fall
0.988108,0.1068,-0.2617,0.1036,-0.0142,-0.0525,-0.0236,40.1625,9.5625,16.4625,,0.019838000000000022,0.30104167485582456,0.26663269135148904,non_fall
0.991606,0.1068,-0.2617,0.1036,-0.0142,-0.0525,-0.0236,40.1625,9.675,16.35,,0.003498000000000001,0.30104167485582456,0.2705671397702999,non_fall
1.00685,0.0807,-0.2328,0.0614,-0.0142,-0.0525,-0.0236,40.1625,9.675,16.35,,0.015244000000000035,0.25392575686605723,0.274060743731044,non_fall
1.015729,0.0807,-0.2328,0.0614,-0.0142,-0.0525,-0.0236,40.1625,9.675,16.35,,0.008879000000000081,0.25392575686605723,0.2773228434549309,non_fall
1.024705,0.0807,-0.2328,0.0614,-0.0214,-0.0671,-0.0199,40.1625,9.675,16.35,,0.008975999999999873,0.25392575686605723,0.28054690664847903,non_fall
1.026106,0.0748,-0.2308,0.0122,-0.0214,-0.0671,-0.0199,40.1625,9.675,16.35,,0.0014009999999999856,0.2429249266748886,0.28387041950362607,non_fall
1.045403,0.0932,-0.2266,-0.0117,-0.0214,-0.0671,-0.0199,40.1625,9.675,16.35,,0.01929700000000012,0.24529714633480756,0.28734629471627676,non_fall
1.051022,0.0932,-0.2266,-0.0117,-0.0214,-0.0671,-0.0199,39.8438,9.9938,16.05,,0.005618999999999819,0.24529714633480756,0.29093064590118883,non_fall
1.064144,0.0822,-0.2867,0.0103,-0.0214,-0.0671,-0.0199,39.8438,9.9938,16.05,,0.013122000000000078,0.29842891951015743,0.2944891704363569,non_fall
1.077707,0.0822,-0.2867,0.0103,-0.0214,-0.0671,-0.0199,39.8438,9.9938,16.05,,0.013562999999999992,0.29842891951015743,0.297821256043151,non_fall
1.084054,0.0851,-0.3175,0.0341,-0.0214,-0.0671,-0.0199,39.8438,9.9938,16.05,,0.0063470000000001026,0.33047098208466047,0.3006978509780293,non_fall
1.087915,0.0851,-0.3175,0.0341,0.0078,-0.1001,-0.0334,39.8438,9.9938,16.05,,0.0038609999999998923,0.33047098208466047,0.3029068387088861,non_fall
1.102304,0.0714,-0.3073,0.0377,0.0078,-0.1001,-0.0334,39.8438,9.9938,16.05,,0.014388999999999985,0.3177302944322433,0.3042986889192976,non_fall
1.11409,0.0714,-0.3073,0.0377,0.0078,-0.1001,-0.0334,41.3438,9.5625,14.0438,,0.011786000000000074,0.3177302944322433,0.30482557422230927,non_fall
1.123561,0.0518,-0.2993,0.1148,0.0078,-0.1001,-0.0334,41.3438,9.5625,14.0438,,0.009471000000000007,0.324719525128995,0.3045685239710361,non_fall
1.140536,0.0518,-0.2993,0.1148,0.0078,-0.1001,-0.0334,41.3438,9.5625,14.0438,,0.016974999999999962,0.324719525128995,0.30374893725328106,non_fall
1.141553,0.0546,-0.303,0.0693,0.0078,-0.1001,-0.0334,41.3438,9.5625,14.0438,,0.0010170000000000456,0.3155830318632483,0.3027224915247228,non_fall
1.149841,0.0546,-0.303,0.0693,0.0164,-0.1625,-0.0346,41.3438,9.5625,14.0438,,0.008287999999999851,0.3155830318632483,0.3019550920114907,non_fall
1.160111,0.102,-0.2948,0.0835,0.0164,-0.1625,-0.0346,41.3438,9.5625,14.0438,,0.010270000000000001,0.32292923373395604,0.30198208915011765,non_fall
1.170438,0.102,-0.2948,0.0835,0.0164,-0.1625,-0.0346,40.425,10.275,15.9375,,0.010327000000000197,0.32292923373395604,0.3033535583237378,non_fall
1.178433,0.0938,-0.3178,0.0739,0.0164,-0.1625,-0.0346,40.425,10.275,15.9375,,0.007994999999999974,0.33949446239960973,0.30656997204205205,non_fall
1.198035,0.0932,-0.2616,0.0155,0.0164,-0.1625,-0.0346,40.425,10.275,15.9375,,0.019601999999999897,0.27813854461401066,0.31201416329230275,non_fall
1.203867,0.0932,-0.2616,0.0155,0.0164,-0.1625,-0.0346,40.425,10.275,15.9375,,0.005832000000000059,0.27813854461401066,0.31988708196157756,non_fall
1.213806,0.0932,-0.2616,0.0155,0.0506,-0.2223,-0.0444,40.425,10.275,15.9375,,0.00993899999999992,0.27813854461401066,0.33015611866504285,non_fall
1.217029,0.1174,-0.2169,-0.0328,0.0506,-0.2223,-0.0444,40.425,10.275,15.9375,,0.003222999999999976,0.24880556665798298,0.34252496110801794,non_fall
1.230764,0.1174,-0.2169,-0.0328,0.0506,-0.2223,-0.0444,40.4625,9.8625,14.5875,,0.013735000000000053,0.24880556665798298,0.3564323566867087,non_fall
1.235931,0.1971,-0.3011,0.0452,0.0506,-0.2223,-0.0444,40.4625,9.8625,14.5875,,0.005166999999999922,0.36270188860826186,0.371083533547113,non_fall
1.256361,0.2921,-0.3539,0.1033,0.0506,-0.2223,-0.0444,40.4625,9.8625,14.5875,,0.02043000000000017,0.4703599791648945,0.38551270775262936,non_fall
1.264578,0.2921,-0.3539,0.1033,0.0506,-0.2223,-0.0444,40.4625,9.8625,14.5875,,0.008216999999999919,0.4703599791648945,0.3986692421464784,non_fall
1.273957,0.2921,-0.3539,0.1033,0.0738,-0.2468,-0.0639,40.4625,9.8625,14.5875,,0.009379000000000026,0.4703599791648945,0.4095157074772203,non_fall
1.277594,0.2619,-0.3396,0.0795,0.0738,-0.2468,-0.0639,40.4625,9.8625,14.5875,,0.0036369999999998903,0.43616512928018447,0.4171252268767683,non_fall
1.290114,0.2619,-0.3396,0.0795,0.0738,-0.2468,-0.0639,40.2188,10.7438,14.7,,0.012520000000000087,0.43616512928018447,0.42076818149790646,non_fall
1.293112,0.2361,-0.2777,-0.0139,0.0738,-0.2468,-0.0639,40.2188,10.7438,14.7,,0.002998000000000056,0.3647652806943117,0.41998285715123096,non_fall
1.313232,0.185,-0.2759,-0.1192,0.0738,-0.2468,-0.0639,40.2188,10.7438,14.7,,0.020119999999999916,0.35292272525299356,0.4146287132729562,non_fall
1.326425,0.185,-0.2759,-0.1192,0.0738,-0.2468,-0.0639,40.2188,10.7438,14.7,,0.01319300000000001,0.35292272525299356,0.4049231686388038,non_fall
1.3327,0.1674,-0.279,-0.2251,0.0738,-0.2468,-0.0639,40.2188,10.7438,14.7,,0.0062750000000000306,0.3956434885095419,0.3914625386968488,non_fall
1.33597,0.1674,-0.279,-0.2251,0.0774,-0.3457,-0.0481,40.2188,10.7438,14.7,,0.003270000000000106,0.3956434885095419,0.3752253385922093,non_fall
1.350815,0.1942,-0.2681,-0.3524,0.0774,-0.3457,-0.0481,40.2188,10.7438,14.7,,0.014844999999999997,0.4835049224154807,0.3575528497142186,non_fall
1.352223,0.1942,-0.2681,-0.3524,0.0774,-0.3457,-0.0481,41.025,10.5938,13.425,,0.0014079999999998538,0.4835049224154807,0.3400995078133895,non_fall
1.370262,0.2393,-0.2978,-0.1833,0.0774,-0.3457,-0.0481,41.025,10.5938,13.425,,0.018039000000000138,0.42373130637232836,0.3247460794400646,non_fall
1.389418,0.2393,-0.2978,-0.1833,0.0774,-0.3457,-0.0481,41.025,10.5938,13.425,,0.01915599999999995,0.42373130637232836,0.3134727523852362,non_fall
1.392031,0.1372,-0.2018,0.025,0.0774,-0.3457,-0.0481,41.025,10.5938,13.425,,0.0026129999999999765,0.24529997961679492,0.30819685489935206,non_fall
1.398214,0.1372,-0.2018,0.025,0.1141,-0.4324,-0.0419,41.025,10.5938,13.425,,0.00618300000000005,0.24529997961679492,0.3105891118323867,non_fall
1.408819,-0.0675,-0.1282,-0.0503,0.1141,-0.4324,-0.0419,41.025,10.5938,13.425,,0.010604999999999976,0.15336746721518227,0.32189034816979106,non_fall
1.412022,-0.0675,-0.1282,-0.0503,0.1141,-0.4324,-0.0419,41.0063,11.25,12.5063,,0.003203000000000067,0.15336746721518227,0.3427546333484878,non_fall
1.427367,-0.1927,-0.1,-0.0901,0.1141,-0.4324,-0.0419,41.0063,11.25,12.5063,,0.015344999999999942,0.2350559507861905,0.37314335359036954,non_fall
1.447157,-0.4335,-0.1127,-0.038,0.1141,-0.4324,-0.0419,41.0063,11.25,12.5063,,0.019789999999999974,0.4495192320691074,0.4122875908105121,non_fall
1.450506,-0.4335,-0.1127,-0.038,0.1141,-0.4324,-0.0419,41.0063,11.25,12.5063,,0.0033490000000000464,0.4495192320691074,0.45872530904725695,non_fall
1.461001,-0.4335,-0.1127,-0.038,0.0456,-0.6707,0.0558,41.0063,11.25,12.5063,,0.010494999999999921,0.4495192320691074,0.5104084982542005,non_fall
1.466432,-0.5854,-0.1852,-0.0097,0.0456,-0.6707,0.0558,41.0063,11.25,12.5063,,0.005430999999999964,0.6140735216568127,0.5648667756734632,non_fall
1.470592,-0.5854,-0.1852,-0.0097,0.0456,-0.6707,0.0558,40.725,11.1188,11.3625,,0.0041599999999999415,0.6140735216568127,0.6194090544610512,non_fall
1.484713,-0.7473,-0.1427,0.0209,0.0456,-0.6707,0.0558,40.725,11.1188,11.3625,,0.01412100000000005,0.7610896070765912,0.6713427097071291,non_fall
1.504266,-0.8169,-0.0569,-0.053,0.0456,-0.6707,0.0558,40.725,11.1188,11.3625,,0.019553000000000154,0.8205926029400946,0.7181890987843598,non_fall
1.513162,-0.8169,-0.0569,-0.053,0.0456,-0.6707,0.0558,40.725,11.1188,11.3625,,0.008895999999999793,0.8205926029400946,0.7578753775370846,non_fall
1.524732,-0.8169,-0.0569,-0.053,0.1006,-0.8601,-0.0187,40.725,11.1188,11.3625,,0.01157000000000008,0.8205926029400946,0.7888857965233643,non_fall
1.527761,-0.871,-0.1269,-0.2502,0.1006,-0.8601,-0.0187,40.725,11.1188,11.3625,,0.0030289999999999484,0.9150653801778319,0.8103609236007516,non_fall
1.531564,-0.871,-0.1269,-0.2502,0.1006,-0.8601,-0.0187,41.4375,11.1562,8.85,,0.003803000000000001,0.9150653801778319,0.8221395719369793,non_fall
1.542164,-0.5991,-0.3672,-0.2148,0.1006,-0.8601,-0.0187,41.4375,11.1562,8.85,,0.010600000000000165,0.7347759454418742,0.8247446515397314,non_fall
1.560935,-0.012,-0.5939,-0.0637,0.1006,-0.8601,-0.0187,41.4375,11.1562,8.85,,0.01877099999999987,0.5974268992939639,0.8193201831094643,non_fall
1.575178,-0.012,-0.5939,-0.0637,0.1006,-0.8601,-0.0187,41.4375,11.1562,8.85,,0.014243000000000006,0.5974268992939639,0.807531172383246,non_fall
1.581231,0.658,-0.7314,0.0036,0.1006,-0.8601,-0.0187,41.4375,11.1562,8.85,,0.006053000000000086,0.9838307374746939,0.7914384438504803,non_fall
1.584348,0.658,-0.7314,0.0036,0.0518,-0.3409,-0.1385,41.4375,11.1562,8.85,,0.0031170000000000364,0.9838307374746939,0.7733553810773792,non_fall
1.590416,0.658,-0.7314,0.0036,0.0518,-0.3409,-0.1385,43.0125,11.775,5.9062,,0.006067999999999962,0.9838307374746939,0.7556858082083504,non_fall
1.601233,0.7825,-0.6766,-0.0171,0.0518,-0.3409,-0.1385,43.0125,11.775,5.9062,,0.010816999999999855,1.034594712919025,0.7407386645204876,non_fall
1.618993,0.3026,-0.4524,-0.1524,0.0518,-0.3409,-0.1385,43.0125,11.775,5.9062,,0.017759999999999998,0.5652064047761667,0.7305205676586591,non_fall
1.637321,0.3026,-0.4524,-0.1524,0.0518,-0.3409,-0.1385,43.0125,11.775,5.9062,,0.018328000000000122,0.5652064047761667,0.726520693209692,non_fall
1.638302,-0.1932,-0.2631,-0.2428,0.0518,-0.3409,-0.1385,43.0125,11.775,5.9062,,0.0009809999999998986,0.4068165311292057,0.7295172235577486,non_fall
1.64694,-0.1932,-0.2631,-0.2428,0.0799,-0.2504,-0.1251,43.0125,11.775,5.9062,,0.008638000000000146,0.4068165311292057,0.7394431589369964,non_fall
1.65035,-0.1932,-0.2631,-0.2428,0.0799,-0.2504,-0.1251,41.925,11.775,6.45,,0.003409999999999913,0.4068165311292057,0.7553464474385689,non_fall
1.656209,-0.5477,-0.2428,-0.3446,0.0799,-0.2504,-0.1251,41.925,11.775,6.45,,0.005859000000000059,0.6911412952501101,0.7754648914596941,non_fall
1.67599,-0.8285,-0.2233,-0.4902,0.0799,-0.2504,-0.1251,41.925,11.775,6.45,,0.01978100000000005,0.9882161605640742,0.7974139215044495,non_fall
1.695374,-0.8977,-0.1593,-0.5065,0.0799,-0.2504,-0.1251,41.925,11.775,6.45,,0.019383999999999846,1.042968853801493,0.8184613572932857,non_fall
1.70283,-0.8977,-0.1593,-0.5065,0.0799,-0.2504,-0.1251,41.925,11.775,6.45,,0.007456000000000129,1.042968853801493,0.8358450759004876,non_fall
1.713952,-0.8977,-0.1593,-0.5065,0.0738,-0.3689,-0.2119,41.925,11.775,6.45,,0.011121999999999854,1.042968853801493,0.8470828359570881,non_fall
1.715194,-0.8977,-0.1593,-0.5065,0.0738,-0.3689,-0.2119,42.2063,12.3938,5.8313,,0.0012420000000001874,1.042968853801493,0.8502292372362649,non_fall
1.716516,-0.8361,-0.0449,-0.4857,0.0738,-0.3689,-0.2119,42.2063,12.3938,5.8313,,0.0013219999999998233,0.9679791888258755,0.8440489812056589,non_fall
1.733324,-0.6293,-0.0255,-0.5012,0.0738,-0.3689,-0.2119,42.2063,12.3938,5.8313,,0.016808000000000156,0.8049038327651322,0.8280930233617118,non_fall
1.753045,-0.272,-0.339,-0.5374,0.0738,-0.3689,-0.2119,42.2063,12.3938,5.8313,,0.019720999999999878,0.6911611678906737,0.802681018522092,non_fall
1.762609,-0.272,-0.339,-0.5374,0.0738,-0.3689,-0.2119,42.2063,12.3938,5.8313,,0.009564000000000128,0.6911611678906737,0.7688068957229167,non_fall
1.770162,-0.272,-0.339,-0.5374,0.0738,-0.3689,-0.2119,41.4188,12.8063,4.2938,,0.007552999999999921,0.6911611678906737,0.7279921797245053,non_fall
1.771314,-0.272,-0.339,-0.5374,0.1189,-0.4276,-0.2362,41.4188,12.8063,4.2938,,0.0011520000000000419,0.6911611678906737,0.682113029012847,non_fall
1.772603,-0.1012,-0.3679,-0.4391,0.1189,-0.4276,-0.2362,41.4188,12.8063,4.2938,,0.0012889999999998736,0.5817221501713683,0.6332236501305655,non_fall
1.790383,-0.0753,-0.2333,-0.4274,0.1189,-0.4276,-0.2362,41.4188,12.8063,4.2938,,0.01778000000000013,0.4927166934456352,0.5833939355156644,non_fall
1.811183,-0.011,-0.2605,-0.3096,0.1189,-0.4276,-0.2362,41.4188,12.8063,4.2938,,0.02079999999999993,0.40476340002524935,0.5345749159268308,non_fall
1.824106,-0.011,-0.2605,-0.3096,0.1189,-0.4276,-0.2362,41.4188,12.8063,4.2938,,0.012923000000000018,0.40476340002524935,0.48850166182801724,non_fall
1.829772,0.1005,-0.3904,-0.1846,0.1189,-0.4276,-0.2362,41.4188,12.8063,4.2938,,0.005665999999999949,0.4433842238961599,0.4466381726173871,non_fall
1.832869,0.1005,-0.3904,-0.1846,0.1189,-0.4276,-0.2362,41.4,13.6688,2.9438,,0.0030970000000001274,0.4433842238961599,0.41016201297839155,non_fall
1.834909,0.1005,-0.3904,-0.1846,0.1557,-0.4606,-0.2387,41.4,13.6688,2.9438,,0.0020399999999998197,0.4433842238961599,0.379979295108229,non_fall
1.84865,0.2614,-0.4404,-0.1461,0.1557,-0.4606,-0.2387,41.4,13.6688,2.9438,,0.013741000000000003,0.5325667376019648,0.35675536924931556,non_fall
1.866721,0.2849,-0.2839,-0.1188,0.1557,-0.4606,-0.2387,41.4,13.6688,2.9438,,0.01807100000000017,0.4193812823672511,0.340945080049122,non_fall
1.88638,0.2849,-0.2839,-0.1188,0.1557,-0.4606,-0.2387,41.4,13.6688,2.9438,,0.01965899999999987,0.4193812823672511,0.33280925610702555,non_fall
1.88971,0.16,-0.1404,-0.2031,0.1557,-0.4606,-0.2387,41.4,13.6688,2.9438,,0.003330000000000055,0.29421381680675707,0.3324105744878279,non_fall
1.892422,0.16,-0.1404,-0.2031,0.1557,-0.4606,-0.2387,41.4563,14.6063,2.0063,,0.0027120000000000477,0.29421381680675707,0.3395902186225242,non_fall
1.897878,0.16,-0.1404,-0.2031,0.1079,-0.3041,-0.2839,41.4563,14.6063,2.0063,,0.005455999999999905,0.29421381680675707,0.3539341614278735,non_fall
1.905102,0.0857,-0.1569,-0.1402,0.1079,-0.3041,-0.2839,41.4563,14.6063,2.0063,,0.007224000000000119,0.22719625877201413,0.3747421543290836,non_fall
1.924404,0.0388,-0.1608,-0.3427,0.1079,-0.3041,-0.2839,41.4563,14.6063,2.0063,,0.01930199999999993,0.38053300776673765,0.4010126553160873,non_fall
1.943544,0.0939,-0.1528,-0.4506,0.1079,-0.3041,-0.2839,41.4563,14.6063,2.0063,,0.019139999999999935,0.48497980370320576,0.4314534695152581,non_fall
1.9477,0.0939,-0.1528,-0.4506,0.1079,-0.3041,-0.2839,41.4563,14.6063,2.0063,,0.0041560000000000485,0.48497980370320576,0.46452236572725014,non_fall
1.950902,0.0939,-0.1528,-0.4506,0.1079,-0.3041,-0.2839,41.0625,15.0563,1.4062,,0.003201999999999927,0.48497980370320576,0.49849668958787463,non_fall
1.95917,0.0939,-0.1528,-0.4506,0.1092,-0.1856,-0.1812,41.0625,15.0563,1.4062,,0.008268000000000164,0.48497980370320576,0.5315680064313227,non_fall
1.962889,-0.0131,-0.0821,-0.3848,0.1092,-0.1856,-0.1812,41.0625,15.0563,1.4062,,0.003719000000000028,0.39367887929123146,0.56195715309783,non_fall
1.982307,0.1037,0.0488,-0.4402,0.1092,-0.1856,-0.1812,41.0625,15.0563,1.4062,,0.019417999999999935,0.45487489488869354,0.5880447471852113,non_fall
2.001593,0.3311,0.2119,-0.6259,0.1092,-0.1856,-0.1812,41.0625,15.0563,1.4062,,0.019286000000000136,0.7391073196769194,0.6085097458306593,non_fall
2.01057,0.3311,0.2119,-0.6259,0.1092,-0.1856,-0.1812,41.0625,15.0563,1.4062,,0.00897699999999979,0.7391073196769194,0.6224632715590629,non_fall
2.011604,0.3311,0.2119,-0.6259,0.1092,-0.1856,-0.1812,41.0438,15.6938,0.675,,0.0010340000000002014,0.7391073196769194,0.6295587330555319,non_fall
2.019913,0.3311,0.2119,-0.6259,0.0641,0.0269,-0.1434,41.0438,15.6938,0.675,,0.008308999999999678,0.7391073196769194,0.6300562029228409,non_fall
2.02134,0.6167,0.2321,-0.5863,0.0641,0.0269,-0.1434,41.0438,15.6938,0.675,,0.001427000000000067,0.8820073639148371,0.6248216306204822,non_fall
2.040192,0.6882,0.2543,-0.2344,0.0641,0.0269,-0.1434,41.0438,15.6938,0.675,,0.01885199999999987,0.7702149635004504,0.6152492498145927,non_fall
2.058651,0.4965,0.2703,-0.1856,0.0641,0.0269,-0.1434,41.0438,15.6938,0.675,,0.018459000000000003,0.5949972268842939,0.6031066840905012,non_fall
2.072399,0.4965,0.2703,-0.1856,0.0641,0.0269,-0.1434,42.0188,16.0125,-0.375,,0.013748000000000093,0.5949972268842939,0.5903153537410437,non_fall
2.076128,0.4965,0.2703,-0.1856,0.0641,0.0269,-0.1434,42.0188,16.0125,-0.375,,0.0037290000000003154,0.5949972268842939,0.5786919275048505,non_fall
2.077981,0.1793,0.0695,-0.1467,0.0641,0.0269,-0.1434,42.0188,16.0125,-0.375,,0.0018529999999996605,0.24186696756688375,0.5696868541343154,non_fall
2.083106,0.1793,0.0695,-0.1467,0.0604,0.3054,-0.1079,42.0188,16.0125,-0.375,,0.005125000000000046,0.24186696756688375,0.5641610395325342,non_fall
2.096994,-0.0109,-0.2253,-0.0058,0.0604,0.3054,-0.1079,42.0188,16.0125,-0.375,,0.013888000000000122,0.22563807302846742,0.5622400180183145,non_fall
2.116589,-0.01,-0.5043,-0.086,0.0604,0.3054,-0.1079,42.0188,16.0125,-0.375,,0.019594999999999807,0.5116781117069598,0.5632751483709617,non_fall
2.131966,-0.01,-0.5043,-0.086,0.0604,0.3054,-0.1079,40.425,16.35,1.7438,,0.015376999999999974,0.5116781117069598,0.5659235722774969,non_fall
2.13605,-0.01,-0.5043,-0.086,0.0604,0.3054,-0.1079,40.425,16.35,1.7438,,0.004084000000000199,0.5116781117069598,0.5683367799045556,non_fall
2.136981,0.1622,-0.7951,-0.0451,0.0604,0.3054,-0.1079,40.425,16.35,1.7438,,0.0009310000000000151,0.8127280356921374,0.568427860827585,non_fall
2.145109,0.1622,-0.7951,-0.0451,0.0481,0.4814,-0.0311,40.425,16.35,1.7438,,0.008128000000000135,0.8127280356921374,0.5641744605460908,non_fall
2.153918,0.2301,-0.7794,0.0676,0.0481,0.4814,-0.0311,40.425,16.35,1.7438,,0.008808999999999845,0.8154631383453208,0.5539097778889102,non_fall
2.173935,0.1189,-0.5689,0.2628,0.0481,0.4814,-0.0311,40.425,16.35,1.7438,,0.020017000000000174,0.637846580299683,0.5365580049218704,non_fall
2.192366,0.1189,-0.5689,0.2628,0.0481,0.4814,-0.0311,41.0063,16.05,2.9813,,0.018430999999999642,0.637846580299683,0.511782712515757,non_fall
2.195038,-0.1202,-0.3202,0.2882,0.0481,0.4814,-0.0311,41.0063,16.05,2.9813,,0.0026720000000000077,0.4472530827171569,0.48003365983915397,non_fall
2.197641,-0.1202,-0.3202,0.2882,0.0481,0.4814,-0.0311,41.0063,16.05,2.9813,,0.002603000000000133,0.4472530827171569,0.44249449499910687,non_fall
2.205523,-0.1202,-0.3202,0.2882,0.0896,0.3886,0.0704,41.0063,16.05,2.9813,,0.007881999999999945,0.4472530827171569,0.4009469819556029,non_fall
2.212647,-0.2344,-0.0915,0.1281,0.0896,0.3886,0.0704,41.0063,16.05,2.9813,,0.00712400000000013,0.282356547648536,0.35757548744957474,non_fall
2.231736,-0.1695,-0.0383,-0.0093,0.0896,0.3886,0.0704,41.0063,16.05,2.9813,,0.019089000000000134,0.17402192390615615,0.3147393106406264,non_fall
2.249907,-0.09,-0.118,0.0509,0.0896,0.3886,0.0704,41.0063,16.05,2.9813,,0.018170999999999715,0.15689107686544826,0.27474127587093494,non_fall
2.253231,-0.09,-0.118,0.0509,0.0896,0.3886,0.0704,40.125,15.9188,4.1438,,0.0033240000000001046,0.15689107686544826,0.2396190498984572,non_fall
2.259271,-0.09,-0.118,0.0509,0.0896,0.3886,0.0704,40.125,15.9188,4.1438,,0.006040000000000045,0.15689107686544826,0.21098043399762872,non_fall
2.267888,-0.09,-0.118,0.0509,0.0016,0.4019,0.0887,40.125,15.9188,4.1438,,0.008617000000000097,0.15689107686544826,0.18989596269664866,non_fall
2.268874,0.0099,-0.1386,0.0333,0.0016,0.4019,0.0887,40.125,15.9188,4.1438,,0.0009859999999997093,0.14288757818648898,0.17685344855361926,non_fall
2.288407,0.0904,-0.0928,-0.126,0.0016,0.4019,0.0887,40.125,15.9188,4.1438,,0.019533000000000023,0.18072077910411963,0.17177156578552616,non_fall
2.307327,0.0611,-0.1428,-0.1,0.0016,0.4019,0.0887,40.125,15.9188,4.1438,,0.018920000000000048,0.1847296673520526,0.1740639734538613,non_fall
2.31402,0.0611,-0.1428,-0.1,0.0016,0.4019,0.0887,40.9313,15.0563,5.0438,,0.006693000000000282,0.1847296673520526,0.18274179415153416,non_fall
2.321268,0.0611,-0.1428,-0.1,0.0016,0.4019,0.0887,40.9313,15.0563,5.0438,,0.007247999999999699,0.1847296673520526,0.19654021989531253,non_fall
2.327327,0.0012,-0.1995,-0.2606,0.0016,0.4019,0.0887,40.9313,15.0563,5.0438,,0.006059000000000037,0.328198187076041,0.2140542864364879,non_fall
2.330222,0.0012,-0.1995,-0.2606,0.0616,0.4264,0.0619,40.9313,15.0563,5.0438,,0.002895000000000092,0.328198187076041,0.23386913138825344,non_fall
2.345017,0.0644,-0.2635,-0.1913,0.0616,0.4264,0.0619,40.9313,15.0563,5.0438,,0.014794999999999892,0.33192664852343506,0.25467149951693685,non_fall
2.364376,0.1122,-0.2586,-0.056,0.0616,0.4264,0.0619,40.9313,15.0563,5.0438,,0.019359000000000126,0.287400069589414,0.2753325788075236,non_fall
2.371117,0.1122,-0.2586,-0.056,0.0616,0.4264,0.0619,40.7063,15.5063,5.775,,0.006740999999999886,0.287400069589414,0.2949576199837825,non_fall
2.384166,0.1122,-0.2586,-0.056,0.0616,0.4264,0.0619,40.7063,15.5063,5.775,,0.013049000000000088,0.287400069589414,0.31290396803585413,non_fall
2.386654,0.201,-0.1971,0.0226,0.0616,0.4264,0.0619,40.7063,15.5063,5.775,,0.0024880000000000457,0.28241843070168066,0.3287741437622462,non_fall
2.392098,0.201,-0.1971,0.0226,0.0579,0.4411,-0.0188,40.7063,15.5063,5.775,,0.005443999999999782,0.28241843070168066,0.34239316870471037,non_fall
2.402436,0.2715,-0.0527,-0.0549,0.0579,0.4411,-0.0188,40.7063,15.5063,5.775,,0.010337999999999958,0.28196373880341424,0.3537792914066925,non_fall
2.423298,0.3721,-0.0263,-0.0826,0.0579,0.4411,-0.0188,40.7063,15.5063,5.775,,0.020862000000000158,0.38206394752711226,0.363115131107508,non_fall
2.431033,0.3721,-0.0263,-0.0826,0.0579,0.4411,-0.0188,40.2938,15.5625,6.7313,,0.0077350000000002694,0.38206394752711226,0.3707227082759541,non_fall
2.441809,0.3729,-0.065,-0.1668,0.0579,0.4411,-0.0188,40.2938,15.5625,6.7313,,0.010775999999999897,0.41364435207071304,0.3770419259811316,non_fall
2.44558,0.3729,-0.065,-0.1668,0.0579,0.4411,-0.0188,40.2938,15.5625,6.7313,,0.003770999999999969,0.41364435207071304,0.3826091361995811,non_fall
2.457601,0.3729,-0.065,-0.1668,-0.0069,0.4019,-0.0103,40.2938,15.5625,6.7313,,0.012020999999999837,0.41364435207071304,0.38803141057001855,non_fall
2.460346,0.2652,0.0105,-0.3333,-0.0069,0.4019,-0.0103,40.2938,15.5625,6.7313,,0.0027449999999999974,0.4260635868036601,0.3939530197854781,non_fall
2.478883,0.1611,0.0324,-0.3825,-0.0069,0.4019,-0.0103,40.2938,15.5625,6.7313,,0.018537000000000248,0.4163042397093741,0.4010127074193174,non_fall
2.491324,0.1611,0.0324,-0.3825,-0.0069,0.4019,-0.0103,40.3125,15.2063,7.875,,0.012440999999999924,0.4163042397093741,0.40979287660117186,non_fall
2.502851,0.0621,0.1188,-0.3756,-0.0069,0.4019,-0.0103,40.3125,15.2063,7.875,,0.011527000000000065,0.39880472665202954,0.4207642834001457,non_fall
2.507945,0.0621,0.1188,-0.3756,-0.0069,0.4019,-0.0103,40.3125,15.2063,7.875,,0.00509399999999971,0.39880472665202954,0.4342318630607022,non_fall
2.516881,0.0621,0.1188,-0.3756,-0.0936,0.3629,0.0227,40.3125,15.2063,7.875,,0.008936000000000277,0.39880472665202954,0.4502884902150836,non_fall
2.518591,0.0872,0.1214,-0.3866,-0.0936,0.3629,0.0227,40.3125,15.2063,7.875,,0.0017099999999996562,0.4144892760977056,0.46878338811479375,non_fall
2.536768,0.2834,0.0877,-0.42,-0.0936,0.3629,0.0227,40.3125,15.2063,7.875,,0.01817700000000011,0.5142050660971749,0.48931036528660643,non_fall
2.552789,0.2834,0.0877,-0.42,-0.0936,0.3629,0.0227,41.4,14.9063,7.3125,,0.016021000000000285,0.5142050660971749,0.511218349354798,non_fall
2.556079,0.3094,0.041,-0.4296,-0.0936,0.3629,0.0227,41.4,14.9063,7.3125,,0.003289999999999793,0.5310042561034704,0.5336436631906537,non_fall
2.569319,0.3094,0.041,-0.4296,-0.0936,0.3629,0.0227,41.4,14.9063,7.3125,,0.01324000000000014,0.5310042561034704,0.5555611951991616,non_fall
2.574768,0.3264,0.034,-0.4675,-0.0936,0.3629,0.0227,41.4,14.9063,7.3125,,0.005449000000000037,0.5711822913921615,0.5758504881309912,non_fall
2.57854,0.3264,0.034,-0.4675,-0.1572,0.4044,-0.0029,41.4,14.9063,7.3125,,0.0037719999999996645,0.5711822913921615,0.593372320453537,non_fall
2.594856,0.2802,0.098,-0.5484,-0.1572,0.4044,-0.0029,41.4,14.9063,7.3125,,0.01631600000000022,0.623585278851257,0.6070508274734392,non_fall
2.610726,0.2802,0.098,-0.5484,-0.1572,0.4044,-0.0029,40.0125,14.5875,10.05,,0.01587000000000005,0.623585278851257,0.6159553578519339,non_fall
2.615704,0.1424,0.238,-0.5843,-0.1572,0.4044,-0.0029,40.0125,14.5875,10.05,,0.004977999999999927,0.6467830007042548,0.6193753963097057,non_fall
2.631886,0.1424,0.238,-0.5843,-0.1572,0.4044,-0.0029,40.0125,14.5875,10.05,,0.01618200000000014,0.6467830007042548,0.6168814785896872,non_fall
2.632811,-0.0635,0.4423,-0.5082,-0.1572,0.4044,-0.0029,40.0125,14.5875,10.05,,0.0009249999999996206,0.6767043519883702,0.6083654135568806,non_fall
2.640806,-0.0635,0.4423,-0.5082,-0.2427,0.2639,0.0032,40.0125,14.5875,10.05,,0.007995000000000196,0.6767043519883702,0.5940544784999998,non_fall
2.651844,-0.1745,0.4837,-0.2758,-0.2427,0.2639,0.0032,40.0125,14.5875,10.05,,0.011038000000000103,0.5835079948038415,0.5744967158584997,non_fall
2.670083,-0.3022,0.4027,-0.194,-0.2427,0.2639,0.0032,40.0125,14.5875,10.05,,0.018238999999999894,0.5395629064344584,0.5505180909008879,non_fall
2.67183,-0.3022,0.4027,-0.194,-0.2427,0.2639,0.0032,40.1063,14.4563,10.7812,,0.001746999999999943,0.5395629064344584,0.5231566016618397,non_fall
2.690173,-0.2294,0.1459,-0.2792,-0.2427,0.2639,0.0032,40.1063,14.4563,10.7812,,0.01834300000000022,0.3896970746618455,0.49358233121096473,non_fall
2.69305,-0.2294,0.1459,-0.2792,-0.2427,0.2639,0.0032,40.1063,14.4563,10.7812,,0.0028769999999997964,0.3896970746618455,0.46301471424562257,non_fall
2.702773,-0.2294,0.1459,-0.2792,-0.3355,0.2016,-0.0371,40.1063,14.4563,10.7812,,0.009723000000000148,0.3896970746618455,0.4326482932373084,non_fall
2.709134,0.1029,-0.0657,-0.2674,-0.3355,0.2016,-0.0371,40.1063,14.4563,10.7812,,0.006361000000000061,0.2939517987697983,0.4035958050443098,non_fall
2.729156,0.2679,-0.0068,-0.3119,-0.3355,0.2016,-0.0371,40.1063,14.4563,10.7812,,0.020021999999999984,0.4112155882259329,0.3768529126600881,non_fall
2.732701,0.2679,-0.0068,-0.3119,-0.3355,0.2016,-0.0371,39.4313,14.1,11.9438,,0.0035449999999999093,0.4112155882259329,0.3532832779472088,non_fall
2.746801,0.2721,0.2161,-0.2183,-0.3355,0.2016,-0.0371,39.4313,14.1,11.9438,,0.014100000000000001,0.41035656446558766,0.3336174718629892,non_fall
2.75617,0.2721,0.2161,-0.2183,-0.3355,0.2016,-0.0371,39.4313,14.1,11.9438,,0.00936899999999996,0.41035656446558766,0.3184561088955877,non_fall
2.765679,0.2721,0.2161,-0.2183,-0.3343,-0.006,-0.0543,39.4313,14.1,11.9438,,0.00950899999999999,0.41035656446558766,0.30826780788297964,backward_fall
2.766887,0.1445,0.2458,-0.0936,-0.3343,-0.006,-0.0543,39.4313,14.1,11.9438,,0.0012080000000000979,0.30009806730467287,0.30337622079978827,backward_fall
2.785315,0.1041,0.1307,-0.0638,-0.3343,-0.006,-0.0543,39.4313,14.1,11.9438,,0.01842800000000011,0.17885675832911654,0.3039362760421965,backward_fall
2.792306,0.1041,0.1307,-0.0638,-0.3343,-0.006,-0.0543,39.1313,14.0813,12.5813,,0.006990999999999747,0.17885675832911654,0.30990586638272405,backward_fall
2.804817,0.2898,-0.14,-0.1645,-0.3343,-0.006,-0.0543,39.1313,14.0813,12.5813,,0.012510999999999939,0.36144749272888865,0.32102287576120175,backward_fall
2.818056,0.2898,-0.14,-0.1645,-0.3343,-0.006,-0.0543,39.1313,14.0813,12.5813,,0.013239,0.36144749272888865,0.3367968693035242,backward_fall
2.823709,0.3248,0.017,0.0048,-0.3343,-0.006,-0.0543,39.1313,14.0813,12.5813,,0.00565300000000013,0.32528000245941957,0.35652072637157295,backward_fall
2.827736,0.3248,0.017,0.0048,-0.3025,0.0257,-0.0751,39.1313,14.0813,12.5813,,0.004026999999999781,0.32528000245941957,0.37930295068182274,backward_fall
2.84293,0.3118,0.2257,-0.144,-0.3025,0.0257,-0.0751,39.1313,14.0813,12.5813,,0.015194000000000152,0.41096925675772883,0.40411858238377496,backward_fall
2.850998,0.3118,0.2257,-0.144,-0.3025,0.0257,-0.0751,39.825,13.9688,12.45,,0.008068000000000186,0.41096925675772883,0.429875238611385,backward_fall
2.861662,0.2475,0.2952,-0.3491,-0.3025,0.0257,-0.0751,39.825,13.9688,12.45,,0.010663999999999785,0.5198750811493085,0.45548946137645424,backward_fall
2.880697,0.2475,0.2952,-0.3491,-0.3025,0.0257,-0.0751,39.825,13.9688,12.45,,0.019035000000000135,0.5198750811493085,0.4799670356125384,backward_fall
2.883312,0.2863,0.2451,-0.31,-0.3025,0.0257,-0.0751,39.825,13.9688,12.45,,0.002615000000000034,0.487997643436933,0.5024801770068009,backward_fall
2.890401,0.2863,0.2451,-0.31,-0.2695,0.0538,-0.0433,39.825,13.9688,12.45,,0.007089000000000123,0.487997643436933,0.5224351669630796,backward_fall
2.902265,0.4275,0.2628,-0.1324,-0.2695,0.0538,-0.0433,39.825,13.9688,12.45,,0.011863999999999653,0.5189892580776599,0.539525696432604,backward_fall
2.910039,0.4275,0.2628,-0.1324,-0.2695,0.0538,-0.0433,39.225,13.9313,13.2938,,0.007773999999999948,0.5189892580776599,0.5537685737338776,backward_fall
2.919494,0.4186,0.4819,0.0818,-0.2695,0.0538,-0.0433,39.225,13.9313,13.2938,,0.009454999999999991,0.6435408378650107,0.5655185143319219,backward_fall
2.938585,0.3025,0.6404,0.1405,-0.2695,0.0538,-0.0433,39.225,13.9313,13.2938,,0.01909099999999997,0.7220517017499508,0.5754576715749172,backward_fall
2.943804,0.3025,0.6404,0.1405,-0.2695,0.0538,-0.0433,39.225,13.9313,13.2938,,0.005219000000000307,0.7220517017499508,0.5845549091147787,backward_fall
2.951687,0.3025,0.6404,0.1405,-0.1779,0.1613,-0.0421,39.225,13.9313,13.2938,,0.007883000000000084,0.7220517017499508,0.5939916314387049,backward_fall
2.9569,0.0495,0.4247,-0.1742,-0.1779,0.1613,-0.0421,39.225,13.9313,13.2938,,0.005212999999999912,0.46169901451053585,0.6050565640164302,backward_fall
2.971351,0.0495,0.4247,-0.1742,-0.1779,0.1613,-0.0421,39.4313,13.575,14.1188,,0.01445099999999977,0.46169901451053585,0.6190202571319293,backward_fall
2.97627,-0.0548,0.2501,-0.4497,-0.1779,0.1613,-0.0421,39.4313,13.575,14.1188,,0.004919000000000118,0.5174776710158613,0.6370077760790012,backward_fall
2.995635,-0.0702,0.4945,-0.2576,-0.1779,0.1613,-0.0421,39.4313,13.575,14.1188,,0.019365000000000077,0.5619751329018038,0.6598908552167205,backward_fall
3.004595,-0.0702,0.4945,-0.2576,-0.1779,0.1613,-0.0421,39.4313,13.575,14.1188,,0.008960000000000079,0.5619751329018038,0.6882169205348868,backward_fall
3.015266,-0.0702,0.4945,-0.2576,-0.1925,0.028,0.0117,39.4313,13.575,14.1188,,0.010670999999999875,0.5619751329018038,0.722183511395487,backward_fall
3.01895,-0.154,0.8754,-0.3224,-0.1925,0.028,0.0117,39.4313,13.575,14.1188,,0.0036839999999997985,0.9455067001349065,0.7616558515423216,backward_fall
3.030278,-0.154,0.8754,-0.3224,-0.1925,0.028,0.0117,39.3375,13.275,14.4375,,0.011328000000000227,0.9455067001349065,0.806214978109335,backward_fall
3.034511,-0.3589,1.2248,-0.308,-0.1925,0.028,0.0117,39.3375,13.275,14.4375,,0.004233000000000153,1.31293878379763,0.8552162125414356,backward_fall
3.053284,-0.1149,0.9883,-0.3696,-0.1925,0.028,0.0117,39.3375,13.275,14.4375,,0.01877299999999993,1.0613873279816375,0.9078362810049014,backward_fall
3.067597,-0.1149,0.9883,-0.3696,-0.1925,0.028,0.0117,39.3375,13.275,14.4375,,0.01431300000000002,1.0613873279816375,0.9630950462811237,backward_fall
3.072663,0.3683,0.5359,-0.2998,-0.1925,0.028,0.0117,39.3375,13.275,14.4375,,0.005065999999999793,0.716040320093778,1.0198538585813162,backward_fall
3.076628,0.3683,0.5359,-0.2998,-0.1962,0.1356,0.041,39.3375,13.275,14.4375,,0.003964999999999996,0.716040320093778,1.0768111794465265,backward_fall
3.090814,0.3683,0.5359,-0.2998,-0.1962,0.1356,0.041,38.8688,12.9563,14.9625,,0.014186000000000032,0.716040320093778,1.1325287522805358,backward_fall
3.094226,0.6148,0.524,-0.3238,-0.1962,0.1356,0.041,38.8688,12.9563,14.9625,,0.0034119999999999706,0.8702881591748793,1.1855211751625467,backward_fall
3.110468,0.4882,1.0761,-0.2496,-0.1962,0.1356,0.041,38.8688,12.9563,14.9625,,0.01624200000000009,1.2077378068107332,1.2344266843877671,backward_fall
3.130053,0.4882,1.0761,-0.2496,-0.1962,0.1356,0.041,38.8688,12.9563,14.9625,,0.019585000000000186,1.2077378068107332,1.2782518294130627,backward_fall
3.130989,-0.0226,1.6611,-0.1746,-0.1962,0.1356,0.041,38.8688,12.9563,14.9625,,0.0009359999999998259,1.6704038822991283,1.3166557067759466,backward_fall
3.138445,-0.0226,1.6611,-0.1746,-0.2097,-0.0465,0.019,38.8688,12.9563,14.9625,,0.007455999999999907,1.6704038822991283,1.3502186274881645,backward_fall
3.149062,-0.711,1.8216,-0.3036,-0.2097,-0.0465,0.019,38.8688,12.9563,14.9625,,0.010616999999999877,1.9788684948727644,1.380631059880765,backward_fall
3.152664,-0.711,1.8216,-0.3036,-0.2097,-0.0465,0.019,39.2625,12.75,15.0563,,0.003602000000000327,1.9788684948727644,1.41074411837608,backward_fall
3.168194,-0.7138,1.3754,-0.7353,-0.2097,-0.0465,0.019,39.2625,12.75,15.0563,,0.015530000000000044,1.71519727436817,1.4444431190185614,backward_fall
3.187394,-0.0964,1.0039,-0.7734,-0.2097,-0.0465,0.019,39.2625,12.75,15.0563,,0.019199999999999662,1.270927114353927,1.486338294676881,backward_fall
3.191167,-0.0964,1.0039,-0.7734,-0.2097,-0.0465,0.019,39.2625,12.75,15.0563,,0.0037730000000002484,1.270927114353927,1.5413048582074713,backward_fall
3.202156,-0.0964,1.0039,-0.7734,-0.2622,0.0025,0.0899,39.2625,12.75,15.0563,,0.010988999999999916,1.270927114353927,1.6139373671453114,backward_fall
3.206317,0.5409,1.0935,-0.4923,-0.2622,0.0025,0.0899,39.2625,12.75,15.0563,,0.004160999999999859,1.3155509682258608,1.7080003890980557,backward_fall
3.213113,0.5409,1.0935,-0.4923,-0.2622,0.0025,0.0899,39.3,11.7188,15.4688,,0.006796000000000024,1.3155509682258608,1.825954856928704,backward_fall
3.225176,0.7512,1.4881,-0.3706,-0.2622,0.0025,0.0899,39.3,11.7188,15.4688,,0.012062999999999935,1.7076555302519298,1.968620617951065,backward_fall
3.246374,0.493,2.4457,-0.1503,-0.2622,0.0025,0.0899,39.3,11.7188,15.4688,,0.02119800000000005,2.499417448126663,2.135006913727338,backward_fall
3.253519,0.493,2.4457,-0.1503,-0.2622,0.0025,0.0899,39.3,11.7188,15.4688,,0.007144999999999957,2.499417448126663,2.3223108771940923,backward_fall
3.262352,0.493,2.4457,-0.1503,-0.25,-0.149,-0.0469,39.3,11.7188,15.4688,,0.00883300000000009,2.499417448126663,2.52605813154087,backward_fall
3.263209,0.2644,2.9556,-0.3156,-0.25,-0.149,-0.0469,39.3,11.7188,15.4688,,0.0008569999999998856,2.984138415020322,2.740346895143458,backward_fall
3.269896,0.2644,2.9556,-0.3156,-0.25,-0.149,-0.0469,39.225,11.325,15.4688,,0.006687000000000332,2.984138415020322,2.9581585235931493,backward_fall
3.282309,-0.6714,3.4105,-0.722,-0.25,-0.149,-0.0469,39.225,11.325,15.4688,,0.012413000000000007,3.550151012281027,3.1717070550808226,backward_fall
3.30188,-0.9455,3.0321,-1.2153,-0.25,-0.149,-0.0469,39.225,11.325,15.4688,,0.019571000000000005,3.4006697502109784,3.3728121604815557,backward_fall
3.315906,-0.9455,3.0321,-1.2153,-0.25,-0.149,-0.0469,39.225,11.325,15.4688,,0.014025999999999872,3.4006697502109784,3.553292526606499,backward_fall
3.321326,-0.7163,2.7094,-1.0809,-0.25,-0.149,-0.0469,39.225,11.325,15.4688,,0.00541999999999998,3.0037108482675228,3.7053897745532915,backward_fall
3.325003,-0.7163,2.7094,-1.0809,-0.5126,-0.441,0.085,39.225,11.325,15.4688,,0.0036770000000001524,3.0037108482675228,3.822242166940983,backward_fall
3.331018,-0.7163,2.7094,-1.0809,-0.5126,-0.441,0.085,39.9375,10.5188,15.3375,,0.0060149999999996595,3.0037108482675228,3.8984238377842964,backward_fall
3.34007,-0.3659,3.9108,-0.4091,-0.5126,-0.441,0.085,39.9375,10.5188,15.3375,,0.00905200000000006,3.9491267718319705,3.930541165063282,backward_fall
3.359353,0.3536,4.7953,0.815,-0.5126,-0.441,0.085,39.9375,10.5188,15.3375,,0.01928300000000016,4.876900660255445,3.917833699135738,backward_fall
3.37843,0.3536,4.7953,0.815,-0.5126,-0.441,0.085,39.9375,10.5188,15.3375,,0.01907699999999979,4.876900660255445,3.862676577898055,backward_fall
3.381489,-0.0964,4.3863,1.2833,-0.5126,-0.441,0.085,39.9375,10.5188,15.3375,,0.003059000000000367,4.571190166685259,3.7708482797421956,backward_fall
3.387566,-0.0964,4.3863,1.2833,-0.0667,-0.887,-0.2864,39.9375,10.5188,15.3375,,0.006076999999999888,4.571190166685259,3.6514318356197633,backward_fall
3.390197,-0.0964,4.3863,1.2833,-0.0667,-0.887,-0.2864,40.125,10.7438,14.9063,,0.00263100000000005,4.571190166685259,3.5162617854759475,backward_fall
3.396964,-1.0117,3.3162,-0.2568,-0.0667,-0.887,-0.2864,40.125,10.7438,14.9063,,0.0067669999999999675,3.4765882082869695,3.3788993863198558,backward_fall
3.417517,-1.4846,2.9077,-0.5667,-0.0667,-0.887,-0.2864,40.125,10.7438,14.9063,,0.020553000000000043,3.313594021602526,3.25319754782688,backward_fall
3.43532,-0.6463,2.3859,0.4175,-0.0667,-0.887,-0.2864,40.125,10.7438,14.9063,,0.01780299999999979,2.5068962383792432,3.151590978566789,backward_fall
3.43893,-0.6463,2.3859,0.4175,-0.0667,-0.887,-0.2864,40.125,10.7438,14.9063,,0.003610000000000113,2.5068962383792432,3.083303624092091,backward_fall
3.448939,-0.6463,2.3859,0.4175,-0.7472,-0.8515,-0.4855,40.125,10.7438,14.9063,,0.010009000000000157,2.5068962383792432,3.0526938227152662,backward_fall
3.450532,-0.6463,2.3859,0.4175,-0.7472,-0.8515,-0.4855,40.4438,10.4438,13.125,,0.0015929999999997335,2.5068962383792432,3.057954112598063,backward_fall
3.454199,-0.4553,2.2553,1.275,-0.7472,-0.8515,-0.4855,40.4438,10.4438,13.125,,0.003667000000000087,2.630456458487766,3.090353269477133,backward_fall
3.474327,-0.2513,1.8891,1.5413,-0.7472,-0.8515,-0.4855,40.4438,10.4438,13.125,,0.020128000000000146,2.451011258644072,3.1341640662897823,backward_fall
3.493612,-0.5393,1.9522,0.9339,-0.7472,-0.8515,-0.4855,40.4438,10.4438,13.125,,0.019284999999999997,2.2302687147516553,3.167370860269618,backward_fall
3.503218,-0.5393,1.9522,0.9339,-0.7472,-0.8515,-0.4855,40.4438,10.4438,13.125,,0.009605999999999781,2.2302687147516553,3.1631997269754564,backward_fall
3.510455,-0.5393,1.9522,0.9339,-0.7472,-0.8515,-0.4855,40.725,11.1938,11.9813,,0.007236999999999938,2.2302687147516553,3.092457924265164,backward_fall
3.514497,-0.5393,1.9522,0.9339,-0.5383,-0.8356,-0.62,40.725,11.1938,11.9813,,0.004042000000000101,2.2302687147516553,2.926605046498206,backward_fall
3.517369,-0.0224,1.6092,1.0234,-0.5383,-0.8356,-0.62,40.725,11.1938,11.9813,,0.0028719999999999857,1.9071900691855546,2.6414051397010683,backward_fall
3.530873,-0.0456,1.3167,0.9556,-0.5383,-0.8356,-0.62,40.725,11.1938,11.9813,,0.013504000000000183,1.6275594029097677,2.220932020335319,backward_fall
3.550193,0.1132,1.6167,-0.3471,-0.5383,-0.8356,-0.62,40.725,11.1938,11.9813,,0.019320000000000004,1.6574110956549073,1.6616252735043908,backward_fall
3.564271,0.1132,1.6167,-0.3471,-0.5383,-0.8356,-0.62,40.725,11.1938,11.9813,,0.014078000000000035,1.6574110956549073,0.9760270261502556,backward_fall
3.569387,-0.0955,0.778,-0.9532,-0.5383,-0.8356,-0.62,40.725,11.1938,11.9813,,0.005115999999999676,1.234096629117834,0.19577602257925408,backward_fall
3.573415,-0.0955,0.778,-0.9532,-0.5383,-0.8356,-0.62,40.3125,11.8313,11.2688,,0.0040279999999999205,1.234096629117834,-0.6265934271476779,backward_fall
3.575676,-0.0955,0.778,-0.9532,0.5233,0.0318,-0.5075,40.3125,11.8313,11.2688,,0.0022610000000002906,1.234096629117834,-1.417491382030791,backward_fall
3.587988,-0.6825,-0.1512,0.3757,0.5233,0.0318,-0.5075,40.3125,11.8313,11.2688,,0.0123120000000001,0.7936108492201955,-2.0841381207236243,backward_fall
3.607856,-0.7966,-0.0376,1.2036,0.5233,0.0318,-0.5075,40.3125,11.8313,11.2688,,0.019867999999999775,1.4438276489941588,-2.518731837998009,backward_fall
3.632464,-0.7966,-0.0376,1.2036,0.5233,0.0318,-0.5075,40.3125,11.8313,11.2688,,0.024608000000000185,1.4438276489941588,-2.6050254398418304,backward_fall
3.634108,0.1633,-0.8543,0.5943,0.5233,0.0318,-0.5075,40.3125,11.8313,11.2688,,0.0016439999999997568,1.0534172345277062,-2.2271936334451254,backward_fall
3.635382,0.1633,-0.8543,0.5943,0.5233,0.0318,-0.5075,39.7875,12.9,10.4625,,0.0012739999999999974,1.0534172345277062,-1.2805943966903701,backward_fall
3.636585,0.1633,-0.8543,0.5943,2.0725,0.127,-0.1106,39.7875,12.9,10.4625,,0.0012030000000002872,1.0534172345277062,0.31628104219417735,backward_fall
3.647404,0.6181,-1.3301,0.4979,2.0725,0.127,-0.1106,39.7875,12.9,10.4625,,0.01081899999999969,1.5489086577329212,2.6096841693972443,backward_fall
3.664092,0.0944,-2.8184,1.2313,2.0725,0.127,-0.1106,39.7875,12.9,10.4625,,0.016688000000000258,3.0770748463435207,5.5995878090788676,backward_fall
3.685041,-0.9239,-1.9961,3.0607,2.0725,0.127,-0.1106,39.7875,12.9,10.4625,,0.020948999999999884,3.7690702978320796,9.231216128925547,backward_fall
3.689176,-0.9239,-1.9961,3.0607,2.0725,0.127,-0.1106,39.7875,12.9,10.4625,,0.004134999999999778,3.7690702978320796,13.39062022715441,backward_fall
3.69133,-0.9239,-1.9961,3.0607,2.0725,0.127,-0.1106,39.9563,13.9688,8.7,,0.0021539999999999893,3.7690702978320796,17.905678117184095,backward_fall
3.699689,-0.9239,-1.9961,3.0607,5.3577,0.8381,0.1852,39.9563,13.9688,8.7,,0.008359000000000005,3.7690702978320796,22.553575868724025,backward_fall
3.702965,-1.8396,-0.7052,2.9284,5.3577,0.8381,0.1852,39.9563,13.9688,8.7,,0.0032760000000000566,3.529442131555637,27.07523532020329,backward_fall
3.722398,-0.0155,-11.9241,1.8753,5.3577,0.8381,0.1852,39.9563,13.9688,8.7,,0.019433000000000256,12.070673185452415,31.196230079012132,backward_fall
3.741363,17.3334,-66.7954,-2.0815,5.3577,0.8381,0.1852,39.9563,13.9688,8.7,,0.01896500000000012,69.03915453545184,34.6524682613253,backward_fall
3.749612,17.3334,-66.7954,-2.0815,5.3577,0.8381,0.1852,39.9563,13.9688,8.7,,0.008248999999999729,69.03915453545184,37.21750088734696,backward_fall
3.751014,17.3334,-66.7954,-2.0815,5.3577,0.8381,0.1852,40.5563,14.5313,5.775,,0.0014020000000001254,69.03915453545184,38.72724136212895,backward_fall
3.759828,17.3334,-66.7954,-2.0815,9.2793,1.0971,0.4124,40.5563,14.5313,5.775,,0.0088140000000001,69.03915453545184,39.09780389039231,backward_fall
3.761501,10.8145,-37.0791,8.0954,9.2793,1.0971,0.4124,40.5563,14.5313,5.775,,0.0016729999999998135,39.46325592522745,38.33337878349345,backward_fall
3.779819,-0.5007,-16.3678,-6.6965,9.2793,1.0971,0.4124,40.5563,14.5313,5.775,,0.018317999999999834,17.691768978256526,36.523185664382744,backward_fall
3.800552,-0.0592,14.1021,-19.6346,9.2793,1.0971,0.4124,40.5563,14.5313,5.775,,0.020733000000000334,24.174164850310756,33.82877649546111,backward_fall
3.810487,-0.0592,14.1021,-19.6346,9.2793,1.0971,0.4124,40.7438,14.1563,-1.8188,,0.009935000000000027,24.174164850310756,30.464531325590876,backward_fall
3.812294,-0.0592,14.1021,-19.6346,9.2793,1.0971,0.4124,40.7438,14.1563,-1.8188,,0.001806999999999892,24.174164850310756,26.674731734846834,backward_fall
3.818577,-2.1177,14.4276,-3.54,9.2793,1.0971,0.4124,40.7438,14.1563,-1.8188,,0.0062829999999998165,15.005728741050866,22.71027983293811,backward_fall
3.825858,-2.1177,14.4276,-3.54,0.6969,-0.0806,-0.1911,40.7438,14.1563,-1.8188,,0.007281000000000315,15.005728741050866,18.80744523890177,backward_fall
3.83755,-3.1729,-0.2941,-0.0526,0.6969,-0.0806,-0.1911,40.7438,14.1563,-1.8188,,0.011691999999999592,3.1869352017259462,15.170354628521615,backward_fall
3.857146,-0.8252,-1.3944,-7.303,0.6969,-0.0806,-0.1911,40.7438,14.1563,-1.8188,,0.01959600000000039,7.480582557528525,11.958371459285903,backward_fall
3.872007,-0.8252,-1.3944,-7.303,0.6969,-0.0806,-0.1911,40.9125,12.825,-2.7563,,0.014860999999999791,7.480582557528525,9.27896359955477,backward_fall
3.875687,-0.8252,-1.3944,-7.303,0.6969,-0.0806,-0.1911,40.9125,12.825,-2.7563,,0.0036800000000001276,7.480582557528525,7.186070761003982,backward_fall
3.87765,5.0367,-2.7995,-4.2502,0.6969,-0.0806,-0.1911,40.9125,12.825,-2.7563,,0.001962999999999937,7.1602896016851165,5.683414640903043,backward_fall
3.883724,5.0367,-2.7995,-4.2502,3.5764,0.3751,-0.2559,40.9125,12.825,-2.7563,,0.006073999999999913,7.1602896016851165,4.7317536155487,backward_fall
3.89448,2.764,0.3146,-3.1987,3.5764,0.3751,-0.2559,40.9125,12.825,-2.7563,,0.01075600000000021,4.239145061212225,4.258843129816055,backward_fall
3.913889,-2.6738,6.6432,2.163,3.5764,0.3751,-0.2559,40.9125,12.825,-2.7563,,0.01940900000000001,7.480633775289364,4.170808824851034,backward_fall
3.930535,-2.6738,6.6432,2.163,3.5764,0.3751,-0.2559,41.6813,11.8313,-6.7313,,0.016645999999999717,7.480633775289364,4.363706234173782,backward_fall
3.934417,-0.1621,7.0411,7.6829,3.5764,0.3751,-0.2559,41.6813,11.8313,-6.7313,,0.003881999999999941,10.4225869164042,4.734171153671345,backward_fall
3.93722,-0.1621,7.0411,7.6829,3.5764,0.3751,-0.2559,41.6813,11.8313,-6.7313,,0.002803000000000111,10.4225869164042,5.1882435654664265,backward_fall
3.946184,-0.1621,7.0411,7.6829,3.8867,1.0336,-0.0604,41.6813,11.8313,-6.7313,,0.008964000000000194,10.4225869164042,5.647695173322651,backward_fall
3.951753,0.2214,1.9339,6.8911,3.8867,1.0336,-0.0604,41.6813,11.8313,-6.7313,,0.005568999999999935,7.160743423695615,6.053522592440939,backward_fall
3.971897,-1.012,1.1301,4.2381,3.8867,1.0336,-0.0604,41.6813,11.8313,-6.7313,,0.020143999999999718,4.501417734447671,6.366662157812713,backward_fall
3.990483,-2.848,1.5425,0.8587,3.8867,1.0336,-0.0604,41.6813,11.8313,-6.7313,,0.01858599999999999,3.350787361203334,6.566368172529513,backward_fall
3.993992,-2.848,1.5425,0.8587,3.8867,1.0336,-0.0604,40.8563,10.275,-6.525,,0.0035090000000002064,3.350787361203334,6.646980958538891,backward_fall
4.000012,-2.848,1.5425,0.8587,3.8867,1.0336,-0.0604,40.8563,10.275,-6.525,,0.006019999999999914,3.350787361203334,6.613924068147067,backward_fall
4.008654,-2.848,1.5425,0.8587,2.7298,-0.0208,-0.1141,40.8563,10.275,-6.525,,0.008642000000000039,3.350787361203334,6.479702458482117,backward_fall
4.010847,-2.3557,5.254,1.2099,2.7298,-0.0208,-0.1141,40.8563,10.275,-6.525,,0.0021930000000001115,5.883680523277925,6.26047442359345,backward_fall
4.028787,-1.3587,6.7219,0.8184,2.7298,-0.0208,-0.1141,40.8563,10.275,-6.525,,0.01794000000000029,6.906503012378985,5.973511936257974,backward_fall
4.046973,-0.3909,5.3208,-0.4149,2.7298,-0.0208,-0.1141,40.8563,10.275,-6.525,,0.018186000000000035,5.351248215136353,5.635615342928178,backward_fall
4.049244,-0.3909,5.3208,-0.4149,2.7298,-0.0208,-0.1141,40.8563,9.0375,-9.3375,,0.002270999999999468,5.351248215136353,5.262362817870932,backward_fall
4.061299,-0.3909,5.3208,-0.4149,2.7298,-0.0208,-0.1141,40.8563,9.0375,-9.3375,,0.012055000000000149,5.351248215136353,4.867975896314959,backward_fall
4.06701,-1.0638,5.0911,-2.3734,2.7298,-0.0208,-0.1141,40.8563,9.0375,-9.3375,,0.0057109999999998,5.716991972182575,4.4655533959166664,backward_fall
4.070512,-1.0638,5.0911,-2.3734,0.6406,0.1258,-0.2779,40.8563,9.0375,-9.3375,,0.003502000000000116,5.716991972182575,4.0674344998793375,backward_fall
4.086138,-1.1419,4.0993,-1.1999,0.6406,0.1258,-0.2779,40.8563,9.0375,-9.3375,,0.01562600000000014,4.4213070590041585,3.6854826429150784,backward_fall
4.105146,-0.8582,2.5951,-1.6431,0.6406,0.1258,-0.2779,40.8563,9.0375,-9.3375,,0.019008000000000358,3.1891736954891625,3.331139041154928,backward_fall
4.113529,-0.8582,2.5951,-1.6431,0.6406,0.1258,-0.2779,40.9313,9.2812,-8.4938,,0.008382999999999363,3.1891736954891625,3.0151761836428697,backward_fall
4.125093,-0.8582,2.5951,-1.6431,0.6406,0.1258,-0.2779,40.9313,9.2812,-8.4938,,0.011563999999999908,3.1891736954891625,2.7471669224914357,backward_fall
4.127922,-0.616,1.2674,-1.8245,0.6406,0.1258,-0.2779,40.9313,9.2812,-8.4938,,0.0028290000000001925,2.3053327330344313,2.534750282150753,backward_fall
4.133364,-0.616,1.2674,-1.8245,0.1141,-0.4544,-0.0604,40.9313,9.2812,-8.4938,,0.005442000000000391,2.3053327330344313,2.382813788212578,backward_fall
4.143288,-0.7538,0.5763,-1.2876,0.1141,-0.4544,-0.0604,40.9313,9.2812,-8.4938,,0.009923999999999822,1.5994529971212035,2.2927322490805464,backward_fall
4.162689,0.2253,-0.7608,0.528,0.1141,-0.4544,-0.0604,40.9313,9.2812,-8.4938,,0.019401000000000224,0.9530796031811823,2.2618109251880005,backward_fall
4.170254,0.2253,-0.7608,0.528,0.1141,-0.4544,-0.0604,40.2563,9.4688,-9.4125,,0.0075649999999996,0.9530796031811823,2.28307301488216,backward_fall
4.181327,0.253,0.6101,1.7399,0.1141,-0.4544,-0.0604,40.2563,9.4688,-9.4125,,0.011072999999999666,1.8610435298509276,2.3454987574225385,backward_fall
4.186334,0.253,0.6101,1.7399,0.1141,-0.4544,-0.0604,40.2563,9.4688,-9.4125,,0.005007000000000872,1.8610435298509276,2.434762457104623,backward_fall
4.195791,0.253,0.6101,1.7399,0.2619,-0.3641,-0.0628,40.2563,9.4688,-9.4125,,0.009456999999999383,1.8610435298509276,2.5344324427480722,backward_fall
4.203338,-0.4406,2.7779,1.823,0.2619,-0.3641,-0.0628,40.2563,9.4688,-9.4125,,0.007546999999999748,3.3517436909763845,2.6275151117911237,backward_fall
4.220486,-0.6008,4.3434,0.8895,0.2619,-0.3641,-0.0628,40.2563,9.4688,-9.4125,,0.017148000000000607,4.474069115469719,2.6981548030410973,backward_fall
4.230694,-0.6008,4.3434,0.8895,0.2619,-0.3641,-0.0628,39.8438,9.8063,-10.0312,,0.01020799999999955,4.474069115469719,2.733259337177722,backward_fall
4.240398,0.3463,2.5973,-1.458,0.2619,-0.3641,-0.0628,39.8438,9.8063,-10.0312,,0.009704000000000157,2.998608840779337,2.723820958520576,backward_fall
4.247865,0.3463,2.5973,-1.458,0.2619,-0.3641,-0.0628,39.8438,9.8063,-10.0312,,0.0074670000000001124,2.998608840779337,2.665753352063743,backward_fall
4.257258,0.3463,2.5973,-1.458,-0.333,-0.2223,-0.1961,39.8438,9.8063,-10.0312,,0.009393000000000207,2.998608840779337,2.5601545376905244,backward_fall
4.258465,1.4767,-0.1101,-1.5878,-0.333,-0.2223,-0.1961,39.8438,9.8063,-10.0312,,0.001206999999999958,2.1711457205816473,2.412999712914513,backward_fall
4.27742,1.5029,-1.5473,-0.9826,-0.333,-0.2223,-0.1961,39.8438,9.8063,-10.0312,,0.018955000000000055,2.370305562580487,2.2343398850108342,backward_fall
4.292143,1.5029,-1.5473,-0.9826,-0.333,-0.2223,-0.1961,39.525,10.65,-10.8375,,0.014723000000000042,2.370305562580487,2.037125607837178,backward_fall
4.296715,0.5579,-0.9294,-0.165,-0.333,-0.2223,-0.1961,39.525,10.65,-10.8375,,0.004571999999999576,1.09647698106253,1.83579835469699,backward_fall
4.311111,0.5579,-0.9294,-0.165,-0.333,-0.2223,-0.1961,39.525,10.65,-10.8375,,0.01439600000000052,1.09647698106253,1.6448032747391246,backward_fall
4.314808,-0.3306,0.3428,-0.4285,-0.333,-0.2223,-0.1961,39.525,10.65,-10.8375,,0.0036969999999998393,0.6406406559062576,1.4771784830098407,backward_fall
4.319603,-0.3306,0.3428,-0.4285,-0.2683,-0.2651,-0.0543,39.525,10.65,-10.8375,,0.004794999999999661,0.6406406559062576,1.3433631079883375,backward_fall
4.334652,-0.4981,0.9499,-0.9224,-0.2683,-0.2651,-0.0543,39.525,10.65,-10.8375,,0.015049000000000312,1.4146502677340431,1.2503340017609188,backward_fall
4.35039,-0.4981,0.9499,-0.9224,-0.2683,-0.2651,-0.0543,38.8313,11.2688,-10.8188,,0.015737999999999808,1.4146502677340431,1.2011328802903118,backward_fall
4.354014,-0.0519,0.6003,-0.2926,-0.2683,-0.2651,-0.0543,38.8313,11.2688,-10.8188,,0.0036240000000002937,0.6698271866683226,1.1947953321193583,backward_fall
4.378976,-0.0519,0.6003,-0.2926,-0.2683,-0.2651,-0.0543,38.8313,11.2688,-10.8188,,0.024961999999999485,0.6698271866683226,1.2266550298747891,backward_fall
4.380542,0.6573,-0.7796,0.2696,-0.2683,-0.2651,-0.0543,38.8313,11.2688,-10.8188,,0.0015660000000004004,1.054752866789183,1.2889736516956918,backward_fall
4.381567,0.6573,-0.7796,0.2696,-0.6068,-0.1441,0.0557,38.8313,11.2688,-10.8188,,0.0010250000000002757,1.054752866789183,1.3718291566913305,backward_fall
4.392118,1.764,-1.7434,0.3803,-0.6068,-0.1441,0.0557,38.8313,11.2688,-10.8188,,0.010550999999999533,2.5091368336541553,1.4641714981065244,backward_fall
4.410917,1.6786,-1.8155,0.8021,-0.6068,-0.1441,0.0557,38.8313,11.2688,-10.8188,,0.018799000000000454,2.599442751822013,1.554928259184288,backward_fall
4.412456,1.6786,-1.8155,0.8021,-0.6068,-0.1441,0.0557,40.7063,11.1,-12.3188,,0.001538999999999291,2.599442751822013,1.6340285418943263,backward_fall
4.430546,0.1602,-1.2188,0.7569,-0.6068,-0.1441,0.0557,40.7063,11.1,-12.3188,,0.01808999999999994,1.4436187481464766,1.6932278684862767,backward_fall
4.437925,0.1602,-1.2188,0.7569,-0.6068,-0.1441,0.0557,40.7063,11.1,-12.3188,,0.0073790000000002465,1.4436187481464766,1.7266623091261444,backward_fall
4.443598,0.1602,-1.2188,0.7569,-0.1364,0.2383,0.0312,40.7063,11.1,-12.3188,,0.005672999999999817,1.4436187481464766,1.7311190023406877,backward_fall
4.449316,-0.9764,-1.1937,0.3572,-0.1364,0.2383,0.0312,40.7063,11.1,-12.3188,,0.00571799999999989,1.5829935217808062,1.7060560944076155,backward_fall
4.469064,-0.9109,-1.5709,-0.108,-0.1364,0.2383,0.0312,40.7063,11.1,-12.3188,,0.019748000000000765,1.819101322081868,1.6534227047460033,backward_fall
4.47266,-0.9109,-1.5709,-0.108,-0.1364,0.2383,0.0312,39.6938,11.325,-10.425,,0.0035959999999999326,1.819101322081868,1.5773240394678143,backward_fall
4.48789,-0.2896,-1.3925,-0.3504,-0.1364,0.2383,0.0312,39.6938,11.325,-10.425,,0.015229999999999855,1.4648223680706136,1.4835644251684306,backward_fall
4.496794,-0.2896,-1.3925,-0.3504,-0.1364,0.2383,0.0312,39.6938,11.325,-10.425,,0.008904000000000245,1.4648223680706136,1.3790947095546555,backward_fall
4.50678,-0.2896,-1.3925,-0.3504,-0.1682,0.193,-0.0568,39.6938,11.325,-10.425,,0.009985999999999606,1.4648223680706136,1.2713933493874028,backward_fall
4.510036,0.454,-0.9503,-0.3427,-0.1682,0.193,-0.0568,39.6938,11.325,-10.425,,0.0032560000000003697,1.1075330153092504,1.1678187357091192,backward_fall
4.525125,0.5941,-0.4795,0.0464,-0.1682,0.193,-0.0568,39.6938,11.325,-10.425,,0.015088999999999686,0.7648712440666076,1.0749792537030234,backward_fall
4.531154,0.5941,-0.4795,0.0464,-0.1682,0.193,-0.0568,39.975,11.475,-9.8063,,0.00602899999999984,0.7648712440666076,0.9981744957598727,backward_fall
4.544922,0.2991,-0.3418,-0.1866,-0.1682,0.193,-0.0568,39.975,11.475,-9.8063,,0.01376799999999978,0.49102709701196734,0.9409630277482259,backward_fall
4.559036,0.2991,-0.3418,-0.1866,-0.1682,0.193,-0.0568,39.975,11.475,-9.8063,,0.014114000000000182,0.49102709701196734,0.9049053824121033,backward_fall
4.564339,0.4362,-0.4985,-0.437,-0.1682,0.193,-0.0568,39.975,11.475,-9.8063,,0.005303000000000502,0.7935626566314722,0.8895137626084587,backward_fall
4.570624,0.4362,-0.4985,-0.437,-0.1804,0.2273,0.0153,39.975,11.475,-9.8063,,0.006284999999999208,0.7935626566314722,0.8924144014643624,backward_fall
4.583714,0.2947,-0.9915,-0.1705,-0.1804,0.2273,0.0153,39.975,11.475,-9.8063,,0.013090000000000046,1.0483275203866396,0.9096998993141405,backward_fall
4.590078,0.2947,-0.9915,-0.1705,-0.1804,0.2273,0.0153,39.4875,11.475,-9.6938,,0.00636400000000048,1.0483275203866396,0.936423765763909,backward_fall
4.602277,0.3637,-1.0828,0.0523,-0.1804,0.2273,0.0153,39.4875,11.475,-9.6938,,0.012198999999999849,1.1434460284595858,0.9671732123444912,backward_fall
4.62297,0.3637,-1.0828,0.0523,-0.1804,0.2273,0.0153,39.4875,11.475,-9.6938,,0.02069299999999963,1.1434460284595858,0.9966507835725038,backward_fall
4.626237,0.6588,-1.1935,0.2978,-0.1804,0.2273,0.0153,39.4875,11.475,-9.6938,,0.003267000000000131,1.3954012075385345,1.0201991594406195,backward_fall
4.630361,0.6588,-1.1935,0.2978,-0.0179,0.3201,-0.0225,39.4875,11.475,-9.6938,,0.0041240000000000165,1.3954012075385345,1.0342138303855575,backward_fall
4.64093,0.3048,-1.0901,0.3963,-0.0179,0.3201,-0.0225,39.4875,11.475,-9.6938,,0.010569000000000273,1.1992809262220425,1.036403859182383,backward_fall
4.650752,0.3048,-1.0901,0.3963,-0.0179,0.3201,-0.0225,39.7688,11.4,-8.4563,,0.009821999999999775,1.1992809262220425,1.0258812899410656,backward_fall
4.659966,-0.2722,-0.8451,0.3552,-0.0179,0.3201,-0.0225,39.7688,11.4,-8.4563,,0.009214000000000055,0.9562708246098487,1.0030835755608696,backward_fall
4.679345,-0.3223,-0.6183,0.0865,-0.0179,0.3201,-0.0225,39.7688,11.4,-8.4563,,0.019378999999999813,0.7026054582765494,0.9695567341239841,backward_fall
4.683052,-0.3223,-0.6183,0.0865,-0.0179,0.3201,-0.0225,39.7688,11.4,-8.4563,,0.003707000000000349,0.7026054582765494,0.9276446553766615,backward_fall
4.693132,-0.3223,-0.6183,0.0865,0.0359,0.2346,0.036,39.7688,11.4,-8.4563,,0.010080000000000311,0.7026054582765494,0.8801380059430026,backward_fall
4.698205,0.1329,-0.699,-0.0405,0.0359,0.2346,0.036,39.7688,11.4,-8.4563,,0.005072999999999439,0.7126735999039111,0.8299331316905573,backward_fall
4.711114,0.1329,-0.699,-0.0405,0.0359,0.2346,0.036,39.8625,11.175,-7.9313,,0.012909000000000503,0.7126735999039111,0.7797394228427376,backward_fall
4.717551,0.5415,-0.7658,-0.0001,0.0359,0.2346,0.036,39.8625,11.175,-7.9313,,0.006437000000000026,0.9379082577736482,0.7318578654465683,backward_fall
4.736785,0.2835,-0.3935,-0.1642,0.0359,0.2346,0.036,39.8625,11.175,-7.9313,,0.019233999999999973,0.5120313857567718,0.6880393132888091,backward_fall
4.748426,0.2835,-0.3935,-0.1642,0.0359,0.2346,0.036,39.8625,11.175,-7.9313,,0.011641000000000012,0.5120313857567718,0.649421657036658,backward_fall
4.754845,0.2835,-0.3935,-0.1642,0.0432,0.3739,0.0336,39.8625,11.175,-7.9313,,0.0064190000000001746,0.5120313857567718,0.616540456766224,backward_fall
4.756209,0.3845,0.4079,-0.1761,0.0432,0.3739,0.0336,39.8625,11.175,-7.9313,,0.0013639999999996988,0.5875660558609559,0.5894044562330114,backward_fall
4.770253,0.3845,0.4079,-0.1761,0.0432,0.3739,0.0336,39.8625,11.1375,-7.425,,0.014044000000000167,0.5875660558609559,0.5676222510091488,non_fall
4.774689,0.1729,0.7359,-0.1388,0.0432,0.3739,0.0336,39.8625,11.1375,-7.425,,0.0044360000000001065,0.7685757347197477,0.5505592714187372,non_fall
4.793745,-0.1832,0.4167,-0.4854,0.0432,0.3739,0.0336,39.8625,11.1375,-7.425,,0.019055999999999962,0.6654429276805036,0.5374985089114528,non_fall
4.807554,-0.1832,0.4167,-0.4854,0.0432,0.3739,0.0336,39.8625,11.1375,-7.425,,0.013808999999999294,0.6654429276805036,0.5277774676686721,non_fall
4.813953,-0.3663,-0.1445,-0.4754,0.0432,0.3739,0.0336,39.8625,11.1375,-7.425,,0.0063990000000000435,0.6173014660601415,0.5208788588837093,non_fall
4.816893,-0.3663,-0.1445,-0.4754,-0.1902,0.149,0.0935,39.8625,11.1375,-7.425,,0.002940000000000609,0.6173014660601415,0.5164622985542089,non_fall
4.830114,-0.3663,-0.1445,-0.4754,-0.1902,0.149,0.0935,40.4438,10.8563,-6.3,,0.013220999999999705,0.6173014660601415,0.5143360436856615,non_fall
4.831856,-0.4392,-0.0993,0.2344,-0.1902,0.149,0.0935,40.4438,10.8563,-6.3,,0.0017420000000001323,0.5076420884836087,0.5143792828905429,non_fall
4.852351,0.1051,-0.0662,0.1116,-0.1902,0.149,0.0935,40.4438,10.8563,-6.3,,0.020494999999999486,0.16698206490518674,0.5164354865353498,non_fall
4.869603,0.1051,-0.0662,0.1116,-0.1902,0.149,0.0935,40.4438,10.8563,-6.3,,0.017252000000000045,0.16698206490518674,0.5202044680538057,non_fall
4.870922,0.5264,-0.1513,0.1727,-0.1902,0.149,0.0935,40.4438,10.8563,-6.3,,0.0013190000000005142,0.5742942973772246,0.5251621831259395,non_fall
4.880922,0.5264,-0.1513,0.1727,-0.283,0.1638,0.052,40.4438,10.8563,-6.3,,0.009999999999999787,0.5742942973772246,0.5305301424471386,non_fall
4.891311,0.4843,-0.2626,0.0866,-0.283,0.1638,0.052,40.4438,10.8563,-6.3,,0.010388999999999982,0.5576780522846493,0.5353023360349437,non_fall
4.893015,0.4843,-0.2626,0.0866,-0.283,0.1638,0.052,41.8125,11.0625,-7.05,,0.0017040000000001498,0.5576780522846493,0.5383234824003325,non_fall
4.908837,0.2835,0.1254,0.2284,-0.283,0.1638,0.052,41.8125,11.0625,-7.05,,0.015822000000000003,0.3850506070635391,0.5384041912601911,non_fall
4.928034,0.3412,0.5001,-0.0957,-0.283,0.1638,0.052,41.8125,11.0625,-7.05,,0.01919700000000013,0.6129240899165247,0.5344564000785275,non_fall
4.931866,0.3412,0.5001,-0.0957,-0.283,0.1638,0.052,41.8125,11.0625,-7.05,,0.0038320000000000576,0.6129240899165247,0.5256323455005534,non_fall
4.940604,0.3412,0.5001,-0.0957,-0.4773,0.2236,0.0678,41.8125,11.0625,-7.05,,0.008738000000000135,0.6129240899165247,0.5114497164150824,non_fall
4.947808,0.407,0.4893,-0.1345,-0.4773,0.2236,0.0678,41.8125,11.0625,-7.05,,0.007203999999999766,0.6505026825463519,0.4918853434315728,non_fall
4.950856,0.407,0.4893,-0.1345,-0.4773,0.2236,0.0678,40.9125,10.875,-5.1562,,0.0030479999999997176,0.6505026825463519,0.4674222297382482,non_fall
4.965907,0.1713,0.2393,-0.0045,-0.4773,0.2236,0.0678,40.9125,10.875,-5.1562,,0.015050999999999704,0.29432707996377094,0.43904110535282115,non_fall
4.985294,0.3261,0.1548,-0.0958,-0.4773,0.2236,0.0678,40.9125,10.875,-5.1562,,0.019387000000000043,0.37347274331602837,0.40815691261485454,non_fall
4.99354,0.3261,0.1548,-0.0958,-0.4773,0.2236,0.0678,40.9125,10.875,-5.1562,,0.008246000000000642,0.37347274331602837,0.3765097946462764,non_fall
5.004231,0.3261,0.1548,-0.0958,-0.7191,0.1576,-0.0825,40.9125,10.875,-5.1562,,0.010690999999999562,0.37347274331602837,0.34602596785590484,non_fall
5.008218,0.0428,0.2037,0.1644,-0.7191,0.1576,-0.0825,40.9125,10.875,-5.1562,,0.003987000000000407,0.2652411921252052,0.31866514761637044,non_fall
5.009975,0.0428,0.2037,0.1644,-0.7191,0.1576,-0.0825,40.6125,11.1188,-4.1063,,0.0017569999999995645,0.2652411921252052,0.29626980322601626,non_fall
5.02413,-0.2296,0.0764,0.0172,-0.7191,0.1576,-0.0825,40.6125,11.1188,-4.1063,,0.014155000000000584,0.2425880458720091,0.28042979145925734,non_fall
5.04291,-0.0717,-0.0142,0.0659,-0.7191,0.1576,-0.0825,40.6125,11.1188,-4.1063,,0.018779999999999575,0.09841412500246091,0.27237429731931234,non_fall
5.055867,-0.0717,-0.0142,0.0659,-0.7191,0.1576,-0.0825,40.6125,11.1188,-4.1063,,0.012957000000000107,0.09841412500246091,0.2729004810537753,non_fall
5.062454,0.1153,-0.3742,0.0523,-0.7191,0.1576,-0.0825,40.6125,11.1188,-4.1063,,0.0065869999999996764,0.3950379981723277,0.2823436788578699,non_fall
5.066031,0.1153,-0.3742,0.0523,-0.8706,0.061,-0.0507,40.6125,11.1188,-4.1063,,0.0035769999999999413,0.3950379981723277,0.3005871035344948,non_fall
5.072096,0.1153,-0.3742,0.0523,-0.8706,0.061,-0.0507,41.2688,11.4563,-3.1875,,0.006065000000000431,0.3950379981723277,0.3271013534808545,non_fall
5.080162,-0.2085,-0.437,0.3295,-0.8706,0.061,-0.0507,41.2688,11.4563,-3.1875,,0.008065999999999462,0.585671836440852,0.36099917705876866,non_fall
5.10013,-0.3987,-0.1105,0.192,-0.8706,0.061,-0.0507,41.2688,11.4563,-3.1875,,0.01996800000000043,0.4561095701692741,0.40109163913081075,non_fall
5.118026,-0.3987,-0.1105,0.192,-0.8706,0.061,-0.0507,41.2688,11.4563,-3.1875,,0.017896000000000356,0.4561095701692741,0.44593797083449466,non_fall
5.119407,-0.0743,0.1852,0.2705,-0.8706,0.061,-0.0507,41.2688,11.4563,-3.1875,,0.0013809999999994105,0.3361395246025079,0.4938905660906726,non_fall
5.127882,-0.0743,0.1852,0.2705,-1.093,-0.094,-0.0422,41.2688,11.4563,-3.1875,,0.008474999999999788,0.3361395246025079,0.5431454574262312,non_fall
5.130691,-0.0743,0.1852,0.2705,-1.093,-0.094,-0.0422,40.7438,11.9062,-2.3438,,0.0028090000000000614,0.3361395246025079,0.5918134116989947,non_fall
5.138291,0.2382,0.2599,-0.3072,-1.093,-0.094,-0.0422,40.7438,11.9062,-2.3438,,0.007600000000000051,0.46760997636919593,0.6380245961392812,non_fall
5.157239,0.587,-0.2687,-0.244,-1.093,-0.094,-0.0422,40.7438,11.9062,-2.3438,,0.018947999999999965,0.6901483101478986,0.6800700479130098,non_fall
5.176603,0.7423,-0.5689,-0.0365,-1.093,-0.094,-0.0422,40.7438,11.9062,-2.3438,,0.01936400000000038,0.9359427065798419,0.7165684591066495,non_fall
5.180694,0.7423,-0.5689,-0.0365,-1.093,-0.094,-0.0422,40.7438,11.9062,-2.3438,,0.004090999999999845,0.9359427065798419,0.746632095386141,non_fall
5.191613,0.7423,-0.5689,-0.0365,-1.1895,-0.0073,-0.0336,40.7438,11.9062,-2.3438,,0.010919000000000345,0.9359427065798419,0.7699967590729876,non_fall
5.193025,0.7423,-0.5689,-0.0365,-1.1895,-0.0073,-0.0336,40.2375,12.2813,-1.5938,,0.0014119999999993027,0.9359427065798419,0.7870811550101988,non_fall
5.195181,0.9214,-1.3574,-0.2016,-1.1895,-0.0073,-0.0336,40.2375,12.2813,-1.5938,,0.002156000000000269,1.652923252906801,0.7989503835193628,non_fall
5.215114,0.4114,-0.6366,0.1633,-1.1895,-0.0073,-0.0336,40.2375,12.2813,-1.5938,,0.01993299999999998,0.7753556667749325,0.8071741850560916,non_fall
5.234049,-0.403,0.1892,0.0545,-1.1895,-0.0073,-0.0336,40.2375,12.2813,-1.5938,,0.018934999999999924,0.4485263537407808,0.8135919821942929,non_fall
5.24281,-0.403,0.1892,0.0545,-1.1895,-0.0073,-0.0336,40.2375,12.2813,-1.5938,,0.008761000000000685,0.4485263537407808,0.8200219479466722,non_fall
5.250485,-0.403,0.1892,0.0545,-1.1895,-0.0073,-0.0336,40.5,12.5813,-0.15,,0.007674999999999876,0.4485263537407808,0.827972479170515,non_fall
5.253428,-0.403,0.1892,0.0545,-1.4008,-0.0195,-0.0776,40.5,12.5813,-0.15,,0.00294300000000014,0.4485263537407808,0.838420536695134,non_fall
5.254922,-0.2098,0.0324,-0.2399,-1.4008,-0.0195,-0.0776,40.5,12.5813,-0.15,,0.0014939999999992182,0.3203401473434137,0.8517080291072326,non_fall
5.271798,0.1892,-0.339,0.02,-1.4008,-0.0195,-0.0776,40.5,12.5813,-0.15,,0.01687600000000078,0.3887385239463668,0.8675797890886644,non_fall
5.291277,0.404,-1.4917,-0.0758,-1.4008,-0.0195,-0.0776,40.5,12.5813,-0.15,,0.01947899999999958,1.5472978155481254,0.8853520486837069,non_fall
5.305441,0.404,-1.4917,-0.0758,-1.4008,-0.0195,-0.0776,40.5,12.5813,-0.15,,0.014164000000000065,1.5472978155481254,0.9041648717362366,non_fall
5.310212,0.0547,-1.4687,-0.383,-1.4008,-0.0195,-0.0776,40.5,12.5813,-0.15,,0.004770999999999859,1.5188024163794314,0.9232449899133667,non_fall
5.312842,0.0547,-1.4687,-0.383,-1.4008,-0.0195,-0.0776,40.575,12.5813,1.6125,,0.00262999999999991,1.5188024163794314,0.9420993441285965,non_fall
5.315654,0.0547,-1.4687,-0.383,-1.2921,0.0098,-0.0605,40.575,12.5813,1.6125,,0.0028120000000004808,1.5188024163794314,0.9605807355281574,non_fall
5.329739,-0.1645,-0.4015,-0.3939,-1.2921,0.0098,-0.0605,40.575,12.5813,1.6125,,0.014084999999999681,0.5860202300262338,0.9788090509903226,non_fall
5.348463,0.0479,0.1078,0.0685,-1.2921,0.0098,-0.0605,40.575,12.5813,1.6125,,0.01872399999999974,0.13640931053267588,0.996980093260819,non_fall
5.367839,0.0479,0.1078,0.0685,-1.2921,0.0098,-0.0605,40.575,12.5813,1.6125,,0.019376000000000282,0.13640931053267588,1.0151330425658922,non_fall
5.370904,0.1184,-0.8766,-0.2289,-1.2921,0.0098,-0.0605,40.575,12.5813,1.6125,,0.0030650000000003175,0.9136965196387694,1.0329621004751601,non_fall
5.37378,0.1184,-0.8766,-0.2289,-1.2921,0.0098,-0.0605,41.6438,12.9938,0.8625,,0.0028759999999996566,0.9136965196387694,1.0497404984483678,non_fall
5.376505,0.1184,-0.8766,-0.2289,-1.286,-0.1246,-0.0813,41.6438,12.9938,0.8625,,0.0027249999999998664,0.9136965196387694,1.0643838610317748,non_fall
5.386164,0.4577,-1.2342,-0.3221,-1.286,-0.1246,-0.0813,41.6438,12.9938,0.8625,,0.009659000000000084,1.355170594427137,1.0756344695681836,non_fall
5.406768,0.5454,-1.4614,-0.7004,-1.286,-0.1246,-0.0813,41.6438,12.9938,0.8625,,0.020603999999999623,1.709886335403614,1.0823146377826862,non_fall
5.425377,0.5271,-0.6009,-1.1051,-1.286,-0.1246,-0.0813,41.6438,12.9938,0.8625,,0.018609000000000542,1.363877278203578,1.0835818918066291,non_fall
5.428982,0.5271,-0.6009,-1.1051,-1.286,-0.1246,-0.0813,41.6438,12.9938,0.8625,,0.0036050000000003024,1.363877278203578,1.0791209205379193,non_fall
5.429916,0.5271,-0.6009,-1.1051,-1.286,-0.1246,-0.0813,40.3688,12.5813,3.375,,0.0009339999999999904,1.363877278203578,1.0692255196357563,non_fall
5.438029,0.5271,-0.6009,-1.1051,-1.0845,-0.1576,-0.135,40.3688,12.5813,3.375,,0.008112999999999815,1.363877278203578,1.0547525387593306,non_fall
5.444463,0.0969,0.1792,-0.4213,-1.0845,-0.1576,-0.135,40.3688,12.5813,3.375,,0.006433999999999607,0.46797002040729063,1.0369610803906542,non_fall
5.464151,0.2226,-0.2355,0.1994,-1.0845,-0.1576,-0.135,40.3688,12.5813,3.375,,0.019688000000000372,0.3804883309643017,1.0172771113485204,non_fall
5.482357,0.2621,-0.7749,-0.4408,-1.0845,-0.1576,-0.135,40.3688,12.5813,3.375,,0.018206000000000166,0.9292314351118348,0.9970400764435099,non_fall
5.492619,0.2621,-0.7749,-0.4408,-1.0845,-0.1576,-0.135,39.9563,13.0313,4.4438,,0.010261999999999993,0.9292314351118348,0.977287638180697,non_fall
5.496984,0.2621,-0.7749,-0.4408,-1.0845,-0.1576,-0.135,39.9563,13.0313,4.4438,,0.004364999999999952,0.9292314351118348,0.95861689878432,non_fall
5.502372,0.2621,-0.7749,-0.4408,-1.0172,-0.176,-0.0458,39.9563,13.0313,4.4438,,0.005387999999999948,0.9292314351118348,0.9411352372078089,non_fall
5.504266,0.3585,-0.8417,-0.6507,-1.0172,-0.176,-0.0458,39.9563,13.0313,4.4438,,0.0018940000000000623,1.1226716483460335,0.9244935157100086,non_fall
5.520874,0.2382,-0.9123,-0.4822,-1.0172,-0.176,-0.0458,39.9563,13.0313,4.4438,,0.016607999999999734,1.0590313357025845,0.9079838690654742,non_fall
5.539732,0.1938,-0.5947,-0.0382,-1.0172,-0.176,-0.0458,39.9563,13.0313,4.4438,,0.01885799999999982,0.6266464473688492,0.8906819708738584,non_fall
5.550437,0.1938,-0.5947,-0.0382,-1.0172,-0.176,-0.0458,40.35,12.9375,4.1063,,0.010704999999999742,0.6266464473688492,0.8716165203970704,non_fall
5.554169,0.1938,-0.5947,-0.0382,-1.0172,-0.176,-0.0458,40.35,12.9375,4.1063,,0.0037320000000002906,0.6266464473688492,0.849952560484651,non_fall
5.558871,0.032,-0.3667,1.1197,-1.0172,-0.176,-0.0458,40.35,12.9375,4.1063,,0.004701999999999984,1.1786521878824134,0.8251745135776356,non_fall
5.562422,0.032,-0.3667,1.1197,-0.9182,-0.176,-0.1423,40.35,12.9375,4.1063,,0.00355099999999986,1.1786521878824134,0.7972471835305622,non_fall
5.578701,0.5425,-0.3421,1.0871,-0.9182,-0.176,-0.1423,40.35,12.9375,4.1063,,0.016278999999999932,1.2621905838660024,0.7667239616906004,non_fall
5.597407,0.6767,-0.1393,0.1457,-0.9182,-0.176,-0.1423,40.35,12.9375,4.1063,,0.01870599999999989,0.7060848886642455,0.7347711441366861,non_fall
5.611616,0.6767,-0.1393,0.1457,-0.9182,-0.176,-0.1423,40.125,13.2,4.95,,0.014209000000000138,0.7060848886642455,0.7030910080195911,non_fall
5.615299,0.6767,-0.1393,0.1457,-0.9182,-0.176,-0.1423,40.125,13.2,4.95,,0.003683000000000547,0.7060848886642455,0.6737495462008932,non_fall
5.61623,0.394,-0.0568,0.1027,-0.9182,-0.176,-0.1423,40.125,13.2,4.95,,0.0009309999999995711,0.4111076866223739,0.64893707711014,non_fall
5.62524,0.394,-0.0568,0.1027,-0.7008,-0.154,-0.0092,40.125,13.2,4.95,,0.009009999999999962,0.4111076866223739,0.6307035267103901,non_fall
5.63599,0.1516,0.0325,0.2238,-0.7008,-0.154,-0.0092,40.125,13.2,4.95,,0.010749999999999815,0.27225952692238337,0.6207133720645758,non_fall
5.654624,0.4843,-0.1567,0.2026,-0.7008,-0.154,-0.0092,40.125,13.2,4.95,,0.018634000000000484,0.547857773514258,0.6200593874456739,non_fall
5.670742,0.4843,-0.1567,0.2026,-0.7008,-0.154,-0.0092,39.9375,13.0688,5.475,,0.016117999999999633,0.547857773514258,0.629161030155958,non_fall
5.674502,0.6044,-0.3456,0.2163,-0.7008,-0.154,-0.0092,39.9375,13.0688,5.475,,0.0037600000000006517,0.7290572062602495,0.6477554600426253,non_fall
5.677627,0.6044,-0.3456,0.2163,-0.7008,-0.154,-0.0092,39.9375,13.0688,5.475,,0.0031249999999998224,0.7290572062602495,0.6749717697069149,non_fall
5.688008,0.6044,-0.3456,0.2163,-0.6923,-0.1686,-0.0653,39.9375,13.0688,5.475,,0.010380999999999752,0.7290572062602495,0.709466696287114,non_fall
5.692867,0.5417,-0.4152,-0.049,-0.6923,-0.1686,-0.0653,39.9375,13.0688,5.475,,0.004858999999999725,0.6842740167505996,0.7495946043471922,non_fall
5.711374,0.7402,-0.6058,-0.3429,-0.6923,-0.1686,-0.0653,39.9375,13.0688,5.475,,0.018507000000000495,1.016105353789655,0.7935843100159234,non_fall
5.731192,0.6359,-0.5501,-0.6206,-0.6923,-0.1686,-0.0653,39.9375,13.0688,5.475,,0.01981799999999989,1.0450469750207405,0.8396976017136066,non_fall
5.73298,0.6359,-0.5501,-0.6206,-0.6923,-0.1686,-0.0653,40.4062,13.3125,6.3,,0.0017880000000003449,1.0450469750207405,0.8863480063695232,non_fall
5.740389,0.6359,-0.5501,-0.6206,-0.6923,-0.1686,-0.0653,40.4062,13.3125,6.3,,0.007408999999999999,1.0450469750207405,0.9321648593493386,non_fall
5.748758,0.6359,-0.5501,-0.6206,-0.6629,-0.1381,-0.08,40.4062,13.3125,6.3,,0.008368999999999183,1.0450469750207405,0.975998427938552,non_fall
5.750284,0.3833,-0.2881,-0.678,-0.6629,-0.1381,-0.08,40.4062,13.3125,6.3,,0.0015260000000001384,0.8304242891438087,1.01687529606404,non_fall
5.769339,0.3518,-0.2997,-0.5952,-0.6629,-0.1381,-0.08,40.4062,13.3125,6.3,,0.01905500000000071,0.7535558174415482,1.0539256628522444,non_fall
5.788486,0.5205,-0.4281,-0.6985,-0.6629,-0.1381,-0.08,40.4062,13.3125,6.3,,0.01914699999999936,0.9706142951759983,1.086311496340705,non_fall
5.791931,0.5205,-0.4281,-0.6985,-0.6629,-0.1381,-0.08,40.2,13.3313,6.2063,,0.0034450000000001424,0.9706142951759983,1.113183605308311,non_fall
5.803653,0.5205,-0.4281,-0.6985,-0.6629,-0.1381,-0.08,40.2,13.3313,6.2063,,0.011721999999999788,0.9706142951759983,1.1336864250541798,non_fall
5.807281,0.5673,-0.5866,-0.8651,-0.6629,-0.1381,-0.08,40.2,13.3313,6.2063,,0.0036279999999999646,1.1892547498328523,1.1470149345574543,non_fall
5.81086,0.5673,-0.5866,-0.8651,-0.7961,-0.1979,-0.0641,40.2,13.3313,6.2063,,0.003579000000000221,1.1892547498328523,1.1525132273709766,non_fall
5.826274,0.5408,-0.8026,-1.0643,-0.7961,-0.1979,-0.0641,40.2,13.3313,6.2063,,0.015413999999999817,1.4385290716561832,1.149792221527557,non_fall
5.845393,0.525,-0.7644,-0.9112,-0.7961,-0.1979,-0.0641,40.2,13.3313,6.2063,,0.019118999999999886,1.3000837665319878,1.1388370692333085,non_fall
5.850366,0.525,-0.7644,-0.9112,-0.7961,-0.1979,-0.0641,42.6375,13.6875,5.3063,,0.00497300000000056,1.3000837665319878,1.1200749054418717,non_fall
5.864201,0.525,-0.7644,-0.9112,-0.7961,-0.1979,-0.0641,42.6375,13.6875,5.3063,,0.013835000000000264,1.3000837665319878,1.0943812436528604,non_fall
5.8671,0.3336,-0.5463,-0.724,-0.7961,-0.1979,-0.0641,42.6375,13.6875,5.3063,,0.002898999999999319,0.966389491871678,1.0630167824254788,non_fall
5.872829,0.3336,-0.5463,-0.724,-0.8205,-0.1735,-0.1093,42.6375,13.6875,5.3063,,0.005729000000000539,0.966389491871678,1.0275020021701895,non_fall
5.883801,0.2272,-0.561,-0.6947,-0.8205,-0.1735,-0.1093,42.6375,13.6875,5.3063,,0.01097199999999976,0.9213842466636817,0.9894506316583426,non_fall
5.903039,0.3956,-0.5646,-0.269,-0.8205,-0.1735,-0.1093,42.6375,13.6875,5.3063,,0.019237999999999644,0.7400226483020638,0.9503914549922884,non_fall
5.911023,0.3956,-0.5646,-0.269,-0.8205,-0.1735,-0.1093,40.2,13.275,6.9188,,0.007984000000000435,0.7400226483020638,0.9116094288283617,non_fall
5.922878,0.4112,-0.6649,-0.1667,-0.8205,-0.1735,-0.1093,40.2,13.275,6.9188,,0.011854999999999727,0.7993537014363541,0.8740322597920773,non_fall
5.926794,0.4112,-0.6649,-0.1667,-0.8205,-0.1735,-0.1093,40.2,13.275,6.9188,,0.003916000000000253,0.7993537014363541,0.8381791907272944,non_fall
5.937871,0.4112,-0.6649,-0.1667,-0.9597,-0.2468,-0.124,40.2,13.275,6.9188,,0.011077000000000226,0.7993537014363541,0.8041770031658775,non_fall
5.941898,0.4884,-0.4458,-0.2425,-0.9597,-0.2468,-0.124,40.2,13.275,6.9188,,0.004026999999999781,0.704328368021621,0.7718369216294753,non_fall
5.960527,0.7436,-0.3106,-0.1647,-0.9597,-0.2468,-0.124,40.2,13.275,6.9188,,0.018628999999999785,0.8225201578076978,0.7407774866606515,non_fall
5.97094,0.7436,-0.3106,-0.1647,-0.9597,-0.2468,-0.124,39.7125,13.3688,7.35,,0.010412999999999784,0.8225201578076978,0.7105731528767859,non_fall
5.979648,0.6771,0.0605,0.1349,-0.9597,-0.2468,-0.124,39.7125,13.3688,7.35,,0.008708000000000382,0.6930531509198988,0.6809059472679941,non_fall
5.98926,0.6771,0.0605,0.1349,-0.9597,-0.2468,-0.124,39.7125,13.3688,7.35,,0.009611999999999732,0.6930531509198988,0.651697880157297,non_fall
5.997876,0.6771,0.0605,0.1349,-0.8742,-0.0892,-0.1618,39.7125,13.3688,7.35,,0.008615999999999957,0.6930531509198988,0.6232048163752716,non_fall
5.999399,0.805,0.1004,0.284,-0.8742,-0.0892,-0.1618,39.7125,13.3688,7.35,,0.0015230000000006072,0.8595121639627912,0.5960572014576682,non_fall
6.018243,0.644,0.0375,0.0417,-0.8742,-0.0892,-0.1618,39.7125,13.3688,7.35,,0.01884399999999964,0.6464372668712719,0.5712385156607354,non_fall
6.031127,0.644,0.0375,0.0417,-0.8742,-0.0892,-0.1618,39.7125,13.05,7.875,,0.012883999999999673,0.6464372668712719,0.5499992244142958,non_fall
6.037917,0.3467,-0.1445,-0.1897,-0.8742,-0.0892,-0.1618,39.7125,13.05,7.875,,0.006790000000000518,0.42079357171896054,0.5337133064848398,non_fall
6.050284,0.3467,-0.1445,-0.1897,-0.8742,-0.0892,-0.1618,39.7125,13.05,7.875,,0.012367000000000239,0.42079357171896054,0.52369503593222,non_fall
6.059156,0.4292,-0.0196,-0.2117,-0.8742,-0.0892,-0.1618,39.7125,13.05,7.875,,0.008871999999999325,0.47897149184476523,0.5210021659369882,non_fall
6.062621,0.4292,-0.0196,-0.2117,-0.9109,0.1955,-0.1826,39.7125,13.05,7.875,,0.0034650000000002734,0.47897149184476523,0.5262550065022219,non_fall
6.075614,0.2584,-0.0879,-0.0957,-0.9109,0.1955,-0.1826,39.7125,13.05,7.875,,0.01299299999999981,0.2892325362057319,0.5394988178653559,non_fall
6.090658,0.2584,-0.0879,-0.0957,-0.9109,0.1955,-0.1826,39.8813,13.35,9.4313,,0.015044000000000501,0.2892325362057319,0.5601312509490691,non_fall
6.093759,0.4464,-0.3316,-0.1564,-0.9109,0.1955,-0.1826,39.8813,13.35,9.4313,,0.0031010000000000204,0.577661215592669,0.5869083939545215,non_fall
6.113283,0.4464,-0.3316,-0.1564,-0.9109,0.1955,-0.1826,39.8813,13.35,9.4313,,0.019523999999999653,0.577661215592669,0.6180318742007451,non_fall
6.116493,0.6913,-0.4421,-0.0346,-0.9109,0.1955,-0.1826,39.8813,13.35,9.4313,,0.003210000000000157,0.8213070436809854,0.6513059240551905,non_fall
6.122056,0.6913,-0.4421,-0.0346,-1.038,0.2443,-0.2108,39.8813,13.35,9.4313,,0.0055629999999995405,0.8213070436809854,0.6843408415302311,non_fall
6.131828,0.5689,-0.5717,0.2851,-1.038,0.2443,-0.2108,39.8813,13.35,9.4313,,0.009771999999999892,0.8554356258655587,0.7147722989776116,non_fall
6.150427,0.5689,-0.5717,0.2851,-1.038,0.2443,-0.2108,39.3938,13.1063,10.4813,,0.018599000000000032,0.8554356258655587,0.7404665316001642,non_fall
6.152384,0.0372,-0.2596,0.4191,-1.038,0.2443,-0.2108,39.3938,13.1063,10.4813,,0.0019569999999999865,0.494389330386488,0.7596883132068099,non_fall
6.17057,-0.6921,-0.2448,0.5901,-1.038,0.2443,-0.2108,39.3938,13.1063,10.4813,,0.018186000000000035,0.9418850566815464,0.7712182027333876,non_fall
6.175235,-0.6921,-0.2448,0.5901,-1.038,0.2443,-0.2108,39.3938,13.1063,10.4813,,0.004665000000000141,0.9418850566815464,0.7744135869647581,non_fall
6.184515,-0.6921,-0.2448,0.5901,-0.906,0.1466,-0.2731,39.3938,13.1063,10.4813,,0.009280000000000399,0.9418850566815464,0.7692125202172233,non_fall
6.192255,-0.6525,-0.0511,0.4066,-0.906,0.1466,-0.2731,39.3938,13.1063,10.4813,,0.00774000000000008,0.7705134781429849,0.7560824780758459,non_fall
6.209195,-0.1569,-0.1764,0.5986,-0.906,0.1466,-0.2731,39.3938,13.1063,10.4813,,0.016939999999999955,0.6434722449336879,0.735921795449398,non_fall
6.212853,-0.1569,-0.1764,0.5986,-0.906,0.1466,-0.2731,39.3563,13.4063,12.15,,0.003657999999999717,0.6434722449336879,0.709930206577312,non_fall
6.227718,0.1487,-0.362,0.1888,-0.906,0.1466,-0.2731,39.3563,13.4063,12.15,,0.01486500000000035,0.43451251995771073,0.6794726577869548,non_fall
6.236798,0.1487,-0.362,0.1888,-0.906,0.1466,-0.2731,39.3563,13.4063,12.15,,0.009079999999999977,0.43451251995771073,0.6459631601279757,non_fall
6.248755,0.1487,-0.362,0.1888,-0.8194,-0.0245,-0.3109,39.3563,13.4063,12.15,,0.011956999999999773,0.43451251995771073,0.6107912410364096,non_fall
6.252407,0.3682,-0.5095,-0.388,-0.8194,-0.0245,-0.3109,39.3563,13.4063,12.15,,0.0036519999999997665,0.7387188166007416,0.5753032683748901,non_fall
6.266937,-0.0078,-0.4221,-0.3114,-0.8194,-0.0245,-0.3109,39.3563,13.4063,12.15,,0.014530000000000598,0.5245943289819286,0.5408370961401746,non_fall
6.271061,-0.0078,-0.4221,-0.3114,-0.8194,-0.0245,-0.3109,38.6625,13.5563,13.4063,,0.0041240000000000165,0.5245943289819286,0.5087954223405741,non_fall
6.285454,-0.3325,-0.5051,0.0368,-0.8194,-0.0245,-0.3109,38.6625,13.5563,13.4063,,0.014392999999999212,0.6058353736783616,0.48073512583882033,non_fall
6.299271,-0.3325,-0.5051,0.0368,-0.8194,-0.0245,-0.3109,38.6625,13.5563,13.4063,,0.013817000000000412,0.6058353736783616,0.4584478111025472,non_fall
6.304831,-0.3095,-0.1583,-0.2525,-0.8194,-0.0245,-0.3109,38.6625,13.5563,13.4063,,0.005560000000000009,0.42965729366554456,0.44400918381164545,non_fall
6.30824,-0.3095,-0.1583,-0.2525,-0.9904,-0.2615,-0.4674,38.6625,13.5563,13.4063,,0.0034089999999995513,0.42965729366554456,0.43977994344450044,non_fall
6.323848,-0.0866,-0.5487,-0.0347,-0.9904,-0.2615,-0.4674,38.6625,13.5563,13.4063,,0.015608000000000288,0.5565746490813249,0.44834738668468627,non_fall
6.330565,-0.0866,-0.5487,-0.0347,-0.9904,-0.2615,-0.4674,38.55,13.5375,13.725,,0.006717000000000084,0.5565746490813249,0.47240323164246384,non_fall
6.343142,-0.1849,-0.4616,-0.4284,-0.9904,-0.2615,-0.4674,38.55,13.5375,13.725,,0.012577000000000282,0.6563452826066475,0.5145582299316032,non_fall
6.361248,-0.1849,-0.4616,-0.4284,-0.9904,-0.2615,-0.4674,38.55,13.5375,13.725,,0.01810599999999951,0.6563452826066475,0.577098876533639,non_fall
6.36257,-0.1546,-0.9674,0.2524,-0.9904,-0.2615,-0.4674,38.55,13.5375,13.725,,0.0013220000000000454,1.0116667830862096,0.6616978140409567,non_fall
6.371071,-0.1546,-0.9674,0.2524,-1.1333,-0.5694,-0.6542,38.55,13.5375,13.725,,0.00850099999999987,1.0116667830862096,0.7690984338366563,non_fall
6.380762,-0.2703,-0.3489,-0.1289,-1.1333,-0.5694,-0.6542,38.55,13.5375,13.725,,0.009691000000000116,0.45979181158432997,0.898806090005398,non_fall
6.392866,-0.2703,-0.3489,-0.1289,-1.1333,-0.5694,-0.6542,37.8375,14.25,13.8563,,0.012103999999999893,0.45979181158432997,1.0488322851133054,non_fall
6.399949,-0.5655,-0.4271,0.2474,-1.1333,-0.5694,-0.6542,37.8375,14.25,13.8563,,0.007083000000000617,0.750607367403225,1.215548844699111,non_fall
6.419672,-1.1188,-0.0999,0.4895,-1.1333,-0.5694,-0.6542,37.8375,14.25,13.8563,,0.019722999999999935,1.2252769890926705,1.393707326908008,non_fall
6.426904,-1.1188,-0.0999,0.4895,-1.1333,-0.5694,-0.6542,37.8375,14.25,13.8563,,0.007232000000000127,1.2252769890926705,1.5766595033953836,non_fall
6.432924,-1.1188,-0.0999,0.4895,-1.6415,-1.0471,-0.8558,37.8375,14.25,13.8563,,0.00601999999999947,1.2252769890926705,1.756782474903951,non_fall
6.438899,-1.2737,-1.5944,1.2003,-1.6415,-1.0471,-0.8558,37.8375,14.25,13.8563,,0.005975000000000286,2.367518350509664,1.9260767176630547,non_fall
6.450542,-1.2737,-1.5944,1.2003,-1.6415,-1.0471,-0.8558,37.725,14.8688,13.4438,,0.011643000000000292,2.367518350509664,2.0768737689339276,non_fall
6.457596,-1.6446,-1.5987,1.5108,-1.6415,-1.0471,-0.8558,37.725,14.8688,13.4438,,0.0070539999999992276,2.7464645437361828,2.202566394539101,non_fall
6.477476,-1.3568,-1.6156,1.4813,-1.6415,-1.0471,-0.8558,37.725,14.8688,13.4438,,0.019880000000000564,2.5778516811484713,2.2982639183011715,non_fall
6.485977,-1.3568,-1.6156,1.4813,-1.6415,-1.0471,-0.8558,37.725,14.8688,13.4438,,0.00850099999999987,2.5778516811484713,2.3612837774623334,non_fall
6.49575,-1.3568,-1.6156,1.4813,-1.5707,-1.2719,-1.0476,37.725,14.8688,13.4438,,0.009773000000000032,2.5778516811484713,2.3914144755675544,non_fall
6.499268,0.2752,-2.2656,1.9253,-1.5707,-1.2719,-1.0476,37.725,14.8688,13.4438,,0.003517999999999688,2.9858765028044947,2.390915828907416,non_fall
6.511073,0.2752,-2.2656,1.9253,-1.5707,-1.2719,-1.0476,37.6875,16.2188,12.3188,,0.011804999999999843,2.9858765028044947,2.3642524061485486,non_fall
6.514358,0.4813,-1.273,1.6942,-1.5707,-1.2719,-1.0476,37.6875,16.2188,12.3188,,0.0032849999999999824,2.1731296164748204,2.3175849354588336,non_fall
6.53405,0.9742,-0.9113,0.9628,-1.5707,-1.2719,-1.0476,37.6875,16.2188,12.3188,,0.019692000000000043,1.6451495889432062,2.25807542488603,non_fall
6.549774,0.9742,-0.9113,0.9628,-1.5707,-1.2719,-1.0476,37.6875,16.2188,12.3188,,0.015724000000000515,1.6451495889432062,2.193092585773105,non_fall
6.553151,1.5858,-0.486,0.7592,-1.5707,-1.2719,-1.0476,37.6875,16.2188,12.3188,,0.0033769999999995193,1.824100402938391,2.1294235048793664,non_fall
6.557902,1.5858,-0.486,0.7592,-1.1908,-0.9811,-0.7923,37.6875,16.2188,12.3188,,0.004751000000000616,1.824100402938391,2.072594188089233,non_fall
6.570697,1.5858,-0.486,0.7592,-1.1908,-0.9811,-0.7923,37.425,17.8688,11.4,,0.012794999999999668,1.824100402938391,2.0263765410264867,non_fall
6.574131,2.2085,-0.5328,0.7302,-1.1908,-0.9811,-0.7923,37.425,17.8688,11.4,,0.003434000000000381,2.3863235593690977,1.99252486371498,non_fall
6.590915,0.0735,-0.872,0.7888,-1.1908,-0.9811,-0.7923,37.425,17.8688,11.4,,0.016783999999999466,1.1781305912334166,1.9707538320872091,non_fall
6.610623,0.0735,-0.872,0.7888,-1.1908,-0.9811,-0.7923,37.425,17.8688,11.4,,0.019708000000000503,1.1781305912334166,1.9589476570843556,non_fall
6.614095,0.7774,-0.2154,2.0703,-1.1908,-0.9811,-0.7923,37.425,17.8688,11.4,,0.0034719999999994755,2.221911341615592,1.9535730393301796,non_fall
6.618837,0.7774,-0.2154,2.0703,-0.8938,-0.876,-0.6882,37.425,17.8688,11.4,,0.004742000000000246,2.221911341615592,1.9502479592061701,non_fall
6.629371,2.1379,0.0063,1.7582,-0.8938,-0.876,-0.6882,37.425,17.8688,11.4,,0.010533999999999821,2.768017944305998,1.9443916622427688,non_fall
6.630902,2.1379,0.0063,1.7582,-0.8938,-0.876,-0.6882,37.0875,18.8625,11.4188,,0.001530999999999949,2.768017944305998,1.9318598046199018,non_fall
6.649526,2.0064,0.0166,0.6793,-0.8938,-0.876,-0.6882,37.0875,18.8625,11.4188,,0.018623999999999974,2.118340154460563,1.90946907597617,non_fall
6.668378,1.3668,0.2307,0.8073,-0.8938,-0.876,-0.6882,37.0875,18.8625,11.4188,,0.01885199999999987,1.6040879090623432,1.8753432140423294,non_fall
6.671934,1.3668,0.2307,0.8073,-0.8938,-0.876,-0.6882,37.0875,18.8625,11.4188,,0.0035560000000005587,1.6040879090623432,1.8290565349247867,non_fall
6.682016,1.3668,0.2307,0.8073,0.2302,-0.4617,-0.4511,37.0875,18.8625,11.4188,,0.010081999999999702,1.6040879090623432,1.7715925017679837,non_fall
6.687102,1.7167,-0.2642,0.9795,0.2302,-0.4617,-0.4511,37.0875,18.8625,11.4188,,0.005086000000000368,1.9940613781927576,1.7051578885342655,non_fall
6.691961,1.7167,-0.2642,0.9795,0.2302,-0.4617,-0.4511,36.2625,20.4563,10.1063,,0.004858999999999725,1.9940613781927576,1.6328960875335043,non_fall
6.706391,1.1793,-0.5305,0.5002,0.2302,-0.4617,-0.4511,36.2625,20.4563,10.1063,,0.014429999999999943,1.3864987486471094,1.5585373335305193,non_fall
6.725776,1.0243,-0.3975,0.1989,0.2302,-0.4617,-0.4511,36.2625,20.4563,10.1063,,0.019384999999999764,1.1165831585690338,1.4860218770206814,non_fall
6.734472,1.0243,-0.3975,0.1989,0.2302,-0.4617,-0.4511,36.2625,20.4563,10.1063,,0.008696000000000481,1.1165831585690338,1.4191374080687715,non_fall
6.744118,1.0243,-0.3975,0.1989,0.8154,-0.3311,-0.0553,36.2625,20.4563,10.1063,,0.009646000000000043,1.1165831585690338,1.3612163434494238,non_fall
6.747294,1.0597,-0.3062,-0.3032,0.8154,-0.3311,-0.0553,36.2625,20.4563,10.1063,,0.0031759999999998456,1.1439636226733787,1.3149326599663547,non_fall
6.749647,1.0597,-0.3062,-0.3032,0.8154,-0.3311,-0.0553,36.3188,21.7125,8.6625,,0.0023530000000002715,1.1439636226733787,1.282220598726869,non_fall
6.763965,0.8827,0.1974,-0.6843,0.8154,-0.3311,-0.0553,36.3188,21.7125,8.6625,,0.014317999999999387,1.134192461621924,1.264314952945435,non_fall
6.783096,0.9001,0.4096,-0.8819,0.8154,-0.3311,-0.0553,36.3188,21.7125,8.6625,,0.019130999999999787,1.3250282185674387,1.2618912480220603,non_fall
6.79696,0.9001,0.4096,-0.8819,0.8154,-0.3311,-0.0553,36.3188,21.7125,8.6625,,0.013864000000000765,1.3250282185674387,1.275266921885874,non_fall
6.804358,1.4423,0.4115,-1.1649,0.8154,-0.3311,-0.0553,36.3188,21.7125,8.6625,,0.0073979999999993495,1.8990928229025563,1.3046126624054282,non_fall
6.808245,1.4423,0.4115,-1.1649,0.78,0.0916,0.6923,36.3188,21.7125,8.6625,,0.00388700000000064,1.8990928229025563,1.3501181721235664,non_fall
6.810647,1.4423,0.4115,-1.1649,0.78,0.0916,0.6923,36.9188,21.7875,7.0875,,0.0024020000000000152,1.8990928229025563,1.412062338272081,non_fall
6.821018,1.5861,0.8014,-0.6213,0.78,0.0916,0.6923,36.9188,21.7875,7.0875,,0.010370999999999242,1.8825431894116003,1.490757472761749,non_fall
6.840232,1.0434,0.6449,0.1227,0.78,0.0916,0.6923,36.9188,21.7875,7.0875,,0.01921400000000073,1.2327347078751374,1.5863702415086212,non_fall
6.859638,1.0434,0.6449,0.1227,0.78,0.0916,0.6923,36.9188,21.7875,7.0875,,0.019406000000000034,1.2327347078751374,1.698660681806886,non_fall
6.862595,0.6525,0.5854,-0.8434,0.78,0.0916,0.6923,36.9188,21.7875,7.0875,,0.0029569999999994323,1.2164591937257903,1.8267127645619483,non_fall
6.868144,0.6525,0.5854,-0.8434,0.3902,0.3201,1.0002,36.9188,21.7875,7.0875,,0.005549000000000248,1.2164591937257903,1.9687429727670007,non_fall
6.872027,0.6525,0.5854,-0.8434,0.3902,0.3201,1.0002,37.95,20.3438,7.4625,,0.003883000000000081,1.2164591937257903,2.1220611031843513,non_fall
6.879015,1.4041,0.7227,-1.5818,0.3902,0.3201,1.0002,37.95,20.3438,7.4625,,0.006987999999999772,2.2351472747897394,2.2832219023675804,non_fall
6.897686,2.1429,1.0918,-2.0004,0.3902,0.3201,1.0002,37.95,20.3438,7.4625,,0.018671000000000326,3.128202009141993,2.448355265572198,non_fall
6.917127,2.6564,0.2707,-2.0318,0.3902,0.3201,1.0002,37.95,20.3438,7.4625,,0.019440999999999597,3.3552869758040074,2.6136097284326274,non_fall
6.921058,2.6564,0.2707,-2.0318,0.3902,0.3201,1.0002,37.95,20.3438,7.4625,,0.003931000000000573,3.3552869758040074,2.7756068486350327,non_fall
6.93022,2.6564,0.2707,-2.0318,-0.2377,0.3653,1.1065,37.95,20.3438,7.4625,,0.009161999999999892,3.3552869758040074,2.9317981412898884,non_fall
6.931889,2.6564,0.2707,-2.0318,-0.2377,0.3653,1.1065,39.0188,17.8688,8.7563,,0.0016689999999996985,3.3552869758040074,3.08064281720264,non_fall
6.93604,2.1422,0.4601,-2.6213,-0.2377,0.3653,1.1065,39.0188,17.8688,8.7563,,0.004151000000000238,3.416420135170732,3.221570119305409,non_fall
6.955047,1.0878,0.5204,-3.1328,-0.2377,0.3653,1.1065,39.0188,17.8688,8.7563,,0.019007000000000218,3.3568677126154376,3.3547375533399446,non_fall
6.974727,1.4955,0.0684,-2.9185,-0.2377,0.3653,1.1065,39.0188,17.8688,8.7563,,0.019679999999999254,3.280067234067009,3.480635259967272,non_fall
6.98292,1.4955,0.0684,-2.9185,-0.2377,0.3653,1.1065,39.0188,17.8688,8.7563,,0.008193000000000339,3.280067234067009,3.5996135371713383,non_fall
6.993179,1.4955,0.0684,-2.9185,-0.2377,0.3653,1.1065,40.1813,15.3,9.6375,,0.010258999999999574,3.280067234067009,3.71142403000981,non_fall
6.996375,1.4955,0.0684,-2.9185,-0.7985,0.4654,0.8756,40.1813,15.3,9.6375,,0.0031959999999999766,3.280067234067009,3.814864587491288,non_fall
6.997982,2.1429,-0.8501,-2.2784,-0.7985,0.4654,0.8756,40.1813,15.3,9.6375,,0.0016070000000008022,3.2412647192106974,3.9076032091290394,non_fall
7.01225,2.4792,-0.4433,-2.629,-0.7985,0.4654,0.8756,40.1813,15.3,9.6375,,0.014267999999999503,3.6406851731507905,3.9862291406521,non_fall
7.032145,1.8214,-0.4492,-3.3279,-0.7985,0.4654,0.8756,40.1813,15.3,9.6375,,0.019894999999999996,3.8202352034920573,4.046541595518899,non_fall
7.044909,1.8214,-0.4492,-3.3279,-0.7985,0.4654,0.8756,40.1813,15.3,9.6375,,0.012763999999999776,3.8202352034920573,4.084043232724418,non_fall
7.051044,1.2403,-0.3893,-4.8227,-0.7985,0.4654,0.8756,40.1813,15.3,9.6375,,0.006135000000000446,4.994830714849103,4.094563205709381,non_fall
7.054483,1.2403,-0.3893,-4.8227,-0.7985,0.4654,0.8756,40.4438,13.1813,12.1125,,0.003439000000000192,4.994830714849103,4.074901629444583,non_fall
7.057143,1.2403,-0.3893,-4.8227,-1.6768,0.2566,0.481,40.4438,13.1813,12.1125,,0.0026599999999996626,4.994830714849103,4.023373081477903,non_fall
7.069362,0.8271,-0.8754,-4.649,-1.6768,0.2566,0.481,40.4438,13.1813,12.1125,,0.01221899999999998,4.8024598457457195,3.9401403876888086,non_fall
7.08958,0.058,-1.5058,-2.9923,-1.6768,0.2566,0.481,40.4438,13.1813,12.1125,,0.020217999999999847,3.3503219143837506,3.827274151773845,non_fall
7.107971,0.058,-1.5058,-2.9923,-1.6768,0.2566,0.481,40.4438,13.1813,12.1125,,0.018391000000000268,3.3503219143837506,3.6885377382581814,non_fall
7.110868,-0.539,-1.7811,-2.2318,-1.6768,0.2566,0.481,40.4438,13.1813,12.1125,,0.0028969999999999274,2.905816485946764,3.5289596436618282,non_fall
7.113554,-0.539,-1.7811,-2.2318,-1.6768,0.2566,0.481,40.725,10.8,13.7438,,0.002685999999999744,2.905816485946764,3.354293043997633,non_fall
7.118299,-0.539,-1.7811,-2.2318,-2.1839,-0.3311,0.2244,40.725,10.8,13.7438,,0.004745000000000665,2.905816485946764,3.170465927073766,non_fall
7.126706,-0.5524,-2.4626,-2.3734,-2.1839,-0.3311,0.2244,40.725,10.8,13.7438,,0.008407000000000053,3.464472843016669,2.9831013870551204,non_fall
7.145965,-0.7757,-1.9954,-1.1083,-2.1839,-0.3311,0.2244,40.725,10.8,13.7438,,0.019258999999999915,2.4107385880679804,2.7971529316366714,non_fall
7.166103,-1.7512,-1.5083,-0.4521,-2.1839,-0.3311,0.2244,40.725,10.8,13.7438,,0.020137999999999323,2.355008437352189,2.616669823602427,non_fall
7.170115,-1.7512,-1.5083,-0.4521,-2.1839,-0.3311,0.2244,40.725,10.8,13.7438,,0.004012000000000349,2.355008437352189,2.444689484118429,non_fall
7.172123,-1.7512,-1.5083,-0.4521,-2.1839,-0.3311,0.2244,41.475,9.0375,14.6438,,0.0020080000000000098,2.355008437352189,2.2832437511699024,non_fall
7.178553,-1.7512,-1.5083,-0.4521,-1.8466,-0.5107,-0.0345,41.475,9.0375,14.6438,,0.006429999999999936,2.355008437352189,2.1334557438351784,non_fall
7.184696,-1.9787,-1.2196,-1.0485,-1.8466,-0.5107,-0.0345,41.475,9.0375,14.6438,,0.0061429999999997875,2.549907861080474,1.9956934513348303,non_fall
7.203833,-1.7354,-0.4963,-0.3832,-1.8466,-0.5107,-0.0345,41.475,9.0375,14.6438,,0.019137000000000626,1.8452016393879558,1.8697413262420033,non_fall
7.223255,-1.1517,-1.0561,-0.2441,-1.8466,-0.5107,-0.0345,41.475,9.0375,14.6438,,0.019421999999999606,1.5815640707856258,1.7549574626353956,non_fall
7.23241,-1.1517,-1.0561,-0.2441,-1.8466,-0.5107,-0.0345,43.125,7.5563,11.8875,,0.009154999999999802,1.5815640707856258,1.6503994714601948,non_fall
7.23559,-1.1517,-1.0561,-0.2441,-1.8466,-0.5107,-0.0345,43.125,7.5563,11.8875,,0.0031800000000004047,1.5815640707856258,1.5549184297379885,non_fall
7.241393,-1.1517,-1.0561,-0.2441,-1.2077,-0.5387,0.2647,43.125,7.5563,11.8875,,0.005803000000000225,1.5815640707856258,1.4672291122269003,non_fall
7.242851,-0.7256,-1.0301,-0.76,-1.2077,-0.5387,0.2647,43.125,7.5563,11.8875,,0.0014579999999995152,1.4714623236766886,1.3859653370791054,non_fall
7.261779,-0.5143,-0.7083,-0.9565,-1.2077,-0.5387,0.2647,43.125,7.5563,11.8875,,0.018927999999999834,1.296566862911435,1.3097273988283031,non_fall
7.280689,-0.7523,-0.4666,-0.3317,-1.2077,-0.5387,0.2647,43.125,7.5563,11.8875,,0.018909999999999982,0.9453548222757422,1.2371292461418277,non_fall
7.294366,-0.7523,-0.4666,-0.3317,-1.2077,-0.5387,0.2647,42.45,6.825,13.05,,0.013677000000000383,0.9453548222757422,1.1668559299752557,non_fall
7.297419,-0.7523,-0.4666,-0.3317,-1.2077,-0.5387,0.2647,42.45,6.825,13.05,,0.0030529999999995283,0.9453548222757422,1.0977424122688626,non_fall
7.298603,-1.0225,0.1203,0.0262,-1.2077,-0.5387,0.2647,42.45,6.825,13.05,,0.001184000000000296,1.0298858092041077,1.0288789076533298,non_fall
7.30282,-1.0225,0.1203,0.0262,-0.7337,-0.4801,0.1059,42.45,6.825,13.05,,0.004216999999999693,1.0298858092041077,0.9597356216912837,non_fall
7.318269,-1.0645,0.0725,-0.4629,-0.7337,-0.4801,0.1059,42.45,6.825,13.05,,0.015449000000000268,1.1630532704910812,0.8902857710290002,non_fall
7.337763,-0.4356,-0.4244,-0.811,-0.7337,-0.4801,0.1059,42.45,6.825,13.05,,0.0194939999999999,1.0136980418250792,0.8210961631461848,non_fall
7.352346,-0.4356,-0.4244,-0.811,-0.7337,-0.4801,0.1059,42.4875,6.375,12.1125,,0.014583000000000013,1.0136980418250792,0.7533533096561573,non_fall
7.356214,-0.4356,-0.4244,-0.811,-0.7337,-0.4801,0.1059,42.4875,6.375,12.1125,,0.0038679999999997605,1.0136980418250792,0.6888008117516191,non_fall
7.35771,0.0293,-0.1653,-0.6108,-0.7337,-0.4801,0.1059,42.4875,6.375,12.1125,,0.001496000000000386,0.6334502506116798,0.6295788796416728,non_fall
7.364877,0.0293,-0.1653,-0.6108,-0.2706,-0.4752,0.0791,42.4875,6.375,12.1125,,0.007166999999999923,0.6334502506116798,0.5779762810612988,non_fall
7.375838,0.2069,0.093,-0.1537,-0.2706,-0.4752,0.0791,42.4875,6.375,12.1125,,0.010960999999999999,0.27400784660297595,0.536124931391488,non_fall
7.394813,0.0769,-0.0165,-0.0836,-0.2706,-0.4752,0.0791,42.4875,6.375,12.1125,,0.018975000000000186,0.11478161873749645,0.5056831626044209,non_fall
7.411106,0.0769,-0.0165,-0.0836,-0.2706,-0.4752,0.0791,42.2812,6.6375,11.175,,0.016293000000000113,0.11478161873749645,0.48756080198722246,non_fall
7.414628,0.0125,-0.3759,-0.1712,-0.2706,-0.4752,0.0791,42.2812,6.6375,11.175,,0.003522000000000247,0.41323903494224745,0.4817344702203347,non_fall
7.417985,0.0125,-0.3759,-0.1712,-0.2706,-0.4752,0.0791,42.2812,6.6375,11.175,,0.0033569999999993883,0.41323903494224745,0.4871853352192241,non_fall
7.42832,0.0125,-0.3759,-0.1712,0.1594,-0.2053,0.0106,42.2812,6.6375,11.175,,0.010335000000000427,0.41323903494224745,0.5019688109988412,non_fall
7.433142,-0.253,-0.3855,0.0062,0.1594,-0.2053,0.0106,42.2812,6.6375,11.175,,0.004821999999999882,0.46114822996515986,0.5234036772840233,non_fall
7.453314,-0.6267,-0.0518,0.0776,0.1594,-0.2053,0.0106,42.2812,6.6375,11.175,,0.020171999999999635,0.6336070469936395,0.5483517538772898,non_fall
7.472011,-0.6749,0.4379,0.1281,0.1594,-0.2053,0.0106,42.2812,6.6375,11.175,,0.018697000000000408,0.8146508638674608,0.5735490257335638,non_fall
7.476422,-0.6749,0.4379,0.1281,0.1594,-0.2053,0.0106,42.375,6.8625,10.5563,,0.004411000000000165,0.8146508638674608,0.5959438952697513,non_fall
7.481981,-0.6749,0.4379,0.1281,0.1594,-0.2053,0.0106,42.375,6.8625,10.5563,,0.00555899999999987,0.8146508638674608,0.612998652733045,non_fall
7.489735,-0.6749,0.4379,0.1281,0.6212,-0.0135,0.2916,42.375,6.8625,10.5563,,0.0077539999999993725,0.8146508638674608,0.62291768241301,non_fall
7.490802,-0.2666,0.4878,0.0758,0.6212,-0.0135,0.2916,42.375,6.8625,10.5563,,0.0010670000000008173,0.5610437059623787,0.6247796868820094,non_fall
7.509842,-0.13,0.5072,-0.2502,0.6212,-0.0135,0.2916,42.375,6.8625,10.5563,,0.019039999999999502,0.5803032655431124,0.6185679212377618,non_fall
7.529197,0.0541,0.504,-0.2565,0.6212,-0.0135,0.2916,42.375,6.8625,10.5563,,0.01935500000000001,0.5680977556723843,0.6051075722678175,non_fall
7.5332,0.0541,0.504,-0.2565,0.6212,-0.0135,0.2916,42.9938,6.4688,10.2188,,0.004002999999999979,0.5680977556723843,0.5859293941547604,non_fall
7.54282,0.0541,0.504,-0.2565,0.6212,-0.0135,0.2916,42.9938,6.4688,10.2188,,0.009619999999999962,0.5680977556723843,0.563082501662195,non_fall
7.547788,-0.0766,0.541,0.1985,0.6212,-0.0135,0.2916,42.9938,6.4688,10.2188,,0.004967999999999861,0.5813353679245742,0.5389186722223099,non_fall
7.552194,-0.0766,0.541,0.1985,0.3084,0.0733,0.3392,42.9938,6.4688,10.2188,,0.004406000000000354,0.5813353679245742,0.5158686358474108,non_fall
7.567574,-0.2083,0.2495,0.0432,0.3084,0.0733,0.3392,42.9938,6.4688,10.2188,,0.015379999999999505,0.32788013053553583,0.49622979953355006,non_fall
7.586418,-0.0833,-0.2346,-0.0117,0.3084,0.0733,0.3392,42.9938,6.4688,10.2188,,0.018844000000000527,0.24922467775081986,0.48198505853457846,non_fall
7.593071,-0.0833,-0.2346,-0.0117,0.3084,0.0733,0.3392,42.9938,6.075,10.2188,,0.00665300000000002,0.24922467775081986,0.4746720898282841,non_fall
7.605333,-0.0833,-0.2346,-0.0117,0.3084,0.0733,0.3392,42.9938,6.075,10.2188,,0.012261999999999773,0.24922467775081986,0.4753185692861178,non_fall
7.608232,0.1064,-0.5504,0.1465,0.3084,0.0733,0.3392,42.9938,6.075,10.2188,,0.002899000000000207,0.579416404669388,0.4844487515749585,non_fall
7.614334,0.1064,-0.5504,0.1465,0.3622,0.2846,0.2844,42.9938,6.075,10.2188,,0.006102000000000274,0.579416404669388,0.5021519524646152,non_fall
7.626187,0.3021,-0.6132,0.5523,0.3622,0.2846,0.2844,42.9938,6.075,10.2188,,0.011852999999999447,0.8788139393523523,0.5281884540939724,non_fall
7.643131,0.3318,-0.4203,0.8053,0.3622,0.2846,0.2844,42.9938,6.075,10.2188,,0.016944000000000514,0.9670839777392654,0.5620992133566527,non_fall
7.650055,0.3318,-0.4203,0.8053,0.3622,0.2846,0.2844,42.4313,5.8125,9.7125,,0.006923999999999708,0.9670839777392654,0.6032869664543481,non_fall
7.664319,0.016,-0.0387,0.4261,0.3622,0.2846,0.2844,42.4313,5.8125,9.7125,,0.014263999999999832,0.4281528932519316,0.6510492049295304,non_fall
7.667987,0.016,-0.0387,0.4261,0.3622,0.2846,0.2844,42.4313,5.8125,9.7125,,0.0036680000000002266,0.4281528932519316,0.7045650637046786,non_fall
7.676745,0.016,-0.0387,0.4261,0.6383,0.3018,0.2403,42.4313,5.8125,9.7125,,0.008758000000000266,0.4281528932519316,0.7628604296639931,non_fall
7.682198,-0.0339,0.1999,0.2809,0.6383,0.3018,0.2403,42.4313,5.8125,9.7125,,0.005452999999999264,0.34643041148259485,0.8247882026467129,non_fall
7.701195,-0.0062,0.264,0.7837,0.6383,0.3018,0.2403,42.4313,5.8125,9.7125,,0.018997000000000597,0.8269946372256594,0.8890571545722972,non_fall
7.711571,-0.0062,0.264,0.7837,0.6383,0.3018,0.2403,43.8,5.8313,8.85,,0.01037599999999994,0.8269946372256594,0.9543246595066227,non_fall
7.71991,-0.1683,0.1966,1.378,0.6383,0.3018,0.2403,43.8,5.8313,8.85,,0.00833899999999943,1.4020914556475979,1.019343177598194,non_fall
7.72935,-0.1683,0.1966,1.378,0.6383,0.3018,0.2403,43.8,5.8313,8.85,,0.009440000000000559,1.4020914556475979,1.083127113313401,non_fall
7.738715,-0.1683,0.1966,1.378,0.7628,0.2406,0.2647,43.8,5.8313,8.85,,0.009364999999999846,1.4020914556475979,1.1450935996632434,non_fall
7.740713,-0.1723,0.2898,1.698,0.7628,0.2406,0.2647,43.8,5.8313,8.85,,0.0019980000000003884,1.7311485580388528,1.2051322657863845,non_fall
7.758119,-0.1511,0.5673,1.2149,0.7628,0.2406,0.2647,43.8,5.8313,8.85,,0.017405999999999366,1.3493118653595249,1.263574463992465,non_fall
7.771892,-0.1511,0.5673,1.2149,0.7628,0.2406,0.2647,42.8063,6.075,10.2188,,0.01377300000000048,1.3493118653595249,1.3210571283789216,non_fall
7.777525,-0.1567,0.9624,0.367,0.7628,0.2406,0.2647,42.8063,6.075,10.2188,,0.005632999999999555,1.0418529886697068,1.378304058311143,non_fall
7.790347,-0.1567,0.9624,0.367,0.7628,0.2406,0.2647,42.8063,6.075,10.2188,,0.012821999999999889,1.0418529886697068,1.435870874995414,non_fall
7.79592,0.2091,1.139,-0.1623,0.7628,0.2406,0.2647,42.8063,6.075,10.2188,,0.00557300000000005,1.169352427628215,1.4939121565302602,non_fall
7.801768,0.2091,1.139,-0.1623,0.8374,0.3006,0.2659,42.8063,6.075,10.2188,,0.005848000000000297,1.169352427628215,1.5520260487978792,non_fall
7.815854,0.6743,1.4106,-0.0594,0.8374,0.3006,0.2659,42.8063,6.075,10.2188,,0.014085999999999821,1.5646089639267697,1.6092139964504002,non_fall
7.830309,0.6743,1.4106,-0.0594,0.8374,0.3006,0.2659,42.8063,5.9625,10.3313,,0.014454999999999885,1.5646089639267697,1.6639668578027458,non_fall
7.835087,0.9037,1.5,0.3288,0.8374,0.3006,0.2659,42.8063,5.9625,10.3313,,0.004777999999999949,1.7817921118918447,1.714461023384919,non_fall
7.854094,0.9037,1.5,0.3288,0.8374,0.3006,0.2659,42.8063,5.9625,10.3313,,0.019007000000000218,1.7817921118918447,1.7588254929004732,non_fall
7.857231,0.6527,2.0747,0.8746,0.8374,0.3006,0.2659,42.8063,5.9625,10.3313,,0.0031369999999997233,2.3442104299742375,1.7954265337014994,non_fall
7.863202,0.6527,2.0747,0.8746,0.8716,0.2443,0.1768,42.8063,5.9625,10.3313,,0.005971000000000615,2.3442104299742375,1.8231115967652973,non_fall
7.873046,-0.1183,1.9714,0.675,0.8716,0.2443,0.1768,42.8063,5.9625,10.3313,,0.009844000000000186,2.087112323283057,1.8413597382496751,non_fall
7.891046,-0.1183,1.9714,0.675,0.8716,0.2443,0.1768,42.5063,5.9438,10.8563,,0.017999999999999794,2.087112323283057,1.850303454949735,non_fall
7.892756,-1.0213,1.6741,-0.0476,0.8716,0.2443,0.1768,42.5063,5.9438,10.8563,,0.0017100000000001003,1.961614197542422,1.8506150280706732,non_fall
7.91136,-0.5788,1.3333,-0.2154,0.8716,0.2443,0.1768,42.5063,5.9438,10.8563,,0.018603999999999843,1.4693860928973024,1.8432823690968632,non_fall
7.915661,-0.5788,1.3333,-0.2154,0.8716,0.2443,0.1768,42.5063,5.9438,10.8563,,0.004300999999999888,1.4693860928973024,1.8293261902705584,non_fall
7.927698,-0.5788,1.3333,-0.2154,0.6053,0.2944,0.2623,42.5063,5.9438,10.8563,,0.012037000000000297,1.4693860928973024,1.809525295898086,non_fall
7.93175,-0.2825,1.2624,0.0347,0.6053,0.2944,0.2623,42.5063,5.9438,10.8563,,0.0040519999999997225,1.29408813455653,1.784216219264603,non_fall
7.94976,0.092,1.4802,0.175,0.6053,0.2944,0.2623,42.5063,5.9438,10.8563,,0.018010000000000304,1.4933455862592557,1.753217443983153,non_fall
7.951558,0.092,1.4802,0.175,0.6053,0.2944,0.2623,43.125,5.3625,10.425,,0.0017979999999999663,1.4933455862592557,1.7159012839478793,non_fall
7.973749,-0.1738,1.8461,-0.0316,0.6053,0.2944,0.2623,43.125,5.3625,10.425,,0.022190999999999406,1.8545323426675526,1.6714044416573497,non_fall
7.976631,-0.1738,1.8461,-0.0316,0.6053,0.2944,0.2623,43.125,5.3625,10.425,,0.0028820000000004953,1.8545323426675526,1.6189377239367158,non_fall
7.985834,-0.1738,1.8461,-0.0316,0.5748,0.2383,0.1181,43.125,5.3625,10.425,,0.009202999999999406,1.8545323426675526,1.5581326599675807,non_fall
7.986656,-0.3405,1.6858,-0.6174,0.5748,0.2383,0.1181,43.125,5.3625,10.425,,0.0008220000000003225,1.827305297425693,1.4893529764345879,non_fall
8.006838,-0.3356,1.6939,-0.7498,0.5748,0.2383,0.1181,43.125,5.3625,10.425,,0.020182000000000144,1.8825845558699348,1.4139037064587117,non_fall
8.010973,-0.3356,1.6939,-0.7498,0.5748,0.2383,0.1181,42.3188,5.7375,11.0625,,0.004134999999999778,1.8825845558699348,1.334087984054039,non_fall
8.026163,-0.1478,1.0795,-0.362,0.5748,0.2383,0.1181,42.3188,5.7375,11.0625,,0.015190000000000481,1.1481328712305034,1.2530878111223065,non_fall
8.040227,-0.1478,1.0795,-0.362,0.5748,0.2383,0.1181,42.3188,5.7375,11.0625,,0.01406399999999941,1.1481328712305034,1.1746768524558018,non_fall
8.045426,-0.1641,0.8918,0.1129,0.5748,0.2383,0.1181,42.3188,5.7375,11.0625,,0.005199000000001064,0.9137737466134601,1.1028053128931758,non_fall
8.051122,-0.1641,0.8918,0.1129,0.3084,0.2053,0.1206,42.3188,5.7375,11.0625,,0.005695999999998591,0.9137737466134601,1.0411214301467786,non_fall
8.064763,0.0341,0.4399,-0.1537,0.3084,0.2053,0.1206,42.3188,5.7375,11.0625,,0.013640999999999792,0.4672242609283041,0.9925052634712511,non_fall
8.070768,0.0341,0.4399,-0.1537,0.3084,0.2053,0.1206,42.3563,5.1375,11.3813,,0.006005000000000038,0.4672242609283041,0.9586879065291387,non_fall
8.083556,0.219,0.3705,-0.6097,0.3084,0.2053,0.1206,42.3563,5.1375,11.3813,,0.012788000000000466,0.7463011054527523,0.9400153893302149,non_fall
8.102213,0.219,0.3705,-0.6097,0.3084,0.2053,0.1206,42.3563,5.1375,11.3813,,0.018657000000001034,0.7463011054527523,0.9353931276304623,non_fall
8.103659,0.2825,0.4931,-0.9031,0.3084,0.2053,0.1206,42.3563,5.1375,11.3813,,0.0014459999999996143,1.0670255245306928,0.9424167930433625,non_fall
8.111943,0.2825,0.4931,-0.9031,0.4428,0.3299,0.0241,42.3563,5.1375,11.3813,,0.008283999999999736,1.0670255245306928,0.9576654513399828,non_fall
8.121428,0.1692,0.7337,-0.7323,0.4428,0.3299,0.0241,42.3563,5.1375,11.3813,,0.009484999999999744,1.0503369078538562,0.9771102325867312,non_fall
8.131196,0.1692,0.7337,-0.7323,0.4428,0.3299,0.0241,42.225,5.7,12.0,,0.009767999999999333,1.0503369078538562,0.99658053330299,non_fall
8.140473,0.1392,1.1173,-0.1773,0.4428,0.3299,0.0241,42.225,5.7,12.0,,0.009277000000000868,1.1398119230820494,1.0122286724461982,non_fall
8.160202,0.0294,1.3132,0.1516,0.4428,0.3299,0.0241,42.225,5.7,12.0,,0.019728999999999886,1.3222485242948845,1.0209390103715157,non_fall
8.164632,0.0294,1.3132,0.1516,0.4428,0.3299,0.0241,42.225,5.7,12.0,,0.004429999999999268,1.3222485242948845,1.020635524727628,non_fall
8.173527,0.0294,1.3132,0.1516,0.2864,0.1991,0.0571,42.225,5.7,12.0,,0.008895000000000763,1.3222485242948845,1.010452580105747,non_fall
