time,ax,ay,az,wx,wy,wz,Bx,By,Bz,Unnamed: 10,time_diff,acc_mag,acc_mag_filtered,label
0.011026,0.0,0.0,0.0,0.0,0.0,0.0,0.0,0.0,0.0,,0.0,0.0,0.00023473325360974084,non_fall
0.026915,0.0872,-0.2745,-0.056,0.0,0.0,0.0,0.0,0.0,0.0,,0.015889,0.29341112794166485,0.051425685901002285,non_fall
0.045769,0.1563,-0.2602,-0.0485,0.0,0.0,0.0,0.0,0.0,0.0,,0.018853999999999996,0.30738571860123887,0.1010154564334216,non_fall
0.059547,0.1563,-0.2602,-0.0485,0.0,0.0,0.0,0.0,0.0,0.0,,0.013778000000000006,0.30738571860123887,0.14732668733327778,non_fall
0.06351,0.1563,-0.2602,-0.0485,0.0216,-0.0085,-0.0129,0.0,0.0,0.0,,0.003962999999999994,0.30738571860123887,0.18895371178312903,non_fall
0.064508,0.1775,-0.2145,-0.114,0.0216,-0.0085,-0.0129,0.0,0.0,0.0,,0.0009979999999999989,0.30085295411546153,0.22486073644992363,non_fall
0.067073,0.1775,-0.2145,-0.114,0.0216,-0.0085,-0.0129,42.4313,7.5563,16.95,,0.002564999999999998,0.30085295411546153,0.25443003061718195,non_fall
0.084079,0.1149,-0.1356,-0.1305,0.0216,-0.0085,-0.0129,42.4313,7.5563,16.95,,0.017006000000000007,0.2204985714239437,0.27746083296155083,non_fall
0.103602,0.0425,-0.1558,-0.1563,0.0216,-0.0085,-0.0129,42.4313,7.5563,16.95,,0.019523,0.2247433647518876,0.2941271069900232,non_fall
0.107329,0.0425,-0.1558,-0.1563,0.0216,-0.0085,-0.0129,42.4313,7.5563,16.95,,0.003726999999999994,0.2247433647518876,0.30490690038868923,non_fall
0.121985,0.0652,-0.2053,-0.1328,0.0216,-0.0085,-0.0129,42.4313,7.5563,16.95,,0.014656000000000002,0.25305131890586935,0.310497665495372,non_fall
0.129157,0.0652,-0.2053,-0.1328,-0.0027,0.0037,0.0055,42.4313,7.5563,16.95,,0.007171999999999998,0.25305131890586935,0.31173071069750097,non_fall
0.130195,0.0652,-0.2053,-0.1328,-0.0027,0.0037,0.0055,42.4313,7.3125,17.5688,,0.0010380000000000111,0.25305131890586935,0.30949482515401977,non_fall
0.141821,0.0122,-0.2639,-0.1319,-0.0027,0.0037,0.0055,42.4313,7.3125,17.5688,,0.011625999999999997,0.2952789528564473,0.3046751703187451,non_fall
0.155087,0.0122,-0.2639,-0.1319,-0.0027,0.0037,0.0055,42.4313,7.3125,17.5688,,0.013266,0.2952789528564473,0.29810962204478403,non_fall
0.162482,0.002,-0.3312,-0.0738,-0.0027,0.0037,0.0055,42.4313,7.3125,17.5688,,0.007394999999999985,0.3393285723307131,0.29056138840724677,non_fall
0.179567,0.0248,-0.2942,-0.0769,-0.0027,0.0037,0.0055,42.4313,7.3125,17.5688,,0.017085000000000017,0.3050939035772429,0.2827043170002808,non_fall
0.188193,0.0248,-0.2942,-0.0769,-0.0027,0.0037,0.0055,42.3375,7.3313,17.4563,,0.008625999999999995,0.3050939035772429,0.27511617133707617,non_fall
0.191254,0.0248,-0.2942,-0.0769,0.0412,0.0245,0.0067,42.3375,7.3313,17.4563,,0.003061000000000008,0.3050939035772429,0.268275354566093,non_fall
0.197921,-0.0047,-0.2375,-0.1485,0.0412,0.0245,0.0067,42.3375,7.3313,17.4563,,0.006667000000000006,0.28014387375061406,0.26255776752170085,non_fall
0.202853,-0.0047,-0.2375,-0.1485,0.0412,0.0245,0.0067,42.3375,7.3313,17.4563,,0.004931999999999992,0.28014387375061406,0.2582322095332403,non_fall
0.218639,0.0249,-0.1456,-0.2038,0.0412,0.0245,0.0067,42.3375,7.3313,17.4563,,0.015785999999999994,0.2517018275658721,0.25545456358448,non_fall
0.238643,0.0459,-0.1266,-0.1578,0.0412,0.0245,0.0067,42.3375,7.3313,17.4563,,0.020003999999999994,0.20744929500964807,0.25426268730392954,non_fall
0.251111,0.0459,-0.1266,-0.1578,0.0412,0.0245,0.0067,42.4125,7.6313,17.3625,,0.012467999999999979,0.20744929500964807,0.2545751829303358,non_fall
0.254194,0.0459,-0.1266,-0.1578,0.0412,0.0245,0.0067,42.4125,7.6313,17.3625,,0.0030830000000000024,0.20744929500964807,0.2561976807106028,non_fall
0.256385,0.0459,-0.1266,-0.1578,0.018,0.0367,0.0018,42.4125,7.6313,17.3625,,0.0021909999999999985,0.20744929500964807,0.25883962681438016,non_fall
0.258648,0.033,-0.1794,-0.0835,0.018,0.0367,0.0018,42.4125,7.6313,17.3625,,0.002263000000000015,0.20061308531598832,0.2621427927404118,non_fall
0.274801,-0.067,-0.2318,-0.1394,0.018,0.0367,0.0018,42.4125,7.6313,17.3625,,0.01615300000000003,0.278662161048105,0.26572013088003915,non_fall
0.294534,-0.1149,-0.2586,-0.2196,0.018,0.0367,0.0018,42.4125,7.6313,17.3625,,0.019733,0.35819007523939017,0.26920068759563526,non_fall
0.298369,-0.1149,-0.2586,-0.2196,0.018,0.0367,0.0018,42.4125,7.6313,17.3625,,0.0038349999999999773,0.35819007523939017,0.2722737349647401,non_fall
0.309063,-0.1149,-0.2586,-0.2196,0.018,0.0367,0.0018,42.7125,7.425,17.4563,,0.010693999999999981,0.35819007523939017,0.2747240489825463,non_fall
0.31191,-0.1149,-0.2586,-0.2196,-0.0102,0.0245,-0.0043,42.7125,7.425,17.4563,,0.002847000000000044,0.35819007523939017,0.27645118280975334,non_fall
0.312728,-0.1273,-0.2149,-0.1738,-0.0102,0.0245,-0.0043,42.7125,7.425,17.4563,,0.0008179999999999854,0.3042921951020105,0.27746870025521775,non_fall
0.332331,-0.0639,-0.1524,-0.1389,-0.0102,0.0245,-0.0043,42.7125,7.425,17.4563,,0.01960299999999998,0.2158753807176724,0.2778837699261621,non_fall
0.347834,-0.0639,-0.1524,-0.1389,-0.0102,0.0245,-0.0043,42.7125,7.425,17.4563,,0.015502999999999989,0.2158753807176724,0.2778619622429509,non_fall
0.354132,-0.0151,-0.1708,-0.1248,-0.0102,0.0245,-0.0043,42.7125,7.425,17.4563,,0.006298000000000026,0.2120747273957932,0.27758524037261845,non_fall
0.368641,-0.0151,-0.1708,-0.1248,-0.0102,0.0245,-0.0043,42.4125,7.7063,17.6625,,0.014508999999999994,0.2120747273957932,0.27721206887861044,non_fall
0.371749,0.0026,-0.1986,-0.1469,-0.0102,0.0245,-0.0043,42.4125,7.7063,17.6625,,0.0031079999999999997,0.24703912645570944,0.27684716576513496,non_fall
0.374705,0.0026,-0.1986,-0.1469,-0.0015,0.0158,0.003,42.4125,7.7063,17.6625,,0.002956000000000014,0.24703912645570944,0.276525434849322,non_fall
0.389554,-0.0406,-0.2742,-0.1432,-0.0015,0.0158,0.003,42.4125,7.7063,17.6625,,0.014849000000000001,0.3119939743007868,0.27621110826215334,non_fall
0.396155,-0.0406,-0.2742,-0.1432,-0.0015,0.0158,0.003,42.4125,7.7063,17.6625,,0.006600999999999968,0.3119939743007868,0.27581001101921254,non_fall
0.409482,-0.0526,-0.2824,-0.0756,-0.0015,0.0158,0.003,42.4125,7.7063,17.6625,,0.013327000000000033,0.2970385160210709,0.2751907659949948,non_fall
0.427842,-0.0642,-0.2758,-0.043,-0.0015,0.0158,0.003,42.4125,7.7063,17.6625,,0.018359999999999987,0.2864197618880373,0.2742100306424713,non_fall
0.42914,-0.0642,-0.2758,-0.043,-0.0015,0.0158,0.003,42.8063,7.8188,17.4563,,0.0012980000000000214,0.2864197618880373,0.2727373964323353,non_fall
0.439772,-0.0642,-0.2758,-0.043,0.0106,-0.0025,-0.0007,42.8063,7.8188,17.4563,,0.010631999999999975,0.2864197618880373,0.27067684294477756,non_fall
0.441346,-0.0642,-0.2758,-0.043,0.0106,-0.0025,-0.0007,42.8063,7.8188,17.4563,,0.0015740000000000198,0.2864197618880373,0.2679829996905819,non_fall
0.447609,-0.0541,-0.2135,-0.0694,0.0106,-0.0025,-0.0007,42.8063,7.8188,17.4563,,0.006262999999999963,0.23092297417104257,0.2646716235364484,non_fall
0.466723,0.0063,-0.1706,-0.0998,0.0106,-0.0025,-0.0007,42.8063,7.8188,17.4563,,0.01911400000000002,0.19774754107194353,0.26082460074069097,non_fall
0.485886,-0.0058,-0.2504,-0.1169,0.0106,-0.0025,-0.0007,42.8063,7.8188,17.4563,,0.019162999999999986,0.27640443194710174,0.2565902831625077,non_fall
0.488558,-0.0058,-0.2504,-0.1169,0.0106,-0.0025,-0.0007,42.1313,7.4063,17.9813,,0.0026720000000000077,0.27640443194710174,0.2521797706971092,non_fall
0.491893,-0.0058,-0.2504,-0.1169,0.0106,-0.0025,-0.0007,42.1313,7.4063,17.9813,,0.0033350000000000324,0.27640443194710174,0.24785888069106318,non_fall
0.498207,-0.0058,-0.2504,-0.1169,-0.0027,-0.0159,-0.0092,42.1313,7.4063,17.9813,,0.006313999999999986,0.27640443194710174,0.24393465447847623,non_fall
0.504314,0.0667,-0.2683,-0.0874,-0.0027,-0.0159,-0.0092,42.1313,7.4063,17.9813,,0.006107000000000029,0.28995265130707115,0.24073513685300188,non_fall
0.523466,0.0319,-0.2239,-0.0747,-0.0027,-0.0159,-0.0092,42.1313,7.4063,17.9813,,0.019151999999999947,0.23817831555370442,0.23858207664647332,non_fall
0.538362,0.0319,-0.2239,-0.0747,-0.0027,-0.0159,-0.0092,42.1313,7.4063,17.9813,,0.01489600000000002,0.23817831555370442,0.23775782032919188,non_fall
0.543149,0.0732,-0.1888,-0.0271,-0.0027,-0.0159,-0.0092,42.1313,7.4063,17.9813,,0.004786999999999986,0.20429902104513373,0.2384694907895284,non_fall
0.549905,0.0732,-0.1888,-0.0271,-0.0027,-0.0159,-0.0092,41.8313,7.5188,17.7938,,0.006755999999999984,0.20429902104513373,0.2408150165427581,non_fall
0.56127,0.0732,-0.1888,-0.0271,0.0033,-0.0135,-0.0055,41.8313,7.5188,17.7938,,0.01136500000000007,0.20429902104513373,0.24475622560578084,non_fall
0.562631,0.0504,-0.2205,-0.083,0.0033,-0.0135,-0.0055,41.8313,7.5188,17.7938,,0.0013609999999999456,0.24093445166683822,0.25010382361567435,non_fall
0.581446,-0.0085,-0.2095,-0.0517,0.0033,-0.0135,-0.0055,41.8313,7.5188,17.7938,,0.018815000000000026,0.21595228639678718,0.25651777843991647,non_fall
0.584968,-0.0085,-0.2095,-0.0517,0.0033,-0.0135,-0.0055,41.8313,7.5188,17.7938,,0.003522000000000025,0.21595228639678718,0.263524826363859,non_fall
0.600552,0.0211,-0.239,-0.0591,0.0033,-0.0135,-0.0055,41.8313,7.5188,17.7938,,0.015583999999999931,0.24710123431500702,0.2705528648855592,non_fall
0.609141,0.0211,-0.239,-0.0591,0.0033,-0.0135,-0.0055,42.525,7.5563,16.9313,,0.008589000000000069,0.24710123431500702,0.276980012470348,non_fall
0.619966,0.0094,-0.3251,-0.0426,0.0033,-0.0135,-0.0055,42.525,7.5563,16.9313,,0.010824999999999974,0.32801391738766206,0.2821940562311649,non_fall
0.623145,0.0094,-0.3251,-0.0426,0.0192,-0.0049,0.0078,42.525,7.5563,16.9313,,0.003178999999999932,0.32801391738766206,0.28565603975160053,non_fall
0.632977,0.0094,-0.3251,-0.0426,0.0192,-0.0049,0.0078,42.525,7.5563,16.9313,,0.009832000000000063,0.32801391738766206,0.28696036665003943,non_fall
0.638076,-0.0154,-0.3601,-0.0283,0.0192,-0.0049,0.0078,42.525,7.5563,16.9313,,0.005098999999999965,0.3615384626841243,0.2858835692860744,non_fall
0.658853,0.008,-0.3159,-0.0384,0.0192,-0.0049,0.0078,42.525,7.5563,16.9313,,0.020777000000000045,0.31832588647485144,0.2824150344996278,non_fall
0.667457,0.008,-0.3159,-0.0384,0.0192,-0.0049,0.0078,42.4313,7.425,17.3625,,0.008603999999999945,0.31832588647485144,0.2767652551389359,non_fall
0.676399,0.0787,-0.2596,-0.0419,0.0192,-0.0049,0.0078,42.4313,7.425,17.3625,,0.008942000000000005,0.2744839886040714,0.269350106155044,non_fall
0.68126,0.0787,-0.2596,-0.0419,0.0192,-0.0049,0.0078,42.4313,7.425,17.3625,,0.004861000000000004,0.2744839886040714,0.2607526979772887,non_fall
0.685544,0.0787,-0.2596,-0.0419,0.0278,0.0085,0.0165,42.4313,7.425,17.3625,,0.0042840000000000655,0.2744839886040714,0.2516670530433096,non_fall
0.696272,0.0812,-0.1986,-0.0093,0.0278,0.0085,0.0165,42.4313,7.425,17.3625,,0.01072799999999996,0.21476007543302827,0.24282988841516837,non_fall
0.716935,0.071,-0.1473,-0.0266,0.0278,0.0085,0.0165,42.4313,7.425,17.3625,,0.020662999999999987,0.16566789067287602,0.23494813605495823,non_fall
0.729498,0.071,-0.1473,-0.0266,0.0278,0.0085,0.0165,42.6,7.8188,17.5688,,0.01256299999999999,0.16566789067287602,0.22863048776732464,non_fall
0.732402,0.071,-0.1473,-0.0266,0.0278,0.0085,0.0165,42.6,7.8188,17.5688,,0.0029040000000000177,0.16566789067287602,0.22433095603608388,non_fall
0.73485,0.0253,-0.1828,-0.0754,0.0278,0.0085,0.0165,42.6,7.8188,17.5688,,0.0024480000000000057,0.19935167418409105,0.22231087014202947,non_fall
0.74718,0.0253,-0.1828,-0.0754,0.0033,0.0403,0.008,42.6,7.8188,17.5688,,0.012329999999999952,0.19935167418409105,0.22262299553682574,non_fall
0.752778,-0.0356,-0.2383,-0.0503,0.0033,0.0403,0.008,42.6,7.8188,17.5688,,0.005597999999999992,0.2461388632459328,0.22511825645375697,non_fall
0.772318,-0.0118,-0.2325,-0.0586,0.0033,0.0403,0.008,42.6,7.8188,17.5688,,0.019540000000000002,0.24006134632630885,0.22947268927935832,non_fall
0.777205,-0.0118,-0.2325,-0.0586,0.0033,0.0403,0.008,42.6,7.8188,17.5688,,0.004887000000000086,0.24006134632630885,0.235230309459207,non_fall
0.788438,-0.0118,-0.2325,-0.0586,0.0033,0.0403,0.008,42.525,7.3125,17.775,,0.011232999999999937,0.24006134632630885,0.24185667939334096,non_fall
0.791644,-0.0523,-0.2318,-0.054,0.0033,0.0403,0.008,42.525,7.3125,17.775,,0.003206000000000042,0.24368530936435212,0.2487978910399561,non_fall
0.810851,-0.0523,-0.2318,-0.054,0.0058,0.0452,0.0153,42.525,7.3125,17.775,,0.019206999999999974,0.24368530936435212,0.25553997176210674,non_fall
0.81177,-0.0456,-0.2709,-0.0806,0.0058,0.0452,0.0153,42.525,7.3125,17.775,,0.0009190000000000031,0.286290988331802,0.2616639684732158,non_fall
0.824497,-0.0456,-0.2709,-0.0806,0.0058,0.0452,0.0153,42.525,7.3125,17.775,,0.012727000000000044,0.286290988331802,0.2668920107520789,non_fall
0.83012,-0.0756,-0.3258,-0.0643,0.0058,0.0452,0.0153,42.525,7.3125,17.775,,0.005622999999999934,0.34058110634619765,0.2711196617425672,non_fall
0.848397,-0.0756,-0.3258,-0.0643,0.0058,0.0452,0.0153,42.1125,7.9125,17.775,,0.018276999999999988,0.34058110634619765,0.2744302186004403,non_fall
0.851298,-0.0864,-0.3068,-0.0853,0.0058,0.0452,0.0153,42.1125,7.9125,17.775,,0.0029010000000000424,0.32995043567178395,0.2770877424009336,non_fall
0.867646,-0.1193,-0.2124,-0.1436,0.0058,0.0452,0.0153,42.1125,7.9125,17.775,,0.01634800000000003,0.28278474145540455,0.2795077074061782,non_fall
0.873766,-0.1193,-0.2124,-0.1436,0.0058,0.0452,0.0153,42.1125,7.9125,17.775,,0.006120000000000014,0.28278474145540455,0.2822070657665321,non_fall
0.874559,-0.1193,-0.2124,-0.1436,-0.0065,0.033,0.0115,42.1125,7.9125,17.775,,0.0007929999999999326,0.28278474145540455,0.28573856664060926,non_fall
0.887714,-0.0011,-0.1735,-0.1386,-0.0065,0.033,0.0115,42.1125,7.9125,17.775,,0.013155000000000028,0.22206625137557484,0.2906165523691931,non_fall
0.906624,0.261,-0.0992,-0.0391,-0.0065,0.033,0.0115,42.1125,7.9125,17.775,,0.018909999999999982,0.2819405079090268,0.29724269177664453,non_fall
0.909942,0.261,-0.0992,-0.0391,-0.0065,0.033,0.0115,42.1313,7.5188,17.6813,,0.003318000000000043,0.2819405079090268,0.30584012839182473,non_fall
0.919689,0.261,-0.0992,-0.0391,-0.0065,0.033,0.0115,42.1313,7.5188,17.6813,,0.00974699999999995,0.2819405079090268,0.3164035106083372,non_fall
0.925305,0.2798,-0.1141,0.0886,-0.0065,0.033,0.0115,42.1313,7.5188,17.6813,,0.005616000000000065,0.31489174330236097,0.32867071750556254,non_fall
0.93398,0.2798,-0.1141,0.0886,-0.0382,0.1381,0.0323,42.1313,7.5188,17.6813,,0.008674999999999988,0.31489174330236097,0.3421202573980814,non_fall
0.944946,0.1473,-0.1716,0.071,-0.0382,0.1381,0.0323,42.1313,7.5188,17.6813,,0.01096599999999992,0.23703343645992225,0.35599655390123275,non_fall
0.964351,-0.1346,-0.2795,0.042,-0.0382,0.1381,0.0323,42.1313,7.5188,17.6813,,0.019405000000000006,0.31305176888176184,0.36936353547446643,non_fall
0.968199,-0.1346,-0.2795,0.042,-0.0382,0.1381,0.0323,42.1313,7.5188,17.6813,,0.0038480000000000736,0.31305176888176184,0.38118468642318665,non_fall
0.970321,-0.1346,-0.2795,0.042,-0.0382,0.1381,0.0323,42.1313,7.3688,18.5063,,0.0021219999999999573,0.31305176888176184,0.39042457358533106,non_fall
0.983104,-0.3468,-0.3771,0.0832,-0.0382,0.1381,0.0323,42.1313,7.3688,18.5063,,0.012782999999999989,0.5190345749562355,0.3961628819882468,non_fall
0.995963,-0.3468,-0.3771,0.0832,-0.0162,0.1233,0.036,42.1313,7.3688,18.5063,,0.012859000000000065,0.5190345749562355,0.3977079392230959,non_fall
1.00195,-0.328,-0.4615,0.0443,-0.0162,0.1233,0.036,42.1313,7.3688,18.5063,,0.0059869999999998536,0.5679161381753471,0.39469392965746486,non_fall
1.016534,-0.328,-0.4615,0.0443,-0.0162,0.1233,0.036,42.1313,7.3688,18.5063,,0.014584000000000152,0.5679161381753471,0.38714601378094204,non_fall
1.021117,-0.2367,-0.3107,0.0636,-0.0162,0.1233,0.036,42.1313,7.3688,18.5063,,0.004583000000000004,0.3957351892364387,0.3755012538283266,non_fall
1.027725,-0.2367,-0.3107,0.0636,-0.0162,0.1233,0.036,42.0375,6.9938,18.3,,0.006607999999999947,0.3957351892364387,0.36058006476649684,non_fall
1.040159,-0.1537,-0.2582,0.0952,-0.0162,0.1233,0.036,42.0375,6.9938,18.3,,0.012434000000000056,0.31520464780837226,0.34351097695689636,non_fall
1.058796,-0.1537,-0.2582,0.0952,-0.0137,0.0488,0.014,42.0375,6.9938,18.3,,0.018637000000000015,0.31520464780837226,0.3256185553554533,non_fall
1.059789,-0.0585,-0.1966,0.1111,-0.0137,0.0488,0.014,42.0375,6.9938,18.3,,0.0009930000000000216,0.23327455926439986,0.30828889617367905,non_fall
1.063431,-0.0585,-0.1966,0.1111,-0.0137,0.0488,0.014,42.0375,6.9938,18.3,,0.003641999999999923,0.23327455926439986,0.292829008203266,non_fall
1.079624,-0.0189,-0.1731,0.0503,-0.0137,0.0488,0.014,42.0375,6.9938,18.3,,0.016192999999999902,0.18124819999106198,0.2803361174119145,non_fall
1.089411,-0.0189,-0.1731,0.0503,-0.0137,0.0488,0.014,41.9438,6.975,18.6188,,0.00978699999999999,0.18124819999106198,0.2715910193624715,non_fall
1.098345,0.0505,-0.1808,-0.0345,-0.0137,0.0488,0.014,41.9438,6.975,18.6188,,0.008933999999999997,0.19086419255585893,0.2669863307751567,non_fall
1.111737,0.0505,-0.1808,-0.0345,-0.0137,0.0488,0.014,41.9438,6.975,18.6188,,0.01339200000000007,0.19086419255585893,0.2664961344775731,non_fall
1.118881,-0.008,-0.2651,-0.1,-0.0137,0.0488,0.014,41.9438,6.975,18.6188,,0.007144000000000039,0.2834466616490658,0.269688499579314,non_fall
1.122018,-0.008,-0.2651,-0.1,-0.0003,0.0012,0.0263,41.9438,6.975,18.6188,,0.0031369999999999454,0.2834466616490658,0.27577730953629037,non_fall
1.135982,-0.0493,-0.3239,-0.1488,-0.0003,0.0012,0.0263,41.9438,6.975,18.6188,,0.013964000000000087,0.35983765784030997,0.2837055205160946,non_fall
1.147645,-0.0493,-0.3239,-0.1488,-0.0003,0.0012,0.0263,41.9438,6.975,18.7125,,0.011662999999999979,0.35983765784030997,0.2922491831847867,non_fall
1.15491,-0.0346,-0.3026,-0.1391,-0.0003,0.0012,0.0263,41.9438,6.975,18.7125,,0.007265000000000077,0.33483239090625627,0.30013079700407747,non_fall
1.159434,-0.0346,-0.3026,-0.1391,-0.0003,0.0012,0.0263,41.9438,6.975,18.7125,,0.0045239999999999725,0.33483239090625627,0.30613179108323596,non_fall
1.173604,0.0292,-0.3029,-0.12,-0.0003,0.0012,0.0263,41.9438,6.975,18.7125,,0.014170000000000016,0.32711014964381646,0.3091965145284122,non_fall
1.184781,0.0292,-0.3029,-0.12,-0.0285,-0.0378,-0.0324,41.9438,6.975,18.7125,,0.011176999999999992,0.32711014964381646,0.3085231250660541,non_fall
1.192666,-0.0274,-0.1994,0.0981,-0.0285,-0.0378,-0.0324,41.9438,6.975,18.7125,,0.00788499999999992,0.2239078605140963,0.3036393862044694,non_fall
1.207251,-0.0274,-0.1994,0.0981,-0.0285,-0.0378,-0.0324,41.9438,6.975,18.7125,,0.01458500000000007,0.2239078605140963,0.29446318303374663,non_fall
1.209899,-0.0274,-0.1994,0.0981,-0.0285,-0.0378,-0.0324,42.3563,6.3563,18.9,,0.0026479999999999837,0.2239078605140963,0.281348218800837,non_fall
1.212533,0.0749,-0.285,0.0718,-0.0285,-0.0378,-0.0324,42.3563,6.3563,18.9,,0.002634000000000025,0.3032989449371692,0.26511451126421204,non_fall
1.231548,0.1527,-0.226,-0.0156,-0.0285,-0.0378,-0.0324,42.3563,6.3563,18.9,,0.019015000000000004,0.2731970900284262,0.2470610812002838,non_fall
1.244608,0.1527,-0.226,-0.0156,-0.0395,-0.0268,-0.0483,42.3563,6.3563,18.9,,0.01305999999999985,0.2731970900284262,0.22895560223999617,non_fall
1.252187,0.2137,-0.1792,-0.0235,-0.0395,-0.0268,-0.0483,42.3563,6.3563,18.9,,0.007579000000000002,0.27987958124879353,0.2129941124404877,non_fall
1.254119,0.2137,-0.1792,-0.0235,-0.0395,-0.0268,-0.0483,42.3563,6.3563,18.9,,0.0019320000000000448,0.27987958124879353,0.20172393178942166,non_fall
1.267705,0.2137,-0.1792,-0.0235,-0.0395,-0.0268,-0.0483,42.2438,6.9563,18.7125,,0.013586000000000098,0.27987958124879353,0.19792460504873016,non_fall
1.273092,0.2288,-0.2848,-0.0742,-0.0395,-0.0268,-0.0483,42.2438,6.9563,18.7125,,0.005386999999999809,0.3727815982582831,0.20444462220228485,non_fall
1.290019,0.1282,-0.342,-0.0018,-0.0395,-0.0268,-0.0483,42.2438,6.9563,18.7125,,0.016927000000000136,0.36524304237041944,0.22399570012756398,non_fall
1.303003,0.1282,-0.342,-0.0018,-0.0395,-0.0268,-0.0483,42.2438,6.9563,18.7125,,0.012983999999999885,0.36524304237041944,0.258911663073514,non_fall
1.307178,0.1282,-0.342,-0.0018,-0.0223,0.0355,-0.0238,42.2438,6.9563,18.7125,,0.00417500000000004,0.36524304237041944,0.31088555197468076,non_fall
1.308132,0.0902,-0.3031,0.06,-0.0223,0.0355,-0.0238,42.2438,6.9563,18.7125,,0.0009540000000001214,0.3218783155169046,0.3807061127785284,non_fall
1.328756,0.0702,-0.3473,0.0675,-0.0223,0.0355,-0.0238,42.2438,6.9563,18.7125,,0.020623999999999976,0.3606959661543223,0.4680220362514764,non_fall
1.332304,0.0702,-0.3473,0.0675,-0.0223,0.0355,-0.0238,41.6438,6.9938,18.4125,,0.0035479999999998846,0.3606959661543223,0.5711675475684725,non_fall
1.345587,0.0858,-0.2932,0.055,-0.0223,0.0355,-0.0238,41.6438,6.9938,18.4125,,0.013283000000000156,0.31040760299966885,0.6870846217625961,non_fall
1.350529,0.0858,-0.2932,0.055,-0.0223,0.0355,-0.0238,41.6438,6.9938,18.4125,,0.004942000000000002,0.31040760299966885,0.811374079544166,non_fall
1.365456,0.0963,0.0442,0.1199,-0.0223,0.0355,-0.0238,41.6438,6.9938,18.4125,,0.014926999999999913,0.16001043715958033,0.9384990589320109,non_fall
1.374288,0.0963,0.0442,0.1199,0.018,0.0586,0.0225,41.6438,6.9938,18.4125,,0.008831999999999951,0.16001043715958033,1.0621485034855214,non_fall
1.385116,0.057,1.4537,1.0809,0.018,0.0586,0.0225,41.6438,6.9938,18.4125,,0.01082800000000006,1.812412066832485,1.1757440666278896,non_fall
1.38852,0.057,1.4537,1.0809,0.018,0.0586,0.0225,41.4563,6.9375,19.5563,,0.0034039999999999626,1.812412066832485,1.2730426183691657,non_fall
1.397467,0.057,1.4537,1.0809,0.018,0.0586,0.0225,41.4563,6.9375,19.5563,,0.008947000000000038,1.812412066832485,1.3487561670141022,non_fall
1.403109,0.616,-2.2539,0.2745,0.018,0.0586,0.0225,41.4563,6.9375,19.5563,,0.005641999999999925,2.3526307530082144,1.399094046398367,non_fall
1.422794,-0.6034,-2.1755,-1.347,0.018,0.0586,0.0225,41.4563,6.9375,19.5563,,0.019684999999999953,2.6289352996983397,1.4221371380963428,non_fall
1.431591,-0.6034,-2.1755,-1.347,-0.2458,0.3041,-0.1875,41.4563,6.9375,19.5563,,0.008797000000000166,2.6289352996983397,1.417979856433486,non_fall
1.441963,-0.0087,-0.3613,0.0304,-0.2458,0.3041,-0.1875,41.4563,6.9375,19.5563,,0.010372000000000048,0.36268104444539145,1.388617262042075,non_fall
1.446572,-0.0087,-0.3613,0.0304,-0.2458,0.3041,-0.1875,41.4563,6.9375,19.5563,,0.004608999999999863,0.36268104444539145,1.3376052042437765,non_fall
1.447773,-0.0087,-0.3613,0.0304,-0.2458,0.3041,-0.1875,41.6625,6.6938,18.525,,0.0012010000000000076,0.36268104444539145,1.2695674447759575,non_fall
1.460973,0.2949,0.1637,1.5282,-0.2458,0.3041,-0.1875,41.6625,6.6938,18.525,,0.0132000000000001,1.5649788944263752,1.1896463879692758,non_fall
1.4809,0.0781,0.4042,0.7921,-0.2458,0.3041,-0.1875,41.6625,6.6938,18.525,,0.019927000000000028,0.8926923658237479,1.1029843180245564,non_fall
1.494609,0.0781,0.4042,0.7921,-0.2458,0.3041,-0.1875,41.6625,6.6938,18.525,,0.013708999999999971,0.8926923658237479,1.014291556063751,non_fall
1.496675,0.0781,0.4042,0.7921,0.2306,-0.066,0.0726,41.6625,6.6938,18.525,,0.0020659999999999012,0.8926923658237479,0.9275278267204785,non_fall
1.498939,-0.0864,0.5204,-0.3394,0.2306,-0.066,0.0726,41.6625,6.6938,18.525,,0.0022640000000000438,0.6272746447928531,0.8457047008064891,non_fall
1.506638,-0.0864,0.5204,-0.3394,0.2306,-0.066,0.0726,41.4375,7.1813,18.8438,,0.0076989999999999,0.6272746447928531,0.770807681570565,non_fall
1.517383,-0.067,-0.1305,-0.447,0.2306,-0.066,0.0726,41.4375,7.1813,18.8438,,0.010745000000000005,0.47045536451399933,0.7038297106982783,non_fall
1.538905,-0.0389,-0.7782,0.0343,0.2306,-0.066,0.0726,41.4375,7.1813,18.8438,,0.02152200000000004,0.7799262401022291,0.6449001968255587,non_fall
1.541403,-0.0389,-0.7782,0.0343,0.2306,-0.066,0.0726,41.4375,7.1813,18.8438,,0.0024980000000001112,0.7799262401022291,0.5934849484881075,non_fall
1.556016,-0.0389,-0.7782,0.0343,-0.0419,0.088,-0.0532,41.4375,7.1813,18.8438,,0.014612999999999987,0.7799262401022291,0.5486244776929308,non_fall
1.558828,0.071,-0.7572,0.3024,-0.0419,0.088,-0.0532,41.4375,7.1813,18.8438,,0.0028120000000000367,0.8184366805074171,0.509174195477764,non_fall
1.567811,0.071,-0.7572,0.3024,-0.0419,0.088,-0.0532,41.6438,7.05,19.2375,,0.008982999999999963,0.8184366805074171,0.47401257273077335,non_fall
1.575906,-0.0631,-0.3686,0.152,-0.0419,0.088,-0.0532,41.6438,7.05,19.2375,,0.008094999999999963,0.40367260248869996,0.44219250114182784,non_fall
1.590782,-0.0631,-0.3686,0.152,-0.0419,0.088,-0.0532,41.6438,7.05,19.2375,,0.01487599999999989,0.40367260248869996,0.41302470458451107,non_fall
1.596114,-0.1145,-0.1053,-0.105,-0.0419,0.088,-0.0532,41.6438,7.05,19.2375,,0.005332000000000114,0.1876788213944237,0.38609654652877223,non_fall
1.613915,-0.2087,-0.1057,-0.1651,-0.0419,0.088,-0.0532,41.6438,7.05,19.2375,,0.017800999999999956,0.28633230694422174,0.36124082079343073,non_fall
1.618322,-0.2087,-0.1057,-0.1651,0.0265,-0.0245,0.025,41.6438,7.05,19.2375,,0.00440700000000005,0.28633230694422174,0.33847419748053303,non_fall
1.630077,-0.2087,-0.1057,-0.1651,0.0265,-0.0245,0.025,41.5312,7.2375,19.35,,0.01175499999999996,0.28633230694422174,0.3179239768763727,non_fall
1.633058,-0.1353,-0.199,-0.0118,0.0265,-0.0245,0.025,41.5312,7.2375,19.35,,0.0029809999999999004,0.24092805980209114,0.2997572546858363,non_fall
1.639274,-0.1353,-0.199,-0.0118,0.0265,-0.0245,0.025,41.5312,7.2375,19.35,,0.006215999999999999,0.24092805980209114,0.2841214327976779,non_fall
1.651852,-0.0428,-0.3112,0.0184,0.0265,-0.0245,0.025,41.5312,7.2375,19.35,,0.0125780000000002,0.3146678248566256,0.27110074754818575,non_fall
1.672763,0.007,-0.2437,0.0122,0.0265,-0.0245,0.025,41.5312,7.2375,19.35,,0.020910999999999902,0.24410557142351338,0.2606902726571916,non_fall
1.680865,0.007,-0.2437,0.0122,0.0216,0.022,-0.008,41.5312,7.2375,19.35,,0.008102000000000054,0.24410557142351338,0.2527865079410892,non_fall
1.686642,0.007,-0.2437,0.0122,0.0216,0.022,-0.008,41.5312,7.2375,19.35,,0.005776999999999921,0.24410557142351338,0.24719223237259508,non_fall
1.687485,0.007,-0.2437,0.0122,0.0216,0.022,-0.008,41.55,6.975,18.9375,,0.0008429999999999271,0.24410557142351338,0.24363267743529,non_fall
1.69054,0.0187,-0.2304,0.0444,0.0216,0.022,-0.008,41.55,6.975,18.9375,,0.00305500000000003,0.23538311324307018,0.24177982740455603,non_fall
1.709748,-0.0191,-0.2379,-0.002,0.0216,0.022,-0.008,41.55,6.975,18.9375,,0.019208000000000114,0.23867387791712774,0.24128142209541378,non_fall
1.728828,-0.0891,-0.2704,-0.0212,0.0216,0.022,-0.008,41.55,6.975,18.9375,,0.019079999999999986,0.28548977214604376,0.24179099249880495,non_fall
1.732916,-0.0891,-0.2704,-0.0212,0.0216,0.022,-0.008,41.55,6.975,18.9375,,0.0040879999999998695,0.28548977214604376,0.24299513331919959,non_fall
1.742004,-0.0891,-0.2704,-0.0212,-0.0052,-0.0037,0.0153,41.55,6.975,18.9375,,0.009088000000000207,0.28548977214604376,0.24463443028006895,non_fall
1.748087,-0.0844,-0.2445,-0.0052,-0.0052,-0.0037,0.0153,41.55,6.975,18.9375,,0.0060829999999998385,0.2587095862158958,0.24651530476966002,non_fall
1.749209,-0.0844,-0.2445,-0.0052,-0.0052,-0.0037,0.0153,41.3438,6.9563,19.35,,0.0011220000000000674,0.2587095862158958,0.24851161294584098,non_fall
1.767289,-0.0622,-0.2143,0.0068,-0.0052,-0.0037,0.0153,41.3438,6.9563,19.35,,0.018080000000000096,0.22324777714458882,0.25055681061343377,non_fall
1.78115,-0.0622,-0.2143,0.0068,-0.0052,-0.0037,0.0153,41.3438,6.9563,19.35,,0.013860999999999901,0.22324777714458882,0.2526292652743801,non_fall
1.786134,-0.0534,-0.2312,-0.0047,-0.0052,-0.0037,0.0153,41.3438,6.9563,19.35,,0.0049840000000000995,0.23733328885767374,0.2547343435771554,non_fall
1.805998,-0.0534,-0.2312,-0.0047,0.0143,-0.0085,0.0005,41.3438,6.9563,19.35,,0.019863999999999882,0.23733328885767374,0.25688700469068565,non_fall
1.808619,-0.0105,-0.231,-0.046,0.0143,-0.0085,0.0005,41.3438,6.9563,19.35,,0.0026209999999999845,0.23576948487876884,0.2590979024199852,non_fall
1.811371,-0.0105,-0.231,-0.046,0.0143,-0.0085,0.0005,41.1562,7.0688,19.1625,,0.0027520000000000877,0.23576948487876884,0.2613647878370506,non_fall
1.824112,-0.042,-0.2788,-0.0247,0.0143,-0.0085,0.0005,41.1562,7.0688,19.1625,,0.012740999999999891,0.2830256702138518,0.2636696517568999,non_fall
1.828003,-0.042,-0.2788,-0.0247,0.0143,-0.0085,0.0005,41.1562,7.0688,19.1625,,0.003891000000000089,0.2830256702138518,0.26598075394515464,non_fall
1.843526,-0.0391,-0.3054,-0.038,0.0143,-0.0085,0.0005,41.1562,7.0688,19.1625,,0.015522999999999954,0.3102288993630349,0.26825764942825997,non_fall
1.862815,-0.033,-0.2746,-0.0131,0.0143,-0.0085,0.0005,41.1562,7.0688,19.1625,,0.01928900000000011,0.2768858429028108,0.27045684966663863,non_fall
1.866414,-0.033,-0.2746,-0.0131,0.0033,-0.0085,-0.0007,41.1562,7.0688,19.1625,,0.003598999999999908,0.2768858429028108,0.2725360729604271,non_fall
1.867308,-0.033,-0.2746,-0.0131,0.0033,-0.0085,-0.0007,41.0438,7.1625,19.3688,,0.0008939999999999504,0.2768858429028108,0.2744560084962186,non_fall
1.876237,-0.033,-0.2746,-0.0131,0.0033,-0.0085,-0.0007,41.0438,7.1625,19.3688,,0.008928999999999965,0.2768858429028108,0.2761796830113545,non_fall
1.883947,0.0005,-0.2436,-0.0009,0.0033,-0.0085,-0.0007,41.0438,7.1625,19.3688,,0.007710000000000106,0.2436021756881494,0.277670431775173,non_fall
1.901436,0.0168,-0.2483,-0.0324,0.0033,-0.0085,-0.0007,41.0438,7.1625,19.3688,,0.017488999999999866,0.2509679063147318,0.27888993336438966,non_fall
1.920297,0.036,-0.2697,-0.0781,0.0033,-0.0085,-0.0007,41.0438,7.1625,19.3688,,0.018861000000000017,0.28307896424849377,0.27979772121975327,non_fall
1.924252,0.036,-0.2697,-0.0781,0.0033,-0.0085,-0.0007,41.0438,7.1625,19.3688,,0.003955000000000153,0.28307896424849377,0.2803530259882824,non_fall
1.930347,0.036,-0.2697,-0.0781,0.0033,-0.0085,-0.0007,42.0188,7.2563,19.0312,,0.0060949999999999616,0.28307896424849377,0.2805188916075037,non_fall
1.931517,0.036,-0.2697,-0.0781,0.0168,-0.0012,0.0067,42.0188,7.2563,19.0312,,0.0011699999999998933,0.28307896424849377,0.28026763362847074,non_fall
1.938777,0.0362,-0.2887,-0.1239,0.0168,-0.0012,0.0067,42.0188,7.2563,19.0312,,0.007260000000000044,0.316242533508698,0.2795862145074036,non_fall
1.959506,0.003,-0.2766,-0.1148,0.0168,-0.0012,0.0067,42.0188,7.2563,19.0312,,0.020728999999999997,0.2994922369611607,0.2784800752884652,non_fall
1.972621,0.003,-0.2766,-0.1148,0.0168,-0.0012,0.0067,42.0188,7.2563,19.0312,,0.013114999999999988,0.2994922369611607,0.27697434418272504,non_fall
1.97777,-0.0243,-0.2023,-0.127,0.0168,-0.0012,0.0067,42.0188,7.2563,19.0312,,0.00514900000000007,0.24009327354176335,0.27511213429568426,non_fall
1.987263,-0.0243,-0.2023,-0.127,0.0168,-0.0012,0.0067,41.1562,6.9375,19.6688,,0.009492999999999974,0.24009327354176335,0.2729507098661043,non_fall
1.991374,-0.0243,-0.2023,-0.127,0.0192,-0.0025,0.0153,41.1562,6.9375,19.6688,,0.004110999999999976,0.24009327354176335,0.27055719394414557,non_fall
1.996631,-0.0477,-0.1572,-0.2096,0.0192,-0.0025,0.0153,41.1562,6.9375,19.6688,,0.005257000000000067,0.2663067592082484,0.2680056581062358,non_fall
2.017593,-0.0095,-0.1605,-0.2214,0.0192,-0.0025,0.0153,41.1562,6.9375,19.6688,,0.020962000000000147,0.2736210152747775,0.2653766917239464,non_fall
2.018968,-0.0095,-0.1605,-0.2214,0.0192,-0.0025,0.0153,41.1562,6.9375,19.6688,,0.001374999999999904,0.2736210152747775,0.2627592862310747,non_fall
2.03485,0.0025,-0.1619,-0.2222,0.0192,-0.0025,0.0153,41.1562,6.9375,19.6688,,0.01588199999999995,0.27493762929071747,0.260253753189702,non_fall
2.047744,0.0025,-0.1619,-0.2222,0.0192,-0.0025,0.0153,41.85,6.8813,18.7125,,0.012893999999999739,0.27493762929071747,0.2579738749705327,non_fall
2.05449,0.0025,-0.1619,-0.2222,0.0021,0.0159,-0.0007,41.85,6.8813,18.7125,,0.006746000000000141,0.27493762929071747,0.25604661179561244,non_fall
2.05523,-0.0108,-0.1254,-0.2198,0.0021,0.0159,-0.0007,41.85,6.8813,18.7125,,0.0007399999999999629,0.2532860833129211,0.2546082688956075,non_fall
2.067322,-0.0108,-0.1254,-0.2198,0.0021,0.0159,-0.0007,41.85,6.8813,18.7125,,0.012091999999999992,0.2532860833129211,0.25379684147126597,non_fall
2.073044,-0.0313,-0.1608,-0.21,0.0021,0.0159,-0.0007,41.85,6.8813,18.7125,,0.005722000000000005,0.2663387504663938,0.25374109797232136,non_fall
2.092585,-0.0579,-0.1743,-0.1698,0.0021,0.0159,-0.0007,41.85,6.8813,18.7125,,0.019541000000000253,0.2501298462798872,0.254547651460558,non_fall
2.106876,-0.0579,-0.1743,-0.1698,0.0021,0.0159,-0.0007,41.7563,6.8813,18.5063,,0.014291000000000054,0.2501298462798872,0.2562877267252815,non_fall
2.110483,-0.0667,-0.1897,-0.1121,0.0021,0.0159,-0.0007,41.7563,6.8813,18.5063,,0.003606999999999694,0.2302203075317206,0.2589855962881621,non_fall
2.114777,-0.0667,-0.1897,-0.1121,0.0021,0.0159,-0.0007,41.7563,6.8813,18.5063,,0.004294000000000242,0.2302203075317206,0.26261073312496,non_fall
2.115453,-0.0667,-0.1897,-0.1121,0.0168,0.0025,0.0115,41.7563,6.8813,18.5063,,0.0006759999999998989,0.2302203075317206,0.2670754667357675,non_fall
2.130661,-0.0484,-0.2406,-0.1007,0.0168,0.0025,0.0115,41.7563,6.8813,18.5063,,0.015207999999999888,0.26527610144903746,0.27223914989305453,non_fall
2.150946,0.0147,-0.301,-0.1062,0.0168,0.0025,0.0115,41.7563,6.8813,18.5063,,0.020284999999999886,0.31952391146829684,0.27791854689568146,non_fall
2.163584,0.0147,-0.301,-0.1062,0.0168,0.0025,0.0115,41.7563,6.8813,18.5063,,0.012638000000000371,0.31952391146829684,0.283902679076743,non_fall
2.167837,0.0147,-0.301,-0.1062,0.0168,0.0025,0.0115,41.4563,6.75,19.2563,,0.00425299999999984,0.31952391146829684,0.2899693335590562,non_fall
2.168778,0.0146,-0.2776,-0.0642,0.0168,0.0025,0.0115,41.4563,6.75,19.2563,,0.0009410000000000807,0.2853008236931678,0.29590040628236725,non_fall
2.177387,0.0146,-0.2776,-0.0642,0.0205,0.022,0.0188,41.4563,6.75,19.2563,,0.008608999999999867,0.2853008236931678,0.3014942208789456,non_fall
2.188212,0.0664,-0.2872,-0.0451,0.0205,0.022,0.0188,41.4563,6.75,19.2563,,0.010825000000000085,0.2982059858554151,0.30657433068030887,non_fall
2.206829,0.0066,-0.3128,-0.035,0.0205,0.022,0.0188,41.4563,6.75,19.2563,,0.018616999999999884,0.3148212191069719,0.3109953069065627,non_fall
2.211097,0.0066,-0.3128,-0.035,0.0205,0.022,0.0188,41.4563,6.75,19.2563,,0.0042680000000001606,0.3148212191069719,0.3146462945958531,non_fall
2.226341,-0.026,-0.3187,-0.0072,0.0205,0.022,0.0188,41.4563,6.75,19.2563,,0.015244000000000035,0.3198398505502402,0.3174528876242306,non_fall
2.228559,-0.026,-0.3187,-0.0072,0.0205,0.022,0.0188,41.9625,6.675,18.825,,0.0022180000000000533,0.3198398505502402,0.3193775579061197,non_fall
2.239253,-0.026,-0.3187,-0.0072,0.051,0.022,0.0153,41.9625,6.675,18.825,,0.010693999999999981,0.3198398505502402,0.3204187181096372,non_fall
2.244917,-0.0634,-0.3189,-0.0108,0.051,0.022,0.0153,41.9625,6.675,18.825,,0.005663999999999891,0.32532047276493375,0.3206084969070098,non_fall
2.259669,-0.0634,-0.3189,-0.0108,0.051,0.022,0.0153,41.9625,6.675,18.825,,0.014752000000000098,0.32532047276493375,0.3200093684951402,non_fall
2.263825,-0.0441,-0.3041,-0.0162,0.051,0.022,0.0153,41.9625,6.675,18.825,,0.0041560000000000485,0.3077077509586003,0.3187098583027054,non_fall
2.284083,-0.0085,-0.3129,-0.0151,0.051,0.022,0.0153,41.9625,6.675,18.825,,0.020257999999999665,0.3133794345517906,0.31681964043187183,non_fall
2.288309,-0.0085,-0.3129,-0.0151,0.051,0.022,0.0153,41.6438,7.0313,19.6688,,0.004226000000000063,0.3133794345517906,0.3144644142088663,non_fall
2.30124,-0.0085,-0.3129,-0.0151,0.0791,0.0293,0.014,41.6438,7.0313,19.6688,,0.012931000000000026,0.3133794345517906,0.3117809239675117,non_fall
2.302675,-0.0427,-0.297,0.0435,0.0791,0.0293,0.014,41.6438,7.0313,19.6688,,0.001434999999999853,0.3031906001181435,0.3089123474501942,non_fall
2.306496,-0.0427,-0.297,0.0435,0.0791,0.0293,0.014,41.6438,7.0313,19.6688,,0.0038210000000002964,0.3031906001181435,0.3060040962434727,non_fall
2.320718,-0.0783,-0.3184,0.0347,0.0791,0.0293,0.014,41.6438,7.0313,19.6688,,0.014221999999999735,0.3297173638133121,0.30319992421514286,non_fall
2.340767,-0.0478,-0.2845,-0.0226,0.0791,0.0293,0.014,41.6438,7.0313,19.6688,,0.020049000000000206,0.2893714740605922,0.300638159232453,non_fall
2.348054,-0.0478,-0.2845,-0.0226,0.0791,0.0293,0.014,41.7375,6.9563,19.0312,,0.007286999999999821,0.2893714740605922,0.29844789961328544,non_fall
2.355426,-0.0478,-0.2845,-0.0226,0.0791,0.0293,0.014,41.7375,6.9563,19.0312,,0.007372000000000156,0.2893714740605922,0.296745166354209,non_fall
2.360066,-0.0389,-0.2911,-0.047,0.0791,0.0293,0.014,41.7375,6.9563,19.0312,,0.0046400000000001995,0.29742464591892853,0.29562915253589217,non_fall
2.366407,-0.0389,-0.2911,-0.047,0.1048,0.0293,0.025,41.7375,6.9563,19.0312,,0.00634099999999993,0.29742464591892853,0.2951786804435963,non_fall
2.37905,-0.0158,-0.2833,-0.0786,0.1048,0.0293,0.025,41.7375,6.9563,19.0312,,0.012642999999999738,0.2944256952101837,0.2954487548937025,non_fall
2.403512,-0.0219,-0.304,-0.0824,0.1048,0.0293,0.025,41.7375,6.9563,19.0312,,0.024462000000000206,0.31572990038955767,0.2964668647824451,non_fall
2.404761,-0.0219,-0.304,-0.0824,0.1048,0.0293,0.025,41.7375,6.9563,19.0312,,0.0012490000000000556,0.31572990038955767,0.2982286017009591,non_fall
2.407312,-0.0219,-0.304,-0.0824,0.1048,0.0293,0.025,41.6438,7.05,19.1438,,0.00255099999999997,0.31572990038955767,0.3006923139898559,non_fall
2.416915,-0.0392,-0.2737,-0.1125,0.1048,0.0293,0.025,41.6438,7.05,19.1438,,0.009602999999999806,0.29850390282205697,0.30377294007478467,non_fall
2.425977,-0.0392,-0.2737,-0.1125,0.1376,0.0378,0.0336,41.6438,7.05,19.1438,,0.009062000000000126,0.29850390282205697,0.30733583550149113,non_fall
2.437162,-0.0581,-0.262,-0.1487,0.1376,0.0378,0.0336,41.6438,7.05,19.1438,,0.011184999999999778,0.3068082463037785,0.311192128958256,non_fall
2.45119,-0.0581,-0.262,-0.1487,0.1376,0.0378,0.0336,41.6438,7.05,19.1438,,0.014028000000000151,0.3068082463037785,0.31509763241092115,non_fall
2.455553,-0.0646,-0.2451,-0.1238,0.1376,0.0378,0.0336,41.6438,7.05,19.1438,,0.004363000000000117,0.2820879472788584,0.3187574284398082,non_fall
2.467785,-0.0646,-0.2451,-0.1238,0.1376,0.0378,0.0336,41.4563,6.75,19.4625,,0.01223200000000002,0.2820879472788584,0.32183797498799155,non_fall
2.474706,-0.0593,-0.2687,-0.1405,0.1376,0.0378,0.0336,41.4563,6.75,19.4625,,0.006920999999999733,0.3089602401604452,0.3239879159436848,non_fall
2.48791,-0.0593,-0.2687,-0.1405,0.1634,0.0525,0.0385,41.4563,6.75,19.4625,,0.013203999999999994,0.3089602401604452,0.3248676969886852,non_fall
2.495942,-0.0116,-0.2679,-0.1972,0.1634,0.0525,0.0385,41.4563,6.75,19.4625,,0.008032000000000039,0.33285553923586736,0.3241866033058734,non_fall
2.498801,-0.0116,-0.2679,-0.1972,0.1634,0.0525,0.0385,41.4563,6.75,19.4625,,0.002858999999999945,0.33285553923586736,0.3217442729133499,non_fall
2.51388,-0.0159,-0.2257,-0.2345,0.1634,0.0525,0.0385,41.4563,6.75,19.4625,,0.015079000000000065,0.32585817467112893,0.3174725209407467,non_fall
2.528949,-0.0159,-0.2257,-0.2345,0.1634,0.0525,0.0385,40.95,7.2375,19.8938,,0.015068999999999999,0.32585817467112893,0.31147269386975174,non_fall
2.532211,-0.0223,-0.2264,-0.2653,0.1634,0.0525,0.0385,40.95,7.2375,19.8938,,0.00326200000000032,0.34948296095804154,0.3040437624011248,non_fall
2.545273,-0.0223,-0.2264,-0.2653,0.1634,0.0525,0.0385,40.95,7.2375,19.8938,,0.013061999999999685,0.34948296095804154,0.2956968433223987,non_fall
2.552058,-0.0223,-0.2264,-0.2653,0.1939,0.0525,0.0433,40.95,7.2375,19.8938,,0.006785000000000263,0.34948296095804154,0.2871528004779898,backward_fall
2.553067,-0.0568,-0.1719,-0.2202,0.1939,0.0525,0.0433,40.95,7.2375,19.8938,,0.0010089999999998156,0.28506821990534126,0.2793211569724347,backward_fall
2.570339,-0.0711,-0.1813,-0.1392,0.1939,0.0525,0.0433,40.95,7.2375,19.8938,,0.017272000000000176,0.23937740077125072,0.2732607985882599,backward_fall
2.587753,-0.0711,-0.1813,-0.1392,0.1939,0.0525,0.0433,41.6438,6.9375,19.5563,,0.01741400000000004,0.23937740077125072,0.27012545649264835,backward_fall
2.5906,-0.0693,-0.2024,-0.155,0.1939,0.0525,0.0433,41.6438,6.9375,19.5563,,0.0028469999999996,0.2641841214002083,0.27109890910344964,backward_fall
2.593568,-0.0693,-0.2024,-0.155,0.1939,0.0525,0.0433,41.6438,6.9375,19.5563,,0.0029680000000000817,0.2641841214002083,0.27732557259729196,backward_fall
2.60772,-0.0532,-0.1736,-0.2205,0.1939,0.0525,0.0433,41.6438,6.9375,19.5563,,0.014152000000000164,0.28563516940320915,0.2898416910029755,backward_fall
2.613892,-0.0532,-0.1736,-0.2205,0.2049,0.0355,0.0421,41.6438,6.9375,19.5563,,0.006171999999999844,0.28563516940320915,0.3095113105528046,backward_fall
2.627217,-0.0526,-0.1761,-0.2882,0.2049,0.0355,0.0421,41.6438,6.9375,19.5563,,0.013325000000000031,0.3418145842412228,0.33697021227222845,backward_fall
2.642107,-0.0526,-0.1761,-0.2882,0.2049,0.0355,0.0421,41.6438,6.9375,19.5563,,0.014890000000000292,0.3418145842412228,0.37258015326412836,backward_fall
2.646475,-0.0338,-0.2287,-0.3972,0.2049,0.0355,0.0421,41.6438,6.9375,19.5563,,0.0043679999999999275,0.459580210627046,0.41639504782068804,backward_fall
2.647525,-0.0338,-0.2287,-0.3972,0.2049,0.0355,0.0421,41.325,7.4438,19.575,,0.0010499999999997733,0.459580210627046,0.4681400729077791,backward_fall
2.665854,-0.0283,-0.2713,-0.527,0.2049,0.0355,0.0421,41.325,7.4438,19.575,,0.01832900000000004,0.5934084428115259,0.52720425126547,backward_fall
2.675061,-0.0283,-0.2713,-0.527,0.2659,0.022,0.0593,41.325,7.4438,19.575,,0.009206999999999965,0.5934084428115259,0.5926470929362692,backward_fall
2.685086,-0.0273,-0.2624,-0.6063,0.2659,0.022,0.0593,41.325,7.4438,19.575,,0.010025000000000173,0.6612100573947737,0.6632205238104165,backward_fall
2.68874,-0.0273,-0.2624,-0.6063,0.2659,0.022,0.0593,41.325,7.4438,19.575,,0.003654000000000046,0.6612100573947737,0.7374084697969092,backward_fall
2.704276,0.0351,-0.2524,-0.7494,0.2659,0.022,0.0593,41.325,7.4438,19.575,,0.015535999999999994,0.7915416160885035,0.8134875727384352,backward_fall
2.707382,0.0351,-0.2524,-0.7494,0.2659,0.022,0.0593,41.325,7.4438,19.4625,,0.003105999999999831,0.7915416160885035,0.8896128396867968,backward_fall
2.723421,0.0775,-0.2193,-0.8386,0.2659,0.022,0.0593,41.325,7.4438,19.4625,,0.016039000000000136,0.8702578353568556,0.9639310304896173,backward_fall
2.736481,0.0775,-0.2193,-0.8386,0.2659,0.022,0.0593,41.325,7.4438,19.4625,,0.01305999999999985,0.8702578353568556,1.0347221664490251,backward_fall
2.737363,0.0775,-0.2193,-0.8386,0.4102,0.055,0.0751,41.325,7.4438,19.4625,,0.0008820000000002715,0.8702578353568556,1.100565721836594,backward_fall
2.741981,0.0936,-0.1344,-1.1111,0.4102,0.055,0.0751,41.325,7.4438,19.4625,,0.004617999999999789,1.1231061971158383,1.160522625112685,backward_fall
2.761534,0.0107,0.0559,-1.4807,0.4102,0.055,0.0751,41.325,7.4438,19.4625,,0.019553000000000154,1.4817934370215033,1.2143170322871326,backward_fall
2.766801,0.0107,0.0559,-1.4807,0.4102,0.055,0.0751,41.1375,7.575,18.9563,,0.005266999999999911,1.4817934370215033,1.2624940827444127,backward_fall
2.780703,-0.1158,0.4553,-1.5772,0.4102,0.055,0.0751,41.1375,7.575,18.9563,,0.013901999999999859,1.6456814910546937,1.3065245860761594,backward_fall
2.784838,-0.1158,0.4553,-1.5772,0.4102,0.055,0.0751,41.1375,7.575,18.9563,,0.004135000000000222,1.6456814910546937,1.348828370141757,backward_fall
2.799481,-0.1158,0.4553,-1.5772,0.4444,0.1173,0.2071,41.1375,7.575,18.9563,,0.014642999999999962,1.6456814910546937,1.392696226126144,backward_fall
2.800308,-0.154,0.7302,-1.1769,0.4444,0.1173,0.2071,41.1375,7.575,18.9563,,0.0008269999999996891,1.3935571929418613,1.4421043747715923,backward_fall
2.819778,-0.1187,1.2116,-0.9357,0.4444,0.1173,0.2071,41.1375,7.575,18.9563,,0.0194700000000001,1.5354474071097324,1.5014317852166579,backward_fall
2.830418,-0.1187,1.2116,-0.9357,0.4444,0.1173,0.2071,41.1375,7.5563,19.3688,,0.010639999999999983,1.5354474071097324,1.5751057794548469,backward_fall
2.832407,-0.1187,1.2116,-0.9357,0.4444,0.1173,0.2071,41.1375,7.5563,19.3688,,0.0019890000000000185,1.5354474071097324,1.667212148359194,backward_fall
2.838834,0.1773,1.3325,-0.6141,0.4444,0.1173,0.2071,41.1375,7.5563,19.3688,,0.0064269999999999605,1.4778735906700544,1.7811113107910506,backward_fall
2.85695,-0.1465,1.4645,-0.6566,0.4444,0.1173,0.2071,41.1375,7.5563,19.3688,,0.01811600000000002,1.6116283876874344,1.919102249231871,backward_fall
2.86203,-0.1465,1.4645,-0.6566,0.6533,-0.1478,0.3279,41.1375,7.5563,19.3688,,0.005079999999999973,1.6116283876874344,2.082171327714639,backward_fall
2.876811,-0.6424,2.2643,-0.6404,0.6533,-0.1478,0.3279,41.1375,7.5563,19.3688,,0.014781000000000155,2.439230290480995,2.2698532504517592,backward_fall
2.880459,-0.6424,2.2643,-0.6404,0.6533,-0.1478,0.3279,41.1375,7.5563,19.3688,,0.0036480000000000956,2.439230290480995,2.480216932266816,backward_fall
2.88736,-0.6424,2.2643,-0.6404,0.6533,-0.1478,0.3279,41.625,7.4625,18.825,,0.006901000000000046,2.439230290480995,2.7099730529966912,backward_fall
2.895695,-0.5841,2.7441,-0.9229,0.6533,-0.1478,0.3279,41.625,7.4625,18.825,,0.00833499999999976,2.953472876123971,2.9546868177917847,backward_fall
2.915987,0.3783,3.2777,-1.2554,0.6533,-0.1478,0.3279,41.625,7.4625,18.825,,0.020291999999999977,3.5302205795105777,3.209070732502718,backward_fall
2.923106,0.3783,3.2777,-1.2554,0.536,0.022,-0.0825,41.625,7.4625,18.825,,0.0071190000000003195,3.5302205795105777,3.467326790108172,backward_fall
2.928362,0.3783,3.2777,-1.2554,0.536,0.022,-0.0825,41.625,7.4625,18.825,,0.005255999999999705,3.5302205795105777,3.723504658687177,backward_fall
2.934188,0.9542,4.127,-0.8339,0.536,0.022,-0.0825,41.625,7.4625,18.825,,0.005825999999999887,4.317176837934716,3.971843212059842,backward_fall
2.948754,0.9542,4.127,-0.8339,0.536,0.022,-0.0825,41.7938,8.4938,18.3188,,0.014566000000000301,4.317176837934716,4.207066616615705,backward_fall
2.956862,-0.4216,4.8941,-0.8592,0.536,0.022,-0.0825,41.7938,8.4938,18.3188,,0.008108000000000004,4.986801180115365,4.424611242157572,backward_fall
2.972966,-0.2051,4.5862,-0.9883,0.536,0.022,-0.0825,41.7938,8.4938,18.3188,,0.016103999999999896,4.695959256637561,4.620766020865022,backward_fall
2.975908,-0.2051,4.5862,-0.9883,0.536,0.022,-0.0825,41.7938,8.4938,18.3188,,0.002942,4.695959256637561,4.79271879458067,backward_fall
2.986039,-0.2051,4.5862,-0.9883,-0.2203,0.1833,-0.03,41.7938,8.4938,18.3188,,0.01013099999999989,4.695959256637561,4.938514801860081,backward_fall
2.99062,1.6523,4.4312,-1.0626,-0.2203,0.1833,-0.03,41.7938,8.4938,18.3188,,0.004580999999999946,4.847138072099865,5.056946579353715,backward_fall
3.007858,1.6523,4.4312,-1.0626,-0.2203,0.1833,-0.03,41.1,8.4375,19.4813,,0.01723800000000031,4.847138072099865,5.147401529544493,backward_fall
3.011452,3.0274,4.6808,-0.192,-0.2203,0.1833,-0.03,41.1,8.4375,19.4813,,0.003593999999999653,5.577804532251018,5.209691654065699,backward_fall
3.023849,3.0274,4.6808,-0.192,-0.2203,0.1833,-0.03,41.1,8.4375,19.4813,,0.012396999999999991,5.577804532251018,5.243881897840797,backward_fall
3.030292,1.8139,5.2525,-0.3275,-0.2203,0.1833,-0.03,41.1,8.4375,19.4813,,0.006443000000000421,5.566529054087475,5.25012530414926,backward_fall
3.047652,1.8139,5.2525,-0.3275,-0.9545,0.0708,-0.0997,41.1,8.4375,19.4813,,0.017359999999999598,5.566529054087475,5.228511344273274,backward_fall
3.04895,0.5857,4.8371,-0.9155,-0.9545,0.0708,-0.0997,41.1,8.4375,19.4813,,0.0012980000000002434,4.957693127856947,5.178941473536001,backward_fall
3.067477,-0.2652,3.9497,-0.4801,-0.9545,0.0708,-0.0997,41.1,8.4375,19.4813,,0.018526999999999738,3.9876004238138,5.101060301491424,backward_fall
3.068742,-0.2652,3.9497,-0.4801,-0.9545,0.0708,-0.0997,41.25,6.9,20.4938,,0.0012650000000000716,3.9876004238138,4.994283468186163,backward_fall
3.071412,-0.2652,3.9497,-0.4801,-0.9545,0.0708,-0.0997,41.25,6.9,20.4938,,0.0026700000000001722,3.9876004238138,4.857963536992119,backward_fall
3.088104,-0.844,4.4878,-0.1158,-0.9545,0.0708,-0.0997,41.25,6.9,20.4938,,0.01669199999999993,4.567942039912503,4.691714861488416,backward_fall
3.1068,-0.9304,4.8263,0.1642,-0.9545,0.0708,-0.0997,41.25,6.9,20.4938,,0.018695999999999824,4.917903769900342,4.49587897866642,backward_fall
3.110028,-0.9304,4.8263,0.1642,-1.0253,0.1906,-0.1412,41.25,6.9,20.4938,,0.0032280000000000086,4.917903769900342,4.272066525410626,backward_fall
3.120093,-0.9304,4.8263,0.1642,-1.0253,0.1906,-0.1412,41.25,6.9,20.4938,,0.01006499999999999,4.917903769900342,4.023677304106906,backward_fall
3.12442,-0.4923,4.6387,-0.0129,-1.0253,0.1906,-0.1412,41.25,6.9,20.4938,,0.004327000000000414,4.664768310430862,3.7562890073692703,backward_fall
3.127103,-0.4923,4.6387,-0.0129,-1.0253,0.1906,-0.1412,40.725,4.95,21.75,,0.002682999999999769,4.664768310430862,3.477819639072841,backward_fall
3.144275,0.8138,3.2995,-0.3549,-1.0253,0.1906,-0.1412,40.725,4.95,21.75,,0.017171999999999965,3.41685889377949,3.198403948403228,backward_fall
3.163524,-0.267,2.3955,0.0049,-1.0253,0.1906,-0.1412,40.725,4.95,21.75,,0.01924899999999985,2.4103388268042316,2.9299721917924604,backward_fall
3.168192,-0.267,2.3955,0.0049,-1.0253,0.1906,-0.1412,40.725,4.95,21.75,,0.0046680000000001165,2.4103388268042316,2.6855697874123123,backward_fall
3.174858,-0.267,2.3955,0.0049,-0.935,0.149,-0.2865,40.725,4.95,21.75,,0.006666000000000061,2.4103388268042316,2.478496002029985,backward_fall
3.184974,-0.0553,0.9982,0.4515,-0.935,0.149,-0.2865,40.725,4.95,21.75,,0.010116000000000014,1.0969565077978252,2.3213587124674824,backward_fall
3.187826,-0.0553,0.9982,0.4515,-0.935,0.149,-0.2865,40.6688,3.7688,23.5125,,0.0028519999999998547,1.0969565077978252,2.2251395658785054,backward_fall
3.201799,0.0957,2.0463,1.7462,-0.935,0.149,-0.2865,40.6688,3.7688,23.5125,,0.013973000000000013,2.6917868823515727,2.1983444524653106,backward_fall
3.214664,0.0957,2.0463,1.7462,-0.935,0.149,-0.2865,40.6688,3.7688,23.5125,,0.012865000000000126,2.6917868823515727,2.246282652969106,backward_fall
3.221327,-0.1656,1.0468,3.9156,-0.935,0.149,-0.2865,40.6688,3.7688,23.5125,,0.0066630000000000855,4.056493185005985,2.370482089047673,backward_fall
3.234591,-0.1656,1.0468,3.9156,-1.3137,0.3751,-0.3891,40.6688,3.7688,23.5125,,0.013263999999999943,4.056493185005985,2.5682240912729655,backward_fall
3.240619,-1.5397,1.0997,1.1573,-1.3137,0.3751,-0.3891,40.6688,3.7688,23.5125,,0.006028000000000144,2.217962909969416,2.8321859739490827,backward_fall
3.247068,-1.5397,1.0997,1.1573,-1.3137,0.3751,-0.3891,39.5625,1.5375,25.0875,,0.006448999999999927,2.217962909969416,3.1502162154466298,backward_fall
3.25874,-1.2213,-1.0214,1.6689,-1.3137,0.3751,-0.3891,39.5625,1.5375,25.0875,,0.011671999999999905,2.3065252784220682,3.5053175062214357,backward_fall
3.26325,-1.2213,-1.0214,1.6689,-1.3137,0.3751,-0.3891,39.5625,1.5375,25.0875,,0.004510000000000236,2.3065252784220682,3.8759481059538534,backward_fall
3.278593,-1.0674,-2.612,3.0301,-1.3137,0.3751,-0.3891,39.5625,1.5375,25.0875,,0.015342999999999662,4.140458038671567,4.2367502666517565,backward_fall
3.295723,-1.0674,-2.612,3.0301,-0.8482,0.4704,0.1411,39.5625,1.5375,25.0875,,0.01713000000000031,4.140458038671567,4.559775815397476,backward_fall
3.297369,0.6169,-3.1088,2.1265,-0.8482,0.4704,0.1411,39.5625,1.5375,25.0875,,0.0016460000000000363,3.816700839730565,4.816220947884841,backward_fall
3.308599,0.6169,-3.1088,2.1265,-0.8482,0.4704,0.1411,38.6063,-1.2,26.55,,0.011229999999999851,3.816700839730565,4.978624699862168,backward_fall
3.310778,0.6169,-3.1088,2.1265,-0.8482,0.4704,0.1411,38.6063,-1.2,26.55,,0.002178999999999931,3.816700839730565,5.0234365313633065,backward_fall
3.318113,-0.4395,-1.9684,3.3328,-0.8482,0.4704,0.1411,38.6063,-1.2,26.55,,0.007334999999999869,3.8955506221842375,4.933811856967357,backward_fall
3.335599,1.0643,-3.2647,3.8577,-0.8482,0.4704,0.1411,38.6063,-1.2,26.55,,0.017486000000000335,5.164576446331297,4.702440781460548,backward_fall
3.355032,0.5371,-4.5899,3.0368,-0.8482,0.4704,0.1411,38.6063,-1.2,26.55,,0.01943299999999981,5.529720848288817,4.3341551606131965,backward_fall
3.359459,0.5371,-4.5899,3.0368,-0.8482,0.4704,0.1411,38.6063,-1.2,26.55,,0.004427000000000181,5.529720848288817,3.8480059448963373,backward_fall
3.361027,0.5371,-4.5899,3.0368,1.8224,0.3189,1.0194,38.6063,-1.2,26.55,,0.0015679999999997918,5.529720848288817,3.2784765100481197,backward_fall
3.368622,0.5371,-4.5899,3.0368,1.8224,0.3189,1.0194,38.5312,-2.4,28.5188,,0.007594999999999796,5.529720848288817,2.6755137623236713,backward_fall
3.373005,-0.5693,-3.1899,3.0907,1.8224,0.3189,1.0194,38.5312,-2.4,28.5188,,0.004383000000000248,4.477944951649138,2.1031211613872545,backward_fall
3.392683,-1.1997,-2.0621,4.8003,1.8224,0.3189,1.0194,38.5312,-2.4,28.5188,,0.019677999999999862,5.360449289938298,1.6363608978994897,backward_fall
3.407231,-1.1997,-2.0621,4.8003,1.8224,0.3189,1.0194,38.5312,-2.4,28.5188,,0.014548000000000005,5.360449289938298,1.3567480121026023,backward_fall
3.412063,-0.2723,-1.1373,2.7536,1.8224,0.3189,1.0194,38.5312,-2.4,28.5188,,0.0048319999999999474,2.9916402758353153,1.3461809808453282,backward_fall
3.420712,-0.2723,-1.1373,2.7536,3.9238,-1.1019,1.2002,38.5312,-2.4,28.5188,,0.008649000000000129,2.9916402758353153,1.6797360574908426,backward_fall
3.428626,-0.2723,-1.1373,2.7536,3.9238,-1.1019,1.2002,37.9313,0.7688,27.0938,,0.007913999999999977,2.9916402758353153,2.417844248459283,backward_fall
3.431945,-0.0925,0.6478,0.6743,3.9238,-1.1019,1.2002,37.9313,0.7688,27.0938,,0.00331899999999985,0.9396177839951733,3.598545718999599,backward_fall
3.450005,0.8339,0.7235,0.649,3.9238,-1.1019,1.2002,37.9313,0.7688,27.0938,,0.018060000000000187,1.2806414252240945,5.230647469242258,backward_fall
3.454054,0.8339,0.7235,0.649,3.9238,-1.1019,1.2002,37.9313,0.7688,27.0938,,0.004049000000000191,1.2806414252240945,7.288671542568061,backward_fall
3.469403,0.9926,1.8178,-0.6769,3.9238,-1.1019,1.2002,37.9313,0.7688,27.0938,,0.015348999999999613,2.1789550729650213,9.71045143715428,backward_fall
3.48279,0.9926,1.8178,-0.6769,4.3245,-0.8748,1.0647,37.9313,0.7688,27.0938,,0.01338700000000026,2.1789550729650213,12.398095883337872,backward_fall
3.489252,-0.0337,-0.6289,3.0227,4.3245,-0.8748,1.0647,37.9313,0.7688,27.0938,,0.006461999999999968,3.087614967899981,15.222782306819415,backward_fall
3.492368,-0.0337,-0.6289,3.0227,4.3245,-0.8748,1.0647,38.3625,4.8375,24.9375,,0.0031159999999998966,3.087614967899981,18.033463806718675,backward_fall
3.502597,-0.0337,-0.6289,3.0227,4.3245,-0.8748,1.0647,38.3625,4.8375,24.9375,,0.010229000000000266,3.087614967899981,20.669067872787235,backward_fall
3.506919,-10.939,-30.9322,12.9473,4.3245,-0.8748,1.0647,38.3625,4.8375,24.9375,,0.004321999999999715,35.27173507399374,22.97313038957605,backward_fall
3.528884,-18.0748,-67.3051,16.6007,4.3245,-0.8748,1.0647,38.3625,4.8375,24.9375,,0.021965000000000234,71.6397803007519,24.809098937303833,backward_fall
3.544537,-18.0748,-67.3051,16.6007,6.8278,-1.488,0.3634,38.3625,4.8375,24.9375,,0.015652999999999917,71.6397803007519,26.073970968048958,backward_fall
3.546028,4.2055,-16.5653,-1.9311,6.8278,-1.488,0.3634,38.3625,4.8375,24.9375,,0.0014910000000001311,17.199550620583086,26.707897377843832,backward_fall
3.54783,4.2055,-16.5653,-1.9311,6.8278,-1.488,0.3634,41.3625,14.2313,16.8188,,0.0018019999999996372,17.199550620583086,26.698164423262327,backward_fall
3.551237,4.2055,-16.5653,-1.9311,6.8278,-1.488,0.3634,41.3625,14.2313,16.8188,,0.00340700000000016,17.199550620583086,26.07733806128502,backward_fall
3.564612,3.7825,-19.8865,-21.1049,6.8278,-1.488,0.3634,41.3625,14.2313,16.8188,,0.013374999999999915,29.243751341269473,24.91662507850797,backward_fall
3.583327,1.3533,10.6578,-9.4227,6.8278,-1.488,0.3634,41.3625,14.2313,16.8188,,0.01871500000000026,14.29011536062603,23.31612948199858,backward_fall
3.597201,1.3533,10.6578,-9.4227,6.8278,-1.488,0.3634,41.3625,14.2313,16.8188,,0.013873999999999942,14.29011536062603,21.393685124250922,backward_fall
3.60261,-0.3319,13.0511,2.6075,6.8278,-1.488,0.3634,41.3625,14.2313,16.8188,,0.005408999999999775,13.313167356793798,19.27367804918439,backward_fall
3.607972,-0.3319,13.0511,2.6075,2.7534,0.3971,0.2021,41.3625,14.2313,16.8188,,0.005362000000000311,13.313167356793798,17.076963729104577,backward_fall
3.60934,-0.3319,13.0511,2.6075,2.7534,0.3971,0.2021,39.9375,15.75,16.9688,,0.0013679999999998138,13.313167356793798,14.91265787649876,backward_fall
3.622009,-0.5815,8.7091,-0.4901,2.7534,0.3971,0.2021,39.9375,15.75,16.9688,,0.01266899999999982,8.742240163138964,12.872228742638335,backward_fall
3.642409,0.0121,10.075,-7.0055,2.7534,0.3971,0.2021,39.9375,15.75,16.9688,,0.020399999999999974,12.271218426056965,11.025990004758345,backward_fall
3.648796,0.0121,10.075,-7.0055,2.7534,0.3971,0.2021,39.9375,15.75,16.9688,,0.0063870000000001426,12.271218426056965,9.421832043396796,backward_fall
3.660508,2.0546,2.0856,-6.3134,2.7534,0.3971,0.2021,39.9375,15.75,16.9688,,0.011712000000000167,6.95917581901765,8.085848795264557,backward_fall
3.668359,2.0546,2.0856,-6.3134,2.7534,0.3971,0.2021,42.75,17.4563,11.7,,0.007851000000000052,6.95917581901765,7.024418824305316,backward_fall
3.669032,2.0546,2.0856,-6.3134,3.0234,-0.066,0.6212,42.75,17.4563,11.7,,0.0006729999999999237,6.95917581901765,6.227275325490241,backward_fall
3.678575,-1.8665,-10.0149,2.0136,3.0234,-0.066,0.6212,42.75,17.4563,11.7,,0.009542999999999857,10.38444169033656,5.671120215809033,backward_fall
3.692115,-1.8665,-10.0149,2.0136,3.0234,-0.066,0.6212,42.75,17.4563,11.7,,0.013539999999999885,10.38444169033656,5.323372226494572,backward_fall
3.697679,-2.0127,-6.0191,3.7553,3.0234,-0.066,0.6212,42.75,17.4563,11.7,,0.005564000000000124,7.374469756531652,5.145696697071859,backward_fall
3.716684,-0.1434,1.7461,-0.1708,3.0234,-0.066,0.6212,42.75,17.4563,11.7,,0.01900499999999994,1.760284468487977,5.097078603844345,backward_fall
3.729224,-0.1434,1.7461,-0.1708,3.0234,-0.066,0.6212,42.0938,17.1,9.75,,0.012539999999999996,1.760284468487977,5.136368221903964,backward_fall
3.732057,-0.1434,1.7461,-0.1708,2.9978,0.0598,0.5918,42.0938,17.1,9.75,,0.0028330000000003075,1.760284468487977,5.224386617083121,backward_fall
3.736198,0.5597,5.449,1.1041,2.9978,0.0598,0.5918,42.0938,17.1,9.75,,0.004140999999999728,5.587835171155284,5.325744539678298,backward_fall
3.740008,0.5597,5.449,1.1041,2.9978,0.0598,0.5918,42.0938,17.1,9.75,,0.003810000000000091,5.587835171155284,5.410475757113581,backward_fall
3.755118,1.1662,7.0247,1.1515,2.9978,0.0598,0.5918,42.0938,17.1,9.75,,0.015109999999999957,7.213347681901934,5.455462426177095,backward_fall
3.774377,0.3109,6.5186,3.9748,2.9978,0.0598,0.5918,42.0938,17.1,9.75,,0.019258999999999915,7.641193611602836,5.445514798622666,backward_fall
3.78631,0.3109,6.5186,3.9748,2.9978,0.0598,0.5918,43.2188,16.7438,6.4875,,0.011932999999999971,7.641193611602836,5.373914213842356,backward_fall
3.787813,0.3109,6.5186,3.9748,2.9978,0.0598,0.5918,43.2188,16.7438,6.4875,,0.001503000000000032,7.641193611602836,5.242248171489631,backward_fall
3.792204,0.3109,6.5186,3.9748,2.7265,-0.1173,1.0719,43.2188,16.7438,6.4875,,0.004391000000000034,7.641193611602836,5.0594447951898,backward_fall
3.79383,0.031,3.2,5.1605,2.7265,-0.1173,1.0719,43.2188,16.7438,6.4875,,0.0016259999999999053,6.0722089267415695,4.840030684773395,backward_fall
3.813091,-1.2157,0.3772,2.1691,2.7265,-0.1173,1.0719,43.2188,16.7438,6.4875,,0.019261000000000195,2.514995256456759,4.601771442776256,backward_fall
3.832945,-0.7048,-0.4761,-0.4855,2.7265,-0.1173,1.0719,43.2188,16.7438,6.4875,,0.01985400000000004,0.9793490184811542,4.362985156516439,backward_fall
3.83689,-0.7048,-0.4761,-0.4855,2.7265,-0.1173,1.0719,43.2188,16.7438,6.4875,,0.003944999999999865,0.9793490184811542,4.139912664822269,backward_fall
3.847467,-0.7048,-0.4761,-0.4855,2.7265,-0.1173,1.0719,43.9875,15.2813,4.0688,,0.010577000000000059,0.9793490184811542,3.9445478507830343,backward_fall
3.850944,0.7343,0.7361,-0.3885,2.7265,-0.1173,1.0719,43.9875,15.2813,4.0688,,0.0034770000000001744,1.109942318321092,3.783260042050318,backward_fall
3.854756,0.7343,0.7361,-0.3885,2.6874,-0.088,0.9523,43.9875,15.2813,4.0688,,0.0038119999999999266,1.109942318321092,3.6563971149380676,backward_fall
3.870952,0.4991,3.7171,-2.3394,2.6874,-0.088,0.9523,43.9875,15.2813,4.0688,,0.016195999999999877,4.420263066832108,3.558880523130549,backward_fall
3.885116,0.4991,3.7171,-2.3394,2.6874,-0.088,0.9523,43.9875,15.2813,4.0688,,0.014164000000000065,4.420263066832108,3.4816283698730492,backward_fall
3.890938,-1.8361,5.8207,-3.643,2.6874,-0.088,0.9523,43.9875,15.2813,4.0688,,0.005821999999999772,7.107971630500504,3.413499650925586,backward_fall
3.907147,-1.8361,5.8207,-3.643,2.6874,-0.088,0.9523,43.875,13.8938,2.4938,,0.016209000000000362,7.107971630500504,3.343370724765532,backward_fall
3.909926,-1.6083,4.0803,-3.3016,2.6874,-0.088,0.9523,43.875,13.8938,2.4938,,0.002778999999999865,5.489630182443987,3.2619561334319394,backward_fall
3.917847,-1.6083,4.0803,-3.3016,0.7633,1.4587,-0.0887,43.875,13.8938,2.4938,,0.007921000000000067,5.489630182443987,3.163072649088635,backward_fall
3.929605,0.8293,0.8824,-1.1878,0.7633,1.4587,-0.0887,43.875,13.8938,2.4938,,0.011757999999999935,1.6962420493549852,3.0441944958794616,backward_fall
3.931958,0.8293,0.8824,-1.1878,0.7633,1.4587,-0.0887,43.875,13.8938,2.4938,,0.0023529999999998275,1.6962420493549852,2.9063156262704477,backward_fall
3.947585,1.215,0.5597,-0.5149,0.7633,1.4587,-0.0887,43.875,13.8938,2.4938,,0.01562700000000028,1.4333914678133115,2.7532734706122683,backward_fall
3.966903,-0.5437,1.2022,-0.5719,0.7633,1.4587,-0.0887,43.875,13.8938,2.4938,,0.019317999999999724,1.438041772689514,2.590763382823202,backward_fall
3.968438,-0.5437,1.2022,-0.5719,0.7633,1.4587,-0.0887,43.725,14.3438,4.8,,0.001535000000000064,1.438041772689514,2.4252772561197133,backward_fall
3.979492,-0.5437,1.2022,-0.5719,0.7633,1.4587,-0.0887,43.725,14.3438,4.8,,0.01105400000000012,1.438041772689514,2.263153190158857,backward_fall
3.980518,-0.5437,1.2022,-0.5719,0.3381,-0.6744,0.6542,43.725,14.3438,4.8,,0.0010259999999999714,1.438041772689514,2.1098546945978462,backward_fall
3.98574,-1.7641,1.7016,-0.6469,0.3381,-0.6744,0.6542,43.725,14.3438,4.8,,0.005221999999999838,2.5349498969407662,1.9695286237479162,backward_fall
4.004201,-1.8826,1.6202,-0.8787,0.3381,-0.6744,0.6542,43.725,14.3438,4.8,,0.018461000000000283,2.634643142818397,1.8448313416548976,backward_fall
4.023945,-0.5129,1.3359,-1.0038,0.3381,-0.6744,0.6542,43.725,14.3438,4.8,,0.019744000000000206,1.7479444098712067,1.7369699385281272,backward_fall
4.027408,-0.5129,1.3359,-1.0038,0.3381,-0.6744,0.6542,43.9125,12.7688,2.7938,,0.003462999999999994,1.7479444098712067,1.6458861630401305,backward_fall
4.028705,-0.5129,1.3359,-1.0038,0.3381,-0.6744,0.6542,43.9125,12.7688,2.7938,,0.0012970000000001036,1.7479444098712067,1.570514527971062,backward_fall
4.042181,-0.5129,1.3359,-1.0038,0.2342,0.2614,0.2021,43.9125,12.7688,2.7938,,0.013475999999999821,1.7479444098712067,1.5090622925636963,backward_fall
4.043762,0.8076,1.0663,-1.6769,0.2342,0.2614,0.2021,43.9125,12.7688,2.7938,,0.0015809999999998325,2.145042437808632,1.459275821904836,backward_fall
4.062652,0.4066,0.6726,-0.731,0.2342,0.2614,0.2021,43.9125,12.7688,2.7938,,0.01888999999999985,1.0733477162597402,1.4186715487523063,backward_fall
4.075771,0.4066,0.6726,-0.731,0.2342,0.2614,0.2021,43.9125,12.7688,2.7938,,0.013118999999999659,1.0733477162597402,1.3847233253158748,backward_fall
4.081142,0.5126,-0.198,0.7262,0.2342,0.2614,0.2021,43.9125,12.7688,2.7938,,0.005371000000000237,0.9106751341724445,1.355011851006045,backward_fall
4.086527,0.5126,-0.198,0.7262,0.2342,0.2614,0.2021,44.3063,12.1875,4.1438,,0.005385000000000417,0.9106751341724445,1.327350555849004,backward_fall
4.100211,1.043,-0.7613,1.2377,0.2342,0.2614,0.2021,44.3063,12.1875,4.1438,,0.013683999999999585,1.7886665368368693,1.299899775943239,backward_fall
4.105324,1.043,-0.7613,1.2377,-0.197,-0.1136,-0.2841,44.3063,12.1875,4.1438,,0.005113000000000589,1.7886665368368693,1.2712682038133172,backward_fall
4.119842,1.1199,-0.6852,0.6319,-0.197,-0.1136,-0.2841,44.3063,12.1875,4.1438,,0.014517999999999809,1.4570424358953997,1.2405863057800817,backward_fall
4.123844,1.1199,-0.6852,0.6319,-0.197,-0.1136,-0.2841,44.3063,12.1875,4.1438,,0.004001999999999839,1.4570424358953997,1.207531202757103,backward_fall
4.138918,0.7613,0.2102,-0.3951,-0.197,-0.1136,-0.2841,44.3063,12.1875,4.1438,,0.015074000000000254,0.8831000736043453,1.1722905109115738,backward_fall
4.149785,0.7613,0.2102,-0.3951,-0.197,-0.1136,-0.2841,45.4688,13.275,2.025,,0.010866999999999294,0.8831000736043453,1.1354686163410215,backward_fall
4.158069,0.3944,0.9655,-0.4173,-0.197,-0.1136,-0.2841,45.4688,13.275,2.025,,0.008284000000000624,1.123334723045629,1.097953182867438,backward_fall
4.166673,0.3944,0.9655,-0.4173,-0.1238,0.088,-0.1022,45.4688,13.275,2.025,,0.008604000000000056,1.123334723045629,1.060765769867052,backward_fall
4.170713,0.3944,0.9655,-0.4173,-0.1238,0.088,-0.1022,45.4688,13.275,2.025,,0.0040399999999998215,1.123334723045629,1.0249183581583,backward_fall
4.176516,0.183,0.6761,0.1698,-0.1238,0.088,-0.1022,45.4688,13.275,2.025,,0.005803000000000225,0.7207164837854064,0.9912924038658896,backward_fall
4.196425,0.3049,0.1527,0.5159,-0.1238,0.088,-0.1022,45.4688,13.275,2.025,,0.01990899999999929,0.618412572640628,0.9605534567098545,backward_fall
4.209115,0.3049,0.1527,0.5159,-0.1238,0.088,-0.1022,44.0813,13.1813,4.4625,,0.01269000000000009,0.618412572640628,0.9331122901786068,backward_fall
4.215216,0.9409,-0.0777,0.3162,-0.1238,0.088,-0.1022,44.0813,13.1813,4.4625,,0.006101000000000134,0.9956467948022532,0.9091389479433709,backward_fall
4.222203,0.9409,-0.0777,0.3162,-0.1238,0.088,-0.1022,44.0813,13.1813,4.4625,,0.006987000000000521,0.9956467948022532,0.8886264895914022,backward_fall
4.229075,0.9409,-0.0777,0.3162,-0.3424,0.0476,-0.0813,44.0813,13.1813,4.4625,,0.006871999999999545,0.9956467948022532,0.8714888415023196,backward_fall
4.233953,1.1699,0.0249,-0.4316,-0.3424,0.0476,-0.0813,44.0813,13.1813,4.4625,,0.004877999999999716,1.2472227467457446,0.8576675887385103,backward_fall
4.253682,0.9852,-0.1461,-0.3281,-0.3424,0.0476,-0.0813,44.0813,13.1813,4.4625,,0.019729000000000774,1.0486247469900756,0.8472199649486823,backward_fall
4.267118,0.9852,-0.1461,-0.3281,-0.3424,0.0476,-0.0813,44.0813,13.1813,4.4625,,0.01343599999999956,1.0486247469900756,0.8403652927030565,backward_fall
4.268595,0.9852,-0.1461,-0.3281,-0.3424,0.0476,-0.0813,43.4625,13.65,5.1,,0.0014770000000003947,1.0486247469900756,0.8374779054022634,backward_fall
4.273439,0.4407,-0.3561,-0.0192,-0.3424,0.0476,-0.0813,43.4625,13.65,5.1,,0.004843999999999404,0.566914755496803,0.8390284633533965,backward_fall
4.291164,0.4407,-0.3561,-0.0192,-0.3424,0.3029,-0.2365,43.4625,13.65,5.1,,0.017725000000000435,0.566914755496803,0.8454892921022906,backward_fall
4.292742,0.108,0.2234,-0.328,-0.3424,0.3029,-0.2365,43.4625,13.65,5.1,,0.0015779999999994132,0.4112852538081082,0.8572291151651915,backward_fall
4.310923,-0.5395,0.6131,-0.1649,-0.3424,0.3029,-0.2365,43.4625,13.65,5.1,,0.018181000000000225,0.833152969147923,0.8744246991046098,backward_fall
4.315153,-0.5395,0.6131,-0.1649,-0.3424,0.3029,-0.2365,43.4625,13.65,5.1,,0.004229999999999734,0.833152969147923,0.897010034917087,backward_fall
4.327765,-0.5395,0.6131,-0.1649,-0.3424,0.3029,-0.2365,43.6313,14.0813,6.0375,,0.012612000000000734,0.833152969147923,0.924670399981358,backward_fall
4.329382,-0.9146,-0.3354,0.5241,-0.3424,0.3029,-0.2365,43.6313,14.0813,6.0375,,0.0016169999999995355,1.1061948878927257,0.9568744919324944,backward_fall
4.349279,-0.8027,-0.8996,0.689,-0.3424,0.3029,-0.2365,43.6313,14.0813,6.0375,,0.019897000000000276,1.3886426646189436,0.9929273939725832,backward_fall
4.353476,-0.8027,-0.8996,0.689,-0.2533,0.2651,-0.2695,43.6313,14.0813,6.0375,,0.004196999999999562,1.3886426646189436,1.0320223846436403,backward_fall
4.364717,-0.8027,-0.8996,0.689,-0.2533,0.2651,-0.2695,43.6313,14.0813,6.0375,,0.011241000000000057,1.3886426646189436,1.0732714914015415,backward_fall
4.368346,-0.7257,-0.5023,0.4366,-0.2533,0.2651,-0.2695,43.6313,14.0813,6.0375,,0.0036290000000001044,0.9846650902718141,1.1157039133352877,backward_fall
4.386778,-0.8141,-0.4002,0.1299,-0.2533,0.2651,-0.2695,43.6313,14.0813,6.0375,,0.018431999999999782,0.9164021278892798,1.1582363922370922,backward_fall
4.390216,-0.8141,-0.4002,0.1299,-0.2533,0.2651,-0.2695,43.4062,14.5313,6.9938,,0.003438000000000052,0.9164021278892798,1.1996350162066935,backward_fall
4.406601,-0.806,-0.4653,-0.0928,-0.2533,0.2651,-0.2695,43.4062,14.5313,6.9938,,0.016385000000000538,0.9352817383013527,1.238497227935229,backward_fall
4.410479,-0.806,-0.4653,-0.0928,-0.2533,0.2651,-0.2695,43.4062,14.5313,6.9938,,0.003877999999999382,0.9352817383013527,1.2732822042021115,backward_fall
4.414839,-0.806,-0.4653,-0.0928,-0.2373,0.1136,-0.2817,43.4062,14.5313,6.9938,,0.0043600000000001415,0.9352817383013527,1.302407975997019,backward_fall
4.42559,-0.1704,-0.2748,-0.7068,-0.2373,0.1136,-0.2817,43.4062,14.5313,6.9938,,0.010750999999999955,0.7772499211965223,1.3244178073647874,backward_fall
4.444875,1.0954,0.4039,-1.479,-0.2373,0.1136,-0.2817,43.4062,14.5313,6.9938,,0.019284999999999997,1.8842710447279074,1.3381991501404031,backward_fall
4.446649,1.0954,0.4039,-1.479,-0.2373,0.1136,-0.2817,42.6,15.1313,7.425,,0.0017740000000001643,1.8842710447279074,1.3432183070796437,backward_fall
4.458818,1.0954,0.4039,-1.479,-0.2373,0.1136,-0.2817,42.6,15.1313,7.425,,0.012169000000000096,1.8842710447279074,1.3397175858792894,backward_fall
4.463489,1.565,0.9744,-1.2032,-0.2373,0.1136,-0.2817,42.6,15.1313,7.425,,0.004671000000000092,2.201447387515768,1.3288167611449075,backward_fall
4.476844,1.565,0.9744,-1.2032,-0.715,0.072,-0.4833,42.6,15.1313,7.425,,0.013354999999999784,2.201447387515768,1.312472462851259,backward_fall
4.482654,0.7702,0.8778,0.0342,-0.715,0.072,-0.4833,42.6,15.1313,7.425,,0.005810000000000315,1.1682938500223305,1.2932767560501965,backward_fall
4.502684,-0.1503,0.363,0.4315,-0.715,0.072,-0.4833,42.6,15.1313,7.425,,0.020030000000000214,0.5835677681298034,1.2741135329125046,backward_fall
4.507071,-0.1503,0.363,0.4315,-0.715,0.072,-0.4833,42.6,15.1313,7.425,,0.004386999999999475,0.5835677681298034,1.257728596358279,backward_fall
4.508951,-0.1503,0.363,0.4315,-0.715,0.072,-0.4833,42.15,16.0875,8.175,,0.0018799999999998818,0.5835677681298034,1.2462937585937934,backward_fall
4.52049,-0.9753,-0.0293,-0.367,-0.715,0.072,-0.4833,42.15,16.0875,8.175,,0.011538999999999966,1.0424766568129955,1.2410470877901667,backward_fall
4.539472,-0.9753,-0.0293,-0.367,-0.9668,0.1075,-0.5309,42.15,16.0875,8.175,,0.018982000000000276,1.0424766568129955,1.2420713970710122,backward_fall
4.543179,-0.9699,-0.0287,-0.4108,-0.9668,0.1075,-0.5309,42.15,16.0875,8.175,,0.003707000000000349,1.0537012574729139,1.2482419443246402,non_fall
4.553894,-0.9699,-0.0287,-0.4108,-0.9668,0.1075,-0.5309,42.15,16.0875,8.175,,0.010714999999999364,1.0537012574729139,1.2573441212186869,non_fall
4.559918,-1.3113,0.2444,0.0022,-0.9668,0.1075,-0.5309,42.15,16.0875,8.175,,0.006024000000000029,1.3338830121116318,1.266338727848801,non_fall
4.568105,-1.3113,0.2444,0.0022,-0.9668,0.1075,-0.5309,41.625,16.8563,9.0375,,0.008187000000000388,1.3338830121116318,1.2717361728111658,non_fall
4.578942,-1.4839,0.5852,0.1971,-0.9668,0.1075,-0.5309,41.625,16.8563,9.0375,,0.010836999999999541,1.6072543855905326,1.270029805786006,non_fall
4.597068,-1.3751,0.8247,-0.0984,-0.9668,0.1075,-0.5309,41.625,16.8563,9.0375,,0.01812600000000053,1.606459666471586,1.2581325495166304,non_fall
4.601266,-1.3751,0.8247,-0.0984,-0.9668,0.1075,-0.5309,41.625,16.8563,9.0375,,0.004197999999999702,1.606459666471586,1.233761533181396,non_fall
4.602098,-1.3751,0.8247,-0.0984,-1.2074,-0.0452,-0.4405,41.625,16.8563,9.0375,,0.0008319999999999439,1.606459666471586,1.1957235184311887,non_fall
4.617022,-0.741,0.9419,0.2396,-1.2074,-0.0452,-0.4405,41.625,16.8563,9.0375,,0.014924000000000603,1.2221557879419465,1.1440688634645964,non_fall
4.627093,-0.741,0.9419,0.2396,-1.2074,-0.0452,-0.4405,42.4875,17.5312,8.7,,0.010070999999999941,1.2221557879419465,1.0801011825490445,non_fall
4.636378,-0.2189,0.8173,0.2403,-1.2074,-0.0452,-0.4405,42.4875,17.5312,8.7,,0.009284999999999322,0.879568411210862,1.006250090827465,non_fall
4.649817,-0.2189,0.8173,0.2403,-1.2074,-0.0452,-0.4405,42.4875,17.5312,8.7,,0.013438999999999979,0.879568411210862,0.9258315962765578,non_fall
4.655193,0.0397,0.5457,-0.1437,-1.2074,-0.0452,-0.4405,42.4875,17.5312,8.7,,0.005376000000000047,0.565698037825835,0.8427320258353025,non_fall
4.663238,0.0397,0.5457,-0.1437,-1.4139,-0.1453,-0.5541,42.4875,17.5312,8.7,,0.00804500000000008,0.565698037825835,0.7610559104583234,non_fall
4.674084,-0.0251,0.3968,-0.4307,-1.4139,-0.1453,-0.5541,42.4875,17.5312,8.7,,0.010845999999999911,0.5861593128152107,0.6847765034608004,non_fall
4.688797,-0.0251,0.3968,-0.4307,-1.4139,-0.1453,-0.5541,40.6125,17.4375,11.4563,,0.01471300000000042,0.5861593128152107,0.6174208976924674,non_fall
4.693236,-0.228,0.4334,-0.1182,-1.4139,-0.1453,-0.5541,40.6125,17.4375,11.4563,,0.004438999999999638,0.5037765377625283,0.5618122276858291,non_fall
4.697546,-0.228,0.4334,-0.1182,-1.4139,-0.1453,-0.5541,40.6125,17.4375,11.4563,,0.004310000000000258,0.5037765377625283,0.519881986071773,non_fall
4.7124,-0.4584,0.0655,-0.0577,-1.4139,-0.1453,-0.5541,40.6125,17.4375,11.4563,,0.0148539999999997,0.46663701096248245,0.4925581554736013,non_fall
4.726585,-0.4584,0.0655,-0.0577,-1.6325,-0.1368,-0.5823,40.6125,17.4375,11.4563,,0.014185000000000336,0.46663701096248245,0.47973006736285684,non_fall
4.731353,-0.4359,-0.0463,0.0064,-1.6325,-0.1368,-0.5823,40.6125,17.4375,11.4563,,0.0047680000000003275,0.43839874543616114,0.48028788460081656,non_fall
4.745362,-0.4359,-0.0463,0.0064,-1.6325,-0.1368,-0.5823,40.6125,17.4375,11.4563,,0.014008999999999716,0.43839874543616114,0.492232515804848,non_fall
4.748096,-0.4359,-0.0463,0.0064,-1.6325,-0.1368,-0.5823,39.6938,17.8125,12.4125,,0.0027340000000002362,0.43839874543616114,0.5128500132275396,non_fall
4.751119,0.0045,-0.1093,0.0084,-1.6325,-0.1368,-0.5823,39.6938,17.8125,12.4125,,0.003022999999999776,0.10971462983576985,0.5389424794738638,non_fall
4.770059,0.3062,-0.5401,0.1465,-1.6325,-0.1368,-0.5823,39.6938,17.8125,12.4125,,0.018939999999999735,0.6379096330986075,0.56710428293418,non_fall
4.78802,0.3062,-0.5401,0.1465,-1.5862,-0.2761,-0.4918,39.6938,17.8125,12.4125,,0.01796100000000056,0.6379096330986075,0.5940268706579233,non_fall
4.790841,0.0071,-0.8897,0.0077,-1.5862,-0.2761,-0.4918,39.6938,17.8125,12.4125,,0.0028209999999999624,0.8897616478585713,0.6168078096937489,non_fall
4.792825,0.0071,-0.8897,0.0077,-1.5862,-0.2761,-0.4918,39.6938,17.8125,12.4125,,0.0019839999999993196,0.8897616478585713,0.6332326543245249,non_fall
4.808448,0.1038,-0.8834,-0.156,-1.5862,-0.2761,-0.4918,39.6938,17.8125,12.4125,,0.015623000000000609,0.9030537082588167,0.6419959551116922,non_fall
4.81218,0.1038,-0.8834,-0.156,-1.5862,-0.2761,-0.4918,39.375,18.525,13.6875,,0.0037319999999994025,0.9030537082588167,0.6428324711508798,non_fall
4.827318,0.2881,-0.6924,0.0417,-1.5862,-0.2761,-0.4918,39.375,18.525,13.6875,,0.015138000000000318,0.7511046931021002,0.6365405077157364,non_fall
4.8413,0.2881,-0.6924,0.0417,-1.5862,-0.2761,-0.4918,39.375,18.525,13.6875,,0.013982000000000383,0.7511046931021002,0.6248935375808519,non_fall
4.84647,0.1717,-0.3895,0.1732,-1.5862,-0.2761,-0.4918,39.375,18.525,13.6875,,0.005169999999999675,0.4595534571733739,0.6104509423508092,non_fall
4.851284,0.1717,-0.3895,0.1732,-1.6363,-0.1393,-0.4564,39.375,18.525,13.6875,,0.004813999999999652,0.4595534571733739,0.5962912875906919,non_fall
4.865195,0.1933,-0.4304,0.1584,-1.6363,-0.1393,-0.4564,39.375,18.525,13.6875,,0.013911000000000229,0.4976942937185436,0.5856999273288002,non_fall
4.867434,0.1933,-0.4304,0.1584,-1.6363,-0.1393,-0.4564,39.4688,17.8313,15.4313,,0.002239000000000324,0.4976942937185436,0.5818456557041967,non_fall
4.885311,0.1117,-0.3535,0.0515,-1.6363,-0.1393,-0.4564,39.4688,17.8313,15.4313,,0.017876999999999477,0.37428784377802066,0.5874789092688325,non_fall
4.888739,0.1117,-0.3535,0.0515,-1.6363,-0.1393,-0.4564,39.4688,17.8313,15.4313,,0.0034280000000004307,0.37428784377802066,0.6046784504231745,non_fall
4.903893,0.2016,-0.6213,-0.0744,-1.6363,-0.1393,-0.4564,39.4688,17.8313,15.4313,,0.01515399999999989,0.6574128155124449,0.6346661854834621,non_fall
4.912252,0.2016,-0.6213,-0.0744,-1.5568,-0.11,-0.3477,39.4688,17.8313,15.4313,,0.008358999999999561,0.6574128155124449,0.677701372032032,non_fall
4.923142,0.385,-0.5659,-0.4692,-1.5568,-0.11,-0.3477,39.4688,17.8313,15.4313,,0.010890000000000732,0.8298291691667629,0.7330566462195833,non_fall
4.927933,0.385,-0.5659,-0.4692,-1.5568,-0.11,-0.3477,39.375,17.6813,16.575,,0.00479099999999999,0.8298291691667629,0.7990709416891134,non_fall
4.936733,0.385,-0.5659,-0.4692,-1.5568,-0.11,-0.3477,39.375,17.6813,16.575,,0.008799999999999919,0.8298291691667629,0.8732703490105859,non_fall
4.941782,0.358,-0.5154,-0.408,-1.5568,-0.11,-0.3477,39.375,17.6813,16.575,,0.005048999999999637,0.7485086238648155,0.9525473070618616,non_fall
4.961412,0.1307,-0.7132,-0.2366,-1.5568,-0.11,-0.3477,39.375,17.6813,16.575,,0.01963000000000026,0.7627032778217226,1.0333892156947873,non_fall
4.974665,0.1307,-0.7132,-0.2366,-1.6118,-0.1356,-0.432,39.375,17.6813,16.575,,0.013252999999999737,0.7627032778217226,1.1121466426550526,non_fall
4.980051,0.8521,-0.8725,-0.9919,-1.6118,-0.1356,-0.432,39.375,17.6813,16.575,,0.005385999999999669,1.5720039026669113,1.1853263106795888,non_fall
4.984908,0.8521,-0.8725,-0.9919,-1.6118,-0.1356,-0.432,39.375,17.6813,16.575,,0.004857000000000333,1.5720039026669113,1.249884991177882,non_fall
4.98739,0.8521,-0.8725,-0.9919,-1.6118,-0.1356,-0.432,39.0188,16.4438,17.5125,,0.0024820000000005393,1.5720039026669113,1.3034912436319919,non_fall
5.00044,-0.1408,-1.8026,0.2438,-1.6118,-0.1356,-0.432,39.0188,16.4438,17.5125,,0.013049999999999784,1.824453298936424,1.3447188856307097,non_fall
5.018007,-0.0392,-1.4223,-0.3962,-1.6118,-0.1356,-0.432,39.0188,16.4438,17.5125,,0.017566999999999666,1.4769727045548267,1.3731429402891615,non_fall
5.032229,-0.0392,-1.4223,-0.3962,-1.6118,-0.1356,-0.432,39.0188,16.4438,17.5125,,0.014222000000000179,1.4769727045548267,1.389324003444886,non_fall
5.037284,-0.0392,-1.4223,-0.3962,-1.3834,-0.1881,-0.3183,39.0188,16.4438,17.5125,,0.005054999999999588,1.4769727045548267,1.3946855610066813,non_fall
5.038483,0.1505,-0.9454,-0.2315,-1.3834,-0.1881,-0.3183,39.0188,16.4438,17.5125,,0.0011990000000006162,0.9848977916514993,1.3913058291372447,non_fall
5.047739,0.1505,-0.9454,-0.2315,-1.3834,-0.1881,-0.3183,38.85,15.6,18.5625,,0.009255999999999709,0.9848977916514993,1.381657606745744,non_fall
5.056724,0.3259,-1.1182,-0.4526,-1.3834,-0.1881,-0.3183,38.85,15.6,18.5625,,0.00898500000000002,1.2495714505381437,1.368334029592764,non_fall
5.076637,0.3314,-1.1758,-0.817,-1.3834,-0.1881,-0.3183,38.85,15.6,18.5625,,0.019912999999999847,1.469632811283145,1.3537939054755068,non_fall
5.080609,0.3314,-1.1758,-0.817,-1.3834,-0.1881,-0.3183,38.85,15.6,18.5625,,0.003972000000000087,1.469632811283145,1.3401492875237995,non_fall
5.094896,0.4142,-0.6735,-0.9784,-1.3834,-0.1881,-0.3183,38.85,15.6,18.5625,,0.014287000000000383,1.2579469185939445,1.3290056088627404,non_fall
5.099374,0.4142,-0.6735,-0.9784,-1.2991,-0.0098,-0.3818,38.85,15.6,18.5625,,0.00447799999999976,1.2579469185939445,1.3213568649414629,non_fall
5.108366,0.4142,-0.6735,-0.9784,-1.2991,-0.0098,-0.3818,40.2563,14.8688,18.4125,,0.008992000000000111,1.2579469185939445,1.31753632001324,non_fall
5.114026,0.3316,-0.391,-1.022,-1.2991,-0.0098,-0.3818,40.2563,14.8688,18.4125,,0.005659999999999776,1.1433825081747577,1.3172237682140764,non_fall
5.127736,0.3316,-0.391,-1.022,-1.2991,-0.0098,-0.3818,40.2563,14.8688,18.4125,,0.013709999999999667,1.1433825081747577,1.31950973345315,non_fall
5.132577,-0.0205,-0.463,-1.0149,-1.2991,-0.0098,-0.3818,40.2563,14.8688,18.4125,,0.004841000000000761,1.1157111005990754,1.3230135776867704,non_fall
5.152931,-0.2195,-1.2543,-0.9535,-1.2991,-0.0098,-0.3818,40.2563,14.8688,18.4125,,0.020353999999999317,1.5907894235253137,1.3260463974778496,non_fall
5.165205,-0.2195,-1.2543,-0.9535,-1.161,-0.1136,-0.2988,40.2563,14.8688,18.4125,,0.012274000000000562,1.5907894235253137,1.326801919669517,non_fall
5.168897,-0.2195,-1.2543,-0.9535,-1.161,-0.1136,-0.2988,38.0813,14.5875,21.075,,0.0036920000000000286,1.5907894235253137,1.3235521445008724,non_fall
5.171451,-0.2175,-0.8529,-0.8902,-1.161,-0.1136,-0.2988,38.0813,14.5875,21.075,,0.002553999999999945,1.2518788679421025,1.3148231266466335,non_fall
5.176671,-0.2175,-0.8529,-0.8902,-1.161,-0.1136,-0.2988,38.0813,14.5875,21.075,,0.005219999999999558,1.2518788679421025,1.2995317894753433,non_fall
5.189564,0.3034,-0.854,-0.9209,-1.161,-0.1136,-0.2988,38.0813,14.5875,21.075,,0.012893000000000043,1.292062061202944,1.2770742532949233,non_fall
5.209809,0.5103,-0.7567,-0.8726,-1.161,-0.1136,-0.2988,38.0813,14.5875,21.075,,0.02024500000000007,1.2627080977011276,1.2473646531106655,non_fall
5.224158,0.5103,-0.7567,-0.8726,-1.161,-0.1136,-0.2988,38.0813,14.5875,21.075,,0.014349000000000167,1.2627080977011276,1.210827820933105,non_fall
5.225842,0.5103,-0.7567,-0.8726,-1.023,-0.2541,-0.3123,38.0813,14.5875,21.075,,0.0016840000000000188,1.2627080977011276,1.1683503892324463,non_fall
5.226898,0.5103,-0.7567,-0.8726,-1.023,-0.2541,-0.3123,38.4938,13.8375,21.7688,,0.001056000000000168,1.2627080977011276,1.121195423283249,non_fall
5.227991,0.2467,-0.7302,-0.7143,-1.023,-0.2541,-0.3123,38.4938,13.8375,21.7688,,0.0010930000000000106,1.0508460496190677,1.0708874220601388,non_fall
5.247872,0.1318,-0.8342,-0.2213,-1.023,-0.2541,-0.3123,38.4938,13.8375,21.7688,,0.019880999999999815,0.8730604618238075,1.01907784329873,non_fall
5.267609,0.1306,-0.7823,0.1223,-1.023,-0.2541,-0.3123,38.4938,13.8375,21.7688,,0.019737000000000116,0.8025004299064269,0.9674052763622568,non_fall
5.271179,0.1306,-0.7823,0.1223,-1.023,-0.2541,-0.3123,38.4938,13.8375,21.7688,,0.003569999999999851,0.8025004299064269,0.9173668934569473,non_fall
5.285941,0.1306,-0.7823,0.1223,-0.7664,-0.2309,-0.3685,38.4938,13.8375,21.7688,,0.014762000000000164,0.8025004299064269,0.8702167741844958,non_fall
5.290006,0.3783,-0.6924,0.0913,-0.7664,-0.2309,-0.3685,38.4938,13.8375,21.7688,,0.004064999999999763,0.7942696897150237,0.8269018505944352,non_fall
5.292213,0.3783,-0.6924,0.0913,-0.7664,-0.2309,-0.3685,38.2313,13.2375,21.8813,,0.002207000000000292,0.7942696897150237,0.7880393837735337,non_fall
5.305203,0.3118,-0.5719,0.2401,-0.7664,-0.2309,-0.3685,38.2313,13.2375,21.8813,,0.012989999999999391,0.6942167240854976,0.7539334278140948,non_fall
5.31952,0.3118,-0.5719,0.2401,-0.7664,-0.2309,-0.3685,38.2313,13.2375,21.8813,,0.014317000000000135,0.6942167240854976,0.7246230030677014,non_fall
5.325491,0.1418,-0.5382,0.5309,-0.7664,-0.2309,-0.3685,38.2313,13.2375,21.8813,,0.005971000000000615,0.769169220653037,0.6999516694003447,non_fall
5.343259,-0.0909,-0.5331,0.5407,-0.7664,-0.2309,-0.3685,38.2313,13.2375,21.8813,,0.01776799999999934,0.7647319203485624,0.6796462292770007,non_fall
5.347014,-0.0909,-0.5331,0.5407,-0.5184,-0.2309,-0.3831,38.2313,13.2375,21.8813,,0.003754999999999953,0.7647319203485624,0.6633912061085238,non_fall
5.34798,-0.0909,-0.5331,0.5407,-0.5184,-0.2309,-0.3831,38.0438,13.05,21.9938,,0.0009660000000000224,0.7647319203485624,0.6508861282197345,non_fall
5.363367,-0.1136,-0.5815,0.5058,-0.5184,-0.2309,-0.3831,38.0438,13.05,21.9938,,0.015387000000000484,0.7790255772437771,0.6418751563139742,non_fall
5.366914,-0.1136,-0.5815,0.5058,-0.5184,-0.2309,-0.3831,38.0438,13.05,21.9938,,0.003547000000000189,0.7790255772437771,0.636143195865017,non_fall
5.382135,-0.2694,-0.3111,0.3569,-0.5184,-0.2309,-0.3831,38.0438,13.05,21.9938,,0.015220999999999485,0.5447358809551652,0.6334787609474171,non_fall
5.401161,-0.5145,-0.2197,-0.0415,-0.5184,-0.2309,-0.3831,38.0438,13.05,21.9938,,0.01902600000000021,0.5609818089742304,0.6336106451864487,non_fall
5.408909,-0.5145,-0.2197,-0.0415,-0.5184,-0.2309,-0.3831,37.9313,13.575,21.5813,,0.00774800000000031,0.5609818089742304,0.6361314965185617,non_fall
5.412241,-0.5145,-0.2197,-0.0415,-0.4353,-0.3128,-0.3343,37.9313,13.575,21.5813,,0.0033319999999994465,0.5609818089742304,0.6404248754742328,non_fall
5.414981,-0.5145,-0.2197,-0.0415,-0.4353,-0.3128,-0.3343,37.9313,13.575,21.5813,,0.0027400000000001867,0.5609818089742304,0.6456123148967147,non_fall
5.420679,-0.1572,-0.4907,0.1624,-0.4353,-0.3128,-0.3343,37.9313,13.575,21.5813,,0.005697999999999759,0.5402518764428311,0.6505339155833131,non_fall
5.439262,-0.114,-0.516,0.7284,-0.4353,-0.3128,-0.3343,37.9313,13.575,21.5813,,0.01858300000000046,0.8998991943545678,0.6537715634357063,non_fall
5.45778,-0.0125,-0.3623,0.2769,-0.4353,-0.3128,-0.3343,37.9313,13.575,21.5813,,0.01851799999999937,0.45617008889229027,0.6537192962425812,non_fall
5.462785,-0.0125,-0.3623,0.2769,-0.4353,-0.3128,-0.3343,37.9313,13.575,21.5813,,0.005005000000000592,0.45617008889229027,0.6487018349660149,non_fall
5.468262,-0.0125,-0.3623,0.2769,-0.4353,-0.3128,-0.3343,38.5125,13.8563,21.5625,,0.005476999999999954,0.45617008889229027,0.6371401111851872,non_fall
5.4718,-0.0125,-0.3623,0.2769,-0.5086,-0.3701,-0.2707,38.5125,13.8563,21.5625,,0.003537999999999819,0.45617008889229027,0.6177601266258391,non_fall
5.477546,0.0941,-0.3302,-0.4102,-0.5086,-0.3701,-0.2707,38.5125,13.8563,21.5625,,0.005746000000000251,0.5349307338338302,0.58983626520196,non_fall
5.496896,0.1867,-0.365,-0.4554,-0.5086,-0.3701,-0.2707,38.5125,13.8563,21.5625,,0.019349999999999312,0.6127569257054546,0.5534518539501202,non_fall
5.510457,0.1867,-0.365,-0.4554,-0.5086,-0.3701,-0.2707,38.5125,13.8563,21.5625,,0.013561000000000156,0.6127569257054546,0.509750585136261,non_fall
5.515503,0.3934,-0.4879,-0.1575,-0.5086,-0.3701,-0.2707,38.5125,13.8563,21.5625,,0.005046000000000106,0.6462323266442186,0.4611453438336255,non_fall
5.528944,0.3934,-0.4879,-0.1575,-0.5086,-0.3701,-0.2707,38.1188,13.5375,21.8813,,0.013441000000000258,0.6462323266442186,0.41144807241682324,non_fall
5.534316,0.3934,-0.4879,-0.1575,-0.7407,-0.1356,-0.36,38.1188,13.5375,21.8813,,0.005371999999999488,0.6462323266442186,0.365886287402644,non_fall
5.536458,0.7442,-0.5316,-0.2545,-0.7407,-0.1356,-0.36,38.1188,13.5375,21.8813,,0.0021420000000000883,0.9493168333069839,0.33097862153954244,non_fall
5.553613,0.4511,-0.3051,-0.2687,-0.7407,-0.1356,-0.36,38.1188,13.5375,21.8813,,0.017155000000000697,0.6072700470136824,0.3142531470662985,non_fall
5.557738,0.4511,-0.3051,-0.2687,-0.7407,-0.1356,-0.36,38.1188,13.5375,21.8813,,0.004124999999999268,0.6072700470136824,0.3238084972564296,non_fall
5.573513,0.0184,-0.1386,0.0162,-0.7407,-0.1356,-0.36,38.1188,13.5375,21.8813,,0.01577500000000054,0.14075141207106948,0.3677385083277144,non_fall
5.588542,0.0184,-0.1386,0.0162,-0.7407,-0.1356,-0.36,39.3188,13.5,20.2875,,0.015029000000000181,0.14075141207106948,0.45346320572473686,non_fall
5.592181,0.0137,-0.5468,0.0925,-0.7407,-0.1356,-0.36,39.3188,13.5,20.2875,,0.003638999999999726,0.5547379381293477,0.5870267761199482,non_fall
5.596104,0.0137,-0.5468,0.0925,-0.5856,-0.2749,-0.3428,39.3188,13.5,20.2875,,0.003923000000000343,0.5547379381293477,0.7724316005899932,non_fall
5.606046,0.0137,-0.5468,0.0925,-0.5856,-0.2749,-0.3428,39.3188,13.5,20.2875,,0.009941999999999673,0.5547379381293477,1.0110756441693536,non_fall
5.611639,-0.1987,-0.4502,0.6076,-0.5856,-0.2749,-0.3428,39.3188,13.5,20.2875,,0.005593000000000181,0.7818820179541156,1.301351648226609,non_fall
5.630625,-0.5126,-0.8798,0.9961,-0.5856,-0.2749,-0.3428,39.3188,13.5,20.2875,,0.018985999999999947,1.4244374363235472,1.6384534864904001,non_fall
5.647974,-0.5126,-0.8798,0.9961,-0.5856,-0.2749,-0.3428,37.9125,13.7625,21.7875,,0.017348999999999393,1.4244374363235472,2.014417796637625,non_fall
5.650483,-0.1452,-2.3508,1.5661,-0.5856,-0.2749,-0.3428,37.9125,13.7625,21.7875,,0.0025090000000007606,2.828429403396875,2.4184074411220116,non_fall
5.656804,-0.1452,-2.3508,1.5661,-0.5856,-0.2749,-0.3428,37.9125,13.7625,21.7875,,0.006320999999999799,2.828429403396875,2.8372201460430815,non_fall
5.658323,-0.1452,-2.3508,1.5661,-0.4316,-0.4117,-0.393,37.9125,13.7625,21.7875,,0.001519000000000048,2.828429403396875,3.2559857116257622,non_fall
5.668811,-0.9346,-1.9416,2.54,-0.4316,-0.4117,-0.393,37.9125,13.7625,21.7875,,0.010487999999999609,3.3308989357229075,3.65900214543585,non_fall
5.688569,-0.7933,-2.1491,3.7311,-0.4316,-0.4117,-0.393,37.9125,13.7625,21.7875,,0.019758000000000386,4.378248840575419,4.030653727622222,non_fall
5.701841,-0.7933,-2.1491,3.7311,-0.4316,-0.4117,-0.393,37.9125,13.7625,21.7875,,0.013271999999999728,4.378248840575419,4.356347405409565,non_fall
5.709172,-0.6131,-1.4966,5.3396,-0.4316,-0.4117,-0.393,37.9125,13.7625,21.7875,,0.007330999999999754,5.57916045028282,4.623396151351905,non_fall
5.712629,-0.6131,-1.4966,5.3396,-0.4316,-0.4117,-0.393,38.4188,13.575,21.15,,0.0034570000000000434,5.57916045028282,4.8217739662886325,non_fall
5.720106,-0.6131,-1.4966,5.3396,-0.4696,-0.0648,0.0456,38.4188,13.575,21.15,,0.007477000000000622,5.57916045028282,4.9446743826901445,non_fall
5.725926,1.5193,-2.3261,3.7398,-0.4696,-0.0648,0.0456,38.4188,13.575,21.15,,0.005819999999999936,4.65887515823294,4.988826054966971,non_fall
5.746142,3.0861,-1.522,3.721,-0.4696,-0.0648,0.0456,38.4188,13.575,21.15,,0.020215999999999568,5.068169118133293,4.954551787032759,non_fall
5.750121,3.0861,-1.522,3.721,-0.4696,-0.0648,0.0456,38.4188,13.575,21.15,,0.003979000000000177,5.068169118133293,4.845591240572525,non_fall
5.763819,2.5745,0.4276,2.9621,-0.4696,-0.0648,0.0456,38.4188,13.575,21.15,,0.013697999999999766,3.947775122774852,4.668732270834301,non_fall
5.767614,2.5745,0.4276,2.9621,-0.4696,-0.0648,0.0456,38.25,13.1813,21.3563,,0.003795000000000215,3.947775122774852,4.433307622842108,non_fall
5.783252,2.5745,0.4276,2.9621,0.7351,0.4166,-0.3233,38.25,13.1813,21.3563,,0.01563800000000004,3.947775122774852,4.1506143261456225,non_fall
5.787528,0.6933,-0.13,3.9443,0.7351,0.4166,-0.3233,38.25,13.1813,21.3563,,0.0042759999999999465,4.006877509982056,3.833304004275668,non_fall
5.797514,0.6933,-0.13,3.9443,0.7351,0.4166,-0.3233,38.25,13.1813,21.3563,,0.009985999999999606,4.006877509982056,3.4947755465376744,non_fall
5.802709,-1.3254,-1.7855,1.9262,0.7351,0.4166,-0.3233,38.25,13.1813,21.3563,,0.005195000000000505,2.94192825371388,3.1485842366761,non_fall
5.821591,-1.0525,-2.0142,1.7876,0.7351,0.4166,-0.3233,38.25,13.1813,21.3563,,0.01888199999999962,2.8914134346371156,2.807872233855492,non_fall
5.82803,-1.0525,-2.0142,1.7876,0.7351,0.4166,-0.3233,38.1375,15.8625,21.1688,,0.006439000000000306,2.8914134346371156,2.4848266908243826,non_fall
5.841174,-0.7487,-0.9801,1.3367,0.7351,0.4166,-0.3233,38.1375,15.8625,21.1688,,0.0131439999999996,1.8187673270652296,2.1901789497748,non_fall
5.845509,-0.7487,-0.9801,1.3367,0.7351,0.4166,-0.3233,38.1375,15.8625,21.1688,,0.0043350000000002,1.8187673270652296,1.9327656620714824,non_fall
5.847109,-0.7487,-0.9801,1.3367,1.8432,-0.1137,0.1337,38.1375,15.8625,21.1688,,0.0015999999999998238,1.8187673270652296,1.7191779604183512,non_fall
5.859602,0.0136,-0.284,0.8816,1.8432,-0.1137,0.1337,38.1375,15.8625,21.1688,,0.012493000000000087,0.9263150220092515,1.5535267417628194,non_fall
5.879693,0.5867,-0.5911,-0.1295,1.8432,-0.1137,0.1337,38.1375,15.8625,21.1688,,0.02009099999999986,0.84284420268517,1.437349339231848,non_fall
5.887683,0.5867,-0.5911,-0.1295,1.8432,-0.1137,0.1337,38.025,18.975,18.9188,,0.007990000000000386,0.84284420268517,1.3696744021620817,non_fall
5.892909,0.5867,-0.5911,-0.1295,1.8432,-0.1137,0.1337,38.025,18.975,18.9188,,0.005226000000000397,0.84284420268517,1.3472462294375729,non_fall
5.898021,1.0966,-0.2783,-2.4754,1.8432,-0.1137,0.1337,38.025,18.975,18.9188,,0.005111999999999561,2.7216883748879113,1.3648863517933592,non_fall
5.907993,1.0966,-0.2783,-2.4754,1.9348,0.2993,-0.1059,38.025,18.975,18.9188,,0.009972000000000314,2.7216883748879113,1.415943767488102,non_fall
5.917228,0.6009,-0.4424,-1.4011,1.9348,0.2993,-0.1059,38.025,18.975,18.9188,,0.009234999999999438,1.587412920446347,1.4927687219820491,non_fall
5.936818,-0.3226,-0.9826,-0.8021,1.9348,0.2993,-0.1059,38.025,18.975,18.9188,,0.019589999999999996,1.3087925465863566,1.5871515128358307,non_fall
5.940569,-0.3226,-0.9826,-0.8021,1.9348,0.2993,-0.1059,38.025,18.975,18.9188,,0.003751000000000282,1.3087925465863566,1.6906974221812892,non_fall
5.94735,-0.3226,-0.9826,-0.8021,1.9348,0.2993,-0.1059,37.5375,21.6562,17.2875,,0.006781000000000148,1.3087925465863566,1.7951441042601313,non_fall
5.955873,-1.5809,-0.6642,-0.3799,1.9348,0.2993,-0.1059,37.5375,21.6562,17.2875,,0.00852300000000028,1.7563400752701626,1.8926482518792942,non_fall
5.969517,-1.5809,-0.6642,-0.3799,1.7797,0.1686,0.1764,37.5375,21.6562,17.2875,,0.013643999999999323,1.7563400752701626,1.9760674779485858,non_fall
5.976652,-0.2575,-0.2383,-2.1197,1.7797,0.1686,0.1764,37.5375,21.6562,17.2875,,0.007134999999999891,2.148539324750655,2.0392483669221604,non_fall
5.988727,-0.2575,-0.2383,-2.1197,1.7797,0.1686,0.1764,37.5375,21.6562,17.2875,,0.01207500000000028,2.148539324750655,2.0773133470803695,non_fall
5.994361,-0.2943,0.657,-2.1784,1.7797,0.1686,0.1764,37.5375,21.6562,17.2875,,0.005633999999999695,2.2942728804568997,2.0869246714091325,non_fall
6.009992,-0.2943,0.657,-2.1784,1.7797,0.1686,0.1764,37.5938,23.3625,15.0188,,0.01563099999999995,2.2942728804568997,2.0664963833881917,non_fall
6.012946,-0.1026,0.3856,-2.038,1.7797,0.1686,0.1764,37.5938,23.3625,15.0188,,0.0029540000000007893,2.076694036202733,2.0163248801535953,non_fall
6.031568,-0.1026,0.3856,-2.038,0.6337,0.1979,0.1214,37.5938,23.3625,15.0188,,0.018621999999999694,2.076694036202733,1.9386141238456538,non_fall
6.035404,0.2398,0.5983,-1.9436,0.6337,0.1979,0.1214,37.5938,23.3625,15.0188,,0.0038359999999997285,2.047693309555901,1.8373803152159303,non_fall
6.03811,0.2398,0.5983,-1.9436,0.6337,0.1979,0.1214,37.5938,23.3625,15.0188,,0.002705999999999875,2.047693309555901,1.7182306045642894,non_fall
6.051236,0.3535,1.2759,-1.2573,0.6337,0.1979,0.1214,37.5938,23.3625,15.0188,,0.013126000000000637,1.8258385333867835,1.588020299070741,non_fall
6.067793,0.3535,1.2759,-1.2573,0.6337,0.1979,0.1214,37.9688,23.7938,14.2688,,0.01655699999999971,1.8258385333867835,1.4544040150857978,non_fall
6.072479,0.295,0.6283,-0.0247,0.6337,0.1979,0.1214,37.9688,23.7938,14.2688,,0.004686000000000412,0.6945473202021587,1.3253094873341769,non_fall
6.083762,0.295,0.6283,-0.0247,0.6337,0.1979,0.1214,37.9688,23.7938,14.2688,,0.01128299999999971,0.6945473202021587,1.208376987655301,non_fall
6.089557,0.3932,0.1187,0.8533,0.6337,0.1979,0.1214,37.9688,23.7938,14.2688,,0.005794999999999995,0.9470041288188769,1.1104174508354554,non_fall
6.093371,0.3932,0.1187,0.8533,0.3502,0.2211,0.5686,37.9688,23.7938,14.2688,,0.003814000000000206,0.9470041288188769,1.0369422212178674,non_fall
6.109209,0.2393,-0.3839,0.6222,0.3502,0.2211,0.5686,37.9688,23.7938,14.2688,,0.015837999999999575,0.7692701346081232,0.9918054267194948,non_fall
6.127716,0.4797,0.1301,0.785,0.3502,0.2211,0.5686,37.9688,23.7938,14.2688,,0.018507000000000495,0.9291195294470997,0.9769821396810522,non_fall
6.129437,0.4797,0.1301,0.785,0.3502,0.2211,0.5686,38.1938,23.2125,13.95,,0.0017209999999998615,0.9291195294470997,0.9924890656433234,non_fall
6.131392,0.4797,0.1301,0.785,0.3502,0.2211,0.5686,38.1938,23.2125,13.95,,0.001954999999999707,0.9291195294470997,1.03644239993549,non_fall
6.147087,0.3365,0.1373,1.2598,0.3502,0.2211,0.5686,38.1938,23.2125,13.95,,0.015695000000000014,1.3111748853604541,1.1052388255442156,non_fall
6.155693,0.3365,0.1373,1.2598,0.338,0.634,0.1141,38.1938,23.2125,13.95,,0.008606000000000336,1.3111748853604541,1.1938394568709052,non_fall
6.165267,-0.2995,0.018,1.0497,0.338,0.634,0.1141,38.1938,23.2125,13.95,,0.00957399999999975,1.0917391355081123,1.2961331355971448,non_fall
6.179955,-0.2995,0.018,1.0497,0.338,0.634,0.1141,38.1938,23.2125,13.95,,0.01468799999999959,1.0917391355081123,1.4053551379510472,non_fall
6.186747,-0.5674,0.6498,1.341,0.338,0.634,0.1141,38.1938,23.2125,13.95,,0.006792000000000797,1.594510520504647,1.5145384519653482,non_fall
6.188277,-0.5674,0.6498,1.341,0.338,0.634,0.1141,38.85,23.325,14.9813,,0.0015299999999998093,1.594510520504647,1.6169739364312568,non_fall
6.203756,-1.2063,0.8512,1.2975,0.338,0.634,0.1141,38.85,23.325,14.9813,,0.01547900000000002,1.9655043576649736,1.70665118730205,non_fall
6.218114,-1.2063,0.8512,1.2975,0.52,-0.3873,-0.1534,38.85,23.325,14.9813,,0.014357999999999649,1.9655043576649736,1.7786463804085955,non_fall
6.223519,-1.6053,0.6694,1.5549,0.52,-0.3873,-0.1534,38.85,23.325,14.9813,,0.00540499999999966,2.332980595718704,1.8294212434660093,non_fall
6.227731,-1.6053,0.6694,1.5549,0.52,-0.3873,-0.1534,38.85,23.325,14.9813,,0.004212000000000771,2.332980595718704,1.8570014753790642,non_fall
6.242046,-1.5051,0.7053,0.9886,0.52,-0.3873,-0.1534,38.85,23.325,14.9813,,0.014314999999999856,1.9339348644667433,1.861014019696385,non_fall
6.247371,-1.5051,0.7053,0.9886,0.52,-0.3873,-0.1534,38.55,24.2438,12.9188,,0.005325000000000024,1.9339348644667433,1.8425797829804333,non_fall
6.26231,-1.1447,0.9645,0.4944,0.52,-0.3873,-0.1534,38.55,24.2438,12.9188,,0.014939000000000036,1.5763976972832712,1.8040786859764315,non_fall
6.275193,-1.1447,0.9645,0.4944,0.52,-0.3873,-0.1534,38.55,24.2438,12.9188,,0.012882999999999534,1.5763976972832712,1.7488221016727814,non_fall
6.280349,-1.1447,0.9645,0.4944,0.3869,-0.7953,0.0396,38.55,24.2438,12.9188,,0.0051560000000003825,1.5763976972832712,1.6806788325078663,non_fall
6.281302,0.0879,0.8671,-0.1786,0.3869,-0.7953,0.0396,38.55,24.2438,12.9188,,0.0009529999999999816,0.8896554276797282,1.603702979044391,non_fall
6.299951,0.9627,0.5965,-0.5953,0.3869,-0.7953,0.0396,38.55,24.2438,12.9188,,0.018648999999999916,1.2794473924315921,1.5218063638304442,non_fall
6.310046,0.9627,0.5965,-0.5953,0.3869,-0.7953,0.0396,38.85,24.8813,10.3125,,0.010094999999999743,1.2794473924315921,1.4385060214017489,non_fall
6.318299,1.2694,0.8128,-0.8131,0.3869,-0.7953,0.0396,38.85,24.8813,10.3125,,0.008252999999999844,1.7126446829392254,1.3567598980419129,non_fall
6.323032,1.2694,0.8128,-0.8131,0.3869,-0.7953,0.0396,38.85,24.8813,10.3125,,0.004733000000000764,1.7126446829392254,1.2788848284744705,non_fall
6.339086,0.7454,0.9953,-0.3803,0.3869,-0.7953,0.0396,38.85,24.8813,10.3125,,0.01605399999999957,1.3003350875831967,1.2065367934776443,non_fall
6.343079,0.7454,0.9953,-0.3803,0.2745,-0.0232,0.0213,38.85,24.8813,10.3125,,0.003993000000000357,1.3003350875831967,1.1407303158845135,non_fall
6.357496,0.3983,0.5916,-0.0916,0.2745,-0.0232,0.0213,38.85,24.8813,10.3125,,0.014416999999999902,0.7190438164673972,1.0818815776071282,non_fall
6.36786,0.3983,0.5916,-0.0916,0.2745,-0.0232,0.0213,39.9188,25.3313,8.7188,,0.01036400000000004,0.7190438164673972,1.0298721317779977,non_fall
6.372247,0.3983,0.5916,-0.0916,0.2745,-0.0232,0.0213,39.9188,25.3313,8.7188,,0.004386999999999475,0.7190438164673972,0.9841388234332816,non_fall
6.377128,-0.0611,0.746,0.0839,0.2745,-0.0232,0.0213,39.9188,25.3313,8.7188,,0.004881000000000135,0.7531855149961396,0.9437955135759313,non_fall
6.395834,-0.0829,1.2858,-0.1953,0.2745,-0.0232,0.0213,39.9188,25.3313,8.7188,,0.01870599999999989,1.3031869167544616,0.9077833053325238,non_fall
6.403802,-0.0829,1.2858,-0.1953,-0.0932,-0.0098,0.2412,39.9188,25.3313,8.7188,,0.007967999999999975,1.3031869167544616,0.875032858153147,non_fall
6.415074,-0.048,0.8643,-0.5189,-0.0932,-0.0098,0.2412,39.9188,25.3313,8.7188,,0.011271999999999949,1.009245113934172,0.8446122931676942,non_fall
6.418833,-0.048,0.8643,-0.5189,-0.0932,-0.0098,0.2412,39.9188,25.3313,8.7188,,0.003759000000000512,1.009245113934172,0.8158332051974053,non_fall
6.42817,-0.048,0.8643,-0.5189,-0.0932,-0.0098,0.2412,40.0312,24.9375,8.8313,,0.009336999999999485,1.009245113934172,0.7882964699625452,non_fall
6.433151,-0.2838,0.2994,-0.4573,-0.0932,-0.0098,0.2412,40.0312,24.9375,8.8313,,0.004980999999999902,0.6158783077849065,0.7618745242343283,non_fall
6.452548,-0.1212,-0.0941,-0.5158,-0.0932,-0.0098,0.2412,40.0312,24.9375,8.8313,,0.019397000000000553,0.5381392849439632,0.7366417443640414,non_fall
6.466739,-0.1212,-0.0941,-0.5158,-0.0932,-0.0098,0.2412,40.0312,24.9375,8.8313,,0.014190999999999399,0.5381392849439632,0.712775491446553,non_fall
6.470508,-0.1212,-0.0941,-0.5158,-0.2227,0.2786,0.1947,40.0312,24.9375,8.8313,,0.0037690000000001334,0.5381392849439632,0.690455200821587,non_fall
6.472586,-0.0297,-0.3406,-0.3776,-0.2227,0.2786,0.1947,40.0312,24.9375,8.8313,,0.0020780000000000243,0.5093841477706191,0.6697848973876961,non_fall
6.487283,-0.0297,-0.3406,-0.3776,-0.2227,0.2786,0.1947,40.5375,24.2063,9.1125,,0.01469699999999996,0.5093841477706191,0.6507571866276328,non_fall
6.490955,-0.2291,-0.4083,-0.3687,-0.2227,0.2786,0.1947,40.5375,24.2063,9.1125,,0.0036719999999998976,0.5959323703240159,0.6332669624754992,non_fall
6.51034,-0.4546,0.0589,-0.4345,-0.2227,0.2786,0.1947,40.5375,24.2063,9.1125,,0.01938500000000065,0.6316016307768687,0.6171731369647183,non_fall
6.515134,-0.4546,0.0589,-0.4345,-0.2227,0.2786,0.1947,40.5375,24.2063,9.1125,,0.004793999999999521,0.6316016307768687,0.6023979903756147,non_fall
6.528879,-0.4546,0.0589,-0.4345,-0.5209,0.0452,0.2252,40.5375,24.2063,9.1125,,0.013745000000000118,0.6316016307768687,0.5890472727349859,non_fall
6.530646,-0.3679,0.3138,-0.7191,-0.5209,0.0452,0.2252,40.5375,24.2063,9.1125,,0.001767000000000074,0.8665596690361259,0.5775306852806256,non_fall
6.548767,-0.0228,0.2381,-0.539,-0.5209,0.0452,0.2252,40.5375,24.2063,9.1125,,0.01812099999999983,0.5896884346839439,0.5686620453671711,non_fall
6.550647,-0.0228,0.2381,-0.539,-0.5209,0.0452,0.2252,40.5375,24.0375,10.4625,,0.0018799999999998818,0.5896884346839439,0.5637212049347095,non_fall
6.561862,-0.0228,0.2381,-0.539,-0.5209,0.0452,0.2252,40.5375,24.0375,10.4625,,0.011214999999999975,0.5896884346839439,0.5644651316448757,non_fall
6.567586,0.1625,0.1077,-0.4014,-0.5209,0.0452,0.2252,40.5375,24.0375,10.4625,,0.0057240000000007285,0.4462370446298693,0.5730818666134933,non_fall
6.587002,-0.4169,0.0752,-0.5421,-0.5209,0.0452,0.2252,40.5375,24.0375,10.4625,,0.019415999999999656,0.6879920493726653,0.5920861032506468,non_fall
6.591375,-0.4169,0.0752,-0.5421,-0.9008,0.2736,-0.0104,40.5375,24.0375,10.4625,,0.004373000000000182,0.6879920493726653,0.6241576421271072,non_fall
6.605283,-0.866,0.2526,-0.7616,-0.9008,0.2736,-0.0104,40.5375,24.0375,10.4625,,0.01390799999999981,1.180591936276036,0.6719246606158495,non_fall
6.607086,-0.866,0.2526,-0.7616,-0.9008,0.2736,-0.0104,40.7438,23.3813,11.4938,,0.001802999999999777,1.180591936276036,0.7376950687382728,non_fall
6.608864,-0.866,0.2526,-0.7616,-0.9008,0.2736,-0.0104,40.7438,23.3813,11.4938,,0.0017779999999998353,1.180591936276036,0.8231447292452421,non_fall
6.625032,-0.6837,0.3141,-0.4789,-0.9008,0.2736,-0.0104,40.7438,23.3813,11.4938,,0.016168000000000404,0.8918798741983137,0.9289837424864378,non_fall
6.64477,-0.1983,0.0209,0.0012,-0.9008,0.2736,-0.0104,40.7438,23.3813,11.4938,,0.019738000000000255,0.19940195585801057,1.0546404324477843,non_fall
6.653248,-0.1983,0.0209,0.0012,-1.0131,0.5888,0.1484,40.7438,23.3813,11.4938,,0.00847799999999932,0.19940195585801057,1.1980207394988278,non_fall
6.657771,-0.1983,0.0209,0.0012,-1.0131,0.5888,0.1484,40.7438,23.3813,11.4938,,0.004523000000000721,0.19940195585801057,1.3554080227908565,non_fall
6.663667,-0.795,1.4797,0.2391,-1.0131,0.5888,0.1484,40.7438,23.3813,11.4938,,0.005895999999999901,1.6966749541382404,1.5215556673757857,non_fall
6.668032,-0.795,1.4797,0.2391,-1.0131,0.5888,0.1484,39.8813,22.4813,13.8,,0.004364999999999952,1.6966749541382404,1.6899915575730784,non_fall
6.682903,-0.2124,-0.7314,-0.4304,-1.0131,0.5888,0.1484,39.8813,22.4813,13.8,,0.014870999999999412,0.8748164836124203,1.8535098739642826,non_fall
6.701384,0.6894,-3.3859,-0.749,-1.0131,0.5888,0.1484,39.8813,22.4813,13.8,,0.018481000000000414,3.535617650425453,2.004786830372659,non_fall
6.70531,0.6894,-3.3859,-0.749,-1.0131,0.5888,0.1484,39.8813,22.4813,13.8,,0.003925999999999874,3.535617650425453,2.137032059350376,non_fall
6.714933,0.6894,-3.3859,-0.749,-1.0693,0.6047,0.1874,39.8813,22.4813,13.8,,0.009623000000000381,3.535617650425453,2.244579835099786,non_fall
6.720029,0.5735,-0.6141,0.1147,-1.0693,0.6047,0.1874,39.8813,22.4813,13.8,,0.005095999999999989,0.8480431297994223,2.323339228126659,non_fall
6.726923,0.5735,-0.6141,0.1147,-1.0693,0.6047,0.1874,40.5938,21.0938,16.6688,,0.006893999999999956,0.8480431297994223,2.3710603586628656,non_fall
6.739848,1.2768,-3.7218,-0.6465,-1.0693,0.6047,0.1874,40.5938,21.0938,16.6688,,0.012925000000000075,3.9874773641990746,2.387417660313035,non_fall
6.753175,1.2768,-3.7218,-0.6465,-1.0693,0.6047,0.1874,40.5938,21.0938,16.6688,,0.013326999999999423,3.9874773641990746,2.3739340401318656,non_fall
6.759023,0.7985,-1.1191,-0.3517,-1.0693,0.6047,0.1874,40.5938,21.0938,16.6688,,0.005848000000000297,1.4190419127002556,2.333767585883884,non_fall
6.77748,0.7985,-1.1191,-0.3517,-0.8312,0.4862,-0.0019,40.5938,21.0938,16.6688,,0.018456999999999724,1.4190419127002556,2.2713790710846182,non_fall
6.781536,0.1899,-2.157,-0.2855,-0.8312,0.4862,-0.0019,40.5938,21.0938,16.6688,,0.004056000000000282,2.184083620194062,2.1921121253571707,non_fall
6.787452,0.1899,-2.157,-0.2855,-0.8312,0.4862,-0.0019,40.0312,20.1,18.975,,0.005916000000000032,2.184083620194062,2.1017363209438646,non_fall
6.798091,-1.1943,-0.8235,0.4922,-0.8312,0.4862,-0.0019,40.0312,20.1,18.975,,0.010639000000000287,1.5319156569472094,2.006005825146406,non_fall
6.801078,-1.1943,-0.8235,0.4922,-0.8312,0.4862,-0.0019,40.0312,20.1,18.975,,0.002987000000000073,1.5319156569472094,1.910272232704388,non_fall
6.816198,-0.9851,-2.2952,0.5933,-0.8312,0.4862,-0.0019,40.0312,20.1,18.975,,0.015119999999999578,2.567171583669467,1.8191727944434342,non_fall
6.836088,-0.6487,-1.4372,0.4069,-0.8312,0.4862,-0.0019,40.0312,20.1,18.975,,0.019890000000000185,1.628472640236857,1.7364015256438832,non_fall
6.839952,-0.6487,-1.4372,0.4069,-0.8507,-0.1858,-0.0802,40.0312,20.1,18.975,,0.0038640000000000896,1.628472640236857,1.6645613585956762,non_fall
6.847675,-0.6487,-1.4372,0.4069,-0.8507,-0.1858,-0.0802,39.8438,19.425,20.4188,,0.00772299999999948,1.628472640236857,1.605092277420189,non_fall
6.849304,-0.6487,-1.4372,0.4069,-0.8507,-0.1858,-0.0802,39.8438,19.425,20.4188,,0.0016290000000003246,1.628472640236857,1.5582732797271854,non_fall
6.854367,0.2093,-0.6212,0.0453,-0.8507,-0.1858,-0.0802,39.8438,19.425,20.4188,,0.005062999999999818,0.6570753533651981,1.5233005502708274,non_fall
6.873916,1.0432,0.0269,0.2071,-0.8507,-0.1858,-0.0802,39.8438,19.425,20.4188,,0.019549000000000483,1.0638986135905997,1.4984454148841866,non_fall
6.893091,1.7147,0.2524,0.2549,-0.8507,-0.1858,-0.0802,39.8438,19.425,20.4188,,0.01917499999999972,1.7518207271293484,1.4812903672526145,non_fall
6.897108,1.7147,0.2524,0.2549,-0.8507,-0.1858,-0.0802,39.8438,19.425,20.4188,,0.004017000000000159,1.7518207271293484,1.4690283194540426,non_fall
6.901331,1.7147,0.2524,0.2549,-0.8005,-0.3409,-0.6128,39.8438,19.425,20.4188,,0.004222999999999644,1.7518207271293484,1.4587927522777102,non_fall
6.909937,1.7147,0.2524,0.2549,-0.8005,-0.3409,-0.6128,40.05,19.2188,20.3063,,0.008606000000000336,1.7518207271293484,1.4479738035732164,non_fall
6.913387,1.8089,0.4781,-0.6081,-0.8005,-0.3409,-0.6128,40.05,19.2188,20.3063,,0.003449999999999953,1.9673546782418263,1.4344748228606707,non_fall
6.931142,1.2307,0.3551,-1.1616,-0.8005,-0.3409,-0.6128,40.05,19.2188,20.3063,,0.017755000000000187,1.729171206098459,1.4168751524221315,non_fall
6.944858,1.2307,0.3551,-1.1616,-0.8005,-0.3409,-0.6128,40.05,19.2188,20.3063,,0.013715999999999617,1.729171206098459,1.394483284855746,non_fall
6.950038,0.4859,0.0358,-0.6606,-0.8005,-0.3409,-0.6128,40.05,19.2188,20.3063,,0.0051800000000001845,0.8208366524467581,1.3672863238411803,non_fall
6.96371,0.4859,0.0358,-0.6606,-0.3338,-0.3018,-0.7594,40.05,19.2188,20.3063,,0.013671999999999684,0.8208366524467581,1.3358232004760329,non_fall
6.967626,0.4859,0.0358,-0.6606,-0.3338,-0.3018,-0.7594,40.5,20.0625,19.275,,0.003916000000000253,0.8208366524467581,1.3010243532101036,non_fall
6.968786,-0.4356,-0.4565,-0.1098,-0.3338,-0.3018,-0.7594,40.5,20.0625,19.275,,0.0011599999999996058,0.6404651825040921,1.2640628240942047,non_fall
6.988895,-1.3277,-0.6867,0.1057,-0.3338,-0.3018,-0.7594,40.5,20.0625,19.275,,0.0201090000000006,1.4985048114704205,1.2262485657921582,non_fall
6.992824,-1.3277,-0.6867,0.1057,-0.3338,-0.3018,-0.7594,40.5,20.0625,19.275,,0.003928999999999405,1.4985048114704205,1.188973981475903,non_fall
7.007502,-1.563,-0.7273,-0.0372,-0.3338,-0.3018,-0.7594,40.5,20.0625,19.275,,0.014677999999999969,1.7243312123835142,1.1536942293152095,non_fall
7.025925,-1.563,-0.7273,-0.0372,-0.4291,-0.369,-0.245,40.5,20.0625,19.275,,0.0184230000000003,1.7243312123835142,1.1219110030332404,non_fall
7.027593,-0.7629,-0.5143,-0.2056,-0.4291,-0.369,-0.245,40.5,20.0625,19.275,,0.001668000000000447,0.9427577949823592,1.0951294902116664,non_fall
7.028608,-0.7629,-0.5143,-0.2056,-0.4291,-0.369,-0.245,38.9813,21.4125,20.6813,,0.001014999999999766,0.9427577949823592,1.074773685868348,non_fall
7.040492,-0.7629,-0.5143,-0.2056,-0.4291,-0.369,-0.245,38.9813,21.4125,20.6813,,0.011884000000000228,0.9427577949823592,1.0620669371557734,non_fall
7.045455,0.0369,-0.2768,-0.4329,-0.4291,-0.369,-0.245,38.9813,21.4125,20.6813,,0.0049629999999991625,0.5151526569862568,1.05790206225943,non_fall
7.064735,0.6445,-0.2344,-0.3847,-0.4291,-0.369,-0.245,38.9813,21.4125,20.6813,,0.019280000000000186,0.7863318001963293,1.062731927249598,non_fall
7.084065,1.1774,-0.0017,0.2555,-0.4291,-0.369,-0.245,38.9813,21.4125,20.6813,,0.01933000000000007,1.2048045069636817,1.0765064196090819,non_fall
7.086749,1.1774,-0.0017,0.2555,-0.4291,-0.369,-0.245,38.7,21.0375,20.5688,,0.0026840000000003528,1.2048045069636817,1.0986689890023655,non_fall
7.08884,1.1774,-0.0017,0.2555,-0.4291,-0.369,-0.245,38.7,21.0375,20.5688,,0.002091000000000065,1.2048045069636817,1.1282110984380482,non_fall
7.090344,1.1774,-0.0017,0.2555,-0.1115,0.4814,-0.0276,38.7,21.0375,20.5688,,0.0015039999999997278,1.2048045069636817,1.1637721743579308,non_fall
7.103133,0.4642,0.1431,0.5167,-0.1115,0.4814,-0.0276,38.7,21.0375,20.5688,,0.012788999999999717,0.709181316730778,1.2037689689058468,non_fall
7.12263,-0.6368,-0.1584,1.2945,-0.1115,0.4814,-0.0276,38.7,21.0375,20.5688,,0.01949700000000032,1.4513218285411407,1.246539261701643,non_fall
7.136283,-0.6368,-0.1584,1.2945,-0.1115,0.4814,-0.0276,38.7,21.0375,20.5688,,0.013652999999999693,1.4513218285411407,1.290485420080681,non_fall
7.142775,-1.3117,-0.4133,1.0271,-0.1115,0.4814,-0.0276,38.7,21.0375,20.5688,,0.006492000000000608,1.7164813398344883,1.3342010090905159,non_fall
7.148375,-1.3117,-0.4133,1.0271,-0.1115,0.4814,-0.0276,37.125,21.1875,22.1813,,0.005599999999999383,1.7164813398344883,1.3765612106950134,non_fall
7.151421,-1.3117,-0.4133,1.0271,0.0093,0.3334,-0.0802,37.125,21.1875,22.1813,,0.0030460000000003262,1.7164813398344883,1.4167605906231606,non_fall
7.160369,-0.7534,-0.2058,0.4642,0.0093,0.3334,-0.0802,37.125,21.1875,22.1813,,0.008948000000000178,0.9085410502558483,1.4542921545410914,non_fall
7.179689,1.0014,-0.0259,0.7272,0.0093,0.3334,-0.0802,37.125,21.1875,22.1813,,0.01931999999999956,1.2378580734478408,1.4888765735063352,non_fall
7.184029,1.0014,-0.0259,0.7272,0.0093,0.3334,-0.0802,37.125,21.1875,22.1813,,0.0043400000000000105,1.2378580734478408,1.520362841039318,non_fall
7.198153,1.7001,-0.2556,0.6326,0.0093,0.3334,-0.0802,37.125,21.1875,22.1813,,0.014123999999999803,1.8318990501662475,1.5486247515219438,non_fall
7.210393,1.7001,-0.2556,0.6326,0.0093,0.3334,-0.0802,37.3125,21.0375,23.0063,,0.01224000000000025,1.8318990501662475,1.5734706334229331,non_fall
7.213586,1.7001,-0.2556,0.6326,0.2439,0.4581,-0.0117,37.3125,21.0375,23.0063,,0.0031930000000004455,1.8318990501662475,1.5945733272617846,non_fall
7.218128,0.8661,-0.4973,0.7668,0.2439,0.4581,-0.0117,37.3125,21.0375,23.0063,,0.004541999999999824,1.2591341231179465,1.611422023484224,non_fall
7.231582,0.8661,-0.4973,0.7668,0.2439,0.4581,-0.0117,37.3125,21.0375,23.0063,,0.013454000000000299,1.2591341231179465,1.6233002587721956,non_fall
7.236874,-0.1701,-0.761,0.93,0.2439,0.4581,-0.0117,37.3125,21.0375,23.0063,,0.005291999999999852,1.2136535790743586,1.6293002032350048,non_fall
7.256583,-1.0923,-0.9695,0.8345,0.2439,0.4581,-0.0117,37.3125,21.0375,23.0063,,0.019708999999999754,1.6820938707456252,1.6283841894250444,non_fall
7.267077,-1.0923,-0.9695,0.8345,0.2439,0.4581,-0.0117,36.6,21.6188,23.4375,,0.01049399999999956,1.6820938707456252,1.6194961013471225,non_fall
7.276241,-1.0923,-0.9695,0.8345,0.1658,0.1906,0.0774,36.6,21.6188,23.4375,,0.009164000000000172,1.6820938707456252,1.6017110404968438,non_fall
7.277923,-1.3265,-0.9873,0.7725,0.1658,0.1906,0.0774,36.6,21.6188,23.4375,,0.0016820000000006274,1.8251355538699037,1.5743989376613712,non_fall
7.278942,-1.3265,-0.9873,0.7725,0.1658,0.1906,0.0774,36.6,21.6188,23.4375,,0.001018999999999437,1.8251355538699037,1.5373717825934738,non_fall
7.29462,-1.0064,-0.9219,1.2206,0.1658,0.1906,0.0774,36.6,21.6188,23.4375,,0.015678000000000303,1.831011996137655,1.4909857885059503,non_fall
7.31381,-0.4123,-1.0092,0.9189,0.1658,0.1906,0.0774,36.6,21.6188,23.4375,,0.01919000000000004,1.4257815891643433,1.4361776627233396,non_fall
7.327581,-0.4123,-1.0092,0.9189,0.1658,0.1906,0.0774,36.6,21.6188,23.4375,,0.0137710000000002,1.4257815891643433,1.3744263792970033,non_fall
7.33149,-0.4123,-1.0092,0.9189,0.1658,0.1906,0.0774,36.5063,21.5438,23.2313,,0.003908999999999274,1.4257815891643433,1.3076457671134296,non_fall
7.334416,-0.0334,-0.729,0.6343,0.1658,0.1906,0.0774,36.5063,21.5438,23.2313,,0.0029260000000004283,0.966898676180705,1.2380253894505195,non_fall
7.335787,-0.0334,-0.729,0.6343,0.2366,-0.094,0.1226,36.5063,21.5438,23.2313,,0.001370999999999789,0.966898676180705,1.1678451729258037,non_fall
7.35182,0.1507,-0.6377,0.5255,0.2366,-0.094,0.1226,36.5063,21.5438,23.2313,,0.016033000000000186,0.8399535880035277,1.0992922720835883,non_fall
7.370925,0.56,-0.1406,0.7267,0.2366,-0.094,0.1226,36.5063,21.5438,23.2313,,0.019104999999999706,0.9281493683669672,1.0343063980906155,non_fall
7.374262,0.56,-0.1406,0.7267,0.2366,-0.094,0.1226,36.5063,21.5438,23.2313,,0.0033370000000001454,0.9281493683669672,0.9744724003443326,non_fall
7.387723,0.56,-0.1406,0.7267,0.2366,-0.094,0.1226,36.8063,21.4125,23.55,,0.01346100000000039,0.9281493683669672,0.9209681552128252,non_fall
7.389398,0.669,-0.2513,0.6676,0.2366,-0.094,0.1226,36.8063,21.4125,23.55,,0.001674999999999649,0.9779583068822515,0.8745651599611889,non_fall
7.398715,0.669,-0.2513,0.6676,0.1266,-0.0513,0.1544,36.8063,21.4125,23.55,,0.009317000000000242,0.9779583068822515,0.8356715487505917,non_fall
7.409212,0.3444,0.3018,0.4933,0.1266,-0.0513,0.1544,36.8063,21.4125,23.55,,0.010496999999999979,0.6730820826615428,0.8044037790139451,non_fall
7.422242,0.3444,0.3018,0.4933,0.1266,-0.0513,0.1544,36.8063,21.4125,23.55,,0.013029999999999653,0.6730820826615428,0.7806735522243089,non_fall
7.428654,0.4056,-0.9743,0.6448,0.1266,-0.0513,0.1544,36.8063,21.4125,23.55,,0.006412000000000084,1.2367452809693678,0.7642787929847298,non_fall
7.447482,-0.5969,-0.0507,0.2038,0.1266,-0.0513,0.1544,36.8063,21.4125,23.55,,0.018828000000000067,0.6327673664151778,0.7549896784036664,non_fall
7.449183,-0.5969,-0.0507,0.2038,0.1266,-0.0513,0.1544,37.8,21.6188,21.1313,,0.0017009999999997305,0.6327673664151778,0.7526226360102138,non_fall
7.461535,-0.5969,-0.0507,0.2038,0.1694,0.1356,0.2729,37.8,21.6188,21.1313,,0.012351999999999919,0.6327673664151778,0.7570981682801937,non_fall
7.466526,-0.4584,-0.3245,0.327,0.1694,0.1356,0.2729,37.8,21.6188,21.1313,,0.004991000000000412,0.6498921525914896,0.7684816511335029,non_fall
7.470773,-0.4584,-0.3245,0.327,0.1694,0.1356,0.2729,37.8,21.6188,21.1313,,0.004247000000000334,0.6498921525914896,0.7870069222590002,non_fall
7.485812,-0.1781,0.9648,0.6215,0.1694,0.1356,0.2729,37.8,21.6188,21.1313,,0.015038999999999803,1.161387489169743,0.8130790051826435,non_fall
7.50526,-0.4296,-1.103,-0.1907,0.1694,0.1356,0.2729,37.8,21.6188,21.1313,,0.019447999999999688,1.198971079717939,0.8472467480394954,non_fall
7.509301,-0.4296,-1.103,-0.1907,0.1694,0.1356,0.2729,37.1063,21.1313,23.2125,,0.004040999999999961,1.198971079717939,0.8901327109879994,non_fall
7.520557,-0.4296,-1.103,-0.1907,0.1694,0.1356,0.2729,37.1063,21.1313,23.2125,,0.011256000000000377,1.198971079717939,0.9423104261051578,non_fall
7.523613,-0.4296,-1.103,-0.1907,-0.0102,0.5559,0.2852,37.1063,21.1313,23.2125,,0.0030559999999999476,1.198971079717939,1.004129754734282,non_fall
7.526223,-0.4973,0.2745,0.7124,-0.0102,0.5559,0.2852,37.1063,21.1313,23.2125,,0.002609999999999779,0.911137366152876,1.075507166592696,non_fall
7.542561,-0.263,0.2176,0.2613,-0.0102,0.5559,0.2852,37.1063,21.1313,23.2125,,0.016338000000000186,0.4298795761605801,1.15571449515471,non_fall
7.562765,-0.2488,-0.783,0.2718,-0.0102,0.5559,0.2852,37.1063,21.1313,23.2125,,0.020203999999999667,0.8653702560176193,1.243211567291178,non_fall
7.566639,-0.2488,-0.783,0.2718,-0.0102,0.5559,0.2852,37.1063,21.1313,23.2125,,0.003874000000000599,0.8653702560176193,1.335569787179978,non_fall
7.568823,-0.2488,-0.783,0.2718,-0.0102,0.5559,0.2852,36.2625,20.2125,24.1688,,0.0021839999999997417,0.8653702560176193,1.4295223426873678,non_fall
7.580964,0.042,0.7583,1.6346,-0.0102,0.5559,0.2852,36.2625,20.2125,24.1688,,0.012140999999999735,1.8024150604120017,1.5211542556598239,non_fall
7.584927,0.042,0.7583,1.6346,0.0766,0.3774,0.1544,36.2625,20.2125,24.1688,,0.003963000000000605,1.8024150604120017,1.6062183979101379,non_fall
7.600301,-0.6591,-0.8649,0.8988,0.0766,0.3774,0.1544,36.2625,20.2125,24.1688,,0.015373999999999555,1.4107821447693474,1.680539371553444,non_fall
7.613588,-0.6591,-0.8649,0.8988,0.0766,0.3774,0.1544,36.2625,20.2125,24.1688,,0.013287000000000049,1.4107821447693474,1.7404514174669181,non_fall
7.619409,-0.9883,1.6518,2.274,0.0766,0.3774,0.1544,36.2625,20.2125,24.1688,,0.005821000000000076,2.9793046386699027,1.7832098805002166,non_fall
7.627286,-0.9883,1.6518,2.274,0.0766,0.3774,0.1544,36.0563,20.175,24.9,,0.00787699999999969,2.9793046386699027,1.8073147588946823,non_fall
7.638771,-1.559,-1.265,-0.0435,0.0766,0.3774,0.1544,36.0563,20.175,24.9,,0.011485000000000412,2.008133025972134,1.8126897123781258,non_fall
7.647161,-1.559,-1.265,-0.0435,0.3234,0.2138,-0.1242,36.0563,20.175,24.9,,0.008389999999999453,2.008133025972134,1.8006773568544678,non_fall
7.657718,-1.4058,0.2125,1.0735,0.3234,0.2138,-0.1242,36.0563,20.175,24.9,,0.010557000000000372,1.7815252285611898,1.7738444052765405,non_fall
7.663952,-1.4058,0.2125,1.0735,0.3234,0.2138,-0.1242,36.0563,20.175,24.9,,0.006234000000000073,1.7815252285611898,1.7356284752686522,non_fall
7.675962,-0.303,-0.3099,0.5499,0.3234,0.2138,-0.1242,36.0563,20.175,24.9,,0.012010000000000076,0.700169279531743,1.6898883386060293,non_fall
7.687579,-0.303,-0.3099,0.5499,0.3234,0.2138,-0.1242,35.55,20.9062,24.6188,,0.01161700000000021,0.700169279531743,1.6404343218228963,non_fall
7.696676,-0.2509,-1.0628,0.8695,0.3234,0.2138,-0.1242,35.55,20.9062,24.6188,,0.009096999999999689,1.395895733928577,1.5906144148194763,non_fall
7.709359,-0.2509,-1.0628,0.8695,0.3234,0.2138,-0.1242,35.55,20.9062,24.6188,,0.012683,1.395895733928577,1.5430140164729436,non_fall
7.710797,-0.2509,-1.0628,0.8695,-0.246,0.2051,-0.0399,35.55,20.9062,24.6188,,0.0014380000000002724,1.395895733928577,1.4992965691746318,non_fall
7.715156,-0.1029,1.9853,1.1349,-0.246,0.2051,-0.0399,35.55,20.9062,24.6188,,0.004359000000000002,2.2891051767011494,1.4601790146929867,non_fall
7.73406,-0.5401,0.6828,1.2554,-0.246,0.2051,-0.0399,35.55,20.9062,24.6188,,0.018904000000000032,1.5277280549888452,1.4255117587002122,non_fall
7.748265,-0.5401,0.6828,1.2554,-0.246,0.2051,-0.0399,35.475,20.0438,25.5375,,0.014204999999999579,1.5277280549888452,1.3944236719306249,non_fall
7.753471,-0.2915,-0.4446,1.1384,-0.246,0.2051,-0.0399,35.475,20.0438,25.5375,,0.005206000000000266,1.256421891722681,1.3654978003028266,non_fall
7.757967,-0.2915,-0.4446,1.1384,-0.246,0.2051,-0.0399,35.475,20.0438,25.5375,,0.004495999999999611,1.256421891722681,1.3369568425918,non_fall
7.772167,-0.2915,-0.4446,1.1384,-0.0432,0.375,0.0164,35.475,20.0438,25.5375,,0.014199999999999768,1.256421891722681,1.3068505693499062,non_fall
7.774283,-0.1715,-0.8381,0.9036,-0.0432,0.375,0.0164,35.475,20.0438,25.5375,,0.0021160000000000068,1.244313794828298,1.2732444048777127,non_fall
7.791992,-0.0438,0.4923,0.7862,-0.0432,0.375,0.0164,35.475,20.0438,25.5375,,0.017708999999999975,0.9286485718505144,1.2344090768639764,non_fall
