
time,ax,ay,az,wx,wy,wz,Bx,By,Bz,
0.027639,-0.1167,0.4452,-0.6716,0.0000,0.0000,0.0000,0.0000,0.0000,0.0000,
0.037304,-0.1167,0.4452,-0.6716,0.0000,0.0000,0.0000,0.0000,0.0000,0.0000,
0.048164,0.3653,-0.2317,0.4232,0.0000,0.0000,0.0000,0.0000,0.0000,0.0000,
0.062244,0.3653,-0.2317,0.4232,0.0000,0.0000,0.0000,-33.9563,-29.5875,-2.3625,
0.065636,0.3653,-0.2317,0.4232,-0.0003,-0.0425,-0.0304,-33.9563,-29.5875,-2.3625,
0.066598,0.1474,-0.1561,0.3909,-0.0003,-0.0425,-0.0304,-33.9563,-29.5875,-2.3625,
0.085210,0.1474,-0.1561,0.3909,-0.0003,-0.0425,-0.0304,-33.9563,-29.5875,-2.3625,
0.087946,-0.0405,0.0450,0.0777,-0.0003,-0.0425,-0.0304,-33.9563,-29.5875,-2.3625,
0.104230,0.0432,0.0777,-0.2466,-0.0003,-0.0425,-0.0304,-33.9563,-29.5875,-2.3625,
0.121352,0.0432,0.0777,-0.2466,-0.0003,-0.0425,-0.0304,-32.7000,-29.5125,-2.6063,
0.123922,0.1444,0.0246,-0.2175,-0.0003,-0.0425,-0.0304,-32.7000,-29.5125,-2.6063,
0.127494,0.1444,0.0246,-0.2175,-0.0136,-0.0265,-0.0022,-32.7000,-29.5125,-2.6063,
0.132688,0.1444,0.0246,-0.2175,-0.0136,-0.0265,-0.0022,-32.7000,-29.5125,-2.6063,
0.143994,0.1179,-0.0704,0.0972,-0.0136,-0.0265,-0.0022,-32.7000,-29.5125,-2.6063,
0.162581,0.0602,-0.0759,0.1089,-0.0136,-0.0265,-0.0022,-32.7000,-29.5125,-2.6063,
0.179625,0.0602,-0.0759,0.1089,-0.0136,-0.0265,-0.0022,-32.7000,-29.5125,-2.6063,
0.182285,0.1105,0.0192,-0.0735,-0.0136,-0.0265,-0.0022,-32.7000,-29.5125,-2.6063,
0.184599,0.1105,0.0192,-0.0735,-0.0136,-0.0265,-0.0022,-33.4875,-29.5125,-2.1750,
0.189451,0.1105,0.0192,-0.0735,0.0047,0.0015,-0.0022,-33.4875,-29.5125,-2.1750,
0.199663,0.0152,0.0488,-0.1216,0.0047,0.0015,-0.0022,-33.4875,-29.5125,-2.1750,
0.219811,0.0609,-0.0507,0.0101,0.0047,0.0015,-0.0022,-33.4875,-29.5125,-2.1750,
0.228915,0.0609,-0.0507,0.0101,0.0047,0.0015,-0.0022,-33.4875,-29.5125,-2.1750,
0.240314,0.1073,-0.0328,0.0842,0.0047,0.0015,-0.0022,-33.4875,-29.5125,-2.1750,
0.241940,0.1073,-0.0328,0.0842,0.0047,0.0015,-0.0022,-33.3750,-29.3813,-2.7000,
0.251879,0.1073,-0.0328,0.0842,0.0034,-0.0058,-0.0022,-33.3750,-29.3813,-2.7000,
0.258033,0.0709,0.0027,-0.0618,0.0034,-0.0058,-0.0022,-33.3750,-29.3813,-2.7000,
0.276189,0.0709,0.0027,-0.0618,0.0034,-0.0058,-0.0022,-33.3750,-29.3813,-2.7000,
0.278928,0.0944,0.0049,-0.0689,0.0034,-0.0058,-0.0022,-33.3750,-29.3813,-2.7000,
0.295953,0.1377,-0.0492,-0.0042,0.0034,-0.0058,-0.0022,-33.3750,-29.3813,-2.7000,
0.300857,0.1377,-0.0492,-0.0042,0.0034,-0.0058,-0.0022,-33.1875,-29.4188,-2.2875,
0.314595,0.1377,-0.0492,-0.0042,0.0010,0.0089,0.0014,-33.1875,-29.4188,-2.2875,
0.317324,0.0890,-0.0317,0.0147,0.0010,0.0089,0.0014,-33.1875,-29.4188,-2.2875,
0.323188,0.0890,-0.0317,0.0147,0.0010,0.0089,0.0014,-33.1875,-29.4188,-2.2875,
0.334650,0.0765,0.0089,-0.0383,0.0010,0.0089,0.0014,-33.1875,-29.4188,-2.2875,
0.353625,0.0205,-0.0358,0.0046,0.0010,0.0089,0.0014,-33.1875,-29.4188,-2.2875,
0.362132,0.0205,-0.0358,0.0046,0.0010,0.0089,0.0014,-32.9813,-29.7938,-2.5125,
0.372251,0.0205,-0.0358,0.0046,0.0010,0.0089,0.0014,-32.9813,-29.7938,-2.5125,
0.373442,0.0588,-0.0076,0.0357,0.0010,0.0089,0.0014,-32.9813,-29.7938,-2.5125,
0.376150,0.0588,-0.0076,0.0357,0.0120,-0.0155,0.0014,-32.9813,-29.7938,-2.5125,
0.392227,0.1206,0.0053,-0.0692,0.0120,-0.0155,0.0014,-32.9813,-29.7938,-2.5125,
0.411522,0.1095,-0.0156,0.0125,0.0120,-0.0155,0.0014,-32.9813,-29.7938,-2.5125,
0.419944,0.1095,-0.0156,0.0125,0.0120,-0.0155,0.0014,-32.9813,-29.7938,-2.5125,
0.421161,0.1095,-0.0156,0.0125,0.0120,-0.0155,0.0014,-33.1875,-29.4000,-2.6063,
0.429427,0.0959,0.0031,-0.0088,0.0120,-0.0155,0.0014,-33.1875,-29.4000,-2.6063,
0.438376,0.0959,0.0031,-0.0088,0.0059,-0.0082,0.0014,-33.1875,-29.4000,-2.6063,
0.450040,0.1136,0.0285,-0.0589,0.0059,-0.0082,0.0014,-33.1875,-29.4000,-2.6063,
0.467696,0.1136,0.0285,-0.0589,0.0059,-0.0082,0.0014,-33.1875,-29.4000,-2.6063,
0.470831,0.0805,-0.0116,0.0033,0.0059,-0.0082,0.0014,-33.1875,-29.4000,-2.6063,
0.481286,0.0805,-0.0116,0.0033,0.0059,-0.0082,0.0014,-31.4250,-29.2688,-3.9000,
0.486429,0.0428,-0.0111,0.0104,0.0059,-0.0082,0.0014,-31.4250,-29.2688,-3.9000,
0.501382,0.0428,-0.0111,0.0104,0.0010,-0.0118,0.0014,-31.4250,-29.2688,-3.9000,
0.506644,0.0467,-0.0180,-0.0325,0.0010,-0.0118,0.0014,-31.4250,-29.2688,-3.9000,
0.516408,0.0467,-0.0180,-0.0325,0.0010,-0.0118,0.0014,-31.4250,-29.2688,-3.9000,
0.525446,0.0857,-0.0411,0.0014,0.0010,-0.0118,0.0014,-31.4250,-29.2688,-3.9000,
0.541860,0.0857,-0.0411,0.0014,0.0010,-0.0118,0.0014,-33.1875,-29.4750,-3.0188,
0.545113,0.1012,-0.0332,0.0045,0.0010,-0.0118,0.0014,-33.1875,-29.4750,-3.0188,
0.563213,0.1012,-0.0332,0.0045,0.0010,-0.0118,0.0014,-33.1875,-29.4750,-3.0188,
0.564190,0.1012,-0.0332,0.0045,0.0010,-0.0302,-0.0034,-33.1875,-29.4750,-3.0188,
0.565273,0.0947,-0.0182,-0.0087,0.0010,-0.0302,-0.0034,-33.1875,-29.4750,-3.0188,
0.583539,0.0709,0.0202,-0.0050,0.0010,-0.0302,-0.0034,-33.1875,-29.4750,-3.0188,
0.603389,0.0725,0.0303,0.0156,0.0010,-0.0302,-0.0034,-33.1875,-29.4750,-3.0188,
0.606340,0.0725,0.0303,0.0156,0.0010,-0.0302,-0.0034,-33.1875,-29.4938,-2.7000,
0.610541,0.0725,0.0303,0.0156,0.0010,-0.0302,-0.0034,-33.1875,-29.4938,-2.7000,
0.620542,0.0798,0.0189,0.0001,0.0010,-0.0302,-0.0034,-33.1875,-29.4938,-2.7000,
0.624978,0.0798,0.0189,0.0001,-0.0063,-0.0302,-0.0047,-33.1875,-29.4938,-2.7000,
0.640225,0.1265,-0.0323,-0.0442,-0.0063,-0.0302,-0.0047,-33.1875,-29.4938,-2.7000,
0.659006,0.1265,-0.0323,-0.0442,-0.0063,-0.0302,-0.0047,-33.1875,-29.4938,-2.7000,
0.661442,0.1286,-0.0120,-0.0460,-0.0063,-0.0302,-0.0047,-33.1875,-29.4938,-2.7000,
0.662980,0.1286,-0.0120,-0.0460,-0.0063,-0.0302,-0.0047,-33.1875,-29.4000,-2.4000,
0.679476,0.1079,-0.0348,-0.0025,-0.0063,-0.0302,-0.0047,-33.1875,-29.4000,-2.4000,
0.687017,0.1079,-0.0348,-0.0025,0.0010,0.0027,-0.0011,-33.1875,-29.4000,-2.4000,
0.697865,0.0619,-0.0153,0.0167,0.0010,0.0027,-0.0011,-33.1875,-29.4000,-2.4000,
0.708061,0.0619,-0.0153,0.0167,0.0010,0.0027,-0.0011,-33.1875,-29.4000,-2.4000,
0.719457,0.0484,0.0131,0.0002,0.0010,0.0027,-0.0011,-33.1875,-29.4000,-2.4000,
0.722344,0.0484,0.0131,0.0002,0.0010,0.0027,-0.0011,-32.7938,-29.4375,-2.1000,
0.736472,0.0435,0.0177,0.0294,0.0010,0.0027,-0.0011,-32.7938,-29.4375,-2.1000,
0.748962,0.0435,0.0177,0.0294,0.0010,-0.0302,-0.0034,-32.7938,-29.4375,-2.1000,
0.754115,0.0435,0.0177,0.0294,0.0010,-0.0302,-0.0034,-32.7938,-29.4375,-2.1000,
0.756490,0.0524,-0.0062,-0.0031,0.0010,-0.0302,-0.0034,-32.7938,-29.4375,-2.1000,
0.774163,0.0743,-0.0014,-0.0234,0.0010,-0.0302,-0.0034,-32.7938,-29.4375,-2.1000,
0.780678,0.0743,-0.0014,-0.0234,0.0010,-0.0302,-0.0034,-33.0000,-29.5125,-2.4000,
0.794817,0.0961,-0.0149,-0.0269,0.0010,-0.0302,-0.0034,-33.0000,-29.5125,-2.4000,
0.802425,0.0961,-0.0149,-0.0269,0.0010,-0.0302,-0.0034,-33.0000,-29.5125,-2.4000,
0.810980,0.0961,-0.0149,-0.0269,0.0010,-0.0107,-0.0034,-33.0000,-29.5125,-2.4000,
0.811984,0.1084,-0.0120,-0.0093,0.0010,-0.0107,-0.0034,-33.0000,-29.5125,-2.4000,
0.831166,0.0779,0.0237,-0.0018,0.0010,-0.0107,-0.0034,-33.0000,-29.5125,-2.4000,
0.841506,0.0779,0.0237,-0.0018,0.0010,-0.0107,-0.0034,-33.4875,-29.2500,-3.1125,
0.850106,0.0779,0.0237,-0.0018,0.0010,-0.0107,-0.0034,-33.4875,-29.2500,-3.1125,
0.851130,0.0565,0.0171,0.0035,0.0010,-0.0107,-0.0034,-33.4875,-29.2500,-3.1125,
0.870670,0.0412,0.0031,0.0381,0.0010,-0.0107,-0.0034,-33.4875,-29.2500,-3.1125,
0.873400,0.0412,0.0031,0.0381,-0.0038,-0.0485,-0.0034,-33.4875,-29.2500,-3.1125,
0.888913,0.0571,0.0177,-0.0346,-0.0038,-0.0485,-0.0034,-33.4875,-29.2500,-3.1125,
0.898198,0.0571,0.0177,-0.0346,-0.0038,-0.0485,-0.0034,-33.4875,-29.2500,-3.1125,
0.901211,0.0571,0.0177,-0.0346,-0.0038,-0.0485,-0.0034,-33.3750,-29.4750,-2.7938,
0.907190,0.1320,0.0036,-0.0339,-0.0038,-0.0485,-0.0034,-33.3750,-29.4750,-2.7938,
0.927210,0.1908,-0.0216,-0.0312,-0.0038,-0.0485,-0.0034,-33.3750,-29.4750,-2.7938,
0.936202,0.1908,-0.0216,-0.0312,-0.0015,0.0187,-0.0034,-33.3750,-29.4750,-2.7938,
0.945302,0.1908,-0.0216,-0.0312,-0.0015,0.0187,-0.0034,-33.3750,-29.4750,-2.7938,
0.946330,0.0615,0.0075,-0.0148,-0.0015,0.0187,-0.0034,-33.3750,-29.4750,-2.7938,
0.961124,0.0615,0.0075,-0.0148,-0.0015,0.0187,-0.0034,-31.8000,-29.6625,-3.8813,
0.965483,-0.0148,0.0005,0.0297,-0.0015,0.0187,-0.0034,-31.8000,-29.6625,-3.8813,
0.984484,0.0368,-0.0155,0.0602,-0.0015,0.0187,-0.0034,-31.8000,-29.6625,-3.8813,
0.996261,0.0368,-0.0155,0.0602,-0.0015,0.0187,-0.0034,-31.8000,-29.6625,-3.8813,
0.997706,0.0368,-0.0155,0.0602,0.0034,-0.0058,0.0026,-31.8000,-29.6625,-3.8813,
1.003682,0.0676,0.0009,0.0147,0.0034,-0.0058,0.0026,-31.8000,-29.6625,-3.8813,
1.022156,0.0676,0.0009,0.0147,0.0034,-0.0058,0.0026,-33.2812,-29.8125,-2.2875,
1.025351,0.0567,0.0120,-0.0234,0.0034,-0.0058,0.0026,-33.2812,-29.8125,-2.2875,
1.041154,0.0567,0.0120,-0.0234,0.0034,-0.0058,0.0026,-33.2812,-29.8125,-2.2875,
1.042168,0.1061,0.0147,-0.0088,0.0034,-0.0058,0.0026,-33.2812,-29.8125,-2.2875,
1.061793,0.1061,0.0147,-0.0088,-0.0003,0.0125,0.0014,-33.2812,-29.8125,-2.2875,
1.064066,0.1096,0.0007,0.0125,-0.0003,0.0125,0.0014,-33.2812,-29.8125,-2.2875,
1.080225,0.0924,0.0216,-0.0094,-0.0003,0.0125,0.0014,-33.2812,-29.8125,-2.2875,
1.083239,0.0924,0.0216,-0.0094,-0.0003,0.0125,0.0014,-32.9062,-29.2875,-2.9250,
1.089064,0.0924,0.0216,-0.0094,-0.0003,0.0125,0.0014,-32.9062,-29.2875,-2.9250,
1.098997,0.0280,0.0096,0.0093,-0.0003,0.0125,0.0014,-32.9062,-29.2875,-2.9250,
1.118552,0.0475,-0.0231,0.0308,-0.0003,0.0125,0.0014,-32.9062,-29.2875,-2.9250,
1.121902,0.0475,-0.0231,0.0308,-0.0015,-0.0095,0.0014,-32.9062,-29.2875,-2.9250,
1.137734,0.0475,-0.0231,0.0308,-0.0015,-0.0095,0.0014,-32.9062,-29.2875,-2.9250,
1.140384,0.0666,-0.0157,0.0169,-0.0015,-0.0095,0.0014,-32.9062,-29.2875,-2.9250,
1.142965,0.0666,-0.0157,0.0169,-0.0015,-0.0095,0.0014,-32.7938,-29.5500,-1.8938,
1.157034,0.1014,-0.0138,-0.0280,-0.0015,-0.0095,0.0014,-32.7938,-29.5500,-1.8938,
1.176138,0.0927,0.0284,-0.0206,-0.0015,-0.0095,0.0014,-32.7938,-29.5500,-1.8938,
1.185911,0.0927,0.0284,-0.0206,-0.0015,-0.0095,0.0014,-32.7938,-29.5500,-1.8938,
1.188363,0.0927,0.0284,-0.0206,-0.0015,0.0003,0.0001,-32.7938,-29.5500,-1.8938,
1.195898,0.0638,-0.0286,0.0250,-0.0015,0.0003,0.0001,-32.7938,-29.5500,-1.8938,
1.200341,0.0638,-0.0286,0.0250,-0.0015,0.0003,0.0001,-32.5875,-29.7938,-2.7188,
1.214983,0.0633,0.0026,0.0318,-0.0015,0.0003,0.0001,-32.5875,-29.7938,-2.7188,
1.232685,0.0633,0.0026,0.0318,-0.0015,0.0003,0.0001,-32.5875,-29.7938,-2.7188,
1.235313,0.0819,0.0186,-0.0021,-0.0015,0.0003,0.0001,-32.5875,-29.7938,-2.7188,
1.246993,0.0819,0.0186,-0.0021,-0.0003,-0.0033,0.0014,-32.5875,-29.7938,-2.7188,
1.252052,0.0696,0.0467,0.0214,-0.0003,-0.0033,0.0014,-32.5875,-29.7938,-2.7188,
1.261880,0.0696,0.0467,0.0214,-0.0003,-0.0033,0.0014,-32.7938,-29.5875,-2.7188,
1.274655,0.0727,-0.0110,0.0021,-0.0003,-0.0033,0.0014,-32.7938,-29.5875,-2.7188,
1.280675,0.0727,-0.0110,0.0021,-0.0003,-0.0033,0.0014,-32.7938,-29.5875,-2.7188,
1.290862,0.0706,-0.0135,-0.0147,-0.0003,-0.0033,0.0014,-32.7938,-29.5875,-2.7188,
1.308918,0.0706,-0.0135,-0.0147,-0.0015,-0.0180,0.0026,-32.7938,-29.5875,-2.7188,
1.311676,0.1084,-0.0747,-0.0145,-0.0015,-0.0180,0.0026,-32.7938,-29.5875,-2.7188,
1.321087,0.1084,-0.0747,-0.0145,-0.0015,-0.0180,0.0026,-32.9813,-29.5875,-2.6063,
1.328284,0.1084,-0.0747,-0.0145,-0.0015,-0.0180,0.0026,-32.9813,-29.5875,-2.6063,
1.329615,0.0636,-0.0564,0.0505,-0.0015,-0.0180,0.0026,-32.9813,-29.5875,-2.6063,
1.347876,0.0503,0.0081,0.0464,-0.0015,-0.0180,0.0026,-32.9813,-29.5875,-2.6063,
1.367129,0.0801,0.0660,-0.0340,-0.0015,-0.0180,0.0026,-32.9813,-29.5875,-2.6063,
1.370867,0.0801,0.0660,-0.0340,0.0022,-0.0290,-0.0011,-32.9813,-29.5875,-2.6063,
1.374706,0.0801,0.0660,-0.0340,0.0022,-0.0290,-0.0011,-32.9813,-29.5875,-2.6063,
1.382230,0.0801,0.0660,-0.0340,0.0022,-0.0290,-0.0011,-32.7938,-29.2875,-2.8125,
1.385627,0.1730,0.0649,-0.0551,0.0022,-0.0290,-0.0011,-32.7938,-29.2875,-2.8125,
1.405620,0.1523,0.0205,0.0023,0.0022,-0.0290,-0.0011,-32.7938,-29.2875,-2.8125,
1.423787,0.1523,0.0205,0.0023,0.0022,-0.0290,-0.0011,-32.7938,-29.2875,-2.8125,
1.426559,0.0684,-0.0166,0.0135,0.0022,-0.0290,-0.0011,-32.7938,-29.2875,-2.8125,
1.432596,0.0684,-0.0166,0.0135,-0.0051,0.0065,0.0026,-32.7938,-29.2875,-2.8125,
1.441622,0.0684,-0.0166,0.0135,-0.0051,0.0065,0.0026,-31.9125,-29.8313,-0.9750,
1.443148,0.0342,-0.0556,0.0392,-0.0051,0.0065,0.0026,-31.9125,-29.8313,-0.9750,
1.462746,0.0743,-0.0261,0.0389,-0.0051,0.0065,0.0026,-31.9125,-29.8313,-0.9750,
1.472154,0.0743,-0.0261,0.0389,-0.0051,0.0065,0.0026,-31.9125,-29.8313,-0.9750,
1.481337,0.1006,0.0140,0.0317,-0.0051,0.0065,0.0026,-31.9125,-29.8313,-0.9750,
1.495141,0.1006,0.0140,0.0317,0.0059,-0.0168,0.0062,-31.9125,-29.8313,-0.9750,
1.501269,0.1186,0.0126,-0.0305,0.0059,-0.0168,0.0062,-31.9125,-29.8313,-0.9750,
1.503838,0.1186,0.0126,-0.0305,0.0059,-0.0168,0.0062,-32.6813,-29.7000,-2.6250,
1.519012,0.1186,0.0126,-0.0305,0.0059,-0.0168,0.0062,-32.6813,-29.7000,-2.6250,
1.519965,0.1344,-0.0113,-0.0107,0.0059,-0.0168,0.0062,-32.6813,-29.7000,-2.6250,
1.539745,0.0992,-0.0346,-0.0194,0.0059,-0.0168,0.0062,-32.6813,-29.7000,-2.6250,
1.557277,0.0992,-0.0346,-0.0194,-0.0038,0.0027,0.0001,-32.6813,-29.7000,-2.6250,
1.558177,0.1353,-0.0217,-0.0022,-0.0038,0.0027,0.0001,-32.6813,-29.7000,-2.6250,
1.560850,0.1353,-0.0217,-0.0022,-0.0038,0.0027,0.0001,-33.3750,-29.6063,-2.1750,
1.566708,0.1353,-0.0217,-0.0022,-0.0038,0.0027,0.0001,-33.3750,-29.6063,-2.1750,
1.577507,0.1847,-0.0442,-0.0326,-0.0038,0.0027,0.0001,-33.3750,-29.6063,-2.1750,
1.596503,0.0472,0.0247,-0.0366,-0.0038,0.0027,0.0001,-33.3750,-29.6063,-2.1750,
1.614431,0.0472,0.0247,-0.0366,-0.0038,0.0027,0.0001,-33.3750,-29.6063,-2.1750,
1.615513,0.0447,0.0076,0.0765,-0.0038,0.0027,0.0001,-33.3750,-29.6063,-2.1750,
1.619158,0.0447,0.0076,0.0765,-0.0113,-0.0192,-0.0121,-33.3750,-29.6063,-2.1750,
1.621200,0.0447,0.0076,0.0765,-0.0113,-0.0192,-0.0121,-33.1688,-29.7000,-2.4000,
1.635483,0.0603,0.0154,0.1040,-0.0113,-0.0192,-0.0121,-33.1688,-29.7000,-2.4000,
1.654434,0.1631,0.0359,0.0440,-0.0113,-0.0192,-0.0121,-33.1688,-29.7000,-2.4000,
1.663204,0.1631,0.0359,0.0440,-0.0113,-0.0192,-0.0121,-33.1688,-29.7000,-2.4000,
1.673704,-0.1170,0.0737,0.0036,-0.0113,-0.0192,-0.0121,-33.1688,-29.7000,-2.4000,
1.681379,-0.1170,0.0737,0.0036,-0.0113,-0.0192,-0.0121,-33.0750,-29.8125,-2.2875,
1.683936,-0.1170,0.0737,0.0036,-0.0308,-0.1158,-0.0341,-33.0750,-29.8125,-2.2875,
1.691639,-0.2549,0.1309,0.2711,-0.0308,-0.1158,-0.0341,-33.0750,-29.8125,-2.2875,
1.710682,-0.2549,0.1309,0.2711,-0.0308,-0.1158,-0.0341,-33.0750,-29.8125,-2.2875,
1.713403,-0.0329,0.0143,-0.0247,-0.0308,-0.1158,-0.0341,-33.0750,-29.8125,-2.2875,
1.730092,0.0782,0.0209,0.0066,-0.0308,-0.1158,-0.0341,-33.0750,-29.8125,-2.2875,
1.741124,0.0782,0.0209,0.0066,-0.0308,-0.1158,-0.0341,-32.7000,-29.6438,-1.7813,
1.743450,0.0782,0.0209,0.0066,-0.0271,-0.2331,-0.0109,-32.7000,-29.6438,-1.7813,
1.749231,0.2667,-0.0891,-0.1536,-0.0271,-0.2331,-0.0109,-32.7000,-29.6438,-1.7813,
1.758154,0.2667,-0.0891,-0.1536,-0.0271,-0.2331,-0.0109,-32.7000,-29.6438,-1.7813,
1.768093,0.6629,-0.1267,-0.2291,-0.0271,-0.2331,-0.0109,-32.7000,-29.6438,-1.7813,
1.787601,0.5678,-0.0383,-0.2584,-0.0271,-0.2331,-0.0109,-32.7000,-29.6438,-1.7813,
1.802536,0.5678,-0.0383,-0.2584,-0.0271,-0.2331,-0.0109,-33.1125,-29.3625,-1.4625,
1.805845,0.5678,-0.0383,-0.2584,-0.0271,-0.2331,-0.0109,-33.1125,-29.3625,-1.4625,
1.807711,0.5678,-0.0383,-0.2584,-0.0100,0.1458,0.0062,-33.1125,-29.3625,-1.4625,
1.809379,0.0345,0.0145,-0.0471,-0.0100,0.1458,0.0062,-33.1125,-29.3625,-1.4625,
1.825648,-0.1690,-0.0301,0.2306,-0.0100,0.1458,0.0062,-33.1125,-29.3625,-1.4625,
1.845310,-0.1225,0.0009,0.1518,-0.0100,0.1458,0.0062,-33.1125,-29.3625,-1.4625,
1.853837,-0.1225,0.0009,0.1518,-0.0100,0.1458,0.0062,-33.1125,-29.3625,-1.4625,
1.862276,-0.1225,0.0009,0.1518,-0.0100,0.1458,0.0062,-32.6813,-29.8125,-2.3063,
1.863356,0.0629,0.0345,-0.0066,-0.0100,0.1458,0.0062,-32.6813,-29.8125,-2.3063,
1.867820,0.0629,0.0345,-0.0066,0.0071,-0.0008,0.0087,-32.6813,-29.8125,-2.3063,
1.883344,0.1898,-0.0210,-0.0564,0.0071,-0.0008,0.0087,-32.6813,-29.8125,-2.3063,
1.901759,0.1898,-0.0210,-0.0564,0.0071,-0.0008,0.0087,-32.6813,-29.8125,-2.3063,
1.904245,0.1839,0.0215,-0.0754,0.0071,-0.0008,0.0087,-32.6813,-29.8125,-2.3063,
1.921594,0.0567,-0.0050,0.0147,0.0071,-0.0008,0.0087,-32.6813,-29.8125,-2.3063,
1.922504,0.0567,-0.0050,0.0147,0.0071,-0.0008,0.0087,-33.0000,-29.5500,-1.5750,
1.929786,0.0567,-0.0050,0.0147,-0.0038,0.0418,0.0062,-33.0000,-29.5500,-1.5750,
1.941747,-0.0294,-0.0162,0.1329,-0.0038,0.0418,0.0062,-33.0000,-29.5500,-1.5750,
1.950221,-0.0294,-0.0162,0.1329,-0.0038,0.0418,0.0062,-33.0000,-29.5500,-1.5750,
1.962332,-0.0490,-0.0143,0.1091,-0.0038,0.0418,0.0062,-33.0000,-29.5500,-1.5750,
1.979073,-0.1028,0.0131,0.0824,-0.0038,0.0418,0.0062,-33.0000,-29.5500,-1.5750,
1.982361,-0.1028,0.0131,0.0824,-0.0038,0.0418,0.0062,-33.0000,-29.6625,-1.4625,
1.992269,-0.1028,0.0131,0.0824,0.0071,-0.1206,0.0014,-33.0000,-29.6625,-1.4625,
1.996713,-0.1028,0.0131,0.0824,0.0071,-0.1206,0.0014,-33.0000,-29.6625,-1.4625,
1.997526,0.0614,-0.0027,0.0746,0.0071,-0.1206,0.0014,-33.0000,-29.6625,-1.4625,
2.017429,0.1051,0.0137,0.0051,0.0071,-0.1206,0.0014,-33.0000,-29.6625,-1.4625,
2.036455,0.1472,0.0510,-0.0627,0.0071,-0.1206,0.0014,-33.0000,-29.6625,-1.4625,
2.043695,0.1472,0.0510,-0.0627,0.0071,-0.1206,0.0014,-32.7938,-29.4375,-1.9875,
2.045509,0.1472,0.0510,-0.0627,0.0071,-0.1206,0.0014,-32.7938,-29.4375,-1.9875,
2.054317,0.1472,0.0510,-0.0627,0.0034,-0.0363,0.0038,-32.7938,-29.4375,-1.9875,
2.055657,0.2725,-0.0385,-0.1455,0.0034,-0.0363,0.0038,-32.7938,-29.4375,-1.9875,
2.075033,0.2310,-0.0267,-0.0850,0.0034,-0.0363,0.0038,-32.7938,-29.4375,-1.9875,
2.093548,0.2310,-0.0267,-0.0850,0.0034,-0.0363,0.0038,-32.7938,-29.4375,-1.9875,
2.096040,0.0239,-0.0099,-0.0006,0.0034,-0.0363,0.0038,-32.7938,-29.4375,-1.9875,
2.102034,0.0239,-0.0099,-0.0006,0.0034,-0.0363,0.0038,-33.6750,-29.6625,-0.9188,
2.112664,-0.0202,-0.0231,0.1198,0.0034,-0.0363,0.0038,-33.6750,-29.6625,-0.9188,
2.119254,-0.0202,-0.0231,0.1198,0.0022,0.0199,0.0049,-33.6750,-29.6625,-0.9188,
2.131743,-0.0225,-0.0025,0.0761,0.0022,0.0199,0.0049,-33.6750,-29.6625,-0.9188,
2.141125,-0.0225,-0.0025,0.0761,0.0022,0.0199,0.0049,-33.6750,-29.6625,-0.9188,
2.150586,0.0726,0.0222,-0.0216,0.0022,0.0199,0.0049,-33.6750,-29.6625,-0.9188,
2.162243,0.0726,0.0222,-0.0216,0.0022,0.0199,0.0049,-33.0000,-29.7750,-1.3688,
2.170385,0.1039,0.0192,0.0153,0.0022,0.0199,0.0049,-33.0000,-29.7750,-1.3688,
2.179027,0.1039,0.0192,0.0153,0.0059,-0.0217,-0.0011,-33.0000,-29.7750,-1.3688,
2.187643,0.1039,0.0192,0.0153,0.0059,-0.0217,-0.0011,-33.0000,-29.7750,-1.3688,
2.189362,0.0820,-0.0129,-0.0028,0.0059,-0.0217,-0.0011,-33.0000,-29.7750,-1.3688,
2.209799,0.0740,0.0215,0.0725,0.0059,-0.0217,-0.0011,-33.0000,-29.7750,-1.3688,
2.220523,0.0740,0.0215,0.0725,0.0059,-0.0217,-0.0011,-33.0000,-29.4375,-1.8750,
2.227264,0.0371,-0.0302,0.0814,0.0059,-0.0217,-0.0011,-33.0000,-29.4375,-1.8750,
2.236129,0.0371,-0.0302,0.0814,0.0059,-0.0217,-0.0011,-33.0000,-29.4375,-1.8750,
2.240492,0.0371,-0.0302,0.0814,0.0205,-0.0681,0.0014,-33.0000,-29.4375,-1.8750,
2.246247,-0.2943,-0.1248,0.2100,0.0205,-0.0681,0.0014,-33.0000,-29.4375,-1.8750,
2.266465,0.2872,0.1105,-0.2459,0.0205,-0.0681,0.0014,-33.0000,-29.4375,-1.8750,
2.281515,0.2872,0.1105,-0.2459,0.0205,-0.0681,0.0014,-33.0938,-29.4750,-1.3500,
2.284463,0.2872,0.1105,-0.2459,0.0205,-0.0681,0.0014,-33.0938,-29.4750,-1.3500,
2.286526,0.1650,-0.0269,-0.0615,0.0205,-0.0681,0.0014,-33.0938,-29.4750,-1.3500,
2.303041,0.1650,-0.0269,-0.0615,0.0022,-0.0107,-0.0048,-33.0938,-29.4750,-1.3500,
2.304042,0.1985,-0.0339,0.0023,0.0022,-0.0107,-0.0048,-33.0938,-29.4750,-1.3500,
2.323704,0.0774,0.0173,-0.0549,0.0022,-0.0107,-0.0048,-33.0938,-29.4750,-1.3500,
2.331226,0.0774,0.0173,-0.0549,0.0022,-0.0107,-0.0048,-33.0938,-29.4750,-1.3500,
2.341154,0.0774,0.0173,-0.0549,0.0022,-0.0107,-0.0048,-33.1875,-29.8688,-1.1438,
2.342188,0.0273,0.0068,0.0211,0.0022,-0.0107,-0.0048,-33.1875,-29.8688,-1.1438,
2.362157,0.0457,-0.0105,0.1122,0.0022,-0.0107,-0.0048,-33.1875,-29.8688,-1.1438,
2.365697,0.0457,-0.0105,0.1122,0.0132,-0.0217,-0.0071,-33.1875,-29.8688,-1.1438,
2.379585,0.0457,-0.0105,0.1122,0.0132,-0.0217,-0.0071,-33.1875,-29.8688,-1.1438,
2.381468,0.0215,-0.0015,0.0197,0.0132,-0.0217,-0.0071,-33.1875,-29.8688,-1.1438,
2.399942,0.0472,-0.0104,0.0017,0.0132,-0.0217,-0.0071,-33.1875,-29.8688,-1.1438,
2.403232,0.0472,-0.0104,0.0017,0.0132,-0.0217,-0.0071,-32.9062,-29.8125,-0.6375,
2.418996,0.0957,-0.0063,0.0002,0.0132,-0.0217,-0.0071,-32.9062,-29.8125,-0.6375,
2.429010,0.0957,-0.0063,0.0002,0.0132,-0.0217,-0.0071,-32.9062,-29.8125,-0.6375,
2.429994,0.0957,-0.0063,0.0002,0.0047,0.0003,0.0001,-32.9062,-29.8125,-0.6375,
2.437965,0.0876,0.0265,-0.0236,0.0047,0.0003,0.0001,-32.9062,-29.8125,-0.6375,
2.457506,0.0781,0.0318,0.0429,0.0047,0.0003,0.0001,-32.9062,-29.8125,-0.6375,
2.463709,0.0781,0.0318,0.0429,0.0047,0.0003,0.0001,-33.0938,-29.7750,-1.0500,
2.475677,0.0781,0.0318,0.0429,0.0047,0.0003,0.0001,-33.0938,-29.7750,-1.0500,
2.476654,0.0588,-0.0002,0.0377,0.0047,0.0003,0.0001,-33.0938,-29.7750,-1.0500,
2.489523,0.0588,-0.0002,0.0377,-0.0051,-0.0070,-0.0011,-33.0938,-29.7750,-1.0500,
2.497130,0.0174,-0.0182,0.0523,-0.0051,-0.0070,-0.0011,-33.0938,-29.7750,-1.0500,
2.514576,0.0213,-0.0085,0.0267,-0.0051,-0.0070,-0.0011,-33.0938,-29.7750,-1.0500,
2.520880,0.0213,-0.0085,0.0267,-0.0051,-0.0070,-0.0011,-33.0000,-29.6625,-1.3688,
2.522168,0.0213,-0.0085,0.0267,-0.0051,-0.0070,-0.0011,-33.0000,-29.6625,-1.3688,
2.534076,0.0597,0.0082,0.0014,-0.0051,-0.0070,-0.0011,-33.0000,-29.6625,-1.3688,
2.551858,0.0597,0.0082,0.0014,-0.0015,-0.0143,0.0049,-33.0000,-29.6625,-1.3688,
2.554425,0.0824,-0.0363,0.0550,-0.0015,-0.0143,0.0049,-33.0000,-29.6625,-1.3688,
2.572347,0.0824,-0.0363,0.0550,-0.0015,-0.0143,0.0049,-33.0000,-29.6625,-1.3688,
2.574816,0.1216,-0.0168,-0.0404,-0.0015,-0.0143,0.0049,-33.0000,-29.6625,-1.3688,
2.581169,0.1216,-0.0168,-0.0404,-0.0015,-0.0143,0.0049,-33.6000,-29.4750,-0.9188,
2.590708,0.0271,0.0053,-0.0245,-0.0015,-0.0143,0.0049,-33.6000,-29.4750,-0.9188,
2.610136,0.1194,-0.0143,0.0640,-0.0015,-0.0143,0.0049,-33.6000,-29.4750,-0.9188,
2.614046,0.1194,-0.0143,0.0640,-0.0027,0.0003,0.0062,-33.6000,-29.4750,-0.9188,
2.620560,0.1194,-0.0143,0.0640,-0.0027,0.0003,0.0062,-33.6000,-29.4750,-0.9188,
2.629050,0.0806,-0.0427,0.0096,-0.0027,0.0003,0.0062,-33.6000,-29.4750,-0.9188,
2.640616,0.0806,-0.0427,0.0096,-0.0027,0.0003,0.0062,-33.0000,-29.7000,-0.9375,
2.648268,0.0660,0.0186,-0.0210,-0.0027,0.0003,0.0062,-33.0000,-29.7000,-0.9375,
2.667064,0.0660,0.0186,-0.0210,-0.0027,0.0003,0.0062,-33.0000,-29.7000,-0.9375,
2.669958,0.0151,0.0050,0.0193,-0.0027,0.0003,0.0062,-33.0000,-29.7000,-0.9375,
2.675483,0.0151,0.0050,0.0193,-0.0088,0.0150,0.0001,-33.0000,-29.7000,-0.9375,
2.686120,0.0059,-0.0317,0.0643,-0.0088,0.0150,0.0001,-33.0000,-29.7000,-0.9375,
2.701932,0.0059,-0.0317,0.0643,-0.0088,0.0150,0.0001,-33.2812,-29.7375,-1.5563,
2.707979,0.0960,-0.0640,-0.0000,-0.0088,0.0150,0.0001,-33.2812,-29.7375,-1.5563,
2.714308,0.0960,-0.0640,-0.0000,-0.0088,0.0150,0.0001,-33.2812,-29.7375,-1.5563,
2.724837,0.0647,0.0264,-0.0120,-0.0088,0.0150,0.0001,-33.2812,-29.7375,-1.5563,
2.738335,0.0647,0.0264,-0.0120,-0.0015,0.0113,-0.0011,-33.2812,-29.7375,-1.5563,
2.744033,0.0147,-0.0093,0.0616,-0.0015,0.0113,-0.0011,-33.2812,-29.7375,-1.5563,
2.762685,0.0147,-0.0093,0.0616,-0.0015,0.0113,-0.0011,-33.0938,-29.7000,-0.7313,
2.764559,0.0147,-0.0093,0.0616,-0.0015,0.0113,-0.0011,-33.0938,-29.7000,-0.7313,
2.765825,-0.0884,0.1168,0.1712,-0.0015,0.0113,-0.0011,-33.0938,-29.7000,-0.7313,
2.784453,0.0241,0.0066,-0.0456,-0.0015,0.0113,-0.0011,-33.0938,-29.7000,-0.7313,
2.801067,0.0241,0.0066,-0.0456,0.0010,-0.0131,0.0111,-33.0938,-29.7000,-0.7313,
2.804198,0.1016,0.0012,0.0530,0.0010,-0.0131,0.0111,-33.0938,-29.7000,-0.7313,
2.809421,0.1016,0.0012,0.0530,0.0010,-0.0131,0.0111,-33.0938,-29.7000,-0.7313,
2.820108,0.1146,-0.0288,-0.0017,0.0010,-0.0131,0.0111,-33.0938,-29.7000,-0.7313,
2.821394,0.1146,-0.0288,-0.0017,0.0010,-0.0131,0.0111,-33.2812,-29.7938,-0.6188,
2.840100,0.0922,0.0028,-0.0906,0.0010,-0.0131,0.0111,-33.2812,-29.7938,-0.6188,
2.860727,0.0922,0.0028,-0.0906,0.0010,-0.0131,0.0111,-33.2812,-29.7938,-0.6188,
2.862076,0.1079,0.0224,-0.0613,0.0010,-0.0131,0.0111,-33.2812,-29.7938,-0.6188,
2.862724,0.1079,0.0224,-0.0613,0.0022,0.0578,0.0172,-33.2812,-29.7938,-0.6188,
2.878917,0.0509,0.0001,0.0485,0.0022,0.0578,0.0172,-33.2812,-29.7938,-0.6188,
2.881890,0.0509,0.0001,0.0485,0.0022,0.0578,0.0172,-33.1688,-29.9438,-1.5563,
2.896879,0.0185,0.0188,0.0583,0.0022,0.0578,0.0172,-33.1688,-29.9438,-1.5563,
2.907268,0.0185,0.0188,0.0583,0.0022,0.0578,0.0172,-33.1688,-29.9438,-1.5563,
2.916084,0.0413,0.0332,0.0253,0.0022,0.0578,0.0172,-33.1688,-29.9438,-1.5563,
2.924845,0.0413,0.0332,0.0253,0.0047,0.0320,0.0111,-33.1688,-29.9438,-1.5563,
2.935211,0.1414,0.0126,-0.0072,0.0047,0.0320,0.0111,-33.1688,-29.9438,-1.5563,
2.940615,0.1414,0.0126,-0.0072,0.0047,0.0320,0.0111,-33.1875,-29.6813,-1.0500,
2.952991,0.1414,0.0126,-0.0072,0.0047,0.0320,0.0111,-33.1875,-29.6813,-1.0500,
2.954000,0.0795,0.0284,0.0080,0.0047,0.0320,0.0111,-33.1875,-29.6813,-1.0500,
2.973146,0.2655,-0.0140,0.1162,0.0047,0.0320,0.0111,-33.1875,-29.6813,-1.0500,
2.986791,0.2655,-0.0140,0.1162,0.0180,0.0650,-0.0219,-33.1875,-29.6813,-1.0500,
2.992434,0.0742,-0.0158,-0.0422,0.0180,0.0650,-0.0219,-33.1875,-29.6813,-1.0500,
3.001218,0.0742,-0.0158,-0.0422,0.0180,0.0650,-0.0219,-32.7938,-29.6625,-1.4625,
3.002164,0.0742,-0.0158,-0.0422,0.0180,0.0650,-0.0219,-32.7938,-29.6625,-1.4625,
3.011946,-0.0624,0.0292,0.0605,0.0180,0.0650,-0.0219,-32.7938,-29.6625,-1.4625,
3.030846,-0.0023,0.0244,0.0034,0.0180,0.0650,-0.0219,-32.7938,-29.6625,-1.4625,
3.049972,-0.0023,0.0244,0.0034,0.0180,0.0650,-0.0219,-32.7938,-29.6625,-1.4625,
3.052333,-0.0023,0.0244,0.0034,0.0107,0.0223,0.0074,-32.7938,-29.6625,-1.4625,
3.054142,0.1080,0.0119,0.0257,0.0107,0.0223,0.0074,-32.7938,-29.6625,-1.4625,
3.063264,0.1080,0.0119,0.0257,0.0107,0.0223,0.0074,-33.3938,-29.4375,-1.5563,
3.069205,0.2472,-0.0320,0.0203,0.0107,0.0223,0.0074,-33.3938,-29.4375,-1.5563,
3.088441,0.2036,0.0016,-0.0263,0.0107,0.0223,0.0074,-33.3938,-29.4375,-1.5563,
3.097313,0.2036,0.0016,-0.0263,0.0107,0.0223,0.0074,-33.3938,-29.4375,-1.5563,
3.108273,0.2259,-0.0226,0.1815,0.0107,0.0223,0.0074,-33.3938,-29.4375,-1.5563,
3.111612,0.2259,-0.0226,0.1815,0.0217,0.0895,-0.0610,-33.3938,-29.4375,-1.5563,
3.122391,0.2259,-0.0226,0.1815,0.0217,0.0895,-0.0610,-33.0938,-29.5313,-1.8750,
3.126686,0.5516,-0.1522,0.1861,0.0217,0.0895,-0.0610,-33.0938,-29.5313,-1.8750,
3.145252,0.5516,-0.1522,0.1861,0.0217,0.0895,-0.0610,-33.0938,-29.5313,-1.8750,
3.146210,0.1995,-0.0339,0.0388,0.0217,0.0895,-0.0610,-33.0938,-29.5313,-1.8750,
3.164062,-0.3761,0.1637,-0.3269,0.0217,0.0895,-0.0610,-33.0938,-29.5313,-1.8750,
3.175002,-0.3761,0.1637,-0.3269,0.0364,0.1798,-0.0903,-33.0938,-29.5313,-1.8750,
3.180653,-0.3761,0.1637,-0.3269,0.0364,0.1798,-0.0903,-32.8875,-29.8500,-1.5750,
3.184485,-0.4587,0.2219,-0.1159,0.0364,0.1798,-0.0903,-32.8875,-29.8500,-1.5750,
3.192528,-0.4587,0.2219,-0.1159,0.0364,0.1798,-0.0903,-32.8875,-29.8500,-1.5750,
3.202926,-0.3140,0.1218,-0.0257,0.0364,0.1798,-0.0903,-32.8875,-29.8500,-1.5750,
3.221613,-0.0627,0.0469,0.0894,0.0364,0.1798,-0.0903,-32.8875,-29.8500,-1.5750,
3.235449,-0.0627,0.0469,0.0894,0.0034,0.0175,0.0367,-32.8875,-29.8500,-1.5750,
3.242063,-0.0627,0.0469,0.0894,0.0034,0.0175,0.0367,-32.8875,-29.8500,-1.5750,
3.242692,0.2386,0.0151,0.1078,0.0034,0.0175,0.0367,-32.8875,-29.8500,-1.5750,
3.243327,0.2386,0.0151,0.1078,0.0034,0.0175,0.0367,-32.6813,-29.8313,-2.1938,
3.259696,0.2753,-0.0178,0.0813,0.0034,0.0175,0.0367,-32.6813,-29.8313,-2.1938,
3.279363,0.2615,0.0012,0.0279,0.0034,0.0175,0.0367,-32.6813,-29.8313,-2.1938,
3.288374,0.2615,0.0012,0.0279,0.0034,0.0175,0.0367,-32.6813,-29.8313,-2.1938,
3.298131,0.2615,0.0012,0.0279,0.0327,0.0736,-0.0293,-32.6813,-29.8313,-2.1938,
3.300718,-0.0148,0.0764,0.0015,0.0327,0.0736,-0.0293,-32.6813,-29.8313,-2.1938,
3.303378,-0.0148,0.0764,0.0015,0.0327,0.0736,-0.0293,-32.4000,-29.8313,-2.3063,
3.317077,0.1669,-0.0093,0.1401,0.0327,0.0736,-0.0293,-32.4000,-29.8313,-2.3063,
3.336675,0.1669,-0.0093,0.1401,0.0327,0.0736,-0.0293,-32.4000,-29.8313,-2.3063,
3.339678,0.0952,-0.0220,0.0969,0.0327,0.0736,-0.0293,-32.4000,-29.8313,-2.3063,
3.356474,0.0574,0.0623,-0.0427,0.0327,0.0736,-0.0293,-32.4000,-29.8313,-2.3063,
3.361059,0.0574,0.0623,-0.0427,0.0290,-0.0876,-0.0304,-32.4000,-29.8313,-2.3063,
3.363028,0.0574,0.0623,-0.0427,0.0290,-0.0876,-0.0304,-32.4938,-29.9813,-1.4813,
3.374694,-0.0105,0.0980,-0.2129,0.0290,-0.0876,-0.0304,-32.4938,-29.9813,-1.4813,
3.385804,-0.0105,0.0980,-0.2129,0.0290,-0.0876,-0.0304,-32.4938,-29.9813,-1.4813,
3.394800,0.0883,0.1599,-0.2470,0.0290,-0.0876,-0.0304,-32.4938,-29.9813,-1.4813,
3.413652,0.4352,-0.0591,0.0404,0.0290,-0.0876,-0.0304,-32.4938,-29.9813,-1.4813,
3.420429,0.4352,-0.0591,0.0404,0.0290,-0.0876,-0.0304,-32.7000,-29.8688,-1.5750,
3.421434,0.4352,-0.0591,0.0404,-0.0320,-0.0338,-0.0426,-32.7000,-29.8688,-1.5750,
3.431463,0.4352,-0.0591,0.0404,-0.0320,-0.0338,-0.0426,-32.7000,-29.8688,-1.5750,
3.432899,0.0604,-0.0308,0.1459,-0.0320,-0.0338,-0.0426,-32.7000,-29.8688,-1.5750,
3.451677,-0.2806,0.0021,0.2352,-0.0320,-0.0338,-0.0426,-32.7000,-29.8688,-1.5750,
3.471458,0.0197,-0.0956,0.3057,-0.0320,-0.0338,-0.0426,-32.7000,-29.8688,-1.5750,
3.479623,0.0197,-0.0956,0.3057,-0.0320,-0.0338,-0.0426,-32.7000,-29.8688,-1.5750,
3.482663,0.0197,-0.0956,0.3057,-0.0320,-0.0338,-0.0426,-32.5875,-30.1688,-1.4813,
3.484239,0.0197,-0.0956,0.3057,0.0705,-0.1158,-0.0476,-32.5875,-30.1688,-1.4813,
3.489065,0.2314,-0.0862,0.1301,0.0705,-0.1158,-0.0476,-32.5875,-30.1688,-1.4813,
3.508523,-0.0896,0.1104,-0.3183,0.0705,-0.1158,-0.0476,-32.5875,-30.1688,-1.4813,
3.527175,-0.0896,0.1104,-0.3183,0.0705,-0.1158,-0.0476,-32.5875,-30.1688,-1.4813,
3.530385,0.0790,0.1934,-0.1451,0.0705,-0.1158,-0.0476,-32.5875,-30.1688,-1.4813,
3.542399,0.0790,0.1934,-0.1451,0.0705,-0.1158,-0.0476,-32.6063,-30.0000,-0.8625,
3.546998,0.0790,0.1934,-0.1451,0.0107,-0.0510,0.0062,-32.6063,-30.0000,-0.8625,
3.549335,0.0866,0.1186,-0.0399,0.0107,-0.0510,0.0062,-32.6063,-30.0000,-0.8625,
3.566026,0.1926,0.0411,0.1269,0.0107,-0.0510,0.0062,-32.6063,-30.0000,-0.8625,
3.574631,0.1926,0.0411,0.1269,0.0107,-0.0510,0.0062,-32.6063,-30.0000,-0.8625,
3.585436,0.1378,0.0187,0.0309,0.0107,-0.0510,0.0062,-32.6063,-30.0000,-0.8625,
3.601478,0.1378,0.0187,0.0309,0.0107,-0.0510,0.0062,-32.6063,-29.9063,-0.9563,
3.605230,0.1094,0.0552,-0.0284,0.0107,-0.0510,0.0062,-32.6063,-29.9063,-0.9563,
3.609179,0.1094,0.0552,-0.0284,0.0315,0.0015,-0.0256,-32.6063,-29.9063,-0.9563,
3.623001,0.1094,0.0552,-0.0284,0.0315,0.0015,-0.0256,-32.6063,-29.9063,-0.9563,
3.624404,0.2766,0.0040,0.0140,0.0315,0.0015,-0.0256,-32.6063,-29.9063,-0.9563,
3.642810,0.4429,-0.1587,0.2509,0.0315,0.0015,-0.0256,-32.6063,-29.9063,-0.9563,
3.662453,0.0964,-0.0315,0.0768,0.0315,0.0015,-0.0256,-32.6063,-29.9063,-0.9563,
3.665318,0.0964,-0.0315,0.0768,0.0315,0.0015,-0.0256,-32.7750,-30.2813,-1.1625,
3.670597,0.0964,-0.0315,0.0768,0.0315,0.0015,-0.0256,-32.7750,-30.2813,-1.1625,
3.671605,0.0964,-0.0315,0.0768,0.0792,-0.1378,-0.1381,-32.7750,-30.2813,-1.1625,
3.681167,-0.0193,0.1664,-0.0578,0.0792,-0.1378,-0.1381,-32.7750,-30.2813,-1.1625,
3.700337,-0.2662,0.2735,-0.3184,0.0792,-0.1378,-0.1381,-32.7750,-30.2813,-1.1625,
3.718520,-0.2662,0.2735,-0.3184,0.0792,-0.1378,-0.1381,-32.7750,-30.2813,-1.1625,
3.719856,-0.2226,0.3877,-0.1661,0.0792,-0.1378,-0.1381,-32.7750,-30.2813,-1.1625,
3.720948,-0.2226,0.3877,-0.1661,0.0792,-0.1378,-0.1381,-32.1938,-30.5438,-0.3563,
3.733074,-0.2226,0.3877,-0.1661,-0.0258,-0.0230,0.0527,-32.1938,-30.5438,-0.3563,
3.738752,0.3297,0.0880,-0.0312,-0.0258,-0.0230,0.0527,-32.1938,-30.5438,-0.3563,
3.757858,0.2408,0.0681,-0.2872,-0.0258,-0.0230,0.0527,-32.1938,-30.5438,-0.3563,
3.766503,0.2408,0.0681,-0.2872,-0.0258,-0.0230,0.0527,-32.1938,-30.5438,-0.3563,
3.776479,-0.0383,0.1198,-0.2852,-0.0258,-0.0230,0.0527,-32.1938,-30.5438,-0.3563,
3.782922,-0.0383,0.1198,-0.2852,-0.0258,-0.0230,0.0527,-32.1000,-30.3188,-0.9750,
3.795609,-0.0383,0.1198,-0.2852,-0.1151,0.1689,0.1283,-32.1000,-30.3188,-0.9750,
3.799996,-0.2132,0.0197,-0.3069,-0.1151,0.1689,0.1283,-32.1000,-30.3188,-0.9750,
3.814332,-0.2132,0.0197,-0.3069,-0.1151,0.1689,0.1283,-32.1000,-30.3188,-0.9750,
3.815715,-0.3051,0.0269,0.5640,-0.1151,0.1689,0.1283,-32.1000,-30.3188,-0.9750,
3.834428,-0.3204,0.0869,0.4485,-0.1151,0.1689,0.1283,-32.1000,-30.3188,-0.9750,
3.842086,-0.3204,0.0869,0.4485,-0.1151,0.1689,0.1283,-32.8875,-30.0938,-0.8438,
3.852511,0.0273,-0.0119,0.2015,-0.1151,0.1689,0.1283,-32.8875,-30.0938,-0.8438,
3.856994,0.0273,-0.0119,0.2015,0.0095,-0.2135,0.2261,-32.8875,-30.0938,-0.8438,
3.862700,0.0273,-0.0119,0.2015,0.0095,-0.2135,0.2261,-32.8875,-30.0938,-0.8438,
3.873944,0.3367,0.0553,0.0141,0.0095,-0.2135,0.2261,-32.8875,-30.0938,-0.8438,
3.891769,0.5260,-0.0448,-0.1486,0.0095,-0.2135,0.2261,-32.8875,-30.0938,-0.8438,
3.901536,0.5260,-0.0448,-0.1486,0.0095,-0.2135,0.2261,-33.0000,-29.7188,-0.5250,
3.909981,0.5260,-0.0448,-0.1486,0.0095,-0.2135,0.2261,-33.0000,-29.7188,-0.5250,
3.911407,0.4773,-0.0142,-0.1942,0.0095,-0.2135,0.2261,-33.0000,-29.7188,-0.5250,
3.919067,0.4773,-0.0142,-0.1942,-0.0271,-0.0192,0.0404,-33.0000,-29.7188,-0.5250,
3.930196,0.5221,-0.0393,-0.1273,-0.0271,-0.0192,0.0404,-33.0000,-29.7188,-0.5250,
3.949023,0.2967,-0.0067,-0.0739,-0.0271,-0.0192,0.0404,-33.0000,-29.7188,-0.5250,
3.957484,0.2967,-0.0067,-0.0739,-0.0271,-0.0192,0.0404,-33.0000,-29.7188,-0.5250,
3.961434,0.2967,-0.0067,-0.0739,-0.0271,-0.0192,0.0404,-32.7188,-29.1938,-1.0500,
3.967347,0.1410,0.0014,0.0119,-0.0271,-0.0192,0.0404,-32.7188,-29.1938,-1.0500,
3.981292,0.1410,0.0014,0.0119,-0.0173,0.0590,0.0074,-32.7188,-29.1938,-1.0500,
3.986350,0.0111,0.0490,0.1026,-0.0173,0.0590,0.0074,-32.7188,-29.1938,-1.0500,
4.005742,0.0111,0.0490,0.1026,-0.0173,0.0590,0.0074,-32.7188,-29.1938,-1.0500,
4.008653,0.0386,0.0637,0.0985,-0.0173,0.0590,0.0074,-32.7188,-29.1938,-1.0500,
4.021213,0.0386,0.0637,0.0985,-0.0173,0.0590,0.0074,-32.7188,-29.5313,-0.4313,
4.025698,0.1410,0.0646,0.0527,-0.0173,0.0590,0.0074,-32.7188,-29.5313,-0.4313,
4.044118,0.1410,0.0646,0.0527,0.0010,-0.0058,0.0062,-32.7188,-29.5313,-0.4313,
4.047279,0.1964,0.0814,-0.0617,0.0010,-0.0058,0.0062,-32.7188,-29.5313,-0.4313,
4.053764,0.1964,0.0814,-0.0617,0.0010,-0.0058,0.0062,-32.7188,-29.5313,-0.4313,
4.064670,0.1597,0.0684,-0.0884,0.0010,-0.0058,0.0062,-32.7188,-29.5313,-0.4313,
4.081281,0.1597,0.0684,-0.0884,0.0010,-0.0058,0.0062,-33.2812,-29.9063,-0.4125,
4.084581,0.0800,0.0478,0.0206,0.0010,-0.0058,0.0062,-33.2812,-29.9063,-0.4125,
4.100631,0.0800,0.0478,0.0206,0.0010,-0.0058,0.0062,-33.2812,-29.9063,-0.4125,
4.102130,0.0544,0.0105,0.1082,0.0010,-0.0058,0.0062,-33.2812,-29.9063,-0.4125,
4.105088,0.0544,0.0105,0.1082,-0.0076,0.0003,-0.0048,-33.2812,-29.9063,-0.4125,
4.121493,0.1194,0.0475,0.0388,-0.0076,0.0003,-0.0048,-33.2812,-29.9063,-0.4125,
4.140348,0.1182,0.0524,-0.0112,-0.0076,0.0003,-0.0048,-33.2812,-29.9063,-0.4125,
4.143938,0.1182,0.0524,-0.0112,-0.0076,0.0003,-0.0048,-32.9062,-29.5875,-0.9563,
4.148969,0.1182,0.0524,-0.0112,-0.0076,0.0003,-0.0048,-32.9062,-29.5875,-0.9563,
4.159380,0.1381,0.0647,-0.0367,-0.0076,0.0003,-0.0048,-32.9062,-29.5875,-0.9563,
4.167646,0.1381,0.0647,-0.0367,-0.0003,-0.0241,-0.0048,-32.9062,-29.5875,-0.9563,
4.178633,0.1389,0.0555,-0.0238,-0.0003,-0.0241,-0.0048,-32.9062,-29.5875,-0.9563,
4.196948,0.1389,0.0555,-0.0238,-0.0003,-0.0241,-0.0048,-32.9062,-29.5875,-0.9563,
4.199799,0.1535,0.0584,-0.0281,-0.0003,-0.0241,-0.0048,-32.9062,-29.5875,-0.9563,
4.202582,0.1535,0.0584,-0.0281,-0.0003,-0.0241,-0.0048,-33.1875,-29.7938,-0.7313,
4.216919,0.1051,0.0335,-0.0021,-0.0003,-0.0241,-0.0048,-33.1875,-29.7938,-0.7313,
4.230241,0.1051,0.0335,-0.0021,-0.0063,0.0015,-0.0036,-33.1875,-29.7938,-0.7313,
4.235056,0.1016,0.0256,0.0456,-0.0063,0.0015,-0.0036,-33.1875,-29.7938,-0.7313,
4.244415,0.1016,0.0256,0.0456,-0.0063,0.0015,-0.0036,-33.1875,-29.7938,-0.7313,
4.254760,0.0942,0.0591,0.0342,-0.0063,0.0015,-0.0036,-33.1875,-29.7938,-0.7313,
4.261319,0.0942,0.0591,0.0342,-0.0063,0.0015,-0.0036,-33.1125,-29.4188,-0.3188,
4.274310,0.1264,0.0706,0.0164,-0.0063,0.0015,-0.0036,-33.1125,-29.4188,-0.3188,
4.291169,0.1264,0.0706,0.0164,-0.0063,0.0015,-0.0036,-33.1125,-29.4188,-0.3188,
4.291734,0.1264,0.0706,0.0164,0.0010,-0.0217,-0.0073,-33.1125,-29.4188,-0.3188,
4.292465,0.1499,0.0679,-0.0328,0.0010,-0.0217,-0.0073,-33.1125,-29.4188,-0.3188,
4.312152,0.1539,0.0708,-0.0512,0.0010,-0.0217,-0.0073,-33.1125,-29.4188,-0.3188,
4.321933,0.1539,0.0708,-0.0512,0.0010,-0.0217,-0.0073,-33.0938,-29.7000,-0.6375,
4.331384,0.1157,0.0645,-0.0272,0.0010,-0.0217,-0.0073,-33.0938,-29.7000,-0.6375,
4.342137,0.1157,0.0645,-0.0272,0.0010,-0.0217,-0.0073,-33.0938,-29.7000,-0.6375,
4.353263,0.1268,0.0372,0.0228,0.0010,-0.0217,-0.0073,-33.0938,-29.7000,-0.6375,
4.357140,0.1268,0.0372,0.0228,-0.0040,0.0027,-0.0012,-33.0938,-29.7000,-0.6375,
4.369224,0.1149,0.0621,0.0085,-0.0040,0.0027,-0.0012,-33.0938,-29.7000,-0.6375,
4.380631,0.1149,0.0621,0.0085,-0.0040,0.0027,-0.0012,-33.0938,-29.7188,-0.5250,
4.387867,0.1149,0.0621,0.0085,-0.0040,0.0027,-0.0012,-33.0938,-29.7188,-0.5250,
4.389451,0.1337,0.0580,-0.0129,-0.0040,0.0027,-0.0012,-33.0938,-29.7188,-0.5250,
4.408198,0.1527,0.0633,-0.0129,-0.0040,0.0027,-0.0012,-33.0938,-29.7188,-0.5250,
4.417255,0.1527,0.0633,-0.0129,-0.0040,0.0015,0.0000,-33.0938,-29.7188,-0.5250,
4.427045,0.1579,0.0737,-0.0201,-0.0040,0.0015,0.0000,-33.0938,-29.7188,-0.5250,
4.436425,0.1579,0.0737,-0.0201,-0.0040,0.0015,0.0000,-33.0938,-29.7188,-0.5250,
4.442364,0.1579,0.0737,-0.0201,-0.0040,0.0015,0.0000,-32.7188,-29.5313,-0.5438,
4.445994,0.1186,0.0652,-0.0227,-0.0040,0.0015,0.0000,-32.7188,-29.5313,-0.5438,
4.464378,0.1429,0.0664,0.0031,-0.0040,0.0015,0.0000,-32.7188,-29.5313,-0.5438,
4.479018,0.1429,0.0664,0.0031,-0.0027,0.0186,-0.0023,-32.7188,-29.5313,-0.5438,
4.483022,0.1429,0.0664,0.0031,-0.0027,0.0186,-0.0023,-32.7188,-29.5313,-0.5438,
4.485195,0.1368,0.0457,-0.0144,-0.0027,0.0186,-0.0023,-32.7188,-29.5313,-0.5438,
4.501128,0.1368,0.0457,-0.0144,-0.0027,0.0186,-0.0023,-33.0938,-29.6063,-0.7313,
4.502837,0.1446,0.0611,0.0090,-0.0027,0.0186,-0.0023,-33.0938,-29.6063,-0.7313,
4.523135,0.0971,0.1115,0.0132,-0.0027,0.0186,-0.0023,-33.0938,-29.6063,-0.7313,
4.531177,0.0971,0.1115,0.0132,-0.0027,0.0186,-0.0023,-33.0938,-29.6063,-0.7313,
4.542180,0.0971,0.1115,0.0132,-0.0027,-0.0058,-0.0023,-33.0938,-29.6063,-0.7313,
4.543557,0.0840,0.0808,0.0321,-0.0027,-0.0058,-0.0023,-33.0938,-29.6063,-0.7313,
4.561148,0.1380,0.0546,-0.0036,-0.0027,-0.0058,-0.0023,-33.0938,-29.6063,-0.7313,
4.562775,0.1380,0.0546,-0.0036,-0.0027,-0.0058,-0.0023,-32.9062,-29.6813,-1.2563,
4.579982,0.1380,0.0546,-0.0036,-0.0027,-0.0058,-0.0023,-32.9062,-29.6813,-1.2563,
4.581394,0.1703,0.0738,-0.0416,-0.0027,-0.0058,-0.0023,-32.9062,-29.6813,-1.2563,
4.599548,0.1804,0.0389,-0.0321,-0.0027,-0.0058,-0.0023,-32.9062,-29.6813,-1.2563,
4.602879,0.1804,0.0389,-0.0321,-0.0051,0.0186,-0.0036,-32.9062,-29.6813,-1.2563,
4.618437,0.1552,0.0541,-0.0136,-0.0051,0.0186,-0.0036,-32.9062,-29.6813,-1.2563,
4.621693,0.1552,0.0541,-0.0136,-0.0051,0.0186,-0.0036,-33.3938,-29.3813,-0.8250,
4.626483,0.1552,0.0541,-0.0136,-0.0051,0.0186,-0.0036,-33.3938,-29.3813,-0.8250,
4.637804,0.1135,0.0702,-0.0241,-0.0051,0.0186,-0.0036,-33.3938,-29.3813,-0.8250,
4.656904,0.1049,0.0481,0.0230,-0.0051,0.0186,-0.0036,-33.3938,-29.3813,-0.8250,
4.665260,0.1049,0.0481,0.0230,-0.0027,0.0052,-0.0036,-33.3938,-29.3813,-0.8250,
4.675358,0.1049,0.0481,0.0230,-0.0027,0.0052,-0.0036,-33.3938,-29.3813,-0.8250,
4.676724,0.1117,0.0758,0.0465,-0.0027,0.0052,-0.0036,-33.3938,-29.3813,-0.8250,
4.680570,0.1117,0.0758,0.0465,-0.0027,0.0052,-0.0036,-33.1125,-29.2875,-1.0500,
4.695463,0.0996,0.0907,0.0033,-0.0027,0.0052,-0.0036,-33.1125,-29.2875,-1.0500,
4.713995,0.1649,0.0771,-0.0276,-0.0027,0.0052,-0.0036,-33.1125,-29.2875,-1.0500,
4.722610,0.1649,0.0771,-0.0276,-0.0027,0.0052,-0.0036,-33.1125,-29.2875,-1.0500,
4.727159,0.1649,0.0771,-0.0276,-0.0027,0.0027,0.0000,-33.1125,-29.2875,-1.0500,
4.732526,0.1599,0.0572,-0.0228,-0.0027,0.0027,0.0000,-33.1125,-29.2875,-1.0500,
4.741820,0.1599,0.0572,-0.0228,-0.0027,0.0027,0.0000,-33.4688,-29.9813,-0.9375,
4.752663,0.1509,0.0733,-0.0038,-0.0027,0.0027,0.0000,-33.4688,-29.9813,-0.9375,
4.770914,0.1509,0.0733,-0.0038,-0.0027,0.0027,0.0000,-33.4688,-29.9813,-0.9375,
4.774501,0.1235,0.0529,-0.0161,-0.0027,0.0027,0.0000,-33.4688,-29.9813,-0.9375,
4.789857,0.1235,0.0529,-0.0161,-0.0015,0.0077,0.0012,-33.4688,-29.9813,-0.9375,
4.793184,0.1064,0.0617,-0.0071,-0.0015,0.0077,0.0012,-33.4688,-29.9813,-0.9375,
4.800207,0.1064,0.0617,-0.0071,-0.0015,0.0077,0.0012,-32.7000,-29.5875,-1.0500,
4.809105,0.1584,0.0275,-0.0194,-0.0015,0.0077,0.0012,-32.7000,-29.5875,-1.0500,
4.819020,0.1584,0.0275,-0.0194,-0.0015,0.0077,0.0012,-32.7000,-29.5875,-1.0500,
4.828596,0.1480,0.0621,0.0065,-0.0015,0.0077,0.0012,-32.7000,-29.5875,-1.0500,
4.848270,0.1756,0.0470,-0.0125,-0.0015,0.0077,0.0012,-32.7000,-29.5875,-1.0500,
4.852391,0.1756,0.0470,-0.0125,-0.0027,-0.0095,-0.0098,-32.7000,-29.5875,-1.0500,
4.865093,0.1756,0.0470,-0.0125,-0.0027,-0.0095,-0.0098,-32.7000,-29.8875,-1.0500,
4.867860,0.1756,0.0470,-0.0125,-0.0027,-0.0095,-0.0098,-32.7000,-29.8875,-1.0500,
4.869794,0.1139,0.0343,0.0046,-0.0027,-0.0095,-0.0098,-32.7000,-29.8875,-1.0500,
4.886353,0.1191,0.0375,0.0001,-0.0027,-0.0095,-0.0098,-32.7000,-29.8875,-1.0500,
4.905277,0.1371,0.0388,-0.0093,-0.0027,-0.0095,-0.0098,-32.7000,-29.8875,-1.0500,
4.913921,0.1371,0.0388,-0.0093,-0.0027,-0.0095,-0.0098,-32.7000,-29.8875,-1.0500,
4.915928,0.1371,0.0388,-0.0093,-0.0076,0.0003,-0.0110,-32.7000,-29.8875,-1.0500,
4.921465,0.1371,0.0388,-0.0093,-0.0076,0.0003,-0.0110,-33.0000,-29.5125,-0.7313,
4.924104,0.1065,0.0437,0.0265,-0.0076,0.0003,-0.0110,-33.0000,-29.5125,-0.7313,
4.942623,0.0862,0.0525,-0.0020,-0.0076,0.0003,-0.0110,-33.0000,-29.5125,-0.7313,
4.962744,0.0862,0.0525,-0.0020,-0.0076,0.0003,-0.0110,-33.0000,-29.5125,-0.7313,
4.965850,0.1515,0.0841,-0.0323,-0.0076,0.0003,-0.0110,-33.0000,-29.5125,-0.7313,
4.977417,0.1515,0.0841,-0.0323,-0.0015,0.0052,0.0000,-33.0000,-29.5125,-0.7313,
4.981668,0.1621,0.0752,-0.0269,-0.0015,0.0052,0.0000,-33.0000,-29.5125,-0.7313,
4.984159,0.1621,0.0752,-0.0269,-0.0015,0.0052,0.0000,-33.0000,-29.6063,-0.8438,
5.001264,0.1349,0.0481,-0.0166,-0.0015,0.0052,0.0000,-33.0000,-29.6063,-0.8438,
5.009618,0.1349,0.0481,-0.0166,-0.0015,0.0052,0.0000,-33.0000,-29.6063,-0.8438,
5.019063,0.1008,0.0377,-0.0064,-0.0015,0.0052,0.0000,-33.0000,-29.6063,-0.8438,
5.037786,0.1008,0.0377,-0.0064,-0.0027,-0.0010,0.0012,-33.0000,-29.6063,-0.8438,
5.039173,0.0956,0.0393,0.0181,-0.0027,-0.0010,0.0012,-33.0000,-29.6063,-0.8438,
5.040346,0.0956,0.0393,0.0181,-0.0027,-0.0010,0.0012,-33.1875,-29.7938,-0.6188,
5.057997,0.0956,0.0393,0.0181,-0.0027,-0.0010,0.0012,-33.1875,-29.7938,-0.6188,
5.060941,0.0888,0.0172,0.0357,-0.0027,-0.0010,0.0012,-33.1875,-29.7938,-0.6188,
5.078124,0.1159,0.0253,-0.0180,-0.0027,-0.0010,0.0012,-33.1875,-29.7938,-0.6188,
5.096501,0.1256,0.0544,-0.0621,-0.0027,-0.0010,0.0012,-33.1875,-29.7938,-0.6188,
5.100048,0.1256,0.0544,-0.0621,0.0010,-0.0070,0.0000,-33.1875,-29.7938,-0.6188,
5.102136,0.1256,0.0544,-0.0621,0.0010,-0.0070,0.0000,-32.9813,-29.8875,-0.9563,
5.105157,0.1256,0.0544,-0.0621,0.0010,-0.0070,0.0000,-32.9813,-29.8875,-0.9563,
5.115008,0.1235,0.0345,-0.0133,0.0010,-0.0070,0.0000,-32.9813,-29.8875,-0.9563,
5.135121,0.1271,0.0385,0.0353,0.0010,-0.0070,0.0000,-32.9813,-29.8875,-0.9563,
5.153370,0.1271,0.0385,0.0353,0.0010,-0.0070,0.0000,-32.9813,-29.8875,-0.9563,
5.156113,0.0641,0.0678,-0.0263,0.0010,-0.0070,0.0000,-32.9813,-29.8875,-0.9563,
5.162383,0.0641,0.0678,-0.0263,0.0010,-0.0070,0.0000,-32.7000,-29.7938,-1.0500,
5.164711,0.0641,0.0678,-0.0263,0.0010,0.0100,0.0049,-32.7000,-29.7938,-1.0500,
5.173056,0.0844,0.0522,-0.0046,0.0010,0.0100,0.0049,-32.7000,-29.7938,-1.0500,
5.191590,0.1104,0.0471,0.0367,0.0010,0.0100,0.0049,-32.7000,-29.7938,-1.0500,
5.201258,0.1104,0.0471,0.0367,0.0010,0.0100,0.0049,-32.7000,-29.7938,-1.0500,
5.210977,0.0921,0.0364,-0.0271,0.0010,0.0100,0.0049,-32.7000,-29.7938,-1.0500,
5.220852,0.0921,0.0364,-0.0271,0.0010,0.0100,0.0049,-33.0000,-29.9063,-0.7313,
5.224376,0.0921,0.0364,-0.0271,-0.0027,0.0100,0.0025,-33.0000,-29.9063,-0.7313,
5.230663,0.1069,0.0429,-0.0363,-0.0027,0.0100,0.0025,-33.0000,-29.9063,-0.7313,
5.251249,0.1069,0.0429,-0.0363,-0.0027,0.0100,0.0025,-33.0000,-29.9063,-0.7313,
5.253922,0.0938,0.0283,-0.0103,-0.0027,0.0100,0.0025,-33.0000,-29.9063,-0.7313,
5.269175,0.0521,0.0281,0.0325,-0.0027,0.0100,0.0025,-33.0000,-29.9063,-0.7313,
5.281248,0.0521,0.0281,0.0325,-0.0027,0.0100,0.0025,-32.6063,-29.4938,-1.1625,
5.288686,0.0521,0.0281,0.0325,-0.0027,0.0052,-0.0048,-32.6063,-29.4938,-1.1625,
5.290074,0.1211,0.0276,-0.0058,-0.0027,0.0052,-0.0048,-32.6063,-29.4938,-1.1625,
5.296660,0.1211,0.0276,-0.0058,-0.0027,0.0052,-0.0048,-32.6063,-29.4938,-1.1625,
5.306522,0.2091,0.0515,-0.0655,-0.0027,0.0052,-0.0048,-32.6063,-29.4938,-1.1625,
5.326295,0.1191,0.0454,-0.0303,-0.0027,0.0052,-0.0048,-32.6063,-29.4938,-1.1625,
5.343242,0.1191,0.0454,-0.0303,-0.0027,0.0052,-0.0048,-32.7000,-29.8125,-0.6375,
5.346357,0.1191,0.0454,-0.0303,-0.0027,0.0052,-0.0048,-32.7000,-29.8125,-0.6375,
5.348635,0.0109,0.0398,0.0205,-0.0027,0.0052,-0.0048,-32.7000,-29.8125,-0.6375,
5.349803,0.0109,0.0398,0.0205,-0.0198,0.0553,-0.0195,-32.7000,-29.8125,-0.6375,
5.363723,0.0122,0.0176,0.0475,-0.0198,0.0553,-0.0195,-32.7000,-29.8125,-0.6375,
5.383284,-0.0003,0.0072,0.0371,-0.0198,0.0553,-0.0195,-32.7000,-29.8125,-0.6375,
5.391838,-0.0003,0.0072,0.0371,-0.0198,0.0553,-0.0195,-32.7000,-29.8125,-0.6375,
5.401048,-0.0003,0.0072,0.0371,-0.0198,0.0553,-0.0195,-32.7000,-29.7000,-1.0500,
5.403981,0.0488,0.0121,0.0099,-0.0198,0.0553,-0.0195,-32.7000,-29.7000,-1.0500,
5.410000,0.0488,0.0121,0.0099,-0.0027,0.0210,0.0049,-32.7000,-29.7000,-1.0500,
5.421142,0.0542,0.0269,0.0428,-0.0027,0.0210,0.0049,-32.7000,-29.7000,-1.0500,
5.439803,0.0542,0.0269,0.0428,-0.0027,0.0210,0.0049,-32.7000,-29.7000,-1.0500,
5.441415,0.0540,0.0292,0.0189,-0.0027,0.0210,0.0049,-32.7000,-29.7000,-1.0500,
5.460021,0.0877,0.0638,-0.0525,-0.0027,0.0210,0.0049,-32.7000,-29.7000,-1.0500,
5.463390,0.0877,0.0638,-0.0525,-0.0027,0.0210,0.0049,-32.7000,-29.7938,-1.0500,
5.472917,0.0877,0.0638,-0.0525,0.0010,0.0076,0.0122,-32.7000,-29.7938,-1.0500,
5.480084,0.1040,0.0484,-0.0022,0.0010,0.0076,0.0122,-32.7000,-29.7938,-1.0500,
5.487469,0.1040,0.0484,-0.0022,0.0010,0.0076,0.0122,-32.7000,-29.7938,-1.0500,
5.497662,0.0747,0.0243,0.0315,0.0010,0.0076,0.0122,-32.7000,-29.7938,-1.0500,
5.518284,0.0406,0.0379,0.0028,0.0010,0.0076,0.0122,-32.7000,-29.7938,-1.0500,
5.522252,0.0406,0.0379,0.0028,0.0010,0.0076,0.0122,-33.0938,-29.8688,-1.3500,
5.535904,0.0406,0.0379,0.0028,0.0010,0.0076,0.0122,-33.0938,-29.8688,-1.3500,
5.539107,0.0406,0.0379,0.0028,0.0022,-0.0010,0.0098,-33.0938,-29.8688,-1.3500,
5.541226,0.0354,0.0463,-0.0116,0.0022,-0.0010,0.0098,-33.0938,-29.8688,-1.3500,
5.555031,0.0601,0.0173,0.0319,0.0022,-0.0010,0.0098,-33.0938,-29.8688,-1.3500,
5.574990,0.0610,0.0332,-0.0008,0.0022,-0.0010,0.0098,-33.0938,-29.8688,-1.3500,
5.581209,0.0610,0.0332,-0.0008,0.0022,-0.0010,0.0098,-32.8875,-29.7938,-1.0500,
5.583527,0.0610,0.0332,-0.0008,0.0022,-0.0010,0.0098,-32.8875,-29.7938,-1.0500,
5.594220,0.0756,0.0109,-0.0214,0.0022,-0.0010,0.0098,-32.8875,-29.7938,-1.0500,
5.597665,0.0756,0.0109,-0.0214,0.0022,-0.0155,0.0037,-32.8875,-29.7938,-1.0500,
5.613002,0.0907,-0.0440,-0.0086,0.0022,-0.0155,0.0037,-32.8875,-29.7938,-1.0500,
5.631642,0.0907,-0.0440,-0.0086,0.0022,-0.0155,0.0037,-32.8875,-29.7938,-1.0500,
5.633477,0.1194,0.0036,-0.0171,0.0022,-0.0155,0.0037,-32.8875,-29.7938,-1.0500,
5.643338,0.1194,0.0036,-0.0171,0.0022,-0.0155,0.0037,-33.1875,-29.6813,-1.0500,
5.650234,0.1653,0.0055,-0.0497,0.0022,-0.0155,0.0037,-33.1875,-29.6813,-1.0500,
5.659315,0.1653,0.0055,-0.0497,-0.0150,0.0015,-0.0280,-33.1875,-29.6813,-1.0500,
5.670080,0.1361,0.0167,-0.0394,-0.0150,0.0015,-0.0280,-33.1875,-29.6813,-1.0500,
5.686297,0.1361,0.0167,-0.0394,-0.0150,0.0015,-0.0280,-33.1875,-29.6813,-1.0500,
5.688817,0.0110,0.0468,0.0154,-0.0150,0.0015,-0.0280,-33.1875,-29.6813,-1.0500,
5.701206,0.0110,0.0468,0.0154,-0.0150,0.0015,-0.0280,-32.7938,-29.7938,-1.0500,
5.709641,0.0270,0.0598,0.0218,-0.0150,0.0015,-0.0280,-32.7938,-29.7938,-1.0500,
5.721837,0.0270,0.0598,0.0218,-0.0186,0.0175,-0.0208,-32.7938,-29.7938,-1.0500,
5.726125,0.0270,0.0598,0.0218,-0.0186,0.0175,-0.0208,-32.7938,-29.7938,-1.0500,
5.726886,0.1577,0.0542,-0.0335,-0.0186,0.0175,-0.0208,-32.7938,-29.7938,-1.0500,
5.746818,0.1410,0.0422,-0.0746,-0.0186,0.0175,-0.0208,-32.7938,-29.7938,-1.0500,
5.761994,0.1410,0.0422,-0.0746,-0.0186,0.0175,-0.0208,-33.2812,-29.7563,-1.3500,
5.765813,-0.1066,0.0005,0.1033,-0.0186,0.0175,-0.0208,-33.2812,-29.7563,-1.3500,
5.777591,-0.1066,0.0005,0.1033,-0.0186,0.0175,-0.0208,-33.2812,-29.7563,-1.3500,
5.783977,-0.1066,0.0005,0.1033,-0.0088,0.0198,-0.0025,-33.2812,-29.7563,-1.3500,
5.786205,-0.0429,-0.0064,0.0782,-0.0088,0.0198,-0.0025,-33.2812,-29.7563,-1.3500,
5.804121,0.0138,-0.0013,0.0778,-0.0088,0.0198,-0.0025,-33.2812,-29.7563,-1.3500,
5.821324,0.0138,-0.0013,0.0778,-0.0088,0.0198,-0.0025,-33.0000,-29.9063,-0.5250,
5.824430,0.0138,-0.0013,0.0778,-0.0088,0.0198,-0.0025,-33.0000,-29.9063,-0.5250,
5.826453,0.0464,-0.0059,-0.0004,-0.0088,0.0198,-0.0025,-33.0000,-29.9063,-0.5250,
5.841576,0.0511,0.0132,-0.0190,-0.0088,0.0198,-0.0025,-33.0000,-29.9063,-0.5250,
5.845577,0.0511,0.0132,-0.0190,0.0022,-0.0010,0.0012,-33.0000,-29.9063,-0.5250,
5.861963,0.0692,0.0196,-0.0117,0.0022,-0.0010,0.0012,-33.0000,-29.9063,-0.5250,
5.870578,0.0692,0.0196,-0.0117,0.0022,-0.0010,0.0012,-33.0000,-29.9063,-0.5250,
5.880203,0.0625,0.0139,0.0006,0.0022,-0.0010,0.0012,-33.0000,-29.9063,-0.5250,
5.881376,0.0625,0.0139,0.0006,0.0022,-0.0010,0.0012,-32.6063,-29.7563,-1.6875,
5.899532,0.0675,0.0248,0.0005,0.0022,-0.0010,0.0012,-32.6063,-29.7563,-1.6875,
5.909823,0.0675,0.0248,0.0005,0.0034,0.0052,0.0098,-32.6063,-29.7563,-1.6875,
5.917374,0.0675,0.0248,0.0005,0.0034,0.0052,0.0098,-32.6063,-29.7563,-1.6875,
5.918275,0.0224,0.0218,0.0363,0.0034,0.0052,0.0098,-32.6063,-29.7563,-1.6875,
5.938116,-0.0167,0.0134,0.0465,0.0034,0.0052,0.0098,-32.6063,-29.7563,-1.6875,
5.941262,-0.0167,0.0134,0.0465,0.0034,0.0052,0.0098,-32.9813,-29.8875,-1.0500,
5.957948,0.0279,0.0190,0.0046,0.0034,0.0052,0.0098,-32.9813,-29.8875,-1.0500,
5.965460,0.0279,0.0190,0.0046,0.0034,0.0052,0.0098,-32.9813,-29.8875,-1.0500,
5.970197,0.0279,0.0190,0.0046,0.0070,-0.0230,0.0098,-32.9813,-29.8875,-1.0500,
5.977389,0.0895,0.0055,-0.0302,0.0070,-0.0230,0.0098,-32.9813,-29.8875,-1.0500,
5.995052,0.0904,0.0209,-0.0175,0.0070,-0.0230,0.0098,-32.9813,-29.8875,-1.0500,
6.001823,0.0904,0.0209,-0.0175,0.0070,-0.0230,0.0098,-32.9813,-29.8688,-1.4625,
6.013877,0.0904,0.0209,-0.0175,0.0070,-0.0230,0.0098,-32.9813,-29.8688,-1.4625,
6.015204,0.0690,0.0294,-0.0195,0.0070,-0.0230,0.0098,-32.9813,-29.8688,-1.4625,
6.033049,0.0690,0.0294,-0.0195,0.0022,0.0015,0.0098,-32.9813,-29.8688,-1.4625,
6.034417,0.0306,0.0095,0.0212,0.0022,0.0015,0.0098,-32.9813,-29.8688,-1.4625,
6.052938,0.0131,-0.0028,0.0381,0.0022,0.0015,0.0098,-32.9813,-29.8688,-1.4625,
6.061648,0.0131,-0.0028,0.0381,0.0022,0.0015,0.0098,-32.9813,-29.8688,-1.4625,
6.064174,0.0131,-0.0028,0.0381,0.0022,0.0015,0.0098,-32.6063,-29.7188,-0.6375,
6.072217,0.0070,0.0107,0.0221,0.0022,0.0015,0.0098,-32.6063,-29.7188,-0.6375,
6.090985,0.0425,0.0050,0.0065,0.0022,0.0015,0.0098,-32.6063,-29.7188,-0.6375,
6.095146,0.0425,0.0050,0.0065,0.0058,-0.0253,0.0073,-32.6063,-29.7188,-0.6375,
6.109054,0.0425,0.0050,0.0065,0.0058,-0.0253,0.0073,-32.6063,-29.7188,-0.6375,
6.110398,0.0969,0.0037,-0.0211,0.0058,-0.0253,0.0073,-32.6063,-29.7188,-0.6375,
6.121378,0.0969,0.0037,-0.0211,0.0058,-0.0253,0.0073,-33.1875,-29.7750,-1.1438,
6.129358,0.1123,0.0168,-0.0515,0.0058,-0.0253,0.0073,-33.1875,-29.7750,-1.1438,
6.148910,0.0814,0.0299,-0.0397,0.0058,-0.0253,0.0073,-33.1875,-29.7750,-1.1438,
6.156950,0.0814,0.0299,-0.0397,0.0058,-0.0253,0.0073,-33.1875,-29.7750,-1.1438,
6.159746,0.0814,0.0299,-0.0397,-0.0015,0.0210,0.0049,-33.1875,-29.7750,-1.1438,
6.167212,0.0175,0.0060,0.0458,-0.0015,0.0210,0.0049,-33.1875,-29.7750,-1.1438,
6.183308,0.0175,0.0060,0.0458,-0.0015,0.0210,0.0049,-32.9813,-29.9813,-1.0500,
6.188289,0.0184,0.0152,0.0408,-0.0015,0.0210,0.0049,-32.9813,-29.9813,-1.0500,
6.205172,0.0184,0.0152,0.0408,-0.0015,0.0210,0.0049,-32.9813,-29.9813,-1.0500,
6.207920,0.0193,0.0024,-0.0188,-0.0015,0.0210,0.0049,-32.9813,-29.9813,-1.0500,
6.219824,0.0193,0.0024,-0.0188,-0.0003,0.0027,0.0073,-32.9813,-29.9813,-1.0500,
6.224868,0.0478,0.0163,-0.0092,-0.0003,0.0027,0.0073,-32.9813,-29.9813,-1.0500,
6.241634,0.0478,0.0163,-0.0092,-0.0003,0.0027,0.0073,-32.4000,-29.7938,-1.0688,
6.245266,0.0579,-0.0004,0.0099,-0.0003,0.0027,0.0073,-32.4000,-29.7938,-1.0688,
6.252596,0.0579,-0.0004,0.0099,-0.0003,0.0027,0.0073,-32.4000,-29.7938,-1.0688,
6.265162,0.0523,0.0233,0.0124,-0.0003,0.0027,0.0073,-32.4000,-29.7938,-1.0688,
6.281163,0.0523,0.0233,0.0124,-0.0015,-0.0045,0.0049,-32.4000,-29.7938,-1.0688,
6.282583,0.0036,0.0208,0.0126,-0.0015,-0.0045,0.0049,-32.4000,-29.7938,-1.0688,
6.300053,0.0036,0.0208,0.0126,-0.0015,-0.0045,0.0049,-32.4000,-29.7938,-1.0688,
6.301566,0.0384,0.0161,-0.0374,-0.0015,-0.0045,0.0049,-32.4000,-29.7938,-1.0688,
6.302340,0.0384,0.0161,-0.0374,-0.0015,-0.0045,0.0049,-33.0938,-29.6813,-1.0500,
6.320942,0.0742,0.0407,-0.0924,-0.0015,-0.0045,0.0049,-33.0938,-29.6813,-1.0500,
6.339455,0.0569,0.0211,-0.0500,-0.0015,-0.0045,0.0049,-33.0938,-29.6813,-1.0500,
6.342688,0.0569,0.0211,-0.0500,-0.0345,0.0393,0.0170,-33.0938,-29.6813,-1.0500,
6.348194,0.0569,0.0211,-0.0500,-0.0345,0.0393,0.0170,-33.0938,-29.6813,-1.0500,
6.358822,0.0419,-0.0346,0.1214,-0.0345,0.0393,0.0170,-33.0938,-29.6813,-1.0500,
6.362426,0.0419,-0.0346,0.1214,-0.0345,0.0393,0.0170,-31.3313,-29.7375,-2.6625,
6.378335,-0.0315,-0.0551,0.1089,-0.0345,0.0393,0.0170,-31.3313,-29.7375,-2.6625,
6.396696,-0.0315,-0.0551,0.1089,-0.0345,0.0393,0.0170,-31.3313,-29.7375,-2.6625,
6.399777,-0.0861,0.0038,0.0299,-0.0345,0.0393,0.0170,-31.3313,-29.7375,-2.6625,
6.405606,-0.0861,0.0038,0.0299,0.0010,-0.0375,0.0085,-31.3313,-29.7375,-2.6625,
6.416307,0.1194,-0.0194,-0.0120,0.0010,-0.0375,0.0085,-31.3313,-29.7375,-2.6625,
6.421497,0.1194,-0.0194,-0.0120,0.0010,-0.0375,0.0085,-32.8125,-29.5688,-1.4625,
6.435618,0.2185,-0.0410,-0.0824,0.0010,-0.0375,0.0085,-32.8125,-29.5688,-1.4625,
6.444364,0.2185,-0.0410,-0.0824,0.0010,-0.0375,0.0085,-32.8125,-29.5688,-1.4625,
6.453757,0.1072,0.0530,-0.1068,0.0010,-0.0375,0.0085,-32.8125,-29.5688,-1.4625,
6.468182,0.1072,0.0530,-0.1068,-0.0015,0.0358,0.0025,-32.8125,-29.5688,-1.4625,
6.476962,0.0265,0.0314,0.0590,-0.0015,0.0358,0.0025,-32.8125,-29.5688,-1.4625,
6.480660,0.0265,0.0314,0.0590,-0.0015,0.0358,0.0025,-32.7938,-29.9813,-1.0500,
6.491855,0.0265,0.0314,0.0590,-0.0015,0.0358,0.0025,-32.7938,-29.9813,-1.0500,
6.492879,-0.0787,0.0119,0.0986,-0.0015,0.0358,0.0025,-32.7938,-29.9813,-1.0500,
6.511846,-0.0411,0.0201,0.0628,-0.0015,0.0358,0.0025,-32.7938,-29.9813,-1.0500,
6.530257,-0.0411,0.0201,0.0628,0.0082,-0.0400,-0.0025,-32.7938,-29.9813,-1.0500,
6.533777,0.0592,-0.0143,0.0016,0.0082,-0.0400,-0.0025,-32.7938,-29.9813,-1.0500,
6.539375,0.0592,-0.0143,0.0016,0.0082,-0.0400,-0.0025,-32.7938,-29.9813,-1.0500,
6.541754,0.0592,-0.0143,0.0016,0.0082,-0.0400,-0.0025,-32.7938,-29.7750,-1.2563,
6.550099,0.1177,-0.0055,-0.0378,0.0082,-0.0400,-0.0025,-32.7938,-29.7750,-1.2563,
6.569414,0.1365,-0.0178,-0.0606,0.0082,-0.0400,-0.0025,-32.7938,-29.7750,-1.2563,
6.587346,0.1365,-0.0178,-0.0606,0.0082,-0.0400,-0.0025,-32.7938,-29.7750,-1.2563,
6.590371,0.0928,0.0180,-0.0246,0.0082,-0.0400,-0.0025,-32.7938,-29.7750,-1.2563,
6.592440,0.0928,0.0180,-0.0246,0.0022,0.0040,-0.0000,-32.7938,-29.7750,-1.2563,
6.601181,0.0928,0.0180,-0.0246,0.0022,0.0040,-0.0000,-32.4938,-29.9625,-1.5938,
6.607354,0.0116,0.0254,0.0347,0.0022,0.0040,-0.0000,-32.4938,-29.9625,-1.5938,
6.626435,-0.0127,0.0225,0.0558,0.0022,0.0040,-0.0000,-32.4938,-29.9625,-1.5938,
6.634741,-0.0127,0.0225,0.0558,0.0022,0.0040,-0.0000,-32.4938,-29.9625,-1.5938,
6.645642,0.0206,0.0149,0.0276,0.0022,0.0040,-0.0000,-32.4938,-29.9625,-1.5938,
6.655434,0.0206,0.0149,0.0276,0.0082,-0.0363,-0.0037,-32.4938,-29.9625,-1.5938,
6.662432,0.0206,0.0149,0.0276,0.0082,-0.0363,-0.0037,-32.7000,-29.7000,-0.8438,
6.665323,0.0870,0.0303,-0.0215,0.0082,-0.0363,-0.0037,-32.7000,-29.7000,-0.8438,
6.682773,0.0870,0.0303,-0.0215,0.0082,-0.0363,-0.0037,-32.7000,-29.7000,-0.8438,
6.684061,0.1258,0.0412,-0.0542,0.0082,-0.0363,-0.0037,-32.7000,-29.7000,-0.8438,
6.703866,0.0937,0.0364,-0.0234,0.0082,-0.0363,-0.0037,-32.7000,-29.7000,-0.8438,
6.717056,0.0937,0.0364,-0.0234,-0.0040,0.0076,0.0012,-32.7000,-29.7000,-0.8438,
6.722526,0.0509,0.0131,0.0216,-0.0040,0.0076,0.0012,-32.7000,-29.7000,-0.8438,
6.724487,0.0509,0.0131,0.0216,-0.0040,0.0076,0.0012,-33.0000,-29.4750,-1.2563,
6.732909,0.0509,0.0131,0.0216,-0.0040,0.0076,0.0012,-33.0000,-29.4750,-1.2563,
6.743999,0.0271,0.0396,-0.0053,-0.0040,0.0076,0.0012,-33.0000,-29.4750,-1.2563,
6.760912,0.0422,0.0236,0.0156,-0.0040,0.0076,0.0012,-33.0000,-29.4750,-1.2563,
6.779121,0.0422,0.0236,0.0156,-0.0040,0.0076,0.0012,-33.0000,-29.4750,-1.2563,
6.781946,0.0422,0.0236,0.0156,0.0010,-0.0107,0.0012,-33.0000,-29.4750,-1.2563,
6.783087,0.0405,-0.0113,0.0346,0.0010,-0.0107,0.0012,-33.0000,-29.4750,-1.2563,
6.784401,0.0405,-0.0113,0.0346,0.0010,-0.0107,0.0012,-33.0000,-29.8875,-0.8438,
6.798274,0.0716,0.0149,-0.0103,0.0010,-0.0107,0.0012,-33.0000,-29.8875,-0.8438,
6.817695,0.1007,0.0291,-0.0314,0.0010,-0.0107,0.0012,-33.0000,-29.8875,-0.8438,
6.826433,0.1007,0.0291,-0.0314,0.0010,-0.0107,0.0012,-33.0000,-29.8875,-0.8438,
6.836967,0.0885,0.0105,-0.0223,0.0010,-0.0107,0.0012,-33.0000,-29.8875,-0.8438,
6.840347,0.0885,0.0105,-0.0223,-0.0040,0.0125,0.0073,-33.0000,-29.8875,-0.8438,
6.842485,0.0885,0.0105,-0.0223,-0.0040,0.0125,0.0073,-31.5188,-29.7563,-2.3438,
6.855577,0.1054,0.0189,0.0299,-0.0040,0.0125,0.0073,-31.5188,-29.7563,-2.3438,
6.875158,0.1054,0.0189,0.0299,-0.0040,0.0125,0.0073,-31.5188,-29.7563,-2.3438,
6.878149,0.0449,0.0407,-0.0016,-0.0040,0.0125,0.0073,-31.5188,-29.7563,-2.3438,
6.895641,0.0441,0.0693,-0.0235,-0.0040,0.0125,0.0073,-31.5188,-29.7563,-2.3438,
6.901273,0.0441,0.0693,-0.0235,-0.0040,0.0125,0.0073,-32.5125,-29.7188,-0.8625,
6.903473,0.0441,0.0693,-0.0235,-0.0040,-0.0070,0.0122,-32.5125,-29.7188,-0.8625,
6.913695,0.0915,-0.1401,0.0391,-0.0040,-0.0070,0.0122,-32.5125,-29.7188,-0.8625,
6.922333,0.0915,-0.1401,0.0391,-0.0040,-0.0070,0.0122,-32.5125,-29.7188,-0.8625,
6.933492,-0.0024,0.0754,0.1416,-0.0040,-0.0070,0.0122,-32.5125,-29.7188,-0.8625,
6.951908,0.1244,0.0173,-0.2190,-0.0040,-0.0070,0.0122,-32.5125,-29.7188,-0.8625,
6.961392,0.1244,0.0173,-0.2190,-0.0040,-0.0070,0.0122,-32.4938,-29.8688,-1.4813,
6.965942,0.1244,0.0173,-0.2190,-0.0210,0.0040,-0.0085,-32.4938,-29.8688,-1.4813,
6.969660,0.1244,0.0173,-0.2190,-0.0210,0.0040,-0.0085,-32.4938,-29.8688,-1.4813,
6.970434,0.0695,0.0142,0.1619,-0.0210,0.0040,-0.0085,-32.4938,-29.8688,-1.4813,
6.990041,0.0506,-0.0188,-0.0076,-0.0210,0.0040,-0.0085,-32.4938,-29.8688,-1.4813,
7.009440,0.1458,0.0505,-0.0758,-0.0210,0.0040,-0.0085,-32.4938,-29.8688,-1.4813,
7.018973,0.1458,0.0505,-0.0758,-0.0210,0.0040,-0.0085,-32.4938,-29.8688,-1.4813,
7.021560,0.1458,0.0505,-0.0758,-0.0210,0.0040,-0.0085,-32.4000,-30.0000,-0.9563,
7.026966,0.1458,0.0505,-0.0758,-0.0015,-0.0033,-0.0012,-32.4000,-30.0000,-0.9563,
7.028205,0.0899,0.0123,-0.0229,-0.0015,-0.0033,-0.0012,-32.4000,-30.0000,-0.9563,
7.048177,0.1211,0.0249,0.0345,-0.0015,-0.0033,-0.0012,-32.4000,-30.0000,-0.9563,
7.065862,0.1211,0.0249,0.0345,-0.0015,-0.0033,-0.0012,-32.4000,-30.0000,-0.9563,
7.068380,0.0687,0.0295,-0.0326,-0.0015,-0.0033,-0.0012,-32.4000,-30.0000,-0.9563,
7.081301,0.0687,0.0295,-0.0326,-0.0015,-0.0033,-0.0012,-32.7000,-29.7938,-1.0500,
7.085671,0.0465,0.0420,-0.0090,-0.0015,-0.0033,-0.0012,-32.7000,-29.7938,-1.0500,
7.090950,0.0465,0.0420,-0.0090,-0.0040,-0.0058,0.0025,-32.7000,-29.7938,-1.0500,
7.105011,0.0727,0.0119,0.0390,-0.0040,-0.0058,0.0025,-32.7000,-29.7938,-1.0500,
7.113685,0.0727,0.0119,0.0390,-0.0040,-0.0058,0.0025,-32.7000,-29.7938,-1.0500,
7.123804,0.0485,0.0097,0.0133,-0.0040,-0.0058,0.0025,-32.7000,-29.7938,-1.0500,
7.141365,0.0485,0.0097,0.0133,-0.0040,-0.0058,0.0025,-33.2812,-29.7750,-0.9375,
7.144282,0.0876,0.0241,-0.0241,-0.0040,-0.0058,0.0025,-33.2812,-29.7750,-0.9375,
7.150650,0.0876,0.0241,-0.0241,0.0034,-0.0217,-0.0025,-33.2812,-29.7750,-0.9375,
7.160073,0.0876,0.0241,-0.0241,0.0034,-0.0217,-0.0025,-33.2812,-29.7750,-0.9375,
7.161757,0.1082,0.0406,-0.0593,0.0034,-0.0217,-0.0025,-33.2812,-29.7750,-0.9375,
7.182386,0.1149,0.0246,-0.0041,0.0034,-0.0217,-0.0025,-33.2812,-29.7750,-0.9375,
7.200620,0.0657,0.0281,0.0394,0.0034,-0.0217,-0.0025,-33.2812,-29.7750,-0.9375,
7.203679,0.0657,0.0281,0.0394,0.0034,-0.0217,-0.0025,-33.4875,-29.7188,-0.3000,
7.209072,0.0657,0.0281,0.0394,0.0034,-0.0217,-0.0025,-33.4875,-29.7188,-0.3000,
7.213465,0.0657,0.0281,0.0394,0.0022,-0.0290,-0.0037,-33.4875,-29.7188,-0.3000,
7.221265,0.0717,0.0330,-0.0029,0.0022,-0.0290,-0.0037,-33.4875,-29.7188,-0.3000,
7.237735,0.0784,-0.0169,-0.0185,0.0022,-0.0290,-0.0037,-33.4875,-29.7188,-0.3000,
7.257325,0.0784,-0.0169,-0.0185,0.0022,-0.0290,-0.0037,-33.4875,-29.7188,-0.3000,
7.261007,0.1400,0.0457,-0.0795,0.0022,-0.0290,-0.0037,-33.4875,-29.7188,-0.3000,
7.263050,0.1400,0.0457,-0.0795,0.0022,-0.0290,-0.0037,-33.6562,-30.0750,-0.9188,
7.275340,0.1400,0.0457,-0.0795,-0.0063,-0.0095,-0.0110,-33.6562,-30.0750,-0.9188,
7.276701,0.1317,-0.0440,-0.0259,-0.0063,-0.0095,-0.0110,-33.6562,-30.0750,-0.9188,
7.295570,0.0684,0.0512,0.0288,-0.0063,-0.0095,-0.0110,-33.6562,-30.0750,-0.9188,
7.304676,0.0684,0.0512,0.0288,-0.0063,-0.0095,-0.0110,-33.6562,-30.0750,-0.9188,
7.315821,0.0618,0.0667,-0.0031,-0.0063,-0.0095,-0.0110,-33.6562,-30.0750,-0.9188,
7.321314,0.0618,0.0667,-0.0031,-0.0063,-0.0095,-0.0110,-31.3313,-29.6625,-2.3438,
7.333662,0.0668,0.0565,0.0328,-0.0063,-0.0095,-0.0110,-31.3313,-29.6625,-2.3438,
7.337792,0.0668,0.0565,0.0328,-0.0052,-0.0082,-0.0025,-31.3313,-29.6625,-2.3438,
7.353002,0.0668,0.0565,0.0328,-0.0052,-0.0082,-0.0025,-31.3313,-29.6625,-2.3438,
7.355955,0.0713,0.0395,0.0214,-0.0052,-0.0082,-0.0025,-31.3313,-29.6625,-2.3438,
7.372324,0.0822,0.0360,-0.0234,-0.0052,-0.0082,-0.0025,-31.3313,-29.6625,-2.3438,
7.382312,0.0822,0.0360,-0.0234,-0.0052,-0.0082,-0.0025,-31.6125,-29.8688,-2.1375,
7.390817,0.1032,0.0353,-0.0491,-0.0052,-0.0082,-0.0025,-31.6125,-29.8688,-2.1375,
7.400114,0.1032,0.0353,-0.0491,-0.0052,-0.0082,-0.0025,-31.6125,-29.8688,-2.1375,
7.401896,0.1032,0.0353,-0.0491,-0.0052,0.0040,0.0012,-31.6125,-29.8688,-2.1375,
7.410832,0.1051,0.0237,0.0133,-0.0052,0.0040,0.0012,-31.6125,-29.8688,-2.1375,
7.430009,0.0797,0.0137,-0.0085,-0.0052,0.0040,0.0012,-31.6125,-29.8688,-2.1375,
7.444304,0.0797,0.0137,-0.0085,-0.0052,0.0040,0.0012,-33.2063,-29.5875,-0.9375,
7.448440,0.0797,0.0137,-0.0085,-0.0052,0.0040,0.0012,-33.2063,-29.5875,-0.9375,
7.449665,0.0996,0.0304,0.0057,-0.0052,0.0040,0.0012,-33.2063,-29.5875,-0.9375,
7.461831,0.0996,0.0304,0.0057,0.0010,0.0052,-0.0025,-33.2063,-29.5875,-0.9375,
7.468635,0.0307,0.0271,0.0199,0.0010,0.0052,-0.0025,-33.2063,-29.5875,-0.9375,
7.487212,0.0556,0.0359,0.0106,0.0010,0.0052,-0.0025,-33.2063,-29.5875,-0.9375,
7.496396,0.0556,0.0359,0.0106,0.0010,0.0052,-0.0025,-33.2063,-29.5875,-0.9375,
7.502138,0.0556,0.0359,0.0106,0.0010,0.0052,-0.0025,-32.5875,-30.0000,-1.0688,
7.506120,0.0763,0.0281,-0.0175,0.0010,0.0052,-0.0025,-32.5875,-30.0000,-1.0688,
7.524026,0.0763,0.0281,-0.0175,-0.0027,-0.0082,-0.0000,-32.5875,-30.0000,-1.0688,
7.525538,0.0596,0.0182,-0.0074,-0.0027,-0.0082,-0.0000,-32.5875,-30.0000,-1.0688,
7.543813,0.0596,0.0182,-0.0074,-0.0027,-0.0082,-0.0000,-32.5875,-30.0000,-1.0688,
7.545315,0.0566,0.0488,0.0124,-0.0027,-0.0082,-0.0000,-32.5875,-30.0000,-1.0688,
7.561295,0.0566,0.0488,0.0124,-0.0027,-0.0082,-0.0000,-32.6063,-29.7375,-0.4313,
7.564124,0.0742,0.0265,0.0013,-0.0027,-0.0082,-0.0000,-32.6063,-29.7375,-0.4313,
7.583043,0.0818,0.0095,-0.0049,-0.0027,-0.0082,-0.0000,-32.6063,-29.7375,-0.4313,
7.586550,0.0818,0.0095,-0.0049,-0.0015,-0.0180,-0.0000,-32.6063,-29.7375,-0.4313,
7.591612,0.0818,0.0095,-0.0049,-0.0015,-0.0180,-0.0000,-32.6063,-29.7375,-0.4313,
7.601893,0.0546,0.0118,-0.0065,-0.0015,-0.0180,-0.0000,-32.6063,-29.7375,-0.4313,
7.621517,0.1174,0.0191,-0.0228,-0.0015,-0.0180,-0.0000,-32.6063,-29.7375,-0.4313,
7.624700,0.1174,0.0191,-0.0228,-0.0015,-0.0180,-0.0000,-32.9062,-29.7188,-0.4313,
7.639954,0.1174,0.0191,-0.0228,-0.0015,-0.0180,-0.0000,-32.9062,-29.7188,-0.4313,
7.642906,0.0876,-0.0285,-0.0346,-0.0015,-0.0180,-0.0000,-32.9062,-29.7188,-0.4313,
7.648509,0.0876,-0.0285,-0.0346,-0.0003,-0.0095,-0.0025,-32.9062,-29.7188,-0.4313,
7.659621,0.0813,0.0005,-0.0084,-0.0003,-0.0095,-0.0025,-32.9062,-29.7188,-0.4313,
7.678648,0.0738,0.0008,0.0127,-0.0003,-0.0095,-0.0025,-32.9062,-29.7188,-0.4313,
7.682320,0.0738,0.0008,0.0127,-0.0003,-0.0095,-0.0025,-32.9813,-30.0938,-0.7500,
7.687967,0.0738,0.0008,0.0127,-0.0003,-0.0095,-0.0025,-32.9813,-30.0938,-0.7500,
7.699212,0.0687,0.0240,0.0073,-0.0003,-0.0095,-0.0025,-32.9813,-30.0938,-0.7500,
7.711287,0.0687,0.0240,0.0073,0.0010,-0.0058,-0.0012,-32.9813,-30.0938,-0.7500,
7.716372,0.0702,0.0398,-0.0146,0.0010,-0.0058,-0.0012,-32.9813,-30.0938,-0.7500,
7.735795,0.0702,0.0398,-0.0146,0.0010,-0.0058,-0.0012,-32.9813,-30.0938,-0.7500,
7.738210,0.1028,0.0344,-0.0078,0.0010,-0.0058,-0.0012,-32.9813,-30.0938,-0.7500,
7.741167,0.1028,0.0344,-0.0078,0.0010,-0.0058,-0.0012,-32.7000,-29.8313,-0.3375,
7.754311,0.1048,0.0409,-0.0227,0.0010,-0.0058,-0.0012,-32.7000,-29.8313,-0.3375,
7.773246,0.1048,0.0409,-0.0227,-0.0015,0.0040,0.0025,-32.7000,-29.8313,-0.3375,
7.776115,0.0838,0.0291,0.0078,-0.0015,0.0040,0.0025,-32.7000,-29.8313,-0.3375,
7.782910,0.0838,0.0291,0.0078,-0.0015,0.0040,0.0025,-32.7000,-29.8313,-0.3375,
7.793300,0.0697,0.0524,0.0072,-0.0015,0.0040,0.0025,-32.7000,-29.8313,-0.3375,
7.801162,0.0697,0.0524,0.0072,-0.0015,0.0040,0.0025,-31.7250,-29.7563,-2.1188,
7.812362,0.0940,0.0401,0.0047,-0.0015,0.0040,0.0025,-31.7250,-29.7563,-2.1188,
7.830867,0.0940,0.0401,0.0047,-0.0015,0.0040,0.0025,-31.7250,-29.7563,-2.1188,
7.834042,0.1322,0.0444,-0.0456,-0.0015,0.0040,0.0025,-31.7250,-29.7563,-2.1188,
7.836431,0.1322,0.0444,-0.0456,-0.0027,-0.0045,0.0048,-31.7250,-29.7563,-2.1188,
7.850499,0.1390,-0.0002,-0.0005,-0.0027,-0.0045,0.0048,-31.7250,-29.7563,-2.1188,
7.861747,0.1390,-0.0002,-0.0005,-0.0027,-0.0045,0.0048,-31.8375,-29.6063,-1.1813,
7.869683,0.0986,-0.0135,-0.0083,-0.0027,-0.0045,0.0048,-31.8375,-29.6063,-1.1813,
7.877669,0.0986,-0.0135,-0.0083,-0.0027,-0.0045,0.0048,-31.8375,-29.6063,-1.1813,
7.889363,0.0841,-0.0360,0.0296,-0.0027,-0.0045,0.0048,-31.8375,-29.6063,-1.1813,
7.900476,0.0841,-0.0360,0.0296,-0.0003,-0.0144,-0.0012,-31.8375,-29.6063,-1.1813,
7.908114,0.0985,-0.0162,-0.0039,-0.0003,-0.0144,-0.0012,-31.8375,-29.6063,-1.1813,
7.921137,0.0985,-0.0162,-0.0039,-0.0003,-0.0144,-0.0012,-32.7000,-29.7750,-1.3688,
7.926430,0.0985,-0.0162,-0.0039,-0.0003,-0.0144,-0.0012,-32.7000,-29.7750,-1.3688,
7.929454,0.1383,0.0192,-0.0689,-0.0003,-0.0144,-0.0012,-32.7000,-29.7750,-1.3688,
7.946428,0.1478,0.0353,-0.0288,-0.0003,-0.0144,-0.0012,-32.7000,-29.7750,-1.3688,
7.959822,0.1478,0.0353,-0.0288,-0.0003,0.0175,-0.0012,-32.7000,-29.7750,-1.3688,
7.965866,0.0980,0.0157,-0.0031,-0.0003,0.0175,-0.0012,-32.7000,-29.7750,-1.3688,
7.974851,0.0980,0.0157,-0.0031,-0.0003,0.0175,-0.0012,-32.7000,-29.7750,-1.3688,
7.980575,0.0980,0.0157,-0.0031,-0.0003,0.0175,-0.0012,-32.1188,-30.0375,-0.5625,
7.984130,0.0702,0.0271,0.0153,-0.0003,0.0175,-0.0012,-32.1188,-30.0375,-0.5625,
8.003607,0.0943,0.0196,0.0075,-0.0003,0.0175,-0.0012,-32.1188,-30.0375,-0.5625,
8.022209,0.0943,0.0196,0.0075,-0.0003,0.0175,-0.0012,-32.1188,-30.0375,-0.5625,
8.025335,0.0943,0.0196,0.0075,-0.0003,0.0015,0.0012,-32.1188,-30.0375,-0.5625,
8.027581,0.0937,0.0097,0.0094,-0.0003,0.0015,0.0012,-32.1188,-30.0375,-0.5625,
8.041862,0.1173,-0.0027,-0.0216,-0.0003,0.0015,0.0012,-32.1188,-30.0375,-0.5625,
8.043967,0.1173,-0.0027,-0.0216,-0.0003,0.0015,0.0012,-33.7875,-29.7938,-0.3938,
8.060627,0.1280,0.0254,-0.0118,-0.0003,0.0015,0.0012,-33.7875,-29.7938,-0.3938,
8.069960,0.1280,0.0254,-0.0118,-0.0003,0.0015,0.0012,-33.7875,-29.7938,-0.3938,
8.081489,0.1346,0.0129,-0.0404,-0.0003,0.0015,0.0012,-33.7875,-29.7938,-0.3938,
8.085064,0.1346,0.0129,-0.0404,0.0010,0.0088,0.0012,-33.7875,-29.7938,-0.3938,
8.099338,0.1242,0.0151,-0.0193,0.0010,0.0088,0.0012,-33.7875,-29.7938,-0.3938,
8.101001,0.1242,0.0151,-0.0193,0.0010,0.0088,0.0012,-33.4875,-29.7750,-0.8250,
8.117355,0.1242,0.0151,-0.0193,0.0010,0.0088,0.0012,-33.4875,-29.7750,-0.8250,
8.120089,0.0791,0.0244,-0.0151,0.0010,0.0088,0.0012,-33.4875,-29.7750,-0.8250,
8.137449,0.0799,0.0238,0.0033,0.0010,0.0088,0.0012,-33.4875,-29.7750,-0.8250,
8.146570,0.0799,0.0238,0.0033,-0.0015,0.0065,0.0037,-33.4875,-29.7750,-0.8250,
8.156425,0.0957,0.0329,0.0484,-0.0015,0.0065,0.0037,-33.4875,-29.7750,-0.8250,
8.161397,0.0957,0.0329,0.0484,-0.0015,0.0065,0.0037,-32.7938,-29.7938,-1.0500,
8.167193,0.0957,0.0329,0.0484,-0.0015,0.0065,0.0037,-32.7938,-29.7938,-1.0500,
8.177737,0.1025,0.0036,-0.0180,-0.0015,0.0065,0.0037,-32.7938,-29.7938,-1.0500,
8.195283,0.1091,0.0004,-0.0653,-0.0015,0.0065,0.0037,-32.7938,-29.7938,-1.0500,
8.208543,0.1091,0.0004,-0.0653,-0.0015,0.0027,0.0012,-32.7938,-29.7938,-1.0500,
8.213113,0.1091,0.0004,-0.0653,-0.0015,0.0027,0.0012,-32.7938,-29.7938,-1.0500,
8.214341,0.1445,-0.0139,-0.0388,-0.0015,0.0027,0.0012,-32.7938,-29.7938,-1.0500,
8.221344,0.1445,-0.0139,-0.0388,-0.0015,0.0027,0.0012,-33.1875,-29.7000,-0.7313,
8.232660,0.0863,0.0031,0.0135,-0.0015,0.0027,0.0012,-33.1875,-29.7000,-0.7313,
8.252302,0.0779,0.0266,0.0156,-0.0015,0.0027,0.0012,-33.1875,-29.7000,-0.7313,
8.261176,0.0779,0.0266,0.0156,-0.0015,0.0027,0.0012,-33.1875,-29.7000,-0.7313,
8.271036,0.0779,0.0266,0.0156,-0.0003,-0.0058,-0.0000,-33.1875,-29.7000,-0.7313,
8.274023,0.0935,0.0210,-0.0105,-0.0003,-0.0058,-0.0000,-33.1875,-29.7000,-0.7313,
8.281198,0.0935,0.0210,-0.0105,-0.0003,-0.0058,-0.0000,-31.4063,-30.1500,-2.4563,
8.290170,0.1033,0.0153,-0.0173,-0.0003,-0.0058,-0.0000,-31.4063,-30.1500,-2.4563,
8.309149,0.1033,0.0153,-0.0173,-0.0003,-0.0058,-0.0000,-31.4063,-30.1500,-2.4563,
8.312069,0.1136,0.0193,-0.0146,-0.0003,-0.0058,-0.0000,-31.4063,-30.1500,-2.4563,
8.328997,0.1000,0.0185,0.0001,-0.0003,-0.0058,-0.0000,-31.4063,-30.1500,-2.4563,
8.332288,0.1000,0.0185,0.0001,0.0010,-0.0045,-0.0000,-31.4063,-30.1500,-2.4563,
8.342124,0.1000,0.0185,0.0001,0.0010,-0.0045,-0.0000,-33.5063,-29.4938,-0.7125,
8.347876,0.0718,0.0346,-0.0019,0.0010,-0.0045,-0.0000,-33.5063,-29.4938,-0.7125,
8.355763,0.0718,0.0346,-0.0019,0.0010,-0.0045,-0.0000,-33.5063,-29.4938,-0.7125,
8.366036,0.0674,0.0099,0.0057,0.0010,-0.0045,-0.0000,-33.5063,-29.4938,-0.7125,
8.386087,0.0779,-0.0026,0.0185,0.0010,-0.0045,-0.0000,-33.5063,-29.4938,-0.7125,
8.394653,0.0779,-0.0026,0.0185,0.0045,-0.0217,-0.0012,-33.5063,-29.4938,-0.7125,
8.400918,0.0779,-0.0026,0.0185,0.0045,-0.0217,-0.0012,-32.5125,-29.6063,-1.0688,
8.403714,0.0779,-0.0026,0.0185,0.0045,-0.0217,-0.0012,-32.5125,-29.6063,-1.0688,
8.404633,0.1064,-0.0156,-0.0307,0.0045,-0.0217,-0.0012,-32.5125,-29.6063,-1.0688,
8.424167,0.1396,-0.0207,-0.0224,0.0045,-0.0217,-0.0012,-32.5125,-29.6063,-1.0688,
8.443315,0.1174,0.0167,-0.0601,0.0045,-0.0217,-0.0012,-32.5125,-29.6063,-1.0688,
8.456183,0.1174,0.0167,-0.0601,0.0045,-0.0217,-0.0012,-32.5125,-29.6063,-1.0688,
8.459292,0.1174,0.0167,-0.0601,-0.0027,0.0027,0.0012,-32.5125,-29.6063,-1.0688,
8.462050,0.0926,-0.0093,-0.0096,-0.0027,0.0027,0.0012,-32.5125,-29.6063,-1.0688,
8.463011,0.0926,-0.0093,-0.0096,-0.0027,0.0027,0.0012,-32.6063,-29.8875,-1.0688,
8.482376,0.0450,-0.0190,0.0095,-0.0027,0.0027,0.0012,-32.6063,-29.8875,-1.0688,
8.500888,0.0450,-0.0190,0.0095,-0.0027,0.0027,0.0012,-32.6063,-29.8875,-1.0688,
8.504104,0.0403,0.0093,0.0387,-0.0027,0.0027,0.0012,-32.6063,-29.8875,-1.0688,
8.519452,0.0403,0.0093,0.0387,0.0034,-0.0437,-0.0110,-32.6063,-29.8875,-1.0688,
8.521392,0.0467,-0.0016,-0.0505,0.0034,-0.0437,-0.0110,-32.6063,-29.8875,-1.0688,
8.522244,0.0467,-0.0016,-0.0505,0.0034,-0.0437,-0.0110,-32.8125,-29.7188,-0.5438,
8.539475,0.1321,0.0448,-0.0349,0.0034,-0.0437,-0.0110,-32.8125,-29.7188,-0.5438,
8.548034,0.1321,0.0448,-0.0349,0.0034,-0.0437,-0.0110,-32.8125,-29.7188,-0.5438,
8.558621,0.2024,0.0085,-0.0412,0.0034,-0.0437,-0.0110,-32.8125,-29.7188,-0.5438,
8.580100,0.0875,0.0247,-0.0508,0.0034,-0.0437,-0.0110,-32.8125,-29.7188,-0.5438,
8.584138,0.0875,0.0247,-0.0508,-0.0027,0.0162,-0.0000,-32.8125,-29.7188,-0.5438,
8.587308,0.0875,0.0247,-0.0508,-0.0027,0.0162,-0.0000,-32.5125,-29.8125,-0.8625,
8.595341,0.0875,0.0247,-0.0508,-0.0027,0.0162,-0.0000,-32.5125,-29.8125,-0.8625,
8.596543,0.0444,-0.0084,0.0468,-0.0027,0.0162,-0.0000,-32.5125,-29.8125,-0.8625,
8.615231,0.0661,-0.0268,0.0468,-0.0027,0.0162,-0.0000,-32.5125,-29.8125,-0.8625,
8.634467,0.0759,-0.0097,-0.0053,-0.0027,0.0162,-0.0000,-32.5125,-29.8125,-0.8625,
8.641645,0.0759,-0.0097,-0.0053,-0.0027,0.0162,-0.0000,-33.3750,-29.9063,-0.5250,
8.643875,0.0759,-0.0097,-0.0053,-0.0027,0.0162,-0.0000,-33.3750,-29.9063,-0.5250,
8.645348,0.0759,-0.0097,-0.0053,0.0034,-0.0058,-0.0037,-33.3750,-29.9063,-0.5250,
8.653883,0.0660,0.0183,-0.0502,0.0034,-0.0058,-0.0037,-33.3750,-29.9063,-0.5250,
8.673769,0.0980,0.0176,-0.0164,0.0034,-0.0058,-0.0037,-33.3750,-29.9063,-0.5250,
8.691743,0.0980,0.0176,-0.0164,0.0034,-0.0058,-0.0037,-33.3750,-29.9063,-0.5250,
8.695038,0.0974,0.0336,-0.0211,0.0034,-0.0058,-0.0037,-33.3750,-29.9063,-0.5250,
8.702894,0.0974,0.0336,-0.0211,0.0034,-0.0058,-0.0037,-32.3250,-29.7375,-0.5438,
8.706253,0.0974,0.0336,-0.0211,-0.0003,0.0065,-0.0000,-32.3250,-29.7375,-0.5438,
8.711473,0.0683,0.0310,0.0029,-0.0003,0.0065,-0.0000,-32.3250,-29.7375,-0.5438,
8.729914,0.0194,0.0140,0.0007,-0.0003,0.0065,-0.0000,-32.3250,-29.7375,-0.5438,
8.739090,0.0194,0.0140,0.0007,-0.0003,0.0065,-0.0000,-32.3250,-29.7375,-0.5438,
8.749460,0.0704,0.0116,-0.0013,-0.0003,0.0065,-0.0000,-32.3250,-29.7375,-0.5438,
8.761353,0.0704,0.0116,-0.0013,-0.0003,0.0065,-0.0000,-32.7000,-30.0000,-0.8438,
8.767487,0.0704,0.0116,-0.0013,-0.0015,0.0052,0.0012,-32.7000,-30.0000,-0.8438,
8.769531,0.0930,0.0095,-0.0345,-0.0015,0.0052,0.0012,-32.7000,-30.0000,-0.8438,
8.787125,0.0930,0.0095,-0.0345,-0.0015,0.0052,0.0012,-32.7000,-30.0000,-0.8438,
8.788545,0.1170,-0.0014,-0.0368,-0.0015,0.0052,0.0012,-32.7000,-30.0000,-0.8438,
8.807014,0.0878,0.0135,-0.0013,-0.0015,0.0052,0.0012,-32.7000,-30.0000,-0.8438,
8.823818,0.0878,0.0135,-0.0013,-0.0015,0.0052,0.0012,-32.9062,-29.6250,-0.5250,
8.827426,0.0636,0.0043,0.0341,-0.0015,0.0052,0.0012,-32.9062,-29.6250,-0.5250,
8.829720,0.0636,0.0043,0.0341,-0.0015,0.0162,0.0036,-32.9062,-29.6250,-0.5250,
8.833988,0.0636,0.0043,0.0341,-0.0015,0.0162,0.0036,-32.9062,-29.6250,-0.5250,
8.844590,0.0630,0.0048,0.0433,-0.0015,0.0162,0.0036,-32.9062,-29.6250,-0.5250,
8.863936,0.0300,0.0193,0.0073,-0.0015,0.0162,0.0036,-32.9062,-29.6250,-0.5250,
8.881502,0.0300,0.0193,0.0073,-0.0015,0.0162,0.0036,-32.7938,-29.8875,-0.9563,
8.882896,0.0300,0.0193,0.0073,-0.0015,0.0162,0.0036,-32.7938,-29.8875,-0.9563,
8.883634,0.0648,0.0030,-0.0164,-0.0015,0.0162,0.0036,-32.7938,-29.8875,-0.9563,
8.892127,0.0648,0.0030,-0.0164,-0.0003,0.0015,-0.0012,-32.7938,-29.8875,-0.9563,
8.902409,0.1137,-0.0112,-0.0208,-0.0003,0.0015,-0.0012,-32.7938,-29.8875,-0.9563,
8.921550,0.1114,-0.0135,-0.0209,-0.0003,0.0015,-0.0012,-32.7938,-29.8875,-0.9563,
8.932942,0.1114,-0.0135,-0.0209,-0.0003,0.0015,-0.0012,-32.7938,-29.8875,-0.9563,
8.941346,0.0495,-0.0015,0.0216,-0.0003,0.0015,-0.0012,-32.7938,-29.8875,-0.9563,
8.943471,0.0495,-0.0015,0.0216,-0.0003,0.0015,-0.0012,-32.6063,-29.9250,-0.4313,
8.954712,0.0495,-0.0015,0.0216,0.0010,-0.0010,-0.0012,-32.6063,-29.9250,-0.4313,
8.959849,-0.0063,0.0053,0.0452,0.0010,-0.0010,-0.0012,-32.6063,-29.9250,-0.4313,
8.978452,-0.0063,0.0053,0.0452,0.0010,-0.0010,-0.0012,-32.6063,-29.9250,-0.4313,
8.981367,0.0233,0.0044,0.0119,0.0010,-0.0010,-0.0012,-32.6063,-29.9250,-0.4313,
8.998506,0.0586,0.0151,0.0006,0.0010,-0.0010,-0.0012,-32.6063,-29.9250,-0.4313,
9.002017,0.0586,0.0151,0.0006,0.0010,-0.0010,-0.0012,-33.1125,-29.4188,-0.3188,
9.015447,0.0586,0.0151,0.0006,0.0058,-0.0107,0.0073,-33.1125,-29.4188,-0.3188,
9.018693,0.0778,-0.0004,-0.0325,0.0058,-0.0107,0.0073,-33.1125,-29.4188,-0.3188,
9.026054,0.0778,-0.0004,-0.0325,0.0058,-0.0107,0.0073,-33.1125,-29.4188,-0.3188,
9.036014,0.0643,0.0349,0.0469,0.0058,-0.0107,0.0073,-33.1125,-29.4188,-0.3188,
9.055982,0.0200,0.0062,-0.0195,0.0058,-0.0107,0.0073,-33.1125,-29.4188,-0.3188,
9.061274,0.0200,0.0062,-0.0195,0.0058,-0.0107,0.0073,-32.8125,-29.5313,-0.5250,
9.073834,0.0200,0.0062,-0.0195,0.0058,-0.0107,0.0073,-32.8125,-29.5313,-0.5250,
9.076529,0.1468,0.0233,-0.0568,0.0058,-0.0107,0.0073,-32.8125,-29.5313,-0.5250,
9.078997,0.1468,0.0233,-0.0568,0.0045,-0.0082,0.0025,-32.8125,-29.5313,-0.5250,
9.094180,0.1000,0.0053,-0.0278,0.0045,-0.0082,0.0025,-32.8125,-29.5313,-0.5250,
9.112868,0.0546,0.0152,0.0895,0.0045,-0.0082,0.0025,-32.8125,-29.5313,-0.5250,
9.122533,0.0546,0.0152,0.0895,0.0045,-0.0082,0.0025,-33.4125,-29.5500,0.1125,
9.125844,0.0546,0.0152,0.0895,0.0045,-0.0082,0.0025,-33.4125,-29.5500,0.1125,
9.131880,0.0166,0.0240,-0.0322,0.0045,-0.0082,0.0025,-33.4125,-29.5500,0.1125,
9.140504,0.0166,0.0240,-0.0322,0.0010,0.0076,0.0073,-33.4125,-29.5500,0.1125,
9.151011,0.0902,0.0147,-0.0446,0.0010,0.0076,0.0073,-33.4125,-29.5500,0.1125,
9.169859,0.0902,0.0147,-0.0446,0.0010,0.0076,0.0073,-33.4125,-29.5500,0.1125,
9.172575,0.1141,-0.0507,-0.0115,0.0010,0.0076,0.0073,-33.4125,-29.5500,0.1125,
9.181218,0.1141,-0.0507,-0.0115,0.0010,0.0076,0.0073,-32.7188,-29.4188,-0.5438,
9.188846,0.0361,-0.0090,0.0075,0.0010,0.0076,0.0073,-32.7188,-29.4188,-0.5438,
9.202210,0.0361,-0.0090,0.0075,-0.0003,0.0065,0.0012,-32.7188,-29.4188,-0.5438,
9.208186,0.0355,-0.0204,0.0023,-0.0003,0.0065,0.0012,-32.7188,-29.4188,-0.5438,
9.217969,0.0355,-0.0204,0.0023,-0.0003,0.0065,0.0012,-32.7188,-29.4188,-0.5438,
9.227612,0.0826,-0.0081,0.0259,-0.0003,0.0065,0.0012,-32.7188,-29.4188,-0.5438,
9.241973,0.0826,-0.0081,0.0259,-0.0003,0.0065,0.0012,-33.1875,-29.6813,-0.9375,
9.246240,0.0558,0.0271,0.0212,-0.0003,0.0065,0.0012,-33.1875,-29.6813,-0.9375,
9.264932,0.0558,0.0271,0.0212,-0.0003,0.0065,0.0012,-33.1875,-29.6813,-0.9375,
9.266227,0.0558,0.0271,0.0212,0.0034,-0.0120,-0.0025,-33.1875,-29.6813,-0.9375,
9.266959,0.0461,0.0587,-0.0185,0.0034,-0.0120,-0.0025,-33.1875,-29.6813,-0.9375,
9.285485,0.0850,0.0192,0.0040,0.0034,-0.0120,-0.0025,-33.1875,-29.6813,-0.9375,
9.301251,0.0850,0.0192,0.0040,0.0034,-0.0120,-0.0025,-33.3938,-29.5688,-1.2375,
9.304653,0.0628,0.0212,0.0070,0.0034,-0.0120,-0.0025,-33.3938,-29.5688,-1.2375,
9.313236,0.0628,0.0212,0.0070,0.0034,-0.0120,-0.0025,-33.3938,-29.5688,-1.2375,
9.323405,0.0778,0.0184,-0.0112,0.0034,-0.0120,-0.0025,-33.3938,-29.5688,-1.2375,
9.326009,0.0778,0.0184,-0.0112,-0.0003,-0.0082,-0.0000,-33.3938,-29.5688,-1.2375,
9.342738,0.0470,-0.0270,-0.0125,-0.0003,-0.0082,-0.0000,-33.3938,-29.5688,-1.2375,
9.360581,0.0470,-0.0270,-0.0125,-0.0003,-0.0082,-0.0000,-33.3938,-29.5688,-1.2375,
9.363902,0.0293,-0.0098,0.0194,-0.0003,-0.0082,-0.0000,-33.3938,-29.5688,-1.2375,
9.366425,0.0293,-0.0098,0.0194,-0.0003,-0.0082,-0.0000,-33.0750,-29.9813,-0.9375,
9.380037,0.0265,-0.0220,0.0153,-0.0003,-0.0082,-0.0000,-33.0750,-29.9813,-0.9375,
9.389192,0.0265,-0.0220,0.0153,0.0010,-0.0045,-0.0012,-33.0750,-29.9813,-0.9375,
9.398848,0.0207,0.0345,0.0065,0.0010,-0.0045,-0.0012,-33.0750,-29.9813,-0.9375,
9.407936,0.0207,0.0345,0.0065,0.0010,-0.0045,-0.0012,-33.0750,-29.9813,-0.9375,
9.419458,0.0498,0.0262,-0.0045,0.0010,-0.0045,-0.0012,-33.0750,-29.9813,-0.9375,
9.423138,0.0498,0.0262,-0.0045,0.0010,-0.0045,-0.0012,-33.3000,-29.8313,-0.1125,
9.437544,0.0744,0.0039,-0.0060,0.0010,-0.0045,-0.0012,-33.3000,-29.8313,-0.1125,
9.450470,0.0744,0.0039,-0.0060,-0.0027,-0.0082,-0.0074,-33.3000,-29.8313,-0.1125,
9.455550,0.0744,0.0039,-0.0060,-0.0027,-0.0082,-0.0074,-33.3000,-29.8313,-0.1125,
9.458770,0.0128,-0.0296,0.0452,-0.0027,-0.0082,-0.0074,-33.3000,-29.8313,-0.1125,
9.476990,-0.0139,0.0076,0.0656,-0.0027,-0.0082,-0.0074,-33.3000,-29.8313,-0.1125,
9.481891,-0.0139,0.0076,0.0656,-0.0027,-0.0082,-0.0074,-33.0000,-29.6250,-0.5250,
9.495943,-0.0653,0.0110,-0.0331,-0.0027,-0.0082,-0.0074,-33.0000,-29.6250,-0.5250,
9.504144,-0.0653,0.0110,-0.0331,-0.0027,-0.0082,-0.0074,-33.0000,-29.6250,-0.5250,
9.513320,-0.0653,0.0110,-0.0331,-0.0065,-0.0412,-0.0085,-33.0000,-29.6250,-0.5250,
9.514253,0.0126,0.0206,-0.0191,-0.0065,-0.0412,-0.0085,-33.0000,-29.6250,-0.5250,
9.533754,-0.0062,0.0833,-0.1318,-0.0065,-0.0412,-0.0085,-33.0000,-29.6250,-0.5250,
9.541437,-0.0062,0.0833,-0.1318,-0.0065,-0.0412,-0.0085,-33.3938,-29.4938,-0.6188,
9.552138,-0.0062,0.0833,-0.1318,-0.0065,-0.0412,-0.0085,-33.3938,-29.4938,-0.6188,
9.553633,0.0617,0.0279,-0.0400,-0.0065,-0.0412,-0.0085,-33.3938,-29.4938,-0.6188,
9.571703,-0.2336,-0.0305,0.4074,-0.0065,-0.0412,-0.0085,-33.3938,-29.4938,-0.6188,
9.578652,-0.2336,-0.0305,0.4074,-0.0150,-0.0034,0.0671,-33.3938,-29.4938,-0.6188,
9.591018,0.1140,-0.0822,-0.1133,-0.0150,-0.0034,0.0671,-33.3938,-29.4938,-0.6188,
9.599535,0.1140,-0.0822,-0.1133,-0.0150,-0.0034,0.0671,-33.3938,-29.4938,-0.6188,
9.601043,0.1140,-0.0822,-0.1133,-0.0150,-0.0034,0.0671,-32.8125,-29.6063,-0.7500,
9.610545,0.2603,0.0923,-0.1262,-0.0150,-0.0034,0.0671,-32.8125,-29.6063,-0.7500,
9.629802,0.2501,-0.1158,-0.0954,-0.0150,-0.0034,0.0671,-32.8125,-29.6063,-0.7500,
9.638094,0.2501,-0.1158,-0.0954,-0.0125,0.0235,0.0036,-32.8125,-29.6063,-0.7500,
9.648416,0.2501,-0.1158,-0.0954,-0.0125,0.0235,0.0036,-32.8125,-29.6063,-0.7500,
9.650819,0.1825,-0.0411,0.0533,-0.0125,0.0235,0.0036,-32.8125,-29.6063,-0.7500,
9.661187,0.1825,-0.0411,0.0533,-0.0125,0.0235,0.0036,-33.3000,-29.4750,-0.9375,
9.667202,-0.0263,-0.0576,0.0422,-0.0125,0.0235,0.0036,-33.3000,-29.4750,-0.9375,
9.687308,-0.1112,0.0083,0.0604,-0.0125,0.0235,0.0036,-33.3000,-29.4750,-0.9375,
9.695565,-0.1112,0.0083,0.0604,-0.0125,0.0235,0.0036,-33.3000,-29.4750,-0.9375,
9.701340,-0.1112,0.0083,0.0604,0.0045,-0.0058,-0.0037,-33.3000,-29.4750,-0.9375,
9.705625,-0.1117,0.0114,0.0173,0.0045,-0.0058,-0.0037,-33.3000,-29.4750,-0.9375,
9.721197,-0.1117,0.0114,0.0173,0.0045,-0.0058,-0.0037,-32.8875,-29.8875,-1.0500,
9.725348,-0.0023,-0.0017,0.0491,0.0045,-0.0058,-0.0037,-32.8875,-29.8875,-1.0500,
9.743719,-0.0023,-0.0017,0.0491,0.0045,-0.0058,-0.0037,-32.8875,-29.8875,-1.0500,
9.746747,0.0193,0.0116,0.0052,0.0045,-0.0058,-0.0037,-32.8875,-29.8875,-1.0500,
9.762778,0.0193,0.0116,0.0052,-0.0003,-0.0180,-0.0012,-32.8875,-29.8875,-1.0500,
9.765728,0.0100,0.0057,-0.0458,-0.0003,-0.0180,-0.0012,-32.8875,-29.8875,-1.0500,
9.781299,0.0100,0.0057,-0.0458,-0.0003,-0.0180,-0.0012,-33.3000,-29.5125,-0.5250,
9.784319,0.0231,-0.0300,0.0293,-0.0003,-0.0180,-0.0012,-33.3000,-29.5125,-0.5250,
9.790849,0.0231,-0.0300,0.0293,-0.0003,-0.0180,-0.0012,-33.3000,-29.5125,-0.5250,
9.801396,0.0100,-0.0488,0.0493,-0.0003,-0.0180,-0.0012,-33.3000,-29.5125,-0.5250,
9.821098,-0.0237,-0.0131,0.0194,-0.0003,-0.0180,-0.0012,-33.3000,-29.5125,-0.5250,
9.824149,-0.0237,-0.0131,0.0194,0.0034,-0.0205,-0.0000,-33.3000,-29.5125,-0.5250,
9.839440,-0.0237,-0.0131,0.0194,0.0034,-0.0205,-0.0000,-33.3000,-29.5125,-0.5250,
9.842425,-0.0094,0.0240,0.0062,0.0034,-0.0205,-0.0000,-33.3000,-29.5125,-0.5250,
9.844236,-0.0094,0.0240,0.0062,0.0034,-0.0205,-0.0000,-33.2063,-29.4938,-0.8250,
9.858667,0.0074,-0.0271,0.0120,0.0034,-0.0205,-0.0000,-33.2063,-29.4938,-0.8250,
9.877842,0.0204,-0.0184,0.0207,0.0034,-0.0205,-0.0000,-33.2063,-29.4938,-0.8250,
9.887153,0.0204,-0.0184,0.0207,0.0034,-0.0205,-0.0000,-33.2063,-29.4938,-0.8250,
9.889442,0.0204,-0.0184,0.0207,0.0034,-0.0254,-0.0085,-33.2063,-29.4938,-0.8250,
9.897108,0.0018,-0.0123,0.0294,0.0034,-0.0254,-0.0085,-33.2063,-29.4938,-0.8250,
9.902045,0.0018,-0.0123,0.0294,0.0034,-0.0254,-0.0085,-33.3000,-29.5875,-0.7313,
9.916355,-0.0095,-0.0047,0.0165,0.0034,-0.0254,-0.0085,-33.3000,-29.5875,-0.7313,
9.934642,-0.0095,-0.0047,0.0165,0.0034,-0.0254,-0.0085,-33.3000,-29.5875,-0.7313,
9.938940,0.0093,0.0263,0.0128,0.0034,-0.0254,-0.0085,-33.3000,-29.5875,-0.7313,
9.948854,0.0093,0.0263,0.0128,0.0034,-0.0144,-0.0195,-33.3000,-29.5875,-0.7313,
9.956279,-0.0503,0.0239,-0.0269,0.0034,-0.0144,-0.0195,-33.3000,-29.5875,-0.7313,
9.960018,-0.0503,0.0239,-0.0269,0.0034,-0.0144,-0.0195,-32.7000,-29.7188,-0.7500,
9.973703,-0.0302,-0.0057,0.0027,0.0034,-0.0144,-0.0195,-32.7000,-29.7188,-0.7500,
9.982565,-0.0302,-0.0057,0.0027,0.0034,-0.0144,-0.0195,-32.7000,-29.7188,-0.7500,
9.992476,-0.0338,-0.0265,0.0444,0.0034,-0.0144,-0.0195,-32.7000,-29.7188,-0.7500,
10.010195,-0.0338,-0.0265,0.0444,0.0010,-0.0144,-0.0000,-32.7000,-29.7188,-0.7500,
10.013491,-0.0469,-0.0263,0.0285,0.0010,-0.0144,-0.0000,-32.7000,-29.7188,-0.7500,
10.022441,-0.0469,-0.0263,0.0285,0.0010,-0.0144,-0.0000,-32.9062,-29.7000,-0.7313,
10.030489,-0.0469,-0.0263,0.0285,0.0010,-0.0144,-0.0000,-32.9062,-29.7000,-0.7313,
10.031929,0.0074,-0.0071,0.0443,0.0010,-0.0144,-0.0000,-32.9062,-29.7000,-0.7313,
10.050232,-0.0522,-0.0147,-0.0240,0.0010,-0.0144,-0.0000,-32.9062,-29.7000,-0.7313,
10.069612,0.0100,-0.0428,0.0287,0.0010,-0.0144,-0.0000,-32.9062,-29.7000,-0.7313,
10.073008,0.0100,-0.0428,0.0287,-0.0040,0.0137,0.0073,-32.9062,-29.7000,-0.7313,
10.078460,0.0100,-0.0428,0.0287,-0.0040,0.0137,0.0073,-32.9062,-29.7000,-0.7313,
10.081105,0.0100,-0.0428,0.0287,-0.0040,0.0137,0.0073,-33.0188,-29.4375,-0.3188,
10.090296,-0.0042,-0.0467,0.0503,-0.0040,0.0137,0.0073,-33.0188,-29.4375,-0.3188,
10.107456,-0.0849,-0.0091,-0.0236,-0.0040,0.0137,0.0073,-33.0188,-29.4375,-0.3188,
10.125527,-0.0849,-0.0091,-0.0236,-0.0040,0.0137,0.0073,-33.0188,-29.4375,-0.3188,
10.128440,-0.0309,-0.0068,0.0365,-0.0040,0.0137,0.0073,-33.0188,-29.4375,-0.3188,
10.135098,-0.0309,-0.0068,0.0365,0.0010,0.0076,0.0023,-33.0188,-29.4375,-0.3188,
10.141253,-0.0309,-0.0068,0.0365,0.0010,0.0076,0.0023,-33.0188,-29.4375,-0.3188,
10.145370,-0.0357,0.0047,0.0533,0.0010,0.0076,0.0023,-33.0188,-29.4375,-0.3188,
10.164704,-0.0322,-0.0032,0.0368,0.0010,0.0076,0.0023,-33.0188,-29.4375,-0.3188,
10.173201,-0.0322,-0.0032,0.0368,0.0010,0.0076,0.0023,-33.0188,-29.4375,-0.3188,
10.183270,-0.0755,0.0151,0.0063,0.0010,0.0076,0.0023,-33.0188,-29.4375,-0.3188,
10.197321,-0.0755,0.0151,0.0063,0.0010,-0.0045,0.0060,-33.0188,-29.4375,-0.3188,
10.201157,-0.0755,0.0151,0.0063,0.0010,-0.0045,0.0060,-32.6063,-29.8313,-0.4313,
10.203256,-0.0559,0.0076,0.0043,0.0010,-0.0045,0.0060,-32.6063,-29.8313,-0.4313,
10.221565,-0.0559,0.0076,0.0043,0.0010,-0.0045,0.0060,-32.6063,-29.8313,-0.4313,
10.224476,0.0065,0.0052,0.0528,0.0010,-0.0045,0.0060,-32.6063,-29.8313,-0.4313,
10.242008,-0.0515,-0.0284,-0.0016,0.0010,-0.0045,0.0060,-32.6063,-29.8313,-0.4313,
10.259546,-0.0515,-0.0284,-0.0016,-0.0003,-0.0022,0.0023,-32.6063,-29.8313,-0.4313,
10.262827,-0.0298,-0.0446,-0.0033,-0.0003,-0.0022,0.0023,-32.6063,-29.8313,-0.4313,
10.265167,-0.0298,-0.0446,-0.0033,-0.0003,-0.0022,0.0023,-33.4875,-29.8125,-0.4125,
10.268180,-0.0298,-0.0446,-0.0033,-0.0003,-0.0022,0.0023,-33.4875,-29.8125,-0.4125,
10.278779,-0.0374,-0.0275,0.0303,-0.0003,-0.0022,0.0023,-33.4875,-29.8125,-0.4125,
10.298282,-0.0298,0.0010,0.0374,-0.0003,-0.0022,0.0023,-33.4875,-29.8125,-0.4125,
10.317384,-0.0298,0.0010,0.0374,-0.0003,-0.0022,0.0023,-33.4875,-29.8125,-0.4125,
10.320254,-0.0727,0.0310,0.0420,-0.0003,-0.0022,0.0023,-33.4875,-29.8125,-0.4125,
10.321920,-0.0727,0.0310,0.0420,-0.0003,-0.0022,0.0023,-32.8125,-29.7188,-0.4313,
10.322917,-0.0727,0.0310,0.0420,-0.0003,0.0003,0.0012,-32.8125,-29.7188,-0.4313,
10.336470,0.0114,0.0422,0.0473,-0.0003,0.0003,0.0012,-32.8125,-29.7188,-0.4313,
10.355550,0.0248,-0.0115,0.0654,-0.0003,0.0003,0.0012,-32.8125,-29.7188,-0.4313,
10.365198,0.0248,-0.0115,0.0654,-0.0003,0.0003,0.0012,-32.8125,-29.7188,-0.4313,
10.375234,-0.0487,-0.0376,0.0269,-0.0003,0.0003,0.0012,-32.8125,-29.7188,-0.4313,
10.381699,-0.0487,-0.0376,0.0269,-0.0003,0.0003,0.0012,-32.7188,-29.4375,-0.4313,
10.383935,-0.0487,-0.0376,0.0269,0.0058,-0.0290,-0.0404,-32.7188,-29.4375,-0.4313,
10.394154,-0.0242,-0.0142,0.0092,0.0058,-0.0290,-0.0404,-32.7188,-29.4375,-0.4313,
10.413425,-0.0242,-0.0142,0.0092,0.0058,-0.0290,-0.0404,-32.7188,-29.4375,-0.4313,
10.417051,-0.1240,-0.0046,0.0244,0.0058,-0.0290,-0.0404,-32.7188,-29.4375,-0.4313,
10.432417,-0.0427,-0.0402,0.0034,0.0058,-0.0290,-0.0404,-32.7188,-29.4375,-0.4313,
10.442185,-0.0427,-0.0402,0.0034,0.0058,-0.0290,-0.0404,-32.6063,-30.0188,-0.5438,
10.448197,-0.0427,-0.0402,0.0034,0.0045,-0.0132,-0.0184,-32.6063,-30.0188,-0.5438,
10.451349,-0.0933,0.0129,0.0303,0.0045,-0.0132,-0.0184,-32.6063,-30.0188,-0.5438,
10.459718,-0.0933,0.0129,0.0303,0.0045,-0.0132,-0.0184,-32.6063,-30.0188,-0.5438,
10.470631,-0.0832,-0.0226,0.0672,0.0045,-0.0132,-0.0184,-32.6063,-30.0188,-0.5438,
10.490293,-0.1598,-0.0008,0.0132,0.0045,-0.0132,-0.0184,-32.6063,-30.0188,-0.5438,
10.501250,-0.1598,-0.0008,0.0132,0.0045,-0.0132,-0.0184,-32.6063,-29.9438,-0.1313,
10.507565,-0.1598,-0.0008,0.0132,0.0045,-0.0132,-0.0184,-32.6063,-29.9438,-0.1313,
10.508361,-0.1598,-0.0008,0.0132,0.0070,-0.0022,0.0073,-32.6063,-29.9438,-0.1313,
10.509245,-0.0685,-0.0261,0.0448,0.0070,-0.0022,0.0073,-32.6063,-29.9438,-0.1313,
10.527959,-0.0103,-0.0100,-0.0362,0.0070,-0.0022,0.0073,-32.6063,-29.9438,-0.1313,
10.547101,-0.0489,0.0001,0.0214,0.0070,-0.0022,0.0073,-32.6063,-29.9438,-0.1313,
10.556311,-0.0489,0.0001,0.0214,0.0070,-0.0022,0.0073,-32.6063,-29.9438,-0.1313,
10.562138,-0.0489,0.0001,0.0214,0.0070,-0.0022,0.0073,-32.9062,-29.9438,-0.1125,
10.568557,-0.0700,-0.0305,0.0189,0.0070,-0.0022,0.0073,-32.9062,-29.9438,-0.1125,
10.570537,-0.0700,-0.0305,0.0189,0.0010,0.0027,0.0073,-32.9062,-29.9438,-0.1125,
10.585106,-0.0550,-0.0036,0.0116,0.0010,0.0027,0.0073,-32.9062,-29.9438,-0.1125,
10.604171,-0.0550,-0.0036,0.0116,0.0010,0.0027,0.0073,-32.9062,-29.9438,-0.1125,
10.607385,-0.0417,-0.0052,0.0232,0.0010,0.0027,0.0073,-32.9062,-29.9438,-0.1125,
10.621077,-0.0417,-0.0052,0.0232,0.0010,0.0027,0.0073,-32.6063,-30.1500,-0.0188,
10.623706,-0.0520,-0.0097,0.0109,0.0010,0.0027,0.0073,-32.6063,-30.1500,-0.0188,
10.633097,-0.0520,-0.0097,0.0109,0.0010,0.0137,0.0098,-32.6063,-30.1500,-0.0188,
10.644397,-0.0528,-0.0093,0.0105,0.0010,0.0137,0.0098,-32.6063,-30.1500,-0.0188,
10.651826,-0.0528,-0.0093,0.0105,0.0010,0.0137,0.0098,-32.6063,-30.1500,-0.0188,
10.661537,-0.0699,-0.0230,0.0196,0.0010,0.0137,0.0098,-32.6063,-30.1500,-0.0188,
10.681230,-0.1778,-0.0215,0.0598,0.0010,0.0137,0.0098,-32.6063,-30.1500,-0.0188,
10.684073,-0.1778,-0.0215,0.0598,0.0010,0.0137,0.0098,-32.4188,-29.9625,-0.0375,
10.694358,-0.1778,-0.0215,0.0598,-0.0003,-0.0560,0.0293,-32.4188,-29.9625,-0.0375,
10.700066,-0.1778,-0.0215,0.0598,-0.0003,-0.0560,0.0293,-32.4188,-29.9625,-0.0375,
10.701463,-0.2172,0.0254,0.0470,-0.0003,-0.0560,0.0293,-32.4188,-29.9625,-0.0375,
10.720412,-0.1588,0.0331,-0.0637,-0.0003,-0.0560,0.0293,-32.4188,-29.9625,-0.0375,
10.738720,-0.1783,0.0440,0.1385,-0.0003,-0.0560,0.0293,-32.4188,-29.9625,-0.0375,
10.741746,-0.1783,0.0440,0.1385,-0.0003,-0.0560,0.0293,-32.9062,-29.8313,-0.3188,
10.746060,-0.1783,0.0440,0.1385,-0.0003,-0.0560,0.0293,-32.9062,-29.8313,-0.3188,
10.755845,-0.1783,0.0440,0.1385,-0.0003,-0.0815,0.0671,-32.9062,-29.8313,-0.3188,
10.757366,0.0456,-0.0054,0.0590,-0.0003,-0.0815,0.0671,-32.9062,-29.8313,-0.3188,
10.775877,0.1310,-0.0812,0.0176,-0.0003,-0.0815,0.0671,-32.9062,-29.8313,-0.3188,
10.794667,0.1310,-0.0812,0.0176,-0.0003,-0.0815,0.0671,-32.9062,-29.8313,-0.3188,
10.795986,0.1472,-0.0739,-0.0028,-0.0003,-0.0815,0.0671,-32.9062,-29.8313,-0.3188,
10.801751,0.1472,-0.0739,-0.0028,-0.0003,-0.0815,0.0671,-32.7188,-29.4563,-0.1125,
10.815083,0.0677,-0.0303,-0.0451,-0.0003,-0.0815,0.0671,-32.7188,-29.4563,-0.1125,
10.818879,0.0677,-0.0303,-0.0451,0.0010,0.0308,0.0060,-32.7188,-29.4563,-0.1125,
10.834081,-0.0325,0.0081,-0.0058,0.0010,0.0308,0.0060,-32.7188,-29.4563,-0.1125,
10.842572,-0.0325,0.0081,-0.0058,0.0010,0.0308,0.0060,-32.7188,-29.4563,-0.1125,
10.853829,-0.0968,-0.0012,0.0329,0.0010,0.0308,0.0060,-32.7188,-29.4563,-0.1125,
10.861148,-0.0968,-0.0012,0.0329,0.0010,0.0308,0.0060,-32.9062,-29.8313,-0.2250,
10.873159,-0.1274,-0.0320,0.0740,0.0010,0.0308,0.0060,-32.9062,-29.8313,-0.2250,
10.881138,-0.1274,-0.0320,0.0740,-0.0015,0.0283,-0.0049,-32.9062,-29.8313,-0.2250,
10.889961,-0.1274,-0.0320,0.0740,-0.0015,0.0283,-0.0049,-32.9062,-29.8313,-0.2250,
10.891277,-0.1104,-0.0271,0.0847,-0.0015,0.0283,-0.0049,-32.9062,-29.8313,-0.2250,
10.911007,-0.0957,-0.0157,0.0462,-0.0015,0.0283,-0.0049,-32.9062,-29.8313,-0.2250,
10.920603,-0.0957,-0.0157,0.0462,-0.0015,0.0283,-0.0049,-33.5063,-29.4375,0.2063,
10.929883,-0.0303,-0.0258,-0.0276,-0.0015,0.0283,-0.0049,-33.5063,-29.4375,0.2063,
10.938711,-0.0303,-0.0258,-0.0276,-0.0015,0.0283,-0.0049,-33.5063,-29.4375,0.2063,
10.945455,-0.0303,-0.0258,-0.0276,-0.0003,0.0150,-0.0025,-33.5063,-29.4375,0.2063,
10.948160,-0.0130,0.0193,0.0154,-0.0003,0.0150,-0.0025,-33.5063,-29.4375,0.2063,
10.967476,-0.0533,0.0089,0.0313,-0.0003,0.0150,-0.0025,-33.5063,-29.4375,0.2063,
10.981376,-0.0533,0.0089,0.0313,-0.0003,0.0150,-0.0025,-33.0188,-29.4375,-0.1125,
10.986195,-0.0533,0.0089,0.0313,-0.0003,0.0150,-0.0025,-33.0188,-29.4375,-0.1125,
10.988207,-0.1307,0.0086,0.0374,-0.0003,0.0150,-0.0025,-33.0188,-29.4375,-0.1125,
11.004949,-0.1307,0.0086,0.0374,-0.0027,0.0150,0.0023,-33.0188,-29.4375,-0.1125,
11.006263,-0.1216,-0.0174,0.0722,-0.0027,0.0150,0.0023,-33.0188,-29.4375,-0.1125,
11.025362,-0.0944,-0.0263,0.0625,-0.0027,0.0150,0.0023,-33.0188,-29.4375,-0.1125,
11.035302,-0.0944,-0.0263,0.0625,-0.0027,0.0150,0.0023,-33.0188,-29.4375,-0.1125,
11.041040,-0.0944,-0.0263,0.0625,-0.0027,0.0150,0.0023,-33.3938,-29.8125,-0.3188,
11.043826,-0.0866,0.0020,0.0366,-0.0027,0.0150,0.0023,-33.3938,-29.8125,-0.3188,
11.064039,-0.0534,-0.0198,-0.0130,-0.0027,0.0150,0.0023,-33.3938,-29.8125,-0.3188,
11.067532,-0.0534,-0.0198,-0.0130,-0.0003,-0.0058,0.0048,-33.3938,-29.8125,-0.3188,
11.081997,-0.0534,-0.0198,-0.0130,-0.0003,-0.0058,0.0048,-33.3938,-29.8125,-0.3188,
11.085214,-0.0232,-0.0428,0.0232,-0.0003,-0.0058,0.0048,-33.3938,-29.8125,-0.3188,
11.101258,-0.0432,-0.0333,0.0372,-0.0003,-0.0058,0.0048,-33.3938,-29.8125,-0.3188,
11.102514,-0.0432,-0.0333,0.0372,-0.0003,-0.0058,0.0048,-33.6938,-29.6438,0.2250,
11.120661,-0.0773,-0.0481,0.0151,-0.0003,-0.0058,0.0048,-33.6938,-29.6438,0.2250,
11.129555,-0.0773,-0.0481,0.0151,-0.0003,-0.0058,0.0048,-33.6938,-29.6438,0.2250,
11.131538,-0.0773,-0.0481,0.0151,-0.0015,0.0100,-0.0037,-33.6938,-29.6438,0.2250,
11.140269,-0.1256,-0.0192,0.0889,-0.0015,0.0100,-0.0037,-33.6938,-29.6438,0.2250,
11.159117,-0.1367,-0.0385,0.0551,-0.0015,0.0100,-0.0037,-33.6938,-29.6438,0.2250,
11.162532,-0.1367,-0.0385,0.0551,-0.0015,0.0100,-0.0037,-33.3938,-29.6250,-0.3000,
11.178249,-0.1367,-0.0385,0.0551,-0.0015,0.0100,-0.0037,-33.3938,-29.6250,-0.3000,
11.181342,-0.0888,0.0085,0.0461,-0.0015,0.0100,-0.0037,-33.3938,-29.6250,-0.3000,
11.191783,-0.0888,0.0085,0.0461,0.0033,-0.0242,-0.0025,-33.3938,-29.6250,-0.3000,
11.197713,-0.0387,0.0333,0.0090,0.0033,-0.0242,-0.0025,-33.3938,-29.6250,-0.3000,
11.217766,-0.0004,0.0155,0.0030,0.0033,-0.0242,-0.0025,-33.3938,-29.6250,-0.3000,
11.222206,-0.0004,0.0155,0.0030,0.0033,-0.0242,-0.0025,-31.5375,-29.3813,-1.9125,
11.227494,-0.0004,0.0155,0.0030,0.0033,-0.0242,-0.0025,-31.5375,-29.3813,-1.9125,
11.236534,-0.0877,-0.0270,-0.0015,0.0033,-0.0242,-0.0025,-31.5375,-29.3813,-1.9125,
11.254064,-0.0877,-0.0270,-0.0015,-0.0015,-0.0034,0.0023,-31.5375,-29.3813,-1.9125,
11.255434,-0.1513,-0.0242,0.0557,-0.0015,-0.0034,0.0023,-31.5375,-29.3813,-1.9125,
11.273493,-0.1513,-0.0242,0.0557,-0.0015,-0.0034,0.0023,-31.5375,-29.3813,-1.9125,
11.276286,-0.0941,-0.0046,0.0565,-0.0015,-0.0034,0.0023,-31.5375,-29.3813,-1.9125,
11.281663,-0.0941,-0.0046,0.0565,-0.0015,-0.0034,0.0023,-32.7938,-29.7750,-1.4625,
11.292660,-0.0352,0.0072,-0.0043,-0.0015,-0.0034,0.0023,-32.7938,-29.7750,-1.4625,
11.312246,-0.0241,0.0217,-0.0226,-0.0015,-0.0034,0.0023,-32.7938,-29.7750,-1.4625,
11.316136,-0.0241,0.0217,-0.0226,-0.0052,0.0137,0.0036,-32.7938,-29.7750,-1.4625,
11.320103,-0.0241,0.0217,-0.0226,-0.0052,0.0137,0.0036,-32.7938,-29.7750,-1.4625,
11.331307,-0.0835,-0.0037,0.0492,-0.0052,0.0137,0.0036,-32.7938,-29.7750,-1.4625,
11.341323,-0.0835,-0.0037,0.0492,-0.0052,0.0137,0.0036,-32.9250,-29.4188,-0.6375,
11.350485,-0.1271,-0.0408,0.0662,-0.0052,0.0137,0.0036,-32.9250,-29.4188,-0.6375,
11.368216,-0.1271,-0.0408,0.0662,-0.0052,0.0137,0.0036,-32.9250,-29.4188,-0.6375,
11.369746,-0.1591,-0.0474,0.0592,-0.0052,0.0137,0.0036,-32.9250,-29.4188,-0.6375,
11.379446,-0.1591,-0.0474,0.0592,-0.0015,-0.0217,0.0036,-32.9250,-29.4188,-0.6375,
11.389162,-0.1165,-0.0984,0.0919,-0.0015,-0.0217,0.0036,-32.9250,-29.4188,-0.6375,
11.401547,-0.1165,-0.0984,0.0919,-0.0015,-0.0217,0.0036,-32.8313,-29.4375,-0.2250,
11.408396,-0.1006,-0.1072,0.0126,-0.0015,-0.0217,0.0036,-32.8313,-29.4375,-0.2250,
11.417364,-0.1006,-0.1072,0.0126,-0.0015,-0.0217,0.0036,-32.8313,-29.4375,-0.2250,
11.425983,-0.0482,-0.0598,-0.0189,-0.0015,-0.0217,0.0036,-32.8313,-29.4375,-0.2250,
11.440526,-0.0482,-0.0598,-0.0189,0.0082,-0.0095,-0.0000,-32.8313,-29.4375,-0.2250,
11.445994,-0.0034,0.0179,-0.0176,0.0082,-0.0095,-0.0000,-32.8313,-29.4375,-0.2250,
11.461333,-0.0034,0.0179,-0.0176,0.0082,-0.0095,-0.0000,-32.8125,-29.8500,0.0938,
11.464567,-0.0034,0.0179,-0.0176,0.0082,-0.0095,-0.0000,-32.8125,-29.8500,0.0938,
11.465481,-0.0638,0.0424,0.0071,0.0082,-0.0095,-0.0000,-32.8125,-29.8500,0.0938,
11.485499,-0.1436,0.0926,0.0311,0.0082,-0.0095,-0.0000,-32.8125,-29.8500,0.0938,
11.503462,-0.1436,0.0926,0.0311,-0.0052,-0.0168,-0.0001,-32.8125,-29.8500,0.0938,
11.506826,-0.1694,0.0509,0.1105,-0.0052,-0.0168,-0.0001,-32.8125,-29.8500,0.0938,
11.512290,-0.1694,0.0509,0.1105,-0.0052,-0.0168,-0.0001,-32.8125,-29.8500,0.0938,
11.521381,-0.1694,0.0509,0.1105,-0.0052,-0.0168,-0.0001,-33.2063,-29.7375,-0.1125,
11.522301,-0.1686,-0.0348,0.1027,-0.0052,-0.0168,-0.0001,-33.2063,-29.7375,-0.1125,
11.541723,-0.1245,-0.0811,0.0620,-0.0052,-0.0168,-0.0001,-33.2063,-29.7375,-0.1125,
11.560243,-0.1245,-0.0811,0.0620,-0.0052,-0.0168,-0.0001,-33.2063,-29.7375,-0.1125,
11.563392,-0.0717,-0.0726,0.0814,-0.0052,-0.0168,-0.0001,-33.2063,-29.7375,-0.1125,
11.566137,-0.0717,-0.0726,0.0814,0.0070,-0.0400,-0.0099,-33.2063,-29.7375,-0.1125,
11.579598,-0.1060,-0.0736,-0.0770,0.0070,-0.0400,-0.0099,-33.2063,-29.7375,-0.1125,
11.581623,-0.1060,-0.0736,-0.0770,0.0070,-0.0400,-0.0099,-32.9062,-29.6250,-0.5250,
11.599135,-0.0611,-0.0351,-0.0235,0.0070,-0.0400,-0.0099,-32.9062,-29.6250,-0.5250,
11.608122,-0.0611,-0.0351,-0.0235,0.0070,-0.0400,-0.0099,-32.9062,-29.6250,-0.5250,
11.618827,-0.0621,-0.0461,0.0864,0.0070,-0.0400,-0.0099,-32.9062,-29.6250,-0.5250,
11.626855,-0.0621,-0.0461,0.0864,0.0082,-0.0132,-0.0012,-32.9062,-29.6250,-0.5250,
11.637466,-0.1380,0.0785,0.0621,0.0082,-0.0132,-0.0012,-32.9062,-29.6250,-0.5250,
11.640486,-0.1380,0.0785,0.0621,0.0082,-0.0132,-0.0012,-32.7188,-29.6250,-0.5438,
11.655686,-0.1380,0.0785,0.0621,0.0082,-0.0132,-0.0012,-32.7188,-29.6250,-0.5438,
11.657922,-0.1172,0.1108,-0.0265,0.0082,-0.0132,-0.0012,-32.7188,-29.6250,-0.5438,
11.676719,-0.0990,0.1402,-0.0000,0.0082,-0.0132,-0.0012,-32.7188,-29.6250,-0.5438,
11.690220,-0.0990,0.1402,-0.0000,-0.0077,-0.0192,0.0073,-32.7188,-29.6250,-0.5438,
11.695169,-0.0470,0.0066,0.0744,-0.0077,-0.0192,0.0073,-32.7188,-29.6250,-0.5438,
11.701886,-0.0470,0.0066,0.0744,-0.0077,-0.0192,0.0073,-31.4250,-29.7000,-1.5188,
11.705268,-0.0470,0.0066,0.0744,-0.0077,-0.0192,0.0073,-31.4250,-29.7000,-1.5188,
11.713307,-0.0813,-0.1313,0.0245,-0.0077,-0.0192,0.0073,-31.4250,-29.7000,-1.5188,
11.733645,-0.1993,-0.2079,0.0189,-0.0077,-0.0192,0.0073,-31.4250,-29.7000,-1.5188,
11.751329,-0.1993,-0.2079,0.0189,-0.0077,-0.0192,0.0073,-31.4250,-29.7000,-1.5188,
11.754339,-0.1993,-0.2079,0.0189,-0.0040,-0.0230,-0.0062,-31.4250,-29.7000,-1.5188,
11.756326,-0.2723,-0.1160,0.1947,-0.0040,-0.0230,-0.0062,-31.4250,-29.7000,-1.5188,
11.762362,-0.2723,-0.1160,0.1947,-0.0040,-0.0230,-0.0062,-32.8125,-29.9813,0.5063,
11.777296,-0.1066,-0.0485,0.1996,-0.0040,-0.0230,-0.0062,-32.8125,-29.9813,0.5063,
11.790997,0.1104,-0.0649,-0.1200,-0.0040,-0.0230,-0.0062,-32.8125,-29.9813,0.5063,
11.799197,0.1104,-0.0649,-0.1200,-0.0040,-0.0230,-0.0062,-32.8125,-29.9813,0.5063,
11.809586,0.1899,-0.0186,-0.1642,-0.0040,-0.0230,-0.0062,-32.8125,-29.9813,0.5063,
11.813753,0.1899,-0.0186,-0.1642,0.0058,-0.0047,0.0060,-32.8125,-29.9813,0.5063,
11.824275,0.1899,-0.0186,-0.1642,0.0058,-0.0047,0.0060,-32.8313,-29.4563,-0.0188,
11.828928,0.1024,0.0694,-0.0544,0.0058,-0.0047,0.0060,-32.8313,-29.4563,-0.0188,
11.847279,0.1024,0.0694,-0.0544,0.0058,-0.0047,0.0060,-32.8313,-29.4563,-0.0188,
11.850203,-0.0054,0.1765,-0.0955,0.0058,-0.0047,0.0060,-32.8313,-29.4563,-0.0188,
11.867928,0.0611,0.3050,-0.3498,0.0058,-0.0047,0.0060,-32.8313,-29.4563,-0.0188,
11.874907,0.0611,0.3050,-0.3498,-0.0406,0.2263,0.0183,-32.8313,-29.4563,-0.0188,
11.881376,0.0611,0.3050,-0.3498,-0.0406,0.2263,0.0183,-32.6063,-29.7188,-0.6375,
11.885285,-0.0093,0.1870,0.0389,-0.0406,0.2263,0.0183,-32.6063,-29.7188,-0.6375,
11.894638,-0.0093,0.1870,0.0389,-0.0406,0.2263,0.0183,-32.6063,-29.7188,-0.6375,
11.905429,-0.1223,-0.2432,0.1397,-0.0406,0.2263,0.0183,-32.6063,-29.7188,-0.6375,
11.924458,-0.3983,-0.2579,0.2772,-0.0406,0.2263,0.0183,-32.6063,-29.7188,-0.6375,
11.937818,-0.3983,-0.2579,0.2772,0.0070,0.0711,0.0098,-32.6063,-29.7188,-0.6375,
11.942354,-0.3983,-0.2579,0.2772,0.0070,0.0711,0.0098,-33.2812,-29.7938,-0.6188,
11.944532,-0.3983,-0.2579,0.2772,0.0070,0.0711,0.0098,-33.2812,-29.7938,-0.6188,
11.946264,-0.2538,-0.1255,0.3645,0.0070,0.0711,0.0098,-33.2812,-29.7938,-0.6188,
11.962117,-0.0785,-0.0260,0.1486,0.0070,0.0711,0.0098,-33.2812,-29.7938,-0.6188,
11.981928,0.0359,-0.0485,-0.0884,0.0070,0.0711,0.0098,-33.2812,-29.7938,-0.6188,
11.990961,0.0359,-0.0485,-0.0884,0.0070,0.0711,0.0098,-33.2812,-29.7938,-0.6188,
12.001122,0.0359,-0.0485,-0.0884,0.0169,-0.0032,-0.0038,-33.2812,-29.7938,-0.6188,
12.002395,0.0321,0.0365,-0.1092,0.0169,-0.0032,-0.0038,-33.2812,-29.7938,-0.6188,
12.003311,0.0321,0.0365,-0.1092,0.0169,-0.0032,-0.0038,-32.6250,-29.3250,-0.6375,
12.020198,-0.0198,0.0932,-0.0193,0.0169,-0.0032,-0.0038,-32.6250,-29.3250,-0.6375,
12.038129,-0.0198,0.0932,-0.0193,0.0169,-0.0032,-0.0038,-32.6250,-29.3250,-0.6375,
12.041242,-0.0624,0.1639,0.0127,0.0169,-0.0032,-0.0038,-32.6250,-29.3250,-0.6375,
12.057880,-0.0800,0.1799,0.0282,0.0169,-0.0032,-0.0038,-32.6250,-29.3250,-0.6375,
12.060532,-0.0800,0.1799,0.0282,0.0169,-0.0032,-0.0038,-33.0188,-29.5313,-0.1125,
12.061456,-0.0800,0.1799,0.0282,-0.0088,0.0054,0.0011,-33.0188,-29.5313,-0.1125,
12.077634,-0.0391,0.0672,0.0731,-0.0088,0.0054,0.0011,-33.0188,-29.5313,-0.1125,
12.086301,-0.0391,0.0672,0.0731,-0.0088,0.0054,0.0011,-33.0188,-29.5313,-0.1125,
12.097269,-0.0325,-0.1945,-0.0133,-0.0088,0.0054,0.0011,-33.0188,-29.5313,-0.1125,
12.115432,-0.1371,-0.1681,0.0424,-0.0088,0.0054,0.0011,-33.0188,-29.5313,-0.1125,
12.121258,-0.1371,-0.1681,0.0424,-0.0088,0.0054,0.0011,-32.5312,-29.4188,-0.7500,
12.132133,-0.1371,-0.1681,0.0424,0.0047,0.0286,0.0071,-32.5312,-29.4188,-0.7500,
12.133998,-0.1371,-0.1681,0.0424,0.0047,0.0286,0.0071,-32.5312,-29.4188,-0.7500,
12.134862,-0.0720,-0.0264,0.1722,0.0047,0.0286,0.0071,-32.5312,-29.4188,-0.7500,
12.154018,-0.0031,-0.0209,0.0585,0.0047,0.0286,0.0071,-32.5312,-29.4188,-0.7500,
12.173205,0.0316,-0.0656,-0.1256,0.0047,0.0286,0.0071,-32.5312,-29.4188,-0.7500,
12.180636,0.0316,-0.0656,-0.1256,0.0047,0.0286,0.0071,-31.9125,-29.8500,-2.2313,
12.182126,0.0316,-0.0656,-0.1256,0.0047,0.0286,0.0071,-31.9125,-29.8500,-2.2313,
12.186533,0.0316,-0.0656,-0.1256,0.0082,-0.0093,-0.0038,-31.9125,-29.8500,-2.2313,
12.192181,-0.0210,0.0240,-0.0389,0.0082,-0.0093,-0.0038,-31.9125,-29.8500,-2.2313,
12.211454,-0.0321,0.0537,0.0661,0.0082,-0.0093,-0.0038,-31.9125,-29.8500,-2.2313,
12.229305,-0.0321,0.0537,0.0661,0.0082,-0.0093,-0.0038,-31.9125,-29.8500,-2.2313,
12.231697,0.1110,0.1011,-0.0620,0.0082,-0.0093,-0.0038,-31.9125,-29.8500,-2.2313,
12.241329,0.1110,0.1011,-0.0620,0.0082,-0.0093,-0.0038,-32.6063,-29.9250,-0.6375,
12.248484,0.1110,0.1011,-0.0620,-0.0173,-0.0166,-0.0612,-32.6063,-29.9250,-0.6375,
12.252079,0.1651,0.1202,-0.0337,-0.0173,-0.0166,-0.0612,-32.6063,-29.9250,-0.6375,
12.268814,-0.1070,0.0413,0.0313,-0.0173,-0.0166,-0.0612,-32.6063,-29.9250,-0.6375,
12.277172,-0.1070,0.0413,0.0313,-0.0173,-0.0166,-0.0612,-32.6063,-29.9250,-0.6375,
12.287916,-0.0886,-0.0301,-0.0126,-0.0173,-0.0166,-0.0612,-32.6063,-29.9250,-0.6375,
12.302869,-0.0886,-0.0301,-0.0126,-0.0173,-0.0166,-0.0612,-32.8125,-29.5313,-0.5250,
12.306750,-0.1053,-0.0824,0.0306,-0.0173,-0.0166,-0.0612,-32.8125,-29.5313,-0.5250,
12.311503,-0.1053,-0.0824,0.0306,-0.0125,0.0494,-0.0331,-32.8125,-29.5313,-0.5250,
12.325367,-0.1053,-0.0824,0.0306,-0.0125,0.0494,-0.0331,-32.8125,-29.5313,-0.5250,
12.328479,-0.1969,-0.2358,-0.0079,-0.0125,0.0494,-0.0331,-32.8125,-29.5313,-0.5250,
12.344644,-0.1299,0.0396,0.2099,-0.0125,0.0494,-0.0331,-32.8125,-29.5313,-0.5250,
12.361534,-0.1299,0.0396,0.2099,-0.0125,0.0494,-0.0331,-32.7188,-29.5313,-0.3375,
12.364639,-0.0347,-0.0036,0.0830,-0.0125,0.0494,-0.0331,-32.7188,-29.5313,-0.3375,
12.373199,-0.0347,-0.0036,0.0830,-0.0125,0.0494,-0.0331,-32.7188,-29.5313,-0.3375,
12.374684,-0.0347,-0.0036,0.0830,0.0180,-0.0619,0.0206,-32.7188,-29.5313,-0.3375,
12.383487,0.0967,-0.0150,-0.0917,0.0180,-0.0619,0.0206,-32.7188,-29.5313,-0.3375,
12.402687,0.0206,0.0336,-0.0890,0.0180,-0.0619,0.0206,-32.7188,-29.5313,-0.3375,
12.420921,0.0206,0.0336,-0.0890,0.0180,-0.0619,0.0206,-32.7188,-29.5313,-0.3375,
12.423782,-0.1192,0.1200,0.0458,0.0180,-0.0619,0.0206,-32.7188,-29.5313,-0.3375,
12.426097,-0.1192,0.1200,0.0458,0.0180,-0.0619,0.0206,-33.1875,-30.0188,-0.2063,
12.434990,-0.1192,0.1200,0.0458,0.0022,-0.0216,0.0133,-33.1875,-30.0188,-0.2063,
12.440376,-0.1158,0.1416,0.0597,0.0022,-0.0216,0.0133,-33.1875,-30.0188,-0.2063,
12.459462,-0.0049,0.1466,0.0157,0.0022,-0.0216,0.0133,-33.1875,-30.0188,-0.2063,
12.468249,-0.0049,0.1466,0.0157,0.0022,-0.0216,0.0133,-33.1875,-30.0188,-0.2063,
12.480324,0.0767,0.0442,-0.0399,0.0022,-0.0216,0.0133,-33.1875,-30.0188,-0.2063,
12.485185,0.0767,0.0442,-0.0399,0.0022,-0.0216,0.0133,-31.9313,-30.0375,1.2000,
12.497240,0.0767,0.0442,-0.0399,-0.0125,-0.0008,0.0206,-31.9313,-30.0375,1.2000,
12.498641,0.0838,-0.0691,-0.0391,-0.0125,-0.0008,0.0206,-31.9313,-30.0375,1.2000,
12.517202,0.0838,-0.0691,-0.0391,-0.0125,-0.0008,0.0206,-31.9313,-30.0375,1.2000,
12.520213,-0.0325,-0.1024,0.0250,-0.0125,-0.0008,0.0206,-31.9313,-30.0375,1.2000,
12.536586,-0.0387,-0.1783,0.1616,-0.0125,-0.0008,0.0206,-31.9313,-30.0375,1.2000,
12.541488,-0.0387,-0.1783,0.1616,-0.0125,-0.0008,0.0206,-33.3188,-29.3250,-0.2063,
12.555290,-0.0084,-0.1530,0.1117,-0.0125,-0.0008,0.0206,-33.3188,-29.3250,-0.2063,
12.559042,-0.0084,-0.1530,0.1117,0.0192,-0.0899,-0.0258,-33.3188,-29.3250,-0.2063,
12.563633,-0.0084,-0.1530,0.1117,0.0192,-0.0899,-0.0258,-33.3188,-29.3250,-0.2063,
12.574434,-0.0856,-0.0486,-0.0571,0.0192,-0.0899,-0.0258,-33.3188,-29.3250,-0.2063,
12.594193,0.1274,-0.0123,-0.0494,0.0192,-0.0899,-0.0258,-33.3188,-29.3250,-0.2063,
12.601083,0.1274,-0.0123,-0.0494,0.0192,-0.0899,-0.0258,-33.4125,-29.3250,-0.0938,
12.614080,0.1274,-0.0123,-0.0494,0.0192,-0.0899,-0.0258,-33.4125,-29.3250,-0.0938,
12.615444,0.1587,0.0445,-0.1417,0.0192,-0.0899,-0.0258,-33.4125,-29.3250,-0.0938,
12.621294,0.1587,0.0445,-0.1417,0.0082,0.0334,-0.0038,-33.4125,-29.3250,-0.0938,
12.631730,0.0014,0.1113,-0.0811,0.0082,0.0334,-0.0038,-33.4125,-29.3250,-0.0938,
12.651694,-0.1314,0.0866,0.0717,0.0082,0.0334,-0.0038,-33.4125,-29.3250,-0.0938,
12.659429,-0.1314,0.0866,0.0717,0.0082,0.0334,-0.0038,-33.4125,-29.3250,-0.0938,
12.660640,-0.1314,0.0866,0.0717,0.0082,0.0334,-0.0038,-31.7250,-29.5875,-1.6125,
12.670729,-0.1282,0.0654,0.1493,0.0082,0.0334,-0.0038,-31.7250,-29.5875,-1.6125,
12.683273,-0.1282,0.0654,0.1493,0.0010,-0.0424,0.0121,-31.7250,-29.5875,-1.6125,
12.690329,-0.0265,0.0269,0.0497,0.0010,-0.0424,0.0121,-31.7250,-29.5875,-1.6125,
12.708104,-0.0265,0.0269,0.0497,0.0010,-0.0424,0.0121,-31.7250,-29.5875,-1.6125,
12.711351,0.0909,0.0169,-0.1018,0.0010,-0.0424,0.0121,-31.7250,-29.5875,-1.6125,
12.720711,0.0909,0.0169,-0.1018,0.0010,-0.0424,0.0121,-33.2063,-29.8500,0.0938,
12.726934,0.0988,-0.0169,-0.0677,0.0010,-0.0424,0.0121,-33.2063,-29.8500,0.0938,
12.745929,0.0988,-0.0169,-0.0677,-0.0088,0.0066,0.0121,-33.2063,-29.8500,0.0938,
12.748881,0.0265,-0.0851,0.0159,-0.0088,0.0066,0.0121,-33.2063,-29.8500,0.0938,
12.757909,0.0265,-0.0851,0.0159,-0.0088,0.0066,0.0121,-33.2063,-29.8500,0.0938,
12.765618,-0.1176,-0.0556,0.0515,-0.0088,0.0066,0.0121,-33.2063,-29.8500,0.0938,
12.781461,-0.1176,-0.0556,0.0515,-0.0088,0.0066,0.0121,-33.4125,-29.4000,-0.5063,
12.784708,-0.1226,-0.0624,0.0763,-0.0088,0.0066,0.0121,-33.4125,-29.4000,-0.5063,
12.803384,-0.1226,-0.0624,0.0763,-0.0088,0.0066,0.0121,-33.4125,-29.4000,-0.5063,
12.806895,-0.0047,-0.0642,0.0375,-0.0088,0.0066,0.0121,-33.4125,-29.4000,-0.5063,
12.809716,-0.0047,-0.0642,0.0375,0.0047,-0.0338,0.0169,-33.4125,-29.4000,-0.5063,
12.823383,0.1838,-0.0098,-0.0288,0.0047,-0.0338,0.0169,-33.4125,-29.4000,-0.5063,
12.840914,0.1838,-0.0098,-0.0288,0.0047,-0.0338,0.0169,-33.0000,-29.7375,-0.0188,
12.843825,0.0983,0.0215,-0.0545,0.0047,-0.0338,0.0169,-33.0000,-29.7375,-0.0188,
12.850411,0.0983,0.0215,-0.0545,0.0047,-0.0338,0.0169,-33.0000,-29.7375,-0.0188,
12.861051,0.0263,0.0491,0.0449,0.0047,-0.0338,0.0169,-33.0000,-29.7375,-0.0188,
12.869759,0.0263,0.0491,0.0449,0.0059,0.0334,-0.0001,-33.0000,-29.7375,-0.0188,
12.880463,-0.0099,0.0430,-0.0144,0.0059,0.0334,-0.0001,-33.0000,-29.7375,-0.0188,
12.898913,-0.0099,0.0430,-0.0144,0.0059,0.0334,-0.0001,-33.0000,-29.7375,-0.0188,
12.902026,-0.0167,0.0701,0.0560,0.0059,0.0334,-0.0001,-33.0000,-29.7375,-0.0188,
12.904318,-0.0167,0.0701,0.0560,0.0059,0.0334,-0.0001,-32.9062,-29.6250,-0.4313,
12.918783,-0.0253,0.0406,0.0263,0.0059,0.0334,-0.0001,-32.9062,-29.6250,-0.4313,
12.932340,-0.0253,0.0406,0.0263,-0.0113,0.0212,-0.0051,-32.9062,-29.6250,-0.4313,
12.937705,-0.0181,0.0317,-0.0467,-0.0113,0.0212,-0.0051,-32.9062,-29.6250,-0.4313,
12.946281,-0.0181,0.0317,-0.0467,-0.0113,0.0212,-0.0051,-32.9062,-29.6250,-0.4313,
12.957762,-0.1392,0.0783,-0.3883,-0.0113,0.0212,-0.0051,-32.9062,-29.6250,-0.4313,
12.961807,-0.1392,0.0783,-0.3883,-0.0113,0.0212,-0.0051,-33.0938,-29.9438,0.0938,
12.976085,-0.0942,-0.0133,-0.0502,-0.0113,0.0212,-0.0051,-33.0938,-29.9438,0.0938,
12.995087,-0.0942,-0.0133,-0.0502,-0.0113,0.0212,-0.0051,-33.0938,-29.9438,0.0938,
12.998271,-0.0942,-0.0133,-0.0502,-0.0650,0.3193,0.1599,-33.0938,-29.9438,0.0938,
13.000668,0.0478,-0.2248,0.3300,-0.0650,0.3193,0.1599,-33.0938,-29.9438,0.0938,
13.014140,0.3337,-0.0733,0.2635,-0.0650,0.3193,0.1599,-33.0938,-29.9438,0.0938,
13.021289,0.3337,-0.0733,0.2635,-0.0650,0.3193,0.1599,-33.1313,-29.1188,-0.5250,
13.033424,0.2137,-0.0416,0.0081,-0.0650,0.3193,0.1599,-33.1313,-29.1188,-0.5250,
13.042177,0.2137,-0.0416,0.0081,-0.0650,0.3193,0.1599,-33.1313,-29.1188,-0.5250,
13.053053,0.0089,0.0565,-0.1834,-0.0650,0.3193,0.1599,-33.1313,-29.1188,-0.5250,
13.056112,0.0089,0.0565,-0.1834,0.0242,0.0188,-0.0001,-33.1313,-29.1188,-0.5250,
13.072468,-0.0173,0.0403,-0.1011,0.0242,0.0188,-0.0001,-33.1313,-29.1188,-0.5250,
13.082198,-0.0173,0.0403,-0.1011,0.0242,0.0188,-0.0001,-33.7875,-29.3625,-0.9188,
13.089508,-0.0173,0.0403,-0.1011,0.0242,0.0188,-0.0001,-33.7875,-29.3625,-0.9188,
13.090773,0.0231,0.0089,0.0313,0.0242,0.0188,-0.0001,-33.7875,-29.3625,-0.9188,
13.110347,-0.0193,0.0063,0.1189,0.0242,0.0188,-0.0001,-33.7875,-29.3625,-0.9188,
13.119015,-0.0193,0.0063,0.1189,0.0180,-0.0349,-0.0184,-33.7875,-29.3625,-0.9188,
13.128850,-0.0628,-0.0006,0.1150,0.0180,-0.0349,-0.0184,-33.7875,-29.3625,-0.9188,
13.137891,-0.0628,-0.0006,0.1150,0.0180,-0.0349,-0.0184,-33.7875,-29.3625,-0.9188,
13.141131,-0.0628,-0.0006,0.1150,0.0180,-0.0349,-0.0184,-31.7438,-29.1563,-2.4375,
13.147722,-0.0275,-0.0129,0.0290,0.0180,-0.0349,-0.0184,-31.7438,-29.1563,-2.4375,
13.167345,0.0197,-0.0010,-0.0229,0.0180,-0.0349,-0.0184,-31.7438,-29.1563,-2.4375,
13.181109,0.0197,-0.0010,-0.0229,0.0254,-0.0729,-0.0099,-31.7438,-29.1563,-2.4375,
13.185165,0.0197,-0.0010,-0.0229,0.0254,-0.0729,-0.0099,-31.7438,-29.1563,-2.4375,
13.186181,0.0990,0.0247,-0.0080,0.0254,-0.0729,-0.0099,-31.7438,-29.1563,-2.4375,
13.201394,0.0990,0.0247,-0.0080,0.0254,-0.0729,-0.0099,-33.0000,-29.6250,-0.5250,
13.205293,0.0776,0.0265,-0.0505,0.0254,-0.0729,-0.0099,-33.0000,-29.6250,-0.5250,
13.224920,-0.0212,0.0108,-0.0196,0.0254,-0.0729,-0.0099,-33.0000,-29.6250,-0.5250,
13.233640,-0.0212,0.0108,-0.0196,0.0254,-0.0729,-0.0099,-33.0000,-29.6250,-0.5250,
13.242774,-0.0212,0.0108,-0.0196,0.0095,-0.0546,-0.0074,-33.0000,-29.6250,-0.5250,
13.245516,-0.0268,-0.0078,0.0659,0.0095,-0.0546,-0.0074,-33.0000,-29.6250,-0.5250,
13.260408,-0.0268,-0.0078,0.0659,0.0095,-0.0546,-0.0074,-33.5063,-29.1000,-0.6188,
13.263319,0.0422,-0.0223,0.0394,0.0095,-0.0546,-0.0074,-33.5063,-29.1000,-0.6188,
13.281509,0.0422,-0.0223,0.0394,0.0095,-0.0546,-0.0074,-33.5063,-29.1000,-0.6188,
13.284445,0.0618,0.0227,-0.0753,0.0095,-0.0546,-0.0074,-33.5063,-29.1000,-0.6188,
13.301279,0.0363,0.0003,-0.0996,0.0095,-0.0546,-0.0074,-33.5063,-29.1000,-0.6188,
13.305460,0.0363,0.0003,-0.0996,-0.0088,-0.0386,-0.0099,-33.5063,-29.1000,-0.6188,
13.320337,0.0299,0.0098,-0.0213,-0.0088,-0.0386,-0.0099,-33.5063,-29.1000,-0.6188,
13.323550,0.0299,0.0098,-0.0213,-0.0088,-0.0386,-0.0099,-33.3000,-29.6063,-0.4125,
13.329243,0.0299,0.0098,-0.0213,-0.0088,-0.0386,-0.0099,-33.3000,-29.6063,-0.4125,
13.339327,-0.0004,0.0059,0.1050,-0.0088,-0.0386,-0.0099,-33.3000,-29.6063,-0.4125,
13.359750,-0.0419,-0.0068,0.0759,-0.0088,-0.0386,-0.0099,-33.3000,-29.6063,-0.4125,
13.367148,-0.0419,-0.0068,0.0759,-0.0113,-0.0594,-0.0111,-33.3000,-29.6063,-0.4125,
13.377276,-0.0419,-0.0068,0.0759,-0.0113,-0.0594,-0.0111,-33.3000,-29.6063,-0.4125,
13.378662,-0.0339,0.0399,0.0398,-0.0113,-0.0594,-0.0111,-33.3000,-29.6063,-0.4125,
13.380353,-0.0339,0.0399,0.0398,-0.0113,-0.0594,-0.0111,-33.2063,-29.4938,-0.8250,
13.397106,-0.0430,0.0220,0.0858,-0.0113,-0.0594,-0.0111,-33.2063,-29.4938,-0.8250,
13.421517,-0.0487,0.0285,0.0735,-0.0113,-0.0594,-0.0111,-33.2063,-29.4938,-0.8250,
13.425886,-0.0487,0.0285,0.0735,-0.0113,-0.0594,-0.0111,-33.2063,-29.4938,-0.8250,
13.429311,-0.0487,0.0285,0.0735,-0.0088,-0.1327,-0.0099,-33.2063,-29.4938,-0.8250,
13.434745,0.0911,-0.0250,-0.0308,-0.0088,-0.1327,-0.0099,-33.2063,-29.4938,-0.8250,
13.441033,0.0911,-0.0250,-0.0308,-0.0088,-0.1327,-0.0099,-33.3000,-29.7375,-0.0000,
13.454628,0.3020,-0.0646,-0.1019,-0.0088,-0.1327,-0.0099,-33.3000,-29.7375,-0.0000,
13.472354,0.3020,-0.0646,-0.1019,-0.0088,-0.1327,-0.0099,-33.3000,-29.7375,-0.0000,
13.474577,0.2631,-0.0214,-0.1600,-0.0088,-0.1327,-0.0099,-33.3000,-29.7375,-0.0000,
13.491932,0.2631,-0.0214,-0.1600,0.0107,0.0627,-0.0026,-33.3000,-29.7375,-0.0000,
13.495131,0.0628,-0.0143,-0.0137,0.0107,0.0627,-0.0026,-33.3000,-29.7375,-0.0000,
13.501870,0.0628,-0.0143,-0.0137,0.0107,0.0627,-0.0026,-33.4125,-29.2125,-0.3000,
13.512989,-0.0073,-0.0929,0.1988,0.0107,0.0627,-0.0026,-33.4125,-29.2125,-0.3000,
13.520264,-0.0073,-0.0929,0.1988,0.0107,0.0627,-0.0026,-33.4125,-29.2125,-0.3000,
13.530801,-0.0314,-0.1151,0.1021,0.0107,0.0627,-0.0026,-33.4125,-29.2125,-0.3000,
13.549210,-0.0223,0.0622,-0.0397,0.0107,0.0627,-0.0026,-33.4125,-29.2125,-0.3000,
13.553951,-0.0223,0.0622,-0.0397,0.0437,0.0016,-0.0038,-33.4125,-29.2125,-0.3000,
13.561394,-0.0223,0.0622,-0.0397,0.0437,0.0016,-0.0038,-33.3000,-29.7188,-0.4125,
13.569261,-0.0223,0.0622,-0.0397,0.0437,0.0016,-0.0038,-33.3000,-29.7188,-0.4125,
13.572304,0.1283,0.0415,-0.1749,0.0437,0.0016,-0.0038,-33.3000,-29.7188,-0.4125,
13.588254,0.1523,0.0482,-0.0597,0.0437,0.0016,-0.0038,-33.3000,-29.7188,-0.4125,
13.607133,0.0843,0.0616,-0.0604,0.0437,0.0016,-0.0038,-33.3000,-29.7188,-0.4125,
13.617445,0.0843,0.0616,-0.0604,0.0437,0.0016,-0.0038,-33.3000,-29.7188,-0.4125,
13.620277,0.0843,0.0616,-0.0604,0.0205,0.0921,0.0023,-33.3000,-29.7188,-0.4125,
13.622093,0.0843,0.0616,-0.0604,0.0205,0.0921,0.0023,-32.8313,-29.2313,-0.3188,
13.625689,0.1297,-0.0068,-0.0863,0.0205,0.0921,0.0023,-32.8313,-29.2313,-0.3188,
13.645742,0.0867,-0.0167,-0.0110,0.0205,0.0921,0.0023,-32.8313,-29.2313,-0.3188,
13.664443,0.0867,-0.0167,-0.0110,0.0205,0.0921,0.0023,-32.8313,-29.2313,-0.3188,
13.667416,-0.0774,-0.0056,0.0947,0.0205,0.0921,0.0023,-32.8313,-29.2313,-0.3188,
13.681209,-0.0774,-0.0056,0.0947,0.0144,0.0689,-0.0051,-32.8313,-29.2313,-0.3188,
13.684320,-0.0774,-0.0056,0.0947,0.0144,0.0689,-0.0051,-33.0188,-29.3625,0.0938,
13.686675,-0.2468,0.0248,0.1208,0.0144,0.0689,-0.0051,-33.0188,-29.3625,0.0938,
13.702606,-0.2140,0.0445,0.1389,0.0144,0.0689,-0.0051,-33.0188,-29.3625,0.0938,
13.714909,-0.2140,0.0445,0.1389,0.0144,0.0689,-0.0051,-33.0188,-29.3625,0.0938,
13.723428,0.0136,0.0301,0.0261,0.0144,0.0689,-0.0051,-33.0188,-29.3625,0.0938,
13.741329,0.0136,0.0301,0.0261,0.0082,-0.0521,-0.0063,-33.0188,-29.3625,0.0938,
13.745721,0.1351,0.0296,-0.0860,0.0082,-0.0521,-0.0063,-33.0188,-29.3625,0.0938,
13.747633,0.1351,0.0296,-0.0860,0.0082,-0.0521,-0.0063,-32.6250,-29.5500,-0.2250,
13.759415,0.1351,0.0296,-0.0860,0.0082,-0.0521,-0.0063,-32.6250,-29.5500,-0.2250,
13.760925,0.0679,0.0333,-0.0555,0.0082,-0.0521,-0.0063,-32.6250,-29.5500,-0.2250,
13.778767,-0.0312,0.0055,0.0465,0.0082,-0.0521,-0.0063,-32.6250,-29.5500,-0.2250,
13.798608,-0.0785,-0.0075,0.0727,0.0082,-0.0521,-0.0063,-32.6250,-29.5500,-0.2250,
13.802250,-0.0785,-0.0075,0.0727,0.0082,-0.0521,-0.0063,-33.5063,-29.4375,0.0000,
13.804292,-0.0785,-0.0075,0.0727,-0.0088,-0.0839,-0.0063,-33.5063,-29.4375,0.0000,
13.806508,-0.0785,-0.0075,0.0727,-0.0088,-0.0839,-0.0063,-33.5063,-29.4375,0.0000,
13.817852,0.0024,-0.0346,0.0166,-0.0088,-0.0839,-0.0063,-33.5063,-29.4375,0.0000,
13.836286,0.1603,0.0026,-0.0648,-0.0088,-0.0839,-0.0063,-33.5063,-29.4375,0.0000,
13.855511,0.1603,0.0026,-0.0648,-0.0088,-0.0839,-0.0063,-33.5063,-29.4375,0.0000,
13.858677,0.2903,-0.0208,-0.1452,-0.0088,-0.0839,-0.0063,-33.5063,-29.4375,0.0000,
13.861464,0.2903,-0.0208,-0.1452,-0.0088,-0.0839,-0.0063,-33.3188,-29.5500,0.2063,
13.864696,0.2903,-0.0208,-0.1452,0.0034,0.0151,-0.0038,-33.3188,-29.5500,0.2063,
13.875937,0.1760,0.0312,-0.1286,0.0034,0.0151,-0.0038,-33.3188,-29.5500,0.2063,
13.894506,0.0123,0.0295,0.0195,0.0034,0.0151,-0.0038,-33.3188,-29.5500,0.2063,
13.906398,0.0123,0.0295,0.0195,0.0034,0.0151,-0.0038,-33.3188,-29.5500,0.2063,
13.913429,-0.0889,0.0069,0.1203,0.0034,0.0151,-0.0038,-33.3188,-29.5500,0.2063,
13.921158,-0.0889,0.0069,0.1203,0.0034,0.0151,-0.0038,-32.8125,-29.7188,-0.6375,
13.925516,-0.0889,0.0069,0.1203,-0.0015,-0.0118,0.0034,-32.8125,-29.7188,-0.6375,
13.932252,-0.0846,0.0096,0.0624,-0.0015,-0.0118,0.0034,-32.8125,-29.7188,-0.6375,
13.951269,-0.0846,0.0096,0.0624,-0.0015,-0.0118,0.0034,-32.8125,-29.7188,-0.6375,
13.954775,0.0631,-0.0117,-0.0326,-0.0015,-0.0118,0.0034,-32.8125,-29.7188,-0.6375,
13.970559,0.1445,-0.0560,-0.0559,-0.0015,-0.0118,0.0034,-32.8125,-29.7188,-0.6375,
13.981381,0.1445,-0.0560,-0.0559,-0.0015,-0.0118,0.0034,-33.2063,-29.5500,0.2063,
13.989139,0.1445,-0.0560,-0.0559,-0.0003,0.0224,0.0071,-33.2063,-29.5500,0.2063,
13.990493,0.1266,-0.0005,-0.0561,-0.0003,0.0224,0.0071,-33.2063,-29.5500,0.2063,
13.998141,0.1266,-0.0005,-0.0561,-0.0003,0.0224,0.0071,-33.2063,-29.5500,0.2063,
