time,ax,ay,az,wx,wy,wz,Bx,By,Bz,Unnamed: 10,time_diff,acc_mag,acc_mag_filtered,label
0.091747,0.0,0.0,0.0,0.0,0.0,0.0,0.0,0.0,0.0,,0.0,0.0,0.0072955349506194644,non_fall
0.092191,0.0,0.0,0.0,0.0,0.0,0.0,0.0,0.0,0.0,,0.00044399999999999995,0.0,0.05307831046655761,non_fall
0.123827,0.0,0.0,0.0,0.0,0.0,0.0,0.0,0.0,0.0,,0.03163600000000001,0.0,0.09799631156418159,non_fall
0.126476,0.1461,0.0043,-0.0215,0.0,0.0,0.0,0.0,0.0,0.0,,0.0026489999999999986,0.14773608225481005,0.14118907658832497,non_fall
0.128319,0.1461,0.0043,-0.0215,0.0,0.0,0.0,41.175,15.45,15.45,,0.0018429999999999835,0.14773608225481005,0.18181411194625174,non_fall
0.138807,0.1461,0.0043,-0.0215,0.0,0.0,0.0,41.175,15.45,15.45,,0.010488000000000025,0.14773608225481005,0.2190741647995955,non_fall
0.140668,0.2809,0.1182,0.0322,0.0,0.0,0.0,41.175,15.45,15.45,,0.0018609999999999738,0.30645210066175105,0.2522455957545491,non_fall
0.142125,0.2809,0.1182,0.0322,-0.0136,-0.0391,0.0305,41.175,15.45,15.45,,0.0014570000000000138,0.30645210066175105,0.2807065697979897,non_fall
0.156558,0.2809,0.1182,0.0322,-0.0136,-0.0391,0.0305,41.175,15.45,15.45,,0.014433000000000001,0.30645210066175105,0.3039634175828043,non_fall
0.158771,0.3664,0.1142,0.0859,-0.0136,-0.0391,0.0305,41.175,15.45,15.45,,0.0022129999999999928,0.3932803198737511,0.3216733372640468,non_fall
0.182293,0.3664,0.1142,0.0859,-0.0136,-0.0391,0.0305,41.175,15.45,15.45,,0.023522000000000015,0.3932803198737511,0.3336616533808712,non_fall
0.185562,0.3435,0.126,0.0834,-0.0136,-0.0391,0.0305,41.175,15.45,15.45,,0.003268999999999994,0.37526498637629385,0.33993210589963613,non_fall
0.187534,0.3435,0.126,0.0834,-0.0136,-0.0391,0.0305,39.825,14.85,16.275,,0.0019720000000000015,0.37526498637629385,0.3406690607876745,non_fall
0.200546,0.3435,0.126,0.0834,-0.0136,-0.0391,0.0305,39.825,14.85,16.275,,0.013011999999999996,0.37526498637629385,0.3362310671910042,non_fall
0.202917,0.3039,0.1662,0.0324,-0.0136,-0.0391,0.0305,39.825,14.85,16.275,,0.0023709999999999842,0.347889939492363,0.3271357648669751,non_fall
0.214929,0.3039,0.1662,0.0324,-0.0368,0.0261,-0.0053,39.825,14.85,16.275,,0.012012000000000023,0.347889939492363,0.3140366897249912,non_fall
0.222046,0.3039,0.1662,0.0324,-0.0368,0.0261,-0.0053,39.825,14.85,16.275,,0.0071169999999999844,0.347889939492363,0.2976930028229246,non_fall
0.223303,0.2418,0.1246,-0.0135,-0.0368,0.0261,-0.0053,39.825,14.85,16.275,,0.0012570000000000081,0.2723502340737015,0.27893359560529785,non_fall
0.241165,0.2418,0.1246,-0.0135,-0.0368,0.0261,-0.0053,39.825,14.85,16.275,,0.01786199999999999,0.2723502340737015,0.258617427043009,non_fall
0.242705,0.1575,0.0384,-0.0222,-0.0368,0.0261,-0.0053,39.825,14.85,16.275,,0.0015400000000000136,0.1636265565243002,0.23759232116338896,non_fall
0.25648,0.1575,0.0384,-0.0222,-0.0368,0.0261,-0.0053,39.75,16.05,16.95,,0.013774999999999982,0.1636265565243002,0.21665473352002834,non_fall
0.262715,0.1575,0.0384,-0.0222,-0.0368,0.0261,-0.0053,39.75,16.05,16.95,,0.0062349999999999905,0.1636265565243002,0.1965130807124674,non_fall
0.266795,0.0912,0.0308,0.0174,-0.0368,0.0261,-0.0053,39.75,16.05,16.95,,0.004080000000000028,0.09782044776016925,0.17775704651993296,non_fall
0.289266,0.0912,0.0308,0.0174,-0.0368,0.0261,-0.0053,39.75,16.05,16.95,,0.02247100000000002,0.09782044776016925,0.16083484892829272,non_fall
0.29415,0.0492,0.0417,0.0706,-0.0368,0.0261,-0.0053,39.75,16.05,16.95,,0.0048839999999999995,0.09562368953350418,0.14603985840092154,non_fall
0.296372,0.0492,0.0417,0.0706,-0.0684,0.0655,-0.0354,39.75,16.05,16.95,,0.0022220000000000018,0.09562368953350418,0.13350727477090873,non_fall
0.299059,0.0492,0.0417,0.0706,-0.0684,0.0655,-0.0354,39.75,16.05,16.95,,0.002686999999999995,0.09562368953350418,0.12322084547567881,non_fall
0.300575,0.0508,0.0392,0.0724,-0.0684,0.0655,-0.0354,39.75,16.05,16.95,,0.0015159999999999618,0.0967421314629774,0.11502889995402754,non_fall
0.318252,0.0508,0.0392,0.0724,-0.0684,0.0655,-0.0354,39.75,16.05,16.95,,0.017677,0.0967421314629774,0.10866835370760453,non_fall
0.320612,0.0847,0.0465,0.0846,-0.0684,0.0655,-0.0354,39.75,16.05,16.95,,0.0023600000000000287,0.12842702207868872,0.10379484296718136,non_fall
0.322613,0.0847,0.0465,0.0846,-0.0684,0.0655,-0.0354,39.15,15.45,16.725,,0.002000999999999975,0.12842702207868872,0.10001679858613552,non_fall
0.338413,0.0847,0.0465,0.0846,-0.0684,0.0655,-0.0354,39.15,15.45,16.725,,0.015800000000000036,0.12842702207868872,0.0969310680158358,non_fall
0.339818,0.0949,0.0231,0.0867,-0.0684,0.0655,-0.0354,39.15,15.45,16.725,,0.0014049999999999896,0.13060057427132546,0.0941576686185721,non_fall
0.35351,0.0949,0.0231,0.0867,-0.0557,0.0788,-0.0272,39.15,15.45,16.725,,0.013691999999999982,0.13060057427132546,0.09137140713293744,non_fall
0.358699,0.0949,0.0231,0.0867,-0.0557,0.0788,-0.0272,39.15,15.45,16.725,,0.005188999999999999,0.13060057427132546,0.0883283944887543,non_fall
0.36006,0.102,0.0284,0.0657,-0.0557,0.0788,-0.0272,39.15,15.45,16.725,,0.001361000000000001,0.12460758403885373,0.0848858721860121,non_fall
0.378049,0.102,0.0284,0.0657,-0.0557,0.0788,-0.0272,39.15,15.45,16.725,,0.017989000000000033,0.12460758403885373,0.0810142098092011,non_fall
0.379581,0.0943,0.0411,0.0375,-0.0557,0.0788,-0.0272,39.15,15.45,16.725,,0.0015319999999999778,0.10948949721320306,0.07680041312072908,non_fall
0.38764,0.0943,0.0411,0.0375,-0.0557,0.0788,-0.0272,39.75,15.225,17.1,,0.008058999999999983,0.10948949721320306,0.0724429825915714,non_fall
0.399167,0.0943,0.0411,0.0375,-0.0557,0.0788,-0.0272,39.75,15.225,17.1,,0.01152700000000001,0.10948949721320306,0.06823846573786299,non_fall
0.400606,0.0608,0.0332,0.0275,-0.0557,0.0788,-0.0272,39.75,15.225,17.1,,0.0014390000000000236,0.07453274448187186,0.06456053809167736,non_fall
0.417661,0.0608,0.0332,0.0275,-0.0557,0.0788,-0.0272,39.75,15.225,17.1,,0.017054999999999987,0.07453274448187186,0.061832915715665335,non_fall
0.419165,0.0304,-0.0001,0.0212,-0.0557,0.0788,-0.0272,39.75,15.225,17.1,,0.0015040000000000053,0.037062244940100436,0.060497827608450884,non_fall
0.421386,0.0304,-0.0001,0.0212,-0.0368,0.0684,-0.0162,39.75,15.225,17.1,,0.002220999999999973,0.037062244940100436,0.060982118219085196,non_fall
0.441436,0.0304,-0.0001,0.0212,-0.0368,0.0684,-0.0162,39.75,15.225,17.1,,0.020050000000000012,0.037062244940100436,0.06366325572617927,non_fall
0.445928,0.0228,-0.0207,0.0002,-0.0368,0.0684,-0.0162,39.75,15.225,17.1,,0.004491999999999996,0.030795616571194024,0.06883755600616426,non_fall
0.460519,0.0228,-0.0207,0.0002,-0.0368,0.0684,-0.0162,39.75,15.225,17.1,,0.01459100000000002,0.030795616571194024,0.07669279889245646,non_fall
0.462963,0.012,-0.0001,-0.0528,-0.0368,0.0684,-0.0162,39.75,15.225,17.1,,0.0024440000000000017,0.05414656037090444,0.08728714520462733,non_fall
0.464764,0.012,-0.0001,-0.0528,-0.0368,0.0684,-0.0162,39.15,15.375,16.8,,0.001800999999999997,0.05414656037090444,0.10053589639918505,non_fall
0.479734,0.012,-0.0001,-0.0528,-0.0368,0.0684,-0.0162,39.15,15.375,16.8,,0.014969999999999983,0.05414656037090444,0.11620720067075471,non_fall
0.481774,-0.0531,0.0263,-0.0924,-0.0368,0.0684,-0.0162,39.15,15.375,16.8,,0.0020399999999999863,0.1097682103343222,0.1339273198121249,non_fall
0.494011,-0.0531,0.0263,-0.0924,-0.0283,0.0356,0.0061,39.15,15.375,16.8,,0.012236999999999998,0.1097682103343222,0.15319554306123023,non_fall
0.50248,-0.0531,0.0263,-0.0924,-0.0283,0.0356,0.0061,39.15,15.375,16.8,,0.00846900000000006,0.1097682103343222,0.1734082806747233,non_fall
0.50402,-0.0218,-0.0352,-0.1304,-0.0283,0.0356,0.0061,39.15,15.375,16.8,,0.0015399999999999858,0.13681535001599782,0.1938913101908999,non_fall
0.519056,-0.0218,-0.0352,-0.1304,-0.0283,0.0356,0.0061,39.15,15.375,16.8,,0.015035999999999938,0.13681535001599782,0.21393858298665483,non_fall
0.521269,-0.0186,0.0311,-0.3276,-0.0283,0.0356,0.0061,39.15,15.375,16.8,,0.0022130000000000205,0.3295981340966602,0.2328553993796023,non_fall
0.533686,-0.0186,0.0311,-0.3276,-0.0283,0.0356,0.0061,38.475,15.15,17.025,,0.012417000000000011,0.3295981340966602,0.2500031419790058,non_fall
0.538292,-0.0186,0.0311,-0.3276,-0.0283,0.0356,0.0061,38.475,15.15,17.025,,0.004605999999999999,0.3295981340966602,0.2648422693892087,non_fall
0.540079,-0.1222,0.1316,-0.3447,-0.0283,0.0356,0.0061,38.475,15.15,17.025,,0.001786999999999983,0.38867658792368753,0.27697015107704165,non_fall
0.557947,-0.1222,0.1316,-0.3447,-0.0283,0.0356,0.0061,38.475,15.15,17.025,,0.017867999999999995,0.38867658792368753,0.28615069554614725,non_fall
0.56137,0.0331,0.0264,-0.2961,-0.0283,0.0356,0.0061,38.475,15.15,17.025,,0.003423000000000065,0.2991116513945921,0.29233350354024823,non_fall
0.563639,0.0331,0.0264,-0.2961,-0.0744,-0.0257,0.0373,38.475,15.15,17.025,,0.0022689999999999655,0.2991116513945921,0.2956612694274158,non_fall
0.577585,0.0331,0.0264,-0.2961,-0.0744,-0.0257,0.0373,38.475,15.15,17.025,,0.013946000000000014,0.2991116513945921,0.2964651514218761,non_fall
0.580421,0.0557,-0.0515,-0.3943,-0.0744,-0.0257,0.0373,38.475,15.15,17.025,,0.0028359999999999497,0.4015311071386624,0.2952486448299292,non_fall
0.598764,0.0557,-0.0515,-0.3943,-0.0744,-0.0257,0.0373,38.475,15.15,17.025,,0.018342999999999998,0.4015311071386624,0.29266104038762364,non_fall
0.600879,0.0033,-0.0187,-0.2423,-0.0744,-0.0257,0.0373,38.475,15.15,17.025,,0.002115000000000089,0.243042938593163,0.28946196179910944,non_fall
0.60315,0.0033,-0.0187,-0.2423,-0.0744,-0.0257,0.0373,39.75,14.4,17.325,,0.002270999999999912,0.243042938593163,0.2864789713727174,non_fall
0.617307,0.0033,-0.0187,-0.2423,-0.0744,-0.0257,0.0373,39.75,14.4,17.325,,0.014157000000000086,0.243042938593163,0.28456083359156,non_fall
0.618742,-0.0709,0.0252,-0.2038,-0.0744,-0.0257,0.0373,39.75,14.4,17.325,,0.001434999999999964,0.21724707132663493,0.284529490853298,non_fall
0.633936,-0.0709,0.0252,-0.2038,-0.157,-0.1202,0.0654,39.75,14.4,17.325,,0.01519400000000004,0.21724707132663493,0.28713388630885184,non_fall
0.637015,-0.0709,0.0252,-0.2038,-0.157,-0.1202,0.0654,39.75,14.4,17.325,,0.003078999999999943,0.21724707132663493,0.29300844579958124,non_fall
0.638546,-0.0989,0.0569,-0.2877,-0.157,-0.1202,0.0654,39.75,14.4,17.325,,0.001530999999999949,0.30949977382867344,0.3026384429183703,non_fall
0.657468,-0.0989,0.0569,-0.2877,-0.157,-0.1202,0.0654,39.75,14.4,17.325,,0.018922000000000105,0.30949977382867344,0.3163337598453765,non_fall
0.659648,-0.0965,0.071,-0.3062,-0.157,-0.1202,0.0654,39.75,14.4,17.325,,0.0021799999999999597,0.3288034215150445,0.33421185374553225,non_fall
0.668732,-0.0965,0.071,-0.3062,-0.157,-0.1202,0.0654,38.925,14.55,17.7,,0.009083999999999981,0.3288034215150445,0.3561901814882111,non_fall
0.670958,-0.0965,0.071,-0.3062,-0.157,-0.1202,0.0654,38.925,14.55,17.7,,0.0022260000000000613,0.3288034215150445,0.3819879868670121,non_fall
0.672407,-0.1092,0.0855,-0.3808,-0.157,-0.1202,0.0654,38.925,14.55,17.7,,0.0014489999999999226,0.40526970032313053,0.41113714143993285,non_fall
0.695013,-0.1092,0.0855,-0.3808,-0.157,-0.1202,0.0654,38.925,14.55,17.7,,0.022606000000000015,0.40526970032313053,0.4430015165733842,non_fall
0.698295,-0.1649,0.1731,-0.425,-0.157,-0.1202,0.0654,38.925,14.55,17.7,,0.003282000000000007,0.48762754229021965,0.47680407650200163,non_fall
0.701714,-0.1649,0.1731,-0.425,-0.173,-0.2259,0.1025,38.925,14.55,17.7,,0.00341899999999995,0.48762754229021965,0.5116605496776305,non_fall
0.721604,-0.1649,0.1731,-0.425,-0.173,-0.2259,0.1025,38.925,14.55,17.7,,0.019890000000000074,0.48762754229021965,0.5466182282198263,non_fall
0.725398,-0.2958,0.2694,-0.435,-0.173,-0.2259,0.1025,38.925,14.55,17.7,,0.003793999999999964,0.5910152282302039,0.5806981895898768,non_fall
0.735227,-0.2958,0.2694,-0.435,-0.173,-0.2259,0.1025,38.925,14.55,17.7,,0.009828999999999977,0.5910152282302039,0.6129389937567912,non_fall
0.738717,-0.3737,0.3636,-0.521,-0.173,-0.2259,0.1025,38.925,14.55,17.7,,0.003489999999999993,0.7370872743440902,0.6424396477296412,non_fall
0.741734,-0.3737,0.3636,-0.521,-0.173,-0.2259,0.1025,39.975,14.175,17.175,,0.0030170000000000474,0.7370872743440902,0.6683993992387682,non_fall
0.753258,-0.3737,0.3636,-0.521,-0.173,-0.2259,0.1025,39.975,14.175,17.175,,0.011523999999999979,0.7370872743440902,0.6901518631392061,non_fall
0.755274,-0.3898,0.486,-0.4957,-0.173,-0.2259,0.1025,39.975,14.175,17.175,,0.0020160000000000178,0.796152328389486,0.7071912243949873,non_fall
0.768068,-0.3898,0.486,-0.4957,-0.27,-0.3818,0.1161,39.975,14.175,17.175,,0.012793999999999972,0.796152328389486,0.7191888080148717,non_fall
0.771894,-0.3898,0.486,-0.4957,-0.27,-0.3818,0.1161,39.975,14.175,17.175,,0.003825999999999996,0.796152328389486,0.7259990580538086,non_fall
0.774049,-0.2979,0.4615,-0.4438,-0.27,-0.3818,0.1161,39.975,14.175,17.175,,0.002155000000000018,0.7061763943944884,0.7276548162018616,non_fall
0.792642,-0.2979,0.4615,-0.4438,-0.27,-0.3818,0.1161,39.975,14.175,17.175,,0.01859299999999997,0.7061763943944884,0.7243526538436635,non_fall
0.795406,-0.2425,0.5112,-0.4425,-0.27,-0.3818,0.1161,39.975,14.175,17.175,,0.0027639999999999887,0.718288201211742,0.7164297724379471,non_fall
0.806331,-0.2425,0.5112,-0.4425,-0.27,-0.3818,0.1161,40.05,13.425,16.275,,0.010925000000000074,0.718288201211742,0.7043345008550251,non_fall
0.814059,-0.2425,0.5112,-0.4425,-0.27,-0.3818,0.1161,40.05,13.425,16.275,,0.007727999999999957,0.718288201211742,0.6885926397716743,non_fall
0.815912,-0.1887,0.4641,-0.4054,-0.27,-0.3818,0.1161,40.05,13.425,16.275,,0.0018529999999999935,0.6444731646856989,0.6697719474187912,non_fall
0.8368,-0.1887,0.4641,-0.4054,-0.27,-0.3818,0.1161,40.05,13.425,16.275,,0.020888000000000018,0.6444731646856989,0.6484470882310472,non_fall
0.840125,-0.2713,0.2977,-0.3599,-0.27,-0.3818,0.1161,40.05,13.425,16.275,,0.0033250000000000224,0.5401453415516976,0.6251674301166524,non_fall
0.84232,-0.2713,0.2977,-0.3599,-0.3835,-0.4452,0.1127,40.05,13.425,16.275,,0.002194999999999947,0.5401453415516976,0.6004300994557427,non_fall
0.855713,-0.2713,0.2977,-0.3599,-0.3835,-0.4452,0.1127,40.05,13.425,16.275,,0.013392999999999988,0.5401453415516976,0.5746605635827815,non_fall
0.858029,-0.3821,0.0876,-0.0144,-0.3835,-0.4452,0.1127,40.05,13.425,16.275,,0.0023160000000000958,0.3922773636089648,0.5482026361292023,non_fall
0.870768,-0.3821,0.0876,-0.0144,-0.3835,-0.4452,0.1127,40.05,13.425,16.275,,0.012738999999999945,0.3922773636089648,0.521319194735911,non_fall
0.873864,-0.4207,-0.1429,0.0896,-0.3835,-0.4452,0.1127,40.05,13.425,16.275,,0.0030959999999999877,0.4532516519550701,0.49420408444149355,non_fall
0.886487,-0.4207,-0.1429,0.0896,-0.3835,-0.4452,0.1127,40.725,13.35,15.45,,0.01262300000000005,0.4532516519550701,0.46700465392967183,non_fall
0.89504,-0.4207,-0.1429,0.0896,-0.3835,-0.4452,0.1127,40.725,13.35,15.45,,0.008552999999999922,0.4532516519550701,0.4398532096417881,non_fall
0.897693,-0.4107,-0.1482,0.0931,-0.3835,-0.4452,0.1127,40.725,13.35,15.45,,0.0026530000000000165,0.4464362664479668,0.4129046014990241,non_fall
0.910431,-0.4107,-0.1482,0.0931,-0.4058,-0.4942,0.0599,40.725,13.35,15.45,,0.012738000000000027,0.4464362664479668,0.3863764248627035,non_fall
0.921569,-0.4107,-0.1482,0.0931,-0.4058,-0.4942,0.0599,40.725,13.35,15.45,,0.011137999999999981,0.4464362664479668,0.36058803412826174,non_fall
0.924517,-0.3767,-0.1045,-0.0314,-0.4058,-0.4942,0.0599,40.725,13.35,15.45,,0.0029480000000000617,0.39218503286076584,0.3359946681002529,non_fall
0.934117,-0.3767,-0.1045,-0.0314,-0.4058,-0.4942,0.0599,40.725,13.35,15.45,,0.009599999999999942,0.39218503286076584,0.3132134068180654,non_fall
0.936368,-0.2795,-0.14,-0.0046,-0.4058,-0.4942,0.0599,40.725,13.35,15.45,,0.002251000000000003,0.31263622630782895,0.29303833386806744,non_fall
0.946844,-0.2795,-0.14,-0.0046,-0.4058,-0.4942,0.0599,40.95,12.225,14.175,,0.01047600000000004,0.31263622630782895,0.27644306099821714,non_fall
0.953909,-0.2795,-0.14,-0.0046,-0.4058,-0.4942,0.0599,40.95,12.225,14.175,,0.007064999999999988,0.31263622630782895,0.2645695574291805,non_fall
0.955961,-0.1614,-0.2493,0.1829,-0.4058,-0.4942,0.0599,40.95,12.225,14.175,,0.0020519999999999428,0.3487877004712179,0.25870292181198246,non_fall
0.970491,-0.1614,-0.2493,0.1829,-0.4058,-0.4942,0.0599,40.95,12.225,14.175,,0.014530000000000043,0.3487877004712179,0.2602323380294036,non_fall
0.972576,-0.091,-0.1892,0.2691,-0.4058,-0.4942,0.0599,40.95,12.225,14.175,,0.0020850000000000035,0.34130990316719495,0.2705990629396388,non_fall
0.977655,-0.091,-0.1892,0.2691,-0.5032,-0.5351,-0.0632,40.95,12.225,14.175,,0.005079000000000056,0.34130990316719495,0.2912330186765486,non_fall
0.993045,-0.091,-0.1892,0.2691,-0.5032,-0.5351,-0.0632,40.95,12.225,14.175,,0.015389999999999904,0.34130990316719495,0.3234804257694857,non_fall
0.995378,-0.0659,0.1577,0.2078,-0.5032,-0.5351,-0.0632,40.95,12.225,14.175,,0.0023330000000000295,0.26905936147995296,0.36852581131025147,non_fall
1.013042,-0.0659,0.1577,0.2078,-0.5032,-0.5351,-0.0632,40.95,12.225,14.175,,0.017664000000000013,0.26905936147995296,0.4273124721656528,non_fall
1.015661,0.0344,0.5416,0.0308,-0.5032,-0.5351,-0.0632,40.95,12.225,14.175,,0.002618999999999927,0.5435646787641742,0.5004658511822486,non_fall
1.017522,0.0344,0.5416,0.0308,-0.5032,-0.5351,-0.0632,41.85,12.3,12.675,,0.0018610000000001126,0.5435646787641742,0.588224143516909,non_fall
1.037241,0.0344,0.5416,0.0308,-0.5032,-0.5351,-0.0632,41.85,12.3,12.675,,0.019719000000000042,0.5435646787641742,0.6903798582167512,non_fall
1.03969,0.003,0.8959,-0.2339,-0.5032,-0.5351,-0.0632,41.85,12.3,12.675,,0.0024489999999999235,0.9259346737216401,0.806235296370203,non_fall
1.05134,0.003,0.8959,-0.2339,-0.6988,-0.5424,-0.1793,41.85,12.3,12.675,,0.011649999999999938,0.9259346737216401,0.9345742153990041,non_fall
1.053919,0.003,0.8959,-0.2339,-0.6988,-0.5424,-0.1793,41.85,12.3,12.675,,0.002579000000000109,0.9259346737216401,1.0736514089938891,non_fall
1.055404,-0.1386,1.2332,-0.4158,-0.6988,-0.5424,-0.1793,41.85,12.3,12.675,,0.0014849999999999586,1.3087711182632356,1.2212015608384281,non_fall
1.066923,-0.1386,1.2332,-0.4158,-0.6988,-0.5424,-0.1793,41.85,12.3,12.675,,0.011519000000000057,1.3087711182632356,1.3744684902862137,non_fall
1.069415,-0.355,1.454,-0.5434,-0.6988,-0.5424,-0.1793,41.85,12.3,12.675,,0.0024919999999999387,1.5923016548380522,1.5302556819784539,non_fall
1.086092,-0.355,1.454,-0.5434,-0.6988,-0.5424,-0.1793,41.775,11.85,11.55,,0.016677000000000053,1.5923016548380522,1.6849987351270703,non_fall
1.090833,-0.355,1.454,-0.5434,-0.6988,-0.5424,-0.1793,41.775,11.85,11.55,,0.004740999999999884,1.5923016548380522,1.8348601474573543,non_fall
1.092483,-0.3965,1.6867,-0.5436,-0.6988,-0.5424,-0.1793,41.775,11.85,11.55,,0.0016500000000001513,1.8159488153579662,1.9758466034249675,non_fall
1.116441,-0.3965,1.6867,-0.5436,-0.6988,-0.5424,-0.1793,41.775,11.85,11.55,,0.023957999999999924,1.8159488153579662,2.103948366054349,non_fall
1.119115,-0.1158,2.0095,-0.352,-0.6988,-0.5424,-0.1793,41.775,11.85,11.55,,0.002674000000000065,2.0433805054370073,2.2152991532551747,non_fall
1.121164,-0.1158,2.0095,-0.352,-1.067,-0.5577,-0.2456,41.775,11.85,11.55,,0.0020489999999999675,2.0433805054370073,2.306352940296268,non_fall
1.135365,-0.1158,2.0095,-0.352,-1.067,-0.5577,-0.2456,41.775,11.85,11.55,,0.014200999999999908,2.0433805054370073,2.374071661607139,non_fall
1.137536,0.2817,2.6015,-0.1923,-1.067,-0.5577,-0.2456,41.775,11.85,11.55,,0.002171000000000145,2.623763790816544,2.4161150370872293,non_fall
1.154999,0.2817,2.6015,-0.1923,-1.067,-0.5577,-0.2456,41.775,11.85,11.55,,0.017463000000000006,2.623763790816544,2.4310209613320226,non_fall
1.157968,0.6626,2.7849,-0.449,-1.067,-0.5577,-0.2456,41.775,11.85,11.55,,0.0029689999999999994,2.897638309037206,2.418362524410788,non_fall
1.15996,0.6626,2.7849,-0.449,-1.067,-0.5577,-0.2456,42.15,11.7,11.625,,0.0019919999999999938,2.897638309037206,2.378866566484645,non_fall
1.170179,0.6626,2.7849,-0.449,-1.067,-0.5577,-0.2456,42.15,11.7,11.625,,0.010218999999999978,2.897638309037206,2.31447945039664,non_fall
1.172268,0.7826,2.0992,-1.0622,-1.067,-0.5577,-0.2456,42.15,11.7,11.625,,0.0020890000000000075,2.479389489370317,2.2283686733631156,non_fall
1.188693,0.7826,2.0992,-1.0622,-1.1875,-0.5606,-0.2955,42.15,11.7,11.625,,0.016424999999999912,2.479389489370317,2.124853599057525,non_fall
1.193251,0.7826,2.0992,-1.0622,-1.1875,-0.5606,-0.2955,42.15,11.7,11.625,,0.004558000000000062,2.479389489370317,2.009264128799318,non_fall
1.194861,0.7944,1.4491,-1.1764,-1.1875,-0.5606,-0.2955,42.15,11.7,11.625,,0.0016099999999998893,2.0285164850205186,1.8877316706780032,non_fall
1.212885,0.7944,1.4491,-1.1764,-1.1875,-0.5606,-0.2955,42.15,11.7,11.625,,0.01802400000000004,2.0285164850205186,1.7669218276611023,non_fall
1.214879,0.6512,0.8651,-0.8507,-1.1875,-0.5606,-0.2955,42.15,11.7,11.625,,0.0019940000000000513,1.3770076034648464,1.6537227351224248,non_fall
1.225135,0.6512,0.8651,-0.8507,-1.1875,-0.5606,-0.2955,41.85,11.775,10.65,,0.010256000000000043,1.3770076034648464,1.554906794645263,non_fall
1.233515,0.6512,0.8651,-0.8507,-1.1875,-0.5606,-0.2955,41.85,11.775,10.65,,0.008379999999999832,1.3770076034648464,1.476786203997673,non_fall
1.235557,0.4276,0.6077,-0.3625,-1.1875,-0.5606,-0.2955,41.85,11.775,10.65,,0.0020420000000000993,0.826769193910852,1.4248836924596089,non_fall
1.252408,0.4276,0.6077,-0.3625,-1.1875,-0.5606,-0.2955,41.85,11.775,10.65,,0.01685099999999995,0.826769193910852,1.4036391455312125,non_fall
1.254935,0.3303,0.8911,0.077,-1.1875,-0.5606,-0.2955,41.85,11.775,10.65,,0.002526999999999946,0.953460172214865,1.416170524730507,backward_fall
1.256522,0.3303,0.8911,0.077,-1.1768,-0.9161,-0.2605,41.85,11.775,10.65,,0.001587000000000005,0.953460172214865,1.464103743983247,backward_fall
1.270464,0.3303,0.8911,0.077,-1.1768,-0.9161,-0.2605,41.85,11.775,10.65,,0.013942000000000121,0.953460172214865,1.5474810458443857,backward_fall
1.272503,0.2663,1.597,-0.0846,-1.1768,-0.9161,-0.2605,41.85,11.775,10.65,,0.002038999999999902,1.621259340759522,1.6647513681601187,backward_fall
1.291299,0.2663,1.597,-0.0846,-1.1768,-0.9161,-0.2605,41.85,11.775,10.65,,0.018796000000000035,1.621259340759522,1.8128399031044025,backward_fall
1.293637,0.1876,2.4341,-0.5331,-1.1768,-0.9161,-0.2605,41.85,11.775,10.65,,0.0023379999999999512,2.498846169735144,1.9872882518503605,backward_fall
1.298034,0.1876,2.4341,-0.5331,-1.1768,-0.9161,-0.2605,42.075,12.225,8.625,,0.004396999999999984,2.498846169735144,2.182452077589519,backward_fall
1.311446,0.1876,2.4341,-0.5331,-1.1768,-0.9161,-0.2605,42.075,12.225,8.625,,0.01341199999999998,2.498846169735144,2.391740772752532,backward_fall
1.314403,0.2637,3.0039,-0.4525,-1.1768,-0.9161,-0.2605,42.075,12.225,8.625,,0.0029570000000000984,3.0492145136083817,2.607883743502953,backward_fall
1.325211,0.2637,3.0039,-0.4525,-1.0389,-1.089,-0.2184,42.075,12.225,8.625,,0.010807999999999929,3.0492145136083817,2.8232100277253456,backward_fall
1.33018,0.2637,3.0039,-0.4525,-1.0389,-1.089,-0.2184,42.075,12.225,8.625,,0.004969000000000001,3.0492145136083817,3.0299311354296274,backward_fall
1.332006,0.3262,2.7977,-0.3824,-1.0389,-1.089,-0.2184,42.075,12.225,8.625,,0.0018260000000001053,2.8424921266381724,3.22042037486686,backward_fall
1.355796,0.3262,2.7977,-0.3824,-1.0389,-1.089,-0.2184,42.075,12.225,8.625,,0.023789999999999978,2.8424921266381724,3.3874848358084355,backward_fall
1.3593,0.9746,3.1465,0.3075,-1.0389,-1.089,-0.2184,42.075,12.225,8.625,,0.0035039999999999516,3.308302232263552,3.5246277957659227,backward_fall
1.370082,0.9746,3.1465,0.3075,-1.0389,-1.089,-0.2184,42.75,11.775,6.45,,0.01078200000000007,3.308302232263552,3.6262987784296135,backward_fall
1.372868,0.9746,3.1465,0.3075,-1.0389,-1.089,-0.2184,42.75,11.775,6.45,,0.002785999999999955,3.308302232263552,3.6881257997862384,backward_fall
1.375772,1.1041,4.098,0.6772,-1.0389,-1.089,-0.2184,42.75,11.775,6.45,,0.0029040000000000177,4.297818126677768,3.707120413135961,backward_fall
1.394052,1.1041,4.098,0.6772,-1.0389,-1.089,-0.2184,42.75,11.775,6.45,,0.018280000000000074,4.297818126677768,3.68184229026341,backward_fall
1.396045,0.8208,4.2753,-0.2596,-1.0389,-1.089,-0.2184,42.75,11.775,6.45,,0.0019929999999999115,4.361111657593738,3.612507540053866,backward_fall
1.404051,0.8208,4.2753,-0.2596,-0.9099,-0.9986,-0.416,42.75,11.775,6.45,,0.008005999999999958,4.361111657593738,3.5010250632216233,backward_fall
1.413643,0.8208,4.2753,-0.2596,-0.9099,-0.9986,-0.416,42.75,11.775,6.45,,0.009592000000000045,4.361111657593738,3.350948786117475,backward_fall
1.415485,0.3146,3.3288,-1.05,-0.9099,-0.9986,-0.416,42.75,11.775,6.45,,0.0018420000000001213,3.504623032510059,3.1673403486991503,backward_fall
1.434743,0.3146,3.3288,-1.05,-0.9099,-0.9986,-0.416,42.75,11.775,6.45,,0.019257999999999997,3.504623032510059,2.956545641364367,backward_fall
1.437697,-0.022,1.8173,-0.4623,-0.9099,-0.9986,-0.416,42.75,11.775,6.45,,0.002953999999999901,1.8753091958394488,2.7258980668861765,backward_fall
1.439838,-0.022,1.8173,-0.4623,-0.9099,-0.9986,-0.416,42.075,12.075,4.05,,0.0021409999999999485,1.8753091958394488,2.483369850519444,backward_fall
1.452838,-0.022,1.8173,-0.4623,-0.9099,-0.9986,-0.416,42.075,12.075,4.05,,0.013000000000000123,1.8753091958394488,2.2371982412526816,backward_fall
1.455122,-0.4986,0.7664,0.8067,-0.9099,-0.9986,-0.416,42.075,12.075,4.05,,0.0022839999999999527,1.2193177641615822,1.9955146656641563,backward_fall
1.467679,-0.4986,0.7664,0.8067,-0.7521,-0.6127,-0.6425,42.075,12.075,4.05,,0.01255699999999993,1.2193177641615822,1.7660018834148659,backward_fall
1.470172,-0.4986,0.7664,0.8067,-0.7521,-0.6127,-0.6425,42.075,12.075,4.05,,0.0024930000000000785,1.2193177641615822,1.5555984117232307,backward_fall
1.47122,-0.6759,0.6226,1.1285,-0.7521,-0.6127,-0.6425,42.075,12.075,4.05,,0.0010479999999999379,1.455329454109962,1.3702626248911531,backward_fall
1.491825,-0.6759,0.6226,1.1285,-0.7521,-0.6127,-0.6425,42.075,12.075,4.05,,0.020604999999999984,1.455329454109962,1.2148022143069306,backward_fall
1.49398,-0.2919,0.4321,-0.4058,-0.7521,-0.6127,-0.6425,42.075,12.075,4.05,,0.002155000000000129,0.6607493170635895,1.0927691732228155,backward_fall
1.505394,-0.2919,0.4321,-0.4058,-0.7521,-0.6127,-0.6425,42.225,13.425,3.6,,0.011413999999999813,0.6607493170635895,1.0064169533696532,backward_fall
1.510859,-0.2919,0.4321,-0.4058,-0.7521,-0.6127,-0.6425,42.225,13.425,3.6,,0.005465000000000053,0.6607493170635895,0.9567146525644866,backward_fall
1.51244,-0.379,-0.0068,-1.3597,-0.7521,-0.6127,-0.6425,42.225,13.425,3.6,,0.0015810000000000546,1.4115492658777447,0.9434116826938838,backward_fall
1.531123,-0.379,-0.0068,-1.3597,-0.7521,-0.6127,-0.6425,42.225,13.425,3.6,,0.018683000000000005,1.4115492658777447,0.9651443521194769,backward_fall
1.533948,-0.8902,0.0964,-0.5269,-0.7521,-0.6127,-0.6425,42.225,13.425,3.6,,0.0028250000000000774,1.0389285875362175,1.019573775985859,backward_fall
1.535898,-0.8902,0.0964,-0.5269,-0.4222,-0.5366,-0.8854,42.225,13.425,3.6,,0.0019499999999998963,1.0389285875362175,1.1035439707493475,backward_fall
1.551278,-0.8902,0.0964,-0.5269,-0.4222,-0.5366,-0.8854,42.225,13.425,3.6,,0.01537999999999995,1.0389285875362175,1.2132503702874486,backward_fall
1.553735,-1.8474,0.145,0.4416,-0.4222,-0.5366,-0.8854,42.225,13.425,3.6,,0.0024570000000001535,1.9049730496781312,1.344411180164343,backward_fall
1.566796,-1.8474,0.145,0.4416,-0.4222,-0.5366,-0.8854,42.225,13.425,3.6,,0.01306099999999999,1.9049730496781312,1.492435612715065,backward_fall
1.568489,-1.5888,0.264,-0.2494,-0.4222,-0.5366,-0.8854,42.225,13.425,3.6,,0.0016929999999999445,1.6297796783614649,1.6525841111961004,backward_fall
1.574828,-1.5888,0.264,-0.2494,-0.4222,-0.5366,-0.8854,42.15,15.675,2.475,,0.0063389999999998725,1.6297796783614649,1.8201172082723212,backward_fall
1.584717,-1.5888,0.264,-0.2494,-0.4222,-0.5366,-0.8854,42.15,15.675,2.475,,0.009889000000000037,1.6297796783614649,1.9904320606207522,backward_fall
1.586715,-1.4428,0.7427,-1.5008,-0.4222,-0.5366,-0.8854,42.15,15.675,2.475,,0.0019980000000001663,2.210356480299049,2.1591879311618767,backward_fall
1.60496,-1.4428,0.7427,-1.5008,-0.2179,-0.7278,-0.9068,42.15,15.675,2.475,,0.018244999999999845,2.210356480299049,2.322422640170804,backward_fall
1.610228,-1.4428,0.7427,-1.5008,-0.2179,-0.7278,-0.9068,42.15,15.675,2.475,,0.00526800000000005,2.210356480299049,2.4766610907800186,backward_fall
1.611717,-1.2587,1.912,-1.2267,-0.2179,-0.7278,-0.9068,42.15,15.675,2.475,,0.0014890000000000736,2.597087326217584,2.6190152520700627,backward_fall
1.625396,-1.2587,1.912,-1.2267,-0.2179,-0.7278,-0.9068,42.15,15.675,2.475,,0.013678999999999997,2.597087326217584,2.747273228008926,backward_fall
1.626945,-1.7601,2.4751,-0.9839,-0.2179,-0.7278,-0.9068,42.15,15.675,2.475,,0.0015490000000000226,3.1925117431264054,2.8599734206235548,backward_fall
1.645521,-1.7601,2.4751,-0.9839,-0.2179,-0.7278,-0.9068,42.15,15.675,2.475,,0.018575999999999926,3.1925117431264054,2.9564583683326897,backward_fall
1.647177,-2.0048,1.9574,-1.8453,-0.2179,-0.7278,-0.9068,42.15,15.675,2.475,,0.0016559999999998798,3.354961980410508,3.0369020343296,backward_fall
1.648886,-2.0048,1.9574,-1.8453,-0.2179,-0.7278,-0.9068,40.95,17.25,1.35,,0.0017090000000001826,3.354961980410508,3.10230471168422,backward_fall
1.670032,-2.0048,1.9574,-1.8453,-0.2179,-0.7278,-0.9068,40.95,17.25,1.35,,0.021145999999999887,3.354961980410508,3.154451495483799,backward_fall
1.671842,-0.7249,2.2299,-2.0353,-0.2179,-0.7278,-0.9068,40.95,17.25,1.35,,0.0018100000000000893,3.1048961512424214,3.19583306368408,backward_fall
1.673573,-0.7249,2.2299,-2.0353,0.0247,-1.0673,-1.1195,40.95,17.25,1.35,,0.001730999999999927,3.1048961512424214,3.2295305736393605,backward_fall
1.688007,-0.7249,2.2299,-2.0353,0.0247,-1.0673,-1.1195,40.95,17.25,1.35,,0.014434000000000058,3.1048961512424214,3.2590690396136437,backward_fall
1.68968,-2.2655,2.9006,-0.6783,0.0247,-1.0673,-1.1195,40.95,17.25,1.35,,0.0016730000000000356,3.7424673011263567,3.2882450258824716,backward_fall
1.707068,-2.2655,2.9006,-0.6783,0.0247,-1.0673,-1.1195,40.95,17.25,1.35,,0.01738799999999996,3.7424673011263567,3.320934856843504,backward_fall
1.71076,-2.5537,2.7257,0.2976,0.0247,-1.0673,-1.1195,40.95,17.25,1.35,,0.0036920000000000286,3.746917391670118,3.360889642669393,backward_fall
1.719059,-2.5537,2.7257,0.2976,0.0247,-1.0673,-1.1195,39.225,18.75,-1.2,,0.008298999999999834,3.746917391670118,3.4115245082373478,backward_fall
1.732192,-2.5537,2.7257,0.2976,0.0247,-1.0673,-1.1195,39.225,18.75,-1.2,,0.013133000000000061,3.746917391670118,3.475712185594542,backward_fall
1.734645,-1.8945,2.2499,0.1161,0.0247,-1.0673,-1.1195,39.225,18.75,-1.2,,0.0024530000000000385,2.943579363631971,3.555595158211325,backward_fall
1.747995,-1.8945,2.2499,0.1161,0.4858,-1.3755,-1.4876,39.225,18.75,-1.2,,0.013349999999999973,2.943579363631971,3.65243460533618,backward_fall
1.751359,-1.8945,2.2499,0.1161,0.4858,-1.3755,-1.4876,39.225,18.75,-1.2,,0.0033640000000001447,2.943579363631971,3.7665169426384995,backward_fall
1.753304,-1.1072,1.4946,1.7273,0.4858,-1.3755,-1.4876,39.225,18.75,-1.2,,0.0019449999999998635,2.5383629153452425,3.8971382813424476,backward_fall
1.770524,-1.1072,1.4946,1.7273,0.4858,-1.3755,-1.4876,39.225,18.75,-1.2,,0.017220000000000013,2.5383629153452425,4.04268271934073,backward_fall
1.772262,-2.77,0.5089,-0.289,0.4858,-1.3755,-1.4876,39.225,18.75,-1.2,,0.0017380000000000173,2.8311482140643927,4.200802000250367,backward_fall
1.785466,-2.77,0.5089,-0.289,0.4858,-1.3755,-1.4876,39.225,18.75,-1.2,,0.013203999999999994,2.8311482140643927,4.368692172688757,backward_fall
1.78748,-5.0099,1.1869,-3.1406,0.4858,-1.3755,-1.4876,39.225,18.75,-1.2,,0.0020139999999999603,6.03085383507178,4.543448209634178,backward_fall
1.789314,-5.0099,1.1869,-3.1406,0.4858,-1.3755,-1.4876,36.375,21.225,-4.2,,0.0018340000000001133,6.03085383507178,4.722461983118042,backward_fall
1.809847,-5.0099,1.1869,-3.1406,0.4858,-1.3755,-1.4876,36.375,21.225,-4.2,,0.020532999999999912,6.03085383507178,4.9038163167342805,backward_fall
1.812142,-5.4961,1.7776,-4.6818,0.4858,-1.3755,-1.4876,36.375,21.225,-4.2,,0.002294999999999936,7.435470947424918,5.086622596595972,backward_fall
1.814102,-5.4961,1.7776,-4.6818,1.957,-1.0462,-2.548,36.375,21.225,-4.2,,0.001960000000000184,7.435470947424918,5.271253937462254,backward_fall
1.829537,-5.4961,1.7776,-4.6818,1.957,-1.0462,-2.548,36.375,21.225,-4.2,,0.015434999999999865,7.435470947424918,5.459439026056305,backward_fall
1.831507,-3.5231,0.06,-4.7417,1.957,-1.0462,-2.548,36.375,21.225,-4.2,,0.0019700000000000273,5.907584320176903,5.654200814935523,backward_fall
1.849845,-3.5231,0.06,-4.7417,1.957,-1.0462,-2.548,36.375,21.225,-4.2,,0.018337999999999965,5.907584320176903,5.859646470397569,backward_fall
1.8528,-1.173,-0.9685,-4.4111,1.957,-1.0462,-2.548,36.375,21.225,-4.2,,0.002955000000000041,4.666018051829632,6.080636723987185,backward_fall
1.855375,-1.173,-0.9685,-4.4111,1.957,-1.0462,-2.548,30.975,25.5,-9.15,,0.002574999999999994,4.666018051829632,6.322379367419952,backward_fall
1.868385,-1.173,-0.9685,-4.4111,1.957,-1.0462,-2.548,30.975,25.5,-9.15,,0.013009999999999966,4.666018051829632,6.589999323725667,backward_fall
1.870332,-2.7466,-0.7705,-4.9873,1.957,-1.0462,-2.548,30.975,25.5,-9.15,,0.001947000000000143,5.745488934807899,6.888135294349056,backward_fall
1.883728,-2.7466,-0.7705,-4.9873,3.1798,0.5472,-1.9999,30.975,25.5,-9.15,,0.013395999999999963,5.745488934807899,7.2206017711963275,backward_fall
1.887683,-2.7466,-0.7705,-4.9873,3.1798,0.5472,-1.9999,30.975,25.5,-9.15,,0.003954999999999931,5.745488934807899,7.590138365503721,backward_fall
1.889427,-5.5293,-6.5351,-6.7205,3.1798,0.5472,-1.9999,30.975,25.5,-9.15,,0.0017439999999999678,10.883281249237292,7.998249587794095,backward_fall
1.906939,-5.5293,-6.5351,-6.7205,3.1798,0.5472,-1.9999,30.975,25.5,-9.15,,0.017511999999999972,10.883281249237292,8.445120840731677,backward_fall
1.90926,1.316,-7.1075,-2.9673,3.1798,0.5472,-1.9999,30.975,25.5,-9.15,,0.0023210000000000175,7.813659932451629,8.92958461677934,backward_fall
1.924833,1.316,-7.1075,-2.9673,3.1798,0.5472,-1.9999,30.975,25.5,-9.15,,0.015573000000000059,7.813659932451629,9.449108856286294,backward_fall
1.927134,9.6449,-0.5055,-7.5623,3.1798,0.5472,-1.9999,30.975,25.5,-9.15,,0.0023009999999998865,12.266540162164716,9.999786327072933,backward_fall
1.928806,9.6449,-0.5055,-7.5623,3.1798,0.5472,-1.9999,28.05,27.075,-14.7,,0.0016720000000001178,12.266540162164716,10.576312676933616,backward_fall
1.947295,9.6449,-0.5055,-7.5623,3.1798,0.5472,-1.9999,28.05,27.075,-14.7,,0.018488999999999978,12.266540162164716,11.171946181028398,backward_fall
1.951566,8.4537,8.7112,-6.9327,3.1798,0.5472,-1.9999,28.05,27.075,-14.7,,0.004270999999999914,13.978997761642283,11.778447001789667,backward_fall
1.953969,8.4537,8.7112,-6.9327,3.7337,1.8695,0.0922,28.05,27.075,-14.7,,0.002403000000000155,13.978997761642283,12.386003724744551,backward_fall
1.968578,8.4537,8.7112,-6.9327,3.7337,1.8695,0.0922,28.05,27.075,-14.7,,0.014608999999999872,13.978997761642283,12.983171104722235,backward_fall
1.970807,4.0173,8.1185,-4.3231,3.7337,1.8695,0.0922,28.05,27.075,-14.7,,0.0022290000000000365,10.036828938962744,13.55686222853164,backward_fall
1.990262,4.0173,8.1185,-4.3231,3.7337,1.8695,0.0922,28.05,27.075,-14.7,,0.019455,10.036828938962744,14.092456159427725,backward_fall
1.991946,3.2802,-5.7776,0.758,3.7337,1.8695,0.0922,28.05,27.075,-14.7,,0.0016840000000000188,6.686922894725196,14.57409184486237,backward_fall
1.99351,3.2802,-5.7776,0.758,3.7337,1.8695,0.0922,31.35,23.475,-17.025,,0.0015639999999998988,6.686922894725196,14.985211656339008,backward_fall
2.01007,3.2802,-5.7776,0.758,3.7337,1.8695,0.0922,31.35,23.475,-17.025,,0.016559999999999908,6.686922894725196,15.30938602721795,backward_fall
2.012124,9.5967,-20.4598,9.9756,3.7337,1.8695,0.0922,31.35,23.475,-17.025,,0.0020540000000002223,24.702482917512565,15.531393155666192,backward_fall
2.024483,9.5967,-20.4598,9.9756,4.9906,3.7848,-1.417,31.35,23.475,-17.025,,0.012359000000000009,24.702482917512565,15.6384545478827,backward_fall
2.033957,9.5967,-20.4598,9.9756,4.9906,3.7848,-1.417,31.35,23.475,-17.025,,0.009473999999999982,24.702482917512565,15.62146301941595,backward_fall
2.035847,11.1135,-18.6636,7.7788,4.9906,3.7848,-1.417,31.35,23.475,-17.025,,0.0018899999999999473,23.072701979828892,15.476016348490617,backward_fall
2.049234,11.1135,-18.6636,7.7788,4.9906,3.7848,-1.417,31.35,23.475,-17.025,,0.01338700000000026,23.072701979828892,15.203103631403417,backward_fall
2.051341,5.9967,-4.2821,-1.5589,4.9906,3.7848,-1.417,31.35,23.475,-17.025,,0.002106999999999637,7.531730246762692,14.809370339939926,backward_fall
2.059086,5.9967,-4.2821,-1.5589,4.9906,3.7848,-1.417,37.275,7.2,0.3,,0.007745000000000335,7.531730246762692,14.306981466382211,backward_fall
2.069449,5.9967,-4.2821,-1.5589,4.9906,3.7848,-1.417,37.275,7.2,0.3,,0.0103629999999999,7.531730246762692,13.713177466120351,backward_fall
2.071384,5.2559,6.1153,0.9741,4.9906,3.7848,-1.417,37.275,7.2,0.3,,0.00193500000000002,8.122207194476141,13.049650116476013,backward_fall
2.088729,5.2559,6.1153,0.9741,4.9906,3.7848,-1.417,37.275,7.2,0.3,,0.017344999999999722,8.122207194476141,12.341847236350775,backward_fall
2.09125,3.6478,12.9513,-6.7252,4.9906,3.7848,-1.417,37.275,7.2,0.3,,0.0025210000000002175,15.042304729329214,11.618260948374969,backward_fall
2.093266,3.6478,12.9513,-6.7252,5.8512,3.4453,-0.3882,37.275,7.2,0.3,,0.0020159999999997957,15.042304729329214,10.909690001063435,backward_fall
2.108505,3.6478,12.9513,-6.7252,5.8512,3.4453,-0.3882,37.275,7.2,0.3,,0.015239000000000225,15.042304729329214,10.24841595557003,backward_fall
2.110573,-1.3869,12.8418,-11.4404,5.8512,3.4453,-0.3882,37.275,7.2,0.3,,0.0020679999999999588,17.254508715405375,9.667210843717585,backward_fall
2.127567,-1.3869,12.8418,-11.4404,5.8512,3.4453,-0.3882,37.275,7.2,0.3,,0.016993999999999954,17.254508715405375,9.198105854662673,backward_fall
2.129837,-2.0708,5.3984,-6.5996,5.8512,3.4453,-0.3882,37.275,7.2,0.3,,0.0022700000000002163,8.774146987599421,8.870892922681282,backward_fall
2.131915,-2.0708,5.3984,-6.5996,5.8512,3.4453,-0.3882,38.775,9.9,-9.75,,0.00207799999999958,8.774146987599421,8.711393587003881,backward_fall
2.147495,-2.0708,5.3984,-6.5996,5.8512,3.4453,-0.3882,38.775,9.9,-9.75,,0.015580000000000371,8.774146987599421,8.739597561109402,backward_fall
2.150653,0.271,0.1683,-4.1913,5.8512,3.4453,-0.3882,38.775,9.9,-9.75,,0.003157999999999994,4.203422603070027,8.967829935539564,backward_fall
2.172439,0.271,0.1683,-4.1913,3.919,1.4972,-1.0453,38.775,9.9,-9.75,,0.02178599999999964,4.203422603070027,9.399138341040034,backward_fall
2.175099,0.271,0.1683,-4.1913,3.919,1.4972,-1.0453,38.775,9.9,-9.75,,0.0026600000000001067,4.203422603070027,10.026096853681501,backward_fall
2.177444,3.3586,-0.3124,-0.4677,3.919,1.4972,-1.0453,38.775,9.9,-9.75,,0.0023450000000000415,3.4053679698382084,10.83020424002735,backward_fall
2.187076,3.3586,-0.3124,-0.4677,3.919,1.4972,-1.0453,38.775,9.9,-9.75,,0.009631999999999863,3.4053679698382084,11.782012719665593,backward_fall
2.188826,1.6923,1.5891,9.0475,3.919,1.4972,-1.0453,38.775,9.9,-9.75,,0.0017500000000003624,9.340576767523514,12.842062902529763,backward_fall
2.200768,1.6923,1.5891,9.0475,3.919,1.4972,-1.0453,40.125,10.05,-9.6,,0.011941999999999897,9.340576767523514,13.962626254512301,backward_fall
2.205644,1.6923,1.5891,9.0475,3.919,1.4972,-1.0453,40.125,10.05,-9.6,,0.00487599999999988,9.340576767523514,15.090176025922913,backward_fall
2.207165,-3.9561,2.5581,18.9356,3.919,1.4972,-1.0453,40.125,10.05,-9.6,,0.0015209999999998836,19.512856023145357,16.168430080093575,backward_fall
2.220197,-3.9561,2.5581,18.9356,3.919,1.4972,-1.0453,40.125,10.05,-9.6,,0.013032000000000377,19.512856023145357,17.141742115180953,backward_fall
2.22206,-1.0971,6.8955,27.1193,3.919,1.4972,-1.0453,40.125,10.05,-9.6,,0.001862999999999726,28.003713702828772,17.958567795125557,backward_fall
2.234902,-1.0971,6.8955,27.1193,3.5832,2.2421,-0.2686,40.125,10.05,-9.6,,0.01284200000000002,28.003713702828772,18.574708251251714,backward_fall
2.24977,-1.0971,6.8955,27.1193,3.5832,2.2421,-0.2686,40.125,10.05,-9.6,,0.014867999999999881,28.003713702828772,18.956045428215976,backward_fall
2.251353,-4.2309,22.0443,1.7883,3.5832,2.2421,-0.2686,40.125,10.05,-9.6,,0.001583000000000112,22.517763969586323,19.080535463969582,backward_fall
2.269626,-4.2309,22.0443,1.7883,3.5832,2.2421,-0.2686,40.125,10.05,-9.6,,0.018273000000000206,22.517763969586323,18.939309271967367,backward_fall
2.271594,-7.2013,19.4452,-9.6203,3.5832,2.2421,-0.2686,40.125,10.05,-9.6,,0.0019679999999997477,22.8587991115019,18.536824953723336,backward_fall
2.273659,-7.2013,19.4452,-9.6203,3.5832,2.2421,-0.2686,40.65,9.15,-7.575,,0.0020649999999999835,22.8587991115019,17.890104836937308,backward_fall
2.285851,-7.2013,19.4452,-9.6203,3.5832,2.2421,-0.2686,40.65,9.15,-7.575,,0.012192000000000203,22.8587991115019,17.02716161012052,backward_fall
2.288332,1.3872,2.4028,-5.7186,3.5832,2.2421,-0.2686,40.65,9.15,-7.575,,0.0024809999999999555,6.356111833503246,15.984776893846728,backward_fall
2.30325,1.3872,2.4028,-5.7186,0.079,0.6938,0.016,40.65,9.15,-7.575,,0.014917999999999765,6.356111833503246,14.805846464823814,backward_fall
2.305348,1.3872,2.4028,-5.7186,0.079,0.6938,0.016,40.65,9.15,-7.575,,0.0020980000000001553,6.356111833503246,13.536541120645682,backward_fall
2.306403,2.6618,-5.8411,-8.3346,0.079,0.6938,0.016,40.65,9.15,-7.575,,0.0010550000000000281,10.51994228168577,12.223532398599156,backward_fall
2.324732,2.6618,-5.8411,-8.3346,0.079,0.6938,0.016,40.65,9.15,-7.575,,0.01832900000000004,10.51994228168577,10.911490248924752,backward_fall
2.325518,-1.8515,-0.6586,-5.6121,0.079,0.6938,0.016,40.65,9.15,-7.575,,0.0007860000000001754,5.946214982659137,9.640992063399759,backward_fall
2.338275,-1.8515,-0.6586,-5.6121,0.079,0.6938,0.016,40.425,9.075,-6.525,,0.012756999999999685,5.946214982659137,8.446917102742038,backward_fall
2.343336,-1.8515,-0.6586,-5.6121,0.079,0.6938,0.016,40.425,9.075,-6.525,,0.005060999999999982,5.946214982659137,7.357352487538776,backward_fall
2.344031,-3.4089,4.4464,-2.9307,0.079,0.6938,0.016,40.425,9.075,-6.525,,0.0006950000000003342,6.3229798876795416,6.393003097380964,backward_fall
2.367867,-3.4089,4.4464,-2.9307,0.079,0.6938,0.016,40.425,9.075,-6.525,,0.023835999999999746,6.3229798876795416,5.567069587036928,backward_fall
2.369265,-2.6297,4.2652,-0.6196,0.079,0.6938,0.016,40.425,9.075,-6.525,,0.0013980000000000103,5.0488768345048785,4.885534763027135,backward_fall
2.371749,-2.6297,4.2652,-0.6196,-0.8871,0.1607,-0.3135,40.425,9.075,-6.525,,0.0024839999999999307,5.0488768345048785,4.34778247963733,backward_fall
2.387499,-2.6297,4.2652,-0.6196,-0.8871,0.1607,-0.3135,40.425,9.075,-6.525,,0.015750000000000153,5.0488768345048785,3.947466821996915,backward_fall
2.38906,-1.6528,2.6267,1.8555,-0.8871,0.1607,-0.3135,40.425,9.075,-6.525,,0.0015610000000001456,3.6158236931576186,3.6735504874901346,backward_fall
2.40832,-1.6528,2.6267,1.8555,-0.8871,0.1607,-0.3135,40.425,9.075,-6.525,,0.01925999999999961,3.6158236931576186,3.5114365632597107,backward_fall
2.410062,-0.7979,2.2244,4.1565,-0.8871,0.1607,-0.3135,40.425,9.075,-6.525,,0.0017420000000001323,4.7813274328370365,3.444124748793352,backward_fall
2.411737,-0.7979,2.2244,4.1565,-0.8871,0.1607,-0.3135,40.65,10.425,-5.625,,0.001675000000000093,4.7813274328370365,3.4533298734672906,backward_fall
2.421562,-0.7979,2.2244,4.1565,-0.8871,0.1607,-0.3135,40.65,10.425,-5.625,,0.009825000000000195,4.7813274328370365,3.5205071575318567,backward_fall
2.424654,-0.2948,1.4355,5.3345,-0.8871,0.1607,-0.3135,40.65,10.425,-5.625,,0.0030919999999996506,5.53212956645088,3.627736747213213,backward_fall
2.440703,-0.2948,1.4355,5.3345,-0.771,-0.4423,0.006,40.65,10.425,-5.625,,0.016049000000000202,5.53212956645088,3.7584315356693345,backward_fall
2.45125,-0.2948,1.4355,5.3345,-0.771,-0.4423,0.006,40.65,10.425,-5.625,,0.010546999999999862,5.53212956645088,3.8978475466642353,backward_fall
2.453362,-0.2395,0.3789,3.7274,-0.771,-0.4423,0.006,40.65,10.425,-5.625,,0.0021119999999998917,3.7542557478147383,4.033394307158011,backward_fall
2.464364,-0.2395,0.3789,3.7274,-0.771,-0.4423,0.006,40.65,10.425,-5.625,,0.0110020000000004,3.7542557478147383,4.154761981568149,backward_fall
2.46708,-1.1881,2.0462,0.0881,-0.771,-0.4423,0.006,40.65,10.425,-5.625,,0.0027159999999999407,2.3677579394862134,4.253899538961685,backward_fall
2.475068,-1.1881,2.0462,0.0881,-0.771,-0.4423,0.006,40.05,11.1,-6.15,,0.007987999999999662,2.3677579394862134,4.324889732318846,backward_fall
2.484686,-1.1881,2.0462,0.0881,-0.771,-0.4423,0.006,40.05,11.1,-6.15,,0.009618000000000126,2.3677579394862134,4.363768888743988,backward_fall
2.486809,-1.1631,3.9499,-1.977,-0.771,-0.4423,0.006,40.05,11.1,-6.15,,0.002123000000000097,4.567607756802241,4.368331757892739,backward_fall
2.505246,-1.1631,3.9499,-1.977,-0.771,-0.4423,0.006,40.05,11.1,-6.15,,0.018437000000000037,4.567607756802241,4.337946404114597,backward_fall
2.507499,-0.2151,3.6655,-2.9758,-0.771,-0.4423,0.006,40.05,11.1,-6.15,,0.0022530000000000605,4.726261090968208,4.273386547861053,backward_fall
2.509391,-0.2151,3.6655,-2.9758,0.1949,-0.4488,0.1976,40.05,11.1,-6.15,,0.0018919999999997827,4.726261090968208,4.1766748363728725,backward_fall
2.525646,-0.2151,3.6655,-2.9758,0.1949,-0.4488,0.1976,40.05,11.1,-6.15,,0.01625500000000013,4.726261090968208,4.050923777894652,backward_fall
2.527705,-0.0008,3.0909,-3.408,0.1949,-0.4488,0.1976,40.05,11.1,-6.15,,0.002059000000000033,4.600883333665395,3.9001611058993637,backward_fall
2.54312,-0.0008,3.0909,-3.408,0.1949,-0.4488,0.1976,40.05,11.1,-6.15,,0.015414999999999957,4.600883333665395,3.7291306756694205,backward_fall
2.545092,-1.2872,2.0605,-1.932,0.1949,-0.4488,0.1976,40.05,11.1,-6.15,,0.0019719999999998628,3.104056715010214,3.5430665613869006,backward_fall
2.546466,-1.2872,2.0605,-1.932,0.1949,-0.4488,0.1976,39.75,10.95,-7.8,,0.0013740000000002084,3.104056715010214,3.3474455113110184,backward_fall
2.565415,-1.2872,2.0605,-1.932,0.1949,-0.4488,0.1976,39.75,10.95,-7.8,,0.01894899999999966,3.104056715010214,3.147729818556137,backward_fall
2.567003,-2.0449,0.2693,-0.6825,0.1949,-0.4488,0.1976,39.75,10.95,-7.8,,0.001588000000000367,2.172543382765923,2.9491171537239107,backward_fall
2.578906,-2.0449,0.2693,-0.6825,0.3152,-0.2527,-0.0588,39.75,10.95,-7.8,,0.011902999999999775,2.172543382765923,2.7563149854804534,backward_fall
2.585841,-2.0449,0.2693,-0.6825,0.3152,-0.2527,-0.0588,39.75,10.95,-7.8,,0.0069349999999999135,2.172543382765923,2.5733552433736415,backward_fall
2.587561,-1.3234,-0.9884,2.1804,0.3152,-0.2527,-0.0588,39.75,10.95,-7.8,,0.0017200000000001658,2.735409709714433,2.4034607556050136,backward_fall
2.603227,-1.3234,-0.9884,2.1804,0.3152,-0.2527,-0.0588,39.75,10.95,-7.8,,0.015665999999999958,2.735409709714433,2.248969743537961,backward_fall
2.605044,0.4449,-0.1613,0.8083,0.3152,-0.2527,-0.0588,39.75,10.95,-7.8,,0.0018169999999999575,0.9366443241700663,2.111319827554127,backward_fall
2.619419,0.4449,-0.1613,0.8083,0.3152,-0.2527,-0.0588,39.825,11.175,-9.075,,0.014375000000000249,0.9366443241700663,1.9910899902144332,backward_fall
2.627408,0.4449,-0.1613,0.8083,0.3152,-0.2527,-0.0588,39.825,11.175,-9.075,,0.007988999999999802,0.9366443241700663,1.888097134944733,backward_fall
2.629824,0.6856,2.1131,0.4963,0.3152,-0.2527,-0.0588,39.825,11.175,-9.075,,0.0024160000000001958,2.2763024096108144,1.801540617380415,backward_fall
2.647342,0.6856,2.1131,0.4963,0.3152,-0.2527,-0.0588,39.825,11.175,-9.075,,0.017517999999999923,2.2763024096108144,1.7301817082228506,backward_fall
2.64985,0.3941,2.4828,1.3132,0.3152,-0.2527,-0.0588,39.825,11.175,-9.075,,0.0025079999999997327,2.836213124925558,1.6725371866334464,backward_fall
2.65174,0.3941,2.4828,1.3132,0.5165,-0.0003,-0.0446,39.825,11.175,-9.075,,0.0018900000000003914,2.836213124925558,1.627061263022475,backward_fall
2.665286,0.3941,2.4828,1.3132,0.5165,-0.0003,-0.0446,39.825,11.175,-9.075,,0.013545999999999836,2.836213124925558,1.5922907953785534,backward_fall
2.667625,0.5637,1.218,1.2749,0.5165,-0.0003,-0.0446,39.825,11.175,-9.075,,0.002339000000000091,1.8511217409992244,1.5669355246895302,backward_fall
2.685023,0.5637,1.218,1.2749,0.5165,-0.0003,-0.0446,39.825,11.175,-9.075,,0.017398000000000025,1.8511217409992244,1.5499059355287483,backward_fall
2.687643,0.5211,-0.0894,0.7181,0.5165,-0.0003,-0.0446,39.825,11.175,-9.075,,0.0026199999999998447,0.8917427768140317,1.5402834812819655,backward_fall
2.689801,0.5211,-0.0894,0.7181,0.5165,-0.0003,-0.0446,39.525,10.725,-9.825,,0.0021580000000001043,0.8917427768140317,1.5372482516163672,backward_fall
2.704271,0.5211,-0.0894,0.7181,0.5165,-0.0003,-0.0446,39.525,10.725,-9.825,,0.01446999999999976,0.8917427768140317,1.5399853491338413,backward_fall
2.706393,0.5557,-0.7362,-0.6754,0.5165,-0.0003,-0.0446,39.525,10.725,-9.825,,0.0021219999999999573,1.1432226773468064,1.5475923549812545,backward_fall
2.719252,0.5557,-0.7362,-0.6754,-0.1979,-0.2094,0.1713,39.525,10.725,-9.825,,0.012859000000000176,1.1432226773468064,1.559006958483865,backward_fall
2.722612,0.5557,-0.7362,-0.6754,-0.1979,-0.2094,0.1713,39.525,10.725,-9.825,,0.0033599999999998076,1.1432226773468064,1.5729678930550222,backward_fall
2.723948,0.7997,-0.8306,-0.8207,-0.1979,-0.2094,0.1713,39.525,10.725,-9.825,,0.001336000000000226,1.4152614387455063,1.5880157031679865,backward_fall
2.743523,0.7997,-0.8306,-0.8207,-0.1979,-0.2094,0.1713,39.525,10.725,-9.825,,0.01957500000000012,1.4152614387455063,1.6025337615447734,backward_fall
2.745338,0.7936,-1.4053,-0.2857,-0.1979,-0.2094,0.1713,39.525,10.725,-9.825,,0.001814999999999678,1.6389916229194095,1.6148247510536191,backward_fall
2.754756,0.7936,-1.4053,-0.2857,-0.1979,-0.2094,0.1713,39.45,10.95,-9.9,,0.009418000000000148,1.6389916229194095,1.6232136445737626,backward_fall
2.764759,0.7936,-1.4053,-0.2857,-0.1979,-0.2094,0.1713,39.45,10.95,-9.9,,0.010003000000000206,1.6389916229194095,1.6261652060595728,backward_fall
2.767137,0.9267,-1.9299,0.4872,-0.1979,-0.2094,0.1713,39.45,10.95,-9.9,,0.002377999999999769,2.1955980369821795,1.6224022661890531,backward_fall
2.784436,0.9267,-1.9299,0.4872,-0.1979,-0.2094,0.1713,39.45,10.95,-9.9,,0.017298999999999953,2.1955980369821795,1.611010482723082,backward_fall
2.7866,0.8834,-1.7554,0.6885,-0.1979,-0.2094,0.1713,39.45,10.95,-9.9,,0.0021640000000000548,2.082272069159071,1.5915161462681577,backward_fall
2.788102,0.8834,-1.7554,0.6885,-0.0463,-0.3085,0.2359,39.45,10.95,-9.9,,0.0015019999999998923,2.082272069159071,1.563926226553757,backward_fall
2.802827,0.8834,-1.7554,0.6885,-0.0463,-0.3085,0.2359,39.45,10.95,-9.9,,0.014725000000000321,2.082272069159071,1.528724390735001,backward_fall
2.805366,0.8912,-0.892,0.164,-0.0463,-0.3085,0.2359,39.45,10.95,-9.9,,0.002538999999999625,1.2715334993620893,1.48682259949567,backward_fall
2.822493,0.8912,-0.892,0.164,-0.0463,-0.3085,0.2359,39.45,10.95,-9.9,,0.017127000000000336,1.2715334993620893,1.4394740629691962,backward_fall
2.82451,0.9486,-0.0522,-0.3115,-0.0463,-0.3085,0.2359,39.45,10.95,-9.9,,0.0020169999999999355,0.9997995049008577,1.3881586354991458,backward_fall
2.826867,0.9486,-0.0522,-0.3115,-0.0463,-0.3085,0.2359,39.45,9.9,-11.4,,0.0023569999999999425,0.9997995049008577,1.3344549939581878,backward_fall
2.841404,0.9486,-0.0522,-0.3115,-0.0463,-0.3085,0.2359,39.45,9.9,-11.4,,0.0145369999999998,0.9997995049008577,1.2799145191526187,backward_fall
2.843968,0.8959,0.3121,-0.014,-0.0463,-0.3085,0.2359,39.45,9.9,-11.4,,0.0025640000000000107,0.9488093696839214,1.2259499693643434,backward_fall
2.855866,0.8959,0.3121,-0.014,0.0612,0.0848,0.055,39.45,9.9,-11.4,,0.011897999999999964,0.9488093696839214,1.17374876298463,backward_fall
2.861207,0.8959,0.3121,-0.014,0.0612,0.0848,0.055,39.45,9.9,-11.4,,0.00534100000000004,0.9488093696839214,1.1242169358277196,backward_fall
2.863526,0.7869,0.3419,0.1116,0.0612,0.0848,0.055,39.45,9.9,-11.4,,0.00231899999999996,0.865194648619604,1.0779561977569119,backward_fall
2.883006,0.7869,0.3419,0.1116,0.0612,0.0848,0.055,39.45,9.9,-11.4,,0.019480000000000164,0.865194648619604,1.0352732208247373,backward_fall
2.885191,0.7966,0.4517,-0.5286,0.0612,0.0848,0.055,39.45,9.9,-11.4,,0.0021849999999998815,1.0573657881736103,0.9962173841818379,backward_fall
2.901991,0.7966,0.4517,-0.5286,0.0612,0.0848,0.055,39.525,9.9,-10.65,,0.01680000000000037,1.0573657881736103,0.9606406842039857,backward_fall
2.905759,0.7966,0.4517,-0.5286,0.0612,0.0848,0.055,39.525,9.9,-10.65,,0.0037679999999999936,1.0573657881736103,0.9282715352709539,backward_fall
2.907247,0.68,0.9971,-0.0537,0.0612,0.0848,0.055,39.525,9.9,-10.65,,0.0014879999999997118,1.2080944085625096,0.8987930419101504,backward_fall
2.920293,0.68,0.9971,-0.0537,0.0612,0.0848,0.055,39.525,9.9,-10.65,,0.013046000000000113,1.2080944085625096,0.8719162745622882,backward_fall
2.923588,0.5405,0.7446,0.4931,0.0612,0.0848,0.055,39.525,9.9,-10.65,,0.003295000000000048,1.0438951192528874,0.8474401767615111,backward_fall
2.93356,0.5405,0.7446,0.4931,-0.0321,0.1092,-0.0218,39.525,9.9,-10.65,,0.00997199999999987,1.0438951192528874,0.8252918467546831,backward_fall
2.943926,0.5405,0.7446,0.4931,-0.0321,0.1092,-0.0218,39.525,9.9,-10.65,,0.010365999999999875,1.0438951192528874,0.8055437928827575,backward_fall
2.94616,0.4157,0.1284,0.8342,-0.0321,0.1092,-0.0218,39.525,9.9,-10.65,,0.0022340000000000693,0.940841479740344,0.7884079255955991,backward_fall
2.963773,0.4157,0.1284,0.8342,-0.0321,0.1092,-0.0218,39.525,9.9,-10.65,,0.017613000000000323,0.940841479740344,0.7742091234737221,backward_fall
2.966109,0.0506,-0.1258,0.1683,-0.0321,0.1092,-0.0218,39.525,9.9,-10.65,,0.0023359999999996717,0.21612702283610905,0.7633439933488025,backward_fall
2.967844,0.0506,-0.1258,0.1683,-0.0321,0.1092,-0.0218,39.825,9.45,-11.325,,0.001735000000000042,0.21612702283610905,0.7562326871017274,backward_fall
2.984156,0.0506,-0.1258,0.1683,-0.0321,0.1092,-0.0218,39.825,9.45,-11.325,,0.016312000000000104,0.21612702283610905,0.7532726776738025,backward_fall
2.986669,-0.157,0.2115,-0.7121,-0.0321,0.1092,-0.0218,39.825,9.45,-11.325,,0.0025129999999999875,0.7592546740060281,0.7548023548054011,backward_fall
3.000775,-0.157,0.2115,-0.7121,-0.0292,0.0904,-0.0405,39.825,9.45,-11.325,,0.014105999999999952,0.7592546740060281,0.761078973224323,backward_fall
3.003263,-0.157,0.2115,-0.7121,-0.0292,0.0904,-0.0405,39.825,9.45,-11.325,,0.0024880000000000457,0.7592546740060281,0.7722709573131809,backward_fall
3.004852,-0.2629,0.9874,-0.8198,-0.0292,0.0904,-0.0405,39.825,9.45,-11.325,,0.0015890000000000626,1.3100180189600448,0.7884605892168923,backward_fall
3.020732,-0.2629,0.9874,-0.8198,-0.0292,0.0904,-0.0405,39.825,9.45,-11.325,,0.015880000000000116,1.3100180189600448,0.8096509047807439,backward_fall
3.023615,-0.3291,0.8584,0.0698,-0.0292,0.0904,-0.0405,39.825,9.45,-11.325,,0.002882999999999747,0.9219703954032363,0.8357705322906648,backward_fall
3.034936,-0.3291,0.8584,0.0698,-0.0292,0.0904,-0.0405,39.75,9.15,-10.575,,0.011321000000000137,0.9219703954032363,0.8666720848317522,backward_fall
3.041908,-0.3291,0.8584,0.0698,-0.0292,0.0904,-0.0405,39.75,9.15,-10.575,,0.006971999999999756,0.9219703954032363,0.9021229610540679,backward_fall
3.043328,-0.415,0.3027,0.3263,-0.0292,0.0904,-0.0405,39.75,9.15,-10.575,,0.0014199999999999768,0.6085425046781859,0.9417908461796243,backward_fall
3.061795,-0.415,0.3027,0.3263,-0.0292,0.0904,-0.0405,39.75,9.15,-10.575,,0.018467000000000233,0.6085425046781859,0.9852286169220323,backward_fall
3.063604,-0.7308,0.3973,-0.3862,-0.0292,0.0904,-0.0405,39.75,9.15,-10.575,,0.0018090000000001716,0.917096707005319,1.031864115388329,backward_fall
3.070192,-0.7308,0.3973,-0.3862,-0.2732,0.1321,-0.0018,39.75,9.15,-10.575,,0.006587999999999816,0.917096707005319,1.080999331433884,backward_fall
3.082091,-0.7308,0.3973,-0.3862,-0.2732,0.1321,-0.0018,39.75,9.15,-10.575,,0.011899000000000104,0.917096707005319,1.1318213100054098,backward_fall
3.083714,-0.8484,1.2468,-0.0899,-0.2732,0.1321,-0.0018,39.75,9.15,-10.575,,0.00162299999999993,1.5107530605628436,1.1834243354168585,backward_fall
3.102888,-0.8484,1.2468,-0.0899,-0.2732,0.1321,-0.0018,39.75,9.15,-10.575,,0.019174000000000024,1.5107530605628436,1.234840464996016,backward_fall
3.103597,-0.5931,1.1083,0.6093,-0.2732,0.1321,-0.0018,39.75,9.15,-10.575,,0.0007090000000000707,1.396904789167823,1.2850739326188954,backward_fall
3.106513,-0.5931,1.1083,0.6093,-0.2732,0.1321,-0.0018,39.525,10.275,-9.6,,0.0029159999999999187,1.396904789167823,1.3331347584267448,backward_fall
3.121039,-0.5931,1.1083,0.6093,-0.2732,0.1321,-0.0018,39.525,10.275,-9.6,,0.014526000000000039,1.396904789167823,1.378068084113035,backward_fall
3.122185,-0.1966,0.9667,0.9398,-0.2732,0.1321,-0.0018,39.525,10.275,-9.6,,0.0011459999999998693,1.3624920146554989,1.4189776344981662,backward_fall
3.135535,-0.1966,0.9667,0.9398,-0.6113,0.0928,0.1271,39.525,10.275,-9.6,,0.013349999999999973,1.3624920146554989,1.455043379850376,backward_fall
3.140683,-0.1966,0.9667,0.9398,-0.6113,0.0928,0.1271,39.525,10.275,-9.6,,0.0051480000000001525,1.3624920146554989,1.4855344283790828,backward_fall
3.142059,-0.0594,1.3985,0.7747,-0.6113,0.0928,0.1271,39.525,10.275,-9.6,,0.0013760000000000439,1.5998408358333651,1.5098183699825554,backward_fall
3.160082,-0.0594,1.3985,0.7747,-0.6113,0.0928,0.1271,39.525,10.275,-9.6,,0.0180229999999999,1.5998408358333651,1.5273679107297236,backward_fall
3.161622,-0.0251,1.1195,1.2792,-0.6113,0.0928,0.1271,39.525,10.275,-9.6,,0.0015399999999998748,1.7000773217709835,1.5377650429595902,backward_fall
3.175839,-0.0251,1.1195,1.2792,-0.6113,0.0928,0.1271,40.125,9.525,-9.15,,0.014216999999999924,1.7000773217709835,1.5407026703944473,backward_fall
3.177551,-0.0251,1.1195,1.2792,-0.6113,0.0928,0.1271,40.125,9.525,-9.15,,0.0017119999999999358,1.7000773217709835,1.5359839230649477,backward_fall
3.178905,-0.0726,0.475,1.0604,-0.6113,0.0928,0.1271,40.125,9.525,-9.15,,0.0013540000000000774,1.1641923895989013,1.5235203965538158,backward_fall
3.201347,-0.0726,0.475,1.0604,-0.6113,0.0928,0.1271,40.125,9.525,-9.15,,0.022442000000000295,1.1641923895989013,1.503331882994243,backward_fall
3.204319,0.4142,0.3359,1.1182,-0.6113,0.0928,0.1271,40.125,9.525,-9.15,,0.0029719999999997526,1.2388549915143419,1.475551095849291,backward_fall
3.207171,0.4142,0.3359,1.1182,-0.9696,0.0336,0.1075,40.125,9.525,-9.15,,0.0028520000000002987,1.2388549915143419,1.440436591858898,backward_fall
3.220652,0.4142,0.3359,1.1182,-0.9696,0.0336,0.1075,40.125,9.525,-9.15,,0.013480999999999632,1.2388549915143419,1.3983952527602241,backward_fall
3.223444,0.481,0.0769,1.1238,-0.9696,0.0336,0.1075,40.125,9.525,-9.15,,0.0027920000000003498,1.2248269469602633,1.3500128375382108,backward_fall
3.238018,0.481,0.0769,1.1238,-0.9696,0.0336,0.1075,40.125,9.525,-9.15,,0.014573999999999643,1.2248269469602633,1.2960881244402247,backward_fall
3.240215,0.1834,0.064,1.9665,-0.9696,0.0336,0.1075,40.125,9.525,-9.15,,0.0021970000000002265,1.9760702948022875,1.237663618608684,backward_fall
3.244879,0.1834,0.064,1.9665,-0.9696,0.0336,0.1075,40.425,9.15,-6.9,,0.0046640000000000015,1.9760702948022875,1.1760441108686188,backward_fall
3.257351,0.1834,0.064,1.9665,-0.9696,0.0336,0.1075,40.425,9.15,-6.9,,0.012471999999999817,1.9760702948022875,1.1127942934364936,non_fall
3.259216,0.2828,0.2544,0.3575,-0.9696,0.0336,0.1075,40.425,9.15,-6.9,,0.0018650000000000055,0.5220167142917935,1.0497091803024012,non_fall
3.271862,0.2828,0.2544,0.3575,-1.0461,0.0837,0.0884,40.425,9.15,-6.9,,0.012646000000000157,0.5220167142917935,0.9887563293352475,non_fall
3.285211,0.2828,0.2544,0.3575,-1.0461,0.0837,0.0884,40.425,9.15,-6.9,,0.013348999999999833,0.5220167142917935,0.931994927857685,non_fall
3.287161,0.4626,0.4437,-0.8363,-1.0461,0.0837,0.0884,40.425,9.15,-6.9,,0.0019500000000003403,1.053691672169805,0.8814807028344233,non_fall
3.303442,0.4626,0.4437,-0.8363,-1.0461,0.0837,0.0884,40.425,9.15,-6.9,,0.016280999999999768,1.053691672169805,0.8391657942696058,non_fall
3.306145,0.4284,0.1481,0.801,-1.0461,0.0837,0.0884,40.425,9.15,-6.9,,0.0027029999999999,0.920359261375687,0.8068004138758329,non_fall
3.3184,0.4284,0.1481,0.801,-1.0461,0.0837,0.0884,39.75,8.175,-5.775,,0.012255000000000127,0.920359261375687,0.7858408930446849,non_fall
3.321044,0.4284,0.1481,0.801,-1.0461,0.0837,0.0884,39.75,8.175,-5.775,,0.0026440000000000907,0.920359261375687,0.7773681884854559,non_fall
3.322537,-0.0604,0.1422,-0.0099,-1.0461,0.0837,0.0884,39.75,8.175,-5.775,,0.0014929999999999666,0.15481282246635772,0.7820218735989292,non_fall
3.340467,-0.0604,0.1422,-0.0099,-1.0461,0.0837,0.0884,39.75,8.175,-5.775,,0.01792999999999978,0.15481282246635772,0.7999559639230727,non_fall
3.342816,-0.3946,-0.1504,-0.4321,-1.0461,0.0837,0.0884,39.75,8.175,-5.775,,0.0023490000000001565,0.6041851785669689,0.8308233080343854,non_fall
3.344645,-0.3946,-0.1504,-0.4321,-1.3037,0.177,0.037,39.75,8.175,-5.775,,0.0018289999999998585,0.6041851785669689,0.8737936730231594,non_fall
3.360207,-0.3946,-0.1504,-0.4321,-1.3037,0.177,0.037,39.75,8.175,-5.775,,0.015562000000000076,0.6041851785669689,0.9276069270499147,non_fall
3.364518,-0.4973,-1.0716,0.2017,-1.3037,0.177,0.037,39.75,8.175,-5.775,,0.004310999999999954,1.1984643257101983,0.9906579279037411,non_fall
3.381249,-0.4973,-1.0716,0.2017,-1.3037,0.177,0.037,39.75,8.175,-5.775,,0.01673100000000005,1.1984643257101983,1.0611052802564631,non_fall
3.3834,-0.0853,-1.6865,-0.0188,-1.3037,0.177,0.037,39.75,8.175,-5.775,,0.002151000000000014,1.6887604270588532,1.1369929283363909,non_fall
3.385474,-0.0853,-1.6865,-0.0188,-1.3037,0.177,0.037,40.05,7.2,-4.575,,0.0020739999999999092,1.6887604270588532,1.2163721034023858,non_fall
3.401115,-0.0853,-1.6865,-0.0188,-1.3037,0.177,0.037,40.05,7.2,-4.575,,0.015641000000000016,1.6887604270588532,1.2974118194500184,non_fall
3.402915,0.0753,-0.9637,-0.529,-1.3037,0.177,0.037,40.05,7.2,-4.575,,0.0018000000000002458,1.1019204962246596,1.3784888967927784,non_fall
3.416954,0.0753,-0.9637,-0.529,-1.042,0.1556,-0.0017,40.05,7.2,-4.575,,0.014038999999999913,1.1019204962246596,1.458252620008519,non_fall
3.418707,0.0753,-0.9637,-0.529,-1.042,0.1556,-0.0017,40.05,7.2,-4.575,,0.0017529999999998935,1.1019204962246596,1.5356630633491,non_fall
3.419978,0.2151,0.2117,-2.1085,-1.042,0.1556,-0.0017,40.05,7.2,-4.575,,0.0012710000000000221,2.129989941290803,1.6100041864734587,non_fall
3.442859,0.2151,0.2117,-2.1085,-1.042,0.1556,-0.0017,40.05,7.2,-4.575,,0.02288099999999993,2.129989941290803,1.680872452284228,non_fall
3.444318,0.2122,0.2826,-2.3241,-1.042,0.1556,-0.0017,40.05,7.2,-4.575,,0.001459000000000099,2.350815264966603,1.7481402136737936,non_fall
3.455937,0.2122,0.2826,-2.3241,-1.042,0.1556,-0.0017,40.125,7.35,-3.75,,0.011619000000000046,2.350815264966603,1.8118927528262379,non_fall
3.460787,0.2122,0.2826,-2.3241,-1.042,0.1556,-0.0017,40.125,7.35,-3.75,,0.004849999999999799,2.350815264966603,1.8723401686894403,non_fall
3.463101,0.0319,-0.6438,-1.1613,-1.042,0.1556,-0.0017,40.125,7.35,-3.75,,0.0023140000000001493,1.328199435325885,1.929710084192246,non_fall
3.47733,0.0319,-0.6438,-1.1613,-1.042,0.1556,-0.0017,40.125,7.35,-3.75,,0.014228999999999825,1.328199435325885,1.9841328444633954,non_fall
3.479401,-0.0042,-0.9907,-0.7953,-1.042,0.1556,-0.0017,40.125,7.35,-3.75,,0.002071000000000378,1.270435445034497,2.035535376783684,non_fall
3.487913,-0.0042,-0.9907,-0.7953,-0.6229,0.0846,-0.0313,40.125,7.35,-3.75,,0.008511999999999631,1.270435445034497,2.0835611426464444,non_fall
3.501575,-0.0042,-0.9907,-0.7953,-0.6229,0.0846,-0.0313,40.125,7.35,-3.75,,0.013662000000000063,1.270435445034497,2.127530645802691,non_fall
3.503869,-0.1232,-0.9014,-2.1244,-0.6229,0.0846,-0.0313,40.125,7.35,-3.75,,0.0022940000000000182,2.3110118043835257,2.1664504052010756,non_fall
3.516699,-0.1232,-0.9014,-2.1244,-0.6229,0.0846,-0.0313,40.125,7.35,-3.75,,0.012830000000000119,2.3110118043835257,2.1990699111636465,non_fall
3.520095,-0.157,-1.1833,-2.5196,-0.6229,0.0846,-0.0313,40.125,7.35,-3.75,,0.0033959999999999546,2.78805165841668,2.223977990650323,non_fall
3.526041,-0.157,-1.1833,-2.5196,-0.6229,0.0846,-0.0313,40.35,6.825,-3.0,,0.005946000000000229,2.78805165841668,2.2397242914639848,non_fall
3.541109,-0.157,-1.1833,-2.5196,-0.6229,0.0846,-0.0313,40.35,6.825,-3.0,,0.01506799999999986,2.78805165841668,2.244949611804014,non_fall
3.543588,0.0769,-1.643,-1.3507,-0.6229,0.0846,-0.0313,40.35,6.825,-3.0,,0.00247900000000012,2.1283216627192423,2.23851055977863,non_fall
3.555175,0.0769,-1.643,-1.3507,0.1733,0.0397,0.0742,40.35,6.825,-3.0,,0.011587000000000014,2.1283216627192423,2.2195882991602245,non_fall
3.56012,0.0769,-1.643,-1.3507,0.1733,0.0397,0.0742,40.35,6.825,-3.0,,0.004944999999999755,2.1283216627192423,2.1877760408050446,non_fall
3.561798,0.1433,-2.093,-0.4366,0.1733,0.0397,0.0742,40.35,6.825,-3.0,,0.0016780000000000683,2.1428493764144974,2.143143685092206,non_fall
3.574967,0.1433,-2.093,-0.4366,0.1733,0.0397,0.0742,40.35,6.825,-3.0,,0.013168999999999986,2.1428493764144974,2.086279784739865,non_fall
3.57727,-0.0525,-1.6263,-0.7989,0.1733,0.0397,0.0742,40.35,6.825,-3.0,,0.002302999999999944,1.8126911347496575,2.018311218492714,non_fall
3.59485,-0.0525,-1.6263,-0.7989,0.1733,0.0397,0.0742,40.35,6.825,-3.0,,0.01758000000000015,1.8126911347496575,1.9409005898635472,non_fall
3.598164,-0.1833,-1.0411,-1.8304,0.1733,0.0397,0.0742,40.35,6.825,-3.0,,0.003314000000000039,2.1137294670794557,1.8562208940688596,non_fall
3.600271,-0.1833,-1.0411,-1.8304,0.1733,0.0397,0.0742,41.025,6.45,-3.675,,0.002107000000000081,2.1137294670794557,1.7669064439256708,non_fall
3.615288,-0.1833,-1.0411,-1.8304,0.1733,0.0397,0.0742,41.025,6.45,-3.675,,0.015016999999999836,2.1137294670794557,1.6759786256392644,non_fall
3.616843,-0.0517,-0.2314,-1.7046,0.1733,0.0397,0.0742,41.025,6.45,-3.675,,0.001554999999999751,1.7210113334897013,1.5867454871578646,non_fall
3.625376,-0.0517,-0.2314,-1.7046,1.0723,-0.1778,0.1674,41.025,6.45,-3.675,,0.008533000000000346,1.7210113334897013,1.5026760511480985,non_fall
3.639888,-0.0517,-0.2314,-1.7046,1.0723,-0.1778,0.1674,41.025,6.45,-3.675,,0.014511999999999858,1.7210113334897013,1.4272533762669188,non_fall
3.641768,0.2044,-0.0851,-0.7487,1.0723,-0.1778,0.1674,41.025,6.45,-3.675,,0.0018799999999998818,0.7807515994219929,1.3638138953225714,non_fall
3.659235,0.2044,-0.0851,-0.7487,1.0723,-0.1778,0.1674,41.025,6.45,-3.675,,0.0174669999999999,0.7807515994219929,1.3153835421188977,non_fall
3.660678,0.395,-0.7145,-0.7063,1.0723,-0.1778,0.1674,41.025,6.45,-3.675,,0.001443000000000083,1.0795345941654673,1.284522833740559,non_fall
3.66213,0.395,-0.7145,-0.7063,1.0723,-0.1778,0.1674,41.175,6.075,-3.975,,0.0014520000000000088,1.0795345941654673,1.2731926307268795,non_fall
3.677815,0.395,-0.7145,-0.7063,1.0723,-0.1778,0.1674,41.175,6.075,-3.975,,0.01568499999999995,1.0795345941654673,1.2826496400507463,non_fall
3.680469,0.3159,-1.2703,0.0809,1.0723,-0.1778,0.1674,41.175,6.075,-3.975,,0.0026540000000001562,1.3114875942989321,1.3133768747779346,non_fall
3.692428,0.3159,-1.2703,0.0809,1.1107,-0.1327,0.0125,41.175,6.075,-3.975,,0.011959000000000053,1.3114875942989321,1.3650506221905216,non_fall
3.700532,0.3159,-1.2703,0.0809,1.1107,-0.1327,0.0125,41.175,6.075,-3.975,,0.008103999999999889,1.3114875942989321,1.436542707351776,non_fall
3.702225,0.3367,-1.5223,0.9318,1.1107,-0.1327,0.0125,41.175,6.075,-3.975,,0.0016929999999999445,1.8163191955160305,1.5259549759102395,non_fall
3.717126,0.3367,-1.5223,0.9318,1.1107,-0.1327,0.0125,41.175,6.075,-3.975,,0.014901000000000053,1.8163191955160305,1.6306817868650048,non_fall
3.719648,0.1954,-0.2495,1.705,1.1107,-0.1327,0.0125,41.175,6.075,-3.975,,0.002521999999999913,1.7342019519075627,1.7474958793102264,non_fall
3.726998,0.1954,-0.2495,1.705,1.1107,-0.1327,0.0125,40.425,6.375,-5.4,,0.00735000000000019,1.7342019519075627,1.8726533494649467,non_fall
3.73618,0.1954,-0.2495,1.705,1.1107,-0.1327,0.0125,40.425,6.375,-5.4,,0.009182000000000023,1.7342019519075627,2.0020144678598966,non_fall
3.738077,-0.114,1.3014,1.658,1.1107,-0.1327,0.0125,40.425,6.375,-5.4,,0.0018970000000000375,2.110829685218587,2.1311779760644605,non_fall
3.755743,-0.114,1.3014,1.658,1.1107,-0.1327,0.0125,40.425,6.375,-5.4,,0.017665999999999737,2.110829685218587,2.25562655049834,non_fall
3.757607,-0.4472,1.6786,1.8872,1.1107,-0.1327,0.0125,40.425,6.375,-5.4,,0.0018640000000003099,2.5649970058462057,2.370880160696115,non_fall
3.760524,-0.4472,1.6786,1.8872,0.928,0.0559,-0.0678,40.425,6.375,-5.4,,0.0029170000000000584,2.5649970058462057,2.47265264407488,non_fall
3.770605,-0.4472,1.6786,1.8872,0.928,0.0559,-0.0678,40.425,6.375,-5.4,,0.010081000000000007,2.5649970058462057,2.5570057328019473,non_fall
3.77266,-0.2939,1.1131,2.5394,0.928,0.0559,-0.0678,40.425,6.375,-5.4,,0.002054999999999918,2.788175241981752,2.620494463843236,non_fall
3.7952,-0.2939,1.1131,2.5394,0.928,0.0559,-0.0678,40.425,6.375,-5.4,,0.022539999999999782,2.788175241981752,2.660298369000712,non_fall
3.798682,0.0174,0.9635,2.2271,0.928,0.0559,-0.0678,40.425,6.375,-5.4,,0.003481999999999985,2.4266457137373805,2.6743337624690775,non_fall
3.801269,0.0174,0.9635,2.2271,0.928,0.0559,-0.0678,40.725,7.65,-6.0,,0.002587000000000117,2.4266457137373805,2.661343461009119,non_fall
3.820595,0.0174,0.9635,2.2271,0.928,0.0559,-0.0678,40.725,7.65,-6.0,,0.019325999999999954,2.4266457137373805,2.6209609749925034,non_fall
3.823124,0.1187,2.8512,0.0019,0.928,0.0559,-0.0678,40.725,7.65,-6.0,,0.0025290000000000035,2.8536703979261517,2.553746100714941,non_fall
3.834387,0.1187,2.8512,0.0019,0.3482,-0.0139,0.0263,40.725,7.65,-6.0,,0.011263000000000023,2.8536703979261517,2.4611878083587535,non_fall
3.839347,0.1187,2.8512,0.0019,0.3482,-0.0139,0.0263,40.725,7.65,-6.0,,0.0049600000000000755,2.8536703979261517,2.3456691324978927,non_fall
3.841609,0.0582,2.9536,-0.1605,0.3482,-0.0139,0.0263,40.725,7.65,-6.0,,0.0022619999999999862,2.958530116459861,2.210388777322743,non_fall
3.858502,0.0582,2.9536,-0.1605,0.3482,-0.0139,0.0263,40.725,7.65,-6.0,,0.016893000000000047,2.958530116459861,2.0592363453975078,non_fall
3.860828,0.091,1.3404,0.609,0.3482,-0.0139,0.0263,40.725,7.65,-6.0,,0.0023260000000000502,1.4750708999909123,1.89662265498528,non_fall
3.868636,0.091,1.3404,0.609,0.3482,-0.0139,0.0263,40.65,8.1,-5.85,,0.007807999999999815,1.4750708999909123,1.7272728708720222,non_fall
3.878363,0.091,1.3404,0.609,0.3482,-0.0139,0.0263,40.65,8.1,-5.85,,0.009726999999999819,1.4750708999909123,1.555996574400466,non_fall
3.880101,-0.167,0.1924,0.7021,0.3482,-0.0139,0.0263,40.65,8.1,-5.85,,0.0017380000000000173,0.7468943499585466,1.3874533409044238,non_fall
3.897973,-0.167,0.1924,0.7021,0.3482,-0.0139,0.0263,40.65,8.1,-5.85,,0.01787200000000011,0.7468943499585466,1.2259335830793263,non_fall
3.900295,-0.2226,0.1317,-0.0895,0.3482,-0.0139,0.0263,40.65,8.1,-5.85,,0.0023219999999999352,0.273689422521222,1.075172618900242,non_fall
3.902442,-0.2226,0.1317,-0.0895,-0.0347,-0.0334,0.0764,40.65,8.1,-5.85,,0.002147000000000343,0.273689422521222,0.9382119974938037,non_fall
3.917819,-0.2226,0.1317,-0.0895,-0.0347,-0.0334,0.0764,40.65,8.1,-5.85,,0.015376999999999974,0.273689422521222,0.8173165220100399,non_fall
3.921112,-0.0814,0.8126,-0.8012,-0.0347,-0.0334,0.0764,40.65,8.1,-5.85,,0.0032929999999997683,1.1440568866975103,0.7139484658191511,non_fall
3.93759,-0.0814,0.8126,-0.8012,-0.0347,-0.0334,0.0764,40.65,8.325,-6.3,,0.016478000000000215,1.1440568866975103,0.6287931075367624,non_fall
3.940317,-0.0814,0.8126,-0.8012,-0.0347,-0.0334,0.0764,40.65,8.325,-6.3,,0.002726999999999702,1.1440568866975103,0.5618236411001887,non_fall
3.942317,0.1358,0.6051,-0.5764,-0.0347,-0.0334,0.0764,40.65,8.325,-6.3,,0.002000000000000224,0.8466549533310486,0.5123906385325695,non_fall
3.956227,0.1358,0.6051,-0.5764,-0.0347,-0.0334,0.0764,40.65,8.325,-6.3,,0.013910000000000089,0.8466549533310486,0.4793223402702294,non_fall
3.958694,0.0596,0.1458,-0.0679,-0.0347,-0.0334,0.0764,40.65,8.325,-6.3,,0.002466999999999775,0.17152320542713748,0.4610261408700833,non_fall
3.97059,0.0596,0.1458,-0.0679,0.0029,0.0044,0.0319,40.65,8.325,-6.3,,0.011896000000000129,0.17152320542713748,0.45558669318179085,non_fall
3.975978,0.0596,0.1458,-0.0679,0.0029,0.0044,0.0319,40.65,8.325,-6.3,,0.005387999999999948,0.17152320542713748,0.4608601372949382,non_fall
3.97758,0.2793,-0.3394,0.1771,0.0029,0.0044,0.0319,40.65,8.325,-6.3,,0.0016020000000001033,0.4738831712563762,0.4745658643318839,non_fall
3.995226,0.2793,-0.3394,0.1771,0.0029,0.0044,0.0319,40.65,8.325,-6.3,,0.01764600000000005,0.4738831712563762,0.49437677396146196,non_fall
3.997875,0.3687,-0.435,0.3944,0.0029,0.0044,0.0319,40.65,8.325,-6.3,,0.0026489999999999014,0.693336895022903,0.518007082708962,non_fall
4.006658,0.3687,-0.435,0.3944,0.0029,0.0044,0.0319,40.95,8.1,-6.45,,0.008782999999999763,0.693336895022903,0.5432947751442128,non_fall
4.017557,0.3687,-0.435,0.3944,0.0029,0.0044,0.0319,40.95,8.1,-6.45,,0.010899000000000214,0.693336895022903,0.5682747565458179,non_fall
4.021183,0.0788,-0.4081,0.5389,0.0029,0.0044,0.0319,40.95,8.1,-6.45,,0.003625999999999685,0.6805646626148025,0.5912389115040088,non_fall
4.034457,0.0788,-0.4081,0.5389,0.0029,0.0044,0.0319,40.95,8.1,-6.45,,0.013274000000000008,0.6805646626148025,0.6107803127824247,non_fall
4.036478,-0.0067,-0.4299,0.4323,0.0029,0.0044,0.0319,40.95,8.1,-6.45,,0.0020210000000000505,0.6097066425749353,0.6258202719785633,non_fall
4.039143,-0.0067,-0.4299,0.4323,-0.0276,-0.0073,-0.0409,40.95,8.1,-6.45,,0.0026650000000003615,0.6097066425749353,0.6356183316486219,non_fall
4.054877,-0.0067,-0.4299,0.4323,-0.0276,-0.0073,-0.0409,40.95,8.1,-6.45,,0.015734000000000137,0.6097066425749353,0.6397663807550706,non_fall
4.058045,-0.0058,-0.6694,0.3096,-0.0276,-0.0073,-0.0409,40.95,8.1,-6.45,,0.0031679999999996156,0.737551462611254,0.6381687128450599,non_fall
4.070224,-0.0058,-0.6694,0.3096,-0.0276,-0.0073,-0.0409,40.95,8.1,-6.45,,0.012178999999999718,0.737551462611254,0.6310100936500301,non_fall
4.073372,-0.1351,-0.5666,0.0529,-0.0276,-0.0073,-0.0409,40.95,8.1,-6.45,,0.0031480000000003727,0.5848811674177926,0.6187140026852385,non_fall
4.075203,-0.1351,-0.5666,0.0529,-0.0276,-0.0073,-0.0409,41.25,8.475,-6.075,,0.001831000000000138,0.5848811674177926,0.6018934539201275,non_fall
4.093421,-0.1351,-0.5666,0.0529,-0.0276,-0.0073,-0.0409,41.25,8.475,-6.075,,0.018218000000000067,0.5848811674177926,0.5812972605323791,non_fall
4.095677,-0.2009,-0.381,-0.0239,-0.0276,-0.0073,-0.0409,41.25,8.475,-6.075,,0.0022560000000000358,0.431385002057327,0.5577550743073946,non_fall
4.107875,-0.2009,-0.381,-0.0239,-0.0473,-0.0194,-0.0122,41.25,8.475,-6.075,,0.012197999999999709,0.431385002057327,0.5321247338549016,non_fall
4.114139,-0.2009,-0.381,-0.0239,-0.0473,-0.0194,-0.0122,41.25,8.475,-6.075,,0.006263999999999825,0.431385002057327,0.505245281420396,non_fall
4.116236,-0.0813,-0.313,-0.0517,-0.0473,-0.0194,-0.0122,41.25,8.475,-6.075,,0.0020970000000000155,0.32749287015139733,0.4778984519290244,non_fall
4.133467,-0.0813,-0.313,-0.0517,-0.0473,-0.0194,-0.0122,41.25,8.475,-6.075,,0.017230999999999774,0.32749287015139733,0.45078053905409776,non_fall
4.137589,-0.0326,-0.4316,0.0431,-0.0473,-0.0194,-0.0122,41.25,8.475,-6.075,,0.004122000000000625,0.4349700334505815,0.42448538916393297,non_fall
4.144706,-0.0326,-0.4316,0.0431,-0.0473,-0.0194,-0.0122,40.35,7.65,-6.075,,0.00711700000000004,0.4349700334505815,0.3994979938662247,non_fall
4.153083,-0.0326,-0.4316,0.0431,-0.0473,-0.0194,-0.0122,40.35,7.65,-6.075,,0.008376999999999413,0.4349700334505815,0.37619693713623165,non_fall
4.15477,-0.0433,-0.4846,0.0368,-0.0473,-0.0194,-0.0122,40.35,7.65,-6.075,,0.0016870000000004381,0.4879203726019236,0.35486307634878633,non_fall
4.170196,-0.0433,-0.4846,0.0368,-0.0473,-0.0194,-0.0122,40.35,7.65,-6.075,,0.015425999999999718,0.4879203726019236,0.3356915311714629,non_fall
4.173124,0.0463,-0.2637,0.0825,-0.0473,-0.0194,-0.0122,40.35,7.65,-6.075,,0.0029279999999998196,0.2801564384410967,0.31880437498011693,non_fall
4.176457,0.0463,-0.2637,0.0825,-0.0018,-0.0098,0.0218,40.35,7.65,-6.075,,0.0033330000000004745,0.2801564384410967,0.3042622396892189,non_fall
4.191047,0.0463,-0.2637,0.0825,-0.0018,-0.0098,0.0218,40.35,7.65,-6.075,,0.014590000000000103,0.2801564384410967,0.2920740651707356,non_fall
4.193198,0.1496,0.1609,0.0172,-0.0018,-0.0098,0.0218,40.35,7.65,-6.075,,0.00215099999999957,0.22037424985691953,0.28220506092669456,non_fall
4.215332,0.1496,0.1609,0.0172,-0.0018,-0.0098,0.0218,40.35,7.65,-6.075,,0.02213400000000032,0.22037424985691953,0.27458333123606127,non_fall
4.217667,-0.0187,0.3482,-0.06,-0.0018,-0.0098,0.0218,40.35,7.65,-6.075,,0.002334999999999532,0.3538261296173588,0.26910555545591547,non_fall
4.219118,-0.0187,0.3482,-0.06,-0.0018,-0.0098,0.0218,40.725,8.55,-6.375,,0.0014510000000003132,0.3538261296173588,0.26564181443281054,non_fall
4.238903,-0.0187,0.3482,-0.06,-0.0018,-0.0098,0.0218,40.725,8.55,-6.375,,0.01978499999999972,0.3538261296173588,0.26403937455317766,non_fall
4.242555,-0.0202,0.1144,0.1332,-0.0018,-0.0098,0.0218,40.725,8.55,-6.375,,0.0036520000000006547,0.1767417324799098,0.2641252420445913,non_fall
4.251065,-0.0202,0.1144,0.1332,0.0452,-0.0102,-0.0057,40.725,8.55,-6.375,,0.008509999999999351,0.1767417324799098,0.26570767830323794,non_fall
4.254457,-0.0202,0.1144,0.1332,0.0452,-0.0102,-0.0057,40.725,8.55,-6.375,,0.0033920000000007278,0.1767417324799098,0.26857739051171,non_fall
4.256013,0.0362,0.0602,0.2477,0.0452,-0.0102,-0.0057,40.725,8.55,-6.375,,0.0015559999999998908,0.25746799801140335,0.27250935542937027,non_fall
4.270075,0.0362,0.0602,0.2477,0.0452,-0.0102,-0.0057,40.725,8.55,-6.375,,0.014062000000000019,0.25746799801140335,0.2772659551068741,non_fall
4.272005,0.1413,0.2897,0.1749,0.0452,-0.0102,-0.0057,40.725,8.55,-6.375,,0.0019299999999997652,0.3667175888882343,0.282601443182908,non_fall
4.285672,0.1413,0.2897,0.1749,0.0452,-0.0102,-0.0057,40.725,8.475,-6.225,,0.013666999999999874,0.3667175888882343,0.28826708850262883,non_fall
4.293749,0.1413,0.2897,0.1749,0.0452,-0.0102,-0.0057,40.725,8.475,-6.225,,0.008077000000000112,0.3667175888882343,0.2940159822553321,non_fall
4.295242,0.0968,0.3294,0.0486,0.0452,-0.0102,-0.0057,40.725,8.475,-6.225,,0.0014929999999999666,0.3467514383531812,0.29960658986568034,non_fall
4.313963,0.0968,0.3294,0.0486,0.0452,-0.0102,-0.0057,40.725,8.475,-6.225,,0.01872100000000021,0.3467514383531812,0.30480463823365456,non_fall
4.318523,-0.0005,0.1314,0.1213,0.0452,-0.0102,-0.0057,40.725,8.475,-6.225,,0.004559999999999675,0.17882924816707138,0.3093836663684079,non_fall
4.321161,-0.0005,0.1314,0.1213,0.0339,0.0003,-0.0053,40.725,8.475,-6.225,,0.0026380000000001402,0.17882924816707138,0.31312526900798887,non_fall
4.336441,-0.0005,0.1314,0.1213,0.0339,0.0003,-0.0053,40.725,8.475,-6.225,,0.015279999999999738,0.17882924816707138,0.3158204407338303,non_fall
4.339526,0.0091,-0.139,0.3492,0.0339,0.0003,-0.0053,40.725,8.475,-6.225,,0.0030850000000004485,0.37595804287180773,0.3172732424089553,non_fall
4.352344,0.0091,-0.139,0.3492,0.0339,0.0003,-0.0053,40.725,8.475,-6.225,,0.012818000000000218,0.37595804287180773,0.3173072445902911,non_fall
4.354394,-0.0146,-0.3156,0.1747,0.0339,0.0003,-0.0053,40.725,8.475,-6.225,,0.002049999999999663,0.36102161985122166,0.315774191887109,non_fall
4.356026,-0.0146,-0.3156,0.1747,0.0339,0.0003,-0.0053,40.725,8.4,-6.225,,0.0016319999999998558,0.36102161985122166,0.3125635942057078,non_fall
4.369963,-0.0146,-0.3156,0.1747,0.0339,0.0003,-0.0053,40.725,8.4,-6.225,,0.01393700000000031,0.36102161985122166,0.30761178726254546,non_fall
4.372083,-0.069,-0.2295,-0.1056,0.0339,0.0003,-0.0053,40.725,8.4,-6.225,,0.0021199999999996777,0.2618828173057561,0.3009093300172304,non_fall
4.386746,-0.069,-0.2295,-0.1056,0.035,-0.0072,-0.009,40.725,8.4,-6.225,,0.014662999999999649,0.2618828173057561,0.2925061331292322,non_fall
4.391341,-0.069,-0.2295,-0.1056,0.035,-0.0072,-0.009,40.725,8.4,-6.225,,0.004595000000000127,0.2618828173057561,0.2825141802324562,non_fall
4.393164,-0.0931,-0.1352,0.1206,0.035,-0.0072,-0.009,40.725,8.4,-6.225,,0.001822999999999908,0.20369342159235285,0.27110794773118646,non_fall
4.411122,-0.0931,-0.1352,0.1206,0.035,-0.0072,-0.009,40.725,8.4,-6.225,,0.01795800000000014,0.20369342159235285,0.25852258711192555,non_fall
4.413669,-0.0287,-0.2188,0.2938,0.035,-0.0072,-0.009,40.725,8.4,-6.225,,0.002546999999999855,0.3674446488928639,0.2450496511890994,non_fall
4.425368,-0.0287,-0.2188,0.2938,0.035,-0.0072,-0.009,40.65,8.1,-6.3,,0.011699000000000126,0.3674446488928639,0.2310297546550364,non_fall
4.433012,-0.0287,-0.2188,0.2938,0.035,-0.0072,-0.009,40.65,8.1,-6.3,,0.007643999999999984,0.3674446488928639,0.21684129477453254,non_fall
4.436254,0.0587,-0.205,0.0868,0.035,-0.0072,-0.009,40.65,8.1,-6.3,,0.003242000000000189,0.23022799569122776,0.20288452638388693,non_fall
4.4525,0.0587,-0.205,0.0868,0.035,-0.0072,-0.009,40.65,8.1,-6.3,,0.01624599999999976,0.23022799569122776,0.18956104721522427,non_fall
4.455836,0.0376,0.0049,0.0126,0.035,-0.0072,-0.009,40.65,8.1,-6.3,,0.0033360000000000056,0.03995660145708091,0.17724991204218063,non_fall
4.460297,0.0376,0.0049,0.0126,0.0591,0.0063,-0.0124,40.65,8.1,-6.3,,0.004461000000000048,0.03995660145708091,0.16628270031186052,non_fall
4.470374,0.0376,0.0049,0.0126,0.0591,0.0063,-0.0124,40.65,8.1,-6.3,,0.010076999999999892,0.03995660145708091,0.15692047012939736,non_fall
4.472583,0.0217,0.1303,0.0587,0.0591,0.0063,-0.0124,40.65,8.1,-6.3,,0.0022090000000005716,0.1445498875821078,0.1493354158036445,non_fall
4.494166,0.0217,0.1303,0.0587,0.0591,0.0063,-0.0124,40.65,8.1,-6.3,,0.021582999999999686,0.1445498875821078,0.14359928020864715,non_fall
4.496159,0.0432,-0.0026,0.0819,0.0591,0.0063,-0.0124,40.65,8.1,-6.3,,0.0019929999999996895,0.09263158208732053,0.13967950634671625,non_fall
4.497765,0.0432,-0.0026,0.0819,0.0591,0.0063,-0.0124,41.025,8.4,-6.75,,0.0016060000000006625,0.09263158208732053,0.13744315997722345,non_fall
4.518352,0.0432,-0.0026,0.0819,0.0591,0.0063,-0.0124,41.025,8.4,-6.75,,0.02058699999999991,0.09263158208732053,0.13666801022524827,non_fall
4.520758,-0.0799,-0.0362,0.1502,0.0591,0.0063,-0.0124,41.025,8.4,-6.75,,0.002405999999999686,0.17393817867276867,0.13705972193437907,non_fall
4.528193,-0.0799,-0.0362,0.1502,0.0263,0.0017,-0.0058,41.025,8.4,-6.75,,0.00743500000000008,0.17393817867276867,0.13827372851630165,non_fall
4.535248,-0.0799,-0.0362,0.1502,0.0263,0.0017,-0.0058,41.025,8.4,-6.75,,0.0070550000000002555,0.17393817867276867,0.13994000993737024,non_fall
4.537488,-0.0282,0.1057,-0.0414,0.0263,0.0017,-0.0058,41.025,8.4,-6.75,,0.0022399999999995757,0.11696875651215584,0.1416888240927497,non_fall
4.553226,-0.0282,0.1057,-0.0414,0.0263,0.0017,-0.0058,41.025,8.4,-6.75,,0.015738000000000696,0.11696875651215584,0.14317549920395542,non_fall
4.556416,-0.0703,0.0785,0.2192,0.0263,0.0017,-0.0058,41.025,8.4,-6.75,,0.003189999999999138,0.24321385651315183,0.14410259230565456,non_fall
4.568343,-0.0703,0.0785,0.2192,0.0263,0.0017,-0.0058,40.95,8.55,-6.45,,0.011927000000000021,0.24321385651315183,0.14423790464113465,non_fall
4.570055,-0.0703,0.0785,0.2192,0.0263,0.0017,-0.0058,40.95,8.55,-6.45,,0.0017120000000003799,0.24321385651315183,0.14342702248843692,non_fall
4.57113,-0.035,-0.0612,0.1037,0.0263,0.0017,-0.0058,40.95,8.55,-6.45,,0.0010750000000001592,0.12539589307469365,0.14159940315243683,non_fall
4.591988,-0.035,-0.0612,0.1037,0.0263,0.0017,-0.0058,40.95,8.55,-6.45,,0.0208579999999996,0.12539589307469365,0.13876767733165615,non_fall
4.594507,-0.0425,-0.1149,0.0292,0.0263,0.0017,-0.0058,40.95,8.55,-6.45,,0.002519000000000382,0.1259400651103532,0.1350206534142115,non_fall
4.602853,-0.0425,-0.1149,0.0292,0.0261,-0.017,0.0024,40.95,8.55,-6.45,,0.00834599999999952,0.1259400651103532,0.1305111818294765,non_fall
4.616504,-0.0425,-0.1149,0.0292,0.0261,-0.017,0.0024,40.95,8.55,-6.45,,0.013651000000000302,0.1259400651103532,0.12544037867374672,non_fall
4.618622,-0.0177,0.0294,0.0971,0.0261,-0.017,0.0024,40.95,8.55,-6.45,,0.0021180000000002863,0.10298572716643799,0.12003976630497423,non_fall
4.631398,-0.0177,0.0294,0.0971,0.0261,-0.017,0.0024,40.95,8.55,-6.45,,0.012775999999999677,0.10298572716643799,0.1145528233100011,non_fall
4.633597,0.0037,0.0117,0.0529,0.0261,-0.017,0.0024,40.95,8.55,-6.45,,0.002199000000000062,0.05430460385639509,0.10921734648333399,non_fall
4.636016,0.0037,0.0117,0.0529,0.0261,-0.017,0.0024,40.95,8.25,-6.75,,0.002418999999999727,0.05430460385639509,0.10424991135388129,non_fall
4.651472,0.0037,0.0117,0.0529,0.0261,-0.017,0.0024,40.95,8.25,-6.75,,0.015456000000000358,0.05430460385639509,0.09983352105893796,non_fall
4.653334,0.0121,-0.0221,0.0796,0.0261,-0.017,0.0024,40.95,8.25,-6.75,,0.0018620000000000303,0.08349239486324489,0.09610920727866314,non_fall
4.667284,0.0121,-0.0221,0.0796,0.024,-0.0119,0.0024,40.95,8.25,-6.75,,0.013950000000000351,0.08349239486324489,0.09317189795141666,non_fall
4.67138,0.0121,-0.0221,0.0796,0.024,-0.0119,0.0024,40.95,8.25,-6.75,,0.0040959999999996555,0.08349239486324489,0.09107037496800642,non_fall
4.673214,0.0225,0.0362,0.106,0.024,-0.0119,0.0024,40.95,8.25,-6.75,,0.0018339999999996692,0.11424836979143291,0.0898107209344296,non_fall
4.690311,0.0225,0.0362,0.106,0.024,-0.0119,0.0024,40.95,8.25,-6.75,,0.017097000000000584,0.11424836979143291,0.08936236876631828,non_fall
4.692201,0.0534,0.0932,0.0196,0.024,-0.0119,0.0024,40.95,8.25,-6.75,,0.0018899999999995032,0.1091877282481873,0.08966573861297594,non_fall
4.705916,0.0534,0.0932,0.0196,0.024,-0.0119,0.0024,41.175,8.4,-6.675,,0.013715000000000366,0.1091877282481873,0.0906404662364896,non_fall
4.708432,0.0534,0.0932,0.0196,0.024,-0.0119,0.0024,41.175,8.4,-6.675,,0.0025159999999999627,0.1091877282481873,0.09219337289172003,non_fall
4.710086,0.0177,0.0957,0.0529,0.024,-0.0119,0.0024,41.175,8.4,-6.675,,0.0016540000000002664,0.11077088967774883,0.09422555111688245,non_fall
4.729316,0.0177,0.0957,0.0529,0.024,-0.0119,0.0024,41.175,8.4,-6.675,,0.019229999999999414,0.11077088967774883,0.09663818786100356,non_fall
4.735408,0.004,0.025,0.1102,0.024,-0.0119,0.0024,41.175,8.4,-6.675,,0.006091999999999764,0.11307095117668375,0.09933698274186235,non_fall
4.738899,0.004,0.025,0.1102,0.0005,0.0017,0.0024,41.175,8.4,-6.675,,0.003491000000000355,0.11307095117668375,0.10223523711653057,non_fall
4.752361,0.004,0.025,0.1102,0.0005,0.0017,0.0024,41.175,8.4,-6.675,,0.013461999999999641,0.11307095117668375,0.10525588984303558,non_fall
4.754562,0.0145,-0.0432,0.0862,0.0005,0.0017,0.0024,41.175,8.4,-6.675,,0.0022010000000003416,0.09750348711712828,0.10833295633347709,non_fall
4.769283,0.0145,-0.0432,0.0862,0.0005,0.0017,0.0024,41.175,8.4,-6.675,,0.014720999999999762,0.09750348711712828,0.1114129793688243,non_fall
4.772359,0.027,0.0194,-0.0544,0.0005,0.0017,0.0024,41.175,8.4,-6.675,,0.0030760000000000787,0.06375515665418759,0.11445720047696295,non_fall
4.775584,0.027,0.0194,-0.0544,0.0005,0.0017,0.0024,40.95,8.475,-6.675,,0.0032250000000004775,0.06375515665418759,0.11744517111482616,non_fall
4.787967,0.027,0.0194,-0.0544,0.0005,0.0017,0.0024,40.95,8.475,-6.675,,0.01238299999999981,0.06375515665418759,0.12038039643360605,non_fall
4.790056,-0.0011,0.1103,0.014,0.0005,0.0017,0.0024,40.95,8.475,-6.675,,0.0020889999999997855,0.1111903772814896,0.12329830668560952,non_fall
4.803272,-0.0011,0.1103,0.014,-0.0153,0.0032,0.0072,40.95,8.475,-6.675,,0.013215999999999894,0.1111903772814896,0.12627639694472023,non_fall
4.808572,-0.0011,0.1103,0.014,-0.0153,0.0032,0.0072,40.95,8.475,-6.675,,0.005300000000000082,0.1111903772814896,0.12944585015090185,non_fall
4.809918,-0.0772,0.058,0.161,-0.0153,0.0032,0.0072,40.95,8.475,-6.675,,0.0013459999999998473,0.1877360913623164,0.1330034824237176,non_fall
4.828315,-0.0772,0.058,0.161,-0.0153,0.0032,0.0072,40.95,8.475,-6.675,,0.01839700000000022,0.1877360913623164,0.13722251554647566,non_fall
4.830087,-0.1293,-0.0033,0.1148,-0.0153,0.0032,0.0072,40.95,8.475,-6.675,,0.0017719999999998848,0.1729405100027174,0.14246054145915885,non_fall
4.846157,-0.1293,-0.0033,0.1148,-0.0153,0.0032,0.0072,40.425,8.55,-6.75,,0.01607000000000003,0.1729405100027174,0.14916313085511484,non_fall
4.848128,-0.1293,-0.0033,0.1148,-0.0153,0.0032,0.0072,40.425,8.55,-6.75,,0.001971000000000167,0.1729405100027174,0.15786183824592312,non_fall
4.84959,-0.0586,0.0832,0.1018,-0.0153,0.0032,0.0072,40.425,8.55,-6.75,,0.0014620000000000744,0.14394248851537894,0.1691657691848976,non_fall
4.872076,-0.0586,0.0832,0.1018,-0.0153,0.0032,0.0072,40.425,8.55,-6.75,,0.022485999999999784,0.14394248851537894,0.18374626025120105,non_fall
4.874189,0.1087,0.3606,0.0645,-0.0153,0.0032,0.0072,40.425,8.55,-6.75,,0.0021130000000004756,0.38211032438289333,0.20231447773890449,non_fall
4.875642,0.1087,0.3606,0.0645,-0.0053,0.0069,0.0191,40.425,8.55,-6.75,,0.0014529999999997045,0.38211032438289333,0.22559187675126235,non_fall
4.892519,0.1087,0.3606,0.0645,-0.0053,0.0069,0.0191,40.425,8.55,-6.75,,0.01687700000000003,0.38211032438289333,0.25427366963324954,non_fall
4.895523,0.0427,0.3265,-0.2166,-0.0053,0.0069,0.0191,40.425,8.55,-6.75,,0.0030039999999997846,0.3941333530672075,0.2889860425148371,non_fall
4.910987,0.0427,0.3265,-0.2166,-0.0053,0.0069,0.0191,40.425,8.55,-6.75,,0.015464000000000588,0.3941333530672075,0.33023898927236045,non_fall
4.914811,-0.0958,0.1643,-0.0679,-0.0053,0.0069,0.0191,40.425,8.55,-6.75,,0.0038239999999998275,0.20194687420210297,0.3783781119013383,non_fall
4.918051,-0.0958,0.1643,-0.0679,-0.0053,0.0069,0.0191,41.25,8.475,-6.45,,0.0032399999999999096,0.20194687420210297,0.4335401314578486,non_fall
4.937867,-0.0958,0.1643,-0.0679,-0.0053,0.0069,0.0191,41.25,8.475,-6.45,,0.01981599999999961,0.20194687420210297,0.49561767751656566,non_fall
4.940994,0.0063,0.2821,0.1764,-0.0053,0.0069,0.0191,41.25,8.475,-6.45,,0.003127000000000102,0.3327717836596126,0.5642387487875821,non_fall
4.943737,0.0063,0.2821,0.1764,-0.0646,0.0623,0.0157,41.25,8.475,-6.45,,0.002742999999999718,0.3327717836596126,0.6387648639552784,non_fall
4.950078,0.0063,0.2821,0.1764,-0.0646,0.0623,0.0157,41.25,8.475,-6.45,,0.006341000000000818,0.3327717836596126,0.718309513311781,non_fall
4.95133,0.207,0.7031,0.6518,-0.0646,0.0623,0.0157,41.25,8.475,-6.45,,0.0012519999999991427,0.9808373208641685,0.8017754661094629,non_fall
4.969265,0.207,0.7031,0.6518,-0.0646,0.0623,0.0157,41.25,8.475,-6.45,,0.01793500000000048,0.9808373208641685,0.8879062072121265,non_fall
4.97189,0.2573,1.717,0.4325,-0.0646,0.0623,0.0157,41.25,8.475,-6.45,,0.0026250000000000995,1.7892312706858218,0.975343850123167,non_fall
4.985561,0.2573,1.717,0.4325,-0.0646,0.0623,0.0157,41.625,7.8,-5.925,,0.013670999999999545,1.7892312706858218,1.0626842389154638,non_fall
4.98829,0.2573,1.717,0.4325,-0.0646,0.0623,0.0157,41.625,7.8,-5.925,,0.0027290000000004255,1.7892312706858218,1.1485206716309107,non_fall
4.989851,0.0802,1.0898,-0.0876,-0.0646,0.0623,0.0157,41.625,7.8,-5.925,,0.0015609999999997015,1.0962526351165593,1.2314713065959084,non_fall
5.007729,0.0802,1.0898,-0.0876,-0.0646,0.0623,0.0157,41.625,7.8,-5.925,,0.017878000000000505,1.0962526351165593,1.3101912556443889,non_fall
5.00998,-0.1061,-0.0885,0.4684,-0.0646,0.0623,0.0157,41.625,7.8,-5.925,,0.002250999999999337,0.48835235230312957,1.3833767249223823,non_fall
5.017183,-0.1061,-0.0885,0.4684,-0.2932,0.234,-0.0217,41.625,7.8,-5.925,,0.0072030000000005145,0.48835235230312957,1.449772859731842,non_fall
5.027018,-0.1061,-0.0885,0.4684,-0.2932,0.234,-0.0217,41.625,7.8,-5.925,,0.009834999999999816,0.48835235230312957,1.5081973231801293,non_fall
5.028623,0.1896,-0.5213,1.5992,-0.2932,0.234,-0.0217,41.625,7.8,-5.925,,0.0016049999999996345,1.6926731787323859,1.5575875642169401,non_fall
5.047997,0.1896,-0.5213,1.5992,-0.2932,0.234,-0.0217,41.625,7.8,-5.925,,0.019374000000000002,1.6926731787323859,1.5970721860955757,non_fall
5.051247,0.7973,0.5179,2.0476,-0.2932,0.234,-0.0217,41.625,7.8,-5.925,,0.0032500000000004192,2.2575591819485044,1.626058202469322,non_fall
5.056301,0.7973,0.5179,2.0476,-0.2932,0.234,-0.0217,40.95,7.2,-4.95,,0.005054000000000336,2.2575591819485044,1.6443192850613217,non_fall
5.067456,0.7973,0.5179,2.0476,-0.2932,0.234,-0.0217,40.95,7.2,-4.95,,0.011154999999999582,2.2575591819485044,1.652067486989879,non_fall
5.068887,0.6743,1.0123,1.7959,-0.2932,0.234,-0.0217,40.95,7.2,-4.95,,0.0014310000000001821,2.169029411972092,1.6499926435128336,non_fall
5.083047,0.6743,1.0123,1.7959,-0.7842,0.2277,0.0024,40.95,7.2,-4.95,,0.014159999999999506,2.169029411972092,1.6392585675801825,non_fall
5.088547,0.6743,1.0123,1.7959,-0.7842,0.2277,0.0024,40.95,7.2,-4.95,,0.0055000000000005045,2.169029411972092,1.6214517439937923,non_fall
5.089835,0.2877,0.6623,0.8895,-0.7842,0.2277,0.0024,40.95,7.2,-4.95,,0.0012879999999997338,1.145697529891725,1.5984852480476643,non_fall
5.112326,0.2877,0.6623,0.8895,-0.7842,0.2277,0.0024,40.95,7.2,-4.95,,0.022491000000000483,1.145697529891725,1.5724671643280153,non_fall
5.113955,-0.0519,0.4025,1.2118,-0.7842,0.2277,0.0024,40.95,7.2,-4.95,,0.0016289999999994365,1.2779511336510485,1.5455478317694664,non_fall
5.121011,-0.0519,0.4025,1.2118,-0.7842,0.2277,0.0024,41.025,5.775,-3.825,,0.007056000000000395,1.2779511336510485,1.5197626105925546,non_fall
5.134023,-0.0519,0.4025,1.2118,-0.7842,0.2277,0.0024,41.025,5.775,-3.825,,0.013011999999999802,1.2779511336510485,1.4968861316153255,non_fall
5.135805,-0.5526,0.31,0.9342,-0.7842,0.2277,0.0024,41.025,5.775,-3.825,,0.0017820000000003944,1.128803082915705,1.4783110940610107,non_fall
5.151079,-0.5526,0.31,0.9342,-0.7842,0.2277,0.0024,41.025,5.775,-3.825,,0.015273999999999788,1.128803082915705,1.4649610867471523,non_fall
5.152838,-0.9197,0.689,0.5808,-0.7842,0.2277,0.0024,41.025,5.775,-3.825,,0.001758999999999844,1.2875937752257114,1.4572433830441467,non_fall
5.154845,-0.9197,0.689,0.5808,-1.1562,0.0872,-0.0009,41.025,5.775,-3.825,,0.00200699999999987,1.2875937752257114,1.455044189749394,non_fall
5.169531,-0.9197,0.689,0.5808,-1.1562,0.0872,-0.0009,41.025,5.775,-3.825,,0.014686000000000199,1.2875937752257114,1.457765339523385,non_fall
5.172199,-1.107,0.7378,0.5485,-1.1562,0.0872,-0.0009,41.025,5.775,-3.825,,0.0026679999999998927,1.4389753611511213,1.4643981290127155,non_fall
5.189289,-1.107,0.7378,0.5485,-1.1562,0.0872,-0.0009,41.025,5.775,-3.825,,0.017089999999999606,1.4389753611511213,1.473627215294349,non_fall
5.191148,-1.2539,0.9121,0.4644,-1.1562,0.0872,-0.0009,41.025,5.775,-3.825,,0.0018590000000004991,1.618597843814207,1.4839553230427158,non_fall
5.192577,-1.2539,0.9121,0.4644,-1.1562,0.0872,-0.0009,40.95,5.175,-3.15,,0.0014289999999999026,1.618597843814207,1.493838029793974,non_fall
5.208541,-1.2539,0.9121,0.4644,-1.1562,0.0872,-0.0009,40.95,5.175,-3.15,,0.01596400000000031,1.618597843814207,1.5018171732171737,non_fall
5.210968,-1.3265,0.8177,1.1944,-1.1562,0.0872,-0.0009,40.95,5.175,-3.15,,0.002426999999999957,1.9633713097628782,1.506641537180469,non_fall
5.223155,-1.3265,0.8177,1.1944,-1.4578,-0.0548,0.0334,40.95,5.175,-3.15,,0.012186999999999948,1.9633713097628782,1.5073644354510547,non_fall
5.228145,-1.3265,0.8177,1.1944,-1.4578,-0.0548,0.0334,40.95,5.175,-3.15,,0.004989999999999384,1.9633713097628782,1.5034096940427004,non_fall
5.230025,-1.1281,1.0639,0.6253,-1.4578,-0.0548,0.0334,40.95,5.175,-3.15,,0.00188000000000077,1.6719727599455683,1.4946005175178172,non_fall
5.2475,-1.1281,1.0639,0.6253,-1.4578,-0.0548,0.0334,40.95,5.175,-3.15,,0.01747499999999924,1.6719727599455683,1.4811497999657295,non_fall
5.250208,-0.4511,1.144,-0.3611,-1.4578,-0.0548,0.0334,40.95,5.175,-3.15,,0.0027080000000001547,1.2816475412530544,1.4636150513966182,non_fall
5.257888,-0.4511,1.144,-0.3611,-1.4578,-0.0548,0.0334,40.95,2.925,-2.4,,0.007680000000000575,1.2816475412530544,1.4428252920864522,non_fall
5.267634,-0.4511,1.144,-0.3611,-1.4578,-0.0548,0.0334,40.95,2.925,-2.4,,0.00974599999999981,1.2816475412530544,1.4197901558142343,non_fall
5.270762,0.2439,0.5079,0.397,-1.4578,-0.0548,0.0334,40.95,2.925,-2.4,,0.0031280000000002417,0.6892449637102908,1.3956026085509199,non_fall
5.286617,0.2439,0.5079,0.397,-1.4578,-0.0548,0.0334,40.95,2.925,-2.4,,0.015854999999999286,0.6892449637102908,1.3713460917958362,non_fall
5.289624,0.1994,0.7868,1.4217,-1.4578,-0.0548,0.0334,40.95,2.925,-2.4,,0.003007000000000204,1.6370844480355924,1.3480145972999968,non_fall
5.293571,0.1994,0.7868,1.4217,-1.6574,-0.1761,-0.0623,40.95,2.925,-2.4,,0.003947000000000145,1.6370844480355924,1.3264503474872342,non_fall
5.307181,0.1994,0.7868,1.4217,-1.6574,-0.1761,-0.0623,40.95,2.925,-2.4,,0.0136099999999999,1.6370844480355924,1.3072993284174483,non_fall
5.309854,0.0673,1.3054,0.4655,-1.6574,-0.1761,-0.0623,40.95,2.925,-2.4,,0.0026729999999997034,1.3875477289088112,1.290981732222054,non_fall
5.321596,0.0673,1.3054,0.4655,-1.6574,-0.1761,-0.0623,40.95,2.925,-2.4,,0.011742000000000807,1.3875477289088112,1.2776738019979355,non_fall
5.323882,-0.1905,1.0376,-0.5288,-1.6574,-0.1761,-0.0623,40.95,2.925,-2.4,,0.002285999999999788,1.1800565452553535,1.2672992896055764,non_fall
5.326105,-0.1905,1.0376,-0.5288,-1.6574,-0.1761,-0.0623,40.875,1.875,-2.7,,0.002222999999999864,1.1800565452553535,1.2595311955571424,non_fall
5.346129,-0.1905,1.0376,-0.5288,-1.6574,-0.1761,-0.0623,40.875,1.875,-2.7,,0.020024000000000264,1.1800565452553535,1.2538063517191183,non_fall
5.348199,-0.2553,0.6567,-0.1385,-1.6574,-0.1761,-0.0623,40.875,1.875,-2.7,,0.0020699999999997942,0.7180635278302331,1.2493562354162597,non_fall
5.360423,-0.2553,0.6567,-0.1385,-1.8489,-0.1686,-0.19,40.875,1.875,-2.7,,0.01222399999999979,0.7180635278302331,1.2452571290678807,non_fall
5.366979,-0.2553,0.6567,-0.1385,-1.8489,-0.1686,-0.19,40.875,1.875,-2.7,,0.006555999999999784,0.7180635278302331,1.2405012669218638,non_fall
5.369369,-0.3643,-0.2326,1.2805,-1.8489,-0.1686,-0.19,40.875,1.875,-2.7,,0.0023900000000001143,1.351479744576292,1.2340876837758703,non_fall
5.384661,-0.3643,-0.2326,1.2805,-1.8489,-0.1686,-0.19,40.875,1.875,-2.7,,0.015292000000000527,1.351479744576292,1.2251272016749526,non_fall
5.387818,0.1288,-0.291,1.8725,-1.8489,-0.1686,-0.19,40.875,1.875,-2.7,,0.0031569999999998544,1.8993490174267604,1.212951392945452,non_fall
5.400859,0.1288,-0.291,1.8725,-1.8489,-0.1686,-0.19,40.575,0.6,-2.85,,0.013040999999999414,1.8993490174267604,1.197212152702881,non_fall
5.403539,0.1288,-0.291,1.8725,-1.8489,-0.1686,-0.19,40.575,0.6,-2.85,,0.002680000000000682,1.8993490174267604,1.177958146459613,non_fall
5.405064,0.6087,0.4716,-0.3261,-1.8489,-0.1686,-0.19,40.575,0.6,-2.85,,0.0015249999999999986,0.8362197438472736,1.1556773219489713,non_fall
5.420336,0.6087,0.4716,-0.3261,-1.8489,-0.1686,-0.19,40.575,0.6,-2.85,,0.015271999999999508,0.8362197438472736,1.131300089010659,non_fall
5.421888,0.9035,0.4689,-0.8067,-1.8489,-0.1686,-0.19,40.575,0.6,-2.85,,0.0015520000000002199,1.2988242182835983,1.1061636990613881,non_fall
5.429155,0.9035,0.4689,-0.8067,-1.7304,-0.0446,-0.159,40.575,0.6,-2.85,,0.00726699999999969,1.2988242182835983,1.0819425634989563,non_fall
5.440577,0.9035,0.4689,-0.8067,-1.7304,-0.0446,-0.159,40.575,0.6,-2.85,,0.011422000000000487,1.2988242182835983,1.0605509260745665,non_fall
5.442479,0.6492,0.3941,0.0366,-1.7304,-0.0446,-0.159,40.575,0.6,-2.85,,0.0019019999999994042,0.7603387468753647,1.044024620275182,non_fall
5.459821,0.6492,0.3941,0.0366,-1.7304,-0.0446,-0.159,40.575,0.6,-2.85,,0.01734200000000019,0.7603387468753647,1.0343891708130772,non_fall
5.461318,0.9489,0.5422,0.3014,-1.7304,-0.0446,-0.159,40.575,0.6,-2.85,,0.0014970000000005257,1.1336816175628852,1.0335224393718199,non_fall
5.46546,0.9489,0.5422,0.3014,-1.7304,-0.0446,-0.159,39.975,-0.525,-2.7,,0.004141999999999868,1.1336816175628852,1.043020449961006,non_fall
5.484026,0.9489,0.5422,0.3014,-1.7304,-0.0446,-0.159,39.975,-0.525,-2.7,,0.01856599999999986,1.1336816175628852,1.0640744923651717,non_fall
5.48586,0.6214,0.3974,0.1696,-1.7304,-0.0446,-0.159,39.975,-0.525,-2.7,,0.0018339999999996692,0.7568545963393497,1.0973667138704515,non_fall
5.498297,0.6214,0.3974,0.1696,-1.804,0.0855,-0.2752,39.975,-0.525,-2.7,,0.012437000000000253,0.7568545963393497,1.1429909070869417,non_fall
5.502767,0.6214,0.3974,0.1696,-1.804,0.0855,-0.2752,39.975,-0.525,-2.7,,0.004470000000000418,0.7568545963393497,1.200404862274287,non_fall
5.504218,-0.2739,0.1602,-1.1373,-1.804,0.0855,-0.2752,39.975,-0.525,-2.7,,0.001450999999999425,1.1807355927556347,1.2684195125107651,non_fall
5.521141,-0.2739,0.1602,-1.1373,-1.804,0.0855,-0.2752,39.975,-0.525,-2.7,,0.016923000000000243,1.1807355927556347,1.345227559715419,non_fall
5.52423,-0.9006,0.1493,-1.2776,-1.804,0.0855,-0.2752,39.975,-0.525,-2.7,,0.0030890000000001194,1.570233297952887,1.4284707474922753,non_fall
5.534993,-0.9006,0.1493,-1.2776,-1.804,0.0855,-0.2752,38.625,-0.225,-1.95,,0.010762999999999856,1.570233297952887,1.5153415182245173,non_fall
5.547394,-0.9006,0.1493,-1.2776,-1.804,0.0855,-0.2752,38.625,-0.225,-1.95,,0.012400999999999662,1.570233297952887,1.6027123742898095,non_fall
5.549822,-1.0908,0.1014,-1.0508,-1.804,0.0855,-0.2752,38.625,-0.225,-1.95,,0.0024280000000000967,1.5179944795683546,1.6872851237644697,non_fall
5.56583,-1.0908,0.1014,-1.0508,-1.804,0.0855,-0.2752,38.625,-0.225,-1.95,,0.016008000000000244,1.5179944795683546,1.765751940026871,non_fall
5.569194,-1.9012,-0.5596,-0.5489,-1.804,0.0855,-0.2752,38.625,-0.225,-1.95,,0.0033640000000003667,2.056454426920276,1.8349600523645089,non_fall
5.571411,-1.9012,-0.5596,-0.5489,-1.8254,-0.2236,-0.359,38.625,-0.225,-1.95,,0.0022169999999999135,2.056454426920276,1.8920713393976658,non_fall
5.58534,-1.9012,-0.5596,-0.5489,-1.8254,-0.2236,-0.359,38.625,-0.225,-1.95,,0.01392900000000008,2.056454426920276,1.9347072435862434,non_fall
5.587573,-2.1081,-0.9059,-0.8894,-1.8254,-0.2236,-0.359,38.625,-0.225,-1.95,,0.0022329999999994854,2.4608479798638516,1.9610689996638282,non_fall
5.604693,-2.1081,-0.9059,-0.8894,-1.8254,-0.2236,-0.359,38.625,-0.225,-1.95,,0.017120000000000246,2.4608479798638516,1.9700238462952433,non_fall
5.607938,-1.4147,-0.5667,-1.7391,-1.8254,-0.2236,-0.359,38.625,-0.225,-1.95,,0.0032449999999997203,2.3123567609692066,1.9611498857755347,non_fall
5.610142,-1.4147,-0.5667,-1.7391,-1.8254,-0.2236,-0.359,36.825,0.3,-2.1,,0.0022039999999998727,2.3123567609692066,1.934735528639451,non_fall
5.620595,-1.4147,-0.5667,-1.7391,-1.8254,-0.2236,-0.359,36.825,0.3,-2.1,,0.010453000000000046,2.3123567609692066,1.891733811135458,non_fall
5.623216,-0.1308,0.1566,-1.1638,-1.8254,-0.2236,-0.359,36.825,0.3,-2.1,,0.0026210000000004285,1.181550946849098,1.833676791421297,non_fall
5.63901,-0.1308,0.1566,-1.1638,-1.2872,-0.3955,-0.2869,36.825,0.3,-2.1,,0.01579399999999964,1.181550946849098,1.7625598580270907,non_fall
5.643759,-0.1308,0.1566,-1.1638,-1.2872,-0.3955,-0.2869,36.825,0.3,-2.1,,0.004749000000000336,1.181550946849098,1.680708929416347,non_fall
5.645286,1.0079,0.4971,-1.4,-1.2872,-0.3955,-0.2869,36.825,0.3,-2.1,,0.00152699999999939,1.795263440278334,1.5906439294198824,non_fall
5.662998,1.0079,0.4971,-1.4,-1.2872,-0.3955,-0.2869,36.825,0.3,-2.1,,0.017712000000000394,1.795263440278334,1.4949493332124255,non_fall
5.664883,0.5798,-0.0759,-1.1556,-1.2872,-0.3955,-0.2869,36.825,0.3,-2.1,,0.0018849999999996925,1.2951216969844956,1.3961585575227917,non_fall
5.675732,0.5798,-0.0759,-1.1556,-1.2872,-0.3955,-0.2869,34.65,1.8,-1.35,,0.01084900000000033,1.2951216969844956,1.2966558811501059,non_fall
5.686097,0.5798,-0.0759,-1.1556,-1.2872,-0.3955,-0.2869,34.65,1.8,-1.35,,0.01036500000000018,1.2951216969844956,1.1985985701975095,non_fall
5.688249,0.1156,0.1044,-0.2717,-1.2872,-0.3955,-0.2869,34.65,1.8,-1.35,,0.0021519999999997097,0.31318302955300753,1.1038622496191484,non_fall
5.702679,0.1156,0.1044,-0.2717,-1.2872,-0.3955,-0.2869,34.65,1.8,-1.35,,0.014429999999999943,0.31318302955300753,1.014012881096388,non_fall
5.705325,0.0968,0.3745,-0.88,-1.2872,-0.3955,-0.2869,34.65,1.8,-1.35,,0.0026460000000003703,0.9612598452031583,0.9303077982803005,non_fall
5.707494,0.0968,0.3745,-0.88,-1.019,-0.2315,-0.2272,34.65,1.8,-1.35,,0.0021689999999994214,0.9612598452031583,0.8537254492992685,non_fall
5.720434,0.0968,0.3745,-0.88,-1.019,-0.2315,-0.2272,34.65,1.8,-1.35,,0.012940000000000396,0.9612598452031583,0.7850191872588804,non_fall
5.723222,0.4721,0.7621,-0.6963,-1.019,-0.2315,-0.2272,34.65,1.8,-1.35,,0.0027879999999997906,1.135124887402263,0.7247863195630253,non_fall
5.74177,0.4721,0.7621,-0.6963,-1.019,-0.2315,-0.2272,34.65,1.8,-1.35,,0.01854800000000001,1.135124887402263,0.6735414806885538,non_fall
5.745939,0.1461,0.5746,-0.231,-1.019,-0.2315,-0.2272,34.65,1.8,-1.35,,0.004169000000000089,0.6362950337697129,0.6317838083162801,non_fall
5.748643,0.1461,0.5746,-0.231,-1.019,-0.2315,-0.2272,33.375,2.925,0.0,,0.002704000000000484,0.6362950337697129,0.6000497969846765,non_fall
5.761769,0.1461,0.5746,-0.231,-1.019,-0.2315,-0.2272,33.375,2.925,0.0,,0.013125999999999749,0.6362950337697129,0.5789470136024961,non_fall
5.765537,-0.4192,-0.1243,0.1976,-1.019,-0.2315,-0.2272,33.375,2.925,0.0,,0.0037679999999999936,0.4798175590784481,0.5691669377420167,non_fall
5.775367,-0.4192,-0.1243,0.1976,-1.2672,-0.046,-0.3497,33.375,2.925,0.0,,0.009830000000000005,0.4798175590784481,0.5714772501338682,non_fall
5.786136,-0.4192,-0.1243,0.1976,-1.2672,-0.046,-0.3497,33.375,2.925,0.0,,0.010768999999999807,0.4798175590784481,0.5866948269971809,non_fall
5.788129,-0.579,-0.8878,-0.0482,-1.2672,-0.046,-0.3497,33.375,2.925,0.0,,0.0019929999999996895,1.061015117705681,0.6156408103671466,non_fall
5.800101,-0.579,-0.8878,-0.0482,-1.2672,-0.046,-0.3497,33.375,2.925,0.0,,0.011972000000000094,1.061015117705681,0.6590788453870747,non_fall
5.802878,0.1639,-0.8164,0.0172,-1.2672,-0.046,-0.3497,33.375,2.925,0.0,,0.0027770000000000294,0.8328673423781245,0.7176375900803618,non_fall
5.817093,0.1639,-0.8164,0.0172,-1.2672,-0.046,-0.3497,34.05,3.675,1.575,,0.014215000000000089,0.8328673423781245,0.7917197087636836,non_fall
5.819069,0.1639,-0.8164,0.0172,-1.2672,-0.046,-0.3497,34.05,3.675,1.575,,0.0019759999999999778,0.8328673423781245,0.8814019142451853,non_fall
5.820456,0.5707,-0.1332,0.614,-1.2672,-0.046,-0.3497,34.05,3.675,1.575,,0.0013870000000002491,0.8487854440316469,0.9863333879602416,non_fall
5.839635,0.5707,-0.1332,0.614,-1.2672,-0.046,-0.3497,34.05,3.675,1.575,,0.01917900000000028,0.8487854440316469,1.1056419522899814,non_fall
5.843004,-0.0851,0.347,1.3328,-1.2672,-0.046,-0.3497,34.05,3.675,1.575,,0.0033689999999992892,1.3798575469953411,1.2378581327348612,non_fall
5.845221,-0.0851,0.347,1.3328,-1.5251,-0.1177,-0.2089,34.05,3.675,1.575,,0.0022169999999999135,1.3798575469953411,1.3808668568342037,non_fall
5.859272,-0.0851,0.347,1.3328,-1.5251,-0.1177,-0.2089,34.05,3.675,1.575,,0.014051000000000258,1.3798575469953411,1.5318955340310128,non_fall
5.86167,-0.0526,0.4917,0.724,-1.5251,-0.1177,-0.2089,34.05,3.675,1.575,,0.0023980000000003443,0.8767620258656279,1.6875462451313195,non_fall
5.879509,-0.0526,0.4917,0.724,-1.5251,-0.1177,-0.2089,34.05,3.675,1.575,,0.017838999999999494,0.8767620258656279,1.843878768739646,non_fall
5.881403,-0.2567,0.8204,1.2425,-1.5251,-0.1177,-0.2089,34.05,3.675,1.575,,0.0018940000000000623,1.5108796444455792,1.9965492146821011,non_fall
5.886319,-0.2567,0.8204,1.2425,-1.5251,-0.1177,-0.2089,32.85,5.475,3.45,,0.004916000000000587,1.5108796444455792,2.141004819559326,non_fall
5.898758,-0.2567,0.8204,1.2425,-1.5251,-0.1177,-0.2089,32.85,5.475,3.45,,0.012438999999999645,1.5108796444455792,2.2727286904927437,non_fall
5.900507,-1.711,1.0693,2.6263,-1.5251,-0.1177,-0.2089,32.85,5.475,3.45,,0.0017490000000002226,3.3118537377124615,2.387520078660175,non_fall
5.92607,-1.711,1.0693,2.6263,-1.5212,-0.9154,-0.1382,32.85,5.475,3.45,,0.025563000000000002,3.3118537377124615,2.481787891778939,non_fall
5.930648,-1.711,1.0693,2.6263,-1.5212,-0.9154,-0.1382,32.85,5.475,3.45,,0.004577999999999527,3.3118537377124615,2.55282954202456,non_fall
5.934285,-2.004,0.1651,2.411,-1.5212,-0.9154,-0.1382,32.85,5.475,3.45,,0.0036370000000003344,3.139457757320522,2.5990657960091665,non_fall
5.937221,-2.004,0.1651,2.411,-1.5212,-0.9154,-0.1382,32.85,5.475,3.45,,0.0029360000000000497,3.139457757320522,2.6202058317066927,non_fall
5.93951,-1.1247,-1.2043,3.1863,-1.5212,-0.9154,-0.1382,32.85,5.475,3.45,,0.0022890000000002075,3.587171067847197,2.617323858497892,non_fall
5.953399,-1.1247,-1.2043,3.1863,-1.5212,-0.9154,-0.1382,32.85,5.475,3.45,,0.013888999999999818,3.587171067847197,2.592837110648409,non_fall
5.955385,0.0466,-1.8484,1.795,-1.5212,-0.9154,-0.1382,32.85,5.475,3.45,,0.001985999999999599,2.576970919509958,2.5503835815316918,non_fall
5.956817,0.0466,-1.8484,1.795,-1.5212,-0.9154,-0.1382,33.225,4.65,6.6,,0.001432000000000322,2.576970919509958,2.494606592280143,non_fall
5.981514,0.0466,-1.8484,1.795,-1.5212,-0.9154,-0.1382,33.225,4.65,6.6,,0.024696999999999747,2.576970919509958,2.4308619343566384,non_fall
5.984461,1.4337,-1.2176,0.0245,-1.5212,-0.9154,-0.1382,33.225,4.65,6.6,,0.002946999999999811,1.881128836629751,2.3648705870705604,non_fall
5.987939,1.4337,-1.2176,0.0245,-0.6055,-1.4938,0.1313,33.225,4.65,6.6,,0.003478000000000314,1.881128836629751,2.3023446131047796,non_fall
6.004142,1.4337,-1.2176,0.0245,-0.6055,-1.4938,0.1313,33.225,4.65,6.6,,0.016202999999999967,1.881128836629751,2.2486155165636537,non_fall
6.006768,1.3184,0.4975,-0.1348,-0.6055,-1.4938,0.1313,33.225,4.65,6.6,,0.0026260000000002393,1.4155761547864532,2.208293459730935,non_fall
6.019799,1.3184,0.4975,-0.1348,-0.6055,-1.4938,0.1313,33.225,4.65,6.6,,0.013030999999999793,1.4155761547864532,2.1849826363826366,non_fall
6.022918,0.932,1.1636,0.336,-0.6055,-1.4938,0.1313,33.225,4.65,6.6,,0.003118999999999872,1.5282293545145638,2.1810731258220772,non_fall
6.025563,0.932,1.1636,0.336,-0.6055,-1.4938,0.1313,35.55,6.825,11.625,,0.0026450000000002305,1.5282293545145638,2.1976230056940027,non_fall
6.035892,0.932,1.1636,0.336,-0.6055,-1.4938,0.1313,35.55,6.825,11.625,,0.010328999999999589,1.5282293545145638,2.2343367005162533,non_fall
6.037713,1.3588,1.6533,-0.6869,-0.6055,-1.4938,0.1313,35.55,6.825,11.625,,0.0018210000000005166,2.247569785345941,2.28963703667579,non_fall
6.05449,1.3588,1.6533,-0.6869,-0.1041,-1.8498,-0.5102,35.55,6.825,11.625,,0.016777000000000264,2.247569785345941,2.3608200340389742,non_fall
6.059348,1.3588,1.6533,-0.6869,-0.1041,-1.8498,-0.5102,35.55,6.825,11.625,,0.004857999999999585,2.247569785345941,2.4442739341587454,non_fall
6.061302,1.6659,1.2412,-3.4763,-0.1041,-1.8498,-0.5102,35.55,6.825,11.625,,0.0019540000000004554,4.049748379837937,2.5357381894634994,non_fall
6.078511,1.6659,1.2412,-3.4763,-0.1041,-1.8498,-0.5102,35.55,6.825,11.625,,0.017208999999999364,4.049748379837937,2.6305749224662414,non_fall
6.080347,1.1495,1.1439,-3.5253,-0.1041,-1.8498,-0.5102,35.55,6.825,11.625,,0.0018359999999999488,3.8804120335345833,2.7240257478872523,non_fall
6.099163,1.1495,1.1439,-3.5253,-0.1041,-1.8498,-0.5102,35.55,6.825,11.625,,0.018816000000000166,3.8804120335345833,2.8114321113809226,non_fall
6.101616,1.0516,1.1474,-1.2679,-0.1041,-1.8498,-0.5102,35.55,6.825,11.625,,0.0024530000000000385,2.007475960005499,2.888407614445392,non_fall
6.103765,1.0516,1.1474,-1.2679,-0.1041,-1.8498,-0.5102,35.475,9.15,10.5,,0.0021490000000001785,2.007475960005499,2.9509637647795435,non_fall
6.119778,1.0516,1.1474,-1.2679,-0.1041,-1.8498,-0.5102,35.475,9.15,10.5,,0.016013000000000055,2.007475960005499,2.9956017663540613,non_fall
6.121942,2.2763,0.0241,0.878,-0.1041,-1.8498,-0.5102,35.475,9.15,10.5,,0.0021639999999996107,2.4398783781164175,3.019388212979818,non_fall
6.123405,2.2763,0.0241,0.878,0.1313,-1.497,-0.6597,35.475,9.15,10.5,,0.0014630000000002141,2.4398783781164175,3.0200304751772853,non_fall
6.134923,2.2763,0.0241,0.878,0.1313,-1.497,-0.6597,35.475,9.15,10.5,,0.011517999999999695,2.4398783781164175,2.9959601360790837,non_fall
6.136327,2.4353,-1.4425,2.7596,0.1313,-1.497,-0.6597,35.475,9.15,10.5,,0.0014039999999999608,3.9530854405135236,2.946423554999185,non_fall
6.155175,2.4353,-1.4425,2.7596,0.1313,-1.497,-0.6597,35.475,9.15,10.5,,0.018848000000000198,3.9530854405135236,2.871570433611224,non_fall
6.158113,0.1619,-2.1026,1.2093,0.1313,-1.497,-0.6597,35.475,9.15,10.5,,0.0029380000000003292,2.4309555446367175,2.772526167202786,non_fall
6.160831,0.1619,-2.1026,1.2093,0.1313,-1.497,-0.6597,28.35,4.65,1.8,,0.002717999999999776,2.4309555446367175,2.6514331361761494,non_fall
6.17672,0.1619,-2.1026,1.2093,0.1313,-1.497,-0.6597,28.35,4.65,1.8,,0.015889000000000486,2.4309555446367175,2.5114493609753876,non_fall
6.179592,-1.2113,-2.0732,1.9429,0.1313,-1.497,-0.6597,28.35,4.65,1.8,,0.0028719999999999857,3.0887321573746083,2.3566971663675793,non_fall
6.191633,-1.2113,-2.0732,1.9429,0.507,-0.8995,-0.7242,28.35,4.65,1.8,,0.012040999999999968,3.0887321573746083,2.1921570503531007,non_fall
6.202145,-1.2113,-2.0732,1.9429,0.507,-0.8995,-0.7242,28.35,4.65,1.8,,0.01051199999999941,3.0887321573746083,2.0235032994244535,non_fall
6.204312,-0.9753,-1.2775,1.7342,0.507,-0.8995,-0.7242,28.35,4.65,1.8,,0.00216700000000003,2.364458919076413,1.8568807000784862,non_fall
6.218767,-0.9753,-1.2775,1.7342,0.507,-0.8995,-0.7242,28.35,4.65,1.8,,0.014454999999999885,2.364458919076413,1.6986277636862868,non_fall
6.221674,0.0105,0.1191,0.2752,0.507,-0.8995,-0.7242,28.35,4.65,1.8,,0.002907000000000437,0.3000501624728772,1.5549605815460148,non_fall
6.226604,0.0105,0.1191,0.2752,0.507,-0.8995,-0.7242,21.45,0.525,-5.55,,0.004929999999999879,0.3000501624728772,1.4316402724591317,non_fall
6.235859,0.0105,0.1191,0.2752,0.507,-0.8995,-0.7242,21.45,0.525,-5.55,,0.009254999999999569,0.3000501624728772,1.3336527803114777,non_fall
6.238252,-0.1022,0.8365,0.1464,0.507,-0.8995,-0.7242,21.45,0.525,-5.55,,0.0023930000000005336,0.8553420660764909,1.2649298834248879,non_fall
6.256484,-0.1022,0.8365,0.1464,0.507,-0.8995,-0.7242,21.45,0.525,-5.55,,0.018232000000000248,0.8553420660764909,1.2281342487785876,non_fall
6.258279,0.1684,-0.4005,1.0948,0.507,-0.8995,-0.7242,21.45,0.525,-5.55,,0.001794999999999547,1.1778564640905953,1.2245216457863692,non_fall
6.267668,0.1684,-0.4005,1.0948,0.4971,-1.7252,-0.9332,21.45,0.525,-5.55,,0.009388999999999648,1.1778564640905953,1.2538836789820351,non_fall
6.279489,0.1684,-0.4005,1.0948,0.4971,-1.7252,-0.9332,21.45,0.525,-5.55,,0.011821000000000303,1.1778564640905953,1.3145670136808416,non_fall
6.280889,0.2738,-1.3276,1.3339,0.4971,-1.7252,-0.9332,21.45,0.525,-5.55,,0.00140000000000029,1.9017826926334145,1.4035604758605096,non_fall
6.300215,0.2738,-1.3276,1.3339,0.4971,-1.7252,-0.9332,21.45,0.525,-5.55,,0.01932599999999951,1.9017826926334145,1.5166390170413475,non_fall
6.301948,-0.1076,-0.9363,-1.5068,0.4971,-1.7252,-0.9332,21.45,0.525,-5.55,,0.0017330000000006507,1.7772680411237918,1.6485528883793024,non_fall
6.3035,-0.1076,-0.9363,-1.5068,0.4971,-1.7252,-0.9332,21.75,9.15,-10.125,,0.0015519999999993317,1.7772680411237918,1.7932514068824825,non_fall
6.319949,-0.1076,-0.9363,-1.5068,0.4971,-1.7252,-0.9332,21.75,9.15,-10.125,,0.016449000000000602,1.7772680411237918,1.9441331114557467,non_fall
6.321833,0.3449,-1.0363,-0.0985,0.4971,-1.7252,-0.9332,21.75,9.15,-10.125,,0.0018839999999995527,1.0966202396454299,2.0943167951877943,non_fall
6.335061,0.3449,-1.0363,-0.0985,0.4971,-1.7252,-0.9332,21.75,9.15,-10.125,,0.013227999999999795,1.0966202396454299,2.236929306789972,non_fall
6.33677,2.0102,-1.5307,1.3495,0.4971,-1.7252,-0.9332,21.75,9.15,-10.125,,0.0017089999999999606,2.864454010802059,2.3654047787375947,non_fall
6.338366,2.0102,-1.5307,1.3495,0.0649,-2.0775,-0.7801,21.75,9.15,-10.125,,0.0015960000000001529,2.864454010802059,2.473785582790886,non_fall
6.354468,2.0102,-1.5307,1.3495,0.0649,-2.0775,-0.7801,21.75,9.15,-10.125,,0.01610200000000006,2.864454010802059,2.5570091975317686,non_fall
6.357318,2.9824,-1.154,1.4011,0.0649,-2.0775,-0.7801,21.75,9.15,-10.125,,0.0028500000000004633,3.4913474433232796,2.6111603579598452,non_fall
6.368271,2.9824,-1.154,1.4011,0.0649,-2.0775,-0.7801,19.65,18.0,-17.475,,0.010952999999999768,3.4913474433232796,2.6336668845858653,non_fall
6.37744,2.9824,-1.154,1.4011,0.0649,-2.0775,-0.7801,19.65,18.0,-17.475,,0.009168999999999983,3.4913474433232796,2.623420768876463,non_fall
6.379136,2.5931,0.2695,-1.3147,0.0649,-2.0775,-0.7801,19.65,18.0,-17.475,,0.0016959999999999198,2.919800327077179,2.58081236359453,non_fall
6.396813,2.5931,0.2695,-1.3147,0.0649,-2.0775,-0.7801,19.65,18.0,-17.475,,0.017676999999999943,2.919800327077179,2.5076737722667684,non_fall
6.399791,0.3082,1.2241,-1.7643,0.0649,-2.0775,-0.7801,19.65,18.0,-17.475,,0.002977999999999703,2.1693691571514515,2.4071364958659207,non_fall
6.401835,0.3082,1.2241,-1.7643,-0.8086,-1.9283,-0.8237,19.65,18.0,-17.475,,0.002044000000000601,2.1693691571514515,2.283416479089611,non_fall
6.412494,0.3082,1.2241,-1.7643,-0.8086,-1.9283,-0.8237,19.65,18.0,-17.475,,0.01065899999999953,2.1693691571514515,2.1415455481251824,non_fall
6.414858,-0.5673,0.6496,-0.9443,-0.8086,-1.9283,-0.8237,19.65,18.0,-17.475,,0.0023640000000000327,1.2788713539680212,1.9870713167119447,non_fall
6.431642,-0.5673,0.6496,-0.9443,-0.8086,-1.9283,-0.8237,19.65,18.0,-17.475,,0.016784000000000354,1.2788713539680212,1.8257482215101888,non_fall
6.43506,-0.4317,0.429,-1.1037,-0.8086,-1.9283,-0.8237,19.65,18.0,-17.475,,0.003417999999999921,1.2603807281928743,1.6632409138765605,non_fall
6.437064,-0.4317,0.429,-1.1037,-0.8086,-1.9283,-0.8237,18.075,23.25,-19.425,,0.002004000000000339,1.2603807281928743,1.5048580021762237,non_fall
6.457801,-0.4317,0.429,-1.1037,-0.8086,-1.9283,-0.8237,18.075,23.25,-19.425,,0.02073699999999956,1.2603807281928743,1.3553293969546942,non_fall
6.460701,-0.3772,0.4982,-0.8301,-0.8086,-1.9283,-0.8237,18.075,23.25,-19.425,,0.0029000000000003467,1.0390135177176474,1.218635180715669,non_fall
6.470893,-0.3772,0.4982,-0.8301,-1.7944,-1.5432,-0.5026,18.075,23.25,-19.425,,0.010191999999999979,1.0390135177176474,1.097889195178272,non_fall
6.473537,-0.3772,0.4982,-0.8301,-1.7944,-1.5432,-0.5026,18.075,23.25,-19.425,,0.0026440000000000907,1.0390135177176474,0.9952770361857578,non_fall
6.475247,0.2943,0.5423,-0.2298,-1.7944,-1.5432,-0.5026,18.075,23.25,-19.425,,0.0017100000000001003,0.6584146262044913,0.9120457763227439,non_fall
6.494393,0.2943,0.5423,-0.2298,-1.7944,-1.5432,-0.5026,18.075,23.25,-19.425,,0.01914599999999922,0.6584146262044913,0.8485411262920103,non_fall
6.496502,-0.2509,0.4029,-0.4532,-1.7944,-1.5432,-0.5026,18.075,23.25,-19.425,,0.0021090000000008047,0.6562541123680674,0.8042864941734272,non_fall
6.505265,-0.2509,0.4029,-0.4532,-1.7944,-1.5432,-0.5026,14.775,27.75,-19.425,,0.008762999999999188,0.6562541123680674,0.7780970720927616,non_fall
6.518842,-0.2509,0.4029,-0.4532,-1.7944,-1.5432,-0.5026,14.775,27.75,-19.425,,0.013577000000000616,0.6562541123680674,0.7682203939601814,non_fall
6.520323,-1.0682,0.2246,-0.5298,-1.7944,-1.5432,-0.5026,14.775,27.75,-19.425,,0.0014810000000000656,1.2133360787514729,0.7724928900001403,non_fall
6.535003,-1.0682,0.2246,-0.5298,-1.7944,-1.5432,-0.5026,14.775,27.75,-19.425,,0.01467999999999936,1.2133360787514729,0.7885003042903183,non_fall
6.537124,-0.9395,0.119,-1.0402,-1.7944,-1.5432,-0.5026,14.775,27.75,-19.425,,0.0021210000000007057,1.406711516267639,0.8137291516344193,non_fall
6.538856,-0.9395,0.119,-1.0402,-1.7397,-1.3309,0.2567,14.775,27.75,-19.425,,0.0017319999999996227,1.406711516267639,0.8456974353989054,non_fall
6.555098,-0.9395,0.119,-1.0402,-1.7397,-1.3309,0.2567,14.775,27.75,-19.425,,0.01624200000000009,1.406711516267639,0.8820560470822516,non_fall
6.556614,-0.0431,0.1144,-0.6768,-1.7397,-1.3309,0.2567,14.775,27.75,-19.425,,0.0015159999999996288,0.6877522882550082,0.9206573238010167,non_fall
6.570457,-0.0431,0.1144,-0.6768,-1.7397,-1.3309,0.2567,14.775,27.75,-19.425,,0.013843000000000494,0.6877522882550082,0.959593156279903,non_fall
6.572983,0.541,-0.1909,0.2103,-1.7397,-1.3309,0.2567,14.775,27.75,-19.425,,0.002525999999999584,0.6110236492968173,0.9972103425567921,non_fall
6.57486,0.541,-0.1909,0.2103,-1.7397,-1.3309,0.2567,13.125,31.125,-17.775,,0.0018770000000003506,0.6110236492968173,1.032114043039591,non_fall
6.592657,0.541,-0.1909,0.2103,-1.7397,-1.3309,0.2567,13.125,31.125,-17.775,,0.01779699999999984,0.6110236492968173,1.0631703935591152,non_fall
6.595072,0.5947,0.1412,0.6067,-1.7397,-1.3309,0.2567,13.125,31.125,-17.775,,0.002415000000000056,0.8612145028969264,1.0895169015719317,non_fall
6.607488,0.5947,0.1412,0.6067,-1.3455,-0.6816,0.981,13.125,31.125,-17.775,,0.012415999999999983,0.8612145028969264,1.1105852113340267,non_fall
