time,ax,ay,az,wx,wy,wz,Bx,By,Bz,Unnamed: 10,time_diff,acc_mag,acc_mag_filtered,label
0.130435,0.0,0.0,0.0,0.0,0.0,0.0,40.725,17.475,8.775,,0.0,0.0,0.0002471641113782537,non_fall
0.137063,0.0,0.0,0.0,0.0,0.0,0.0,40.725,17.475,8.775,,0.006627999999999995,0.0,0.014036695373124446,non_fall
0.152193,0.0,0.0,0.0,0.0026,0.0342,0.0165,40.725,17.475,8.775,,0.015130000000000005,0.0,0.027776328570870912,non_fall
0.181171,0.0,0.0,0.0,0.0026,0.0342,0.0165,40.725,17.475,8.775,,0.028978000000000004,0.0,0.04143444983086094,non_fall
0.182448,-0.003,0.0882,-0.0251,0.0026,0.0342,0.0165,40.725,17.475,8.775,,0.0012770000000000004,0.09175102179267543,0.05492759343597161,non_fall
0.196315,-0.003,0.0882,-0.0251,0.0026,0.0342,0.0165,41.025,17.55,9.15,,0.01386699999999999,0.09175102179267543,0.06815079256605142,non_fall
0.219277,-0.003,0.0882,-0.0251,-0.0292,0.0629,-0.0029,41.025,17.55,9.15,,0.02296200000000001,0.09175102179267543,0.08103134576370775,non_fall
0.228583,-0.003,0.0882,-0.0251,-0.0292,0.0629,-0.0029,41.025,17.55,9.15,,0.009306000000000009,0.09175102179267543,0.09356971740970232,non_fall
0.232713,-0.0905,0.057,-0.0314,-0.0292,0.0629,-0.0029,41.025,17.55,9.15,,0.004129999999999995,0.11146842602279804,0.10583925560989693,non_fall
0.266022,-0.0905,0.057,-0.0314,-0.0292,0.0629,-0.0029,41.025,17.25,9.225,,0.03330899999999998,0.11146842602279804,0.11794003009717874,non_fall
0.282813,-0.0905,0.057,-0.0314,-0.0292,0.0629,-0.0029,41.025,17.25,9.225,,0.016791,0.11146842602279804,0.12992427869400036,non_fall
0.284516,-0.1322,0.0491,0.0327,-0.0292,0.0629,-0.0029,41.025,17.25,9.225,,0.00170300000000001,0.1447651201084018,0.1417221390366409,non_fall
0.288052,-0.1322,0.0491,0.0327,-0.0316,0.0987,-0.0116,41.025,17.25,9.225,,0.0035359999999999836,0.1447651201084018,0.15309597493015006,non_fall
0.332307,-0.1322,0.0491,0.0327,-0.0316,0.0987,-0.0116,41.025,17.25,9.225,,0.044255000000000044,0.1447651201084018,0.16364255789237023,non_fall
0.336984,-0.1682,0.06,-0.0591,-0.0316,0.0987,-0.0116,41.025,17.25,9.225,,0.004676999999999987,0.18810648579993194,0.17284855255890658,non_fall
0.34321,-0.1682,0.06,-0.0591,-0.0316,0.0987,-0.0116,41.55,17.55,10.05,,0.006226000000000009,0.18810648579993194,0.18018993092098043,non_fall
0.358719,-0.1682,0.06,-0.0591,-0.0455,0.0977,-0.0191,41.55,17.55,10.05,,0.015508999999999995,0.18810648579993194,0.1852534271375675,non_fall
0.375983,-0.1682,0.06,-0.0591,-0.0455,0.0977,-0.0191,41.55,17.55,10.05,,0.017264,0.18810648579993194,0.1878519857383052,non_fall
0.377483,-0.1833,0.0365,0.034,-0.0455,0.0977,-0.0191,41.55,17.55,10.05,,0.0015000000000000013,0.18996615488028387,0.18810868120598545,non_fall
0.403461,-0.1833,0.0365,0.034,-0.0455,0.0977,-0.0191,40.65,17.55,10.35,,0.025978,0.18996615488028387,0.18649172913908582,non_fall
0.428928,-0.1833,0.0365,0.034,-0.0304,0.1155,0.0014,40.65,17.55,10.35,,0.025466999999999962,0.18996615488028387,0.18379142848161975,non_fall
0.431152,-0.1833,0.0365,0.034,-0.0304,0.1155,0.0014,40.65,17.55,10.35,,0.0022240000000000038,0.18996615488028387,0.18103606891338336,non_fall
0.432439,-0.1832,-0.0488,0.0197,-0.0304,0.1155,0.0014,40.65,17.55,10.35,,0.0012870000000000381,0.1906089452255586,0.17934995767989054,non_fall
0.474025,-0.1832,-0.0488,0.0197,-0.0304,0.1155,0.0014,39.525,17.55,10.275,,0.041585999999999956,0.1906089452255586,0.1797655140735506,non_fall
0.477698,-0.1832,-0.0488,0.0197,-0.0304,0.1155,0.0014,39.525,17.55,10.275,,0.0036730000000000373,0.1906089452255586,0.18301433184582264,non_fall
0.479013,-0.1108,0.0749,-0.0291,-0.0304,0.1155,0.0014,39.525,17.55,10.275,,0.0013150000000000106,0.13687023051050948,0.18933857610746652,non_fall
0.500096,-0.1108,0.0749,-0.0291,-0.0127,0.077,-0.011,39.525,17.55,10.275,,0.021082999999999963,0.13687023051050948,0.198378951791717,non_fall
0.527207,-0.1108,0.0749,-0.0291,-0.0127,0.077,-0.011,39.525,17.55,10.275,,0.027110999999999996,0.13687023051050948,0.20919616557437598,non_fall
0.529764,-0.2955,-0.0455,0.0164,-0.0127,0.077,-0.011,39.525,17.55,10.275,,0.0025570000000000315,0.29943189542866,0.22045330915427871,non_fall
0.549209,-0.2955,-0.0455,0.0164,-0.0127,0.077,-0.011,40.275,18.225,10.65,,0.019444999999999935,0.29943189542866,0.23072470032795284,non_fall
0.566308,-0.2955,-0.0455,0.0164,0.0043,0.0721,0.0144,40.275,18.225,10.65,,0.017099000000000086,0.29943189542866,0.23883037368933557,non_fall
0.58229,-0.2955,-0.0455,0.0164,0.0043,0.0721,0.0144,40.275,18.225,10.65,,0.01598199999999994,0.29943189542866,0.2440708800365956,non_fall
0.584483,-0.1415,-0.0028,0.0991,0.0043,0.0721,0.0144,40.275,18.225,10.65,,0.0021930000000000005,0.17277413000793837,0.2462797916623827,non_fall
0.613764,-0.1415,-0.0028,0.0991,0.0043,0.0721,0.0144,40.65,18.225,10.95,,0.029281,0.17277413000793837,0.24570028305947128,non_fall
0.62456,-0.1415,-0.0028,0.0991,0.0043,0.0721,0.0144,40.65,18.225,10.95,,0.010796000000000028,0.17277413000793837,0.24277384708476202,non_fall
0.626347,-0.2783,0.0452,-0.0158,0.0043,0.0721,0.0144,40.65,18.225,10.95,,0.001786999999999983,0.28238904015559807,0.23795423039998487,non_fall
0.635513,-0.2783,0.0452,-0.0158,0.0593,0.0023,-0.0096,40.65,18.225,10.95,,0.009166000000000007,0.28238904015559807,0.23161612408654364,non_fall
0.678665,-0.2783,0.0452,-0.0158,0.0593,0.0023,-0.0096,40.65,18.225,10.95,,0.04315199999999997,0.28238904015559807,0.2240523142599042,non_fall
0.681438,-0.1367,0.1077,0.0411,0.0593,0.0023,-0.0096,40.65,18.225,10.95,,0.0027730000000000254,0.17881663792835387,0.2155026116554087,non_fall
0.683709,-0.1367,0.1077,0.0411,0.0593,0.0023,-0.0096,40.35,17.85,11.325,,0.002271000000000023,0.17881663792835387,0.20616415217331382,non_fall
0.707904,-0.1367,0.1077,0.0411,0.064,-0.0221,-0.0041,40.35,17.85,11.325,,0.024194999999999967,0.17881663792835387,0.1961767915231544,non_fall
0.728982,-0.1367,0.1077,0.0411,0.064,-0.0221,-0.0041,40.35,17.85,11.325,,0.02107800000000004,0.17881663792835387,0.18561448379699583,non_fall
0.73165,-0.1215,0.0376,-0.112,0.064,-0.0221,-0.0041,40.35,17.85,11.325,,0.0026680000000000037,0.16946979081830482,0.17451620801766377,non_fall
0.753641,-0.1215,0.0376,-0.112,0.064,-0.0221,-0.0041,40.05,17.475,10.65,,0.021990999999999983,0.16946979081830482,0.16296496163052474,non_fall
0.777294,-0.1215,0.0376,-0.112,0.0108,-0.0066,-0.0192,40.05,17.475,10.65,,0.023653000000000035,0.16946979081830482,0.1511931980790105,non_fall
0.780219,-0.1215,0.0376,-0.112,0.0108,-0.0066,-0.0192,40.05,17.475,10.65,,0.0029249999999999554,0.16946979081830482,0.13967379332119423,non_fall
0.782213,-0.1126,0.0423,-0.059,0.0108,-0.0066,-0.0192,40.05,17.475,10.65,,0.0019940000000000513,0.13397406465432032,0.12915273009606054,non_fall
0.824572,-0.1126,0.0423,-0.059,0.0108,-0.0066,-0.0192,40.8,17.775,10.575,,0.042358999999999924,0.13397406465432032,0.12059371805456251,non_fall
0.827497,-0.1126,0.0423,-0.059,0.0108,-0.0066,-0.0192,40.8,17.775,10.575,,0.0029250000000000664,0.13397406465432032,0.1150322814908272,non_fall
0.829057,-0.0621,0.0085,0.0233,0.0108,-0.0066,-0.0192,40.8,17.775,10.575,,0.0015600000000000058,0.06686964931865577,0.11336931124171336,non_fall
0.847791,-0.0621,0.0085,0.0233,0.0325,0.0159,-0.0215,40.8,17.775,10.575,,0.018733999999999917,0.06686964931865577,0.11616190336632677,non_fall
0.874725,-0.0621,0.0085,0.0233,0.0325,0.0159,-0.0215,40.8,17.775,10.575,,0.026934000000000013,0.06686964931865577,0.12348151183840933,non_fall
0.877531,-0.1528,0.0514,-0.0927,0.0325,0.0159,-0.0215,40.8,17.775,10.575,,0.002805999999999975,0.18596529246071697,0.1348938425262047,non_fall
0.895904,-0.1528,0.0514,-0.0927,0.0325,0.0159,-0.0215,40.35,17.625,10.65,,0.018373000000000084,0.18596529246071697,0.14956897436229627,non_fall
0.918796,-0.1528,0.0514,-0.0927,0.0188,0.0301,-0.0188,40.35,17.625,10.65,,0.022891999999999912,0.18596529246071697,0.1664745786225652,non_fall
0.931544,-0.1528,0.0514,-0.0927,0.0188,0.0301,-0.0188,40.35,17.625,10.65,,0.012748000000000093,0.18596529246071697,0.18457402425198308,non_fall
0.933653,-0.1667,0.0743,-0.1232,0.0188,0.0301,-0.0188,40.35,17.625,10.65,,0.0021089999999999165,0.22019904631946072,0.2029615927968853,non_fall
0.963844,-0.1667,0.0743,-0.1232,0.0188,0.0301,-0.0188,40.425,17.475,10.65,,0.03019100000000008,0.22019904631946072,0.22090482009478143,non_fall
0.980503,-0.1667,0.0743,-0.1232,0.0188,0.0301,-0.0188,40.425,17.475,10.65,,0.01665899999999998,0.22019904631946072,0.2378035496605112,non_fall
0.983214,-0.1794,-0.0002,-0.1631,0.0188,0.0301,-0.0188,40.425,17.475,10.65,,0.002711000000000019,0.24245826444978114,0.2531025462039059,non_fall
0.986573,-0.1794,-0.0002,-0.1631,0.0,0.0348,-0.0224,40.425,17.475,10.65,,0.003359000000000001,0.24245826444978114,0.26620696407024186,non_fall
1.028028,-0.1794,-0.0002,-0.1631,0.0,0.0348,-0.0224,40.425,17.475,10.65,,0.04145499999999991,0.24245826444978114,0.2764470333761693,non_fall
1.032138,-0.1482,0.0233,-0.2631,0.0,0.0348,-0.0224,40.425,17.475,10.65,,0.004110000000000058,0.30286587790637626,0.2831198600291835,non_fall
1.035226,-0.1482,0.0233,-0.2631,0.0,0.0348,-0.0224,40.2,17.325,10.65,,0.0030879999999999797,0.30286587790637626,0.28560601488616655,non_fall
1.055358,-0.1482,0.0233,-0.2631,0.0003,0.0024,-0.0336,40.2,17.325,10.65,,0.02013200000000004,0.30286587790637626,0.2835266180488367,non_fall
1.076097,-0.1482,0.0233,-0.2631,0.0003,0.0024,-0.0336,40.2,17.325,10.65,,0.020739000000000063,0.30286587790637626,0.27688728631008797,non_fall
1.078815,-0.15,0.0063,-0.1982,0.0003,0.0024,-0.0336,40.2,17.325,10.65,,0.002717999999999998,0.2486421726095555,0.2661586403995923,non_fall
1.104059,-0.15,0.0063,-0.1982,0.0003,0.0024,-0.0336,40.125,18.375,10.65,,0.025243999999999822,0.2486421726095555,0.25226605900375165,non_fall
1.123756,-0.15,0.0063,-0.1982,-0.0203,-0.0189,-0.0255,40.125,18.375,10.65,,0.019697000000000076,0.2486421726095555,0.2364900204488033,non_fall
1.126506,-0.15,0.0063,-0.1982,-0.0203,-0.0189,-0.0255,40.125,18.375,10.65,,0.00275000000000003,0.2486421726095555,0.22029911676096742,non_fall
1.128408,-0.1148,-0.0159,-0.1105,-0.0203,-0.0189,-0.0255,40.125,18.375,10.65,,0.0019020000000000703,0.16013150845476976,0.20514796149220496,non_fall
1.173746,-0.1148,-0.0159,-0.1105,-0.0203,-0.0189,-0.0255,40.125,18.375,10.65,,0.04533799999999988,0.16013150845476976,0.19227828181309708,non_fall
1.177249,-0.1594,-0.0352,-0.0816,-0.0203,-0.0189,-0.0255,40.125,18.375,10.65,,0.003503000000000034,0.18249920547772255,0.18256517523570628,non_fall
1.181083,-0.1594,-0.0352,-0.0816,-0.0203,-0.0189,-0.0255,40.05,18.15,10.65,,0.003834000000000115,0.18249920547772255,0.17644265421317695,non_fall
1.20135,-0.1594,-0.0352,-0.0816,-0.0162,-0.0304,0.0128,40.05,18.15,10.65,,0.020266999999999813,0.18249920547772255,0.17391809204409622,non_fall
1.221407,-0.1594,-0.0352,-0.0816,-0.0162,-0.0304,0.0128,40.05,18.15,10.65,,0.02005699999999999,0.18249920547772255,0.1746555819223426,non_fall
1.223774,-0.1896,-0.0124,-0.0203,-0.0162,-0.0304,0.0128,40.05,18.15,10.65,,0.002367000000000008,0.19108639407346614,0.17809057179484483,non_fall
1.244038,-0.1896,-0.0124,-0.0203,-0.0162,-0.0304,0.0128,39.75,17.775,10.575,,0.02026400000000006,0.19108639407346614,0.18353813805307206,non_fall
1.265955,-0.1896,-0.0124,-0.0203,0.0165,-0.0484,0.0383,39.75,17.775,10.575,,0.021916999999999964,0.19108639407346614,0.19026945523579758,non_fall
1.281264,-0.1896,-0.0124,-0.0203,0.0165,-0.0484,0.0383,39.75,17.775,10.575,,0.015309000000000017,0.19108639407346614,0.1975481354861487,non_fall
1.283681,-0.1878,0.0084,-0.0742,0.0165,-0.0484,0.0383,39.75,17.775,10.575,,0.0024170000000001135,0.2021015586283292,0.204634604290215,non_fall
1.31411,-0.1878,0.0084,-0.0742,0.0165,-0.0484,0.0383,40.125,17.85,11.175,,0.030428999999999817,0.2021015586283292,0.210777948244203,non_fall
1.32415,-0.1878,0.0084,-0.0742,0.0165,-0.0484,0.0383,40.125,17.85,11.175,,0.010040000000000049,0.2021015586283292,0.21521792037656073,non_fall
1.326994,-0.1659,0.0572,-0.1285,0.0165,-0.0484,0.0383,40.125,17.85,11.175,,0.0028440000000000687,0.21750149424774073,0.21721513205989001,non_fall
1.333463,-0.1659,0.0572,-0.1285,0.0011,-0.0518,0.0429,40.125,17.85,11.175,,0.006469000000000058,0.21750149424774073,0.21611695522114066,non_fall
1.373127,-0.1659,0.0572,-0.1285,0.0011,-0.0518,0.0429,40.125,17.85,11.175,,0.03966399999999992,0.21750149424774073,0.211453446038472,non_fall
1.375781,-0.1848,0.0211,-0.0564,0.0011,-0.0518,0.0429,40.125,17.85,11.175,,0.002653999999999934,0.1943636025597385,0.20304596654536824,non_fall
1.383571,-0.1848,0.0211,-0.0564,0.0011,-0.0518,0.0429,40.5,17.625,10.125,,0.007790000000000186,0.1943636025597385,0.19110464950880754,non_fall
1.402994,-0.1848,0.0211,-0.0564,-0.0185,-0.0528,0.0292,40.5,17.625,10.125,,0.019422999999999968,0.1943636025597385,0.17628933580082917,non_fall
1.422357,-0.1848,0.0211,-0.0564,-0.0185,-0.0528,0.0292,40.5,17.625,10.125,,0.01936300000000002,0.1943636025597385,0.15971007335130455,non_fall
1.42473,-0.1027,0.0237,-0.0624,-0.0185,-0.0528,0.0292,40.5,17.625,10.125,,0.0023729999999999585,0.12248567263153678,0.14284899191400174,non_fall
1.453832,-0.1027,0.0237,-0.0624,-0.0185,-0.0528,0.0292,40.35,17.925,10.35,,0.02910199999999996,0.12248567263153678,0.1273994895373906,non_fall
1.471467,-0.1027,0.0237,-0.0624,0.0049,-0.0147,0.0194,40.35,17.925,10.35,,0.017635000000000067,0.12248567263153678,0.1150397437179332,non_fall
1.474872,-0.1027,0.0237,-0.0624,0.0049,-0.0147,0.0194,40.35,17.925,10.35,,0.0034049999999998803,0.12248567263153678,0.10717595293838787,non_fall
1.477399,-0.0372,-0.0187,-0.0595,0.0049,-0.0147,0.0194,40.35,17.925,10.35,,0.002526999999999946,0.07262079591962621,0.10469934977899686,non_fall
1.5197,-0.0372,-0.0187,-0.0595,0.0049,-0.0147,0.0194,40.35,17.925,10.35,,0.042301000000000144,0.07262079591962621,0.10780255232509926,non_fall
1.522073,-0.1239,-0.004,0.0033,0.0049,-0.0147,0.0194,40.35,17.925,10.35,,0.0023729999999999585,0.12400846745283162,0.11589803222391035,non_fall
1.523797,-0.1239,-0.004,0.0033,0.0049,-0.0147,0.0194,40.8,17.55,10.05,,0.0017240000000000588,0.12400846745283162,0.12766930539993473,non_fall
1.543913,-0.1239,-0.004,0.0033,-0.0002,0.0122,0.0293,40.8,17.55,10.05,,0.020116000000000023,0.12400846745283162,0.14126082987673583,non_fall
1.573486,-0.1239,-0.004,0.0033,-0.0002,0.0122,0.0293,40.8,17.55,10.05,,0.02957299999999985,0.12400846745283162,0.154583391106275,non_fall
1.576827,-0.2071,-0.0097,0.0279,-0.0002,0.0122,0.0293,40.8,17.55,10.05,,0.0033410000000000384,0.20919586515990224,0.16568688230885645,non_fall
1.588865,-0.2071,-0.0097,0.0279,-0.0002,0.0122,0.0293,40.5,17.625,10.875,,0.012037999999999993,0.20919586515990224,0.1731323372682537,non_fall
1.614817,-0.2071,-0.0097,0.0279,0.0252,-0.009,0.045,40.5,17.625,10.875,,0.025951999999999975,0.20919586515990224,0.17628148481648376,non_fall
1.624083,-0.2071,-0.0097,0.0279,0.0252,-0.009,0.045,40.5,17.625,10.875,,0.009265999999999996,0.20919586515990224,0.17542668035122116,non_fall
1.627104,-0.1521,0.027,0.0231,0.0252,-0.009,0.045,40.5,17.625,10.875,,0.0030210000000001624,0.15619545447931577,0.17171678759927028,non_fall
1.657296,-0.1521,0.027,0.0231,0.0252,-0.009,0.045,40.275,17.175,10.65,,0.030191999999999997,0.15619545447931577,0.16688837184946778,non_fall
1.671799,-0.1521,0.027,0.0231,0.0252,-0.009,0.045,40.275,17.175,10.65,,0.014502999999999933,0.15619545447931577,0.16286557479572428,non_fall
1.674169,-0.11,0.0182,0.0429,0.0252,-0.009,0.045,40.275,17.175,10.65,,0.0023699999999999832,0.11946401131721637,0.1613267547664751,non_fall
1.680764,-0.11,0.0182,0.0429,0.0318,-0.0035,0.0411,40.275,17.175,10.65,,0.0065949999999999065,0.11946401131721637,0.1633432419774175,non_fall
1.720225,-0.11,0.0182,0.0429,0.0318,-0.0035,0.0411,40.275,17.175,10.65,,0.03946099999999997,0.11946401131721637,0.16917670626110626,non_fall
1.722083,-0.2203,0.0087,0.0293,0.0318,-0.0035,0.0411,40.275,17.175,10.65,,0.0018580000000001373,0.22241013915736846,0.1782799853544154,non_fall
1.731004,-0.2203,0.0087,0.0293,0.0318,-0.0035,0.0411,39.975,17.325,10.05,,0.008920999999999957,0.22241013915736846,0.1894880451333356,non_fall
1.750042,-0.2203,0.0087,0.0293,0.0505,-0.0133,0.0492,39.975,17.325,10.05,,0.01903800000000011,0.22241013915736846,0.2013291065101942,non_fall
1.76928,-0.2203,0.0087,0.0293,0.0505,-0.0133,0.0492,39.975,17.325,10.05,,0.019237999999999866,0.22241013915736846,0.2123566979813931,non_fall
1.771367,-0.2314,0.0318,0.0163,0.0505,-0.0133,0.0492,39.975,17.325,10.05,,0.00208699999999995,0.23414288372700973,0.22141365181774297,non_fall
1.80016,-0.2314,0.0318,0.0163,0.0505,-0.0133,0.0492,40.125,17.325,10.05,,0.02879300000000007,0.23414288372700973,0.2277761386514388,non_fall
1.824057,-0.2314,0.0318,0.0163,0.0516,-0.0305,0.0596,40.125,17.325,10.05,,0.023897000000000057,0.23414288372700973,0.2311671834112555,non_fall
1.828422,-0.2314,0.0318,0.0163,0.0516,-0.0305,0.0596,40.125,17.325,10.05,,0.004364999999999952,0.23414288372700973,0.23166183834705423,non_fall
1.830785,-0.184,0.0422,0.0543,0.0516,-0.0305,0.0596,40.125,17.325,10.05,,0.002363000000000115,0.19643148932897697,0.2295287738469006,non_fall
1.867063,-0.184,0.0422,0.0543,0.0516,-0.0305,0.0596,40.5,16.875,9.675,,0.03627799999999981,0.19643148932897697,0.2250659258153147,non_fall
1.872034,-0.184,0.0422,0.0543,0.0516,-0.0305,0.0596,40.5,16.875,9.675,,0.004971000000000059,0.19643148932897697,0.21848770707561038,non_fall
1.874137,-0.1766,0.0986,-0.0757,0.0516,-0.0305,0.0596,40.5,16.875,9.675,,0.002102999999999966,0.21596298293920652,0.2099034466800167,non_fall
1.893688,-0.1766,0.0986,-0.0757,0.0626,-0.0189,0.0565,40.5,16.875,9.675,,0.019551000000000096,0.21596298293920652,0.19939268660467102,non_fall
1.921523,-0.1766,0.0986,-0.0757,0.0626,-0.0189,0.0565,40.5,16.875,9.675,,0.027835000000000054,0.21596298293920652,0.18714506673463405,non_fall
1.925777,-0.0938,0.1331,-0.0449,0.0626,-0.0189,0.0565,40.5,16.875,9.675,,0.00425399999999998,0.1689084367342259,0.1736079623518054,non_fall
1.935765,-0.0938,0.1331,-0.0449,0.0626,-0.0189,0.0565,40.8,17.25,9.75,,0.009987999999999886,0.1689084367342259,0.1595836688538504,non_fall
1.963387,-0.0938,0.1331,-0.0449,0.0188,-0.0133,0.04,40.8,17.25,9.75,,0.027622000000000035,0.1689084367342259,0.1462358034001534,non_fall
1.970191,-0.0938,0.1331,-0.0449,0.0188,-0.0133,0.04,40.8,17.25,9.75,,0.006804000000000032,0.1689084367342259,0.1349899790482889,non_fall
1.971853,-0.0897,0.0191,-0.0017,0.0188,-0.0133,0.04,40.8,17.25,9.75,,0.0016620000000000523,0.09172671366619432,0.12733955849997022,non_fall
2.004597,-0.0897,0.0191,-0.0017,0.0188,-0.0133,0.04,40.65,16.95,9.75,,0.032743999999999884,0.09172671366619432,0.12459360471936569,non_fall
2.018831,-0.0897,0.0191,-0.0017,0.0188,-0.0133,0.04,40.65,16.95,9.75,,0.01423400000000008,0.09172671366619432,0.12762713556774183,non_fall
2.02096,-0.0898,0.0469,-0.1197,0.0188,-0.0133,0.04,40.65,16.95,9.75,,0.0021290000000000475,0.15681753728457798,0.1366995983415913,non_fall
2.029189,-0.0898,0.0469,-0.1197,0.0162,-0.0009,0.0295,40.65,16.95,9.75,,0.008229000000000042,0.15681753728457798,0.15138660465916864,non_fall
2.067747,-0.0898,0.0469,-0.1197,0.0162,-0.0009,0.0295,40.65,16.95,9.75,,0.03855799999999965,0.15681753728457798,0.17063280118003266,non_fall
2.070575,-0.1342,0.0419,-0.1702,0.0162,-0.0009,0.0295,40.65,16.95,9.75,,0.0028280000000000527,0.2207561777165024,0.19290236907794675,non_fall
2.0736,-0.1342,0.0419,-0.1702,0.0162,-0.0009,0.0295,40.575,16.425,9.75,,0.0030250000000000554,0.2207561777165024,0.21639040415604738,non_fall
2.096441,-0.1342,0.0419,-0.1702,-0.0127,0.0009,0.0205,40.575,16.425,9.75,,0.02284100000000011,0.2207561777165024,0.23926026401057182,non_fall
2.116146,-0.1342,0.0419,-0.1702,-0.0127,0.0009,0.0205,40.575,16.425,9.75,,0.019705000000000084,0.2207561777165024,0.2598807085724401,non_fall
2.118412,-0.1558,0.0505,-0.2694,-0.0127,0.0009,0.0205,40.575,16.425,9.75,,0.0022660000000001013,0.3152780518843644,0.27704401542706564,non_fall
2.145379,-0.1558,0.0505,-0.2694,-0.0127,0.0009,0.0205,40.65,16.95,9.75,,0.026966999999999963,0.3152780518843644,0.2901441496049729,non_fall
2.166325,-0.1558,0.0505,-0.2694,-0.0452,-0.0095,0.0206,40.65,16.95,9.75,,0.02094599999999991,0.3152780518843644,0.2992836681483985,non_fall
2.168908,-0.1558,0.0505,-0.2694,-0.0452,-0.0095,0.0206,40.65,16.95,9.75,,0.002583000000000002,0.3152780518843644,0.3052742934455223,non_fall
2.171203,-0.136,-0.0284,-0.2724,-0.0452,-0.0095,0.0206,40.65,16.95,9.75,,0.002295000000000158,0.30578476090217444,0.30951203554051127,non_fall
2.214686,-0.136,-0.0284,-0.2724,-0.0452,-0.0095,0.0206,41.475,16.725,10.05,,0.043482999999999716,0.30578476090217444,0.3137386273472916,non_fall
2.220363,-0.136,-0.0284,-0.2724,-0.0452,-0.0095,0.0206,41.475,16.725,10.05,,0.005676999999999932,0.30578476090217444,0.319730661148913,non_fall
2.222521,-0.1296,-0.0171,-0.3011,-0.0452,-0.0095,0.0206,41.475,16.725,10.05,,0.0021580000000001043,0.32825261613580475,0.32897425685302084,non_fall
2.238448,-0.1296,-0.0171,-0.3011,-0.0409,-0.0279,0.0133,41.475,16.725,10.05,,0.015927000000000024,0.32825261613580475,0.34238415443023595,non_fall
2.268356,-0.1296,-0.0171,-0.3011,-0.0409,-0.0279,0.0133,41.475,16.725,10.05,,0.029907999999999824,0.32825261613580475,0.36011573127081126,non_fall
2.271057,-0.0831,-0.0344,-0.3957,-0.0409,-0.0279,0.0133,41.475,16.725,10.05,,0.0027010000000000645,0.4057923853400899,0.3815014019358761,non_fall
2.284816,-0.0831,-0.0344,-0.3957,-0.0409,-0.0279,0.0133,41.475,16.275,10.425,,0.013759000000000299,0.4057923853400899,0.4051220276411698,non_fall
2.307193,-0.0831,-0.0344,-0.3957,-0.0464,-0.0209,0.0046,41.475,16.275,10.425,,0.022376999999999647,0.4057923853400899,0.42900275099557306,non_fall
2.318244,-0.0831,-0.0344,-0.3957,-0.0464,-0.0209,0.0046,41.475,16.275,10.425,,0.011051000000000144,0.4057923853400899,0.45090630647310376,non_fall
2.321058,-0.041,-0.0251,-0.5161,-0.0464,-0.0209,0.0046,41.475,16.275,10.425,,0.002813999999999872,0.5183340814571236,0.4686852901187,non_fall
2.354296,-0.041,-0.0251,-0.5161,-0.0464,-0.0209,0.0046,41.475,17.175,9.75,,0.03323800000000032,0.5183340814571236,0.4806408352898016,non_fall
2.366243,-0.041,-0.0251,-0.5161,-0.0464,-0.0209,0.0046,41.475,17.175,9.75,,0.011946999999999708,0.5183340814571236,0.4858190608269652,non_fall
2.368716,-0.0896,-0.068,-0.4709,-0.0464,-0.0209,0.0046,41.475,17.175,9.75,,0.0024730000000001695,0.4841476737525442,0.48417518931843295,non_fall
2.381206,-0.0896,-0.068,-0.4709,-0.0751,0.0151,-0.0029,41.475,17.175,9.75,,0.012490000000000112,0.4841476737525442,0.4765625244687451,non_fall
2.414659,-0.0896,-0.068,-0.4709,-0.0751,0.0151,-0.0029,41.475,17.175,9.75,,0.03345299999999973,0.4841476737525442,0.4645512002113571,non_fall
2.417413,-0.1173,-0.1524,-0.3425,-0.0751,0.0151,-0.0029,41.475,17.175,9.75,,0.002753999999999923,0.3927993126266898,0.45012797382751585,non_fall
2.423907,-0.1173,-0.1524,-0.3425,-0.0751,0.0151,-0.0029,40.875,16.65,10.275,,0.006494,0.3927993126266898,0.43535840081482075,non_fall
2.448764,-0.1173,-0.1524,-0.3425,-0.0137,0.0432,-0.0027,40.875,16.65,10.275,,0.02485700000000035,0.3927993126266898,0.42210015450031907,non_fall
2.468656,-0.1173,-0.1524,-0.3425,-0.0137,0.0432,-0.0027,40.875,16.65,10.275,,0.01989200000000002,0.3927993126266898,0.4118354281744077,non_fall
2.470704,-0.1558,-0.1587,-0.3976,-0.0137,0.0432,-0.0027,40.875,16.65,10.275,,0.0020479999999998277,0.4555711689736303,0.4056417721593198,non_fall
2.496084,-0.1558,-0.1587,-0.3976,-0.0137,0.0432,-0.0027,40.575,16.725,10.425,,0.02538000000000018,0.4555711689736303,0.4042613519104543,non_fall
2.518032,-0.1558,-0.1587,-0.3976,-0.0137,0.0432,-0.0027,40.575,16.725,10.425,,0.021947999999999634,0.4555711689736303,0.4081872759725939,non_fall
2.520369,-0.1725,-0.1304,-0.3541,-0.0137,0.0432,-0.0027,40.575,16.725,10.425,,0.0023370000000002555,0.41490627857384854,0.4176856828527124,non_fall
2.522261,-0.1725,-0.1304,-0.3541,0.0657,0.0651,0.0034,40.575,16.725,10.425,,0.0018919999999997827,0.41490627857384854,0.43271593400317504,non_fall
2.564449,-0.1725,-0.1304,-0.3541,0.0657,0.0651,0.0034,40.8,15.825,10.05,,0.042188000000000336,0.41490627857384854,0.4527760708992667,non_fall
2.568704,-0.1725,-0.1304,-0.3541,0.0657,0.0651,0.0034,40.8,15.825,10.05,,0.004254999999999676,0.41490627857384854,0.4767526165278354,non_fall
2.570558,-0.1435,-0.2545,-0.4208,0.0657,0.0651,0.0034,40.8,15.825,10.05,,0.0018540000000002443,0.5122842375088268,0.5028678883476893,non_fall
2.585908,-0.1435,-0.2545,-0.4208,0.1759,0.0501,-0.0026,40.8,15.825,10.05,,0.015349999999999753,0.5122842375088268,0.5287902811109969,non_fall
2.615734,-0.1435,-0.2545,-0.4208,0.1759,0.0501,-0.0026,40.8,15.825,10.05,,0.029825999999999908,0.5122842375088268,0.5519187831870243,non_fall
2.618658,-0.1448,-0.1979,-0.5803,0.1759,0.0501,-0.0026,40.8,15.825,10.05,,0.0029240000000001487,0.6299837616954901,0.5697951525961252,non_fall
2.634787,-0.1448,-0.1979,-0.5803,0.1759,0.0501,-0.0026,40.875,16.65,10.35,,0.016129000000000282,0.6299837616954901,0.580552365233561,non_fall
2.655102,-0.1448,-0.1979,-0.5803,0.242,0.0602,-0.005,40.875,16.65,10.35,,0.02031499999999964,0.6299837616954901,0.5832854095099282,backward_fall
2.666656,-0.1448,-0.1979,-0.5803,0.242,0.0602,-0.005,40.875,16.65,10.35,,0.011554000000000286,0.6299837616954901,0.5782403555031329,backward_fall
2.669508,-0.1252,-0.203,-0.4592,0.242,0.0602,-0.005,40.875,16.65,10.35,,0.0028519999999998547,0.5174443738219597,0.5667662795799827,backward_fall
2.703556,-0.1252,-0.203,-0.4592,0.242,0.0602,-0.005,40.725,16.725,10.125,,0.034047999999999856,0.5174443738219597,0.5510496866788253,backward_fall
2.71285,-0.1252,-0.203,-0.4592,0.242,0.0602,-0.005,40.725,16.725,10.125,,0.009294000000000135,0.5174443738219597,0.5337211437670976,backward_fall
2.715317,-0.1268,-0.0545,-0.4633,0.242,0.0602,-0.005,40.725,16.725,10.125,,0.002467000000000219,0.4834205001859147,0.517457944967027,backward_fall
2.72302,-0.1268,-0.0545,-0.4633,0.3054,0.0655,0.0229,40.725,16.725,10.125,,0.007702999999999793,0.4834205001859147,0.5046950622730851,backward_fall
2.762431,-0.1268,-0.0545,-0.4633,0.3054,0.0655,0.0229,40.725,16.725,10.125,,0.03941099999999986,0.4834205001859147,0.4975136235753718,backward_fall
2.765465,-0.1693,0.0355,-0.4753,0.3054,0.0655,0.0229,40.725,16.725,10.125,,0.003033999999999981,0.5057991992876224,0.49772293223792413,backward_fall
2.774103,-0.1693,0.0355,-0.4753,0.3054,0.0655,0.0229,40.725,16.95,9.825,,0.008638000000000368,0.5057991992876224,0.5071024527351596,backward_fall
2.791835,-0.1693,0.0355,-0.4753,0.3013,0.0628,0.0606,40.725,16.95,9.825,,0.017731999999999637,0.5057991992876224,0.5277314563040635,backward_fall
2.813361,-0.1693,0.0355,-0.4753,0.3013,0.0628,0.0606,40.725,16.95,9.825,,0.021526000000000156,0.5057991992876224,0.562308732599289,backward_fall
2.816854,-0.1483,-0.0115,-0.8113,0.3013,0.0628,0.0606,40.725,16.95,9.825,,0.0034930000000001904,0.8248229082657683,0.614348216585257,backward_fall
2.844132,-0.1483,-0.0115,-0.8113,0.3013,0.0628,0.0606,40.575,16.875,10.125,,0.027277999999999913,0.8248229082657683,0.688126399667395,backward_fall
2.865562,-0.1483,-0.0115,-0.8113,0.1568,0.0101,0.0643,40.575,16.875,10.125,,0.02143000000000006,0.8248229082657683,0.788276437585849,backward_fall
2.868359,-0.1483,-0.0115,-0.8113,0.1568,0.0101,0.0643,40.575,16.875,10.125,,0.0027969999999997164,0.8248229082657683,0.9190103766225165,backward_fall
2.870486,-0.2471,0.2456,-0.8579,0.1568,0.0101,0.0643,40.575,16.875,10.125,,0.002127000000000212,0.9259428600081109,1.0831030879780716,backward_fall
2.914701,-0.2471,0.2456,-0.8579,0.1568,0.0101,0.0643,40.575,16.875,10.125,,0.04421499999999989,0.9259428600081109,1.2809128859606633,backward_fall
2.917105,0.0201,1.305,-1.3816,0.1568,0.0101,0.0643,40.575,16.875,10.125,,0.0024039999999998507,1.900591373757126,1.5097423263386691,backward_fall
2.919129,0.0201,1.305,-1.3816,0.1568,0.0101,0.0643,40.425,15.45,9.525,,0.0020240000000000258,1.900591373757126,1.763724260681138,backward_fall
2.932457,0.0201,1.305,-1.3816,0.0444,-0.0192,0.0371,40.425,15.45,9.525,,0.013328000000000007,1.900591373757126,2.034240028236393,backward_fall
2.963536,0.0201,1.305,-1.3816,0.0444,-0.0192,0.0371,40.425,15.45,9.525,,0.03107900000000008,1.900591373757126,2.310782238989985,backward_fall
2.965532,0.0706,2.0467,-2.0098,0.0444,-0.0192,0.0371,40.425,15.45,9.525,,0.001996000000000109,2.869366008371884,2.5822013588259103,backward_fall
2.981655,0.0706,2.0467,-2.0098,0.0444,-0.0192,0.0371,40.65,15.45,9.75,,0.016122999999999887,2.869366008371884,2.8383040534306905,backward_fall
3.002081,0.0706,2.0467,-2.0098,-0.1843,-0.0308,0.0363,40.65,15.45,9.75,,0.020426000000000055,2.869366008371884,3.071701113888352,backward_fall
3.016185,0.0706,2.0467,-2.0098,-0.1843,-0.0308,0.0363,40.65,15.45,9.75,,0.014104000000000116,2.869366008371884,3.2796835256932475,backward_fall
3.018891,0.1161,3.2787,-2.3583,-0.1843,-0.0308,0.0363,40.65,15.45,9.75,,0.002705999999999875,4.040412329206018,3.465809654378057,backward_fall
3.046454,0.1161,3.2787,-2.3583,-0.1843,-0.0308,0.0363,41.1,15.45,10.35,,0.027563000000000226,4.040412329206018,3.6407890959032305,backward_fall
3.063304,0.1161,3.2787,-2.3583,-0.1843,-0.0308,0.0363,41.1,15.45,10.35,,0.01684999999999981,4.040412329206018,3.822157111498559,backward_fall
3.065911,-0.4024,3.6825,-2.0297,-0.1843,-0.0308,0.0363,41.1,15.45,10.35,,0.002606999999999804,4.224028184091579,4.032298668091642,backward_fall
3.069482,-0.4024,3.6825,-2.0297,-0.4157,-0.119,0.0777,41.1,15.45,10.35,,0.003570999999999991,4.224028184091579,4.294723062475037,backward_fall
3.111303,-0.4024,3.6825,-2.0297,-0.4157,-0.119,0.0777,41.1,15.45,10.35,,0.04182100000000011,4.224028184091579,4.629007865147179,backward_fall
3.115939,-0.2819,5.1338,-1.7221,-0.4157,-0.119,0.0777,41.1,15.45,10.35,,0.0046360000000000845,5.422268755788484,5.04528738927371,backward_fall
3.120373,-0.2819,5.1338,-1.7221,-0.4157,-0.119,0.0777,40.875,15.075,10.65,,0.004433999999999827,5.422268755788484,5.539393531063445,backward_fall
3.143347,-0.2819,5.1338,-1.7221,-0.9577,-0.1445,0.1472,40.875,15.075,10.65,,0.02297400000000005,5.422268755788484,6.089772622401495,backward_fall
3.163558,-0.2819,5.1338,-1.7221,-0.9577,-0.1445,0.1472,40.875,15.075,10.65,,0.0202110000000002,5.422268755788484,6.657191899288952,backward_fall
3.165914,0.2929,7.4243,-1.0525,-0.9577,-0.1445,0.1472,40.875,15.075,10.65,,0.0023559999999998027,7.504250605490197,7.187994519517248,backward_fall
3.188181,0.2929,7.4243,-1.0525,-0.9577,-0.1445,0.1472,40.875,13.875,11.025,,0.02226700000000026,7.504250605490197,7.62110649975907,backward_fall
3.2128,0.2929,7.4243,-1.0525,-0.9577,-0.1445,0.1472,40.875,13.875,11.025,,0.024618999999999946,7.504250605490197,7.898123737090983,backward_fall
3.215499,0.3598,8.4664,0.9229,-0.9577,-0.1445,0.1472,40.875,13.875,11.025,,0.002698999999999785,8.524149776370662,7.974891526803227,backward_fall
3.21753,0.3598,8.4664,0.9229,-1.9494,0.1503,-0.0846,40.875,13.875,11.025,,0.002031000000000116,8.524149776370662,7.832348817589059,backward_fall
3.256185,0.3598,8.4664,0.9229,-1.9494,0.1503,-0.0846,40.875,13.125,13.425,,0.038654999999999884,8.524149776370662,7.484160643300451,backward_fall
3.260518,0.3598,8.4664,0.9229,-1.9494,0.1503,-0.0846,40.875,13.125,13.425,,0.00433299999999992,8.524149776370662,6.978858781911375,backward_fall
3.261983,0.642,6.1938,-0.5328,-1.9494,0.1503,-0.0846,40.875,13.125,13.425,,0.0014650000000000496,6.249735856818271,6.394978789052107,backward_fall
3.283061,0.642,6.1938,-0.5328,-2.4109,-0.1226,0.2559,40.875,13.125,13.425,,0.021078000000000152,6.249735856818271,5.829049643975683,backward_fall
3.313135,0.642,6.1938,-0.5328,-2.4109,-0.1226,0.2559,40.875,13.125,13.425,,0.030073999999999934,6.249735856818271,5.378002184047025,backward_fall
3.316522,-1.1056,0.5366,-2.815,-2.4109,-0.1226,0.2559,40.875,13.125,13.425,,0.003387000000000029,3.071565711489826,5.119174849341896,backward_fall
3.324859,-1.1056,0.5366,-2.815,-2.4109,-0.1226,0.2559,40.725,9.75,16.05,,0.008337000000000039,3.071565711489826,5.0922425276801135,backward_fall
3.349172,-1.1056,0.5366,-2.815,-1.5512,-0.2194,0.8045,40.725,9.75,16.05,,0.024312999999999807,3.071565711489826,5.287773873775614,backward_fall
3.362797,-1.1056,0.5366,-2.815,-1.5512,-0.2194,0.8045,40.725,9.75,16.05,,0.01362500000000022,3.071565711489826,5.64632883735622,backward_fall
3.365641,-0.0197,-5.0833,-6.3026,-1.5512,-0.2194,0.8045,40.725,9.75,16.05,,0.0028440000000000687,8.097104034159374,6.069763513189451,backward_fall
3.39424,-0.0197,-5.0833,-6.3026,-1.5512,-0.2194,0.8045,41.7,5.925,16.875,,0.02859899999999982,8.097104034159374,6.443102566043048,backward_fall
3.412974,-0.0197,-5.0833,-6.3026,-1.5512,-0.2194,0.8045,41.7,5.925,16.875,,0.01873400000000025,8.097104034159374,6.662161282932425,backward_fall
3.415931,-0.4232,-5.2914,-4.8236,-1.5512,-0.2194,0.8045,41.7,5.925,16.875,,0.0029569999999998764,7.172525995770249,6.660436218770079,backward_fall
3.41827,-0.4232,-5.2914,-4.8236,0.3205,-0.4963,-0.1913,41.7,5.925,16.875,,0.002339000000000091,7.172525995770249,6.429231315062249,backward_fall
3.457392,-0.4232,-5.2914,-4.8236,0.3205,-0.4963,-0.1913,41.7,5.925,16.875,,0.03912199999999988,7.172525995770249,6.026931200624072,backward_fall
3.46355,-0.4133,0.7251,-5.7861,0.3205,-0.4963,-0.1913,41.7,5.925,16.875,,0.006158000000000108,5.845984956361075,5.57565774913348,backward_fall
3.467237,-0.4133,0.7251,-5.7861,0.3205,-0.4963,-0.1913,42.15,7.05,16.95,,0.003686999999999774,5.845984956361075,5.245599466310456,backward_fall
3.485536,-0.4133,0.7251,-5.7861,2.6497,-0.4134,-0.6794,42.15,7.05,16.95,,0.018299000000000287,5.845984956361075,5.229037032437347,backward_fall
3.505117,-0.4133,0.7251,-5.7861,2.6497,-0.4134,-0.6794,42.15,7.05,16.95,,0.019580999999999626,5.845984956361075,5.707602794003276,backward_fall
3.507354,0.8271,4.1511,-3.6359,2.6497,-0.4134,-0.6794,42.15,7.05,16.95,,0.0022370000000000445,5.579918855144759,6.81761409871728,backward_fall
3.535079,0.8271,4.1511,-3.6359,2.6497,-0.4134,-0.6794,41.55,10.275,15.375,,0.02772500000000022,5.579918855144759,8.619305430108298,backward_fall
3.559593,0.8271,4.1511,-3.6359,2.6497,-0.4134,-0.6794,41.55,10.275,15.375,,0.024513999999999925,5.579918855144759,11.076089675448001,backward_fall
3.562784,-0.7131,-16.876,6.5476,2.6497,-0.4134,-0.6794,41.55,10.275,15.375,,0.003191000000000166,18.115710126020456,14.048922443016277,backward_fall
3.565011,-0.7131,-16.876,6.5476,4.9708,-0.1626,-0.679,41.55,10.275,15.375,,0.002226999999999979,18.115710126020456,17.308020266263753,backward_fall
3.604313,-0.7131,-16.876,6.5476,4.9708,-0.1626,-0.679,40.575,14.55,13.05,,0.039301999999999726,18.115710126020456,20.56042355426193,backward_fall
3.610884,-0.7131,-16.876,6.5476,4.9708,-0.1626,-0.679,40.575,14.55,13.05,,0.0065710000000001045,18.115710126020456,23.48894894532771,backward_fall
3.613755,-4.4821,-25.0682,20.0958,4.9708,-0.1626,-0.679,40.575,14.55,13.05,,0.002870999999999846,32.43986820703808,25.796632548044617,backward_fall
3.635702,-4.4821,-25.0682,20.0958,6.2067,-0.2665,0.1355,40.575,14.55,13.05,,0.021947000000000383,32.43986820703808,27.24975608497195,backward_fall
3.6572,-4.4821,-25.0682,20.0958,6.2067,-0.2665,0.1355,40.575,14.55,13.05,,0.021497999999999795,32.43986820703808,27.71151008605443,backward_fall
3.659912,3.1688,12.947,-19.046,6.2067,-0.2665,0.1355,40.575,14.55,13.05,,0.0027119999999998257,23.246853947147343,27.159062643091904,backward_fall
3.674476,3.1688,12.947,-19.046,6.2067,-0.2665,0.1355,40.275,16.05,6.675,,0.014564000000000021,23.246853947147343,25.680830088577142,backward_fall
3.696522,3.1688,12.947,-19.046,3.8465,0.0733,-0.3777,40.275,16.05,6.675,,0.02204600000000001,23.246853947147343,23.456449813724358,backward_fall
3.705651,3.1688,12.947,-19.046,3.8465,0.0733,-0.3777,40.275,16.05,6.675,,0.009129000000000165,23.246853947147343,20.72582324208533,backward_fall
3.707403,-3.3487,13.5053,-3.0779,3.8465,0.0733,-0.3777,40.275,16.05,6.675,,0.0017519999999997538,14.250627641967213,17.754072688363177,backward_fall
3.743935,-3.3487,13.5053,-3.0779,3.8465,0.0733,-0.3777,39.825,17.55,1.35,,0.03653200000000023,14.250627641967213,14.797803826308195,backward_fall
3.754518,-3.3487,13.5053,-3.0779,3.8465,0.0733,-0.3777,39.825,17.55,1.35,,0.010583000000000009,14.250627641967213,12.076629787646969,backward_fall
3.757097,2.2713,-5.4708,2.4525,3.8465,0.0733,-0.3777,39.825,17.55,1.35,,0.002578999999999887,6.411178720017092,9.752876916069688,backward_fall
3.765677,2.2713,-5.4708,2.4525,2.6331,-0.5727,-0.1968,39.825,17.55,1.35,,0.008580000000000254,6.411178720017092,7.921324660100065,backward_fall
3.80946,2.2713,-5.4708,2.4525,2.6331,-0.5727,-0.1968,39.825,17.55,1.35,,0.043782999999999905,6.411178720017092,6.6095955479756645,backward_fall
3.815307,5.8453,3.6792,1.0221,2.6331,-0.5727,-0.1968,39.825,17.55,1.35,,0.0058469999999997135,6.982029299566137,5.788295895864015,backward_fall
3.817585,5.8453,3.6792,1.0221,2.6331,-0.5727,-0.1968,39.825,17.175,-3.075,,0.0022780000000000022,6.982029299566137,5.388122184898552,backward_fall
3.838335,5.8453,3.6792,1.0221,3.2071,0.7174,-0.2336,39.825,17.175,-3.075,,0.020750000000000046,6.982029299566137,5.319496882519851,backward_fall
3.85896,5.8453,3.6792,1.0221,3.2071,0.7174,-0.2336,39.825,17.175,-3.075,,0.020625000000000338,6.982029299566137,5.489899915219306,backward_fall
3.861987,4.541,2.934,1.5834,3.2071,0.7174,-0.2336,39.825,17.175,-3.075,,0.003026999999999891,5.633488489382046,5.815307082534096,backward_fall
3.884719,4.541,2.934,1.5834,3.2071,0.7174,-0.2336,39.45,16.05,-4.65,,0.022731999999999974,5.633488489382046,6.224506299742128,backward_fall
3.908726,4.541,2.934,1.5834,2.3325,1.5842,-0.5805,39.45,16.05,-4.65,,0.02400700000000011,5.633488489382046,6.657571716802687,backward_fall
3.912957,4.541,2.934,1.5834,2.3325,1.5842,-0.5805,39.45,16.05,-4.65,,0.004230999999999874,5.633488489382046,7.061524899797998,backward_fall
3.914925,0.1505,6.0823,1.7827,2.3325,1.5842,-0.5805,39.45,16.05,-4.65,,0.001968000000000192,6.339956058995993,7.38667629192916,backward_fall
3.956305,0.1505,6.0823,1.7827,2.3325,1.5842,-0.5805,39.45,16.05,-4.65,,0.04137999999999975,6.339956058995993,7.586312400651078,backward_fall
3.960804,-3.7822,6.0042,5.3028,2.3325,1.5842,-0.5805,39.45,16.05,-4.65,,0.004499000000000031,8.858619662227293,7.62065229737492,backward_fall
3.965397,-3.7822,6.0042,5.3028,2.3325,1.5842,-0.5805,39.075,16.65,-2.925,,0.004592999999999847,8.858619662227293,7.463915760687577,backward_fall
3.975137,-3.7822,6.0042,5.3028,0.5771,0.9586,-0.1944,39.075,16.65,-2.925,,0.009740000000000304,8.858619662227293,7.1116460652964975,backward_fall
4.007169,-3.7822,6.0042,5.3028,0.5771,0.9586,-0.1944,39.075,16.65,-2.925,,0.03203200000000006,8.858619662227293,6.584861389325849,backward_fall
4.013759,-0.9359,3.5034,-1.6099,0.5771,0.9586,-0.1944,39.075,16.65,-2.925,,0.006590000000000096,3.967555718575355,5.9285708679463855,backward_fall
4.023405,-0.9359,3.5034,-1.6099,0.5771,0.9586,-0.1944,39.3,16.725,-1.275,,0.009646000000000043,3.967555718575355,5.204360273270184,backward_fall
4.042878,-0.9359,3.5034,-1.6099,-0.1642,0.4946,0.3549,39.3,16.725,-1.275,,0.01947299999999963,3.967555718575355,4.479077540174217,backward_fall
4.05337,-0.9359,3.5034,-1.6099,-0.1642,0.4946,0.3549,39.3,16.725,-1.275,,0.010492000000000168,3.967555718575355,3.8129190176934795,backward_fall
4.05548,-0.5304,1.6968,-1.5072,-0.1642,0.4946,0.3549,39.3,16.725,-1.275,,0.0021100000000000563,2.3306879327786465,3.2499580560908443,backward_fall
4.093492,-0.5304,1.6968,-1.5072,-0.1642,0.4946,0.3549,39.75,15.375,0.15,,0.03801200000000016,2.3306879327786465,2.812942224184531,backward_fall
4.101585,-0.5304,1.6968,-1.5072,-0.1642,0.4946,0.3549,39.75,15.375,0.15,,0.008092999999999684,2.3306879327786465,2.502875519209387,backward_fall
4.103243,-2.9392,0.5139,-0.4115,-0.1642,0.4946,0.3549,39.75,15.375,0.15,,0.0016579999999999373,3.012029564927941,2.302832876905573,backward_fall
4.114798,-2.9392,0.5139,-0.4115,-0.0409,0.1787,0.2934,39.75,15.375,0.15,,0.011555000000000426,3.012029564927941,2.1845829436190005,backward_fall
4.152301,-2.9392,0.5139,-0.4115,-0.0409,0.1787,0.2934,39.75,15.375,0.15,,0.037502999999999176,3.012029564927941,2.1160382115954186,backward_fall
4.156991,-1.1439,1.2735,0.3609,-0.0409,0.1787,0.2934,39.75,15.375,0.15,,0.004690000000000083,1.749445132034726,2.06759762655281,backward_fall
4.172154,-1.1439,1.2735,0.3609,-0.0409,0.1787,0.2934,39.525,14.925,0.675,,0.01516300000000026,1.749445132034726,2.0161613822345257,backward_fall
4.180189,-1.1439,1.2735,0.3609,0.0556,0.0603,-0.0591,39.525,14.925,0.675,,0.008035000000000458,1.749445132034726,1.9466297503415266,backward_fall
4.204174,-1.1439,1.2735,0.3609,0.0556,0.0603,-0.0591,39.525,14.925,0.675,,0.0239849999999997,1.749445132034726,1.851511395762727,backward_fall
4.205974,0.3375,1.3577,-0.6305,0.0556,0.0603,-0.0591,39.525,14.925,0.675,,0.0018000000000002458,1.534531130345683,1.7295519922909244,backward_fall
4.23634,0.3375,1.3577,-0.6305,0.0556,0.0603,-0.0591,40.275,14.925,1.275,,0.030365999999999893,1.534531130345683,1.5841347931811791,backward_fall
4.253477,0.3375,1.3577,-0.6305,-0.1843,-0.1249,-0.4697,40.275,14.925,1.275,,0.017136999999999958,1.534531130345683,1.4218706207209486,backward_fall
4.256424,0.3375,1.3577,-0.6305,-0.1843,-0.1249,-0.4697,40.275,14.925,1.275,,0.002946999999999811,1.534531130345683,1.2514823531371737,backward_fall
4.258017,-0.4784,-0.3026,0.7342,-0.1843,-0.1249,-0.4697,40.275,14.925,1.275,,0.0015929999999997335,0.927083038352013,1.0828869488097823,backward_fall
4.299747,-0.4784,-0.3026,0.7342,-0.1843,-0.1249,-0.4697,39.675,16.275,0.45,,0.04173000000000027,0.927083038352013,0.9263284074653616,backward_fall
4.30478,-0.4784,-0.3026,0.7342,-0.1843,-0.1249,-0.4697,39.675,16.275,0.45,,0.005033000000000065,0.927083038352013,0.7914985007778439,backward_fall
4.307433,-0.3239,0.2876,0.1334,-0.1843,-0.1249,-0.4697,39.675,16.275,0.45,,0.0026529999999995724,0.4532334166850454,0.6867058120549294,backward_fall
4.323228,-0.3239,0.2876,0.1334,-0.2278,-0.2129,-0.1678,39.675,16.275,0.45,,0.01579500000000067,0.4532334166850454,0.6182293268708274,backward_fall
4.351732,-0.3239,0.2876,0.1334,-0.2278,-0.2129,-0.1678,39.675,16.275,0.45,,0.028503999999999863,0.4532334166850454,0.5899904074371867,backward_fall
4.35569,0.4623,0.7518,-0.1166,-0.2278,-0.2129,-0.1678,39.675,16.275,0.45,,0.003957999999999906,0.890235974334895,0.6035879415104426,backward_fall
4.366216,0.4623,0.7518,-0.1166,-0.2278,-0.2129,-0.1678,39.15,17.325,0.225,,0.010525999999999591,0.890235974334895,0.658576958535799,backward_fall
4.390673,0.4623,0.7518,-0.1166,-0.3493,-0.2158,-0.1335,39.15,17.325,0.225,,0.02445699999999995,0.890235974334895,0.7527196572948603,backward_fall
4.400385,0.4623,0.7518,-0.1166,-0.3493,-0.2158,-0.1335,39.15,17.325,0.225,,0.009712000000000387,0.890235974334895,0.8819327708249195,backward_fall
4.402399,0.2402,0.6114,0.7866,-0.3493,-0.2158,-0.1335,39.15,17.325,0.225,,0.0020139999999999603,1.0248148906022003,1.0398415825839173,backward_fall
4.434853,0.2402,0.6114,0.7866,-0.3493,-0.2158,-0.1335,39.3,17.25,0.15,,0.03245400000000043,1.0248148906022003,1.2171314020362707,backward_fall
4.454523,0.2402,0.6114,0.7866,-0.3493,-0.2158,-0.1335,39.3,17.25,0.15,,0.019669999999999632,1.0248148906022003,1.401110810803085,backward_fall
4.457621,-0.1244,1.2127,0.9121,-0.3493,-0.2158,-0.1335,39.3,17.25,0.15,,0.003097999999999601,1.5225120886219587,1.5759630518459233,backward_fall
4.47101,-0.1244,1.2127,0.9121,-0.409,-0.3607,-0.055,39.3,17.25,0.15,,0.013389000000000095,1.5225120886219587,1.7240275534028806,backward_fall
4.503696,-0.1244,1.2127,0.9121,-0.409,-0.3607,-0.055,39.3,17.25,0.15,,0.03268599999999999,1.5225120886219587,1.8281509777908085,backward_fall
4.507096,-0.9184,2.1607,-0.1551,-0.409,-0.3607,-0.055,39.3,17.25,0.15,,0.0034000000000000696,2.352900138127413,1.8747575775168182,backward_fall
4.509589,-0.9184,2.1607,-0.1551,-0.409,-0.3607,-0.055,38.775,17.325,0.15,,0.0024930000000003005,2.352900138127413,1.8569160822607185,backward_fall
4.532344,-0.9184,2.1607,-0.1551,-0.8691,-0.2837,0.146,38.775,17.325,0.15,,0.02275500000000008,2.352900138127413,1.7764497076403305,backward_fall
4.552052,-0.9184,2.1607,-0.1551,-0.8691,-0.2837,0.146,38.775,17.325,0.15,,0.019707999999999615,2.352900138127413,1.644205823592386,backward_fall
4.554144,0.2673,-0.6372,0.1939,-0.8691,-0.2837,0.146,38.775,17.325,0.15,,0.002092000000000205,0.7176840112472898,1.478079240920487,backward_fall
4.578158,0.2673,-0.6372,0.1939,-0.8691,-0.2837,0.146,40.65,17.475,0.075,,0.024014000000000202,0.7176840112472898,1.2991693750504298,backward_fall
4.60101,0.2673,-0.6372,0.1939,-0.8253,-0.2445,-0.1855,40.65,17.475,0.075,,0.02285199999999943,0.7176840112472898,1.1272010316189485,backward_fall
4.604737,0.2673,-0.6372,0.1939,-0.8253,-0.2445,-0.1855,40.65,17.475,0.075,,0.00372700000000048,0.7176840112472898,0.9766384917613374,backward_fall
4.607142,0.2214,-0.7823,0.2315,-0.8253,-0.2445,-0.1855,40.65,17.475,0.075,,0.0024049999999995464,0.8453422383863236,0.8546050297184936,backward_fall
4.646051,0.2214,-0.7823,0.2315,-0.8253,-0.2445,-0.1855,40.2,17.85,0.525,,0.038909000000000304,0.8453422383863236,0.7610005363817373,backward_fall
4.649276,0.2214,-0.7823,0.2315,-0.8253,-0.2445,-0.1855,40.2,17.85,0.525,,0.0032250000000004775,0.8453422383863236,0.6904766679841988,backward_fall
4.65086,0.6272,-0.6632,-0.1068,-0.8253,-0.2445,-0.1855,40.2,17.85,0.525,,0.0015839999999993637,0.9190322736444025,0.6354464971734672,non_fall
4.668768,0.6272,-0.6632,-0.1068,-0.6159,-0.0657,-0.182,40.2,17.85,0.525,,0.017908000000000257,0.9190322736444025,0.5891400568325894,non_fall
4.699057,0.6272,-0.6632,-0.1068,-0.6159,-0.0657,-0.182,40.2,17.85,0.525,,0.03028899999999979,0.9190322736444025,0.5478301564793486,non_fall
4.703128,0.1845,-0.1323,0.1858,-0.6159,-0.0657,-0.182,40.2,17.85,0.525,,0.004071000000000602,0.2933686759011602,0.511683626495927,non_fall
4.715858,0.1845,-0.1323,0.1858,-0.6159,-0.0657,-0.182,39.45,19.35,0.975,,0.012729999999999464,0.2933686759011602,0.48416040167810115,non_fall
4.738079,0.1845,-0.1323,0.1858,-0.5904,0.0334,-0.2462,39.45,19.35,0.975,,0.022221000000000046,0.2933686759011602,0.47034575367180276,non_fall
4.747655,0.1845,-0.1323,0.1858,-0.5904,0.0334,-0.2462,39.45,19.35,0.975,,0.009576000000000029,0.2933686759011602,0.4748818823874268,non_fall
4.75074,0.1417,0.5008,0.1296,-0.5904,0.0334,-0.2462,39.45,19.35,0.975,,0.0030850000000004485,0.5363540714863644,0.5001659722119122,non_fall
4.784311,0.1417,0.5008,0.1296,-0.5904,0.0334,-0.2462,39.45,20.25,2.175,,0.03357099999999935,0.5363540714863644,0.5452625296175202,non_fall
4.796978,0.1417,0.5008,0.1296,-0.5904,0.0334,-0.2462,39.45,20.25,2.175,,0.012667000000000428,0.5363540714863644,0.605691866462648,non_fall
4.802349,0.0623,0.6698,0.2949,-0.5904,0.0334,-0.2462,39.45,20.25,2.175,,0.005371000000000237,0.7344925731414852,0.674028572998635,non_fall
4.80734,0.0623,0.6698,0.2949,-0.6472,-0.2256,-0.0449,39.45,20.25,2.175,,0.004990999999999524,0.7344925731414852,0.7411113689438408,non_fall
4.851431,0.0623,0.6698,0.2949,-0.6472,-0.2256,-0.0449,39.45,20.25,2.175,,0.04409099999999988,0.7344925731414852,0.7976040077262816,non_fall
4.856677,-0.5089,0.4842,0.67,-0.6472,-0.2256,-0.0449,39.45,20.25,2.175,,0.005246000000000528,0.9707362412107627,0.8356214055794277,non_fall
4.861478,-0.5089,0.4842,0.67,-0.6472,-0.2256,-0.0449,39.075,19.875,1.95,,0.004800999999999611,0.9707362412107627,0.8501292484367915,non_fall
4.880497,-0.5089,0.4842,0.67,-0.7491,-0.3454,-0.1081,39.075,19.875,1.95,,0.01901900000000012,0.9707362412107627,0.8398439512288405,non_fall
4.89923,-0.5089,0.4842,0.67,-0.7491,-0.3454,-0.1081,39.075,19.875,1.95,,0.01873300000000011,0.9707362412107627,0.8074288958512343,non_fall
4.902424,0.1595,0.4348,0.3163,-0.7491,-0.3454,-0.1081,39.075,19.875,1.95,,0.003193999999999697,0.560835965323195,0.7589265909937013,non_fall
4.923919,0.1595,0.4348,0.3163,-0.7491,-0.3454,-0.1081,39.6,20.25,2.025,,0.02149499999999982,0.560835965323195,0.7025649439869244,non_fall
4.947988,0.1595,0.4348,0.3163,-0.7461,-0.1923,-0.02,39.6,20.25,2.025,,0.024068999999999896,0.560835965323195,0.6472511430665192,non_fall
4.951921,0.1595,0.4348,0.3163,-0.7461,-0.1923,-0.02,39.6,20.25,2.025,,0.003932999999999964,0.560835965323195,0.6011265015753853,non_fall
4.953854,0.3228,0.4446,0.2788,-0.7461,-0.1923,-0.02,39.6,20.25,2.025,,0.0019330000000001846,0.6161156060351011,0.570469538377545,non_fall
4.994231,0.3228,0.4446,0.2788,-0.7461,-0.1923,-0.02,39.3,20.85,2.475,,0.04037700000000033,0.6161156060351011,0.5590653380586005,non_fall
4.999164,0.3228,0.4446,0.2788,-0.7461,-0.1923,-0.02,39.3,20.85,2.475,,0.004933000000000298,0.6161156060351011,0.5680082947932278,non_fall
5.002679,0.2034,0.5275,0.045,-0.7461,-0.1923,-0.02,39.3,20.85,2.475,,0.0035149999999992687,0.5671444348664633,0.5958359274266003,non_fall
5.015995,0.2034,0.5275,0.045,-0.8294,-0.0159,-0.0286,39.3,20.85,2.475,,0.01331600000000055,0.5671444348664633,0.6389030605802926,non_fall
5.046344,0.2034,0.5275,0.045,-0.8294,-0.0159,-0.0286,39.3,20.85,2.475,,0.03034900000000018,0.5671444348664633,0.6919526527711267,non_fall
5.04883,-0.4651,0.7153,-0.0356,-0.8294,-0.0159,-0.0286,39.3,20.85,2.475,,0.002485999999999322,0.853955186177823,0.7488633073358346,non_fall
5.066252,-0.4651,0.7153,-0.0356,-0.8294,-0.0159,-0.0286,38.7,20.175,2.925,,0.017422000000000715,0.853955186177823,0.803520872928021,non_fall
5.084673,-0.4651,0.7153,-0.0356,-0.9485,-0.1321,-0.1026,38.7,20.175,2.925,,0.01842100000000002,0.853955186177823,0.8506930908218033,non_fall
5.100328,-0.4651,0.7153,-0.0356,-0.9485,-0.1321,-0.1026,38.7,20.175,2.925,,0.015654999999999752,0.853955186177823,0.8867388893389611,non_fall
5.104668,-0.8774,0.627,0.1214,-0.9485,-0.1321,-0.1026,38.7,20.175,2.925,,0.0043400000000000105,1.0852178214533705,0.9099920960451428,non_fall
5.134884,-0.8774,0.627,0.1214,-0.9485,-0.1321,-0.1026,38.925,20.85,4.725,,0.030215999999999354,1.0852178214533705,0.9207093233854947,non_fall
5.148576,-0.8774,0.627,0.1214,-0.9485,-0.1321,-0.1026,38.925,20.85,4.725,,0.013692000000000704,1.0852178214533705,0.9205488124851121,non_fall
5.151515,-0.3711,0.4208,-0.0526,-0.9485,-0.1321,-0.1026,38.925,20.85,4.725,,0.002938999999999581,0.5635198399346735,0.9116722341695351,non_fall
5.164993,-0.3711,0.4208,-0.0526,-1.1343,-0.1898,-0.2362,38.925,20.85,4.725,,0.013478000000000101,0.5635198399346735,0.8957381282954255,non_fall
5.198495,-0.3711,0.4208,-0.0526,-1.1343,-0.1898,-0.2362,38.925,20.85,4.725,,0.033502000000000365,0.5635198399346735,0.8731937901917872,non_fall
5.202801,-0.0652,0.2446,1.0045,-1.1343,-0.1898,-0.2362,38.925,20.85,4.725,,0.004305999999999699,1.0359056182876893,0.8432261059430293,non_fall
5.205412,-0.0652,0.2446,1.0045,-1.1343,-0.1898,-0.2362,38.775,21.15,4.725,,0.002610999999999919,1.0359056182876893,0.8044499663344064,non_fall
5.226618,-0.0652,0.2446,1.0045,-1.2816,-0.0736,-0.3625,38.775,21.15,4.725,,0.02120600000000028,1.0359056182876893,0.7560351894403249,non_fall
5.247429,-0.0652,0.2446,1.0045,-1.2816,-0.0736,-0.3625,38.775,21.15,4.725,,0.020811000000000135,1.0359056182876893,0.6987395811649606,non_fall
5.24914,-0.0731,0.3039,0.1924,-1.2816,-0.0736,-0.3625,38.775,21.15,4.725,,0.001710999999999352,0.3670375730085409,0.6353763221721246,non_fall
5.274502,-0.0731,0.3039,0.1924,-1.2816,-0.0736,-0.3625,38.475,21.75,7.125,,0.02536200000000033,0.3670375730085409,0.5705533970092695,non_fall
5.296485,-0.0731,0.3039,0.1924,-1.3323,-0.0231,-0.3128,38.475,21.75,7.125,,0.02198299999999964,0.3670375730085409,0.5098864160915243,non_fall
5.29858,-0.0731,0.3039,0.1924,-1.3323,-0.0231,-0.3128,38.475,21.75,7.125,,0.002095000000000624,0.3670375730085409,0.4590896151326826,non_fall
5.29978,-0.0932,0.2605,0.4368,-1.3323,-0.0231,-0.3128,38.475,21.75,7.125,,0.0011999999999998678,0.5170500265931721,0.42330054826213737,non_fall
5.345158,-0.0932,0.2605,0.4368,-1.3323,-0.0231,-0.3128,38.475,21.75,7.125,,0.045377999999999474,0.5170500265931721,0.4067738762554377,non_fall
5.350495,-0.0587,0.4645,0.0441,-1.3323,-0.0231,-0.3128,38.475,21.75,7.125,,0.005336999999999925,0.4702666796616575,0.41285592596714066,non_fall
5.354655,-0.0587,0.4645,0.0441,-1.3323,-0.0231,-0.3128,38.55,21.975,8.475,,0.004160000000000608,0.4702666796616575,0.444044983880542,non_fall
5.370497,-0.0587,0.4645,0.0441,-1.4483,-0.1005,-0.3593,38.55,21.975,8.475,,0.015842000000000134,0.4702666796616575,0.501970512384185,non_fall
5.398078,-0.0587,0.4645,0.0441,-1.4483,-0.1005,-0.3593,38.55,21.975,8.475,,0.027580999999999634,0.4702666796616575,0.5872270953350606,non_fall
5.401427,-0.6486,0.5978,0.0418,-1.4483,-0.1005,-0.3593,38.55,21.975,8.475,,0.0033490000000000464,0.8830594770455725,0.6990945855157469,non_fall
5.413776,-0.6486,0.5978,0.0418,-1.4483,-0.1005,-0.3593,38.1,22.65,10.725,,0.012349000000000387,0.8830594770455725,0.8352187278485511,non_fall
5.436744,-0.6486,0.5978,0.0418,-1.623,-0.4664,-0.4569,38.1,22.65,10.725,,0.022967999999999655,0.8830594770455725,0.991332289732072,non_fall
5.446832,-0.6486,0.5978,0.0418,-1.623,-0.4664,-0.4569,38.1,22.65,10.725,,0.010087999999999653,0.8830594770455725,1.161111674201167,non_fall
5.450335,-1.3165,0.686,0.2598,-1.623,-0.4664,-0.4569,38.1,22.65,10.725,,0.003503000000000256,1.5070714283005966,1.3362908247869418,non_fall
5.484622,-1.3165,0.686,0.2598,-1.623,-0.4664,-0.4569,37.725,23.175,12.075,,0.034286999999999956,1.5070714283005966,1.5071352587982298,non_fall
5.497298,-1.3165,0.686,0.2598,-1.623,-0.4664,-0.4569,37.725,23.175,12.075,,0.01267599999999991,1.5070714283005966,1.6632842674522188,non_fall
5.500571,-1.7932,0.7638,0.2471,-1.623,-0.4664,-0.4569,37.725,23.175,12.075,,0.0032730000000000814,1.9646921107389828,1.7948526698491039,non_fall
5.505171,-1.7932,0.7638,0.2471,-1.6922,-0.9687,-0.5701,37.725,23.175,12.075,,0.0045999999999999375,1.9646921107389828,1.8936101140568886,non_fall
5.546158,-1.7932,0.7638,0.2471,-1.6922,-0.9687,-0.5701,37.725,23.175,12.075,,0.04098700000000033,1.9646921107389828,1.954035940996183,non_fall
5.548507,-1.5075,1.0238,0.6725,-1.6922,-0.9687,-0.5701,37.725,23.175,12.075,,0.0023489999999997124,1.942415748494642,1.974072546072802,non_fall
5.553896,-1.5075,1.0238,0.6725,-1.6922,-0.9687,-0.5701,38.175,23.775,11.475,,0.005389000000000088,1.942415748494642,1.9554671532116552,non_fall
5.573953,-1.5075,1.0238,0.6725,-1.8419,-1.0586,-0.5685,38.175,23.775,11.475,,0.020057000000000436,1.942415748494642,1.9036726155920067,non_fall
5.595598,-1.5075,1.0238,0.6725,-1.8419,-1.0586,-0.5685,38.175,23.775,11.475,,0.02164499999999947,1.942415748494642,1.8273308489457945,non_fall
5.60022,-0.6258,0.8091,1.285,-1.8419,-1.0586,-0.5685,38.175,23.775,11.475,,0.004622000000000348,1.6424047765395715,1.7373848831822476,non_fall
5.62428,-0.6258,0.8091,1.285,-1.8419,-1.0586,-0.5685,36.975,23.625,11.85,,0.024059999999999526,1.6424047765395715,1.6458897347606767,non_fall
5.646327,-0.6258,0.8091,1.285,-2.2691,-0.5421,-0.257,36.975,23.625,11.85,,0.022047000000000594,1.6424047765395715,1.5646336471028441,non_fall
5.65088,-0.6258,0.8091,1.285,-2.2691,-0.5421,-0.257,36.975,23.625,11.85,,0.004552999999999585,1.6424047765395715,1.5037215801891917,non_fall
5.653195,0.6669,-0.1418,1.0488,-2.2691,-0.5421,-0.257,36.975,23.625,11.85,,0.002315000000000289,1.2509373645390882,1.470302235407297,non_fall
5.69174,0.6669,-0.1418,1.0488,-2.2691,-0.5421,-0.257,36.975,23.625,11.85,,0.03854500000000005,1.2509373645390882,1.4676542301440296,non_fall
5.694909,-0.2773,0.4103,1.3877,-2.2691,-0.5421,-0.257,36.975,23.625,11.85,,0.0031689999999997553,1.4734153080513315,1.494874817648007,non_fall
5.697732,-0.2773,0.4103,1.3877,-2.2691,-0.5421,-0.257,37.35,23.55,13.875,,0.002823000000000242,1.4734153080513315,1.5473716487692775,non_fall
5.71629,-0.2773,0.4103,1.3877,-2.6211,-0.6327,-0.0399,37.35,23.55,13.875,,0.01855799999999963,1.4734153080513315,1.6182035618974706,non_fall
5.740991,-0.2773,0.4103,1.3877,-2.6211,-0.6327,-0.0399,37.35,23.55,13.875,,0.024701000000000306,1.4734153080513315,1.7000919516965276,non_fall
5.744774,0.0389,2.1799,0.748,-2.6211,-0.6327,-0.0399,37.35,23.55,13.875,,0.0037829999999994257,2.304990503234232,1.7876959724759736,non_fall
5.766607,0.0389,2.1799,0.748,-2.6211,-0.6327,-0.0399,37.8,21.075,15.825,,0.02183299999999999,2.304990503234232,1.879550114969033,non_fall
5.78442,0.0389,2.1799,0.748,-1.9174,-1.4705,-0.0565,37.8,21.075,15.825,,0.0178130000000003,2.304990503234232,1.9789707532031662,non_fall
5.794193,0.0389,2.1799,0.748,-1.9174,-1.4705,-0.0565,37.8,21.075,15.825,,0.009773000000000032,2.304990503234232,2.0933786075673306,non_fall
5.797167,-1.1737,0.9717,1.3688,-1.9174,-1.4705,-0.0565,37.8,21.075,15.825,,0.002974000000000032,2.0482641480043533,2.231917427318488,non_fall
5.828678,-1.1737,0.9717,1.3688,-1.9174,-1.4705,-0.0565,38.025,20.625,16.05,,0.03151100000000007,2.0482641480043533,2.4018468951982035,non_fall
5.844253,-1.1737,0.9717,1.3688,-1.9174,-1.4705,-0.0565,38.025,20.625,16.05,,0.015575000000000117,2.0482641480043533,2.6046957595565368,non_fall
5.847634,0.7333,-2.0712,-1.7198,-1.9174,-1.4705,-0.0565,38.025,20.625,16.05,,0.0033810000000000784,2.7902169037549753,2.833358031363205,non_fall
5.852449,0.7333,-2.0712,-1.7198,-0.8369,-1.7521,0.6736,38.025,20.625,16.05,,0.004814999999999792,2.7902169037549753,3.071120296768543,non_fall
5.892696,0.7333,-2.0712,-1.7198,-0.8369,-1.7521,0.6736,38.025,20.625,16.05,,0.04024699999999992,2.7902169037549753,3.2931107611334247,non_fall
5.897082,2.6093,-0.8184,-2.7611,-0.8369,-1.7521,0.6736,38.025,20.625,16.05,,0.004386000000000223,3.8861160893622313,3.470044789972919,non_fall
5.900705,2.6093,-0.8184,-2.7611,-0.8369,-1.7521,0.6736,40.425,19.425,12.075,,0.003623000000000154,3.8861160893622313,3.5735604414989086,non_fall
5.921708,2.6093,-0.8184,-2.7611,-0.421,-1.8361,0.4383,40.425,19.425,12.075,,0.02100299999999944,3.8861160893622313,3.5819954547080686,non_fall
5.940861,2.6093,-0.8184,-2.7611,-0.421,-1.8361,0.4383,40.425,19.425,12.075,,0.019153000000000198,3.8861160893622313,3.485277831443007,non_fall
5.943802,1.6284,-1.9857,-1.9294,-0.421,-1.8361,0.4383,40.425,19.425,12.075,,0.0029409999999998604,3.2120515889381354,3.2877756624222765,non_fall
5.965604,1.6284,-1.9857,-1.9294,-0.421,-1.8361,0.4383,42.3,18.825,7.35,,0.0218020000000001,3.2120515889381354,3.00841241571565,non_fall
5.99173,1.6284,-1.9857,-1.9294,0.3083,-1.399,-0.5379,42.3,18.825,7.35,,0.02612599999999965,3.2120515889381354,2.677911757732388,non_fall
5.998794,1.6284,-1.9857,-1.9294,0.3083,-1.399,-0.5379,42.3,18.825,7.35,,0.007064000000000625,3.2120515889381354,2.3335503578329053,non_fall
6.003953,0.1822,0.1835,-0.5335,0.3083,-1.399,-0.5379,42.3,18.825,7.35,,0.005158999999999914,0.5928670508638508,2.01228929145161,non_fall
6.039209,0.1822,0.1835,-0.5335,0.3083,-1.399,-0.5379,41.625,20.475,2.85,,0.03525599999999951,0.5928670508638508,1.7436910437708388,non_fall
6.043617,0.1822,0.1835,-0.5335,0.3083,-1.399,-0.5379,41.625,20.475,2.85,,0.004408000000000634,0.5928670508638508,1.5444313095187665,non_fall
6.045662,1.2702,0.4569,-1.2832,0.3083,-1.399,-0.5379,41.625,20.475,2.85,,0.0020449999999998525,1.862462856005456,1.4160361730319482,non_fall
6.062647,1.2702,0.4569,-1.2832,0.6399,-0.9172,-0.853,41.625,20.475,2.85,,0.016985000000000028,1.862462856005456,1.346494470515908,non_fall
6.093203,1.2702,0.4569,-1.2832,0.6399,-0.9172,-0.853,41.625,20.475,2.85,,0.030555999999999806,1.862462856005456,1.315036969139233,non_fall
6.097995,1.1494,0.5016,-0.7383,0.6399,-0.9172,-0.853,41.625,20.475,2.85,,0.0047920000000001295,1.455269669167883,1.29840461760094,non_fall
6.108739,1.1494,0.5016,-0.7383,0.6399,-0.9172,-0.853,40.425,23.325,-1.05,,0.010743999999999865,1.455269669167883,1.2767730101249248,non_fall
6.132107,1.1494,0.5016,-0.7383,0.461,-0.6072,-0.887,40.425,23.325,-1.05,,0.0233680000000005,1.455269669167883,1.2379923268670288,non_fall
6.14247,1.1494,0.5016,-0.7383,0.461,-0.6072,-0.887,40.425,23.325,-1.05,,0.0103629999999999,1.455269669167883,1.1795071537130921,non_fall
6.145731,0.7567,0.0349,-0.1048,0.461,-0.6072,-0.887,40.425,23.325,-1.05,,0.0032609999999992922,0.7647195172087607,1.1079436151663007,non_fall
6.176038,0.7567,0.0349,-0.1048,0.461,-0.6072,-0.887,38.925,24.825,-3.225,,0.030307000000000528,0.7647195172087607,1.0368231435647046,non_fall
6.191264,0.7567,0.0349,-0.1048,0.461,-0.6072,-0.887,38.925,24.825,-3.225,,0.015226000000000184,0.7647195172087607,0.9831705291311066,non_fall
6.194651,1.0993,0.149,-0.124,0.461,-0.6072,-0.887,38.925,24.825,-3.225,,0.003387000000000029,1.1162604937916596,0.9638638532729233,non_fall
6.202312,1.0993,0.149,-0.124,0.0811,-0.6907,-0.8086,38.925,24.825,-3.225,,0.007660999999999696,1.1162604937916596,0.9924038081786529,non_fall
6.239311,1.0993,0.149,-0.124,0.0811,-0.6907,-0.8086,38.925,24.825,-3.225,,0.03699899999999978,1.1162604937916596,1.0764908064671268,non_fall
6.242524,0.1571,-0.8422,-0.6902,0.0811,-0.6907,-0.8086,38.925,24.825,-3.225,,0.0032130000000005765,1.1001623925584805,1.2165909025192363,non_fall
6.245136,0.1571,-0.8422,-0.6902,0.0811,-0.6907,-0.8086,36.375,27.675,-5.625,,0.0026119999999991705,1.1001623925584805,1.4056321896265347,non_fall
6.268874,0.1571,-0.8422,-0.6902,-0.9946,-0.3011,-0.812,36.375,27.675,-5.625,,0.023738000000000703,1.1001623925584805,1.630010412050996,non_fall
6.288551,0.1571,-0.8422,-0.6902,-0.9946,-0.3011,-0.812,36.375,27.675,-5.625,,0.019676999999999722,1.1001623925584805,1.8720165541695886,non_fall
6.289927,0.6966,-2.5629,-1.6965,-0.9946,-0.3011,-0.812,36.375,27.675,-5.625,,0.0013759999999995998,3.151479052762369,2.1134859451384442,non_fall
6.315031,0.6966,-2.5629,-1.6965,-0.9946,-0.3011,-0.812,34.275,30.675,-5.175,,0.02510400000000068,3.151479052762369,2.339917178165158,non_fall
6.337992,0.6966,-2.5629,-1.6965,-1.8051,-0.2949,-0.6443,34.275,30.675,-5.175,,0.022960999999999565,3.151479052762369,2.543788309407381,non_fall
6.340054,0.6966,-2.5629,-1.6965,-1.8051,-0.2949,-0.6443,34.275,30.675,-5.175,,0.0020620000000004524,3.151479052762369,2.725740839809056,non_fall
6.34137,-1.6275,-1.963,-0.3042,-1.8051,-0.2949,-0.6443,34.275,30.675,-5.175,,0.0013160000000000949,2.568007572029335,2.892932636329281,non_fall
6.384507,-1.6275,-1.963,-0.3042,-1.8051,-0.2949,-0.6443,32.175,32.85,-2.475,,0.04313699999999976,2.568007572029335,3.054931057957645,non_fall
6.386705,-1.6275,-1.963,-0.3042,-1.8051,-0.2949,-0.6443,32.175,32.85,-2.475,,0.0021979999999999222,2.568007572029335,3.2184974054850275,non_fall
6.388125,-2.6825,-0.7765,-1.0293,-1.8051,-0.2949,-0.6443,32.175,32.85,-2.475,,0.0014199999999995327,2.97627569119529,3.383074286854012,non_fall
6.412003,-2.6825,-0.7765,-1.0293,-1.7557,-0.1956,-0.1414,32.175,32.85,-2.475,,0.023878000000000732,2.97627569119529,3.538595199678499,non_fall
6.439856,-2.6825,-0.7765,-1.0293,-1.7557,-0.1956,-0.1414,32.175,32.85,-2.475,,0.02785299999999946,2.97627569119529,3.6665228003178707,non_fall
6.442317,-2.7909,-3.0835,-1.6907,-1.7557,-0.1956,-0.1414,32.175,32.85,-2.475,,0.0024610000000002685,4.4894945762301575,3.74403722423484,non_fall
6.45484,-2.7909,-3.0835,-1.6907,-1.7557,-0.1956,-0.1414,32.025,33.75,1.425,,0.01252299999999984,4.4894945762301575,3.750281159362386,non_fall
6.479508,-2.7909,-3.0835,-1.6907,-0.844,-1.1434,1.1052,32.025,33.75,1.425,,0.024668000000000134,4.4894945762301575,3.6727910452365857,non_fall
6.489006,-2.7909,-3.0835,-1.6907,-0.844,-1.1434,1.1052,32.025,33.75,1.425,,0.009497999999999784,4.4894945762301575,3.5120248346837277,non_fall
6.49297,-2.2201,-1.5444,-1.0151,-0.844,-1.1434,1.1052,32.025,33.75,1.425,,0.0039639999999998565,2.888675021528036,3.282429737346502,non_fall
6.524591,-2.2201,-1.5444,-1.0151,-0.844,-1.1434,1.1052,33.75,31.275,0.15,,0.03162100000000034,2.888675021528036,3.009623999870228,non_fall
6.539356,-2.2201,-1.5444,-1.0151,-0.844,-1.1434,1.1052,33.75,31.275,0.15,,0.014764999999999695,2.888675021528036,2.724536995744686,non_fall
6.544464,0.4121,-1.0554,-0.1968,-0.844,-1.1434,1.1052,33.75,31.275,0.15,,0.00510799999999989,1.1499677430258641,2.4562842563351226,non_fall
6.550136,0.4121,-1.0554,-0.1968,-0.3248,-1.1939,1.1684,33.75,31.275,0.15,,0.0056720000000005655,1.1499677430258641,2.2259035972022136,non_fall
6.586269,0.4121,-1.0554,-0.1968,-0.3248,-1.1939,1.1684,33.75,31.275,0.15,,0.03613299999999953,1.1499677430258641,2.042812196352388,non_fall
6.589532,2.7668,-0.0967,-0.2133,-0.3248,-1.1939,1.1684,33.75,31.275,0.15,,0.00326300000000046,2.7766940810971596,1.904972896767833,non_fall
6.595933,2.7668,-0.0967,-0.2133,-0.3248,-1.1939,1.1684,36.45,28.875,-1.65,,0.006400999999999435,2.7766940810971596,1.802415847253232,non_fall
6.615892,2.7668,-0.0967,-0.2133,-0.2549,0.0907,0.5591,36.45,28.875,-1.65,,0.01995900000000006,2.7766940810971596,1.7224449308151801,non_fall
6.635107,2.7668,-0.0967,-0.2133,-0.2549,0.0907,0.5591,36.45,28.875,-1.65,,0.019214999999999982,2.7766940810971596,1.654269232254807,non_fall
6.638111,-0.2982,-0.0362,-0.6235,-0.2549,0.0907,0.5591,36.45,28.875,-1.65,,0.003004000000000673,0.6920880941036337,1.5913100133064555,non_fall
6.664498,-0.2982,-0.0362,-0.6235,-0.2549,0.0907,0.5591,36.375,27.15,-2.025,,0.026386999999999716,0.6920880941036337,1.5307711254804395,non_fall
6.688508,-0.2982,-0.0362,-0.6235,0.0354,0.8291,0.4395,36.375,27.15,-2.025,,0.024009999999999643,0.6920880941036337,1.4714811607526757,non_fall
6.693759,-0.2982,-0.0362,-0.6235,0.0354,0.8291,0.4395,36.375,27.15,-2.025,,0.005251000000000339,0.6920880941036337,1.4117486378420538,non_fall
6.696936,-0.9991,-0.5139,-1.4554,0.0354,0.8291,0.4395,36.375,27.15,-2.025,,0.0031769999999999854,1.8386090340254504,1.3486792022234608,non_fall
6.734605,-0.9991,-0.5139,-1.4554,0.0354,0.8291,0.4395,37.725,26.625,-0.375,,0.037669000000000175,1.8386090340254504,1.2793670359626268,non_fall
6.739169,-0.9991,-0.5139,-1.4554,0.0354,0.8291,0.4395,37.725,26.625,-0.375,,0.0045640000000002345,1.8386090340254504,1.2032497589732591,non_fall
6.742862,0.0961,-0.1965,-1.1748,0.0354,0.8291,0.4395,37.725,26.625,-0.375,,0.00369299999999928,1.1949905857369758,1.12430378216995,non_fall
6.757783,0.0961,-0.1965,-1.1748,0.0652,1.0928,0.443,37.725,26.625,-0.375,,0.014921000000000184,1.1949905857369758,1.0518739525147924,non_fall
6.787315,0.0961,-0.1965,-1.1748,0.0652,1.0928,0.443,37.725,26.625,-0.375,,0.029532000000000558,1.1949905857369758,0.9995674687855886,non_fall
6.791248,-0.0543,-0.1168,-0.6977,0.0652,1.0928,0.443,37.725,26.625,-0.375,,0.003932999999999964,0.7094899717402636,0.9823917588737806,non_fall
6.805676,-0.0543,-0.1168,-0.6977,0.0652,1.0928,0.443,38.475,25.65,1.65,,0.014427999999999663,0.7094899717402636,1.0128881601348851,non_fall
6.826507,-0.0543,-0.1168,-0.6977,0.4389,0.7265,0.5094,38.475,25.65,1.65,,0.020831000000000266,0.7094899717402636,1.097315778057723,non_fall
6.835375,-0.0543,-0.1168,-0.6977,0.4389,0.7265,0.5094,38.475,25.65,1.65,,0.008867999999999654,0.7094899717402636,1.2329554387604948,non_fall
6.836679,-0.9166,-0.9592,-1.054,0.4389,0.7265,0.5094,38.475,25.65,1.65,,0.001304000000000194,1.6944427402541522,1.4073215741591678,non_fall
6.875534,-0.9166,-0.9592,-1.054,0.4389,0.7265,0.5094,38.775,24.075,3.15,,0.03885499999999986,1.6944427402541522,1.599551135048365,non_fall
6.88515,-0.9166,-0.9592,-1.054,0.4389,0.7265,0.5094,38.775,24.075,3.15,,0.009616000000000291,1.6944427402541522,1.7836641103601634,non_fall
6.889007,-0.3433,-2.0384,-0.5016,0.4389,0.7265,0.5094,38.775,24.075,3.15,,0.0038569999999999993,2.1270947346086873,1.9329786938142761,non_fall
6.899028,-0.3433,-2.0384,-0.5016,0.6793,0.5565,0.9263,38.775,24.075,3.15,,0.010021000000000058,2.1270947346086873,2.024815352666649,non_fall
6.93856,-0.3433,-2.0384,-0.5016,0.6793,0.5565,0.9263,38.775,24.075,3.15,,0.039531999999999456,2.1270947346086873,2.0446728065049067,non_fall
6.94186,0.8086,-1.6979,-0.8555,0.6793,0.5565,0.9263,38.775,24.075,3.15,,0.0033000000000003027,2.0660538763546317,1.9891971349071664,non_fall
6.951533,0.8086,-1.6979,-0.8555,0.6793,0.5565,0.9263,40.05,21.15,2.85,,0.009673000000000265,2.0660538763546317,1.8674430164976206,non_fall
6.967102,0.8086,-1.6979,-0.8555,1.2408,0.4481,0.8104,40.05,21.15,2.85,,0.015568999999999278,2.0660538763546317,1.700131762345799,non_fall
6.986838,0.8086,-1.6979,-0.8555,1.2408,0.4481,0.8104,40.05,21.15,2.85,,0.019735999999999976,2.0660538763546317,1.5168518649009333,non_fall
6.988454,0.4447,-0.2687,-0.6349,1.2408,0.4481,0.8104,40.05,21.15,2.85,,0.0016160000000002839,0.8203997745002128,1.3514693037533638,non_fall
7.013973,0.4447,-0.2687,-0.6349,1.2408,0.4481,0.8104,41.4,19.65,2.475,,0.02551900000000007,0.8203997745002128,1.2364434887338487,non_fall
7.042608,0.4447,-0.2687,-0.6349,1.6392,0.5994,0.7032,41.4,19.65,2.475,,0.02863500000000041,0.8203997745002128,1.1971660365465342,non_fall
7.043777,0.4447,-0.2687,-0.6349,1.6392,0.5994,0.7032,41.4,19.65,2.475,,0.0011689999999999756,0.8203997745002128,1.2476051075431656,non_fall
7.04434,0.5126,1.0708,-0.8087,1.6392,0.5994,0.7032,41.4,19.65,2.475,,0.0005629999999996471,1.4364425119022342,1.3882801432595746,non_fall
7.084501,0.5126,1.0708,-0.8087,1.6392,0.5994,0.7032,42.6,17.775,1.65,,0.040161000000000335,1.4364425119022342,1.6069967821880726,non_fall
7.08835,0.5126,1.0708,-0.8087,1.6392,0.5994,0.7032,42.6,17.775,1.65,,0.0038489999999997693,1.4364425119022342,1.8820875588752795,non_fall
7.09129,-0.6997,2.8682,-1.0256,1.6392,0.5994,0.7032,42.6,17.775,1.65,,0.0029399999999997206,3.125381047168489,2.18732638734853,non_fall
7.104729,-0.6997,2.8682,-1.0256,1.647,0.4875,0.39,42.6,17.775,1.65,,0.013438999999999979,3.125381047168489,2.497287681395363,non_fall
7.134638,-0.6997,2.8682,-1.0256,1.647,0.4875,0.39,42.6,17.775,1.65,,0.029908999999999963,3.125381047168489,2.791774925105406,non_fall
7.1395,-0.4521,3.1118,-0.4194,1.647,0.4875,0.39,42.6,17.775,1.65,,0.004862000000000144,3.1723161901046373,3.0581849993169303,non_fall
7.154421,-0.4521,3.1118,-0.4194,1.647,0.4875,0.39,42.6,16.05,1.35,,0.014921000000000184,3.1723161901046373,3.2913346077455077,non_fall
7.173696,-0.4521,3.1118,-0.4194,1.382,0.7038,0.0921,42.6,16.05,1.35,,0.019274999999999487,3.1723161901046373,3.4911149217976813,non_fall
7.18377,-0.4521,3.1118,-0.4194,1.382,0.7038,0.0921,42.6,16.05,1.35,,0.01007400000000036,3.1723161901046373,3.658999615375123,non_fall
7.186449,0.3457,3.5684,-0.2784,1.382,0.7038,0.0921,42.6,16.05,1.35,,0.002678999999999654,3.595899555048778,3.7946885950983766,non_fall
7.224122,0.3457,3.5684,-0.2784,1.382,0.7038,0.0921,42.9,16.125,1.575,,0.037673000000000734,3.595899555048778,3.894007121216294,non_fall
7.233759,0.3457,3.5684,-0.2784,1.382,0.7038,0.0921,42.9,16.125,1.575,,0.009636999999999674,3.595899555048778,3.9487081731425517,non_fall
7.237274,-0.5672,4.0396,-1.4844,1.382,0.7038,0.0921,42.9,16.125,1.575,,0.003515000000000157,4.340913194248418,3.9482088202880994,non_fall
7.242422,-0.5672,4.0396,-1.4844,1.2102,1.0172,-0.1217,42.9,16.125,1.575,,0.0051480000000001525,4.340913194248418,3.882690593691169,non_fall
7.28159,-0.5672,4.0396,-1.4844,1.2102,1.0172,-0.1217,42.9,16.125,1.575,,0.0391679999999992,4.340913194248418,3.7465646774748773,non_fall
7.285368,-0.5852,3.0706,-0.7443,1.2102,1.0172,-0.1217,42.9,16.125,1.575,,0.003778000000000503,3.213257831236081,3.54120584127811,non_fall
7.293891,-0.5852,3.0706,-0.7443,1.2102,1.0172,-0.1217,41.625,16.05,3.45,,0.00852300000000028,3.213257831236081,3.27615917684704,non_fall
7.31271,-0.5852,3.0706,-0.7443,0.7122,1.4805,-0.0199,41.625,16.05,3.45,,0.018818999999999697,3.213257831236081,2.968555702483752,non_fall
7.334196,-0.5852,3.0706,-0.7443,0.7122,1.4805,-0.0199,41.625,16.05,3.45,,0.021486000000000338,3.213257831236081,2.6409406537087654,non_fall
7.336644,-1.0043,1.1102,-0.6035,0.7122,1.4805,-0.0199,41.625,16.05,3.45,,0.0024479999999993396,1.6141173377422102,2.3179877453671294,non_fall
7.364235,-1.0043,1.1102,-0.6035,0.7122,1.4805,-0.0199,41.55,16.725,6.975,,0.027591000000000143,1.6141173377422102,2.0227484382728487,non_fall
7.384813,-1.0043,1.1102,-0.6035,0.7122,1.4805,-0.0199,41.55,16.725,6.975,,0.02057800000000043,1.6141173377422102,1.7732360337816995,non_fall
7.3887,-0.7683,1.2579,-0.3385,0.7122,1.4805,-0.0199,41.55,16.725,6.975,,0.0038869999999997518,1.5123424050128331,1.580126340655979,non_fall
7.391567,-0.7683,1.2579,-0.3385,0.6993,1.6365,0.1118,41.55,16.725,6.975,,0.002867000000000175,1.5123424050128331,1.446039515007253,non_fall
7.4329,-0.7683,1.2579,-0.3385,0.6993,1.6365,0.1118,41.625,16.725,10.35,,0.04133299999999984,1.5123424050128331,1.366378053919054,non_fall
7.437771,-0.7683,1.2579,-0.3385,0.6993,1.6365,0.1118,41.625,16.725,10.35,,0.004870999999999626,1.5123424050128331,1.3312935736376261,non_fall
7.44069,0.2522,0.9723,-0.8209,0.6993,1.6365,0.1118,41.625,16.725,10.35,,0.002919000000000338,1.2972466766193698,1.3281848011052473,non_fall
7.452595,0.2522,0.9723,-0.8209,0.4203,1.1711,0.0295,41.625,16.725,10.35,,0.01190499999999961,1.2972466766193698,1.3441728261946984,non_fall
7.482174,0.2522,0.9723,-0.8209,0.4203,1.1711,0.0295,41.625,16.725,10.35,,0.029579000000000022,1.2972466766193698,1.36815554672772,non_fall
7.484912,-0.7107,1.1508,-0.9425,0.4203,1.1711,0.0295,41.625,16.725,10.35,,0.002737999999999907,1.6485573632725068,1.392194799044005,non_fall
7.500117,-0.7107,1.1508,-0.9425,0.4203,1.1711,0.0295,40.95,16.875,13.05,,0.015205000000000801,1.6485573632725068,1.412072553425496,non_fall
7.521075,-0.7107,1.1508,-0.9425,0.2114,1.0566,0.0328,40.95,16.875,13.05,,0.020957999999999366,1.6485573632725068,1.426906258395199,non_fall
7.532223,-0.7107,1.1508,-0.9425,0.2114,1.0566,0.0328,40.95,16.875,13.05,,0.01114800000000038,1.6485573632725068,1.4378442769574993,non_fall
7.535367,-0.677,0.3957,-0.213,0.2114,1.0566,0.0328,40.95,16.875,13.05,,0.0031439999999998136,0.8125739904771749,1.4461313821554498,non_fall
7.564996,-0.677,0.3957,-0.213,0.2114,1.0566,0.0328,39.6,16.65,16.275,,0.029628999999999905,0.8125739904771749,1.4511685624174195,non_fall
7.583197,-0.677,0.3957,-0.213,0.2114,1.0566,0.0328,39.6,16.65,16.275,,0.018201000000000356,0.8125739904771749,1.4493835287803059,non_fall
7.587135,-1.1512,1.0094,-1.1875,0.2114,1.0566,0.0328,39.6,16.65,16.275,,0.003937999999999775,1.9376031714466202,1.43454796190521,non_fall
7.600429,-1.1512,1.0094,-1.1875,0.1379,0.6144,0.1921,39.6,16.65,16.275,,0.013294000000000139,1.9376031714466202,1.3995823201166657,non_fall
7.633059,-1.1512,1.0094,-1.1875,0.1379,0.6144,0.1921,39.6,16.65,16.275,,0.03263000000000016,1.9376031714466202,1.3391660278909658,non_fall
7.635182,-0.7219,-0.7392,0.2132,0.1379,0.6144,0.1921,39.6,16.65,16.275,,0.002123000000000097,1.0549931232003362,1.2520778894228355,non_fall
7.638047,-0.7219,-0.7392,0.2132,0.1379,0.6144,0.1921,38.85,16.65,17.925,,0.0028649999999998954,1.0549931232003362,1.1423706917253829,non_fall
7.663171,-0.7219,-0.7392,0.2132,0.1703,0.2796,0.1649,38.85,16.65,17.925,,0.025123999999999924,1.0549931232003362,1.019049642671045,non_fall
7.681626,-0.7219,-0.7392,0.2132,0.1703,0.2796,0.1649,38.85,16.65,17.925,,0.018454999999999444,1.0549931232003362,0.894471651447086,non_fall
7.684142,0.1102,-0.3756,0.332,0.1703,0.2796,0.1649,38.85,16.65,17.925,,0.0025159999999999627,0.5132673767150996,0.7819693816552772,non_fall
7.70731,0.1102,-0.3756,0.332,0.1703,0.2796,0.1649,38.4,16.05,18.975,,0.023168000000000077,0.5132673767150996,0.6932738173462718,non_fall
7.730847,0.1102,-0.3756,0.332,0.0663,0.2642,0.1075,38.4,16.05,18.975,,0.02353700000000014,0.5132673767150996,0.6362873991329958,non_fall
7.73439,0.1102,-0.3756,0.332,0.0663,0.2642,0.1075,38.4,16.05,18.975,,0.003543000000000518,0.5132673767150996,0.6136675469024448,non_fall
7.736069,0.0401,0.6547,-0.1477,0.0663,0.2642,0.1075,38.4,16.05,18.975,,0.00167899999999932,0.6723506451249972,0.6224853953928128,non_fall
7.775611,0.0401,0.6547,-0.1477,0.0663,0.2642,0.1075,38.475,15.75,18.975,,0.039541999999999966,0.6723506451249972,0.6549625240118991,non_fall
7.780299,0.0401,0.6547,-0.1477,0.0663,0.2642,0.1075,38.475,15.75,18.975,,0.004688000000000692,0.6723506451249972,0.7000526480784584,non_fall
7.78199,-0.3975,0.7143,-0.4055,0.0663,0.2642,0.1075,38.475,15.75,18.975,,0.001691000000000109,0.9125025972565777,0.7454911843957028,non_fall
7.799525,-0.3975,0.7143,-0.4055,-0.0739,0.2011,0.1365,38.475,15.75,18.975,,0.017534999999999634,0.9125025972565777,0.7798899340057481,non_fall
7.829451,-0.3975,0.7143,-0.4055,-0.0739,0.2011,0.1365,38.475,15.75,18.975,,0.029925999999999675,0.9125025972565777,0.7944893886708339,non_fall
7.83356,-0.3878,-0.2172,-0.5259,-0.0739,0.2011,0.1365,38.475,15.75,18.975,,0.004109000000000584,0.6885749705006711,0.784290244868796,non_fall
7.848151,-0.3878,-0.2172,-0.5259,-0.0739,0.2011,0.1365,38.475,15.75,19.95,,0.014590999999999354,0.6885749705006711,0.7484550294799888,non_fall
7.867328,-0.3878,-0.2172,-0.5259,-0.1089,0.1003,0.1058,38.475,15.75,19.95,,0.019177,0.6885749705006711,0.6900454842894231,non_fall
7.877284,-0.3878,-0.2172,-0.5259,-0.1089,0.1003,0.1058,38.475,15.75,19.95,,0.009956000000000742,0.6885749705006711,0.615268526566884,non_fall
7.881059,0.0863,-0.4317,0.0821,-0.1089,0.1003,0.1058,38.475,15.75,19.95,,0.0037749999999991957,0.44783143033958656,0.5324201661806277,non_fall
7.913755,0.0863,-0.4317,0.0821,-0.1089,0.1003,0.1058,38.55,14.925,20.625,,0.0326960000000005,0.44783143033958656,0.4506864501421566,non_fall
7.928786,0.0863,-0.4317,0.0821,-0.1089,0.1003,0.1058,38.55,14.925,20.625,,0.015030999999999572,0.44783143033958656,0.37893386940371837,non_fall
7.93249,-0.1936,0.146,-0.0043,-0.1089,0.1003,0.1058,38.55,14.925,20.625,,0.0037039999999999296,0.2425189683303143,0.324608469308199,non_fall
7.936119,-0.1936,0.146,-0.0043,0.0367,0.172,0.073,38.55,14.925,20.625,,0.0036290000000001044,0.2425189683303143,0.2928517705716397,non_fall
7.977386,-0.1936,0.146,-0.0043,0.0367,0.172,0.073,38.55,14.925,20.625,,0.04126700000000039,0.2425189683303143,0.28592663301573623,non_fall
7.983377,0.301,0.0922,-0.1688,0.0367,0.172,0.073,38.55,14.925,20.625,,0.0059909999999998576,0.35720481519710784,0.3030183944397895,non_fall
7.987084,0.301,0.0922,-0.1688,0.0367,0.172,0.073,38.4,14.55,21.15,,0.003707000000000349,0.35720481519710784,0.34042658384970115,non_fall
8.014202,0.301,0.0922,-0.1688,-0.0202,0.2953,0.0857,38.4,14.55,21.15,,0.027117999999998865,0.35720481519710784,0.3921046897378201,non_fall
8.035281,0.301,0.0922,-0.1688,-0.0202,0.2953,0.0857,38.4,14.55,21.15,,0.021079000000000292,0.35720481519710784,0.45046908341149133,non_fall
8.037374,-0.2338,-0.3081,-0.4416,-0.0202,0.2953,0.0857,38.4,14.55,21.15,,0.0020930000000003446,0.5870252209232582,0.5073873129731811,non_fall
8.054378,-0.2338,-0.3081,-0.4416,-0.0202,0.2953,0.0857,37.95,14.475,21.75,,0.01700400000000002,0.5870252209232582,0.5552446996262553,non_fall
8.077636,-0.2338,-0.3081,-0.4416,-0.0765,0.2694,0.0089,37.95,14.475,21.75,,0.023258000000000223,0.5870252209232582,0.5879627786792131,non_fall
8.080686,-0.2338,-0.3081,-0.4416,-0.0765,0.2694,0.0089,37.95,14.475,21.75,,0.003049999999999997,0.5870252209232582,0.6018244662459092,non_fall
8.082741,-0.2494,0.1335,-0.642,-0.0765,0.2694,0.0089,37.95,14.475,21.75,,0.002055000000000362,0.7015601257198132,0.5959714302065214,non_fall
8.124442,-0.2494,0.1335,-0.642,-0.0765,0.2694,0.0089,37.425,14.025,22.275,,0.041700999999999766,0.7015601257198132,0.5724742392597343,non_fall
8.128857,-0.2494,0.1335,-0.642,-0.0765,0.2694,0.0089,37.425,14.025,22.275,,0.004414999999999836,0.7015601257198132,0.5359286107879306,non_fall
8.131724,-0.0573,0.164,-0.1241,-0.0765,0.2694,0.0089,37.425,14.025,22.275,,0.002867000000000175,0.2134949648118194,0.4926198317867612,non_fall
8.149727,-0.0573,0.164,-0.1241,0.0554,0.2636,-0.0215,37.425,14.025,22.275,,0.018003000000000213,0.2134949648118194,0.44942966183796995,non_fall
8.175619,-0.0573,0.164,-0.1241,0.0554,0.2636,-0.0215,37.425,14.025,22.275,,0.025891999999998916,0.2134949648118194,0.41277327606355424,non_fall
8.178518,0.3353,0.3724,-0.3414,0.0554,0.2636,-0.0215,37.425,14.025,22.275,,0.002899000000001095,0.606351226600557,0.38783793301299935,non_fall
8.201082,0.3353,0.3724,-0.3414,0.0554,0.2636,-0.0215,37.2,14.025,22.95,,0.02256399999999914,0.606351226600557,0.3782110597683949,non_fall
8.214898,0.3353,0.3724,-0.3414,-0.0026,0.3664,-0.0725,37.2,14.025,22.95,,0.013816000000000273,0.606351226600557,0.38574673961596967,non_fall
8.224022,0.3353,0.3724,-0.3414,-0.0026,0.3664,-0.0725,37.2,14.025,22.95,,0.00912399999999991,0.606351226600557,0.41041442064404066,non_fall
8.225641,0.0585,-0.0143,-0.0307,-0.0026,0.3664,-0.0725,37.2,14.025,22.95,,0.001618999999999815,0.06759607976798655,0.45000047676851884,non_fall
8.264207,0.0585,-0.0143,-0.0307,-0.0026,0.3664,-0.0725,36.825,15.225,23.325,,0.03856600000000121,0.06759607976798655,0.49981620280011285,non_fall
8.279791,0.0585,-0.0143,-0.0307,-0.0026,0.3664,-0.0725,36.825,15.225,23.325,,0.01558399999999871,0.06759607976798655,0.5528001637161782,non_fall
8.284622,-0.7327,-0.3459,-0.5776,-0.0026,0.3664,-0.0725,36.825,15.225,23.325,,0.00483100000000114,0.9950466622224307,0.6003784517666306,non_fall
8.290401,-0.7327,-0.3459,-0.5776,0.0154,0.3318,-0.12,36.825,15.225,23.325,,0.005778999999998646,0.9950466622224307,0.6341062430905654,non_fall
8.331355,-0.7327,-0.3459,-0.5776,0.0154,0.3318,-0.12,36.825,15.225,23.325,,0.040954000000001045,0.9950466622224307,0.6476500867068078,non_fall
8.336825,-0.3965,-0.1454,-0.3968,0.0154,0.3318,-0.12,36.825,15.225,23.325,,0.005469999999998976,0.5794856771310228,0.6384089411540405,non_fall
8.340095,-0.3965,-0.1454,-0.3968,0.0154,0.3318,-0.12,35.775,15.225,24.45,,0.0032700000000005502,0.5794856771310228,0.6081933319211197,non_fall
8.357065,-0.3965,-0.1454,-0.3968,0.0999,0.0629,-0.1125,35.775,15.225,24.45,,0.016970000000000596,0.5794856771310228,0.5627683824291134,non_fall
8.386313,-0.3965,-0.1454,-0.3968,0.0999,0.0629,-0.1125,35.775,15.225,24.45,,0.029247999999999053,0.5794856771310228,0.5104514995839066,non_fall
8.389175,-0.1012,0.0649,-0.2201,0.0999,0.0629,-0.1125,35.775,15.225,24.45,,0.0028620000000003643,0.25079366020695176,0.460177501019979,non_fall
8.404166,-0.1012,0.0649,-0.2201,0.0999,0.0629,-0.1125,35.625,15.45,24.525,,0.014991000000000199,0.25079366020695176,0.4195148972187357,non_fall
8.425197,-0.1012,0.0649,-0.2201,0.137,-0.0046,-0.0615,35.625,15.45,24.525,,0.021031000000000688,0.25079366020695176,0.39309723966097887,non_fall
8.427731,-0.1012,0.0649,-0.2201,0.137,-0.0046,-0.0615,35.625,15.45,24.525,,0.002533999999998926,0.25079366020695176,0.3818287615811536,non_fall
8.429028,-0.3172,-0.2564,-0.3086,0.137,-0.0046,-0.0615,35.625,15.45,24.525,,0.0012970000000009918,0.5114594412072183,0.3830206115629309,non_fall
8.475786,-0.3172,-0.2564,-0.3086,0.137,-0.0046,-0.0615,35.55,15.375,24.15,,0.046757999999998745,0.5114594412072183,0.3913539564958985,non_fall
8.482802,-0.3172,-0.2564,-0.3086,0.137,-0.0046,-0.0615,35.55,15.375,24.15,,0.007016000000000133,0.5114594412072183,0.4003437226303621,non_fall
8.486924,-0.3515,-0.2026,-0.1794,0.137,-0.0046,-0.0615,35.55,15.375,24.15,,0.004122000000000625,0.44360271640286425,0.4038793006090931,non_fall
8.494648,-0.3515,-0.2026,-0.1794,0.0915,-0.0527,-0.0089,35.55,15.375,24.15,,0.00772399999999962,0.44360271640286425,0.39746983378635553,non_fall
8.523156,-0.3515,-0.2026,-0.1794,0.0915,-0.0527,-0.0089,35.55,15.375,24.15,,0.028508000000000422,0.44360271640286425,0.3789712142357171,non_fall
8.526536,0.0338,0.1942,-0.1629,0.0915,-0.0527,-0.0089,35.55,15.375,24.15,,0.0033799999999999386,0.25571955341741076,0.3487413939725781,non_fall
8.548756,0.0338,0.1942,-0.1629,0.0915,-0.0527,-0.0089,36.0,15.75,23.775,,0.02221999999999902,0.25571955341741076,0.3093076517654489,non_fall
8.562125,0.0338,0.1942,-0.1629,0.0855,-0.1306,-0.0461,36.0,15.75,23.775,,0.013369000000000852,0.25571955341741076,0.26471262379205707,non_fall
8.572151,0.0338,0.1942,-0.1629,0.0855,-0.1306,-0.0461,36.0,15.75,23.775,,0.010025999999999868,0.25571955341741076,0.2197260923307673,non_fall
8.574217,-0.0248,0.1211,-0.0199,0.0855,-0.1306,-0.0461,36.0,15.75,23.775,,0.0020660000000010115,0.1252048721096747,0.17907546578127506,non_fall
8.615129,-0.0248,0.1211,-0.0199,0.0855,-0.1306,-0.0461,36.225,16.35,23.55,,0.04091199999999873,0.1252048721096747,0.1467935001271816,non_fall
8.620718,-0.0248,0.1211,-0.0199,0.0855,-0.1306,-0.0461,36.225,16.35,23.55,,0.00558900000000051,0.1252048721096747,0.12573842209880803,non_fall
8.623708,0.0672,0.0245,-0.1208,0.0855,-0.1306,-0.0461,36.225,16.35,23.55,,0.0029900000000004923,0.14038778436886878,0.11731099750503655,non_fall
8.635202,0.0672,0.0245,-0.1208,0.1217,-0.1814,-0.086,36.225,16.35,23.55,,0.011493999999999005,0.14038778436886878,0.12136423860059696,non_fall
8.674344,0.0672,0.0245,-0.1208,0.1217,-0.1814,-0.086,36.225,16.35,23.55,,0.03914200000000001,0.14038778436886878,0.13627808976389547,non_fall
8.677462,-0.1313,0.0543,0.0609,0.1217,-0.1814,-0.086,36.225,16.35,23.55,,0.0031180000000006203,0.15458651299515103,0.15916637083611224,non_fall
8.683947,-0.1313,0.0543,0.0609,0.1217,-0.1814,-0.086,36.0,16.35,23.25,,0.00648499999999963,0.15458651299515103,0.18619706149684528,non_fall
8.704005,-0.1313,0.0543,0.0609,0.1119,-0.2213,-0.0951,36.0,16.35,23.25,,0.020058000000000575,0.15458651299515103,0.21302467382220114,non_fall
8.723432,-0.1313,0.0543,0.0609,0.1119,-0.2213,-0.0951,36.0,16.35,23.25,,0.019427000000000305,0.15458651299515103,0.2353357643989977,non_fall
8.726153,-0.2709,0.1284,-0.14,0.1119,-0.2213,-0.0951,36.0,16.35,23.25,,0.0027209999999993073,0.33086760191955933,0.2494814487101809,non_fall
8.754412,-0.2709,0.1284,-0.14,0.1119,-0.2213,-0.0951,36.225,16.95,22.65,,0.028259000000000256,0.33086760191955933,0.2531140133631796,non_fall
8.77267,-0.2709,0.1284,-0.14,0.1095,-0.2272,-0.0308,36.225,16.95,22.65,,0.01825799999999944,0.33086760191955933,0.2456839749150287,non_fall
8.776488,-0.2709,0.1284,-0.14,0.1095,-0.2272,-0.0308,36.225,16.95,22.65,,0.0038180000000007652,0.33086760191955933,0.22863504147104907,non_fall
8.778806,-0.1281,0.0342,-0.0584,0.1095,-0.2272,-0.0308,36.225,16.95,22.65,,0.002317999999998932,0.14487860435550862,0.20518953143289861,non_fall
8.82229,-0.1281,0.0342,-0.0584,0.1095,-0.2272,-0.0308,36.225,16.95,22.65,,0.04348400000000119,0.14487860435550862,0.17973349718974532,non_fall
8.827006,-0.0884,0.0178,0.0203,0.1095,-0.2272,-0.0308,36.225,16.95,22.65,,0.0047160000000001645,0.0924310012928563,0.1569374824787282,non_fall
8.82923,-0.0884,0.0178,0.0203,0.1095,-0.2272,-0.0308,36.975,17.775,22.05,,0.0022240000000000038,0.0924310012928563,0.14082814738168267,non_fall
8.841415,-0.0884,0.0178,0.0203,0.0889,-0.1745,-0.0325,36.975,17.775,22.05,,0.01218499999999878,0.0924310012928563,0.1340292869174877,non_fall
8.871004,-0.0884,0.0178,0.0203,0.0889,-0.1745,-0.0325,36.975,17.775,22.05,,0.029588999999999643,0.0924310012928563,0.13732947321645422,non_fall
8.873637,-0.1346,-0.1002,0.098,0.0889,-0.1745,-0.0325,36.975,17.775,22.05,,0.0026330000000012177,0.19432241250046275,0.149640538739767,non_fall
8.895176,-0.1346,-0.1002,0.098,0.0889,-0.1745,-0.0325,36.9,17.325,21.225,,0.021538999999998865,0.19432241250046275,0.1683171538701173,non_fall
8.914531,-0.1346,-0.1002,0.098,0.0715,-0.1704,0.0356,36.9,17.325,21.225,,0.0193550000000009,0.19432241250046275,0.1897360729748133,non_fall
8.924359,-0.1346,-0.1002,0.098,0.0715,-0.1704,0.0356,36.9,17.325,21.225,,0.009828000000000614,0.19432241250046275,0.21000007526778122,non_fall
8.926383,-0.0459,0.2303,-0.1195,0.0715,-0.1704,0.0356,36.9,17.325,21.225,,0.0020239999999986935,0.2634865271697967,0.2256356433706296,non_fall
8.959047,-0.0459,0.2303,-0.1195,0.0715,-0.1704,0.0356,37.2,16.875,21.15,,0.03266400000000047,0.2634865271697967,0.23417646074671267,non_fall
8.974183,-0.0459,0.2303,-0.1195,0.0715,-0.1704,0.0356,37.2,16.875,21.15,,0.015136000000000038,0.2634865271697967,0.23454978816276084,non_fall
8.977395,-0.133,0.1767,-0.0518,0.0715,-0.1704,0.0356,37.2,16.875,21.15,,0.0032119999999995485,0.22714561408928854,0.22721018818843283,non_fall
8.990885,-0.133,0.1767,-0.0518,0.053,-0.1779,0.0363,37.2,16.875,21.15,,0.01349000000000089,0.22714561408928854,0.21400259672252997,non_fall
9.022085,-0.133,0.1767,-0.0518,0.053,-0.1779,0.0363,37.2,16.875,21.15,,0.031200000000000117,0.22714561408928854,0.1977818404420036,non_fall
9.025361,-0.1287,0.042,-0.0195,0.053,-0.1779,0.0363,37.2,16.875,21.15,,0.0032759999999996126,0.13677697174597778,0.1818576443134429,non_fall
9.027448,-0.1287,0.042,-0.0195,0.053,-0.1779,0.0363,37.35,17.85,20.55,,0.002086999999999506,0.13677697174597778,0.16936578344611972,non_fall
9.051026,-0.1287,0.042,-0.0195,0.0273,-0.1629,0.0038,37.35,17.85,20.55,,0.023578000000000543,0.13677697174597778,0.16268305872551053,non_fall
9.070732,-0.1287,0.042,-0.0195,0.0273,-0.1629,0.0038,37.35,17.85,20.55,,0.019705999999999335,0.13677697174597778,0.1629987358262997,non_fall
9.072707,-0.1485,-0.0652,0.0521,0.0273,-0.1629,0.0038,37.35,17.85,20.55,,0.001974999999999838,0.17034582472135912,0.17012359055748197,non_fall
9.095484,-0.1485,-0.0652,0.0521,0.0273,-0.1629,0.0038,37.65,17.475,20.85,,0.02277700000000138,0.17034582472135912,0.18256833088623803,non_fall
9.121048,-0.1485,-0.0652,0.0521,0.0881,-0.1225,0.0131,37.65,17.475,20.85,,0.025563999999999254,0.17034582472135912,0.1978724420347807,non_fall
9.126212,-0.1485,-0.0652,0.0521,0.0881,-0.1225,0.0131,37.65,17.475,20.85,,0.0051640000000006125,0.17034582472135912,0.21312285928869992,non_fall
9.129158,-0.2621,-0.0035,-0.1798,0.0881,-0.1225,0.0131,37.65,17.475,20.85,,0.002945999999999671,0.31786270621134527,0.22556782081282162,non_fall
9.170212,-0.2621,-0.0035,-0.1798,0.0881,-0.1225,0.0131,37.575,16.95,19.875,,0.041053999999999036,0.31786270621134527,0.2332009050588911,non_fall
9.176842,-0.2621,-0.0035,-0.1798,0.0881,-0.1225,0.0131,37.575,16.95,19.875,,0.006630000000001246,0.31786270621134527,0.23517487739715434,non_fall
9.181178,0.0016,0.1208,-0.1398,0.0881,-0.1225,0.0131,37.575,16.95,19.875,,0.004335999999998563,0.18476807083476302,0.23193139558811188,non_fall
9.19441,0.0016,0.1208,-0.1398,0.0224,-0.0276,0.0098,37.575,16.95,19.875,,0.013232000000000355,0.18476807083476302,0.2250125742809283,non_fall
9.222044,0.0016,0.1208,-0.1398,0.0224,-0.0276,0.0098,37.575,16.95,19.875,,0.027634000000000825,0.18476807083476302,0.21662299924422942,non_fall
9.225745,-0.0443,0.1117,-0.1455,0.0224,-0.0276,0.0098,37.575,16.95,19.875,,0.0037009999999995102,0.18870514036453803,0.2090815058894049,non_fall
9.237357,-0.0443,0.1117,-0.1455,0.0224,-0.0276,0.0098,38.025,17.85,19.875,,0.011611999999999512,0.18870514036453803,0.20431074208716696,non_fall
9.261279,-0.0443,0.1117,-0.1455,-0.0037,0.0586,-0.0509,38.025,17.85,19.875,,0.023922000000000665,0.18870514036453803,0.20347296933115783,non_fall
9.272141,-0.0443,0.1117,-0.1455,-0.0037,0.0586,-0.0509,38.025,17.85,19.875,,0.010861999999999483,0.18870514036453803,0.20680550695530142,non_fall
9.275699,-0.0935,-0.0736,-0.1967,-0.0037,0.0586,-0.0509,38.025,17.85,19.875,,0.00355799999999995,0.22989149614546425,0.2136600644230841,non_fall
9.306235,-0.0935,-0.0736,-0.1967,-0.0037,0.0586,-0.0509,37.425,17.25,19.95,,0.030535999999999675,0.22989149614546425,0.2227120725166862,non_fall
9.320385,-0.0935,-0.0736,-0.1967,-0.0037,0.0586,-0.0509,37.425,17.25,19.95,,0.014150000000000773,0.22989149614546425,0.23227948344738483,non_fall
9.324995,-0.2671,0.0139,-0.0439,-0.0037,0.0586,-0.0509,37.425,17.25,19.95,,0.004609999999999559,0.27104027376019235,0.24067746656902855,non_fall
9.335327,-0.2671,0.0139,-0.0439,-0.0391,0.1041,-0.0444,37.425,17.25,19.95,,0.010332000000000008,0.27104027376019235,0.2465367793926948,non_fall
9.369067,-0.2671,0.0139,-0.0439,-0.0391,0.1041,-0.0444,37.425,17.25,19.95,,0.03373999999999988,0.27104027376019235,0.24902745655343955,non_fall
9.374503,-0.1612,-0.0406,0.1523,-0.0391,0.1041,-0.0444,37.425,17.25,19.95,,0.005436000000001329,0.22545307715797536,0.2479544129717427,non_fall
9.377921,-0.1612,-0.0406,0.1523,-0.0391,0.1041,-0.0444,37.125,18.15,20.025,,0.003417999999999921,0.22545307715797536,0.243724842163293,non_fall
9.400444,-0.1612,-0.0406,0.1523,0.026,0.0579,-0.0509,37.125,18.15,20.025,,0.022522999999999627,0.22545307715797536,0.237218725183204,non_fall
9.417742,-0.1612,-0.0406,0.1523,0.026,0.0579,-0.0509,37.125,18.15,20.025,,0.017298000000000258,0.22545307715797536,0.22960905871077378,non_fall
9.41964,-0.2059,-0.0881,-0.0581,0.026,0.0579,-0.0509,37.125,18.15,20.025,,0.001897999999998845,0.23136989864716628,0.2221719690290332,non_fall
9.44404,-0.2059,-0.0881,-0.0581,0.026,0.0579,-0.0509,36.525,18.075,20.025,,0.024399999999999977,0.23136989864716628,0.2161075100258938,non_fall
9.467564,-0.2059,-0.0881,-0.0581,0.0443,0.0614,0.0032,36.525,18.075,20.025,,0.0235240000000001,0.23136989864716628,0.2123747889927876,non_fall
9.471439,-0.2059,-0.0881,-0.0581,0.0443,0.0614,0.0032,36.525,18.075,20.025,,0.003875000000000739,0.23136989864716628,0.21154095752872573,non_fall
9.473099,-0.126,-0.0802,0.0793,0.0443,0.0614,0.0032,36.525,18.075,20.025,,0.0016599999999993287,0.16910508567160246,0.21365509594948992,non_fall
9.514917,-0.126,-0.0802,0.0793,0.0443,0.0614,0.0032,37.275,18.15,19.65,,0.04181800000000102,0.16910508567160246,0.21817889531218898,non_fall
9.521065,-0.126,-0.0802,0.0793,0.0443,0.0614,0.0032,37.275,18.15,19.65,,0.006147999999999598,0.16910508567160246,0.22402077357022623,non_fall
9.524506,-0.1915,-0.0482,-0.177,0.0443,0.0614,0.0032,37.275,18.15,19.65,,0.0034410000000004715,0.26518765054202653,0.2297092984493619,non_fall
9.540405,-0.1915,-0.0482,-0.177,0.0695,0.0235,0.0064,37.275,18.15,19.65,,0.01589899999999922,0.26518765054202653,0.23369858254549306,non_fall
9.570625,-0.1915,-0.0482,-0.177,0.0695,0.0235,0.0064,37.275,18.15,19.65,,0.030219999999999914,0.26518765054202653,0.23474135787622988,non_fall
9.576003,-0.0943,0.0832,-0.2115,0.0695,0.0235,0.0064,37.275,18.15,19.65,,0.005378000000000327,0.24606295942298995,0.23222856437974182,non_fall
9.587758,-0.0943,0.0832,-0.2115,0.0695,0.0235,0.0064,36.975,18.375,20.475,,0.011754999999999072,0.24606295942298995,0.22639789430978108,non_fall
9.60893,-0.0943,0.0832,-0.2115,-0.0084,-0.0231,-0.015,36.975,18.375,20.475,,0.021172000000001745,0.24606295942298995,0.21835026184726872,non_fall
9.618109,-0.0943,0.0832,-0.2115,-0.0084,-0.0231,-0.015,36.975,18.375,20.475,,0.009178999999999604,0.24606295942298995,0.20986180021945677,non_fall
9.619717,-0.1337,0.0199,0.0556,-0.0084,-0.0231,-0.015,36.975,18.375,20.475,,0.0016079999999991657,0.14616107552970456,0.2030268987371825,non_fall
9.65363,-0.1337,0.0199,0.0556,-0.0084,-0.0231,-0.015,37.05,18.075,20.325,,0.03391300000000008,0.14616107552970456,0.19981126552980535,non_fall
9.667684,-0.1337,0.0199,0.0556,-0.0084,-0.0231,-0.015,37.05,18.075,20.325,,0.014053999999999789,0.14616107552970456,0.2016237033091142,non_fall
9.670833,-0.1417,-0.0873,0.1804,-0.0084,-0.0231,-0.015,37.05,18.075,20.325,,0.0031490000000005125,0.24544722446994588,0.20901271501678914,non_fall
9.68381,-0.1417,-0.0873,0.1804,0.025,-0.0449,0.0,37.05,18.075,20.325,,0.01297699999999935,0.24544722446994588,0.22155139497866358,non_fall
9.717207,-0.1417,-0.0873,0.1804,0.025,-0.0449,0.0,37.05,18.075,20.325,,0.03339700000000079,0.24544722446994588,0.23791251036576364,non_fall
9.721999,-0.0619,0.0668,-0.2339,0.025,-0.0449,0.0,37.05,18.075,20.325,,0.0047920000000001295,0.2510041035521133,0.25609180628696254,non_fall
9.725385,-0.0619,0.0668,-0.2339,0.025,-0.0449,0.0,37.05,17.85,19.95,,0.003385999999999001,0.2510041035521133,0.27372951464920564,non_fall
9.746687,-0.0619,0.0668,-0.2339,0.0066,-0.053,-0.0061,37.05,17.85,19.95,,0.021302000000000376,0.2510041035521133,0.2884941438280612,non_fall
9.766758,-0.0619,0.0668,-0.2339,0.0066,-0.053,-0.0061,37.05,17.85,19.95,,0.020070999999999728,0.2510041035521133,0.2985017284687724,non_fall
9.7711,-0.0662,0.3442,-0.1142,0.0066,-0.053,-0.0061,37.05,17.85,19.95,,0.004342000000001178,0.3686430794142215,0.3027301803042595,non_fall
9.794779,-0.0662,0.3442,-0.1142,0.0066,-0.053,-0.0061,36.6,18.15,19.575,,0.02367899999999956,0.3686430794142215,0.30135365589153223,non_fall
9.818902,-0.0662,0.3442,-0.1142,0.0165,-0.0796,-0.0647,36.6,18.15,19.575,,0.02412299999999945,0.3686430794142215,0.2958880544385616,non_fall
9.8221,-0.0662,0.3442,-0.1142,0.0165,-0.0796,-0.0647,36.6,18.15,19.575,,0.0031980000000011444,0.3686430794142215,0.2890399222334445,non_fall
9.824015,-0.2009,0.155,-0.0431,0.0165,-0.0796,-0.0647,36.6,18.15,19.575,,0.0019149999999985567,0.2573779710853281,0.28420902029034295,non_fall
9.864734,-0.2009,0.155,-0.0431,0.0165,-0.0796,-0.0647,37.125,18.375,19.125,,0.04071900000000106,0.2573779710853281,0.2846989404710277,non_fall
9.869282,-0.2009,0.155,-0.0431,0.0165,-0.0796,-0.0647,37.125,18.375,19.125,,0.0045479999999997744,0.2573779710853281,0.29280185718549046,non_fall
9.872203,-0.171,0.016,-0.0355,0.0165,-0.0796,-0.0647,37.125,18.375,19.125,,0.0029210000000006175,0.1753774500897992,0.30899930897791283,non_fall
9.887951,-0.171,0.016,-0.0355,0.0444,-0.1063,-0.0583,37.125,18.375,19.125,,0.01574799999999854,0.1753774500897992,0.3315328859961699,non_fall
9.916649,-0.171,0.016,-0.0355,0.0444,-0.1063,-0.0583,37.125,18.375,19.125,,0.028698000000000334,0.1753774500897992,0.35653617063232595,non_fall
9.919751,-0.202,0.1578,-0.4915,0.0444,-0.1063,-0.0583,37.125,18.375,19.125,,0.00310200000000016,0.5543257977038413,0.37877962568133994,non_fall
9.93431,-0.202,0.1578,-0.4915,0.0444,-0.1063,-0.0583,37.275,18.75,19.05,,0.01455900000000021,0.5543257977038413,0.3928810636559779,non_fall
9.955887,-0.202,0.1578,-0.4915,-0.079,-0.058,-0.0205,37.275,18.75,19.05,,0.021577000000000623,0.5543257977038413,0.39464388097011877,non_fall
9.965447,-0.202,0.1578,-0.4915,-0.079,-0.058,-0.0205,37.275,18.75,19.05,,0.00955999999999868,0.5543257977038413,0.3821065774555773,non_fall
9.967967,-0.2029,-0.0113,0.1552,-0.079,-0.058,-0.0205,37.275,18.75,19.05,,0.002520000000000522,0.25570127101756845,0.3559802045783086,non_fall
10.004596,-0.2029,-0.0113,0.1552,-0.079,-0.058,-0.0205,36.975,18.45,18.75,,0.03662899999999958,0.25570127101756845,0.3193745331646543,non_fall
10.01464,-0.2029,-0.0113,0.1552,-0.079,-0.058,-0.0205,36.975,18.45,18.75,,0.010044000000000608,0.25570127101756845,0.2769562457161447,non_fall
10.018136,-0.0785,-0.0818,0.0284,-0.079,-0.058,-0.0205,36.975,18.45,18.75,,0.0034960000000001656,0.11687621657120835,0.23383735660754826,non_fall
10.032866,-0.0785,-0.0818,0.0284,-0.0782,-0.1161,-0.022,36.975,18.45,18.75,,0.014730000000000132,0.11687621657120835,0.19451960978421465,non_fall
10.068384,-0.0785,-0.0818,0.0284,-0.0782,-0.1161,-0.022,36.975,18.45,18.75,,0.035517999999999716,0.11687621657120835,0.1621479060316584,non_fall
10.074031,-0.1704,0.0069,0.0412,-0.0782,-0.1161,-0.022,36.975,18.45,18.75,,0.0056469999999997356,0.17544574659991047,0.1382008519164446,non_fall
10.077282,-0.1704,0.0069,0.0412,-0.0782,-0.1161,-0.022,37.35,18.225,19.275,,0.003251000000000559,0.17544574659991047,0.12260788542513351,non_fall
10.097762,-0.1704,0.0069,0.0412,-0.0686,-0.0779,-0.0092,37.35,18.225,19.275,,0.020479999999999166,0.17544574659991047,0.11416702173880876,non_fall
10.11714,-0.1704,0.0069,0.0412,-0.0686,-0.0779,-0.0092,37.35,18.225,19.275,,0.019377999999999673,0.17544574659991047,0.11108112656922359,non_fall
10.12031,-0.0779,-0.0177,-0.0051,-0.0686,-0.0779,-0.0092,37.35,18.225,19.275,,0.0031700000000007833,0.08004817299601534,0.11144768833337687,non_fall
10.14373,-0.0779,-0.0177,-0.0051,-0.0686,-0.0779,-0.0092,37.5,18.75,18.75,,0.023419999999999774,0.08004817299601534,0.11360800536650081,non_fall
10.166289,-0.0779,-0.0177,-0.0051,-0.0076,-0.0518,-0.0192,37.5,18.75,18.75,,0.022559000000001106,0.08004817299601534,0.11634520176923807,non_fall
10.169124,-0.0779,-0.0177,-0.0051,-0.0076,-0.0518,-0.0192,37.5,18.75,18.75,,0.0028349999999992548,0.08004817299601534,0.11897447571717548,non_fall
10.1711,-0.0696,0.0927,-0.1381,-0.0076,-0.0518,-0.0192,37.5,18.75,18.75,,0.0019759999999990896,0.18030268994110987,0.12137251237959937,non_fall
10.215437,-0.0696,0.0927,-0.1381,-0.0076,-0.0518,-0.0192,37.725,18.45,18.75,,0.044337000000000515,0.18030268994110987,0.12395757630822896,non_fall
10.221778,-0.0696,0.0927,-0.1381,-0.0076,-0.0518,-0.0192,37.725,18.45,18.75,,0.006341000000000818,0.18030268994110987,0.1275931909802855,non_fall
10.225683,0.017,-0.0982,0.0127,-0.0076,-0.0518,-0.0192,37.725,18.45,18.75,,0.0039049999999996032,0.10046656160136067,0.1333832939595367,non_fall
10.238052,0.017,-0.0982,0.0127,0.0452,-0.0079,-0.0333,37.725,18.45,18.75,,0.01236899999999963,0.10046656160136067,0.1423670338566841,non_fall
10.263914,0.017,-0.0982,0.0127,0.0452,-0.0079,-0.0333,37.725,18.45,18.75,,0.02586200000000005,0.10046656160136067,0.15518210086540693,non_fall
10.267718,0.0021,-0.1637,-0.0375,0.0452,-0.0079,-0.0333,37.725,18.45,18.75,,0.0038040000000005847,0.1679534161605533,0.17180359977307255,non_fall
10.284313,0.0021,-0.1637,-0.0375,0.0452,-0.0079,-0.0333,38.25,18.675,18.525,,0.016594999999998805,0.1679534161605533,0.19145511004630825,non_fall
10.307879,0.0021,-0.1637,-0.0375,0.1155,0.0699,-0.0301,38.25,18.675,18.525,,0.023566000000000642,0.1679534161605533,0.21273821635273654,non_fall
10.318384,0.0021,-0.1637,-0.0375,0.1155,0.0699,-0.0301,38.25,18.675,18.525,,0.010505000000000209,0.1679534161605533,0.2339624289838041,non_fall
10.32039,-0.0563,0.177,-0.3579,0.1155,0.0699,-0.0301,38.25,18.675,18.525,,0.0020059999999997302,0.40322586722580184,0.25359509960559173,non_fall
10.354562,-0.0563,0.177,-0.3579,0.1155,0.0699,-0.0301,36.975,18.825,18.15,,0.03417199999999987,0.40322586722580184,0.2706957641521153,non_fall
10.366797,-0.0563,0.177,-0.3579,0.1155,0.0699,-0.0301,36.975,18.825,18.15,,0.01223500000000044,0.40322586722580184,0.2851719752746151,non_fall
10.369137,-0.1554,-0.1152,0.0086,0.1155,0.0699,-0.0301,36.975,18.825,18.15,,0.002340000000000231,0.19363408790809536,0.2977348045760953,non_fall
10.381118,-0.1554,-0.1152,0.0086,0.0209,0.0832,-0.0444,36.975,18.825,18.15,,0.011981000000000464,0.19363408790809536,0.3095550217510792,non_fall
10.415388,-0.1554,-0.1152,0.0086,0.0209,0.0832,-0.0444,36.975,18.825,18.15,,0.03426999999999936,0.19363408790809536,0.3217678197005554,non_fall
10.418168,-0.1085,0.2121,-0.2551,0.0209,0.0832,-0.0444,36.975,18.825,18.15,,0.0027799999999995606,0.34904823448916056,0.33504886686879654,non_fall
10.423771,-0.1085,0.2121,-0.2551,0.0209,0.0832,-0.0444,37.425,19.425,18.525,,0.005603000000000691,0.34904823448916056,0.3494373064569813,non_fall
