time,ax,ay,az,wx,wy,wz,Bx,By,Bz,Unnamed: 10,time_diff,acc_mag,acc_mag_filtered,label
0.065187,0.0,0.0,0.0,0.0,0.0,0.0,0.0,0.0,0.0,,0.0,0.0,-0.0031070803713225785,non_fall
0.108561,0.0,0.0,0.0,0.0,0.0,0.0,-11.6438,12.0375,14.8688,,0.04337400000000001,0.0,-0.008011300119519456,non_fall
0.112553,0.0,0.0,0.0,0.0,0.0,0.0,-11.6438,12.0375,14.8688,,0.0039919999999999956,0.0,-0.011483451149729729,non_fall
0.134077,0.0,0.0,0.0,-0.0401,-0.0244,0.0057,-11.6438,12.0375,14.8688,,0.021524,0.0,-0.012764502927375633,non_fall
0.168831,0.0,0.0,0.0,-0.0401,-0.0244,0.0057,-21.3938,7.6688,24.975,,0.03475400000000001,0.0,-0.011121729577856187,non_fall
0.173953,0.0,0.0,0.0,-0.0401,-0.0244,0.0057,-21.3938,7.6688,24.975,,0.005121999999999988,0.0,-0.005944401170926336,non_fall
0.1937,0.0,0.0,0.0,-0.0401,-0.0244,0.0057,-21.3938,7.6688,24.975,,0.019747000000000015,0.0,0.003094539669550402,non_fall
0.194598,0.0,0.0,0.0,0.0039,0.0882,-0.0398,-21.3938,7.6688,24.975,,0.0008979999999999821,0.0,0.015863456716393574,non_fall
0.228968,0.0,0.0,0.0,0.0039,0.0882,-0.0398,-24.3188,6.2063,28.575,,0.03437000000000001,0.0,0.031665308056176754,non_fall
0.23429,0.0,0.0,0.0,0.0039,0.0882,-0.0398,-24.3188,6.2063,28.575,,0.005321999999999993,0.0,0.04928938224510067,non_fall
0.254713,0.0,0.0,0.0,-0.1051,0.3481,-0.0426,-24.3188,6.2063,28.575,,0.020423000000000024,0.0,0.06728665152653741,non_fall
0.255648,0.0254,0.0625,0.1504,-0.1051,0.3481,-0.0426,-24.3188,6.2063,28.575,,0.0009349999999999636,0.16483801139300364,0.08446576154069688,non_fall
0.288633,0.0254,0.0625,0.1504,-0.1051,0.3481,-0.0426,-26.1563,5.175,30.225,,0.03298499999999999,0.16483801139300364,0.10050254455569195,non_fall
0.295366,0.0254,0.0625,0.1504,-0.1051,0.3481,-0.0426,-26.1563,5.175,30.225,,0.0067330000000000445,0.16483801139300364,0.11645812589973736,non_fall
0.316226,0.0254,0.0625,0.1504,-0.0462,0.594,-0.1104,-26.1563,5.175,30.225,,0.02085999999999999,0.16483801139300364,0.13497465565273384,non_fall
0.31751,0.1585,0.086,-0.0479,-0.0462,0.594,-0.1104,-26.1563,5.175,30.225,,0.0012840000000000074,0.18658151033797532,0.15999770099245378,non_fall
0.348482,0.1585,0.086,-0.0479,-0.0462,0.594,-0.1104,-27.2625,4.725,30.9,,0.030972,0.18658151033797532,0.1960281510927174,non_fall
0.357576,0.1585,0.086,-0.0479,-0.0462,0.594,-0.1104,-27.2625,4.725,30.9,,0.009093999999999991,0.18658151033797532,0.2470675182064077,non_fall
0.376789,0.1585,0.086,-0.0479,-0.5329,-0.5089,0.175,-27.2625,4.725,30.9,,0.01921299999999998,0.18658151033797532,0.31553523129006283,non_fall
0.396636,-0.3415,0.3272,0.1074,-0.5329,-0.5089,0.175,-27.2625,4.725,30.9,,0.019847000000000004,0.4849915978653651,0.4014705749697183,non_fall
0.407459,-0.3415,0.3272,0.1074,-0.5329,-0.5089,0.175,-27.7875,4.2563,31.5563,,0.010823000000000027,0.4849915978653651,0.5022695920629437,non_fall
0.417096,-0.3415,0.3272,0.1074,-0.5329,-0.5089,0.175,-27.7875,4.2563,31.5563,,0.009637000000000007,0.4849915978653651,0.6130764651764927,non_fall
0.438264,-0.3415,0.3272,0.1074,-0.2261,-1.34,0.4573,-27.7875,4.2563,31.5563,,0.021167999999999965,0.4849915978653651,0.727808817842851,non_fall
0.457918,-0.2935,0.7157,0.8445,-0.2261,-1.34,0.4573,-27.7875,4.2563,31.5563,,0.019654000000000005,1.1452287937351209,0.8406592553491864,non_fall
0.469624,-0.2935,0.7157,0.8445,-0.2261,-1.34,0.4573,-27.9188,4.125,32.25,,0.011705999999999994,1.1452287937351209,0.94773909979897,non_fall
0.478827,-0.2935,0.7157,0.8445,-0.2261,-1.34,0.4573,-27.9188,4.125,32.25,,0.009203000000000017,1.1452287937351209,1.0483523448503222,non_fall
0.499024,-0.2935,0.7157,0.8445,-0.5726,-1.3691,1.6291,-27.9188,4.125,32.25,,0.02019700000000002,1.1452287937351209,1.1453767489337165,non_fall
0.519515,-0.2652,0.4413,1.1633,-0.5726,-1.3691,1.6291,-27.9188,4.125,32.25,,0.020490999999999926,1.2721413522089438,1.2444923350422195,non_fall
0.528965,-0.2652,0.4413,1.1633,-0.5726,-1.3691,1.6291,-27.6188,4.0688,33.225,,0.00945000000000007,1.2721413522089438,1.3524188365897973,non_fall
0.540639,-0.2652,0.4413,1.1633,-0.5726,-1.3691,1.6291,-27.6188,4.0688,33.225,,0.011673999999999962,1.2721413522089438,1.4746803576560132,non_fall
0.559812,-0.2652,0.4413,1.1633,-0.7999,1.7265,1.4611,-27.6188,4.0688,33.225,,0.019172999999999996,1.2721413522089438,1.613569833467907,non_fall
0.579793,-0.1157,-0.7306,-1.9611,-0.7999,1.7265,1.4611,-27.6188,4.0688,33.225,,0.019981000000000027,2.095966617100568,1.7668968419191398,non_fall
0.587829,-0.1157,-0.7306,-1.9611,-0.7999,1.7265,1.4611,-29.5875,3.1313,36.2063,,0.008036000000000043,2.095966617100568,1.9277899973915662,non_fall
0.599789,-0.1157,-0.7306,-1.9611,-0.7999,1.7265,1.4611,-29.5875,3.1313,36.2063,,0.01195999999999997,2.095966617100568,2.085436993232183,non_fall
0.62031,-0.1157,-0.7306,-1.9611,-0.026,0.5004,-0.6192,-29.5875,3.1313,36.2063,,0.02052100000000001,2.095966617100568,2.226436525057777,non_fall
0.649649,-0.1157,-0.7306,-1.9611,-0.026,0.5004,-0.6192,-29.3438,3.075,36.375,,0.029339000000000004,2.095966617100568,2.3365255508245912,non_fall
0.661448,-0.1157,-0.7306,-1.9611,-0.026,0.5004,-0.6192,-29.3438,3.075,36.375,,0.011799000000000004,2.095966617100568,2.4026463234661324,non_fall
0.663031,2.35,-1.0829,0.7701,-0.026,0.5004,-0.6192,-29.3438,3.075,36.375,,0.001583000000000001,2.6996715392802884,2.4153209297488827,non_fall
0.681849,2.35,-1.0829,0.7701,-0.7884,0.6428,-0.0784,-29.3438,3.075,36.375,,0.018818,2.6996715392802884,2.3709917860295833,non_fall
0.708157,2.35,-1.0829,0.7701,-0.7884,0.6428,-0.0784,-29.55,2.8875,36.2438,,0.026307999999999998,2.6996715392802884,2.273569222802207,non_fall
0.722264,2.35,-1.0829,0.7701,-0.7884,0.6428,-0.0784,-29.55,2.8875,36.2438,,0.01410699999999998,2.6996715392802884,2.1342912108028314,non_fall
0.72299,-0.6139,-0.2892,-1.1389,-0.7884,0.6428,-0.0784,-29.55,2.8875,36.2438,,0.0007260000000000044,1.3257462276016478,1.9694300471853092,non_fall
0.742628,-0.6139,-0.2892,-1.1389,-0.2233,1.8802,0.551,-29.55,2.8875,36.2438,,0.019637999999999933,1.3257462276016478,1.796299354135005,non_fall
0.769591,-0.6139,-0.2892,-1.1389,-0.2233,1.8802,0.551,-29.85,2.925,35.9438,,0.02696300000000007,1.3257462276016478,1.6289437335323196,non_fall
0.782961,-0.5634,1.0985,0.4129,-0.2233,1.8802,0.551,-29.85,2.925,35.9438,,0.013369999999999993,1.3017711857311944,1.4752290795206813,non_fall
0.784117,-0.5634,1.0985,0.4129,-0.2233,1.8802,0.551,-29.85,2.925,35.9438,,0.0011559999999999349,1.3017711857311944,1.3365387573800573,non_fall
0.803106,-0.5634,1.0985,0.4129,-0.3418,0.2075,1.1856,-29.85,2.925,35.9438,,0.018989000000000034,1.3017711857311944,1.210228615700594,non_fall
0.82913,-0.5634,1.0985,0.4129,-0.3418,0.2075,1.1856,-30.1125,3.0375,35.7938,,0.026024000000000047,1.3017711857311944,1.093956928247369,non_fall
0.843866,-0.5634,1.0985,0.4129,-0.3418,0.2075,1.1856,-30.1125,3.0375,35.7938,,0.014735999999999971,1.3017711857311944,0.9903529993840093,non_fall
0.864088,-0.5634,1.0985,0.4129,0.3309,-0.412,1.3642,-30.1125,3.0375,35.7938,,0.020221999999999962,1.3017711857311944,0.910322949451918,non_fall
0.865286,-1.0367,0.0363,-0.2249,0.3309,-0.412,1.3642,-30.1125,3.0375,35.7938,,0.0011980000000000324,1.0614351558149937,0.8735914471348523,non_fall
0.888071,-1.0367,0.0363,-0.2249,0.3309,-0.412,1.3642,-30.4875,3.675,35.3625,,0.022785000000000055,1.0614351558149937,0.9057714191906314,non_fall
0.904725,-1.0367,0.0363,-0.2249,0.3309,-0.412,1.3642,-30.4875,3.675,35.3625,,0.016653999999999947,1.0614351558149937,1.0321964891207518,non_fall
0.92477,-1.0367,0.0363,-0.2249,-0.1047,0.4471,0.4349,-30.4875,3.675,35.3625,,0.02004499999999998,1.0614351558149937,1.2697268594584108,non_fall
0.925845,0.8214,0.2754,1.0937,-0.1047,0.4471,0.4349,-30.4875,3.675,35.3625,,0.0010750000000000481,1.3952500886937795,1.6185227988156796,non_fall
0.949451,0.8214,0.2754,1.0937,-0.1047,0.4471,0.4349,-31.0125,4.3875,34.8,,0.023606000000000016,1.3952500886937795,2.0561986961572147,non_fall
0.966004,0.8214,0.2754,1.0937,-0.1047,0.4471,0.4349,-31.0125,4.3875,34.8,,0.01655299999999993,1.3952500886937795,2.536698788496019,non_fall
0.984888,0.8214,0.2754,1.0937,-0.2184,-0.2053,-0.0671,-31.0125,4.3875,34.8,,0.018884000000000012,1.3952500886937795,2.9955223061194927,non_fall
0.985517,0.9935,-4.6793,-1.4241,-0.2184,-0.2053,-0.0671,-31.0125,4.3875,34.8,,0.0006289999999999907,4.991087211219615,3.3613764525731646,non_fall
1.007801,0.9935,-4.6793,-1.4241,-0.2184,-0.2053,-0.0671,-32.025,4.9688,33.7313,,0.02228399999999997,4.991087211219615,3.572001297100014,non_fall
1.026245,0.9935,-4.6793,-1.4241,-0.2184,-0.2053,-0.0671,-32.025,4.9688,33.7313,,0.018444000000000127,4.991087211219615,3.589612430705719,non_fall
1.046822,0.9935,-4.6793,-1.4241,0.3412,-0.194,0.4178,-32.025,4.9688,33.7313,,0.020576999999999845,4.991087211219615,3.410631735722116,non_fall
1.047863,-0.933,0.9814,0.5108,0.3412,-0.194,0.4178,-32.025,4.9688,33.7313,,0.0010410000000000696,1.4472565771140928,3.066095923816512,non_fall
1.068318,-0.933,0.9814,0.5108,0.3412,-0.194,0.4178,-32.5688,5.6438,32.9813,,0.020455000000000112,1.4472565771140928,2.6127355264415457,non_fall
1.088577,-0.933,0.9814,0.5108,0.3412,-0.194,0.4178,-32.5688,5.6438,32.9813,,0.020258999999999805,1.4472565771140928,2.1182880098263586,non_fall
1.109056,-0.933,0.9814,0.5108,0.075,-0.4908,0.3948,-32.5688,5.6438,32.9813,,0.020479000000000136,1.4472565771140928,1.6462499660072372,non_fall
1.130094,-0.933,0.9814,0.5108,0.075,-0.4908,0.3948,-32.9062,6.675,32.5312,,0.02103799999999989,1.4472565771140928,1.2444185340390312,non_fall
1.131267,-0.5396,0.2632,0.5545,0.075,-0.4908,0.3948,-32.9062,6.675,32.5312,,0.0011730000000000906,0.8172592305994468,0.9392596722615704,non_fall
1.15001,-0.5396,0.2632,0.5545,0.075,-0.4908,0.3948,-32.9062,6.675,32.5312,,0.018742999999999954,0.8172592305994468,0.7359332926349043,non_fall
1.167772,-0.5396,0.2632,0.5545,-0.1715,0.6093,-0.2009,-32.9062,6.675,32.5312,,0.017762000000000056,0.8172592305994468,0.6225279156380235,non_fall
1.188229,-0.5396,0.2632,0.5545,-0.1715,0.6093,-0.2009,-33.0188,7.7438,32.1375,,0.020456999999999947,0.8172592305994468,0.5766239819367434,non_fall
1.18922,0.5265,-0.2834,-0.3932,-0.1715,0.6093,-0.2009,-33.0188,7.7438,32.1375,,0.0009909999999999641,0.7156284301227838,0.5723460285170563,non_fall
1.209386,0.5265,-0.2834,-0.3932,-0.1715,0.6093,-0.2009,-33.0188,7.7438,32.1375,,0.02016600000000013,0.7156284301227838,0.5863761292896535,non_fall
1.229417,0.5265,-0.2834,-0.3932,-0.0656,0.265,-0.1019,-33.0188,7.7438,32.1375,,0.02003099999999991,0.7156284301227838,0.6019139925528766,non_fall
1.249412,0.5265,-0.2834,-0.3932,-0.0656,0.265,-0.1019,-32.8688,8.6625,32.0813,,0.019994999999999985,0.7156284301227838,0.610186427609517,non_fall
1.251127,-0.3874,-0.1377,0.0969,-0.0656,0.265,-0.1019,-32.8688,8.6625,32.0813,,0.001715000000000133,0.42240935122224743,0.6097063781587931,non_fall
1.270851,-0.3874,-0.1377,0.0969,-0.0656,0.265,-0.1019,-32.8688,8.6625,32.0813,,0.019723999999999853,0.42240935122224743,0.6039690915436693,non_fall
1.291263,-0.3874,-0.1377,0.0969,0.1477,0.1908,0.1434,-32.8688,8.6625,32.0813,,0.020412000000000097,0.42240935122224743,0.5985729029550821,non_fall
1.308327,-0.3874,-0.1377,0.0969,0.1477,0.1908,0.1434,-32.7938,9.525,31.875,,0.017063999999999968,0.42240935122224743,0.5987756350795395,non_fall
1.331354,-0.3874,-0.1377,0.0969,0.1477,0.1908,0.1434,-32.7938,9.525,31.875,,0.02302699999999991,0.42240935122224743,0.6082097854480857,non_fall
1.333229,-0.7215,-0.1621,0.5333,0.1477,0.1908,0.1434,-32.7938,9.525,31.875,,0.001875000000000071,0.9117277828387156,0.6289610081946913,non_fall
1.351672,-0.7215,-0.1621,0.5333,-0.3103,0.4493,-0.759,-32.7938,9.525,31.875,,0.018442999999999987,0.9117277828387156,0.6626347521636542,non_fall
1.367898,-0.7215,-0.1621,0.5333,-0.3103,0.4493,-0.759,-32.9438,9.7125,31.8188,,0.016226000000000074,0.9117277828387156,0.711609038355615,non_fall
1.392794,0.3939,-0.0423,-0.7784,-0.3103,0.4493,-0.759,-32.9438,9.7125,31.8188,,0.02489600000000003,0.8734145980002853,0.7795984417325843,non_fall
1.394897,0.3939,-0.0423,-0.7784,-0.3103,0.4493,-0.759,-32.9438,9.7125,31.8188,,0.002102999999999966,0.8734145980002853,0.8709955464248729,non_fall
1.412846,0.3939,-0.0423,-0.7784,-0.4906,0.6601,-0.791,-32.9438,9.7125,31.8188,,0.017948999999999993,0.8734145980002853,0.9890485378414371,non_fall
1.428331,0.3939,-0.0423,-0.7784,-0.4906,0.6601,-0.791,-33.3938,9.525,31.4813,,0.015484999999999971,0.8734145980002853,1.1334984363749068,non_fall
1.454049,0.3939,-0.0423,-0.7784,-0.4906,0.6601,-0.791,-33.3938,9.525,31.4813,,0.025717999999999908,0.8734145980002853,1.2986119795744988,non_fall
1.454824,1.3677,0.7226,-0.7365,-0.4906,0.6601,-0.791,-33.3938,9.525,31.4813,,0.0007749999999999702,1.7132385414763467,1.4724928871335816,non_fall
1.474283,1.3677,0.7226,-0.7365,-0.5932,-0.5071,1.0324,-33.3938,9.525,31.4813,,0.019459000000000115,1.7132385414763467,1.638142545776718,non_fall
1.487801,1.3677,0.7226,-0.7365,-0.5932,-0.5071,1.0324,-33.6188,9.3,31.425,,0.013517999999999919,1.7132385414763467,1.7761491081183458,non_fall
1.51425,1.3677,0.7226,-0.7365,-0.5932,-0.5071,1.0324,-33.6188,9.3,31.425,,0.026449000000000167,1.7132385414763467,1.8684049027679208,non_fall
1.514979,-1.7578,0.6161,0.9403,-0.5932,-0.5071,1.0324,-33.6188,9.3,31.425,,0.0007289999999999797,2.0865292089975638,1.9020491318714232,non_fall
1.53381,-1.7578,0.6161,0.9403,-0.0664,-0.2455,0.6989,-33.6188,9.3,31.425,,0.01883099999999982,2.0865292089975638,1.872810128089863,non_fall
1.549611,-1.7578,0.6161,0.9403,-0.0664,-0.2455,0.6989,-33.8625,9.1875,31.275,,0.015801000000000176,2.0865292089975638,1.7869415677255396,non_fall
1.574587,-1.7578,0.6161,0.9403,-0.0664,-0.2455,0.6989,-33.8625,9.1875,31.275,,0.024975999999999887,2.0865292089975638,1.6610701135159278,non_fall
1.595448,-0.9537,-0.1794,-0.5431,-0.0664,-0.2455,0.6989,-33.8625,9.1875,31.275,,0.02086100000000002,1.1120636942189956,1.5196645972759075,non_fall
1.596633,-0.9537,-0.1794,-0.5431,0.4756,1.3822,-0.4175,-33.8625,9.1875,31.275,,0.0011849999999999916,1.1120636942189956,1.3905095167681119,non_fall
1.608543,-0.9537,-0.1794,-0.5431,0.4756,1.3822,-0.4175,-34.425,8.6813,30.7313,,0.011910000000000087,1.1120636942189956,1.2992549270828129,non_fall
1.635396,-0.9537,-0.1794,-0.5431,0.4756,1.3822,-0.4175,-34.425,8.6813,30.7313,,0.026853000000000016,1.1120636942189956,1.26443283614815,non_fall
1.656129,1.0749,0.3688,0.8874,0.4756,1.3822,-0.4175,-34.425,8.6813,30.7313,,0.02073299999999989,1.4418398697497583,1.2940896987584412,non_fall
1.657366,1.0749,0.3688,0.8874,0.3166,-0.4173,0.1956,-34.425,8.6813,30.7313,,0.0012369999999999326,1.4418398697497583,1.3845762397377086,non_fall
1.668036,1.0749,0.3688,0.8874,0.3166,-0.4173,0.1956,-34.7812,8.625,30.3938,,0.01067000000000018,1.4418398697497583,1.5214404389765406,non_fall
1.696858,1.0749,0.3688,0.8874,0.3166,-0.4173,0.1956,-34.7812,8.625,30.3938,,0.028821999999999903,1.4418398697497583,1.6820339810402234,non_fall
1.717755,-0.0469,1.4095,1.4993,0.3166,-0.4173,0.1956,-34.7812,8.625,30.3938,,0.020896999999999943,2.058346508729762,1.8393424421577822,non_fall
1.719253,-0.0469,1.4095,1.4993,1.1677,-0.1535,0.4658,-34.7812,8.625,30.3938,,0.0014979999999999993,2.058346508729762,1.9665038411545523,non_fall
1.731265,-0.0469,1.4095,1.4993,1.1677,-0.1535,0.4658,-35.1375,8.7563,29.9625,,0.012012000000000134,2.058346508729762,2.0413888384067995,non_fall
1.758235,-0.0469,1.4095,1.4993,1.1677,-0.1535,0.4658,-35.1375,8.7563,29.9625,,0.02696999999999994,2.058346508729762,2.050561973828002,non_fall
1.779334,-0.0469,1.4095,1.4993,0.6816,-0.0041,0.2883,-35.1375,8.7563,29.9625,,0.02109899999999998,2.058346508729762,1.9920317548118607,non_fall
1.786876,-0.0469,1.4095,1.4993,0.6816,-0.0041,0.2883,-35.325,9.1688,29.475,,0.007541999999999938,2.058346508729762,1.876392836044178,non_fall
1.797648,-1.1152,-0.4067,-1.0523,0.6816,-0.0041,0.2883,-35.325,9.1688,29.475,,0.010772000000000004,1.5863200244591253,1.726170768115249,non_fall
1.818365,-1.1152,-0.4067,-1.0523,0.6816,-0.0041,0.2883,-35.325,9.1688,29.475,,0.020717000000000096,1.5863200244591253,1.5733754016809172,non_fall
1.838647,-1.1152,-0.4067,-1.0523,0.1754,1.0457,0.1526,-35.325,9.1688,29.475,,0.02028199999999991,1.5863200244591253,1.455460726962308,non_fall
1.84962,-1.1152,-0.4067,-1.0523,0.1754,1.0457,0.1526,-35.3813,9.8438,28.7813,,0.010973000000000122,1.5863200244591253,1.4100457911208206,non_fall
1.859009,-0.7869,0.0137,-1.3592,0.1754,1.0457,0.1526,-35.3813,9.8438,28.7813,,0.00938899999999987,1.5706126002296046,1.4688726570819846,non_fall
1.879043,-0.7869,0.0137,-1.3592,0.1754,1.0457,0.1526,-35.3813,9.8438,28.7813,,0.020034000000000107,1.5706126002296046,1.6516497599371829,non_fall
1.899975,-0.7869,0.0137,-1.3592,0.3152,0.5011,-0.0192,-35.3813,9.8438,28.7813,,0.02093199999999995,1.5706126002296046,1.9607114170276494,non_fall
1.908582,-0.7869,0.0137,-1.3592,0.3152,0.5011,-0.0192,-35.4188,10.8563,27.9563,,0.008607000000000031,1.5706126002296046,2.37769811345207,non_fall
1.921756,0.4012,-3.3584,0.1062,0.3152,0.5011,-0.0192,-35.4188,10.8563,27.9563,,0.013174000000000019,3.3839459865665704,2.863450753188614,non_fall
1.941263,0.4012,-3.3584,0.1062,0.3152,0.5011,-0.0192,-35.4188,10.8563,27.9563,,0.01950699999999994,3.3839459865665704,3.3618077765451635,non_fall
1.960149,0.4012,-3.3584,0.1062,-0.4068,-1.0641,-0.218,-35.4188,10.8563,27.9563,,0.01888599999999996,3.3839459865665704,3.8071349778124786,non_fall
1.967937,0.4012,-3.3584,0.1062,-0.4068,-1.0641,-0.218,-35.5688,11.85,27.15,,0.007788000000000128,3.3839459865665704,4.134622645181768,non_fall
1.981173,4.2692,0.6243,-2.5198,-0.4068,-1.0641,-0.218,-35.5688,11.85,27.15,,0.013236000000000026,4.996519905894502,4.291852307520313,non_fall
2.001342,4.2692,0.6243,-2.5198,-0.4068,-1.0641,-0.218,-35.5688,11.85,27.15,,0.020169000000000104,4.996519905894502,4.2496428866039775,non_fall
2.021628,4.2692,0.6243,-2.5198,-0.0007,-1.233,-0.1419,-35.5688,11.85,27.15,,0.020286000000000026,4.996519905894502,4.009655778290968,non_fall
2.028885,4.2692,0.6243,-2.5198,-0.0007,-1.233,-0.1419,-35.5688,12.6,26.8313,,0.007256999999999625,4.996519905894502,3.6061999426008926,non_fall
2.06232,1.238,0.895,0.7516,-0.0007,-1.233,-0.1419,-35.5688,12.6,26.8313,,0.033435000000000326,1.7025191805086954,3.100787464418892,non_fall
2.063521,1.238,0.895,0.7516,-0.0007,-1.233,-0.1419,-35.5688,12.6,26.8313,,0.0012010000000000076,1.7025191805086954,2.570192055508997,non_fall
2.083004,1.238,0.895,0.7516,0.0571,0.8582,-0.0696,-35.5688,12.6,26.8313,,0.019482999999999695,1.7025191805086954,2.091054592517675,non_fall
2.088727,1.238,0.895,0.7516,0.0571,0.8582,-0.0696,-35.6625,13.1813,26.7375,,0.005723000000000145,1.7025191805086954,1.7251499654924594,non_fall
2.125151,1.238,0.895,0.7516,0.0571,0.8582,-0.0696,-35.6625,13.1813,26.7375,,0.03642399999999979,1.7025191805086954,1.5087642697998014,non_fall
2.126781,-0.5235,-0.7714,0.4427,0.0571,0.8582,-0.0696,-35.6625,13.1813,26.7375,,0.0016300000000000203,1.032033671931299,1.4479710017032397,non_fall
2.142936,-0.5235,-0.7714,0.4427,-0.1055,0.6643,-0.0049,-35.6625,13.1813,26.7375,,0.016155000000000364,1.032033671931299,1.5200853708544844,non_fall
2.148039,-0.5235,-0.7714,0.4427,-0.1055,0.6643,-0.0049,-35.8688,13.7438,26.325,,0.005102999999999636,1.032033671931299,1.6806511197979221,non_fall
2.1841,-2.348,0.1638,-1.4673,-0.1055,0.6643,-0.0049,-35.8688,13.7438,26.325,,0.03606100000000012,2.773608431267831,1.8746047223560465,non_fall
2.186067,-2.348,0.1638,-1.4673,-0.1055,0.6643,-0.0049,-35.8688,13.7438,26.325,,0.001967000000000052,2.773608431267831,2.049371442289815,non_fall
2.203278,-2.348,0.1638,-1.4673,-0.3695,-0.4823,0.3972,-35.8688,13.7438,26.325,,0.017211000000000087,2.773608431267831,2.1668030116129473,non_fall
2.208958,-2.348,0.1638,-1.4673,-0.3695,-0.4823,0.3972,-35.9438,14.175,26.0625,,0.005679999999999907,2.773608431267831,2.210766340771267,non_fall
2.245198,-2.348,0.1638,-1.4673,-0.3695,-0.4823,0.3972,-35.9438,14.175,26.0625,,0.03623999999999983,2.773608431267831,2.1882597179213787,non_fall
2.246307,0.0884,0.4017,1.2549,-0.3695,-0.4823,0.3972,-35.9438,14.175,26.0625,,0.0011090000000000266,1.3205875434820669,2.123879844902688,non_fall
2.266166,0.0884,0.4017,1.2549,0.3384,-0.8906,0.2872,-35.9438,14.175,26.0625,,0.019859000000000293,1.3205875434820669,2.049573486039965,non_fall
2.26821,0.0884,0.4017,1.2549,0.3384,-0.8906,0.2872,-35.9625,14.325,26.2125,,0.0020439999999997127,1.3205875434820669,1.9931391174572042,non_fall
2.305462,0.0884,0.4017,1.2549,0.3384,-0.8906,0.2872,-35.9625,14.325,26.2125,,0.03725200000000006,1.3205875434820669,1.969308539373727,non_fall
2.325107,0.0884,0.4017,1.2549,-0.1822,-0.4968,-0.1664,-35.9625,14.325,26.2125,,0.019645000000000135,1.3205875434820669,1.9762425349044253,non_fall
2.326612,2.7279,-0.2662,0.5185,-0.1822,-0.4968,-0.1664,-35.9625,14.325,26.2125,,0.0015049999999998676,2.789470039272693,1.998289238860369,non_fall
2.327593,2.7279,-0.2662,0.5185,-0.1822,-0.4968,-0.1664,-35.8313,14.3438,26.5875,,0.0009809999999998986,2.789470039272693,2.0136042989744403,non_fall
2.366712,2.7279,-0.2662,0.5185,-0.1822,-0.4968,-0.1664,-35.8313,14.3438,26.5875,,0.03911900000000035,2.789470039272693,2.0035101222109306,non_fall
2.386872,2.7279,-0.2662,0.5185,0.1835,1.3918,-0.0643,-35.8313,14.3438,26.5875,,0.020159999999999734,2.789470039272693,1.9599627051349862,non_fall
2.388477,1.1309,0.2418,0.6642,0.1835,1.3918,-0.0643,-35.8313,14.3438,26.5875,,0.0016050000000000786,1.3336280178520545,1.888465625548961,non_fall
2.389718,1.1309,0.2418,0.6642,0.1835,1.3918,-0.0643,-35.7,14.2313,27.3188,,0.0012409999999998256,1.3336280178520545,1.805784619265795,non_fall
2.429793,1.1309,0.2418,0.6642,0.1835,1.3918,-0.0643,-35.7,14.2313,27.3188,,0.040075000000000305,1.3336280178520545,1.7338998146168927,non_fall
2.450216,1.1309,0.2418,0.6642,0.1835,1.3918,-0.0643,-35.625,14.2875,27.5625,,0.02042300000000008,1.3336280178520545,1.6928349593584078,non_fall
2.451544,1.1309,0.2418,0.6642,-0.0262,-0.1344,0.1886,-35.625,14.2875,27.5625,,0.0013279999999999959,1.3336280178520545,1.6949401608915302,non_fall
2.452698,-2.0307,0.2843,-0.2253,-0.0262,-0.1344,0.1886,-35.625,14.2875,27.5625,,0.0011539999999996553,2.0628448972232496,1.7421901903101424,non_fall
2.488835,-2.0307,0.2843,-0.2253,-0.0262,-0.1344,0.1886,-35.625,14.2875,27.5625,,0.036137000000000086,2.0628448972232496,1.8267347145330861,non_fall
2.509638,-2.0307,0.2843,-0.2253,-0.4349,0.3754,0.1598,-35.625,14.2875,27.5625,,0.020802999999999905,2.0628448972232496,1.9338523635438152,non_fall
2.511163,-2.0307,0.2843,-0.2253,-0.4349,0.3754,0.1598,-35.8688,14.3063,27.1688,,0.0015249999999999986,2.0628448972232496,2.0459401505637764,non_fall
2.529384,-1.919,-0.3697,-1.2044,-0.4349,0.3754,0.1598,-35.8688,14.3063,27.1688,,0.018221000000000043,2.295608514098168,2.146252228295669,non_fall
2.550049,-1.919,-0.3697,-1.2044,-0.4349,0.3754,0.1598,-35.8688,14.3063,27.1688,,0.020665000000000155,2.295608514098168,2.2215447160611657,non_fall
2.569243,-1.919,-0.3697,-1.2044,-0.4349,0.3754,0.1598,-35.6438,14.6625,27.0563,,0.019194000000000155,2.295608514098168,2.2632802024825236,non_fall
2.570486,-1.919,-0.3697,-1.2044,0.212,-0.314,0.2378,-35.6438,14.6625,27.0563,,0.001242999999999661,2.295608514098168,2.26745715590694,non_fall
2.589501,0.7872,0.2298,1.8001,0.212,-0.314,0.2378,-35.6438,14.6625,27.0563,,0.019015000000000004,1.9780929932639668,2.233457132924366,non_fall
2.611431,0.7872,0.2298,1.8001,0.212,-0.314,0.2378,-35.6438,14.6625,27.0563,,0.021930000000000227,1.9780929932639668,2.1625333497247463,non_fall
2.629036,0.7872,0.2298,1.8001,0.212,-0.314,0.2378,-35.3438,14.8313,27.0375,,0.017605000000000093,1.9780929932639668,2.0566191059565107,non_fall
2.630445,0.7872,0.2298,1.8001,-0.1654,0.3253,0.0085,-35.3438,14.8313,27.0375,,0.0014089999999997715,1.9780929932639668,1.9179435686629591,non_fall
2.650731,1.5473,-0.0275,-0.659,-0.1654,0.3253,0.0085,-35.3438,14.8313,27.0375,,0.020286000000000026,1.6820150237141163,1.749548187891762,non_fall
2.671002,1.5473,-0.0275,-0.659,-0.1654,0.3253,0.0085,-35.3438,14.8313,27.0375,,0.02027100000000015,1.6820150237141163,1.5563666563219605,non_fall
2.688599,1.5473,-0.0275,-0.659,-0.1654,0.3253,0.0085,-35.25,14.925,27.1875,,0.017596999999999863,1.6820150237141163,1.3462382188104718,non_fall
2.692536,1.5473,-0.0275,-0.659,-0.2016,0.0031,0.1025,-35.25,14.925,27.1875,,0.003937000000000079,1.6820150237141163,1.1301594513151891,non_fall
2.710908,0.3333,-0.0184,-0.2512,-0.2016,0.0031,0.1025,-35.25,14.925,27.1875,,0.018371999999999833,0.41776654964226134,0.9213014615116834,non_fall
2.730409,0.3333,-0.0184,-0.2512,-0.2016,0.0031,0.1025,-35.25,14.925,27.1875,,0.01950099999999999,0.41776654964226134,0.732846725463652,non_fall
2.747939,0.3333,-0.0184,-0.2512,-0.2016,0.0031,0.1025,-35.3438,14.9063,26.9438,,0.017530000000000268,0.41776654964226134,0.5753357672297951,non_fall
2.751557,0.3333,-0.0184,-0.2512,-0.1423,-0.0172,0.1402,-35.3438,14.9063,26.9438,,0.003617999999999899,0.41776654964226134,0.45454019661880624,non_fall
2.793052,0.3333,-0.0184,-0.2512,-0.1423,-0.0172,0.1402,-35.3438,14.9063,26.9438,,0.04149499999999984,0.41776654964226134,0.3706384228421257,non_fall
2.794054,-0.0273,0.1458,0.357,-0.1423,-0.0172,0.1402,-35.3438,14.9063,26.9438,,0.0010020000000001694,0.38659013179335033,0.318860596284135,non_fall
2.808084,-0.0273,0.1458,0.357,-0.1423,-0.0172,0.1402,-35.4188,14.925,26.7188,,0.014029999999999987,0.38659013179335033,0.2912077783720121,non_fall
2.812903,-0.0273,0.1458,0.357,-0.1633,-0.0478,0.1675,-35.4188,14.925,26.7188,,0.004818999999999907,0.38659013179335033,0.2785809427826099,non_fall
2.854205,-0.0273,0.1458,0.357,-0.1633,-0.0478,0.1675,-35.4188,14.925,26.7188,,0.04130199999999995,0.38659013179335033,0.2726737502041497,non_fall
2.855063,-0.1462,0.0608,0.1329,-0.1633,-0.0478,0.1675,-35.4188,14.925,26.7188,,0.0008580000000000254,0.20672080204952767,0.26718912156845237,non_fall
2.867987,-0.1462,0.0608,0.1329,-0.1633,-0.0478,0.1675,-35.4188,14.9625,26.4375,,0.012923999999999936,0.20672080204952767,0.2582348123102488,non_fall
2.8752,-0.1462,0.0608,0.1329,-0.2016,0.008,0.1626,-35.4188,14.9625,26.4375,,0.007213000000000136,0.20672080204952767,0.24403857513129246,non_fall
2.91462,-0.1462,0.0608,0.1329,-0.2016,0.008,0.1626,-35.4188,14.9625,26.4375,,0.03942000000000023,0.20672080204952767,0.22430227522640375,lateral_fall
2.91534,0.0379,-0.1075,0.067,-0.2016,0.008,0.1626,-35.4188,14.9625,26.4375,,0.0007199999999998319,0.13221822869786148,0.19954177594678854,lateral_fall
2.931223,0.0379,-0.1075,0.067,-0.2016,0.008,0.1626,-35.1938,14.85,26.6063,,0.01588300000000009,0.13221822869786148,0.17067100537910454,lateral_fall
2.93419,0.0379,-0.1075,0.067,-0.3959,0.1475,0.1366,-35.1938,14.85,26.6063,,0.002966999999999942,0.13221822869786148,0.13895082631357028,lateral_fall
2.975786,0.0379,-0.1075,0.067,-0.3959,0.1475,0.1366,-35.1938,14.85,26.6063,,0.041595999999999744,0.13221822869786148,0.10627593097035819,lateral_fall
2.988939,0.0379,-0.1075,0.067,-0.3959,0.1475,0.1366,-35.1938,14.9063,26.8313,,0.01315299999999997,0.13221822869786148,0.07563611208533838,lateral_fall
2.996807,0.0379,-0.1075,0.067,-0.5161,0.0935,0.1257,-35.1938,14.9063,26.8313,,0.007868000000000208,0.13221822869786148,0.0514936799911319,lateral_fall
2.997661,-0.0168,0.0799,0.0126,-0.5161,0.0935,0.1257,-35.1938,14.9063,26.8313,,0.0008539999999999104,0.08261361873202262,0.039804625984023664,lateral_fall
3.034662,-0.0168,0.0799,0.0126,-0.5161,0.0935,0.1257,-35.1938,14.9063,26.8313,,0.03700100000000006,0.08261361873202262,0.047493800631232194,lateral_fall
3.049668,-0.0168,0.0799,0.0126,-0.5161,0.0935,0.1257,-35.325,14.6813,26.8688,,0.015006000000000075,0.08261361873202262,0.08135420917442704,lateral_fall
3.058789,-0.0168,0.0799,0.0126,-0.678,-0.177,0.127,-35.325,14.6813,26.8688,,0.009120999999999935,0.08261361873202262,0.14652876786607089,lateral_fall
3.060056,0.2657,0.1257,0.0546,-0.678,-0.177,0.127,-35.325,14.6813,26.8688,,0.001266999999999907,0.29896177013123265,0.24489263270296532,lateral_fall
3.098309,0.2657,0.1257,0.0546,-0.678,-0.177,0.127,-35.325,14.6813,26.8688,,0.03825300000000009,0.29896177013123265,0.373746022532706,lateral_fall
3.109295,0.2657,0.1257,0.0546,-0.678,-0.177,0.127,-35.2125,14.4563,27.4313,,0.01098599999999994,0.29896177013123265,0.5252431602460924,lateral_fall
3.117898,0.2657,0.1257,0.0546,-0.486,-0.2991,0.17,-35.2125,14.4563,27.4313,,0.008602999999999916,0.29896177013123265,0.6869201907158675,lateral_fall
3.118725,0.593,0.107,0.9896,-0.486,-0.2991,0.17,-35.2125,14.4563,27.4313,,0.0008270000000001332,1.1586225269689867,0.8434971710052523,lateral_fall
3.158495,0.593,0.107,0.9896,-0.486,-0.2991,0.17,-35.2125,14.4563,27.4313,,0.03976999999999986,1.1586225269689867,0.9797641486944302,lateral_fall
3.168141,0.593,0.107,0.9896,-0.486,-0.2991,0.17,-34.9688,14.2125,27.7313,,0.009646000000000043,1.1586225269689867,1.083913278369839,lateral_fall
3.17919,0.0912,0.2398,1.2247,-0.486,-0.2991,0.17,-34.9688,14.2125,27.7313,,0.011049000000000309,1.2512839685698847,1.150410847294469,lateral_fall
3.180121,0.0912,0.2398,1.2247,-0.6589,-0.3385,0.2067,-34.9688,14.2125,27.7313,,0.0009310000000000151,1.2512839685698847,1.1815979019820102,lateral_fall
3.219458,0.0912,0.2398,1.2247,-0.6589,-0.3385,0.2067,-34.9688,14.2125,27.7313,,0.03933699999999973,1.2512839685698847,1.1875771121295993,lateral_fall
3.228487,0.0912,0.2398,1.2247,-0.6589,-0.3385,0.2067,-34.6313,13.7813,28.2938,,0.009028999999999954,1.2512839685698847,1.1843694159923714,lateral_fall
3.239142,0.0912,0.2398,1.2247,-1.0,-0.3502,0.0633,-34.6313,13.7813,28.2938,,0.010655000000000303,1.2512839685698847,1.1906873307487638,lateral_fall
3.259528,0.4423,0.6751,0.6633,-1.0,-0.3502,0.0633,-34.6313,13.7813,28.2938,,0.020385999999999793,1.0446799462036207,1.223968036092896,lateral_fall
3.280538,0.4423,0.6751,0.6633,-1.0,-0.3502,0.0633,-34.6313,13.7813,28.2938,,0.021009999999999973,1.0446799462036207,1.2965408910035958,lateral_fall
3.289165,0.4423,0.6751,0.6633,-1.0,-0.3502,0.0633,-34.4062,13.3125,29.025,,0.008627000000000162,1.0446799462036207,1.4129082485461257,lateral_fall
3.300238,0.4423,0.6751,0.6633,-1.0622,-0.1276,0.0834,-34.4062,13.3125,29.025,,0.011072999999999666,1.0446799462036207,1.5689692091922327,lateral_fall
3.325143,0.9778,2.0209,0.8853,-1.0622,-0.1276,0.0834,-34.4062,13.3125,29.025,,0.0249050000000004,2.413272827510392,1.753505544239219,lateral_fall
3.340921,0.9778,2.0209,0.8853,-1.0622,-0.1276,0.0834,-34.4062,13.3125,29.025,,0.015777999999999626,2.413272827510392,1.9514398660162433,lateral_fall
3.348023,0.9778,2.0209,0.8853,-1.0622,-0.1276,0.0834,-34.05,12.3938,29.9625,,0.007102000000000164,2.413272827510392,2.14762088439206,lateral_fall
3.361558,0.9778,2.0209,0.8853,-1.4654,-0.3293,0.3514,-34.05,12.3938,29.9625,,0.013535000000000075,2.413272827510392,2.329689392360658,lateral_fall
3.381765,1.4738,0.5014,1.7779,-1.4654,-0.3293,0.3514,-34.05,12.3938,29.9625,,0.020207000000000086,2.3631370696597354,2.489140725083879,lateral_fall
3.402218,1.4738,0.5014,1.7779,-1.4654,-0.3293,0.3514,-34.05,12.3938,29.9625,,0.020452999999999832,2.3631370696597354,2.6206914271587998,lateral_fall
3.40798,1.4738,0.5014,1.7779,-1.4654,-0.3293,0.3514,-33.825,11.2125,30.7313,,0.005761999999999823,2.3631370696597354,2.7208989507848305,lateral_fall
3.422652,1.4738,0.5014,1.7779,-2.0303,-0.2565,0.5404,-33.825,11.2125,30.7313,,0.014672000000000018,2.3631370696597354,2.7872904363296818,lateral_fall
3.463218,1.4738,0.5014,1.7779,-2.0303,-0.2565,0.5404,-33.825,11.2125,30.7313,,0.0405660000000001,2.3631370696597354,2.8189526712110435,lateral_fall
3.465667,1.1127,2.6127,2.0045,-2.0303,-0.2565,0.5404,-33.825,11.2125,30.7313,,0.0024489999999999235,3.4759635829507767,2.8187243669316553,lateral_fall
3.468098,1.1127,2.6127,2.0045,-2.0303,-0.2565,0.5404,-33.2063,9.7125,31.8188,,0.002431000000000072,3.4759635829507767,2.7960620009214687,lateral_fall
3.482887,1.1127,2.6127,2.0045,-2.3071,0.0644,1.3972,-33.2063,9.7125,31.8188,,0.014788999999999941,3.4759635829507767,2.768783836338434,lateral_fall
3.524474,1.1127,2.6127,2.0045,-2.3071,0.0644,1.3972,-33.2063,9.7125,31.8188,,0.04158700000000026,3.4759635829507767,2.7618135246743902,lateral_fall
3.526054,-1.5526,0.2015,1.5118,-2.3071,0.0644,1.3972,-33.2063,9.7125,31.8188,,0.0015799999999996928,2.1763979989882367,2.8020528803006752,lateral_fall
3.528106,-1.5526,0.2015,1.5118,-2.3071,0.0644,1.3972,-32.9813,7.9875,32.5125,,0.002052000000000387,2.1763979989882367,2.910306599788437,lateral_fall
3.543669,-1.5526,0.2015,1.5118,-3.6348,1.3775,0.0571,-32.9813,7.9875,32.5125,,0.015562999999999771,2.1763979989882367,3.0929137796832142,lateral_fall
3.584865,-1.5526,0.2015,1.5118,-3.6348,1.3775,0.0571,-32.9813,7.9875,32.5125,,0.04119600000000023,2.1763979989882367,3.336468023421361,lateral_fall
3.586512,-0.3497,-3.0419,3.1644,-3.6348,1.3775,0.0571,-32.9813,7.9875,32.5125,,0.001646999999999732,4.403279807143761,3.60822503233432,lateral_fall
3.58827,-0.3497,-3.0419,3.1644,-3.6348,1.3775,0.0571,-32.9813,5.4188,32.85,,0.0017580000000001483,4.403279807143761,3.8627789367225724,lateral_fall
3.605015,-0.3497,-3.0419,3.1644,-2.4332,-0.8145,-0.7249,-32.9813,5.4188,32.85,,0.016744999999999788,4.403279807143761,4.05331471553553,lateral_fall
3.645816,-0.3497,-3.0419,3.1644,-2.4332,-0.8145,-0.7249,-32.9813,5.4188,32.85,,0.04080100000000009,4.403279807143761,4.144349871019436,lateral_fall
3.648014,2.1106,1.1438,3.1253,-2.4332,-0.8145,-0.7249,-32.9813,5.4188,32.85,,0.0021979999999999222,3.9408642313583955,4.122885698335212,lateral_fall
3.650219,2.1106,1.1438,3.1253,-2.4332,-0.8145,-0.7249,-32.7563,2.5125,33.4688,,0.0022050000000000125,3.9408642313583955,4.0058773621005175,lateral_fall
3.665735,2.1106,1.1438,3.1253,-2.1283,-4.2946,1.4978,-32.7563,2.5125,33.4688,,0.015516000000000307,3.9408642313583955,3.8430486276844467,lateral_fall
3.706667,2.1106,1.1438,3.1253,-2.1283,-4.2946,1.4978,-32.7563,2.5125,33.4688,,0.040931999999999746,3.9408642313583955,3.7147701400103172,lateral_fall
3.708627,2.1106,1.1438,3.1253,-2.1283,-4.2946,1.4978,-31.7063,-0.1313,34.8,,0.0019599999999999618,3.9408642313583955,3.724982312715484,lateral_fall
3.727562,2.1106,1.1438,3.1253,-2.3867,-5.0703,5.1294,-31.7063,-0.1313,34.8,,0.018934999999999924,3.9408642313583955,3.989281359003688,lateral_fall
3.728918,3.4444,-4.2558,-2.9118,-2.3867,-5.0703,5.1294,-31.7063,-0.1313,34.8,,0.001356000000000357,6.201153460445887,4.6185879468664055,lateral_fall
3.768235,3.4444,-4.2558,-2.9118,-2.3867,-5.0703,5.1294,-31.7063,-0.1313,34.8,,0.0393169999999996,6.201153460445887,5.699439275491345,lateral_fall
3.770083,3.4444,-4.2558,-2.9118,-2.3867,-5.0703,5.1294,-29.2125,-2.7375,36.4125,,0.0018480000000002939,6.201153460445887,7.27304051227215,lateral_fall
3.78843,3.4444,-4.2558,-2.9118,0.4175,-2.5064,-0.339,-29.2125,-2.7375,36.4125,,0.01834699999999989,6.201153460445887,9.316783562193907,lateral_fall
3.789803,-9.6573,-4.9309,-7.1687,0.4175,-2.5064,-0.339,-29.2125,-2.7375,36.4125,,0.0013730000000000686,12.99874908558512,11.733273291810498,lateral_fall
3.830119,-9.6573,-4.9309,-7.1687,0.4175,-2.5064,-0.339,-29.2125,-2.7375,36.4125,,0.040315999999999796,12.99874908558512,14.351692892945728,lateral_fall
3.832842,-9.6573,-4.9309,-7.1687,0.4175,-2.5064,-0.339,-27.0375,-4.575,37.7063,,0.002723000000000031,12.99874908558512,16.9440333890732,lateral_fall
3.849818,-20.9866,3.423,-8.9414,0.4175,-2.5064,-0.339,-27.0375,-4.575,37.7063,,0.016976000000000102,23.06735664353417,19.25508559353476,lateral_fall
3.852062,-20.9866,3.423,-8.9414,-0.6107,2.6506,3.6171,-27.0375,-4.575,37.7063,,0.0022440000000001348,23.06735664353417,21.041204080143977,lateral_fall
3.891151,-20.9866,3.423,-8.9414,-0.6107,2.6506,3.6171,-25.125,-6.1688,38.9062,,0.03908899999999971,23.06735664353417,22.109668638136775,lateral_fall
3.893784,-20.9866,3.423,-8.9414,-0.6107,2.6506,3.6171,-25.125,-6.1688,38.9062,,0.0026330000000003295,23.06735664353417,22.349527496464503,lateral_fall
3.910488,-20.9866,3.423,-8.9414,-2.1083,-2.0819,3.4716,-25.125,-6.1688,38.9062,,0.01670399999999983,23.06735664353417,21.74719849105791,lateral_fall
3.930226,12.2971,-11.9434,3.7287,-2.1083,-2.0819,3.4716,-25.125,-6.1688,38.9062,,0.019738000000000255,17.543280071297957,20.384769682030893,lateral_fall
3.947707,12.2971,-11.9434,3.7287,-2.1083,-2.0819,3.4716,-23.6438,-7.5375,39.7313,,0.017480999999999636,17.543280071297957,18.423475767860957,lateral_fall
3.949418,12.2971,-11.9434,3.7287,-2.1083,-2.0819,3.4716,-23.6438,-7.5375,39.7313,,0.00171100000000024,17.543280071297957,16.077418315084383,lateral_fall
3.969799,12.2971,-11.9434,3.7287,-1.3171,4.1178,2.8777,-23.6438,-7.5375,39.7313,,0.020380999999999982,17.543280071297957,13.582765215536218,lateral_fall
3.990586,5.687,-3.2277,0.8336,-1.3171,4.1178,2.8777,-23.6438,-7.5375,39.7313,,0.02078699999999989,6.59203346851334,11.166540568950921,lateral_fall
4.008266,5.687,-3.2277,0.8336,-1.3171,4.1178,2.8777,-22.95,-8.775,39.9938,,0.017679999999999918,6.59203346851334,9.018775761184639,lateral_fall
4.01078,5.687,-3.2277,0.8336,-1.3171,4.1178,2.8777,-22.95,-8.775,39.9938,,0.002513999999999683,6.59203346851334,7.272656297166356,lateral_fall
4.030845,5.687,-3.2277,0.8336,-2.8034,0.0222,0.5065,-22.95,-8.775,39.9938,,0.020065000000000666,6.59203346851334,5.997067638943708,lateral_fall
4.051246,-0.112,4.1864,4.2433,-2.8034,0.0222,0.5065,-22.95,-8.775,39.9938,,0.02040099999999967,5.961885930643088,5.202751465021022,lateral_fall
4.067767,-0.112,4.1864,4.2433,-2.8034,0.0222,0.5065,-21.8813,-9.6375,40.35,,0.016521000000000008,5.961885930643088,4.858591312082423,lateral_fall
4.071026,-0.112,4.1864,4.2433,-2.8034,0.0222,0.5065,-21.8813,-9.6375,40.35,,0.003258999999999901,5.961885930643088,4.911394127306958,lateral_fall
4.091743,-0.112,4.1864,4.2433,-2.5436,-2.7372,0.9762,-21.8813,-9.6375,40.35,,0.02071700000000032,5.961885930643088,5.302319444783025,lateral_fall
4.112583,5.7662,-0.4741,4.2601,-2.5436,-2.7372,0.9762,-21.8813,-9.6375,40.35,,0.020839999999999748,7.184865013345763,5.975186126219287,lateral_fall
4.128218,5.7662,-0.4741,4.2601,-2.5436,-2.7372,0.9762,-20.8313,-10.6875,40.2938,,0.01563500000000051,7.184865013345763,6.875065336778844,lateral_fall
4.133626,5.7662,-0.4741,4.2601,-2.5436,-2.7372,0.9762,-20.8313,-10.6875,40.2938,,0.005407999999999191,7.184865013345763,7.939003042445996,lateral_fall
4.153039,5.7662,-0.4741,4.2601,-3.1329,0.3165,-1.2073,-20.8313,-10.6875,40.2938,,0.019413000000000125,7.184865013345763,9.08382378385083,lateral_fall
4.1881,5.7662,-0.4741,4.2601,-3.1329,0.3165,-1.2073,-20.6063,-12.3375,39.2063,,0.035061000000000675,7.184865013345763,10.198009540944005,lateral_fall
4.193782,5.7662,-0.4741,4.2601,-3.1329,0.3165,-1.2073,-20.6063,-12.3375,39.2063,,0.005681999999999299,7.184865013345763,11.14455818030719,lateral_fall
4.195246,2.6446,13.3157,5.7192,-3.1329,0.3165,-1.2073,-20.6063,-12.3375,39.2063,,0.001464000000000354,14.731294046688497,11.778563959493521,lateral_fall
4.213881,2.6446,13.3157,5.7192,-0.0686,-0.3289,0.9975,-20.6063,-12.3375,39.2063,,0.018634999999999735,14.731294046688497,11.977232753937097,lateral_fall
4.24921,2.6446,13.3157,5.7192,-0.0686,-0.3289,0.9975,-21.8438,-13.6875,37.65,,0.035328999999999944,14.731294046688497,11.673436205040566,lateral_fall
4.254856,2.6446,13.3157,5.7192,-0.0686,-0.3289,0.9975,-21.8438,-13.6875,37.65,,0.005646000000000484,14.731294046688497,10.880461945707783,lateral_fall
4.256199,1.2334,-2.8558,5.8864,-0.0686,-0.3289,0.9975,-21.8438,-13.6875,37.65,,0.001342999999999428,6.657820526268337,9.697859551877617,lateral_fall
4.275244,1.2334,-2.8558,5.8864,-1.0657,0.1844,0.4622,-21.8438,-13.6875,37.65,,0.0190450000000002,6.657820526268337,8.295268898561634,lateral_fall
4.309102,1.2334,-2.8558,5.8864,-1.0657,0.1844,0.4622,-22.8938,-15.75,36.0563,,0.03385800000000039,6.657820526268337,6.878975133396722,lateral_fall
4.315551,1.2334,-2.8558,5.8864,-1.0657,0.1844,0.4622,-22.8938,-15.75,36.0563,,0.006448999999999927,6.657820526268337,5.6506584359989755,lateral_fall
4.315932,2.8843,-0.2787,-1.2189,-1.0657,0.1844,0.4622,-22.8938,-15.75,36.0563,,0.0003809999999999647,3.143656690861774,4.768130662280036,lateral_fall
4.335219,2.8843,-0.2787,-1.2189,0.6354,0.4553,-0.9898,-22.8938,-15.75,36.0563,,0.019287000000000276,3.143656690861774,4.31566847587425,lateral_fall
4.367982,2.8843,-0.2787,-1.2189,0.6354,0.4553,-0.9898,-23.5875,-17.7563,34.5,,0.03276299999999921,3.143656690861774,4.289224767278627,lateral_fall
4.376513,2.8843,-0.2787,-1.2189,0.6354,0.4553,-0.9898,-23.5875,-17.7563,34.5,,0.00853100000000051,3.143656690861774,4.599699653645625,lateral_fall
4.396547,2.8843,-0.2787,-1.2189,1.7362,-0.5997,-0.1822,-23.5875,-17.7563,34.5,,0.020033999999999885,3.143656690861774,5.094639790711837,lateral_fall
4.398445,0.1539,4.4528,7.2568,1.7362,-0.5997,-0.1822,-23.5875,-17.7563,34.5,,0.0018979999999997332,8.515413042830042,5.594819338086977,lateral_fall
4.429009,0.1539,4.4528,7.2568,1.7362,-0.5997,-0.1822,-23.775,-19.275,33.6188,,0.030564000000000036,8.515413042830042,5.9378300367445425,lateral_fall
4.436681,0.1539,4.4528,7.2568,1.7362,-0.5997,-0.1822,-23.775,-19.275,33.6188,,0.007672000000000345,8.515413042830042,6.017637556944415,lateral_fall
4.458204,0.1539,4.4528,7.2568,1.5109,0.8294,-1.9546,-23.775,-19.275,33.6188,,0.02152300000000018,8.515413042830042,5.809020481983819,lateral_fall
4.460099,2.805,-1.2894,1.1349,1.5109,0.8294,-1.9546,-23.775,-19.275,33.6188,,0.001894999999999314,3.2891602834158147,5.369902019758812,lateral_fall
4.488986,2.805,-1.2894,1.1349,1.5109,0.8294,-1.9546,-22.6688,-20.55,33.7313,,0.028887000000000107,3.2891602834158147,4.821566725077065,lateral_fall
4.500819,2.805,-1.2894,1.1349,1.5109,0.8294,-1.9546,-22.6688,-20.55,33.7313,,0.011833000000000204,3.2891602834158147,4.3135875957879275,lateral_fall
4.519795,2.805,-1.2894,1.1349,1.4814,-0.0005,-0.475,-22.6688,-20.55,33.7313,,0.018976000000000326,3.2891602834158147,3.9840387989707815,lateral_fall
4.521287,2.7514,0.6775,1.953,1.4814,-0.0005,-0.475,-22.6688,-20.55,33.7313,,0.0014919999999998268,3.4414266242359433,3.92525766523051,lateral_fall
4.550111,2.7514,0.6775,1.953,1.4814,-0.0005,-0.475,-22.05,-21.1875,34.1063,,0.028824000000000183,3.4414266242359433,4.162372607499337,lateral_fall
4.560713,2.7514,0.6775,1.953,1.4814,-0.0005,-0.475,-22.05,-21.1875,34.1063,,0.010601999999999556,3.4414266242359433,4.648115552620435,lateral_fall
4.579802,2.7514,0.6775,1.953,1.0075,1.193,0.5655,-22.05,-21.1875,34.1063,,0.019089000000000134,3.4414266242359433,5.274173144473402,lateral_fall
4.581564,-7.9168,0.9491,-2.0048,1.0075,1.193,0.5655,-22.05,-21.1875,34.1063,,0.0017620000000002634,8.221662611053802,5.896351235510844,lateral_fall
4.611971,-7.9168,0.9491,-2.0048,1.0075,1.193,0.5655,-22.0125,-20.7,34.425,,0.030406999999999407,8.221662611053802,6.367805050270429,lateral_fall
4.622237,-7.9168,0.9491,-2.0048,1.0075,1.193,0.5655,-22.0125,-20.7,34.425,,0.010266000000000552,8.221662611053802,6.572142119221082,lateral_fall
4.641179,-7.9168,0.9491,-2.0048,1.3586,0.4039,-1.1029,-22.0125,-20.7,34.425,,0.018942000000000014,8.221662611053802,6.447858600920454,lateral_fall
4.661772,3.9638,-1.3318,1.0443,1.3586,0.4039,-1.1029,-22.0125,-20.7,34.425,,0.02059299999999986,4.309984242430591,5.998259214491479,lateral_fall
4.668839,3.9638,-1.3318,1.0443,1.3586,0.4039,-1.1029,-21.8438,-19.725,35.2313,,0.0070670000000001565,4.309984242430591,5.285810555702272,lateral_fall
4.683772,3.9638,-1.3318,1.0443,1.3586,0.4039,-1.1029,-21.8438,-19.725,35.2313,,0.014933000000000085,4.309984242430591,4.414482976048413,lateral_fall
4.701447,3.9638,-1.3318,1.0443,1.2642,-0.1166,-1.0601,-21.8438,-19.725,35.2313,,0.017674999999999663,4.309984242430591,3.506041749755041,lateral_fall
4.722387,0.8526,0.6769,-0.4929,1.2642,-0.1166,-1.0601,-21.8438,-19.725,35.2313,,0.020940000000000403,1.1950191546582003,2.6761285750022594,lateral_fall
4.729854,0.8526,0.6769,-0.4929,1.2642,-0.1166,-1.0601,-21.6188,-18.75,35.9062,,0.007466999999999224,1.1950191546582003,2.0145877836497275,lateral_fall
4.742235,0.8526,0.6769,-0.4929,1.2642,-0.1166,-1.0601,-21.6188,-18.75,35.9062,,0.01238100000000042,1.1950191546582003,1.5730661780396178,lateral_fall
4.762438,0.8526,0.6769,-0.4929,0.6823,-0.6336,-0.6539,-21.6188,-18.75,35.9062,,0.020203000000000415,1.1950191546582003,1.3614761925117436,lateral_fall
4.783069,-1.4625,-1.0783,-1.1577,0.6823,-0.6336,-0.6539,-21.6188,-18.75,35.9062,,0.020630999999999844,2.1545083963633096,1.3530254331952036,lateral_fall
4.788662,-1.4625,-1.0783,-1.1577,0.6823,-0.6336,-0.6539,-21.0188,-17.2313,36.9563,,0.005593000000000181,2.1545083963633096,1.4954775186737725,lateral_fall
4.804443,-1.4625,-1.0783,-1.1577,0.6823,-0.6336,-0.6539,-21.0188,-17.2313,36.9563,,0.0157809999999996,2.1545083963633096,1.7250029406343699,lateral_fall
4.824565,-1.4625,-1.0783,-1.1577,0.7143,-0.2473,-0.6053,-21.0188,-17.2313,36.9563,,0.02012199999999975,2.1545083963633096,1.9789806078789982,lateral_fall
4.848713,-1.4625,-1.0783,-1.1577,0.7143,-0.2473,-0.6053,-20.5688,-15.6563,38.2688,,0.02414800000000028,2.1545083963633096,2.2052661597752015,lateral_fall
4.866707,-1.4625,-1.0783,-1.1577,0.7143,-0.2473,-0.6053,-20.5688,-15.6563,38.2688,,0.017993999999999843,2.1545083963633096,2.3670759937780743,lateral_fall
4.867904,-1.6995,-1.3961,-0.4737,0.7143,-0.2473,-0.6053,-20.5688,-15.6563,38.2688,,0.0011970000000003367,2.2498415833120338,2.444023682073603,lateral_fall
4.884717,-1.6995,-1.3961,-0.4737,0.5012,0.7606,-0.9979,-20.5688,-15.6563,38.2688,,0.016812999999999967,2.2498415833120338,2.430589407293701,lateral_fall
4.910209,-1.6995,-1.3961,-0.4737,0.5012,0.7606,-0.9979,-20.4,-14.6438,38.9438,,0.025491999999999848,2.2498415833120338,2.3333841457932287,non_fall
4.92605,-1.6995,-1.3961,-0.4737,0.5012,0.7606,-0.9979,-20.4,-14.6438,38.9438,,0.015840999999999994,2.2498415833120338,2.168198649220177,non_fall
4.928939,0.8236,-1.5814,-0.5752,0.5012,0.7606,-0.9979,-20.4,-14.6438,38.9438,,0.0028889999999996974,1.8734988550837173,1.9572826537022823,non_fall
4.945972,0.8236,-1.5814,-0.5752,0.5187,-0.0613,-1.0806,-20.4,-14.6438,38.9438,,0.01703300000000052,1.8734988550837173,1.7268192080079563,non_fall
4.968529,0.8236,-1.5814,-0.5752,0.5187,-0.0613,-1.0806,-20.4375,-13.7438,39.5438,,0.022556999999999938,1.8734988550837173,1.5042734205224058,non_fall
4.98608,0.8236,-1.5814,-0.5752,0.5187,-0.0613,-1.0806,-20.4375,-13.7438,39.5438,,0.017551000000000094,1.8734988550837173,1.3152527530229137,non_fall
4.987591,0.0343,-0.6516,-0.0129,0.5187,-0.0613,-1.0806,-20.4375,-13.7438,39.5438,,0.001510999999999818,0.6526296499547043,1.1797696103646482,non_fall
5.007119,0.0343,-0.6516,-0.0129,0.1537,0.4804,-0.5819,-20.4375,-13.7438,39.5438,,0.019528000000000212,0.6526296499547043,1.108366216725094,non_fall
5.028879,0.0343,-0.6516,-0.0129,0.1537,0.4804,-0.5819,-20.4375,-13.05,39.825,,0.021759999999999557,0.6526296499547043,1.0992200574812883,non_fall
5.047202,0.0343,-0.6516,-0.0129,0.1537,0.4804,-0.5819,-20.4375,-13.05,39.825,,0.018323000000000533,0.6526296499547043,1.137597590850349,non_fall
5.049701,-1.2492,0.3136,-0.9561,0.1537,0.4804,-0.5819,-20.4375,-13.05,39.825,,0.002498999999999363,1.6040488801779078,1.1984979548657382,non_fall
5.068511,-1.2492,0.3136,-0.9561,0.2365,0.2206,-0.4852,-20.4375,-13.05,39.825,,0.018810000000000215,1.6040488801779078,1.2521842060258805,non_fall
5.089032,-1.2492,0.3136,-0.9561,0.2365,0.2206,-0.4852,-20.1,-12.7313,40.125,,0.020520999999999567,1.6040488801779078,1.271130686905909,non_fall
5.110977,-1.2492,0.3136,-0.9561,0.2365,0.2206,-0.4852,-20.1,-12.7313,40.125,,0.021945000000000547,1.6040488801779078,1.2363291618814083,non_fall
5.130477,-1.2492,0.3136,-0.9561,0.3043,0.0395,-0.3088,-20.1,-12.7313,40.125,,0.01949999999999985,1.6040488801779078,1.1411465140588846,non_fall
5.132539,-0.2456,-0.3877,-0.0222,0.3043,0.0395,-0.3088,-20.1,-12.7313,40.125,,0.0020620000000004524,0.4594817624237114,0.9918377102587297,non_fall
5.149689,-0.2456,-0.3877,-0.0222,0.3043,0.0395,-0.3088,-19.9125,-12.3938,40.125,,0.01715,0.4594817624237114,0.8049811530710632,non_fall
5.170053,-0.2456,-0.3877,-0.0222,0.3043,0.0395,-0.3088,-19.9125,-12.3938,40.125,,0.020363999999999827,0.4594817624237114,0.6030624725926212,non_fall
5.190403,-0.0763,-0.1674,-0.1713,0.3043,0.0395,-0.3088,-19.9125,-12.3938,40.125,,0.020349999999999646,0.25137251241931763,0.40979727848027797,non_fall
5.193337,-0.0763,-0.1674,-0.1713,0.2535,0.1071,-0.2293,-19.9125,-12.3938,40.125,,0.00293399999999977,0.25137251241931763,0.24644960486181328,non_fall
5.210564,-0.0763,-0.1674,-0.1713,0.2535,0.1071,-0.2293,-19.8375,-12.2813,40.4438,,0.017227000000000103,0.25137251241931763,0.1296651993303562,non_fall
5.230667,-0.0763,-0.1674,-0.1713,0.2535,0.1071,-0.2293,-19.8375,-12.2813,40.4438,,0.020103000000000648,0.25137251241931763,0.07063455917397977,non_fall
5.250846,-0.0763,-0.1674,-0.1713,0.3674,-0.1265,-0.3959,-19.8375,-12.2813,40.4438,,0.020178999999999725,0.25137251241931763,0.07499859421547743,non_fall
5.254147,0.0269,0.2393,0.0448,0.3674,-0.1265,-0.3959,-19.8375,-12.2813,40.4438,,0.0033009999999995543,0.24493905364396265,0.1428736434290176,non_fall
5.269524,0.0269,0.2393,0.0448,0.3674,-0.1265,-0.3959,-19.9688,-12.1688,40.4625,,0.015376999999999974,0.24493905364396265,0.2686482694271176,non_fall
5.290838,0.0269,0.2393,0.0448,0.3674,-0.1265,-0.3959,-19.9688,-12.1688,40.4625,,0.021314000000000277,0.24493905364396265,0.4406541351148537,non_fall
5.312017,0.0269,0.2393,0.0448,0.2975,-0.3406,-0.7927,-19.9688,-12.1688,40.4625,,0.02117900000000006,0.24493905364396265,0.6412381448132426,non_fall
5.329359,0.0269,0.2393,0.0448,0.2975,-0.3406,-0.7927,-19.8,-12.1875,40.5375,,0.01734200000000019,0.24493905364396265,0.8479468464999234,non_fall
5.331702,1.0714,0.7188,-0.832,0.2975,-0.3406,-0.7927,-19.8,-12.1875,40.5375,,0.002342999999999762,1.5351857868023662,1.036301083923579,non_fall
5.352132,1.0714,0.7188,-0.832,0.2975,-0.3406,-0.7927,-19.8,-12.1875,40.5375,,0.02043000000000017,1.5351857868023662,1.1839714666782775,non_fall
5.373057,1.0714,0.7188,-0.832,0.2676,-0.0254,-0.9077,-19.8,-12.1875,40.5375,,0.020925000000000082,1.5351857868023662,1.2753536193701225,non_fall
5.389117,1.0714,0.7188,-0.832,0.2676,-0.0254,-0.9077,-19.7063,-12.2813,40.7625,,0.01605999999999952,1.5351857868023662,1.305101907049353,non_fall
5.39364,0.9071,0.6927,0.1741,0.2676,-0.0254,-0.9077,-19.7063,-12.2813,40.7625,,0.004523000000000721,1.154545152863239,1.2794325970528726,non_fall
5.412269,0.9071,0.6927,0.1741,0.2676,-0.0254,-0.9077,-19.7063,-12.2813,40.7625,,0.018628999999999785,1.154545152863239,1.2147763654620853,non_fall
5.433439,0.9071,0.6927,0.1741,-0.0575,0.4517,-0.8506,-19.7063,-12.2813,40.7625,,0.02116999999999969,1.154545152863239,1.1341779817078086,non_fall
5.448638,0.9071,0.6927,0.1741,-0.0575,0.4517,-0.8506,-19.425,-12.2063,40.8375,,0.015198999999999963,1.154545152863239,1.062363204948847,non_fall
5.452785,-0.6867,0.063,-0.3105,-0.0575,0.4517,-0.8506,-19.425,-12.2063,40.8375,,0.004147000000000567,0.7562645965533491,1.0205755225421909,non_fall
5.474679,-0.6867,0.063,-0.3105,-0.0575,0.4517,-0.8506,-19.425,-12.2063,40.8375,,0.021893999999999636,0.7562645965533491,1.0222706833338906,non_fall
5.494172,-0.6867,0.063,-0.3105,-0.1909,0.2189,-0.8623,-19.425,-12.2063,40.8375,,0.01949299999999976,0.7562645965533491,1.0706387839150666,non_fall
5.510162,-0.6867,0.063,-0.3105,-0.1909,0.2189,-0.8623,-19.0875,-12.225,40.9125,,0.015990000000000393,0.7562645965533491,1.1586286537412798,non_fall
5.512821,-1.3711,0.4254,1.0622,-0.1909,0.2189,-0.8623,-19.0875,-12.225,40.9125,,0.002658999999999523,1.785818918591692,1.271563366361606,non_fall
5.535322,-1.3711,0.4254,1.0622,-0.1909,0.2189,-0.8623,-19.0875,-12.225,40.9125,,0.022501000000000104,1.785818918591692,1.3916241134534628,non_fall
5.555661,-1.3711,0.4254,1.0622,-0.3965,0.4144,-1.032,-19.0875,-12.225,40.9125,,0.020338999999999885,1.785818918591692,1.5027691137123174,non_fall
5.569067,-1.3711,0.4254,1.0622,-0.3965,0.4144,-1.032,-18.9,-12.7125,41.0438,,0.013406000000000695,1.785818918591692,1.5944634949574867,non_fall
5.595328,-1.3711,0.4254,1.0622,-0.3965,0.4144,-1.032,-18.9,-12.7125,41.0438,,0.026260999999999868,1.785818918591692,1.6630957676533444,non_fall
5.597243,-0.4119,0.5275,1.2397,-0.3965,0.4144,-1.032,-18.9,-12.7125,41.0438,,0.001914999999999445,1.4088200559333333,1.71090260897355,non_fall
5.615416,-0.4119,0.5275,1.2397,-0.5222,0.7715,-0.2985,-18.9,-12.7125,41.0438,,0.018172999999999995,1.4088200559333333,1.7431686316757886,non_fall
5.629097,-0.4119,0.5275,1.2397,-0.5222,0.7715,-0.2985,-18.9938,-13.4813,41.1,,0.013681000000000054,1.4088200559333333,1.76504781643583,non_fall
5.65909,-0.4119,0.5275,1.2397,-0.5222,0.7715,-0.2985,-18.9938,-13.4813,41.1,,0.02999300000000016,1.4088200559333333,1.7793739214540847,non_fall
5.661344,-1.6169,-1.195,0.7478,-0.5222,0.7715,-0.2985,-18.9938,-13.4813,41.1,,0.002253999999999756,2.1451329679066515,1.7862739529240477,non_fall
5.67864,-1.6169,-1.195,0.7478,-0.4396,0.276,-0.6071,-18.9938,-13.4813,41.1,,0.017295999999999978,2.1451329679066515,1.7844831621203239,non_fall
5.689863,-1.6169,-1.195,0.7478,-0.4396,0.276,-0.6071,-18.975,-14.2688,40.8,,0.011223000000000205,2.1451329679066515,1.7733999894948456,non_fall
5.717818,-1.6169,-1.195,0.7478,-0.4396,0.276,-0.6071,-18.975,-14.2688,40.8,,0.027955000000000396,2.1451329679066515,1.7545661047866519,non_fall
5.719354,1.2293,-0.4196,0.5134,-0.4396,0.276,-0.6071,-18.975,-14.2688,40.8,,0.0015359999999997598,1.3967183717557379,1.7316221580585167,non_fall
5.736658,1.2293,-0.4196,0.5134,-0.1157,-0.1525,-0.6795,-18.975,-14.2688,40.8,,0.017304000000000208,1.3967183717557379,1.7086816133905363,non_fall
5.749128,1.2293,-0.4196,0.5134,-0.1157,-0.1525,-0.6795,-19.0312,-15.4125,40.5938,,0.012469999999999537,1.3967183717557379,1.687987856341871,non_fall
5.778276,1.2293,-0.4196,0.5134,-0.1157,-0.1525,-0.6795,-19.0312,-15.4125,40.5938,,0.029148000000000174,1.3967183717557379,1.6681714219092978,non_fall
5.798237,1.2293,-0.4196,0.5134,-0.0111,-0.4333,0.0241,-19.0312,-15.4125,40.5938,,0.01996100000000034,1.3967183717557379,1.6441890604701968,non_fall
5.800325,1.0291,-0.6892,-1.4545,-0.0111,-0.4333,0.0241,-19.0312,-15.4125,40.5938,,0.0020879999999996457,1.9103962154485126,1.6092617382444767,non_fall
5.810558,1.0291,-0.6892,-1.4545,-0.0111,-0.4333,0.0241,-18.9938,-16.4438,40.2375,,0.01023300000000038,1.9103962154485126,1.5581991245883324,non_fall
5.839847,1.0291,-0.6892,-1.4545,-0.0111,-0.4333,0.0241,-18.9938,-16.4438,40.2375,,0.029288999999999454,1.9103962154485126,1.4907833736236813,non_fall
5.859576,1.0291,-0.6892,-1.4545,-0.0846,0.324,0.4682,-18.9938,-16.4438,40.2375,,0.019728999999999886,1.9103962154485126,1.4136945328758022,non_fall
5.861508,-0.2155,-0.9007,-0.3921,-0.0846,0.324,0.4682,-18.9938,-16.4438,40.2375,,0.0019320000000000448,1.005705299777226,1.3399325678199483,non_fall
5.868495,-0.2155,-0.9007,-0.3921,-0.0846,0.324,0.4682,-19.0312,-17.2875,39.675,,0.006987000000000521,1.005705299777226,1.2856716208185202,non_fall
5.899859,-0.2155,-0.9007,-0.3921,-0.0846,0.324,0.4682,-19.0312,-17.2875,39.675,,0.03136399999999995,1.005705299777226,1.2655313376759667,non_fall
5.92011,-0.2155,-0.9007,-0.3921,-0.0262,0.4457,0.017,-19.0312,-17.2875,39.675,,0.02025100000000002,1.005705299777226,1.2878594994361583,non_fall
5.921747,1.0831,-0.7454,-0.6208,-0.0262,0.4457,0.017,-19.0312,-17.2875,39.675,,0.0016369999999996665,1.4540011726267623,1.3515344622452206,non_fall
5.929048,1.0831,-0.7454,-0.6208,-0.0262,0.4457,0.017,-19.4062,-18.2063,39.2625,,0.007301000000000002,1.4540011726267623,1.445172575490926,non_fall
5.962992,1.0831,-0.7454,-0.6208,-0.0262,0.4457,0.017,-19.4062,-18.2063,39.2625,,0.033943999999999974,1.4540011726267623,1.548862971369464,non_fall
5.981517,1.0831,-0.7454,-0.6208,-0.0185,0.4698,-0.3152,-19.4062,-18.2063,39.2625,,0.018525000000000347,1.4540011726267623,1.6379736349387863,non_fall
5.983775,1.7223,-0.5135,-0.4162,-0.0185,0.4698,-0.3152,-19.4062,-18.2063,39.2625,,0.002257999999999427,1.8447823665679373,1.6882492993682523,non_fall
5.989642,1.7223,-0.5135,-0.4162,-0.0185,0.4698,-0.3152,-19.8,-18.975,38.8688,,0.005867000000000289,1.8447823665679373,1.681230962186574,non_fall
6.022158,1.7223,-0.5135,-0.4162,-0.0185,0.4698,-0.3152,-19.8,-18.975,38.8688,,0.03251600000000021,1.8447823665679373,1.6088770355814264,non_fall
6.041505,1.7223,-0.5135,-0.4162,-0.1658,0.5501,-0.3461,-19.8,-18.975,38.8688,,0.01934699999999978,1.8447823665679373,1.4762395653864824,non_fall
6.049566,1.7223,-0.5135,-0.4162,-0.1658,0.5501,-0.3461,-20.2688,-19.575,38.3438,,0.00806100000000054,1.8447823665679373,1.301305651230271,non_fall
6.062045,-0.3398,0.1234,-0.4554,-0.1658,0.5501,-0.3461,-20.2688,-19.575,38.3438,,0.012478999999999907,0.581447125713078,1.1117278256718182,non_fall
6.082552,-0.3398,0.1234,-0.4554,-0.1658,0.5501,-0.3461,-20.2688,-19.575,38.3438,,0.020506999999999387,0.581447125713078,0.9390471353878928,non_fall
6.102729,-0.3398,0.1234,-0.4554,-0.0273,0.2454,-0.4381,-20.2688,-19.575,38.3438,,0.020177000000000334,0.581447125713078,0.8118544691351532,non_fall
6.11139,-0.3398,0.1234,-0.4554,-0.0273,0.2454,-0.4381,-20.4375,-19.8188,37.9313,,0.00866100000000003,0.581447125713078,0.7497043778665728,non_fall
6.122897,-0.3779,0.6984,-0.2551,-0.0273,0.2454,-0.4381,-20.4375,-19.8188,37.9313,,0.011506999999999934,0.8340545425809993,0.7592706594189158,non_fall
6.143494,-0.3779,0.6984,-0.2551,-0.0273,0.2454,-0.4381,-20.4375,-19.8188,37.9313,,0.020596999999999532,0.8340545425809993,0.8334473083312323,non_fall
6.163709,-0.3779,0.6984,-0.2551,0.0778,-0.014,-0.2957,-20.4375,-19.8188,37.9313,,0.020215000000000316,0.8340545425809993,0.9533070562262362,non_fall
6.16874,-0.3779,0.6984,-0.2551,0.0778,-0.014,-0.2957,-20.4938,-19.9875,37.8938,,0.005030999999999786,0.8340545425809993,1.0923083194942145,non_fall
6.183875,-1.41,0.6622,-0.2875,0.0778,-0.014,-0.2957,-20.4938,-19.9875,37.8938,,0.015134999999999899,1.584065999256344,1.2218609438859518,non_fall
6.205491,-1.41,0.6622,-0.2875,0.0778,-0.014,-0.2957,-20.4938,-19.9875,37.8938,,0.021616000000000746,1.584065999256344,1.3171633766202737,non_fall
6.224691,-1.41,0.6622,-0.2875,0.1952,-0.0957,-0.5353,-20.4938,-19.9875,37.8938,,0.019199999999999662,1.584065999256344,1.3620801481203841,non_fall
6.228895,-1.41,0.6622,-0.2875,0.1952,-0.0957,-0.5353,-20.5875,-20.1375,37.7625,,0.0042039999999996525,1.584065999256344,1.3519089064789716,non_fall
6.266513,-1.41,0.6622,-0.2875,0.1952,-0.0957,-0.5353,-20.5875,-20.1375,37.7625,,0.03761800000000015,1.584065999256344,1.2933420098127726,non_fall
6.26992,0.1541,0.5279,-0.4935,0.1952,-0.0957,-0.5353,-20.5875,-20.1375,37.7625,,0.00340700000000016,0.7388961158376731,1.201687363849214,non_fall
6.285798,0.1541,0.5279,-0.4935,0.2265,-0.0723,-0.6872,-20.5875,-20.1375,37.7625,,0.015877999999999837,0.7388961158376731,1.0962310053125206,non_fall
6.288894,0.1541,0.5279,-0.4935,0.2265,-0.0723,-0.6872,-20.8313,-20.3438,37.575,,0.0030960000000002097,0.7388961158376731,0.9951984022998251,non_fall
6.326799,0.1541,0.5279,-0.4935,0.2265,-0.0723,-0.6872,-20.8313,-20.3438,37.575,,0.0379050000000003,0.7388961158376731,0.9118291733045945,non_fall
6.328691,-0.7971,-0.0853,-0.5929,0.2265,-0.0723,-0.6872,-20.8313,-20.3438,37.575,,0.0018919999999997827,0.9970832011422116,0.852549709185275,non_fall
6.345934,-0.7971,-0.0853,-0.5929,0.2212,0.1386,-0.9561,-20.8313,-20.3438,37.575,,0.017242999999999675,0.9970832011422116,0.8173655058071088,non_fall
6.348503,-0.7971,-0.0853,-0.5929,0.2212,0.1386,-0.9561,-20.8313,-20.7188,37.7438,,0.0025690000000002655,0.9970832011422116,0.8018238489122553,non_fall
6.391247,-0.7971,-0.0853,-0.5929,0.2212,0.1386,-0.9561,-20.8313,-20.7188,37.7438,,0.04274399999999989,0.9970832011422116,0.7995294166291447,non_fall
6.395194,-0.1857,0.4137,-0.5489,0.2212,0.1386,-0.9561,-20.8313,-20.7188,37.7438,,0.003947000000000145,0.7119855265382858,0.8042978023447948,non_fall
6.408238,-0.1857,0.4137,-0.5489,0.1381,0.1425,-1.1424,-20.8313,-20.7188,37.7438,,0.013043999999999834,0.7119855265382858,0.8114598764761723,non_fall
6.410662,-0.1857,0.4137,-0.5489,0.1381,0.1425,-1.1424,-20.3625,-21.0188,37.8188,,0.002424000000000426,0.7119855265382858,0.8183265088042653,non_fall
6.451706,-0.1857,0.4137,-0.5489,0.1381,0.1425,-1.1424,-20.3625,-21.0188,37.8188,,0.041043999999999414,0.7119855265382858,0.8241451680780415,non_fall
6.453742,0.2003,0.7709,-0.4716,0.1381,0.1425,-1.1424,-20.3625,-21.0188,37.8188,,0.002036000000000371,0.9256421878890353,0.8299138078257428,non_fall
6.469928,0.2003,0.7709,-0.4716,0.0842,0.4691,-1.2581,-20.3625,-21.0188,37.8188,,0.016186000000000256,0.9256421878890353,0.8382244700980072,non_fall
6.471638,0.2003,0.7709,-0.4716,0.0842,0.4691,-1.2581,-19.9125,-21.375,37.7063,,0.0017099999999992122,0.9256421878890353,0.8530637672821734,non_fall
6.511457,0.2003,0.7709,-0.4716,0.0842,0.4691,-1.2581,-19.9125,-21.375,37.7063,,0.03981900000000049,0.9256421878890353,0.8793693010109491,non_fall
6.532774,0.2003,0.7709,-0.4716,0.3522,1.1617,-1.1594,-19.9125,-21.375,37.7063,,0.02131699999999981,0.9256421878890353,0.9221978670411543,non_fall
6.535562,-0.5313,0.7314,0.4233,0.3522,1.1617,-1.1594,-19.9125,-21.375,37.7063,,0.0027879999999997906,0.9982026547750712,0.9855496749796402,non_fall
6.536623,-0.5313,0.7314,0.4233,0.3522,1.1617,-1.1594,-19.2938,-21.7688,37.8375,,0.0010609999999999786,0.9982026547750712,1.0711044506305243,non_fall
6.570009,-0.5313,0.7314,0.4233,0.3522,1.1617,-1.1594,-19.2938,-21.7688,37.8375,,0.03338600000000014,0.9982026547750712,1.1772753749629687,non_fall
6.58949,-0.5313,0.7314,0.4233,0.3522,1.1617,-1.1594,-18.7688,-22.3688,37.95,,0.01948099999999986,0.9982026547750712,1.299025014690817,non_fall
6.591638,-0.5313,0.7314,0.4233,0.7501,1.33,-1.2197,-18.7688,-22.3688,37.95,,0.0021480000000000388,0.9982026547750712,1.4287564367226668,non_fall
6.592883,-0.8026,1.0525,1.8278,0.7501,1.33,-1.2197,-18.7688,-22.3688,37.95,,0.0012449999999999406,2.2567179376253472,1.5582236981149027,non_fall
6.631561,-0.8026,1.0525,1.8278,0.7501,1.33,-1.2197,-18.7688,-22.3688,37.95,,0.03867799999999999,2.2567179376253472,1.6808325382916849,non_fall
6.649001,-0.8026,1.0525,1.8278,0.7501,1.33,-1.2197,-18.5438,-22.875,37.7625,,0.017440000000000566,2.2567179376253472,1.7932233317355613,non_fall
6.651023,-0.5131,-0.0541,1.5195,0.7501,1.33,-1.2197,-18.5438,-22.875,37.7625,,0.0020220000000001903,1.60470516606634,1.8951180392771694,non_fall
6.65188,-0.5131,-0.0541,1.5195,0.6589,1.4695,-0.6199,-18.5438,-22.875,37.7625,,0.0008569999999998856,1.60470516606634,1.9872580058778537,non_fall
6.693073,-0.5131,-0.0541,1.5195,0.6589,1.4695,-0.6199,-18.5438,-22.875,37.7625,,0.04119299999999981,1.60470516606634,2.068424330270213,non_fall
6.709763,-0.5131,-0.0541,1.5195,0.6589,1.4695,-0.6199,-18.5813,-23.2125,37.6313,,0.01668999999999965,1.60470516606634,2.1332585892314864,non_fall
6.711527,-0.5131,-0.0541,1.5195,0.71,1.8663,-0.7072,-18.5813,-23.2125,37.6313,,0.001764000000000543,1.60470516606634,2.172420615306869,non_fall
6.712691,-1.2622,-2.4834,-0.5067,0.71,1.8663,-0.7072,-18.5813,-23.2125,37.6313,,0.001164000000000165,2.8314606283683337,2.1755976461352255,non_fall
6.753138,-1.2622,-2.4834,-0.5067,0.71,1.8663,-0.7072,-18.5813,-23.2125,37.6313,,0.040446999999999456,2.8314606283683337,2.1364462502688264,non_fall
6.769227,-1.2622,-2.4834,-0.5067,0.71,1.8663,-0.7072,-19.125,-23.3813,37.35,,0.01608900000000002,2.8314606283683337,2.057331335198981,non_fall
6.772088,-1.2622,-2.4834,-0.5067,1.1952,1.9498,-0.9819,-19.125,-23.3813,37.35,,0.0028610000000002245,2.8314606283683337,1.9513964302074736,non_fall
6.793141,0.2046,1.0226,0.1135,1.1952,1.9498,-0.9819,-19.125,-23.3813,37.35,,0.02105300000000021,1.0490253428778544,1.8404137063274735,non_fall
6.81411,0.2046,1.0226,0.1135,1.1952,1.9498,-0.9819,-19.125,-23.3813,37.35,,0.020969000000000015,1.0490253428778544,1.7487144373618613,non_fall
6.82916,0.2046,1.0226,0.1135,1.1952,1.9498,-0.9819,-20.0438,-23.2688,36.7688,,0.015049999999999564,1.0490253428778544,1.695375400916767,non_fall
6.832661,0.2046,1.0226,0.1135,1.4758,1.3924,-0.5666,-20.0438,-23.2688,36.7688,,0.0035009999999999764,1.0490253428778544,1.6877112886260228,non_fall
6.85437,1.7419,1.1502,-0.3247,1.4758,1.3924,-0.5666,-20.0438,-23.2688,36.7688,,0.021709000000000422,2.112488044936586,1.7185308187348303,non_fall
6.874981,1.7419,1.1502,-0.3247,1.4758,1.3924,-0.5666,-20.0438,-23.2688,36.7688,,0.020610999999999713,2.112488044936586,1.7679594415253896,non_fall
6.889408,1.7419,1.1502,-0.3247,1.4758,1.3924,-0.5666,-21.4688,-22.9125,36.0375,,0.014427000000000412,2.112488044936586,1.8088574440362528,non_fall
6.894792,1.7419,1.1502,-0.3247,1.1928,1.5707,-0.2333,-21.4688,-22.9125,36.0375,,0.005383999999999389,2.112488044936586,1.813808980969279,non_fall
6.914974,-0.1584,1.3547,-0.7302,1.1928,1.5707,-0.2333,-21.4688,-22.9125,36.0375,,0.020182000000000144,1.5470923340253482,1.7616177023992494,non_fall
6.935716,-0.1584,1.3547,-0.7302,1.1928,1.5707,-0.2333,-21.4688,-22.9125,36.0375,,0.02074200000000026,1.5470923340253482,1.6419218986249204,non_fall
6.948621,-0.1584,1.3547,-0.7302,1.1928,1.5707,-0.2333,-23.2125,-22.2563,35.3438,,0.012904999999999944,1.5470923340253482,1.4573650464720118,non_fall
6.955894,-0.1584,1.3547,-0.7302,1.1037,1.5064,0.0298,-23.2125,-22.2563,35.3438,,0.007272999999999641,1.5470923340253482,1.2232944247401705,non_fall
6.996301,-0.1584,1.3547,-0.7302,1.1037,1.5064,0.0298,-23.2125,-22.2563,35.3438,,0.04040700000000008,1.5470923340253482,0.9651627761269121,non_fall
6.998214,-0.0602,-0.0562,-0.0668,1.1037,1.5064,0.0298,-23.2125,-22.2563,35.3438,,0.0019130000000000535,0.10604112409815354,0.7139644708206068,non_fall
7.00896,-0.0602,-0.0562,-0.0668,1.1037,1.5064,0.0298,-25.1063,-21.3938,34.5188,,0.010746000000000144,0.10604112409815354,0.5004327475139319,non_fall
7.016128,-0.0602,-0.0562,-0.0668,0.8027,1.4191,-0.0401,-25.1063,-21.3938,34.5188,,0.007168000000000063,0.10604112409815354,0.3492517006483407,non_fall
7.057834,-0.0602,-0.0562,-0.0668,0.8027,1.4191,-0.0401,-25.1063,-21.3938,34.5188,,0.04170599999999958,0.10604112409815354,0.27473119458691664,non_fall
7.059424,0.4567,0.2553,-0.0216,0.8027,1.4191,-0.0401,-25.1063,-21.3938,34.5188,,0.0015900000000002024,0.5236597559484594,0.2789469176762838,non_fall
7.070119,0.4567,0.2553,-0.0216,0.8027,1.4191,-0.0401,-27.375,-20.1375,33.4875,,0.010695000000000121,0.5236597559484594,0.35248037113724584,non_fall
7.077824,0.4567,0.2553,-0.0216,0.8726,1.3119,0.3365,-27.375,-20.1375,33.4875,,0.007704999999999629,0.5236597559484594,0.47712278137401926,non_fall
7.118773,0.4567,0.2553,-0.0216,0.8726,1.3119,0.3365,-27.375,-20.1375,33.4875,,0.040949000000000346,0.5236597559484594,0.6295830418037407,non_fall
7.120719,-0.2005,0.7348,0.6022,0.8726,1.3119,0.3365,-27.375,-20.1375,33.4875,,0.0019460000000002253,0.970966595717896,0.7853478672076858,non_fall
7.129192,-0.2005,0.7348,0.6022,0.8726,1.3119,0.3365,-29.775,-18.7313,32.1,,0.008472999999999509,0.970966595717896,0.922133937909477,non_fall
7.138553,-0.2005,0.7348,0.6022,0.8719,1.0591,0.8641,-29.775,-18.7313,32.1,,0.009361000000000175,0.970966595717896,1.0226326273256676,non_fall
7.179575,-0.2005,0.7348,0.6022,0.8719,1.0591,0.8641,-29.775,-18.7313,32.1,,0.04102199999999989,0.970966595717896,1.076439630552579,non_fall
7.181482,0.3392,0.7699,0.577,0.8719,1.0591,0.8641,-29.775,-18.7313,32.1,,0.001907000000000103,1.0201625605755194,1.0812144342179628,non_fall
7.188076,0.3392,0.7699,0.577,0.8719,1.0591,0.8641,-32.1375,-16.8,30.5813,,0.006593999999999767,1.0201625605755194,1.0431886934067536,non_fall
7.198857,0.3392,0.7699,0.577,0.9695,0.3939,1.0103,-32.1375,-16.8,30.5813,,0.010781000000000596,1.0201625605755194,0.9770800917308536,non_fall
7.23928,0.3392,0.7699,0.577,0.9695,0.3939,1.0103,-32.1375,-16.8,30.5813,,0.040422999999999654,1.0201625605755194,0.9053042633991006,non_fall
7.249111,0.3392,0.7699,0.577,0.9695,0.3939,1.0103,-34.5,-14.3813,28.65,,0.009831000000000145,1.0201625605755194,0.8562293156624321,non_fall
7.260063,0.3392,0.7699,0.577,1.0199,1.3338,0.2503,-34.5,-14.3813,28.65,,0.010951999999999629,1.0201625605755194,0.8611990874758833,non_fall
7.26116,0.3025,0.7268,0.7233,1.0199,1.3338,0.2503,-34.5,-14.3813,28.65,,0.0010970000000005697,1.0690684636635766,0.9502211686445887,non_fall
7.301629,0.3025,0.7268,0.7233,1.0199,1.3338,0.2503,-34.5,-14.3813,28.65,,0.040468999999999866,1.0690684636635766,1.1465650587324718,non_fall
7.308788,0.3025,0.7268,0.7233,1.0199,1.3338,0.2503,-36.5813,-12.15,26.7938,,0.007158999999999693,1.0690684636635766,1.460958990227395,non_fall
7.320818,-0.9147,2.0995,0.4613,1.0199,1.3338,0.2503,-36.5813,-12.15,26.7938,,0.012030000000000207,2.336102315824373,1.886451676214137,non_fall
7.321986,-0.9147,2.0995,0.4613,1.2723,1.1702,-0.4583,-36.5813,-12.15,26.7938,,0.0011679999999998358,2.336102315824373,2.3951672450019337,non_fall
7.362407,-0.9147,2.0995,0.4613,1.2723,1.1702,-0.4583,-36.5813,-12.15,26.7938,,0.04042100000000026,2.336102315824373,2.93813269075232,non_fall
7.36858,-0.9147,2.0995,0.4613,1.2723,1.1702,-0.4583,-38.3438,-10.3125,25.05,,0.00617299999999954,2.336102315824373,3.4492185453521578,non_fall
7.381688,-0.9147,2.0995,0.4613,0.3277,-0.9488,-0.4935,-38.3438,-10.3125,25.05,,0.013107999999999898,2.336102315824373,3.8539077015381857,non_fall
7.382933,1.1355,-5.3275,0.3593,0.3277,-0.9488,-0.4935,-38.3438,-10.3125,25.05,,0.0012450000000008288,5.459002930023027,4.082634085221033,non_fall
7.423031,1.1355,-5.3275,0.3593,0.3277,-0.9488,-0.4935,-38.3438,-10.3125,25.05,,0.04009799999999952,5.459002930023027,4.086539856874491,non_fall
7.429406,1.1355,-5.3275,0.3593,0.3277,-0.9488,-0.4935,-39.6938,-8.55,23.6625,,0.006375000000000242,5.459002930023027,3.851379533224747,non_fall
7.442555,1.1355,-5.3275,0.3593,0.775,-0.3076,0.2715,-39.6938,-8.55,23.6625,,0.013148999999999411,5.459002930023027,3.4044887352323205,non_fall
7.462844,0.0308,0.5736,0.6106,0.775,-0.3076,0.2715,-39.6938,-8.55,23.6625,,0.020289,0.8383304599022989,2.8113796405143225,non_fall
7.48528,0.0308,0.5736,0.6106,0.775,-0.3076,0.2715,-39.6938,-8.55,23.6625,,0.02243600000000079,0.8383304599022989,2.1622309062423843,non_fall
7.487174,0.0308,0.5736,0.6106,0.775,-0.3076,0.2715,-40.875,-6.8625,22.5188,,0.0018940000000000623,0.8383304599022989,1.5524161963562795,non_fall
7.503439,0.0308,0.5736,0.6106,0.4842,-0.3023,-0.1545,-40.875,-6.8625,22.5188,,0.016264999999999752,0.8383304599022989,1.0631047205321629,non_fall
7.523814,-0.7087,0.0143,-0.023,0.4842,-0.3023,-0.1545,-40.875,-6.8625,22.5188,,0.020374999999999588,0.7092173009734041,0.7470589927377268,non_fall
7.544067,-0.7087,0.0143,-0.023,0.4842,-0.3023,-0.1545,-40.875,-6.8625,22.5188,,0.0202530000000003,0.7092173009734041,0.622134669492574,non_fall
7.548171,-0.7087,0.0143,-0.023,0.4842,-0.3023,-0.1545,-41.5875,-5.2688,21.8063,,0.0041039999999998855,0.7092173009734041,0.672420926279395,non_fall
7.565191,-0.7087,0.0143,-0.023,0.1136,-0.91,0.1633,-41.5875,-5.2688,21.8063,,0.01702000000000048,0.7092173009734041,0.8553977337808739,non_fall
7.584894,1.5694,-0.4041,0.1145,0.1136,-0.91,0.1633,-41.5875,-5.2688,21.8063,,0.019702999999999804,1.624630241008704,1.112859733604152,non_fall
7.60566,1.5694,-0.4041,0.1145,0.1136,-0.91,0.1633,-41.5875,-5.2688,21.8063,,0.020766000000000062,1.624630241008704,1.383252564789465,non_fall
7.607166,1.5694,-0.4041,0.1145,0.1136,-0.91,0.1633,-41.9062,-3.975,21.6562,,0.0015060000000000073,1.624630241008704,1.613243747460814,non_fall
7.626354,1.5694,-0.4041,0.1145,-0.1462,0.2792,0.2992,-41.9062,-3.975,21.6562,,0.01918799999999976,1.624630241008704,1.7667789285937676,non_fall
7.647351,1.1843,-1.6457,0.3214,-0.1462,0.2792,0.2992,-41.9062,-3.975,21.6562,,0.02099699999999949,2.052849955549601,1.8304965735973209,non_fall
7.66707,1.1843,-1.6457,0.3214,-0.1462,0.2792,0.2992,-41.9062,-3.975,21.6562,,0.019719000000000264,2.052849955549601,1.8149709859953855,non_fall
7.66895,1.1843,-1.6457,0.3214,-0.1462,0.2792,0.2992,-41.925,-3.1875,21.45,,0.0018799999999998818,2.052849955549601,1.7516656728274553,non_fall
7.68619,1.1843,-1.6457,0.3214,0.1771,1.4753,-0.1392,-41.925,-3.1875,21.45,,0.017240000000000144,2.052849955549601,1.6858220079119215,non_fall
7.727485,1.1843,-1.6457,0.3214,0.1771,1.4753,-0.1392,-41.925,-3.1875,21.45,,0.04129499999999986,2.052849955549601,1.6660301972894664,non_fall
7.729718,0.8887,-0.3533,0.3449,0.1771,1.4753,-0.1392,-41.925,-3.1875,21.45,,0.0022330000000003736,1.016643787174249,1.7320393291796738,non_fall
7.730813,0.8887,-0.3533,0.3449,0.1771,1.4753,-0.1392,-42.1875,-3.0188,21.375,,0.0010950000000002902,1.016643787174249,1.903310064890378,non_fall
7.747924,0.8887,-0.3533,0.3449,1.3188,-1.2959,-0.482,-42.1875,-3.0188,21.375,,0.017110999999999876,1.016643787174249,2.1714651192330265,non_fall
7.788565,0.8887,-0.3533,0.3449,1.3188,-1.2959,-0.482,-42.1875,-3.0188,21.375,,0.04064099999999993,1.016643787174249,2.4995360856339617,non_fall
7.790386,-2.825,2.8533,1.0879,1.3188,-1.2959,-0.482,-42.1875,-3.0188,21.375,,0.0018209999999996285,4.159984651413993,2.829314229076112,non_fall
7.791429,-2.825,2.8533,1.0879,1.3188,-1.2959,-0.482,-41.8688,-2.9438,21.9375,,0.0010430000000001272,4.159984651413993,3.0954241876185438,non_fall
7.809094,-2.825,2.8533,1.0879,0.1945,-0.5963,-0.8016,-41.8688,-2.9438,21.9375,,0.017665000000000042,4.159984651413993,3.2420380621792595,non_fall
7.849908,-2.825,2.8533,1.0879,0.1945,-0.5963,-0.8016,-41.4188,-2.8688,22.7063,,0.04081400000000013,4.159984651413993,3.2368800253292473,non_fall
7.853156,-2.825,2.8533,1.0879,0.1945,-0.5963,-0.8016,-41.4188,-2.8688,22.7063,,0.0032480000000001397,4.159984651413993,3.078110502397071,non_fall
7.854211,-0.3553,-0.9706,-0.8854,0.1945,-0.5963,-0.8016,-41.4188,-2.8688,22.7063,,0.0010550000000000281,1.360968629322513,2.792357712698018,non_fall
7.869521,-0.3553,-0.9706,-0.8854,-0.1726,0.031,0.6348,-41.4188,-2.8688,22.7063,,0.01530999999999949,1.360968629322513,2.42536917726722,non_fall
7.911469,-0.3553,-0.9706,-0.8854,-0.1726,0.031,0.6348,-41.0813,-2.6063,23.1188,,0.04194800000000054,1.360968629322513,2.029205481090917,non_fall
7.913621,-0.3553,-0.9706,-0.8854,-0.1726,0.031,0.6348,-41.0813,-2.6063,23.1188,,0.0021519999999997097,1.360968629322513,1.6505964185591067,non_fall
7.929937,-0.3553,-0.9706,-0.8854,0.6049,0.3762,0.9199,-41.0813,-2.6063,23.1188,,0.016315999999999775,1.360968629322513,1.323813618583237,non_fall
7.931637,0.6615,1.2194,0.0707,0.6049,0.3762,0.9199,-41.0813,-2.6063,23.1188,,0.001700000000000479,1.3890705885591272,1.06904258494797,non_fall
7.970668,0.6615,1.2194,0.0707,0.6049,0.3762,0.9199,-41.0813,-2.6063,23.1188,,0.039030999999999594,1.3890705885591272,0.8950423196098535,non_fall
7.972529,0.6615,1.2194,0.0707,0.6049,0.3762,0.9199,-40.8,-2.1188,23.5125,,0.0018609999999998905,1.3890705885591272,0.8036686552925978,non_fall
7.990617,0.6615,1.2194,0.0707,0.3663,0.0097,1.0625,-40.8,-2.1188,23.5125,,0.018088000000000548,1.3890705885591272,0.7937602039786148,non_fall
7.992441,-0.1955,0.4506,0.0885,0.3663,0.0097,1.0625,-40.8,-2.1188,23.5125,,0.0018240000000000478,0.4990920356006495,0.8627462822421212,non_fall
8.029544,-0.1955,0.4506,0.0885,0.3663,0.0097,1.0625,-40.5938,-1.575,23.7,,0.03710299999999922,0.4990920356006495,1.0057589215880876,non_fall
8.033592,-0.1955,0.4506,0.0885,0.3663,0.0097,1.0625,-40.5938,-1.575,23.7,,0.00404800000000094,0.4990920356006495,1.2134450636231997,non_fall
8.058231,-0.1955,0.4506,0.0885,-0.2719,0.6055,-0.0816,-40.5938,-1.575,23.7,,0.024638999999998745,0.4990920356006495,1.4704062977619818,non_fall
8.060128,2.448,-0.8334,0.9689,-0.2719,0.6055,-0.0816,-40.5938,-1.575,23.7,,0.0018970000000013698,2.7615261668142854,1.7558017782768924,non_fall
8.089355,2.448,-0.8334,0.9689,-0.2719,0.6055,-0.0816,-40.575,-0.9938,23.625,,0.02922699999999878,2.7615261668142854,2.046288616212703,non_fall
8.094185,2.448,-0.8334,0.9689,-0.2719,0.6055,-0.0816,-40.575,-0.9938,23.625,,0.004830000000000112,2.7615261668142854,2.3199527798597352,non_fall
8.112212,2.448,-0.8334,0.9689,0.28,-1.2533,-0.8598,-40.575,-0.9938,23.625,,0.018027000000000015,2.7615261668142854,2.5592293527725065,non_fall
8.113289,-1.7657,-1.4972,-0.6742,0.28,-1.2533,-0.8598,-40.575,-0.9938,23.625,,0.0010770000000004387,2.411192644729989,2.7514779888236314,non_fall
8.148868,-1.7657,-1.4972,-0.6742,0.28,-1.2533,-0.8598,-40.3688,-0.8438,24.2625,,0.03557900000000025,2.411192644729989,2.8873547186772157,non_fall
8.153575,-1.7657,-1.4972,-0.6742,0.28,-1.2533,-0.8598,-40.3688,-0.8438,24.2625,,0.004706999999999795,2.411192644729989,2.958418649989723,non_fall
8.174059,-1.7657,-1.4972,-0.6742,0.5879,-1.8938,-2.4215,-40.3688,-0.8438,24.2625,,0.020483999999999725,2.411192644729989,2.9558345219342184,non_fall
8.194041,-1.0959,-2.0776,2.0564,0.5879,-1.8938,-2.4215,-40.3688,-0.8438,24.2625,,0.01998200000000061,3.1218903776398044,2.8714503646270697,non_fall
8.209765,-1.0959,-2.0776,2.0564,0.5879,-1.8938,-2.4215,-39.6375,-1.0312,25.2563,,0.015724000000000515,3.1218903776398044,2.7012636066544244,non_fall
8.214474,-1.0959,-2.0776,2.0564,0.5879,-1.8938,-2.4215,-39.6375,-1.0312,25.2563,,0.004708999999998298,3.1218903776398044,2.4499355175322255,non_fall
8.235351,-1.0959,-2.0776,2.0564,0.1491,1.692,-0.7863,-39.6375,-1.0312,25.2563,,0.02087700000000048,3.1218903776398044,2.1342412298838047,non_fall
8.255023,0.2004,-0.7926,-0.5412,0.1491,1.692,-0.7863,-39.6375,-1.0312,25.2563,,0.019671999999999912,0.980444980608295,1.78359337692863,non_fall
8.269037,0.2004,-0.7926,-0.5412,0.1491,1.692,-0.7863,-39.4313,-1.3313,25.5563,,0.014014000000001303,0.980444980608295,1.4369817325340284,non_fall
8.275025,0.2004,-0.7926,-0.5412,0.1491,1.692,-0.7863,-39.4313,-1.3313,25.5563,,0.00598799999999855,0.980444980608295,1.1371693596296424,non_fall
8.295654,0.2004,-0.7926,-0.5412,0.0415,0.7653,0.6702,-39.4313,-1.3313,25.5563,,0.02062900000000134,0.980444980608295,0.9238849107997381,non_fall
8.316057,0.5817,-0.0472,0.8334,0.0415,0.7653,0.6702,-39.4313,-1.3313,25.5563,,0.02040299999999995,1.0174272897853684,0.8276359270763793,non_fall
8.328953,0.5817,-0.0472,0.8334,0.0415,0.7653,0.6702,-39.4688,-1.3125,25.3688,,0.012895999999999574,1.0174272897853684,0.8650461695420201,non_fall
8.337364,0.5817,-0.0472,0.8334,0.0415,0.7653,0.6702,-39.4688,-1.3125,25.3688,,0.008411000000000612,1.0174272897853684,1.036019513622135,non_fall
8.356529,0.5817,-0.0472,0.8334,0.3951,1.467,-0.732,-39.4688,-1.3125,25.3688,,0.01916499999999921,1.0174272897853684,1.322906307069976,non_fall
8.39013,0.5817,-0.0472,0.8334,0.3951,1.467,-0.732,-39.6188,-1.6875,24.7875,,0.033600999999999104,1.0174272897853684,1.6920322565777752,non_fall
8.396583,0.5817,-0.0472,0.8334,0.3951,1.467,-0.732,-39.6188,-1.6875,24.7875,,0.006453000000000486,1.0174272897853684,2.098024972606185,non_fall
8.397629,2.8658,-2.4269,-0.3401,0.3951,1.467,-0.732,-39.6188,-1.6875,24.7875,,0.0010460000000005465,3.770718931450606,2.490923783597527,non_fall
8.418028,2.8658,-2.4269,-0.3401,0.1292,2.0372,-0.7906,-39.6188,-1.6875,24.7875,,0.02039899999999939,3.770718931450606,2.8249768149904946,non_fall
8.44854,2.8658,-2.4269,-0.3401,0.1292,2.0372,-0.7906,-39.8063,-2.6063,23.7,,0.030511999999999873,3.770718931450606,3.0668532004901317,non_fall
8.466528,-1.1714,-2.3527,-1.0608,0.1292,2.0372,-0.7906,-39.8063,-2.6063,23.7,,0.01798800000000078,2.8341968686031676,3.20072498203106,non_fall
8.468028,-1.1714,-2.3527,-1.0608,0.1292,2.0372,-0.7906,-39.8063,-2.6063,23.7,,0.0015000000000000568,2.8341968686031676,3.22880833961333,non_fall
8.477719,-1.1714,-2.3527,-1.0608,-0.1818,1.3726,0.016,-39.8063,-2.6063,23.7,,0.009691000000000116,2.8341968686031676,3.1678328584832784,non_fall
8.509246,-1.1714,-2.3527,-1.0608,-0.1818,1.3726,0.016,-40.1625,-3.75,22.2,,0.03152699999999875,2.8341968686031676,3.0432964146460897,non_fall
8.518848,-1.1714,-2.3527,-1.0608,-0.1818,1.3726,0.016,-40.1625,-3.75,22.2,,0.009602000000000999,2.8341968686031676,2.88360239941831,non_fall
8.519836,0.9549,-1.5527,-1.9138,-0.1818,1.3726,0.016,-40.1625,-3.75,22.2,,0.0009879999999995448,2.6429797085865037,2.715519074567782,non_fall
8.539775,0.9549,-1.5527,-1.9138,-0.0611,1.0492,0.2755,-40.1625,-3.75,22.2,,0.019939000000000817,2.6429797085865037,2.561476880328887,non_fall
8.569096,0.9549,-1.5527,-1.9138,-0.0611,1.0492,0.2755,-40.5563,-4.9125,20.6625,,0.029320999999999486,2.6429797085865037,2.4384751165192107,non_fall
8.579864,0.9549,-1.5527,-1.9138,-0.0611,1.0492,0.2755,-40.5563,-4.9125,20.6625,,0.010768000000000555,2.6429797085865037,2.3579585875220066,non_fall
8.581285,1.2413,1.8033,-0.6482,-0.0611,1.0492,0.2755,-40.5563,-4.9125,20.6625,,0.0014209999999987843,2.283173190977855,2.325962419711406,non_fall
8.599333,1.2413,1.8033,-0.6482,0.3369,0.4124,-0.2037,-40.5563,-4.9125,20.6625,,0.018048000000000286,2.283173190977855,2.343077836256415,non_fall
8.629642,1.2413,1.8033,-0.6482,0.3369,0.4124,-0.2037,-41.0813,-5.5875,18.525,,0.030309000000000808,2.283173190977855,2.4042395410220556,non_fall
8.640625,1.2413,1.8033,-0.6482,0.3369,0.4124,-0.2037,-41.0813,-5.5875,18.525,,0.010982999999999521,2.283173190977855,2.49874481127477,non_fall
8.662244,1.2413,1.8033,-0.6482,0.3657,0.3645,-0.4963,-41.0813,-5.5875,18.525,,0.02161899999999939,2.283173190977855,2.611068680382828,non_fall
8.66412,1.5864,1.474,-1.9864,0.3657,0.3645,-0.4963,-41.0813,-5.5875,18.525,,0.001876000000001099,2.9385584765323287,2.722861154158344,non_fall
8.690123,1.5864,1.474,-1.9864,0.3657,0.3645,-0.4963,-41.9438,-5.9062,16.0875,,0.026002999999999332,2.9385584765323287,2.8160712993680157,non_fall
8.711035,1.5864,1.474,-1.9864,0.3657,0.3645,-0.4963,-41.9438,-5.9062,16.0875,,0.02091200000000093,2.9385584765323287,2.8766292140844776,non_fall
8.720713,1.5864,1.474,-1.9864,0.2687,-0.1273,0.1012,-41.9438,-5.9062,16.0875,,0.009677999999999187,2.9385584765323287,2.8977797144437867,non_fall
8.721565,-2.4226,1.8642,0.1359,0.2687,-0.1273,0.1012,-41.9438,-5.9062,16.0875,,0.0008520000000000749,3.0598531353645066,2.8821434476358125,non_fall
8.748084,-2.4226,1.8642,0.1359,0.2687,-0.1273,0.1012,-42.5813,-5.9062,13.6125,,0.026519000000000403,3.0598531353645066,2.8418149810565403,non_fall
8.762166,-2.4226,1.8642,0.1359,0.2687,-0.1273,0.1012,-42.5813,-5.9062,13.6125,,0.01408200000000015,3.0598531353645066,2.7961559477902984,non_fall
8.782029,-2.4226,1.8642,0.1359,-0.2123,0.4663,-1.0196,-42.5813,-5.9062,13.6125,,0.019862999999999076,3.0598531353645066,2.7673774404063294,non_fall
8.782859,-0.328,1.2268,-1.9378,-0.2123,0.4663,-1.0196,-42.5813,-5.9062,13.6125,,0.0008300000000005525,2.3168278054270672,2.774582176568932,non_fall
8.807464,-0.328,1.2268,-1.9378,-0.2123,0.4663,-1.0196,-43.3875,-6.525,11.4188,,0.024604999999999322,2.3168278054270672,2.8276109321224157,non_fall
8.821957,-0.328,1.2268,-1.9378,-0.2123,0.4663,-1.0196,-43.3875,-6.525,11.4188,,0.014492999999999867,2.3168278054270672,2.922551821723847,non_fall
8.842277,-0.328,1.2268,-1.9378,0.4217,0.3176,-0.0241,-43.3875,-6.525,11.4188,,0.020319999999999894,2.3168278054270672,3.0407312677955813,non_fall
8.862566,-2.4654,2.0985,1.7718,0.4217,0.3176,-0.0241,-43.3875,-6.525,11.4188,,0.020289,3.6906875578948704,3.152163352147521,non_fall
8.867362,-2.4654,2.0985,1.7718,0.4217,0.3176,-0.0241,-43.9125,-6.9563,9.6562,,0.004796000000000689,3.6906875578948704,3.222957115580995,non_fall
8.882912,-2.4654,2.0985,1.7718,0.4217,0.3176,-0.0241,-43.9125,-6.9563,9.6562,,0.015549999999999287,3.6906875578948704,3.2246720708116556,non_fall
8.902958,-2.4654,2.0985,1.7718,0.0309,-0.336,-0.1907,-43.9125,-6.9563,9.6562,,0.020046000000000674,3.6906875578948704,3.1428059867904223,non_fall
8.923463,-2.1976,1.7047,0.2025,0.0309,-0.336,-0.1907,-43.9125,-6.9563,9.6562,,0.020504999999999995,2.78862943038332,2.981880107733465,non_fall
8.927434,-2.1976,1.7047,0.2025,0.0309,-0.336,-0.1907,-44.325,-7.2188,8.25,,0.003970999999999947,2.78862943038332,2.7657238706711977,non_fall
8.943657,-2.1976,1.7047,0.2025,0.0309,-0.336,-0.1907,-44.325,-7.2188,8.25,,0.0162230000000001,2.78862943038332,2.5329340165694445,non_fall
8.964037,-2.1976,1.7047,0.2025,0.5254,-0.3453,0.0305,-44.325,-7.2188,8.25,,0.0203799999999994,2.78862943038332,2.328564909568997,non_fall
8.984551,-0.7354,1.0929,0.7691,0.5254,-0.3453,0.0305,-44.325,-7.2188,8.25,,0.020514000000000365,1.5253715547367468,2.193783490889761,non_fall
8.986966,-0.7354,1.0929,0.7691,0.5254,-0.3453,0.0305,-44.4188,-7.125,7.5938,,0.002415000000000944,1.5253715547367468,2.1556868667437166,non_fall
9.005188,-0.7354,1.0929,0.7691,0.5254,-0.3453,0.0305,-44.4188,-7.125,7.5938,,0.01822199999999974,1.5253715547367468,2.2197740904623235,non_fall
9.025241,-0.7354,1.0929,0.7691,-0.1345,-0.6995,0.5847,-44.4188,-7.125,7.5938,,0.02005299999999899,1.5253715547367468,2.3673381898494017,non_fall
9.045122,-2.768,1.0953,-1.3367,-0.1345,-0.6995,0.5847,-44.4188,-7.125,7.5938,,0.019880999999999815,3.263169162026388,2.5589449857089814,non_fall
9.047169,-2.768,1.0953,-1.3367,-0.1345,-0.6995,0.5847,-44.3813,-7.2938,7.6125,,0.0020470000000010202,3.263169162026388,2.743354873928092,non_fall
9.065782,-2.768,1.0953,-1.3367,-0.1345,-0.6995,0.5847,-44.3813,-7.2938,7.6125,,0.018613000000000213,3.263169162026388,2.8694531965933696,non_fall
9.085943,-2.768,1.0953,-1.3367,0.0337,-0.5686,-0.1164,-44.3813,-7.2938,7.6125,,0.020160999999999873,3.263169162026388,2.8978290434050735,non_fall
9.108141,-2.768,1.0953,-1.3367,0.0337,-0.5686,-0.1164,-44.475,-7.5375,7.9125,,0.022197999999999496,3.263169162026388,2.8089443010916217,non_fall
9.128748,-2.768,1.0953,-1.3367,0.0337,-0.5686,-0.1164,-44.475,-7.5375,7.9125,,0.020607000000000042,3.263169162026388,2.6060518607580803,non_fall
9.129453,1.3675,0.2416,0.1031,0.0337,-0.5686,-0.1164,-44.475,-7.5375,7.9125,,0.0007049999999999557,1.3925000610412912,2.312590136768584,non_fall
9.148216,1.3675,0.2416,0.1031,0.1952,0.0176,-0.3461,-44.475,-7.5375,7.9125,,0.018762999999999863,1.3925000610412912,1.9652962523584334,non_fall
9.16842,1.3675,0.2416,0.1031,0.1952,0.0176,-0.3461,-44.3813,-7.6688,8.2125,,0.020203999999999667,1.3925000610412912,1.6053758369210995,non_fall
9.19012,1.3675,0.2416,0.1031,0.1952,0.0176,-0.3461,-44.3813,-7.6688,8.2125,,0.02170000000000094,1.3925000610412912,1.2703058408479597,non_fall
9.190699,0.4136,-0.4559,0.4573,0.1952,0.0176,-0.3461,-44.3813,-7.6688,8.2125,,0.0005790000000001072,0.766833136999178,0.9881271976832123,non_fall
9.209099,0.4136,-0.4559,0.4573,-0.2404,0.1646,0.0228,-44.3813,-7.6688,8.2125,,0.01839999999999975,0.766833136999178,0.7749131895081455,non_fall
9.228267,0.4136,-0.4559,0.4573,-0.2404,0.1646,0.0228,-44.25,-8.0438,8.925,,0.019168000000000518,0.766833136999178,0.6351225994336691,non_fall
9.249339,0.4136,-0.4559,0.4573,-0.2404,0.1646,0.0228,-44.25,-8.0438,8.925,,0.0210720000000002,0.766833136999178,0.5639948109740542,non_fall
9.250004,-0.64,-0.0762,-0.2041,-0.2404,0.1646,0.0228,-44.25,-8.0438,8.925,,0.0006649999999996936,0.6760645309436075,0.5509211998069808,non_fall
9.268801,-0.64,-0.0762,-0.2041,0.6013,0.1382,-0.1545,-44.25,-8.0438,8.925,,0.018796999999999287,0.6760645309436075,0.5827615895552017,non_fall
9.288517,-0.64,-0.0762,-0.2041,0.6013,0.1382,-0.1545,-43.8563,-7.9875,9.6375,,0.019716000000000733,0.6760645309436075,0.6463540259456566,non_fall
9.309692,-0.64,-0.0762,-0.2041,0.6013,0.1382,-0.1545,-43.8563,-7.9875,9.6375,,0.0211749999999995,0.6760645309436075,0.72990069911744,non_fall
9.330239,-0.64,-0.0762,-0.2041,0.6077,1.0005,-0.4001,-43.8563,-7.9875,9.6375,,0.020547000000000537,0.6760645309436075,0.8233399869927785,non_fall
9.330791,-0.6052,0.0293,0.7336,0.6077,1.0005,-0.4001,-43.8563,-7.9875,9.6375,,0.0005519999999989977,0.9514696474402112,0.9180985097110129,non_fall
9.348223,-0.6052,0.0293,0.7336,0.6077,1.0005,-0.4001,-43.5563,-7.875,10.2375,,0.017432000000001224,0.9514696474402112,1.0067001035355376,non_fall
9.371218,-0.6052,0.0293,0.7336,0.6077,1.0005,-0.4001,-43.5563,-7.875,10.2375,,0.022994999999999877,0.9514696474402112,1.0826176803799559,non_fall
9.392472,-0.6052,0.0293,0.7336,-0.0409,1.5473,-0.7245,-43.5563,-7.875,10.2375,,0.021253999999998996,0.9514696474402112,1.1405692855457636,non_fall
9.393359,0.9087,-0.6491,-0.8474,-0.0409,1.5473,-0.7245,-43.5563,-7.875,10.2375,,0.0008870000000005263,1.4018392418533587,1.1772366503626168,non_fall
9.407937,0.9087,-0.6491,-0.8474,-0.0409,1.5473,-0.7245,-43.4062,-8.175,10.5188,,0.014578000000000202,1.4018392418533587,1.192131863731844,non_fall
9.433115,0.9087,-0.6491,-0.8474,-0.0409,1.5473,-0.7245,-43.4062,-8.175,10.5188,,0.025178000000000367,1.4018392418533587,1.1881171402222381,non_fall
9.453287,0.9087,-0.6491,-0.8474,-0.2815,0.6566,0.3607,-43.4062,-8.175,10.5188,,0.020171999999998746,1.4018392418533587,1.1710588318455961,non_fall
9.454077,-0.4772,0.2375,-0.6641,-0.2815,0.6566,0.3607,-43.4062,-8.175,10.5188,,0.0007900000000002905,0.8515602738503012,1.1483962629885398,non_fall
9.470764,-0.4772,0.2375,-0.6641,-0.2815,0.6566,0.3607,-43.3875,-8.7375,10.2563,,0.016687000000001007,0.8515602738503012,1.1269456188939335,non_fall
9.492548,-0.4772,0.2375,-0.6641,-0.2815,0.6566,0.3607,-43.3875,-8.7375,10.2563,,0.02178399999999847,0.8515602738503012,1.1107525317448022,non_fall
9.513078,-0.4772,0.2375,-0.6641,0.3273,-0.1107,0.84,-43.3875,-8.7375,10.2563,,0.020530000000000825,0.8515602738503012,1.0999387912487508,non_fall
9.513809,-1.186,-0.5148,0.0149,0.3273,-0.1107,0.84,-43.3875,-8.7375,10.2563,,0.0007310000000000372,1.292995378955393,1.0911287370552274,non_fall
9.529229,-1.186,-0.5148,0.0149,0.3273,-0.1107,0.84,-43.4438,-8.7188,9.45,,0.015420000000000655,1.292995378955393,1.079346274483598,non_fall
9.55376,-1.186,-0.5148,0.0149,0.3273,-0.1107,0.84,-43.4438,-8.7188,9.45,,0.024530999999999636,1.292995378955393,1.0605939722190119,non_fall
9.574556,-1.186,-0.5148,0.0149,0.24,-1.3336,0.3224,-43.4438,-8.7188,9.45,,0.020795999999998926,1.292995378955393,1.0339964885883117,non_fall
9.588001,-1.186,-0.5148,0.0149,0.24,-1.3336,0.3224,-43.5188,-8.6625,8.5875,,0.013445000000000817,1.292995378955393,1.0025569857783254,non_fall
9.594202,0.0713,-0.4397,0.4594,0.24,-1.3336,0.3224,-43.5188,-8.6625,8.5875,,0.006200999999999013,0.6398969760828691,0.9721527827237417,non_fall
9.614549,0.0713,-0.4397,0.4594,0.24,-1.3336,0.3224,-43.5188,-8.6625,8.5875,,0.020347000000001003,0.6398969760828691,0.9491522122763106,non_fall
9.634217,0.0713,-0.4397,0.4594,-0.1455,-0.4135,0.0505,-43.5188,-8.6625,8.5875,,0.019667999999999353,0.6398969760828691,0.9376633286512754,non_fall
9.648149,0.0713,-0.4397,0.4594,-0.1455,-0.4135,0.0505,-43.65,-8.3625,7.95,,0.0139320000000005,0.6398969760828691,0.9376211208553267,non_fall
9.655225,0.1677,-0.1591,1.1698,-0.1455,-0.4135,0.0505,-43.65,-8.3625,7.95,,0.007075999999999638,1.1924211252741206,0.9445449100166192,non_fall
9.674623,0.1677,-0.1591,1.1698,-0.1455,-0.4135,0.0505,-43.65,-8.3625,7.95,,0.019398000000000692,1.1924211252741206,0.951022791365945,non_fall
9.694805,0.1677,-0.1591,1.1698,-0.2393,-0.3939,-0.098,-43.65,-8.3625,7.95,,0.020182000000000144,1.1924211252741206,0.9492075814365558,non_fall
9.707518,0.1677,-0.1591,1.1698,-0.2393,-0.3939,-0.098,-43.8375,-7.9688,7.4438,,0.012712999999999752,1.1924211252741206,0.9332302323391295,non_fall
9.715181,-0.3076,0.5907,0.2189,-0.2393,-0.3939,-0.098,-43.8375,-7.9688,7.4438,,0.007662999999999087,0.701043122782044,0.9006095551340141,non_fall
9.736431,-0.3076,0.5907,0.2189,-0.2393,-0.3939,-0.098,-43.8375,-7.9688,7.4438,,0.021250000000000213,0.701043122782044,0.8523097756971333,non_fall
9.757965,-0.3076,0.5907,0.2189,-0.049,-0.2828,-0.0256,-43.8375,-7.9688,7.4438,,0.02153400000000083,0.701043122782044,0.7917224082902583,non_fall
9.768716,-0.3076,0.5907,0.2189,-0.049,-0.2828,-0.0256,-43.8375,-7.8,7.4438,,0.010750999999999067,0.701043122782044,0.7232031532629678,non_fall
9.798098,-0.3076,0.5907,0.2189,-0.049,-0.2828,-0.0256,-43.8375,-7.8,7.4438,,0.02938200000000002,0.701043122782044,0.6507709162591131,non_fall
9.800278,-0.2029,0.2111,0.4083,-0.049,-0.2828,-0.0256,-43.8375,-7.8,7.4438,,0.002180000000000959,0.5024345828065581,0.5773154704317555,non_fall
9.817907,-0.2029,0.2111,0.4083,-0.2372,-0.4035,0.0667,-43.8375,-7.8,7.4438,,0.01762899999999945,0.5024345828065581,0.5043874411011439,non_fall
