time,ax,ay,az,wx,wy,wz,Bx,By,Bz,Unnamed: 10,time_diff,acc_mag,acc_mag_filtered,label
0.113045,0.0,0.0,0.0,0.0,0.0,0.0,0.0,0.0,0.0,,0.0,0.0,0.0005104351374544043,non_fall
0.113666,0.0,0.0,0.0,0.0,0.0,0.0,0.0,0.0,0.0,,0.0006209999999999966,0.0,0.00012338120279018275,non_fall
0.114228,0.0,0.0,0.0,0.0,0.0,0.0,0.0,0.0,0.0,,0.0005619999999999931,0.0,-0.00038709396750404674,non_fall
0.114731,0.0,0.0,0.0,0.0,0.0,0.0,0.0,0.0,0.0,,0.0005030000000000034,0.0,-0.000992599882464665,non_fall
0.115104,0.0,0.0,0.0,0.0,0.0,0.0,0.0,0.0,0.0,,0.00037299999999999833,0.0,-0.0016438294031893728,non_fall
0.128761,0.0,0.0,0.0,0.0099,-0.0274,-0.0144,0.0,0.0,0.0,,0.013656999999999989,0.0,-0.0022696653864509534,non_fall
0.163128,0.0,0.0,0.0,0.0099,-0.0274,-0.0144,0.0,0.0,0.0,,0.03436700000000001,0.0,-0.002778254063768566,non_fall
0.165219,0.0,0.0,0.0,0.0099,-0.0274,-0.0144,0.0,0.0,0.0,,0.0020910000000000095,0.0,-0.0030603521274695355,non_fall
0.173994,0.0,0.0,0.0,0.0099,-0.0274,-0.0144,0.0,0.0,0.0,,0.008775000000000005,0.0,-0.0029950480443795228,non_fall
0.175971,0.0,0.0,0.0,0.0099,-0.0274,-0.0144,36.975,24.75,-13.725,,0.0019769999999999788,0.0,-0.002457683066553394,non_fall
0.186561,0.0,0.0,0.0,0.0347,0.0024,-0.0133,36.975,24.75,-13.725,,0.010590000000000016,0.0,-0.0013294709009345283,non_fall
0.189257,0.0,0.0,0.0,0.0347,0.0024,-0.0133,36.975,24.75,-13.725,,0.002696000000000004,0.0,0.0004920325431048561,non_fall
0.190527,0.0,0.0,0.0,0.0347,0.0024,-0.0133,36.975,24.75,-13.725,,0.0012699999999999934,0.0,0.003082781560992478,non_fall
0.228825,0.0,0.0,0.0,0.0347,0.0024,-0.0133,36.975,24.75,-13.725,,0.038298,0.0,0.0064838274963763265,non_fall
0.231461,0.0,0.0,0.0,0.0347,0.0024,-0.0133,36.975,24.75,-13.725,,0.0026359999999999995,0.0,0.010696135098374922,non_fall
0.236733,0.0,0.0,0.0,0.0347,0.0024,-0.0133,36.8438,24.6188,-13.8375,,0.005271999999999999,0.0,0.01567996346828785,non_fall
0.243043,0.0,0.0,0.0,0.0347,0.0024,-0.0133,36.8438,24.6188,-13.8375,,0.00631000000000001,0.0,0.021359649599070885,non_fall
0.245398,-0.0329,-0.0411,-0.0017,0.0347,0.0024,-0.0133,36.8438,24.6188,-13.8375,,0.002354999999999996,0.05267361768475752,0.027633725808712095,non_fall
0.262654,-0.0329,-0.0411,-0.0017,0.0188,0.0465,-0.0018,36.8438,24.6188,-13.8375,,0.017255999999999994,0.05267361768475752,0.034389071622270846,non_fall
0.295914,-0.0329,-0.0411,-0.0017,0.0188,0.0465,-0.0018,36.8438,24.6188,-13.8375,,0.03326000000000001,0.05267361768475752,0.04151667876265408,non_fall
0.298982,-0.0329,-0.0411,-0.0017,0.0188,0.0465,-0.0018,36.8438,24.6188,-13.8375,,0.003068000000000015,0.05267361768475752,0.04892624719404435,non_fall
0.306233,-0.0075,0.0228,-0.0596,0.0188,0.0465,-0.0018,36.8438,24.6188,-13.8375,,0.007250999999999952,0.06425145912740036,0.0565575308537234,non_fall
0.310233,-0.0075,0.0228,-0.0596,0.0188,0.0465,-0.0018,36.8438,24.6188,-13.8375,,0.0040000000000000036,0.06425145912740036,0.06438772302881045,non_fall
0.31442,-0.0075,0.0228,-0.0596,0.0188,0.0465,-0.0018,36.9375,24.7313,-14.1,,0.004186999999999996,0.06425145912740036,0.07243554085907902,non_fall
0.323962,-0.0075,0.0228,-0.0596,0.0341,0.0092,-0.0192,36.9375,24.7313,-14.1,,0.00954200000000005,0.06425145912740036,0.08076363124413292,non_fall
0.36037,-0.0075,0.0228,-0.0596,0.0341,0.0092,-0.0192,36.9375,24.7313,-14.1,,0.036407999999999996,0.06425145912740036,0.0894813399916029,non_fall
0.362478,-0.0075,0.0228,-0.0596,0.0341,0.0092,-0.0192,36.9375,24.7313,-14.1,,0.0021079999999999988,0.06425145912740036,0.0987496241031838,non_fall
0.36528,-0.0075,0.0228,-0.0596,0.0341,0.0092,-0.0192,36.9375,24.7313,-14.1,,0.002801999999999971,0.06425145912740036,0.10878874781857042,non_fall
0.366715,0.18,0.015,-0.0514,0.0341,0.0092,-0.0192,36.9375,24.7313,-14.1,,0.0014350000000000196,0.18779499460848256,0.11988729034607214,non_fall
0.376417,0.18,0.015,-0.0514,0.0341,0.0092,-0.0192,36.825,24.7125,-13.8563,,0.009701999999999988,0.18779499460848256,0.13240824282497193,non_fall
0.382949,0.18,0.015,-0.0514,0.0275,0.0376,-0.0505,36.825,24.7125,-13.8563,,0.006531999999999982,0.18779499460848256,0.1467857370273636,non_fall
0.423528,0.18,0.015,-0.0514,0.0275,0.0376,-0.0505,36.825,24.7125,-13.8563,,0.04057900000000003,0.18779499460848256,0.16350585308247434,non_fall
0.424828,0.18,0.015,-0.0514,0.0275,0.0376,-0.0505,36.825,24.7125,-13.8563,,0.0012999999999999678,0.18779499460848256,0.18306771915619283,non_fall
0.425865,0.18,0.015,-0.0514,0.0275,0.0376,-0.0505,36.825,24.7125,-13.8563,,0.0010370000000000101,0.18779499460848256,0.20592568593252203,non_fall
0.426775,0.2519,0.0093,-0.0556,0.0275,0.0376,-0.0505,36.825,24.7125,-13.8563,,0.0009100000000000219,0.2581307033268224,0.23241779258164028,non_fall
0.433915,0.2519,0.0093,-0.0556,0.0275,0.0376,-0.0505,36.6562,24.675,-14.025,,0.00713999999999998,0.2581307033268224,0.262688747069645,non_fall
0.464082,0.2519,0.0093,-0.0556,0.0381,0.0506,-0.1602,36.6562,24.675,-14.025,,0.030167,0.2581307033268224,0.2966171356316058,non_fall
0.466006,0.2519,0.0093,-0.0556,0.0381,0.0506,-0.1602,36.6562,24.675,-14.025,,0.0019239999999999813,0.2581307033268224,0.33375707083038897,non_fall
0.484542,0.4085,-0.0553,0.0019,0.0381,0.0506,-0.1602,36.6562,24.675,-14.025,,0.018535999999999997,0.41223045739003805,0.37330411379575446,non_fall
0.488043,0.4085,-0.0553,0.0019,0.0381,0.0506,-0.1602,36.6562,24.675,-14.025,,0.003501000000000032,0.41223045739003805,0.414093660136862,non_fall
0.490085,0.4085,-0.0553,0.0019,0.0381,0.0506,-0.1602,36.6562,24.675,-14.025,,0.0020419999999999883,0.41223045739003805,0.4546371893404902,non_fall
0.517456,0.4085,-0.0553,0.0019,0.0381,0.0506,-0.1602,36.6562,24.675,-14.025,,0.027371000000000034,0.41223045739003805,0.4931989329418644,non_fall
0.520783,0.4085,-0.0553,0.0019,0.0381,0.0506,-0.1602,36.6188,24.675,-13.9875,,0.003326999999999969,0.41223045739003805,0.5279131868449956,non_fall
0.527283,0.4085,-0.0553,0.0019,0.1834,-0.0861,-0.1267,36.6188,24.675,-13.9875,,0.00649999999999995,0.41223045739003805,0.5569394429033044,non_fall
0.543036,-0.2284,0.0578,0.6497,0.1834,-0.0861,-0.1267,36.6188,24.675,-13.9875,,0.015753000000000017,0.6910987556058831,0.578646784952042,non_fall
0.545863,-0.2284,0.0578,0.6497,0.1834,-0.0861,-0.1267,36.6188,24.675,-13.9875,,0.002827000000000024,0.6910987556058831,0.5918102880982571,non_fall
0.547733,-0.2284,0.0578,0.6497,0.1834,-0.0861,-0.1267,36.6188,24.675,-13.9875,,0.0018700000000000383,0.6910987556058831,0.5957932180357606,non_fall
0.57386,-0.2284,0.0578,0.6497,0.1834,-0.0861,-0.1267,36.4875,24.6188,-14.0438,,0.02612700000000001,0.6910987556058831,0.590684183190672,non_fall
0.576691,-0.2284,0.0578,0.6497,0.1834,-0.0861,-0.1267,36.4875,24.6188,-14.0438,,0.002830999999999917,0.6910987556058831,0.5773608879608438,non_fall
0.582448,-0.2284,0.0578,0.6497,0.1253,0.0783,-0.0832,36.4875,24.6188,-14.0438,,0.005757000000000012,0.6910987556058831,0.5574608373647746,non_fall
0.605374,-0.2284,0.0578,0.6497,0.1253,0.0783,-0.0832,36.4875,24.6188,-14.0438,,0.022926000000000002,0.6910987556058831,0.5332514299622251,non_fall
0.607153,-0.2284,0.0578,0.6497,0.1253,0.0783,-0.0832,36.4875,24.6188,-14.0438,,0.001779000000000086,0.6910987556058831,0.5074056231635392,non_fall
0.608284,-0.2245,0.1023,-0.0504,0.1253,0.0783,-0.0832,36.4875,24.6188,-14.0438,,0.0011309999999999931,0.25180488478184854,0.4827045259037814,non_fall
0.626462,-0.2245,0.1023,-0.0504,0.1253,0.0783,-0.0832,36.4875,24.6188,-14.0438,,0.018177999999999916,0.25180488478184854,0.4617039555822239,non_fall
0.633022,-0.2245,0.1023,-0.0504,0.1253,0.0783,-0.0832,36.3375,24.6375,-14.1938,,0.00656000000000001,0.25180488478184854,0.4464142942256397,non_fall
0.66514,-0.2245,0.1023,-0.0504,0.1253,0.0783,-0.0832,36.3375,24.6375,-14.1938,,0.03211799999999998,0.25180488478184854,0.4380459324126187,non_fall
0.666855,-0.2245,0.1023,-0.0504,0.1253,0.0783,-0.0832,36.3375,24.6375,-14.1938,,0.001715000000000022,0.25180488478184854,0.43686300103607967,non_fall
0.668089,-0.2245,0.1023,-0.0504,0.0974,-0.0248,-0.0306,36.3375,24.6375,-14.1938,,0.0012340000000000684,0.25180488478184854,0.44216863208777873,non_fall
0.66964,-0.4547,0.0168,-0.4111,0.0974,-0.0248,-0.0306,36.3375,24.6375,-14.1938,,0.001550999999999969,0.6132189984010606,0.45242136491641266,non_fall
0.700183,-0.4547,0.0168,-0.4111,0.0974,-0.0248,-0.0306,36.3375,24.6375,-14.1938,,0.030542999999999987,0.6132189984010606,0.4654594171571177,non_fall
0.717369,-0.4547,0.0168,-0.4111,0.0974,-0.0248,-0.0306,36.3375,24.6375,-14.1938,,0.017186000000000035,0.6132189984010606,0.4787917242438497,non_fall
0.719106,-0.4547,0.0168,-0.4111,0.0974,-0.0248,-0.0306,36.2812,24.7125,-14.3063,,0.0017369999999999886,0.6132189984010606,0.4899064760014827,non_fall
0.723915,-0.4547,0.0168,-0.4111,0.0974,-0.0248,-0.0306,36.2812,24.7125,-14.3063,,0.004808999999999952,0.6132189984010606,0.49655131877000064,non_fall
0.725277,-0.4547,0.0168,-0.4111,0.0801,-0.0589,0.026,36.2812,24.7125,-14.3063,,0.0013619999999999743,0.6132189984010606,0.4969515979980157,non_fall
0.726789,-0.3764,-0.1205,-0.163,0.0801,-0.0589,0.026,36.2812,24.7125,-14.3063,,0.0015120000000000688,0.42751164896409555,0.48994879611074893,non_fall
0.760254,-0.3764,-0.1205,-0.163,0.0801,-0.0589,0.026,36.2812,24.7125,-14.3063,,0.03346499999999997,0.42751164896409555,0.475056657857762,non_fall
0.774978,-0.3764,-0.1205,-0.163,0.0801,-0.0589,0.026,36.1125,24.7688,-14.475,,0.01472399999999996,0.42751164896409555,0.45244477957355533,non_fall
0.77855,-0.3764,-0.1205,-0.163,0.0801,-0.0589,0.026,36.1125,24.7688,-14.475,,0.0035720000000000196,0.42751164896409555,0.4228666108454667,non_fall
0.783967,-0.3764,-0.1205,-0.163,0.0533,-0.0,0.0424,36.1125,24.7688,-14.475,,0.005417000000000005,0.42751164896409555,0.38755044142985495,non_fall
0.787369,-0.1763,-0.0749,-0.1383,0.0533,-0.0,0.0424,36.1125,24.7688,-14.475,,0.003402000000000016,0.2362595818162726,0.34807015853117007,non_fall
0.791399,-0.1763,-0.0749,-0.1383,0.0533,-0.0,0.0424,36.1125,24.7688,-14.475,,0.004029999999999978,0.2362595818162726,0.30621020916703284,non_fall
0.827471,-0.1763,-0.0749,-0.1383,0.0533,-0.0,0.0424,36.1125,24.7688,-14.475,,0.03607199999999999,0.2362595818162726,0.263837066744427,non_fall
0.829633,-0.1763,-0.0749,-0.1383,0.0533,-0.0,0.0424,36.1125,24.7688,-14.475,,0.0021619999999999973,0.2362595818162726,0.22278624139751443,non_fall
0.837289,-0.1763,-0.0749,-0.1383,0.0533,-0.0,0.0424,35.9438,24.7125,-14.6063,,0.007655999999999996,0.2362595818162726,0.1847687489813439,non_fall
0.845862,-0.1763,-0.0749,-0.1383,0.0533,-0.0,0.0424,35.9438,24.7125,-14.6063,,0.008573000000000053,0.2362595818162726,0.1512955981587945,non_fall
0.848026,-0.0313,-0.0776,-0.0097,0.0533,-0.0,0.0424,35.9438,24.7125,-14.6063,,0.0021639999999999437,0.08423502834332046,0.12361594251239091,non_fall
0.864364,-0.0313,-0.0776,-0.0097,0.0726,0.004,0.0531,35.9438,24.7125,-14.6063,,0.016338000000000075,0.08423502834332046,0.10266530292554213,non_fall
0.894833,-0.0313,-0.0776,-0.0097,0.0726,0.004,0.0531,35.9438,24.7125,-14.6063,,0.03046899999999997,0.08423502834332046,0.0890234788384791,non_fall
0.897158,-0.0313,-0.0776,-0.0097,0.0726,0.004,0.0531,35.9438,24.7125,-14.6063,,0.0023250000000000215,0.08423502834332046,0.0828848506488823,non_fall
0.903683,-0.0313,-0.0776,-0.0097,0.0726,0.004,0.0531,35.9438,24.7125,-14.6063,,0.006525000000000003,0.08423502834332046,0.08404496111396854,non_fall
0.905633,0.0514,-0.0618,-0.0052,0.0726,0.004,0.0531,35.9438,24.7125,-14.6063,,0.0019500000000000073,0.08054961204127553,0.09190679738284879,non_fall
0.91526,0.0514,-0.0618,-0.0052,0.0726,0.004,0.0531,35.8688,24.6563,-14.8875,,0.009626999999999941,0.08054961204127553,0.10550930731607477,non_fall
0.924224,0.0514,-0.0618,-0.0052,0.0776,0.0024,0.0554,35.8688,24.6563,-14.8875,,0.008964000000000083,0.08054961204127553,0.12357994787412559,non_fall
0.961633,0.0514,-0.0618,-0.0052,0.0776,0.0024,0.0554,35.8688,24.6563,-14.8875,,0.037408999999999915,0.08054961204127553,0.1446120744890763,non_fall
0.9643,0.0514,-0.0618,-0.0052,0.0776,0.0024,0.0554,35.8688,24.6563,-14.8875,,0.002667000000000086,0.08054961204127553,0.16696597532702423,non_fall
0.965862,0.2451,-0.029,-0.1329,0.0776,0.0024,0.0554,35.8688,24.6563,-14.8875,,0.0015619999999999523,0.28031664238856746,0.1889887620305273,non_fall
0.968324,0.2451,-0.029,-0.1329,0.0776,0.0024,0.0554,35.8688,24.6563,-14.8875,,0.0024619999999999642,0.28031664238856746,0.20914335688909344,non_fall
0.974479,0.2451,-0.029,-0.1329,0.0776,0.0024,0.0554,35.8688,24.5625,-15.0375,,0.0061550000000000216,0.28031664238856746,0.22613213921819297,non_fall
0.984364,0.2451,-0.029,-0.1329,0.0638,0.048,0.0173,35.8688,24.5625,-15.0375,,0.009885000000000033,0.28031664238856746,0.2389990762082816,non_fall
1.024122,0.2451,-0.029,-0.1329,0.0638,0.048,0.0173,35.8688,24.5625,-15.0375,,0.03975799999999996,0.28031664238856746,0.24719679553402868,non_fall
1.025431,0.2451,-0.029,-0.1329,0.0638,0.048,0.0173,35.8688,24.5625,-15.0375,,0.0013090000000000046,0.28031664238856746,0.25061086816397954,non_fall
1.026441,0.2451,-0.029,-0.1329,0.0638,0.048,0.0173,35.8688,24.5625,-15.0375,,0.0010099999999999554,0.28031664238856746,0.24954012331441758,non_fall
1.027318,0.2019,0.0067,-0.017,0.0638,0.048,0.0173,35.8688,24.5625,-15.0375,,0.0008770000000000167,0.20272518343807214,0.24463755214263821,non_fall
1.035578,0.2019,0.0067,-0.017,0.0638,0.048,0.0173,35.8313,24.4688,-15.2063,,0.008260000000000156,0.20272518343807214,0.2368208455723178,non_fall
1.043447,0.2019,0.0067,-0.017,0.0758,0.0155,0.0053,35.8313,24.4688,-15.2063,,0.007868999999999904,0.20272518343807214,0.2271645396453527,non_fall
1.049703,0.2019,0.0067,-0.017,0.0758,0.0155,0.0053,35.8313,24.4688,-15.2063,,0.006256000000000039,0.20272518343807214,0.21678655215448775,non_fall
1.08735,0.2019,0.0067,-0.017,0.0758,0.0155,0.0053,35.8313,24.4688,-15.2063,,0.037646999999999986,0.20272518343807214,0.2067405012461167,non_fall
1.091383,0.2019,0.0067,-0.017,0.0758,0.0155,0.0053,35.8313,24.4688,-15.2063,,0.004032999999999953,0.20272518343807214,0.19792249771283635,non_fall
1.09393,0.1636,-0.0031,0.0149,0.0758,0.0155,0.0053,35.8313,24.4688,-15.2063,,0.002547000000000077,0.16430636019338996,0.19099839623882336,non_fall
1.115017,0.1636,-0.0031,0.0149,0.0758,0.0155,0.0053,35.85,24.4125,-15.4313,,0.021086999999999856,0.16430636019338996,0.1863555192637392,non_fall
1.119499,0.1636,-0.0031,0.0149,0.0758,0.0155,0.0053,35.85,24.4125,-15.4313,,0.004482000000000097,0.16430636019338996,0.18408149430448734,non_fall
1.125859,0.1636,-0.0031,0.0149,0.129,0.0088,0.0432,35.85,24.4125,-15.4313,,0.006359999999999921,0.16430636019338996,0.18397144275292077,non_fall
1.145127,0.1636,-0.0031,0.0149,0.129,0.0088,0.0432,35.85,24.4125,-15.4313,,0.019268000000000063,0.16430636019338996,0.18556284774156812,non_fall
1.147732,0.1636,-0.0031,0.0149,0.129,0.0088,0.0432,35.85,24.4125,-15.4313,,0.0026049999999999685,0.16430636019338996,0.18819502460716236,non_fall
1.149626,0.0491,-0.112,0.1864,0.129,0.0088,0.0432,35.85,24.4125,-15.4313,,0.0018940000000000623,0.22293445224998312,0.1910875202696117,non_fall
1.175404,0.0491,-0.112,0.1864,0.129,0.0088,0.0432,36.0,24.2625,-15.5063,,0.025777999999999857,0.22293445224998312,0.19342932214543312,non_fall
1.177915,0.0491,-0.112,0.1864,0.129,0.0088,0.0432,36.0,24.2625,-15.5063,,0.002511000000000152,0.22293445224998312,0.19446899115266444,non_fall
1.183364,0.0491,-0.112,0.1864,0.1738,-0.0578,0.106,36.0,24.2625,-15.5063,,0.005449000000000037,0.22293445224998312,0.19359546948732378,non_fall
1.204124,0.0491,-0.112,0.1864,0.1738,-0.0578,0.106,36.0,24.2625,-15.5063,,0.02075999999999989,0.22293445224998312,0.1904007336012702,non_fall
1.206486,0.0491,-0.112,0.1864,0.1738,-0.0578,0.106,36.0,24.2625,-15.5063,,0.0023619999999999752,0.22293445224998312,0.18471831863921984,non_fall
1.208242,-0.1218,-0.0769,-0.0031,0.1738,-0.0578,0.106,36.0,24.2625,-15.5063,,0.0017560000000000908,0.14407796500506245,0.1766353209052622,non_fall
1.228787,-0.1218,-0.0769,-0.0031,0.1738,-0.0578,0.106,36.0,24.2625,-15.5063,,0.020545000000000035,0.14407796500506245,0.1664791466417661,non_fall
1.237098,-0.1218,-0.0769,-0.0031,0.1738,-0.0578,0.106,35.9062,23.8688,-15.7125,,0.008310999999999957,0.14407796500506245,0.15478329124749324,non_fall
1.242784,-0.1218,-0.0769,-0.0031,0.2398,-0.0735,0.1486,35.9062,23.8688,-15.7125,,0.00568600000000008,0.14407796500506245,0.14223795578636098,non_fall
1.264274,-0.1218,-0.0769,-0.0031,0.2398,-0.0735,0.1486,35.9062,23.8688,-15.7125,,0.021489999999999787,0.14407796500506245,0.12963106240034086,non_fall
1.265582,-0.1218,-0.0769,-0.0031,0.2398,-0.0735,0.1486,35.9062,23.8688,-15.7125,,0.0013080000000000869,0.14407796500506245,0.11778400978194128,non_fall
1.266503,0.005,-0.0862,0.0075,0.2398,-0.0735,0.1486,35.9062,23.8688,-15.7125,,0.0009209999999999496,0.08667000634590954,0.10748556859196043,non_fall
1.295331,0.005,-0.0862,0.0075,0.2398,-0.0735,0.1486,35.9062,23.8688,-15.7125,,0.028828000000000076,0.08667000634590954,0.09942733963902317,non_fall
1.317858,0.005,-0.0862,0.0075,0.2398,-0.0735,0.1486,35.9062,23.8688,-15.7125,,0.022526999999999964,0.08667000634590954,0.09414488998741309,non_fall
1.319383,0.005,-0.0862,0.0075,0.2398,-0.0735,0.1486,36.0938,23.475,-15.9,,0.0015249999999999986,0.08667000634590954,0.09196918536626006,non_fall
1.326112,0.005,-0.0862,0.0075,0.2527,-0.098,0.1123,36.0938,23.475,-15.9,,0.006728999999999985,0.08667000634590954,0.09299266263448408,non_fall
1.328157,0.005,-0.0862,0.0075,0.2527,-0.098,0.1123,36.0938,23.475,-15.9,,0.0020450000000000745,0.08667000634590954,0.09705336837598305,non_fall
1.329428,0.0812,0.0062,-0.0404,0.2527,-0.098,0.1123,36.0938,23.475,-15.9,,0.0012710000000000221,0.09090676542480212,0.10373950560140148,non_fall
1.361987,0.0812,0.0062,-0.0404,0.2527,-0.098,0.1123,36.0938,23.475,-15.9,,0.032559000000000005,0.09090676542480212,0.11241570122194623,non_fall
1.37442,0.0812,0.0062,-0.0404,0.2527,-0.098,0.1123,36.075,23.0625,-16.0688,,0.012432999999999916,0.09090676542480212,0.12227119765274337,non_fall
1.378167,0.0812,0.0062,-0.0404,0.2527,-0.098,0.1123,36.075,23.0625,-16.0688,,0.003746999999999945,0.09090676542480212,0.1323887124467272,non_fall
1.384193,0.0812,0.0062,-0.0404,0.2356,-0.0157,0.0522,36.075,23.0625,-16.0688,,0.006026000000000087,0.09090676542480212,0.14183062107137284,non_fall
1.387038,0.2029,-0.0189,-0.0451,0.2356,-0.0157,0.0522,36.075,23.0625,-16.0688,,0.0028449999999999864,0.20870943917321993,0.14973619554469278,non_fall
1.389177,0.2029,-0.0189,-0.0451,0.2356,-0.0157,0.0522,36.075,23.0625,-16.0688,,0.002139000000000113,0.20870943917321993,0.15542009079467098,non_fall
1.426865,0.2029,-0.0189,-0.0451,0.2356,-0.0157,0.0522,36.075,23.0625,-16.0688,,0.037687999999999944,0.20870943917321993,0.15845921695668255,non_fall
1.429834,0.2029,-0.0189,-0.0451,0.2356,-0.0157,0.0522,36.075,23.0625,-16.0688,,0.0029689999999999994,0.20870943917321993,0.1587542826108506,non_fall
1.437367,0.2029,-0.0189,-0.0451,0.2356,-0.0157,0.0522,36.0938,22.575,-16.3313,,0.007533000000000012,0.20870943917321993,0.15655463974970485,non_fall
1.445466,0.2029,-0.0189,-0.0451,0.2441,-0.0581,0.0354,36.0938,22.575,-16.3313,,0.008098999999999856,0.20870943917321993,0.1524400326954626,non_fall
1.448721,0.2029,-0.0189,-0.0451,0.2441,-0.0581,0.0354,36.0938,22.575,-16.3313,,0.003255000000000008,0.20870943917321993,0.14725909806720383,non_fall
1.450151,-0.071,0.0009,-0.0142,0.2441,-0.0581,0.0354,36.0938,22.575,-16.3313,,0.0014300000000000423,0.07241167033013395,0.14203104246770318,non_fall
1.498398,-0.071,0.0009,-0.0142,0.2441,-0.0581,0.0354,36.0938,22.575,-16.3313,,0.04824699999999993,0.07241167033013395,0.1378232277278646,non_fall
1.501893,-0.071,0.0009,-0.0142,0.2441,-0.0581,0.0354,36.0938,22.575,-16.3313,,0.003495000000000026,0.07241167033013395,0.13562220927511795,non_fall
1.50881,-0.071,0.0009,-0.0142,0.2441,-0.0581,0.0354,36.0938,22.575,-16.3313,,0.006917000000000062,0.07241167033013395,0.13621730675474386,non_fall
1.511404,-0.0877,-0.1011,0.0251,0.2441,-0.0581,0.0354,36.0938,22.575,-16.3313,,0.002593999999999985,0.136170885287568,0.14011311419501654,non_fall
1.51593,-0.0877,-0.1011,0.0251,0.2441,-0.0581,0.0354,36.1688,22.1438,-16.5563,,0.00452600000000003,0.136170885287568,0.1474815375566912,non_fall
1.524679,-0.0877,-0.1011,0.0251,0.2869,-0.0322,0.0216,36.1688,22.1438,-16.5563,,0.008748999999999896,0.136170885287568,0.1581572962486062,non_fall
1.560576,-0.0877,-0.1011,0.0251,0.2869,-0.0322,0.0216,36.1688,22.1438,-16.5563,,0.03589700000000007,0.136170885287568,0.171675276942857,non_fall
1.561992,-0.0877,-0.1011,0.0251,0.2869,-0.0322,0.0216,36.1688,22.1438,-16.5563,,0.0014160000000000839,0.136170885287568,0.18734422489758557,non_fall
1.563072,-0.018,-0.258,0.0501,0.2869,-0.0322,0.0216,36.1688,22.1438,-16.5563,,0.0010799999999999699,0.26343502045096434,0.2043482812126972,non_fall
1.564499,-0.018,-0.258,0.0501,0.2869,-0.0322,0.0216,36.1688,22.1438,-16.5563,,0.001427000000000067,0.26343502045096434,0.22186498903351298,non_fall
1.572901,-0.018,-0.258,0.0501,0.2869,-0.0322,0.0216,36.15,21.6938,-17.1188,,0.00840200000000002,0.26343502045096434,0.2391858969457338,non_fall
1.58334,-0.018,-0.258,0.0501,0.3321,0.0173,0.0128,36.15,21.6938,-17.1188,,0.010438999999999865,0.26343502045096434,0.25582508375714264,non_fall
1.594537,-0.018,-0.258,0.0501,0.3321,0.0173,0.0128,36.15,21.6938,-17.1188,,0.011197000000000124,0.26343502045096434,0.2716025052352015,non_fall
1.624685,-0.0303,-0.3573,-0.0873,0.3321,0.0173,0.0128,36.15,21.6938,-17.1188,,0.03014799999999984,0.36905645909535306,0.2866921012879255,non_fall
1.626562,-0.0303,-0.3573,-0.0873,0.3321,0.0173,0.0128,36.15,21.6938,-17.1188,,0.0018770000000001286,0.36905645909535306,0.3016276854378892,non_fall
1.628544,-0.0303,-0.3573,-0.0873,0.3321,0.0173,0.0128,36.15,21.6938,-17.1188,,0.0019819999999999283,0.36905645909535306,0.3172626003770208,non_fall
1.63412,-0.0303,-0.3573,-0.0873,0.3321,0.0173,0.0128,36.1875,21.075,-17.475,,0.005576000000000025,0.36905645909535306,0.3346830656089917,non_fall
1.646023,-0.0303,-0.3573,-0.0873,0.3945,-0.0844,0.1067,36.1875,21.075,-17.475,,0.011902999999999997,0.36905645909535306,0.3550807865067129,non_fall
1.68725,-0.0303,-0.3573,-0.0873,0.3945,-0.0844,0.1067,36.1875,21.075,-17.475,,0.0412269999999999,0.36905645909535306,0.3795969791893219,non_fall
1.690652,-0.0303,-0.3573,-0.0873,0.3945,-0.0844,0.1067,36.1875,21.075,-17.475,,0.003402000000000127,0.36905645909535306,0.4091558942593667,non_fall
1.692894,-0.0303,-0.3573,-0.0873,0.3945,-0.0844,0.1067,36.1875,21.075,-17.475,,0.0022419999999998552,0.36905645909535306,0.4443098960067565,non_fall
1.694978,-0.2462,-0.2708,0.1677,0.3945,-0.0844,0.1067,36.1875,21.075,-17.475,,0.002084000000000197,0.4025796442941446,0.48511944416816494,non_fall
1.715931,-0.2462,-0.2708,0.1677,0.3945,-0.0844,0.1067,36.1875,21.075,-17.475,,0.020953,0.4025796442941446,0.5310894967250075,non_fall
1.719055,-0.2462,-0.2708,0.1677,0.3945,-0.0844,0.1067,36.2438,20.4,-18.075,,0.0031239999999999046,0.4025796442941446,0.5811786398901297,non_fall
1.7259,-0.2462,-0.2708,0.1677,0.6404,-0.2593,0.2544,36.2438,20.4,-18.075,,0.00684499999999999,0.4025796442941446,0.6338884685809769,non_fall
1.744222,-0.0599,-0.5141,0.7554,0.6404,-0.2593,0.2544,36.2438,20.4,-18.075,,0.01832199999999995,0.9157051818134481,0.6874282220892891,non_fall
1.747101,-0.0599,-0.5141,0.7554,0.6404,-0.2593,0.2544,36.2438,20.4,-18.075,,0.002879000000000076,0.9157051818134481,0.7399343935086043,non_fall
1.748859,-0.0599,-0.5141,0.7554,0.6404,-0.2593,0.2544,36.2438,20.4,-18.075,,0.0017579999999999263,0.9157051818134481,0.7897111729145432,non_fall
1.773722,-0.0599,-0.5141,0.7554,0.6404,-0.2593,0.2544,36.3188,19.575,-18.8813,,0.02486300000000008,0.9157051818134481,0.8354517098004052,non_fall
1.775954,-0.0599,-0.5141,0.7554,0.6404,-0.2593,0.2544,36.3188,19.575,-18.8813,,0.0022320000000000118,0.9157051818134481,0.876405670921281,non_fall
1.788479,-0.0599,-0.5141,0.7554,0.99,-0.4266,0.2919,36.3188,19.575,-18.8813,,0.012524999999999897,0.9157051818134481,0.9124719240133683,non_fall
1.798403,-0.0599,-0.5141,0.7554,0.99,-0.4266,0.2919,36.3188,19.575,-18.8813,,0.009924000000000044,0.9157051818134481,0.9442095051662315,non_fall
1.805322,0.152,-0.5761,0.8712,0.99,-0.4266,0.2919,36.3188,19.575,-18.8813,,0.0069190000000001195,1.0554547124344085,0.9727707094364191,non_fall
1.808339,0.152,-0.5761,0.8712,0.99,-0.4266,0.2919,36.3188,19.575,-18.8813,,0.0030169999999998254,1.0554547124344085,0.9997664061997359,non_fall
1.828559,0.152,-0.5761,0.8712,0.99,-0.4266,0.2919,36.3188,19.575,-18.8813,,0.020220000000000127,1.0554547124344085,1.0270772106855472,non_fall
1.837826,0.152,-0.5761,0.8712,0.99,-0.4266,0.2919,36.1688,18.5063,-19.8,,0.009266999999999914,1.0554547124344085,1.056627382143031,non_fall
1.845866,0.152,-0.5761,0.8712,1.1726,-0.5534,0.1256,36.1688,18.5063,-19.8,,0.008040000000000047,1.0554547124344085,1.0901425975835355,non_fall
1.865019,0.152,-0.5761,0.8712,1.1726,-0.5534,0.1256,36.1688,18.5063,-19.8,,0.019152999999999976,1.0554547124344085,1.1289172563360856,backward_fall
1.867481,0.152,-0.5761,0.8712,1.1726,-0.5534,0.1256,36.1688,18.5063,-19.8,,0.0024619999999999642,1.0554547124344085,1.1736197004643916,backward_fall
1.869392,0.4766,-0.9317,0.422,1.1726,-0.5534,0.1256,36.1688,18.5063,-19.8,,0.001910999999999996,1.1284043823027274,1.2241630645918533,backward_fall
1.894406,0.4766,-0.9317,0.422,1.1726,-0.5534,0.1256,36.1688,18.5063,-19.8,,0.02501400000000009,1.1284043823027274,1.2796647070347167,backward_fall
1.91507,0.4766,-0.9317,0.422,1.1726,-0.5534,0.1256,36.0,17.325,-20.9813,,0.020664000000000016,1.1284043823027274,1.3385083858716682,backward_fall
1.916779,0.4766,-0.9317,0.422,1.1726,-0.5534,0.1256,36.0,17.325,-20.9813,,0.0017089999999999606,1.1284043823027274,1.398510884166499,backward_fall
1.925228,0.9914,-1.4187,0.205,1.1726,-0.5534,0.1256,36.0,17.325,-20.9813,,0.008448999999999929,1.742873675858351,1.4571788254985225,backward_fall
1.927165,0.9914,-1.4187,0.205,1.2953,-0.6196,-0.2708,36.0,17.325,-20.9813,,0.0019370000000000775,1.742873675858351,1.5120230500173002,backward_fall
1.929031,0.9914,-1.4187,0.205,1.2953,-0.6196,-0.2708,36.0,17.325,-20.9813,,0.0018659999999999233,1.742873675858351,1.5608819126300852,backward_fall
1.961576,0.9914,-1.4187,0.205,1.2953,-0.6196,-0.2708,36.0,17.325,-20.9813,,0.032545000000000046,1.742873675858351,1.6021989905615328,backward_fall
1.975233,0.9914,-1.4187,0.205,1.2953,-0.6196,-0.2708,35.6063,15.9375,-22.35,,0.01365700000000003,1.742873675858351,1.6352091687446226,backward_fall
1.978593,0.9914,-1.4187,0.205,1.2953,-0.6196,-0.2708,35.6063,15.9375,-22.35,,0.0033600000000000296,1.742873675858351,1.6600060151248268,backward_fall
1.988596,0.9914,-1.4187,0.205,1.2948,-1.1322,-0.3867,35.6063,15.9375,-22.35,,0.010002999999999984,1.742873675858351,1.6774848440288581,backward_fall
1.991572,0.9914,-1.4187,0.205,1.2948,-1.1322,-0.3867,35.6063,15.9375,-22.35,,0.0029759999999998676,1.742873675858351,1.6891746122954796,backward_fall
1.992861,-0.22,-1.5456,0.0623,1.2948,-1.1322,-0.3867,35.6063,15.9375,-22.35,,0.0012890000000000956,1.5624214060233559,1.696986516541299,backward_fall
2.028133,-0.22,-1.5456,0.0623,1.2948,-1.1322,-0.3867,35.6063,15.9375,-22.35,,0.03527199999999997,1.5624214060233559,1.7029178758424002,backward_fall
2.030373,-0.22,-1.5456,0.0623,1.2948,-1.1322,-0.3867,35.6063,15.9375,-22.35,,0.0022400000000000198,1.5624214060233559,1.7087556460134201,backward_fall
2.032934,-0.22,-1.5456,0.0623,1.2948,-1.1322,-0.3867,34.7812,14.325,-24.0938,,0.0025610000000000355,1.5624214060233559,1.7158228850168527,backward_fall
2.044615,-0.22,-1.5456,0.0623,1.3039,-1.5142,-0.3129,34.7812,14.325,-24.0938,,0.01168099999999983,1.5624214060233559,1.7248028950278604,backward_fall
2.048245,-0.7189,-1.6538,0.1022,1.3039,-1.5142,-0.3129,34.7812,14.325,-24.0938,,0.003630000000000244,1.8061883871844597,1.7356612581542068,backward_fall
2.050263,-0.7189,-1.6538,0.1022,1.3039,-1.5142,-0.3129,34.7812,14.325,-24.0938,,0.0020180000000000753,1.8061883871844597,1.7476690115145985,backward_fall
2.095298,-0.7189,-1.6538,0.1022,1.3039,-1.5142,-0.3129,34.7812,14.325,-24.0938,,0.045034999999999936,1.8061883871844597,1.7595149408734074,backward_fall
2.098355,-0.7189,-1.6538,0.1022,1.3039,-1.5142,-0.3129,34.7812,14.325,-24.0938,,0.0030570000000000874,1.8061883871844597,1.7694853019940495,backward_fall
2.10546,-0.6571,-1.5856,0.3143,1.3039,-1.5142,-0.3129,34.7812,14.325,-24.0938,,0.007104999999999695,1.7449046564210893,1.7756868176277556,backward_fall
2.108989,-0.6571,-1.5856,0.3143,1.3039,-1.5142,-0.3129,34.7812,14.325,-24.0938,,0.0035289999999998933,1.7449046564210893,1.776291546328568,backward_fall
2.115823,-0.6571,-1.5856,0.3143,1.3039,-1.5142,-0.3129,33.6562,12.4313,-26.0438,,0.006834000000000007,1.7449046564210893,1.7697862164956084,backward_fall
2.125353,-0.6571,-1.5856,0.3143,1.1777,-1.5948,-0.7168,33.6562,12.4313,-26.0438,,0.00953000000000026,1.7449046564210893,1.7552108275718517,backward_fall
2.160662,-0.6571,-1.5856,0.3143,1.1777,-1.5948,-0.7168,33.6562,12.4313,-26.0438,,0.03530899999999981,1.7449046564210893,1.7323709307697073,backward_fall
2.16247,-0.6571,-1.5856,0.3143,1.1777,-1.5948,-0.7168,33.6562,12.4313,-26.0438,,0.0018080000000000318,1.7449046564210893,1.7020059990595489,backward_fall
2.167227,-1.0244,-1.3575,-0.3512,1.1777,-1.5948,-0.7168,33.6562,12.4313,-26.0438,,0.004757000000000122,1.7365319029606108,1.6658943769865469,backward_fall
2.169846,-1.0244,-1.3575,-0.3512,1.1777,-1.5948,-0.7168,33.6562,12.4313,-26.0438,,0.002619000000000149,1.7365319029606108,1.6268749877850062,backward_fall
2.174443,-1.0244,-1.3575,-0.3512,1.1777,-1.5948,-0.7168,32.0625,10.5188,-28.4625,,0.004596999999999962,1.7365319029606108,1.5887683417600738,backward_fall
2.184128,-1.0244,-1.3575,-0.3512,0.7296,-1.3894,-1.0584,32.0625,10.5188,-28.4625,,0.009684999999999722,1.7365319029606108,1.5561851846058918,backward_fall
2.204813,-1.0244,-1.3575,-0.3512,0.7296,-1.3894,-1.0584,32.0625,10.5188,-28.4625,,0.020685000000000286,1.7365319029606108,1.5342208939376398,backward_fall
2.224605,-1.1315,-0.6637,-0.7413,0.7296,-1.3894,-1.0584,32.0625,10.5188,-28.4625,,0.01979199999999981,1.5067566591855501,1.5280476726747638,backward_fall
2.229053,-1.1315,-0.6637,-0.7413,0.7296,-1.3894,-1.0584,32.0625,10.5188,-28.4625,,0.0044480000000000075,1.5067566591855501,1.542433798250006,backward_fall
2.231504,-1.1315,-0.6637,-0.7413,0.7296,-1.3894,-1.0584,32.0625,10.5188,-28.4625,,0.002451000000000203,1.5067566591855501,1.5812366847621537,backward_fall
2.234042,-1.1315,-0.6637,-0.7413,0.7296,-1.3894,-1.0584,29.9438,8.625,-30.9,,0.002537999999999929,1.5067566591855501,1.646929741979337,backward_fall
2.244654,-1.1315,-0.6637,-0.7413,1.0054,-1.4269,-0.9644,29.9438,8.625,-30.9,,0.010612000000000066,1.5067566591855501,1.7402283932421077,backward_fall
2.288404,-1.1315,-0.6637,-0.7413,1.0054,-1.4269,-0.9644,29.9438,8.625,-30.9,,0.043749999999999734,1.5067566591855501,1.8598772343852303,backward_fall
2.291102,-1.1315,-0.6637,-0.7413,1.0054,-1.4269,-0.9644,29.9438,8.625,-30.9,,0.002698000000000089,1.5067566591855501,2.0026484420654853,backward_fall
2.292852,-1.1315,-0.6637,-0.7413,1.0054,-1.4269,-0.9644,29.9438,8.625,-30.9,,0.0017499999999999183,1.5067566591855501,2.1635802443370022,backward_fall
2.294518,-2.5424,-1.4853,0.3136,1.0054,-1.4269,-0.9644,29.9438,8.625,-30.9,,0.0016660000000001673,2.9611245853560435,2.3364517868435097,backward_fall
2.316741,-2.5424,-1.4853,0.3136,1.0054,-1.4269,-0.9644,27.3188,6.8813,-33.3188,,0.022222999999999882,2.9611245853560435,2.5144491408539684,backward_fall
2.321897,-2.5424,-1.4853,0.3136,1.0054,-1.4269,-0.9644,27.3188,6.8813,-33.3188,,0.005155999999999938,2.9611245853560435,2.690938314848703,backward_fall
2.329777,-2.5424,-1.4853,0.3136,0.8062,-1.8224,-1.0142,27.3188,6.8813,-33.3188,,0.00788000000000011,2.9611245853560435,2.860243162027354,backward_fall
2.345497,-2.5424,-1.4853,0.3136,0.8062,-1.8224,-1.0142,27.3188,6.8813,-33.3188,,0.015719999999999956,2.9611245853560435,3.018337756517693,backward_fall
2.347732,-2.5424,-1.4853,0.3136,0.8062,-1.8224,-1.0142,27.3188,6.8813,-33.3188,,0.002235000000000209,2.9611245853560435,3.1633932670453935,backward_fall
2.349673,-3.0103,-0.8321,1.8041,0.8062,-1.8224,-1.0142,27.3188,6.8813,-33.3188,,0.0019409999999999705,3.606809297703442,3.2961485983993373,backward_fall
2.373198,-3.0103,-0.8321,1.8041,0.8062,-1.8224,-1.0142,23.9062,5.1562,-35.8313,,0.023524999999999796,3.606809297703442,3.420090514475609,backward_fall
2.375703,-3.0103,-0.8321,1.8041,0.8062,-1.8224,-1.0142,23.9062,5.1562,-35.8313,,0.0025050000000002015,3.606809297703442,3.541435133867068,backward_fall
2.38726,-3.0103,-0.8321,1.8041,0.9073,-2.5705,-0.736,23.9062,5.1562,-35.8313,,0.011556999999999817,3.606809297703442,3.668908274285852,backward_fall
2.390792,-3.0103,-0.8321,1.8041,0.9073,-2.5705,-0.736,23.9062,5.1562,-35.8313,,0.0035319999999998686,3.606809297703442,3.813332875026747,backward_fall
2.406133,-2.6009,-2.1517,3.0249,0.9073,-2.5705,-0.736,23.9062,5.1562,-35.8313,,0.015341000000000271,4.532605620390991,3.98704437438146,backward_fall
2.409231,-2.6009,-2.1517,3.0249,0.9073,-2.5705,-0.736,23.9062,5.1562,-35.8313,,0.003098000000000045,4.532605620390991,4.203163674950908,backward_fall
2.427138,-2.6009,-2.1517,3.0249,0.9073,-2.5705,-0.736,23.9062,5.1562,-35.8313,,0.017906999999999673,4.532605620390991,4.474763952882033,backward_fall
2.436594,-2.6009,-2.1517,3.0249,0.9073,-2.5705,-0.736,19.7063,3.2063,-38.1,,0.009456000000000131,4.532605620390991,4.813980412682962,backward_fall
2.446298,-2.6009,-2.1517,3.0249,1.2509,-3.7578,-1.2044,19.7063,3.2063,-38.1,,0.009704000000000157,4.532605620390991,5.231133473917818,backward_fall
2.466941,-2.6009,-2.1517,3.0249,1.2509,-3.7578,-1.2044,19.7063,3.2063,-38.1,,0.020642999999999745,4.532605620390991,5.733953884170249,backward_fall
2.468565,-2.6009,-2.1517,3.0249,1.2509,-3.7578,-1.2044,19.7063,3.2063,-38.1,,0.0016240000000000698,4.532605620390991,6.326992914801435,backward_fall
2.469692,1.5076,-6.0594,7.1464,1.2509,-3.7578,-1.2044,19.7063,3.2063,-38.1,,0.0011270000000003222,9.490006273970529,7.011256885736442,backward_fall
2.494126,1.5076,-6.0594,7.1464,1.2509,-3.7578,-1.2044,19.7063,3.2063,-38.1,,0.024433999999999845,9.490006273970529,7.784027246267939,backward_fall
2.514778,1.5076,-6.0594,7.1464,1.2509,-3.7578,-1.2044,14.175,1.1625,-39.7688,,0.020652000000000115,9.490006273970529,8.638753903334702,backward_fall
2.516636,1.5076,-6.0594,7.1464,1.2509,-3.7578,-1.2044,14.175,1.1625,-39.7688,,0.0018579999999999153,9.490006273970529,9.564898813832945,backward_fall
2.529533,1.5076,-6.0594,7.1464,0.7272,-3.8467,-2.5372,14.175,1.1625,-39.7688,,0.012896999999999714,9.490006273970529,10.547682572191361,backward_fall
2.531393,1.5076,-6.0594,7.1464,0.7272,-3.8467,-2.5372,14.175,1.1625,-39.7688,,0.0018600000000001948,9.490006273970529,11.567803231030346,backward_fall
2.532367,6.252,-11.7655,5.2196,0.7272,-3.8467,-2.5372,14.175,1.1625,-39.7688,,0.0009739999999998084,14.30939266391135,12.601276820943227,backward_fall
2.561195,6.252,-11.7655,5.2196,0.7272,-3.8467,-2.5372,14.175,1.1625,-39.7688,,0.028828000000000298,14.30939266391135,13.619551627434715,backward_fall
2.573742,6.252,-11.7655,5.2196,0.7272,-3.8467,-2.5372,8.1188,-1.0688,-40.5938,,0.012547000000000086,14.30939266391135,14.589997436485005,backward_fall
2.576744,6.252,-11.7655,5.2196,0.7272,-3.8467,-2.5372,8.1188,-1.0688,-40.5938,,0.003001999999999949,14.30939266391135,15.476827554337676,backward_fall
2.588428,6.252,-11.7655,5.2196,-1.1087,-2.195,-3.1876,8.1188,-1.0688,-40.5938,,0.011683999999999806,14.30939266391135,16.24250807789416,backward_fall
2.592199,4.2732,-16.1646,1.6868,-1.1087,-2.195,-3.1876,8.1188,-1.0688,-40.5938,,0.003770999999999969,16.804756042263747,16.849715559171997,backward_fall
2.595237,4.2732,-16.1646,1.6868,-1.1087,-2.195,-3.1876,8.1188,-1.0688,-40.5938,,0.003038000000000096,16.804756042263747,17.263868567745174,backward_fall
2.628113,4.2732,-16.1646,1.6868,-1.1087,-2.195,-3.1876,8.1188,-1.0688,-40.5938,,0.032875999999999905,16.804756042263747,17.456168353060256,backward_fall
2.63126,4.2732,-16.1646,1.6868,-1.1087,-2.195,-3.1876,8.1188,-1.0688,-40.5938,,0.003147000000000233,16.804756042263747,17.406972408246794,backward_fall
2.636611,4.2732,-16.1646,1.6868,-1.1087,-2.195,-3.1876,2.325,-2.85,-41.0438,,0.005350999999999662,16.804756042263747,17.109227251888846,backward_fall
2.648396,4.2732,-16.1646,1.6868,-2.5334,-1.0268,-1.8923,2.325,-2.85,-41.0438,,0.011785000000000156,16.804756042263747,16.571609670684595,backward_fall
2.651684,4.2732,-16.1646,1.6868,-2.5334,-1.0268,-1.8923,2.325,-2.85,-41.0438,,0.0032879999999999576,16.804756042263747,15.820961281858699,backward_fall
2.65437,-5.3906,-17.4671,0.3393,-2.5334,-1.0268,-1.8923,2.325,-2.85,-41.0438,,0.0026860000000001882,18.283141832300046,14.90355468636953,backward_fall
2.694608,-5.3906,-17.4671,0.3393,-2.5334,-1.0268,-1.8923,2.325,-2.85,-41.0438,,0.040237999999999996,18.283141832300046,13.884727002255618,backward_fall
2.697302,-5.3906,-17.4671,0.3393,-2.5334,-1.0268,-1.8923,2.325,-2.85,-41.0438,,0.002693999999999974,18.283141832300046,12.846500217354205,backward_fall
2.704611,-6.8441,-6.2776,2.2475,-2.5334,-1.0268,-1.8923,2.325,-2.85,-41.0438,,0.007308999999999788,9.55516733605435,11.88301882758428,backward_fall
2.707233,-6.8441,-6.2776,2.2475,-2.5334,-1.0268,-1.8923,2.325,-2.85,-41.0438,,0.0026220000000001242,9.55516733605435,11.093972429982363,backward_fall
2.714038,-6.8441,-6.2776,2.2475,-2.5334,-1.0268,-1.8923,-2.9062,-3.825,-41.1188,,0.00680499999999995,9.55516733605435,10.57654752579198,backward_fall
2.726076,-6.8441,-6.2776,2.2475,-2.4842,2.4788,-1.1718,-2.9062,-3.825,-41.1188,,0.012037999999999993,9.55516733605435,10.416726709621537,backward_fall
2.759965,-6.8441,-6.2776,2.2475,-2.4842,2.4788,-1.1718,-2.9062,-3.825,-41.1188,,0.033888999999999836,9.55516733605435,10.680838475530553,backward_fall
2.761948,-6.8441,-6.2776,2.2475,-2.4842,2.4788,-1.1718,-2.9062,-3.825,-41.1188,,0.001983000000000068,9.55516733605435,11.408191048881624,backward_fall
2.766839,-8.5176,-1.1771,-10.2074,-2.4842,2.4788,-1.1718,-2.9062,-3.825,-41.1188,,0.004891000000000201,13.346388610032303,12.60548907415015,backward_fall
2.771179,-8.5176,-1.1771,-10.2074,-2.4842,2.4788,-1.1718,-2.9062,-3.825,-41.1188,,0.0043400000000000105,13.346388610032303,14.243589968558299,backward_fall
2.782401,-8.5176,-1.1771,-10.2074,-2.4842,2.4788,-1.1718,-6.4125,-3.3375,-41.3063,,0.011222000000000065,13.346388610032303,16.257024883162384,backward_fall
2.78597,-8.5176,-1.1771,-10.2074,-1.882,3.2082,3.6628,-6.4125,-3.3375,-41.3063,,0.0035689999999997113,13.346388610032303,18.546589708018264,backward_fall
2.816003,-8.5176,-1.1771,-10.2074,-1.882,3.2082,3.6628,-6.4125,-3.3375,-41.3063,,0.030032999999999976,13.346388610032303,20.985175220570138,backward_fall
2.81725,-8.5176,-1.1771,-10.2074,-1.882,3.2082,3.6628,-6.4125,-3.3375,-41.3063,,0.0012470000000002202,13.346388610032303,23.426773746544118,backward_fall
2.825383,19.6453,24.556,16.3478,-1.882,3.2082,3.6628,-6.4125,-3.3375,-41.3063,,0.008132999999999946,35.4427074717776,25.71818656139709,backward_fall
2.826928,19.6453,24.556,16.3478,-1.882,3.2082,3.6628,-6.4125,-3.3375,-41.3063,,0.0015450000000001296,35.4427074717776,27.712369220497802,backward_fall
2.83335,19.6453,24.556,16.3478,-1.882,3.2082,3.6628,-8.9625,-2.8125,-41.3438,,0.006421999999999706,35.4427074717776,29.281782229434764,backward_fall
2.845605,19.6453,24.556,16.3478,3.2216,-1.7976,-4.3709,-8.9625,-2.8125,-41.3438,,0.012255000000000127,35.4427074717776,30.329870266372982,backward_fall
2.886137,19.6453,24.556,16.3478,3.2216,-1.7976,-4.3709,-8.9625,-2.8125,-41.3438,,0.040532000000000235,35.4427074717776,30.79904788341441,backward_fall
2.887746,19.6453,24.556,16.3478,3.2216,-1.7976,-4.3709,-8.9625,-2.8125,-41.3438,,0.0016089999999997495,35.4427074717776,30.674204050956384,backward_fall
2.889079,19.6453,24.556,16.3478,3.2216,-1.7976,-4.3709,-8.9625,-2.8125,-41.3438,,0.0013330000000002507,35.4427074717776,29.981492950068517,backward_fall
2.890238,19.2824,6.9425,-3.3465,3.2216,-1.7976,-4.3709,-8.9625,-2.8125,-41.3438,,0.00115899999999991,20.765556054678623,28.7828874952177,backward_fall
2.916906,19.2824,6.9425,-3.3465,3.2216,-1.7976,-4.3709,-11.25,-3.2625,-40.7438,,0.026667999999999914,20.765556054678623,27.167575282675557,backward_fall
2.921727,19.2824,6.9425,-3.3465,3.2216,-1.7976,-4.3709,-11.25,-3.2625,-40.7438,,0.004821000000000186,20.765556054678623,25.241687027302994,backward_fall
2.92903,19.2824,6.9425,-3.3465,1.5025,-1.9493,-4.1874,-11.25,-3.2625,-40.7438,,0.007302999999999837,20.765556054678623,23.117927663940545,backward_fall
2.947068,19.2824,6.9425,-3.3465,1.5025,-1.9493,-4.1874,-11.25,-3.2625,-40.7438,,0.018037999999999776,20.765556054678623,20.906388705825183,backward_fall
2.950234,19.2824,6.9425,-3.3465,1.5025,-1.9493,-4.1874,-11.25,-3.2625,-40.7438,,0.003166000000000224,20.765556054678623,18.70731128838182,backward_fall
2.951896,5.8554,-9.9035,5.747,1.5025,-1.9493,-4.1874,-11.25,-3.2625,-40.7438,,0.0016620000000000523,12.860522167081708,16.606083282387907,backward_fall
2.973585,5.8554,-9.9035,5.747,1.5025,-1.9493,-4.1874,-13.1063,-4.2188,-39.9188,,0.021688999999999847,12.860522167081708,14.670435800297176,backward_fall
2.976348,5.8554,-9.9035,5.747,1.5025,-1.9493,-4.1874,-13.1063,-4.2188,-39.9188,,0.002763000000000293,12.860522167081708,12.949639035177983,backward_fall
2.987243,5.8554,-9.9035,5.747,1.7829,-1.4215,-4.4406,-13.1063,-4.2188,-39.9188,,0.010894999999999655,12.860522167081708,11.47538139908034,backward_fall
3.00542,5.8554,-9.9035,5.747,1.7829,-1.4215,-4.4406,-13.1063,-4.2188,-39.9188,,0.01817700000000011,12.860522167081708,10.263883586278595,backward_fall
3.007442,5.8554,-9.9035,5.747,1.7829,-1.4215,-4.4406,-13.1063,-4.2188,-39.9188,,0.0020220000000001903,12.860522167081708,9.318686948324395,backward_fall
3.009161,-1.5353,-6.2722,4.9506,1.7829,-1.4215,-4.4406,-13.1063,-4.2188,-39.9188,,0.001719000000000026,8.136711822966326,8.633546539949034,backward_fall
3.027691,-1.5353,-6.2722,4.9506,1.7829,-1.4215,-4.4406,-13.1063,-4.2188,-39.9188,,0.018529999999999713,8.136711822966326,8.194986327959763,backward_fall
3.03333,-1.5353,-6.2722,4.9506,1.7829,-1.4215,-4.4406,-13.2,-6.0375,-39.15,,0.00563899999999995,8.136711822966326,7.984285695431978,backward_fall
3.045638,-1.5353,-6.2722,4.9506,-0.2443,0.2969,-5.2741,-13.2,-6.0375,-39.15,,0.012307999999999986,8.136711822966326,7.9788673968905535,backward_fall
3.050208,-1.5353,-6.2722,4.9506,-0.2443,0.2969,-5.2741,-13.2,-6.0375,-39.15,,0.004570000000000185,8.136711822966326,8.153182039099958,backward_fall
3.065587,-7.8182,-3.537,-1.2212,-0.2443,0.2969,-5.2741,-13.2,-6.0375,-39.15,,0.01537899999999981,8.667522695672622,8.479235448607035,backward_fall
3.069489,-7.8182,-3.537,-1.2212,-0.2443,0.2969,-5.2741,-13.2,-6.0375,-39.15,,0.003902000000000072,8.667522695672622,8.92692233505425,backward_fall
3.096778,-7.8182,-3.537,-1.2212,-0.2443,0.2969,-5.2741,-13.2,-6.0375,-39.15,,0.02728900000000012,8.667522695672622,9.464339170716343,backward_fall
3.116002,-7.8182,-3.537,-1.2212,-0.2443,0.2969,-5.2741,-11.8875,-7.5563,-39.0938,,0.019223999999999908,8.667522695672622,10.05825246440212,backward_fall
3.117976,-7.8182,-3.537,-1.2212,-0.2443,0.2969,-5.2741,-11.8875,-7.5563,-39.0938,,0.0019740000000001423,8.667522695672622,10.674882521008312,backward_fall
3.128634,-7.8182,-3.537,-1.2212,-1.2341,-2.1122,-3.5488,-11.8875,-7.5563,-39.0938,,0.010657999999999834,8.667522695672622,11.281108259894687,backward_fall
3.130645,-12.1301,-6.5061,3.8243,-1.2341,-2.1122,-3.5488,-11.8875,-7.5563,-39.0938,,0.002010999999999985,14.286144816219664,11.84608974316685,backward_fall
3.132477,-12.1301,-6.5061,3.8243,-1.2341,-2.1122,-3.5488,-11.8875,-7.5563,-39.0938,,0.0018320000000002779,14.286144816219664,12.343148924339157,backward_fall
3.161008,-12.1301,-6.5061,3.8243,-1.2341,-2.1122,-3.5488,-11.8875,-7.5563,-39.0938,,0.02853099999999964,14.286144816219664,12.751597153009998,backward_fall
3.173714,-12.1301,-6.5061,3.8243,-1.2341,-2.1122,-3.5488,-10.4625,-8.9813,-39.0938,,0.012706000000000106,14.286144816219664,13.058129689349245,backward_fall
3.177261,-12.1301,-6.5061,3.8243,-1.2341,-2.1122,-3.5488,-10.4625,-8.9813,-39.0938,,0.003547000000000189,14.286144816219664,13.257467030726271,backward_fall
3.187101,-12.1301,-6.5061,3.8243,-1.5988,-0.5716,-2.3667,-10.4625,-8.9813,-39.0938,,0.009840000000000071,14.286144816219664,13.352078808227875,backward_fall
3.191346,-12.1301,-6.5061,3.8243,-1.5988,-0.5716,-2.3667,-10.4625,-8.9813,-39.0938,,0.00424499999999961,14.286144816219664,13.351010055610477,backward_fall
3.19393,-8.2085,-6.3753,4.736,-1.5988,-0.5716,-2.3667,-10.4625,-8.9813,-39.0938,,0.0025840000000001417,11.421629408276212,13.267996170186478,backward_fall
3.227453,-8.2085,-6.3753,4.736,-1.5988,-0.5716,-2.3667,-10.4625,-8.9813,-39.0938,,0.03352300000000019,11.421629408276212,13.119184932113571,backward_fall
3.230501,-8.2085,-6.3753,4.736,-1.5988,-0.5716,-2.3667,-10.4625,-8.9813,-39.0938,,0.0030479999999997176,11.421629408276212,12.920862642843069,backward_fall
3.237491,-8.2085,-6.3753,4.736,-1.5988,-0.5716,-2.3667,-8.7563,-10.9688,-39.0563,,0.006990000000000052,11.421629408276212,12.687578309843788,backward_fall
3.248013,-8.2085,-6.3753,4.736,0.3079,1.7388,-0.7823,-8.7563,-10.9688,-39.0563,,0.01052199999999992,11.421629408276212,12.430964958719143,backward_fall
3.251238,-8.2085,-6.3753,4.736,0.3079,1.7388,-0.7823,-8.7563,-10.9688,-39.0563,,0.0032250000000000334,11.421629408276212,12.15939907006877,backward_fall
3.252817,-7.9195,-7.4112,6.2719,0.3079,1.7388,-0.7823,-8.7563,-10.9688,-39.0563,,0.001578999999999997,12.529209683774951,11.878465062902723,backward_fall
3.294208,-7.9195,-7.4112,6.2719,0.3079,1.7388,-0.7823,-8.7563,-10.9688,-39.0563,,0.041390999999999956,12.529209683774951,11.592039058904103,backward_fall
3.296109,-7.9195,-7.4112,6.2719,0.3079,1.7388,-0.7823,-8.7563,-10.9688,-39.0563,,0.0019010000000001526,12.529209683774951,11.303699361328292,backward_fall
3.30662,-7.9195,-7.4112,6.2719,0.3079,1.7388,-0.7823,-8.7563,-10.9688,-39.0563,,0.010511000000000159,12.529209683774951,11.018129374599594,backward_fall
3.30883,-9.0736,-5.4193,0.6836,0.3079,1.7388,-0.7823,-8.7563,-10.9688,-39.0563,,0.0022099999999998232,10.590861079723405,10.742210272691116,backward_fall
3.313382,-9.0736,-5.4193,0.6836,0.3079,1.7388,-0.7823,-7.7438,-14.4938,-38.7938,,0.0045519999999998895,10.590861079723405,10.485591782124793,backward_fall
3.324582,-9.0736,-5.4193,0.6836,0.2319,1.4699,0.3132,-7.7438,-14.4938,-38.7938,,0.011200000000000099,10.590861079723405,10.260645161716045,backward_fall
3.360988,-9.0736,-5.4193,0.6836,0.2319,1.4699,0.3132,-7.7438,-14.4938,-38.7938,,0.03640599999999994,10.590861079723405,10.081803961099544,backward_fall
3.362836,-9.0736,-5.4193,0.6836,0.2319,1.4699,0.3132,-7.7438,-14.4938,-38.7938,,0.0018480000000002939,10.590861079723405,9.964366393063353,backward_fall
3.365672,-9.0736,-5.4193,0.6836,0.2319,1.4699,0.3132,-7.7438,-14.4938,-38.7938,,0.0028359999999998386,10.590861079723405,9.922878398748013,backward_fall
3.367193,-7.8238,-4.6236,2.0725,0.2319,1.4699,0.3132,-7.7438,-14.4938,-38.7938,,0.0015209999999998836,9.321200547676249,9.969260958291153,backward_fall
3.373885,-7.8238,-4.6236,2.0725,0.2319,1.4699,0.3132,-6.7125,-18.0,-38.3438,,0.006692000000000142,9.321200547676249,10.110897861432933,backward_fall
3.384905,-7.8238,-4.6236,2.0725,-0.0144,2.1045,1.5375,-6.7125,-18.0,-38.3438,,0.011019999999999808,9.321200547676249,10.34894732126003,backward_fall
3.429529,-7.8238,-4.6236,2.0725,-0.0144,2.1045,1.5375,-6.7125,-18.0,-38.3438,,0.04462400000000022,9.321200547676249,10.677156265475844,backward_fall
3.431039,-7.8238,-4.6236,2.0725,-0.0144,2.1045,1.5375,-6.7125,-18.0,-38.3438,,0.0015100000000001224,9.321200547676249,11.08142028272292,backward_fall
3.432257,-7.8238,-4.6236,2.0725,-0.0144,2.1045,1.5375,-6.7125,-18.0,-38.3438,,0.0012179999999997193,9.321200547676249,11.540242501355552,backward_fall
3.433364,-12.0203,-6.5771,2.2866,-0.0144,2.1045,1.5375,-6.7125,-18.0,-38.3438,,0.0011070000000001912,13.891522452920704,12.026109779071247,backward_fall
3.435229,-12.0203,-6.5771,2.2866,-0.0144,2.1045,1.5375,-4.6313,-20.1188,-38.1375,,0.0018650000000000055,13.891522452920704,12.507642622749215,backward_fall
3.448417,-12.0203,-6.5771,2.2866,-0.4612,3.0663,3.5251,-4.6313,-20.1188,-38.1375,,0.013187999999999978,13.891522452920704,12.952227607950944,backward_fall
3.486399,-12.0203,-6.5771,2.2866,-0.4612,3.0663,3.5251,-4.6313,-20.1188,-38.1375,,0.03798199999999996,13.891522452920704,13.328766172771697,backward_fall
3.491535,-12.0203,-6.5771,2.2866,-0.4612,3.0663,3.5251,-4.6313,-20.1188,-38.1375,,0.005135999999999807,13.891522452920704,13.610200561647122,backward_fall
3.494594,-12.0203,-6.5771,2.2866,-0.4612,3.0663,3.5251,-4.6313,-20.1188,-38.1375,,0.003059000000000367,13.891522452920704,13.775575065305594,backward_fall
3.497271,-11.3605,-7.6652,-1.2067,-0.4612,3.0663,3.5251,-4.6313,-20.1188,-38.1375,,0.0026769999999998184,13.75762974425464,13.811498959777165,backward_fall
3.514669,-11.3605,-7.6652,-1.2067,-0.4612,3.0663,3.5251,-4.6313,-20.1188,-38.1375,,0.017398000000000025,13.75762974425464,13.712958683150298,backward_fall
3.518647,-11.3605,-7.6652,-1.2067,-0.4612,3.0663,3.5251,-1.6313,-21.3,-38.0438,,0.003978000000000037,13.75762974425464,13.483474881200273,backward_fall
3.527955,-11.3605,-7.6652,-1.2067,-1.317,2.5974,4.2696,-1.6313,-21.3,-38.0438,,0.009307999999999872,13.75762974425464,13.13462477333592,backward_fall
3.5464,-11.3605,-7.6652,-1.2067,-1.317,2.5974,4.2696,-1.6313,-21.3,-38.0438,,0.018445000000000267,13.75762974425464,12.68496644890933,backward_fall
3.55122,-11.3605,-7.6652,-1.2067,-1.317,2.5974,4.2696,-1.6313,-21.3,-38.0438,,0.004819999999999602,13.75762974425464,12.15842630965829,backward_fall
3.553847,-5.2961,-7.285,-3.0988,-1.317,2.5974,4.2696,-1.6313,-21.3,-38.0438,,0.002627000000000379,9.524833943434395,11.5822594632324,backward_fall
3.57722,-5.2961,-7.285,-3.0988,-1.317,2.5974,4.2696,-1.6313,-21.3,-38.0438,,0.023372999999999866,9.524833943434395,10.984766381465368,backward_fall
3.580795,-5.2961,-7.285,-3.0988,-1.317,2.5974,4.2696,1.3125,-21.0188,-38.3063,,0.003575000000000106,9.524833943434395,10.393017903638519,backward_fall
3.588754,-5.2961,-7.285,-3.0988,-1.8678,2.244,3.7895,1.3125,-21.0188,-38.3063,,0.00795900000000005,9.524833943434395,9.830854858433378,backward_fall
3.611813,-5.2961,-7.285,-3.0988,-1.8678,2.244,3.7895,1.3125,-21.0188,-38.3063,,0.02305899999999994,9.524833943434395,9.317364756459693,backward_fall
3.615234,-5.2961,-7.285,-3.0988,-1.8678,2.244,3.7895,1.3125,-21.0188,-38.3063,,0.0034209999999998963,9.524833943434395,8.865928714512291,backward_fall
3.617093,-1.3313,-6.7305,-3.6714,-1.8678,2.244,3.7895,1.3125,-21.0188,-38.3063,,0.001859000000000055,7.781463095074088,8.483835132141378,backward_fall
3.630866,-1.3313,-6.7305,-3.6714,-1.8678,2.244,3.7895,1.3125,-21.0188,-38.3063,,0.013773000000000035,7.781463095074088,8.172405714732719,backward_fall
3.634082,-1.3313,-6.7305,-3.6714,-1.8678,2.244,3.7895,3.975,-20.3813,-38.3625,,0.0032159999999996636,7.781463095074088,7.927566069050025,backward_fall
3.646582,-1.3313,-6.7305,-3.6714,-2.3494,1.9872,2.7844,3.975,-20.3813,-38.3625,,0.012500000000000178,7.781463095074088,7.740787770404667,backward_fall
3.667686,-1.3313,-6.7305,-3.6714,-2.3494,1.9872,2.7844,3.975,-20.3813,-38.3625,,0.02110399999999979,7.781463095074088,7.600311151835739,backward_fall
3.67196,-1.3313,-6.7305,-3.6714,-2.3494,1.9872,2.7844,3.975,-20.3813,-38.3625,,0.004274000000000111,7.781463095074088,7.4925319314857015,backward_fall
3.674112,4.0074,-6.0881,-2.187,-2.3494,1.9872,2.7844,3.975,-20.3813,-38.3625,,0.002152000000000154,7.609677087104288,7.4034165506817615,backward_fall
3.697387,4.0074,-6.0881,-2.187,-2.3494,1.9872,2.7844,3.975,-20.3813,-38.3625,,0.023274999999999935,7.609677087104288,7.319810561326069,backward_fall
3.717275,4.0074,-6.0881,-2.187,-2.3494,1.9872,2.7844,6.8063,-19.5563,-38.4563,,0.019887999999999906,7.609677087104288,7.230520267416705,backward_fall
3.718613,4.0074,-6.0881,-2.187,-2.3494,1.9872,2.7844,6.8063,-19.5563,-38.4563,,0.0013380000000000614,7.609677087104288,7.127074425872005,backward_fall
3.726939,4.0074,-6.0881,-2.187,-1.9633,1.3012,2.09,6.8063,-19.5563,-38.4563,,0.008325999999999834,7.609677087104288,7.004106448178854,backward_fall
3.728712,4.0074,-6.0881,-2.187,-1.9633,1.3012,2.09,6.8063,-19.5563,-38.4563,,0.0017730000000000246,7.609677087104288,6.859338478483127,backward_fall
3.729479,4.9313,-3.0945,0.3306,-1.9633,1.3012,2.09,6.8063,-19.5563,-38.4563,,0.0007670000000001842,5.831204532512987,6.693198870849416,backward_fall
3.761205,4.9313,-3.0945,0.3306,-1.9633,1.3012,2.09,6.8063,-19.5563,-38.4563,,0.03172599999999992,5.831204532512987,6.508160870967781,backward_fall
3.774335,4.9313,-3.0945,0.3306,-1.9633,1.3012,2.09,6.8063,-19.5563,-38.4563,,0.013130000000000308,5.831204532512987,6.30793764312621,backward_fall
3.775894,4.9313,-3.0945,0.3306,-1.9633,1.3012,2.09,9.5625,-18.4875,-38.4563,,0.001558999999999866,5.831204532512987,6.096684786995744,backward_fall
3.790956,4.9313,-3.0945,0.3306,-1.4734,0.8452,1.4857,9.5625,-18.4875,-38.4563,,0.015061999999999909,5.831204532512987,5.87833617900309,backward_fall
3.792882,4.9313,-3.0945,0.3306,-1.4734,0.8452,1.4857,9.5625,-18.4875,-38.4563,,0.0019260000000000943,5.831204532512987,5.656147078367615,backward_fall
3.793856,4.1503,-1.3957,2.4694,-1.4734,0.8452,1.4857,9.5625,-18.4875,-38.4563,,0.0009739999999998084,5.027017499472227,5.43246637019211,backward_fall
3.828228,4.1503,-1.3957,2.4694,-1.4734,0.8452,1.4857,9.5625,-18.4875,-38.4563,,0.03437200000000029,5.027017499472227,5.208723999370995,backward_fall
3.830146,4.1503,-1.3957,2.4694,-1.4734,0.8452,1.4857,9.5625,-18.4875,-38.4563,,0.0019179999999998643,5.027017499472227,4.9855992456230265,backward_fall
3.84049,4.1503,-1.3957,2.4694,-1.4734,0.8452,1.4857,11.775,-17.1,-38.325,,0.010343999999999909,5.027017499472227,4.763320717004061,backward_fall
3.847867,4.1503,-1.3957,2.4694,-0.8734,0.6916,1.2913,11.775,-17.1,-38.325,,0.007376999999999967,5.027017499472227,4.542034460553716,backward_fall
3.851252,2.1915,-0.1982,3.5121,-0.8734,0.6916,1.2913,11.775,-17.1,-38.325,,0.0033850000000001934,4.144490547703059,4.322167696972328,backward_fall
3.854028,2.1915,-0.1982,3.5121,-0.8734,0.6916,1.2913,11.775,-17.1,-38.325,,0.0027759999999998897,4.144490547703059,4.104720537216195,backward_fall
3.898698,2.1915,-0.1982,3.5121,-0.8734,0.6916,1.2913,11.775,-17.1,-38.325,,0.04466999999999999,4.144490547703059,3.891435750516494,non_fall
3.902339,2.1915,-0.1982,3.5121,-0.8734,0.6916,1.2913,11.775,-17.1,-38.325,,0.0036410000000000053,4.144490547703059,3.6848175125402682,non_fall
3.907998,2.1915,-0.1982,3.5121,-0.8734,0.6916,1.2913,11.775,-17.1,-38.325,,0.005659000000000081,4.144490547703059,3.4879880364476437,non_fall
3.910514,1.8093,0.7683,1.8625,-0.8734,0.6916,1.2913,11.775,-17.1,-38.325,,0.0025159999999999627,2.7079065031865484,3.3043911467763043,non_fall
3.915518,1.8093,0.7683,1.8625,-0.8734,0.6916,1.2913,13.6688,-15.4688,-38.325,,0.0050040000000000084,2.7079065031865484,3.137380909835694,non_fall
3.92922,1.8093,0.7683,1.8625,-0.5886,0.5457,0.8684,13.6688,-15.4688,-38.325,,0.013701999999999881,2.7079065031865484,2.989764910322765,non_fall
3.938943,1.8093,0.7683,1.8625,-0.5886,0.5457,0.8684,13.6688,-15.4688,-38.325,,0.009723000000000148,2.7079065031865484,2.8633873261570364,non_fall
3.961372,1.8093,0.7683,1.8625,-0.5886,0.5457,0.8684,13.6688,-15.4688,-38.325,,0.02242899999999981,2.7079065031865484,2.758825292324462,non_fall
3.966307,0.8458,0.8961,2.2615,-0.5886,0.5457,0.8684,13.6688,-15.4688,-38.325,,0.004935000000000134,2.5754135784374514,2.675241105024382,non_fall
3.971367,0.8458,0.8961,2.2615,-0.5886,0.5457,0.8684,13.6688,-15.4688,-38.325,,0.005059999999999842,2.5754135784374514,2.6103999062355303,non_fall
3.975429,0.8458,0.8961,2.2615,-0.5886,0.5457,0.8684,15.2438,-13.9875,-38.5312,,0.004062000000000232,2.5754135784374514,2.5608380969465854,non_fall
3.985672,0.8458,0.8961,2.2615,-0.1757,0.4187,0.7675,15.2438,-13.9875,-38.5312,,0.010243000000000002,2.5754135784374514,2.5221524095593257,non_fall
4.027045,0.8458,0.8961,2.2615,-0.1757,0.4187,0.7675,15.2438,-13.9875,-38.5312,,0.041373000000000104,2.5754135784374514,2.4893706002260867,non_fall
4.030059,0.8458,0.8961,2.2615,-0.1757,0.4187,0.7675,15.2438,-13.9875,-38.5312,,0.003013999999999406,2.5754135784374514,2.457360778317164,non_fall
4.031822,0.8458,0.8961,2.2615,-0.1757,0.4187,0.7675,15.2438,-13.9875,-38.5312,,0.0017630000000004031,2.5754135784374514,2.4212374883787766,non_fall
4.033185,1.1438,1.6618,1.0573,-0.1757,0.4187,0.7675,15.2438,-13.9875,-38.5312,,0.001362999999999559,2.2776612939592225,2.3767286545244306,non_fall
4.039038,1.1438,1.6618,1.0573,-0.1757,0.4187,0.7675,16.6313,-12.5813,-38.8125,,0.005853000000000108,2.2776612939592225,2.320477072931462,non_fall
4.047424,1.1438,1.6618,1.0573,-0.1612,0.563,0.6366,16.6313,-12.5813,-38.8125,,0.00838600000000067,2.2776612939592225,2.2502602512024428,non_fall
4.050186,1.1438,1.6618,1.0573,-0.1612,0.563,0.6366,16.6313,-12.5813,-38.8125,,0.002761999999999709,2.2776612939592225,2.165119321501204,non_fall
4.089585,1.1438,1.6618,1.0573,-0.1612,0.563,0.6366,16.6313,-12.5813,-38.8125,,0.03939899999999952,2.2776612939592225,2.0653903719667204,non_fall
4.093646,1.1438,1.6618,1.0573,-0.1612,0.563,0.6366,16.6313,-12.5813,-38.8125,,0.004061000000000092,2.2776612939592225,1.9526332988674302,non_fall
4.095836,0.9155,1.1209,0.415,-0.1612,0.563,0.6366,16.6313,-12.5813,-38.8125,,0.0021900000000005804,1.505583627700567,1.8294596002966281,non_fall
4.114578,0.9155,1.1209,0.415,-0.1612,0.563,0.6366,17.7188,-11.4375,-38.8875,,0.018741999999999592,1.505583627700567,1.699273438211606,non_fall
4.120438,0.9155,1.1209,0.415,-0.1612,0.563,0.6366,17.7188,-11.4375,-38.8875,,0.005860000000000198,1.505583627700567,1.565954819550314,non_fall
4.12737,0.9155,1.1209,0.415,0.0222,0.2517,0.6018,17.7188,-11.4375,-38.8875,,0.006931999999999938,1.505583627700567,1.4335207539794483,non_fall
4.14789,0.9155,1.1209,0.415,0.0222,0.2517,0.6018,17.7188,-11.4375,-38.8875,,0.020520000000000316,1.505583627700567,1.3057955601570375,non_fall
4.151536,0.9155,1.1209,0.415,0.0222,0.2517,0.6018,17.7188,-11.4375,-38.8875,,0.003645999999999816,1.505583627700567,1.1861113646783328,non_fall
4.153805,0.4261,0.4934,0.0688,0.0222,0.2517,0.6018,17.7188,-11.4375,-38.8875,,0.0022690000000000765,0.6555442090355157,1.0770550492533042,non_fall
4.175737,0.4261,0.4934,0.0688,0.0222,0.2517,0.6018,18.7125,-10.6875,-38.8688,,0.02193199999999962,0.6555442090355157,0.9802831138643706,non_fall
4.181294,0.4261,0.4934,0.0688,0.0222,0.2517,0.6018,18.7125,-10.6875,-38.8688,,0.005557000000000478,0.6555442090355157,0.8964347882961923,non_fall
4.188262,0.4261,0.4934,0.0688,-0.2,0.2485,0.4129,18.7125,-10.6875,-38.8688,,0.006967999999999641,0.6555442090355157,0.8251737736136544,non_fall
4.208821,0.4261,0.4934,0.0688,-0.2,0.2485,0.4129,18.7125,-10.6875,-38.8688,,0.020559000000000438,0.6555442090355157,0.7653730232541788,non_fall
4.212748,0.4261,0.4934,0.0688,-0.2,0.2485,0.4129,18.7125,-10.6875,-38.8688,,0.003927000000000014,0.6555442090355157,0.7154294882934065,non_fall
4.215772,0.6906,0.1231,-0.564,-0.2,0.2485,0.4129,18.7125,-10.6875,-38.8688,,0.0030239999999999156,0.9000988667918652,0.6736672536127359,non_fall
4.229598,0.6906,0.1231,-0.564,-0.2,0.2485,0.4129,18.7125,-10.6875,-38.8688,,0.013825999999999894,0.9000988667918652,0.6387658317096878,non_fall
4.238525,0.6906,0.1231,-0.564,-0.2,0.2485,0.4129,19.4625,-10.35,-38.7,,0.008926999999999907,0.9000988667918652,0.6101395745955155,non_fall
4.249647,0.6906,0.1231,-0.564,-0.2791,0.6117,0.5565,19.4625,-10.35,-38.7,,0.011122000000000298,0.9000988667918652,0.5881968102628135,non_fall
4.269285,0.6906,0.1231,-0.564,-0.2791,0.6117,0.5565,19.4625,-10.35,-38.7,,0.0196379999999996,0.9000988667918652,0.5744240308943448,non_fall
4.273183,0.6906,0.1231,-0.564,-0.2791,0.6117,0.5565,19.4625,-10.35,-38.7,,0.003898000000000401,0.9000988667918652,0.5712685733511912,non_fall
4.27548,0.3314,0.0227,-0.1202,-0.2791,0.6117,0.5565,19.4625,-10.35,-38.7,,0.0022969999999995494,0.3532552759690929,0.5818281130486398,non_fall
4.291573,0.3314,0.0227,-0.1202,-0.2791,0.6117,0.5565,19.4625,-10.35,-38.7,,0.01609299999999969,0.3532552759690929,0.6093915895512669,non_fall
4.31524,0.3314,0.0227,-0.1202,-0.2791,0.6117,0.5565,19.4625,-10.35,-38.7,,0.02366700000000055,0.3532552759690929,0.6569064022157235,non_fall
4.318667,0.3314,0.0227,-0.1202,-0.2791,0.6117,0.5565,20.175,-10.4625,-38.5312,,0.0034269999999994027,0.3532552759690929,0.726461631534143,non_fall
4.32726,0.3314,0.0227,-0.1202,-0.0029,0.3609,0.5536,20.175,-10.4625,-38.5312,,0.008593000000000295,0.3532552759690929,0.8188710447037671,non_fall
4.329087,0.2256,1.2265,0.2237,-0.0029,0.3609,0.5536,20.175,-10.4625,-38.5312,,0.0018270000000004671,1.2669803865885216,0.9334148864280744,non_fall
4.330459,0.2256,1.2265,0.2237,-0.0029,0.3609,0.5536,20.175,-10.4625,-38.5312,,0.0013719999999999288,1.2669803865885216,1.0677643543283075,non_fall
4.361772,0.2256,1.2265,0.2237,-0.0029,0.3609,0.5536,20.175,-10.4625,-38.5312,,0.031312999999999924,1.2669803865885216,1.218079168560899,non_fall
4.376885,0.2256,1.2265,0.2237,-0.0029,0.3609,0.5536,20.175,-10.4625,-38.5312,,0.015112999999999488,1.2669803865885216,1.379248751427174,non_fall
4.381109,0.2256,1.2265,0.2237,-0.0029,0.3609,0.5536,20.775,-10.8375,-38.3438,,0.004224000000000672,1.2669803865885216,1.5452452742751948,non_fall
4.390156,0.2256,1.2265,0.2237,0.0538,0.2003,0.5486,20.775,-10.8375,-38.3438,,0.009046999999999805,1.2669803865885216,1.7095634498496775,non_fall
4.394243,0.3592,2.2264,-0.5048,0.0538,0.2003,0.5486,20.775,-10.8375,-38.3438,,0.004087000000000174,2.3109964604040396,1.8657232734926683,non_fall
4.397455,0.3592,2.2264,-0.5048,0.0538,0.2003,0.5486,20.775,-10.8375,-38.3438,,0.0032119999999995485,2.3109964604040396,2.0078011780686458,non_fall
4.43078,0.3592,2.2264,-0.5048,0.0538,0.2003,0.5486,20.775,-10.8375,-38.3438,,0.03332500000000049,2.3109964604040396,2.130938956331405,non_fall
4.43405,0.3592,2.2264,-0.5048,0.0538,0.2003,0.5486,20.775,-10.8375,-38.3438,,0.003269999999999662,2.3109964604040396,2.2317727090832444,non_fall
4.435902,0.3592,2.2264,-0.5048,0.0538,0.2003,0.5486,21.15,-11.5125,-38.0625,,0.0018519999999995207,2.3109964604040396,2.308734290957528,non_fall
4.449442,0.3592,2.2264,-0.5048,0.1507,0.3741,0.626,21.15,-11.5125,-38.0625,,0.013540000000000774,2.3109964604040396,2.3621996024116374,non_fall
4.453529,0.3592,2.2264,-0.5048,0.1507,0.3741,0.626,21.15,-11.5125,-38.0625,,0.004086999999999286,2.3109964604040396,2.394479223228901,non_fall
4.455469,0.3906,2.2635,-1.1577,0.1507,0.3741,0.626,21.15,-11.5125,-38.0625,,0.0019400000000002748,2.572211091648584,2.409659612193666,non_fall
4.495551,0.3906,2.2635,-1.1577,0.1507,0.3741,0.626,21.15,-11.5125,-38.0625,,0.04008199999999995,2.572211091648584,2.4133074841808226,non_fall
4.499676,0.3906,2.2635,-1.1577,0.1507,0.3741,0.626,21.15,-11.5125,-38.0625,,0.004125000000000156,2.572211091648584,2.4120508831693277,non_fall
4.508425,0.3906,2.2635,-1.1577,0.1507,0.3741,0.626,21.15,-11.5125,-38.0625,,0.008748999999999896,2.572211091648584,2.413054053669001,non_fall
4.512116,1.5862,1.1818,-1.2476,0.1507,0.3741,0.626,21.15,-11.5125,-38.0625,,0.003690999999999889,2.3386293934696023,2.4234131954076057,non_fall
4.515798,1.5862,1.1818,-1.2476,0.1507,0.3741,0.626,21.6,-12.3188,-37.7438,,0.003682000000000407,2.3386293934696023,2.449515264460056,non_fall
4.528306,1.5862,1.1818,-1.2476,0.1723,0.4374,0.7294,21.6,-12.3188,-37.7438,,0.01250799999999952,2.3386293934696023,2.4964167212423507,non_fall
4.544199,1.5862,1.1818,-1.2476,0.1723,0.4374,0.7294,21.6,-12.3188,-37.7438,,0.015893000000000157,2.3386293934696023,2.567307352747741,non_fall
4.562376,1.5862,1.1818,-1.2476,0.1723,0.4374,0.7294,21.6,-12.3188,-37.7438,,0.018177000000000554,2.3386293934696023,2.663122351185729,non_fall
4.568995,1.5862,1.1818,-1.2476,0.1723,0.4374,0.7294,21.6,-12.3188,-37.7438,,0.0066189999999997085,2.3386293934696023,2.7823533689530424,non_fall
4.571728,2.2838,0.1679,-2.2663,0.1723,0.4374,0.7294,21.6,-12.3188,-37.7438,,0.0027330000000000965,3.2218082717629244,2.921087573616014,non_fall
4.574814,2.2838,0.1679,-2.2663,0.1723,0.4374,0.7294,21.9375,-13.2938,-37.2188,,0.0030859999999997,3.2218082717629244,3.0732754352846445,non_fall
4.591246,2.2838,0.1679,-2.2663,-0.1655,0.1529,0.4686,21.9375,-13.2938,-37.2188,,0.016432000000000002,3.2218082717629244,3.231199862268246,non_fall
4.628193,2.2838,0.1679,-2.2663,-0.1655,0.1529,0.4686,21.9375,-13.2938,-37.2188,,0.03694699999999962,3.2218082717629244,3.3861011530120257,non_fall
4.632036,2.2838,0.1679,-2.2663,-0.1655,0.1529,0.4686,21.9375,-13.2938,-37.2188,,0.003843000000000707,3.2218082717629244,3.5289080079845405,non_fall
4.634425,2.2838,0.1679,-2.2663,-0.1655,0.1529,0.4686,21.9375,-13.2938,-37.2188,,0.0023889999999999745,3.2218082717629244,3.651026836083263,non_fall
4.636761,3.6585,-0.1242,-2.1302,-0.1655,0.1529,0.4686,21.9375,-13.2938,-37.2188,,0.0023359999999996717,4.2353039949925675,3.74513731634306,non_fall
4.639964,3.6585,-0.1242,-2.1302,-0.1655,0.1529,0.4686,22.2563,-14.1938,-36.8625,,0.003203000000000067,4.2353039949925675,3.8059267704742505,non_fall
4.647007,3.6585,-0.1242,-2.1302,-0.4237,-0.0471,0.3916,22.2563,-14.1938,-36.8625,,0.0070430000000003545,4.2353039949925675,3.830677906717908,non_fall
4.687614,3.6585,-0.1242,-2.1302,-0.4237,-0.0471,0.3916,22.2563,-14.1938,-36.8625,,0.040606999999999616,4.2353039949925675,3.8196201673314047,non_fall
4.691386,3.6585,-0.1242,-2.1302,-0.4237,-0.0471,0.3916,22.2563,-14.1938,-36.8625,,0.0037719999999996645,4.2353039949925675,3.7759746939104977,non_fall
4.693463,3.6585,-0.1242,-2.1302,-0.4237,-0.0471,0.3916,22.2563,-14.1938,-36.8625,,0.0020770000000007727,4.2353039949925675,3.7056636622168937,non_fall
4.695277,2.7433,-1.0976,-0.8913,-0.4237,-0.0471,0.3916,22.2563,-14.1938,-36.8625,,0.0018139999999995382,3.0862333579948227,3.6167059041606864,non_fall
4.716226,2.7433,-1.0976,-0.8913,-0.4237,-0.0471,0.3916,22.275,-15.0,-36.6562,,0.020948999999999884,3.0862333579948227,3.518372375746374,non_fall
4.721222,2.7433,-1.0976,-0.8913,-0.4237,-0.0471,0.3916,22.275,-15.0,-36.6562,,0.0049960000000002225,3.0862333579948227,3.420215933760779,non_fall
4.729736,2.7433,-1.0976,-0.8913,-0.5364,-0.3865,0.2589,22.275,-15.0,-36.6562,,0.00851399999999991,3.0862333579948227,3.3311065955595827,non_fall
4.750783,2.7433,-1.0976,-0.8913,-0.5364,-0.3865,0.2589,22.275,-15.0,-36.6562,,0.02104700000000026,3.0862333579948227,3.258390156849408,non_fall
4.754513,2.7433,-1.0976,-0.8913,-0.5364,-0.3865,0.2589,22.275,-15.0,-36.6562,,0.003730000000000011,3.0862333579948227,3.2072539511975156,non_fall
4.756927,2.5647,-1.035,-1.3557,-0.5364,-0.3865,0.2589,22.275,-15.0,-36.6562,,0.002413999999999916,3.080070385559395,3.180344816130825,non_fall
4.775589,2.5647,-1.035,-1.3557,-0.5364,-0.3865,0.2589,22.2375,-15.6,-36.6188,,0.018661999999999956,3.080070385559395,3.17765149434173,non_fall
4.780053,2.5647,-1.035,-1.3557,-0.5364,-0.3865,0.2589,22.2375,-15.6,-36.6188,,0.004463999999999579,3.080070385559395,3.1966388737328453,non_fall
4.78842,2.5647,-1.035,-1.3557,-1.1029,-0.3585,-0.3613,22.2375,-15.6,-36.6188,,0.00836700000000068,3.080070385559395,3.2326026929275904,non_fall
4.810005,2.9759,-1.0803,-1.5591,-1.1029,-0.3585,-0.3613,22.2375,-15.6,-36.6188,,0.021584999999999965,3.5289972669300838,3.279198014632179,non_fall
4.815587,2.9759,-1.0803,-1.5591,-1.1029,-0.3585,-0.3613,22.2375,-15.6,-36.6188,,0.005581999999999532,3.5289972669300838,3.329081723685826,non_fall
4.818433,2.9759,-1.0803,-1.5591,-1.1029,-0.3585,-0.3613,22.2375,-15.6,-36.6188,,0.002845999999999904,3.5289972669300838,3.3746006123083125,non_fall
4.82941,2.9759,-1.0803,-1.5591,-1.1029,-0.3585,-0.3613,22.2375,-15.6,-36.6188,,0.010977000000000459,3.5289972669300838,3.4084566558687275,non_fall
4.83843,2.9759,-1.0803,-1.5591,-1.1029,-0.3585,-0.3613,21.975,-15.4875,-36.75,,0.009019999999999584,3.5289972669300838,3.4242917897703986,non_fall
4.854302,2.9759,-1.0803,-1.5591,-1.4594,-0.131,-0.8038,21.975,-15.4875,-36.75,,0.015871999999999886,3.5289972669300838,3.4171523475760712,non_fall
4.858436,2.9759,-1.0803,-1.5591,-1.4594,-0.131,-0.8038,21.975,-15.4875,-36.75,,0.004134000000000526,3.5289972669300838,3.3838125367575627,non_fall
4.870246,2.2119,-1.6492,-1.3042,-1.4594,-0.131,-0.8038,21.975,-15.4875,-36.75,,0.011809999999999654,3.0517699602034227,3.322953557356371,non_fall
4.874579,2.2119,-1.6492,-1.3042,-1.4594,-0.131,-0.8038,21.975,-15.4875,-36.75,,0.00433299999999992,3.0517699602034227,3.235209100946527,non_fall
4.894938,2.2119,-1.6492,-1.3042,-1.4594,-0.131,-0.8038,21.975,-15.4875,-36.75,,0.020359000000000016,3.0517699602034227,3.1230967293017753,non_fall
4.914535,2.2119,-1.6492,-1.3042,-1.4594,-0.131,-0.8038,21.975,-15.4875,-36.75,,0.019597000000000087,3.0517699602034227,2.9908544541604956,non_fall
4.916243,2.2119,-1.6492,-1.3042,-1.4594,-0.131,-0.8038,21.825,-14.7188,-37.1813,,0.0017079999999998208,3.0517699602034227,2.84419265879495,non_fall
4.930742,2.2119,-1.6492,-1.3042,-1.6916,-0.0665,-0.7504,21.825,-14.7188,-37.1813,,0.014499000000000706,3.0517699602034227,2.6899598726635445,non_fall
4.932823,2.2119,-1.6492,-1.3042,-1.6916,-0.0665,-0.7504,21.825,-14.7188,-37.1813,,0.0020809999999995554,3.0517699602034227,2.5357164289407645,non_fall
4.933842,0.4783,-1.8597,-0.4061,-1.6916,-0.0665,-0.7504,21.825,-14.7188,-37.1813,,0.0010190000000003252,1.9626951342478025,2.3892193298635416,non_fall
4.952227,0.4783,-1.8597,-0.4061,-1.6916,-0.0665,-0.7504,21.825,-14.7188,-37.1813,,0.01838499999999943,1.9626951342478025,2.2578442789331232,non_fall
4.975134,0.4783,-1.8597,-0.4061,-1.6916,-0.0665,-0.7504,21.75,-13.2563,-37.6313,,0.02290700000000001,1.9626951342478025,2.1479970292781156,non_fall
4.979959,0.4783,-1.8597,-0.4061,-1.6916,-0.0665,-0.7504,21.75,-13.2563,-37.6313,,0.004825000000000301,1.9626951342478025,2.0645806560007665,non_fall
4.988709,0.4783,-1.8597,-0.4061,-1.4545,0.3741,-0.9777,21.75,-13.2563,-37.6313,,0.008750000000000036,1.9626951342478025,2.010579510096915,non_fall
4.993033,0.4783,-1.8597,-0.4061,-1.4545,0.3741,-0.9777,21.75,-13.2563,-37.6313,,0.00432399999999955,1.9626951342478025,1.9868002695369074,non_fall
4.995535,0.9528,-1.6758,0.2142,-1.4545,0.3741,-0.9777,21.75,-13.2563,-37.6313,,0.0025020000000006704,1.9395914827612541,1.9917883526435003,non_fall
5.028317,0.9528,-1.6758,0.2142,-1.4545,0.3741,-0.9777,21.75,-13.2563,-37.6313,,0.03278200000000009,1.9395914827612541,2.0219216749430777,non_fall
5.032167,0.9528,-1.6758,0.2142,-1.4545,0.3741,-0.9777,21.75,-13.2563,-37.6313,,0.003849999999999909,1.9395914827612541,2.0716733993416487,non_fall
5.038369,0.9528,-1.6758,0.2142,-1.4545,0.3741,-0.9777,21.6188,-10.8563,-37.95,,0.006202000000000041,1.9395914827612541,2.134027580100799,non_fall
5.05003,0.9528,-1.6758,0.2142,-1.3564,1.0126,-1.4236,21.6188,-10.8563,-37.95,,0.011660999999999255,1.9395914827612541,2.2010228544577815,non_fall
5.054004,1.434,-1.7584,-1.2569,-1.3564,1.0126,-1.4236,21.6188,-10.8563,-37.95,,0.003974000000000366,2.5938627893549033,2.264387095414213,non_fall
5.057066,1.434,-1.7584,-1.2569,-1.3564,1.0126,-1.4236,21.6188,-10.8563,-37.95,,0.003061999999999898,2.5938627893549033,2.3162104923853555,non_fall
5.09539,1.434,-1.7584,-1.2569,-1.3564,1.0126,-1.4236,21.6188,-10.8563,-37.95,,0.03832400000000025,2.5938627893549033,2.349591157329339,non_fall
5.0993,1.434,-1.7584,-1.2569,-1.3564,1.0126,-1.4236,21.6188,-10.8563,-37.95,,0.003910000000000302,2.5938627893549033,2.3591847586041994,non_fall
5.107959,1.434,-1.7584,-1.2569,-1.3564,1.0126,-1.4236,21.6188,-10.8563,-37.95,,0.00865899999999975,2.5938627893549033,2.341602880836774,non_fall
5.111407,0.5846,-1.4041,-1.3875,-1.3564,1.0126,-1.4236,21.6188,-10.8563,-37.95,,0.0034479999999996735,2.0587399592954907,2.295630297238701,non_fall
5.114563,0.5846,-1.4041,-1.3875,-1.3564,1.0126,-1.4236,21.7313,-7.4813,-38.1375,,0.0031560000000006028,2.0587399592954907,2.222260245168682,non_fall
5.128247,0.5846,-1.4041,-1.3875,-1.2357,1.2205,-1.2612,21.7313,-7.4813,-38.1375,,0.013683999999999585,2.0587399592954907,2.1245700133945316,non_fall
5.15748,0.5846,-1.4041,-1.3875,-1.2357,1.2205,-1.2612,21.7313,-7.4813,-38.1375,,0.02923299999999962,2.0587399592954907,2.0074700990751966,non_fall
5.162094,0.5846,-1.4041,-1.3875,-1.2357,1.2205,-1.2612,21.7313,-7.4813,-38.1375,,0.004614000000000118,2.0587399592954907,1.8773581589417505,non_fall
5.168716,0.5846,-1.4041,-1.3875,-1.2357,1.2205,-1.2612,21.7313,-7.4813,-38.1375,,0.006622000000000128,2.0587399592954907,1.7417009636670246,non_fall
5.171744,-1.0499,-0.6324,-0.3404,-1.2357,1.2205,-1.2612,21.7313,-7.4813,-38.1375,,0.0030280000000004748,1.2720424246069784,1.608563561300436,non_fall
5.176123,-1.0499,-0.6324,-0.3404,-1.2357,1.2205,-1.2612,22.1438,-3.6375,-38.0063,,0.004378999999999245,1.2720424246069784,1.4861097666349257,non_fall
5.188119,-1.0499,-0.6324,-0.3404,-0.6002,0.5298,-0.9065,22.1438,-3.6375,-38.0063,,0.011996000000000784,1.2720424246069784,1.3821074498019281,non_fall
5.231116,-1.0499,-0.6324,-0.3404,-0.6002,0.5298,-0.9065,22.1438,-3.6375,-38.0063,,0.04299699999999973,1.2720424246069784,1.3034757744117837,non_fall
5.23426,-1.0499,-0.6324,-0.3404,-0.6002,0.5298,-0.9065,22.1438,-3.6375,-38.0063,,0.0031439999999998136,1.2720424246069784,1.2559036832511588,non_fall
5.23617,-1.0499,-0.6324,-0.3404,-0.6002,0.5298,-0.9065,22.1438,-3.6375,-38.0063,,0.0019100000000005224,1.2720424246069784,1.2435537414762752,non_fall
5.238038,-0.0408,0.7712,1.1965,-0.6002,0.5298,-0.9065,22.1438,-3.6375,-38.0063,,0.0018679999999999808,1.4240878940571047,1.2688517682296119,non_fall
5.240888,-0.0408,0.7712,1.1965,-0.6002,0.5298,-0.9065,22.65,0.4313,-37.6875,,0.002849999999999575,1.4240878940571047,1.3323558297339175,non_fall
5.255245,-0.0408,0.7712,1.1965,-0.1879,0.5671,-0.5952,22.65,0.4313,-37.6875,,0.014357000000000397,1.4240878940571047,1.4326986204005303,non_fall
5.288483,-0.0408,0.7712,1.1965,-0.1879,0.5671,-0.5952,22.65,0.4313,-37.6875,,0.03323799999999988,1.4240878940571047,1.5666032530694851,non_fall
5.292049,-0.0408,0.7712,1.1965,-0.1879,0.5671,-0.5952,22.65,0.4313,-37.6875,,0.003565999999999292,1.4240878940571047,1.7289804914779672,non_fall
5.294096,-0.0408,0.7712,1.1965,-0.1879,0.5671,-0.5952,22.65,0.4313,-37.6875,,0.002047000000000132,1.4240878940571047,1.9131197681685348,non_fall
5.295919,-0.038,2.5405,0.6285,-0.1879,0.5671,-0.5952,22.65,0.4313,-37.6875,,0.001822999999999908,2.6173644186471248,2.110980924610517,non_fall
5.316786,-0.038,2.5405,0.6285,-0.1879,0.5671,-0.5952,23.3813,4.425,-37.0875,,0.02086699999999997,2.6173644186471248,2.313577073098974,non_fall
5.321573,-0.038,2.5405,0.6285,-0.1879,0.5671,-0.5952,23.3813,4.425,-37.0875,,0.004787000000000319,2.6173644186471248,2.511419281311875,non_fall
5.327859,-0.038,2.5405,0.6285,0.0733,0.0242,-0.3076,23.3813,4.425,-37.0875,,0.006286000000000236,2.6173644186471248,2.694984948756203,non_fall
5.349579,-0.038,2.5405,0.6285,0.0733,0.0242,-0.3076,23.3813,4.425,-37.0875,,0.021720000000000184,2.6173644186471248,2.855180503273937,non_fall
5.353513,-0.038,2.5405,0.6285,0.0733,0.0242,-0.3076,23.3813,4.425,-37.0875,,0.003934000000000104,2.6173644186471248,2.983786487774281,non_fall
5.355548,-0.1928,3.068,0.968,0.0733,0.0242,-0.3076,23.3813,4.425,-37.0875,,0.002034999999999343,3.2228589544067856,3.0738834216866704,non_fall
5.374434,-0.1928,3.068,0.968,0.0733,0.0242,-0.3076,23.3813,4.425,-37.0875,,0.01888600000000018,3.2228589544067856,3.120251957538484,non_fall
5.378505,-0.1928,3.068,0.968,0.0733,0.0242,-0.3076,23.9625,7.9875,-36.3563,,0.004070999999999714,3.2228589544067856,3.1197255756709783,non_fall
5.390161,-0.1928,3.068,0.968,0.0744,-0.1652,0.2145,23.9625,7.9875,-36.3563,,0.011656000000000333,3.2228589544067856,3.0714601434257913,non_fall
5.412362,-0.1928,3.068,0.968,0.0744,-0.1652,0.2145,23.9625,7.9875,-36.3563,,0.022200999999999915,3.2228589544067856,2.9770810732033883,non_fall
5.416233,-0.1928,3.068,0.968,0.0744,-0.1652,0.2145,23.9625,7.9875,-36.3563,,0.00387100000000018,3.2228589544067856,2.8406766480758754,non_fall
5.41855,-0.67,2.2051,0.5566,0.0744,-0.1652,0.2145,23.9625,7.9875,-36.3563,,0.0023169999999996804,2.370900582057375,2.6686221481704986,non_fall
5.428625,-0.67,2.2051,0.5566,0.0744,-0.1652,0.2145,23.9625,7.9875,-36.3563,,0.0100750000000005,2.370900582057375,2.4692404665700636,non_fall
5.433526,-0.67,2.2051,0.5566,0.0744,-0.1652,0.2145,24.6,10.7438,-35.5312,,0.004900999999999378,2.370900582057375,2.2523258998768614,non_fall
5.448416,-0.67,2.2051,0.5566,0.0589,0.1554,0.7883,24.6,10.7438,-35.5312,,0.014890000000000292,2.370900582057375,2.028571590598347,non_fall
5.467961,-1.2942,0.2116,-0.096,0.0589,0.1554,0.7883,24.6,10.7438,-35.5312,,0.019544999999999924,1.3148932276044318,1.8089455119707414,non_fall
5.472072,-1.2942,0.2116,-0.096,0.0589,0.1554,0.7883,24.6,10.7438,-35.5312,,0.004110999999999976,1.3148932276044318,1.6040605098154797,non_fall
5.474129,-1.2942,0.2116,-0.096,0.0589,0.1554,0.7883,24.6,10.7438,-35.5312,,0.0020569999999997535,1.3148932276044318,1.423584254041327,non_fall
5.497918,-1.2942,0.2116,-0.096,0.0589,0.1554,0.7883,24.6,10.7438,-35.5312,,0.023789000000000726,1.3148932276044318,1.2757295734767555,non_fall
5.516385,-1.2942,0.2116,-0.096,0.0589,0.1554,0.7883,25.4063,12.8438,-34.575,,0.018466999999999345,1.3148932276044318,1.166849650446697,non_fall
5.520942,-1.2942,0.2116,-0.096,0.0589,0.1554,0.7883,25.4063,12.8438,-34.575,,0.004557000000000144,1.3148932276044318,1.1011419921898733,non_fall
5.530822,-1.2942,0.2116,-0.096,0.025,0.1139,0.1289,25.4063,12.8438,-34.575,,0.009879999999999889,1.3148932276044318,1.0804518313888256,non_fall
5.533652,0.6067,-0.8314,0.1734,0.025,0.1139,0.1289,25.4063,12.8438,-34.575,,0.0028300000000003322,1.0437329208183481,1.1041661280396848,non_fall
5.536129,0.6067,-0.8314,0.1734,0.025,0.1139,0.1289,25.4063,12.8438,-34.575,,0.0024769999999998404,1.0437329208183481,1.1692016764038855,non_fall
5.562602,0.6067,-0.8314,0.1734,0.025,0.1139,0.1289,25.4063,12.8438,-34.575,,0.02647300000000019,1.0437329208183481,1.2701075412084077,non_fall
5.574285,0.6067,-0.8314,0.1734,0.025,0.1139,0.1289,26.0813,14.1375,-33.9,,0.011682999999999666,1.0437329208183481,1.3993138960853075,non_fall
5.579171,0.6067,-0.8314,0.1734,0.025,0.1139,0.1289,26.0813,14.1375,-33.9,,0.004885999999999946,1.0437329208183481,1.5475590337101943,non_fall
5.595188,0.6067,-0.8314,0.1734,-0.5802,-0.3835,0.1781,26.0813,14.1375,-33.9,,0.016017000000000614,1.0437329208183481,1.7045107622323976,non_fall
5.599838,0.6067,-0.8314,0.1734,-0.5802,-0.3835,0.1781,26.0813,14.1375,-33.9,,0.004649999999999821,1.0437329208183481,1.8595670633281944,non_fall
5.601445,0.2338,-3.1591,0.8866,-0.5802,-0.3835,0.1781,26.0813,14.1375,-33.9,,0.001606999999999914,3.2894733332252444,2.0027741835899513,non_fall
5.615799,0.2338,-3.1591,0.8866,-0.5802,-0.3835,0.1781,26.0813,14.1375,-33.9,,0.014353999999999978,3.2894733332252444,2.1257447724264735,non_fall
5.628793,0.2338,-3.1591,0.8866,-0.5802,-0.3835,0.1781,26.0813,14.1375,-33.9,,0.01299399999999995,3.2894733332252444,2.222415802064111,non_fall
5.648892,0.2338,-3.1591,0.8866,-1.0135,0.4585,0.0488,26.0813,14.1375,-33.9,,0.02009900000000009,3.2894733332252444,2.289487450064151,non_fall
5.654022,1.5789,-0.7015,0.3827,-1.0135,0.4585,0.0488,26.0813,14.1375,-33.9,,0.005130000000000301,1.7696007318036462,2.3264461973187056,non_fall
5.656879,1.5789,-0.7015,0.3827,-1.0135,0.4585,0.0488,26.0813,14.1375,-33.9,,0.0028569999999996654,1.7696007318036462,2.3351793382244215,non_fall
5.661121,1.5789,-0.7015,0.3827,-1.0135,0.4585,0.0488,26.6438,15.2625,-35.3625,,0.004241999999999635,1.7696007318036462,2.31929025060931,non_fall
5.695303,1.5789,-0.7015,0.3827,-1.0135,0.4585,0.0488,26.6438,15.2625,-35.3625,,0.03418200000000038,1.7696007318036462,2.2832837938351203,non_fall
5.698746,1.5789,-0.7015,0.3827,-1.0135,0.4585,0.0488,26.6438,15.2625,-35.3625,,0.003442999999999863,1.7696007318036462,2.2317941367102168,non_fall
5.71213,1.5789,-0.7015,0.3827,-1.0135,0.4585,0.0488,26.6438,15.2625,-35.3625,,0.013384000000000285,1.7696007318036462,2.1689860948982407,non_fall
5.716435,-0.893,-0.5581,1.896,-1.0135,0.4585,0.0488,26.6438,15.2625,-35.3625,,0.004304999999999559,2.1688108746499775,2.0982002246603035,non_fall
5.726333,-0.893,-0.5581,1.896,-1.0135,0.4585,0.0488,26.9063,15.6938,-34.9313,,0.009898000000000629,2.1688108746499775,2.021850647526782,non_fall
5.731229,-0.893,-0.5581,1.896,-0.6081,-0.4392,0.263,26.9063,15.6938,-34.9313,,0.004895999999999567,2.1688108746499775,1.9415342259892874,non_fall
5.76613,-0.893,-0.5581,1.896,-0.6081,-0.4392,0.263,26.9063,15.6938,-34.9313,,0.034901000000000515,2.1688108746499775,1.8582781752103583,non_fall
5.770122,-0.893,-0.5581,1.896,-0.6081,-0.4392,0.263,26.9063,15.6938,-34.9313,,0.003991999999999329,2.1688108746499775,1.772844409498127,non_fall
5.771908,0.9667,0.8784,0.6595,-0.6081,-0.4392,0.263,26.9063,15.6938,-34.9313,,0.0017860000000000653,1.4632278359845399,1.6860205447712209,non_fall
5.775397,0.9667,0.8784,0.6595,-0.6081,-0.4392,0.263,26.9063,15.6938,-34.9313,,0.0034890000000000754,1.4632278359845399,1.598852019084214,non_fall
5.788584,0.9667,0.8784,0.6595,-0.7128,-0.408,0.2084,26.9063,15.6938,-34.9313,,0.013187000000000282,1.4632278359845399,1.512796601398876,non_fall
5.80158,0.9667,0.8784,0.6595,-0.7128,-0.408,0.2084,27.1125,16.0312,-34.5563,,0.01299600000000023,1.4632278359845399,1.4298006225337507,non_fall
5.804857,0.9667,0.8784,0.6595,-0.7128,-0.408,0.2084,27.1125,16.0312,-34.5563,,0.0032769999999997523,1.4632278359845399,1.352300584937263,non_fall
5.82958,0.9667,0.8784,0.6595,-0.7128,-0.408,0.2084,27.1125,16.0312,-34.5563,,0.02472299999999983,1.4632278359845399,1.28314933016988,non_fall
5.83306,0.9667,0.8784,0.6595,-0.7128,-0.408,0.2084,27.1125,16.0312,-34.5563,,0.0034799999999997056,1.4632278359845399,1.2254623541061205,non_fall
5.834932,0.7953,0.1158,0.7699,-0.7128,-0.408,0.2084,27.1125,16.0312,-34.5563,,0.00187200000000054,1.112950016847118,1.1823835982350208,non_fall
5.849168,0.7953,0.1158,0.7699,-0.6248,-0.069,-0.2031,27.1125,16.0312,-34.5563,,0.014235999999999471,1.112950016847118,1.1567816022857411,non_fall
5.861627,0.7953,0.1158,0.7699,-0.6248,-0.069,-0.2031,27.1125,16.0312,-34.5563,,0.012459000000000664,1.112950016847118,1.150902024727533,non_fall
5.86417,0.7953,0.1158,0.7699,-0.6248,-0.069,-0.2031,27.0563,16.4062,-34.275,,0.002542999999999296,1.112950016847118,1.1660148434632764,non_fall
5.892956,0.7953,0.1158,0.7699,-0.6248,-0.069,-0.2031,27.0563,16.4062,-34.275,,0.0287860000000002,1.112950016847118,1.202099749128807,non_fall
5.89582,0.7953,0.1158,0.7699,-0.6248,-0.069,-0.2031,27.0563,16.4062,-34.275,,0.0028639999999997556,1.112950016847118,1.2576116330719938,non_fall
5.897314,1.1045,-0.0229,-0.7015,-0.6248,-0.069,-0.2031,27.0563,16.4062,-34.275,,0.0014940000000001064,1.3086431560971845,1.329362255032616,non_fall
5.923926,1.1045,-0.0229,-0.7015,-0.6248,-0.069,-0.2031,27.0563,16.4062,-34.275,,0.02661200000000008,1.3086431560971845,1.41254581597527,non_fall
5.927252,1.1045,-0.0229,-0.7015,-0.6248,-0.069,-0.2031,27.375,16.875,-33.9563,,0.003326000000000384,1.3086431560971845,1.5009259484793933,non_fall
5.929802,1.1045,-0.0229,-0.7015,-0.6968,0.6094,-0.198,27.375,16.875,-33.9563,,0.002549999999999386,1.3086431560971845,1.5871902030696732,non_fall
5.948818,1.1045,-0.0229,-0.7015,-0.6968,0.6094,-0.198,27.375,16.875,-33.9563,,0.019016000000000588,1.3086431560971845,1.663464943898358,non_fall
5.952087,1.1045,-0.0229,-0.7015,-0.6968,0.6094,-0.198,27.375,16.875,-33.9563,,0.0032689999999995223,1.3086431560971845,1.7219660097199128,non_fall
5.954035,-1.1096,0.3324,-1.9565,-0.6968,0.6094,-0.198,27.375,16.875,-33.9563,,0.0019480000000005049,2.273674156514077,1.7557357503246964,non_fall
5.990039,-1.1096,0.3324,-1.9565,-0.6968,0.6094,-0.198,27.375,16.875,-33.9563,,0.03600400000000015,2.273674156514077,1.7593868738306382,non_fall
5.993752,-1.1096,0.3324,-1.9565,-0.5016,0.1418,-0.0466,27.375,16.875,-33.9563,,0.003712999999999411,2.273674156514077,1.7297481784635933,non_fall
6.004705,-1.1096,0.3324,-1.9565,-0.5016,0.1418,-0.0466,27.375,16.875,-33.9563,,0.010953000000000657,2.273674156514077,1.6663022956625555,non_fall
6.00826,-1.1096,0.3324,-1.9565,-0.5016,0.1418,-0.0466,27.5625,17.7375,-33.2063,,0.0035549999999995308,2.273674156514077,1.5713307767481035,non_fall
6.011071,-0.2808,0.4786,-0.6504,-0.5016,0.1418,-0.0466,27.5625,17.7375,-33.2063,,0.002811000000000341,0.8549425477773346,1.4497333246611537,non_fall
6.014469,-0.2808,0.4786,-0.6504,-0.5016,0.1418,-0.0466,27.5625,17.7375,-33.2063,,0.00339799999999979,0.8549425477773346,1.3085511455417078,non_fall
6.031955,-0.2808,0.4786,-0.6504,-0.5016,0.1418,-0.0466,27.5625,17.7375,-33.2063,,0.01748599999999989,0.8549425477773346,1.1562793929095412,non_fall
6.051962,-0.2808,0.4786,-0.6504,-0.6838,0.0279,0.0324,27.5625,17.7375,-33.2063,,0.020006999999999664,0.8549425477773346,1.0020809485939381,non_fall
6.05592,-0.2808,0.4786,-0.6504,-0.6838,0.0279,0.0324,27.5625,17.7375,-33.2063,,0.003958000000000794,0.8549425477773346,0.8550060501543625,non_fall
6.063274,-0.2808,0.4786,-0.6504,-0.6838,0.0279,0.0324,27.675,18.8813,-32.3625,,0.0073539999999994166,0.8549425477773346,0.7232918069447664,non_fall
6.073323,-0.1674,0.2213,-0.3335,-0.6838,0.0279,0.0324,27.675,18.8813,-32.3625,,0.010049000000000419,0.4338417914401516,0.6137834591578225,non_fall
6.077949,-0.1674,0.2213,-0.3335,-0.6838,0.0279,0.0324,27.675,18.8813,-32.3625,,0.004626000000000019,0.4338417914401516,0.5314983139399788,non_fall
6.095031,-0.1674,0.2213,-0.3335,-0.6838,0.0279,0.0324,27.675,18.8813,-32.3625,,0.017081999999999375,0.4338417914401516,0.4793435810606312,non_fall
6.12257,-0.1674,0.2213,-0.3335,-0.6838,0.0279,0.0324,27.8063,20.2125,-31.1813,,0.02753899999999998,0.4338417914401516,0.4579938377456212,non_fall
6.127172,-0.1674,0.2213,-0.3335,-0.6838,0.0279,0.0324,27.8063,20.2125,-31.1813,,0.004602000000000217,0.4338417914401516,0.465927007480203,non_fall
6.129849,-0.1674,0.2213,-0.3335,-0.8048,0.3406,-0.1393,27.8063,20.2125,-31.1813,,0.0026770000000002625,0.4338417914401516,0.49960926611294715,non_fall
6.132845,0.3431,0.4594,-0.1436,-0.8048,0.3406,-0.1393,27.8063,20.2125,-31.1813,,0.0029959999999995546,0.591089612495432,0.5538115891445426,non_fall
6.135472,0.3431,0.4594,-0.1436,-0.8048,0.3406,-0.1393,27.8063,20.2125,-31.1813,,0.002627000000000379,0.591089612495432,0.6220348205065462,non_fall
6.162275,0.3431,0.4594,-0.1436,-0.8048,0.3406,-0.1393,27.8063,20.2125,-31.1813,,0.026803000000000132,0.591089612495432,0.6970157241880289,non_fall
6.191749,0.3431,0.4594,-0.1436,-0.2588,0.0977,-0.0534,27.8063,20.2125,-31.1813,,0.029473999999999556,0.591089612495432,0.7712828028268103,non_fall
6.194714,-0.3819,-0.2261,0.9775,-0.2588,0.0977,-0.0534,27.8063,20.2125,-31.1813,,0.0029650000000005505,1.0735339165578328,0.8377266044893411,non_fall
6.19653,-0.3819,-0.2261,0.9775,-0.2588,0.0977,-0.0534,27.8063,20.2125,-31.1813,,0.0018159999999998178,1.0735339165578328,0.8901436774631691,non_fall
6.197883,-0.3819,-0.2261,0.9775,-0.2588,0.0977,-0.0534,27.8063,20.2125,-31.1813,,0.0013529999999999376,1.0735339165578328,0.9237080592975336,non_fall
6.203071,-0.3819,-0.2261,0.9775,-0.2588,0.0977,-0.0534,27.9938,21.4313,-30.1313,,0.005187999999999526,1.0735339165578328,0.935324435430366,non_fall
6.233803,-0.3819,-0.2261,0.9775,-0.2588,0.0977,-0.0534,27.9938,21.4313,-30.1313,,0.030732000000000426,1.0735339165578328,0.9238265949989231,non_fall
6.237947,-0.3819,-0.2261,0.9775,-0.2588,0.0977,-0.0534,27.9938,21.4313,-30.1313,,0.0041440000000001476,1.0735339165578328,0.8900017134365624,non_fall
6.249996,-0.3819,-0.2261,0.9775,-0.0647,-0.0301,-0.1484,27.9938,21.4313,-30.1313,,0.012049000000000198,1.0735339165578328,0.8364407419744776,non_fall
6.253803,0.2853,-0.1546,-0.3172,-0.0647,-0.0301,-0.1484,27.9938,21.4313,-30.1313,,0.0038069999999992277,0.45377647581160485,0.7672352161588145,non_fall
6.256521,0.2853,-0.1546,-0.3172,-0.0647,-0.0301,-0.1484,27.9938,21.4313,-30.1313,,0.0027180000000006643,0.45377647581160485,0.6875599665427649,non_fall
6.263791,0.2853,-0.1546,-0.3172,-0.0647,-0.0301,-0.1484,28.05,22.5375,-29.1938,,0.00727000000000011,0.45377647581160485,0.6031957152695652,non_fall
6.296771,0.2853,-0.1546,-0.3172,-0.0647,-0.0301,-0.1484,28.05,22.5375,-29.1938,,0.03297999999999934,0.45377647581160485,0.5200490269816114,non_fall
6.301793,0.2853,-0.1546,-0.3172,-0.0647,-0.0301,-0.1484,28.05,22.5375,-29.1938,,0.005022000000000304,0.45377647581160485,0.4437170765539334,non_fall
6.310086,0.2853,-0.1546,-0.3172,-0.0647,-0.0301,-0.1484,28.05,22.5375,-29.1938,,0.008293000000000106,0.45377647581160485,0.3791268079244904,non_fall
6.313106,-0.1961,-0.1338,-0.0833,-0.0647,-0.0301,-0.1484,28.05,22.5375,-29.1938,,0.0030200000000002447,0.25158803628153703,0.330261457280696,non_fall
6.322246,-0.1961,-0.1338,-0.0833,-0.0647,-0.0301,-0.1484,28.0688,23.5688,-28.3688,,0.009139999999999482,0.25158803628153703,0.2999774772794061,non_fall
6.331323,-0.1961,-0.1338,-0.0833,-0.0436,-0.335,-0.1973,28.0688,23.5688,-28.3688,,0.009077000000000446,0.25158803628153703,0.2899109826449911,non_fall
6.363578,-0.1961,-0.1338,-0.0833,-0.0436,-0.335,-0.1973,28.0688,23.5688,-28.3688,,0.032255000000000145,0.25158803628153703,0.30047102911520945,non_fall
6.367298,-0.1961,-0.1338,-0.0833,-0.0436,-0.335,-0.1973,28.0688,23.5688,-28.3688,,0.0037199999999995015,0.25158803628153703,0.33091404484619064,non_fall
6.37014,-0.1961,-0.1338,-0.0833,-0.0436,-0.335,-0.1973,28.0688,23.5688,-28.3688,,0.0028420000000002332,0.25158803628153703,0.3794887439534841,non_fall
6.372255,0.2782,-0.0826,-0.6397,-0.0436,-0.335,-0.1973,28.0688,23.5688,-28.3688,,0.002114999999999867,0.7024486386918264,0.44363448810288836,non_fall
6.390869,0.2782,-0.0826,-0.6397,-0.0885,-0.1685,-0.2402,28.0688,23.5688,-28.3688,,0.018614000000000352,0.7024486386918264,0.5202094293123164,non_fall
6.401601,0.2782,-0.0826,-0.6397,-0.0885,-0.1685,-0.2402,28.0688,23.5688,-28.3688,,0.010731999999999964,0.7024486386918264,0.6057206667449558,non_fall
6.404047,0.2782,-0.0826,-0.6397,-0.0885,-0.1685,-0.2402,28.1813,24.675,-27.3938,,0.002445999999999948,0.7024486386918264,0.6965312822096695,non_fall
6.430806,0.2782,-0.0826,-0.6397,-0.0885,-0.1685,-0.2402,28.1813,24.675,-27.3938,,0.02675899999999931,0.7024486386918264,0.7890297221542875,non_fall
6.434412,0.2782,-0.0826,-0.6397,-0.0885,-0.1685,-0.2402,28.1813,24.675,-27.3938,,0.003606000000000442,0.7024486386918264,0.8797608610228231,non_fall
6.436555,-0.3106,0.5048,-0.9089,-0.0885,-0.1685,-0.2402,28.1813,24.675,-27.3938,,0.002143000000000228,1.0850781584752318,0.9655279580737322,non_fall
6.449236,-0.3106,0.5048,-0.9089,-0.0525,-0.1707,0.0458,28.1813,24.675,-27.3938,,0.01268099999999972,1.0850781584752318,1.0434767529052396,non_fall
6.46138,-0.3106,0.5048,-0.9089,-0.0525,-0.1707,0.0458,28.1813,24.675,-27.3938,,0.012144000000000155,1.0850781584752318,1.1111691502251275,non_fall
6.464043,-0.3106,0.5048,-0.9089,-0.0525,-0.1707,0.0458,28.05,25.5375,-26.6438,,0.002663000000000082,1.0850781584752318,1.1666496541772293,non_fall
6.491488,-0.3106,0.5048,-0.9089,-0.0525,-0.1707,0.0458,28.05,25.5375,-26.6438,,0.027445000000000164,1.0850781584752318,1.2085062015511698,non_fall
6.494642,-0.3106,0.5048,-0.9089,-0.0525,-0.1707,0.0458,28.05,25.5375,-26.6438,,0.003153999999999435,1.0850781584752318,1.2359265786309233,non_fall
6.49637,-0.8218,0.8987,0.6588,-0.0525,-0.1707,0.0458,28.05,25.5375,-26.6438,,0.0017279999999999518,1.3845701029561486,1.2487482273859536,non_fall
6.522713,-0.8218,0.8987,0.6588,-0.0525,-0.1707,0.0458,27.9,26.1938,-26.2313,,0.02634300000000067,1.3845701029561486,1.2474916672336422,non_fall
6.526672,-0.8218,0.8987,0.6588,-0.0525,-0.1707,0.0458,27.9,26.1938,-26.2313,,0.003958999999999158,1.3845701029561486,1.2333593062071053,non_fall
6.529956,-0.8218,0.8987,0.6588,0.2342,-0.3279,0.2327,27.9,26.1938,-26.2313,,0.0032840000000007308,1.3845701029561486,1.2081778646525683,non_fall
6.55213,-0.8218,0.8987,0.6588,0.2342,-0.3279,0.2327,27.9,26.1938,-26.2313,,0.022173999999999694,1.3845701029561486,1.1742678699393845,non_fall
6.55555,-0.8218,0.8987,0.6588,0.2342,-0.3279,0.2327,27.9,26.1938,-26.2313,,0.0034200000000002007,1.3845701029561486,1.1342373225504923,non_fall
6.557401,0.1884,0.6519,0.2766,0.2342,-0.3279,0.2327,27.9,26.1938,-26.2313,,0.001850999999999381,0.73278627852874,1.0907157312997107,non_fall
6.591748,0.1884,0.6519,0.2766,0.2342,-0.3279,0.2327,27.9,26.1938,-26.2313,,0.03434700000000035,0.73278627852874,1.046065341591413,non_fall
6.595491,0.1884,0.6519,0.2766,0.3298,0.013,0.0041,27.9,26.1938,-26.2313,,0.003743000000000052,0.73278627852874,1.0021220442580818,non_fall
6.605545,0.1884,0.6519,0.2766,0.3298,0.013,0.0041,27.9,26.1938,-26.2313,,0.01005400000000023,0.73278627852874,0.9600206494589455,non_fall
6.609688,0.1884,0.6519,0.2766,0.3298,0.013,0.0041,27.675,26.475,-26.1,,0.004143000000000008,0.73278627852874,0.9201438522202413,non_fall
6.61295,0.7394,0.6392,-0.067,0.3298,0.013,0.0041,27.675,26.475,-26.1,,0.003261999999999432,0.9796826016623954,0.8822062036801553,non_fall
6.616504,0.7394,0.6392,-0.067,0.3298,0.013,0.0041,27.675,26.475,-26.1,,0.003554000000000279,0.9796826016623954,0.8454537305859828,non_fall
6.650451,0.7394,0.6392,-0.067,0.3155,0.1206,-0.0751,27.675,26.475,-26.1,,0.033947000000000394,0.9796826016623954,0.8089353676548485,non_fall
6.655006,0.7394,0.6392,-0.067,0.3155,0.1206,-0.0751,27.675,26.475,-26.1,,0.004554999999999865,0.9796826016623954,0.7717896234624289,non_fall
6.662106,0.7394,0.6392,-0.067,0.3155,0.1206,-0.0751,27.5438,26.625,-26.1563,,0.00709999999999944,0.9796826016623954,0.7334907555712209,non_fall
6.66553,0.7394,0.6392,-0.067,0.3155,0.1206,-0.0751,27.5438,26.625,-26.1563,,0.0034240000000007598,0.9796826016623954,0.6940113267497521,non_fall
6.673114,0.0859,0.4225,-0.1711,0.3155,0.1206,-0.0751,27.5438,26.625,-26.1563,,0.007583999999999591,0.46385371616491333,0.6538785924304517,non_fall
6.678382,0.0859,0.4225,-0.1711,0.3155,0.1206,-0.0751,27.5438,26.625,-26.1563,,0.00526800000000005,0.46385371616491333,0.6141264913124148,non_fall
6.695387,0.0859,0.4225,-0.1711,0.3155,0.1206,-0.0751,27.5438,26.625,-26.1563,,0.01700500000000016,0.46385371616491333,0.5761671348076901,non_fall
6.724082,0.0859,0.4225,-0.1711,0.3155,0.1206,-0.0751,27.3188,26.4938,-26.2125,,0.028694999999999915,0.46385371616491333,0.5416183473022499,non_fall
6.728665,0.0859,0.4225,-0.1711,0.3155,0.1206,-0.0751,27.3188,26.4938,-26.2125,,0.004583000000000226,0.46385371616491333,0.5121234050148451,non_fall
6.73073,0.0859,0.4225,-0.1711,0.1231,0.1144,0.0076,27.3188,26.4938,-26.2125,,0.0020649999999999835,0.46385371616491333,0.4891891769508846,non_fall
6.732928,-0.2729,0.3074,-0.2866,0.1231,0.1144,0.0076,27.3188,26.4938,-26.2125,,0.0021979999999999222,0.501107503436139,0.4740563810353675,non_fall
6.735187,-0.2729,0.3074,-0.2866,0.1231,0.1144,0.0076,27.3188,26.4938,-26.2125,,0.002258999999999567,0.501107503436139,0.46760548635983973,non_fall
6.76376,-0.2729,0.3074,-0.2866,0.1231,0.1144,0.0076,27.3188,26.4938,-26.2125,,0.028573000000000626,0.501107503436139,0.47029546765310676,non_fall
6.790236,-0.2729,0.3074,-0.2866,0.1231,0.1144,0.0076,27.3188,26.4938,-26.2125,,0.026475999999999722,0.501107503436139,0.4821301226506782,non_fall
6.793415,-0.2729,0.3074,-0.2866,0.1231,0.1144,0.0076,27.3188,26.4938,-26.2125,,0.003179000000000265,0.501107503436139,0.5026473028397392,non_fall
6.794835,-0.2729,0.3074,-0.2866,0.3063,0.0346,0.2307,27.3188,26.4938,-26.2125,,0.0014199999999995327,0.501107503436139,0.5309288619413304,non_fall
6.796727,-0.3384,0.1158,0.436,0.3063,0.0346,0.2307,27.3188,26.4938,-26.2125,,0.0018919999999997827,0.5639327974147273,0.5656317893442874,non_fall
6.801267,-0.3384,0.1158,0.436,0.3063,0.0346,0.2307,27.2625,26.2313,-26.5125,,0.004540000000000433,0.5639327974147273,0.6050426013387951,non_fall
6.831008,-0.3384,0.1158,0.436,0.3063,0.0346,0.2307,27.2625,26.2313,-26.5125,,0.029740999999999573,0.5639327974147273,0.6471570545269395,non_fall
6.851272,-0.3384,0.1158,0.436,0.3459,0.077,0.0285,27.2625,26.2313,-26.5125,,0.02026400000000006,0.5639327974147273,0.6897855434628275,non_fall
6.85597,0.8035,0.2811,0.09,0.3459,0.077,0.0285,27.2625,26.2313,-26.5125,,0.004698000000000313,0.855996179898018,0.7306809582408984,non_fall
6.859721,0.8035,0.2811,0.09,0.3459,0.077,0.0285,27.2625,26.2313,-26.5125,,0.003751000000000282,0.855996179898018,0.7676803232772429,non_fall
6.862183,0.8035,0.2811,0.09,0.3459,0.077,0.0285,27.2625,26.2313,-26.5125,,0.00246199999999952,0.855996179898018,0.7988459358555831,non_fall
6.864236,0.8035,0.2811,0.09,0.3459,0.077,0.0285,27.2813,25.8563,-26.7563,,0.0020530000000000825,0.855996179898018,0.8225893781447213,non_fall
6.89611,0.8035,0.2811,0.09,0.3459,0.077,0.0285,27.2813,25.8563,-26.7563,,0.03187400000000018,0.855996179898018,0.8377647276486436,non_fall
6.900568,0.8035,0.2811,0.09,0.3459,0.077,0.0285,27.2813,25.8563,-26.7563,,0.004457999999999629,0.855996179898018,0.8437239311370465,non_fall
6.91091,0.8035,0.2811,0.09,0.3459,0.077,0.0285,27.2813,25.8563,-26.7563,,0.010342000000000517,0.855996179898018,0.8403342461677541,non_fall
6.914905,0.7362,0.0417,0.1543,0.3459,0.077,0.0285,27.2813,25.8563,-26.7563,,0.003994999999999749,0.7533510602634074,0.8279628128537417,non_fall
6.920675,0.7362,0.0417,0.1543,0.3459,0.077,0.0285,27.4125,25.275,-27.0938,,0.005770000000000053,0.7533510602634074,0.8074364493835059,non_fall
6.929284,0.7362,0.0417,0.1543,0.244,0.227,0.0023,27.4125,25.275,-27.0938,,0.008608999999999867,0.7533510602634074,0.7799856106773949,non_fall
6.963684,0.7362,0.0417,0.1543,0.244,0.227,0.0023,27.4125,25.275,-27.0938,,0.034399999999999764,0.7533510602634074,0.7471798068833183,non_fall
6.967908,0.7362,0.0417,0.1543,0.244,0.227,0.0023,27.4125,25.275,-27.0938,,0.004224000000000672,0.7533510602634074,0.7108580207509103,non_fall
6.970693,0.7362,0.0417,0.1543,0.244,0.227,0.0023,27.4125,25.275,-27.0938,,0.0027849999999993713,0.7533510602634074,0.6730535036215112,non_fall
6.973006,0.383,0.1578,0.4286,0.244,0.227,0.0023,27.4125,25.275,-27.0938,,0.0023130000000000095,0.5960602318558084,0.6359099732901883,non_fall
6.990968,0.383,0.1578,0.4286,0.1664,0.3345,0.0241,27.4125,25.275,-27.0938,,0.01796199999999981,0.5960602318558084,0.6015868119670621,non_fall
7.001227,0.383,0.1578,0.4286,0.1664,0.3345,0.0241,27.5438,24.6188,-27.3938,,0.010259000000000462,0.5960602318558084,0.5721535799001524,non_fall
7.004077,0.383,0.1578,0.4286,0.1664,0.3345,0.0241,27.5438,24.6188,-27.3938,,0.002849999999999575,0.5960602318558084,0.5494770427586737,non_fall
7.031985,0.457,0.1374,-0.224,0.1664,0.3345,0.0241,27.5438,24.6188,-27.3938,,0.027908000000000044,0.5271657803765339,0.5351057354201182,non_fall
7.035895,0.457,0.1374,-0.224,0.1664,0.3345,0.0241,27.5438,24.6188,-27.3938,,0.003910000000000302,0.5271657803765339,0.5301583627610428,non_fall
7.038183,0.457,0.1374,-0.224,0.1664,0.3345,0.0241,27.5438,24.6188,-27.3938,,0.0022880000000000678,0.5271657803765339,0.5352239838904281,non_fall
7.048256,0.457,0.1374,-0.224,0.2676,0.2174,0.0686,27.5438,24.6188,-27.3938,,0.01007300000000022,0.5271657803765339,0.55028372377002,non_fall
7.062968,0.457,0.1374,-0.224,0.2676,0.2174,0.0686,27.5438,24.6188,-27.3938,,0.014711999999999392,0.5271657803765339,0.5746647637402487,non_fall
7.066633,0.457,0.1374,-0.224,0.2676,0.2174,0.0686,27.7875,24.0563,-27.525,,0.0036650000000006955,0.5271657803765339,0.6070370007565017,non_fall
7.09219,0.457,0.1374,-0.224,0.2676,0.2174,0.0686,27.7875,24.0563,-27.525,,0.025557000000000052,0.5271657803765339,0.6454607929534909,non_fall
7.096537,0.457,0.1374,-0.224,0.2676,0.2174,0.0686,27.7875,24.0563,-27.525,,0.004346999999999213,0.5271657803765339,0.6874901172031876,non_fall
7.099733,0.8041,0.2919,0.1952,0.2676,0.2174,0.0686,27.7875,24.0563,-27.525,,0.0031959999999999766,0.8774311710897899,0.7303285565596682,non_fall
7.122842,0.8041,0.2919,0.1952,0.2676,0.2174,0.0686,27.7875,24.0563,-27.525,,0.023109000000000712,0.8774311710897899,0.7710261252186864,non_fall
7.126806,0.8041,0.2919,0.1952,0.2676,0.2174,0.0686,28.2188,23.4,-27.5625,,0.0039639999999998565,0.8774311710897899,0.8066958199026941,non_fall
7.131713,0.8041,0.2919,0.1952,0.2529,0.6208,0.1378,28.2188,23.4,-27.5625,,0.004907000000000217,0.8774311710897899,0.8347244504197165,non_fall
7.151841,0.8041,0.2919,0.1952,0.2529,0.6208,0.1378,28.2188,23.4,-27.5625,,0.0201279999999997,0.8774311710897899,0.8529551186524498,non_fall
7.155622,0.8041,0.2919,0.1952,0.2529,0.6208,0.1378,28.2188,23.4,-27.5625,,0.0037810000000000343,0.8774311710897899,0.8598264959323711,non_fall
7.157994,0.6303,0.4406,-0.2646,0.2529,0.6208,0.1378,28.2188,23.4,-27.5625,,0.002372000000000263,0.8132770807049711,0.8544624620397527,non_fall
7.195108,0.6303,0.4406,-0.2646,0.2529,0.6208,0.1378,28.2188,23.4,-27.5625,,0.03711399999999987,0.8132770807049711,0.8367119057578237,non_fall
7.199557,0.6303,0.4406,-0.2646,0.3115,0.3384,0.1145,28.2188,23.4,-27.5625,,0.004449000000000147,0.8132770807049711,0.8071418588730065,non_fall
7.203045,0.6303,0.4406,-0.2646,0.3115,0.3384,0.1145,28.7438,22.7438,-27.5438,,0.0034879999999999356,0.8132770807049711,0.7669879384953369,non_fall
7.206793,0.6303,0.4406,-0.2646,0.3115,0.3384,0.1145,28.7438,22.7438,-27.5438,,0.0037479999999998626,0.8132770807049711,0.7180653343958794,non_fall
7.214671,0.6303,0.4406,-0.2646,0.3115,0.3384,0.1145,28.7438,22.7438,-27.5438,,0.00787799999999983,0.8132770807049711,0.6626432459377827,non_fall
7.218262,0.1461,0.4107,0.0089,0.3115,0.3384,0.1145,28.7438,22.7438,-27.5438,,0.003591000000000122,0.43600333714319206,0.6032878886301424,non_fall
7.249861,0.1461,0.4107,0.0089,0.2012,0.1179,0.2014,28.7438,22.7438,-27.5438,,0.03159899999999993,0.43600333714319206,0.5426845575141229,non_fall
7.254066,0.1461,0.4107,0.0089,0.2012,0.1179,0.2014,28.7438,22.7438,-27.5438,,0.004204999999999792,0.43600333714319206,0.4834552678146995,non_fall
7.262208,0.1461,0.4107,0.0089,0.2012,0.1179,0.2014,29.2313,22.125,-27.675,,0.008142000000000316,0.43600333714319206,0.42799073188007036,non_fall
7.265308,0.1461,0.4107,0.0089,0.2012,0.1179,0.2014,29.2313,22.125,-27.675,,0.0030999999999998806,0.43600333714319206,0.37831172007794445,non_fall
7.272065,-0.2081,0.1663,-0.0142,0.2012,0.1179,0.2014,29.2313,22.125,-27.675,,0.006756999999999458,0.2667638281326762,0.3359679190456282,non_fall
7.27606,-0.2081,0.1663,-0.0142,0.2012,0.1179,0.2014,29.2313,22.125,-27.675,,0.003995000000000637,0.2667638281326762,0.3019767912773684,non_fall
7.299779,-0.2081,0.1663,-0.0142,0.2012,0.1179,0.2014,29.2313,22.125,-27.675,,0.023718999999999824,0.2667638281326762,0.27680230166832986,non_fall
7.322422,-0.2081,0.1663,-0.0142,0.2012,0.1179,0.2014,29.6438,21.5625,-27.5625,,0.022643000000000413,0.2667638281326762,0.2603719760252297,non_fall
7.326747,-0.2081,0.1663,-0.0142,0.2012,0.1179,0.2014,29.6438,21.5625,-27.5625,,0.00432499999999969,0.2667638281326762,0.2521287225431341,non_fall
7.331497,-0.2081,0.1663,-0.0142,0.1891,0.016,0.1595,29.6438,21.5625,-27.5625,,0.004749999999999588,0.2667638281326762,0.2511113646348178,non_fall
7.334466,0.108,0.2197,0.0412,0.1891,0.016,0.1595,29.6438,21.5625,-27.5625,,0.0029690000000002215,0.24825295567223366,0.2560562025564639,non_fall
7.337956,0.108,0.2197,0.0412,0.1891,0.016,0.1595,29.6438,21.5625,-27.5625,,0.003490000000000215,0.24825295567223366,0.26551171176173405,non_fall
7.365975,0.108,0.2197,0.0412,0.1891,0.016,0.1595,29.6438,21.5625,-27.5625,,0.028018999999999572,0.24825295567223366,0.2779591070671521,non_fall
7.391042,0.108,0.2197,0.0412,0.133,-0.0,0.2427,29.6438,21.5625,-27.5625,,0.02506699999999995,0.24825295567223366,0.2919318907846808,non_fall
7.396192,-0.2156,0.2624,-0.1881,0.133,-0.0,0.2427,29.6438,21.5625,-27.5625,,0.005150000000000432,0.38822510222807594,0.30612685993853195,non_fall
7.400253,-0.2156,0.2624,-0.1881,0.133,-0.0,0.2427,29.6438,21.5625,-27.5625,,0.004061000000000092,0.38822510222807594,0.3194974233746682,non_fall
7.402957,-0.2156,0.2624,-0.1881,0.133,-0.0,0.2427,29.6438,21.5625,-27.5625,,0.0027039999999995956,0.38822510222807594,0.33131874528753624,non_fall
7.40566,-0.2156,0.2624,-0.1881,0.133,-0.0,0.2427,30.1313,20.9625,-27.4125,,0.002703000000000344,0.38822510222807594,0.3412151193669089,non_fall
7.431867,-0.2156,0.2624,-0.1881,0.133,-0.0,0.2427,30.1313,20.9625,-27.4125,,0.026206999999999425,0.38822510222807594,0.34914407334173253,non_fall
7.435813,-0.2156,0.2624,-0.1881,0.133,-0.0,0.2427,30.1313,20.9625,-27.4125,,0.003946000000000005,0.38822510222807594,0.3553381015606202,non_fall
7.454313,-0.2156,0.2624,-0.1881,0.1408,-0.0922,0.2339,30.1313,20.9625,-27.4125,,0.018500000000000405,0.38822510222807594,0.36021181708291455,non_fall
7.458994,-0.0608,0.2493,-0.0781,0.1408,-0.0922,0.2339,30.1313,20.9625,-27.4125,,0.004680999999999713,0.26822889478950623,0.364248448926947,non_fall
7.462104,-0.0608,0.2493,-0.0781,0.1408,-0.0922,0.2339,30.1313,20.9625,-27.4125,,0.0031100000000003902,0.26822889478950623,0.36788429208890056,non_fall
7.464387,-0.0608,0.2493,-0.0781,0.1408,-0.0922,0.2339,30.6188,20.4563,-27.3188,,0.002283000000000257,0.26822889478950623,0.37141187607915616,non_fall
7.497886,-0.0608,0.2493,-0.0781,0.1408,-0.0922,0.2339,30.6188,20.4563,-27.3188,,0.033498999999999945,0.26822889478950623,0.374920730397165,non_fall
7.501744,-0.0608,0.2493,-0.0781,0.1408,-0.0922,0.2339,30.6188,20.4563,-27.3188,,0.003858000000000139,0.26822889478950623,0.3782879639313229,non_fall
7.512808,0.2967,0.2665,-0.2359,0.1408,-0.0922,0.2339,30.6188,20.4563,-27.3188,,0.011063999999999297,0.46335941773098777,0.3812204465255994,non_fall
7.516964,0.2967,0.2665,-0.2359,0.1408,-0.0922,0.2339,30.6188,20.4563,-27.3188,,0.0041560000000000485,0.46335941773098777,0.3833385884603678,non_fall
7.52441,0.2967,0.2665,-0.2359,0.1408,-0.0922,0.2339,31.1813,19.875,-27.3188,,0.007445999999999842,0.46335941773098777,0.3842817399586129,non_fall
7.531887,0.2967,0.2665,-0.2359,0.0803,-0.0861,0.1616,31.1813,19.875,-27.3188,,0.007477000000000622,0.46335941773098777,0.38381027201605,non_fall
7.565193,0.2967,0.2665,-0.2359,0.0803,-0.0861,0.1616,31.1813,19.875,-27.3188,,0.033305999999999614,0.46335941773098777,0.38188094543412765,non_fall
7.569238,0.2967,0.2665,-0.2359,0.0803,-0.0861,0.1616,31.1813,19.875,-27.3188,,0.00404500000000052,0.46335941773098777,0.3786789613083866,non_fall
7.571396,0.2967,0.2665,-0.2359,0.0803,-0.0861,0.1616,31.1813,19.875,-27.3188,,0.00215799999999966,0.46335941773098777,0.37459951432251426,non_fall
7.573253,0.2194,0.1741,-0.0554,0.0803,-0.0861,0.1616,31.1813,19.875,-27.3188,,0.0018570000000002196,0.2855106477874337,0.3701818552791941,non_fall
7.590226,0.2194,0.1741,-0.0554,0.0885,-0.051,0.1441,31.1813,19.875,-27.3188,,0.016973000000000127,0.2855106477874337,0.36600866415215977,non_fall
7.60067,0.2194,0.1741,-0.0554,0.0885,-0.051,0.1441,31.1813,19.875,-27.3188,,0.010443999999999676,0.2855106477874337,0.362591199477788,non_fall
7.603135,0.2194,0.1741,-0.0554,0.0885,-0.051,0.1441,31.5938,19.1063,-27.45,,0.0024649999999999395,0.2855106477874337,0.3602638266007123,non_fall
7.632293,0.2194,0.1741,-0.0554,0.0885,-0.051,0.1441,31.5938,19.1063,-27.45,,0.029157999999999795,0.2855106477874337,0.3591089280248731,non_fall
7.636035,0.2194,0.1741,-0.0554,0.0885,-0.051,0.1441,31.5938,19.1063,-27.45,,0.003741999999999912,0.2855106477874337,0.3589260878516625,non_fall
7.639391,0.2461,0.2183,-0.2114,0.0885,-0.051,0.1441,31.5938,19.1063,-27.45,,0.0033560000000001367,0.3910371593595678,0.3592502893744054,non_fall
7.653329,0.2461,0.2183,-0.2114,0.0449,-0.0325,0.0826,31.5938,19.1063,-27.45,,0.01393800000000045,0.3910371593595678,0.35941471149633664,non_fall
7.660992,0.2461,0.2183,-0.2114,0.0449,-0.0325,0.0826,31.5938,19.1063,-27.45,,0.007662999999999975,0.3910371593595678,0.35864611935721025,non_fall
7.66291,0.2461,0.2183,-0.2114,0.0449,-0.0325,0.0826,31.9875,18.6938,-27.4313,,0.0019179999999998643,0.3910371593595678,0.35617629297009934,non_fall
7.692163,0.2461,0.2183,-0.2114,0.0449,-0.0325,0.0826,31.9875,18.6938,-27.4313,,0.02925299999999975,0.3910371593595678,0.3513521237802261,non_fall
7.69596,0.2461,0.2183,-0.2114,0.0449,-0.0325,0.0826,31.9875,18.6938,-27.4313,,0.0037970000000004944,0.3910371593595678,0.34372922656783716,non_fall
7.698424,0.2605,0.1229,-0.1902,0.0449,-0.0325,0.0826,31.9875,18.6938,-27.4313,,0.0024639999999997997,0.34516764042998005,0.33313777975390996,non_fall
7.72236,0.2605,0.1229,-0.1902,0.0449,-0.0325,0.0826,32.1938,18.15,-27.6188,,0.023935999999999957,0.34516764042998005,0.31971380758969026,non_fall
7.727008,0.2605,0.1229,-0.1902,0.0449,-0.0325,0.0826,32.1938,18.15,-27.6188,,0.004647999999999541,0.34516764042998005,0.3038937000986937,non_fall
7.731239,0.2605,0.1229,-0.1902,-0.0063,0.0368,0.0754,32.1938,18.15,-27.6188,,0.004231000000000762,0.34516764042998005,0.28637406028980333,non_fall
7.750303,0.1787,-0.0097,0.0661,-0.0063,0.0368,0.0754,32.1938,18.15,-27.6188,,0.019063999999999304,0.1907799517769097,0.2680429172757951,non_fall
7.754037,0.1787,-0.0097,0.0661,-0.0063,0.0368,0.0754,32.1938,18.15,-27.6188,,0.00373400000000057,0.1907799517769097,0.2498920551304169,non_fall
7.755608,0.1787,-0.0097,0.0661,-0.0063,0.0368,0.0754,32.1938,18.15,-27.6188,,0.001570999999999323,0.1907799517769097,0.23292305282245288,non_fall
7.791997,0.1787,-0.0097,0.0661,-0.0063,0.0368,0.0754,32.1938,18.15,-27.6188,,0.03638900000000067,0.1907799517769097,0.21806009960267642,non_fall
7.796097,0.1787,-0.0097,0.0661,0.0683,-0.0153,0.0644,32.1938,18.15,-27.6188,,0.004099999999999326,0.1907799517769097,0.20607991242960005,non_fall
7.806387,0.1787,-0.0097,0.0661,0.0683,-0.0153,0.0644,32.4,17.6063,-27.6375,,0.010290000000000354,0.1907799517769097,0.19756421782199227,non_fall
7.811427,0.1787,-0.0097,0.0661,0.0683,-0.0153,0.0644,32.4,17.6063,-27.6375,,0.0050400000000001555,0.1907799517769097,0.19287529182108235,non_fall
7.814,0.2138,0.0373,0.0613,0.0683,-0.0153,0.0644,32.4,17.6063,-27.6375,,0.0025729999999999364,0.22552033167765606,0.192151289742976,non_fall
7.817052,0.2138,0.0373,0.0613,0.0683,-0.0153,0.0644,32.4,17.6063,-27.6375,,0.0030520000000002767,0.22552033167765606,0.19531585935057064,non_fall
7.851346,0.2138,0.0373,0.0613,0.0683,-0.0153,0.0644,32.4,17.6063,-27.6375,,0.03429400000000005,0.22552033167765606,0.20209582528524234,non_fall
7.855914,0.2138,0.0373,0.0613,-0.0082,0.0469,0.0224,32.4,17.6063,-27.6375,,0.0045679999999999055,0.22552033167765606,0.21204158365014428,non_fall
7.86242,0.2138,0.0373,0.0613,-0.0082,0.0469,0.0224,32.6438,17.1938,-27.6938,,0.006505999999999901,0.22552033167765606,0.22454701595553372,non_fall
7.86585,0.2138,0.0373,0.0613,-0.0082,0.0469,0.0224,32.6438,17.1938,-27.6938,,0.003429999999999822,0.22552033167765606,0.23886850441674765,non_fall
7.872797,0.1455,0.0272,-0.2057,-0.0082,0.0469,0.0224,32.6438,17.1938,-27.6938,,0.0069470000000002585,0.25342174334496237,0.2541450920482555,non_fall
7.877075,0.1455,0.0272,-0.2057,-0.0082,0.0469,0.0224,32.6438,17.1938,-27.6938,,0.004277999999999338,0.25342174334496237,0.2694233453835401,non_fall
7.896844,0.1455,0.0272,-0.2057,-0.0082,0.0469,0.0224,32.6438,17.1938,-27.6938,,0.019769000000000148,0.25342174334496237,0.2836908920891007,non_fall
7.922292,0.1455,0.0272,-0.2057,-0.0082,0.0469,0.0224,32.6438,17.1938,-27.6938,,0.025447999999999915,0.25342174334496237,0.2959220760188356,non_fall
7.926481,0.1455,0.0272,-0.2057,-0.0082,0.0469,0.0224,32.775,16.8938,-27.9,,0.00418900000000022,0.25342174334496237,0.30513778296438704,non_fall
7.931419,0.1455,0.0272,-0.2057,0.0355,0.0806,-0.0438,32.775,16.8938,-27.9,,0.004938000000000109,0.25342174334496237,0.31047905270295056,non_fall
7.935012,0.3115,-0.0393,0.1791,0.0355,0.0806,-0.0438,32.775,16.8938,-27.9,,0.0035930000000004014,0.36146030210799085,0.3112904004678821,non_fall
7.938424,0.3115,-0.0393,0.1791,0.0355,0.0806,-0.0438,32.775,16.8938,-27.9,,0.0034119999999999706,0.36146030210799085,0.30720417731442823,non_fall
7.964079,0.3115,-0.0393,0.1791,0.0355,0.0806,-0.0438,32.775,16.8938,-27.9,,0.02565499999999954,0.36146030210799085,0.2982131586860594,non_fall
7.99432,0.3115,-0.0393,0.1791,0.0208,0.1058,0.0586,32.775,16.8938,-27.9,,0.030241000000000184,0.36146030210799085,0.2847168348229192,non_fall
7.999303,0.3115,-0.0393,0.1791,0.0208,0.1058,0.0586,32.775,16.8938,-27.9,,0.004983000000000182,0.36146030210799085,0.26752888701979183,non_fall
8.001659,0.3115,-0.0393,0.1791,0.0208,0.1058,0.0586,32.775,16.8938,-27.9,,0.0023559999999998027,0.36146030210799085,0.24783889564106143,non_fall
8.003819,-0.0445,-0.0324,0.0803,0.0208,0.1058,0.0586,32.775,16.8938,-27.9,,0.0021599999999999397,0.09735553399781648,0.22712937082675272,non_fall
8.006462,-0.0445,-0.0324,0.0803,0.0208,0.1058,0.0586,32.9062,16.5938,-27.9563,,0.002643000000000839,0.09735553399781648,0.20705824409542234,non_fall
8.029784,-0.0445,-0.0324,0.0803,0.0208,0.1058,0.0586,32.9062,16.5938,-27.9563,,0.02332199999999851,0.09735553399781648,0.1893244124952335,non_fall
8.049429,-0.0445,-0.0324,0.0803,0.0208,0.1058,0.0586,32.9062,16.5938,-27.9563,,0.01964500000000058,0.09735553399781648,0.17553631494156066,non_fall
8.053823,0.0223,0.1021,-0.1986,0.0208,0.1058,0.0586,32.9062,16.5938,-27.9563,,0.004393999999999565,0.22441849299912875,0.16709916436557248,non_fall
8.057508,0.0223,0.1021,-0.1986,-0.0308,0.0005,0.0507,32.9062,16.5938,-27.9563,,0.0036850000000008265,0.22441849299912875,0.16512756853874475,non_fall
8.060712,0.0223,0.1021,-0.1986,-0.0308,0.0005,0.0507,32.9062,16.5938,-27.9563,,0.0032040000000002067,0.22441849299912875,0.17038153269893022,non_fall
8.062729,0.0223,0.1021,-0.1986,-0.0308,0.0005,0.0507,32.9813,16.3313,-27.975,,0.0020169999999986032,0.22441849299912875,0.18321919324995425,non_fall
8.097009,0.0223,0.1021,-0.1986,-0.0308,0.0005,0.0507,32.9813,16.3313,-27.975,,0.034280000000000754,0.22441849299912875,0.20356025035301123,non_fall
8.101162,0.0223,0.1021,-0.1986,-0.0308,0.0005,0.0507,32.9813,16.3313,-27.975,,0.004153000000000517,0.22441849299912875,0.2308584057718812,non_fall
8.113234,0.0223,0.1021,-0.1986,-0.058,-0.0174,0.0238,32.9813,16.3313,-27.975,,0.01207199999999986,0.22441849299912875,0.2640865145612735,non_fall
8.117453,0.0223,0.1021,-0.1986,-0.058,-0.0174,0.0238,32.9813,16.3313,-27.975,,0.004218999999999085,0.22441849299912875,0.3017424365561732,non_fall
8.120306,0.2427,0.2015,-0.1025,-0.058,-0.0174,0.0238,32.9813,16.3313,-27.975,,0.0028529999999999944,0.33168025265306345,0.3418854319272399,non_fall
8.122857,0.2427,0.2015,-0.1025,-0.058,-0.0174,0.0238,33.0188,16.125,-27.9563,,0.002551000000000414,0.33168025265306345,0.38221186555500825,non_fall
8.168256,0.2427,0.2015,-0.1025,-0.058,-0.0174,0.0238,33.0188,16.125,-27.9563,,0.045398999999999745,0.33168025265306345,0.42017534105456106,non_fall
8.172137,0.2427,0.2015,-0.1025,-0.058,-0.0174,0.0238,33.0188,16.125,-27.9563,,0.0038809999999998013,0.33168025265306345,0.4531511674271981,non_fall
8.174421,0.2427,0.2015,-0.1025,-0.058,-0.0174,0.0238,33.0188,16.125,-27.9563,,0.002284000000001285,0.33168025265306345,0.47863874699348885,non_fall
8.176499,0.6048,0.1682,0.2401,-0.058,-0.0174,0.0238,33.0188,16.125,-27.9563,,0.002077999999999136,0.6721028864690286,0.49448748661957914,non_fall
8.1908,0.6048,0.1682,0.2401,-0.009,0.0912,-0.0392,33.0188,16.125,-27.9563,,0.014300999999999675,0.6721028864690286,0.499122175825023,non_fall
8.203181,0.6048,0.1682,0.2401,-0.009,0.0912,-0.0392,33.0188,16.125,-27.9563,,0.012381000000001308,0.6721028864690286,0.49173540209015776,non_fall
8.205675,0.6048,0.1682,0.2401,-0.009,0.0912,-0.0392,33.0188,15.975,-28.0688,,0.002493999999998664,0.6721028864690286,0.4724127967540574,non_fall
8.229231,0.6048,0.1682,0.2401,-0.009,0.0912,-0.0392,33.0188,15.975,-28.0688,,0.02355600000000102,0.6721028864690286,0.44216521989924673,non_fall
8.232277,0.1046,0.03,0.15,-0.009,0.0912,-0.0392,33.0188,15.975,-28.0688,,0.003045999999999438,0.1853136800131064,0.4028591118081635,non_fall
8.234814,0.1046,0.03,0.15,-0.009,0.0912,-0.0392,33.0188,15.975,-28.0688,,0.0025370000000002335,0.1853136800131064,0.3570571144783981,non_fall
8.24958,0.1046,0.03,0.15,-0.0167,0.0924,-0.0474,33.0188,15.975,-28.0688,,0.014765999999999835,0.1853136800131064,0.307798832335508,non_fall
8.260895,0.1046,0.03,0.15,-0.0167,0.0924,-0.0474,33.0188,15.975,-28.0688,,0.011314999999999742,0.1853136800131064,0.25835953446740556,non_fall
8.263038,0.1046,0.03,0.15,-0.0167,0.0924,-0.0474,32.9813,15.975,-27.9563,,0.002143000000000228,0.1853136800131064,0.2120201936164524,non_fall
8.290968,0.0624,-0.006,0.1552,-0.0167,0.0924,-0.0474,32.9813,15.975,-27.9563,,0.027929999999999566,0.16738219738072505,0.17186968530571275,non_fall
8.294432,0.0624,-0.006,0.1552,-0.0167,0.0924,-0.0474,32.9813,15.975,-27.9563,,0.003464000000001022,0.16738219738072505,0.14064640725030342,non_fall
8.295801,0.0624,-0.006,0.1552,-0.0167,0.0924,-0.0474,32.9813,15.975,-27.9563,,0.0013690000000003977,0.16738219738072505,0.12061674032325154,non_fall
8.314657,0.0624,-0.006,0.1552,0.0349,0.1881,-0.0487,32.9813,15.975,-27.9563,,0.01885599999999954,0.16738219738072505,0.11348273791323336,non_fall
8.322411,0.0624,-0.006,0.1552,0.0349,0.1881,-0.0487,32.9813,15.975,-27.9563,,0.007754000000000261,0.16738219738072505,0.12031056854448076,non_fall
8.324534,0.0624,-0.006,0.1552,0.0349,0.1881,-0.0487,33.0188,15.975,-28.0125,,0.002122999999999209,0.16738219738072505,0.14147358773732266,non_fall
8.350046,0.0624,-0.006,0.1552,0.0349,0.1881,-0.0487,33.0188,15.975,-28.0125,,0.025512000000000867,0.16738219738072505,0.1766083673038187,non_fall
8.352576,0.0624,-0.006,0.1552,0.0349,0.1881,-0.0487,33.0188,15.975,-28.0125,,0.002529999999998367,0.16738219738072505,0.2245871711124834,non_fall
8.354056,0.2586,0.1855,-0.0711,0.0349,0.1881,-0.0487,33.0188,15.975,-28.0125,,0.001480000000000814,0.326097255431566,0.28351467681325293,non_fall
8.390666,0.2586,0.1855,-0.0711,0.0349,0.1881,-0.0487,33.0188,15.975,-28.0125,,0.03660999999999959,0.326097255431566,0.3507590246059433,non_fall
8.39399,0.2586,0.1855,-0.0711,-0.0804,0.2391,0.0625,33.0188,15.975,-28.0125,,0.003324000000000993,0.326097255431566,0.4230274221410178,non_fall
8.405158,0.2586,0.1855,-0.0711,-0.0804,0.2391,0.0625,33.0563,16.0875,-27.9563,,0.011167999999999623,0.326097255431566,0.4964952245161058,non_fall
8.409482,0.2586,0.1855,-0.0711,-0.0804,0.2391,0.0625,33.0563,16.0875,-27.9563,,0.004324000000000439,0.326097255431566,0.5669944415375535,non_fall
8.411974,-0.6481,-0.0609,-0.4522,-0.0804,0.2391,0.0625,33.0563,16.0875,-27.9563,,0.0024920000000001608,0.792607885401098,0.6302611382833055,non_fall
8.41483,-0.6481,-0.0609,-0.4522,-0.0804,0.2391,0.0625,33.0563,16.0875,-27.9563,,0.0028559999999995256,0.792607885401098,0.6822300209876816,non_fall
8.448739,-0.6481,-0.0609,-0.4522,-0.0804,0.2391,0.0625,33.0563,16.0875,-27.9563,,0.03390899999999952,0.792607885401098,0.7193516078714633,non_fall
8.45077,-0.6481,-0.0609,-0.4522,-0.1552,0.3859,0.0231,33.0563,16.0875,-27.9563,,0.00203100000000056,0.792607885401098,0.7388991477890686,non_fall
8.460359,-0.6481,-0.0609,-0.4522,-0.1552,0.3859,0.0231,33.3,16.0875,-27.675,,0.00958900000000007,0.792607885401098,0.7392329593095578,non_fall
8.462351,-0.6481,-0.0609,-0.4522,-0.1552,0.3859,0.0231,33.3,16.0875,-27.675,,0.0019919999999995497,0.792607885401098,0.7199972316470195,non_fall
8.470607,0.3671,0.173,-0.4261,-0.1552,0.3859,0.0231,33.3,16.0875,-27.675,,0.008255999999999375,0.5884323410554522,0.6822337143087016,non_fall
8.473229,0.3671,0.173,-0.4261,-0.1552,0.3859,0.0231,33.3,16.0875,-27.675,,0.0026220000000005683,0.5884323410554522,0.6284048539653919,non_fall
8.511055,0.3671,0.173,-0.4261,-0.0371,0.2026,-0.0004,33.3,16.0875,-27.675,,0.0378260000000008,0.5884323410554522,0.5623244374816009,non_fall
8.514004,0.3671,0.173,-0.4261,-0.0371,0.2026,-0.0004,33.3,16.0875,-27.675,,0.0029489999999992023,0.5884323410554522,0.48899590688527106,non_fall
8.518729,0.3671,0.173,-0.4261,-0.0371,0.2026,-0.0004,33.3,16.0875,-27.675,,0.004725000000000534,0.5884323410554522,0.4143579912051524,non_fall
8.520675,0.3671,0.173,-0.4261,-0.0371,0.2026,-0.0004,33.5813,16.2563,-27.3188,,0.0019460000000002253,0.5884323410554522,0.34493747293168303,non_fall
8.529449,-0.2238,0.0111,-0.0944,-0.0371,0.2026,-0.0004,33.5813,16.2563,-27.3188,,0.00877399999999895,0.24314812357902332,0.28741388489317854,non_fall
