time,ax,ay,az,wx,wy,wz,Bx,By,Bz,Unnamed: 10,time_diff,acc_mag,acc_mag_filtered,label
0.119148,0.0,0.0,0.0,0.0,0.0,0.0,0.0,0.0,0.0,,0.0,0.0,-0.00043988272697497425,non_fall
0.120027,0.0,0.0,0.0,0.0,0.0,0.0,0.0,0.0,0.0,,0.0008789999999999909,0.0,-0.0019107055079387524,non_fall
0.120824,0.0,0.0,0.0,0.0,0.0,0.0,0.0,0.0,0.0,,0.000797000000000006,0.0,-0.003177758409280951,non_fall
0.121559,0.0,0.0,0.0,0.0,0.0,0.0,0.0,0.0,0.0,,0.0007349999999999995,0.0,-0.004076472721764123,non_fall
0.122279,0.0,0.0,0.0,0.0,0.0,0.0,0.0,0.0,0.0,,0.0007199999999999984,0.0,-0.004454435835052172,non_fall
0.140506,0.0,0.0,0.0,0.0089,0.0505,-0.0256,0.0,0.0,0.0,,0.018226999999999993,0.0,-0.004179064164972452,non_fall
0.168222,0.0,0.0,0.0,0.0089,0.0505,-0.0256,0.0,0.0,0.0,,0.02771600000000002,0.0,-0.003146506170608053,non_fall
0.169834,0.0,0.0,0.0,0.0089,0.0505,-0.0256,0.0,0.0,0.0,,0.0016120000000000023,0.0,-0.0012913024423669252,non_fall
0.196423,0.0,0.0,0.0,0.0089,0.0505,-0.0256,0.0,0.0,0.0,,0.026588999999999974,0.0,0.0014041577494344499,non_fall
0.198184,0.0,0.0,0.0,0.0089,0.0505,-0.0256,0.0,0.0,0.0,,0.0017610000000000126,0.0,0.004901783595939032,non_fall
0.199263,0.0,0.0,0.0,0.0276,-0.0146,-0.0097,0.0,0.0,0.0,,0.0010789999999999966,0.0,0.009103233264078758,non_fall
0.200698,0.0,0.0,0.0,0.0276,-0.0146,-0.0097,0.0,0.0,0.0,,0.0014349999999999918,0.0,0.013850427806610643,non_fall
0.217416,0.0,0.0,0.0,0.0276,-0.0146,-0.0097,0.0,0.0,0.0,,0.01671800000000001,0.0,0.01893260912441453,non_fall
0.218891,0.0,0.0,0.0,0.0276,-0.0146,-0.0097,26.0063,34.0312,-15.0,,0.001475000000000004,0.0,0.02410070842488465,non_fall
0.255096,0.0452,0.0061,-0.0219,0.0276,-0.0146,-0.0097,26.0063,34.0312,-15.0,,0.03620499999999999,0.050595059047302236,0.029088585146411713,non_fall
0.257675,0.0452,0.0061,-0.0219,0.0276,-0.0146,-0.0097,26.0063,34.0312,-15.0,,0.002578999999999998,0.050595059047302236,0.033639111135142646,non_fall
0.258723,0.0452,0.0061,-0.0219,0.0276,-0.0146,-0.0097,26.0063,34.0312,-15.0,,0.0010479999999999934,0.050595059047302236,0.03753157830474745,non_fall
0.278303,0.0452,0.0061,-0.0219,0.0219,0.0036,-0.0165,26.0063,34.0312,-15.0,,0.019580000000000042,0.050595059047302236,0.04060619890129219,non_fall
0.282517,0.0452,0.0061,-0.0219,0.0219,0.0036,-0.0165,26.0063,34.0312,-15.0,,0.0042139999999999955,0.050595059047302236,0.0427819215981759,non_fall
0.285077,0.0452,0.0061,-0.0219,0.0219,0.0036,-0.0165,26.0813,34.4438,-14.925,,0.0025600000000000067,0.050595059047302236,0.04406510145760743,non_fall
0.299155,0.0452,0.0061,-0.0219,0.0219,0.0036,-0.0165,26.0813,34.4438,-14.925,,0.01407799999999998,0.050595059047302236,0.04454810616151129,non_fall
0.316779,0.0452,0.0061,-0.0219,0.0219,0.0036,-0.0165,26.0813,34.4438,-14.925,,0.017623999999999973,0.050595059047302236,0.04439830419995053,non_fall
0.319769,0.0201,-0.0184,0.0227,0.0219,0.0036,-0.0165,26.0813,34.4438,-14.925,,0.002990000000000048,0.035466322053463624,0.04383898266018731,non_fall
0.337675,0.0201,-0.0184,0.0227,0.0352,-0.0184,-0.0024,26.0813,34.4438,-14.925,,0.017905999999999977,0.035466322053463624,0.04312460830753401,non_fall
0.340964,0.0201,-0.0184,0.0227,0.0352,-0.0184,-0.0024,26.0813,34.4438,-14.925,,0.0032889999999999864,0.035466322053463624,0.04251341774540108,non_fall
0.343062,0.0201,-0.0184,0.0227,0.0352,-0.0184,-0.0024,25.9313,34.5563,-14.8688,,0.0020979999999999888,0.035466322053463624,0.04224046298712356,non_fall
0.36622,0.0201,-0.0184,0.0227,0.0352,-0.0184,-0.0024,25.9313,34.5563,-14.8688,,0.023158000000000012,0.035466322053463624,0.04249389045899104,non_fall
0.379074,0.0201,-0.0184,0.0227,0.0352,-0.0184,-0.0024,25.9313,34.5563,-14.8688,,0.012854000000000032,0.035466322053463624,0.043396519442854734,non_fall
0.38259,-0.0325,0.0385,0.0169,0.0352,-0.0184,-0.0024,25.9313,34.5563,-14.8688,,0.0035159999999999636,0.05314235598842038,0.044993920364520566,non_fall
0.397838,-0.0325,0.0385,0.0169,0.0548,-0.0264,-0.0017,25.9313,34.5563,-14.8688,,0.01524800000000004,0.05314235598842038,0.04724934963623034,non_fall
0.415603,-0.0325,0.0385,0.0169,0.0548,-0.0264,-0.0017,25.9313,34.5563,-14.8688,,0.017764999999999975,0.05314235598842038,0.0500452462416904,non_fall
0.418292,-0.0325,0.0385,0.0169,0.0548,-0.0264,-0.0017,25.9313,34.5563,-14.8688,,0.002688999999999997,0.05314235598842038,0.05319071728089647,non_fall
0.420512,-0.0325,0.0385,0.0169,0.0548,-0.0264,-0.0017,26.0438,34.6688,-14.9438,,0.0022199999999999998,0.05314235598842038,0.05643458026344012,non_fall
0.43364,-0.0428,0.0272,-0.0075,0.0548,-0.0264,-0.0017,26.0438,34.6688,-14.9438,,0.013128000000000029,0.05126333972733341,0.05948389034605385,non_fall
0.437502,-0.0428,0.0272,-0.0075,0.0548,-0.0264,-0.0017,26.0438,34.6688,-14.9438,,0.0038619999999999766,0.05126333972733341,0.062028147064230175,non_fall
0.479058,-0.0428,0.0272,-0.0075,0.0548,-0.0264,-0.0017,26.0438,34.6688,-14.9438,,0.04155599999999998,0.05126333972733341,0.06376931472410227,non_fall
0.482615,-0.0428,0.0272,-0.0075,0.0548,-0.0264,-0.0017,26.0438,34.6688,-14.9438,,0.0035570000000000324,0.05126333972733341,0.06445730787193989,non_fall
0.485086,-0.0428,0.0272,-0.0075,0.0912,-0.0278,-0.0108,26.0438,34.6688,-14.9438,,0.002471000000000001,0.05126333972733341,0.06392969302481268,non_fall
0.487923,-0.0428,0.0272,-0.0075,0.0912,-0.0278,-0.0108,26.0625,34.6875,-14.9438,,0.0028369999999999784,0.05126333972733341,0.062153116024464876,non_fall
0.498268,0.003,-0.0116,0.0781,0.0912,-0.0278,-0.0108,26.0625,34.6875,-14.9438,,0.010344999999999993,0.07901373298357697,0.059262517520293094,non_fall
0.501408,0.003,-0.0116,0.0781,0.0912,-0.0278,-0.0108,26.0625,34.6875,-14.9438,,0.003139999999999976,0.07901373298357697,0.05559278646453817,non_fall
0.535224,0.003,-0.0116,0.0781,0.0912,-0.0278,-0.0108,26.0625,34.6875,-14.9438,,0.03381600000000007,0.07901373298357697,0.0516965460968283,non_fall
0.537984,0.003,-0.0116,0.0781,0.2298,0.1129,0.1009,26.0625,34.6875,-14.9438,,0.0027599999999999847,0.07901373298357697,0.048341796485004355,non_fall
0.541031,0.003,-0.0116,0.0781,0.2298,0.1129,0.1009,26.2313,34.5938,-15.0,,0.003047000000000022,0.07901373298357697,0.046484463980395484,non_fall
0.543745,0.003,-0.0116,0.0781,0.2298,0.1129,0.1009,26.2313,34.5938,-15.0,,0.002713999999999994,0.07901373298357697,0.04721340958415053,non_fall
0.554559,0.003,-0.0116,0.0781,0.2298,0.1129,0.1009,26.2313,34.5938,-15.0,,0.01081399999999999,0.07901373298357697,0.051668739575344964,non_fall
0.557447,0.0068,-0.0429,0.0489,0.2298,0.1129,0.1009,26.2313,34.5938,-15.0,,0.0028880000000000017,0.06540535146301103,0.060937966701553985,non_fall
0.593406,0.0068,-0.0429,0.0489,0.4761,-0.1469,0.1426,26.2313,34.5938,-15.0,,0.03595899999999996,0.06540535146301103,0.07593833683098501,non_fall
0.597053,0.0068,-0.0429,0.0489,0.4761,-0.1469,0.1426,26.2313,34.5938,-15.0,,0.003646999999999956,0.06540535146301103,0.0972969780166941,non_fall
0.615799,-0.1032,-0.0308,0.0219,0.4761,-0.1469,0.1426,26.2313,34.5938,-15.0,,0.01874600000000004,0.10990218378176114,0.1252428089883638,non_fall
0.619369,-0.1032,-0.0308,0.0219,0.4761,-0.1469,0.1426,26.25,34.5188,-15.1875,,0.003569999999999962,0.10990218378176114,0.15952482871343152,non_fall
0.6215,-0.1032,-0.0308,0.0219,0.4761,-0.1469,0.1426,26.25,34.5188,-15.1875,,0.002131000000000105,0.10990218378176114,0.19937034117036587,non_fall
0.623168,-0.1032,-0.0308,0.0219,0.4761,-0.1469,0.1426,26.25,34.5188,-15.1875,,0.0016680000000000028,0.10990218378176114,0.24349389914611458,non_fall
0.679126,-0.1032,-0.0308,0.0219,0.1533,0.1811,0.2081,26.25,34.5188,-15.1875,,0.05595799999999995,0.10990218378176114,0.29016294187394737,non_fall
0.683757,0.0808,0.0159,-0.5019,0.1533,0.1811,0.2081,26.25,34.5188,-15.1875,,0.004630999999999941,0.5086109121912349,0.33731844307783837,non_fall
0.686573,0.0808,0.0159,-0.5019,0.1533,0.1811,0.2081,26.2875,34.2938,-15.375,,0.0028160000000000407,0.5086109121912349,0.3827385085700619,non_fall
0.689248,0.0808,0.0159,-0.5019,0.1533,0.1811,0.2081,26.2875,34.2938,-15.375,,0.002674999999999983,0.5086109121912349,0.42422281307147763,non_fall
0.691262,0.0808,0.0159,-0.5019,0.1533,0.1811,0.2081,26.2875,34.2938,-15.375,,0.0020140000000000713,0.5086109121912349,0.4597711810326181,non_fall
0.693974,0.0808,0.0159,-0.5019,0.1533,0.1811,0.2081,26.2875,34.2938,-15.375,,0.0027119999999999367,0.5086109121912349,0.4877332203884892,non_fall
0.700582,0.0808,0.0159,-0.5019,0.1533,0.1811,0.2081,26.2875,34.2938,-15.375,,0.006608000000000058,0.5086109121912349,0.5069151418099545,non_fall
0.737438,0.0808,0.0159,-0.5019,0.1533,0.1811,0.2081,26.2875,34.2938,-15.375,,0.036856,0.5086109121912349,0.516639640169628,non_fall
0.7409,0.0808,0.0159,-0.5019,0.1533,0.1811,0.2081,26.2875,34.2938,-15.375,,0.003461999999999965,0.5086109121912349,0.5167617117797619,non_fall
0.744413,0.0808,0.0159,-0.5019,0.239,0.07,0.2143,26.2875,34.2938,-15.375,,0.0035129999999999884,0.5086109121912349,0.5076470501346252,non_fall
0.747384,0.003,-0.1808,0.4026,0.239,0.07,0.2143,26.2875,34.2938,-15.375,,0.002971000000000057,0.44134385687352673,0.4901210306756173,non_fall
0.749766,0.003,-0.1808,0.4026,0.239,0.07,0.2143,26.4,34.0125,-15.6188,,0.0023819999999999952,0.44134385687352673,0.4653961696369497,non_fall
0.765822,0.003,-0.1808,0.4026,0.239,0.07,0.2143,26.4,34.0125,-15.6188,,0.01605599999999996,0.44134385687352673,0.43498481546908285,non_fall
0.797439,0.003,-0.1808,0.4026,0.239,0.07,0.2143,26.4,34.0125,-15.6188,,0.031617000000000006,0.44134385687352673,0.4006018863169749,non_fall
0.800831,0.003,-0.1808,0.4026,0.239,0.07,0.2143,26.4,34.0125,-15.6188,,0.0033919999999999506,0.44134385687352673,0.36406026012351167,non_fall
0.803566,0.003,-0.1808,0.4026,0.188,-0.045,0.1439,26.4,34.0125,-15.6188,,0.002735000000000043,0.44134385687352673,0.3271603086446953,non_fall
0.807331,0.0971,-0.0378,-0.1305,0.188,-0.045,0.1439,26.4,34.0125,-15.6188,,0.0037650000000000183,0.16699550892164736,0.2915765488375472,non_fall
0.817596,0.0971,-0.0378,-0.1305,0.188,-0.045,0.1439,26.4,34.0125,-15.6188,,0.010264999999999969,0.16699550892164736,0.2587486731145761,non_fall
0.820104,0.0971,-0.0378,-0.1305,0.188,-0.045,0.1439,26.6063,33.5438,-16.05,,0.0025080000000000657,0.16699550892164736,0.2297890853482664,non_fall
0.858479,0.0971,-0.0378,-0.1305,0.188,-0.045,0.1439,26.6063,33.5438,-16.05,,0.03837499999999994,0.16699550892164736,0.20542076930585795,non_fall
0.860848,0.0971,-0.0378,-0.1305,0.188,-0.045,0.1439,26.6063,33.5438,-16.05,,0.0023689999999999545,0.16699550892164736,0.18595579215151542,non_fall
0.862598,0.1444,0.0044,0.088,0.188,-0.045,0.1439,26.6063,33.5438,-16.05,,0.0017500000000000293,0.1691588602468106,0.17131760589865447,non_fall
0.879001,0.1444,0.0044,0.088,0.2834,-0.0112,0.0897,26.6063,33.5438,-16.05,,0.016403000000000056,0.1691588602468106,0.16110295315796344,non_fall
0.882164,0.1444,0.0044,0.088,0.2834,-0.0112,0.0897,26.6063,33.5438,-16.05,,0.003162999999999916,0.1691588602468106,0.15467383666712017,non_fall
0.883972,0.1444,0.0044,0.088,0.2834,-0.0112,0.0897,26.9813,33.1125,-16.4062,,0.0018080000000000318,0.1691588602468106,0.15126708538800346,non_fall
0.899549,0.1444,0.0044,0.088,0.2834,-0.0112,0.0897,26.9813,33.1125,-16.4062,,0.015577000000000063,0.1691588602468106,0.15010811859534706,non_fall
0.914606,0.1444,0.0044,0.088,0.2834,-0.0112,0.0897,26.9813,33.1125,-16.4062,,0.015056999999999987,0.1691588602468106,0.15051602158960023,non_fall
0.917184,0.1137,0.0105,-0.1672,0.2834,-0.0112,0.0897,26.9813,33.1125,-16.4062,,0.002577999999999969,0.20246920753536818,0.1519885204132058,non_fall
0.93576,0.1137,0.0105,-0.1672,0.1745,-0.0295,0.098,26.9813,33.1125,-16.4062,,0.018576000000000037,0.20246920753536818,0.15425758838808695,non_fall
0.939506,0.1137,0.0105,-0.1672,0.1745,-0.0295,0.098,26.9813,33.1125,-16.4062,,0.003745999999999916,0.20246920753536818,0.1573092611782516,non_fall
0.941135,0.1137,0.0105,-0.1672,0.1745,-0.0295,0.098,27.2625,32.5875,-16.65,,0.0016290000000001026,0.20246920753536818,0.16136502247308598,non_fall
0.965843,0.1137,0.0105,-0.1672,0.1745,-0.0295,0.098,27.2625,32.5875,-16.65,,0.024707999999999952,0.20246920753536818,0.1668269178452987,non_fall
0.980179,-0.0316,-0.0703,-0.1059,0.1745,-0.0295,0.098,27.2625,32.5875,-16.65,,0.014336000000000015,0.13097885325501976,0.17419395854573327,non_fall
0.985224,-0.0316,-0.0703,-0.1059,0.1745,-0.0295,0.098,27.2625,32.5875,-16.65,,0.005044999999999966,0.13097885325501976,0.18396254536078135,non_fall
0.997359,-0.0316,-0.0703,-0.1059,0.3186,0.0838,0.0971,27.2625,32.5875,-16.65,,0.012135000000000007,0.13097885325501976,0.19652737769293352,non_fall
1.017042,-0.0316,-0.0703,-0.1059,0.3186,0.0838,0.0971,27.2625,32.5875,-16.65,,0.019683000000000006,0.13097885325501976,0.21210030651782577,non_fall
1.019279,-0.0316,-0.0703,-0.1059,0.3186,0.0838,0.0971,27.2625,32.5875,-16.65,,0.0022370000000000445,0.13097885325501976,0.23066208170012223,non_fall
1.020663,-0.0316,-0.0703,-0.1059,0.3186,0.0838,0.0971,27.5813,31.95,-17.2688,,0.0013840000000000519,0.13097885325501976,0.251956139386138,non_fall
1.034257,0.2927,-0.2349,0.127,0.3186,0.0838,0.0971,27.5813,31.95,-17.2688,,0.013593999999999884,0.39620739518590514,0.27552527071844546,non_fall
1.036587,0.2927,-0.2349,0.127,0.3186,0.0838,0.0971,27.5813,31.95,-17.2688,,0.0023299999999999432,0.39620739518590514,0.3007824938518305,non_fall
1.076996,0.2927,-0.2349,0.127,0.3186,0.0838,0.0971,27.5813,31.95,-17.2688,,0.04040900000000014,0.39620739518590514,0.32709926376708126,non_fall
1.079676,0.2927,-0.2349,0.127,0.3186,0.0838,0.0971,27.7875,31.3125,-17.625,,0.0026800000000000157,0.39620739518590514,0.35389071965109403,non_fall
1.08321,0.2927,-0.2349,0.127,0.3186,0.0838,0.0971,27.7875,31.3125,-17.625,,0.003533999999999926,0.39620739518590514,0.3806805677511767,non_fall
1.085258,0.2927,-0.2349,0.127,0.2887,0.1463,0.0555,27.7875,31.3125,-17.625,,0.0020480000000000498,0.39620739518590514,0.4071353627990672,non_fall
1.095664,0.2927,-0.2349,0.127,0.2887,0.1463,0.0555,27.7875,31.3125,-17.625,,0.010405999999999915,0.39620739518590514,0.43306553248501883,non_fall
1.097902,0.0968,-0.2887,-0.4403,0.2887,0.1463,0.0555,27.7875,31.3125,-17.625,,0.0022379999999999622,0.5353335595682378,0.4583958328947594,non_fall
1.138206,0.0968,-0.2887,-0.4403,0.2887,0.1463,0.0555,27.7875,31.3125,-17.625,,0.04030400000000012,0.5353335595682378,0.4831105707325809,non_fall
1.141242,0.0968,-0.2887,-0.4403,0.2887,0.1463,0.0555,27.7875,31.3125,-17.625,,0.0030360000000000387,0.5353335595682378,0.5071801642261239,non_fall
1.143277,0.0968,-0.2887,-0.4403,0.443,-0.0142,0.0994,27.7875,31.3125,-17.625,,0.002035000000000009,0.5353335595682378,0.5304774389559936,non_fall
1.145499,0.0968,-0.2887,-0.4403,0.443,-0.0142,0.0994,28.1063,30.5625,-18.0938,,0.0022219999999999462,0.5353335595682378,0.5526955106855614,non_fall
1.160129,0.0968,-0.2887,-0.4403,0.443,-0.0142,0.0994,28.1063,30.5625,-18.0938,,0.01462999999999992,0.5353335595682378,0.573283302346958,non_fall
1.162637,0.1024,-0.2502,0.2147,0.443,-0.0142,0.0994,28.1063,30.5625,-18.0938,,0.0025079999999999547,0.3452273019330887,0.591417730144966,non_fall
1.195317,0.1024,-0.2502,0.2147,0.3594,-0.01,0.1562,28.1063,30.5625,-18.0938,,0.03268000000000004,0.3452273019330887,0.6060314399541112,non_fall
1.197909,0.1024,-0.2502,0.2147,0.3594,-0.01,0.1562,28.1063,30.5625,-18.0938,,0.0025919999999999277,0.3452273019330887,0.615909460959637,non_fall
1.214943,-0.3968,-0.4281,-0.5707,0.3594,-0.01,0.1562,28.1063,30.5625,-18.0938,,0.017034000000000216,0.816344498358383,0.6198550157543019,non_fall
1.217471,-0.3968,-0.4281,-0.5707,0.3594,-0.01,0.1562,28.3688,29.925,-18.5063,,0.0025279999999998637,0.816344498358383,0.6169046446579588,non_fall
1.218731,-0.3968,-0.4281,-0.5707,0.3594,-0.01,0.1562,28.3688,29.925,-18.5063,,0.0012600000000000389,0.816344498358383,0.6065522707173169,non_fall
1.219643,-0.3968,-0.4281,-0.5707,0.3594,-0.01,0.1562,28.3688,29.925,-18.5063,,0.0009120000000000239,0.816344498358383,0.5889307026749805,non_fall
1.278749,-0.3968,-0.4281,-0.5707,0.3931,-0.3137,0.1725,28.3688,29.925,-18.5063,,0.05910599999999988,0.816344498358383,0.56490327013938,non_fall
1.282334,-0.3968,-0.4281,-0.5707,0.3931,-0.3137,0.1725,28.6875,29.25,-19.1063,,0.0035850000000001714,0.816344498358383,0.536036003173425,non_fall
1.285351,-0.1428,-0.2373,0.0022,0.3931,-0.3137,0.1725,28.6875,29.25,-19.1063,,0.0030169999999998254,0.27696203710978157,0.504446111166981,non_fall
1.287682,-0.1428,-0.2373,0.0022,0.3931,-0.3137,0.1725,28.6875,29.25,-19.1063,,0.002331000000000083,0.27696203710978157,0.4725497305839662,non_fall
1.289304,-0.1428,-0.2373,0.0022,0.3931,-0.3137,0.1725,28.6875,29.25,-19.1063,,0.0016220000000000123,0.27696203710978157,0.44275469529317063,non_fall
1.291199,-0.1428,-0.2373,0.0022,0.3931,-0.3137,0.1725,28.6875,29.25,-19.1063,,0.00189499999999998,0.27696203710978157,0.41715520834956193,non_fall
1.301025,-0.1428,-0.2373,0.0022,0.3931,-0.3137,0.1725,28.6875,29.25,-19.1063,,0.009826000000000112,0.27696203710978157,0.39728129977003296,non_fall
1.338622,-0.1428,-0.2373,0.0022,0.3931,-0.3137,0.1725,28.6875,29.25,-19.1063,,0.03759699999999988,0.27696203710978157,0.38394065433927516,non_fall
1.339395,-0.1428,-0.2373,0.0022,0.3931,-0.3137,0.1725,28.6875,29.25,-19.1063,,0.0007729999999999126,0.27696203710978157,0.37717110178883456,non_fall
1.339903,-0.1428,-0.2373,0.0022,0.3286,-0.2658,0.1713,28.6875,29.25,-19.1063,,0.000508000000000175,0.27696203710978157,0.3763037001681872,non_fall
1.340594,0.0069,-0.0323,-0.5168,0.3286,-0.2658,0.1713,28.6875,29.25,-19.1063,,0.0006909999999999972,0.5178543617659312,0.3801202736426326,non_fall
1.341245,0.0069,-0.0323,-0.5168,0.3286,-0.2658,0.1713,28.8,28.6125,-19.725,,0.0006509999999999572,0.5178543617659312,0.38707585797354294,non_fall
1.365771,0.0069,-0.0323,-0.5168,0.3286,-0.2658,0.1713,28.8,28.6125,-19.725,,0.024526000000000048,0.5178543617659312,0.39554741329172277,non_fall
1.396783,0.0069,-0.0323,-0.5168,0.3286,-0.2658,0.1713,28.8,28.6125,-19.725,,0.03101200000000004,0.5178543617659312,0.4040680669003501,non_fall
1.39813,0.0069,-0.0323,-0.5168,0.3286,-0.2658,0.1713,28.8,28.6125,-19.725,,0.001346999999999987,0.5178543617659312,0.41151217524963535,non_fall
1.399261,0.0069,-0.0323,-0.5168,0.3912,-0.3031,0.1426,28.8,28.6125,-19.725,,0.0011309999999999931,0.5178543617659312,0.41720856793558353,non_fall
1.400897,0.0103,-0.1547,0.3285,0.3912,-0.3031,0.1426,28.8,28.6125,-19.725,,0.0016359999999999708,0.36324981761867414,0.42097379853600797,non_fall
1.41697,0.0103,-0.1547,0.3285,0.3912,-0.3031,0.1426,28.8188,27.7125,-20.55,,0.016073000000000004,0.36324981761867414,0.42307108269324584,non_fall
1.418869,0.0103,-0.1547,0.3285,0.3912,-0.3031,0.1426,28.8188,27.7125,-20.55,,0.001898999999999873,0.36324981761867414,0.42411154885118785,non_fall
1.460408,-0.2744,-0.1763,0.2477,0.3912,-0.3031,0.1426,28.8188,27.7125,-20.55,,0.04153899999999999,0.40955138871697166,0.4249203658913581,non_fall
1.464998,-0.2744,-0.1763,0.2477,0.3912,-0.3031,0.1426,28.8188,27.7125,-20.55,,0.004590000000000094,0.40955138871697166,0.42639051764876124,non_fall
1.46703,-0.2744,-0.1763,0.2477,0.3912,-0.3031,0.1426,28.8188,27.7125,-20.55,,0.0020320000000000338,0.40955138871697166,0.4293431816427342,non_fall
1.478979,-0.2744,-0.1763,0.2477,0.5533,-0.3457,0.1894,28.8188,27.7125,-20.55,,0.011948999999999987,0.40955138871697166,0.43440875751293356,non_fall
1.482967,-0.2744,-0.1763,0.2477,0.5533,-0.3457,0.1894,28.8188,27.7125,-20.55,,0.0039879999999998805,0.40955138871697166,0.4419384691590078,non_fall
1.484839,-0.2744,-0.1763,0.2477,0.5533,-0.3457,0.1894,28.7625,26.8125,-21.5813,,0.0018720000000000958,0.40955138871697166,0.451953273935114,non_fall
1.500263,-0.2744,-0.1763,0.2477,0.5533,-0.3457,0.1894,28.7625,26.8125,-21.5813,,0.015423999999999882,0.40955138871697166,0.4641338152492741,non_fall
1.516015,-0.2744,-0.1763,0.2477,0.5533,-0.3457,0.1894,28.7625,26.8125,-21.5813,,0.015751999999999988,0.40955138871697166,0.47785165254150724,non_fall
1.518476,-0.0587,-0.0904,0.5525,0.5533,-0.3457,0.1894,28.7625,26.8125,-21.5813,,0.0024610000000000465,0.5629157130512524,0.4922376346601761,non_fall
1.53672,-0.0587,-0.0904,0.5525,0.4681,-0.1437,0.005,28.7625,26.8125,-21.5813,,0.01824400000000015,0.5629157130512524,0.50627828610671,non_fall
1.539828,-0.0587,-0.0904,0.5525,0.4681,-0.1437,0.005,28.7063,25.9125,-22.4813,,0.0031079999999998886,0.5629157130512524,0.5189267438362809,non_fall
1.541972,-0.0587,-0.0904,0.5525,0.4681,-0.1437,0.005,28.7063,25.9125,-22.4813,,0.0021439999999999237,0.5629157130512524,0.5292130937564051,non_fall
1.565054,-0.0587,-0.0904,0.5525,0.4681,-0.1437,0.005,28.7063,25.9125,-22.4813,,0.023082000000000047,0.5629157130512524,0.5363409158835574,non_fall
1.58133,0.0421,-0.2908,-0.4374,0.4681,-0.1437,0.005,28.7063,25.9125,-22.4813,,0.016275999999999957,0.5269305551967925,0.5397614129610608,backward_fall
1.584922,0.0421,-0.2908,-0.4374,0.4681,-0.1437,0.005,28.7063,25.9125,-22.4813,,0.0035920000000000396,0.5269305551967925,0.5392215665804835,backward_fall
1.596263,0.0421,-0.2908,-0.4374,0.4698,-0.1572,-0.0164,28.7063,25.9125,-22.4813,,0.011341000000000045,0.5269305551967925,0.5347867262721057,backward_fall
1.618324,0.0421,-0.2908,-0.4374,0.4698,-0.1572,-0.0164,28.7063,25.9125,-22.4813,,0.02206100000000011,0.5269305551967925,0.52684022433834,backward_fall
1.621017,0.0421,-0.2908,-0.4374,0.4698,-0.1572,-0.0164,28.7063,25.9125,-22.4813,,0.0026929999999998344,0.5269305551967925,0.516063131631706,backward_fall
1.623561,0.0421,-0.2908,-0.4374,0.4698,-0.1572,-0.0164,28.575,25.0313,-23.5312,,0.0025440000000001017,0.5269305551967925,0.5033968457005877,backward_fall
1.639247,-0.3782,-0.2159,0.1796,0.4698,-0.1572,-0.0164,28.575,25.0313,-23.5312,,0.015685999999999867,0.4710670971316082,0.4899907667752554,backward_fall
1.644818,-0.3782,-0.2159,0.1796,0.4698,-0.1572,-0.0164,28.575,25.0313,-23.5312,,0.005570999999999993,0.4710670971316082,0.47713744508740547,backward_fall
1.679741,-0.3782,-0.2159,0.1796,0.4698,-0.1572,-0.0164,28.575,25.0313,-23.5312,,0.03492300000000004,0.4710670971316082,0.4661981721013954,backward_fall
1.682764,-0.3782,-0.2159,0.1796,0.4698,-0.1572,-0.0164,28.575,25.0313,-23.5312,,0.003022999999999998,0.4710670971316082,0.45852249045356336,backward_fall
1.685202,-0.3782,-0.2159,0.1796,0.4998,0.0262,-0.0607,28.575,25.0313,-23.5312,,0.0024380000000001623,0.4710670971316082,0.45536519874372094,backward_fall
1.688098,-0.3782,-0.2159,0.1796,0.4998,0.0262,-0.0607,28.3688,24.0375,-24.4688,,0.0028960000000000097,0.4710670971316082,0.4578044393698298,backward_fall
1.695974,-0.0187,-0.3186,-0.3446,0.4998,0.0262,-0.0607,28.3688,24.0375,-24.4688,,0.007875999999999994,0.46968586310426674,0.46666491799771287,backward_fall
1.698846,-0.0187,-0.3186,-0.3446,0.4998,0.0262,-0.0607,28.3688,24.0375,-24.4688,,0.0028719999999999857,0.46968586310426674,0.4824513600429896,backward_fall
1.738433,-0.0187,-0.3186,-0.3446,0.4998,0.0262,-0.0607,28.3688,24.0375,-24.4688,,0.03958699999999982,0.46968586310426674,0.5052985886819424,backward_fall
1.741946,-0.0187,-0.3186,-0.3446,0.4998,0.0262,-0.0607,28.3688,24.0375,-24.4688,,0.0035130000000000994,0.46968586310426674,0.5349454350416644,backward_fall
1.744464,-0.0187,-0.3186,-0.3446,0.4922,0.0719,-0.2072,28.3688,24.0375,-24.4688,,0.0025180000000000202,0.46968586310426674,0.5707392734561407,backward_fall
1.747677,-0.0187,-0.3186,-0.3446,0.4922,0.0719,-0.2072,28.2188,23.0438,-25.4438,,0.0032129999999999104,0.46968586310426674,0.6116754829355722,backward_fall
1.756643,0.3421,-0.5746,-0.487,0.4922,0.0719,-0.2072,28.2188,23.0438,-25.4438,,0.00896600000000003,0.8272645102988524,0.6564709143141196,backward_fall
1.759872,0.3421,-0.5746,-0.487,0.4922,0.0719,-0.2072,28.2188,23.0438,-25.4438,,0.0032290000000001484,0.8272645102988524,0.7036629340706296,backward_fall
1.79828,0.3421,-0.5746,-0.487,0.4306,0.2243,-0.1941,28.2188,23.0438,-25.4438,,0.038408,0.8272645102988524,0.7517186559015544,backward_fall
1.80155,0.3421,-0.5746,-0.487,0.4306,0.2243,-0.1941,28.2188,23.0438,-25.4438,,0.003269999999999884,0.8272645102988524,0.7991369398080028,backward_fall
1.820973,0.3421,-0.5746,-0.487,0.4306,0.2243,-0.1941,28.2188,23.0438,-25.4438,,0.019422999999999968,0.8272645102988524,0.8445306659181635,backward_fall
1.823594,0.3421,-0.5746,-0.487,0.4306,0.2243,-0.1941,28.2188,23.0438,-25.4438,,0.0026209999999999845,0.8272645102988524,0.8866858779085103,backward_fall
1.8251,0.3421,-0.5746,-0.487,0.4306,0.2243,-0.1941,28.0875,22.0125,-26.2125,,0.0015060000000000073,0.8272645102988524,0.9246025223780415,backward_fall
1.827139,-0.1716,-0.2934,-0.9399,0.4306,0.2243,-0.1941,28.0875,22.0125,-26.2125,,0.002039000000000124,0.9994709250398432,0.9575252665745927,backward_fall
1.877371,-0.1716,-0.2934,-0.9399,0.4306,0.2243,-0.1941,28.0875,22.0125,-26.2125,,0.05023199999999983,0.9994709250398432,0.9849718467817596,backward_fall
1.880248,-0.1716,-0.2934,-0.9399,0.4306,0.2243,-0.1941,28.0875,22.0125,-26.2125,,0.0028770000000000184,0.9994709250398432,1.0067625130348883,backward_fall
1.882556,-0.1716,-0.2934,-0.9399,0.4306,0.2243,-0.1941,28.0875,22.0125,-26.2125,,0.0023079999999999767,0.9994709250398432,1.0230503128932682,backward_fall
1.884774,-0.1716,-0.2934,-0.9399,0.4603,-0.1491,-0.0551,28.0875,22.0125,-26.2125,,0.0022180000000000533,0.9994709250398432,1.034350006201662,backward_fall
1.887625,-0.1716,-0.2934,-0.9399,0.4603,-0.1491,-0.0551,27.9938,21.0375,-27.0188,,0.002851000000000159,0.9994709250398432,1.0415627812577013,backward_fall
1.890504,-0.4876,-0.2203,-0.9669,0.4603,-0.1491,-0.0551,27.9938,21.0375,-27.0188,,0.002878999999999854,1.1050707941123048,1.0459929750517254,backward_fall
1.899216,-0.4876,-0.2203,-0.9669,0.4603,-0.1491,-0.0551,27.9938,21.0375,-27.0188,,0.008712000000000053,1.1050707941123048,1.0493509925506486,backward_fall
1.939196,-0.4876,-0.2203,-0.9669,0.4603,-0.1491,-0.0551,27.9938,21.0375,-27.0188,,0.039979999999999905,1.1050707941123048,1.0537346143334565,backward_fall
1.941654,-0.4876,-0.2203,-0.9669,0.4603,-0.1491,-0.0551,27.9938,21.0375,-27.0188,,0.0024580000000000712,1.1050707941123048,1.0615807414706184,backward_fall
1.943599,-0.4876,-0.2203,-0.9669,0.4485,-0.0304,-0.079,27.9938,21.0375,-27.0188,,0.0019450000000000855,1.1050707941123048,1.0755823950882535,backward_fall
1.94599,-0.4876,-0.2203,-0.9669,0.4485,-0.0304,-0.079,27.7688,20.1188,-27.6938,,0.002391000000000032,1.1050707941123048,1.098570815868333,backward_fall
1.948312,-0.0748,0.2411,-1.1267,0.4485,-0.0304,-0.079,27.7688,20.1188,-27.6938,,0.0023219999999999352,1.154632902701114,1.1333681702494318,backward_fall
1.966301,-0.0748,0.2411,-1.1267,0.4485,-0.0304,-0.079,27.7688,20.1188,-27.6938,,0.017989000000000033,1.154632902701114,1.1826213093533915,backward_fall
1.982478,-0.0748,0.2411,-1.1267,0.4485,-0.0304,-0.079,27.7688,20.1188,-27.6938,,0.016176999999999886,1.154632902701114,1.2486305659301125,backward_fall
1.996639,-0.0748,0.2411,-1.1267,0.4258,-0.07,-0.247,27.7688,20.1188,-27.6938,,0.01416100000000009,1.154632902701114,1.333189207039338,backward_fall
1.999079,-0.0748,0.2411,-1.1267,0.4258,-0.07,-0.247,27.7688,20.1188,-27.6938,,0.0024399999999999977,1.154632902701114,1.437447744614359,backward_fall
2.000679,-0.4037,1.0205,-1.6439,0.4258,-0.07,-0.247,27.7688,20.1188,-27.6938,,0.0015999999999998238,1.9765629638339377,1.56181110121673,backward_fall
2.018599,-0.4037,1.0205,-1.6439,0.4258,-0.07,-0.247,27.6563,19.2375,-28.275,,0.017920000000000158,1.9765629638339377,1.7058657359870075,backward_fall
2.022128,-0.4037,1.0205,-1.6439,0.4258,-0.07,-0.247,27.6563,19.2375,-28.275,,0.0035289999999998933,1.9765629638339377,1.8683236824423788,backward_fall
2.051463,-0.4037,1.0205,-1.6439,0.4258,-0.07,-0.247,27.6563,19.2375,-28.275,,0.02933500000000011,1.9765629638339377,2.0469699353072013,backward_fall
2.05536,-0.4037,1.0205,-1.6439,0.4258,-0.07,-0.247,27.6563,19.2375,-28.275,,0.0038969999999998173,1.9765629638339377,2.238612005020575,backward_fall
2.057175,-0.7783,1.7618,-1.9107,0.4258,-0.07,-0.247,27.6563,19.2375,-28.275,,0.001815000000000122,2.7130176225008196,2.4390479471896906,backward_fall
2.080123,-0.7783,1.7618,-1.9107,0.4258,-0.07,-0.247,27.6563,19.2375,-28.275,,0.02294799999999997,2.7130176225008196,2.643080611068217,backward_fall
2.084133,-0.7783,1.7618,-1.9107,0.4258,-0.07,-0.247,27.4313,18.3563,-28.7625,,0.004010000000000069,2.7130176225008196,2.8446084353393877,backward_fall
2.087238,-0.7783,1.7618,-1.9107,0.6425,0.0512,-0.229,27.4313,18.3563,-28.7625,,0.0031050000000001354,2.7130176225008196,3.0368227441471682,backward_fall
2.09975,-0.7783,1.7618,-1.9107,0.6425,0.0512,-0.229,27.4313,18.3563,-28.7625,,0.012511999999999635,2.7130176225008196,3.212541901197225,backward_fall
2.119242,-0.7783,1.7618,-1.9107,0.6425,0.0512,-0.229,27.4313,18.3563,-28.7625,,0.019492000000000065,2.7130176225008196,3.3647083637029356,backward_fall
2.121568,-1.164,2.1879,-2.7677,0.6425,0.0512,-0.229,27.4313,18.3563,-28.7625,,0.0023260000000000502,3.715099689106606,3.4870562426993557,backward_fall
2.139908,-1.164,2.1879,-2.7677,0.937,0.4641,-0.2404,27.4313,18.3563,-28.7625,,0.018340000000000245,3.715099689106606,3.5749217985276283,backward_fall
2.144329,-1.164,2.1879,-2.7677,0.937,0.4641,-0.2404,27.4313,18.3563,-28.7625,,0.004420999999999786,3.715099689106606,3.6261269043913185,backward_fall
2.146424,-1.164,2.1879,-2.7677,0.937,0.4641,-0.2404,27.4688,17.475,-29.3813,,0.00209500000000018,3.715099689106606,3.6418324532588935,backward_fall
2.164887,-1.164,2.1879,-2.7677,0.937,0.4641,-0.2404,27.4688,17.475,-29.3813,,0.018462999999999674,3.715099689106606,3.6272455797899537,backward_fall
2.177696,-1.164,2.1879,-2.7677,0.937,0.4641,-0.2404,27.4688,17.475,-29.3813,,0.012809000000000292,3.715099689106606,3.592068503949046,backward_fall
2.179636,-2.4736,0.9092,-3.2824,0.937,0.4641,-0.2404,27.4688,17.475,-29.3813,,0.0019399999999998307,4.209452619997046,3.550588273215864,backward_fall
2.195525,-2.4736,0.9092,-3.2824,1.2371,-0.3402,0.0551,27.4688,17.475,-29.3813,,0.015889000000000042,4.209452619997046,3.5213214364690524,backward_fall
2.217256,-2.4736,0.9092,-3.2824,1.2371,-0.3402,0.0551,27.4688,17.475,-29.3813,,0.021730999999999945,4.209452619997046,3.5261504768723952,backward_fall
2.220681,-2.4736,0.9092,-3.2824,1.2371,-0.3402,0.0551,27.4688,17.475,-29.3813,,0.0034250000000000114,4.209452619997046,3.5889281473752583,backward_fall
2.223161,-2.4736,0.9092,-3.2824,1.2371,-0.3402,0.0551,27.3938,16.5375,-30.0563,,0.0024800000000002598,4.209452619997046,3.7335854381619855,backward_fall
2.237152,-1.8671,-3.5273,-1.65,1.2371,-0.3402,0.0551,27.3938,16.5375,-30.0563,,0.013990999999999865,4.318611779264258,3.981853389251622,backward_fall
2.24106,-1.8671,-3.5273,-1.65,1.2371,-0.3402,0.0551,27.3938,16.5375,-30.0563,,0.003908000000000023,4.318611779264258,4.350787218971016,backward_fall
2.278711,-1.8671,-3.5273,-1.65,1.2371,-0.3402,0.0551,27.3938,16.5375,-30.0563,,0.03765099999999988,4.318611779264258,4.850352016454481,backward_fall
2.281407,-1.8671,-3.5273,-1.65,1.2371,-0.3402,0.0551,27.1125,15.3563,-31.0313,,0.0026960000000002537,4.318611779264258,5.481382158704373,backward_fall
2.285115,-1.8671,-3.5273,-1.65,1.6736,-0.3922,-0.3576,27.1125,15.3563,-31.0313,,0.0037079999999996005,4.318611779264258,6.234249518309141,backward_fall
2.289522,-1.8671,-3.5273,-1.65,1.6736,-0.3922,-0.3576,27.1125,15.3563,-31.0313,,0.00440700000000005,4.318611779264258,7.088553117229924,backward_fall
2.302968,-1.8671,-3.5273,-1.65,1.6736,-0.3922,-0.3576,27.1125,15.3563,-31.0313,,0.013446000000000069,4.318611779264258,8.014058052763207,backward_fall
2.30598,2.0813,-10.9179,3.3128,1.6736,-0.3922,-0.3576,27.1125,15.3563,-31.0313,,0.0030120000000000147,11.597715030987786,8.972951294016305,backward_fall
2.337117,2.0813,-10.9179,3.3128,1.6736,-0.3922,-0.3576,27.1125,15.3563,-31.0313,,0.031137000000000192,11.597715030987786,9.923257133458463,backward_fall
2.340092,2.0813,-10.9179,3.3128,1.6736,-0.3922,-0.3576,27.1125,15.3563,-31.0313,,0.002974999999999728,11.597715030987786,10.823026586491604,backward_fall
2.342448,2.0813,-10.9179,3.3128,1.7838,0.6879,-1.229,27.1125,15.3563,-31.0313,,0.002356000000000247,11.597715030987786,11.634776508113257,backward_fall
2.345453,2.0813,-10.9179,3.3128,1.7838,0.6879,-1.229,26.8313,14.0438,-31.8938,,0.0030049999999999244,11.597715030987786,12.329652784076865,backward_fall
2.356391,2.0813,-10.9179,3.3128,1.7838,0.6879,-1.229,26.8313,14.0438,-31.8938,,0.010937999999999892,11.597715030987786,12.890877818750937,backward_fall
2.360046,2.5575,-16.6645,1.9928,1.7838,0.6879,-1.229,26.8313,14.0438,-31.8938,,0.003655000000000186,16.97697317957474,13.3161224388814,backward_fall
2.392738,2.5575,-16.6645,1.9928,1.7838,0.6879,-1.229,26.8313,14.0438,-31.8938,,0.03269199999999994,16.97697317957474,13.618472523747663,backward_fall
2.396777,2.5575,-16.6645,1.9928,2.8741,-1.4544,-0.4761,26.8313,14.0438,-31.8938,,0.004039000000000126,16.97697317957474,13.825682910266243,backward_fall
2.419527,2.5575,-16.6645,1.9928,2.8741,-1.4544,-0.4761,26.8313,14.0438,-31.8938,,0.022749999999999826,16.97697317957474,13.977512342091247,backward_fall
2.424067,2.5575,-16.6645,1.9928,2.8741,-1.4544,-0.4761,26.8313,14.0438,-31.8938,,0.0045399999999999885,16.97697317957474,14.121166566810674,backward_fall
2.42612,2.5575,-16.6645,1.9928,2.8741,-1.4544,-0.4761,26.4,12.1313,-32.7938,,0.0020530000000000825,16.97697317957474,14.305218439508314,backward_fall
2.42852,-2.2833,-6.2394,1.7182,2.8741,-1.4544,-0.4761,26.4,12.1313,-32.7938,,0.0023999999999997357,6.862636701006399,14.572754474669727,backward_fall
2.479093,-2.2833,-6.2394,1.7182,2.8741,-1.4544,-0.4761,26.4,12.1313,-32.7938,,0.05057300000000042,6.862636701006399,14.954833771398802,backward_fall
2.481212,-2.2833,-6.2394,1.7182,2.8741,-1.4544,-0.4761,26.4,12.1313,-32.7938,,0.002118999999999982,6.862636701006399,15.465518635916128,backward_fall
2.482847,-2.2833,-6.2394,1.7182,2.8741,-1.4544,-0.4761,26.4,12.1313,-32.7938,,0.001634999999999831,6.862636701006399,16.099597866963524,backward_fall
2.484249,19.7956,-5.3843,-10.052,2.8741,-1.4544,-0.4761,26.4,12.1313,-32.7938,,0.0014020000000001254,22.845112603136805,16.83360157350823,backward_fall
2.486997,19.7956,-5.3843,-10.052,-2.0896,5.5497,-6.2418,26.4,12.1313,-32.7938,,0.0027479999999999727,22.845112603136805,17.629914609781935,backward_fall
2.489857,19.7956,-5.3843,-10.052,-2.0896,5.5497,-6.2418,26.6438,11.4563,-32.8125,,0.0028600000000000847,22.845112603136805,18.443021322552976,backward_fall
2.501552,19.7956,-5.3843,-10.052,-2.0896,5.5497,-6.2418,26.6438,11.4563,-32.8125,,0.011695000000000011,22.845112603136805,19.22646839431208,backward_fall
2.538456,19.7956,-5.3843,-10.052,-2.0896,5.5497,-6.2418,26.6438,11.4563,-32.8125,,0.036903999999999826,22.845112603136805,19.939151239408645,backward_fall
2.542503,19.7956,-5.3843,-10.052,-2.0896,5.5497,-6.2418,26.6438,11.4563,-32.8125,,0.004046999999999912,22.845112603136805,20.5498989270292,backward_fall
2.545736,19.7956,-5.3843,-10.052,0.2078,0.5863,-1.6762,26.6438,11.4563,-32.8125,,0.0032330000000002634,22.845112603136805,21.03982736532009,backward_fall
2.549593,19.7956,-5.3843,-10.052,0.2078,0.5863,-1.6762,26.9813,12.5438,-31.5938,,0.0038569999999999993,22.845112603136805,21.40239395706131,backward_fall
2.553306,-15.8795,-9.728,4.0686,0.2078,0.5863,-1.6762,26.9813,12.5438,-31.5938,,0.0037129999999998553,19.0616371335203,21.641469222662117,backward_fall
2.566198,-15.8795,-9.728,4.0686,0.2078,0.5863,-1.6762,26.9813,12.5438,-31.5938,,0.012891999999999904,19.0616371335203,21.768032336342177,backward_fall
2.593995,-15.8795,-9.728,4.0686,0.2078,0.5863,-1.6762,26.9813,12.5438,-31.5938,,0.02779700000000007,19.0616371335203,21.79627429579277,backward_fall
2.599593,-15.8795,-9.728,4.0686,2.9148,-0.8591,-1.7187,26.9813,12.5438,-31.5938,,0.005597999999999992,19.0616371335203,21.739916635806964,backward_fall
2.603403,-15.8795,-9.728,4.0686,2.9148,-0.8591,-1.7187,26.9813,12.5438,-31.5938,,0.003810000000000091,19.0616371335203,21.60941365114506,backward_fall
2.605238,-1.5223,13.2027,17.7273,2.9148,-0.8591,-1.7187,26.9813,12.5438,-31.5938,,0.001834999999999809,22.15594389481071,21.4104439971548,backward_fall
2.619498,-1.5223,13.2027,17.7273,2.9148,-0.8591,-1.7187,27.225,13.1063,-30.8625,,0.014260000000000161,22.15594389481071,21.143789639630857,backward_fall
2.621629,-1.5223,13.2027,17.7273,2.9148,-0.8591,-1.7187,27.225,13.1063,-30.8625,,0.002130999999999883,22.15594389481071,20.806426338604055,backward_fall
2.656219,8.9987,11.8243,-12.6159,2.9148,-0.8591,-1.7187,27.225,13.1063,-30.8625,,0.03459000000000012,19.49234734427847,20.3934753975916,backward_fall
2.66038,8.9987,11.8243,-12.6159,2.9148,-0.8591,-1.7187,27.225,13.1063,-30.8625,,0.004160999999999859,19.49234734427847,19.9006148372097,backward_fall
2.663116,8.9987,11.8243,-12.6159,2.9148,-0.8591,-1.7187,27.225,13.1063,-30.8625,,0.0027360000000000717,19.49234734427847,19.326580300610576,backward_fall
2.676645,8.9987,11.8243,-12.6159,0.8702,2.6863,-3.8159,27.225,13.1063,-30.8625,,0.013529000000000124,19.49234734427847,18.67543057203004,backward_fall
2.681659,8.9987,11.8243,-12.6159,0.8702,2.6863,-3.8159,27.225,13.1063,-30.8625,,0.00501399999999963,19.49234734427847,17.9582696272869,backward_fall
2.683828,8.9987,11.8243,-12.6159,0.8702,2.6863,-3.8159,26.85,14.3625,-29.7563,,0.0021690000000003096,19.49234734427847,17.194124287571224,backward_fall
2.700929,8.9987,11.8243,-12.6159,0.8702,2.6863,-3.8159,26.85,14.3625,-29.7563,,0.01710099999999981,19.49234734427847,16.409719262250388,backward_fall
2.716687,8.9987,11.8243,-12.6159,0.8702,2.6863,-3.8159,26.85,14.3625,-29.7563,,0.01575799999999994,19.49234734427847,15.638005263385814,backward_fall
2.719094,-1.7724,4.7998,10.2249,0.8702,2.6863,-3.8159,26.85,14.3625,-29.7563,,0.00240700000000027,11.43363729571653,14.91549372598645,backward_fall
2.73802,-1.7724,4.7998,10.2249,0.96,0.4128,-4.0102,26.85,14.3625,-29.7563,,0.018926,11.43363729571653,14.278711701919095,backward_fall
2.740702,-1.7724,4.7998,10.2249,0.96,0.4128,-4.0102,25.9313,16.125,-28.8563,,0.002682000000000073,11.43363729571653,13.7603340302458,backward_fall
2.765833,-1.7724,4.7998,10.2249,0.96,0.4128,-4.0102,25.9313,16.125,-28.8563,,0.025131000000000014,11.43363729571653,13.385662139431885,backward_fall
2.768127,-1.7724,4.7998,10.2249,0.96,0.4128,-4.0102,25.9313,16.125,-28.8563,,0.002293999999999574,11.43363729571653,13.170037154057662,backward_fall
2.780931,-1.7724,4.7998,10.2249,0.96,0.4128,-4.0102,25.9313,16.125,-28.8563,,0.012804000000000038,11.43363729571653,13.11754524358459,backward_fall
2.782917,7.3817,-1.0095,12.8475,0.96,0.4128,-4.0102,25.9313,16.125,-28.8563,,0.0019860000000000433,14.851492901052069,13.221095570522742,backward_fall
2.798929,7.3817,-1.0095,12.8475,3.355,3.6472,-1.7566,25.9313,16.125,-28.8563,,0.016011999999999915,14.851492901052069,13.46370108871471,backward_fall
2.816872,7.3817,-1.0095,12.8475,3.355,3.6472,-1.7566,25.4063,18.3,-27.225,,0.017943000000000264,14.851492901052069,13.820613182422182,backward_fall
2.820112,7.3817,-1.0095,12.8475,3.355,3.6472,-1.7566,25.4063,18.3,-27.225,,0.0032399999999999096,14.851492901052069,14.261885073934852,backward_fall
2.832817,7.3817,-1.0095,12.8475,3.355,3.6472,-1.7566,25.4063,18.3,-27.225,,0.012704999999999966,14.851492901052069,14.75497123588902,backward_fall
2.836293,-12.2983,-10.4436,2.9509,3.355,3.6472,-1.7566,25.4063,18.3,-27.225,,0.0034760000000000346,16.40197471830755,15.26707077562113,backward_fall
2.840188,-12.2983,-10.4436,2.9509,3.355,3.6472,-1.7566,25.4063,18.3,-27.225,,0.003894999999999982,16.40197471830755,15.767035559648772,backward_fall
2.87731,-12.2983,-10.4436,2.9509,3.355,3.6472,-1.7566,25.4063,18.3,-27.225,,0.0371220000000001,16.40197471830755,16.226759608972774,backward_fall
2.88025,-12.2983,-10.4436,2.9509,3.355,3.6472,-1.7566,25.4063,18.3,-27.225,,0.0029400000000001647,16.40197471830755,16.622048182996743,backward_fall
2.882162,-12.2983,-10.4436,2.9509,3.4039,-1.2481,0.8481,25.4063,18.3,-27.225,,0.0019119999999999138,16.40197471830755,16.933039500415358,backward_fall
2.884898,-12.2983,-10.4436,2.9509,3.4039,-1.2481,0.8481,24.5438,19.9688,-26.4188,,0.0027360000000000717,16.40197471830755,17.144309560915584,backward_fall
2.900925,-12.2983,-10.4436,2.9509,3.4039,-1.2481,0.8481,24.5438,19.9688,-26.4188,,0.01602699999999979,16.40197471830755,17.24481400808818,backward_fall
2.904583,-6.9167,-13.3169,-7.939,3.4039,-1.2481,0.8481,24.5438,19.9688,-26.4188,,0.003658000000000161,16.97669830974209,17.227802907398242,backward_fall
2.939194,-6.9167,-13.3169,-7.939,3.4039,-1.2481,0.8481,23.7563,21.375,-25.9313,,0.03461099999999995,16.97669830974209,17.090791513566177,backward_fall
2.942731,-6.9167,-13.3169,-7.939,2.1886,-0.5764,0.3824,23.7563,21.375,-25.9313,,0.0035370000000001234,16.97669830974209,16.835599734931726,backward_fall
2.945288,-6.9167,-13.3169,-7.939,2.1886,-0.5764,0.3824,23.7563,21.375,-25.9313,,0.0025569999999999204,16.97669830974209,16.468406725773196,backward_fall
2.959275,-6.9167,-13.3169,-7.939,2.1886,-0.5764,0.3824,23.7563,21.375,-25.9313,,0.01398699999999975,16.97669830974209,15.999723354780954,backward_fall
2.962628,-6.9167,-13.3169,-7.939,2.1886,-0.5764,0.3824,23.7563,21.375,-25.9313,,0.0033530000000001614,16.97669830974209,15.44417498714406,backward_fall
2.964997,-0.7605,-11.3945,-7.022,2.1886,-0.5764,0.3824,23.7563,21.375,-25.9313,,0.0023689999999998435,13.406023813942745,14.820014817413252,backward_fall
2.996499,-0.7605,-11.3945,-7.022,2.1886,-0.5764,0.3824,23.7563,21.375,-25.9313,,0.03150200000000014,13.406023813942745,14.148349449490302,backward_fall
2.999694,-0.7605,-11.3945,-7.022,0.4945,0.4169,-0.3205,23.7563,21.375,-25.9313,,0.003194999999999837,13.406023813942745,13.452128314343382,backward_fall
3.003723,-0.7605,-11.3945,-7.022,0.4945,0.4169,-0.3205,23.7563,21.375,-25.9313,,0.00402900000000006,13.406023813942745,12.754987263322521,backward_fall
3.016708,-0.7605,-11.3945,-7.022,0.4945,0.4169,-0.3205,22.5,21.3563,-26.3438,,0.012985000000000024,13.406023813942745,12.08002771998476,backward_fall
3.020371,0.2247,-6.2853,-7.9736,0.4945,0.4169,-0.3205,22.5,21.3563,-26.3438,,0.003662999999999972,10.155480448506609,11.448585317405941,backward_fall
3.02242,0.2247,-6.2853,-7.9736,0.4945,0.4169,-0.3205,22.5,21.3563,-26.3438,,0.0020489999999999675,10.155480448506609,10.879037633615871,backward_fall
3.051048,0.2247,-6.2853,-7.9736,0.4945,0.4169,-0.3205,22.5,21.3563,-26.3438,,0.02862800000000032,10.155480448506609,10.38572285072969,backward_fall
3.07784,0.2247,-6.2853,-7.9736,0.4945,0.4169,-0.3205,22.5,21.3563,-26.3438,,0.026791999999999927,10.155480448506609,9.978054302472788,backward_fall
3.080221,0.2247,-6.2853,-7.9736,0.4945,0.4169,-0.3205,22.5,21.3563,-26.3438,,0.0023809999999997444,10.155480448506609,9.659893792589571,backward_fall
3.081621,0.2247,-6.2853,-7.9736,0.4945,0.4169,-0.3205,21.5438,19.875,-27.75,,0.00140000000000029,10.155480448506609,9.429204591667853,backward_fall
3.083962,0.2247,-6.2853,-7.9736,-0.9476,1.8419,-0.4491,21.5438,19.875,-27.75,,0.0023409999999999265,10.155480448506609,9.277979495357773,backward_fall
3.085754,-2.2957,-3.2541,-6.867,-0.9476,1.8419,-0.4491,21.5438,19.875,-27.75,,0.0017920000000000158,7.938204727770631,9.192451369782752,backward_fall
3.104216,-2.2957,-3.2541,-6.867,-0.9476,1.8419,-0.4491,21.5438,19.875,-27.75,,0.01846199999999998,7.938204727770631,9.153636126117538,backward_fall
3.139176,-2.2957,-3.2541,-6.867,-0.9476,1.8419,-0.4491,21.5438,19.875,-27.75,,0.03495999999999988,7.938204727770631,9.138300083602443,backward_fall
3.142267,-2.2957,-3.2541,-6.867,-0.9476,1.8419,-0.4491,21.5438,19.875,-27.75,,0.003090999999999955,7.938204727770631,9.12044473414727,backward_fall
3.144601,-2.2957,-3.2541,-6.867,-0.9476,1.8419,-0.4491,21.1875,19.05,-28.2188,,0.0023340000000002803,7.938204727770631,9.073338745364737,backward_fall
3.147446,-2.2957,-3.2541,-6.867,-0.5412,0.7476,0.9102,21.1875,19.05,-28.2188,,0.0028449999999997644,7.938204727770631,8.972009686762503,backward_fall
3.149868,-9.9487,3.1072,-2.7288,-0.5412,0.7476,0.9102,21.1875,19.05,-28.2188,,0.0024220000000001463,10.773934887959923,8.79596619845267,backward_fall
3.166214,-9.9487,3.1072,-2.7288,-0.5412,0.7476,0.9102,21.1875,19.05,-28.2188,,0.01634599999999997,10.773934887959923,8.531787613983887,backward_fall
3.198703,-9.9487,3.1072,-2.7288,-0.5412,0.7476,0.9102,21.1875,19.05,-28.2188,,0.03248899999999999,10.773934887959923,8.175131998313205,backward_fall
3.202387,-9.9487,3.1072,-2.7288,-0.5412,0.7476,0.9102,21.1875,19.05,-28.2188,,0.0036839999999997985,10.773934887959923,7.731722319050973,backward_fall
3.207029,-9.9487,3.1072,-2.7288,-0.4051,-0.2023,0.7145,21.1875,19.05,-28.2188,,0.004642000000000035,10.773934887959923,7.2170025507232465,backward_fall
3.210271,-3.1828,1.5518,-0.739,-0.4051,-0.2023,0.7145,21.1875,19.05,-28.2188,,0.003242000000000189,3.617239289845226,6.654397665742919,backward_fall
3.219451,-3.1828,1.5518,-0.739,-0.4051,-0.2023,0.7145,21.2063,17.6438,-29.1188,,0.009179999999999744,3.617239289845226,6.072409591181595,backward_fall
3.232236,-3.1828,1.5518,-0.739,-0.4051,-0.2023,0.7145,21.2063,17.6438,-29.1188,,0.012785000000000046,3.617239289845226,5.501045369594416,backward_fall
3.262308,-3.1828,1.5518,-0.739,-0.4051,-0.2023,0.7145,21.2063,17.6438,-29.1188,,0.0300720000000001,3.617239289845226,4.968202066062338,backward_fall
3.264459,-3.1828,1.5518,-0.739,-0.4051,-0.2023,0.7145,21.2063,17.6438,-29.1188,,0.002151000000000014,3.617239289845226,4.496579439559372,backward_fall
3.265766,2.2851,-2.0586,1.6396,-0.4051,-0.2023,0.7145,21.2063,17.6438,-29.1188,,0.0013070000000001691,3.4853700133558276,4.101508330686817,backward_fall
3.27824,2.2851,-2.0586,1.6396,-0.4051,-0.2023,0.7145,22.3125,15.8813,-29.2688,,0.012473999999999652,3.4853700133558276,3.789868660681619,backward_fall
3.280815,2.2851,-2.0586,1.6396,-0.5619,0.9456,0.511,22.3125,15.8813,-29.2688,,0.002575000000000216,3.4853700133558276,3.5600917837921298,backward_fall
3.299366,2.2851,-2.0586,1.6396,-0.5619,0.9456,0.511,22.3125,15.8813,-29.2688,,0.018550999999999984,3.4853700133558276,3.40311393384647,backward_fall
3.302468,2.2851,-2.0586,1.6396,-0.5619,0.9456,0.511,22.3125,15.8813,-29.2688,,0.00310200000000016,3.4853700133558276,3.3040645476685264,backward_fall
3.317269,2.2851,-2.0586,1.6396,-0.5619,0.9456,0.511,22.3125,15.8813,-29.2688,,0.014800999999999842,3.4853700133558276,3.244426619191105,backward_fall
3.319635,-3.0904,1.7718,1.7588,-0.5619,0.9456,0.511,22.3125,15.8813,-29.2688,,0.002365999999999868,3.97281069773026,3.2043884797192357,backward_fall
3.337799,-3.0904,1.7718,1.7588,0.1778,-0.0613,0.9056,22.3125,15.8813,-29.2688,,0.01816400000000007,3.97281069773026,3.1651119428440917,backward_fall
3.340102,-3.0904,1.7718,1.7588,0.1778,-0.0613,0.9056,23.25,13.95,-29.8875,,0.002302999999999944,3.97281069773026,3.1106689767289466,backward_fall
3.366137,-3.0904,1.7718,1.7588,0.1778,-0.0613,0.9056,23.25,13.95,-29.8875,,0.026035000000000252,3.97281069773026,3.0294499854526995,backward_fall
3.369346,-3.0904,1.7718,1.7588,0.1778,-0.0613,0.9056,23.25,13.95,-29.8875,,0.0032090000000000174,3.97281069773026,2.9149221884686805,backward_fall
3.378726,-0.5546,-0.6254,1.6781,0.1778,-0.0613,0.9056,23.25,13.95,-29.8875,,0.009379999999999722,1.8747602326697672,2.7657115800450116,backward_fall
3.382438,-0.5546,-0.6254,1.6781,0.1778,-0.0613,0.9056,23.25,13.95,-29.8875,,0.0037120000000001596,1.8747602326697672,2.5850837891703002,backward_fall
3.39827,-0.5546,-0.6254,1.6781,0.1216,0.4385,0.657,23.25,13.95,-29.8875,,0.015832000000000068,1.8747602326697672,2.3799848148757223,backward_fall
3.410752,-0.5546,-0.6254,1.6781,0.1216,0.4385,0.657,23.25,13.95,-29.8875,,0.012481999999999882,1.8747602326697672,2.159844653682067,backward_fall
3.420144,-0.5546,-0.6254,1.6781,0.1216,0.4385,0.657,24.6188,12.5813,-29.7,,0.009392000000000067,1.8747602326697672,1.9353342087559733,backward_fall
3.432562,-0.5546,-0.6254,1.6781,0.1216,0.4385,0.657,24.6188,12.5813,-29.7,,0.012417999999999818,1.8747602326697672,1.717216809989996,backward_fall
3.438576,-0.283,1.0144,0.1355,0.1216,0.4385,0.657,24.6188,12.5813,-29.7,,0.006013999999999964,1.061817597330163,1.515381942045742,backward_fall
3.441694,-0.283,1.0144,0.1355,0.1216,0.4385,0.657,24.6188,12.5813,-29.7,,0.003118000000000176,1.061817597330163,1.3381102573063448,backward_fall
3.477965,-0.283,1.0144,0.1355,0.1216,0.4385,0.657,24.6188,12.5813,-29.7,,0.036271000000000164,1.061817597330163,1.1915953957214882,backward_fall
3.482035,-0.283,1.0144,0.1355,0.1216,0.4385,0.657,26.2313,11.9625,-28.8563,,0.004070000000000018,1.061817597330163,1.079728501728026,backward_fall
3.484701,-0.283,1.0144,0.1355,-0.0403,0.5513,0.5194,26.2313,11.9625,-28.8563,,0.002665999999999613,1.061817597330163,1.0041280439879243,backward_fall
3.490094,-0.283,1.0144,0.1355,-0.0403,0.5513,0.5194,26.2313,11.9625,-28.8563,,0.005393000000000203,1.061817597330163,0.964373405907634,backward_fall
3.499258,-0.4033,-0.0744,-1.0346,-0.0403,0.5513,0.5194,26.2313,11.9625,-28.8563,,0.009164000000000172,1.1129166231124414,0.9583834714847401,backward_fall
3.504282,-0.4033,-0.0744,-1.0346,-0.0403,0.5513,0.5194,26.2313,11.9625,-28.8563,,0.005023999999999695,1.1129166231124414,0.9828752337129649,backward_fall
3.520064,-0.4033,-0.0744,-1.0346,-0.0403,0.5513,0.5194,26.2313,11.9625,-28.8563,,0.015782000000000185,1.1129166231124414,1.033841270551033,backward_fall
3.538114,-0.4033,-0.0744,-1.0346,-0.0403,0.5513,0.5194,27.9938,11.5125,-27.7125,,0.01805000000000012,1.1129166231124414,1.1069955108230898,backward_fall
3.541282,-0.4033,-0.0744,-1.0346,-0.0301,0.3858,0.5676,27.9938,11.5125,-27.7125,,0.0031679999999996156,1.1129166231124414,1.1981502406442464,backward_fall
3.562142,-1.2986,-0.1398,-1.0132,-0.0301,0.3858,0.5676,27.9938,11.5125,-27.7125,,0.020860000000000323,1.6530215485588808,1.3034998875659827,backward_fall
3.5675,-1.2986,-0.1398,-1.0132,-0.0301,0.3858,0.5676,27.9938,11.5125,-27.7125,,0.005357999999999752,1.6530215485588808,1.4197965912442603,backward_fall
3.570436,-1.2986,-0.1398,-1.0132,-0.0301,0.3858,0.5676,27.9938,11.5125,-27.7125,,0.0029360000000000497,1.6530215485588808,1.5444109664265322,backward_fall
3.599001,-1.2986,-0.1398,-1.0132,-0.2309,0.3024,0.5836,27.9938,11.5125,-27.7125,,0.02856499999999995,1.6530215485588808,1.6752838177532565,backward_fall
3.604714,-1.2986,-0.1398,-1.0132,-0.2309,0.3024,0.5836,27.9938,11.5125,-27.7125,,0.005713000000000079,1.6530215485588808,1.8107927472517753,non_fall
3.61943,-1.2986,-0.1398,-1.0132,-0.2309,0.3024,0.5836,27.9938,11.5125,-27.7125,,0.014715999999999951,1.6530215485588808,1.9495763520353229,non_fall
3.622887,-1.2986,-0.1398,-1.0132,-0.2309,0.3024,0.5836,27.9938,11.5125,-27.7125,,0.0034570000000000434,1.6530215485588808,2.0903693523887568,non_fall
3.624869,-1.2986,-0.1398,-1.0132,-0.2309,0.3024,0.5836,29.4563,10.7063,-26.7188,,0.0019819999999999283,1.6530215485588808,2.231898267320766,non_fall
3.62755,-1.584,0.0669,-2.3444,-0.2309,0.3024,0.5836,29.4563,10.7063,-26.7188,,0.0026809999999999334,2.8301489307101844,2.3728672379886073,non_fall
3.679832,-1.584,0.0669,-2.3444,-0.4905,0.3522,0.7042,29.4563,10.7063,-26.7188,,0.052282000000000384,2.8301489307101844,2.5120307024991155,non_fall
3.685209,-1.584,0.0669,-2.3444,-0.4905,0.3522,0.7042,29.4563,10.7063,-26.7188,,0.005376999999999743,2.8301489307101844,2.648315351623893,non_fall
3.687912,-1.584,0.0669,-2.3444,-0.4905,0.3522,0.7042,29.4563,10.7063,-26.7188,,0.0027029999999999,2.8301489307101844,2.780934517260003,non_fall
3.690317,-2.0871,-0.2578,-2.4332,-0.4905,0.3522,0.7042,29.4563,10.7063,-26.7188,,0.0024049999999999905,3.216039410517228,2.9094423540559653,non_fall
3.694163,-2.0871,-0.2578,-2.4332,-0.4905,0.3522,0.7042,29.4563,10.7063,-26.7188,,0.003846000000000238,3.216039410517228,3.0336961941970535,non_fall
3.696738,-2.0871,-0.2578,-2.4332,-0.4905,0.3522,0.7042,30.525,9.8438,-25.9688,,0.002574999999999772,3.216039410517228,3.15372100796891,non_fall
3.705144,-2.0871,-0.2578,-2.4332,-0.4905,0.3522,0.7042,30.525,9.8438,-25.9688,,0.008406000000000358,3.216039410517228,3.26949405341875,non_fall
3.742826,-2.0871,-0.2578,-2.4332,-0.4905,0.3522,0.7042,30.525,9.8438,-25.9688,,0.03768199999999977,3.216039410517228,3.3806896210809914,non_fall
3.747592,-2.0871,-0.2578,-2.4332,-0.4905,0.3522,0.7042,30.525,9.8438,-25.9688,,0.004766000000000048,3.216039410517228,3.486440513136527,non_fall
3.75011,-2.0871,-0.2578,-2.4332,-0.4905,0.3522,0.7042,31.8563,8.775,-25.0875,,0.002517999999999798,3.216039410517228,3.5851796905968594,non_fall
3.754093,-2.0871,-0.2578,-2.4332,-0.689,0.1301,0.9246,31.8563,8.775,-25.0875,,0.003983000000000292,3.216039410517228,3.6746191026362003,non_fall
3.757296,-2.7266,-0.0835,-2.4943,-0.689,0.1301,0.9246,31.8563,8.775,-25.0875,,0.003203000000000067,3.696329571345066,3.751902620310549,non_fall
3.766308,-2.7266,-0.0835,-2.4943,-0.689,0.1301,0.9246,31.8563,8.775,-25.0875,,0.009011999999999798,3.696329571345066,3.8139384991920817,non_fall
3.799066,-2.7266,-0.0835,-2.4943,-0.689,0.1301,0.9246,31.8563,8.775,-25.0875,,0.03275799999999984,3.696329571345066,3.8578796725295783,non_fall
3.803601,-2.7266,-0.0835,-2.4943,-0.689,0.1301,0.9246,31.8563,8.775,-25.0875,,0.004535000000000178,3.696329571345066,3.8816854017767013,non_fall
3.806309,-2.7266,-0.0835,-2.4943,-0.9508,-0.1876,1.2926,31.8563,8.775,-25.0875,,0.0027080000000001547,3.696329571345066,3.8846703226486383,non_fall
3.810152,-3.7439,0.0418,-3.9861,-0.9508,-0.1876,1.2926,31.8563,8.775,-25.0875,,0.003842999999999819,5.468777528844997,3.867926163543893,non_fall
3.819048,-3.7439,0.0418,-3.9861,-0.9508,-0.1876,1.2926,32.8688,7.725,-24.5063,,0.008896000000000015,5.468777528844997,3.8344890712300406,non_fall
3.834434,-3.7439,0.0418,-3.9861,-0.9508,-0.1876,1.2926,32.8688,7.725,-24.5063,,0.0153859999999999,5.468777528844997,3.789136877266085,non_fall
3.860517,-2.2969,0.1023,-1.4768,-0.9508,-0.1876,1.2926,32.8688,7.725,-24.5063,,0.0260830000000003,2.7326092183113193,3.7377599760049853,non_fall
3.864842,-2.2969,0.1023,-1.4768,-0.9508,-0.1876,1.2926,32.8688,7.725,-24.5063,,0.00432499999999969,2.7326092183113193,3.6863616419658345,non_fall
3.866345,-2.2969,0.1023,-1.4768,-0.9508,-0.1876,1.2926,32.8688,7.725,-24.5063,,0.001503000000000032,2.7326092183113193,3.6398707813362465,non_fall
3.878852,-2.2969,0.1023,-1.4768,-0.9508,-0.1876,1.2926,33.7688,6.3938,-24.0375,,0.012507000000000268,2.7326092183113193,3.6010306105443597,non_fall
3.884359,-2.2969,0.1023,-1.4768,-0.8514,-0.351,1.3463,33.7688,6.3938,-24.0375,,0.005506999999999707,2.7326092183113193,3.5696244964004524,non_fall
3.901833,-2.2969,0.1023,-1.4768,-0.8514,-0.351,1.3463,33.7688,6.3938,-24.0375,,0.01747399999999999,2.7326092183113193,3.5422282545249955,non_fall
3.90488,-2.2969,0.1023,-1.4768,-0.8514,-0.351,1.3463,33.7688,6.3938,-24.0375,,0.003047000000000022,2.7326092183113193,3.5125736163833667,non_fall
3.923176,-2.2969,0.1023,-1.4768,-0.8514,-0.351,1.3463,33.7688,6.3938,-24.0375,,0.018296000000000312,2.7326092183113193,3.4724970587289326,non_fall
3.926731,-2.9594,-0.0964,-3.3209,-0.8514,-0.351,1.3463,33.7688,6.3938,-24.0375,,0.003554999999999975,4.449237926881411,3.4133416013108833,non_fall
3.935797,-2.9594,-0.0964,-3.3209,-0.8514,-0.351,1.3463,34.3875,5.1938,-23.6625,,0.009065999999999796,4.449237926881411,3.3275837142139726,non_fall
3.938606,-2.9594,-0.0964,-3.3209,-0.9505,-0.077,1.4957,34.3875,5.1938,-23.6625,,0.0028090000000000614,4.449237926881411,3.2103908000205075,non_fall
3.965279,-2.9594,-0.0964,-3.3209,-0.9505,-0.077,1.4957,34.3875,5.1938,-23.6625,,0.02667300000000017,4.449237926881411,3.0608022303912192,non_fall
3.968989,-2.9594,-0.0964,-3.3209,-0.9505,-0.077,1.4957,34.3875,5.1938,-23.6625,,0.00370999999999988,4.449237926881411,2.8822829286861924,non_fall
3.979251,-2.9594,-0.0964,-3.3209,-0.9505,-0.077,1.4957,34.3875,5.1938,-23.6625,,0.010261999999999993,4.449237926881411,2.6825140679097603,non_fall
3.983584,-0.6041,0.1464,-0.3727,-0.9505,-0.077,1.4957,34.3875,5.1938,-23.6625,,0.00433299999999992,0.7247586218873149,2.4724382741018816,non_fall
3.998602,-0.6041,0.1464,-0.3727,-1.218,0.1303,0.9686,34.3875,5.1938,-23.6625,,0.015017999999999976,0.7247586218873149,2.264740221145087,non_fall
4.020092,-0.6041,0.1464,-0.3727,-1.218,0.1303,0.9686,34.3875,5.1938,-23.6625,,0.02149000000000001,0.7247586218873149,2.0720776462081854,non_fall
4.024514,-0.6041,0.1464,-0.3727,-1.218,0.1303,0.9686,34.9125,3.9,-23.2125,,0.004421999999999926,0.7247586218873149,1.9054319679274638,non_fall
4.0337,-0.6041,0.1464,-0.3727,-1.218,0.1303,0.9686,34.9125,3.9,-23.2125,,0.009185999999999694,0.7247586218873149,1.772896905544766,non_fall
4.039275,-0.6041,0.1464,-0.3727,-1.218,0.1303,0.9686,34.9125,3.9,-23.2125,,0.00557500000000033,0.7247586218873149,1.6790935240326232,non_fall
4.041611,0.8209,0.6678,-2.3173,-1.218,0.1303,0.9686,34.9125,3.9,-23.2125,,0.0023359999999996717,2.5474914994951403,1.62524225667197,non_fall
4.076093,0.8209,0.6678,-2.3173,-1.218,0.1303,0.9686,35.2875,2.9813,-23.0438,,0.03448200000000057,2.5474914994951403,1.6097772897641276,non_fall
4.080831,0.8209,0.6678,-2.3173,-1.218,0.1303,0.9686,35.2875,2.9813,-23.0438,,0.004737999999999687,2.5474914994951403,1.6292835264050214,non_fall
4.084036,0.8209,0.6678,-2.3173,-1.3467,0.1448,0.6774,35.2875,2.9813,-23.0438,,0.0032050000000003465,2.5474914994951403,1.6794939948054501,non_fall
4.103852,0.8209,0.6678,-2.3173,-1.3467,0.1448,0.6774,35.2875,2.9813,-23.0438,,0.01981599999999961,2.5474914994951403,1.7561140127851282,non_fall
4.10877,0.8209,0.6678,-2.3173,-1.3467,0.1448,0.6774,35.2875,2.9813,-23.0438,,0.004917999999999978,2.5474914994951403,1.8553202367590258,non_fall
4.112122,0.9323,1.0032,-0.1157,-1.3467,0.1448,0.6774,35.2875,2.9813,-23.0438,,0.0033520000000004657,1.37440169528417,1.973887467240436,non_fall
4.121675,0.9323,1.0032,-0.1157,-1.3467,0.1448,0.6774,35.2875,2.9813,-23.0438,,0.009552999999999479,1.37440169528417,2.108997526629428,non_fall
4.136658,0.9323,1.0032,-0.1157,-1.3467,0.1448,0.6774,35.55,2.2313,-23.0063,,0.014982999999999969,1.37440169528417,2.2578611494409624,non_fall
4.142014,0.9323,1.0032,-0.1157,-1.179,-0.0019,0.3876,35.55,2.2313,-23.0063,,0.005355999999999916,1.37440169528417,2.4173153564900955,non_fall
4.159561,2.829,1.3864,0.2819,-1.179,-0.0019,0.3876,35.55,2.2313,-23.0063,,0.017547000000000423,3.1630386608449794,2.583535390743217,non_fall
4.16508,2.829,1.3864,0.2819,-1.179,-0.0019,0.3876,35.55,2.2313,-23.0063,,0.0055189999999996076,3.1630386608449794,2.751934317134747,non_fall
4.167337,2.829,1.3864,0.2819,-1.179,-0.0019,0.3876,35.55,2.2313,-23.0063,,0.0022570000000001755,3.1630386608449794,2.9172474013281717,non_fall
4.201019,2.829,1.3864,0.2819,-1.083,0.1794,-0.0751,35.55,2.2313,-23.0063,,0.03368199999999977,3.1630386608449794,3.073747851363556,non_fall
4.205562,2.829,1.3864,0.2819,-1.083,0.1794,-0.0751,35.55,2.2313,-23.0063,,0.004542999999999964,3.1630386608449794,3.2155312698553127,non_fall
4.226553,2.829,1.3864,0.2819,-1.083,0.1794,-0.0751,35.55,2.2313,-23.0063,,0.020991000000000426,3.1630386608449794,3.3368260989166245,non_fall
4.231433,2.829,1.3864,0.2819,-1.083,0.1794,-0.0751,35.55,2.2313,-23.0063,,0.0048799999999999955,3.1630386608449794,3.432311871905535,non_fall
4.23397,2.829,1.3864,0.2819,-1.083,0.1794,-0.0751,35.7938,1.7813,-23.1188,,0.0025370000000002335,3.1630386608449794,3.497439489824376,non_fall
4.237308,3.3658,1.6764,0.8297,-1.083,0.1794,-0.0751,35.7938,1.7813,-23.1188,,0.003337999999999397,3.8506270515332957,3.5287439684029924,non_fall
4.277184,3.3658,1.6764,0.8297,-1.083,0.1794,-0.0751,35.7938,1.7813,-23.1188,,0.03987600000000047,3.8506270515332957,3.5241242287357384,non_fall
4.281551,3.3658,1.6764,0.8297,-1.083,0.1794,-0.0751,35.7938,1.7813,-23.1188,,0.004367000000000232,3.8506270515332957,3.4830466041071735,non_fall
4.284674,3.3658,1.6764,0.8297,-1.083,0.1794,-0.0751,35.8125,1.5563,-23.25,,0.003122999999999543,3.8506270515332957,3.406622174201683,non_fall
4.287995,3.3658,1.6764,0.8297,-0.7261,-0.1732,-0.0752,35.8125,1.5563,-23.25,,0.0033209999999996853,3.8506270515332957,3.297521780711742,non_fall
4.291512,1.6025,1.5332,1.0846,-0.7261,-0.1732,-0.0752,35.8125,1.5563,-23.25,,0.0035170000000004364,2.4688186749941763,3.1597255257873385,non_fall
4.29553,1.6025,1.5332,1.0846,-0.7261,-0.1732,-0.0752,35.8125,1.5563,-23.25,,0.004018000000000299,2.4688186749941763,2.998145714702983,non_fall
4.302653,1.6025,1.5332,1.0846,-0.7261,-0.1732,-0.0752,35.8125,1.5563,-23.25,,0.0071229999999999905,2.4688186749941763,2.818197226157713,non_fall
4.325223,1.6025,1.5332,1.0846,-0.7261,-0.1732,-0.0752,35.8125,1.5563,-23.25,,0.02256999999999998,2.4688186749941763,2.6253994587797678,non_fall
4.34583,1.6025,1.5332,1.0846,-0.7261,-0.1732,-0.0752,35.7375,1.5,-23.475,,0.020607000000000042,2.4688186749941763,2.42507285484791,non_fall
4.351535,1.6025,1.5332,1.0846,-0.4189,-0.1609,-0.0436,35.7375,1.5,-23.475,,0.005704999999999849,2.4688186749941763,2.2221531845699705,non_fall
4.354777,1.094,1.2585,0.9725,-0.4189,-0.1609,-0.0436,35.7375,1.5,-23.475,,0.003242000000000189,1.9303923176390856,2.0211096814927703,non_fall
4.357501,1.094,1.2585,0.9725,-0.4189,-0.1609,-0.0436,35.7375,1.5,-23.475,,0.0027239999999997266,1.9303923176390856,1.8259323408429902,non_fall
4.367231,1.094,1.2585,0.9725,-0.4189,-0.1609,-0.0436,35.7375,1.5,-23.475,,0.009730000000000238,1.9303923176390856,1.6401496876765054,non_fall
4.401415,1.094,1.2585,0.9725,-0.3544,-0.2592,-0.0107,35.7375,1.5,-23.475,,0.03418399999999977,1.9303923176390856,1.4668446363488967,non_fall
4.40619,-0.0797,0.8564,0.278,-0.3544,-0.2592,-0.0107,35.7375,1.5,-23.475,,0.00477499999999953,0.9039120809016772,1.3086482375271495,non_fall
4.408941,-0.0797,0.8564,0.278,-0.3544,-0.2592,-0.0107,35.7375,1.5,-23.475,,0.002751000000000836,0.9039120809016772,1.1677086285927116,non_fall
4.410961,-0.0797,0.8564,0.278,-0.3544,-0.2592,-0.0107,35.7375,1.5,-23.475,,0.0020199999999999108,0.9039120809016772,1.0456514990993488,non_fall
4.417062,-0.0797,0.8564,0.278,-0.3544,-0.2592,-0.0107,35.6625,1.8563,-23.4563,,0.006100999999999246,0.9039120809016772,0.9435583374453617,non_fall
4.436039,-0.0797,0.8564,0.278,-0.3544,-0.2592,-0.0107,35.6625,1.8563,-23.4563,,0.018977000000000466,0.9039120809016772,0.8619824703798568,non_fall
4.458617,-0.6046,0.5403,-0.2013,-0.3544,-0.2592,-0.0107,35.6625,1.8563,-23.4563,,0.02257800000000021,0.8354561269151122,0.8010057173162511,non_fall
4.463426,-0.6046,0.5403,-0.2013,-0.3544,-0.2592,-0.0107,35.6625,1.8563,-23.4563,,0.004808999999999841,0.8354561269151122,0.7603221307465438,non_fall
4.464927,-0.6046,0.5403,-0.2013,-0.3544,-0.2592,-0.0107,35.6625,1.8563,-23.4563,,0.0015010000000001966,0.8354561269151122,0.7393268681167278,non_fall
4.478419,-0.6046,0.5403,-0.2013,-0.3544,-0.2592,-0.0107,35.5875,2.4,-23.5688,,0.013491999999999393,0.8354561269151122,0.7371878064949439,non_fall
4.48236,-0.6046,0.5403,-0.2013,-0.2447,-0.3395,0.1275,35.5875,2.4,-23.5688,,0.003941000000000194,0.8354561269151122,0.7528825177432645,non_fall
4.487035,-0.6046,0.5403,-0.2013,-0.2447,-0.3395,0.1275,35.5875,2.4,-23.5688,,0.004674999999999763,0.8354561269151122,0.7851915908301264,non_fall
4.500052,-0.6046,0.5403,-0.2013,-0.2447,-0.3395,0.1275,35.5875,2.4,-23.5688,,0.0130170000000005,0.8354561269151122,0.8326494894085864,non_fall
4.520492,-0.6046,0.5403,-0.2013,-0.2447,-0.3395,0.1275,35.5875,2.4,-23.5688,,0.02043999999999979,0.8354561269151122,0.8934644653417216,non_fall
4.524207,-0.8841,0.3055,0.277,-0.2447,-0.3395,0.1275,35.5875,2.4,-23.5688,,0.0037149999999996908,0.9755470567840384,0.965427567902548,non_fall
4.542648,-0.8841,0.3055,0.277,-0.2447,-0.3395,0.1275,35.4938,3.1313,-23.9813,,0.01844100000000015,0.9755470567840384,1.0458359258167484,non_fall
4.546915,-0.8841,0.3055,0.277,-0.1071,-0.3205,0.1573,35.4938,3.1313,-23.9813,,0.004267000000000465,0.9755470567840384,1.1314567395893127,non_fall
4.565588,-0.8841,0.3055,0.277,-0.1071,-0.3205,0.1573,35.4938,3.1313,-23.9813,,0.018672999999999718,0.9755470567840384,1.2185561087261627,non_fall
4.568148,-0.8841,0.3055,0.277,-0.1071,-0.3205,0.1573,35.4938,3.1313,-23.9813,,0.0025599999999998957,0.9755470567840384,1.303010547755488,non_fall
4.581257,-0.9159,0.2921,-1.2704,-0.1071,-0.3205,0.1573,35.4938,3.1313,-23.9813,,0.013109000000000037,1.5931451220777095,1.3805071294669116,non_fall
4.586702,-0.9159,0.2921,-1.2704,-0.1071,-0.3205,0.1573,35.4938,3.1313,-23.9813,,0.005444999999999922,1.5931451220777095,1.446820227191579,non_fall
4.597761,-0.9159,0.2921,-1.2704,-0.4653,-0.2607,0.0572,35.4938,3.1313,-23.9813,,0.011059000000000374,1.5931451220777095,1.4981334386401728,non_fall
4.616827,-0.9159,0.2921,-1.2704,-0.4653,-0.2607,0.0572,35.4938,3.1313,-23.9813,,0.019065999999999583,1.5931451220777095,1.5313629712932504,non_fall
4.620127,-0.9159,0.2921,-1.2704,-0.4653,-0.2607,0.0572,35.2125,3.675,-24.375,,0.0033000000000003027,1.5931451220777095,1.544438680583712,non_fall
4.632518,-0.9159,0.2921,-1.2704,-0.4653,-0.2607,0.0572,35.2125,3.675,-24.375,,0.012391000000000041,1.5931451220777095,1.536508134992414,non_fall
4.638604,-0.8499,-0.0153,-1.3168,-0.4653,-0.2607,0.0572,35.2125,3.675,-24.375,,0.006085999999999814,1.5673309605823524,1.5080407102689835,non_fall
4.645248,-0.8499,-0.0153,-1.3168,-0.4653,-0.2607,0.0572,35.2125,3.675,-24.375,,0.00664399999999965,1.5673309605823524,1.4608187133218349,non_fall
4.679572,-0.8499,-0.0153,-1.3168,-0.4653,-0.2607,0.0572,35.2125,3.675,-24.375,,0.03432400000000069,1.5673309605823524,1.3978109136941137,non_fall
4.680948,-0.8499,-0.0153,-1.3168,-0.4653,-0.2607,0.0572,34.9125,4.2563,-25.0125,,0.0013759999999995998,1.5673309605823524,1.322932470451739,non_fall
4.682051,-0.8499,-0.0153,-1.3168,-0.3331,-0.4645,0.171,34.9125,4.2563,-25.0125,,0.0011030000000005202,1.5673309605823524,1.2407063687306645,non_fall
4.702764,-0.4547,-0.3979,-0.3079,-0.3331,-0.4645,0.171,34.9125,4.2563,-25.0125,,0.02071299999999976,0.6781437237046436,1.1558571119460512,non_fall
4.705022,-0.4547,-0.3979,-0.3079,-0.3331,-0.4645,0.171,34.9125,4.2563,-25.0125,,0.002257999999999427,0.6781437237046436,1.0728867066269985,non_fall
4.70612,-0.4547,-0.3979,-0.3079,-0.3331,-0.4645,0.171,34.9125,4.2563,-25.0125,,0.0010980000000007095,0.6781437237046436,0.9956987429428982,non_fall
4.736999,-0.4547,-0.3979,-0.3079,-0.3331,-0.4645,0.171,34.9125,4.2563,-25.0125,,0.030878999999999657,0.6781437237046436,0.9273371802345022,non_fall
4.739322,-0.4547,-0.3979,-0.3079,-0.3331,-0.4645,0.171,34.4813,4.5375,-25.5188,,0.002322999999999631,0.6781437237046436,0.8698864477896707,non_fall
4.741019,-0.4547,-0.3979,-0.3079,-0.4342,-0.3309,0.195,34.4813,4.5375,-25.5188,,0.0016970000000000596,0.6781437237046436,0.8245447176282652,non_fall
4.759008,0.0854,-0.1089,-1.0519,-0.4342,-0.3309,0.195,34.4813,4.5375,-25.5188,,0.017989000000000033,1.060964645970826,0.7918446924008239,non_fall
4.76109,0.0854,-0.1089,-1.0519,-0.4342,-0.3309,0.195,34.4813,4.5375,-25.5188,,0.0020820000000005834,1.060964645970826,0.7719651881164992,non_fall
4.762288,0.0854,-0.1089,-1.0519,-0.4342,-0.3309,0.195,34.4813,4.5375,-25.5188,,0.0011979999999995883,1.060964645970826,0.765057824810349,non_fall
4.798896,0.0854,-0.1089,-1.0519,-0.4725,-0.5498,0.2154,34.4813,4.5375,-25.5188,,0.036608000000000196,1.060964645970826,0.7715106005742187,non_fall
4.804162,0.0854,-0.1089,-1.0519,-0.4725,-0.5498,0.2154,34.4813,4.5375,-25.5188,,0.005265999999999771,1.060964645970826,0.7920851210515665,non_fall
4.821133,0.0854,-0.1089,-1.0519,-0.4725,-0.5498,0.2154,33.9563,4.9688,-26.2875,,0.016970999999999847,1.060964645970826,0.827892476110157,non_fall
4.825743,0.0035,0.5376,-0.6428,-0.4725,-0.5498,0.2154,33.9563,4.9688,-26.2875,,0.004610000000000447,0.8379843972294473,0.8802070470289054,non_fall
4.828902,0.0035,0.5376,-0.6428,-0.4725,-0.5498,0.2154,33.9563,4.9688,-26.2875,,0.003159000000000134,0.8379843972294473,0.950151536437001,non_fall
4.832185,0.0035,0.5376,-0.6428,-0.4725,-0.5498,0.2154,33.9563,4.9688,-26.2875,,0.003282999999999703,0.8379843972294473,1.038314828651178,non_fall
4.87605,0.0035,0.5376,-0.6428,-0.4725,-0.5498,0.2154,33.9563,4.9688,-26.2875,,0.043865000000000265,0.8379843972294473,1.1443816357058343,non_fall
4.880608,0.0035,0.5376,-0.6428,-0.4725,-0.5498,0.2154,33.9563,4.9688,-26.2875,,0.004557999999999396,0.8379843972294473,1.2668556154787958,non_fall
4.883468,0.0035,0.5376,-0.6428,-0.4725,-0.5498,0.2154,33.1875,5.2125,-27.1125,,0.0028600000000000847,0.8379843972294473,1.4029451352868167,non_fall
4.886923,0.0035,0.5376,-0.6428,-0.6283,-0.652,0.5305,33.1875,5.2125,-27.1125,,0.003455000000000652,0.8379843972294473,1.5486539976058327,non_fall
4.889945,-1.8899,1.0411,-1.079,-0.6283,-0.652,0.5305,33.1875,5.2125,-27.1125,,0.003021999999999636,2.412436987778126,1.6990791125274842,non_fall
4.893884,-1.8899,1.0411,-1.079,-0.6283,-0.652,0.5305,33.1875,5.2125,-27.1125,,0.003938999999999915,2.412436987778126,1.8488676383936016,non_fall
4.903863,-1.8899,1.0411,-1.079,-0.6283,-0.652,0.5305,33.1875,5.2125,-27.1125,,0.009979000000000404,2.412436987778126,1.9927417658524822,non_fall
4.936781,-1.8899,1.0411,-1.079,-0.6283,-0.652,0.5305,33.1875,5.2125,-27.1125,,0.03291799999999956,2.412436987778126,2.125980996855303,non_fall
4.942597,-1.8899,1.0411,-1.079,-0.6283,-0.652,0.5305,32.5125,5.4375,-28.3125,,0.005816000000000265,2.412436987778126,2.244769933634089,non_fall
4.947391,-1.8899,1.0411,-1.079,-0.413,-0.4807,0.4997,32.5125,5.4375,-28.3125,,0.004793999999999521,2.412436987778126,2.3463633035858424,non_fall
4.950962,-1.1643,1.7748,0.9752,-0.413,-0.4807,0.4997,32.5125,5.4375,-28.3125,,0.003570999999999991,2.33592049736287,2.429067830113305,non_fall
4.954459,-1.1643,1.7748,0.9752,-0.413,-0.4807,0.4997,32.5125,5.4375,-28.3125,,0.0034970000000003054,2.33592049736287,2.4920778684296003,non_fall
4.965866,-1.1643,1.7748,0.9752,-0.413,-0.4807,0.4997,32.5125,5.4375,-28.3125,,0.011407000000000167,2.33592049736287,2.535223907649948,non_fall
4.988205,-1.1643,1.7748,0.9752,-0.413,-0.4807,0.4997,32.5125,5.4375,-28.3125,,0.022338999999999665,2.33592049736287,2.5587003107832067,non_fall
4.999867,-1.1643,1.7748,0.9752,-0.3793,-0.3157,0.408,32.5125,5.4375,-28.3125,,0.011662000000000283,2.33592049736287,2.562832793947797,non_fall
5.003702,-1.1643,1.7748,0.9752,-0.3793,-0.3157,0.408,32.5125,5.4375,-28.3125,,0.0038349999999995887,2.33592049736287,2.547930109358445,non_fall
5.006231,-1.8261,1.8423,0.0211,-0.3793,-0.3157,0.408,32.5125,5.4375,-28.3125,,0.0025290000000000035,2.5940616241716388,2.5142418853674995,non_fall
5.021123,-1.8261,1.8423,0.0211,-0.3793,-0.3157,0.408,31.8188,5.55,-29.4188,,0.014892000000000571,2.5940616241716388,2.4620197539387183,non_fall
5.032674,-1.8261,1.8423,0.0211,-0.3793,-0.3157,0.408,31.8188,5.55,-29.4188,,0.011550999999999867,2.5940616241716388,2.3916570802484256,non_fall
5.052485,-1.8261,1.8423,0.0211,-0.3793,-0.3157,0.408,31.8188,5.55,-29.4188,,0.0198109999999998,2.5940616241716388,2.3038698879925907,non_fall
5.061252,-1.0163,1.5094,0.5236,-0.3793,-0.3157,0.408,31.8188,5.55,-29.4188,,0.008766999999999747,1.893491750708199,2.199881802108495,non_fall
5.067284,-1.0163,1.5094,0.5236,-0.3793,-0.3157,0.408,31.8188,5.55,-29.4188,,0.006032000000000259,1.893491750708199,2.0815871025401314,non_fall
5.077006,-1.0163,1.5094,0.5236,-0.3793,-0.3157,0.408,30.975,5.6625,-30.525,,0.009722000000000008,1.893491750708199,1.9516799648363186,non_fall
5.081532,-1.0163,1.5094,0.5236,-0.2385,-0.5787,0.4003,30.975,5.6625,-30.525,,0.004526000000000252,1.893491750708199,1.8137444396933209,non_fall
5.099695,-1.0163,1.5094,0.5236,-0.2385,-0.5787,0.4003,30.975,5.6625,-30.525,,0.018162999999999485,1.893491750708199,1.6722948786158993,non_fall
5.103309,-1.0163,1.5094,0.5236,-0.2385,-0.5787,0.4003,30.975,5.6625,-30.525,,0.0036140000000006722,1.893491750708199,1.532746847913663,non_fall
5.11874,0.2179,1.2115,-0.2489,-0.2385,-0.5787,0.4003,30.975,5.6625,-30.525,,0.015430999999999528,1.2558518503390437,1.4012949449271632,non_fall
5.122661,0.2179,1.2115,-0.2489,-0.2385,-0.5787,0.4003,30.975,5.6625,-30.525,,0.003921000000000063,1.2558518503390437,1.284682020671976,non_fall
5.141349,0.2179,1.2115,-0.2489,-0.2385,-0.5787,0.4003,30.0375,5.5312,-31.8,,0.018688000000000038,1.2558518503390437,1.1898605388978625,non_fall
5.147652,0.2179,1.2115,-0.2489,-0.2426,-0.7774,0.4949,30.0375,5.5312,-31.8,,0.0063029999999999475,1.2558518503390437,1.1235622542930737,non_fall
5.167132,0.2179,1.2115,-0.2489,-0.2426,-0.7774,0.4949,30.0375,5.5312,-31.8,,0.01947999999999972,1.2558518503390437,1.091801511129942,non_fall
5.170605,0.2179,1.2115,-0.2489,-0.2426,-0.7774,0.4949,30.0375,5.5312,-31.8,,0.0034730000000005035,1.2558518503390437,1.099342787891898,non_fall
5.182762,0.2179,1.2115,-0.2489,-0.2426,-0.7774,0.4949,30.0375,5.5312,-31.8,,0.012157000000000195,1.2558518503390437,1.149170808162862,non_fall
5.186524,0.4008,0.3317,0.8024,-0.2426,-0.7774,0.4949,30.0375,5.5312,-31.8,,0.003762000000000043,0.9563008365571998,1.2420142706050443,non_fall
5.200655,0.4008,0.3317,0.8024,-0.3321,-1.1672,0.445,30.0375,5.5312,-31.8,,0.014130999999999894,0.9563008365571998,1.3759889455742185,non_fall
5.216444,0.4008,0.3317,0.8024,-0.3321,-1.1672,0.445,30.0375,5.5312,-31.8,,0.01578899999999983,0.9563008365571998,1.5464350657209112,non_fall
5.219642,0.4008,0.3317,0.8024,-0.3321,-1.1672,0.445,28.8375,5.4563,-32.85,,0.003198000000000256,0.9563008365571998,1.7460182857445914,non_fall
5.233765,0.4008,0.3317,0.8024,-0.3321,-1.1672,0.445,28.8375,5.4563,-32.85,,0.014122999999999664,0.9563008365571998,1.9651357296356113,non_fall
5.244623,2.4508,-0.3237,2.0599,-0.3321,-1.1672,0.445,28.8375,5.4563,-32.85,,0.010857999999999812,3.2178238516115205,2.1926170890809544,non_fall
5.250234,2.4508,-0.3237,2.0599,-0.3321,-1.1672,0.445,28.8375,5.4563,-32.85,,0.005611000000000033,3.2178238516115205,2.4166431477124637,non_fall
5.280499,2.4508,-0.3237,2.0599,-0.3321,-1.1672,0.445,28.8375,5.4563,-32.85,,0.030264999999999986,3.2178238516115205,2.625742625290489,non_fall
5.284184,2.4508,-0.3237,2.0599,-0.3321,-1.1672,0.445,27.5438,5.2688,-34.1813,,0.0036849999999999383,3.2178238516115205,2.8097032429564486,non_fall
5.286397,2.4508,-0.3237,2.0599,0.0367,-0.7842,0.3363,27.5438,5.2688,-34.1813,,0.0022130000000002426,3.2178238516115205,2.960259384434243,non_fall
5.300474,2.4508,-0.3237,2.0599,0.0367,-0.7842,0.3363,27.5438,5.2688,-34.1813,,0.01407700000000034,3.2178238516115205,3.071481250078063,non_fall
5.303891,2.4508,-0.3237,2.0599,0.0367,-0.7842,0.3363,27.5438,5.2688,-34.1813,,0.0034169999999997813,3.2178238516115205,3.139859089804526,non_fall
5.30579,2.3805,-0.2638,1.3657,0.0367,-0.7842,0.3363,27.5438,5.2688,-34.1813,,0.001898999999999873,2.757083092690534,3.16413110760799,non_fall
5.343939,2.3805,-0.2638,1.3657,0.0367,-0.7842,0.3363,27.5438,5.2688,-34.1813,,0.038148999999999766,2.757083092690534,3.144939421396792,non_fall
5.348943,2.3805,-0.2638,1.3657,0.0367,-0.7842,0.3363,27.5438,5.2688,-34.1813,,0.0050040000000004525,2.757083092690534,3.0844140368607365,non_fall
5.351574,2.3805,-0.2638,1.3657,0.0367,-0.7842,0.3363,26.175,4.7812,-35.325,,0.00263100000000005,2.757083092690534,2.9857789078959005,non_fall
5.355347,2.3805,-0.2638,1.3657,-0.3257,-0.5488,0.2531,26.175,4.7812,-35.325,,0.0037729999999998043,2.757083092690534,2.8530489874384197,non_fall
5.365161,2.3805,-0.2638,1.3657,-0.3257,-0.5488,0.2531,26.175,4.7812,-35.325,,0.009813999999999545,2.757083092690534,2.690851312731048,non_fall
5.369721,2.2415,-0.1419,-0.4489,-0.3257,-0.5488,0.2531,26.175,4.7812,-35.325,,0.004560000000000564,2.2904080575303603,2.5043679739145968,non_fall
5.399997,2.2415,-0.1419,-0.4489,-0.3257,-0.5488,0.2531,26.175,4.7812,-35.325,,0.030275999999999748,2.2904080575303603,2.299372024263042,non_fall
5.40419,2.2415,-0.1419,-0.4489,-0.3777,-0.4494,0.5063,26.175,4.7812,-35.325,,0.004192999999999891,2.2904080575303603,2.0823102295183884,non_fall
5.417589,2.2415,-0.1419,-0.4489,-0.3777,-0.4494,0.5063,26.175,4.7812,-35.325,,0.013399000000000605,2.2904080575303603,1.860376417838061,non_fall
5.422253,2.2415,-0.1419,-0.4489,-0.3777,-0.4494,0.5063,24.9,4.4813,-36.525,,0.0046640000000000015,2.2904080575303603,1.6415158450347744,non_fall
5.426133,0.9772,-0.1321,-0.5535,-0.3777,-0.4494,0.5063,24.9,4.4813,-36.525,,0.0038799999999996615,1.1308105500038457,1.4343093994419513,non_fall
5.429426,0.9772,-0.1321,-0.5535,-0.3777,-0.4494,0.5063,24.9,4.4813,-36.525,,0.0032930000000002124,1.1308105500038457,1.2477105610919659,non_fall
5.484448,0.9772,-0.1321,-0.5535,-0.3777,-0.4494,0.5063,24.9,4.4813,-36.525,,0.055022000000000126,1.1308105500038457,1.0906414091206402,non_fall
5.489211,0.9772,-0.1321,-0.5535,-0.3777,-0.4494,0.5063,24.9,4.4813,-36.525,,0.004762999999999629,1.1308105500038457,0.9714815808035138,non_fall
5.492708,0.4457,-0.3583,-0.6868,-0.3777,-0.4494,0.5063,24.9,4.4813,-36.525,,0.0034970000000003054,0.8937122691336401,0.8974963966553489,non_fall
5.496764,0.4457,-0.3583,-0.6868,-0.3777,-0.4494,0.5063,24.9,4.4813,-36.525,,0.004055999999999393,0.8937122691336401,0.8742520340142133,non_fall
5.499686,0.4457,-0.3583,-0.6868,-0.3777,-0.4494,0.5063,23.5875,4.2375,-37.35,,0.002921999999999869,0.8937122691336401,0.9050668054441128,non_fall
5.50349,0.4457,-0.3583,-0.6868,-0.7733,-0.088,0.6134,23.5875,4.2375,-37.35,,0.0038040000000005847,0.8937122691336401,0.9905518431302309,non_fall
5.507062,0.4457,-0.3583,-0.6868,-0.7733,-0.088,0.6134,23.5875,4.2375,-37.35,,0.0035720000000001306,0.8937122691336401,1.1282986406523603,non_fall
5.536406,0.4457,-0.3583,-0.6868,-0.7733,-0.088,0.6134,22.2375,4.0875,-38.1562,,0.029344000000000037,0.8937122691336401,1.3127709898917812,non_fall
5.541983,0.4457,-0.3583,-0.6868,-0.7733,-0.088,0.6134,22.2375,4.0875,-38.1562,,0.005576999999999721,0.8937122691336401,1.5354516148662256,non_fall
5.544986,0.4457,-0.3583,-0.6868,-0.4397,-0.7151,0.8437,22.2375,4.0875,-38.1562,,0.003002999999999645,0.8937122691336401,1.7852749988598522,non_fall
5.548664,-0.9325,0.3355,2.5492,-0.4397,-0.7151,0.8437,22.2375,4.0875,-38.1562,,0.003677999999999848,2.735057063390086,2.0493429787222492,non_fall
5.551651,-0.9325,0.3355,2.5492,-0.4397,-0.7151,0.8437,22.2375,4.0875,-38.1562,,0.002987000000000073,2.735057063390086,2.3138695905047952,non_fall
5.566584,-0.9325,0.3355,2.5492,-0.4397,-0.7151,0.8437,22.2375,4.0875,-38.1562,,0.014933000000000085,2.735057063390086,2.565250219989841,non_fall
5.599794,3.2285,-0.1533,0.6592,-0.4397,-0.7151,0.8437,22.2375,4.0875,-38.1562,,0.033210000000000406,3.298675155270673,2.7911201348585637,non_fall
5.604776,3.2285,-0.1533,0.6592,-1.131,0.3196,0.233,22.2375,4.0875,-38.1562,,0.004982000000000042,3.298675155270673,2.9812720899039706,non_fall
5.6076,3.2285,-0.1533,0.6592,-1.131,0.3196,0.233,22.2375,4.0875,-38.1562,,0.0028239999999994936,3.298675155270673,3.1283345731774848,non_fall
5.60972,3.2285,-0.1533,0.6592,-1.131,0.3196,0.233,22.2375,4.0875,-38.1562,,0.002120000000000566,3.298675155270673,3.2281550527921383,non_fall
5.618602,3.2285,-0.1533,0.6592,-1.131,0.3196,0.233,21.0563,4.3125,-38.8125,,0.008881999999999834,3.298675155270673,3.2798748313935233,non_fall
5.633219,3.2285,-0.1533,0.6592,-1.131,0.3196,0.233,21.0563,4.3125,-38.8125,,0.014617000000000324,3.298675155270673,3.285717654993206,non_fall
5.663699,3.2285,-0.1533,0.6592,-1.131,0.3196,0.233,21.0563,4.3125,-38.8125,,0.03047999999999984,3.298675155270673,3.2505393640862428,non_fall
5.667107,3.2285,-0.1533,0.6592,-1.131,0.3196,0.233,21.0563,4.3125,-38.8125,,0.0034079999999994115,3.298675155270673,3.1812006204662224,non_fall
5.668726,0.5218,-1.2266,2.331,-1.131,0.3196,0.233,21.0563,4.3125,-38.8125,,0.0016190000000007032,2.685215782763091,3.0858325848082173,non_fall
5.677216,0.5218,-1.2266,2.331,-1.131,0.3196,0.233,20.0813,5.0063,-39.1688,,0.00848999999999922,2.685215782763091,2.973069470631591,non_fall
5.684468,0.5218,-1.2266,2.331,-0.443,0.3749,0.3494,20.0813,5.0063,-39.1688,,0.007252000000000258,2.685215782763091,2.8513210250569068,non_fall
5.703203,0.5218,-1.2266,2.331,-0.443,0.3749,0.3494,20.0813,5.0063,-39.1688,,0.01873500000000039,2.685215782763091,2.7281478119148828,non_fall
5.705908,0.5218,-1.2266,2.331,-0.443,0.3749,0.3494,20.0813,5.0063,-39.1688,,0.0027049999999997354,2.685215782763091,2.6097816702636045,non_fall
5.719731,0.5218,-1.2266,2.331,-0.443,0.3749,0.3494,20.0813,5.0063,-39.1688,,0.013823000000000363,2.685215782763091,2.500809431482836,non_fall
5.722676,1.6383,-0.5881,-1.2647,-0.443,0.3749,0.3494,20.0813,5.0063,-39.1688,,0.0029449999999995313,2.1515935001760904,2.4040194679414655,non_fall
5.735474,1.6383,-0.5881,-1.2647,-0.443,0.3749,0.3494,19.8,5.8875,-39.225,,0.012798000000000087,2.1515935001760904,2.3204025242885855,non_fall
5.738899,1.6383,-0.5881,-1.2647,-1.2007,0.914,-0.2862,19.8,5.8875,-39.225,,0.0034250000000000114,2.1515935001760904,2.2492969495594926,non_fall
5.749546,1.6383,-0.5881,-1.2647,-1.2007,0.914,-0.2862,19.8,5.8875,-39.225,,0.010646999999999629,2.1515935001760904,2.1886657665043057,non_fall
5.767113,1.6383,-0.5881,-1.2647,-1.2007,0.914,-0.2862,19.8,5.8875,-39.225,,0.017567000000000554,2.1515935001760904,2.135483915815243,non_fall
5.780697,1.6383,-0.5881,-1.2647,-1.2007,0.914,-0.2862,19.8,5.8875,-39.225,,0.013583999999999818,2.1515935001760904,2.08620075016392,non_fall
5.784957,1.2406,0.1092,-1.7121,-1.2007,0.914,-0.2862,19.8,5.8875,-39.225,,0.004260000000000375,2.117144163726221,2.037231444924594,non_fall
5.799445,1.2406,0.1092,-1.7121,-0.6532,1.0765,-0.2301,19.8,5.8875,-39.225,,0.014488000000000056,2.117144163726221,1.985425434293931,non_fall
5.822049,1.2406,0.1092,-1.7121,-0.6532,1.0765,-0.2301,19.8,5.8875,-39.225,,0.022603999999999402,2.117144163726221,1.9284609083886879,non_fall
5.825898,1.2406,0.1092,-1.7121,-0.6532,1.0765,-0.2301,19.9688,7.2375,-38.8125,,0.0038489999999997693,2.117144163726221,1.8651211102545444,non_fall
5.83251,1.2406,0.1092,-1.7121,-0.6532,1.0765,-0.2301,19.9688,7.2375,-38.8125,,0.006612000000000506,2.117144163726221,1.7954203183716912,non_fall
5.843584,1.2406,0.1092,-1.7121,-0.6532,1.0765,-0.2301,19.9688,7.2375,-38.8125,,0.011073999999999806,2.117144163726221,1.7205654935895418,non_fall
5.846521,0.9227,0.2972,0.7022,-0.6532,1.0765,-0.2301,19.9688,7.2375,-38.8125,,0.0029370000000001895,1.1969912155066136,1.6427641572161382,non_fall
5.875473,0.9227,0.2972,0.7022,-0.6532,1.0765,-0.2301,20.5875,8.8875,-38.0438,,0.02895200000000031,1.1969912155066136,1.5649179408542604,non_fall
5.878905,0.9227,0.2972,0.7022,-0.6532,1.0765,-0.2301,20.5875,8.8875,-38.0438,,0.0034319999999992135,1.1969912155066136,1.4902660020203353,non_fall
5.880558,0.9227,0.2972,0.7022,-0.511,0.508,0.0403,20.5875,8.8875,-38.0438,,0.0016530000000001266,1.1969912155066136,1.4220508130735905,non_fall
5.901146,0.9227,0.2972,0.7022,-0.511,0.508,0.0403,20.5875,8.8875,-38.0438,,0.02058800000000005,1.1969912155066136,1.3632645583148482,non_fall
5.904604,0.9227,0.2972,0.7022,-0.511,0.508,0.0403,20.5875,8.8875,-38.0438,,0.003458000000000183,1.1969912155066136,1.3165039135495362,non_fall
5.906299,-1.1752,0.8979,0.4718,-0.511,0.508,0.0403,20.5875,8.8875,-38.0438,,0.00169499999999978,1.5523899928819433,1.2839269722005175,non_fall
5.937335,-1.1752,0.8979,0.4718,-0.511,0.508,0.0403,21.4313,10.575,-37.0312,,0.031036000000000286,1.5523899928819433,1.2672781642159883,non_fall
5.942586,-1.1752,0.8979,0.4718,-0.511,0.508,0.0403,21.4313,10.575,-37.0312,,0.005251000000000339,1.5523899928819433,1.267930798262209,non_fall
5.945316,-1.1752,0.8979,0.4718,-0.4342,-0.0232,0.2479,21.4313,10.575,-37.0312,,0.002729999999999677,1.5523899928819433,1.2868962906984567,non_fall
5.953825,-1.1752,0.8979,0.4718,-0.4342,-0.0232,0.2479,21.4313,10.575,-37.0312,,0.0085090000000001,1.5523899928819433,1.3247649504906025,non_fall
5.961585,0.1716,1.1503,-0.5251,-0.4342,-0.0232,0.2479,21.4313,10.575,-37.0312,,0.007760000000000211,1.276074707844333,1.3815707549206644,non_fall
5.967853,0.1716,1.1503,-0.5251,-0.4342,-0.0232,0.2479,21.4313,10.575,-37.0312,,0.006267999999999496,1.276074707844333,1.4566037743673224,non_fall
5.989763,0.1716,1.1503,-0.5251,-0.4342,-0.0232,0.2479,21.4313,10.575,-37.0312,,0.021910000000000096,1.276074707844333,1.548220187579421,non_fall
6.001493,0.1716,1.1503,-0.5251,-0.1939,-0.524,0.2509,21.4313,10.575,-37.0312,,0.011730000000000018,1.276074707844333,1.6537137184522663,non_fall
6.01848,0.1716,1.1503,-0.5251,-0.1939,-0.524,0.2509,21.4313,10.575,-37.0312,,0.016987000000000307,1.276074707844333,1.7693093837532685,non_fall
6.022919,0.1716,1.1503,-0.5251,-0.1939,-0.524,0.2509,22.2,12.1125,-36.1313,,0.004438999999999638,1.276074707844333,1.8903203864595939,non_fall
6.026099,-0.0364,0.7391,2.4687,-0.1939,-0.524,0.2509,22.2,12.1125,-36.1313,,0.0031800000000004047,2.5772220432085398,2.0114743462307576,non_fall
6.029368,-0.0364,0.7391,2.4687,-0.1939,-0.524,0.2509,22.2,12.1125,-36.1313,,0.0032689999999995223,2.5772220432085398,2.1273714932941985,non_fall
6.052587,-0.0364,0.7391,2.4687,-0.1939,-0.524,0.2509,22.2,12.1125,-36.1313,,0.0232190000000001,2.5772220432085398,2.232997750336168,non_fall
6.077804,-0.0364,0.7391,2.4687,-0.1939,-0.524,0.2509,22.2,12.1125,-36.1313,,0.02521700000000049,2.5772220432085398,2.3241975067033005,non_fall
6.08234,-0.0364,0.7391,2.4687,0.0038,0.2039,0.2714,22.2,12.1125,-36.1313,,0.0045359999999998735,2.5772220432085398,2.398023447639703,non_fall
6.086264,0.5159,1.5659,1.7898,0.0038,0.2039,0.2714,22.2,12.1125,-36.1313,,0.0039239999999995945,2.433429608597709,2.45291548968538,non_fall
6.089866,0.5159,1.5659,1.7898,0.0038,0.2039,0.2714,23.0813,13.5,-35.1188,,0.003601999999999883,2.433429608597709,2.4887001948262446,non_fall
6.093711,0.5159,1.5659,1.7898,0.0038,0.2039,0.2714,23.0813,13.5,-35.1188,,0.0038450000000000983,2.433429608597709,2.50643324967568,non_fall
6.138561,0.5159,1.5659,1.7898,0.0038,0.2039,0.2714,23.0813,13.5,-35.1188,,0.04485000000000028,2.433429608597709,2.508126192516752,non_fall
6.143268,0.5159,1.5659,1.7898,0.0038,0.2039,0.2714,24.075,14.4563,-34.1625,,0.004706999999999795,2.433429608597709,2.496405146345634,non_fall
6.147261,0.5159,1.5659,1.7898,0.0038,0.2039,0.2714,24.075,14.4563,-34.1625,,0.003993000000000357,2.433429608597709,2.474147168329616,non_fall
6.150076,0.5159,1.5659,1.7898,-0.0011,0.2871,0.1557,24.075,14.4563,-34.1625,,0.002815000000000012,2.433429608597709,2.444133157081695,non_fall
6.153519,-0.1807,2.0362,1.029,-0.0011,0.2871,0.1557,24.075,14.4563,-34.1625,,0.003442999999999863,2.2885812045894287,2.4087484076629493,non_fall
6.156792,-0.1807,2.0362,1.029,-0.0011,0.2871,0.1557,24.075,14.4563,-34.1625,,0.0032730000000000814,2.2885812045894287,2.369754549544746,non_fall
6.1681,-0.1807,2.0362,1.029,-0.0011,0.2871,0.1557,24.075,14.4563,-34.1625,,0.011307999999999652,2.2885812045894287,2.328149727127032,non_fall
6.189834,-0.1807,2.0362,1.029,-0.0011,0.2871,0.1557,24.075,14.4563,-34.1625,,0.021734000000000364,2.2885812045894287,2.284126498654196,non_fall
6.201565,-0.1807,2.0362,1.029,0.0173,0.0944,0.2608,24.075,14.4563,-34.1625,,0.011731000000000158,2.2885812045894287,2.2371287868365592,non_fall
6.205286,-0.9018,1.6939,-0.6014,0.0173,0.0944,0.2608,24.075,14.4563,-34.1625,,0.0037209999999996413,2.0110252136659055,2.1860017424203577,non_fall
6.20773,-0.9018,1.6939,-0.6014,0.0173,0.0944,0.2608,24.075,14.4563,-34.1625,,0.0024439999999996687,2.0110252136659055,2.129223068386683,non_fall
6.216181,-0.9018,1.6939,-0.6014,0.0173,0.0944,0.2608,25.2188,15.075,-33.1875,,0.008450999999999986,2.0110252136659055,2.0652002719233487,non_fall
6.234873,-0.9018,1.6939,-0.6014,0.0173,0.0944,0.2608,25.2188,15.075,-33.1875,,0.018692000000000597,2.0110252136659055,1.9926125404933461,non_fall
6.25945,-0.5496,0.4203,-1.748,0.0173,0.0944,0.2608,25.2188,15.075,-33.1875,,0.02457699999999985,1.8799511296839606,1.9107671146190552,non_fall
6.263039,-0.5496,0.4203,-1.748,0.0173,0.0944,0.2608,25.2188,15.075,-33.1875,,0.0035889999999998423,1.8799511296839606,1.8199303663493804,non_fall
6.264359,-0.5496,0.4203,-1.748,0.0173,0.0944,0.2608,25.2188,15.075,-33.1875,,0.0013199999999997658,1.8799511296839606,1.7215867532976836,non_fall
6.277786,-0.5496,0.4203,-1.748,0.0173,0.0944,0.2608,31.2,16.0875,-36.2438,,0.013427000000000078,1.8799511296839606,1.6185763600036653,non_fall
6.282853,-0.5496,0.4203,-1.748,-0.2841,-0.2122,0.0221,31.2,16.0875,-36.2438,,0.005067000000000377,1.8799511296839606,1.5150649800396403,non_fall
6.302165,-0.5496,0.4203,-1.748,-0.2841,-0.2122,0.0221,31.2,16.0875,-36.2438,,0.01931199999999933,1.8799511296839606,1.4163116894134178,non_fall
6.320737,-0.5496,0.4203,-1.748,-0.2841,-0.2122,0.0221,31.2,16.0875,-36.2438,,0.0185720000000007,1.8799511296839606,1.328220242958576,non_fall
6.324247,-0.5496,0.4203,-1.748,-0.2841,-0.2122,0.0221,31.2,16.0875,-36.2438,,0.003509999999999458,1.8799511296839606,1.2566941372972495,non_fall
6.326158,0.1882,-0.1008,-0.1854,-0.2841,-0.2122,0.0221,31.2,16.0875,-36.2438,,0.0019110000000006622,0.28275968595257706,1.2068604213467573,non_fall
6.335153,0.1882,-0.1008,-0.1854,-0.2841,-0.2122,0.0221,31.65,16.2375,-35.8313,,0.008994999999999642,0.28275968595257706,1.1822780953498815,non_fall
6.344653,0.1882,-0.1008,-0.1854,-0.3338,0.3016,-0.0819,31.65,16.2375,-35.8313,,0.009500000000000064,0.28275968595257706,1.1842859032177864,non_fall
6.364649,0.1882,-0.1008,-0.1854,-0.3338,0.3016,-0.0819,31.65,16.2375,-35.8313,,0.019995999999999903,0.28275968595257706,1.2116471260696575,non_fall
6.366785,0.1882,-0.1008,-0.1854,-0.3338,0.3016,-0.0819,31.65,16.2375,-35.8313,,0.002136000000000138,0.28275968595257706,1.2606018737009106,non_fall
6.381843,-0.244,0.0735,-2.1353,-0.3338,0.3016,-0.0819,31.65,16.2375,-35.8313,,0.015057999999999794,2.1504521245542763,1.3253494913595296,non_fall
6.384499,-0.244,0.0735,-2.1353,-0.3338,0.3016,-0.0819,31.65,16.2375,-35.8313,,0.0026559999999999917,2.1504521245542763,1.3988808388350074,non_fall
6.403028,-0.244,0.0735,-2.1353,-0.162,0.0157,0.0693,31.65,16.2375,-35.8313,,0.018529000000000018,2.1504521245542763,1.4739940424734255,non_fall
6.418648,-0.244,0.0735,-2.1353,-0.162,0.0157,0.0693,31.65,16.2375,-35.8313,,0.01562000000000019,2.1504521245542763,1.5442870672992728,non_fall
6.420511,-0.244,0.0735,-2.1353,-0.162,0.0157,0.0693,31.7813,16.1625,-35.4563,,0.00186300000000017,2.1504521245542763,1.6049380948813199,non_fall
6.43393,-0.244,0.0735,-2.1353,-0.162,0.0157,0.0693,31.7813,16.1625,-35.4563,,0.013418999999999848,2.1504521245542763,1.653146060119823,non_fall
6.440715,-0.244,0.0735,-2.1353,-0.162,0.0157,0.0693,31.7813,16.1625,-35.4563,,0.006784999999999819,2.1504521245542763,1.6881823720279174,non_fall
6.443021,-0.1175,0.8721,0.7823,-0.162,0.0157,0.0693,31.7813,16.1625,-35.4563,,0.0023059999999999192,1.1774370259168854,1.7110820996408378,non_fall
6.476876,-0.1175,0.8721,0.7823,-0.162,0.0157,0.0693,31.7813,16.1625,-35.4563,,0.03385499999999997,1.1774370259168854,1.7240698016358518,non_fall
6.481212,-0.1175,0.8721,0.7823,-0.162,0.0157,0.0693,31.95,16.2188,-35.1938,,0.00433600000000034,1.1774370259168854,1.729862403681724,non_fall
6.485204,-0.1175,0.8721,0.7823,-0.4839,0.454,-0.5495,31.95,16.2188,-35.1938,,0.003992000000000218,1.1774370259168854,1.7310069396599164,non_fall
6.48931,-0.1175,0.8721,0.7823,-0.4839,0.454,-0.5495,31.95,16.2188,-35.1938,,0.004105999999999277,1.1774370259168854,1.7293891713164775,non_fall
6.506107,-0.1175,0.8721,0.7823,-0.4839,0.454,-0.5495,31.95,16.2188,-35.1938,,0.016797000000000395,1.1774370259168854,1.7259980954413219,non_fall
6.51002,1.5957,-0.3609,-1.3949,-0.4839,0.454,-0.5495,31.95,16.2188,-35.1938,,0.003912999999999833,2.1499426294671213,1.7209661714056668,non_fall
6.536919,1.5957,-0.3609,-1.3949,-0.4839,0.454,-0.5495,31.95,16.2188,-35.1938,,0.02689900000000023,2.1499426294671213,1.7138395471110528,non_fall
6.54623,1.5957,-0.3609,-1.3949,-0.4839,0.454,-0.5495,32.25,16.5375,-34.6313,,0.009311000000000291,2.1499426294671213,1.7039802050595403,non_fall
6.550767,1.5957,-0.3609,-1.3949,-0.2959,0.7045,-0.461,32.25,16.5375,-34.6313,,0.004536999999999125,2.1499426294671213,1.6909772100379308,non_fall
6.5607,1.5957,-0.3609,-1.3949,-0.2959,0.7045,-0.461,32.25,16.5375,-34.6313,,0.009933000000000192,2.1499426294671213,1.6749541974421562,non_fall
6.564813,1.5957,-0.3609,-1.3949,-0.2959,0.7045,-0.461,32.25,16.5375,-34.6313,,0.004113000000000255,2.1499426294671213,1.6566983846579506,non_fall
6.56698,-0.9122,-0.7502,-0.2791,-0.2959,0.7045,-0.461,32.25,16.5375,-34.6313,,0.00216700000000003,1.213592060784842,1.6375889687357974,non_fall
6.599304,-0.9122,-0.7502,-0.2791,0.0315,0.1408,-0.2455,32.25,16.5375,-34.6313,,0.03232400000000002,1.213592060784842,1.6193571403574836,non_fall
6.603071,-0.9122,-0.7502,-0.2791,0.0315,0.1408,-0.2455,32.25,16.5375,-34.6313,,0.003766999999999854,1.213592060784842,1.60375364887145,non_fall
6.617263,-0.9122,-0.7502,-0.2791,0.0315,0.1408,-0.2455,32.5688,17.0813,-34.1625,,0.014192000000000426,1.213592060784842,1.5922195277430489,non_fall
6.620011,-0.9122,-0.7502,-0.2791,0.0315,0.1408,-0.2455,32.5688,17.0813,-34.1625,,0.0027479999999995286,1.213592060784842,1.5856447526027597,non_fall
6.621589,-0.3683,-0.9303,1.4505,0.0315,0.1408,-0.2455,32.5688,17.0813,-34.1625,,0.0015780000000003014,1.7621161227342539,1.584264964393693,non_fall
6.623877,-0.3683,-0.9303,1.4505,0.0315,0.1408,-0.2455,32.5688,17.0813,-34.1625,,0.0022880000000000678,1.7621161227342539,1.587702665836884,non_fall
6.666896,-0.3683,-0.9303,1.4505,0.0315,0.1408,-0.2455,32.5688,17.0813,-34.1625,,0.04301900000000014,1.7621161227342539,1.5951208728067625,non_fall
6.670738,-0.3683,-0.9303,1.4505,0.0315,0.1408,-0.2455,32.5688,17.0813,-34.1625,,0.003841999999999679,1.7621161227342539,1.6054344650054133,non_fall
6.677554,-0.3683,-0.9303,1.4505,0.0315,0.1408,-0.2455,32.925,17.7188,-33.5063,,0.006815999999999711,1.7621161227342539,1.6175211461461956,non_fall
6.692268,-0.3683,-0.9303,1.4505,0.1511,0.9234,-0.5974,32.925,17.7188,-33.5063,,0.01471400000000056,1.7621161227342539,1.6303855954860658,non_fall
6.696726,-0.3683,-0.9303,1.4505,0.1511,0.9234,-0.5974,32.925,17.7188,-33.5063,,0.004457999999999629,1.7621161227342539,1.6432489184192827,non_fall
6.698743,0.9965,-1.1014,0.5969,0.1511,0.9234,-0.5974,32.925,17.7188,-33.5063,,0.0020170000000003796,1.6007447704115731,1.6555549583499747,non_fall
6.736298,0.9965,-1.1014,0.5969,0.1511,0.9234,-0.5974,32.925,17.7188,-33.5063,,0.03755499999999934,1.6007447704115731,1.6669026926529384,non_fall
6.739204,0.9965,-1.1014,0.5969,0.1511,0.9234,-0.5974,32.925,17.7188,-33.5063,,0.0029060000000002972,1.6007447704115731,1.6769277922069945,non_fall
6.740644,0.9965,-1.1014,0.5969,0.1511,0.9234,-0.5974,32.9813,18.675,-32.9062,,0.0014399999999996638,1.6007447704115731,1.685164194181113,non_fall
6.742525,0.9965,-1.1014,0.5969,0.3607,0.7123,-0.926,32.9813,18.675,-32.9062,,0.0018810000000000215,1.6007447704115731,1.6909171464614534,non_fall
6.743975,1.3351,-0.9494,0.3056,0.3607,0.7123,-0.926,32.9813,18.675,-32.9062,,0.0014500000000001734,1.6665064446320033,1.693173909850086,non_fall
6.745221,1.3351,-0.9494,0.3056,0.3607,0.7123,-0.926,32.9813,18.675,-32.9062,,0.0012460000000000804,1.6665064446320033,1.6905698202876152,non_fall
6.770497,1.3351,-0.9494,0.3056,0.3607,0.7123,-0.926,32.9813,18.675,-32.9062,,0.025275999999999854,1.6665064446320033,1.6814182439352157,non_fall
6.803017,1.3351,-0.9494,0.3056,0.3607,0.7123,-0.926,32.9813,18.675,-32.9062,,0.03251999999999988,1.6665064446320033,1.6638049431974,non_fall
6.808081,1.0765,-0.5267,-0.9012,0.3607,0.7123,-0.926,32.9813,18.675,-32.9062,,0.005063999999999957,1.499475434943834,1.6357414580835465,non_fall
6.812344,1.0765,-0.5267,-0.9012,0.3607,0.7123,-0.926,32.9813,18.675,-32.9062,,0.004263000000000794,1.499475434943834,1.5953679103741598,non_fall
6.815103,1.0765,-0.5267,-0.9012,0.1765,1.3153,-0.4721,32.9813,18.675,-32.9062,,0.00275899999999929,1.499475434943834,1.5411914324996219,non_fall
6.819775,1.0765,-0.5267,-0.9012,0.1765,1.3153,-0.4721,33.3188,19.4438,-31.8188,,0.0046720000000002315,1.499475434943834,1.4723403043730716,non_fall
6.835542,1.0765,-0.5267,-0.9012,0.1765,1.3153,-0.4721,33.3188,19.4438,-31.8188,,0.01576700000000031,1.499475434943834,1.3888057698209788,non_fall
6.862354,1.0765,-0.5267,-0.9012,0.1765,1.3153,-0.4721,33.3188,19.4438,-31.8188,,0.026811999999999614,1.499475434943834,1.2916360622560523,non_fall
6.866185,1.0765,-0.5267,-0.9012,0.1765,1.3153,-0.4721,33.3188,19.4438,-31.8188,,0.003830999999999918,1.499475434943834,1.1830444204301325,non_fall
6.868306,1.0765,-0.5267,-0.9012,0.3693,0.6919,-0.4612,33.3188,19.4438,-31.8188,,0.0021209999999998175,1.499475434943834,1.0663982576527538,non_fall
6.870831,0.5901,0.2747,-0.1686,0.3693,0.6919,-0.4612,33.3188,19.4438,-31.8188,,0.0025250000000003325,0.672386838062733,0.9460720797792378,non_fall
6.878241,0.5901,0.2747,-0.1686,0.3693,0.6919,-0.4612,33.8063,20.2313,-30.7313,,0.007410000000000139,0.672386838062733,0.8271710198577972,non_fall
6.903251,0.5901,0.2747,-0.1686,0.3693,0.6919,-0.4612,33.8063,20.2313,-30.7313,,0.025009999999999977,0.672386838062733,0.7151580250764411,non_fall
6.920382,0.273,0.2109,-0.2537,0.3693,0.6919,-0.4612,33.8063,20.2313,-30.7313,,0.017131000000000007,0.4282189860340151,0.6154350087148706,non_fall
6.925072,0.273,0.2109,-0.2537,0.3693,0.6919,-0.4612,33.8063,20.2313,-30.7313,,0.004690000000000083,0.4282189860340151,0.5329304082778655,non_fall
6.927222,0.273,0.2109,-0.2537,0.3693,0.6919,-0.4612,33.8063,20.2313,-30.7313,,0.0021500000000003183,0.4282189860340151,0.4717356906435093,non_fall
6.93698,0.273,0.2109,-0.2537,0.3693,0.6919,-0.4612,34.35,20.925,-29.6063,,0.009757999999999711,0.4282189860340151,0.4348186977083096,non_fall
6.943226,0.273,0.2109,-0.2537,0.643,0.5199,-0.1719,34.35,20.925,-29.6063,,0.006245999999999974,0.4282189860340151,0.4238273751580544,non_fall
6.966739,0.273,0.2109,-0.2537,0.643,0.5199,-0.1719,34.35,20.925,-29.6063,,0.02351299999999945,0.4282189860340151,0.4389858745081691,non_fall
6.970137,0.273,0.2109,-0.2537,0.643,0.5199,-0.1719,34.35,20.925,-29.6063,,0.0033980000000006783,0.4282189860340151,0.47907750739491295,non_fall
6.986108,0.205,0.1323,-0.6685,0.643,0.5199,-0.1719,34.35,20.925,-29.6063,,0.015970999999999513,0.7116323067427448,0.5415052019148116,non_fall
6.991679,0.205,0.1323,-0.6685,0.643,0.5199,-0.1719,34.35,20.925,-29.6063,,0.005571000000000659,0.7116323067427448,0.6224186706470006,non_fall
7.002751,0.205,0.1323,-0.6685,0.3412,0.2936,-0.3426,34.35,20.925,-29.6063,,0.011071999999999527,0.7116323067427448,0.7168982387546492,non_fall
7.017692,0.205,0.1323,-0.6685,0.3412,0.2936,-0.3426,34.35,20.925,-29.6063,,0.014941000000000315,0.7116323067427448,0.8191891474225587,non_fall
7.020894,0.205,0.1323,-0.6685,0.3412,0.2936,-0.3426,34.8938,21.375,-28.7063,,0.003201999999999927,0.7116323067427448,0.9229864258786161,non_fall
7.033564,0.205,0.1323,-0.6685,0.3412,0.2936,-0.3426,34.8938,21.375,-28.7063,,0.012669999999999959,0.7116323067427448,1.0217749015934545,non_fall
7.039351,0.205,0.1323,-0.6685,0.3412,0.2936,-0.3426,34.8938,21.375,-28.7063,,0.0057869999999997646,0.7116323067427448,1.1092259969751022,non_fall
7.040997,-0.5112,-0.4538,-1.3817,0.3412,0.2936,-0.3426,34.8938,21.375,-28.7063,,0.0016460000000000363,1.5415429835071093,1.1796392930455761,non_fall
7.060851,-0.5112,-0.4538,-1.3817,0.2813,-0.0346,-0.1816,34.8938,21.375,-28.7063,,0.019854000000000482,1.5415429835071093,1.2283941692232891,non_fall
7.079193,-0.5112,-0.4538,-1.3817,0.2813,-0.0346,-0.1816,34.8938,21.375,-28.7063,,0.018341999999999636,1.5415429835071093,1.2523539200995581,non_fall
7.08336,-0.5112,-0.4538,-1.3817,0.2813,-0.0346,-0.1816,35.325,21.7313,-27.9188,,0.00416699999999981,1.5415429835071093,1.250154585313514,non_fall
7.102859,-0.5112,-0.4538,-1.3817,0.2813,-0.0346,-0.1816,35.325,21.7313,-27.9188,,0.01949899999999971,1.5415429835071093,1.2223211562736747,non_fall
7.106032,-0.5112,-0.4538,-1.3817,0.2813,-0.0346,-0.1816,35.325,21.7313,-27.9188,,0.0031730000000003145,1.5415429835071093,1.1711816241672848,non_fall
7.10757,-0.1535,-0.5757,0.3309,0.2813,-0.0346,-0.1816,35.325,21.7313,-27.9188,,0.0015380000000000393,0.6815332346995265,1.1005854198487768,non_fall
7.136305,-0.1535,-0.5757,0.3309,0.2813,-0.0346,-0.1816,35.325,21.7313,-27.9188,,0.028735000000000177,0.6815332346995265,1.015468980274715,non_fall
7.139976,-0.1535,-0.5757,0.3309,0.2813,-0.0346,-0.1816,35.325,21.7313,-27.225,,0.003670999999999758,0.6815332346995265,0.9213390186393949,non_fall
7.145868,-0.1535,-0.5757,0.3309,-0.1461,0.2657,-0.2476,35.325,21.7313,-27.225,,0.00589200000000023,0.6815332346995265,0.8237539233457009,non_fall
7.162437,-0.1535,-0.5757,0.3309,-0.1461,0.2657,-0.2476,35.325,21.7313,-27.225,,0.016568999999999612,0.6815332346995265,0.7278719020529496,non_fall
7.165675,-0.1535,-0.5757,0.3309,-0.1461,0.2657,-0.2476,35.325,21.7313,-27.225,,0.0032380000000005182,0.6815332346995265,0.6381088217729083,non_fall
7.167189,0.1448,-0.2355,-0.3434,-0.1461,0.2657,-0.2476,35.325,21.7313,-27.225,,0.0015139999999993492,0.4408524129456478,0.5579222292944144,non_fall
7.200475,0.1448,-0.2355,-0.3434,-0.1461,0.2657,-0.2476,35.325,21.7313,-27.225,,0.03328600000000037,0.4408524129456478,0.4897190085937114,non_fall
7.20419,0.1448,-0.2355,-0.3434,-0.0899,0.2539,-0.1148,35.325,21.7313,-27.225,,0.0037149999999996908,0.4408524129456478,0.4348730173541238,non_fall
7.216935,0.1448,-0.2355,-0.3434,-0.0899,0.2539,-0.1148,35.6438,22.0312,-26.5125,,0.012745000000000672,0.4408524129456478,0.3938322398154974,non_fall
7.220897,0.1448,-0.2355,-0.3434,-0.0899,0.2539,-0.1148,35.6438,22.0312,-26.5125,,0.003961999999999577,0.4408524129456478,0.36628971851186676,non_fall
7.22312,-0.2841,-0.0596,-0.2952,-0.0899,0.2539,-0.1148,35.6438,22.0312,-26.5125,,0.002222999999999864,0.4140145045768324,0.3513890483010672,non_fall
7.225955,-0.2841,-0.0596,-0.2952,-0.0899,0.2539,-0.1148,35.6438,22.0312,-26.5125,,0.002835000000000143,0.4140145045768324,0.34793521264147464,non_fall
7.262003,-0.2841,-0.0596,-0.2952,-0.0143,-0.1646,-0.0037,35.6438,22.0312,-26.5125,,0.03604800000000008,0.4140145045768324,0.3545854803443542,non_fall
7.266671,-0.2841,-0.0596,-0.2952,-0.0143,-0.1646,-0.0037,35.6438,22.0312,-26.5125,,0.004667999999999672,0.4140145045768324,0.3700017707587748,non_fall
7.279291,-0.2841,-0.0596,-0.2952,-0.0143,-0.1646,-0.0037,35.6438,22.0312,-26.5125,,0.012620000000000076,0.4140145045768324,0.39295369621900056,non_fall
7.283858,-0.2841,-0.0596,-0.2952,-0.0143,-0.1646,-0.0037,35.9438,22.275,-25.9125,,0.004567000000000654,0.4140145045768324,0.42236914682837695,non_fall
7.287913,-0.2841,-0.0596,-0.2952,-0.0143,-0.1646,-0.0037,35.9438,22.275,-25.9125,,0.004054999999999254,0.4140145045768324,0.4573358790133676,non_fall
7.290765,-0.5613,0.0779,-0.1229,-0.0143,-0.1646,-0.0037,35.9438,22.275,-25.9125,,0.002852000000000743,0.5798538695223134,0.4970623242211089,non_fall
7.336645,-0.5613,0.0779,-0.1229,-0.0143,-0.1646,-0.0037,35.4938,22.7063,-25.4063,,0.04587999999999948,0.5798538695223134,0.5408084397282859,non_fall
7.341695,-0.5613,0.0779,-0.1229,-0.0143,-0.1646,-0.0037,35.4938,22.7063,-25.4063,,0.005049999999999777,0.5798538695223134,0.5877987051671073,non_fall
7.345594,-0.5613,0.0779,-0.1229,-0.0143,-0.1646,-0.0037,35.4938,22.7063,-25.4063,,0.003899000000000541,0.5798538695223134,0.6371309221290503,non_fall
7.348921,-0.5613,0.0779,-0.1229,-0.583,-0.1178,-0.2066,35.4938,22.7063,-25.4063,,0.003326999999999636,0.5798538695223134,0.6876968455861509,non_fall
7.352382,-0.5613,0.0779,-0.1229,-0.583,-0.1178,-0.2066,35.4938,22.7063,-25.4063,,0.0034610000000006025,0.5798538695223134,0.7381321953486174,non_fall
7.354381,0.297,0.7191,-0.2859,-0.583,-0.1178,-0.2066,35.4938,22.7063,-25.4063,,0.00199899999999964,0.828886373395051,0.7868116682854797,non_fall
7.366951,0.297,0.7191,-0.2859,-0.583,-0.1178,-0.2066,35.4938,22.7063,-25.4063,,0.012570000000000192,0.828886373395051,0.8318981367291366,non_fall
7.400817,0.297,0.7191,-0.2859,-0.583,-0.1178,-0.2066,35.4938,22.7063,-25.4063,,0.03386599999999973,0.828886373395051,0.8714460567796374,non_fall
7.404316,0.297,0.7191,-0.2859,-0.583,-0.1178,-0.2066,35.4938,22.7063,-25.4063,,0.003498999999999697,0.828886373395051,0.9035506708863319,non_fall
7.406182,0.297,0.7191,-0.2859,-0.5365,0.0627,-0.4423,35.4938,22.7063,-25.4063,,0.0018660000000005894,0.828886373395051,0.9265288633058201,non_fall
7.408578,0.9136,0.087,0.5072,-0.5365,0.0627,-0.4423,35.4938,22.7063,-25.4063,,0.0023960000000000647,1.0485636842843644,0.9391133538530605,non_fall
7.417666,0.9136,0.087,0.5072,-0.5365,0.0627,-0.4423,35.5125,23.175,-24.9563,,0.009087999999999319,1.0485636842843644,0.9406372808019235,non_fall
7.431136,0.9136,0.087,0.5072,-0.5365,0.0627,-0.4423,35.5125,23.175,-24.9563,,0.01347000000000076,1.0485636842843644,0.9311817576382284,non_fall
7.462956,0.9136,0.087,0.5072,-0.5365,0.0627,-0.4423,35.5125,23.175,-24.9563,,0.03181999999999974,1.0485636842843644,0.9116580076673414,non_fall
7.466217,0.9136,0.087,0.5072,-0.5365,0.0627,-0.4423,35.5125,23.175,-24.9563,,0.0032610000000001804,1.0485636842843644,0.8838008519504854,non_fall
7.467928,0.9136,0.087,0.5072,-0.7762,0.0974,-0.2644,35.5125,23.175,-24.9563,,0.001710999999999352,1.0485636842843644,0.8500614352051937,non_fall
7.470101,-0.0407,0.1249,0.6755,-0.7762,0.0974,-0.2644,35.5125,23.175,-24.9563,,0.0021729999999999805,0.688154597456124,0.8134021700892372,non_fall
7.476884,-0.0407,0.1249,0.6755,-0.7762,0.0974,-0.2644,35.2125,23.8688,-24.6188,,0.006783000000000428,0.688154597456124,0.7770136940736849,non_fall
7.486523,-0.0407,0.1249,0.6755,-0.7762,0.0974,-0.2644,35.2125,23.8688,-24.6188,,0.009638999999999953,0.688154597456124,0.7439887738101154,non_fall
7.521318,-0.2169,0.2777,-0.4688,-0.7762,0.0974,-0.2644,35.2125,23.8688,-24.6188,,0.03479499999999991,0.586460859734049,0.7169970473016872,non_fall
7.525224,-0.2169,0.2777,-0.4688,-0.7762,0.0974,-0.2644,35.2125,23.8688,-24.6188,,0.003905999999999743,0.586460859734049,0.6980047337649248,non_fall
7.526968,-0.2169,0.2777,-0.4688,-0.7762,0.0974,-0.2644,35.2125,23.8688,-24.6188,,0.0017440000000004119,0.586460859734049,0.6880764475519822,non_fall
7.537433,-0.2169,0.2777,-0.4688,-0.7762,0.0974,-0.2644,34.7625,24.8813,-24.0563,,0.010464999999999947,0.586460859734049,0.6872852672057762,non_fall
7.542342,-0.2169,0.2777,-0.4688,-0.7067,-0.2145,-0.5098,34.7625,24.8813,-24.0563,,0.004908999999999608,0.586460859734049,0.6947444383005799,non_fall
7.568306,-0.2169,0.2777,-0.4688,-0.7067,-0.2145,-0.5098,34.7625,24.8813,-24.0563,,0.025964000000000098,0.586460859734049,0.7087605881263975,non_fall
7.573214,-0.2169,0.2777,-0.4688,-0.7067,-0.2145,-0.5098,34.7625,24.8813,-24.0563,,0.0049080000000003565,0.586460859734049,0.7270946660269431,non_fall
7.583875,-0.2169,0.2777,-0.4688,-0.7067,-0.2145,-0.5098,34.7625,24.8813,-24.0563,,0.01066099999999981,0.586460859734049,0.7473029598458294,non_fall
7.587809,0.2508,-0.2244,1.0831,-0.7067,-0.2145,-0.5098,34.7625,24.8813,-24.0563,,0.003934000000000104,1.1341788262879888,0.7671161486278675,non_fall
7.603355,0.2508,-0.2244,1.0831,-0.0958,0.1871,-0.2892,34.7625,24.8813,-24.0563,,0.015545999999999616,1.1341788262879888,0.7848006283278198,non_fall
7.615851,0.2508,-0.2244,1.0831,-0.0958,0.1871,-0.2892,34.7625,24.8813,-24.0563,,0.012496000000000507,1.1341788262879888,0.7994382363701521,non_fall
7.62012,0.2508,-0.2244,1.0831,-0.0958,0.1871,-0.2892,34.3125,25.8188,-23.475,,0.004268999999999856,1.1341788262879888,0.8110654041478483,non_fall
7.632897,0.2508,-0.2244,1.0831,-0.0958,0.1871,-0.2892,34.3125,25.8188,-23.475,,0.012776999999999816,1.1341788262879888,0.8206345012323587,non_fall
7.644251,-0.4411,-0.0709,-0.4133,-0.0958,0.1871,-0.2892,34.3125,25.8188,-23.475,,0.011353999999999864,0.6086155683187869,0.8297947817436762,non_fall
7.648882,-0.4411,-0.0709,-0.4133,-0.0958,0.1871,-0.2892,34.3125,25.8188,-23.475,,0.004631000000000718,0.6086155683187869,0.8405286768746787,non_fall
7.663022,-0.4411,-0.0709,-0.4133,-0.5708,0.1339,0.0837,34.3125,25.8188,-23.475,,0.014139999999999375,0.6086155683187869,0.8547107487825149,non_fall
7.677043,-0.4411,-0.0709,-0.4133,-0.5708,0.1339,0.0837,34.3125,25.8188,-23.475,,0.014021000000000505,0.6086155683187869,0.8736723422108947,non_fall
7.680754,-0.4411,-0.0709,-0.4133,-0.5708,0.1339,0.0837,34.0312,26.7563,-22.4062,,0.00371100000000002,0.6086155683187869,0.8978509044581608,non_fall
7.685374,-0.4411,-0.0709,-0.4133,-0.5708,0.1339,0.0837,34.0312,26.7563,-22.4062,,0.0046200000000000685,0.6086155683187869,0.9265825803498833,non_fall
7.700438,-0.5839,0.3407,-0.8776,-0.5708,0.1339,0.0837,34.0312,26.7563,-22.4062,,0.015063999999999744,1.1077894475034504,0.9580672534899821,non_fall
7.704067,-0.5839,0.3407,-0.8776,-0.5708,0.1339,0.0837,34.0312,26.7563,-22.4062,,0.0036290000000001044,1.1077894475034504,0.9895031925350717,non_fall
7.736324,-0.5839,0.3407,-0.8776,-0.5708,0.1339,0.0837,34.0312,26.7563,-22.4062,,0.032256999999999536,1.1077894475034504,1.017360163629656,non_fall
7.739216,-0.5839,0.3407,-0.8776,-0.5708,0.1339,0.0837,33.6562,27.6563,-21.675,,0.0028920000000001167,1.1077894475034504,1.0377420887330173,non_fall
7.741182,-0.5839,0.3407,-0.8776,-0.0742,0.23,0.1069,33.6562,27.6563,-21.675,,0.0019660000000003564,1.1077894475034504,1.0467863256607552,non_fall
7.761184,-0.5839,0.3407,-0.8776,-0.0742,0.23,0.1069,33.6562,27.6563,-21.675,,0.020001999999999853,1.1077894475034504,1.0410530225882568,non_fall
7.763847,-0.5839,0.3407,-0.8776,-0.0742,0.23,0.1069,33.6562,27.6563,-21.675,,0.002663000000000082,1.1077894475034504,1.0178682766589906,non_fall
7.764755,0.6144,-0.198,0.645,-0.0742,0.23,0.1069,33.6562,27.6563,-21.675,,0.0009079999999999089,0.9125329363918872,0.9755948695966198,non_fall
7.784865,0.6144,-0.198,0.645,-0.0742,0.23,0.1069,33.6562,27.6563,-21.675,,0.02010999999999985,0.9125329363918872,0.9138131322811586,non_fall
7.801515,0.6144,-0.198,0.645,0.2152,-0.0792,0.0227,33.6562,27.6563,-21.675,,0.016650000000000276,0.9125329363918872,0.8334016001312692,non_fall
7.820085,0.6144,-0.198,0.645,0.2152,-0.0792,0.0227,33.525,28.5375,-20.9625,,0.01856999999999953,0.9125329363918872,0.7365119340228824,non_fall
7.822623,0.6144,-0.198,0.645,0.2152,-0.0792,0.0227,33.525,28.5375,-20.9625,,0.0025380000000003733,0.9125329363918872,0.6264360222123855,non_fall
7.824135,-0.1184,-0.1563,0.3163,0.2152,-0.0792,0.0227,33.525,28.5375,-20.9625,,0.0015119999999999578,0.37214773947990065,0.5073686775141516,non_fall
7.826244,-0.1184,-0.1563,0.3163,0.2152,-0.0792,0.0227,33.525,28.5375,-20.9625,,0.0021089999999999165,0.37214773947990065,0.3840799677310073,non_fall
