time,ax,ay,az,wx,wy,wz,Bx,By,Bz,Unnamed: 10,time_diff,acc_mag,acc_mag_filtered,label
0.090918,0.0,0.0,0.0,0.0,0.0,0.0,0.0,0.0,0.0,,0.0,0.0,-0.0057444641821985595,non_fall
0.091199,0.0,0.0,0.0,0.0,0.0,0.0,0.0,0.0,0.0,,0.00028100000000000347,0.0,-0.03345590408540556,non_fall
0.091402,0.0,0.0,0.0,0.0,0.0,0.0,0.0,0.0,0.0,,0.00020299999999999485,0.0,-0.05815372882933129,non_fall
0.091582,0.0,0.0,0.0,0.0,0.0,0.0,0.0,0.0,0.0,,0.0001799999999999996,0.0,-0.07743409688107036,non_fall
0.137792,0.0,0.0,0.0,0.0,0.0,0.0,0.0,0.0,0.0,,0.04621,0.0,-0.08895073964519912,non_fall
0.138489,0.0,0.0,0.0,0.0,0.0,0.0,0.0,0.0,0.0,,0.0006970000000000032,0.0,-0.09047829803407037,non_fall
0.143478,0.0,0.0,0.0,-0.0782,-0.2482,-0.2537,0.0,0.0,0.0,,0.0049889999999999934,0.0,-0.08001912696198593,non_fall
0.163774,0.0,0.0,0.0,-0.0782,-0.2482,-0.2537,0.0,0.0,0.0,,0.02029600000000001,0.0,-0.055952183490708504,non_fall
0.164442,0.0,0.0,0.0,-0.0782,-0.2482,-0.2537,0.0,0.0,0.0,,0.0006680000000000019,0.0,-0.017212389864985196,non_fall
0.164864,0.0,0.0,0.0,-0.0782,-0.2482,-0.2537,0.0,0.0,0.0,,0.0004220000000000057,0.0,0.03652130813755932,non_fall
0.165185,0.0,0.0,0.0,-0.0782,-0.2482,-0.2537,32.2125,16.875,-29.4563,,0.00032099999999998796,0.0,0.10465958396981553,non_fall
0.206334,0.0,0.0,0.0,-0.0782,-0.2482,-0.2537,32.2125,16.875,-29.4563,,0.04114899999999999,0.0,0.18559384570700388,non_fall
0.207021,0.0,0.0,0.0,-0.0782,-0.2482,-0.2537,32.2125,16.875,-29.4563,,0.0006870000000000209,0.0,0.27668092621868723,non_fall
0.207432,0.0,0.0,0.0,0.1389,0.9786,-0.0402,32.2125,16.875,-29.4563,,0.0004109999999999947,0.0,0.3743509120690792,non_fall
0.227505,0.0,0.0,0.0,0.1389,0.9786,-0.0402,32.2125,16.875,-29.4563,,0.020073000000000008,0.0,0.4743525322731501,non_fall
0.228202,0.5418,0.4126,-0.7958,0.1389,0.9786,-0.0402,32.2125,16.875,-29.4563,,0.0006969999999999754,1.0474176053513706,0.5721257826990586,non_fall
0.229004,0.5418,0.4126,-0.7958,0.1389,0.9786,-0.0402,33.1313,16.8375,-28.725,,0.0008020000000000249,1.0474176053513706,0.6632596186713934,non_fall
0.26493,0.5418,0.4126,-0.7958,0.1389,0.9786,-0.0402,33.1313,16.8375,-28.725,,0.035925999999999986,1.0474176053513706,0.7439634219974084,non_fall
0.265566,0.5418,0.4126,-0.7958,-0.2454,0.9913,-0.1452,33.1313,16.8375,-28.725,,0.0006360000000000254,1.0474176053513706,0.8114690913253786,non_fall
0.271197,0.5418,0.4126,-0.7958,-0.2454,0.9913,-0.1452,33.1313,16.8375,-28.725,,0.005630999999999997,1.0474176053513706,0.8642936936611271,non_fall
0.28407,0.5418,0.4126,-0.7958,-0.2454,0.9913,-0.1452,33.1313,16.8375,-28.725,,0.012872999999999968,1.0474176053513706,0.9023240229595524,non_fall
0.284782,-0.48,0.342,-0.5577,-0.2454,0.9913,-0.1452,33.1313,16.8375,-28.725,,0.0007119999999999904,0.8114143762591344,0.9267204253815944,non_fall
0.307641,-0.48,0.342,-0.5577,-0.2454,0.9913,-0.1452,33.8625,17.0063,-27.8063,,0.022859000000000018,0.8114143762591344,0.9396680005507619,non_fall
0.308609,-0.48,0.342,-0.5577,-0.2454,0.9913,-0.1452,33.8625,17.0063,-27.8063,,0.0009680000000000244,0.8114143762591344,0.9440244149980368,non_fall
0.33673,-0.48,0.342,-0.5577,-0.2454,0.9913,-0.1452,33.8625,17.0063,-27.8063,,0.02812099999999995,0.8114143762591344,0.9429229560837337,non_fall
0.344442,-0.48,0.342,-0.5577,-0.0486,0.4361,-0.2125,33.8625,17.0063,-27.8063,,0.007712000000000052,0.8114143762591344,0.9393870785209814,non_fall
0.345333,-0.48,0.342,-0.5577,-0.0486,0.4361,-0.2125,33.8625,17.0063,-27.8063,,0.0008909999999999751,0.8114143762591344,0.936001616567772,non_fall
0.345782,-0.9409,0.0148,0.0242,-0.0486,0.4361,-0.2125,33.8625,17.0063,-27.8063,,0.0004489999999999772,0.9413275147365023,0.9346705324271921,non_fall
0.367258,-0.9409,0.0148,0.0242,-0.0486,0.4361,-0.2125,33.8625,17.0063,-27.8063,,0.021475999999999995,0.9413275147365023,0.9364751071666993,non_fall
0.367915,-0.9409,0.0148,0.0242,-0.0486,0.4361,-0.2125,34.4438,17.4188,-27.2438,,0.0006570000000000187,0.9413275147365023,0.9416323695081453,non_fall
0.409093,-0.9409,0.0148,0.0242,-0.0198,0.2018,-0.1852,34.4438,17.4188,-27.2438,,0.04117799999999999,0.9413275147365023,0.9495433211037552,non_fall
0.409933,-0.9409,0.0148,0.0242,-0.0198,0.2018,-0.1852,34.4438,17.4188,-27.2438,,0.0008400000000000074,0.9413275147365023,0.9589149092399422,non_fall
0.41027,-0.9505,-0.2248,-0.1658,-0.0198,0.2018,-0.1852,34.4438,17.4188,-27.2438,,0.0003370000000000317,0.9906941657242158,0.9679375272127801,non_fall
0.410784,-0.9505,-0.2248,-0.1658,-0.0198,0.2018,-0.1852,34.4438,17.4188,-27.2438,,0.0005139999999999589,0.9906941657242158,0.9744990939731838,non_fall
0.429919,-0.9505,-0.2248,-0.1658,-0.0198,0.2018,-0.1852,34.4438,17.4188,-27.2438,,0.019135000000000013,0.9906941657242158,0.976416395047228,non_fall
0.430622,-0.9505,-0.2248,-0.1658,-0.0198,0.2018,-0.1852,34.7438,17.6813,-26.625,,0.0007030000000000092,0.9906941657242158,0.9716644712333347,non_fall
0.465063,-0.9505,-0.2248,-0.1658,-0.0198,0.2018,-0.1852,34.7438,17.6813,-26.625,,0.034441,0.9906941657242158,0.9585857871379878,non_fall
0.465762,-0.9505,-0.2248,-0.1658,-0.0198,0.2018,-0.1852,34.7438,17.6813,-26.625,,0.0006990000000000052,0.9906941657242158,0.9360626766503581,non_fall
0.466191,-0.9505,-0.2248,-0.1658,0.0237,0.1312,-0.0454,34.7438,17.6813,-26.625,,0.0004290000000000127,0.9906941657242158,0.9036390297900309,non_fall
0.466877,-0.822,-0.17,-0.1804,0.0237,0.1312,-0.0454,34.7438,17.6813,-26.625,,0.0006859999999999644,0.8585616809525103,0.8615806062396559,non_fall
0.506938,-0.822,-0.17,-0.1804,0.0237,0.1312,-0.0454,34.7438,17.6813,-26.625,,0.04006100000000001,0.8585616809525103,0.8108681029966168,non_fall
0.507629,-0.822,-0.17,-0.1804,0.0237,0.1312,-0.0454,34.7438,17.6813,-26.625,,0.0006909999999999972,0.8585616809525103,0.7531229457560087,non_fall
0.50803,-0.822,-0.17,-0.1804,0.0237,0.1312,-0.0454,34.7812,17.85,-26.1563,,0.0004009999999999847,0.8585616809525103,0.6904720370204914,non_fall
0.526218,-0.3752,-0.0276,-0.143,0.0237,0.1312,-0.0454,34.7812,17.85,-26.1563,,0.018187999999999982,0.4024745954715651,0.6253643703841437,non_fall
0.527199,-0.3752,-0.0276,-0.143,0.0237,0.1312,-0.0454,34.7812,17.85,-26.1563,,0.0009810000000000096,0.4024745954715651,0.5603598709121639,non_fall
0.547023,-0.3752,-0.0276,-0.143,0.0751,0.0295,-0.0073,34.7812,17.85,-26.1563,,0.019824000000000064,0.4024745954715651,0.4979171531009677,non_fall
0.568065,-0.3752,-0.0276,-0.143,0.0751,0.0295,-0.0073,34.95,17.9625,-25.875,,0.021042000000000005,0.4024745954715651,0.4402075777034932,non_fall
0.568907,-0.3752,-0.0276,-0.143,0.0751,0.0295,-0.0073,34.95,17.9625,-25.875,,0.0008420000000000094,0.4024745954715651,0.38897558142250294,non_fall
0.569277,-0.3752,-0.0276,-0.143,0.0751,0.0295,-0.0073,34.95,17.9625,-25.875,,0.00036999999999998145,0.4024745954715651,0.34545304051012793,non_fall
0.586782,-0.3752,-0.0276,-0.143,0.0751,0.0295,-0.0073,34.95,17.9625,-25.875,,0.017504999999999993,0.4024745954715651,0.3103245665187078,non_fall
0.587625,-0.0699,0.1381,-0.1606,0.0751,0.0295,-0.0073,34.95,17.9625,-25.875,,0.0008429999999999271,0.22304703539836615,0.28373507837012,non_fall
0.605156,-0.0699,0.1381,-0.1606,0.0102,0.1064,-0.0432,34.95,17.9625,-25.875,,0.017531000000000074,0.22304703539836615,0.2653309540567176,non_fall
0.606053,-0.0699,0.1381,-0.1606,0.0102,0.1064,-0.0432,34.95,17.9625,-25.875,,0.0008969999999999256,0.22304703539836615,0.2543290265702651,non_fall
0.627752,-0.0699,0.1381,-0.1606,0.0102,0.1064,-0.0432,34.95,17.9625,-25.875,,0.021699000000000024,0.22304703539836615,0.24961009618455327,non_fall
0.628429,-0.0699,0.1381,-0.1606,0.0102,0.1064,-0.0432,35.1375,18.0563,-25.575,,0.0006770000000000387,0.22304703539836615,0.2498331744839881,non_fall
0.643594,-0.0699,0.1381,-0.1606,0.0102,0.1064,-0.0432,35.1375,18.0563,-25.575,,0.015164999999999984,0.22304703539836615,0.2535636193582481,non_fall
0.644195,0.2107,0.1293,-0.2546,0.0102,0.1064,-0.0432,35.1375,18.0563,-25.575,,0.0006009999999999627,0.3548720050947947,0.2594043545728857,non_fall
0.665368,0.2107,0.1293,-0.2546,-0.0801,0.1436,-0.0967,35.1375,18.0563,-25.575,,0.021172999999999997,0.3548720050947947,0.2661159871858486,non_fall
0.672031,0.2107,0.1293,-0.2546,-0.0801,0.1436,-0.0967,35.1375,18.0563,-25.575,,0.0066630000000000855,0.3548720050947947,0.2727101804493533,non_fall
0.695326,0.2107,0.1293,-0.2546,-0.0801,0.1436,-0.0967,35.1375,18.0563,-25.575,,0.023294999999999955,0.3548720050947947,0.27850260651697856,non_fall
0.708125,0.2107,0.1293,-0.2546,-0.0801,0.1436,-0.0967,35.1375,18.0563,-25.575,,0.012799000000000005,0.3548720050947947,0.28311783265666796,non_fall
0.708736,0.1936,-0.0916,0.041,-0.0801,0.1436,-0.0967,35.1375,18.0563,-25.575,,0.0006110000000000282,0.21806540303312674,0.2864474419725255,non_fall
0.709175,0.1936,-0.0916,0.041,-0.0801,0.1436,-0.0967,35.6063,18.3563,-24.75,,0.0004389999999999672,0.21806540303312674,0.28857218423685893,non_fall
0.738844,0.1936,-0.0916,0.041,-0.0801,0.1436,-0.0967,35.6063,18.3563,-24.75,,0.029668999999999945,0.21806540303312674,0.28966634577766043,non_fall
0.746387,0.1936,-0.0916,0.041,-0.0257,0.1452,-0.0741,35.6063,18.3563,-24.75,,0.007543000000000077,0.21806540303312674,0.2899055372575927,non_fall
0.764414,0.1936,-0.0916,0.041,-0.0257,0.1452,-0.0741,35.6063,18.3563,-24.75,,0.018027000000000015,0.21806540303312674,0.2893968329797105,non_fall
0.765091,0.1936,-0.0916,0.041,-0.0257,0.1452,-0.0741,35.6063,18.3563,-24.75,,0.0006769999999999277,0.21806540303312674,0.2881437663482897,non_fall
0.765549,0.1037,-0.0997,0.2962,-0.0257,0.1452,-0.0741,35.6063,18.3563,-24.75,,0.00045800000000006946,0.3292844059471994,0.2860502169692077,non_fall
0.769211,0.1037,-0.0997,0.2962,-0.0257,0.1452,-0.0741,35.8875,18.7313,-24.2063,,0.003661999999999943,0.3292844059471994,0.2829586091847672,non_fall
0.804294,0.1037,-0.0997,0.2962,0.1193,0.0179,-0.0579,35.8875,18.7313,-24.2063,,0.035082999999999975,0.3292844059471994,0.27871079561399487,non_fall
0.805262,0.1037,-0.0997,0.2962,0.1193,0.0179,-0.0579,35.8875,18.7313,-24.2063,,0.0009680000000000799,0.3292844059471994,0.27321627258989023,non_fall
0.805708,0.1037,-0.0997,0.2962,0.1193,0.0179,-0.0579,35.8875,18.7313,-24.2063,,0.00044599999999994644,0.3292844059471994,0.26651286953758624,non_fall
0.824747,-0.0457,0.0302,0.223,0.1193,0.0179,-0.0579,35.8875,18.7313,-24.2063,,0.019039000000000028,0.2296291140077843,0.25880906307846974,non_fall
0.825677,-0.0457,0.0302,0.223,0.1193,0.0179,-0.0579,35.8875,18.7313,-24.2063,,0.0009299999999999864,0.2296291140077843,0.2505028042551936,non_fall
0.826129,-0.0457,0.0302,0.223,0.1193,0.0179,-0.0579,36.0,18.975,-23.9062,,0.00045200000000000795,0.2296291140077843,0.2421772283885212,non_fall
0.867848,-0.0457,0.0302,0.223,0.1193,0.0179,-0.0579,36.0,18.975,-23.9062,,0.04171899999999995,0.2296291140077843,0.23457717392433114,non_fall
0.868541,-0.0457,0.0302,0.223,0.1733,0.1087,-0.1034,36.0,18.975,-23.9062,,0.0006930000000000547,0.2296291140077843,0.22857141409132609,non_fall
0.869174,-0.0457,0.0302,0.223,0.1733,0.1087,-0.1034,36.0,18.975,-23.9062,,0.0006329999999999947,0.2296291140077843,0.22510466306442273,non_fall
0.888156,-0.0457,0.0302,0.223,0.1733,0.1087,-0.1034,36.0,18.975,-23.9062,,0.018981999999999943,0.2296291140077843,0.2251421487065155,non_fall
0.888825,0.2193,-0.1143,-0.0581,0.1733,0.1087,-0.1034,36.0,18.975,-23.9062,,0.0006690000000000307,0.25403265538115366,0.22960875681306178,non_fall
0.909253,0.2193,-0.1143,-0.0581,0.1733,0.1087,-0.1034,36.0188,18.9563,-23.6813,,0.020428,0.25403265538115366,0.23932467020431034,non_fall
0.910307,0.2193,-0.1143,-0.0581,0.1733,0.1087,-0.1034,36.0188,18.9563,-23.6813,,0.0010539999999999994,0.25403265538115366,0.2549400161530704,non_fall
0.938761,0.2193,-0.1143,-0.0581,0.1733,0.1087,-0.1034,36.0188,18.9563,-23.6813,,0.02845399999999998,0.25403265538115366,0.2768721948709869,non_fall
0.945851,0.2193,-0.1143,-0.0581,0.2115,0.253,-0.1016,36.0188,18.9563,-23.6813,,0.007090000000000041,0.25403265538115366,0.3052509034270784,non_fall
0.946726,0.1834,-0.3556,0.0075,0.2115,0.253,-0.1016,36.0188,18.9563,-23.6813,,0.0008749999999999591,0.4001789224834312,0.3398766376577301,non_fall
0.9474,0.1834,-0.3556,0.0075,0.2115,0.253,-0.1016,36.0188,18.9563,-23.6813,,0.0006740000000000634,0.4001789224834312,0.38019808766570257,non_fall
0.968398,0.1834,-0.3556,0.0075,0.2115,0.253,-0.1016,36.0,19.0125,-23.4938,,0.02099799999999996,0.4001789224834312,0.4253127901197772,non_fall
0.969244,0.1834,-0.3556,0.0075,0.2115,0.253,-0.1016,36.0,19.0125,-23.4938,,0.0008460000000000134,0.4001789224834312,0.4739948518176638,non_fall
0.997677,0.1834,-0.3556,0.0075,0.2115,0.253,-0.1016,36.0,19.0125,-23.4938,,0.02843300000000004,0.4001789224834312,0.5247537716606838,non_fall
1.005037,0.1834,-0.3556,0.0075,0.3752,0.2893,-0.119,36.0,19.0125,-23.4938,,0.007359999999999922,0.4001789224834312,0.5759276359610818,non_fall
1.006042,0.375,-0.6743,0.0736,0.3752,0.2893,-0.119,36.0,19.0125,-23.4938,,0.0010050000000001447,0.7750628684177819,0.6258097871205542,non_fall
1.006684,0.375,-0.6743,0.0736,0.3752,0.2893,-0.119,36.0,19.0125,-23.4938,,0.0006419999999998094,0.7750628684177819,0.6727998884263103,non_fall
1.02695,0.375,-0.6743,0.0736,0.3752,0.2893,-0.119,36.3188,18.9563,-23.3625,,0.020266000000000117,0.7750628684177819,0.7155611512793663,non_fall
1.027798,0.375,-0.6743,0.0736,0.3752,0.2893,-0.119,36.3188,18.9563,-23.3625,,0.0008479999999999599,0.7750628684177819,0.7531605361919557,non_fall
1.070803,0.375,-0.6743,0.0736,0.74,0.2679,-0.0554,36.3188,18.9563,-23.3625,,0.04300499999999996,0.7750628684177819,0.7851707901420819,non_fall
1.071647,0.4511,-0.7721,0.1218,0.74,0.2679,-0.0554,36.3188,18.9563,-23.3625,,0.0008440000000000669,0.9024770689607576,0.8117199938027526,non_fall
1.072316,0.4511,-0.7721,0.1218,0.74,0.2679,-0.0554,36.3188,18.9563,-23.3625,,0.0006690000000000307,0.9024770689607576,0.8334815065167556,non_fall
1.072685,0.4511,-0.7721,0.1218,0.74,0.2679,-0.0554,36.3188,18.9563,-23.3625,,0.0003690000000000637,0.9024770689607576,0.8516029187292539,non_fall
1.107646,0.4511,-0.7721,0.1218,0.74,0.2679,-0.0554,36.3188,18.9563,-23.3625,,0.0349609999999998,0.9024770689607576,0.8675779815015845,non_fall
1.108336,0.4511,-0.7721,0.1218,0.74,0.2679,-0.0554,36.3188,18.9563,-23.3625,,0.0006900000000000794,0.9024770689607576,0.8830718312903957,non_fall
1.108831,0.4511,-0.7721,0.1218,0.74,0.2679,-0.0554,36.3563,18.8813,-23.3063,,0.0004949999999999122,0.9024770689607576,0.8997168247607296,non_fall
1.126323,0.4511,-0.7721,0.1218,0.74,0.2679,-0.0554,36.3563,18.8813,-23.3063,,0.017492000000000063,0.9024770689607576,0.9189025687564821,non_fall
1.126966,0.2288,-0.4257,-0.631,0.74,0.2679,-0.0554,36.3563,18.8813,-23.3063,,0.0006429999999999492,0.7948150287960086,0.9415881895966699,non_fall
1.14494,0.2288,-0.4257,-0.631,0.8402,0.1965,-0.1301,36.3563,18.8813,-23.3063,,0.017974000000000157,0.7948150287960086,0.9681667689310318,non_fall
1.16771,0.2288,-0.4257,-0.631,0.8402,0.1965,-0.1301,36.3938,18.6938,-23.3063,,0.022769999999999957,0.7948150287960086,0.9984099095975699,non_fall
1.168666,0.2288,-0.4257,-0.631,0.8402,0.1965,-0.1301,36.3938,18.6938,-23.3063,,0.0009559999999999569,0.7948150287960086,1.0315127857374562,non_fall
1.169094,0.2288,-0.4257,-0.631,0.8402,0.1965,-0.1301,36.3938,18.6938,-23.3063,,0.00042800000000009497,0.7948150287960086,1.0662456320058058,non_fall
1.187631,0.0623,-0.1594,-1.403,0.8402,0.1965,-0.1301,36.3938,18.6938,-23.3063,,0.018537000000000026,1.413399678081186,1.1011970832465803,non_fall
1.188681,0.0623,-0.1594,-1.403,0.8402,0.1965,-0.1301,36.3938,18.6938,-23.3063,,0.0010499999999999954,1.413399678081186,1.135071394885933,non_fall
1.209075,0.0623,-0.1594,-1.403,0.8068,0.3191,-0.1972,36.3938,18.6938,-23.3063,,0.0203939999999998,1.413399678081186,1.1669823749936512,non_fall
1.210093,0.0623,-0.1594,-1.403,0.8068,0.3191,-0.1972,36.3938,18.6938,-23.3063,,0.0010180000000001854,1.413399678081186,1.1966807834628603,non_fall
1.229479,0.0623,-0.1594,-1.403,0.8068,0.3191,-0.1972,36.3938,18.6938,-23.3063,,0.019385999999999903,1.413399678081186,1.2246633889487426,non_fall
1.230177,0.0623,-0.1594,-1.403,0.8068,0.3191,-0.1972,36.4875,18.2438,-23.5875,,0.0006980000000000874,1.413399678081186,1.2521365340594766,non_fall
1.244639,-0.447,-0.3917,-1.0463,0.8068,0.3191,-0.1972,36.4875,18.2438,-23.5875,,0.014461999999999975,1.2033210627259876,1.2808362637434334,non_fall
1.245647,-0.447,-0.3917,-1.0463,0.8068,0.3191,-0.1972,36.4875,18.2438,-23.5875,,0.0010079999999998979,1.2033210627259876,1.3127340236593552,non_fall
1.265253,-0.447,-0.3917,-1.0463,0.5616,0.1299,-0.3643,36.4875,18.2438,-23.5875,,0.019606000000000012,1.2033210627259876,1.3496774608622477,non_fall
1.271348,-0.447,-0.3917,-1.0463,0.5616,0.1299,-0.3643,36.4875,18.2438,-23.5875,,0.0060949999999999616,1.2033210627259876,1.3930266766673853,non_fall
1.306647,-0.447,-0.3917,-1.0463,0.5616,0.1299,-0.3643,36.4875,18.2438,-23.5875,,0.03529899999999997,1.2033210627259876,1.4433457190568448,backward_fall
1.308038,-0.447,-0.3917,-1.0463,0.5616,0.1299,-0.3643,36.4875,18.2438,-23.5875,,0.0013910000000001421,1.2033210627259876,1.5001982480381326,backward_fall
1.309007,-0.4668,-0.7322,-1.4611,0.5616,0.1299,-0.3643,36.4875,18.2438,-23.5875,,0.0009689999999999976,1.6996565211830301,1.5620777925208442,backward_fall
1.310444,-0.4668,-0.7322,-1.4611,0.5616,0.1299,-0.3643,36.525,17.8125,-23.5875,,0.0014369999999999106,1.6996565211830301,1.6264799892815662,backward_fall
1.338823,-0.4668,-0.7322,-1.4611,0.5616,0.1299,-0.3643,36.525,17.8125,-23.5875,,0.028379000000000154,1.6996565211830301,1.69010163339669,backward_fall
1.348406,-0.4668,-0.7322,-1.4611,0.207,0.1754,-0.3457,36.525,17.8125,-23.5875,,0.009582999999999897,1.6996565211830301,1.7491356895100407,backward_fall
1.368337,-1.2871,-0.5121,-1.2841,0.207,0.1754,-0.3457,36.525,17.8125,-23.5875,,0.01993099999999992,1.888858287431855,1.7996256936893373,backward_fall
1.372299,-1.2871,-0.5121,-1.2841,0.207,0.1754,-0.3457,36.525,17.8125,-23.5875,,0.003962000000000021,1.888858287431855,1.837844147203973,backward_fall
1.375115,-1.2871,-0.5121,-1.2841,0.207,0.1754,-0.3457,36.525,17.8125,-23.5875,,0.0028160000000001517,1.888858287431855,1.8606626198442644,backward_fall
1.376837,-1.2871,-0.5121,-1.2841,0.207,0.1754,-0.3457,36.4688,17.475,-23.6813,,0.0017220000000000013,1.888858287431855,1.8658846141015322,backward_fall
1.411252,-1.2871,-0.5121,-1.2841,0.207,0.1754,-0.3457,36.4688,17.475,-23.6813,,0.03441499999999986,1.888858287431855,1.852516451417917,backward_fall
1.413595,-1.2871,-0.5121,-1.2841,0.207,0.1754,-0.3457,36.4688,17.475,-23.6813,,0.002342999999999984,1.888858287431855,1.8209564502411169,backward_fall
1.414974,-1.2871,-0.5121,-1.2841,0.3292,-0.1376,-0.4,36.4688,17.475,-23.6813,,0.001379000000000019,1.888858287431855,1.7730876704746052,backward_fall
1.428575,-1.2871,-0.5121,-1.2841,0.3292,-0.1376,-0.4,36.4688,17.475,-23.6813,,0.013600999999999974,1.888858287431855,1.7122647125564014,backward_fall
1.430438,-1.1992,-0.2868,-0.8809,0.3292,-0.1376,-0.4,36.4688,17.475,-23.6813,,0.00186300000000017,1.5153612407607633,1.643191853059282,backward_fall
1.432261,-1.1992,-0.2868,-0.8809,0.3292,-0.1376,-0.4,36.3938,17.3063,-23.7938,,0.001822999999999908,1.5153612407607633,1.5716989218609645,backward_fall
1.465769,-1.1992,-0.2868,-0.8809,0.3538,-0.2324,-0.7916,36.3938,17.3063,-23.7938,,0.03350800000000009,1.5153612407607633,1.504430928721555,backward_fall
1.469172,-1.1992,-0.2868,-0.8809,0.3538,-0.2324,-0.7916,36.3938,17.3063,-23.7938,,0.003402999999999823,1.5153612407607633,1.4484737515614272,backward_fall
1.471031,-1.1992,-0.2868,-0.8809,0.3538,-0.2324,-0.7916,36.3938,17.3063,-23.7938,,0.001859000000000055,1.5153612407607633,1.4109394885675113,backward_fall
1.48545,-1.1992,-0.2868,-0.8809,0.3538,-0.2324,-0.7916,36.3938,17.3063,-23.7938,,0.01441899999999996,1.5153612407607633,1.398534204043542,backward_fall
1.488177,-0.5192,-1.1089,-0.6228,0.3538,-0.2324,-0.7916,36.3938,17.3063,-23.7938,,0.002727000000000146,1.373720382756258,1.417132374377477,backward_fall
1.510844,-0.5192,-1.1089,-0.6228,0.3538,-0.2324,-0.7916,36.2438,17.1,-24.1688,,0.022666999999999993,1.373720382756258,1.471388173310034,backward_fall
1.514191,-0.5192,-1.1089,-0.6228,0.3538,-0.2324,-0.7916,36.2438,17.1,-24.1688,,0.003346999999999989,1.373720382756258,1.5644213838163683,backward_fall
1.539794,-0.5192,-1.1089,-0.6228,0.3538,-0.2324,-0.7916,36.2438,17.1,-24.1688,,0.025603000000000042,1.373720382756258,1.6976202277588346,backward_fall
1.550483,-0.5192,-1.1089,-0.6228,0.8093,0.632,-0.8966,36.2438,17.1,-24.1688,,0.010688999999999949,1.373720382756258,1.8705999062613792,backward_fall
1.554313,-0.5192,-1.1089,-0.6228,0.8093,0.632,-0.8966,36.2438,17.1,-24.1688,,0.00383,1.373720382756258,2.0813407261509362,backward_fall
1.556492,1.2908,-2.8393,0.0403,0.8093,0.632,-0.8966,36.2438,17.1,-24.1688,,0.002178999999999931,3.1192007341625194,2.3265014374360473,backward_fall
1.5699,1.2908,-2.8393,0.0403,0.8093,0.632,-0.8966,36.2438,17.1,-24.1688,,0.013408000000000087,3.1192007341625194,2.6018644538908964,backward_fall
1.572184,1.2908,-2.8393,0.0403,0.8093,0.632,-0.8966,35.8875,17.2125,-24.3563,,0.0022839999999999527,3.1192007341625194,2.902833170133708,backward_fall
1.604943,1.2908,-2.8393,0.0403,0.8093,0.632,-0.8966,35.8875,17.2125,-24.3563,,0.03275899999999998,3.1192007341625194,3.2248876694416593,backward_fall
1.606928,1.2908,-2.8393,0.0403,1.2932,0.4713,-0.3531,35.8875,17.2125,-24.3563,,0.0019849999999999035,3.1192007341625194,3.563921742425111,backward_fall
1.608965,-0.3862,-4.7375,-0.8494,1.2932,0.4713,-0.3531,35.8875,17.2125,-24.3563,,0.0020370000000000665,4.828512923250801,3.9164159691567138,backward_fall
1.610969,-0.3862,-4.7375,-0.8494,1.2932,0.4713,-0.3531,35.8875,17.2125,-24.3563,,0.002004000000000117,4.828512923250801,4.279426692394117,backward_fall
1.630003,-0.3862,-4.7375,-0.8494,1.2932,0.4713,-0.3531,35.8875,17.2125,-24.3563,,0.019033999999999995,4.828512923250801,4.650385888622763,backward_fall
1.632055,-0.3862,-4.7375,-0.8494,1.2932,0.4713,-0.3531,35.7563,17.0813,-24.45,,0.0020519999999999428,4.828512923250801,5.0267279716194375,backward_fall
1.667697,-0.3862,-4.7375,-0.8494,1.2932,0.4713,-0.3531,35.7563,17.0813,-24.45,,0.03564199999999995,4.828512923250801,5.405395842450617,backward_fall
1.669893,-1.2751,-1.9344,-5.555,1.2932,0.4713,-0.3531,35.7563,17.0813,-24.45,,0.0021960000000000868,6.018787948582339,5.782317140250525,backward_fall
1.672369,-1.2751,-1.9344,-5.555,1.2932,0.4713,-0.3531,35.7563,17.0813,-24.45,,0.0024759999999999227,6.018787948582339,6.151961655211669,backward_fall
1.674379,-1.2751,-1.9344,-5.555,1.5551,1.1983,-1.2374,35.7563,17.0813,-24.45,,0.0020100000000000673,6.018787948582339,6.507086362773429,backward_fall
1.711791,-1.2751,-1.9344,-5.555,1.5551,1.1983,-1.2374,35.7563,17.0813,-24.45,,0.037412,6.018787948582339,6.838756145896841,backward_fall
1.7141,-1.2751,-1.9344,-5.555,1.5551,1.1983,-1.2374,35.7563,17.0813,-24.45,,0.0023089999999998945,6.018787948582339,7.136703951779695,backward_fall
1.715321,-1.2751,-1.9344,-5.555,1.5551,1.1983,-1.2374,35.55,17.2125,-24.3938,,0.0012210000000001386,6.018787948582339,7.390056610640408,backward_fall
1.727889,-3.8148,2.855,-7.4131,1.5551,1.1983,-1.2374,35.55,17.2125,-24.3938,,0.012567999999999913,8.812364929461332,7.588388480814359,backward_fall
1.730548,-3.8148,2.855,-7.4131,1.5551,1.1983,-1.2374,35.55,17.2125,-24.3938,,0.002658999999999967,8.812364929461332,7.7229755176187895,backward_fall
1.746352,-3.8148,2.855,-7.4131,0.8585,1.8761,-1.8849,35.55,17.2125,-24.3938,,0.01580399999999993,8.812364929461332,7.788035737284541,backward_fall
1.767555,-3.8148,2.855,-7.4131,0.8585,1.8761,-1.8849,35.3063,18.0,-23.9813,,0.021203000000000083,8.812364929461332,7.781702981788208,backward_fall
1.770714,-3.8148,2.855,-7.4131,0.8585,1.8761,-1.8849,35.3063,18.0,-23.9813,,0.003158999999999912,8.812364929461332,7.706516043212677,backward_fall
1.772763,-3.8148,2.855,-7.4131,0.8585,1.8761,-1.8849,35.3063,18.0,-23.9813,,0.0020490000000001896,8.812364929461332,7.569302694207468,backward_fall
1.787081,-4.2676,2.5366,-3.3944,0.8585,1.8761,-1.8849,35.3063,18.0,-23.9813,,0.01431799999999983,6.0140419586165175,7.380465569091167,backward_fall
1.790987,-4.2676,2.5366,-3.3944,0.8585,1.8761,-1.8849,35.3063,18.0,-23.9813,,0.003906000000000187,6.0140419586165175,7.152804715215729,backward_fall
1.805947,-4.2676,2.5366,-3.3944,1.7698,0.7797,-1.3144,35.3063,18.0,-23.9813,,0.014959999999999862,6.0140419586165175,6.90011020858871,backward_fall
1.813403,-4.2676,2.5366,-3.3944,1.7698,0.7797,-1.3144,35.3063,18.0,-23.9813,,0.007456000000000129,6.0140419586165175,6.635794084496674,backward_fall
1.828618,-4.2676,2.5366,-3.3944,1.7698,0.7797,-1.3144,35.3063,18.0,-23.9813,,0.015214999999999979,6.0140419586165175,6.371790557199446,backward_fall
1.830744,-4.2676,2.5366,-3.3944,1.7698,0.7797,-1.3144,34.8563,18.7313,-23.7938,,0.0021259999999998502,6.0140419586165175,6.117861778316331,backward_fall
1.848734,-4.2676,2.5366,-3.3944,1.7698,0.7797,-1.3144,34.8563,18.7313,-23.7938,,0.017990000000000173,6.0140419586165175,5.881346073282821,backward_fall
1.850742,-4.0673,-3.6885,0.7022,1.7698,0.7797,-1.3144,34.8563,18.7313,-23.7938,,0.0020080000000000098,5.535435518547751,5.667306409603853,backward_fall
1.869824,-4.0673,-3.6885,0.7022,2.5534,0.1932,-0.3312,34.8563,18.7313,-23.7938,,0.01908199999999982,5.535435518547751,5.478987213420922,backward_fall
1.873106,-4.0673,-3.6885,0.7022,2.5534,0.1932,-0.3312,34.8563,18.7313,-23.7938,,0.003282000000000007,5.535435518547751,5.318463131116332,backward_fall
1.907104,-4.0673,-3.6885,0.7022,2.5534,0.1932,-0.3312,34.8563,18.7313,-23.7938,,0.03399799999999997,5.535435518547751,5.187355186818976,backward_fall
1.909476,-4.0673,-3.6885,0.7022,2.5534,0.1932,-0.3312,34.8563,18.7313,-23.7938,,0.0023720000000000407,5.535435518547751,5.087491948228753,backward_fall
1.910979,0.6141,-5.1753,0.9809,2.5534,0.1932,-0.3312,34.8563,18.7313,-23.7938,,0.001503000000000032,5.303113586375461,5.0214058714114245,backward_fall
1.913297,0.6141,-5.1753,0.9809,2.5534,0.1932,-0.3312,34.5188,19.2188,-23.8875,,0.0023180000000000422,5.303113586375461,4.99258036539424,backward_fall
1.938616,0.6141,-5.1753,0.9809,2.5534,0.1932,-0.3312,34.5188,19.2188,-23.8875,,0.02531899999999987,5.303113586375461,5.005399964378871,backward_fall
1.946061,0.6141,-5.1753,0.9809,-0.2301,0.2753,0.3491,34.5188,19.2188,-23.8875,,0.007445000000000146,5.303113586375461,5.064798604732054,backward_fall
1.966908,0.6141,-5.1753,0.9809,-0.2301,0.2753,0.3491,34.5188,19.2188,-23.8875,,0.02084700000000006,5.303113586375461,5.175643496350406,backward_fall
1.969112,0.6141,-5.1753,0.9809,-0.2301,0.2753,0.3491,34.5188,19.2188,-23.8875,,0.0022039999999998727,5.303113586375461,5.341931175202528,backward_fall
1.970432,-1.4412,-4.5548,2.8889,-0.2301,0.2753,0.3491,34.5188,19.2188,-23.8875,,0.0013199999999999878,5.582920713210963,5.5659060087844425,backward_fall
1.972248,-1.4412,-4.5548,2.8889,-0.2301,0.2753,0.3491,34.3313,19.5938,-23.8313,,0.0018160000000000398,5.582920713210963,5.847237028882675,backward_fall
2.019135,-1.4412,-4.5548,2.8889,-0.2301,0.2753,0.3491,34.3313,19.5938,-23.8313,,0.0468869999999999,5.582920713210963,6.1824035974773714,backward_fall
2.02166,-1.4412,-4.5548,2.8889,2.0108,-1.9352,0.2756,34.3313,19.5938,-23.8313,,0.0025249999999998884,5.582920713210963,6.564441200172724,backward_fall
2.024823,-1.4412,-4.5548,2.8889,2.0108,-1.9352,0.2756,34.3313,19.5938,-23.8313,,0.003163000000000249,5.582920713210963,6.983180447967466,backward_fall
2.036354,-1.4412,-4.5548,2.8889,2.0108,-1.9352,0.2756,34.3313,19.5938,-23.8313,,0.01153100000000018,5.582920713210963,7.4260661499236615,backward_fall
2.038976,-1.4412,-4.5548,2.8889,2.0108,-1.9352,0.2756,33.8813,19.5375,-24.2438,,0.00262199999999968,5.582920713210963,7.8795585966323936,backward_fall
2.041595,7.09,-8.1683,-3.7218,2.0108,-1.9352,0.2756,33.8813,19.5375,-24.2438,,0.002619000000000149,11.438575966002063,8.330990423083724,backward_fall
2.071332,7.09,-8.1683,-3.7218,2.0108,-1.9352,0.2756,33.8813,19.5375,-24.2438,,0.029736999999999902,11.438575966002063,8.770594854090927,backward_fall
2.073716,7.09,-8.1683,-3.7218,-0.1043,0.7384,-0.1843,33.8813,19.5375,-24.2438,,0.0023840000000001638,11.438575966002063,9.19329078852032,backward_fall
2.075878,7.09,-8.1683,-3.7218,-0.1043,0.7384,-0.1843,33.8813,19.5375,-24.2438,,0.002161999999999775,11.438575966002063,9.599788397285272,backward_fall
2.086348,3.0882,-2.3246,-9.4538,-0.1043,0.7384,-0.1843,33.8813,19.5375,-24.2438,,0.010470000000000201,10.213475355626995,9.996706398247603,backward_fall
2.08882,3.0882,-2.3246,-9.4538,-0.1043,0.7384,-0.1843,33.8813,19.5375,-24.2438,,0.0024720000000000297,10.213475355626995,10.395624132140037,backward_fall
2.107344,3.0882,-2.3246,-9.4538,-0.1043,0.7384,-0.1843,33.8813,19.5375,-24.2438,,0.018523999999999763,10.213475355626995,10.811234262825614,backward_fall
2.109474,3.0882,-2.3246,-9.4538,-0.1043,0.7384,-0.1843,33.5063,19.3875,-24.45,,0.0021300000000001873,10.213475355626995,11.258940241203954,backward_fall
2.136748,3.0882,-2.3246,-9.4538,-0.1043,0.7384,-0.1843,33.5063,19.3875,-24.45,,0.0272739999999998,10.213475355626995,11.752327869058478,backward_fall
2.150432,3.0882,-2.3246,-9.4538,-3.9184,0.8847,-1.7412,33.5063,19.3875,-24.45,,0.01368400000000003,10.213475355626995,12.30093744913639,backward_fall
2.153428,3.0882,-2.3246,-9.4538,-3.9184,0.8847,-1.7412,33.5063,19.3875,-24.45,,0.0029959999999999987,10.213475355626995,12.90868719722811,backward_fall
2.154611,3.3093,10.6228,-10.8132,-3.9184,0.8847,-1.7412,33.5063,19.3875,-24.45,,0.0011830000000001561,15.515174525927835,13.573160948897582,backward_fall
2.16812,3.3093,10.6228,-10.8132,-3.9184,0.8847,-1.7412,32.9438,20.5125,-23.775,,0.013508999999999993,15.515174525927835,14.285791385411105,backward_fall
2.170598,3.3093,10.6228,-10.8132,-3.9184,0.8847,-1.7412,32.9438,20.5125,-23.775,,0.0024779999999999802,15.515174525927835,15.032791766548828,backward_fall
2.204967,3.3093,10.6228,-10.8132,-3.9184,0.8847,-1.7412,32.9438,20.5125,-23.775,,0.03436899999999987,15.515174525927835,15.79658262263902,backward_fall
2.218778,3.3093,10.6228,-10.8132,-1.6465,-3.3319,-0.8511,32.9438,20.5125,-23.775,,0.013811000000000018,15.515174525927835,16.557455948819815,backward_fall
2.222134,3.3093,10.6228,-10.8132,-1.6465,-3.3319,-0.8511,32.9438,20.5125,-23.775,,0.0033560000000001367,15.515174525927835,17.29527508245892,backward_fall
2.224441,-6.9193,12.8996,14.9425,-1.6465,-3.3319,-0.8511,32.9438,20.5125,-23.775,,0.002307000000000059,20.91780817628845,17.991047390283807,backward_fall
2.229564,-6.9193,12.8996,14.9425,-1.6465,-3.3319,-0.8511,31.7813,22.1438,-23.1562,,0.005122999999999767,20.91780817628845,18.62819278110875,backward_fall
2.233346,-6.9193,12.8996,14.9425,-1.6465,-3.3319,-0.8511,31.7813,22.1438,-23.1562,,0.003782000000000174,20.91780817628845,19.193300174612126,backward_fall
2.267357,-6.9193,12.8996,14.9425,-1.6465,-3.3319,-0.8511,31.7813,22.1438,-23.1562,,0.03401100000000001,20.91780817628845,19.676192996898244,backward_fall
2.269334,-6.9193,12.8996,14.9425,-1.6465,-3.3319,-0.8511,31.7813,22.1438,-23.1562,,0.0019770000000001176,20.91780817628845,20.069256905683083,backward_fall
2.270507,8.4085,11.8592,10.9796,-1.6465,-3.3319,-0.8511,31.7813,22.1438,-23.1562,,0.0011729999999996465,18.217988721316082,20.366185898210425,backward_fall
2.272263,8.4085,11.8592,10.9796,-0.8165,4.3553,0.9321,31.7813,22.1438,-23.1562,,0.0017560000000003129,18.217988721316082,20.560499678102623,backward_fall
2.310217,8.4085,11.8592,10.9796,-0.8165,4.3553,0.9321,31.0125,23.25,-21.7688,,0.03795400000000004,18.217988721316082,20.644304107951754,backward_fall
2.314632,8.4085,11.8592,10.9796,-0.8165,4.3553,0.9321,31.0125,23.25,-21.7688,,0.004414999999999836,18.217988721316082,20.607761910695764,backward_fall
2.316872,8.4085,11.8592,10.9796,-0.8165,4.3553,0.9321,31.0125,23.25,-21.7688,,0.0022400000000000198,18.217988721316082,20.43960312321605,backward_fall
2.329577,8.4085,11.8592,10.9796,-0.8165,4.3553,0.9321,31.0125,23.25,-21.7688,,0.012704999999999966,18.217988721316082,20.128766669148813,backward_fall
2.331665,-9.3706,-5.576,18.5848,-0.8165,4.3553,0.9321,31.0125,23.25,-21.7688,,0.00208800000000009,21.54749895927599,19.66698017715084,backward_fall
2.348606,-9.3706,-5.576,18.5848,0.1567,-1.3679,-0.5611,31.0125,23.25,-21.7688,,0.016941000000000095,21.54749895927599,19.051809581376197,backward_fall
2.369082,-9.3706,-5.576,18.5848,0.1567,-1.3679,-0.5611,31.0125,23.25,-21.7688,,0.02047599999999994,21.54749895927599,18.28950324884415,backward_fall
2.37103,-9.3706,-5.576,18.5848,0.1567,-1.3679,-0.5611,31.0125,23.25,-21.7688,,0.0019480000000000608,21.54749895927599,17.39688392232496,backward_fall
2.372224,-9.3706,-5.576,18.5848,0.1567,-1.3679,-0.5611,30.5438,24.2813,-20.5688,,0.0011939999999999173,21.54749895927599,16.401647978038817,backward_fall
2.385804,-9.3706,-5.576,18.5848,0.1567,-1.3679,-0.5611,30.5438,24.2813,-20.5688,,0.013579999999999703,21.54749895927599,15.340710585234849,backward_fall
2.387205,-5.6822,-4.7069,2.6447,0.1567,-1.3679,-0.5611,30.5438,24.2813,-20.5688,,0.0014009999999999856,7.838159384702508,14.256651029155675,backward_fall
2.408393,-5.6822,-4.7069,2.6447,0.9252,1.321,2.0278,30.5438,24.2813,-20.5688,,0.021187999999999985,7.838159384702508,13.192798129710821,backward_fall
2.429933,-5.6822,-4.7069,2.6447,0.9252,1.321,2.0278,30.525,24.9375,-18.9375,,0.021540000000000337,7.838159384702508,12.187913217053502,backward_fall
2.434289,-5.6822,-4.7069,2.6447,0.9252,1.321,2.0278,30.525,24.9375,-18.9375,,0.0043560000000000265,7.838159384702508,11.271589714043975,backward_fall
2.437231,-5.6822,-4.7069,2.6447,0.9252,1.321,2.0278,30.525,24.9375,-18.9375,,0.002942,7.838159384702508,10.461299964291781,backward_fall
2.447083,-5.6822,-4.7069,2.6447,0.9252,1.321,2.0278,30.525,24.9375,-18.9375,,0.009851999999999972,7.838159384702508,9.761576448997811,backward_fall
2.449527,-0.5133,3.8594,-10.879,0.9252,1.321,2.0278,30.525,24.9375,-18.9375,,0.0024439999999996687,11.55469974728898,9.16530526023146,backward_fall
2.467506,-0.5133,3.8594,-10.879,-0.0015,-1.4156,0.0831,30.525,24.9375,-18.9375,,0.01797900000000041,11.55469974728898,8.656676331858165,backward_fall
2.470843,-0.5133,3.8594,-10.879,-0.0015,-1.4156,0.0831,30.525,24.9375,-18.9375,,0.0033369999999997013,11.55469974728898,8.21505137332456,backward_fall
2.509811,-0.5133,3.8594,-10.879,-0.0015,-1.4156,0.0831,30.4125,25.5938,-17.6063,,0.038968000000000114,11.55469974728898,7.818923337182379,backward_fall
2.513655,3.3224,4.3495,-3.3125,-0.0015,-1.4156,0.0831,30.4125,25.5938,-17.6063,,0.0038439999999999586,6.397589253773643,7.449261961831093,backward_fall
2.515965,3.3224,4.3495,-3.3125,-0.0015,-1.4156,0.0831,30.4125,25.5938,-17.6063,,0.0023100000000000342,6.397589253773643,7.091813221819363,backward_fall
2.517501,3.3224,4.3495,-3.3125,-0.0015,-1.4156,0.0831,30.4125,25.5938,-17.6063,,0.0015360000000002039,6.397589253773643,6.738233173293201,backward_fall
2.539033,3.3224,4.3495,-3.3125,-0.0015,-1.4156,0.0831,30.4125,25.5938,-17.6063,,0.021531999999999663,6.397589253773643,6.386172032919664,backward_fall
2.546706,3.3224,4.3495,-3.3125,-1.4909,-0.0577,0.7674,30.4125,25.5938,-17.6063,,0.007673000000000041,6.397589253773643,6.03852876569776,backward_fall
2.566938,3.3224,4.3495,-3.3125,-1.4909,-0.0577,0.7674,30.4125,25.5938,-17.6063,,0.020232000000000028,6.397589253773643,5.702102287184708,backward_fall
2.568875,3.3224,4.3495,-3.3125,-1.4909,-0.0577,0.7674,30.4125,25.5938,-17.6063,,0.0019369999999998555,6.397589253773643,5.385844330152311,backward_fall
2.570049,0.9643,1.968,2.6071,-1.4909,-0.0577,0.7674,30.4125,25.5938,-17.6063,,0.0011740000000002304,3.4058580269882066,5.098920839106698,backward_fall
2.571829,0.9643,1.968,2.6071,-1.4909,-0.0577,0.7674,30.6563,26.5875,-15.5063,,0.0017800000000001148,3.4058580269882066,4.848820040232758,backward_fall
2.606186,0.9643,1.968,2.6071,-1.4909,-0.0577,0.7674,30.6563,26.5875,-15.5063,,0.03435699999999997,3.4058580269882066,4.6397767434281745,backward_fall
2.60852,0.9643,1.968,2.6071,0.2339,0.8375,-0.7272,30.6563,26.5875,-15.5063,,0.002333999999999836,3.4058580269882066,4.471769004743099,backward_fall
2.631084,0.9643,1.968,2.6071,0.2339,0.8375,-0.7272,30.9,27.6188,-13.5188,,0.02256400000000003,3.4058580269882066,4.340260257538323,backward_fall
2.634375,4.3323,-0.2986,1.7964,0.2339,0.8375,-0.7272,30.9,27.6188,-13.5188,,0.003290999999999933,4.699472120355647,4.236724855358843,backward_fall
2.636801,4.3323,-0.2986,1.7964,0.2339,0.8375,-0.7272,30.9,27.6188,-13.5188,,0.0024260000000002613,4.699472120355647,4.149849762616689,backward_fall
2.638591,4.3323,-0.2986,1.7964,0.2339,0.8375,-0.7272,30.9,27.6188,-13.5188,,0.0017899999999997362,4.699472120355647,4.067188423087003,backward_fall
2.670517,4.3323,-0.2986,1.7964,0.2339,0.8375,-0.7272,30.9,27.6188,-13.5188,,0.0319259999999999,4.699472120355647,3.9769792756227043,backward_fall
2.673936,4.3323,-0.2986,1.7964,0.2243,1.9455,0.3029,30.9,27.6188,-13.5188,,0.003419000000000061,4.699472120355647,3.869838354184526,backward_fall
2.676244,4.3323,-0.2986,1.7964,0.2243,1.9455,0.3029,30.9,27.6188,-13.5188,,0.0023080000000001988,4.699472120355647,3.740081738750306,backward_fall
2.690762,-1.8774,-1.0674,2.7334,0.2243,1.9455,0.3029,30.9,27.6188,-13.5188,,0.014517999999999809,3.4835971466287545,3.586509772155475,backward_fall
2.694747,-1.8774,-1.0674,2.7334,0.2243,1.9455,0.3029,30.9,27.6188,-13.5188,,0.003985000000000127,3.4835971466287545,3.41257423946768,backward_fall
2.711414,-1.8774,-1.0674,2.7334,0.2243,1.9455,0.3029,30.9,27.6188,-13.5188,,0.016666999999999987,3.4835971466287545,3.225936996502444,backward_fall
2.714734,-1.8774,-1.0674,2.7334,0.2243,1.9455,0.3029,31.2938,27.6375,-11.9438,,0.0033199999999999896,3.4835971466287545,3.0374983525475514,backward_fall
2.73781,-1.8774,-1.0674,2.7334,0.2243,1.9455,0.3029,31.2938,27.6375,-11.9438,,0.023076000000000096,3.4835971466287545,2.860019766546536,backward_fall
2.748369,1.7606,0.122,-0.1753,0.2243,1.9455,0.3029,31.2938,27.6375,-11.9438,,0.010558999999999763,1.7735068226539192,2.706497956958782,backward_fall
2.751906,1.7606,0.122,-0.1753,0.3373,1.0017,-1.2585,31.2938,27.6375,-11.9438,,0.0035370000000001234,1.7735068226539192,2.5884787493797967,backward_fall
2.755198,1.7606,0.122,-0.1753,0.3373,1.0017,-1.2585,31.2938,27.6375,-11.9438,,0.0032920000000000726,1.7735068226539192,2.514523902855928,backward_fall
2.768447,1.7606,0.122,-0.1753,0.3373,1.0017,-1.2585,31.2938,27.6375,-11.9438,,0.013249000000000066,1.7735068226539192,2.4890414281710336,backward_fall
2.770738,1.7606,0.122,-0.1753,0.3373,1.0017,-1.2585,32.025,27.2813,-10.575,,0.002291000000000043,1.7735068226539192,2.511645138975041,backward_fall
2.805479,1.7606,0.122,-0.1753,0.3373,1.0017,-1.2585,32.025,27.2813,-10.575,,0.03474099999999991,1.7735068226539192,2.577130232356751,backward_fall
2.816939,-3.1188,1.1226,-0.3422,0.3373,1.0017,-1.2585,32.025,27.2813,-10.575,,0.011460000000000026,3.3323032635100907,2.676058372116958,backward_fall
2.819604,-3.1188,1.1226,-0.3422,0.3373,1.0017,-1.2585,32.025,27.2813,-10.575,,0.0026649999999999174,3.3323032635100907,2.795855160284906,backward_fall
2.820908,-3.1188,1.1226,-0.3422,0.317,0.2736,0.1403,32.025,27.2813,-10.575,,0.001304000000000194,3.3323032635100907,2.922251204731427,backward_fall
2.835257,-3.1188,1.1226,-0.3422,0.317,0.2736,0.1403,32.025,27.2813,-10.575,,0.014348999999999723,3.3323032635100907,3.0408631160438824,backward_fall
2.837489,-3.1188,1.1226,-0.3422,0.317,0.2736,0.1403,32.6063,26.9438,-9.9188,,0.002232000000000234,3.3323032635100907,3.138719784799287,backward_fall
2.873028,-3.1188,1.1226,-0.3422,0.0763,-0.9339,-0.2553,32.6063,26.9438,-9.9188,,0.03553899999999999,3.3323032635100907,3.2055786881479382,backward_fall
2.874814,-2.4893,-1.2377,2.0629,0.0763,-0.9339,-0.2553,32.6063,26.9438,-9.9188,,0.0017860000000000653,3.46180187041373,3.2349239290945175,backward_fall
2.876162,-2.4893,-1.2377,2.0629,0.0763,-0.9339,-0.2553,32.6063,26.9438,-9.9188,,0.0013479999999996828,3.46180187041373,3.2245777635284707,backward_fall
2.87709,-2.4893,-1.2377,2.0629,0.0763,-0.9339,-0.2553,32.6063,26.9438,-9.9188,,0.0009280000000000399,3.46180187041373,3.176888661194354,backward_fall
2.908186,-2.4893,-1.2377,2.0629,0.0763,-0.9339,-0.2553,32.6063,26.9438,-9.9188,,0.031096000000000235,3.46180187041373,3.0984860676427135,backward_fall
2.90949,-2.4893,-1.2377,2.0629,0.0763,-0.9339,-0.2553,32.6063,26.9438,-9.9188,,0.0013039999999997498,3.46180187041373,2.999620212087351,backward_fall
2.910444,-2.4893,-1.2377,2.0629,0.0763,-0.9339,-0.2553,33.0188,26.6813,-9.3188,,0.0009540000000001214,3.46180187041373,2.8931381941623964,backward_fall
2.930909,-1.4724,0.3856,-1.4876,0.0763,-0.9339,-0.2553,33.0188,26.6813,-9.3188,,0.020465000000000177,2.128286371708469,2.7931869712546287,backward_fall
2.932609,-1.4724,0.3856,-1.4876,0.0763,-0.9339,-0.2553,33.0188,26.6813,-9.3188,,0.0016999999999995907,2.128286371708469,2.7137772541188214,backward_fall
2.951123,-1.4724,0.3856,-1.4876,-0.7412,-1.2325,-0.4193,33.0188,26.6813,-9.3188,,0.01851400000000014,2.128286371708469,2.667378092622562,backward_fall
2.969758,-1.4724,0.3856,-1.4876,-0.7412,-1.2325,-0.4193,33.0188,26.6813,-9.3188,,0.01863500000000018,2.128286371708469,2.663721988672237,backward_fall
2.9721,-1.4724,0.3856,-1.4876,-0.7412,-1.2325,-0.4193,33.0188,26.6813,-9.3188,,0.0023420000000000663,2.128286371708469,2.70897444846865,backward_fall
2.974005,-1.4724,0.3856,-1.4876,-0.7412,-1.2325,-0.4193,32.7375,27.2063,-8.775,,0.0019049999999998235,2.128286371708469,2.8053669462563278,backward_fall
2.990378,-1.4724,0.3856,-1.4876,-0.7412,-1.2325,-0.4193,32.7375,27.2063,-8.775,,0.016373000000000193,2.128286371708469,2.9513232487501115,backward_fall
2.992787,-0.6278,3.4528,2.2644,-0.7412,-1.2325,-0.4193,32.7375,27.2063,-8.775,,0.0024089999999996614,4.176537805407728,3.1420353642875045,backward_fall
3.021797,-0.6278,3.4528,2.2644,-1.3349,-0.7658,-0.3572,32.7375,27.2063,-8.775,,0.02900999999999998,4.176537805407728,3.370373153341966,backward_fall
3.03733,-0.6278,3.4528,2.2644,-1.3349,-0.7658,-0.3572,32.7375,27.2063,-8.775,,0.015533000000000019,4.176537805407728,3.627956095134738,backward_fall
3.040637,-0.6278,3.4528,2.2644,-1.3349,-0.7658,-0.3572,32.7375,27.2063,-8.775,,0.003306999999999949,4.176537805407728,3.9061998165533756,backward_fall
3.043319,-0.6278,3.4528,2.2644,-1.3349,-0.7658,-0.3572,32.25,27.9563,-8.0625,,0.002682000000000073,4.176537805407728,4.197182746354502,backward_fall
3.055227,-0.6278,3.4528,2.2644,-1.3349,-0.7658,-0.3572,32.25,27.9563,-8.0625,,0.01190800000000003,4.176537805407728,4.4942404676351435,backward_fall
3.057765,-1.0486,4.562,2.9212,-1.3349,-0.7658,-0.3572,32.25,27.9563,-8.0625,,0.002537999999999929,5.517682067680232,4.7922549580587335,backward_fall
3.06916,-1.0486,4.562,2.9212,-1.1156,-1.743,0.1946,32.25,27.9563,-8.0625,,0.011395000000000266,5.517682067680232,5.087644230884494,backward_fall
3.072764,-1.0486,4.562,2.9212,-1.1156,-1.743,0.1946,32.25,27.9563,-8.0625,,0.0036039999999997185,5.517682067680232,5.378079432675926,backward_fall
3.122261,-1.0486,4.562,2.9212,-1.1156,-1.743,0.1946,32.25,27.9563,-8.0625,,0.049497000000000124,5.517682067680232,5.661978182360205,backward_fall
3.125876,-1.0486,4.562,2.9212,-1.1156,-1.743,0.1946,31.7813,28.7438,-7.6688,,0.003614999999999924,5.517682067680232,5.937854028172486,backward_fall
3.128801,-1.0486,4.562,2.9212,-1.1156,-1.743,0.1946,31.7813,28.7438,-7.6688,,0.0029250000000002885,5.517682067680232,6.203633055538891,backward_fall
3.131139,-3.4004,2.8272,4.7183,-1.1156,-1.743,0.1946,31.7813,28.7438,-7.6688,,0.0023379999999999512,6.466694278377477,6.45606195760227,backward_fall
3.143392,-3.4004,2.8272,4.7183,-1.1156,-1.743,0.1946,31.7813,28.7438,-7.6688,,0.012252999999999847,6.466694278377477,6.690317919664265,backward_fall
3.155146,-3.4004,2.8272,4.7183,-0.4633,-0.8593,0.1963,31.7813,28.7438,-7.6688,,0.01175399999999982,6.466694278377477,6.89989542509207,backward_fall
3.17203,-3.4004,2.8272,4.7183,-0.4633,-0.8593,0.1963,31.2938,29.4,-7.7063,,0.01688400000000012,6.466694278377477,7.0768027601311205,backward_fall
3.174971,-1.4758,1.6198,7.091,-0.4633,-0.8593,0.1963,31.2938,29.4,-7.7063,,0.0029410000000003045,7.421860863691801,7.212060690586268,backward_fall
3.177495,-1.4758,1.6198,7.091,-0.4633,-0.8593,0.1963,31.2938,29.4,-7.7063,,0.0025239999999997487,7.421860863691801,7.296456723352434,backward_fall
3.179693,-1.4758,1.6198,7.091,-0.4633,-0.8593,0.1963,31.2938,29.4,-7.7063,,0.0021979999999999222,7.421860863691801,7.321470146478445,backward_fall
3.205624,-1.4758,1.6198,7.091,-0.4633,-0.8593,0.1963,31.2938,29.4,-7.7063,,0.025930999999999926,7.421860863691801,7.28025392704938,backward_fall
3.207801,-1.4758,1.6198,7.091,1.0321,0.0359,0.8453,31.2938,29.4,-7.7063,,0.0021770000000000955,7.421860863691801,7.168548345751083,backward_fall
3.235942,-1.4758,1.6198,7.091,1.0321,0.0359,0.8453,31.2938,29.4,-7.7063,,0.028141000000000194,7.421860863691801,6.985407211220895,backward_fall
3.238422,-1.4758,1.6198,7.091,1.0321,0.0359,0.8453,31.2938,29.4,-7.7063,,0.0024799999999998157,7.421860863691801,6.7336345810827725,backward_fall
3.239965,-1.4758,1.6198,7.091,1.0321,0.0359,0.8453,30.9,29.925,-8.475,,0.0015430000000002941,7.421860863691801,6.4198567086760265,backward_fall
3.241884,-3.561,3.349,2.4695,1.0321,0.0359,0.8453,30.9,29.925,-8.475,,0.001919000000000004,5.47676476124363,6.054194776537841,backward_fall
3.269688,-3.561,3.349,2.4695,1.0321,0.0359,0.8453,30.9,29.925,-8.475,,0.027803999999999718,5.47676476124363,5.6495602798092115,backward_fall
3.272036,-3.561,3.349,2.4695,0.136,-0.5072,0.4532,30.9,29.925,-8.475,,0.0023480000000000167,5.47676476124363,5.220655431432417,backward_fall
3.274669,-3.561,3.349,2.4695,0.136,-0.5072,0.4532,30.9,29.925,-8.475,,0.0026329999999998854,5.47676476124363,4.782805745012705,backward_fall
3.289008,-2.5956,1.2366,-0.3075,0.136,-0.5072,0.4532,30.9,29.925,-8.475,,0.014339000000000102,2.891517796936412,4.350772309717366,backward_fall
3.292043,-2.5956,1.2366,-0.3075,0.136,-0.5072,0.4532,30.9,29.925,-8.475,,0.003035000000000121,2.891517796936412,3.937696636967159,backward_fall
3.319687,-2.5956,1.2366,-0.3075,0.136,-0.5072,0.4532,30.9,29.925,-8.475,,0.027644000000000002,2.891517796936412,3.554325783788732,non_fall
3.32205,-2.5956,1.2366,-0.3075,0.136,-0.5072,0.4532,30.8438,29.9813,-9.4313,,0.002362999999999893,2.891517796936412,3.2086340480003734,non_fall
3.354612,-2.5956,1.2366,-0.3075,0.136,-0.5072,0.4532,30.8438,29.9813,-9.4313,,0.03256199999999998,2.891517796936412,2.9058879224482,non_fall
3.357542,-2.5956,1.2366,-0.3075,0.7133,-0.2185,1.0473,30.8438,29.9813,-9.4313,,0.002930000000000099,2.891517796936412,2.6491102975740293,non_fall
3.360062,-2.5956,1.2366,-0.3075,0.7133,-0.2185,1.0473,30.8438,29.9813,-9.4313,,0.0025200000000000777,2.891517796936412,2.4398211825366865,non_fall
3.361857,-2.0724,-1.4472,0.7933,0.7133,-0.2185,1.0473,30.8438,29.9813,-9.4313,,0.001794999999999991,2.649255459558402,2.278886934147938,non_fall
3.370003,-2.0724,-1.4472,0.7933,0.7133,-0.2185,1.0473,30.8438,29.9813,-9.4313,,0.008145999999999987,2.649255459558402,2.1673011489335856,non_fall
3.372648,-2.0724,-1.4472,0.7933,0.7133,-0.2185,1.0473,30.9,29.7188,-10.9125,,0.0026449999999997864,2.649255459558402,2.10674108834801,non_fall
3.406904,-2.0724,-1.4472,0.7933,0.7133,-0.2185,1.0473,30.9,29.7188,-10.9125,,0.034256000000000064,2.649255459558402,2.099784288715275,non_fall
3.40947,-2.0724,-1.4472,0.7933,0.5596,-1.019,1.0173,30.9,29.7188,-10.9125,,0.002565999999999846,2.649255459558402,2.149722881975372,non_fall
3.41206,-1.8019,-1.556,-0.7857,0.5596,-1.019,1.0173,30.9,29.7188,-10.9125,,0.0025900000000000922,2.507050877026631,2.2599733073266464,non_fall
3.414506,-1.8019,-1.556,-0.7857,0.5596,-1.019,1.0173,30.9,29.7188,-10.9125,,0.002445999999999948,2.507050877026631,2.4331427544695163,non_fall
3.435281,-1.8019,-1.556,-0.7857,0.5596,-1.019,1.0173,30.9,29.7188,-10.9125,,0.020774999999999988,2.507050877026631,2.6698748509438297,non_fall
3.437504,-1.8019,-1.556,-0.7857,0.5596,-1.019,1.0173,30.9563,29.2125,-12.7125,,0.002223000000000308,2.507050877026631,2.9676472751587877,non_fall
3.472468,-1.8019,-1.556,-0.7857,0.5596,-1.019,1.0173,30.9563,29.2125,-12.7125,,0.034963999999999995,2.507050877026631,3.3197245737537866,non_fall
3.476168,-1.8019,-1.556,-0.7857,0.5596,-1.019,1.0173,30.9563,29.2125,-12.7125,,0.0036999999999998145,2.507050877026631,3.714473610722197,non_fall
3.478166,-1.8019,-1.556,-0.7857,0.9503,-0.2327,-0.184,30.9563,29.2125,-12.7125,,0.0019979999999999443,2.507050877026631,4.135220968597924,non_fall
3.480975,2.9632,-4.1266,-1.1163,0.9503,-0.2327,-0.184,30.9563,29.2125,-12.7125,,0.0028090000000000614,5.201490891081133,4.560766689721497,non_fall
3.511678,2.9632,-4.1266,-1.1163,0.9503,-0.2327,-0.184,30.9563,29.2125,-12.7125,,0.030702999999999925,5.201490891081133,4.966570604345421,non_fall
3.515726,2.9632,-4.1266,-1.1163,0.9503,-0.2327,-0.184,30.9563,29.2125,-12.7125,,0.0040480000000000516,5.201490891081133,5.3265185425809065,non_fall
3.518114,2.9632,-4.1266,-1.1163,0.9503,-0.2327,-0.184,31.2375,28.3125,-14.7188,,0.002388000000000279,5.201490891081133,5.615091277794745,non_fall
3.529393,2.9632,-4.1266,-1.1163,0.9503,-0.2327,-0.184,31.2375,28.3125,-14.7188,,0.011278999999999595,5.201490891081133,5.8097179429025125,non_fall
3.53285,5.616,-3.3514,-2.0552,0.9503,-0.2327,-0.184,31.2375,28.3125,-14.7188,,0.0034570000000000434,6.8553034214394915,5.893082412580578,non_fall
3.548677,5.616,-3.3514,-2.0552,0.2078,0.4051,-0.3463,31.2375,28.3125,-14.7188,,0.015827000000000258,6.8553034214394915,5.855139330307066,non_fall
3.568854,5.616,-3.3514,-2.0552,0.2078,0.4051,-0.3463,31.7438,27.1125,-16.8188,,0.02017699999999989,6.8553034214394915,5.69458441679717,non_fall
3.573594,5.616,-3.3514,-2.0552,0.2078,0.4051,-0.3463,31.7438,27.1125,-16.8188,,0.0047399999999999665,6.8553034214394915,5.419536778338381,non_fall
3.576207,5.616,-3.3514,-2.0552,0.2078,0.4051,-0.3463,31.7438,27.1125,-16.8188,,0.0026130000000001985,6.8553034214394915,5.047252953401496,non_fall
3.589818,5.616,-3.3514,-2.0552,0.2078,0.4051,-0.3463,31.7438,27.1125,-16.8188,,0.01361100000000004,6.8553034214394915,4.602806292946792,non_fall
3.593959,0.1717,-1.7164,-0.1712,0.2078,0.4051,-0.3463,31.7438,27.1125,-16.8188,,0.004140999999999728,1.7334414584865563,4.116819666169928,non_fall
3.612604,0.1717,-1.7164,-0.1712,0.1361,-1.9188,0.5588,31.7438,27.1125,-16.8188,,0.018645000000000245,1.7334414584865563,3.6225132687635404,non_fall
3.630246,0.1717,-1.7164,-0.1712,0.1361,-1.9188,0.5588,31.7438,27.1125,-16.8188,,0.017641999999999936,1.7334414584865563,3.15247649045138,non_fall
3.633943,0.1717,-1.7164,-0.1712,0.1361,-1.9188,0.5588,31.7438,27.1125,-16.8188,,0.0036969999999998393,1.7334414584865563,2.7356287267883452,non_fall
3.636433,0.1717,-1.7164,-0.1712,0.1361,-1.9188,0.5588,31.95,25.7813,-19.2188,,0.002489999999999881,1.7334414584865563,2.3947675177945595,non_fall
3.651805,0.1717,-1.7164,-0.1712,0.1361,-1.9188,0.5588,31.95,25.7813,-19.2188,,0.015372000000000163,1.7334414584865563,2.144950841059119,non_fall
3.655463,-2.1845,0.0309,-0.4047,0.1361,-1.9188,0.5588,31.95,25.7813,-19.2188,,0.003658000000000161,2.2218859444174894,1.9927937928044452,non_fall
3.67344,-2.1845,0.0309,-0.4047,-0.5665,-1.8699,0.9774,31.95,25.7813,-19.2188,,0.017976999999999688,2.2218859444174894,1.9366256134762907,non_fall
3.677695,-2.1845,0.0309,-0.4047,-0.5665,-1.8699,0.9774,31.95,25.7813,-19.2188,,0.00425500000000012,2.2218859444174894,1.967365234432842,non_fall
3.709676,-2.1845,0.0309,-0.4047,-0.5665,-1.8699,0.9774,31.95,25.7813,-19.2188,,0.03198100000000004,2.2218859444174894,2.0699310120589893,non_fall
3.715464,-2.1845,0.0309,-0.4047,-0.5665,-1.8699,0.9774,31.95,25.7813,-19.2188,,0.005787999999999904,2.2218859444174894,2.2249949357618353,non_fall
3.717762,-2.1845,0.0309,-0.4047,-0.5665,-1.8699,0.9774,31.875,24.375,-21.8813,,0.0022980000000001333,2.2218859444174894,2.4109084089915855,non_fall
3.720837,-1.5879,0.2776,-2.7037,-0.5665,-1.8699,0.9774,31.875,24.375,-21.8813,,0.003074999999999939,3.147774111971823,2.605648783937281,non_fall
3.737581,-1.5879,0.2776,-2.7037,-0.5665,-1.8699,0.9774,31.875,24.375,-21.8813,,0.016744000000000092,3.147774111971823,2.788652770346823,non_fall
3.74956,-1.5879,0.2776,-2.7037,-0.5873,0.3188,0.6521,31.875,24.375,-21.8813,,0.01197899999999974,3.147774111971823,2.942415774286927,non_fall
3.769247,-1.5879,0.2776,-2.7037,-0.5873,0.3188,0.6521,31.875,24.375,-21.8813,,0.019687000000000232,3.147774111971823,3.0537540688055342,non_fall
3.772208,-1.5879,0.2776,-2.7037,-0.5873,0.3188,0.6521,31.875,24.375,-21.8813,,0.0029609999999999914,3.147774111971823,3.114654685342349,non_fall
3.77396,-0.7901,-1.3201,-3.0671,-0.5873,0.3188,0.6521,31.875,24.375,-21.8813,,0.0017520000000001978,3.431329834043938,3.122670774942249,non_fall
3.775914,-0.7901,-1.3201,-3.0671,-0.5873,0.3188,0.6521,31.8,23.0063,-24.1688,,0.0019540000000000113,3.431329834043938,3.0808490692839428,non_fall
3.80524,-0.7901,-1.3201,-3.0671,-0.5873,0.3188,0.6521,31.8,23.0063,-24.1688,,0.02932599999999974,3.431329834043938,2.9971993228792067,non_fall
3.813833,-0.7901,-1.3201,-3.0671,-0.302,0.2922,1.1405,31.8,23.0063,-24.1688,,0.00859299999999985,3.431329834043938,2.883739802655757,non_fall
3.835317,-0.7901,-1.3201,-3.0671,-0.302,0.2922,1.1405,31.9125,21.6375,-26.0438,,0.02148400000000006,3.431329834043938,2.755185699105627,non_fall
3.840316,-1.2841,0.6887,0.8378,-0.302,0.2922,1.1405,31.9125,21.6375,-26.0438,,0.004999000000000198,1.6808121072862368,2.6273916986287413,non_fall
3.843482,-1.2841,0.6887,0.8378,-0.302,0.2922,1.1405,31.9125,21.6375,-26.0438,,0.00316599999999978,1.6808121072862368,2.515710585770344,non_fall
3.84568,-1.2841,0.6887,0.8378,-0.302,0.2922,1.1405,31.9125,21.6375,-26.0438,,0.0021980000000003663,1.6808121072862368,2.4334696010162387,non_fall
3.852153,-1.2841,0.6887,0.8378,-0.302,0.2922,1.1405,31.9125,21.6375,-26.0438,,0.006472999999999729,1.6808121072862368,2.390771406253182,non_fall
3.8686,-1.2841,0.6887,0.8378,-0.3014,0.6483,0.3511,31.9125,21.6375,-26.0438,,0.01644699999999988,1.6808121072862368,2.3937843413584097,non_fall
3.87291,-1.2841,0.6887,0.8378,-0.3014,0.6483,0.3511,31.9125,21.6375,-26.0438,,0.004310000000000258,1.6808121072862368,2.4446077363056937,non_fall
3.888462,-1.2841,0.6887,0.8378,-0.3014,0.6483,0.3511,31.9125,21.6375,-26.0438,,0.01555200000000001,1.6808121072862368,2.541703724085689,non_fall
3.892115,0.799,4.0005,-0.593,-0.3014,0.6483,0.3511,31.9125,21.6375,-26.0438,,0.0036529999999999063,4.122384049309331,2.68079157019207,non_fall
3.909172,0.799,4.0005,-0.593,-0.3014,0.6483,0.3511,31.8188,20.475,-27.3938,,0.017056999999999878,4.122384049309331,2.8560134078270134,non_fall
3.913555,0.799,4.0005,-0.593,-0.3014,0.6483,0.3511,31.8188,20.475,-27.3938,,0.004383000000000248,4.122384049309331,3.0611212653686493,non_fall
3.939273,0.799,4.0005,-0.593,-0.3014,0.6483,0.3511,31.8188,20.475,-27.3938,,0.025717999999999908,4.122384049309331,3.290433291622682,non_fall
3.952609,0.799,4.0005,-0.593,-0.6821,0.5618,-0.1268,31.8188,20.475,-27.3938,,0.013335999999999792,4.122384049309331,3.539374166857578,non_fall
3.957262,1.3291,3.435,0.037,-0.6821,0.5618,-0.1268,31.8188,20.475,-27.3938,,0.00465300000000024,3.6833545593656876,3.8045287289579792,non_fall
3.960578,1.3291,3.435,0.037,-0.6821,0.5618,-0.1268,31.8188,20.475,-27.3938,,0.0033159999999998746,3.6833545593656876,4.0832588314549145,non_fall
3.973302,1.3291,3.435,0.037,-0.6821,0.5618,-0.1268,31.9875,19.725,-28.05,,0.012723999999999958,3.6833545593656876,4.373029024429287,non_fall
3.978313,1.3291,3.435,0.037,-0.6821,0.5618,-0.1268,31.9875,19.725,-28.05,,0.005011000000000099,3.6833545593656876,4.670639295829532,non_fall
4.006508,1.3291,3.435,0.037,-0.6821,0.5618,-0.1268,31.9875,19.725,-28.05,,0.028195000000000192,3.6833545593656876,4.9715663066401605,non_fall
4.010459,3.7527,-2.8232,3.6447,-0.6821,0.5618,-0.1268,31.9875,19.725,-28.05,,0.003950999999999816,5.944497760113969,5.269570781759635,non_fall
4.014092,3.7527,-2.8232,3.6447,-0.1484,0.3961,-0.5798,31.9875,19.725,-28.05,,0.0036329999999997753,5.944497760113969,5.556650840379381,non_fall
4.017407,3.7527,-2.8232,3.6447,-0.1484,0.3961,-0.5798,31.9875,19.725,-28.05,,0.003315000000000623,5.944497760113969,5.823335494871344,non_fall
4.029623,3.7527,-2.8232,3.6447,-0.1484,0.3961,-0.5798,32.1375,19.2375,-28.2188,,0.01221599999999956,5.944497760113969,6.059252633310206,non_fall
4.033989,3.7527,-2.8232,3.6447,-0.1484,0.3961,-0.5798,32.1375,19.2375,-28.2188,,0.004366000000000092,5.944497760113969,6.253888333588493,non_fall
4.070878,3.7527,-2.8232,3.6447,-0.1484,0.3961,-0.5798,32.1375,19.2375,-28.2188,,0.036889000000000394,5.944497760113969,6.397464932446429,non_fall
4.074312,3.7527,-2.8232,3.6447,-0.1484,0.3961,-0.5798,32.1375,19.2375,-28.2188,,0.003433999999999493,5.944497760113969,6.48187464777551,non_fall
4.076115,3.7527,-2.8232,3.6447,0.2815,1.7714,0.1063,32.1375,19.2375,-28.2188,,0.001802999999999777,5.944497760113969,6.501594870721432,non_fall
4.078476,6.0228,-5.3068,2.6649,0.2815,1.7714,0.1063,32.1375,19.2375,-28.2188,,0.0023610000000005016,8.458010291433796,6.454479019946065,non_fall
4.11199,6.0228,-5.3068,2.6649,0.2815,1.7714,0.1063,32.7,18.8438,-27.75,,0.03351399999999938,8.458010291433796,6.342277220325361,non_fall
4.116895,6.0228,-5.3068,2.6649,0.2815,1.7714,0.1063,32.7,18.8438,-27.75,,0.004905000000000825,8.458010291433796,6.170726755904391,non_fall
4.132715,1.03,-0.1214,-4.211,0.2815,1.7714,0.1063,32.7,18.8438,-27.75,,0.015819999999999723,4.336837437580523,5.9491046718335845,non_fall
4.138302,1.03,-0.1214,-4.211,0.2815,1.7714,0.1063,32.7,18.8438,-27.75,,0.005587000000000231,4.336837437580523,5.689265427192381,non_fall
4.140631,1.03,-0.1214,-4.211,0.2815,1.7714,0.1063,32.7,18.8438,-27.75,,0.0023289999999995814,4.336837437580523,5.4043436346481215,non_fall
4.155063,1.03,-0.1214,-4.211,-1.5031,2.3999,-0.161,32.7,18.8438,-27.75,,0.014432000000000222,4.336837437580523,5.107399046114099,non_fall
4.159256,1.03,-0.1214,-4.211,-1.5031,2.3999,-0.161,32.7,18.8438,-27.75,,0.004192999999999891,4.336837437580523,4.810269664884856,non_fall
4.168361,1.03,-0.1214,-4.211,-1.5031,2.3999,-0.161,33.7313,18.975,-25.9125,,0.009104999999999919,4.336837437580523,4.522804225786183,non_fall
4.189737,1.03,-0.1214,-4.211,-1.5031,2.3999,-0.161,33.7313,18.975,-25.9125,,0.02137600000000006,4.336837437580523,4.2525275619270975,non_fall
4.193973,1.03,-0.1214,-4.211,-1.5031,2.3999,-0.161,33.7313,18.975,-25.9125,,0.0042359999999996845,4.336837437580523,4.004694909308036,non_fall
4.196325,-0.9276,2.2087,-3.1107,-1.5031,2.3999,-0.161,33.7313,18.975,-25.9125,,0.0023520000000001318,3.9262261702556054,3.782628617751961,non_fall
4.21481,-0.9276,2.2087,-3.1107,-2.4777,0.7843,-0.7984,33.7313,18.975,-25.9125,,0.018485000000000085,3.9262261702556054,3.588202700630661,non_fall
4.231263,-0.9276,2.2087,-3.1107,-2.4777,0.7843,-0.7984,34.9688,19.5,-23.1375,,0.016453000000000273,3.9262261702556054,3.4223410743201716,non_fall
4.236477,-0.9276,2.2087,-3.1107,-2.4777,0.7843,-0.7984,34.9688,19.5,-23.1375,,0.005213999999999608,3.9262261702556054,3.2854157422476797,non_fall
4.238443,-0.9276,2.2087,-3.1107,-2.4777,0.7843,-0.7984,34.9688,19.5,-23.1375,,0.0019660000000003564,3.9262261702556054,3.177465517175926,non_fall
4.251357,-2.2408,-0.9172,1.048,-2.4777,0.7843,-0.7984,34.9688,19.5,-23.1375,,0.012913999999999426,2.6383222850895227,3.098202955116796,non_fall
4.255266,-2.2408,-0.9172,1.048,-2.4777,0.7843,-0.7984,34.9688,19.5,-23.1375,,0.003909000000000162,2.6383222850895227,3.0468346340140267,non_fall
4.270336,-2.2408,-0.9172,1.048,-0.8027,-0.0208,-0.3441,34.9688,19.5,-23.1375,,0.015070000000000583,2.6383222850895227,3.021775195350632,non_fall
4.273168,-2.2408,-0.9172,1.048,-0.8027,-0.0208,-0.3441,34.9688,19.5,-23.1375,,0.0028319999999997236,2.6383222850895227,3.0203682126484153,non_fall
4.31309,-2.2408,-0.9172,1.048,-0.8027,-0.0208,-0.3441,34.9688,19.5,-23.1375,,0.03992199999999979,2.6383222850895227,3.038724414803432,non_fall
4.318576,-2.2408,-0.9172,1.048,-0.8027,-0.0208,-0.3441,34.9688,19.5,-23.1375,,0.005486000000000324,2.6383222850895227,3.071755678437786,non_fall
4.319466,-2.2408,-0.9172,1.048,-0.8027,-0.0208,-0.3441,35.9813,20.1938,-20.1938,,0.0008900000000000574,2.6383222850895227,3.1134364619635373,non_fall
4.320351,-0.8992,-2.9115,2.0655,-0.8027,-0.0208,-0.3441,35.9813,20.1938,-20.1938,,0.0008849999999993585,3.6812610801191488,3.1572736169851208,non_fall
4.332297,-0.8992,-2.9115,2.0655,-0.8027,-0.0208,-0.3441,35.9813,20.1938,-20.1938,,0.011946000000000012,3.6812610801191488,3.196916611749381,non_fall
4.348237,-0.8992,-2.9115,2.0655,0.473,0.0945,-0.3864,35.9813,20.1938,-20.1938,,0.01594000000000051,3.6812610801191488,3.2268025394997406,non_fall
4.357096,-0.8992,-2.9115,2.0655,0.473,0.0945,-0.3864,35.9813,20.1938,-20.1938,,0.008859000000000172,3.6812610801191488,3.2427175513198496,non_fall
4.369528,-0.8992,-2.9115,2.0655,0.473,0.0945,-0.3864,36.7125,21.0375,-17.5125,,0.012431999999999555,3.6812610801191488,3.24217562656714,non_fall
4.371196,-1.1235,-1.6151,2.2399,0.473,0.0945,-0.3864,36.7125,21.0375,-17.5125,,0.001668000000000447,2.9812668900989054,3.2245595879917137,non_fall
4.372259,-1.1235,-1.6151,2.2399,0.473,0.0945,-0.3864,36.7125,21.0375,-17.5125,,0.00106299999999937,2.9812668900989054,3.191021849158969,non_fall
4.405999,-1.1235,-1.6151,2.2399,0.473,0.0945,-0.3864,36.7125,21.0375,-17.5125,,0.03374000000000077,2.9812668900989054,3.1441875313612035,non_fall
4.416169,-1.1235,-1.6151,2.2399,0.501,-0.2648,0.1423,36.7125,21.0375,-17.5125,,0.010169999999999568,2.9812668900989054,3.087728612682846,non_fall
4.432372,-1.1235,-1.6151,2.2399,0.501,-0.2648,0.1423,36.7125,21.0375,-17.5125,,0.016202999999999967,2.9812668900989054,3.025881183884347,non_fall
4.434235,-1.1235,-1.6151,2.2399,0.501,-0.2648,0.1423,36.7125,21.0375,-17.5125,,0.00186300000000017,2.9812668900989054,2.9629655107431536,non_fall
4.435153,-1.1235,-1.6151,2.2399,0.501,-0.2648,0.1423,37.275,22.0312,-15.15,,0.0009179999999995303,2.9812668900989054,2.9029519304152283,non_fall
4.436529,-1.8136,0.9869,-1.6111,0.501,-0.2648,0.1423,37.275,22.0312,-15.15,,0.001376000000000488,2.6189234009416924,2.8491027024540214,non_fall
4.474131,-1.8136,0.9869,-1.6111,0.3217,-0.5424,0.2638,37.275,22.0312,-15.15,,0.03760199999999969,2.6189234009416924,2.8037126714762355,non_fall
4.479691,-1.8136,0.9869,-1.6111,0.3217,-0.5424,0.2638,37.275,22.0312,-15.15,,0.005560000000000009,2.6189234009416924,2.7679668501274226,non_fall
4.482132,-1.8136,0.9869,-1.6111,0.3217,-0.5424,0.2638,37.275,22.0312,-15.15,,0.0024410000000001375,2.6189234009416924,2.7419253834248547,non_fall
4.490542,-1.8136,0.9869,-1.6111,0.3217,-0.5424,0.2638,37.275,22.0312,-15.15,,0.008409999999999584,2.6189234009416924,2.7246325679372316,non_fall
4.493725,-2.1182,0.4393,-1.9955,0.3217,-0.5424,0.2638,37.275,22.0312,-15.15,,0.003183000000000824,2.943089529728921,2.7143284417394833,non_fall
4.509282,-2.1182,0.4393,-1.9955,0.3217,-0.5424,0.2638,37.7063,22.9125,-13.125,,0.015556999999999377,2.943089529728921,2.708724098370918,non_fall
4.539246,-2.1182,0.4393,-1.9955,0.3217,-0.5424,0.2638,37.7063,22.9125,-13.125,,0.029964000000000546,2.943089529728921,2.7052911186009894,non_fall
4.543759,-2.1182,0.4393,-1.9955,0.3217,-0.5424,0.2638,37.7063,22.9125,-13.125,,0.004512999999999323,2.943089529728921,2.701516194548838,non_fall
4.55127,-0.2916,-0.0722,-2.5734,0.3217,-0.5424,0.2638,37.7063,22.9125,-13.125,,0.007511000000000045,2.5908745550489316,2.6950856034813757,non_fall
4.556121,-0.2916,-0.0722,-2.5734,0.3217,-0.5424,0.2638,37.7063,22.9125,-13.125,,0.004851000000000383,2.5908745550489316,2.683986559459307,non_fall
4.559243,-0.2916,-0.0722,-2.5734,-0.2584,-0.3773,-0.4621,37.7063,22.9125,-13.125,,0.003122000000000291,2.5908745550489316,2.6665352053079,non_fall
4.569069,-0.2916,-0.0722,-2.5734,-0.2584,-0.3773,-0.4621,38.025,23.6813,-11.5688,,0.009825999999999446,2.5908745550489316,2.6413558690276,non_fall
4.605142,-0.2916,-0.0722,-2.5734,-0.2584,-0.3773,-0.4621,38.025,23.6813,-11.5688,,0.03607300000000002,2.5908745550489316,2.6073398678866386,non_fall
4.609387,-0.2916,-0.0722,-2.5734,-0.2584,-0.3773,-0.4621,38.025,23.6813,-11.5688,,0.004245000000000054,2.5908745550489316,2.5636074912551434,non_fall
4.611935,-0.2916,-0.0722,-2.5734,0.4423,0.4284,-0.5001,38.025,23.6813,-11.5688,,0.0025479999999999947,2.5908745550489316,2.509489595270422,non_fall
4.615732,1.2738,-0.8147,1.5718,0.4423,0.4284,-0.5001,38.025,23.6813,-11.5688,,0.0037970000000004944,2.1810221846647964,2.4445398156115696,non_fall
4.618514,1.2738,-0.8147,1.5718,0.4423,0.4284,-0.5001,38.025,23.6813,-11.5688,,0.00278199999999984,2.1810221846647964,2.368585657595255,non_fall
4.632358,1.2738,-0.8147,1.5718,0.4423,0.4284,-0.5001,37.8563,24.675,-10.4625,,0.013843999999999745,2.1810221846647964,2.2818239199685344,non_fall
4.670176,1.2738,-0.8147,1.5718,0.4423,0.4284,-0.5001,37.8563,24.675,-10.4625,,0.037817999999999685,2.1810221846647964,2.184958564663137,non_fall
4.675094,1.2738,-0.8147,1.5718,0.4423,0.4284,-0.5001,37.8563,24.675,-10.4625,,0.004917999999999978,2.1810221846647964,2.0793657238398833,non_fall
4.677726,1.2738,-0.8147,1.5718,0.4423,0.4284,-0.5001,37.8563,24.675,-10.4625,,0.0026320000000001897,2.1810221846647964,1.9672553104694364,non_fall
4.680008,1.2738,-0.8147,1.5718,0.737,-0.6564,-0.2194,37.8563,24.675,-10.4625,,0.0022820000000001173,2.1810221846647964,1.851788798673201,non_fall
4.683387,-0.2321,0.5771,1.5351,0.737,-0.6564,-0.2194,37.8563,24.675,-10.4625,,0.003378999999999799,1.656335361573857,1.7371132616356693,non_fall
4.709441,-0.2321,0.5771,1.5351,0.737,-0.6564,-0.2194,37.4625,25.275,-10.5563,,0.026054000000000244,1.656335361573857,1.6282833150744729,non_fall
4.713093,-0.2321,0.5771,1.5351,0.737,-0.6564,-0.2194,37.4625,25.275,-10.5563,,0.0036519999999997665,1.656335361573857,1.5310608420810985,non_fall
4.730565,-0.2321,0.5771,1.5351,0.737,-0.6564,-0.2194,37.4625,25.275,-10.5563,,0.017472000000000598,1.656335361573857,1.4516001598572417,non_fall
4.734249,-0.2321,0.5771,1.5351,0.737,-0.6564,-0.2194,37.4625,25.275,-10.5563,,0.0036839999999997985,1.656335361573857,1.3960397052314077,non_fall
4.738138,-0.2995,0.975,0.5253,0.737,-0.6564,-0.2194,37.4625,25.275,-10.5563,,0.0038890000000000313,1.1472860759200383,1.3700329758691494,non_fall
4.751013,-0.2995,0.975,0.5253,-0.1012,-0.5013,-0.7539,37.4625,25.275,-10.5563,,0.012875000000000192,1.1472860759200383,1.3782654424316172,non_fall
4.764957,-0.2995,0.975,0.5253,-0.1012,-0.5013,-0.7539,37.4625,25.275,-10.5563,,0.013943999999999512,1.1472860759200383,1.4240183091380723,non_fall
4.771453,-0.2995,0.975,0.5253,-0.1012,-0.5013,-0.7539,36.825,25.6875,-11.3625,,0.006496000000000279,1.1472860759200383,1.508845972445821,non_fall
4.792886,-0.2995,0.975,0.5253,-0.1012,-0.5013,-0.7539,36.825,25.6875,-11.3625,,0.021433000000000035,1.1472860759200383,1.6324247745820202,non_fall
4.796648,-0.2995,0.975,0.5253,-0.1012,-0.5013,-0.7539,36.825,25.6875,-11.3625,,0.003762000000000043,1.1472860759200383,1.7926055187721595,non_fall
4.798645,1.322,-0.8071,-2.3206,-0.1012,-0.5013,-0.7539,36.825,25.6875,-11.3625,,0.0019969999999993604,2.790032037450467,1.985664599898186,non_fall
4.812393,1.322,-0.8071,-2.3206,-0.1219,0.8653,-0.7555,36.825,25.6875,-11.3625,,0.013748000000000538,2.790032037450467,2.2067046410877365,non_fall
4.832864,1.322,-0.8071,-2.3206,-0.1219,0.8653,-0.7555,36.825,25.6875,-11.3625,,0.020470999999999684,2.790032037450467,2.4501188281795434,non_fall
4.837876,1.322,-0.8071,-2.3206,-0.1219,0.8653,-0.7555,36.825,25.6875,-11.3625,,0.005011999999999794,2.790032037450467,2.7100226594876196,non_fall
4.840283,1.322,-0.8071,-2.3206,-0.1219,0.8653,-0.7555,36.2063,26.3063,-12.1125,,0.002407000000000714,2.790032037450467,2.9805800938787557,non_fall
4.851252,1.322,-0.8071,-2.3206,-0.1219,0.8653,-0.7555,36.2063,26.3063,-12.1125,,0.01096899999999934,2.790032037450467,3.2561929400722405,non_fall
4.854791,-3.5967,-2.1449,0.2881,-0.1219,0.8653,-0.7555,36.2063,26.3063,-12.1125,,0.003538999999999959,4.197600327568121,3.531557402533741,non_fall
4.868722,-3.5967,-2.1449,0.2881,-0.1513,-0.9958,0.4367,36.2063,26.3063,-12.1125,,0.01393100000000036,4.197600327568121,3.8016062300330797,non_fall
4.872483,-3.5967,-2.1449,0.2881,-0.1513,-0.9958,0.4367,36.2063,26.3063,-12.1125,,0.0037609999999999033,4.197600327568121,4.0613559128685415,non_fall
4.912504,-3.5967,-2.1449,0.2881,-0.1513,-0.9958,0.4367,36.2063,26.3063,-12.1125,,0.040021000000000306,4.197600327568121,4.3056842401717335,non_fall
4.916959,-3.5967,-2.1449,0.2881,-0.1513,-0.9958,0.4367,36.2063,26.3063,-12.1125,,0.004455000000000098,4.197600327568121,4.529084222010805,non_fall
4.919348,-3.5967,-2.1449,0.2881,-0.1513,-0.9958,0.4367,35.55,26.7563,-13.0313,,0.0023889999999999745,4.197600327568121,4.72546662579854,non_fall
4.922454,-4.3276,0.853,1.4047,-0.1513,-0.9958,0.4367,35.55,26.7563,-13.0313,,0.003105999999999831,4.62913737644499,4.888096829160304,non_fall
4.940558,-4.3276,0.853,1.4047,-0.1513,-0.9958,0.4367,35.55,26.7563,-13.0313,,0.01810400000000012,4.62913737644499,5.009741696765707,non_fall
4.95176,-4.3276,0.853,1.4047,0.3848,-1.5267,-0.6296,35.55,26.7563,-13.0313,,0.011201999999999934,4.62913737644499,5.083070904949308,non_fall
4.970098,-4.3276,0.853,1.4047,0.3848,-1.5267,-0.6296,35.55,26.7563,-13.0313,,0.018337999999999965,4.62913737644499,5.101313527026609,non_fall
4.972433,-4.3276,0.853,1.4047,0.3848,-1.5267,-0.6296,34.725,27.3188,-14.2313,,0.002334999999999532,4.62913737644499,5.059122224581852,non_fall
4.974019,4.8662,-2.0023,1.9649,0.3848,-1.5267,-0.6296,34.725,27.3188,-14.2313,,0.0015860000000005314,5.616933303858966,4.953546814028586,non_fall
4.975553,4.8662,-2.0023,1.9649,0.3848,-1.5267,-0.6296,34.725,27.3188,-14.2313,,0.0015339999999994802,5.616933303858966,4.784969849341398,non_fall
5.005077,4.8662,-2.0023,1.9649,0.3848,-1.5267,-0.6296,34.725,27.3188,-14.2313,,0.029524000000000328,5.616933303858966,4.557821737963493,non_fall
5.008392,4.8662,-2.0023,1.9649,0.4912,1.462,-0.2301,34.725,27.3188,-14.2313,,0.003314999999999735,5.616933303858966,4.280891744234685,non_fall
5.028816,4.8662,-2.0023,1.9649,0.4912,1.462,-0.2301,33.8813,27.7125,-14.925,,0.02042400000000022,5.616933303858966,3.9670985802250023,non_fall
5.032421,0.4517,-1.7035,-1.405,0.4912,1.462,-0.2301,33.8813,27.7125,-14.925,,0.0036050000000003024,2.2538789097908523,3.6326790957800528,non_fall
5.036226,0.4517,-1.7035,-1.405,0.4912,1.462,-0.2301,33.8813,27.7125,-14.925,,0.0038049999999998363,2.2538789097908523,3.295877026941891,non_fall
5.038457,0.4517,-1.7035,-1.405,0.4912,1.462,-0.2301,33.8813,27.7125,-14.925,,0.002231000000000094,2.2538789097908523,2.9753278118753994,non_fall
5.070803,0.4517,-1.7035,-1.405,0.4912,1.462,-0.2301,33.8813,27.7125,-14.925,,0.03234599999999954,2.2538789097908523,2.688393427978618,non_fall
5.073197,0.4517,-1.7035,-1.405,0.4912,1.462,-0.2301,33.8813,27.7125,-14.925,,0.0023940000000006734,2.2538789097908523,2.4496811781636385,non_fall
5.074979,0.4517,-1.7035,-1.405,0.6776,0.6324,-0.9097,33.8813,27.7125,-14.925,,0.0017819999999995062,2.2538789097908523,2.269906406757385,non_fall
5.090603,0.7656,-0.8832,-1.6487,0.6776,0.6324,-0.9097,33.8813,27.7125,-14.925,,0.01562399999999986,2.0209891860175797,2.1551767692305672,non_fall
5.094185,0.7656,-0.8832,-1.6487,0.6776,0.6324,-0.9097,33.8813,27.7125,-14.925,,0.0035820000000006402,2.0209891860175797,2.106714067096404,non_fall
5.112037,0.7656,-0.8832,-1.6487,0.6776,0.6324,-0.9097,33.1313,28.2375,-15.6,,0.017851999999999535,2.0209891860175797,2.1209925769273203,non_fall
5.136745,0.7656,-0.8832,-1.6487,0.6776,0.6324,-0.9097,33.1313,28.2375,-15.6,,0.024708000000000396,2.0209891860175797,2.19025160694925,non_fall
5.139258,0.7656,-0.8832,-1.6487,0.6776,0.6324,-0.9097,33.1313,28.2375,-15.6,,0.0025129999999995434,2.0209891860175797,2.3033252575759726,non_fall
5.149589,0.7656,-0.8832,-1.6487,0.2154,0.0379,0.2861,33.1313,28.2375,-15.6,,0.010330999999999868,2.0209891860175797,2.4467177157564937,non_fall
5.152578,-2.5056,2.1192,-0.5482,0.2154,0.0379,0.2861,33.1313,28.2375,-15.6,,0.0029890000000003525,3.3270953157371372,2.605834249069079,non_fall
5.154676,-2.5056,2.1192,-0.5482,0.2154,0.0379,0.2861,33.1313,28.2375,-15.6,,0.0020980000000001553,3.3270953157371372,2.7662566741047683,non_fall
5.168467,-2.5056,2.1192,-0.5482,0.2154,0.0379,0.2861,32.475,28.5188,-16.2938,,0.013790999999999443,3.3270953157371372,2.914936103443638,non_fall
5.206441,-2.5056,2.1192,-0.5482,0.2154,0.0379,0.2861,32.475,28.5188,-16.2938,,0.037974000000000174,3.3270953157371372,3.041180039981067,non_fall
5.211089,-2.5056,2.1192,-0.5482,0.2154,0.0379,0.2861,32.475,28.5188,-16.2938,,0.0046480000000004296,3.3270953157371372,3.1373425724986737,non_fall
5.214044,-2.5056,2.1192,-0.5482,0.4316,-0.2181,0.2525,32.475,28.5188,-16.2938,,0.002955000000000041,3.3270953157371372,3.1991759572587446,non_fall
5.217344,1.5046,1.5156,2.1358,0.4316,-0.2181,0.2525,32.475,28.5188,-16.2938,,0.0032999999999994145,3.0203486818577754,3.2258518428581398,non_fall
5.22034,1.5046,1.5156,2.1358,0.4316,-0.2181,0.2525,32.475,28.5188,-16.2938,,0.0029960000000004428,3.0203486818577754,3.219699050507914,non_fall
5.230894,1.5046,1.5156,2.1358,0.4316,-0.2181,0.2525,31.8375,28.5563,-16.9125,,0.010553999999999952,3.0203486818577754,3.1857279073372413,non_fall
5.27516,1.5046,1.5156,2.1358,0.4316,-0.2181,0.2525,31.8375,28.5563,-16.9125,,0.04426599999999947,3.0203486818577754,3.131017658363762,non_fall
5.279318,1.5046,1.5156,2.1358,0.4316,-0.2181,0.2525,31.8375,28.5563,-16.9125,,0.004158000000000328,3.0203486818577754,3.0640354329835766,non_fall
5.281525,1.5046,1.5156,2.1358,0.4316,-0.2181,0.2525,31.8375,28.5563,-16.9125,,0.002207000000000292,3.0203486818577754,2.9939386899801548,non_fall
5.284224,1.5046,1.5156,2.1358,1.2748,-0.4083,0.1723,31.8375,28.5563,-16.9125,,0.002698999999999785,3.0203486818577754,2.9298956845808015,non_fall
5.287344,0.4738,-2.1333,1.8701,1.2748,-0.4083,0.1723,31.8375,28.5563,-16.9125,,0.0031200000000000117,2.8762352720179205,2.8804458227085865,non_fall
5.313778,0.4738,-2.1333,1.8701,1.2748,-0.4083,0.1723,31.425,28.35,-17.7,,0.02643400000000007,2.8762352720179205,2.852915863702002,non_fall
5.318669,0.4738,-2.1333,1.8701,1.2748,-0.4083,0.1723,31.425,28.35,-17.7,,0.004890999999999757,2.8762352720179205,2.8529079016924093,non_fall
5.3298,0.4738,-2.1333,1.8701,1.2748,-0.4083,0.1723,31.425,28.35,-17.7,,0.01113099999999978,2.8762352720179205,2.8838781544131082,non_fall
5.333382,0.4738,-2.1333,1.8701,1.2748,-0.4083,0.1723,31.425,28.35,-17.7,,0.0035820000000006402,2.8762352720179205,2.946829062914147,non_fall
5.335861,-2.3326,0.9243,-1.707,1.2748,-0.4083,0.1723,31.425,28.35,-17.7,,0.00247900000000012,3.0346667444712936,3.0401395393588024,non_fall
5.350487,-2.3326,0.9243,-1.707,0.7123,0.3332,0.8193,31.425,28.35,-17.7,,0.014625999999999806,3.0346667444712936,3.1595587041297093,non_fall
5.369148,-2.3326,0.9243,-1.707,0.7123,0.3332,0.8193,31.425,28.35,-17.7,,0.018660999999999817,3.0346667444712936,3.298386488928213,non_fall
5.371577,-2.3326,0.9243,-1.707,0.7123,0.3332,0.8193,31.3688,27.525,-18.75,,0.0024290000000002365,3.0346667444712936,3.447858995362226,non_fall
5.390057,-2.3326,0.9243,-1.707,0.7123,0.3332,0.8193,31.3688,27.525,-18.75,,0.018479999999999386,3.0346667444712936,3.597745086490992,non_fall
5.393205,-2.3326,0.9243,-1.707,0.7123,0.3332,0.8193,31.3688,27.525,-18.75,,0.0031480000000003727,3.0346667444712936,3.737139161257297,non_fall
5.394892,3.8012,2.2176,-1.5343,0.7123,0.3332,0.8193,31.3688,27.525,-18.75,,0.00168699999999955,4.66057375115983,3.8553997453727793,non_fall
5.411939,3.8012,2.2176,-1.5343,0.3577,1.319,0.9434,31.3688,27.525,-18.75,,0.0170470000000007,4.66057375115983,3.943137380191483,non_fall
5.431026,3.8012,2.2176,-1.5343,0.3577,1.319,0.9434,31.3688,27.525,-18.75,,0.019086999999999854,4.66057375115983,3.993114199736726,non_fall
5.435186,3.8012,2.2176,-1.5343,0.3577,1.319,0.9434,31.7438,26.4563,-19.3125,,0.0041599999999997195,4.66057375115983,4.000905797585412,non_fall
5.451326,3.8012,2.2176,-1.5343,0.3577,1.319,0.9434,31.7438,26.4563,-19.3125,,0.016140000000000043,4.66057375115983,3.9652075763882366,non_fall
5.454494,3.8012,2.2176,-1.5343,0.3577,1.319,0.9434,31.7438,26.4563,-19.3125,,0.0031680000000005037,4.66057375115983,3.887734923586222,non_fall
5.45589,1.7251,1.4046,-1.431,0.3577,1.319,0.9434,31.7438,26.4563,-19.3125,,0.0013959999999997308,2.645114774447415,3.772749784503414,non_fall
5.469578,1.7251,1.4046,-1.431,0.7683,1.191,-0.228,31.7438,26.4563,-19.3125,,0.013688000000000144,2.645114774447415,3.6263270225964486,non_fall
5.473321,1.7251,1.4046,-1.431,0.7683,1.191,-0.228,31.7438,26.4563,-19.3125,,0.003743000000000052,2.645114774447415,3.4555315018128323,non_fall
5.509452,1.7251,1.4046,-1.431,0.7683,1.191,-0.228,31.7438,26.4563,-19.3125,,0.03613099999999925,2.645114774447415,3.2676868498771885,non_fall
5.513789,1.7251,1.4046,-1.431,0.7683,1.191,-0.228,32.3813,25.2188,-19.275,,0.004337000000000479,2.645114774447415,3.0698697294199637,non_fall
5.517383,2.7913,-0.2437,1.5615,0.7683,1.191,-0.228,32.3813,25.2188,-19.275,,0.003593999999999653,3.2076514196527026,2.868677630704378,non_fall
5.520389,2.7913,-0.2437,1.5615,0.7683,1.191,-0.228,32.3813,25.2188,-19.275,,0.003006000000000064,3.2076514196527026,2.6702273159298824,non_fall
5.53965,2.7913,-0.2437,1.5615,0.7683,1.191,-0.228,32.3813,25.2188,-19.275,,0.019261000000000195,3.2076514196527026,2.4802733656419615,non_fall
5.55063,2.7913,-0.2437,1.5615,0.0389,1.0717,-0.0183,32.3813,25.2188,-19.275,,0.01097999999999999,3.2076514196527026,2.3043082300746853,non_fall
5.572699,2.7913,-0.2437,1.5615,0.0389,1.0717,-0.0183,33.1875,24.15,-19.1625,,0.022069000000000116,3.2076514196527026,2.147522262760748,non_fall
5.577239,-0.0246,1.1409,0.6859,0.0389,1.0717,-0.0183,33.1875,24.15,-19.1625,,0.004539999999999544,1.331434106518231,2.0145591764316513,non_fall
5.580658,-0.0246,1.1409,0.6859,0.0389,1.0717,-0.0183,33.1875,24.15,-19.1625,,0.003419000000000061,1.331434106518231,1.909083559635442,non_fall
5.583522,-0.0246,1.1409,0.6859,0.0389,1.0717,-0.0183,33.1875,24.15,-19.1625,,0.002864000000000644,1.331434106518231,1.8332561222752086,non_fall
5.606065,-0.0246,1.1409,0.6859,0.0389,1.0717,-0.0183,33.1875,24.15,-19.1625,,0.022542999999999758,1.331434106518231,1.787258265832994,non_fall
5.610155,-0.0246,1.1409,0.6859,-0.1933,1.9373,0.0231,33.1875,24.15,-19.1625,,0.004089999999999705,1.331434106518231,1.7690038933296628,non_fall
5.629232,-0.0246,1.1409,0.6859,-0.1933,1.9373,0.0231,33.1875,24.15,-19.1625,,0.019077000000000233,1.331434106518231,1.7741329932110597,non_fall
5.63349,-0.0246,1.1409,0.6859,-0.1933,1.9373,0.0231,34.3313,22.95,-18.3188,,0.004258000000000095,1.331434106518231,1.7963214054040417,non_fall
5.636096,1.7698,-1.4298,0.4431,-0.1933,1.9373,0.0231,34.3313,22.95,-18.3188,,0.0026060000000001082,2.317942555371034,1.8278801860156835,non_fall
5.639162,1.7698,-1.4298,0.4431,-0.1933,1.9373,0.0231,34.3313,22.95,-18.3188,,0.003065999999999569,2.317942555371034,1.860562945046289,non_fall
5.670774,1.7698,-1.4298,0.4431,-0.1933,1.9373,0.0231,34.3313,22.95,-18.3188,,0.03161199999999997,2.317942555371034,1.8864585715260138,non_fall
5.67509,1.7698,-1.4298,0.4431,-0.1933,1.9373,0.0231,34.3313,22.95,-18.3188,,0.0043160000000002086,2.317942555371034,1.898831798919931,non_fall
5.677283,1.7698,-1.4298,0.4431,-0.246,1.5312,0.7168,34.3313,22.95,-18.3188,,0.0021930000000001115,2.317942555371034,1.892790934561175,non_fall
5.690645,-1.095,-0.7272,-1.0925,-0.246,1.5312,0.7168,34.3313,22.95,-18.3188,,0.013361999999999874,1.7092106628499601,1.8657033083668204,non_fall
5.69531,-1.095,-0.7272,-1.0925,-0.246,1.5312,0.7168,34.3313,22.95,-18.3188,,0.004665000000000141,1.7092106628499601,1.8173292131048508,non_fall
5.713402,-1.095,-0.7272,-1.0925,-0.246,1.5312,0.7168,35.6063,21.5625,-17.0438,,0.01809200000000022,1.7092106628499601,1.7496897136869733,non_fall
5.732121,-1.095,-0.7272,-1.0925,-0.246,1.5312,0.7168,35.6063,21.5625,-17.0438,,0.01871899999999993,1.7092106628499601,1.6667126985625589,non_fall
5.736455,-1.095,-0.7272,-1.0925,-0.1726,0.4894,0.4556,35.6063,21.5625,-17.0438,,0.00433400000000006,1.7092106628499601,1.5737125534424137,non_fall
5.739772,-1.095,-0.7272,-1.0925,-0.1726,0.4894,0.4556,35.6063,21.5625,-17.0438,,0.0033170000000000144,1.7092106628499601,1.4767586336046283,non_fall
5.753375,-1.095,-0.7272,-1.0925,-0.1726,0.4894,0.4556,35.6063,21.5625,-17.0438,,0.01360299999999981,1.7092106628499601,1.3819871608384786,non_fall
5.756371,0.1499,-0.1453,-0.6328,-0.1726,0.4894,0.4556,35.6063,21.5625,-17.0438,,0.0029959999999995546,0.6663467115548782,1.2949177087917425,non_fall
5.768008,0.1499,-0.1453,-0.6328,-0.1726,0.4894,0.4556,36.9563,20.2875,-15.2813,,0.011637000000000342,0.6663467115548782,1.2198487321611768,non_fall
5.806568,0.1499,-0.1453,-0.6328,-0.1726,0.4894,0.4556,36.9563,20.2875,-15.2813,,0.03856000000000037,0.6663467115548782,1.159416912752404,non_fall
5.811143,0.1499,-0.1453,-0.6328,-0.1726,0.4894,0.4556,36.9563,20.2875,-15.2813,,0.004574999999999996,0.6663467115548782,1.1143974792587585,non_fall
5.813988,0.1499,-0.1453,-0.6328,-0.0687,0.5855,0.0276,36.9563,20.2875,-15.2813,,0.0028449999999997644,0.6663467115548782,1.0837888849113047,non_fall
5.817186,1.3959,-0.071,-0.5766,-0.0687,0.5855,0.0276,36.9563,20.2875,-15.2813,,0.003198000000000256,1.5119673839074705,1.0651717531467801,non_fall
5.820415,1.3959,-0.071,-0.5766,-0.0687,0.5855,0.0276,36.9563,20.2875,-15.2813,,0.0032289999999992602,1.5119673839074705,1.0552749042735792,non_fall
5.828667,1.3959,-0.071,-0.5766,-0.0687,0.5855,0.0276,38.3625,19.1063,-13.0125,,0.008252000000000592,1.5119673839074705,1.0506378622083912,non_fall
5.872197,1.3959,-0.071,-0.5766,0.0451,0.4485,-0.1132,38.3625,19.1063,-13.0125,,0.043529999999999625,1.5119673839074705,1.0482434706373394,non_fall
5.876269,0.82,-0.5129,-0.4672,0.0451,0.4485,-0.1132,38.3625,19.1063,-13.0125,,0.0040719999999998535,1.0741239453619866,1.0460109641561595,non_fall
5.878386,0.82,-0.5129,-0.4672,0.0451,0.4485,-0.1132,38.3625,19.1063,-13.0125,,0.0021170000000001465,1.0741239453619866,1.043080410001509,non_fall
5.879781,0.82,-0.5129,-0.4672,0.0451,0.4485,-0.1132,38.3625,19.1063,-13.0125,,0.0013950000000004792,1.0741239453619866,1.0398667414604585,non_fall
5.881114,0.82,-0.5129,-0.4672,0.0451,0.4485,-0.1132,38.3625,19.1063,-13.0125,,0.0013329999999998066,1.0741239453619866,1.0379005044836107,non_fall
5.913323,0.82,-0.5129,-0.4672,0.0451,0.4485,-0.1132,38.3625,19.1063,-13.0125,,0.03220899999999993,1.0741239453619866,1.039496678678661,non_fall
5.916301,0.82,-0.5129,-0.4672,0.0451,0.4485,-0.1132,39.5063,18.3375,-10.6313,,0.002977999999999703,1.0741239453619866,1.0473051180738622,non_fall
5.932242,0.82,-0.5129,-0.4672,-0.4958,0.0073,-0.1161,39.5063,18.3375,-10.6313,,0.01594099999999976,1.0741239453619866,1.063802380480583,non_fall
5.937326,0.0634,0.7405,-0.3836,-0.4958,0.0073,-0.1161,39.5063,18.3375,-10.6313,,0.0050840000000000884,0.8363664089380922,1.0907890240692988,non_fall
5.940621,0.0634,0.7405,-0.3836,-0.4958,0.0073,-0.1161,39.5063,18.3375,-10.6313,,0.003295000000000492,0.8363664089380922,1.128959052273003,non_fall
5.943407,0.0634,0.7405,-0.3836,-0.4958,0.0073,-0.1161,39.5063,18.3375,-10.6313,,0.002785999999999511,0.8363664089380922,1.177606120668722,non_fall
5.96697,0.0634,0.7405,-0.3836,-0.4958,0.0073,-0.1161,40.2188,18.075,-8.3063,,0.023563000000000223,0.8363664089380922,1.2345199786608705,non_fall
5.969807,0.0634,0.7405,-0.3836,-0.4958,0.0073,-0.1161,40.2188,18.075,-8.3063,,0.0028370000000004225,0.8363664089380922,1.296103502697943,non_fall
5.989389,1.1173,1.1645,0.6073,-0.4958,0.0073,-0.1161,40.2188,18.075,-8.3063,,0.019581999999999766,1.7243064779789004,1.357706442379309,non_fall
5.992882,1.1173,1.1645,0.6073,-0.4958,0.0073,-0.1161,40.2188,18.075,-8.3063,,0.0034929999999997463,1.7243064779789004,1.4141319790268978,non_fall
5.994813,1.1173,1.1645,0.6073,-0.4958,0.0073,-0.1161,40.2188,18.075,-8.3063,,0.001930999999999905,1.7243064779789004,1.460236863102219,non_fall
6.011057,1.1173,1.1645,0.6073,0.1181,0.8159,-0.3967,40.2188,18.075,-8.3063,,0.01624400000000037,1.7243064779789004,1.491528178802874,non_fall
6.029923,1.1173,1.1645,0.6073,0.1181,0.8159,-0.3967,40.875,18.0375,-5.925,,0.01886600000000005,1.7243064779789004,1.5046661459625617,non_fall
6.033832,1.1173,1.1645,0.6073,0.1181,0.8159,-0.3967,40.875,18.0375,-5.925,,0.003909000000000162,1.7243064779789004,1.497807193071772,non_fall
6.036165,1.1173,1.1645,0.6073,0.1181,0.8159,-0.3967,40.875,18.0375,-5.925,,0.0023329999999992523,1.7243064779789004,1.4707535144241228,non_fall
6.051149,-0.2048,1.0751,0.3833,0.1181,0.8159,-0.3967,40.875,18.0375,-5.925,,0.014984000000000108,1.1596128405636081,1.4249069755962556,non_fall
6.054705,-0.2048,1.0751,0.3833,0.1181,0.8159,-0.3967,40.875,18.0375,-5.925,,0.0035560000000005587,1.1596128405636081,1.3630535807494815,non_fall
6.073998,-0.2048,1.0751,0.3833,-0.4642,0.2036,0.3114,40.875,18.0375,-5.925,,0.01929299999999934,1.1596128405636081,1.2890259906520374,non_fall
6.077491,-0.2048,1.0751,0.3833,-0.4642,0.2036,0.3114,40.875,18.0375,-5.925,,0.0034930000000006345,1.1596128405636081,1.2073002064076377,non_fall
