time,ax,ay,az,wx,wy,wz,Bx,By,Bz,Unnamed: 10,time_diff,acc_mag,acc_mag_filtered,label
0.096966,0.0,0.0,0.0,0.0,0.0,0.0,0.0,0.0,0.0,,0.0,0.0,0.0016466175147229632,non_fall
0.097442,0.0,0.0,0.0,0.0,0.0,0.0,0.0,0.0,0.0,,0.0004760000000000042,0.0,-0.002427962834344959,non_fall
0.09788,0.0,0.0,0.0,0.0,0.0,0.0,0.0,0.0,0.0,,0.00043799999999999395,0.0,-0.006198043833522618,non_fall
0.098323,0.0,0.0,0.0,0.0,0.0,0.0,0.0,0.0,0.0,,0.00044299999999999895,0.0,-0.009261196422660717,non_fall
0.098674,0.0,0.0,0.0,0.0,0.0,0.0,0.0,0.0,0.0,,0.0003510000000000041,0.0,-0.011227829373197966,non_fall
0.15581,0.0,0.0,0.0,0.0,0.0,0.0,0.0,0.0,0.0,,0.057136000000000006,0.0,-0.011729661786420369,non_fall
0.157061,0.0,0.0,0.0,0.0,0.0,0.0,0.0,0.0,0.0,,0.0012510000000000021,0.0,-0.010432467132629072,non_fall
0.162878,0.0,0.0,0.0,0.0,0.0,0.0,0.0,0.0,0.0,,0.005816999999999989,0.0,-0.007053369117386126,non_fall
0.164132,0.0,0.0,0.0,0.0,0.0,0.0,32.2875,36.525,7.0125,,0.0012540000000000051,0.0,-0.001381669200908571,non_fall
0.203883,0.0,0.0,0.0,0.0,0.0,0.0,32.2875,36.525,7.0125,,0.03975100000000001,0.0,0.0066991380134408095,non_fall
0.205106,0.0,0.0,0.0,0.0,0.0,0.0,32.2875,36.525,7.0125,,0.0012230000000000019,0.0,0.017191619746836112,non_fall
0.216299,0.0,0.0,0.0,0.0378,0.0187,-0.0537,32.2875,36.525,7.0125,,0.01119299999999998,0.0,0.029971026573377347,non_fall
0.223944,0.0,0.0,0.0,0.0378,0.0187,-0.0537,32.2875,36.525,7.0125,,0.007645000000000013,0.0,0.044782245669915066,non_fall
0.240209,0.0,0.0,0.0,0.0378,0.0187,-0.0537,32.2875,36.525,7.0125,,0.016265,0.0,0.061249845250602085,non_fall
0.242234,0.0545,-0.0502,-0.1315,0.0378,0.0187,-0.0537,32.2875,36.525,7.0125,,0.002024999999999999,0.15093886179509902,0.07890146334911192,non_fall
0.245318,0.0545,-0.0502,-0.1315,0.0378,0.0187,-0.0537,32.1188,36.675,7.05,,0.0030840000000000034,0.15093886179509902,0.09720124872404809,non_fall
0.277378,0.0545,-0.0502,-0.1315,0.0378,0.0187,-0.0537,32.1188,36.675,7.05,,0.032060000000000005,0.15093886179509902,0.11558679091643609,non_fall
0.280289,0.0545,-0.0502,-0.1315,-0.007,-0.0283,-0.0821,32.1188,36.675,7.05,,0.002910999999999997,0.15093886179509902,0.1335019685584367,non_fall
0.28941,0.0545,-0.0502,-0.1315,-0.007,-0.0283,-0.0821,32.1188,36.675,7.05,,0.00912099999999999,0.15093886179509902,0.1504203487436998,non_fall
0.296751,0.0545,-0.0502,-0.1315,-0.007,-0.0283,-0.0821,32.1188,36.675,7.05,,0.007340999999999986,0.15093886179509902,0.16585800507035636,non_fall
0.299659,-0.0645,0.1108,-0.1012,-0.007,-0.0283,-0.0821,32.1188,36.675,7.05,,0.0029080000000000217,0.1633350238007758,0.17937868639500298,non_fall
0.302643,-0.0645,0.1108,-0.1012,-0.007,-0.0283,-0.0821,32.2125,36.7125,7.3313,,0.0029839999999999867,0.1633350238007758,0.19059669795494424,non_fall
0.339088,-0.0645,0.1108,-0.1012,-0.007,-0.0283,-0.0821,32.2125,36.7125,7.3313,,0.036445000000000005,0.1633350238007758,0.19918335843584248,non_fall
0.341497,-0.0645,0.1108,-0.1012,0.0047,-0.0526,-0.0315,32.2125,36.7125,7.3313,,0.0024089999999999945,0.1633350238007758,0.2048817634503625,non_fall
0.356099,-0.0645,0.1108,-0.1012,0.0047,-0.0526,-0.0315,32.2125,36.7125,7.3313,,0.014602000000000004,0.1633350238007758,0.20753215604052722,non_fall
0.358472,-0.1594,-0.0534,0.1682,0.0047,-0.0526,-0.0315,32.2125,36.7125,7.3313,,0.002373000000000014,0.2378048779987492,0.20710672507297317,non_fall
0.360635,-0.1594,-0.0534,0.1682,0.0047,-0.0526,-0.0315,32.2125,36.7125,7.3313,,0.0021629999999999705,0.2378048779987492,0.20374855326563684,non_fall
0.362263,-0.1594,-0.0534,0.1682,0.0047,-0.0526,-0.0315,32.1188,36.825,7.4438,,0.0016280000000000183,0.2378048779987492,0.19780573402054896,non_fall
0.416386,-0.1594,-0.0534,0.1682,0.0047,-0.0526,-0.0315,32.1188,36.825,7.4438,,0.05412299999999998,0.2378048779987492,0.1898497963875955,non_fall
0.418921,-0.1594,-0.0534,0.1682,0.0047,-0.0526,-0.0315,32.1188,36.825,7.4438,,0.0025350000000000095,0.2378048779987492,0.18066844234302723,non_fall
0.420993,-0.1594,-0.0534,0.1682,0.0047,-0.0526,-0.0315,32.1188,36.825,7.4438,,0.0020720000000000183,0.2378048779987492,0.1712260320128879,non_fall
0.422985,-0.1594,-0.0534,0.1682,-0.0467,-0.0833,-0.0047,32.1188,36.825,7.4438,,0.0019919999999999938,0.2378048779987492,0.16259048235320303,non_fall
0.425277,-0.0274,0.0731,-0.0255,-0.0467,-0.0833,-0.0047,32.1188,36.825,7.4438,,0.0022920000000000162,0.08212563546177283,0.155831658892204,non_fall
0.443134,-0.0274,0.0731,-0.0255,-0.0467,-0.0833,-0.0047,32.1188,36.825,7.4438,,0.017856999999999956,0.08212563546177283,0.1519032424352165,non_fall
0.446175,-0.0274,0.0731,-0.0255,-0.0467,-0.0833,-0.0047,32.0625,36.9188,7.4813,,0.003041000000000016,0.08212563546177283,0.15152580884508365,non_fall
0.477098,-0.0274,0.0731,-0.0255,-0.0467,-0.0833,-0.0047,32.0625,36.9188,7.4813,,0.030923000000000034,0.08212563546177283,0.15509109825886255,non_fall
0.479635,-0.0274,0.0731,-0.0255,-0.0467,-0.0833,-0.0047,32.0625,36.9188,7.4813,,0.002536999999999956,0.08212563546177283,0.162604803577405,non_fall
0.481491,-0.0274,0.0731,-0.0255,-0.0225,-0.0666,-0.0155,32.0625,36.9188,7.4813,,0.0018560000000000243,0.08212563546177283,0.1736784627611869,non_fall
0.484004,0.2164,0.0717,0.1375,-0.0225,-0.0666,-0.0155,32.0625,36.9188,7.4813,,0.0025129999999999875,0.2662256561640895,0.18757212562259445,non_fall
0.503169,0.2164,0.0717,0.1375,-0.0225,-0.0666,-0.0155,32.0625,36.9188,7.4813,,0.019164999999999988,0.2662256561640895,0.20328019546935852,non_fall
0.505485,0.2164,0.0717,0.1375,-0.0225,-0.0666,-0.0155,32.175,36.9188,7.4813,,0.0023159999999999847,0.2662256561640895,0.21964522340120068,non_fall
0.537608,0.2003,0.0092,0.1877,-0.0225,-0.0666,-0.0155,32.175,36.9188,7.4813,,0.03212300000000001,0.2746561850750862,0.2354807932488824,non_fall
0.540283,0.2003,0.0092,0.1877,0.005,-0.0895,-0.0607,32.175,36.9188,7.4813,,0.002674999999999983,0.2746561850750862,0.2496860068684326,non_fall
0.542816,0.2003,0.0092,0.1877,0.005,-0.0895,-0.0607,32.175,36.9188,7.4813,,0.0025330000000000075,0.2746561850750862,0.2613389894642628,non_fall
0.544681,0.2003,0.0092,0.1877,0.005,-0.0895,-0.0607,32.175,36.9188,7.4813,,0.0018650000000000055,0.2746561850750862,0.26976264373736764,non_fall
0.562423,0.2003,0.0092,0.1877,0.005,-0.0895,-0.0607,32.175,36.9188,7.4813,,0.017742000000000036,0.2746561850750862,0.27456079805358485,non_fall
0.565251,0.2003,0.0092,0.1877,0.005,-0.0895,-0.0607,32.1375,36.9938,7.425,,0.0028279999999999417,0.2746561850750862,0.27562638093411596,non_fall
0.596709,0.2003,0.0092,0.1877,0.005,-0.0895,-0.0607,32.1375,36.9938,7.425,,0.0314580000000001,0.2746561850750862,0.27312540205823177,non_fall
0.598945,0.2003,0.0092,0.1877,0.005,-0.0895,-0.0607,32.1375,36.9938,7.425,,0.0022359999999999047,0.2746561850750862,0.2674616346094285,non_fall
0.600252,0.1105,-0.0411,0.1994,0.005,-0.0895,-0.0607,32.1375,36.9938,7.425,,0.0013070000000000581,0.23164589355306947,0.2592273671977994,non_fall
0.616114,0.1105,-0.0411,0.1994,0.0498,-0.039,-0.0703,32.1375,36.9938,7.425,,0.015862000000000043,0.23164589355306947,0.24914572608322771,non_fall
0.619512,0.1105,-0.0411,0.1994,0.0498,-0.039,-0.0703,32.1375,36.9938,7.425,,0.003397999999999901,0.23164589355306947,0.23800985652558287,non_fall
0.64149,0.1105,-0.0411,0.1994,0.0498,-0.039,-0.0703,32.1375,36.9938,7.425,,0.021978000000000053,0.23164589355306947,0.22662346609202863,non_fall
0.643975,0.1105,-0.0411,0.1994,0.0498,-0.039,-0.0703,32.0063,36.9188,7.3125,,0.0024849999999999595,0.23164589355306947,0.21574588446563647,non_fall
0.65564,0.1105,-0.0411,0.1994,0.0498,-0.039,-0.0703,32.0063,36.9188,7.3125,,0.011665000000000036,0.23164589355306947,0.20604343298962188,non_fall
0.658186,-0.0318,0.153,-0.0729,0.0498,-0.039,-0.0703,32.0063,36.9188,7.3125,,0.0025460000000000482,0.17243737993834168,0.19804825648194524,non_fall
0.67673,-0.0318,0.153,-0.0729,0.0111,-0.0142,-0.079,32.0063,36.9188,7.3125,,0.018544000000000005,0.17243737993834168,0.19212612030712994,non_fall
0.687869,-0.0318,0.153,-0.0729,0.0111,-0.0142,-0.079,32.0063,36.9188,7.3125,,0.011138999999999899,0.17243737993834168,0.1884555027269179,non_fall
0.709868,-0.0318,0.153,-0.0729,0.0111,-0.0142,-0.079,32.0063,36.9188,7.3125,,0.021999000000000102,0.17243737993834168,0.1870206381330801,non_fall
0.71229,-0.0318,0.153,-0.0729,0.0111,-0.0142,-0.079,31.9313,37.0312,7.3688,,0.002421999999999924,0.17243737993834168,0.187620354621847,non_fall
0.716072,0.1164,0.0015,0.1623,0.0111,-0.0142,-0.079,31.9313,37.0312,7.3688,,0.003782000000000063,0.1997310691905493,0.18989279287096714,non_fall
0.717823,0.1164,0.0015,0.1623,0.0111,-0.0142,-0.079,31.9313,37.0312,7.3688,,0.001750999999999947,0.1997310691905493,0.19335407872214577,non_fall
0.737324,0.1164,0.0015,0.1623,0.0224,-0.0039,-0.0811,31.9313,37.0312,7.3688,,0.01950099999999999,0.1997310691905493,0.19744737470996088,non_fall
0.755827,0.1164,0.0015,0.1623,0.0224,-0.0039,-0.0811,31.9313,37.0312,7.3688,,0.018503000000000047,0.1997310691905493,0.20159781853296,non_fall
0.76261,0.1164,0.0015,0.1623,0.0224,-0.0039,-0.0811,31.8563,37.0875,7.3688,,0.0067829999999999835,0.1997310691905493,0.2052686916632577,non_fall
0.766923,0.1164,0.0015,0.1623,0.0224,-0.0039,-0.0811,31.8563,37.0875,7.3688,,0.004313000000000011,0.1997310691905493,0.20801440164943047,non_fall
0.776564,0.1164,0.0015,0.1623,0.0224,-0.0039,-0.0811,31.8563,37.0875,7.3688,,0.00964100000000001,0.1997310691905493,0.20952602833383632,non_fall
0.779142,-0.0234,0.1859,0.1694,0.0224,-0.0039,-0.0811,31.8563,37.0875,7.3688,,0.002577999999999969,0.2525920228352432,0.20966500847805833,non_fall
0.817016,-0.0234,0.1859,0.1694,0.0224,-0.0039,-0.0811,31.8563,37.0875,7.3688,,0.03787399999999996,0.2525920228352432,0.20848016021227564,non_fall
0.819462,-0.0234,0.1859,0.1694,0.0175,-0.0631,-0.0567,31.8563,37.0875,7.3688,,0.0024460000000000592,0.2525920228352432,0.2062033189571198,non_fall
0.821999,-0.0234,0.1859,0.1694,0.0175,-0.0631,-0.0567,31.8563,37.0875,7.3688,,0.0025370000000000115,0.2525920228352432,0.20322028144649215,non_fall
0.837227,-0.0234,0.1859,0.1694,0.0175,-0.0631,-0.0567,31.8563,37.0875,7.3688,,0.01522800000000002,0.2525920228352432,0.20001707748358552,non_fall
0.83918,-0.0222,0.0155,0.1268,0.0175,-0.0631,-0.0567,31.8563,37.0875,7.3688,,0.0019529999999999825,0.12965851302556264,0.19710651461834366,non_fall
0.841504,-0.0222,0.0155,0.1268,0.0175,-0.0631,-0.0567,31.7438,37.2,7.2375,,0.0023239999999999927,0.12965851302556264,0.19494537875229556,non_fall
0.878333,-0.0222,0.0155,0.1268,0.0175,-0.0631,-0.0567,31.7438,37.2,7.2375,,0.036829,0.12965851302556264,0.19385687835015153,non_fall
0.880895,-0.0222,0.0155,0.1268,0.0054,-0.0648,-0.0318,31.7438,37.2,7.2375,,0.002561999999999953,0.12965851302556264,0.19397393671750598,non_fall
0.889146,-0.0222,0.0155,0.1268,0.0054,-0.0648,-0.0318,31.7438,37.2,7.2375,,0.008251000000000008,0.12965851302556264,0.19521581216129344,non_fall
0.896337,-0.0222,0.0155,0.1268,0.0054,-0.0648,-0.0318,31.7438,37.2,7.2375,,0.0071910000000000585,0.12965851302556264,0.19730407116201937,non_fall
0.898669,-0.159,0.212,-0.0117,0.0054,-0.0648,-0.0318,31.7438,37.2,7.2375,,0.0023320000000000007,0.26525815727324953,0.19981589506214895,non_fall
0.905613,-0.159,0.212,-0.0117,0.0054,-0.0648,-0.0318,31.6875,37.3125,7.1063,,0.00694399999999995,0.26525815727324953,0.20226470319274542,non_fall
0.918376,-0.159,0.212,-0.0117,0.0054,-0.0648,-0.0318,31.6875,37.3125,7.1063,,0.012762999999999969,0.26525815727324953,0.2041918560777573,non_fall
0.937589,-0.159,0.212,-0.0117,0.016,0.0126,0.0097,31.6875,37.3125,7.1063,,0.019213000000000036,0.26525815727324953,0.20525070347449292,non_fall
0.956717,-0.159,0.212,-0.0117,0.016,0.0126,0.0097,31.6875,37.3125,7.1063,,0.019128000000000034,0.26525815727324953,0.2052664015935134,non_fall
0.959572,-0.159,0.212,-0.0117,0.016,0.0126,0.0097,31.6875,37.3125,7.1063,,0.002854999999999941,0.26525815727324953,0.20426076046280323,non_fall
0.961739,-0.0568,-0.1523,0.034,0.016,0.0126,0.0097,31.6875,37.3125,7.1063,,0.00216700000000003,0.16606483673553532,0.20243892725530416,non_fall
0.965114,-0.0568,-0.1523,0.034,0.016,0.0126,0.0097,31.65,37.3688,6.825,,0.003375000000000017,0.16606483673553532,0.20014228878774631,non_fall
1.017151,-0.0568,-0.1523,0.034,0.016,0.0126,0.0097,31.65,37.3688,6.825,,0.05203699999999989,0.16606483673553532,0.19777817666695735,non_fall
1.01984,-0.0568,-0.1523,0.034,0.016,0.0126,0.0097,31.65,37.3688,6.825,,0.0026890000000001635,0.16606483673553532,0.19574038113443076,non_fall
1.021989,-0.0568,-0.1523,0.034,0.016,0.0126,0.0097,31.65,37.3688,6.825,,0.0021489999999999565,0.16606483673553532,0.19433449450992676,non_fall
1.024255,-0.0568,-0.1523,0.034,-0.0047,-0.0935,-0.0041,31.65,37.3688,6.825,,0.0022659999999998792,0.16606483673553532,0.1937194887172822,non_fall
1.02666,0.0093,0.166,0.077,-0.0047,-0.0935,-0.0041,31.65,37.3688,6.825,,0.0024049999999999905,0.18322524389395695,0.19387314638552172,non_fall
1.041742,0.0093,0.166,0.077,-0.0047,-0.0935,-0.0041,31.65,37.3688,6.825,,0.01508200000000004,0.18322524389395695,0.19458507229252997,non_fall
1.044048,0.0093,0.166,0.077,-0.0047,-0.0935,-0.0041,31.65,37.4062,6.75,,0.0023060000000001413,0.18322524389395695,0.1954774848895426,non_fall
1.077431,0.0093,0.166,0.077,-0.0047,-0.0935,-0.0041,31.65,37.4062,6.75,,0.03338299999999994,0.18322524389395695,0.19605104508217805,non_fall
1.079531,0.0093,0.166,0.077,-0.0047,-0.0935,-0.0041,31.65,37.4062,6.75,,0.0020999999999999908,0.18322524389395695,0.19575066760572626,non_fall
1.081109,0.0093,0.166,0.077,0.0098,-0.0544,-0.0116,31.65,37.4062,6.75,,0.0015780000000000793,0.18322524389395695,0.19404440115398258,non_fall
1.083269,0.2177,0.003,-0.0201,0.0098,-0.0544,-0.0116,31.65,37.4062,6.75,,0.0021599999999999397,0.21864651838069596,0.1905068168109832,non_fall
1.10123,0.2177,0.003,-0.0201,0.0098,-0.0544,-0.0116,31.6688,37.35,6.6375,,0.017960999999999894,0.21864651838069596,0.1848969099868596,non_fall
1.104804,0.2177,0.003,-0.0201,0.0098,-0.0544,-0.0116,31.6688,37.35,6.6375,,0.003573999999999966,0.21864651838069596,0.17721971763582678,non_fall
1.13728,0.2177,0.003,-0.0201,-0.0002,-0.0803,-0.0006,31.6688,37.35,6.6375,,0.03247600000000017,0.21864651838069596,0.16776135961153268,non_fall
1.140119,0.2177,0.003,-0.0201,-0.0002,-0.0803,-0.0006,31.6688,37.35,6.6375,,0.002839000000000036,0.21864651838069596,0.15708950816036996,non_fall
1.141689,0.2177,0.003,-0.0201,-0.0002,-0.0803,-0.0006,31.6688,37.35,6.6375,,0.0015699999999998493,0.21864651838069596,0.14601535933172527,non_fall
1.143527,0.0481,0.0284,-0.0623,-0.0002,-0.0803,-0.0006,31.6688,37.35,6.6375,,0.0018380000000000063,0.0836747273673479,0.13551867829584607,non_fall
1.162471,0.0481,0.0284,-0.0623,-0.0002,-0.0803,-0.0006,31.8,37.3688,6.5063,,0.018944000000000072,0.0836747273673479,0.12664375950250226,non_fall
1.166027,0.0481,0.0284,-0.0623,-0.0002,-0.0803,-0.0006,31.8,37.3688,6.5063,,0.0035559999999998926,0.0836747273673479,0.12037978156442694,non_fall
1.196903,0.0481,0.0284,-0.0623,-0.0002,-0.0803,-0.0006,31.8,37.3688,6.5063,,0.030876000000000126,0.0836747273673479,0.1175420960167503,non_fall
1.198615,0.0481,0.0284,-0.0623,-0.0002,-0.0803,-0.0006,31.8,37.3688,6.5063,,0.0017119999999999358,0.0836747273673479,0.1186704021480565,non_fall
1.19953,-0.0241,0.0533,-0.0947,-0.0002,-0.0803,-0.0006,31.8,37.3688,6.5063,,0.0009149999999999991,0.11130943356247934,0.12395631472658143,non_fall
1.217235,-0.0241,0.0533,-0.0947,-0.0134,-0.1877,0.0242,31.8,37.3688,6.5063,,0.017705000000000082,0.11130943356247934,0.13320826694644514,non_fall
1.220141,-0.0241,0.0533,-0.0947,-0.0134,-0.1877,0.0242,31.8,37.3688,6.5063,,0.002905999999999853,0.11130943356247934,0.1458572766488477,non_fall
1.241787,-0.0241,0.0533,-0.0947,-0.0134,-0.1877,0.0242,31.8,37.3688,6.5063,,0.021646000000000054,0.11130943356247934,0.16100324975381167,non_fall
1.244688,-0.0241,0.0533,-0.0947,-0.0134,-0.1877,0.0242,31.7625,37.425,6.225,,0.0029010000000000424,0.11130943356247934,0.17749796794301528,non_fall
1.256432,-0.2373,-0.0278,0.1299,-0.0134,-0.1877,0.0242,31.7625,37.425,6.225,,0.011743999999999977,0.2719524590806268,0.19405711103317905,non_fall
1.25989,-0.2373,-0.0278,0.1299,-0.0134,-0.1877,0.0242,31.7625,37.425,6.225,,0.003457999999999961,0.2719524590806268,0.2093893707762662,non_fall
1.277899,-0.2373,-0.0278,0.1299,0.0116,-0.3699,0.126,31.7625,37.425,6.225,,0.01800899999999994,0.2719524590806268,0.22232700374941933,non_fall
1.288921,-0.2373,-0.0278,0.1299,0.0116,-0.3699,0.126,31.7625,37.425,6.225,,0.011022000000000087,0.2719524590806268,0.23194112118969915,non_fall
1.305523,-0.2373,-0.0278,0.1299,0.0116,-0.3699,0.126,31.7625,37.425,6.225,,0.016602000000000006,0.2719524590806268,0.2376277696665361,non_fall
1.307464,-0.2373,-0.0278,0.1299,0.0116,-0.3699,0.126,31.8375,37.4813,5.9062,,0.0019409999999999705,0.2719524590806268,0.23915639723183177,non_fall
1.316711,-0.1984,-0.0072,0.0639,0.0116,-0.3699,0.126,31.8375,37.4813,5.9062,,0.009247000000000005,0.20856080648098768,0.23667854309855876,non_fall
1.319316,-0.1984,-0.0072,0.0639,0.0116,-0.3699,0.126,31.8375,37.4813,5.9062,,0.0026049999999999685,0.20856080648098768,0.23070003561192193,non_fall
1.337026,-0.1984,-0.0072,0.0639,0.0252,-0.4206,0.1252,31.8375,37.4813,5.9062,,0.017710000000000115,0.20856080648098768,0.2220238648874424,non_fall
1.355854,-0.1984,-0.0072,0.0639,0.0252,-0.4206,0.1252,31.8375,37.4813,5.9062,,0.018827999999999845,0.20856080648098768,0.2116727112816415,non_fall
1.362063,-0.1984,-0.0072,0.0639,0.0252,-0.4206,0.1252,31.9875,37.4062,5.4375,,0.006209000000000131,0.20856080648098768,0.20079988495207443,non_fall
1.365833,-0.1984,-0.0072,0.0639,0.0252,-0.4206,0.1252,31.9875,37.4062,5.4375,,0.003770000000000051,0.20856080648098768,0.19059605347504469,non_fall
1.376245,-0.1984,-0.0072,0.0639,0.0252,-0.4206,0.1252,31.9875,37.4062,5.4375,,0.010411999999999866,0.20856080648098768,0.18219785636380814,non_fall
1.378434,0.0515,-0.1075,-0.0465,0.0252,-0.4206,0.1252,31.9875,37.4062,5.4375,,0.0021889999999999965,0.12794823171892608,0.1766041499376662,non_fall
1.416922,0.0515,-0.1075,-0.0465,0.0252,-0.4206,0.1252,31.9875,37.4062,5.4375,,0.03848800000000008,0.12794823171892608,0.1746061950284886,non_fall
1.418869,0.0515,-0.1075,-0.0465,0.0467,-0.306,0.1284,31.9875,37.4062,5.4375,,0.001946999999999921,0.12794823171892608,0.17673870645457895,non_fall
1.423938,0.0515,-0.1075,-0.0465,0.0467,-0.306,0.1284,31.9875,37.4062,5.4375,,0.00506899999999999,0.12794823171892608,0.18325793159813616,non_fall
1.437942,0.0515,-0.1075,-0.0465,0.0467,-0.306,0.1284,31.9875,37.4062,5.4375,,0.014004000000000127,0.12794823171892608,0.1941498828671918,non_fall
1.44018,0.1642,-0.171,-0.1797,0.0467,-0.306,0.1284,31.9875,37.4062,5.4375,,0.0022379999999999622,0.2974806380254016,0.20916674431904414,non_fall
1.442876,0.1642,-0.171,-0.1797,0.0467,-0.306,0.1284,32.1188,37.1813,4.95,,0.0026960000000000317,0.2974806380254016,0.227883581931611,non_fall
1.478025,0.1642,-0.171,-0.1797,0.0467,-0.306,0.1284,32.1188,37.1813,4.95,,0.035148999999999875,0.2974806380254016,0.24976286062656902,non_fall
1.480594,0.1642,-0.171,-0.1797,0.0385,-0.3207,0.1029,32.1188,37.1813,4.95,,0.0025690000000000435,0.2974806380254016,0.2742131174672089,non_fall
1.489594,0.1642,-0.171,-0.1797,0.0385,-0.3207,0.1029,32.1188,37.1813,4.95,,0.009000000000000119,0.2974806380254016,0.30063120914151104,non_fall
1.49647,0.1865,-0.2102,-0.2493,0.0385,-0.3207,0.1029,32.1188,37.1813,4.95,,0.006875999999999882,0.37565513439855974,0.3284231732634641,non_fall
1.500031,0.1865,-0.2102,-0.2493,0.0385,-0.3207,0.1029,32.1188,37.1813,4.95,,0.0035609999999999253,0.37565513439855974,0.3570043221744498,non_fall
1.501889,0.1865,-0.2102,-0.2493,0.0385,-0.3207,0.1029,32.25,37.1813,4.4813,,0.0018580000000001373,0.37565513439855974,0.3857834359306606,non_fall
1.534649,0.1865,-0.2102,-0.2493,0.0385,-0.3207,0.1029,32.25,37.1813,4.4813,,0.0327599999999999,0.37565513439855974,0.4141390967802633,non_fall
1.537309,0.1865,-0.2102,-0.2493,0.0221,-0.4513,0.0505,32.25,37.1813,4.4813,,0.0026600000000001067,0.37565513439855974,0.4413986080484868,non_fall
1.554967,0.1865,-0.2102,-0.2493,0.0221,-0.4513,0.0505,32.25,37.1813,4.4813,,0.01765799999999995,0.37565513439855974,0.4668308935172899,non_fall
1.557274,0.1865,-0.2102,-0.2493,0.0221,-0.4513,0.0505,32.25,37.1813,4.4813,,0.002307000000000059,0.37565513439855974,0.48966311924937805,non_fall
1.558815,0.3059,-0.2161,-0.4309,0.0221,-0.4513,0.0505,32.25,37.1813,4.4813,,0.0015410000000000146,0.5709192850132144,0.5091258698636845,non_fall
1.561289,0.3059,-0.2161,-0.4309,0.0221,-0.4513,0.0505,32.25,37.0688,3.7688,,0.002473999999999865,0.5709192850132144,0.5245241238603392,non_fall
1.617869,0.1467,-0.1666,-0.5294,0.0221,-0.4513,0.0505,32.25,37.0688,3.7688,,0.056580000000000075,0.574056451927857,0.5353232452782818,non_fall
1.621225,0.1467,-0.1666,-0.5294,0.0221,-0.4513,0.0505,32.25,37.0688,3.7688,,0.0033559999999999146,0.574056451927857,0.5412339383657926,non_fall
1.623555,0.1467,-0.1666,-0.5294,-0.0059,-0.5517,0.1054,32.25,37.0688,3.7688,,0.0023300000000001653,0.574056451927857,0.5422794887830609,non_fall
1.626225,0.1467,-0.1666,-0.5294,-0.0059,-0.5517,0.1054,32.25,37.0688,3.7688,,0.00266999999999995,0.574056451927857,0.5388317836760171,non_fall
1.628236,0.1467,-0.1666,-0.5294,-0.0059,-0.5517,0.1054,32.25,37.0688,3.7688,,0.002010999999999985,0.574056451927857,0.5316073255936198,non_fall
1.643397,0.1467,-0.1666,-0.5294,-0.0059,-0.5517,0.1054,32.25,37.0688,3.7688,,0.01516099999999998,0.574056451927857,0.5216192897704106,non_fall
1.646343,0.1467,-0.1666,-0.5294,-0.0059,-0.5517,0.1054,32.475,37.0688,2.9813,,0.002945999999999893,0.574056451927857,0.5100864676323938,non_fall
1.678626,0.1467,-0.1666,-0.5294,-0.0257,-0.8614,0.1193,32.475,37.0688,2.9813,,0.03228300000000006,0.574056451927857,0.4983051114636413,non_fall
1.681958,-0.1276,-0.1175,-0.3505,-0.0257,-0.8614,0.1193,32.475,37.0688,2.9813,,0.0033320000000001126,0.39107321565149405,0.4874956045433923,non_fall
1.684096,-0.1276,-0.1175,-0.3505,-0.0257,-0.8614,0.1193,32.475,37.0688,2.9813,,0.0021379999999999733,0.39107321565149405,0.4786422025902143,non_fall
1.685582,-0.1276,-0.1175,-0.3505,-0.0257,-0.8614,0.1193,32.475,37.0688,2.9813,,0.0014859999999998763,0.39107321565149405,0.47234912076215974,non_fall
1.700982,-0.1276,-0.1175,-0.3505,-0.0257,-0.8614,0.1193,32.475,37.0688,2.9813,,0.01540000000000008,0.39107321565149405,0.46873735688966345,non_fall
1.703158,-0.1276,-0.1175,-0.3505,-0.0257,-0.8614,0.1193,32.7375,36.9938,2.0438,,0.0021759999999999557,0.39107321565149405,0.4674024162035881,non_fall
1.73832,-0.1276,-0.1175,-0.3505,-0.0257,-0.8614,0.1193,32.7375,36.9938,2.0438,,0.03516200000000014,0.39107321565149405,0.4674446550757557,non_fall
1.741088,-0.1276,-0.1175,-0.3505,-0.0257,-0.8614,0.1193,32.7375,36.9938,2.0438,,0.0027679999999998817,0.39107321565149405,0.4675736742674164,non_fall
1.742819,-0.1276,-0.1175,-0.3505,-0.1631,-0.7703,0.2235,32.7375,36.9938,2.0438,,0.001730999999999927,0.39107321565149405,0.4662776772300191,non_fall
1.745456,-0.0524,-0.0659,-0.5788,-0.1631,-0.7703,0.2235,32.7375,36.9938,2.0438,,0.0026370000000000005,0.5848914514677062,0.46203849180447565,non_fall
1.762296,-0.0524,-0.0659,-0.5788,-0.1631,-0.7703,0.2235,32.9813,36.7875,0.8625,,0.016840000000000188,0.5848914514677062,0.4535636999215213,non_fall
1.76495,-0.0524,-0.0659,-0.5788,-0.1631,-0.7703,0.2235,32.9813,36.7875,0.8625,,0.002653999999999934,0.5848914514677062,0.4400010595890466,non_fall
1.79764,-0.0524,-0.0659,-0.5788,-0.1631,-0.7703,0.2235,32.9813,36.7875,0.8625,,0.032689999999999886,0.5848914514677062,0.4211001461435957,non_fall
1.800368,-0.0524,-0.0659,-0.5788,-0.1631,-0.7703,0.2235,32.9813,36.7875,0.8625,,0.0027280000000000637,0.5848914514677062,0.39729365779989256,non_fall
1.802038,-0.1326,0.1547,-0.1474,-0.1631,-0.7703,0.2235,32.9813,36.7875,0.8625,,0.0016700000000000603,0.25147884602884596,0.3696850481740366,non_fall
1.819973,-0.1326,0.1547,-0.1474,-0.2301,-0.9557,0.2779,32.9813,36.7875,0.8625,,0.017935000000000034,0.25147884602884596,0.33994663360013166,non_fall
1.823019,-0.1326,0.1547,-0.1474,-0.2301,-0.9557,0.2779,32.9813,36.7875,0.8625,,0.003045999999999882,0.25147884602884596,0.31014822021052,non_fall
1.841586,-0.1326,0.1547,-0.1474,-0.2301,-0.9557,0.2779,32.9813,36.7875,0.8625,,0.018567,0.25147884602884596,0.2825456165721866,non_fall
1.843761,-0.1326,0.1547,-0.1474,-0.2301,-0.9557,0.2779,33.2625,36.3375,-0.2812,,0.002175000000000038,0.25147884602884596,0.25935904943938143,non_fall
1.857287,-0.1326,0.1547,-0.1474,-0.2301,-0.9557,0.2779,33.2625,36.3375,-0.2812,,0.013525999999999927,0.25147884602884596,0.2425661408365219,non_fall
1.859393,0.0762,0.1663,0.0123,-0.2301,-0.9557,0.2779,33.2625,36.3375,-0.2812,,0.0021060000000001633,0.18333963019489266,0.23372753361596388,non_fall
1.879382,0.0762,0.1663,0.0123,-0.2768,-0.7289,0.3181,33.2625,36.3375,-0.2812,,0.019989000000000035,0.18333963019489266,0.23385839896526844,non_fall
1.903665,0.0762,0.1663,0.0123,-0.2768,-0.7289,0.3181,33.2625,36.3375,-0.2812,,0.024282999999999832,0.18333963019489266,0.2433558709228816,non_fall
1.905407,0.0762,0.1663,0.0123,-0.2768,-0.7289,0.3181,33.5625,35.9625,-1.4438,,0.0017420000000001323,0.18333963019489266,0.2619893143457649,non_fall
1.906447,0.0762,0.1663,0.0123,-0.2768,-0.7289,0.3181,33.5625,35.9625,-1.4438,,0.0010399999999999299,0.18333963019489266,0.28895575993852934,non_fall
1.917986,0.0762,0.1663,0.0123,-0.2768,-0.7289,0.3181,33.5625,35.9625,-1.4438,,0.011538999999999966,0.18333963019489266,0.32299621455607813,non_fall
1.919185,0.2827,0.4176,0.2639,-0.2768,-0.7289,0.3181,33.5625,35.9625,-1.4438,,0.00119899999999995,0.5691680419700319,0.36255990323756276,non_fall
1.937866,0.2827,0.4176,0.2639,-0.2378,-0.6486,0.3059,33.5625,35.9625,-1.4438,,0.01868100000000017,0.5691680419700319,0.4059937907286938,non_fall
1.955586,0.2827,0.4176,0.2639,-0.2378,-0.6486,0.3059,33.5625,35.9625,-1.4438,,0.017719999999999958,0.5691680419700319,0.4517271720499305,non_fall
1.963388,0.2827,0.4176,0.2639,-0.2378,-0.6486,0.3059,33.5625,35.9625,-1.4438,,0.007801999999999865,0.5691680419700319,0.49842045961305625,non_fall
1.965612,0.2827,0.4176,0.2639,-0.2378,-0.6486,0.3059,33.8625,35.7563,-2.6813,,0.0022240000000000038,0.5691680419700319,0.5450556144253997,non_fall
1.9779,0.2827,0.4176,0.2639,-0.2378,-0.6486,0.3059,33.8625,35.7563,-2.6813,,0.012288000000000077,0.5691680419700319,0.590959640163634,non_fall
1.980337,0.317,0.37,0.4439,-0.2378,-0.6486,0.3059,33.8625,35.7563,-2.6813,,0.0024370000000000225,0.659117751240247,0.6357662806113878,non_fall
2.01795,0.317,0.37,0.4439,-0.2378,-0.6486,0.3059,33.8625,35.7563,-2.6813,,0.037612999999999897,0.659117751240247,0.6793306833378929,non_fall
2.021022,0.317,0.37,0.4439,-0.1299,-0.6789,0.3786,33.8625,35.7563,-2.6813,,0.0030719999999999636,0.659117751240247,0.7216168117826041,non_fall
2.024949,0.317,0.37,0.4439,-0.1299,-0.6789,0.3786,33.8625,35.7563,-2.6813,,0.003927000000000014,0.659117751240247,0.762578971104475,non_fall
2.039894,0.317,0.37,0.4439,-0.1299,-0.6789,0.3786,33.8625,35.7563,-2.6813,,0.014944999999999986,0.659117751240247,0.802057732492589,non_fall
2.042299,0.3381,0.629,0.5719,-0.1299,-0.6789,0.3786,33.8625,35.7563,-2.6813,,0.0024049999999999905,0.9148891845464127,0.8397064257338241,non_fall
2.045389,0.3381,0.629,0.5719,-0.1299,-0.6789,0.3786,34.2188,35.1,-4.2563,,0.003090000000000259,0.9148891845464127,0.8749570129473938,non_fall
2.078625,0.3381,0.629,0.5719,-0.1299,-0.6789,0.3786,34.2188,35.1,-4.2563,,0.03323600000000004,0.9148891845464127,0.9070254706223457,non_fall
2.081373,0.3381,0.629,0.5719,-0.0056,-0.8482,0.3984,34.2188,35.1,-4.2563,,0.0027479999999999727,0.9148891845464127,0.9349504069585446,non_fall
2.089747,0.3381,0.629,0.5719,-0.0056,-0.8482,0.3984,34.2188,35.1,-4.2563,,0.008373999999999882,0.9148891845464127,0.9576566119301543,non_fall
2.098005,0.3192,0.7934,0.5453,-0.0056,-0.8482,0.3984,34.2188,35.1,-4.2563,,0.008258000000000099,1.014260464575052,0.9740361155145177,non_fall
2.101784,0.3192,0.7934,0.5453,-0.0056,-0.8482,0.3984,34.2188,35.1,-4.2563,,0.0037789999999997548,1.014260464575052,0.9830402008913175,non_fall
2.104128,0.3192,0.7934,0.5453,-0.0056,-0.8482,0.3984,34.5938,34.3125,-5.8688,,0.002344000000000346,1.014260464575052,0.9837756241709608,non_fall
2.137911,0.3192,0.7934,0.5453,-0.0056,-0.8482,0.3984,34.5938,34.3125,-5.8688,,0.033782999999999674,1.014260464575052,0.9755982438585309,non_fall
2.140329,0.3192,0.7934,0.5453,0.1254,-1.0306,0.4619,34.5938,34.3125,-5.8688,,0.0024180000000000312,1.014260464575052,0.9581987853149047,non_fall
2.15549,0.3192,0.7934,0.5453,0.1254,-1.0306,0.4619,34.5938,34.3125,-5.8688,,0.01516099999999998,1.014260464575052,0.9316787955822424,non_fall
2.157302,0.3503,0.3448,0.4288,0.1254,-1.0306,0.4619,34.5938,34.3125,-5.8688,,0.0018120000000001468,0.652277985217959,0.8966194153552388,non_fall
2.159436,0.3503,0.3448,0.4288,0.1254,-1.0306,0.4619,34.5938,34.3125,-5.8688,,0.0021339999999998582,0.652277985217959,0.8541501997371239,non_fall
2.160627,0.3503,0.3448,0.4288,0.1254,-1.0306,0.4619,34.6313,33.5438,-7.725,,0.001190999999999942,0.652277985217959,0.8060269067811419,non_fall
2.218354,0.3503,0.3448,0.4288,0.1254,-1.0306,0.4619,34.6313,33.5438,-7.725,,0.057727000000000306,0.652277985217959,0.7547217737995103,non_fall
2.221363,-0.0174,0.5272,0.668,0.1254,-1.0306,0.4619,34.6313,33.5438,-7.725,,0.0030090000000000394,0.851156037398549,0.7035158486146318,non_fall
2.224827,-0.0174,0.5272,0.668,0.1254,-1.0306,0.4619,34.6313,33.5438,-7.725,,0.0034639999999996895,0.851156037398549,0.6565646949574292,non_fall
2.227817,-0.0174,0.5272,0.668,0.1254,-1.0306,0.4619,34.6313,33.5438,-7.725,,0.002990000000000048,0.851156037398549,0.6188942384965538,non_fall
2.230016,-0.0174,0.5272,0.668,0.5448,-1.4453,0.2879,34.6313,33.5438,-7.725,,0.002199000000000062,0.851156037398549,0.5962796351420641,non_fall
2.241218,-0.0174,0.5272,0.668,0.5448,-1.4453,0.2879,34.6313,33.5438,-7.725,,0.011201999999999934,0.851156037398549,0.5949694637635257,non_fall
2.243646,-0.0174,0.5272,0.668,0.5448,-1.4453,0.2879,34.5938,32.475,-9.9188,,0.0024280000000000967,0.851156037398549,0.6212383365841808,non_fall
2.279078,-0.0174,0.5272,0.668,0.5448,-1.4453,0.2879,34.5938,32.475,-9.9188,,0.03543200000000013,0.851156037398549,0.6807789619850004,non_fall
2.281598,-0.0174,0.5272,0.668,0.5448,-1.4453,0.2879,34.5938,32.475,-9.9188,,0.0025199999999996336,0.851156037398549,0.7779756619752956,non_fall
2.283825,-0.0174,0.5272,0.668,0.1472,-1.8122,0.1873,34.5938,32.475,-9.9188,,0.002227000000000423,0.851156037398549,0.9151317870362148,non_fall
2.28656,-0.8472,-0.1953,-0.0917,0.1472,-1.8122,0.1873,34.5938,32.475,-9.9188,,0.002734999999999932,0.8742418544087214,1.0917497074487716,non_fall
2.300778,-0.8472,-0.1953,-0.0917,0.1472,-1.8122,0.1873,34.5938,32.475,-9.9188,,0.014218000000000064,0.8742418544087214,1.3039799267173204,non_fall
2.303056,-0.8472,-0.1953,-0.0917,0.1472,-1.8122,0.1873,34.275,31.4625,-12.3938,,0.0022780000000000022,0.8742418544087214,1.5443608640762962,non_fall
2.317649,-0.8472,-0.1953,-0.0917,0.1472,-1.8122,0.1873,34.275,31.4625,-12.3938,,0.014592999999999634,0.8742418544087214,1.8019583737441112,non_fall
2.337711,-0.8472,-0.1953,-0.0917,0.8537,-1.015,0.1361,34.275,31.4625,-12.3938,,0.020062000000000246,0.8742418544087214,2.0629794586011205,non_fall
2.34016,-0.8472,-0.1953,-0.0917,0.8537,-1.015,0.1361,34.275,31.4625,-12.3938,,0.0024489999999999235,0.8742418544087214,2.3118734509040526,backward_fall
2.342193,-0.8115,-3.6964,1.7076,0.8537,-1.015,0.1361,34.275,31.4625,-12.3938,,0.0020329999999999515,4.151843321947494,2.532844233801694,backward_fall
2.362362,-0.8115,-3.6964,1.7076,0.8537,-1.015,0.1361,34.275,31.4625,-12.3938,,0.020169000000000104,4.151843321947494,2.7115886132872435,backward_fall
2.364627,-0.8115,-3.6964,1.7076,0.8537,-1.015,0.1361,33.7313,30.3375,-15.2438,,0.0022649999999999615,4.151843321947494,2.836982458269598,backward_fall
2.397814,-0.8115,-3.6964,1.7076,0.8537,-1.015,0.1361,33.7313,30.3375,-15.2438,,0.033186999999999856,4.151843321947494,2.9024070177168912,backward_fall
2.400649,-0.8115,-3.6964,1.7076,0.8537,-1.015,0.1361,33.7313,30.3375,-15.2438,,0.002835000000000143,4.151843321947494,2.9064702608963233,backward_fall
2.402566,-1.4569,-0.7214,-1.1125,0.8537,-1.015,0.1361,33.7313,30.3375,-15.2438,,0.0019170000000001686,1.9699319328342288,2.853012403665064,backward_fall
2.418106,-1.4569,-0.7214,-1.1125,0.6215,-0.833,0.1412,33.7313,30.3375,-15.2438,,0.015539999999999665,1.9699319328342288,2.750441883065819,backward_fall
2.421223,-1.4569,-0.7214,-1.1125,0.6215,-0.833,0.1412,33.7313,30.3375,-15.2438,,0.0031170000000000364,1.9699319328342288,2.6105785023957138,backward_fall
2.442101,-1.4569,-0.7214,-1.1125,0.6215,-0.833,0.1412,33.7313,30.3375,-15.2438,,0.020878000000000174,1.9699319328342288,2.4472481205154835,backward_fall
2.445217,-1.4569,-0.7214,-1.1125,0.6215,-0.833,0.1412,33.0188,29.0813,-18.0938,,0.0031159999999998966,1.9699319328342288,2.2748675944383963,backward_fall
2.457396,-1.4569,-0.7214,-1.1125,0.6215,-0.833,0.1412,33.0188,29.0813,-18.0938,,0.012179000000000162,1.9699319328342288,2.107201667962294,backward_fall
2.459536,-0.9145,0.1264,-1.3819,0.6215,-0.833,0.1412,33.0188,29.0813,-18.0938,,0.0021399999999998087,1.6619069829566273,1.956401412074805,backward_fall
2.477926,-0.9145,0.1264,-1.3819,0.255,-0.3855,-0.1031,33.0188,29.0813,-18.0938,,0.01839000000000013,1.6619069829566273,1.832371255382372,backward_fall
2.488565,-0.9145,0.1264,-1.3819,0.255,-0.3855,-0.1031,33.0188,29.0813,-18.0938,,0.010638999999999843,1.6619069829566273,1.7424646073064733,backward_fall
2.500258,-0.9145,0.1264,-1.3819,0.255,-0.3855,-0.1031,33.0188,29.0813,-18.0938,,0.011693000000000175,1.6619069829566273,1.6914727969056311,backward_fall
2.501898,-0.9145,0.1264,-1.3819,0.255,-0.3855,-0.1031,32.175,27.75,-21.1875,,0.0016400000000000858,1.6619069829566273,1.6818443243146495,backward_fall
2.517614,-1.6218,0.4019,-1.5144,0.255,-0.3855,-0.1031,32.175,27.75,-21.1875,,0.01571599999999984,2.2550313102039183,1.7140505628262817,backward_fall
2.520638,-1.6218,0.4019,-1.5144,0.255,-0.3855,-0.1031,32.175,27.75,-21.1875,,0.0030239999999999156,2.2550313102039183,1.7870024868687069,backward_fall
2.538381,-1.6218,0.4019,-1.5144,0.358,-0.5282,-0.0231,32.175,27.75,-21.1875,,0.017743000000000286,2.2550313102039183,1.8984252276062452,backward_fall
2.556139,-1.6218,0.4019,-1.5144,0.358,-0.5282,-0.0231,32.175,27.75,-21.1875,,0.01775799999999972,2.2550313102039183,2.045117781822092,backward_fall
2.562086,-1.6218,0.4019,-1.5144,0.358,-0.5282,-0.0231,32.175,27.75,-21.1875,,0.005946999999999925,2.2550313102039183,2.2230631404978465,backward_fall
2.565147,-1.6218,0.4019,-1.5144,0.358,-0.5282,-0.0231,31.0313,26.6063,-24.0375,,0.0030610000000002024,2.2550313102039183,2.4273998892125057,backward_fall
2.577061,-1.6218,0.4019,-1.5144,0.358,-0.5282,-0.0231,31.0313,26.6063,-24.0375,,0.01191399999999998,2.2550313102039183,2.6523063461518004,backward_fall
2.578856,-2.5032,1.3055,-0.6026,0.358,-0.5282,-0.0231,31.0313,26.6063,-24.0375,,0.001794999999999991,2.8867745409020085,2.890872132715872,backward_fall
2.619511,-2.5032,1.3055,-0.6026,0.358,-0.5282,-0.0231,31.0313,26.6063,-24.0375,,0.04065500000000011,2.8867745409020085,3.13503581600973,backward_fall
2.621922,-2.5032,1.3055,-0.6026,0.5666,-0.3447,0.129,31.0313,26.6063,-24.0375,,0.002410999999999941,2.8867745409020085,3.375653796746125,backward_fall
2.624238,-2.5032,1.3055,-0.6026,0.5666,-0.3447,0.129,31.0313,26.6063,-24.0375,,0.0023159999999999847,2.8867745409020085,3.6027415372386535,backward_fall
2.637538,-2.2541,2.8488,-2.3808,0.5666,-0.3447,0.129,31.0313,26.6063,-24.0375,,0.01330000000000009,4.343366999229976,3.8058972146403156,backward_fall
2.639801,-2.2541,2.8488,-2.3808,0.5666,-0.3447,0.129,31.0313,26.6063,-24.0375,,0.002262999999999682,4.343366999229976,3.974880037749016,backward_fall
2.641198,-2.2541,2.8488,-2.3808,0.5666,-0.3447,0.129,29.5875,25.5938,-26.7375,,0.0013970000000003147,4.343366999229976,4.100277302420486,backward_fall
2.678094,-2.2541,2.8488,-2.3808,0.5666,-0.3447,0.129,29.5875,25.5938,-26.7375,,0.03689600000000004,4.343366999229976,4.174172256239268,backward_fall
2.679536,-2.2541,2.8488,-2.3808,-0.3089,-0.595,0.4316,29.5875,25.5938,-26.7375,,0.0014419999999999433,4.343366999229976,4.190730453988487,backward_fall
2.686337,-2.2541,2.8488,-2.3808,-0.3089,-0.595,0.4316,29.5875,25.5938,-26.7375,,0.006800999999999835,4.343366999229976,4.146649022549308,backward_fall
2.697466,-2.2866,2.0387,-1.8155,-0.3089,-0.595,0.4316,29.5875,25.5938,-26.7375,,0.011128999999999944,3.561021974096762,4.041445120626722,backward_fall
2.699927,-2.2866,2.0387,-1.8155,-0.3089,-0.595,0.4316,29.5875,25.5938,-26.7375,,0.0024610000000002685,3.561021974096762,3.8775854723850616,backward_fall
2.701317,-2.2866,2.0387,-1.8155,-0.3089,-0.595,0.4316,28.1625,24.6188,-28.6688,,0.0013899999999997803,3.561021974096762,3.660472044174345,backward_fall
2.738021,-2.2866,2.0387,-1.8155,-0.3089,-0.595,0.4316,28.1625,24.6188,-28.6688,,0.03670399999999985,3.561021974096762,3.3982952796171486,backward_fall
2.740683,-2.2866,2.0387,-1.8155,0.0203,-1.0409,0.2342,28.1625,24.6188,-28.6688,,0.0026620000000003863,3.561021974096762,3.1017478646497927,backward_fall
2.755474,-2.2866,2.0387,-1.8155,0.0203,-1.0409,0.2342,28.1625,24.6188,-28.6688,,0.014790999999999777,3.561021974096762,2.783571871023978,backward_fall
2.759114,-2.2866,2.0387,-1.8155,0.0203,-1.0409,0.2342,28.1625,24.6188,-28.6688,,0.0036399999999998656,3.561021974096762,2.4579084273138387,backward_fall
2.761312,-0.9805,0.0948,0.7058,0.0203,-1.0409,0.2342,28.1625,24.6188,-28.6688,,0.0021980000000003663,1.2118254536029518,2.1394443705089414,backward_fall
2.764237,-0.9805,0.0948,0.7058,0.0203,-1.0409,0.2342,26.5688,23.9062,-30.1125,,0.0029249999999998444,1.2118254536029518,1.8424032487170674,backward_fall
2.820855,-0.9805,0.0948,0.7058,0.0203,-1.0409,0.2342,26.5688,23.9062,-30.1125,,0.056617999999999835,1.2118254536029518,1.5794872694483617,backward_fall
2.824251,-0.9805,0.0948,0.7058,0.0203,-1.0409,0.2342,26.5688,23.9062,-30.1125,,0.0033959999999999546,1.2118254536029518,1.3609090692980208,backward_fall
2.827659,-0.6702,-0.2946,-0.6457,0.0203,-1.0409,0.2342,26.5688,23.9062,-30.1125,,0.0034080000000002997,0.9761586397712207,1.1936394133400696,backward_fall
2.831146,-0.6702,-0.2946,-0.6457,0.0203,-1.0409,0.2342,26.5688,23.9062,-30.1125,,0.003486999999999796,0.9761586397712207,1.08095269710073,backward_fall
2.834171,-0.6702,-0.2946,-0.6457,0.6797,-0.0964,0.0931,26.5688,23.9062,-30.1125,,0.0030250000000000554,0.9761586397712207,1.0223039325040004,backward_fall
2.841654,-0.6702,-0.2946,-0.6457,0.6797,-0.0964,0.0931,26.5688,23.9062,-30.1125,,0.0074830000000001284,0.9761586397712207,1.0135342557435238,backward_fall
2.845081,-0.6702,-0.2946,-0.6457,0.6797,-0.0964,0.0931,25.3875,22.9313,-31.0125,,0.003426999999999847,0.9761586397712207,1.0473773803344748,backward_fall
2.878584,-0.6702,-0.2946,-0.6457,0.6797,-0.0964,0.0931,25.3875,22.9313,-31.0125,,0.03350300000000006,0.9761586397712207,1.1142229987821397,backward_fall
2.880212,-0.6702,-0.2946,-0.6457,0.6797,-0.0964,0.0931,25.3875,22.9313,-31.0125,,0.0016280000000001849,0.9761586397712207,1.203081617700232,backward_fall
2.88126,-0.6702,-0.2946,-0.6457,0.9762,-0.9716,0.038,25.3875,22.9313,-31.0125,,0.0010479999999999379,0.9761586397712207,1.3026849084948433,backward_fall
2.88268,-1.66,0.2453,-0.8768,0.9762,-0.9716,0.038,25.3875,22.9313,-31.0125,,0.0014199999999999768,1.8932908730567524,1.402642335976994,backward_fall
2.901002,-1.66,0.2453,-0.8768,0.9762,-0.9716,0.038,25.3875,22.9313,-31.0125,,0.01832199999999995,1.8932908730567524,1.4945578355782942,backward_fall
2.903611,-1.66,0.2453,-0.8768,0.9762,-0.9716,0.038,24.0938,22.0688,-31.8563,,0.0026090000000000835,1.8932908730567524,1.5729962837176863,backward_fall
2.938384,-1.66,0.2453,-0.8768,0.9762,-0.9716,0.038,24.0938,22.0688,-31.8563,,0.03477299999999994,1.8932908730567524,1.6361902452182535,backward_fall
2.941033,-1.66,0.2453,-0.8768,0.9762,-0.9716,0.038,24.0938,22.0688,-31.8563,,0.0026489999999999014,1.8932908730567524,1.686399353506048,backward_fall
2.943569,-1.66,0.2453,-0.8768,-0.047,-0.898,-0.7642,24.0938,22.0688,-31.8563,,0.0025360000000000937,1.8932908730567524,1.7298717003682929,backward_fall
2.946316,-0.0453,-0.1164,-1.9956,-0.047,-0.898,-0.7642,24.0938,22.0688,-31.8563,,0.002746999999999833,1.99950504125396,1.776396815524952,backward_fall
2.960702,-0.0453,-0.1164,-1.9956,-0.047,-0.898,-0.7642,22.725,21.4313,-32.4563,,0.01438600000000001,1.99950504125396,1.838475568887211,backward_fall
2.963224,-0.0453,-0.1164,-1.9956,-0.047,-0.898,-0.7642,22.725,21.4313,-32.4563,,0.002521999999999913,1.99950504125396,1.9301626148231894,backward_fall
2.998751,-0.0453,-0.1164,-1.9956,-0.047,-0.898,-0.7642,22.725,21.4313,-32.4563,,0.035527000000000086,1.99950504125396,2.0656633307430874,backward_fall
3.001382,-0.0453,-0.1164,-1.9956,-0.047,-0.898,-0.7642,22.725,21.4313,-32.4563,,0.00263100000000005,1.99950504125396,2.2577896038858074,backward_fall
3.003581,0.5485,-2.4642,-1.6452,-0.047,-0.898,-0.7642,22.725,21.4313,-32.4563,,0.002199000000000062,3.013273457554093,2.5163947807853213,backward_fall
3.020193,0.5485,-2.4642,-1.6452,0.1764,-0.486,-2.094,22.725,21.4313,-32.4563,,0.01661199999999985,3.013273457554093,2.8469158038469167,backward_fall
3.02396,0.5485,-2.4642,-1.6452,0.1764,-0.486,-2.094,22.725,21.4313,-32.4563,,0.003767000000000298,3.013273457554093,3.24915380862033,backward_fall
3.040594,0.5485,-2.4642,-1.6452,0.1764,-0.486,-2.094,22.725,21.4313,-32.4563,,0.016633999999999816,3.013273457554093,3.716430462861462,backward_fall
3.043151,0.5485,-2.4642,-1.6452,0.1764,-0.486,-2.094,21.1313,21.2063,-32.7,,0.0025569999999999204,3.013273457554093,4.235265146295319,backward_fall
3.05781,0.5485,-2.4642,-1.6452,0.1764,-0.486,-2.094,21.1313,21.2063,-32.7,,0.014658999999999978,3.013273457554093,4.785711487494666,backward_fall
3.059496,-1.8696,-5.8665,0.4806,0.1764,-0.486,-2.094,21.1313,21.2063,-32.7,,0.0016860000000002984,6.175937400103729,5.342448980859161,backward_fall
3.078431,-1.8696,-5.8665,0.4806,0.6247,0.8698,-3.0593,21.1313,21.2063,-32.7,,0.018934999999999924,6.175937400103729,5.876639591122307,backward_fall
3.087829,-1.8696,-5.8665,0.4806,0.6247,0.8698,-3.0593,21.1313,21.2063,-32.7,,0.009398000000000017,6.175937400103729,6.358453560462299,backward_fall
3.100848,-1.8696,-5.8665,0.4806,0.6247,0.8698,-3.0593,19.725,21.1125,-32.5312,,0.013018999999999892,6.175937400103729,6.760085025249658,backward_fall
3.103331,-1.8696,-5.8665,0.4806,0.6247,0.8698,-3.0593,19.725,21.1125,-32.5312,,0.002482999999999791,6.175937400103729,7.059039131783328,backward_fall
3.119775,-1.8696,-5.8665,0.4806,0.6247,0.8698,-3.0593,19.725,21.1125,-32.5312,,0.016444000000000347,6.175937400103729,7.241458212450618,backward_fall
3.121759,-2.0426,-6.921,-4.3331,0.6247,0.8698,-3.0593,19.725,21.1125,-32.5312,,0.0019839999999997637,8.41713795598005,7.305227079511477,backward_fall
3.138464,-2.0426,-6.921,-4.3331,1.3139,3.11,-3.7486,19.725,21.1125,-32.5312,,0.01670499999999997,8.41713795598005,7.26254185516993,backward_fall
3.155291,-2.0426,-6.921,-4.3331,1.3139,3.11,-3.7486,19.725,21.1125,-32.5312,,0.016827000000000147,8.41713795598005,7.141567292836489,backward_fall
3.160465,-2.0426,-6.921,-4.3331,1.3139,3.11,-3.7486,18.9188,21.5813,-32.0813,,0.00517399999999979,8.41713795598005,6.98678918785128,backward_fall
3.163498,-2.0426,-6.921,-4.3331,1.3139,3.11,-3.7486,18.9188,21.5813,-32.0813,,0.0030330000000002855,8.41713795598005,6.857721455950186,backward_fall
3.177862,-2.0426,-6.921,-4.3331,1.3139,3.11,-3.7486,18.9188,21.5813,-32.0813,,0.014364000000000043,8.41713795598005,6.825747571612745,backward_fall
3.179703,-3.5118,-3.1414,-8.5023,1.3139,3.11,-3.7486,18.9188,21.5813,-32.0813,,0.0018409999999997595,9.720608956747514,6.969039699332376,backward_fall
3.220775,-3.5118,-3.1414,-8.5023,1.3139,3.11,-3.7486,18.9188,21.5813,-32.0813,,0.04107200000000022,9.720608956747514,7.365690057541542,backward_fall
3.223805,-3.5118,-3.1414,-8.5023,1.9975,6.9609,-6.0964,18.9188,21.5813,-32.0813,,0.003029999999999866,9.720608956747514,8.085408316914686,backward_fall
3.22711,-3.5118,-3.1414,-8.5023,1.9975,6.9609,-6.0964,18.9188,21.5813,-32.0813,,0.0033050000000001134,9.720608956747514,9.180390220834688,backward_fall
3.240235,-3.5118,-3.1414,-8.5023,1.9975,6.9609,-6.0964,18.9188,21.5813,-32.0813,,0.013125000000000053,9.720608956747514,10.67623237379357,backward_fall
3.242109,-0.482,-3.2953,-8.8138,1.9975,6.9609,-6.0964,18.9188,21.5813,-32.0813,,0.0018739999999999313,9.422016585105336,12.564014087072657,backward_fall
3.244461,-0.482,-3.2953,-8.8138,1.9975,6.9609,-6.0964,18.675,22.7812,-31.425,,0.0023519999999996877,9.422016585105336,14.794828598612026,backward_fall
3.260033,-0.482,-3.2953,-8.8138,1.9975,6.9609,-6.0964,18.675,22.7812,-31.425,,0.015572000000000141,9.422016585105336,17.278059805475948,backward_fall
3.277972,-0.482,-3.2953,-8.8138,2.5077,-1.6529,-3.1194,18.675,22.7812,-31.425,,0.01793900000000015,9.422016585105336,19.884508922180444,backward_fall
3.287659,-0.482,-3.2953,-8.8138,2.5077,-1.6529,-3.1194,18.675,22.7812,-31.425,,0.009687000000000001,9.422016585105336,22.455028353119083,backward_fall
3.297975,-0.482,-3.2953,-8.8138,2.5077,-1.6529,-3.1194,18.675,22.7812,-31.425,,0.010315999999999992,9.422016585105336,24.814579392934746,backward_fall
3.299913,10.3408,6.6006,43.7749,2.5077,-1.6529,-3.1194,18.675,22.7812,-31.425,,0.0019379999999999953,45.4614334904873,26.790590502643237,backward_fall
3.301619,10.3408,6.6006,43.7749,2.5077,-1.6529,-3.1194,18.9375,23.7938,-31.1625,,0.0017059999999999853,45.4614334904873,28.233275375260767,backward_fall
3.338053,10.3408,6.6006,43.7749,2.5077,-1.6529,-3.1194,18.9375,23.7938,-31.1625,,0.036433999999999855,45.4614334904873,29.034557119220658,backward_fall
3.340017,10.3408,6.6006,43.7749,2.5594,2.0919,-0.766,18.9375,23.7938,-31.1625,,0.001964000000000077,45.4614334904873,29.14198881065399,backward_fall
3.353924,10.3408,6.6006,43.7749,2.5594,2.0919,-0.766,18.9375,23.7938,-31.1625,,0.013907000000000114,45.4614334904873,28.564871636609972,backward_fall
3.357721,-7.7501,-1.2472,-12.6011,2.5594,2.0919,-0.766,18.9375,23.7938,-31.1625,,0.0037970000000000503,14.846120000188602,27.371437422932537,backward_fall
3.360382,-7.7501,-1.2472,-12.6011,2.5594,2.0919,-0.766,18.9375,23.7938,-31.1625,,0.0026609999999998024,14.846120000188602,25.677925092458302,backward_fall
3.361895,-7.7501,-1.2472,-12.6011,2.5594,2.0919,-0.766,19.3688,24.0938,-30.675,,0.0015130000000000976,14.846120000188602,23.6320323333614,backward_fall
3.419914,-7.7501,-1.2472,-12.6011,2.5594,2.0919,-0.766,19.3688,24.0938,-30.675,,0.05801899999999982,14.846120000188602,21.394071557932314,backward_fall
3.423114,-2.8929,-3.198,-12.0694,2.5594,2.0919,-0.766,19.3688,24.0938,-30.675,,0.0032000000000000917,12.816648968041529,19.119036470130947,backward_fall
3.425554,-2.8929,-3.198,-12.0694,2.5594,2.0919,-0.766,19.3688,24.0938,-30.675,,0.0024399999999999977,12.816648968041529,16.94197002721786,backward_fall
3.427325,-2.8929,-3.198,-12.0694,2.5594,2.0919,-0.766,19.3688,24.0938,-30.675,,0.001771000000000189,12.816648968041529,14.967985783504982,backward_fall
3.428993,-2.8929,-3.198,-12.0694,2.9812,-0.0784,-1.5926,19.3688,24.0938,-30.675,,0.0016680000000000028,12.816648968041529,13.267347287290677,backward_fall
3.440652,-2.8929,-3.198,-12.0694,2.9812,-0.0784,-1.5926,19.725,23.8688,-30.15,,0.011658999999999864,12.816648968041529,11.875258322789811,backward_fall
3.443577,-2.8929,-3.198,-12.0694,2.9812,-0.0784,-1.5926,19.725,23.8688,-30.15,,0.0029249999999998444,12.816648968041529,10.795481722901913,backward_fall
3.465035,-2.8929,-3.198,-12.0694,2.9812,-0.0784,-1.5926,19.725,23.8688,-30.15,,0.021457999999999977,12.816648968041529,10.006593144335088,backward_fall
3.479611,-2.8929,-3.198,-12.0694,0.302,1.0258,-0.4936,19.725,23.8688,-30.15,,0.014575999999999922,12.816648968041529,9.469577798994841,backward_fall
3.484471,-2.8929,-3.198,-12.0694,0.302,1.0258,-0.4936,19.725,23.8688,-30.15,,0.0048600000000003085,12.816648968041529,9.135563063741888,backward_fall
3.487037,-5.7652,3.7952,-6.7324,0.302,1.0258,-0.4936,19.725,23.8688,-30.15,,0.002565999999999846,9.641902501062743,8.952709287079152,backward_fall
3.501348,-5.7652,3.7952,-6.7324,0.302,1.0258,-0.4936,20.175,24.0,-29.6438,,0.014311000000000185,9.641902501062743,8.871607064246122,backward_fall
3.50495,-5.7652,3.7952,-6.7324,0.302,1.0258,-0.4936,20.175,24.0,-29.6438,,0.003601999999999883,9.641902501062743,8.848886613134837,backward_fall
3.539274,-5.7652,3.7952,-6.7324,-3.3671,-0.8324,0.5644,20.175,24.0,-29.6438,,0.0343239999999998,9.641902501062743,8.849060923332482,backward_fall
3.542969,-2.2169,5.6122,-4.4023,-3.3671,-0.8324,0.5644,20.175,24.0,-29.6438,,0.003695000000000004,7.469382821893653,8.844854500085086,backward_fall
3.545538,-2.2169,5.6122,-4.4023,-3.3671,-0.8324,0.5644,20.175,24.0,-29.6438,,0.0025690000000002655,7.469382821893653,8.816414724667078,backward_fall
3.547399,-2.2169,5.6122,-4.4023,-3.3671,-0.8324,0.5644,20.175,24.0,-29.6438,,0.0018609999999998905,7.469382821893653,8.749877975230882,backward_fall
3.560604,-2.2169,5.6122,-4.4023,-3.3671,-0.8324,0.5644,20.8688,24.2438,-28.95,,0.013205000000000133,7.469382821893653,8.635764999397198,backward_fall
3.563278,-2.2169,5.6122,-4.4023,-3.3671,-0.8324,0.5644,20.8688,24.2438,-28.95,,0.002673999999999843,7.469382821893653,8.46760497230324,backward_fall
3.600388,-2.2169,5.6122,-4.4023,-3.3671,-0.8324,0.5644,20.8688,24.2438,-28.95,,0.0371100000000002,7.469382821893653,8.241055101943763,backward_fall
3.604412,-2.2169,5.6122,-4.4023,-3.3671,-0.8324,0.5644,20.8688,24.2438,-28.95,,0.0040239999999998055,7.469382821893653,7.953628640949177,backward_fall
3.606836,-2.2169,5.6122,-4.4023,-0.4316,-2.6555,0.1038,20.8688,24.2438,-28.95,,0.0024239999999999817,7.469382821893653,7.6049972136433395,backward_fall
3.610159,1.0592,-2.435,7.3189,-0.4316,-2.6555,0.1038,20.8688,24.2438,-28.95,,0.003322999999999965,7.785719417626094,7.197708413376336,backward_fall
3.621854,1.0592,-2.435,7.3189,-0.4316,-2.6555,0.1038,20.8688,24.2438,-28.95,,0.011695000000000011,7.785719417626094,6.7380664400544426,backward_fall
3.642503,1.0592,-2.435,7.3189,-0.4316,-2.6555,0.1038,20.8688,24.2438,-28.95,,0.02064900000000014,7.785719417626094,6.236873210064224,backward_fall
3.647533,1.0592,-2.435,7.3189,-0.4316,-2.6555,0.1038,21.1125,24.4875,-28.6688,,0.00503000000000009,7.785719417626094,5.709732234452008,backward_fall
3.658929,1.0592,-2.435,7.3189,-0.4316,-2.6555,0.1038,21.1125,24.4875,-28.6688,,0.011395999999999962,7.785719417626094,5.176687237629432,backward_fall
3.662531,1.6872,-1.5388,1.3732,-0.4316,-2.6555,0.1038,21.1125,24.4875,-28.6688,,0.003601999999999883,2.6646252119200553,4.661103402875023,backward_fall
3.680226,1.6872,-1.5388,1.3732,1.3045,-1.6248,-0.8818,21.1125,24.4875,-28.6688,,0.01769500000000024,2.6646252119200553,4.1878829731651335,backward_fall
3.686776,1.6872,-1.5388,1.3732,1.3045,-1.6248,-0.8818,21.1125,24.4875,-28.6688,,0.006549999999999834,2.6646252119200553,3.7812850949042915,backward_fall
3.70055,1.6872,-1.5388,1.3732,1.3045,-1.6248,-0.8818,20.3063,23.9625,-29.1938,,0.013773999999999731,2.6646252119200553,3.462716982839901,backward_fall
3.702357,1.6872,-1.5388,1.3732,1.3045,-1.6248,-0.8818,20.3063,23.9625,-29.1938,,0.0018070000000003361,2.6646252119200553,3.248839779302489,backward_fall
3.718971,1.6872,-1.5388,1.3732,1.3045,-1.6248,-0.8818,20.3063,23.9625,-29.1938,,0.016613999999999685,2.6646252119200553,3.1502195865704183,backward_fall
3.721691,-3.1484,-0.7997,-1.7655,1.3045,-1.6248,-0.8818,20.3063,23.9625,-29.1938,,0.0027200000000000557,3.697151998498304,3.170618616045857,backward_fall
3.739581,-3.1484,-0.7997,-1.7655,1.5362,-0.014,-0.8343,20.3063,23.9625,-29.1938,,0.01788999999999996,3.697151998498304,3.306909094130447,backward_fall
3.756752,-3.1484,-0.7997,-1.7655,1.5362,-0.014,-0.8343,20.3063,23.9625,-29.1938,,0.01717100000000027,3.697151998498304,3.549519703543482,backward_fall
3.761738,-3.1484,-0.7997,-1.7655,1.5362,-0.014,-0.8343,20.3063,23.9625,-29.1938,,0.004985999999999713,3.697151998498304,3.8832941468176774,backward_fall
3.764882,-3.1484,-0.7997,-1.7655,1.5362,-0.014,-0.8343,19.0312,22.2375,-30.4125,,0.0031440000000002577,3.697151998498304,4.288646464982145,backward_fall
3.778551,-3.1484,-0.7997,-1.7655,1.5362,-0.014,-0.8343,19.0312,22.2375,-30.4125,,0.013669000000000153,3.697151998498304,4.742915937718683,backward_fall
3.780759,-3.1466,-0.6949,-5.9393,1.5362,-0.014,-0.8343,19.0312,22.2375,-30.4125,,0.0022079999999999878,6.757163758560244,5.221828883587909,backward_fall
3.799278,-3.1466,-0.6949,-5.9393,0.5344,2.2342,0.1991,19.0312,22.2375,-30.4125,,0.018518999999999952,6.757163758560244,5.700954322367558,backward_fall
3.821632,-3.1466,-0.6949,-5.9393,0.5344,2.2342,0.1991,19.0312,22.2375,-30.4125,,0.022353999999999985,6.757163758560244,6.157014183982275,backward_fall
3.824601,-3.1466,-0.6949,-5.9393,0.5344,2.2342,0.1991,19.0312,22.2375,-30.4125,,0.0029689999999997774,6.757163758560244,6.568914243162207,backward_fall
3.840232,-3.1466,-0.6949,-5.9393,0.5344,2.2342,0.1991,19.0312,22.2375,-30.4125,,0.01563099999999995,6.757163758560244,6.918418236721093,backward_fall
3.843791,-4.8652,0.6546,-5.0931,0.5344,2.2342,0.1991,19.0312,22.2375,-30.4125,,0.00355900000000009,7.073778326326037,7.1904724166171246,backward_fall
3.847139,-4.8652,0.6546,-5.0931,0.5344,2.2342,0.1991,18.0563,20.5688,-30.9563,,0.0033479999999999066,7.073778326326037,7.373260531424845,backward_fall
3.87991,-4.8652,0.6546,-5.0931,0.5344,2.2342,0.1991,18.0563,20.5688,-30.9563,,0.03277100000000033,7.073778326326037,7.458106911605029,backward_fall
3.883047,-4.8652,0.6546,-5.0931,0.1949,0.6906,1.9801,18.0563,20.5688,-30.9563,,0.0031369999999997233,7.073778326326037,7.439349326149437,backward_fall
3.885859,-4.8652,0.6546,-5.0931,0.1949,0.6906,1.9801,18.0563,20.5688,-30.9563,,0.0028120000000000367,7.073778326326037,7.314284172646548,backward_fall
3.898659,-4.8652,0.6546,-5.0931,0.1949,0.6906,1.9801,18.0563,20.5688,-30.9563,,0.012799999999999923,7.073778326326037,7.083253514738724,backward_fall
3.901868,-4.9949,1.0706,-2.6795,0.1949,0.6906,1.9801,18.0563,20.5688,-30.9563,,0.0032090000000000174,5.768442651184114,6.749903829895989,backward_fall
3.905282,-4.9949,1.0706,-2.6795,0.1949,0.6906,1.9801,17.2688,19.5375,-31.725,,0.00341400000000025,5.768442651184114,6.321605419529554,backward_fall
3.939828,-4.9949,1.0706,-2.6795,0.1949,0.6906,1.9801,17.2688,19.5375,-31.725,,0.034545999999999744,5.768442651184114,5.809978273443365,backward_fall
3.943343,-4.9949,1.0706,-2.6795,-1.4143,0.4196,1.6018,17.2688,19.5375,-31.725,,0.003515000000000157,5.768442651184114,5.231419263678621,backward_fall
3.955974,-4.9949,1.0706,-2.6795,-1.4143,0.4196,1.6018,17.2688,19.5375,-31.725,,0.012630999999999837,5.768442651184114,4.607470483612395,backward_fall
3.961607,-4.9949,1.0706,-2.6795,-1.4143,0.4196,1.6018,17.2688,19.5375,-31.725,,0.005632999999999999,5.768442651184114,3.964830908363226,backward_fall
3.964586,-0.3524,-0.3369,-3.0602,-1.4143,0.4196,1.6018,17.2688,19.5375,-31.725,,0.002979000000000287,3.098791927509816,3.334821394553832,backward_fall
3.967823,-0.3524,-0.3369,-3.0602,-1.4143,0.4196,1.6018,17.0063,19.5188,-31.9125,,0.0032369999999999344,3.098791927509816,2.752178453356618,backward_fall
3.980855,-0.3524,-0.3369,-3.0602,-1.4143,0.4196,1.6018,17.0063,19.5188,-31.9125,,0.013031999999999933,3.098791927509816,2.25315760273137,backward_fall
3.999275,-0.3524,-0.3369,-3.0602,-2.7673,-0.243,1.7708,17.0063,19.5188,-31.9125,,0.01841999999999988,3.098791927509816,1.8730361729920721,backward_fall
4.022074,-0.1228,1.0382,0.0896,-2.7673,-0.243,1.7708,17.0063,19.5188,-31.9125,,0.022799000000000014,1.0492698604267636,1.643195617245401,backward_fall
4.02664,-0.1228,1.0382,0.0896,-2.7673,-0.243,1.7708,17.0063,19.5188,-31.9125,,0.004566000000000514,1.0492698604267636,1.5880401572678167,backward_fall
4.02923,-0.1228,1.0382,0.0896,-2.7673,-0.243,1.7708,17.0063,19.5188,-31.9125,,0.002589999999999648,1.0492698604267636,1.722078545203492,backward_fall
4.042004,-0.1228,1.0382,0.0896,-2.7673,-0.243,1.7708,17.0063,19.5188,-31.9125,,0.012774000000000285,1.0492698604267636,2.0475414761620923,backward_fall
4.046229,-0.1228,1.0382,0.0896,-2.7673,-0.243,1.7708,16.9875,19.7812,-32.0063,,0.004224999999999923,1.0492698604267636,2.552904475674443,backward_fall
4.081152,-0.1228,1.0382,0.0896,-2.7673,-0.243,1.7708,16.9875,19.7812,-32.0063,,0.03492300000000004,1.0492698604267636,3.2126292583026537,backward_fall
4.085211,-0.1228,1.0382,0.0896,-2.7673,-0.243,1.7708,16.9875,19.7812,-32.0063,,0.004058999999999813,1.0492698604267636,3.988331850308655,backward_fall
4.087792,-0.1228,1.0382,0.0896,-1.7921,-1.2308,1.9475,16.9875,19.7812,-32.0063,,0.0025810000000001665,1.0492698604267636,4.83143079560529,backward_fall
4.091487,4.1553,-0.0203,8.8148,-1.7921,-1.2308,1.9475,16.9875,19.7812,-32.0063,,0.0036949999999995597,9.745133617349738,5.687113356928344,backward_fall
4.102423,4.1553,-0.0203,8.8148,-1.7921,-1.2308,1.9475,17.0063,19.6688,-32.2875,,0.010936000000000057,9.745133617349738,6.499195581365151,backward_fall
4.106482,4.1553,-0.0203,8.8148,-1.7921,-1.2308,1.9475,17.0063,19.6688,-32.2875,,0.004058999999999813,9.745133617349738,7.2152196583009705,backward_fall
4.139569,4.1553,-0.0203,8.8148,-0.9441,-0.7635,0.3021,17.0063,19.6688,-32.2875,,0.03308700000000009,9.745133617349738,7.7910475004651945,backward_fall
4.144409,4.2506,-1.1583,7.1211,-0.9441,-0.7635,0.3021,17.0063,19.6688,-32.2875,,0.004839999999999733,8.373728229408929,8.194333970338553,backward_fall
4.147672,4.2506,-1.1583,7.1211,-0.9441,-0.7635,0.3021,17.0063,19.6688,-32.2875,,0.00326300000000046,8.373728229408929,8.406533734182885,backward_fall
4.150198,4.2506,-1.1583,7.1211,-0.9441,-0.7635,0.3021,17.0063,19.6688,-32.2875,,0.002525999999999584,8.373728229408929,8.423383305901899,backward_fall
4.160722,4.2506,-1.1583,7.1211,-0.9441,-0.7635,0.3021,17.3063,19.6688,-32.3813,,0.0105240000000002,8.373728229408929,8.254011268829924,backward_fall
4.163079,4.2506,-1.1583,7.1211,-0.9441,-0.7635,0.3021,17.3063,19.6688,-32.3813,,0.0023569999999999425,8.373728229408929,7.918944519271829,backward_fall
4.200887,4.2506,-1.1583,7.1211,1.061,0.8615,-0.3936,17.3063,19.6688,-32.3813,,0.037808000000000064,8.373728229408929,7.447325706132398,backward_fall
4.204749,3.4295,-2.7512,-0.6998,1.061,0.8615,-0.3936,17.3063,19.6688,-32.3813,,0.00386199999999981,4.451998621967442,6.873679021391635,backward_fall
4.206982,3.4295,-2.7512,-0.6998,1.061,0.8615,-0.3936,17.3063,19.6688,-32.3813,,0.0022330000000003736,4.451998621967442,6.234581409006527,backward_fall
4.20857,3.4295,-2.7512,-0.6998,1.061,0.8615,-0.3936,17.3063,19.6688,-32.3813,,0.0015879999999999228,4.451998621967442,5.565599254354163,backward_fall
4.222114,3.4295,-2.7512,-0.6998,1.061,0.8615,-0.3936,17.3063,19.6688,-32.3813,,0.013544000000000445,4.451998621967442,4.898797799318334,backward_fall
4.242765,3.4295,-2.7512,-0.6998,1.061,0.8615,-0.3936,17.3063,19.6688,-32.3813,,0.020650999999999975,4.451998621967442,4.261006656171228,backward_fall
4.246671,3.4295,-2.7512,-0.6998,1.061,0.8615,-0.3936,18.4875,19.9313,-32.0813,,0.003905999999999743,4.451998621967442,3.672867209730883,backward_fall
4.260037,3.4295,-2.7512,-0.6998,1.061,0.8615,-0.3936,18.4875,19.9313,-32.0813,,0.013365999999999545,4.451998621967442,3.148557866078546,backward_fall
4.263792,-1.6216,-0.3276,-0.9916,1.061,0.8615,-0.3936,18.4875,19.9313,-32.0813,,0.003754999999999953,1.9287765241209258,2.6960308414924667,backward_fall
4.28067,-1.6216,-0.3276,-0.9916,0.6827,0.1441,0.4122,18.4875,19.9313,-32.0813,,0.01687800000000017,1.9287765241209258,2.31760150492106,backward_fall
4.287265,-1.6216,-0.3276,-0.9916,0.6827,0.1441,0.4122,18.4875,19.9313,-32.0813,,0.0065949999999999065,1.9287765241209258,2.010778235661233,backward_fall
4.304078,-1.6216,-0.3276,-0.9916,0.6827,0.1441,0.4122,18.4875,19.9313,-32.0813,,0.016812999999999967,1.9287765241209258,1.7692629424107984,backward_fall
4.306608,-1.6216,-0.3276,-0.9916,0.6827,0.1441,0.4122,19.8938,20.2875,-31.6313,,0.0025300000000001432,1.9287765241209258,1.5840626433009592,backward_fall
4.320572,-0.2366,-1.39,0.0826,0.6827,0.1441,0.4122,19.8938,20.2875,-31.6313,,0.013964000000000532,1.4124101104141105,1.4446396904978311,backward_fall
4.324341,-0.2366,-1.39,0.0826,0.6827,0.1441,0.4122,19.8938,20.2875,-31.6313,,0.0037690000000001334,1.4124101104141105,1.3400181466110626,backward_fall
4.33983,-0.2366,-1.39,0.0826,0.731,-0.5729,0.2829,19.8938,20.2875,-31.6313,,0.015488999999999642,1.4124101104141105,1.2597690088845541,non_fall
4.355992,-0.2366,-1.39,0.0826,0.731,-0.5729,0.2829,19.8938,20.2875,-31.6313,,0.016161999999999566,1.4124101104141105,1.1948118123495706,non_fall
4.361379,-0.2366,-1.39,0.0826,0.731,-0.5729,0.2829,20.5875,20.625,-31.3688,,0.005387000000000697,1.4124101104141105,1.1379861541831209,non_fall
4.364795,-0.2366,-1.39,0.0826,0.731,-0.5729,0.2829,20.5875,20.625,-31.3688,,0.0034159999999996415,1.4124101104141105,1.084362931714968,non_fall
4.383374,-0.2366,-1.39,0.0826,0.731,-0.5729,0.2829,20.5875,20.625,-31.3688,,0.0185789999999999,1.4124101104141105,1.0312856785974274,non_fall
4.386206,0.4792,-0.3658,-0.0022,0.731,-0.5729,0.2829,20.5875,20.625,-31.3688,,0.0028319999999997236,0.6028657562011629,0.9781599864881061,non_fall
4.400277,0.4792,-0.3658,-0.0022,0.3577,-0.2912,0.1943,20.5875,20.625,-31.3688,,0.014071000000000389,0.6028657562011629,0.9260411815150018,non_fall
4.420094,0.4792,-0.3658,-0.0022,0.3577,-0.2912,0.1943,20.5875,20.625,-31.3688,,0.01981699999999975,0.6028657562011629,0.8770983248629227,non_fall
4.423494,0.4792,-0.3658,-0.0022,0.3577,-0.2912,0.1943,20.5875,20.625,-31.3688,,0.0034000000000000696,0.6028657562011629,0.8340441094169934,non_fall
4.440276,0.665,-0.2042,0.3828,0.3577,-0.2912,0.1943,20.5875,20.625,-31.3688,,0.016782000000000075,0.7940141560450922,0.7996093326496565,non_fall
4.442605,0.665,-0.2042,0.3828,0.3577,-0.2912,0.1943,20.8688,21.0,-31.3688,,0.0023290000000004696,0.7940141560450922,0.776113644082138,non_fall
4.444145,0.665,-0.2042,0.3828,0.3577,-0.2912,0.1943,20.8688,21.0,-31.3688,,0.0015399999999994307,0.7940141560450922,0.7651544619370794,non_fall
4.481094,0.665,-0.2042,0.3828,0.3577,-0.2912,0.1943,20.8688,21.0,-31.3688,,0.0369489999999999,0.7940141560450922,0.7674137320863044,non_fall
4.48547,0.665,-0.2042,0.3828,0.3454,-0.5663,0.2953,20.8688,21.0,-31.3688,,0.004376000000000602,0.7940141560450922,0.7825708006657974,non_fall
4.488863,0.665,-0.2042,0.3828,0.3454,-0.5663,0.2953,20.8688,21.0,-31.3688,,0.0033929999999999794,0.7940141560450922,0.8093067549993914,non_fall
4.50072,-0.6015,0.6272,0.1504,0.3454,-0.5663,0.2953,20.8688,21.0,-31.3688,,0.011857000000000006,0.8819309780249246,0.8453868691470723,non_fall
4.505205,-0.6015,0.6272,0.1504,0.3454,-0.5663,0.2953,20.8688,21.0,-31.3688,,0.00448499999999985,0.8819309780249246,0.8878099741588114,non_fall
4.50769,-0.6015,0.6272,0.1504,0.3454,-0.5663,0.2953,20.85,21.075,-31.6688,,0.0024850000000000705,0.8819309780249246,0.933015290522241,non_fall
4.540006,-0.6015,0.6272,0.1504,0.0058,-0.809,0.43,20.85,21.075,-31.6688,,0.03231599999999979,0.8819309780249246,0.977138269364124,non_fall
4.544709,-0.6015,0.6272,0.1504,0.0058,-0.809,0.43,20.85,21.075,-31.6688,,0.004703000000000124,0.8819309780249246,1.0163067853548406,non_fall
4.556036,-0.6015,0.6272,0.1504,0.0058,-0.809,0.43,20.85,21.075,-31.6688,,0.011326999999999643,0.8819309780249246,1.0469661966208048,non_fall
4.561515,-0.5779,1.0513,-0.2418,0.0058,-0.809,0.43,20.85,21.075,-31.6688,,0.005479000000000234,1.2237921964124463,1.0662149020970175,non_fall
4.565171,-0.5779,1.0513,-0.2418,0.0058,-0.809,0.43,20.4375,20.25,-32.25,,0.0036560000000003257,1.2237921964124463,1.0721215580569965,non_fall
4.567933,-0.5779,1.0513,-0.2418,0.0058,-0.809,0.43,20.4375,20.25,-32.25,,0.002761999999999709,1.2237921964124463,1.0639849124580603,non_fall
4.602338,-0.5779,1.0513,-0.2418,0.0058,-0.809,0.43,20.4375,20.25,-32.25,,0.034404999999999575,1.2237921964124463,1.0424932525363,non_fall
4.605961,-0.5779,1.0513,-0.2418,-0.0396,-0.836,0.3835,20.4375,20.25,-32.25,,0.003623000000000154,1.2237921964124463,1.0097466164769813,non_fall
4.622024,-0.5779,1.0513,-0.2418,-0.0396,-0.836,0.3835,20.4375,20.25,-32.25,,0.01606299999999994,1.2237921964124463,0.9691203231510311,non_fall
4.625581,-0.5779,1.0513,-0.2418,-0.0396,-0.836,0.3835,20.4375,20.25,-32.25,,0.0035570000000006985,1.2237921964124463,0.924969740892756,non_fall
4.627915,0.207,0.4475,-0.0504,-0.0396,-0.836,0.3835,20.4375,20.25,-32.25,,0.002333999999999392,0.49562628057842134,0.8822012123994257,non_fall
4.641194,0.207,0.4475,-0.0504,-0.0396,-0.836,0.3835,20.4375,20.25,-32.25,,0.013278999999999819,0.49562628057842134,0.8457601212082421,non_fall
4.645227,0.207,0.4475,-0.0504,-0.0396,-0.836,0.3835,20.025,19.2188,-33.0375,,0.004033000000000619,0.49562628057842134,0.8201074049866974,non_fall
4.681643,0.207,0.4475,-0.0504,-0.0754,-0.5049,0.2417,20.025,19.2188,-33.0375,,0.036416000000000004,0.49562628057842134,0.8087601970453052,non_fall
4.685687,0.4763,-0.2025,-0.8336,-0.0754,-0.5049,0.2417,20.025,19.2188,-33.0375,,0.0040439999999994924,0.9812017631455826,0.8139554766140318,non_fall
4.688285,0.4763,-0.2025,-0.8336,-0.0754,-0.5049,0.2417,20.025,19.2188,-33.0375,,0.002597999999999878,0.9812017631455826,0.8364639136738646,non_fall
4.690103,0.4763,-0.2025,-0.8336,-0.0754,-0.5049,0.2417,20.025,19.2188,-33.0375,,0.0018180000000000973,0.9812017631455826,0.8755488309289959,non_fall
4.701659,0.4763,-0.2025,-0.8336,-0.0754,-0.5049,0.2417,20.025,19.2188,-33.0375,,0.011556000000000566,0.9812017631455826,0.9290452663419211,non_fall
4.705019,0.4763,-0.2025,-0.8336,-0.0754,-0.5049,0.2417,19.6125,18.15,-33.9938,,0.0033599999999998076,0.9812017631455826,0.9935306730396108,non_fall
4.741767,0.4763,-0.2025,-0.8336,-0.0754,-0.5049,0.2417,19.6125,18.15,-33.9938,,0.036748000000000225,0.9812017631455826,1.0645665767265988,non_fall
4.745337,0.4763,-0.2025,-0.8336,-0.0754,-0.5049,0.2417,19.6125,18.15,-33.9938,,0.003569999999999851,0.9812017631455826,1.1370004393760693,non_fall
4.747499,0.4763,-0.2025,-0.8336,-0.6057,-0.3761,-0.1502,19.6125,18.15,-33.9938,,0.0021620000000002193,0.9812017631455826,1.2053222521254614,non_fall
4.751275,1.2581,0.4112,-0.3981,-0.6057,-0.3761,-0.1502,19.6125,18.15,-33.9938,,0.0037759999999993354,1.3821666542063586,1.264068112394544,non_fall
4.760608,1.2581,0.4112,-0.3981,-0.6057,-0.3761,-0.1502,19.6125,18.15,-33.9938,,0.009333000000000702,1.3821666542063586,1.3082536573190127,non_fall
4.763374,1.2581,0.4112,-0.3981,-0.6057,-0.3761,-0.1502,18.8438,17.475,-34.875,,0.00276599999999938,1.3821666542063586,1.3338077540230044,non_fall
4.801334,1.2581,0.4112,-0.3981,-0.6057,-0.3761,-0.1502,18.8438,17.475,-34.875,,0.037959999999999994,1.3821666542063586,1.3379676603917183,non_fall
4.803876,1.2581,0.4112,-0.3981,-0.6057,-0.3761,-0.1502,18.8438,17.475,-34.875,,0.0025420000000000442,1.3821666542063586,1.3195950948947694,non_fall
4.805138,1.2581,0.4112,-0.3981,-0.4744,0.2408,-0.011,18.8438,17.475,-34.875,,0.0012620000000005405,1.3821666542063586,1.2793771910539746,non_fall
4.806836,1.198,-0.1059,-0.6649,-0.4744,0.2408,-0.011,18.8438,17.475,-34.875,,0.0016979999999993112,1.374230992228017,1.219883631656531,non_fall
4.821641,1.198,-0.1059,-0.6649,-0.4744,0.2408,-0.011,18.8438,17.475,-34.875,,0.014804999999999957,1.374230992228017,1.145459799415898,non_fall
4.841837,1.198,-0.1059,-0.6649,-0.4744,0.2408,-0.011,17.8688,17.3063,-35.5875,,0.020196000000000325,1.374230992228017,1.0619467651918688,non_fall
4.846162,1.198,-0.1059,-0.6649,-0.4744,0.2408,-0.011,17.8688,17.3063,-35.5875,,0.00432499999999969,1.374230992228017,0.9762347019173276,non_fall
4.860607,-0.2161,0.3443,0.282,-0.4744,0.2408,-0.011,17.8688,17.3063,-35.5875,,0.014445000000000263,0.4947380114767815,0.89567868373545,non_fall
4.864739,-0.2161,0.3443,0.282,-0.4744,0.2408,-0.011,17.8688,17.3063,-35.5875,,0.004132000000000247,0.4947380114767815,0.8274334594508282,non_fall
4.880635,-0.2161,0.3443,0.282,-0.3942,-0.1951,0.062,17.8688,17.3063,-35.5875,,0.015895999999999688,0.4947380114767815,0.7777887286928766,non_fall
4.88937,-0.2161,0.3443,0.282,-0.3942,-0.1951,0.062,17.8688,17.3063,-35.5875,,0.008735000000000603,0.4947380114767815,0.751596218922455,non_fall
4.908091,-0.2161,0.3443,0.282,-0.3942,-0.1951,0.062,16.9688,17.4563,-36.3188,,0.01872099999999932,0.4947380114767815,0.7518674329861486,non_fall
4.910693,-0.2161,0.3443,0.282,-0.3942,-0.1951,0.062,16.9688,17.4563,-36.3188,,0.0026020000000004373,0.4947380114767815,0.7795911855411318,non_fall
4.924602,-0.2161,0.3443,0.282,-0.3942,-0.1951,0.062,16.9688,17.4563,-36.3188,,0.01390899999999995,0.4947380114767815,0.8337834772777366,non_fall
4.926323,-0.798,0.7288,0.9035,-0.3942,-0.1951,0.062,16.9688,17.4563,-36.3188,,0.0017209999999998615,1.408639659387737,0.9117455979323795,non_fall
4.939485,-0.798,0.7288,0.9035,-0.2688,-0.7188,0.4939,16.9688,17.4563,-36.3188,,0.01316200000000034,1.408639659387737,1.0094728633455632,non_fall
4.953808,-0.798,0.7288,0.9035,-0.2688,-0.7188,0.4939,16.9688,17.4563,-36.3188,,0.014323000000000086,1.408639659387737,1.1221326335158655,non_fall
4.961674,-0.798,0.7288,0.9035,-0.2688,-0.7188,0.4939,16.9688,17.4563,-36.3188,,0.007865999999999929,1.408639659387737,1.2445262244219737,non_fall
4.963463,-0.798,0.7288,0.9035,-0.2688,-0.7188,0.4939,15.825,17.9625,-36.9375,,0.0017889999999995965,1.408639659387737,1.3714686731004246,non_fall
4.98011,-0.798,0.7288,0.9035,-0.2688,-0.7188,0.4939,15.825,17.9625,-36.9375,,0.016646999999999856,1.408639659387737,1.4980538761680475,non_fall
4.98195,-1.1811,0.5899,1.0785,-0.2688,-0.7188,0.4939,15.825,17.9625,-36.9375,,0.001840000000000508,1.7047408806032665,1.619805319771186,non_fall
5.001042,-1.1811,0.5899,1.0785,0.0497,-1.0908,0.2246,15.825,17.9625,-36.9375,,0.019091999999999665,1.7047408806032665,1.7327347418787098,non_fall
5.022055,-1.1811,0.5899,1.0785,0.0497,-1.0908,0.2246,15.825,17.9625,-36.9375,,0.02101299999999995,1.7047408806032665,1.833341732258237,non_fall
5.025732,-1.1811,0.5899,1.0785,0.0497,-1.0908,0.2246,15.825,17.9625,-36.9375,,0.0036769999999997083,1.7047408806032665,1.9185903095226318,non_fall
5.0425,-1.1811,0.5899,1.0785,0.0497,-1.0908,0.2246,15.825,17.9625,-36.9375,,0.016768000000000782,1.7047408806032665,1.9858966533602938,non_fall
5.046808,1.8671,-0.9355,0.1034,0.0497,-1.0908,0.2246,15.825,17.9625,-36.9375,,0.0043079999999999785,2.090912293712962,2.0331545698743803,non_fall
5.049602,1.8671,-0.9355,0.1034,0.0497,-1.0908,0.2246,14.475,18.525,-37.6125,,0.002793999999999741,2.090912293712962,2.058810602277665,non_fall
5.081378,1.8671,-0.9355,0.1034,0.0497,-1.0908,0.2246,14.475,18.525,-37.6125,,0.031775999999999804,2.090912293712962,2.06198188521885,non_fall
5.084376,1.8671,-0.9355,0.1034,0.2401,-0.2083,0.1074,14.475,18.525,-37.6125,,0.002997999999999834,2.090912293712962,2.042593741247856,non_fall
5.087172,1.8671,-0.9355,0.1034,0.2401,-0.2083,0.1074,14.475,18.525,-37.6125,,0.0027960000000000207,2.090912293712962,2.001505879222698,non_fall
5.101794,1.8671,-0.9355,0.1034,0.2401,-0.2083,0.1074,14.475,18.525,-37.6125,,0.014622000000000135,2.090912293712962,1.94059585096554,non_fall
5.105052,1.6684,0.0658,-0.675,0.2401,-0.2083,0.1074,14.475,18.525,-37.6125,,0.003257999999999761,1.8009756244880162,1.862773268990214,non_fall
5.107503,1.6684,0.0658,-0.675,0.2401,-0.2083,0.1074,13.1438,19.1063,-38.1,,0.002451000000000647,1.8009756244880162,1.7719059954836422,non_fall
5.14107,1.6684,0.0658,-0.675,0.2401,-0.2083,0.1074,13.1438,19.1063,-38.1,,0.03356699999999968,1.8009756244880162,1.6726484176796554,non_fall
5.144619,1.6684,0.0658,-0.675,0.5026,-0.279,-0.1149,13.1438,19.1063,-38.1,,0.0035489999999995803,1.8009756244880162,1.5701701120605625,non_fall
5.155629,1.6684,0.0658,-0.675,0.5026,-0.279,-0.1149,13.1438,19.1063,-38.1,,0.01101000000000063,1.8009756244880162,1.4697906873644593,non_fall
5.161668,1.6684,0.0658,-0.675,0.5026,-0.279,-0.1149,13.1438,19.1063,-38.1,,0.0060389999999994615,1.8009756244880162,1.3765371289367363,non_fall
5.164708,-0.0251,-0.7161,-0.0511,0.5026,-0.279,-0.1149,13.1438,19.1063,-38.1,,0.0030400000000003757,0.7183595408985669,1.294658252616641,non_fall
5.167973,-0.0251,-0.7161,-0.0511,0.5026,-0.279,-0.1149,11.7,19.6125,-38.55,,0.0032649999999998514,0.7183595408985669,1.2271564025678448,non_fall
5.195906,-0.0251,-0.7161,-0.0511,0.5026,-0.279,-0.1149,11.7,19.6125,-38.55,,0.027932999999999986,0.7183595408985669,1.175418859367351,non_fall
5.200987,-0.0251,-0.7161,-0.0511,0.5597,0.2153,0.2301,11.7,19.6125,-38.55,,0.005080999999999669,0.7183595408985669,1.1390341158733535,non_fall
5.220993,-0.0251,-0.7161,-0.0511,0.5597,0.2153,0.2301,11.7,19.6125,-38.55,,0.020006000000000412,0.7183595408985669,1.1158520008020933,non_fall
5.22504,0.5005,-0.2057,-1.2663,0.5597,0.2153,0.2301,11.7,19.6125,-38.55,,0.004046999999999912,1.3770724127655742,1.1022980949814987,non_fall
5.228148,0.5005,-0.2057,-1.2663,0.5597,0.2153,0.2301,11.7,19.6125,-38.55,,0.0031080000000001107,1.3770724127655742,1.0938982709934382,non_fall
5.242089,0.5005,-0.2057,-1.2663,0.5597,0.2153,0.2301,11.7,19.6125,-38.55,,0.013940999999999981,1.3770724127655742,1.0859247669693954,non_fall
5.245654,0.5005,-0.2057,-1.2663,0.5597,0.2153,0.2301,10.575,19.8375,-38.7,,0.0035650000000000404,1.3770724127655742,1.0740529246283588,non_fall
5.281673,0.5005,-0.2057,-1.2663,0.5597,0.2153,0.2301,10.575,19.8375,-38.7,,0.03601899999999958,1.3770724127655742,1.0549217678094818,non_fall
5.286249,0.5005,-0.2057,-1.2663,0.5597,0.2153,0.2301,10.575,19.8375,-38.7,,0.0045760000000001355,1.3770724127655742,1.0265165263148606,non_fall
5.288633,0.5005,-0.2057,-1.2663,0.671,0.5159,0.2011,10.575,19.8375,-38.7,,0.0023840000000001638,1.3770724127655742,0.98832733110578,non_fall
5.292382,0.516,-0.2556,-0.1449,0.671,0.5159,0.2011,10.575,19.8375,-38.7,,0.0037490000000000023,0.5937873104066809,0.9412787670290187,non_fall
5.300928,0.516,-0.2556,-0.1449,0.671,0.5159,0.2011,10.575,19.8375,-38.7,,0.008545999999999943,0.5937873104066809,0.8874653205936387,non_fall
5.303463,0.516,-0.2556,-0.1449,0.671,0.5159,0.2011,9.7875,19.5188,-38.85,,0.002534999999999954,0.5937873104066809,0.8297605648456796,non_fall
5.340399,0.516,-0.2556,-0.1449,0.671,0.5159,0.2011,9.7875,19.5188,-38.85,,0.03693599999999986,0.5937873104066809,0.7713829047355335,non_fall
5.341987,0.516,-0.2556,-0.1449,0.671,0.5159,0.2011,9.7875,19.5188,-38.85,,0.0015879999999999228,0.5937873104066809,0.7154931953720299,non_fall
5.342769,0.516,-0.2556,-0.1449,0.4777,0.2128,0.0836,9.7875,19.5188,-38.85,,0.0007820000000000604,0.5937873104066809,0.6648760389272842,non_fall
5.344074,0.0021,-0.1809,0.5919,0.4777,0.2128,0.0836,9.7875,19.5188,-38.85,,0.0013050000000003337,0.6189303918858727,0.6217289435987314,non_fall
5.360625,0.0021,-0.1809,0.5919,0.4777,0.2128,0.0836,9.2063,18.7313,-39.075,,0.01655099999999976,0.6189303918858727,0.5875601149586595,non_fall
5.36325,0.0021,-0.1809,0.5919,0.4777,0.2128,0.0836,9.2063,18.7313,-39.075,,0.0026250000000000995,0.6189303918858727,0.5631792705494504,non_fall
5.402207,0.0021,-0.1809,0.5919,0.4777,0.2128,0.0836,9.2063,18.7313,-39.075,,0.03895699999999991,0.6189303918858727,0.5487566669877845,non_fall
5.406183,0.0021,-0.1809,0.5919,0.4777,0.2128,0.0836,9.2063,18.7313,-39.075,,0.003976000000000646,0.6189303918858727,0.5439227814618812,non_fall
5.408586,0.0021,-0.1809,0.5919,0.3428,-0.0051,0.0843,9.2063,18.7313,-39.075,,0.002402999999999267,0.6189303918858727,0.5478835086373882,non_fall
5.411591,-0.522,0.0441,0.2421,0.3428,-0.0051,0.0843,9.2063,18.7313,-39.075,,0.0030049999999999244,0.5770972361742863,0.5595317130438516,non_fall
5.421034,-0.522,0.0441,0.2421,0.3428,-0.0051,0.0843,9.2063,18.7313,-39.075,,0.00944300000000009,0.5770972361742863,0.5775438488192466,non_fall
5.441729,-0.522,0.0441,0.2421,0.3428,-0.0051,0.0843,9.2063,18.7313,-39.075,,0.020694999999999908,0.5770972361742863,0.6004583780968076,non_fall
5.445457,-0.522,0.0441,0.2421,0.3428,-0.0051,0.0843,8.6813,17.7563,-39.375,,0.0037280000000006197,0.5770972361742863,0.6267391370255717,non_fall
5.460931,0.4797,-0.2034,-0.4217,0.3428,-0.0051,0.0843,8.6813,17.7563,-39.375,,0.01547400000000021,0.6703092868221356,0.6548303655505076,non_fall
5.464227,0.4797,-0.2034,-0.4217,0.3428,-0.0051,0.0843,8.6813,17.7563,-39.375,,0.0032959999999997436,0.6703092868221356,0.6832106495337406,non_fall
5.480473,0.4797,-0.2034,-0.4217,-0.2282,0.4575,-0.1251,8.6813,17.7563,-39.375,,0.01624599999999976,0.6703092868221356,0.710451457139972,non_fall
5.48636,0.4797,-0.2034,-0.4217,-0.2282,0.4575,-0.1251,8.6813,17.7563,-39.375,,0.00588700000000042,0.6703092868221356,0.7352836314677993,non_fall
5.501129,0.4797,-0.2034,-0.4217,-0.2282,0.4575,-0.1251,8.6813,17.7563,-39.375,,0.014768999999999366,0.6703092868221356,0.756672712829735,non_fall
5.504079,0.4797,-0.2034,-0.4217,-0.2282,0.4575,-0.1251,8.4938,16.725,-39.4688,,0.00295000000000023,0.6703092868221356,0.773900599323949,non_fall
5.523437,0.4011,-0.3495,-0.7618,-0.2282,0.4575,-0.1251,8.4938,16.725,-39.4688,,0.01935800000000043,0.9291774319256791,0.7866457216849507,non_fall
5.528149,0.4011,-0.3495,-0.7618,-0.2282,0.4575,-0.1251,8.4938,16.725,-39.4688,,0.004711999999999605,0.9291774319256791,0.7950468696579888,non_fall
5.541816,0.4011,-0.3495,-0.7618,-0.3075,0.2361,-0.234,8.4938,16.725,-39.4688,,0.013666999999999874,0.9291774319256791,0.7997298296298094,non_fall
5.556363,0.4011,-0.3495,-0.7618,-0.3075,0.2361,-0.234,8.4938,16.725,-39.4688,,0.01454700000000031,0.9291774319256791,0.801775296609597,non_fall
5.562164,0.4011,-0.3495,-0.7618,-0.3075,0.2361,-0.234,8.4938,16.725,-39.4688,,0.005800999999999945,0.9291774319256791,0.8026135280385637,non_fall
5.565124,0.4011,-0.3495,-0.7618,-0.3075,0.2361,-0.234,8.6813,15.9188,-39.3563,,0.0029599999999998516,0.9291774319256791,0.8038445450489206,non_fall
5.581255,0.4011,-0.3495,-0.7618,-0.3075,0.2361,-0.234,8.6813,15.9188,-39.3563,,0.016130999999999673,0.9291774319256791,0.8069990299125257,non_fall
5.583923,0.4729,0.0695,-0.0136,-0.3075,0.2361,-0.234,8.6813,15.9188,-39.3563,,0.002668000000000781,0.4781732112948194,0.8132717997911433,non_fall
5.600417,0.4729,0.0695,-0.0136,-0.5302,0.4631,-0.0186,8.6813,15.9188,-39.3563,,0.016493999999999787,0.4781732112948194,0.8232744152679285,non_fall
5.620921,0.4729,0.0695,-0.0136,-0.5302,0.4631,-0.0186,8.6813,15.9188,-39.3563,,0.020503999999999856,0.4781732112948194,0.8368612441238263,non_fall
5.642458,0.4729,0.0695,-0.0136,-0.5302,0.4631,-0.0186,9.1125,15.4313,-39.075,,0.02153700000000036,0.4781732112948194,0.8530773722958068,non_fall
5.646582,0.5673,0.5271,-0.746,-0.5302,0.4631,-0.0186,9.1125,15.4313,-39.075,,0.0041240000000000165,1.0752579690474282,0.8702538233827454,non_fall
5.649594,0.5673,0.5271,-0.746,-0.5302,0.4631,-0.0186,9.1125,15.4313,-39.075,,0.0030119999999991265,1.0752579690474282,0.8862406669162848,non_fall
5.65188,0.5673,0.5271,-0.746,-0.5302,0.4631,-0.0186,9.1125,15.4313,-39.075,,0.0022860000000006764,1.0752579690474282,0.8987341548470331,non_fall
5.682054,0.5673,0.5271,-0.746,-0.5302,0.4631,-0.0186,9.1125,15.4313,-39.075,,0.0301739999999997,1.0752579690474282,0.9056331383563061,non_fall
5.685285,0.5673,0.5271,-0.746,-0.4926,0.7158,-0.1489,9.1125,15.4313,-39.075,,0.003231000000000428,1.0752579690474282,0.9053585990485886,non_fall
5.687917,0.5673,0.5271,-0.746,-0.4926,0.7158,-0.1489,9.1125,15.4313,-39.075,,0.0026319999999993016,1.0752579690474282,0.8970842477604654,non_fall
5.705077,0.5673,0.5271,-0.746,-0.4926,0.7158,-0.1489,9.9563,15.2813,-38.625,,0.017160000000000508,1.0752579690474282,0.8808475527852656,non_fall
5.7082,0.4428,-0.4311,-0.3242,-0.4926,0.7158,-0.1489,9.9563,15.2813,-38.625,,0.003122999999999543,0.6978715426208465,0.8575335349342142,non_fall
5.710631,0.4428,-0.4311,-0.3242,-0.4926,0.7158,-0.1489,9.9563,15.2813,-38.625,,0.002431000000000516,0.6978715426208465,0.8287455248975513,non_fall
5.741594,0.4428,-0.4311,-0.3242,-0.4926,0.7158,-0.1489,9.9563,15.2813,-38.625,,0.030962999999999852,0.6978715426208465,0.7965945419999927,non_fall
5.745151,0.4428,-0.4311,-0.3242,-0.2762,0.9171,-0.1854,9.9563,15.2813,-38.625,,0.0035569999999998103,0.6978715426208465,0.7634474837896814,non_fall
5.756316,0.4428,-0.4311,-0.3242,-0.2762,0.9171,-0.1854,9.9563,15.2813,-38.625,,0.011165000000000092,0.6978715426208465,0.7316720174471774,non_fall
5.763228,0.4428,-0.4311,-0.3242,-0.2762,0.9171,-0.1854,9.9563,15.2813,-38.625,,0.006911999999999807,0.6978715426208465,0.7034063448709469,non_fall
5.766256,0.4428,-0.4311,-0.3242,-0.2762,0.9171,-0.1854,10.9688,15.45,-38.0625,,0.0030280000000004748,0.6978715426208465,0.6803707778643031,non_fall
5.76938,0.0418,-0.1734,-0.6319,-0.2762,0.9171,-0.1854,10.9688,15.45,-38.0625,,0.0031239999999996826,0.6565915092353845,0.6637293399259271,non_fall
5.80272,0.0418,-0.1734,-0.6319,-0.2762,0.9171,-0.1854,10.9688,15.45,-38.0625,,0.033339999999999925,0.6565915092353845,0.6540044753387716,non_fall
5.805934,0.0418,-0.1734,-0.6319,-0.3002,0.467,-0.2541,10.9688,15.45,-38.0625,,0.003213999999999828,0.6565915092353845,0.6510457479036056,non_fall
5.821672,0.0418,-0.1734,-0.6319,-0.3002,0.467,-0.2541,10.9688,15.45,-38.0625,,0.015738000000000696,0.6565915092353845,0.6540529258030869,non_fall
5.825428,0.1235,-0.2951,0.4811,-0.3002,0.467,-0.2541,10.9688,15.45,-38.0625,,0.0037559999999992044,0.5777486218070971,0.6616539665176246,non_fall
5.828608,0.1235,-0.2951,0.4811,-0.3002,0.467,-0.2541,10.9688,15.45,-38.0625,,0.0031800000000004047,0.5777486218070971,0.6720383166872061,non_fall
5.841514,0.1235,-0.2951,0.4811,-0.3002,0.467,-0.2541,11.9438,15.825,-37.35,,0.012906000000000084,0.5777486218070971,0.6831445911898869,non_fall
5.845878,0.1235,-0.2951,0.4811,-0.3002,0.467,-0.2541,11.9438,15.825,-37.35,,0.0043639999999998125,0.5777486218070971,0.6928976550667751,non_fall
5.881045,0.1235,-0.2951,0.4811,-0.3002,0.467,-0.2541,11.9438,15.825,-37.35,,0.03516700000000039,0.5777486218070971,0.6994824224083798,non_fall
5.883161,-0.5581,-0.2672,0.6387,-0.3002,0.467,-0.2541,11.9438,15.825,-37.35,,0.0021160000000000068,0.8892745020520942,0.701630725538602,non_fall
5.885098,-0.5581,-0.2672,0.6387,-0.3002,0.467,-0.2541,11.9438,15.825,-37.35,,0.0019369999999998555,0.8892745020520942,0.6988855801174697,non_fall
5.886542,-0.5581,-0.2672,0.6387,0.0753,0.1054,-0.0828,11.9438,15.825,-37.35,,0.0014440000000002229,0.8892745020520942,0.6917982789245531,non_fall
5.900842,-0.5581,-0.2672,0.6387,0.0753,0.1054,-0.0828,11.9438,15.825,-37.35,,0.014299999999999535,0.8892745020520942,0.6820131583417517,non_fall
5.903094,-0.5581,-0.2672,0.6387,0.0753,0.1054,-0.0828,12.8625,16.6313,-36.8063,,0.002252000000000365,0.8892745020520942,0.6722053897870811,non_fall
5.940138,-0.5581,-0.2672,0.6387,0.0753,0.1054,-0.0828,12.8625,16.6313,-36.8063,,0.037043999999999855,0.8892745020520942,0.6658570096158292,non_fall
5.941712,-0.5744,0.0251,-0.1591,0.0753,0.1054,-0.0828,12.8625,16.6313,-36.8063,,0.0015739999999997423,0.5965552614804432,0.6668813700077498,non_fall
5.943155,-0.5744,0.0251,-0.1591,0.0753,0.1054,-0.0828,12.8625,16.6313,-36.8063,,0.001443000000000083,0.5965552614804432,0.6791321974272491,non_fall
5.944167,-0.5744,0.0251,-0.1591,0.3555,0.335,0.3339,12.8625,16.6313,-36.8063,,0.001012000000000235,0.5965552614804432,0.7058562121613098,non_fall
5.961376,-0.5744,0.0251,-0.1591,0.3555,0.335,0.3339,13.7438,17.55,-36.1313,,0.017208999999999364,0.5965552614804432,0.7491628593978388,non_fall
5.96362,-0.5744,0.0251,-0.1591,0.3555,0.335,0.3339,13.7438,17.55,-36.1313,,0.0022440000000001348,0.5965552614804432,0.8095880297050465,non_fall
6.001065,-0.5744,0.0251,-0.1591,0.3555,0.335,0.3339,13.7438,17.55,-36.1313,,0.03744499999999995,0.5965552614804432,0.8858214205487649,non_fall
6.00285,-0.5744,0.0251,-0.1591,0.3555,0.335,0.3339,13.7438,17.55,-36.1313,,0.0017849999999999255,0.5965552614804432,0.974651890945069,non_fall
6.003972,-0.5744,0.0251,-0.1591,0.4568,-0.0219,0.7108,13.7438,17.55,-36.1313,,0.0011220000000005115,0.5965552614804432,1.0711628259765105,non_fall
6.005023,-0.9375,0.705,0.6669,0.4568,-0.0219,0.7108,13.7438,17.55,-36.1313,,0.0010510000000003572,1.3493282995624156,1.1691795703130923,non_fall
6.040904,-0.9375,0.705,0.6669,0.4568,-0.0219,0.7108,14.5313,18.1125,-35.475,,0.03588099999999983,1.3493282995624156,1.26193443806286,non_fall
6.043057,-0.9375,0.705,0.6669,0.4568,-0.0219,0.7108,14.5313,18.1125,-35.475,,0.0021529999999998495,1.3493282995624156,1.3428780223412005,non_fall
6.043962,-0.9375,0.705,0.6669,0.4568,-0.0219,0.7108,14.5313,18.1125,-35.475,,0.0009049999999994895,1.3493282995624156,1.4065385995288093,non_fall
6.061193,-0.9522,1.0617,1.337,0.4568,-0.0219,0.7108,14.5313,18.1125,-35.475,,0.017231000000000662,1.9548556800950807,1.4493200127006116,non_fall
6.063358,-0.9522,1.0617,1.337,0.4568,-0.0219,0.7108,14.5313,18.1125,-35.475,,0.0021649999999997505,1.9548556800950807,1.4701299210487313,non_fall
6.08097,-0.9522,1.0617,1.337,0.5359,-0.6619,1.172,14.5313,18.1125,-35.475,,0.01761199999999974,1.9548556800950807,1.470741488631028,non_fall
6.087075,-0.9522,1.0617,1.337,0.5359,-0.6619,1.172,14.5313,18.1125,-35.475,,0.006104999999999805,1.9548556800950807,1.4558155013227398,non_fall
6.103113,-0.9522,1.0617,1.337,0.5359,-0.6619,1.172,14.9063,17.9625,-35.1375,,0.016037999999999997,1.9548556800950807,1.4325506698555839,non_fall
6.120743,-0.3545,0.8351,0.4147,0.5359,-0.6619,1.172,14.9063,17.9625,-35.1375,,0.01763000000000048,0.9975160900957939,1.409984763762094,non_fall
6.123165,-0.3545,0.8351,0.4147,0.5359,-0.6619,1.172,14.9063,17.9625,-35.1375,,0.0024220000000001463,0.9975160900957939,1.3980282543630465,non_fall
6.124209,-0.3545,0.8351,0.4147,0.5359,-0.6619,1.172,14.9063,17.9625,-35.1375,,0.0010439999999993788,0.9975160900957939,1.40636082866679,non_fall
6.140806,-0.3545,0.8351,0.4147,0.1389,-0.5798,0.9665,14.9063,17.9625,-35.1375,,0.01659700000000086,0.9975160900957939,1.4433442163405181,non_fall
6.152851,-0.3545,0.8351,0.4147,0.1389,-0.5798,0.9665,14.9063,17.9625,-35.1375,,0.01204499999999964,0.9975160900957939,1.5150947672596962,non_fall
6.16155,-0.3545,0.8351,0.4147,0.1389,-0.5798,0.9665,14.9625,17.4375,-34.8375,,0.008699000000000012,0.9975160900957939,1.6248217106412608,non_fall
6.180745,0.9558,0.8557,-2.0463,0.1389,-0.5798,0.9665,14.9625,17.4375,-34.8375,,0.01919499999999985,2.4151852558344253,1.7724841526744306,non_fall
6.183195,0.9558,0.8557,-2.0463,0.1389,-0.5798,0.9665,14.9625,17.4375,-34.8375,,0.0024500000000005073,2.4151852558344253,1.9547632083124447,non_fall
6.184606,0.9558,0.8557,-2.0463,0.1389,-0.5798,0.9665,14.9625,17.4375,-34.8375,,0.001410999999999163,2.4151852558344253,2.165299176298069,non_fall
6.201005,0.9558,0.8557,-2.0463,-0.0453,-0.0415,-0.0376,14.9625,17.4375,-34.8375,,0.01639900000000072,2.4151852558344253,2.395123843719838,non_fall
6.219347,0.9558,0.8557,-2.0463,-0.0453,-0.0415,-0.0376,14.9625,17.4375,-34.8375,,0.018341999999999636,2.4151852558344253,2.633230537314338,non_fall
6.241295,0.9558,0.8557,-2.0463,-0.0453,-0.0415,-0.0376,14.9625,17.4375,-34.8375,,0.02194800000000008,2.4151852558344253,2.8672548999059626,non_fall
6.242831,0.9558,0.8557,-2.0463,-0.0453,-0.0415,-0.0376,14.9813,16.6125,-34.5938,,0.0015359999999997598,2.4151852558344253,3.084263516338069,non_fall
6.244185,0.9558,0.8557,-2.0463,-0.0453,-0.0415,-0.0376,14.9813,16.6125,-34.5938,,0.0013540000000000774,2.4151852558344253,3.271648410368603,non_fall
6.245026,3.8669,-1.7589,-0.5796,-0.0453,-0.0415,-0.0376,14.9813,16.6125,-34.5938,,0.0008410000000003137,4.287491222148448,3.418097972065498,non_fall
6.280731,3.8669,-1.7589,-0.5796,-0.1364,1.5441,-0.49,14.9813,16.6125,-34.5938,,0.0357050000000001,4.287491222148448,3.514565741591238,non_fall
6.283012,3.8669,-1.7589,-0.5796,-0.1364,1.5441,-0.49,14.9813,16.6125,-34.5938,,0.0022809999999999775,4.287491222148448,3.5551093447644124,non_fall
6.286484,3.8669,-1.7589,-0.5796,-0.1364,1.5441,-0.49,14.9813,16.6125,-34.5938,,0.0034719999999994755,4.287491222148448,3.537453758429441,non_fall
6.304037,3.8669,-1.7589,-0.5796,-0.1364,1.5441,-0.49,15.3563,15.675,-34.275,,0.017553000000000374,4.287491222148448,3.4631647507934766,non_fall
6.306283,1.569,-1.0761,-1.7245,-0.1364,1.5441,-0.49,15.3563,15.675,-34.275,,0.002245999999999526,2.5678108302598925,3.3373915286630718,non_fall
6.307677,1.569,-1.0761,-1.7245,-0.1364,1.5441,-0.49,15.3563,15.675,-34.275,,0.0013940000000003394,2.5678108302598925,3.1682258038132396,non_fall
6.341009,1.569,-1.0761,-1.7245,-0.1364,1.5441,-0.49,15.3563,15.675,-34.275,,0.033331999999999695,2.5678108302598925,2.9657975864113206,non_fall
6.342533,1.569,-1.0761,-1.7245,-0.3102,1.9212,-0.5755,15.3563,15.675,-34.275,,0.001524000000000747,2.5678108302598925,2.7412612690558738,non_fall
6.352533,1.569,-1.0761,-1.7245,-0.3102,1.9212,-0.5755,15.3563,15.675,-34.275,,0.009999999999999787,2.5678108302598925,2.505811967469553,non_fall
6.361729,1.569,-1.0761,-1.7245,-0.3102,1.9212,-0.5755,16.0688,14.8688,-33.825,,0.009196000000000204,2.5678108302598925,2.2698296502247626,non_fall
6.363382,0.0915,-0.0412,-1.4787,-0.3102,1.9212,-0.5755,16.0688,14.8688,-33.825,,0.0016529999999992384,1.4821010019563443,2.0422060638357276,non_fall
6.364591,0.0915,-0.0412,-1.4787,-0.3102,1.9212,-0.5755,16.0688,14.8688,-33.825,,0.0012090000000002377,1.4821010019563443,1.8298836933168767,non_fall
6.401654,0.0915,-0.0412,-1.4787,-0.3102,1.9212,-0.5755,16.0688,14.8688,-33.825,,0.037062999999999846,1.4821010019563443,1.6376235149699392,non_fall
6.403256,0.0915,-0.0412,-1.4787,-0.109,1.5251,-0.3715,16.0688,14.8688,-33.825,,0.0016020000000001033,1.4821010019563443,1.4680044531029497,non_fall
6.419015,0.0915,-0.0412,-1.4787,-0.109,1.5251,-0.3715,16.0688,14.8688,-33.825,,0.01575900000000008,1.4821010019563443,1.3216334833820012,non_fall
6.421586,0.0915,-0.0412,-1.4787,-0.109,1.5251,-0.3715,16.0688,14.8688,-33.825,,0.002570999999999657,1.4821010019563443,1.1975173742735874,non_fall
6.422595,0.133,-0.2153,1.0348,-0.109,1.5251,-0.3715,16.0688,14.8688,-33.825,,0.0010090000000007038,1.065295325250233,1.0935283158052673,non_fall
6.441278,0.133,-0.2153,1.0348,-0.109,1.5251,-0.3715,17.1188,14.1375,-33.0938,,0.01868299999999934,1.065295325250233,1.0068931614474725,non_fall
6.481682,0.133,-0.2153,1.0348,-0.109,1.5251,-0.3715,17.1188,14.1375,-33.0938,,0.04040400000000055,1.065295325250233,0.9346464374136739,non_fall
6.483839,0.133,-0.2153,1.0348,-0.109,1.5251,-0.3715,17.1188,14.1375,-33.0938,,0.0021569999999995204,1.065295325250233,0.874002343128057,non_fall
6.484838,0.133,-0.2153,1.0348,-0.109,1.5251,-0.3715,17.1188,14.1375,-33.0938,,0.0009990000000001942,1.065295325250233,0.8226150549814468,non_fall
6.485693,0.133,-0.2153,1.0348,-0.2214,0.9761,-0.2634,17.1188,14.1375,-33.0938,,0.0008550000000004943,1.065295325250233,0.7787105059705367,non_fall
6.486796,-0.481,0.1303,0.0158,-0.2214,0.9761,-0.2634,17.1188,14.1375,-33.0938,,0.001102999999999632,0.4985867326754694,0.7410902837986942,non_fall
6.501173,-0.481,0.1303,0.0158,-0.2214,0.9761,-0.2634,18.3938,13.5375,-32.1562,,0.01437699999999964,0.4985867326754694,0.7090300441437158,non_fall
6.541774,-0.481,0.1303,0.0158,-0.2214,0.9761,-0.2634,18.3938,13.5375,-32.1562,,0.04060100000000055,0.4985867326754694,0.6821151993643441,non_fall
6.54346,-0.481,0.1303,0.0158,-0.2214,0.9761,-0.2634,18.3938,13.5375,-32.1562,,0.0016859999999994102,0.4985867326754694,0.6600665202677228,non_fall
6.544293,-0.481,0.1303,0.0158,-0.2214,0.9761,-0.2634,18.3938,13.5375,-32.1562,,0.0008330000000000837,0.4985867326754694,0.6426026610245753,non_fall
6.545114,-0.481,0.1303,0.0158,-0.2953,0.6556,-0.193,18.3938,13.5375,-32.1562,,0.0008210000000001827,0.4985867326754694,0.6293688273111345,non_fall
6.546293,0.1891,-0.3638,0.625,-0.2953,0.6556,-0.193,18.3938,13.5375,-32.1562,,0.0011790000000004852,0.7474852841360825,0.6199385258138267,non_fall
6.562214,0.1891,-0.3638,0.625,-0.2953,0.6556,-0.193,19.8938,13.3875,-31.0313,,0.01592099999999963,0.7474852841360825,0.6138747040912553,non_fall
6.601505,0.1891,-0.3638,0.625,-0.2953,0.6556,-0.193,19.8938,13.3875,-31.0313,,0.03929100000000041,0.7474852841360825,0.6108216578830045,non_fall
6.603067,0.1891,-0.3638,0.625,-0.2953,0.6556,-0.193,19.8938,13.3875,-31.0313,,0.0015619999999998413,0.7474852841360825,0.6105932081322591,non_fall
6.603951,0.1891,-0.3638,0.625,-0.2953,0.6556,-0.193,19.8938,13.3875,-31.0313,,0.0008840000000001069,0.7474852841360825,0.6132271368879162,non_fall
6.60467,0.1891,-0.3638,0.625,-0.3367,0.9723,-0.3088,19.8938,13.3875,-31.0313,,0.000718999999999248,0.7474852841360825,0.6189884506908392,non_fall
6.606372,0.2871,-0.172,-0.322,-0.3367,0.9723,-0.3088,19.8938,13.3875,-31.0313,,0.0017020000000007585,0.4644291226871976,0.6283205220974774,non_fall
6.641847,0.2871,-0.172,-0.322,-0.3367,0.9723,-0.3088,19.8938,13.3875,-31.0313,,0.03547499999999992,0.4644291226871976,0.6417595252573645,non_fall
6.643617,0.2871,-0.172,-0.322,-0.3367,0.9723,-0.3088,21.9188,13.9125,-29.3813,,0.0017699999999996052,0.4644291226871976,0.659839574392403,non_fall
6.660697,0.2871,-0.172,-0.322,-0.3367,0.9723,-0.3088,21.9188,13.9125,-29.3813,,0.017079999999999984,0.4644291226871976,0.6830189089300553,non_fall
6.662366,0.2871,-0.172,-0.322,-0.3367,0.9723,-0.3088,21.9188,13.9125,-29.3813,,0.0016689999999996985,0.4644291226871976,0.7116487998424614,non_fall
6.663347,0.8321,0.5428,-0.5109,-0.3367,0.9723,-0.3088,21.9188,13.9125,-29.3813,,0.0009810000000003427,1.1171575806483165,0.745988429760657,non_fall
6.681325,0.8321,0.5428,-0.5109,-0.4584,1.3849,-0.7188,21.9188,13.9125,-29.3813,,0.01797800000000027,1.1171575806483165,0.78624670798467,non_fall
6.687193,0.8321,0.5428,-0.5109,-0.4584,1.3849,-0.7188,21.9188,13.9125,-29.3813,,0.00586799999999954,1.1171575806483165,0.8326148795761561,non_fall
6.702456,0.8321,0.5428,-0.5109,-0.4584,1.3849,-0.7188,24.45,14.9063,-27.4125,,0.015263000000000027,1.1171575806483165,0.8852516877960399,non_fall
6.721904,-0.2245,0.8203,0.2909,-0.4584,1.3849,-0.7188,24.45,14.9063,-27.4125,,0.019448000000000576,0.898841003737591,0.9441997809635737,non_fall
6.724123,-0.2245,0.8203,0.2909,-0.4584,1.3849,-0.7188,24.45,14.9063,-27.4125,,0.002218999999999305,0.898841003737591,1.0092416930524362,non_fall
6.725013,-0.2245,0.8203,0.2909,-0.4584,1.3849,-0.7188,24.45,14.9063,-27.4125,,0.0008900000000000574,0.898841003737591,1.0797335009594147,non_fall
6.741822,-0.2245,0.8203,0.2909,-0.334,1.4975,-0.8311,24.45,14.9063,-27.4125,,0.016809000000000296,0.898841003737591,1.1544733947828432,non_fall
6.754053,-0.2245,0.8203,0.2909,-0.334,1.4975,-0.8311,24.45,14.9063,-27.4125,,0.01223099999999988,0.898841003737591,1.231666124194974,non_fall
6.761951,-0.2245,0.8203,0.2909,-0.334,1.4975,-0.8311,27.1125,16.425,-25.0313,,0.00789799999999996,0.898841003737591,1.3090330974440039,non_fall
6.763277,-0.2245,0.8203,0.2909,-0.334,1.4975,-0.8311,27.1125,16.425,-25.0313,,0.0013260000000006045,0.898841003737591,1.3840943306426001,non_fall
6.781046,-1.163,1.2434,0.5265,-0.334,1.4975,-0.8311,27.1125,16.425,-25.0313,,0.01776899999999948,1.7820815946527253,1.4546147083850167,non_fall
6.78353,-1.163,1.2434,0.5265,-0.334,1.4975,-0.8311,27.1125,16.425,-25.0313,,0.0024839999999999307,1.7820815946527253,1.5191668588969014,non_fall
6.801301,-1.163,1.2434,0.5265,0.1242,0.7277,-0.0813,27.1125,16.425,-25.0313,,0.01777099999999976,1.7820815946527253,1.577725656175267,non_fall
6.82188,-1.163,1.2434,0.5265,0.1242,0.7277,-0.0813,27.1125,16.425,-25.0313,,0.02057900000000057,1.7820815946527253,1.632188057331985,non_fall
6.841558,-1.163,1.2434,0.5265,0.1242,0.7277,-0.0813,27.6563,5.475,-31.2563,,0.019677999999999862,1.7820815946527253,1.6867135861936773,non_fall
6.843563,-1.5771,1.2877,1.0797,0.1242,0.7277,-0.0813,27.6563,5.475,-31.2563,,0.0020049999999995904,2.304597099277876,1.7477997413610433,non_fall
6.844855,-1.5771,1.2877,1.0797,0.1242,0.7277,-0.0813,27.6563,5.475,-31.2563,,0.001292000000000293,2.304597099277876,1.8240325385824128,non_fall
6.845714,-1.5771,1.2877,1.0797,0.1242,0.7277,-0.0813,27.6563,5.475,-31.2563,,0.0008590000000001652,2.304597099277876,1.9254818015479702,non_fall
6.883147,-1.5771,1.2877,1.0797,0.1242,0.7277,-0.0813,27.6563,5.475,-31.2563,,0.03743300000000005,2.304597099277876,2.062747778301523,non_fall
6.884927,-1.5771,1.2877,1.0797,0.6128,-0.3074,0.6908,27.6563,5.475,-31.2563,,0.0017800000000001148,2.304597099277876,2.245712391492825,non_fall
6.886837,-1.5771,1.2877,1.0797,0.6128,-0.3074,0.6908,27.6563,5.475,-31.2563,,0.0019099999999996342,2.304597099277876,2.4820989332122028,non_fall
6.901965,0.5703,-2.8119,-0.6392,0.6128,-0.3074,0.6908,27.6563,5.475,-31.2563,,0.015127999999999808,2.9394898094737463,2.7759876060351343,non_fall
6.904389,0.5703,-2.8119,-0.6392,0.6128,-0.3074,0.6908,29.2313,6.5063,-29.4188,,0.002424000000000426,2.9394898094737463,3.126463210485165,non_fall
6.90657,0.5703,-2.8119,-0.6392,0.6128,-0.3074,0.6908,29.2313,6.5063,-29.4188,,0.0021810000000002105,2.9394898094737463,3.5265843930280525,non_fall
6.92348,0.5703,-2.8119,-0.6392,0.6128,-0.3074,0.6908,29.2313,6.5063,-29.4188,,0.016909999999999314,2.9394898094737463,3.96286353532771,non_fall
6.940811,0.5703,-2.8119,-0.6392,-0.1861,1.2986,0.0467,29.2313,6.5063,-29.4188,,0.01733100000000043,2.9394898094737463,4.415430202806487,non_fall
6.953224,0.5703,-2.8119,-0.6392,-0.1861,1.2986,0.0467,29.2313,6.5063,-29.4188,,0.012412999999999563,2.9394898094737463,4.859007708682009,non_fall
6.961679,0.5703,-2.8119,-0.6392,-0.1861,1.2986,0.0467,30.5438,7.2938,-27.5438,,0.008455000000000545,2.9394898094737463,5.2647467841744735,non_fall
6.963255,5.9976,-4.1892,-1.9202,-0.1861,1.2986,0.0467,30.5438,7.2938,-27.5438,,0.0015760000000000218,7.563581852535213,5.602824380464462,non_fall
6.96451,5.9976,-4.1892,-1.9202,-0.1861,1.2986,0.0467,30.5438,7.2938,-27.5438,,0.001254999999999562,7.563581852535213,5.845542284413575,non_fall
7.001571,5.9976,-4.1892,-1.9202,0.1184,0.3178,0.3772,30.5438,7.2938,-27.5438,,0.037061000000000455,7.563581852535213,5.9704988685362075,non_fall
7.00364,5.9976,-4.1892,-1.9202,0.1184,0.3178,0.3772,30.5438,7.2938,-27.5438,,0.0020689999999996544,7.563581852535213,5.963330334175084,non_fall
7.020025,5.9976,-4.1892,-1.9202,0.1184,0.3178,0.3772,30.5438,7.2938,-27.5438,,0.016385000000000538,7.563581852535213,5.819567599543961,non_fall
7.021843,5.9976,-4.1892,-1.9202,0.1184,0.3178,0.3772,30.5438,7.2938,-27.5438,,0.0018179999999992091,7.563581852535213,5.545309893655116,non_fall
7.022734,-1.7235,3.1059,1.4968,0.1184,0.3178,0.3772,30.5438,7.2938,-27.5438,,0.0008910000000001972,3.8545398298629627,5.156621576027814,non_fall
7.042552,-1.7235,3.1059,1.4968,0.1184,0.3178,0.3772,30.5438,7.2938,-27.5438,,0.01981799999999989,3.8545398298629627,4.677769480099301,non_fall
7.04441,-1.7235,3.1059,1.4968,0.1184,0.3178,0.3772,31.8375,8.025,-25.8563,,0.0018580000000003594,3.8545398298629627,4.138595635874072,non_fall
7.082625,-1.7235,3.1059,1.4968,0.0876,0.4081,0.3837,31.8375,8.025,-25.8563,,0.03821500000000011,3.8545398298629627,3.571424286578105,non_fall
7.084614,0.9209,0.4005,-0.4685,0.0876,0.4081,0.3837,31.8375,8.025,-25.8563,,0.0019890000000000185,1.1081287425204709,3.007918438562812,non_fall
7.086096,0.9209,0.4005,-0.4685,0.0876,0.4081,0.3837,31.8375,8.025,-25.8563,,0.0014820000000002054,1.1081287425204709,2.4762580416000897,non_fall
7.086882,0.9209,0.4005,-0.4685,0.0876,0.4081,0.3837,31.8375,8.025,-25.8563,,0.0007859999999997314,1.1081287425204709,1.9989424077386027,non_fall
7.102451,0.9209,0.4005,-0.4685,0.0876,0.4081,0.3837,33.5813,8.475,-24.1313,,0.015569000000000166,1.1081287425204709,1.591426025209025,non_fall
7.104838,0.9209,0.4005,-0.4685,0.0876,0.4081,0.3837,33.5813,8.475,-24.1313,,0.002386999999999695,1.1081287425204709,1.2616729665311297,non_fall
7.128519,0.9209,0.4005,-0.4685,0.0876,0.4081,0.3837,33.5813,8.475,-24.1313,,0.02368099999999984,1.1081287425204709,1.0105790127523264,non_fall
7.142111,0.9209,0.4005,-0.4685,0.1252,0.026,0.2772,33.5813,8.475,-24.1313,,0.013592000000000048,1.1081287425204709,0.833096040988616,non_fall
7.144346,0.9209,0.4005,-0.4685,0.1252,0.026,0.2772,33.5813,8.475,-24.1313,,0.002234999999999765,1.1081287425204709,0.7198203614175323,non_fall
7.145351,-0.5348,-1.5413,1.0792,0.1252,0.026,0.2772,33.5813,8.475,-24.1313,,0.0010050000000001447,1.9560903276689448,0.6587765343805088,non_fall
7.163204,-0.5348,-1.5413,1.0792,0.1252,0.026,0.2772,34.4813,8.5312,-22.8563,,0.017853000000000563,1.9560903276689448,0.6371355639622088,non_fall
7.201725,0.3488,0.4229,-0.1547,0.1252,0.026,0.2772,34.4813,8.5312,-22.8563,,0.03852099999999936,0.569594540001921,0.6426501208592226,non_fall
7.204146,0.3488,0.4229,-0.1547,0.0689,0.1241,0.151,34.4813,8.5312,-22.8563,,0.0024210000000000065,0.569594540001921,0.6646686926410968,non_fall
7.205272,0.3488,0.4229,-0.1547,0.0689,0.1241,0.151,34.4813,8.5312,-22.8563,,0.0011260000000001824,0.569594540001921,0.6946902320309706,non_fall
7.206121,0.3488,0.4229,-0.1547,0.0689,0.1241,0.151,34.4813,8.5312,-22.8563,,0.0008490000000005438,0.569594540001921,0.7265093331827871,non_fall
7.206913,0.3488,0.4229,-0.1547,0.0689,0.1241,0.151,34.4813,8.5312,-22.8563,,0.0007919999999996818,0.569594540001921,0.7560529857195292,non_fall
7.24199,0.3488,0.4229,-0.1547,0.0689,0.1241,0.151,35.2313,8.25,-21.9375,,0.03507700000000025,0.569594540001921,0.7810223489942241,non_fall
7.244119,0.3488,0.4229,-0.1547,0.0689,0.1241,0.151,35.2313,8.25,-21.9375,,0.0021290000000000475,0.569594540001921,0.8004424885055914,non_fall
7.26257,0.0874,-0.7309,0.2387,0.0689,0.1241,0.151,35.2313,8.25,-21.9375,,0.018450999999999773,0.7738418830743138,0.8142031844117932,non_fall
7.264811,0.0874,-0.7309,0.2387,0.0689,0.1241,0.151,35.2313,8.25,-21.9375,,0.0022409999999997154,0.7738418830743138,0.8226506162348306,non_fall
7.265662,0.0874,-0.7309,0.2387,0.0689,0.1241,0.151,35.2313,8.25,-21.9375,,0.0008509999999999351,0.7738418830743138,0.8262662242671854,non_fall
7.282467,0.0874,-0.7309,0.2387,-0.0386,0.2513,0.1169,35.2313,8.25,-21.9375,,0.016804999999999737,0.7738418830743138,0.8254489394051803,non_fall
7.287906,0.0874,-0.7309,0.2387,-0.0386,0.2513,0.1169,35.2313,8.25,-21.9375,,0.00543900000000086,0.7738418830743138,0.820402432947413,non_fall
7.30236,0.0874,-0.7309,0.2387,-0.0386,0.2513,0.1169,35.775,7.4813,-21.1875,,0.014453999999999745,0.7738418830743138,0.8111192642223968,non_fall
7.322068,0.0874,-0.7309,0.2387,-0.0386,0.2513,0.1169,35.775,7.4813,-21.1875,,0.019707999999999615,0.7738418830743138,0.7974464736058823,non_fall
7.324305,0.0874,-0.7309,0.2387,-0.0386,0.2513,0.1169,35.775,7.4813,-21.1875,,0.0022370000000000445,0.7738418830743138,0.7792107697900073,non_fall
7.325283,0.6524,0.2703,-0.4321,-0.0386,0.2513,0.1169,35.775,7.4813,-21.1875,,0.0009779999999999234,0.827887830566436,0.7563758648935439,non_fall
7.34193,0.6524,0.2703,-0.4321,-0.0505,0.2531,0.0116,35.775,7.4813,-21.1875,,0.016646999999999856,0.827887830566436,0.7292003896207181,non_fall
7.353518,0.6524,0.2703,-0.4321,-0.0505,0.2531,0.0116,35.775,7.4813,-21.1875,,0.011588000000000598,0.827887830566436,0.6983633199237107,non_fall
7.363355,0.6524,0.2703,-0.4321,-0.0505,0.2531,0.0116,35.9438,6.7313,-20.025,,0.009837000000000096,0.827887830566436,0.6650263415850172,non_fall
7.364815,0.6524,0.2703,-0.4321,-0.0505,0.2531,0.0116,35.9438,6.7313,-20.025,,0.0014599999999997948,0.827887830566436,0.6308100371585679,non_fall
7.382831,0.6524,0.2703,-0.4321,-0.0505,0.2531,0.0116,35.9438,6.7313,-20.025,,0.018016000000000254,0.827887830566436,0.597673332190631,non_fall
7.384579,-0.0847,0.0507,0.3805,-0.0505,0.2531,0.0116,35.9438,6.7313,-20.025,,0.0017479999999991946,0.39309646398816667,0.5677026993726308,non_fall
7.402421,-0.0847,0.0507,0.3805,-0.134,0.2138,-0.0048,35.9438,6.7313,-20.025,,0.0178420000000008,0.39309646398816667,0.5428373232648203,non_fall
7.420794,-0.0847,0.0507,0.3805,-0.134,0.2138,-0.0048,35.9438,6.7313,-20.025,,0.01837299999999953,0.39309646398816667,0.5245741355965073,non_fall
7.442297,-0.0847,0.0507,0.3805,-0.134,0.2138,-0.0048,36.5813,6.4125,-19.2375,,0.02150300000000005,0.39309646398816667,0.5137058302507664,non_fall
7.444311,0.1877,0.3255,-0.144,-0.134,0.2138,-0.0048,36.5813,6.4125,-19.2375,,0.0020139999999999603,0.4023897861526806,0.510142099049389,non_fall
7.44536,0.1877,0.3255,-0.144,-0.134,0.2138,-0.0048,36.5813,6.4125,-19.2375,,0.0010490000000000776,0.4023897861526806,0.5128519692688479,non_fall
7.446159,0.1877,0.3255,-0.144,-0.134,0.2138,-0.0048,36.5813,6.4125,-19.2375,,0.0007989999999997721,0.4023897861526806,0.5199489054279648,non_fall
7.48286,0.1877,0.3255,-0.144,-0.2962,-0.0784,-0.2068,36.5813,6.4125,-19.2375,,0.03670099999999987,0.4023897861526806,0.5289240429511171,non_fall
7.484867,0.1877,0.3255,-0.144,-0.2962,-0.0784,-0.2068,36.5813,6.4125,-19.2375,,0.002007000000000758,0.4023897861526806,0.5370173453980435,non_fall
7.485834,0.1877,0.3255,-0.144,-0.2962,-0.0784,-0.2068,36.5813,6.4125,-19.2375,,0.000966999999999274,0.4023897861526806,0.5417010503925979,non_fall
7.503003,-0.1999,0.188,0.6247,-0.2962,-0.0784,-0.2068,36.5813,6.4125,-19.2375,,0.01716899999999999,0.6823152497196586,0.5412339948665433,non_fall
7.504914,-0.1999,0.188,0.6247,-0.2962,-0.0784,-0.2068,36.5813,6.4125,-19.2375,,0.0019110000000006622,0.6823152497196586,0.5352299874728834,non_fall
7.505873,-0.1999,0.188,0.6247,-0.2962,-0.0784,-0.2068,36.9,6.15,-18.6188,,0.0009589999999999321,0.6823152497196586,0.5251712833524805,non_fall
7.537516,-0.1999,0.188,0.6247,-0.2962,-0.0784,-0.2068,36.9,6.15,-18.6188,,0.031642999999999866,0.6823152497196586,0.5147938301475103,non_fall
7.541948,-0.1999,0.188,0.6247,-0.8935,-0.5578,-0.5898,36.9,6.15,-18.6188,,0.004431999999999547,0.6823152497196586,0.5102768383518077,non_fall
7.552823,-0.1999,0.188,0.6247,-0.8935,-0.5578,-0.5898,36.9,6.15,-18.6188,,0.010875000000000412,0.6823152497196586,0.5201838417229857,non_fall
7.564405,-0.1999,0.188,0.6247,-0.8935,-0.5578,-0.5898,36.9938,6.1875,-18.0188,,0.01158199999999976,0.6823152497196586,0.5551219309765758,non_fall
7.566532,-0.0824,1.072,0.4683,-0.8935,-0.5578,-0.5898,36.9938,6.1875,-18.0188,,0.002126999999999768,1.1727227506960032,0.6271073416497747,non_fall
7.568082,-0.0824,1.072,0.4683,-0.8935,-0.5578,-0.5898,36.9938,6.1875,-18.0188,,0.0015500000000008285,1.1727227506960032,0.7486487375879377,non_fall
7.603395,-0.0824,1.072,0.4683,-0.8935,-0.5578,-0.5898,36.9938,6.1875,-18.0188,,0.035312999999999484,1.1727227506960032,0.9315871299639464,non_fall
7.605139,-0.0824,1.072,0.4683,-1.6781,0.0511,-1.3717,36.9938,6.1875,-18.0188,,0.0017440000000004119,1.1727227506960032,1.1857670399584122,non_fall
7.620217,-0.0824,1.072,0.4683,-1.6781,0.0511,-1.3717,36.9938,6.1875,-18.0188,,0.015077999999999925,1.1727227506960032,1.5176558369482096,non_fall
7.622398,-0.0824,1.072,0.4683,-1.6781,0.0511,-1.3717,36.9938,6.1875,-18.0188,,0.0021809999999993224,1.1727227506960032,1.9290671003758582,non_fall
7.62355,0.0166,2.4676,-0.075,-1.6781,0.0511,-1.3717,36.9938,6.1875,-18.0188,,0.001152000000000264,2.4687953175587483,2.4161650011892397,non_fall
7.643483,0.0166,2.4676,-0.075,-1.6781,0.0511,-1.3717,36.7875,7.275,-17.4,,0.01993299999999998,2.4687953175587483,2.968920662591831,non_fall
7.683217,0.0166,2.4676,-0.075,-1.6781,0.0511,-1.3717,36.7875,7.275,-17.4,,0.03973400000000016,2.4687953175587483,3.5711601934262958,non_fall
7.684925,0.0166,2.4676,-0.075,-1.6781,0.0511,-1.3717,36.7875,7.275,-17.4,,0.0017079999999998208,2.4687953175587483,4.20129634407517,non_fall
7.685835,0.0166,2.4676,-0.075,-1.4235,0.2073,-1.0072,36.7875,7.275,-17.4,,0.0009100000000001884,2.4687953175587483,4.833771669472811,non_fall
7.687015,-2.6644,4.5454,5.5422,-1.4235,0.2073,-1.0072,36.7875,7.275,-17.4,,0.0011799999999997368,7.646938561280586,5.441146008507193,non_fall
7.688041,-2.6644,4.5454,5.5422,-1.4235,0.2073,-1.0072,36.7875,7.275,-17.4,,0.0010260000000004155,7.646938561280586,5.996629084222664,non_fall
7.702769,-2.6644,4.5454,5.5422,-1.4235,0.2073,-1.0072,36.5438,8.85,-16.65,,0.014727999999999852,7.646938561280586,6.476727225583583,non_fall
7.745464,-2.6644,4.5454,5.5422,-1.4235,0.2073,-1.0072,36.5438,8.85,-16.65,,0.04269500000000015,7.646938561280586,6.863612152732435,non_fall
7.747376,-2.6644,4.5454,5.5422,-1.4235,0.2073,-1.0072,36.5438,8.85,-16.65,,0.0019119999999999138,7.646938561280586,7.146869697494679,non_fall
7.74842,-2.6644,4.5454,5.5422,-1.4235,0.2073,-1.0072,36.5438,8.85,-16.65,,0.001044000000000267,7.646938561280586,7.324416057201881,non_fall
7.749241,-2.6644,4.5454,5.5422,0.4311,-0.241,0.0509,36.5438,8.85,-16.65,,0.0008209999999992945,7.646938561280586,7.40251266723289,non_fall
7.750486,-4.7249,5.6118,-0.2145,0.4311,-0.241,0.0509,36.5438,8.85,-16.65,,0.0012450000000008288,7.339140923841155,7.3949255056832035,non_fall
7.763154,-4.7249,5.6118,-0.2145,0.4311,-0.241,0.0509,36.1875,10.4625,-16.2188,,0.01266799999999968,7.339140923841155,7.321353378606905,non_fall
7.802867,-4.7249,5.6118,-0.2145,0.4311,-0.241,0.0509,36.1875,10.4625,-16.2188,,0.03971299999999989,7.339140923841155,7.205299580920842,non_fall
7.80481,-4.7249,5.6118,-0.2145,0.4311,-0.241,0.0509,36.1875,10.4625,-16.2188,,0.001942999999999806,7.339140923841155,7.07159007502428,non_fall
7.805731,-4.7249,5.6118,-0.2145,0.4311,-0.241,0.0509,36.1875,10.4625,-16.2188,,0.0009209999999999496,7.339140923841155,6.94375737367635,non_fall
7.806547,4.8476,-2.4789,-1.7592,0.4311,-0.241,0.0509,36.1875,10.4625,-16.2188,,0.000816000000000372,5.72179653692789,6.84152234346916,non_fall
7.807732,4.8476,-2.4789,-1.7592,1.185,1.0556,-0.5822,36.1875,10.4625,-16.2188,,0.0011849999999995475,5.72179653692789,6.778620237496098,non_fall
7.843926,4.8476,-2.4789,-1.7592,1.185,1.0556,-0.5822,36.1875,10.4625,-16.2188,,0.03619400000000006,5.72179653692789,6.761221326714979,non_fall
7.846015,4.8476,-2.4789,-1.7592,1.185,1.0556,-0.5822,35.7188,12.2063,-16.0312,,0.0020890000000006737,5.72179653692789,6.787167825035842,non_fall
7.863516,4.8476,-2.4789,-1.7592,1.185,1.0556,-0.5822,35.7188,12.2063,-16.0312,,0.017500999999999323,5.72179653692789,6.846173149120432,non_fall
7.865975,4.8476,-2.4789,-1.7592,1.185,1.0556,-0.5822,35.7188,12.2063,-16.0312,,0.002458999999999989,5.72179653692789,6.921014420087493,non_fall
7.866872,2.8292,-6.8658,-2.6824,1.185,1.0556,-0.5822,35.7188,12.2063,-16.0312,,0.0008970000000001477,7.8954956804497085,6.98961416969798,non_fall
7.884013,2.8292,-6.8658,-2.6824,0.0736,0.4738,-0.4658,35.7188,12.2063,-16.0312,,0.017141000000000517,7.8954956804497085,7.0277724399755614,non_fall
7.886667,2.8292,-6.8658,-2.6824,0.0736,0.4738,-0.4658,35.7188,12.2063,-16.0312,,0.002653999999999712,7.8954956804497085,7.012200817618285,non_fall
7.903791,2.8292,-6.8658,-2.6824,0.0736,0.4738,-0.4658,35.25,14.0625,-15.9188,,0.017123999999999917,7.8954956804497085,6.923456397459484,non_fall
7.925473,2.8292,-6.8658,-2.6824,0.0736,0.4738,-0.4658,35.25,14.0625,-15.9188,,0.0216820000000002,7.8954956804497085,6.748393133838027,non_fall
7.927414,2.8292,-6.8658,-2.6824,0.0736,0.4738,-0.4658,35.25,14.0625,-15.9188,,0.0019409999999995264,7.8954956804497085,6.481828634884092,non_fall
7.928509,3.1374,-3.9653,-3.1802,0.0736,0.4738,-0.4658,35.25,14.0625,-15.9188,,0.0010950000000002902,5.9733202567751205,6.127240216469121,non_fall
7.944572,3.1374,-3.9653,-3.1802,-0.1951,-0.3454,0.1922,35.25,14.0625,-15.9188,,0.01606299999999994,5.9733202567751205,5.69643431224484,non_fall
7.953576,3.1374,-3.9653,-3.1802,-0.1951,-0.3454,0.1922,35.25,14.0625,-15.9188,,0.009004000000000012,5.9733202567751205,5.208260721416316,non_fall
7.96268,3.1374,-3.9653,-3.1802,-0.1951,-0.3454,0.1922,34.6688,15.8438,-15.825,,0.009103999999999779,5.9733202567751205,4.686549640435847,non_fall
7.9825,-1.075,-0.3039,1.7025,-0.1951,-0.3454,0.1922,34.6688,15.8438,-15.825,,0.01982000000000017,2.0362923316655688,4.157529587601285,non_fall
7.985201,-1.075,-0.3039,1.7025,-0.1951,-0.3454,0.1922,34.6688,15.8438,-15.825,,0.0027010000000000645,2.0362923316655688,3.6470470934588826,non_fall
7.986065,-1.075,-0.3039,1.7025,-0.1951,-0.3454,0.1922,34.6688,15.8438,-15.825,,0.0008639999999999759,2.0362923316655688,3.1779484401864013,non_fall
8.003964,-1.075,-0.3039,1.7025,-0.0374,-0.3389,-0.284,34.6688,15.8438,-15.825,,0.017898999999999887,2.0362923316655688,2.7679666358436426,non_fall
8.02133,-1.075,-0.3039,1.7025,-0.0374,-0.3389,-0.284,34.6688,15.8438,-15.825,,0.01736600000000088,2.0362923316655688,2.428362570343705,non_fall
8.045247,-1.075,-0.3039,1.7025,-0.0374,-0.3389,-0.284,34.6688,15.8438,-15.825,,0.023916999999999078,2.0362923316655688,2.163425467803043,non_fall
8.04694,-1.075,-0.3039,1.7025,-0.0374,-0.3389,-0.284,34.6688,15.8438,-15.825,,0.0016929999999995005,2.0362923316655688,1.9707967453333313,non_fall
8.047731,-1.075,-0.3039,1.7025,-0.0374,-0.3389,-0.284,34.3125,17.625,-15.975,,0.0007910000000013184,2.0362923316655688,1.842477082365665,non_fall
8.048724,-0.7787,-1.4249,1.4689,-0.0374,-0.3389,-0.284,34.3125,17.625,-15.975,,0.0009929999999993555,2.1896074785221207,1.766314822652829,non_fall
8.083481,-0.7787,-1.4249,1.4689,-0.481,-0.1249,-0.2223,34.3125,17.625,-15.975,,0.034757000000000815,2.1896074785221207,1.727748294840834,non_fall
8.086163,-0.7787,-1.4249,1.4689,-0.481,-0.1249,-0.2223,34.3125,17.625,-15.975,,0.002682000000000073,2.1896074785221207,1.7115779480338298,non_fall
8.087202,-0.7787,-1.4249,1.4689,-0.481,-0.1249,-0.2223,34.3125,17.625,-15.975,,0.0010389999999986799,2.1896074785221207,1.7035705717453038,non_fall
8.103696,-0.7787,-1.4249,1.4689,-0.481,-0.1249,-0.2223,34.5,20.175,-17.2313,,0.016493999999999787,2.1896074785221207,1.6917418010326375,non_fall
8.105817,-0.7787,-1.4249,1.4689,-0.481,-0.1249,-0.2223,34.5,20.175,-17.2313,,0.0021210000000007057,2.1896074785221207,1.667218573822553,non_fall
8.106837,-0.004,1.2728,-0.364,-0.481,-0.1249,-0.2223,34.5,20.175,-17.2313,,0.001020000000000465,1.3238322552347785,1.6246444356976768,non_fall
8.143468,-0.004,1.2728,-0.364,-0.481,-0.1249,-0.2223,34.5,20.175,-17.2313,,0.03663099999999986,1.3238322552347785,1.5621514706459794,non_fall
8.145406,-0.004,1.2728,-0.364,-0.7446,-0.1561,-0.2724,34.5,20.175,-17.2313,,0.001937999999999107,1.3238322552347785,1.4809737359531396,non_fall
8.15332,-0.004,1.2728,-0.364,-0.7446,-0.1561,-0.2724,34.5,20.175,-17.2313,,0.007914000000001309,1.3238322552347785,1.3848069612919798,non_fall
8.164245,-0.004,1.2728,-0.364,-0.7446,-0.1561,-0.2724,34.125,21.3,-17.2125,,0.01092499999999852,1.3238322552347785,1.2790235925933116,non_fall
8.166136,-0.004,1.2728,-0.364,-0.7446,-0.1561,-0.2724,34.125,21.3,-17.2125,,0.0018910000000005311,1.3238322552347785,1.1698395684754266,non_fall
8.1674,-0.2042,0.5479,0.1208,-0.7446,-0.1561,-0.2724,34.125,21.3,-17.2125,,0.00126400000000082,0.5970633885945446,1.0635138952672571,non_fall
8.202587,-0.2042,0.5479,0.1208,-1.1429,-0.2292,-0.2506,34.125,21.3,-17.2125,,0.03518699999999875,0.5970633885945446,0.9656522634543807,non_fall
8.204704,-0.2042,0.5479,0.1208,-1.1429,-0.2292,-0.2506,34.125,21.3,-17.2125,,0.0021170000000001465,0.5970633885945446,0.8806783853740376,non_fall
8.220661,-0.2042,0.5479,0.1208,-1.1429,-0.2292,-0.2506,34.125,21.3,-17.2125,,0.01595700000000022,0.5970633885945446,0.8115217484054242,non_fall
8.222414,-0.1012,0.1779,0.7743,-1.1429,-0.2292,-0.2506,34.125,21.3,-17.2125,,0.0017530000000007817,0.8008934635767732,0.7595425870067744,non_fall
8.223561,-0.1012,0.1779,0.7743,-1.1429,-0.2292,-0.2506,34.125,21.3,-17.2125,,0.001146999999999565,0.8008934635767732,0.7246791299810387,non_fall
8.242555,-0.1012,0.1779,0.7743,-1.1429,-0.2292,-0.2506,33.9,22.2188,-17.2313,,0.01899399999999929,0.8008934635767732,0.7057697416404092,non_fall
8.283754,-0.1012,0.1779,0.7743,-1.5914,-0.4387,-0.1903,33.9,22.2188,-17.2313,,0.04119900000000065,0.8008934635767732,0.7009820595569528,non_fall
8.286703,-0.1514,0.5009,0.7526,-1.5914,-0.4387,-0.1903,33.9,22.2188,-17.2313,,0.0029489999999992023,0.9166403493191865,0.7082747194216161,non_fall
8.288615,-0.1514,0.5009,0.7526,-1.5914,-0.4387,-0.1903,33.9,22.2188,-17.2313,,0.001912000000000802,0.9166403493191865,0.7258219292479977,non_fall
8.28962,-0.1514,0.5009,0.7526,-1.5914,-0.4387,-0.1903,33.9,22.2188,-17.2313,,0.0010049999999992565,0.9166403493191865,0.7523432132901839,non_fall
8.290827,-0.1514,0.5009,0.7526,-1.5914,-0.4387,-0.1903,33.9,22.2188,-17.2313,,0.0012070000000008463,0.9166403493191865,0.7872978073691257,non_fall
8.302671,-0.1514,0.5009,0.7526,-1.5914,-0.4387,-0.1903,33.6375,23.4,-16.575,,0.011843999999999966,0.9166403493191865,0.830923921371407,non_fall
8.344672,-0.1514,0.5009,0.7526,-1.5914,-0.4387,-0.1903,33.6375,23.4,-16.575,,0.04200099999999907,0.9166403493191865,0.8841250134793194,non_fall
8.346502,-0.1514,0.5009,0.7526,-1.5914,-0.4387,-0.1903,33.6375,23.4,-16.575,,0.0018299999999999983,0.9166403493191865,0.9482253755278128,non_fall
8.347343,-0.1514,0.5009,0.7526,-1.5914,-0.4387,-0.1903,33.6375,23.4,-16.575,,0.0008410000000012019,0.9166403493191865,1.0246332888600487,non_fall
8.348113,-0.1514,0.5009,0.7526,-2.149,-0.4742,-0.2472,33.6375,23.4,-16.575,,0.0007699999999992713,0.9166403493191865,1.1144601185183656,non_fall
8.349414,-0.3435,0.5754,1.1613,-2.149,-0.4742,-0.2472,33.6375,23.4,-16.575,,0.0013009999999997746,1.340781525827381,1.2181468056490545,non_fall
8.363539,-0.3435,0.5754,1.1613,-2.149,-0.4742,-0.2472,33.2812,24.6938,-15.5063,,0.014124999999999943,1.340781525827381,1.3351453775134792,non_fall
8.404305,-0.3435,0.5754,1.1613,-2.149,-0.4742,-0.2472,33.2812,24.6938,-15.5063,,0.04076600000000141,1.340781525827381,1.4636951313458315,non_fall
8.406307,-0.3435,0.5754,1.1613,-2.149,-0.4742,-0.2472,33.2812,24.6938,-15.5063,,0.002001999999999171,1.340781525827381,1.6007255350092826,non_fall
8.407453,-0.3435,0.5754,1.1613,-2.149,-0.4742,-0.2472,33.2812,24.6938,-15.5063,,0.0011460000000003134,1.340781525827381,1.7419119927013442,non_fall
8.4086,-0.3435,0.5754,1.1613,-2.0129,-1.267,0.0748,33.2812,24.6938,-15.5063,,0.001146999999999565,1.340781525827381,1.8819017465518797,non_fall
8.41033,-0.55,1.4392,1.8679,-2.0129,-1.267,0.0748,33.2812,24.6938,-15.5063,,0.0017300000000002314,2.421331668731072,2.014708345350784,non_fall
8.443258,-0.55,1.4392,1.8679,-2.0129,-1.267,0.0748,33.2812,24.6938,-15.5063,,0.03292800000000007,2.421331668731072,2.1342428626689274,non_fall
8.445232,-0.55,1.4392,1.8679,-2.0129,-1.267,0.0748,33.0,25.7063,-14.1938,,0.0019740000000005864,2.421331668731072,2.234917650955483,non_fall
8.453533,-0.55,1.4392,1.8679,-2.0129,-1.267,0.0748,33.0,25.7063,-14.1938,,0.008300999999999448,2.421331668731072,2.312239613888421,non_fall
8.464024,-0.55,1.4392,1.8679,-2.0129,-1.267,0.0748,33.0,25.7063,-14.1938,,0.010491000000000028,2.421331668731072,2.3633135927995115,non_fall
8.465387,-0.4175,1.4309,2.0293,-2.0129,-1.267,0.0748,33.0,25.7063,-14.1938,,0.001362999999999559,2.5179038007835013,2.3871963831261254,non_fall
8.483584,-0.4175,1.4309,2.0293,-1.9762,-2.3378,0.5275,33.0,25.7063,-14.1938,,0.018197000000000685,2.5179038007835013,2.3850651208140237,non_fall
8.486443,-0.4175,1.4309,2.0293,-1.9762,-2.3378,0.5275,33.0,25.7063,-14.1938,,0.0028589999999990567,2.5179038007835013,2.3601829815613344,non_fall
8.504436,-0.4175,1.4309,2.0293,-1.9762,-2.3378,0.5275,32.7,26.5688,-13.05,,0.017993000000000592,2.5179038007835013,2.317661033523034,non_fall
8.523348,-0.4175,1.4309,2.0293,-1.9762,-2.3378,0.5275,32.7,26.5688,-13.05,,0.018912000000000262,2.5179038007835013,2.2640311626649128,non_fall
8.525073,-0.4175,1.4309,2.0293,-1.9762,-2.3378,0.5275,32.7,26.5688,-13.05,,0.0017250000000004206,2.5179038007835013,2.2066637398752085,non_fall
8.525864,-0.3123,0.2563,1.5946,-1.9762,-2.3378,0.5275,32.7,26.5688,-13.05,,0.0007909999999995421,1.6449833251434496,2.1530860514150163,non_fall
8.543894,-0.3123,0.2563,1.5946,-1.3867,-2.3766,0.256,32.7,26.5688,-13.05,,0.018029999999999546,1.6449833251434496,2.110281455614542,non_fall
8.555115,-0.3123,0.2563,1.5946,-1.3867,-2.3766,0.256,32.7,26.5688,-13.05,,0.011221000000000814,1.6449833251434496,2.084066706599884,non_fall
8.563282,-0.3123,0.2563,1.5946,-1.3867,-2.3766,0.256,32.2313,27.3,-12.1688,,0.008166999999998481,1.6449833251434496,2.0786436265934354,non_fall
8.583587,-0.3123,0.2563,1.5946,-1.3867,-2.3766,0.256,32.2313,27.3,-12.1688,,0.02030500000000046,1.6449833251434496,2.0963945259999885,non_fall
8.586331,-0.3123,0.2563,1.5946,-1.3867,-2.3766,0.256,32.2313,27.3,-12.1688,,0.0027439999999998577,1.6449833251434496,2.1379435290049615,non_fall
8.58739,-0.3722,0.3473,2.9825,-1.3867,-2.3766,0.256,32.2313,27.3,-12.1688,,0.001058999999999699,3.02563321967485,2.202449676013811,non_fall
