time,ax,ay,az,wx,wy,wz,Bx,By,Bz,Unnamed: 10,time_diff,acc_mag,acc_mag_filtered,label
0.023485,0.0,0.0,0.0,0.0,0.0,0.0,8.7,33.72,-22.8,,0.0,0.0,-0.019726806981765536,non_fall
0.035698,0.0,0.0,0.0,0.0021,0.0096,0.0064,8.7,33.72,-22.8,,0.012213000000000002,0.0,-0.024661656142724357,non_fall
0.03988,0.0,0.0,0.0,0.0021,0.0096,0.0064,8.7,33.72,-22.8,,0.004181999999999998,0.0,-0.027509490787671738,non_fall
0.05501,0.0,0.0,0.0,0.0021,0.0096,0.0064,8.7,33.72,-22.8,,0.015130000000000005,0.0,-0.027123630075444584,non_fall
0.076294,0.0,0.0,0.0,0.0469,0.0442,-0.0186,8.7,33.72,-22.8,,0.021283999999999997,0.0,-0.022489109170712288,non_fall
0.085158,0.0,0.0,0.0,0.0469,0.0442,-0.0186,-4.86,27.36,-30.36,,0.008863999999999997,0.0,-0.012842478858974247,non_fall
0.095944,0.0,0.0,0.0,0.0506,0.0591,-0.0368,-4.86,27.36,-30.36,,0.010786000000000004,0.0,0.002206340997906044,non_fall
0.101444,0.0,0.0,0.0,0.0506,0.0591,-0.0368,-4.86,27.36,-30.36,,0.005500000000000005,0.0,0.02256175799923534,non_fall
0.102207,0.0191,0.0369,0.0015,0.0506,0.0591,-0.0368,-4.86,27.36,-30.36,,0.0007629999999999998,0.04157727744814468,0.04755348195311694,non_fall
0.117728,0.0191,0.0369,0.0015,0.0266,0.0921,-0.057,-4.86,27.36,-30.36,,0.015520999999999993,0.04157727744814468,0.07588559133413288,non_fall
0.137094,0.0191,0.0369,0.0015,-0.0192,0.1278,-0.0357,-4.86,27.36,-30.36,,0.019365999999999994,0.04157727744814468,0.10563835073891913,non_fall
0.146557,0.0191,0.0369,0.0015,-0.0192,0.1278,-0.0357,-11.34,24.0,-33.72,,0.009463,0.04157727744814468,0.13433602118256474,non_fall
0.15988,0.0191,0.0369,0.0015,-0.0426,0.0746,0.0117,-11.34,24.0,-33.72,,0.013323000000000002,0.04157727744814468,0.15909101450445315,non_fall
0.161593,0.0191,0.0369,0.0015,-0.0426,0.0746,0.0117,-11.34,24.0,-33.72,,0.0017129999999999923,0.04157727744814468,0.17682978022102533,non_fall
0.16215,0.0749,-0.0586,0.1088,-0.0426,0.0746,0.0117,-11.34,24.0,-33.72,,0.0005570000000000019,0.14450401378508487,0.18459817583633992,non_fall
0.178126,0.0749,-0.0586,0.1088,-0.0362,0.0415,-0.0059,-11.34,24.0,-33.72,,0.015976000000000018,0.14450401378508487,0.1799338797405173,non_fall
0.199161,0.0749,-0.0586,0.1088,0.0176,0.0037,-0.0218,-11.34,24.0,-33.72,,0.021034999999999998,0.14450401378508487,0.16128197422302995,non_fall
0.207774,0.0749,-0.0586,0.1088,0.0176,0.0037,-0.0218,-17.34,20.52,-37.8,,0.008612999999999982,0.14450401378508487,0.1284193017413293,non_fall
0.219602,0.0749,-0.0586,0.1088,0.0426,0.0085,-0.0202,-17.34,20.52,-37.8,,0.011828000000000005,0.14450401378508487,0.0828453837301718,non_fall
0.225048,0.0749,-0.0586,0.1088,0.0426,0.0085,-0.0202,-17.34,20.52,-37.8,,0.005446000000000006,0.14450401378508487,0.028093292146204655,non_fall
0.225782,-0.154,0.033,-0.0022,0.0426,0.0085,-0.0202,-17.34,20.52,-37.8,,0.0007340000000000124,0.15751139641308498,-0.03008694570698333,non_fall
0.24016,-0.154,0.033,-0.0022,0.0341,0.0101,-0.0059,-17.34,20.52,-37.8,,0.014378000000000002,0.15751139641308498,-0.08371647128199265,non_fall
0.259803,-0.154,0.033,-0.0022,0.032,0.0048,-0.0037,-17.34,20.52,-37.8,,0.019642999999999994,0.15751139641308498,-0.1227827191930155,non_fall
0.269398,-0.154,0.033,-0.0022,0.032,0.0048,-0.0037,-16.98,20.58,-37.68,,0.00959500000000002,0.15751139641308498,-0.13566222750628348,non_fall
0.281087,-0.154,0.033,-0.0022,0.0991,-0.016,-0.0112,-16.98,20.58,-37.68,,0.01168899999999995,0.15751139641308498,-0.10977060128191317,non_fall
0.285061,-0.154,0.033,-0.0022,0.0991,-0.016,-0.0112,-16.98,20.58,-37.68,,0.003974000000000033,0.15751139641308498,-0.03241230781499742,non_fall
0.285636,-0.0485,-0.0718,0.0302,0.0991,-0.016,-0.0112,-16.98,20.58,-37.68,,0.0005749999999999922,0.09175799692669843,0.10822725424454911,non_fall
0.301124,-0.0485,-0.0718,0.0302,0.1694,0.0405,-0.0421,-16.98,20.58,-37.68,,0.015488000000000002,0.09175799692669843,0.32203508193731534,non_fall
0.322518,-0.0485,-0.0718,0.0302,0.0767,0.2972,-0.2589,-16.98,20.58,-37.68,,0.021394000000000024,0.09175799692669843,0.6159816532391648,non_fall
0.331262,-0.0485,-0.0718,0.0302,0.0767,0.2972,-0.2589,-16.86,20.7,-37.86,,0.008743999999999974,0.09175799692669843,0.9933144966811164,non_fall
0.34247,-0.0485,-0.0718,0.0302,-0.6456,1.4594,-0.9742,-16.86,20.7,-37.86,,0.011207999999999996,0.09175799692669843,1.453051244341626,non_fall
0.346737,-0.0485,-0.0718,0.0302,-0.6456,1.4594,-0.9742,-16.86,20.7,-37.86,,0.004267000000000021,0.09175799692669843,1.9898533759154031,non_fall
0.347192,2.3581,2.7952,-3.4442,-0.6456,1.4594,-0.9742,-16.86,20.7,-37.86,,0.0004549999999999832,5.023573657268299,2.594292023413041,non_fall
0.362956,2.3581,2.7952,-3.4442,-1.6666,3.0461,-2.5007,-16.86,20.7,-37.86,,0.015764,5.023573657268299,3.253420573640153,non_fall
0.383921,2.3581,2.7952,-3.4442,-0.6163,3.2309,-2.7894,-16.86,20.7,-37.86,,0.02096500000000001,5.023573657268299,3.9514822901267523,non_fall
0.393928,2.3581,2.7952,-3.4442,-0.6163,3.2309,-2.7894,-17.1,20.22,-38.4,,0.010006999999999988,5.023573657268299,4.670560530179814,non_fall
0.404161,2.3581,2.7952,-3.4442,0.849,1.5068,-1.8594,-17.1,20.22,-38.4,,0.010232999999999992,5.023573657268299,5.391048916154959,non_fall
0.408492,2.3581,2.7952,-3.4442,0.849,1.5068,-1.8594,-17.1,20.22,-38.4,,0.004331000000000029,5.023573657268299,6.091940608491554,non_fall
0.409131,-0.9049,6.7123,1.7406,0.849,1.5068,-1.8594,-17.1,20.22,-38.4,,0.0006390000000000007,6.993104007520552,6.75104169924395,non_fall
0.424278,-0.9049,6.7123,1.7406,1.2181,-0.1342,-1.0589,-17.1,20.22,-38.4,,0.015146999999999966,6.993104007520552,7.345261792684644,non_fall
0.445193,-0.9049,6.7123,1.7406,0.6093,0.8756,-0.6908,-17.1,20.22,-38.4,,0.020915000000000017,6.993104007520552,7.851127338056789,non_fall
0.453955,-0.9049,6.7123,1.7406,0.6093,0.8756,-0.6908,-16.92,20.22,-38.76,,0.008761999999999992,6.993104007520552,8.245626146916175,non_fall
0.465276,-0.9049,6.7123,1.7406,-0.4186,1.6123,-0.4634,-16.92,20.22,-38.76,,0.011321000000000025,6.993104007520552,8.507442724741242,non_fall
0.469877,-0.9049,6.7123,1.7406,-0.4186,1.6123,-0.4634,-16.92,20.22,-38.76,,0.004600999999999966,6.993104007520552,8.618578487451028,non_fall
0.470366,-1.2271,-9.7252,-0.5238,-0.4186,1.6123,-0.4634,-16.92,20.22,-38.76,,0.0004890000000000172,9.816295425974097,8.566254681070445,non_fall
0.486256,-1.2271,-9.7252,-0.5238,-0.3196,0.6189,0.0559,-16.92,20.22,-38.76,,0.015890000000000015,9.816295425974097,8.344872803302747,non_fall
0.506559,-1.2271,-9.7252,-0.5238,0.4016,-0.1364,-0.0128,-16.92,20.22,-38.76,,0.02030299999999996,9.816295425974097,7.957692905056625,non_fall
0.51562,-1.2271,-9.7252,-0.5238,0.4016,-0.1364,-0.0128,-16.5,19.26,-39.3,,0.009060999999999986,9.816295425974097,7.417837684835434,non_fall
0.527445,-1.2271,-9.7252,-0.5238,0.2999,-0.326,-0.13,-16.5,19.26,-39.3,,0.011825000000000085,9.816295425974097,6.748276914478904,non_fall
0.532299,-1.2271,-9.7252,-0.5238,0.2999,-0.326,-0.13,-16.5,19.26,-39.3,,0.004853999999999914,9.816295425974097,5.980593174699752,non_fall
0.533341,0.7269,0.9683,-0.3338,0.2999,-0.326,-0.13,-16.5,19.26,-39.3,,0.0010419999999999874,1.25595021398143,5.152553918069759,non_fall
0.548223,0.7269,0.9683,-0.3338,-0.0533,-0.3792,-0.1507,-16.5,19.26,-39.3,,0.014882000000000062,1.25595021398143,4.304779311027228,non_fall
0.568835,0.7269,0.9683,-0.3338,-0.0975,-0.2738,-0.0911,-16.5,19.26,-39.3,,0.020611999999999964,1.25595021398143,3.4770255199025812,non_fall
0.577462,0.7269,0.9683,-0.3338,-0.0975,-0.2738,-0.0911,-15.66,18.48,-39.72,,0.008627000000000051,1.25595021398143,2.7046969290189153,non_fall
0.590676,0.7269,0.9683,-0.3338,-0.041,0.024,0.0059,-15.66,18.48,-39.72,,0.013213999999999948,1.25595021398143,2.0161091608488335,non_fall
0.593122,0.7269,0.9683,-0.3338,-0.041,0.024,0.0059,-15.66,18.48,-39.72,,0.0024460000000000592,1.25595021398143,1.4308060991135996,non_fall
0.594054,-0.7833,-0.0593,-0.3995,-0.041,0.024,0.0059,-15.66,18.48,-39.72,,0.0009319999999999329,0.8812920231115223,0.9589981929940626,non_fall
0.61006,-0.7833,-0.0593,-0.3995,0.0314,0.2722,0.0613,-15.66,18.48,-39.72,,0.016006000000000076,0.8812920231115223,0.602009010836983,non_fall
0.630427,-0.7833,-0.0593,-0.3995,0.1092,0.2786,0.0943,-15.66,18.48,-39.72,,0.020366999999999913,0.8812920231115223,0.35350777963295393,non_fall
0.641452,-0.7833,-0.0593,-0.3995,0.1092,0.2786,0.0943,-15.24,18.42,-40.2,,0.011025000000000063,0.8812920231115223,0.20125532068084684,non_fall
0.650852,-0.7833,-0.0593,-0.3995,0.0762,0.179,0.0852,-15.24,18.42,-40.2,,0.009399999999999964,0.8812920231115223,0.12908438956897142,non_fall
0.654798,-0.7833,-0.0593,-0.3995,0.0762,0.179,0.0852,-15.24,18.42,-40.2,,0.003946000000000005,0.8812920231115223,0.11886257015338074,non_fall
0.655673,0.3078,-0.033,-0.1005,0.0762,0.179,0.0852,-15.24,18.42,-40.2,,0.0008749999999999591,0.3254690307848045,0.15223892674936493,non_fall
0.670836,0.3078,-0.033,-0.1005,-0.0032,0.073,0.0629,-15.24,18.42,-40.2,,0.015163000000000038,0.3254690307848045,0.21204523674535572,non_fall
0.691707,0.3078,-0.033,-0.1005,-0.0586,-0.016,0.0277,-15.24,18.42,-40.2,,0.020870999999999973,0.3254690307848045,0.28329551782772716,non_fall
0.700405,0.3078,-0.033,-0.1005,-0.0586,-0.016,0.0277,-14.58,17.94,-40.56,,0.008698000000000095,0.3254690307848045,0.353789279476754,non_fall
0.711945,0.3078,-0.033,-0.1005,-0.0511,-0.0245,0.0027,-14.58,17.94,-40.56,,0.011539999999999995,0.3254690307848045,0.41436550197936733,non_fall
0.716389,0.3078,-0.033,-0.1005,-0.0511,-0.0245,0.0027,-14.58,17.94,-40.56,,0.0044440000000000035,0.3254690307848045,0.4588760085636416,non_fall
0.71738,-0.0229,-0.2858,0.1858,-0.0511,-0.0245,0.0027,-14.58,17.94,-40.56,,0.0009909999999999641,0.3416543428671733,0.48395423430737955,non_fall
0.732969,-0.0229,-0.2858,0.1858,0.0011,-0.0277,-0.0016,-14.58,17.94,-40.56,,0.015588999999999964,0.3416543428671733,0.4886533904941829,non_fall
0.752827,-0.0229,-0.2858,0.1858,0.0213,-0.0554,0.0458,-14.58,17.94,-40.56,,0.019858000000000042,0.3416543428671733,0.47401947643417364,non_fall
0.762045,-0.0229,-0.2858,0.1858,0.0213,-0.0554,0.0458,-14.4,18.3,-40.98,,0.009217999999999948,0.3416543428671733,0.4426515666223932,non_fall
0.773664,-0.0229,-0.2858,0.1858,-0.057,-0.1097,0.0261,-14.4,18.3,-40.98,,0.011619000000000046,0.3416543428671733,0.3982864410726308,non_fall
0.778044,-0.0229,-0.2858,0.1858,-0.057,-0.1097,0.0261,-14.4,18.3,-40.98,,0.0043799999999999395,0.3416543428671733,0.345429022626451,non_fall
0.778884,-0.1555,0.182,-0.0984,-0.057,-0.1097,0.0261,-14.4,18.3,-40.98,,0.0008400000000000629,0.2588181021489803,0.2890361103523493,non_fall
0.794791,-0.1555,0.182,-0.0984,-0.1326,-0.0852,-0.0288,-14.4,18.3,-40.98,,0.015907000000000004,0.2588181021489803,0.2342499927212572,non_fall
0.815272,-0.1555,0.182,-0.0984,-0.0383,0.1358,-0.0442,-14.4,18.3,-40.98,,0.02048099999999997,0.2588181021489803,0.18617132084309657,non_fall
0.824107,-0.1555,0.182,-0.0984,-0.0383,0.1358,-0.0442,-14.28,18.42,-40.56,,0.008835000000000037,0.2588181021489803,0.14965698908384245,non_fall
0.835328,-0.1555,0.182,-0.0984,-0.1246,-0.0176,-0.1475,-14.28,18.42,-40.56,,0.011220999999999925,0.2588181021489803,0.12912856511167772,non_fall
0.840448,-0.1555,0.182,-0.0984,-0.1246,-0.0176,-0.1475,-14.28,18.42,-40.56,,0.005120000000000013,0.2588181021489803,0.12838038700567048,non_fall
0.841475,-0.1281,0.0618,-0.0538,-0.1246,-0.0176,-0.1475,-14.28,18.42,-40.56,,0.0010270000000000001,0.15206344070814654,0.15038406143069402,non_fall
0.856234,-0.1281,0.0618,-0.0538,-0.498,-0.6349,-0.3665,-14.28,18.42,-40.56,,0.014759000000000078,0.15206344070814654,0.1970968486832034,non_fall
0.876595,-0.1281,0.0618,-0.0538,-0.5092,-0.8464,-0.5209,-14.28,18.42,-40.56,,0.020360999999999962,0.15206344070814654,0.269292746606753,non_fall
0.885637,-0.1281,0.0618,-0.0538,-0.5092,-0.8464,-0.5209,-13.44,18.18,-40.74,,0.009041999999999994,0.15206344070814654,0.36644336395088084,non_fall
0.898056,-0.1281,0.0618,-0.0538,-0.1694,-0.849,-0.6748,-13.44,18.18,-40.74,,0.012418999999999958,0.15206344070814654,0.4866776086221113,non_fall
0.901645,-0.1281,0.0618,-0.0538,-0.1694,-0.849,-0.6748,-13.44,18.18,-40.74,,0.0035890000000000644,0.15206344070814654,0.6268426917106853,non_fall
0.902276,-0.8859,0.7602,0.6081,-0.1694,-0.849,-0.6748,-13.44,18.18,-40.74,,0.0006309999999999372,1.3162478717931514,0.7826730099300243,non_fall
0.917672,-0.8859,0.7602,0.6081,0.1747,-0.6338,-0.6578,-13.44,18.18,-40.74,,0.015396000000000076,1.3162478717931514,0.9490500916655953,non_fall
0.937706,-0.8859,0.7602,0.6081,0.2828,-0.5326,-0.6365,-13.44,18.18,-40.74,,0.020033999999999996,1.3162478717931514,1.120314582032166,non_fall
0.946489,-0.8859,0.7602,0.6081,0.2828,-0.5326,-0.6365,-13.56,18.54,-40.56,,0.008782999999999985,1.3162478717931514,1.2905832124595356,non_fall
0.958295,-0.8859,0.7602,0.6081,0.1901,-0.4591,-0.7009,-13.56,18.54,-40.56,,0.011805999999999983,1.3162478717931514,1.4540356856317933,non_fall
0.9622,-0.8859,0.7602,0.6081,0.1901,-0.4591,-0.7009,-13.56,18.54,-40.56,,0.0039050000000000473,1.3162478717931514,1.6051596037240012,non_fall
0.962779,1.0065,-1.5871,-0.163,0.1901,-0.4591,-0.7009,-13.56,18.54,-40.56,,0.0005789999999999962,1.886398065096548,1.73896047195114,non_fall
0.978658,1.0065,-1.5871,-0.163,0.066,-0.7888,-0.449,-13.56,18.54,-40.56,,0.015878999999999976,1.886398065096548,1.8511495287241333,non_fall
0.999113,1.0065,-1.5871,-0.163,0.2083,-0.3467,0.1502,-13.56,18.54,-40.56,,0.020455,1.886398065096548,1.9383169860771607,non_fall
1.008234,1.0065,-1.5871,-0.163,0.2083,-0.3467,0.1502,-14.28,18.6,-39.84,,0.009121000000000046,1.886398065096548,1.998090529767715,non_fall
1.020128,1.0065,-1.5871,-0.163,0.2264,-0.1886,0.041,-14.28,18.6,-39.84,,0.01189399999999985,1.886398065096548,2.0292743395560313,non_fall
1.024542,1.0065,-1.5871,-0.163,0.2264,-0.1886,0.041,-14.28,18.6,-39.84,,0.00441400000000014,1.886398065096548,2.0319611990015165,non_fall
1.025491,2.091,-0.3631,-0.4737,0.2264,-0.1886,0.041,-14.28,18.6,-39.84,,0.0009489999999998666,2.174514727473696,2.0076050205080467,non_fall
1.040382,2.091,-0.3631,-0.4737,0.2525,0.066,-0.0069,-14.28,18.6,-39.84,,0.014890999999999988,2.174514727473696,1.9590320682008389,non_fall
1.061225,2.091,-0.3631,-0.4737,0.3137,0.7521,0.2296,-14.28,18.6,-39.84,,0.020843000000000167,2.174514727473696,1.8903604093212774,non_fall
1.070484,2.091,-0.3631,-0.4737,0.3137,0.7521,0.2296,-15.72,18.54,-39.96,,0.009258999999999906,2.174514727473696,1.806795408764207,non_fall
1.08142,2.091,-0.3631,-0.4737,0.3095,1.4482,0.3649,-15.72,18.54,-39.96,,0.010936000000000057,2.174514727473696,1.7142793553796483,non_fall
1.086026,2.091,-0.3631,-0.4737,0.3095,1.4482,0.3649,-15.72,18.54,-39.96,,0.004605999999999888,2.174514727473696,1.6189964347666752,non_fall
1.086872,-0.0495,0.1408,-0.8146,0.3095,1.4482,0.3649,-15.72,18.54,-39.96,,0.0008460000000001244,0.828159435133115,1.5267681256651264,non_fall
1.102679,-0.0495,0.1408,-0.8146,0.1619,1.4924,0.3233,-15.72,18.54,-39.96,,0.015806999999999904,0.828159435133115,1.4424133049351227,non_fall
1.122879,-0.0495,0.1408,-0.8146,-0.0064,0.7595,0.1896,-15.72,18.54,-39.96,,0.020199999999999996,0.828159435133115,1.3691794350282904,non_fall
1.131679,-0.0495,0.1408,-0.8146,-0.0064,0.7595,0.1896,-17.1,18.24,-39.48,,0.008800000000000141,0.828159435133115,1.3083588228710648,non_fall
1.143321,-0.0495,0.1408,-0.8146,-0.0618,-0.0511,0.1268,-17.1,18.24,-39.48,,0.01164199999999993,0.828159435133115,1.2591780338938992,non_fall
1.148486,-0.0495,0.1408,-0.8146,-0.0618,-0.0511,0.1268,-17.1,18.24,-39.48,,0.005164999999999864,0.828159435133115,1.2189971562895643,non_fall
1.149414,-0.7626,-0.0398,1.3535,-0.0618,-0.0511,0.1268,-17.1,18.24,-39.48,,0.0009280000000000399,1.5540608257079256,1.1837955659552888,non_fall
1.163373,-0.7626,-0.0398,1.3535,0.0373,-0.3542,-0.0123,-17.1,18.24,-39.48,,0.013959000000000055,1.5540608257079256,1.148865832229083,non_fall
1.184096,-0.7626,-0.0398,1.3535,0.098,-0.0538,0.0027,-17.1,18.24,-39.48,,0.020723000000000047,1.5540608257079256,1.1095974235411812,non_fall
1.192911,-0.7626,-0.0398,1.3535,0.098,-0.0538,0.0027,-17.52,17.52,-39.6,,0.008815000000000017,1.5540608257079256,1.0622161163694008,non_fall
1.205174,-0.7626,-0.0398,1.3535,0.1172,0.0975,0.0043,-17.52,17.52,-39.6,,0.012262999999999913,1.5540608257079256,1.0043577070624532,non_fall
1.209364,-0.7626,-0.0398,1.3535,0.1172,0.0975,0.0043,-17.52,17.52,-39.6,,0.004190000000000138,1.5540608257079256,0.9353909885428118,non_fall
1.210517,0.3032,-0.039,-0.2898,0.1172,0.0975,0.0043,-17.52,17.52,-39.6,,0.0011529999999999596,0.4212306731471487,0.8564553925893981,non_fall
1.225395,0.3032,-0.039,-0.2898,0.0772,0.1742,0.0229,-17.52,17.52,-39.6,,0.014877999999999947,0.4212306731471487,0.7702335474508436,non_fall
1.245626,0.3032,-0.039,-0.2898,0.0671,0.1896,0.0288,-17.52,17.52,-39.6,,0.020230999999999888,0.4212306731471487,0.6805263703225676,non_fall
1.254984,0.3032,-0.039,-0.2898,0.0671,0.1896,0.0288,-16.92,16.86,-39.96,,0.0093580000000002,0.4212306731471487,0.5917241880500158,non_fall
1.266213,0.3032,-0.039,-0.2898,0.0783,0.221,0.0144,-16.92,16.86,-39.96,,0.011228999999999933,0.4212306731471487,0.5082653701592809,non_fall
1.270558,0.3032,-0.039,-0.2898,0.0783,0.221,0.0144,-16.92,16.86,-39.96,,0.004345000000000043,0.4212306731471487,0.43415221021762357,non_fall
1.271448,0.1531,-0.1026,0.1621,0.0783,0.221,0.0144,-16.92,16.86,-39.96,,0.0008899999999998354,0.24544404657681146,0.3725673744395705,non_fall
1.287,0.1531,-0.1026,0.1621,0.1001,0.2003,-0.0085,-16.92,16.86,-39.96,,0.01555200000000001,0.24544404657681146,0.3256130348904778,non_fall
1.307505,0.1531,-0.1026,0.1621,0.139,0.131,-0.025,-16.92,16.86,-39.96,,0.020504999999999995,0.24544404657681146,0.29418028817852215,non_fall
1.315666,0.1531,-0.1026,0.1621,0.139,0.131,-0.025,-15.9,16.62,-40.32,,0.008161000000000085,0.24544404657681146,0.27794583637852893,non_fall
1.327147,0.1531,-0.1026,0.1621,0.1411,0.1603,-0.0229,-15.9,16.62,-40.32,,0.011481000000000074,0.24544404657681146,0.2754836527504639,non_fall
1.332078,0.1531,-0.1026,0.1621,0.1411,0.1603,-0.0229,-15.9,16.62,-40.32,,0.004931000000000019,0.24544404657681146,0.2844710101806645,non_fall
1.332863,-0.3455,0.2527,0.0741,0.1411,0.1603,-0.0229,-15.9,16.62,-40.32,,0.0007849999999998136,0.43441725334061027,0.30196148612371154,non_fall
1.348205,-0.3455,0.2527,0.0741,0.1204,0.2791,0.0096,-15.9,16.62,-40.32,,0.015342000000000189,0.43441725334061027,0.3246929441266101,non_fall
1.368915,-0.3455,0.2527,0.0741,0.1358,0.3414,0.0346,-15.9,16.62,-40.32,,0.020710000000000006,0.43441725334061027,0.349396825746026,non_fall
1.378233,-0.3455,0.2527,0.0741,0.1358,0.3414,0.0346,-14.7,16.62,-41.04,,0.009317999999999937,0.43441725334061027,0.373077624465412,non_fall
1.389902,-0.3455,0.2527,0.0741,0.1406,0.3031,0.0671,-14.7,16.62,-41.04,,0.01166899999999993,0.43441725334061027,0.3932384115563614,non_fall
1.394374,-0.3455,0.2527,0.0741,0.1406,0.3031,0.0671,-14.7,16.62,-41.04,,0.0044720000000000315,0.43441725334061027,0.40803788365520977,non_fall
1.395301,-0.4089,0.0694,-0.0467,0.1406,0.3031,0.0671,-14.7,16.62,-41.04,,0.0009269999999999001,0.4173684942589701,0.416373859496945,non_fall
1.409991,-0.4089,0.0694,-0.0467,0.1443,0.2866,0.0911,-14.7,16.62,-41.04,,0.014690000000000092,0.4173684942589701,0.417895714644064,non_fall
1.431816,-0.4089,0.0694,-0.0467,0.1252,0.302,0.0964,-14.7,16.62,-41.04,,0.021824999999999983,0.4173684942589701,0.4129534770887788,non_fall
1.443697,-0.4089,0.0694,-0.0467,0.1252,0.302,0.0964,-14.34,16.32,-41.1,,0.01188100000000003,0.4173684942589701,0.4024944577241912,non_fall
1.451875,-0.4089,0.0694,-0.0467,0.0858,0.2898,0.0863,-14.34,16.32,-41.1,,0.008178000000000019,0.4173684942589701,0.3879199317986464,non_fall
1.457328,-0.4089,0.0694,-0.0467,0.0858,0.2898,0.0863,-14.34,16.32,-41.1,,0.00545299999999993,0.4173684942589701,0.3709153648279349,non_fall
1.46125,0.0991,0.0267,0.2318,0.0858,0.2898,0.0863,-14.34,16.32,-41.1,,0.003921999999999981,0.2535053056643983,0.3532688381762709,non_fall
1.471219,0.0991,0.0267,0.2318,0.0794,0.2162,0.0772,-14.34,16.32,-41.1,,0.009969000000000117,0.2535053056643983,0.33669390552278466,non_fall
1.491921,0.0991,0.0267,0.2318,0.1135,0.1747,0.0831,-14.34,16.32,-41.1,,0.020701999999999998,0.2535053056643983,0.3226740860457675,non_fall
1.500799,0.0991,0.0267,0.2318,0.1135,0.1747,0.0831,-13.98,16.62,-41.64,,0.008877999999999941,0.2535053056643983,0.31234471768169336,non_fall
1.512943,0.0991,0.0267,0.2318,0.179,0.147,0.0975,-13.98,16.62,-41.64,,0.012143999999999933,0.2535053056643983,0.30642296812683584,non_fall
1.51691,0.0991,0.0267,0.2318,0.179,0.147,0.0975,-13.98,16.62,-41.64,,0.003967000000000054,0.2535053056643983,0.305189400928866,non_fall
1.517743,-0.284,0.0694,0.2589,0.179,0.147,0.0975,-13.98,16.62,-41.64,,0.0008330000000000837,0.390514493969174,0.30851655876126555,non_fall
1.532895,-0.284,0.0694,0.2589,0.2152,0.1236,0.115,-13.98,16.62,-41.64,,0.015151999999999832,0.390514493969174,0.3159331398617839,non_fall
1.553979,-0.284,0.0694,0.2589,0.1933,0.1278,0.1225,-13.98,16.62,-41.64,,0.021084000000000103,0.390514493969174,0.32670784448328655,non_fall
1.562473,-0.284,0.0694,0.2589,0.1933,0.1278,0.1225,-13.5,16.44,-42.06,,0.008494000000000002,0.390514493969174,0.33993621013534353,non_fall
1.573747,-0.284,0.0694,0.2589,0.1529,0.1284,0.1177,-13.5,16.44,-42.06,,0.011274000000000006,0.390514493969174,0.354617127936934,non_fall
1.578484,-0.284,0.0694,0.2589,0.1529,0.1284,0.1177,-13.5,16.44,-42.06,,0.004736999999999991,0.390514493969174,0.3697118845215546,non_fall
1.579418,-0.1587,0.3087,-0.0517,0.1529,0.1284,0.1177,-13.5,16.44,-42.06,,0.0009339999999999904,0.3509334267350433,0.3841853154124042,non_fall
1.595184,-0.1587,0.3087,-0.0517,0.1039,0.1486,0.0937,-13.5,16.44,-42.06,,0.015765999999999947,0.3509334267350433,0.39703429739148005,non_fall
1.615282,-0.1587,0.3087,-0.0517,0.0703,0.1529,0.0618,-13.5,16.44,-42.06,,0.02009800000000017,0.3509334267350433,0.4073123636675119,non_fall
1.623852,-0.1587,0.3087,-0.0517,0.0703,0.1529,0.0618,-13.14,15.96,-42.06,,0.008569999999999967,0.3509334267350433,0.41416006602963157,non_fall
1.635967,-0.1587,0.3087,-0.0517,0.0538,0.1598,0.0208,-13.14,15.96,-42.06,,0.012114999999999876,0.3509334267350433,0.4168486445915402,non_fall
1.639863,-0.1587,0.3087,-0.0517,0.0538,0.1598,0.0208,-13.14,15.96,-42.06,,0.0038960000000001216,0.3509334267350433,0.41484004392310014,non_fall
1.640733,-0.0411,0.0883,-0.4498,0.0538,0.1598,0.0208,-13.14,15.96,-42.06,,0.0008699999999999264,0.4602240106730634,0.40786019887341535,non_fall
1.656663,-0.0411,0.0883,-0.4498,0.0011,0.2269,-0.0415,-13.14,15.96,-42.06,,0.01593,0.4602240106730634,0.39597592437951823,non_fall
1.676766,-0.0411,0.0883,-0.4498,-0.0495,0.2557,-0.0836,-13.14,15.96,-42.06,,0.020102999999999982,0.4602240106730634,0.37966030423024366,non_fall
1.685545,-0.0411,0.0883,-0.4498,-0.0495,0.2557,-0.0836,-12.84,15.78,-42.36,,0.008779000000000092,0.4602240106730634,0.3598291605258623,non_fall
1.698138,-0.0411,0.0883,-0.4498,-0.1007,0.2147,-0.082,-12.84,15.78,-42.36,,0.012592999999999854,0.4602240106730634,0.3378332664215063,non_fall
1.702403,-0.0411,0.0883,-0.4498,-0.1007,0.2147,-0.082,-12.84,15.78,-42.36,,0.004265000000000185,0.4602240106730634,0.3153972642613075,non_fall
1.703233,-0.0981,-0.1411,0.0187,-0.1007,0.2147,-0.082,-12.84,15.78,-42.36,,0.0008299999999998864,0.17286558361918083,0.2945056854702984,non_fall
1.718681,-0.0981,-0.1411,0.0187,-0.1129,0.1901,-0.0746,-12.84,15.78,-42.36,,0.015447999999999906,0.17286558361918083,0.27724744886200303,forward_fall
1.73837,-0.0981,-0.1411,0.0187,-0.0378,0.2099,-0.0969,-12.84,15.78,-42.36,,0.019689000000000068,0.17286558361918083,0.26563991701204803,forward_fall
1.747392,-0.0981,-0.1411,0.0187,-0.0378,0.2099,-0.0969,-12.3,15.66,-42.06,,0.009022000000000086,0.17286558361918083,0.26145823281757796,forward_fall
1.759014,-0.0981,-0.1411,0.0187,0.0144,0.2653,-0.1529,-12.3,15.66,-42.06,,0.011622000000000021,0.17286558361918083,0.26609316640707614,forward_fall
1.763554,-0.0981,-0.1411,0.0187,0.0144,0.2653,-0.1529,-12.3,15.66,-42.06,,0.0045399999999999885,0.17286558361918083,0.28045252813871663,forward_fall
1.764406,0.1875,0.1989,0.3749,0.0144,0.2653,-0.1529,-12.3,15.66,-42.06,,0.0008519999999998529,0.4639692554469531,0.3049105904630581,forward_fall
1.779305,0.1875,0.1989,0.3749,-0.0043,0.2738,-0.2109,-12.3,15.66,-42.06,,0.014898999999999996,0.4639692554469531,0.33929970031781614,forward_fall
1.800072,0.1875,0.1989,0.3749,-0.0043,0.1374,-0.2445,-12.3,15.66,-42.06,,0.02076699999999998,0.4639692554469531,0.3829310129801695,forward_fall
1.809421,0.1875,0.1989,0.3749,-0.0043,0.1374,-0.2445,-11.7,15.36,-42.42,,0.009349000000000052,0.4639692554469531,0.4346298764824874,forward_fall
1.820417,0.1875,0.1989,0.3749,0.0192,0.0043,-0.2088,-11.7,15.36,-42.42,,0.010996000000000006,0.4639692554469531,0.4927766018127151,forward_fall
1.824737,0.1875,0.1989,0.3749,0.0192,0.0043,-0.2088,-11.7,15.36,-42.42,,0.0043200000000001015,0.4639692554469531,0.5553521408554765,forward_fall
1.825664,-0.6166,-0.023,-0.1751,0.0192,0.0043,-0.2088,-11.7,15.36,-42.42,,0.0009269999999999001,0.6413926800330668,0.6199957931112885,forward_fall
1.840991,-0.6166,-0.023,-0.1751,0.0197,-0.0373,-0.1481,-11.7,15.36,-42.42,,0.01532700000000009,0.6413926800330668,0.6840854247788817,forward_fall
1.861448,-0.6166,-0.023,-0.1751,0.0186,0.0655,-0.0847,-11.7,15.36,-42.42,,0.020456999999999947,0.6413926800330668,0.7448497916508667,forward_fall
1.870849,-0.6166,-0.023,-0.1751,0.0186,0.0655,-0.0847,-11.88,15.0,-42.18,,0.009400999999999993,0.6413926800330668,0.7995191039825863,forward_fall
1.882355,-0.6166,-0.023,-0.1751,0.0863,0.2668,-0.0346,-11.88,15.0,-42.18,,0.011506000000000016,0.6413926800330668,0.8455148991439512,forward_fall
1.886618,-0.6166,-0.023,-0.1751,0.0863,0.2668,-0.0346,-11.88,15.0,-42.18,,0.004262999999999906,0.6413926800330668,0.8806725194074355,forward_fall
1.887487,-0.7909,0.8707,-0.3233,0.0863,0.2668,-0.0346,-11.88,15.0,-42.18,,0.0008690000000000087,1.2199033527292236,0.903477374366555,forward_fall
1.90256,-0.7909,0.8707,-0.3233,0.1529,0.4096,-0.0165,-11.88,15.0,-42.18,,0.015073000000000114,1.2199033527292236,0.91328063817539,forward_fall
1.922989,-0.7909,0.8707,-0.3233,0.1609,0.3441,-0.0165,-11.88,15.0,-42.18,,0.02042900000000003,1.2199033527292236,0.9104468982697504,forward_fall
1.932715,-0.7909,0.8707,-0.3233,0.1609,0.3441,-0.0165,-11.28,15.42,-42.72,,0.009725999999999901,1.2199033527292236,0.8963842307041859,forward_fall
1.943565,-0.7909,0.8707,-0.3233,0.0581,0.0607,-0.0804,-11.28,15.42,-42.72,,0.010850000000000026,1.2199033527292236,0.8734213836825528,forward_fall
1.949031,-0.7909,0.8707,-0.3233,0.0581,0.0607,-0.0804,-11.28,15.42,-42.72,,0.005465999999999971,1.2199033527292236,0.8445248625711548,forward_fall
1.950027,-0.2668,0.0239,0.1931,0.0581,0.0607,-0.0804,-11.28,15.42,-42.72,,0.0009959999999999969,0.3302136581063842,0.8128841426874173,forward_fall
1.964997,-0.2668,0.0239,0.1931,-0.0245,-0.1443,-0.1694,-11.28,15.42,-42.72,,0.01497000000000015,0.3302136581063842,0.7814289217503491,forward_fall
1.984738,-0.2668,0.0239,0.1931,-0.0778,-0.1971,-0.2349,-11.28,15.42,-42.72,,0.019740999999999786,0.3302136581063842,0.752369059455706,forward_fall
1.99363,-0.2668,0.0239,0.1931,-0.0778,-0.1971,-0.2349,-11.46,14.76,-42.9,,0.008892000000000122,0.3302136581063842,0.7268544248886312,forward_fall
2.005879,-0.2668,0.0239,0.1931,-0.131,-0.2024,-0.2839,-11.46,14.76,-42.9,,0.012249000000000176,0.3302136581063842,0.7048328275367297,forward_fall
2.00994,-0.2668,0.0239,0.1931,-0.131,-0.2024,-0.2839,-11.46,14.76,-42.9,,0.004060999999999648,0.3302136581063842,0.6851454168851601,forward_fall
2.010953,-0.6626,-0.513,-0.3653,-0.131,-0.2024,-0.2839,-11.46,14.76,-42.9,,0.0010130000000003747,0.914139950992188,0.6658521308665116,forward_fall
2.026066,-0.6626,-0.513,-0.3653,-0.1694,-0.236,-0.2951,-11.46,14.76,-42.9,,0.015112999999999932,0.914139950992188,0.644734877742579,forward_fall
2.046268,-0.6626,-0.513,-0.3653,-0.1411,-0.1896,-0.2844,-11.46,14.76,-42.9,,0.02020199999999983,0.914139950992188,0.6198912120890332,forward_fall
2.056517,-0.6626,-0.513,-0.3653,-0.1411,-0.1896,-0.2844,-11.28,14.76,-42.54,,0.010248999999999953,0.914139950992188,0.5903141668672137,forward_fall
2.066603,-0.6626,-0.513,-0.3653,-0.0751,-0.0618,-0.2802,-11.28,14.76,-42.54,,0.010086000000000261,0.914139950992188,0.5563584280150993,forward_fall
2.071577,-0.6626,-0.513,-0.3653,-0.0751,-0.0618,-0.2802,-11.28,14.76,-42.54,,0.004973999999999812,0.914139950992188,0.5200155506723853,forward_fall
2.072635,0.3201,0.292,0.019,-0.0751,-0.0618,-0.2802,-11.28,14.76,-42.54,,0.0010580000000000034,0.43369229875569615,0.4849539045830947,forward_fall
2.087497,0.3201,0.292,0.019,-0.033,0.0772,-0.2887,-11.28,14.76,-42.54,,0.01486199999999993,0.43369229875569615,0.4563158908061091,forward_fall
2.107731,0.3201,0.292,0.019,-0.024,0.1209,-0.3121,-11.28,14.76,-42.54,,0.020233999999999863,0.43369229875569615,0.4402996376027043,forward_fall
2.116854,0.3201,0.292,0.019,-0.024,0.1209,-0.3121,-10.92,14.94,-43.5,,0.009123000000000214,0.43369229875569615,0.44357840415347466,forward_fall
2.128608,0.3201,0.292,0.019,-0.0138,0.1225,-0.3143,-10.92,14.94,-43.5,,0.01175399999999982,0.43369229875569615,0.4726248372978935,forward_fall
2.132666,0.3201,0.292,0.019,-0.0138,0.1225,-0.3143,-10.92,14.94,-43.5,,0.004058000000000117,0.43369229875569615,0.5330112917762215,forward_fall
2.133556,0.0533,0.5207,0.3423,-0.0138,0.1225,-0.3143,-10.92,14.94,-43.5,,0.0008900000000000574,0.6254108009940347,0.6287564463129607,forward_fall
2.148643,0.0533,0.5207,0.3423,0.0415,0.1177,-0.2519,-10.92,14.94,-43.5,,0.01508699999999985,0.6254108009940347,0.7617852572477699,forward_fall
2.16946,0.0533,0.5207,0.3423,0.1443,0.1326,-0.1486,-10.92,14.94,-43.5,,0.020817000000000085,0.6254108009940347,0.9315642743299731,forward_fall
2.178894,0.0533,0.5207,0.3423,0.1443,0.1326,-0.1486,-11.28,14.34,-43.32,,0.009434000000000164,0.6254108009940347,1.1349666654021924,forward_fall
2.190236,0.0533,0.5207,0.3423,0.3595,0.2226,-0.0277,-11.28,14.34,-43.32,,0.011341999999999963,0.6254108009940347,1.3664082281913164,forward_fall
2.194566,0.0533,0.5207,0.3423,0.3595,0.2226,-0.0277,-11.28,14.34,-43.32,,0.004329999999999945,0.6254108009940347,1.6182717840531418,forward_fall
2.195404,-1.2612,1.624,2.1425,0.3595,0.2226,-0.0277,-11.28,14.34,-43.32,,0.0008379999999998944,2.9695635521066057,1.8815971454805067,forward_fall
2.211545,-1.2612,1.624,2.1425,0.5934,0.3254,0.0799,-11.28,14.34,-43.32,,0.016141000000000183,2.9695635521066057,2.146959459166372,forward_fall
2.232333,-1.2612,1.624,2.1425,0.563,0.2951,0.1459,-11.28,14.34,-43.32,,0.02078800000000003,2.9695635521066057,2.405408286994258,forward_fall
2.24086,-1.2612,1.624,2.1425,0.563,0.2951,0.1459,-11.16,14.16,-43.14,,0.008526999999999951,2.9695635521066057,2.6493215573402065,forward_fall
2.252308,-1.2612,1.624,2.1425,0.5369,0.1055,0.1965,-11.16,14.16,-43.14,,0.011448000000000125,2.9695635521066057,2.873056499944609,forward_fall
2.258064,-1.2612,1.624,2.1425,0.5369,0.1055,0.1965,-11.16,14.16,-43.14,,0.005755999999999872,2.9695635521066057,3.073338254812437,forward_fall
2.259059,-1.8855,2.3953,1.153,0.5369,0.1055,0.1965,-11.16,14.16,-43.14,,0.0009950000000000792,3.259138128401434,3.2493861941899795,forward_fall
2.278584,-1.8855,2.3953,1.153,0.7771,-0.0783,0.2711,-11.16,14.16,-43.14,,0.019524999999999793,3.259138128401434,3.402818691479023,forward_fall
2.292603,-1.8855,2.3953,1.153,0.9529,0.1135,0.3462,-11.16,14.16,-43.14,,0.014019000000000226,3.259138128401434,3.537396295775308,forward_fall
2.301487,-1.8855,2.3953,1.153,0.9529,0.1135,0.3462,-10.74,13.92,-43.74,,0.00888399999999967,3.259138128401434,3.658666230067152,forward_fall
2.312817,-1.8855,2.3953,1.153,1.1457,0.5518,0.5433,-10.74,13.92,-43.74,,0.011330000000000062,3.259138128401434,3.7735623335013826,forward_fall
2.3176,-1.8855,2.3953,1.153,1.1457,0.5518,0.5433,-10.74,13.92,-43.74,,0.004783000000000204,3.259138128401434,3.889994572096029,forward_fall
2.318705,-2.7242,3.842,1.7788,1.1457,0.5518,0.5433,-10.74,13.92,-43.74,,0.0011049999999999116,5.03451676727767,4.0164301336419905,forward_fall
2.333983,-2.7242,3.842,1.7788,1.3689,0.3111,0.8437,-10.74,13.92,-43.74,,0.015277999999999903,5.03451676727767,4.1614284239036134,forward_fall
2.354238,-2.7242,3.842,1.7788,1.4125,-0.204,0.7318,-10.74,13.92,-43.74,,0.020255000000000134,5.03451676727767,4.333061265488151,forward_fall
2.363311,-2.7242,3.842,1.7788,1.4125,-0.204,0.7318,-10.2,12.84,-43.62,,0.009072999999999887,5.03451676727767,4.538150087625749,forward_fall
2.375029,-2.7242,3.842,1.7788,0.9726,0.0405,0.3718,-10.2,12.84,-43.62,,0.011718000000000117,5.03451676727767,4.781294284772409,forward_fall
2.379204,-2.7242,3.842,1.7788,0.9726,0.0405,0.3718,-10.2,12.84,-43.62,,0.00417500000000004,5.03451676727767,5.0637354611533905,forward_fall
2.380054,1.3888,4.0583,-3.1555,0.9726,0.0405,0.3718,-10.2,12.84,-43.62,,0.0008499999999997954,5.325011228157177,5.382174875666675,forward_fall
2.394904,1.3888,4.0583,-3.1555,0.5694,0.13,0.179,-10.2,12.84,-43.62,,0.01485000000000003,5.325011228157177,5.727716707408927,forward_fall
2.415863,1.3888,4.0583,-3.1555,0.3153,-0.3649,0.114,-10.2,12.84,-43.62,,0.02095899999999995,5.325011228157177,6.085140543277178,forward_fall
2.424793,1.3888,4.0583,-3.1555,0.3153,-0.3649,0.114,-9.18,11.28,-44.28,,0.008930000000000327,5.325011228157177,6.432711554569046,forward_fall
2.436005,1.3888,4.0583,-3.1555,0.245,-0.6802,0.22,-9.18,11.28,-44.28,,0.011212,5.325011228157177,6.742714430103317,forward_fall
2.440499,1.3888,4.0583,-3.1555,0.245,-0.6802,0.22,-9.18,11.28,-44.28,,0.004493999999999776,5.325011228157177,6.982842864193174,forward_fall
2.441469,-1.1575,6.832,-1.8097,0.245,-0.6802,0.22,-9.18,11.28,-44.28,,0.0009700000000001374,7.161776618968229,7.118486646231512,forward_fall
2.456936,-1.1575,6.832,-1.8097,0.2242,-0.4352,0.2051,-9.18,11.28,-44.28,,0.015466999999999675,7.161776618968229,7.115838308387278,forward_fall
2.477031,-1.1575,6.832,-1.8097,0.0266,-0.1859,-0.0724,-9.18,11.28,-44.28,,0.020095000000000418,7.161776618968229,6.945612054506038,forward_fall
2.486219,-1.1575,6.832,-1.8097,0.0266,-0.1859,-0.0724,-8.4,9.06,-45.18,,0.009187999999999974,7.161776618968229,6.587061774954718,forward_fall
2.499911,-1.1575,6.832,-1.8097,-0.0852,0.1342,-0.3222,-8.4,9.06,-45.18,,0.013691999999999815,7.161776618968229,6.0319267136012575,forward_fall
2.503066,-1.1575,6.832,-1.8097,-0.0852,0.1342,-0.3222,-8.4,9.06,-45.18,,0.003155000000000019,7.161776618968229,5.287926763078384,forward_fall
2.503902,1.8759,1.3113,-0.4999,-0.0852,0.1342,-0.3222,-8.4,9.06,-45.18,,0.0008360000000000589,2.3427352624656503,4.381467175331551,forward_fall
2.518636,1.8759,1.3113,-0.4999,-0.1119,0.0511,-0.3947,-8.4,9.06,-45.18,,0.014733999999999803,2.3427352624656503,3.359282825335713,forward_fall
2.539405,1.8759,1.3113,-0.4999,0.032,-0.3324,-0.0357,-8.4,9.06,-45.18,,0.020769000000000037,2.3427352624656503,2.2888256844153605,forward_fall
2.548074,1.8759,1.3113,-0.4999,0.032,-0.3324,-0.0357,-8.46,6.6,-45.66,,0.00866900000000026,2.3427352624656503,1.2572323892848543,forward_fall
2.559064,1.8759,1.3113,-0.4999,0.3254,-0.5284,0.5284,-8.46,6.6,-45.66,,0.010989999999999611,2.3427352624656503,0.3686872824302076,forward_fall
2.564937,1.8759,1.3113,-0.4999,0.3254,-0.5284,0.5284,-8.46,6.6,-45.66,,0.005873000000000239,2.3427352624656503,-0.26003704459270954,forward_fall
2.565858,3.0057,0.8709,-2.3654,0.3254,-0.5284,0.5284,-8.46,6.6,-45.66,,0.0009209999999999496,3.9227307401859743,-0.506057644517763,forward_fall
2.580202,3.0057,0.8709,-2.3654,0.3723,-0.432,0.7073,-8.46,6.6,-45.66,,0.014343999999999912,3.9227307401859743,-0.2489525329317179,forward_fall
2.600658,3.0057,0.8709,-2.3654,0.3228,-0.1827,0.5902,-8.46,6.6,-45.66,,0.020456000000000252,3.9227307401859743,0.6187314398938464,forward_fall
2.609319,3.0057,0.8709,-2.3654,0.3228,-0.1827,0.5902,-8.28,5.04,-46.2,,0.00866100000000003,3.9227307401859743,2.179525020397898,forward_fall
2.621153,3.0057,0.8709,-2.3654,0.1523,-0.024,0.3941,-8.28,5.04,-46.2,,0.0118339999999999,3.9227307401859743,4.478529225359263,forward_fall
2.625515,3.0057,0.8709,-2.3654,0.1523,-0.024,0.3941,-8.28,5.04,-46.2,,0.004361999999999977,3.9227307401859743,7.511645545794033,forward_fall
2.62665,5.0742,6.4362,2.08,0.1523,-0.024,0.3941,-8.28,5.04,-46.2,,0.0011350000000001081,8.455683064069987,11.2161440932863,forward_fall
2.641237,5.0742,6.4362,2.08,-0.3361,-1.3023,-0.2413,-8.28,5.04,-46.2,,0.014586999999999684,8.455683064069987,15.465310678958916,forward_fall
2.661991,5.0742,6.4362,2.08,-0.996,-4.0038,-2.2807,-8.28,5.04,-46.2,,0.02075400000000016,8.455683064069987,20.06884056517329,forward_fall
2.671071,5.0742,6.4362,2.08,-0.996,-4.0038,-2.2807,-8.58,3.42,-46.2,,0.009079999999999977,8.455683064069987,24.780337161114094,forward_fall
2.683572,5.0742,6.4362,2.08,-2.1311,-5.0877,-4.0139,-8.58,3.42,-46.2,,0.012500999999999873,8.455683064069987,29.312685033747353,forward_fall
2.686644,5.0742,6.4362,2.08,-2.1311,-5.0877,-4.0139,-8.58,3.42,-46.2,,0.0030719999999999636,8.455683064069987,33.36111085660822,forward_fall
2.687505,13.5809,-60.6896,-17.0992,-2.1311,-5.0877,-4.0139,-8.58,3.42,-46.2,,0.0008610000000000007,64.49845760644203,36.63235425086196,forward_fall
2.702736,13.5809,-60.6896,-17.0992,-0.7446,-2.4773,-4.2318,-8.58,3.42,-46.2,,0.015230999999999995,64.49845760644203,38.8766753090069,forward_fall
2.707035,13.5809,-60.6896,-17.0992,-0.7446,-2.4773,-4.2318,-8.58,3.42,-46.2,,0.004299000000000053,64.49845760644203,39.91795854210513,forward_fall
2.7084,8.1139,-54.9219,2.9783,-0.7446,-2.4773,-4.2318,-8.58,3.42,-46.2,,0.0013650000000002827,55.597848373026096,39.67671655040845,forward_fall
2.723535,8.1139,-54.9219,2.9783,-0.6093,0.8639,-0.677,-8.58,3.42,-46.2,,0.015134999999999899,55.597848373026096,38.18177577356736,forward_fall
2.728039,8.1139,-54.9219,2.9783,-0.6093,0.8639,-0.677,-8.58,3.42,-46.2,,0.0045039999999998415,55.597848373026096,35.56850614583268,forward_fall
2.729152,2.629,-11.8529,2.2776,-0.6093,0.8639,-0.677,-8.58,3.42,-46.2,,0.0011130000000001417,12.352746300721957,32.063900119024886,forward_fall
2.732217,2.629,-11.8529,2.2776,-0.6093,0.8639,-0.677,-9.96,2.52,-46.38,,0.0030649999999998734,12.352746300721957,27.96103259016771,forward_fall
2.743911,2.629,-11.8529,2.2776,-1.8695,1.3177,-0.3494,-9.96,2.52,-46.38,,0.011694000000000315,12.352746300721957,23.58705078278131,forward_fall
2.748273,2.629,-11.8529,2.2776,-1.8695,1.3177,-0.3494,-9.96,2.52,-46.38,,0.004361999999999977,12.352746300721957,19.269500213141527,forward_fall
2.749502,-3.4102,1.7035,2.6087,-1.8695,1.3177,-0.3494,-9.96,2.52,-46.38,,0.0012289999999999246,4.6191657233747305,15.305385309382011,forward_fall
2.764626,-3.4102,1.7035,2.6087,-1.037,1.6623,-0.6338,-9.96,2.52,-46.38,,0.015123999999999693,4.6191657233747305,11.936244936153589,forward_fall
2.785612,-3.4102,1.7035,2.6087,-0.335,1.7406,-1.1276,-9.96,2.52,-46.38,,0.02098600000000017,4.6191657233747305,9.331223382109004,forward_fall
2.794053,-3.4102,1.7035,2.6087,-0.335,1.7406,-1.1276,-12.6,2.16,-45.48,,0.00844099999999992,4.6191657233747305,7.57893556502862,forward_fall
2.806037,-3.4102,1.7035,2.6087,-0.2232,1.9388,-1.8642,-12.6,2.16,-45.48,,0.011983999999999995,4.6191657233747305,6.687916104827736,forward_fall
2.810072,-3.4102,1.7035,2.6087,-0.2232,1.9388,-1.8642,-12.6,2.16,-45.48,,0.004035000000000011,4.6191657233747305,6.594613399273628,forward_fall
2.810962,-4.9742,13.8862,0.7862,-0.2232,1.9388,-1.8642,-12.6,2.16,-45.48,,0.0008900000000000574,14.771165374471982,7.177265660726429,forward_fall
2.827583,-4.9742,13.8862,0.7862,-0.8586,3.7545,-2.7617,-12.6,2.16,-45.48,,0.01662100000000022,14.771165374471982,8.273588740629572,forward_fall
2.846966,-4.9742,13.8862,0.7862,-0.7063,3.2602,-3.2618,-12.6,2.16,-45.48,,0.019382999999999928,14.771165374471982,9.700040960279537,forward_fall
2.856723,-4.9742,13.8862,0.7862,-0.7063,3.2602,-3.2618,-14.64,2.34,-45.18,,0.009757000000000016,14.771165374471982,11.270555836607146,forward_fall
2.867302,-4.9742,13.8862,0.7862,-0.4277,1.8301,-3.5393,-14.64,2.34,-45.18,,0.010578999999999894,14.771165374471982,12.81303988025088,forward_fall
2.871805,-4.9742,13.8862,0.7862,-0.4277,1.8301,-3.5393,-14.64,2.34,-45.18,,0.004503000000000146,14.771165374471982,14.182494393601123,forward_fall
2.87263,-9.2801,14.6159,1.4849,-0.4277,1.8301,-3.5393,-14.64,2.34,-45.18,,0.0008249999999998536,17.37670040111183,15.270166897396503,forward_fall
2.887296,-9.2801,14.6159,1.4849,-0.547,1.0717,-3.3694,-14.64,2.34,-45.18,,0.014666000000000068,17.37670040111183,16.008564472374196,forward_fall
2.908255,-9.2801,14.6159,1.4849,-0.7718,0.4799,-2.5178,-14.64,2.34,-45.18,,0.02095899999999995,17.37670040111183,16.37245935741929,forward_fall
2.917121,-9.2801,14.6159,1.4849,-0.7718,0.4799,-2.5178,-14.76,3.12,-44.64,,0.008865999999999818,17.37670040111183,16.3762324386533,forward_fall
2.929448,-9.2801,14.6159,1.4849,-0.6061,-0.2626,-1.8626,-14.76,3.12,-44.64,,0.012326999999999977,17.37670040111183,16.068078738916068,forward_fall
2.933167,-9.2801,14.6159,1.4849,-0.6061,-0.2626,-1.8626,-14.76,3.12,-44.64,,0.00371900000000025,17.37670040111183,15.521760495253108,forward_fall
2.934247,-8.5931,6.1467,-0.8342,-0.6061,-0.2626,-1.8626,-14.76,3.12,-44.64,,0.0010799999999999699,10.598074265639017,14.826740832918993,forward_fall
2.949036,-8.5931,6.1467,-0.8342,-0.5907,-1.4807,-1.0397,-14.76,3.12,-44.64,,0.014788999999999941,10.598074265639017,14.07765703645517,forward_fall
2.969965,-8.5931,6.1467,-0.8342,-0.7409,-3.1649,-0.4288,-14.76,3.12,-44.64,,0.020929000000000197,10.598074265639017,13.364159477866854,forward_fall
2.979122,-8.5931,6.1467,-0.8342,-0.7409,-3.1649,-0.4288,-13.68,3.9,-44.82,,0.009156999999999638,10.598074265639017,12.762087192838544,forward_fall
2.990501,-8.5931,6.1467,-0.8342,-1.5196,-5.8749,-0.6413,-13.68,3.9,-44.82,,0.01137900000000025,10.598074265639017,12.326746736827019,forward_fall
2.994927,-8.5931,6.1467,-0.8342,-1.5196,-5.8749,-0.6413,-13.68,3.9,-44.82,,0.004426000000000041,10.598074265639017,12.088758596861082,forward_fall
2.995784,4.3911,-2.8723,-11.0831,-1.5196,-5.8749,-0.6413,-13.68,3.9,-44.82,,0.0008569999999998856,12.262421135730088,12.052621755928692,forward_fall
3.011034,4.3911,-2.8723,-11.0831,-4.742,-6.8976,-2.7777,-13.68,3.9,-44.82,,0.015249999999999986,12.262421135730088,12.197879748684885,forward_fall
3.031949,4.3911,-2.8723,-11.0831,-5.8733,-2.4618,-4.4965,-13.68,3.9,-44.82,,0.020915000000000017,12.262421135730088,12.482571301709664,forward_fall
3.040753,4.3911,-2.8723,-11.0831,-5.8733,-2.4618,-4.4965,-11.94,4.44,-45.6,,0.008804000000000034,12.262421135730088,12.848519758912458,forward_fall
3.051359,4.3911,-2.8723,-11.0831,-4.2179,-3.8126,-4.2946,-11.94,4.44,-45.6,,0.010606000000000115,12.262421135730088,13.227947590125673,forward_fall
3.057197,4.3911,-2.8723,-11.0831,-4.2179,-3.8126,-4.2946,-11.94,4.44,-45.6,,0.005837999999999788,12.262421135730088,13.550865305574922,forward_fall
3.058681,15.8635,-1.3846,2.6741,-4.2179,-3.8126,-4.2946,-11.94,4.44,-45.6,,0.0014840000000000408,16.14678172949644,13.75264332980264,forward_fall
3.072984,15.8635,-1.3846,2.6741,-2.3026,-8.1418,-3.9463,-11.94,4.44,-45.6,,0.014302999999999955,16.14678172949644,13.78111938367864,forward_fall
3.092854,15.8635,-1.3846,2.6741,-0.7702,-8.1882,-2.5295,-11.94,4.44,-45.6,,0.019870000000000054,16.14678172949644,13.602552151296548,forward_fall
3.101917,15.8635,-1.3846,2.6741,-0.7702,-8.1882,-2.5295,-13.74,5.76,-43.14,,0.009062999999999821,16.14678172949644,13.205760591374062,forward_fall
3.115049,15.8635,-1.3846,2.6741,0.7515,-3.0616,-0.9492,-13.74,5.76,-43.14,,0.013132000000000144,16.14678172949644,12.603925609616981,forward_fall
3.117962,15.8635,-1.3846,2.6741,0.7515,-3.0616,-0.9492,-13.74,5.76,-43.14,,0.0029129999999999434,16.14678172949644,11.833770143625593,forward_fall
3.118784,3.3017,-7.0758,0.8942,0.7515,-3.0616,-0.9492,-13.74,5.76,-43.14,,0.0008219999999998784,7.85924692130232,10.952142538454302,forward_fall
3.133941,3.3017,-7.0758,0.8942,1.1105,0.9241,0.0586,-13.74,5.76,-43.14,,0.015157000000000309,7.85924692130232,10.030366349810297,forward_fall
3.154705,3.3017,-7.0758,0.8942,-1.2639,-0.0714,0.3696,-13.74,5.76,-43.14,,0.020763999999999783,7.85924692130232,9.147019147981915,forward_fall
3.164342,3.3017,-7.0758,0.8942,-1.2639,-0.0714,0.3696,-21.54,6.54,-37.92,,0.009637000000000118,7.85924692130232,8.379971190315636,forward_fall
3.174932,3.3017,-7.0758,0.8942,-2.5625,-0.9795,1.6426,-21.54,6.54,-37.92,,0.0105900000000001,7.85924692130232,7.798509487083957,forward_fall
3.179203,3.3017,-7.0758,0.8942,-2.5625,-0.9795,1.6426,-21.54,6.54,-37.92,,0.004270999999999692,7.85924692130232,7.456251924246212,forward_fall
3.179952,1.3179,-0.2048,4.9979,-2.5625,-0.9795,1.6426,-21.54,6.54,-37.92,,0.0007490000000003327,5.172794975639378,7.385422273877849,forward_fall
3.195601,1.3179,-0.2048,4.9979,-1.3177,2.7942,2.8815,-21.54,6.54,-37.92,,0.015648999999999802,5.172794975639378,7.592965801292033,forward_fall
3.216048,1.3179,-0.2048,4.9979,-1.0631,5.8643,3.1713,-21.54,6.54,-37.92,,0.020446999999999882,5.172794975639378,8.058918402931283,forward_fall
3.224975,1.3179,-0.2048,4.9979,-1.0631,5.8643,3.1713,-29.22,7.26,-31.5,,0.008927000000000351,5.172794975639378,8.737342431547974,forward_fall
3.236746,1.3179,-0.2048,4.9979,-1.3002,3.4461,1.5835,-29.22,7.26,-31.5,,0.011770999999999976,5.172794975639378,9.55996251767393,forward_fall
3.241137,1.3179,-0.2048,4.9979,-1.3002,3.4461,1.5835,-29.22,7.26,-31.5,,0.004391000000000034,5.172794975639378,10.44236217278922,forward_fall
3.2422,7.2118,15.4994,-2.0477,-1.3002,3.4461,1.5835,-29.22,7.26,-31.5,,0.001062999999999814,17.21727431651131,11.292249598899309,forward_fall
3.257097,7.2118,15.4994,-2.0477,-0.0703,0.898,0.0218,-29.22,7.26,-31.5,,0.014896999999999938,17.21727431651131,12.018910531489986,forward_fall
3.27772,7.2118,15.4994,-2.0477,-0.3553,-0.9465,-0.5087,-29.22,7.26,-31.5,,0.020623000000000058,17.21727431651131,12.542642931086222,forward_fall
3.28689,7.2118,15.4994,-2.0477,-0.3553,-0.9465,-0.5087,-34.86,9.54,-26.82,,0.009170000000000122,17.21727431651131,12.802865325311299,forward_fall
3.298151,7.2118,15.4994,-2.0477,-0.7121,-2.3729,-0.8453,-34.86,9.54,-26.82,,0.011260999999999743,17.21727431651131,12.763789992027007,forward_fall
3.302899,7.2118,15.4994,-2.0477,-0.7121,-2.3729,-0.8453,-34.86,9.54,-26.82,,0.0047480000000001965,17.21727431651131,12.41698872555898,forward_fall
3.303738,-5.4905,-4.173,-2.9941,-0.7121,-2.3729,-0.8453,-34.86,9.54,-26.82,,0.0008390000000000342,7.518254721675769,11.780712772786933,forward_fall
3.319173,-5.4905,-4.173,-2.9941,-0.4447,-1.5627,-1.2634,-34.86,9.54,-26.82,,0.015435000000000088,7.518254721675769,10.896344197188744,forward_fall
3.340166,-5.4905,-4.173,-2.9941,-0.4778,-1.078,-1.6959,-34.86,9.54,-26.82,,0.020992999999999817,7.518254721675769,9.8227561678077,forward_fall
3.349351,-5.4905,-4.173,-2.9941,-0.4778,-1.078,-1.6959,-36.84,10.86,-24.12,,0.009184999999999999,7.518254721675769,8.629545804295551,forward_fall
3.360023,-5.4905,-4.173,-2.9941,-0.8123,-1.0759,-1.6416,-36.84,10.86,-24.12,,0.010672000000000015,7.518254721675769,7.390043777232094,forward_fall
3.365326,-5.4905,-4.173,-2.9941,-0.8123,-1.0759,-1.6416,-36.84,10.86,-24.12,,0.005303000000000058,7.518254721675769,6.174790849305464,forward_fall
3.366525,1.0296,1.4599,0.7076,-0.8123,-1.0759,-1.6416,-36.84,10.86,-24.12,,0.0011990000000001722,1.921479099548054,5.045948433361083,forward_fall
3.380627,1.0296,1.4599,0.7076,-0.8788,-1.3119,-1.2245,-36.84,10.86,-24.12,,0.014101999999999837,1.921479099548054,4.0529641212253065,forward_fall
3.40137,1.0296,1.4599,0.7076,-0.7654,-0.8554,-0.6738,-36.84,10.86,-24.12,,0.020742999999999956,1.921479099548054,3.2297292695157696,forward_fall
3.409665,1.0296,1.4599,0.7076,-0.7654,-0.8554,-0.6738,-35.58,12.78,-24.24,,0.008294999999999941,1.921479099548054,2.5933735453774407,forward_fall
3.421406,1.0296,1.4599,0.7076,-0.2594,-0.3915,-0.1625,-35.58,12.78,-24.24,,0.011741000000000223,1.921479099548054,2.1446953914882534,forward_fall
3.426097,1.0296,1.4599,0.7076,-0.2594,-0.3915,-0.1625,-35.58,12.78,-24.24,,0.004690999999999779,1.921479099548054,1.8700497912824932,forward_fall
3.426784,1.1271,1.9455,-1.8267,-0.2594,-0.3915,-0.1625,-35.58,12.78,-24.24,,0.0006870000000001042,2.896922082141665,1.7443607502125043,forward_fall
3.443248,1.1271,1.9455,-1.8267,0.3899,0.1044,0.2024,-35.58,12.78,-24.24,,0.016464000000000034,2.896922082141665,1.7348305477921366,forward_fall
3.463347,1.1271,1.9455,-1.8267,0.7201,0.9193,0.4277,-35.58,12.78,-24.24,,0.02009900000000009,2.896922082141665,1.8048877009665585,forward_fall
3.472217,1.1271,1.9455,-1.8267,0.7201,0.9193,0.4277,-35.28,14.04,-24.0,,0.008869999999999933,2.896922082141665,1.917946612407018,forward_fall
3.483964,1.1271,1.9455,-1.8267,0.9971,1.5633,0.6029,-35.28,14.04,-24.0,,0.01174699999999973,2.896922082141665,2.040633544739339,forward_fall
3.487904,1.1271,1.9455,-1.8267,0.9971,1.5633,0.6029,-35.28,14.04,-24.0,,0.003940000000000055,2.896922082141665,2.1452460683589565,forward_fall
3.48872,0.3196,1.2249,-1.5822,0.9971,1.5633,0.6029,-35.28,14.04,-24.0,,0.0008159999999999279,2.026297364653076,2.211333836673519,forward_fall
3.504781,0.3196,1.2249,-1.5822,1.1792,1.7779,0.7111,-35.28,14.04,-24.0,,0.016061000000000103,2.026297364653076,2.2264000092893284,forward_fall
3.525142,0.3196,1.2249,-1.5822,1.208,1.5595,0.7308,-35.28,14.04,-24.0,,0.020361000000000296,2.026297364653076,2.1858117668094694,forward_fall
3.53362,0.3196,1.2249,-1.5822,1.208,1.5595,0.7308,-36.12,13.44,-22.68,,0.008477999999999764,2.026297364653076,2.092064638798652,forward_fall
3.545479,0.3196,1.2249,-1.5822,0.9294,1.3193,0.6653,-36.12,13.44,-22.68,,0.011858999999999842,2.026297364653076,1.9535667978860898,forward_fall
3.553585,0.3196,1.2249,-1.5822,0.9294,1.3193,0.6653,-36.12,13.44,-22.68,,0.008106000000000169,2.026297364653076,1.7831069327646187,forward_fall
3.555072,-0.0781,0.8535,0.1425,0.9294,1.3193,0.6653,-36.12,13.44,-22.68,,0.001487000000000016,0.8688314623677023,1.5961594589705124,forward_fall
3.565943,-0.0781,0.8535,0.1425,0.5657,1.135,0.5864,-36.12,13.44,-22.68,,0.010870999999999853,0.8688314623677023,1.4091736640827894,forward_fall
3.585942,-0.0781,0.8535,0.1425,0.5369,0.7638,0.5353,-36.12,13.44,-22.68,,0.019999000000000322,0.8688314623677023,1.237985784024126,forward_fall
3.595221,-0.0781,0.8535,0.1425,0.5369,0.7638,0.5353,-36.48,12.9,-23.46,,0.009278999999999815,0.8688314623677023,1.0964737477209252,forward_fall
3.607106,-0.0781,0.8535,0.1425,0.7281,0.4432,0.4922,-36.48,12.9,-23.46,,0.011884999999999923,0.8688314623677023,0.9955376931758086,forward_fall
3.610215,-0.0781,0.8535,0.1425,0.7281,0.4432,0.4922,-36.48,12.9,-23.46,,0.0031090000000002505,0.8688314623677023,0.9424429798105693,forward_fall
3.610938,0.3637,0.7337,-0.778,0.7281,0.4432,0.4922,-36.48,12.9,-23.46,,0.0007229999999998071,1.129547422643246,0.9405198806164569,forward_fall
3.626513,0.3637,0.7337,-0.778,0.8432,0.3127,0.3579,-36.48,12.9,-23.46,,0.015575000000000117,1.129547422643246,0.9891838840548979,forward_fall
3.648538,0.3637,0.7337,-0.778,0.9007,0.4586,0.2882,-36.48,12.9,-23.46,,0.02202499999999974,1.129547422643246,1.0842243555352848,forward_fall
3.656236,0.3637,0.7337,-0.778,0.9007,0.4586,0.2882,-36.06,12.0,-24.78,,0.007697999999999983,1.129547422643246,1.2183058886691562,forward_fall
3.668179,0.3637,0.7337,-0.778,1.0818,0.5076,0.2866,-36.06,12.0,-24.78,,0.011943000000000037,1.129547422643246,1.3816320623371772,forward_fall
3.672936,0.3637,0.7337,-0.778,1.0818,0.5076,0.2866,-36.06,12.0,-24.78,,0.004757000000000122,1.129547422643246,1.5627281863217541,forward_fall
3.674016,0.5832,-0.9376,-1.9986,1.0818,0.5076,0.2866,-36.06,12.0,-24.78,,0.0010799999999999699,2.2833348330895316,1.7492999215984655,non_fall
3.689177,0.5832,-0.9376,-1.9986,1.2623,0.1097,0.2887,-36.06,12.0,-24.78,,0.01516099999999998,2.2833348330895316,1.929115361023186,non_fall
3.709487,0.5832,-0.9376,-1.9986,1.2442,-0.6083,0.2605,-36.06,12.0,-24.78,,0.020310000000000272,2.2833348330895316,2.0908458737829,non_fall
3.718844,0.5832,-0.9376,-1.9986,1.2442,-0.6083,0.2605,-34.32,11.94,-27.48,,0.009356999999999616,2.2833348330895316,2.2247986836017266,non_fall
3.730169,0.5832,-0.9376,-1.9986,1.0168,-0.874,0.1555,-34.32,11.94,-27.48,,0.011325000000000252,2.2833348330895316,2.3234886459558832,non_fall
3.733887,0.5832,-0.9376,-1.9986,1.0168,-0.874,0.1555,-34.32,11.94,-27.48,,0.00371800000000011,2.2833348330895316,2.3820211780504734,non_fall
3.734745,2.0464,-0.3202,-1.3286,1.0168,-0.874,0.1555,-34.32,11.94,-27.48,,0.0008580000000000254,2.460784216464337,2.3982797533481452,non_fall
3.750159,2.0464,-0.3202,-1.3286,1.0312,-0.8005,0.2988,-34.32,11.94,-27.48,,0.015413999999999817,2.460784216464337,2.3729226727090142,non_fall
3.771024,2.0464,-0.3202,-1.3286,1.0791,-0.8245,0.3393,-34.32,11.94,-27.48,,0.020865000000000133,2.460784216464337,2.3091967661223665,non_fall
3.779671,2.0464,-0.3202,-1.3286,1.0791,-0.8245,0.3393,-32.82,12.0,-30.06,,0.00864699999999985,2.460784216464337,2.2125765181290054,non_fall
3.791585,2.0464,-0.3202,-1.3286,1.1659,-0.661,0.3878,-32.82,12.0,-30.06,,0.01191399999999998,2.460784216464337,2.0902417338348256,non_fall
3.795782,2.0464,-0.3202,-1.3286,1.1659,-0.661,0.3878,-32.82,12.0,-30.06,,0.004197000000000006,2.460784216464337,1.9504187824639572,non_fall
3.796737,-0.6319,0.716,0.5215,1.1659,-0.661,0.3878,-32.82,12.0,-30.06,,0.0009549999999998171,1.0880789769129813,1.80163103749666,non_fall
3.812377,-0.6319,0.716,0.5215,1.2059,-0.5907,0.5076,-32.82,12.0,-30.06,,0.01564000000000032,1.0880789769129813,1.6519309677642273,non_fall
3.832813,-0.6319,0.716,0.5215,1.2368,-0.4597,0.5619,-32.82,12.0,-30.06,,0.020435999999999677,1.0880789769129813,1.5082089797184735,non_fall
3.842168,-0.6319,0.716,0.5215,1.2368,-0.4597,0.5619,-32.94,10.92,-30.6,,0.009355000000000224,1.0880789769129813,1.375676599336342,non_fall
3.853431,-0.6319,0.716,0.5215,1.2096,-0.4224,0.6999,-32.94,10.92,-30.6,,0.011263000000000023,1.0880789769129813,1.2575960667142172,non_fall
3.858257,-0.6319,0.716,0.5215,1.2096,-0.4224,0.6999,-32.94,10.92,-30.6,,0.004825999999999997,1.0880789769129813,1.1552841076536844,non_fall
3.859626,-0.8878,-0.5205,0.3373,1.2096,-0.4224,0.6999,-32.94,10.92,-30.6,,0.0013689999999999536,1.082996020306631,1.0683719577599886,non_fall
3.873505,-0.8878,-0.5205,0.3373,1.1611,-0.4815,0.7297,-32.94,10.92,-30.6,,0.013879000000000197,1.082996020306631,0.9952683274585471,non_fall
3.894421,-0.8878,-0.5205,0.3373,1.1468,-0.5108,0.6993,-32.94,10.92,-30.6,,0.020915999999999713,1.082996020306631,0.933749842867769,non_fall
3.902459,-0.8878,-0.5205,0.3373,1.1468,-0.5108,0.6993,-32.94,10.32,-30.3,,0.00803799999999999,1.082996020306631,0.8815934602276054,non_fall
3.914986,-0.8878,-0.5205,0.3373,1.257,-0.6141,0.6962,-32.94,10.32,-30.3,,0.012526999999999955,1.082996020306631,0.8371656976839216,non_fall
3.919201,-0.8878,-0.5205,0.3373,1.257,-0.6141,0.6962,-32.94,10.32,-30.3,,0.004215000000000302,1.082996020306631,0.7998927145547421,non_fall
3.920088,0.0515,-0.5127,0.7362,1.257,-0.6141,0.6962,-32.94,10.32,-30.3,,0.0008869999999996381,0.8986122523090813,0.7705518926469921,non_fall
3.934617,0.0515,-0.5127,0.7362,1.3721,-0.6653,0.7867,-32.94,10.32,-30.3,,0.014529000000000014,0.8986122523090813,0.7513478978614717,non_fall
3.956104,0.0515,-0.5127,0.7362,1.3273,-0.5374,0.9476,-32.94,10.32,-30.3,,0.021487000000000034,0.8986122523090813,0.7457614763092093,non_fall
3.964338,0.0515,-0.5127,0.7362,1.3273,-0.5374,0.9476,-33.9,9.48,-30.3,,0.008234000000000297,0.8986122523090813,0.7581840531849277,non_fall
3.976249,0.0515,-0.5127,0.7362,1.2352,-0.2823,1.1478,-33.9,9.48,-30.3,,0.011911000000000005,0.8986122523090813,0.793373241474744,non_fall
3.979998,0.0515,-0.5127,0.7362,1.2352,-0.2823,1.1478,-33.9,9.48,-30.3,,0.0037490000000000023,0.8986122523090813,0.8557834817969304,non_fall
3.980822,0.6423,-0.3121,-0.4178,1.2352,-0.2823,1.1478,-33.9,9.48,-30.3,,0.0008239999999997139,0.8273527300976288,0.9488428726759989,non_fall
3.997142,0.6423,-0.3121,-0.4178,1.2528,0.0447,1.1952,-33.9,9.48,-30.3,,0.016320000000000334,0.8273527300976288,1.074261110577584,non_fall
4.016437,0.6423,-0.3121,-0.4178,1.403,0.2679,0.9651,-33.9,9.48,-30.3,,0.019294999999999618,0.8273527300976288,1.2314615964662756,non_fall
4.025973,0.6423,-0.3121,-0.4178,1.403,0.2679,0.9651,-34.38,8.28,-29.88,,0.009535999999999767,0.8273527300976288,1.4172292038025798,non_fall
4.03687,0.6423,-0.3121,-0.4178,1.5052,0.1656,0.7436,-34.38,8.28,-29.88,,0.010897000000000823,0.8273527300976288,1.6256500136442675,non_fall
4.041625,0.6423,-0.3121,-0.4178,1.5052,0.1656,0.7436,-34.38,8.28,-29.88,,0.004754999999999399,0.8273527300976288,1.8483873686081882,non_fall
4.043054,1.654,0.7351,2.4206,1.5052,0.1656,0.7436,-34.38,8.28,-29.88,,0.0014289999999999026,3.022481161231613,2.0752883395599055,non_fall
4.058889,1.654,0.7351,2.4206,1.4216,0.0495,0.612,-34.38,8.28,-29.88,,0.015835000000000043,3.022481161231613,2.295250868681771,non_fall
4.078215,1.654,0.7351,2.4206,1.2416,0.2109,0.5981,-34.38,8.28,-29.88,,0.0193260000000004,3.022481161231613,2.497222742977128,non_fall
4.087111,1.654,0.7351,2.4206,1.2416,0.2109,0.5981,-34.26,8.22,-30.12,,0.008896000000000015,3.022481161231613,2.671176380165774,non_fall
4.099378,1.654,0.7351,2.4206,1.0743,0.3968,0.6988,-34.26,8.22,-30.12,,0.012266999999999584,3.022481161231613,2.8089221287600696,non_fall
4.103092,1.654,0.7351,2.4206,1.0743,0.3968,0.6988,-34.26,8.22,-30.12,,0.003714000000000439,3.022481161231613,2.9046738756930606,non_fall
4.104048,-2.4841,0.7452,1.1668,1.0743,0.3968,0.6988,-34.26,8.22,-30.12,,0.0009559999999995128,2.8438526842999448,2.9553374804437382,non_fall
4.119412,-2.4841,0.7452,1.1668,0.874,0.1481,0.7878,-34.26,8.22,-30.12,,0.015363999999999933,2.8438526842999448,2.960536977702829,non_fall
4.140201,-2.4841,0.7452,1.1668,0.6764,-0.3718,0.7963,-34.26,8.22,-30.12,,0.020789000000000613,2.8438526842999448,2.922420822956502,non_fall
4.151016,-2.4841,0.7452,1.1668,0.6764,-0.3718,0.7963,-34.02,7.74,-30.9,,0.010815000000000019,2.8438526842999448,2.8453020455472355,non_fall
4.161445,-2.4841,0.7452,1.1668,0.5784,-0.7686,0.6663,-34.02,7.74,-30.9,,0.010428999999999355,2.8438526842999448,2.735185927074344,non_fall
4.171228,-2.4841,0.7452,1.1668,0.5784,-0.7686,0.6663,-34.02,7.74,-30.9,,0.009783000000000541,2.8438526842999448,2.5992330449701933,non_fall
4.17291,-1.7443,0.0687,0.8667,0.5784,-0.7686,0.6663,-34.02,7.74,-30.9,,0.0016819999999997393,1.9489666672367694,2.4452010507690125,non_fall
4.183718,-1.7443,0.0687,0.8667,0.4708,-1.0658,0.5694,-34.02,7.74,-30.9,,0.010807999999999929,1.9489666672367694,2.2809085947654606,non_fall
4.201745,-1.7443,0.0687,0.8667,0.4155,-1.159,0.5822,-34.02,7.74,-30.9,,0.018027000000000015,1.9489666672367694,2.113765398947394,non_fall
4.211729,-1.7443,0.0687,0.8667,0.4155,-1.159,0.5822,-33.36,7.5,-30.66,,0.009984000000000215,1.9489666672367694,1.95040502112561,non_fall
4.222147,-1.7443,0.0687,0.8667,0.4916,-1.1127,0.6956,-33.36,7.5,-30.66,,0.010417999999999594,1.9489666672367694,1.7964376474332724,non_fall
4.22694,-1.7443,0.0687,0.8667,0.4916,-1.1127,0.6956,-33.36,7.5,-30.66,,0.004793000000000269,1.9489666672367694,1.6563164159581751,non_fall
4.22785,-0.9591,-0.9782,0.1652,0.4916,-1.1127,0.6956,-33.36,7.5,-30.66,,0.0009100000000001884,1.3798692293112416,1.53329416916232,non_fall
4.243029,-0.9591,-0.9782,0.1652,0.6716,-0.9971,0.7824,-33.36,7.5,-30.66,,0.015178999999999832,1.3798692293112416,1.4294443167069584,non_fall
4.263676,-0.9591,-0.9782,0.1652,0.9454,-0.8,0.8836,-33.36,7.5,-30.66,,0.020647000000000304,1.3798692293112416,1.345726286460496,non_fall
4.272421,-0.9591,-0.9782,0.1652,0.9454,-0.8,0.8836,-33.54,7.86,-30.96,,0.008744999999999337,1.3798692293112416,1.2820843159168065,non_fall
4.284164,-0.9591,-0.9782,0.1652,1.2277,-0.555,0.9768,-33.54,7.86,-30.96,,0.011743000000000059,1.3798692293112416,1.2375724658990914,non_fall
4.288331,-0.9591,-0.9782,0.1652,1.2277,-0.555,0.9768,-33.54,7.86,-30.96,,0.004167000000000698,1.3798692293112416,1.2105002827680509,non_fall
4.289247,0.1358,-0.9505,-0.143,1.2277,-0.555,0.9768,-33.54,7.86,-30.96,,0.0009159999999992507,0.9707424426695271,1.1985974556354198,non_fall
4.304032,0.1358,-0.9505,-0.143,1.3779,-0.3265,0.9486,-33.54,7.86,-30.96,,0.014785000000000714,0.9707424426695271,1.1992037936939781,non_fall
4.325373,0.1358,-0.9505,-0.143,1.486,-0.0565,0.8203,-33.54,7.86,-30.96,,0.02134099999999961,0.9707424426695271,1.209498728075401,non_fall
4.333536,0.1358,-0.9505,-0.143,1.486,-0.0565,0.8203,-33.36,8.16,-30.24,,0.008162999999999698,0.9707424426695271,1.2267852255579228,non_fall
4.346287,0.1358,-0.9505,-0.143,1.5489,0.123,0.6093,-33.36,8.16,-30.24,,0.012751000000000623,0.9707424426695271,1.248832046725433,non_fall
4.350348,0.1358,-0.9505,-0.143,1.5489,0.123,0.6093,-33.36,8.16,-30.24,,0.004061000000000092,0.9707424426695271,1.274256884394263,non_fall
4.351261,1.1072,1.5398,-0.3921,1.5489,0.123,0.6093,-33.36,8.16,-30.24,,0.0009129999999997196,1.9366513083154644,1.3029057021614325,non_fall
4.366431,1.1072,1.5398,-0.3921,1.6144,0.1997,0.4421,-33.36,8.16,-30.24,,0.01517000000000035,1.9366513083154644,1.3361566402365868,non_fall
4.386183,1.1072,1.5398,-0.3921,1.7438,0.3947,0.3931,-33.36,8.16,-30.24,,0.019751999999999548,1.9366513083154644,1.3770598500332845,non_fall
4.394978,1.1072,1.5398,-0.3921,1.7438,0.3947,0.3931,-34.02,8.64,-29.52,,0.008795000000000108,1.9366513083154644,1.4302298280027292,non_fall
4.407137,1.1072,1.5398,-0.3921,1.8994,0.8922,0.4794,-34.02,8.64,-29.52,,0.012158999999999587,1.9366513083154644,1.5014399937078304,non_fall
4.410317,1.1072,1.5398,-0.3921,1.8994,0.8922,0.4794,-34.02,8.64,-29.52,,0.0031800000000004047,1.9366513083154644,1.5969233464958261,non_fall
4.41064,-1.0463,0.8674,0.31,1.8994,0.8922,0.4794,-34.02,8.64,-29.52,,0.0003229999999998512,1.3939965746012435,1.7224440740726505,non_fall
4.42691,-1.0463,0.8674,0.31,1.999,1.4046,0.7057,-34.02,8.64,-29.52,,0.01627000000000045,1.3939965746012435,1.8822605934124061,non_fall
4.446798,-1.0463,0.8674,0.31,2.0006,1.4637,1.0717,-34.02,8.64,-29.52,,0.019887999999999906,1.3939965746012435,2.0781402574188825,non_fall
4.456355,-1.0463,0.8674,0.31,2.0006,1.4637,1.0717,-34.2,8.7,-29.7,,0.009557000000000038,1.3939965746012435,2.30859947689963,non_fall
4.468709,-1.0463,0.8674,0.31,1.8211,0.8852,1.3502,-34.2,8.7,-29.7,,0.01235399999999931,1.3939965746012435,2.568523329050988,non_fall
4.473754,-1.0463,0.8674,0.31,1.8211,0.8852,1.3502,-34.2,8.7,-29.7,,0.005044999999999966,1.3939965746012435,2.8492655865219487,non_fall
4.474993,-3.9894,-1.6196,0.9451,1.8211,0.8852,1.3502,-34.2,8.7,-29.7,,0.0012390000000008783,4.408132317660168,3.139248066814423,non_fall
4.489529,-3.9894,-1.6196,0.9451,1.5409,0.106,1.3619,-34.2,8.7,-29.7,,0.01453599999999966,4.408132317660168,3.424978465190758,non_fall
4.510639,-3.9894,-1.6196,0.9451,1.4072,-0.0676,1.1143,-34.2,8.7,-29.7,,0.021110000000000184,4.408132317660168,3.6923151853306915,non_fall
4.519147,-3.9894,-1.6196,0.9451,1.4072,-0.0676,1.1143,-33.54,8.04,-30.54,,0.00850799999999996,4.408132317660168,3.9277636109172147,non_fall
4.530654,-3.9894,-1.6196,0.9451,1.3508,0.0298,0.8495,-33.54,8.04,-30.54,,0.011506999999999934,4.408132317660168,4.1196095781224535,non_fall
4.534744,-3.9894,-1.6196,0.9451,1.3508,0.0298,0.8495,-33.54,8.04,-30.54,,0.004089999999999705,4.408132317660168,4.258763401586245,non_fall
4.535645,-3.0287,2.8434,0.7103,1.3508,0.0298,0.8495,-33.54,8.04,-30.54,,0.0009009999999998186,4.214554939729698,4.33926431967418,non_fall
4.551589,-3.0287,2.8434,0.7103,1.2101,-0.0314,0.6663,-33.54,8.04,-30.54,,0.01594400000000018,4.214554939729698,4.358455498751255,non_fall
4.571768,-3.0287,2.8434,0.7103,1.0578,-0.1406,0.5097,-33.54,8.04,-30.54,,0.020178999999999725,4.214554939729698,4.316877026989535,non_fall
4.580047,-3.0287,2.8434,0.7103,1.0578,-0.1406,0.5097,-33.36,7.14,-32.28,,0.008279000000000813,4.214554939729698,4.217940635851136,non_fall
4.591795,-3.0287,2.8434,0.7103,0.9731,-0.2264,0.5055,-33.36,7.14,-32.28,,0.01174799999999987,4.214554939729698,4.0674505730410395,non_fall
4.596969,-3.0287,2.8434,0.7103,0.9731,-0.2264,0.5055,-33.36,7.14,-32.28,,0.005173999999999346,4.214554939729698,3.8730283330025905,non_fall
4.598775,-2.7008,0.4342,1.0507,0.9731,-0.2264,0.5055,-33.36,7.14,-32.28,,0.0018060000000001963,2.930327758118535,3.6434936855546467,non_fall
4.612337,-2.7008,0.4342,1.0507,0.9513,-0.147,0.5625,-33.36,7.14,-32.28,,0.013562000000000296,2.930327758118535,3.388254813303227,non_fall
4.634307,-2.7008,0.4342,1.0507,0.938,0.0144,0.6349,-33.36,7.14,-32.28,,0.0219699999999996,2.930327758118535,3.116760962999819,non_fall
4.642196,-2.7008,0.4342,1.0507,0.938,0.0144,0.6349,-31.92,6.18,-34.68,,0.007889000000000479,2.930327758118535,2.8380602474799486,non_fall
4.654022,-2.7008,0.4342,1.0507,0.9492,0.0842,0.6919,-31.92,6.18,-34.68,,0.011826000000000114,2.930327758118535,2.5604788338448405,non_fall
4.658589,-2.7008,0.4342,1.0507,0.9492,0.0842,0.6919,-31.92,6.18,-34.68,,0.004566999999999766,2.930327758118535,2.2914071739989135,non_fall
4.659989,-0.1587,0.5621,1.3737,0.9492,0.0842,0.6919,-31.92,6.18,-34.68,,0.00140000000000029,1.4927135659596584,2.037162273308647,non_fall
4.676617,-0.1587,0.5621,1.3737,0.9902,0.0442,0.644,-31.92,6.18,-34.68,,0.016627999999999865,1.4927135659596584,1.802900486049927,non_fall
4.695315,-0.1587,0.5621,1.3737,0.9199,-0.0346,0.5417,-31.92,6.18,-34.68,,0.01869799999999966,1.4927135659596584,1.5925737227224486,non_fall
4.704002,-0.1587,0.5621,1.3737,0.9199,-0.0346,0.5417,-30.78,5.46,-35.88,,0.008687000000000111,1.4927135659596584,1.4089341742721195,non_fall
4.715225,-0.1587,0.5621,1.3737,0.8203,-0.0293,0.4922,-30.78,5.46,-35.88,,0.011223000000000205,1.4927135659596584,1.2535876725737591,non_fall
4.719954,-0.1587,0.5621,1.3737,0.8203,-0.0293,0.4922,-30.78,5.46,-35.88,,0.004729000000000205,1.4927135659596584,1.127080763404771,non_fall
4.720905,0.0541,0.6283,0.6112,0.8203,-0.0293,0.4922,-30.78,5.46,-35.88,,0.0009509999999997021,0.878210191241254,1.0289972504829006,non_fall
4.735974,0.0541,0.6283,0.6112,0.7856,0.0224,0.498,-30.78,5.46,-35.88,,0.015068999999999555,0.878210191241254,0.9580447361790162,non_fall
4.756794,0.0541,0.6283,0.6112,0.7254,0.1411,0.4975,-30.78,5.46,-35.88,,0.020820000000000505,0.878210191241254,0.9121262422831286,non_fall
4.765066,0.0541,0.6283,0.6112,0.7254,0.1411,0.4975,-30.3,5.34,-36.24,,0.008271999999999835,0.878210191241254,0.888405652015563,non_fall
4.776078,0.0541,0.6283,0.6112,0.6232,0.1667,0.5087,-30.3,5.34,-36.24,,0.011012000000000022,0.878210191241254,0.883381165777918,non_fall
4.781153,0.0541,0.6283,0.6112,0.6232,0.1667,0.5087,-30.3,5.34,-36.24,,0.005074999999999719,0.878210191241254,0.8929790779585906,non_fall
4.782167,-0.5264,0.5447,0.457,0.6232,0.1667,0.5087,-30.3,5.34,-36.24,,0.0010140000000005145,0.8846717187748233,0.9126760911788069,non_fall
4.797765,-0.5264,0.5447,0.457,0.531,0.0554,0.5257,-30.3,5.34,-36.24,,0.015597999999999779,0.8846717187748233,0.9376552715059857,non_fall
4.817506,-0.5264,0.5447,0.457,0.4405,-0.2051,0.531,-30.3,5.34,-36.24,,0.019740999999999786,0.8846717187748233,0.9629985145454953,non_fall
4.826866,-0.5264,0.5447,0.457,0.4405,-0.2051,0.531,-29.76,4.74,-36.54,,0.009360000000000035,0.8846717187748233,0.9839157142268409,non_fall
4.838591,-0.5264,0.5447,0.457,0.3654,-0.4117,0.5023,-29.76,4.74,-36.54,,0.011725000000000207,0.8846717187748233,0.9960065724832613,non_fall
4.843026,-0.5264,0.5447,0.457,0.3654,-0.4117,0.5023,-29.76,4.74,-36.54,,0.004434999999999967,0.8846717187748233,0.9955444959736288,non_fall
4.844375,-0.5822,0.236,0.8977,0.3654,-0.4117,0.5023,-29.76,4.74,-36.54,,0.0013490000000002667,1.0956815823951775,0.9797632493455463,non_fall
4.858879,-0.5822,0.236,0.8977,0.2514,-0.4783,0.4804,-29.76,4.74,-36.54,,0.014503999999999628,1.0956815823951775,0.9471170837638314,non_fall
4.879855,-0.5822,0.236,0.8977,0.1262,-0.4453,0.4543,-29.76,4.74,-36.54,,0.020976000000000106,1.0956815823951775,0.8974768573248422,non_fall
4.888274,-0.5822,0.236,0.8977,0.1262,-0.4453,0.4543,-29.34,4.5,-36.9,,0.008418999999999954,1.0956815823951775,0.8322223516923075,non_fall
4.900334,-0.5822,0.236,0.8977,0.0501,-0.424,0.4043,-29.34,4.5,-36.9,,0.01205999999999996,1.0956815823951775,0.7541976332160664,non_fall
4.904394,-0.5822,0.236,0.8977,0.0501,-0.424,0.4043,-29.34,4.5,-36.9,,0.0040599999999999525,1.0956815823951775,0.667512378582928,non_fall
4.905315,-0.0159,0.1344,-0.0819,0.0501,-0.424,0.4043,-29.34,4.5,-36.9,,0.0009209999999999496,0.1581890640973642,0.5771962457240462,non_fall
4.920069,-0.0159,0.1344,-0.0819,0.0778,-0.4176,0.3521,-29.34,4.5,-36.9,,0.014753999999999934,0.1581890640973642,0.48874228490016103,non_fall
4.941164,-0.0159,0.1344,-0.0819,0.155,-0.4059,0.3435,-29.34,4.5,-36.9,,0.021094999999999864,0.1581890640973642,0.4076009926189859,non_fall
4.949914,-0.0159,0.1344,-0.0819,0.155,-0.4059,0.3435,-29.88,3.72,-37.14,,0.008750000000000036,0.1581890640973642,0.33869749126891097,non_fall
4.962189,-0.0159,0.1344,-0.0819,0.1795,-0.367,0.4048,-29.88,3.72,-37.14,,0.012275000000000702,0.1581890640973642,0.28603472456942025,non_fall
4.96602,-0.0159,0.1344,-0.0819,0.1795,-0.367,0.4048,-29.88,3.72,-37.14,,0.003830999999999918,0.1581890640973642,0.2524214008736411,non_fall
4.966971,-0.1585,-0.167,-0.2682,0.1795,-0.367,0.4048,-29.88,3.72,-37.14,,0.0009509999999997021,0.35347204981440894,0.23933622172213886,non_fall
4.982533,-0.1585,-0.167,-0.2682,0.1625,-0.2988,0.4506,-29.88,3.72,-37.14,,0.015562000000000076,0.35347204981440894,0.2469177340055501,non_fall
5.003084,-0.1585,-0.167,-0.2682,0.1672,-0.2759,0.4692,-29.88,3.72,-37.14,,0.020551000000000208,0.35347204981440894,0.27405502285801736,non_fall
5.012064,-0.1585,-0.167,-0.2682,0.1672,-0.2759,0.4692,-30.24,3.6,-37.2,,0.008979999999999322,0.35347204981440894,0.3185492859291058,non_fall
5.023266,-0.1585,-0.167,-0.2682,0.2077,-0.3531,0.4751,-30.24,3.6,-37.2,,0.011201999999999934,0.35347204981440894,0.3773190768183526,non_fall
5.028063,-0.1585,-0.167,-0.2682,0.2077,-0.3531,0.4751,-30.24,3.6,-37.2,,0.004797000000000828,0.35347204981440894,0.4466290767591078,non_fall
5.029536,0.0606,-0.5679,-0.3603,0.2077,-0.3531,0.4751,-30.24,3.6,-37.2,,0.0014729999999998356,0.6752768765476869,0.5223290383969461,non_fall
5.044057,0.0606,-0.5679,-0.3603,0.2722,-0.4906,0.4549,-30.24,3.6,-37.2,,0.01452099999999934,0.6752768765476869,0.6000933025484365,non_fall
5.06462,0.0606,-0.5679,-0.3603,0.3483,-0.6003,0.4602,-30.24,3.6,-37.2,,0.02056300000000011,0.6752768765476869,0.675652756059307,non_fall
5.073079,0.0606,-0.5679,-0.3603,0.3483,-0.6003,0.4602,-30.72,3.66,-36.78,,0.008459000000000216,0.6752768765476869,0.7450131809765705,non_fall
5.085007,0.0606,-0.5679,-0.3603,0.4096,-0.6583,0.4879,-30.72,3.66,-36.78,,0.01192800000000016,0.6752768765476869,0.8046580028168626,non_fall
5.089235,0.0606,-0.5679,-0.3603,0.4096,-0.6583,0.4879,-30.72,3.66,-36.78,,0.004228000000000343,0.6752768765476869,0.8517371230531595,non_fall
5.090355,-0.3449,-0.7345,-0.5872,0.4096,-0.6583,0.4879,-30.72,3.66,-36.78,,0.0011199999999993437,1.001623731747606,0.8842429959342906,non_fall
5.105042,-0.3449,-0.7345,-0.5872,0.4479,-0.621,0.4629,-30.72,3.66,-36.78,,0.014687000000000339,1.001623731747606,0.9011691288533806,non_fall
5.125439,-0.3449,-0.7345,-0.5872,0.4293,-0.5145,0.351,-30.72,3.66,-36.78,,0.020397,1.001623731747606,0.9026378256409064,non_fall
5.134621,-0.3449,-0.7345,-0.5872,0.4293,-0.5145,0.351,-32.1,3.96,-35.64,,0.009182000000000023,1.001623731747606,0.8899787698954392,non_fall
5.146613,-0.3449,-0.7345,-0.5872,0.449,-0.4027,0.2482,-32.1,3.96,-35.64,,0.011992000000000225,1.001623731747606,0.8657417164729235,non_fall
5.15084,-0.3449,-0.7345,-0.5872,0.449,-0.4027,0.2482,-32.1,3.96,-35.64,,0.004226999999999315,1.001623731747606,0.8336347199195049,non_fall
5.151766,0.2005,-0.5196,0.1282,0.449,-0.4027,0.2482,-32.1,3.96,-35.64,,0.0009260000000006485,0.5715064741540554,0.7983912187365306,non_fall
5.16723,0.2005,-0.5196,0.1282,0.5843,-0.3931,0.2583,-32.1,3.96,-35.64,,0.0154639999999997,0.5715064741540554,0.7655820076849114,non_fall
5.187621,0.2005,-0.5196,0.1282,0.5859,-0.3542,0.3372,-32.1,3.96,-35.64,,0.020391000000000048,0.5715064741540554,0.7413978335414515,non_fall
5.195796,0.2005,-0.5196,0.1282,0.5859,-0.3542,0.3372,-32.58,4.32,-35.4,,0.0081749999999996,0.5715064741540554,0.7324300894642073,non_fall
5.208503,0.2005,-0.5196,0.1282,0.6189,-0.1198,0.4751,-32.58,4.32,-35.4,,0.01270700000000069,0.5715064741540554,0.745468324798097,non_fall
5.212788,0.2005,-0.5196,0.1282,0.6189,-0.1198,0.4751,-32.58,4.32,-35.4,,0.004284999999999428,0.5715064741540554,0.7873164765933337,non_fall
5.213737,-0.2569,-0.9482,-1.1835,0.6189,-0.1198,0.4751,-32.58,4.32,-35.4,,0.0009490000000003107,1.5381004843637494,0.8646098596523786,non_fall
5.22852,-0.2569,-0.9482,-1.1835,1.0173,-0.0474,0.4394,-32.58,4.32,-35.4,,0.014782999999999547,1.5381004843637494,0.9835973543337531,non_fall
5.249058,-0.2569,-0.9482,-1.1835,1.6964,0.1055,0.5023,-32.58,4.32,-35.4,,0.020538000000000167,1.5381004843637494,1.1498457031053397,non_fall
5.259033,-0.2569,-0.9482,-1.1835,1.6964,0.1055,0.5023,-33.18,4.2,-35.16,,0.009974999999999845,1.5381004843637494,1.3678347805738527,non_fall
5.269574,-0.2569,-0.9482,-1.1835,0.9934,0.3505,0.7308,-33.18,4.2,-35.16,,0.0105410000000008,1.5381004843637494,1.6404462679518304,non_fall
5.273075,-0.2569,-0.9482,-1.1835,0.9934,0.3505,0.7308,-33.18,4.2,-35.16,,0.0035009999999999764,1.5381004843637494,1.968392129504295,non_fall
5.27414,-0.744,-1.652,1.9378,0.9934,0.3505,0.7308,-33.18,4.2,-35.16,,0.0010649999999996496,2.652868040442268,2.349666030332505,non_fall
5.290478,-0.744,-1.652,1.9378,0.5886,0.3915,0.6029,-33.18,4.2,-35.16,,0.016338000000000186,2.652868040442268,2.7791189818191,non_fall
5.310733,-0.744,-1.652,1.9378,0.9635,0.9609,0.0874,-33.18,4.2,-35.16,,0.02025499999999969,2.652868040442268,3.2482610328097947,non_fall
5.31993,-0.744,-1.652,1.9378,0.9635,0.9609,0.0874,-33.72,3.9,-34.62,,0.009197000000000344,2.652868040442268,3.7453815664201002,non_fall
5.331794,-0.744,-1.652,1.9378,1.2304,0.9902,-0.433,-33.72,3.9,-34.62,,0.011864000000000097,2.652868040442268,4.256062992085264,non_fall
5.335494,-0.744,-1.652,1.9378,1.2304,0.9902,-0.433,-33.72,3.9,-34.62,,0.0036999999999993705,2.652868040442268,4.764123683752127,non_fall
5.336463,0.3181,-5.9461,4.5132,1.2304,0.9902,-0.433,-33.72,3.9,-34.62,,0.0009690000000004417,7.471697736123967,5.252949213146637,non_fall
5.352169,0.3181,-5.9461,4.5132,1.6213,0.7782,-1.0211,-33.72,3.9,-34.62,,0.015705999999999776,7.471697736123967,5.70705856153345,non_fall
5.372235,0.3181,-5.9461,4.5132,2.0235,0.8442,-1.4312,-33.72,3.9,-34.62,,0.020065999999999917,7.471697736123967,6.113643980227808,non_fall
5.380936,0.3181,-5.9461,4.5132,2.0235,0.8442,-1.4312,-33.3,3.54,-34.68,,0.008701000000000292,7.471697736123967,6.463782322225666,non_fall
5.392814,0.3181,-5.9461,4.5132,2.2711,1.3167,-1.8647,-33.3,3.54,-34.68,,0.011878000000000277,7.471697736123967,6.753075638182017,non_fall
5.397145,0.3181,-5.9461,4.5132,2.2711,1.3167,-1.8647,-33.3,3.54,-34.68,,0.004330999999999641,7.471697736123967,6.981611973613625,non_fall
5.398187,3.3289,-5.5285,1.0309,2.2711,1.3167,-1.8647,-33.3,3.54,-34.68,,0.0010419999999999874,6.53518494535541,7.15328544444736,non_fall
5.413988,3.3289,-5.5285,1.0309,2.7548,1.6293,-1.8988,-33.3,3.54,-34.68,,0.015800999999999732,6.53518494535541,7.27463599414917,non_fall
5.434247,3.3289,-5.5285,1.0309,3.0051,1.8999,-1.5654,-33.3,3.54,-34.68,,0.02025900000000025,6.53518494535541,7.353446022790292,non_fall
5.442887,3.3289,-5.5285,1.0309,3.0051,1.8999,-1.5654,-32.76,2.16,-34.86,,0.008639999999999759,6.53518494535541,7.397355663864226,non_fall
5.454752,3.3289,-5.5285,1.0309,2.8128,2.3809,-1.0722,-32.76,2.16,-34.86,,0.011865000000000236,6.53518494535541,7.412731237817909,non_fall
5.459032,3.3289,-5.5285,1.0309,2.8128,2.3809,-1.0722,-32.76,2.16,-34.86,,0.0042799999999996174,6.53518494535541,7.403954315792346,non_fall
5.460343,-1.4727,-0.4487,-7.426,2.8128,2.3809,-1.0722,-32.76,2.16,-34.86,,0.0013110000000002842,7.583907500754476,7.373209701221584,non_fall
5.476001,-1.4727,-0.4487,-7.426,2.366,2.7601,-0.7116,-32.76,2.16,-34.86,,0.015658000000000172,7.583907500754476,7.320755953910353,non_fall
5.495853,-1.4727,-0.4487,-7.426,1.8584,3.2006,-0.4064,-32.76,2.16,-34.86,,0.019852000000000203,7.583907500754476,7.245578315838507,non_fall
5.50464,-1.4727,-0.4487,-7.426,1.8584,3.2006,-0.4064,-30.78,-1.14,-36.0,,0.008786999999999878,7.583907500754476,7.146268320740355,non_fall
5.515856,-1.4727,-0.4487,-7.426,1.3151,3.3897,-0.0964,-30.78,-1.14,-36.0,,0.011216000000000115,7.583907500754476,7.021956671797995,non_fall
5.518566,-1.4727,-0.4487,-7.426,1.3151,3.3897,-0.0964,-30.78,-1.14,-36.0,,0.002709999999999546,7.583907500754476,6.873142036742467,non_fall
5.518787,2.4345,5.4423,-2.2804,1.3151,3.3897,-0.0964,-30.78,-1.14,-36.0,,0.00022099999999980469,6.383231446532391,6.7022967307273404,non_fall
5.536597,2.4345,5.4423,-2.2804,1.1595,3.0861,0.0724,-30.78,-1.14,-36.0,,0.01781000000000077,6.383231446532391,6.514179945135185,non_fall
5.557262,2.4345,5.4423,-2.2804,1.1979,2.2898,0.2642,-30.78,-1.14,-36.0,,0.020664999999999267,6.383231446532391,6.3158384336674205,non_fall
5.56625,2.4345,5.4423,-2.2804,1.1979,2.2898,0.2642,-27.24,-6.0,-38.22,,0.00898800000000044,6.383231446532391,6.116309909077477,non_fall
5.577884,2.4345,5.4423,-2.2804,0.8485,1.101,0.4245,-27.24,-6.0,-38.22,,0.011633999999999922,6.383231446532391,5.926060361735958,non_fall
5.582155,2.4345,5.4423,-2.2804,0.8485,1.101,0.4245,-27.24,-6.0,-38.22,,0.004271000000000136,6.383231446532391,5.756192734404576,non_fall
5.58308,-4.3436,2.7716,0.246,0.8485,1.101,0.4245,-27.24,-6.0,-38.22,,0.0009249999999996206,5.158405133372136,5.6174769920066785,non_fall
5.598507,-4.3436,2.7716,0.246,0.3622,0.3973,0.2684,-27.24,-6.0,-38.22,,0.015426999999999857,5.158405133372136,5.519277798727245,non_fall
5.618181,-4.3436,2.7716,0.246,0.0352,0.2301,-0.2716,-27.24,-6.0,-38.22,,0.01967400000000019,5.158405133372136,5.468487069472292,non_fall
5.627451,-4.3436,2.7716,0.246,0.0352,0.2301,-0.2716,-22.86,-10.8,-40.14,,0.00926999999999989,5.158405133372136,5.4685867602497025,non_fall
5.639854,-4.3436,2.7716,0.246,-0.1625,0.0868,-0.9646,-22.86,-10.8,-40.14,,0.012402999999999942,5.158405133372136,5.518960843913372,non_fall
5.644086,-4.3436,2.7716,0.246,-0.1625,0.0868,-0.9646,-22.86,-10.8,-40.14,,0.0042320000000000135,5.158405133372136,5.614547936046034,non_fall
5.645445,-4.4026,3.5652,1.4025,-0.1625,0.0868,-0.9646,-22.86,-10.8,-40.14,,0.001358999999999888,5.8361411951734,5.745888546017908,non_fall
5.659716,-4.4026,3.5652,1.4025,-0.2386,-0.1454,-0.9401,-22.86,-10.8,-40.14,,0.01427100000000081,5.8361411951734,5.899581472518229,non_fall
5.680115,-4.4026,3.5652,1.4025,-0.3675,-0.3254,-0.2125,-22.86,-10.8,-40.14,,0.02039899999999939,5.8361411951734,6.059127276248411,non_fall
5.689297,-4.4026,3.5652,1.4025,-0.3675,-0.3254,-0.2125,-18.42,-14.58,-42.0,,0.009182000000000023,5.8361411951734,6.2061075791158435,non_fall
5.700923,-4.4026,3.5652,1.4025,-0.4783,-0.7776,0.1161,-18.42,-14.58,-42.0,,0.01162600000000058,5.8361411951734,6.32162776959488,non_fall
5.705289,-4.4026,3.5652,1.4025,-0.4783,-0.7776,0.1161,-18.42,-14.58,-42.0,,0.004365999999999204,5.8361411951734,6.3879307936536645,non_fall
5.706458,-2.8043,6.4297,0.7372,-0.4783,-0.7776,0.1161,-18.42,-14.58,-42.0,,0.0011689999999999756,7.053269059095931,6.390062308720618,non_fall
5.721995,-2.8043,6.4297,0.7372,-0.5044,-0.9433,-0.1257,-18.42,-14.58,-42.0,,0.015537000000000134,7.053269059095931,6.317431775436666,non_fall
5.742582,-2.8043,6.4297,0.7372,-0.6083,-0.6642,-0.3542,-18.42,-14.58,-42.0,,0.02058699999999991,7.053269059095931,6.165082827272309,non_fall
5.750812,-2.8043,6.4297,0.7372,-0.6083,-0.6642,-0.3542,-15.0,-16.32,-42.96,,0.008230000000000182,7.053269059095931,5.934480632927078,non_fall
5.762605,-2.8043,6.4297,0.7372,-0.7329,-0.1784,-0.6589,-15.0,-16.32,-42.96,,0.011792999999999942,7.053269059095931,5.633659063657734,non_fall
5.76697,-2.8043,6.4297,0.7372,-0.7329,-0.1784,-0.6589,-15.0,-16.32,-42.96,,0.004364999999999952,7.053269059095931,5.276646625315135,non_fall
5.76795,-0.1337,2.7038,-1.5209,-0.7329,-0.1784,-0.6589,-15.0,-16.32,-42.96,,0.000980000000000203,3.1050840471716707,4.8821983495496895,non_fall
5.783526,-0.1337,2.7038,-1.5209,-0.7649,0.5534,-0.9268,-15.0,-16.32,-42.96,,0.015576000000000256,3.1050840471716707,4.471985495529393,non_fall
5.803922,-0.1337,2.7038,-1.5209,-0.5806,1.0818,-1.0003,-15.0,-16.32,-42.96,,0.02039599999999986,3.1050840471716707,4.068502863468489,non_fall
5.812329,-0.1337,2.7038,-1.5209,-0.5806,1.0818,-1.0003,-13.92,-15.96,-43.44,,0.008407000000000053,3.1050840471716707,3.692998769642517,non_fall
5.825777,-0.1337,2.7038,-1.5209,-0.5561,1.3699,-0.9737,-13.92,-15.96,-43.44,,0.013448000000000349,3.1050840471716707,3.3636936166723377,non_fall
5.827675,-0.1337,2.7038,-1.5209,-0.5561,1.3699,-0.9737,-13.92,-15.96,-43.44,,0.0018979999999997332,3.1050840471716707,3.0944570970109395,non_fall
5.828452,-2.6147,0.5625,0.3919,-0.5561,1.3699,-0.9737,-13.92,-15.96,-43.44,,0.0007770000000002497,2.70308119559883,2.8940121361432634,non_fall
5.844799,-2.6147,0.5625,0.3919,-0.6834,1.4285,-0.8634,-13.92,-15.96,-43.44,,0.016346999999999667,2.70308119559883,2.76565825719657,non_fall
5.86505,-2.6147,0.5625,0.3919,-0.7201,1.0764,-0.7308,-13.92,-15.96,-43.44,,0.02025100000000002,2.70308119559883,2.7074622541196316,non_fall
5.876296,-2.6147,0.5625,0.3919,-0.7201,1.0764,-0.7308,-13.5,-15.48,-43.8,,0.011245999999999867,2.70308119559883,2.7128398997933294,non_fall
5.885754,-2.6147,0.5625,0.3919,-0.7851,0.6967,-0.637,-13.5,-15.48,-43.8,,0.00945800000000041,2.70308119559883,2.7714386688730506,non_fall
5.889719,-2.6147,0.5625,0.3919,-0.7851,0.6967,-0.637,-13.5,-15.48,-43.8,,0.003964999999999996,2.70308119559883,2.8702227434646046,non_fall
5.89081,-3.6038,-0.0766,0.3411,-0.7851,0.6967,-0.637,-13.5,-15.48,-43.8,,0.001090999999999731,3.620716946959538,2.994655734248721,non_fall
5.906711,-3.6038,-0.0766,0.3411,-0.7675,0.4432,-0.5268,-13.5,-15.48,-43.8,,0.0159009999999995,3.620716946959538,3.129873186189424,non_fall
5.926822,-3.6038,-0.0766,0.3411,-0.8426,0.1321,-0.4831,-13.5,-15.48,-43.8,,0.02011099999999999,3.620716946959538,3.261739883093232,non_fall
5.935803,-3.6038,-0.0766,0.3411,-0.8426,0.1321,-0.4831,-12.9,-14.52,-44.28,,0.00898100000000035,3.620716946959538,3.3777037774153786,non_fall
5.947247,-3.6038,-0.0766,0.3411,-0.9199,-0.0847,-0.5561,-12.9,-14.52,-44.28,,0.01144400000000001,3.620716946959538,3.4673920266633034,non_fall
5.951641,-3.6038,-0.0766,0.3411,-0.9199,-0.0847,-0.5561,-12.9,-14.52,-44.28,,0.004394000000000453,3.620716946959538,3.5229377522549186,non_fall
5.952632,-2.0873,2.3577,0.2429,-0.9199,-0.0847,-0.5561,-12.9,-14.52,-44.28,,0.0009909999999999641,3.158254421353669,3.5390667646009955,non_fall
5.967143,-2.0873,2.3577,0.2429,-1.0882,-0.2732,-0.6823,-12.9,-14.52,-44.28,,0.014510999999999719,3.158254421353669,3.5130031938479376,non_fall
5.988337,-2.0873,2.3577,0.2429,-1.2437,-0.3782,-0.7931,-12.9,-14.52,-44.28,,0.02119399999999949,3.158254421353669,3.4442672645750534,non_fall
5.996961,-2.0873,2.3577,0.2429,-1.2437,-0.3782,-0.7931,-11.58,-12.72,-44.52,,0.008624000000000187,3.158254421353669,3.3344346603601753,non_fall
6.009039,-2.0873,2.3577,0.2429,-1.3502,-0.3894,-0.8352,-11.58,-12.72,-44.52,,0.012077999999999811,3.158254421353669,3.1869064347315055,non_fall
6.012697,-2.0873,2.3577,0.2429,-1.3502,-0.3894,-0.8352,-11.58,-12.72,-44.52,,0.003658000000000605,3.158254421353669,3.0067090296975993,non_fall
6.01363,-0.3117,2.5116,-0.6349,-1.3502,-0.3894,-0.8352,-11.58,-12.72,-44.52,,0.0009329999999998506,2.6092890717588193,2.8003163025982274,non_fall
6.029316,-0.3117,2.5116,-0.6349,-1.338,-0.3638,-0.8346,-11.58,-12.72,-44.52,,0.015685999999999645,2.6092890717588193,2.575466751325593,non_fall
6.050253,-0.3117,2.5116,-0.6349,-1.3422,-0.3185,-0.7153,-11.58,-12.72,-44.52,,0.020936999999999983,2.6092890717588193,2.3409400625395547,non_fall
6.059156,-0.3117,2.5116,-0.6349,-1.3422,-0.3185,-0.7153,-9.6,-10.68,-44.82,,0.008903000000000105,2.6092890717588193,2.1062544596365407,non_fall
6.070884,-0.3117,2.5116,-0.6349,-1.2842,-0.1571,-0.4938,-9.6,-10.68,-44.82,,0.011728000000000627,2.6092890717588193,1.8812494904676114,non_fall
6.075194,-0.3117,2.5116,-0.6349,-1.2842,-0.1571,-0.4938,-9.6,-10.68,-44.82,,0.00430999999999937,2.6092890717588193,1.6755335409071817,non_fall
6.076648,-0.213,0.5982,0.0054,-1.2842,-0.1571,-0.4938,-9.6,-10.68,-44.82,,0.0014539999999998443,0.6350129132545258,1.497808815456993,non_fall
6.092661,-0.213,0.5982,0.0054,-1.2032,-0.122,-0.278,-9.6,-10.68,-44.82,,0.016013000000000055,0.6350129132545258,1.355137450656293,non_fall
6.111043,-0.213,0.5982,0.0054,-1.1627,-0.1928,-0.1987,-9.6,-10.68,-44.82,,0.0183819999999999,0.6350129132545258,1.252263060684926,non_fall
6.119876,-0.213,0.5982,0.0054,-1.1627,-0.1928,-0.1987,-8.22,-7.98,-45.9,,0.00883300000000009,0.6350129132545258,1.191124616985747,non_fall
6.131847,-0.213,0.5982,0.0054,-1.0679,-0.1875,-0.2578,-8.22,-7.98,-45.9,,0.011970999999999954,0.6350129132545258,1.1706780825862104,non_fall
6.135744,-0.213,0.5982,0.0054,-1.0679,-0.1875,-0.2578,-8.22,-7.98,-45.9,,0.0038970000000002614,0.6350129132545258,1.1870846382093456,non_fall
6.136665,0.4769,1.3193,1.0828,-1.0679,-0.1875,-0.2578,-8.22,-7.98,-45.9,,0.0009209999999999496,1.7721292108647155,1.2342545505656715,non_fall
6.151558,0.4769,1.3193,1.0828,-0.9193,-0.2147,-0.3776,-8.22,-7.98,-45.9,,0.014892999999999823,1.7721292108647155,1.3046702423263683,non_fall
6.173276,0.4769,1.3193,1.0828,-0.8794,-0.13,-0.4874,-8.22,-7.98,-45.9,,0.021718000000000792,1.7721292108647155,1.3903634500885698,non_fall
6.182409,0.4769,1.3193,1.0828,-0.8794,-0.13,-0.4874,-7.8,-4.98,-46.2,,0.009132999999999392,1.7721292108647155,1.483901137077687,non_fall
6.193784,0.4769,1.3193,1.0828,-0.7942,-0.074,-0.5561,-7.8,-4.98,-46.2,,0.011375000000000135,1.7721292108647155,1.5792469799301252,non_fall
6.198464,0.4769,1.3193,1.0828,-0.7942,-0.074,-0.5561,-7.8,-4.98,-46.2,,0.004680000000000462,1.7721292108647155,1.6723996188245491,non_fall
6.199422,0.3334,1.8729,0.8194,-0.7942,-0.074,-0.5561,-7.8,-4.98,-46.2,,0.0009579999999997924,2.0713102930270972,1.7617488418263967,non_fall
6.21441,0.3334,1.8729,0.8194,-0.6461,-0.1119,-0.5736,-7.8,-4.98,-46.2,,0.01498799999999978,2.0713102930270972,1.8481257354542195,non_fall
6.23478,0.3334,1.8729,0.8194,-0.5646,-0.1454,-0.5252,-7.8,-4.98,-46.2,,0.020369999999999777,2.0713102930270972,1.934551204934309,non_fall
6.242878,0.3334,1.8729,0.8194,-0.5646,-0.1454,-0.5252,-8.16,-2.34,-46.56,,0.008098000000000383,2.0713102930270972,2.0257125185220364,non_fall
6.254992,0.3334,1.8729,0.8194,-0.4309,-0.2535,-0.49,-8.16,-2.34,-46.56,,0.012113999999999514,2.0713102930270972,2.127221791743732,non_fall
6.25924,0.3334,1.8729,0.8194,-0.4309,-0.2535,-0.49,-8.16,-2.34,-46.56,,0.004248000000000474,2.0713102930270972,2.244731749935693,non_fall
6.260724,0.064,1.1278,2.1815,-0.4309,-0.2535,-0.49,-8.16,-2.34,-46.56,,0.0014839999999995968,2.4566178152085443,2.3829987655183666,non_fall
6.276326,0.064,1.1278,2.1815,-0.2913,-0.2882,-0.474,-8.16,-2.34,-46.56,,0.015602000000000338,2.4566178152085443,2.5449888559575187,non_fall
6.296284,0.064,1.1278,2.1815,-0.131,-0.1177,-0.4517,-8.16,-2.34,-46.56,,0.01995799999999992,2.4566178152085443,2.7311204297047085,non_fall
6.304782,0.064,1.1278,2.1815,-0.131,-0.1177,-0.4517,-8.4,-0.3,-47.04,,0.008498000000000339,2.4566178152085443,2.938731169859719,non_fall
6.317011,0.064,1.1278,2.1815,-0.0554,0.171,-0.3547,-8.4,-0.3,-47.04,,0.012228999999999601,2.4566178152085443,3.1618457942799156,non_fall
6.32044,0.064,1.1278,2.1815,-0.0554,0.171,-0.3547,-8.4,-0.3,-47.04,,0.0034289999999996823,2.4566178152085443,3.391301468342117,non_fall
6.321417,-2.4676,3.2799,-0.7413,-0.0554,0.171,-0.3547,-8.4,-0.3,-47.04,,0.0009770000000006718,4.170889528625758,3.6152516071677323,non_fall
6.336852,-2.4676,3.2799,-0.7413,-0.4059,0.2791,-0.2184,-8.4,-0.3,-47.04,,0.015435000000000088,4.170889528625758,3.820016505558364,non_fall
6.357699,-2.4676,3.2799,-0.7413,-0.5129,-0.0964,0.008,-8.4,-0.3,-47.04,,0.020846999999999838,4.170889528625758,3.9911939319366656,non_fall
6.366313,-2.4676,3.2799,-0.7413,-0.5129,-0.0964,0.008,-9.36,1.32,-46.56,,0.008613999999999677,4.170889528625758,4.114906289365144,non_fall
6.378211,-2.4676,3.2799,-0.7413,-0.4533,-0.3744,0.2663,-9.36,1.32,-46.56,,0.011898000000000408,4.170889528625758,4.1790552497906,non_fall
6.382566,-2.4676,3.2799,-0.7413,-0.4533,-0.3744,0.2663,-9.36,1.32,-46.56,,0.004354999999999443,4.170889528625758,4.1744710776763245,non_fall
6.383512,-3.7778,1.7669,0.5799,-0.4533,-0.3744,0.2663,-9.36,1.32,-46.56,,0.0009459999999998914,4.210699758947436,4.095863740824777,non_fall
6.398699,-3.7778,1.7669,0.5799,-0.3606,-0.3904,0.3824,-9.36,1.32,-46.56,,0.015187000000000062,4.210699758947436,3.942495950147349,non_fall
6.419589,-3.7778,1.7669,0.5799,-0.4527,-0.3286,0.2605,-9.36,1.32,-46.56,,0.02089000000000052,4.210699758947436,3.7185060230623534,non_fall
6.427652,-3.7778,1.7669,0.5799,-0.4527,-0.3286,0.2605,-9.72,2.28,-46.08,,0.008062999999999931,4.210699758947436,3.4328184089442906,non_fall
6.439172,-3.7778,1.7669,0.5799,-0.6067,-0.2365,0.0682,-9.72,2.28,-46.08,,0.011519999999999975,4.210699758947436,3.098600426353294,non_fall
6.44391,-3.7778,1.7669,0.5799,-0.6067,-0.2365,0.0682,-9.72,2.28,-46.08,,0.004737999999999687,4.210699758947436,2.732263349328189,non_fall
6.445312,-0.6756,-0.0992,-0.0016,-0.6067,-0.2365,0.0682,-9.72,2.28,-46.08,,0.0014020000000005695,0.682845926984997,2.3520701636465953,non_fall
6.460289,-0.6756,-0.0992,-0.0016,-0.6051,-0.1486,0.0687,-9.72,2.28,-46.08,,0.014977000000000018,0.682845926984997,1.9764960806674126,non_fall
6.480944,-0.6756,-0.0992,-0.0016,-0.5055,-0.1076,0.1257,-9.72,2.28,-46.08,,0.020654999999999646,0.682845926984997,1.6225636114214705,non_fall
6.489691,-0.6756,-0.0992,-0.0016,-0.5055,-0.1076,0.1257,-10.32,3.48,-45.72,,0.008746999999999616,0.682845926984997,1.304399169466293,non_fall
6.501032,-0.6756,-0.0992,-0.0016,-0.4655,-0.1832,0.1156,-10.32,3.48,-45.72,,0.011341000000000712,0.682845926984997,1.032211365871296,non_fall
6.504855,-0.6756,-0.0992,-0.0016,-0.4655,-0.1832,0.1156,-10.32,3.48,-45.72,,0.0038229999999996878,0.682845926984997,0.811795048674039,non_fall
6.505766,0.4254,-0.5848,0.1126,-0.4655,-0.1832,0.1156,-10.32,3.48,-45.72,,0.0009110000000003282,0.7318708629259673,0.6445635931638514,non_fall
6.522088,0.4254,-0.5848,0.1126,-0.4458,-0.3398,0.049,-10.32,3.48,-45.72,,0.016321999999999726,0.7318708629259673,0.5280342329497983,non_fall
6.541354,0.4254,-0.5848,0.1126,-0.5651,-0.3212,-0.0368,-10.32,3.48,-45.72,,0.019266000000000005,0.7318708629259673,0.45664432971793495,non_fall
6.551275,0.4254,-0.5848,0.1126,-0.5651,-0.3212,-0.0368,-10.92,4.68,-45.36,,0.00992100000000029,0.7318708629259673,0.42275701668020604,non_fall
6.563168,0.4254,-0.5848,0.1126,-0.6764,-0.2328,-0.0911,-10.92,4.68,-45.36,,0.01189299999999971,0.7318708629259673,0.4177170331530714,non_fall
6.567151,0.4254,-0.5848,0.1126,-0.6764,-0.2328,-0.0911,-10.92,4.68,-45.36,,0.003982999999999848,0.7318708629259673,0.4328357762609002,non_fall
6.568128,0.6213,-0.0337,0.0022,-0.6764,-0.2328,-0.0911,-10.92,4.68,-45.36,,0.0009769999999997836,0.6222171807335442,0.4602127903127993,non_fall
6.583891,0.6213,-0.0337,0.0022,-0.6701,-0.1614,-0.1427,-10.92,4.68,-45.36,,0.015763000000000638,0.6222171807335442,0.4933339225100407,non_fall
6.604192,0.6213,-0.0337,0.0022,-0.5294,-0.0953,-0.1891,-10.92,4.68,-45.36,,0.020300999999999902,0.6222171807335442,0.5274195756090322,non_fall
6.612943,0.6213,-0.0337,0.0022,-0.5294,-0.0953,-0.1891,-11.4,6.0,-44.88,,0.008750999999999287,0.6222171807335442,0.5595259348546381,non_fall
6.625573,0.6213,-0.0337,0.0022,-0.4213,0.0091,-0.1784,-11.4,6.0,-44.88,,0.012630000000000585,0.6222171807335442,0.5884254019639693,non_fall
6.627675,0.6213,-0.0337,0.0022,-0.4213,0.0091,-0.1784,-11.4,6.0,-44.88,,0.0021019999999998262,0.6222171807335442,0.6143095669939624,non_fall
6.628493,0.4609,0.1661,-0.0413,-0.4213,0.0091,-0.1784,-11.4,6.0,-44.88,,0.0008179999999997634,0.49165405520548694,0.638369936866986,non_fall
6.645574,0.4609,0.1661,-0.0413,-0.4293,0.0458,-0.1342,-11.4,6.0,-44.88,,0.017081000000000124,0.49165405520548694,0.6623189534976813,non_fall
6.665936,0.4609,0.1661,-0.0413,-0.4341,-0.0234,-0.0831,-11.4,6.0,-44.88,,0.020362000000000435,0.49165405520548694,0.6879159333443817,non_fall
6.675519,0.4609,0.1661,-0.0413,-0.4341,-0.0234,-0.0831,-12.18,7.32,-44.76,,0.00958300000000012,0.49165405520548694,0.7165580321074323,non_fall
6.686409,0.4609,0.1661,-0.0413,-0.3137,-0.0895,-0.1039,-12.18,7.32,-44.76,,0.010889999999999844,0.49165405520548694,0.7489844855304544,non_fall
6.689635,0.4609,0.1661,-0.0413,-0.3137,-0.0895,-0.1039,-12.18,7.32,-44.76,,0.003225999999999729,0.49165405520548694,0.7851240578839433,non_fall
6.690792,-0.2111,-1.0315,-0.0047,-0.3137,-0.0895,-0.1039,-12.18,7.32,-44.76,,0.0011570000000000746,1.052890093979424,0.8240926534560417,non_fall
6.706239,-0.2111,-1.0315,-0.0047,-0.2487,-0.1017,-0.1246,-12.18,7.32,-44.76,,0.015446999999999989,1.052890093979424,0.8643231742961393,non_fall
6.726922,-0.2111,-1.0315,-0.0047,-0.2519,0.0224,-0.1438,-12.18,7.32,-44.76,,0.020683000000000007,1.052890093979424,0.9037882434549153,non_fall
6.736322,-0.2111,-1.0315,-0.0047,-0.2519,0.0224,-0.1438,-12.36,8.46,-45.18,,0.009400000000000297,1.052890093979424,0.9402654005512203,non_fall
6.747563,-0.2111,-1.0315,-0.0047,-0.2455,0.1092,-0.1752,-12.36,8.46,-45.18,,0.011241000000000057,1.052890093979424,0.9715972226091849,non_fall
6.751839,-0.2111,-1.0315,-0.0047,-0.2455,0.1092,-0.1752,-12.36,8.46,-45.18,,0.0042759999999999465,1.052890093979424,0.995911762592137,non_fall
6.752799,-0.5146,0.8195,0.2187,-0.2455,0.1092,-0.1752,-12.36,8.46,-45.18,,0.0009600000000000719,0.992080188291249,1.0117844825479783,non_fall
6.768644,-0.5146,0.8195,0.2187,-0.2498,0.0293,-0.1683,-12.36,8.46,-45.18,,0.015844999999999665,0.992080188291249,1.0183364007983315,non_fall
6.788943,-0.5146,0.8195,0.2187,-0.2802,-0.1209,-0.1055,-12.36,8.46,-45.18,,0.020298999999999623,0.992080188291249,1.015272654984317,non_fall
6.798069,-0.5146,0.8195,0.2187,-0.2802,-0.1209,-0.1055,-12.42,9.96,-44.94,,0.00912600000000019,0.992080188291249,1.0028708361485654,non_fall
6.809185,-0.5146,0.8195,0.2187,-0.294,-0.3446,-0.0064,-12.42,9.96,-44.94,,0.011116000000000348,0.992080188291249,0.9819298221707659,non_fall
6.81341,-0.5146,0.8195,0.2187,-0.294,-0.3446,-0.0064,-12.42,9.96,-44.94,,0.004224999999999923,0.992080188291249,0.9536888753323687,non_fall
6.814439,-0.8279,0.1854,0.0504,-0.294,-0.3446,-0.0064,-12.42,9.96,-44.94,,0.0010289999999999466,0.8499010118831486,0.9197252792827614,non_fall
6.830248,-0.8279,0.1854,0.0504,-0.2487,-0.5044,0.0405,-12.42,9.96,-44.94,,0.015808999999999962,0.8499010118831486,0.8818379331981737,non_fall
6.850733,-0.8279,0.1854,0.0504,-0.2274,-0.5017,0.0245,-12.42,9.96,-44.94,,0.020484999999999864,0.8499010118831486,0.8419239355809996,non_fall
6.859725,-0.8279,0.1854,0.0504,-0.2274,-0.5017,0.0245,-12.3,10.98,-44.58,,0.008992000000000111,0.8499010118831486,0.801854279668878,non_fall
6.870486,-0.8279,0.1854,0.0504,-0.2125,-0.5023,-0.0405,-12.3,10.98,-44.58,,0.010760999999999576,0.8499010118831486,0.7633530753649218,non_fall
6.875177,-0.8279,0.1854,0.0504,-0.2125,-0.5023,-0.0405,-12.3,10.98,-44.58,,0.004691000000000223,0.8499010118831486,0.7278835952102555,non_fall
6.87664,0.1109,-0.5062,-0.1799,-0.2125,-0.5023,-0.0405,-12.3,10.98,-44.58,,0.0014630000000002141,0.5485446745708137,0.6965458768340572,non_fall
6.892804,0.1109,-0.5062,-0.1799,-0.1976,-0.3356,-0.0666,-12.3,10.98,-44.58,,0.016163999999999845,0.5485446745708137,0.6699949800091137,non_fall
6.912745,0.1109,-0.5062,-0.1799,-0.1214,-0.1747,0.0075,-12.3,10.98,-44.58,,0.01994100000000021,0.5485446745708137,0.6483937874596634,non_fall
6.921017,0.1109,-0.5062,-0.1799,-0.1214,-0.1747,0.0075,-12.18,12.0,-44.46,,0.008271999999999835,0.5485446745708137,0.6314152629824389,non_fall
6.932969,0.1109,-0.5062,-0.1799,-0.1305,-0.2898,-0.0005,-12.18,12.0,-44.46,,0.011951999999999963,0.5485446745708137,0.6183039269259113,non_fall
6.936719,0.1109,-0.5062,-0.1799,-0.1305,-0.2898,-0.0005,-12.18,12.0,-44.46,,0.003750000000000142,0.5485446745708137,0.6079964315220786,non_fall
6.937603,-0.0408,-0.1758,-0.6525,-0.1305,-0.2898,-0.0005,-12.18,12.0,-44.46,,0.0008840000000001069,0.6769981757730222,0.5992899799347128,non_fall
6.953293,-0.0408,-0.1758,-0.6525,-0.0101,-0.1582,0.1039,-12.18,12.0,-44.46,,0.015690000000000204,0.6769981757730222,0.5910376623389407,non_fall
6.973535,-0.0408,-0.1758,-0.6525,0.0016,-0.0682,0.106,-12.18,12.0,-44.46,,0.02024199999999965,0.6769981757730222,0.582343336253899,non_fall
6.982481,-0.0408,-0.1758,-0.6525,0.0016,-0.0682,0.106,-13.08,12.36,-43.14,,0.008945999999999898,0.6769981757730222,0.5727269566280505,non_fall
6.995041,-0.0408,-0.1758,-0.6525,-0.0075,-0.0186,0.1321,-13.08,12.36,-43.14,,0.012559999999999683,0.6769981757730222,0.5622349052630233,non_fall
6.998687,-0.0408,-0.1758,-0.6525,-0.0075,-0.0186,0.1321,-13.08,12.36,-43.14,,0.0036460000000007042,0.6769981757730222,0.5514779567350798,non_fall
6.999613,0.2307,-0.4294,0.1082,-0.0075,-0.0186,0.1321,-13.08,12.36,-43.14,,0.0009259999999997603,0.49931361888095943,0.5415902928183948,non_fall
7.014845,0.2307,-0.4294,0.1082,0.0533,0.0751,0.1353,-13.08,12.36,-43.14,,0.015232000000000134,0.49931361888095943,0.5341147102906648,non_fall
7.035526,0.2307,-0.4294,0.1082,0.0714,0.2232,0.1933,-13.08,12.36,-43.14,,0.020680999999999727,0.49931361888095943,0.5308298201525208,non_fall
7.04386,0.2307,-0.4294,0.1082,0.0714,0.2232,0.1933,-14.04,12.36,-42.72,,0.00833399999999962,0.49931361888095943,0.5335421999108525,non_fall
7.056353,0.2307,-0.4294,0.1082,0.1033,0.2642,0.2818,-14.04,12.36,-42.72,,0.012493000000000087,0.49931361888095943,0.5438688234182392,non_fall
7.060535,0.2307,-0.4294,0.1082,0.1033,0.2642,0.2818,-14.04,12.36,-42.72,,0.00418200000000013,0.49931361888095943,0.5630335010776414,non_fall
7.062291,-0.2502,-0.4031,-0.3922,0.1033,0.2642,0.2818,-14.04,12.36,-42.72,,0.0017560000000003129,0.6155570566568139,0.5916973898215592,non_fall
7.076121,-0.2502,-0.4031,-0.3922,0.0884,0.2658,0.3079,-14.04,12.36,-42.72,,0.013829999999999565,0.6155570566568139,0.6298392211099293,non_fall
7.097086,-0.2502,-0.4031,-0.3922,0.0277,0.0948,0.4,-14.04,12.36,-42.72,,0.020965000000000344,0.6155570566568139,0.6766965476175365,non_fall
7.105745,-0.2502,-0.4031,-0.3922,0.0277,0.0948,0.4,-14.76,12.12,-42.6,,0.00865899999999975,0.6155570566568139,0.7307756364207513,non_fall
7.117465,-0.2502,-0.4031,-0.3922,-0.0075,0.017,0.482,-14.76,12.12,-42.6,,0.011720000000000397,0.6155570566568139,0.7899343417271999,non_fall
7.12162,-0.2502,-0.4031,-0.3922,-0.0075,0.017,0.482,-14.76,12.12,-42.6,,0.004154999999999909,0.6155570566568139,0.8515375669151872,non_fall
7.122767,-0.6596,-0.9405,0.0612,-0.0075,0.017,0.482,-14.76,12.12,-42.6,,0.001146999999999565,1.1503729177966595,0.9126765470219379,non_fall
7.138101,-0.6596,-0.9405,0.0612,0.0234,0.0666,0.6131,-14.76,12.12,-42.6,,0.01533400000000018,1.1503729177966595,0.9704310224576482,non_fall
7.158825,-0.6596,-0.9405,0.0612,-0.0373,0.0101,0.5992,-14.76,12.12,-42.6,,0.02072400000000041,1.1503729177966595,1.0221414945666603,non_fall
7.167194,-0.6596,-0.9405,0.0612,-0.0373,0.0101,0.5992,-15.12,11.94,-42.06,,0.00836900000000007,1.1503729177966595,1.065653827820219,non_fall
7.178994,-0.6596,-0.9405,0.0612,-0.0479,-0.3356,0.8075,-15.12,11.94,-42.06,,0.011800000000000033,1.1503729177966595,1.0995040431366438,non_fall
7.183683,-0.6596,-0.9405,0.0612,-0.0479,-0.3356,0.8075,-15.12,11.94,-42.06,,0.004688999999999943,1.1503729177966595,1.1230241117379467,non_fall
7.184668,0.3869,-1.0733,0.0408,-0.0479,-0.3356,0.8075,-15.12,11.94,-42.06,,0.0009850000000000136,1.141634416089494,1.1363635797838194,non_fall
7.199651,0.3869,-1.0733,0.0408,-0.2658,-0.6642,1.0408,-15.12,11.94,-42.06,,0.014982999999999969,1.141634416089494,1.140432810214358,non_fall
7.219847,0.3869,-1.0733,0.0408,-0.4155,-0.5609,1.1132,-15.12,11.94,-42.06,,0.020195999999999437,1.141634416089494,1.136780753911422,non_fall
7.228986,0.3869,-1.0733,0.0408,-0.4155,-0.5609,1.1132,-14.7,11.82,-42.36,,0.00913900000000023,1.141634416089494,1.127424233733331,non_fall
7.240122,0.3869,-1.0733,0.0408,-0.2738,-0.5332,1.0184,-14.7,11.82,-42.36,,0.011136000000000479,1.141634416089494,1.1146478135548088,non_fall
7.243733,0.3869,-1.0733,0.0408,-0.2738,-0.5332,1.0184,-14.7,11.82,-42.36,,0.0036109999999993647,1.141634416089494,1.100794520804829,non_fall
7.245025,0.9145,0.0819,0.0387,-0.2738,-0.5332,1.0184,-14.7,11.82,-42.36,,0.001292000000000293,0.918975271702128,1.0880688734327941,non_fall
7.261703,0.9145,0.0819,0.0387,-0.0298,-0.6173,0.9966,-14.7,11.82,-42.36,,0.01667799999999975,0.918975271702128,1.078374834863377,non_fall
7.281713,0.9145,0.0819,0.0387,0.1374,-0.4506,0.7862,-14.7,11.82,-42.36,,0.020010000000000083,0.918975271702128,1.0732108344204472,non_fall
7.289671,0.9145,0.0819,0.0387,0.1374,-0.4506,0.7862,-13.86,12.48,-42.3,,0.007958000000000354,0.918975271702128,1.073639083684347,non_fall
7.30218,0.9145,0.0819,0.0387,0.1374,-0.3643,0.628,-13.86,12.48,-42.3,,0.01250899999999966,0.918975271702128,1.080335534960756,non_fall
7.306751,0.9145,0.0819,0.0387,0.1374,-0.3643,0.628,-13.86,12.48,-42.3,,0.004571000000000325,0.918975271702128,1.0937111044318253,non_fall
7.307659,0.1156,-1.4883,0.1342,0.1374,-0.3643,0.628,-13.86,12.48,-42.3,,0.0009079999999999089,1.4988028189191531,1.1140769075737098,non_fall
7.322043,0.1156,-1.4883,0.1342,0.1065,-0.376,0.6402,-13.86,12.48,-42.3,,0.01438399999999973,1.4988028189191531,1.1418095759529199,non_fall
7.342576,0.1156,-1.4883,0.1342,-0.0091,-0.5396,0.7824,-13.86,12.48,-42.3,,0.020533000000000357,1.4988028189191531,1.1774626636450807,non_fall
7.351556,0.1156,-1.4883,0.1342,-0.0091,-0.5396,0.7824,-13.56,13.02,-41.94,,0.00898000000000021,1.4988028189191531,1.221773603955309,non_fall
7.363705,0.1156,-1.4883,0.1342,-0.0341,-0.5843,0.8506,-13.56,13.02,-41.94,,0.012148999999999965,1.4988028189191531,1.275535591092313,non_fall
7.367774,0.1156,-1.4883,0.1342,-0.0341,-0.5843,0.8506,-13.56,13.02,-41.94,,0.004068999999999434,1.4988028189191531,1.3393354511554496,non_fall
7.368762,0.0558,1.1709,-0.0595,-0.0341,-0.5843,0.8506,-13.56,13.02,-41.94,,0.000988000000000433,1.1737379179356864,1.4131933400845031,non_fall
7.384098,0.0558,1.1709,-0.0595,0.0032,-0.4788,0.7569,-13.56,13.02,-41.94,,0.015335999999999572,1.1737379179356864,1.4961704528151971,non_fall
7.404328,0.0558,1.1709,-0.0595,-0.0138,-0.3324,0.5358,-13.56,13.02,-41.94,,0.020229999999999748,1.1737379179356864,1.5860308183249143,non_fall
7.413617,0.0558,1.1709,-0.0595,-0.0138,-0.3324,0.5358,-13.92,13.86,-41.82,,0.009289000000000769,1.1737379179356864,1.6790470401533162,non_fall
7.424902,0.0558,1.1709,-0.0595,-0.1172,-0.2429,0.4192,-13.92,13.86,-41.82,,0.01128499999999999,1.1737379179356864,1.7700243074831266,non_fall
7.429396,0.0558,1.1709,-0.0595,-0.1172,-0.2429,0.4192,-13.92,13.86,-41.82,,0.004493999999999332,1.1737379179356864,1.8525833311428805,non_fall
7.430533,-0.4124,2.3993,-0.0671,-0.1172,-0.2429,0.4192,-13.92,13.86,-41.82,,0.0011369999999999436,2.4354089307547513,1.9196952353695247,non_fall
7.446834,-0.4124,2.3993,-0.0671,-0.187,-0.2194,0.3148,-13.92,13.86,-41.82,,0.016301000000000343,2.4354089307547513,1.9644068036128834,non_fall
7.466371,-0.4124,2.3993,-0.0671,-0.2205,-0.1672,0.1395,-13.92,13.86,-41.82,,0.019536999999999694,2.4354089307547513,1.9806460492904474,non_fall
7.475884,-0.4124,2.3993,-0.0671,-0.2205,-0.1672,0.1395,-13.68,15.12,-42.0,,0.009513000000000105,2.4354089307547513,1.9639735762655155,non_fall
7.486687,-0.4124,2.3993,-0.0671,-0.2594,-0.0383,-0.0256,-13.68,15.12,-42.0,,0.010803000000000118,2.4354089307547513,1.912154686729965,non_fall
7.492701,-0.4124,2.3993,-0.0671,-0.2594,-0.0383,-0.0256,-13.68,15.12,-42.0,,0.006014000000000408,2.4354089307547513,1.8254650152969962,non_fall
7.494308,-1.0685,0.5145,0.102,-0.2594,-0.0383,-0.0256,-13.68,15.12,-42.0,,0.001606999999999914,1.190296811723866,1.7066947621146749,non_fall
7.509168,-1.0685,0.5145,0.102,-0.18,0.0426,-0.0565,-13.68,15.12,-42.0,,0.014859999999999651,1.190296811723866,1.5608711994226891,non_fall
7.528134,-1.0685,0.5145,0.102,-0.0655,0.0298,-0.0453,-13.68,15.12,-42.0,,0.018965999999999816,1.190296811723866,1.39476420244433,non_fall
7.536748,-1.0685,0.5145,0.102,-0.0655,0.0298,-0.0453,-14.58,15.18,-41.46,,0.008614000000000566,1.190296811723866,1.2162621238803906,non_fall
7.548273,-1.0685,0.5145,0.102,-0.0463,-0.0085,-0.0698,-14.58,15.18,-41.46,,0.011524999999999785,1.190296811723866,1.0337008308035975,non_fall
7.552247,-1.0685,0.5145,0.102,-0.0463,-0.0085,-0.0698,-14.58,15.18,-41.46,,0.003974000000000366,1.190296811723866,0.855208319936708,non_fall
7.55314,0.1691,0.085,-0.0281,-0.0463,-0.0085,-0.0698,-14.58,15.18,-41.46,,0.0008929999999995886,0.19133588267755738,0.6881091207021709,non_fall
7.568389,0.1691,0.085,-0.0281,-0.1145,-0.0149,-0.1699,-14.58,15.18,-41.46,,0.015248999999999846,0.19133588267755738,0.5384264714754342,non_fall
7.589504,0.1691,0.085,-0.0281,-0.1012,0.0549,-0.1672,-14.58,15.18,-41.46,,0.021114999999999995,0.19133588267755738,0.4105212631227526,non_fall
7.598055,0.1691,0.085,-0.0281,-0.1012,0.0549,-0.1672,-15.0,16.26,-41.4,,0.008550999999999753,0.19133588267755738,0.30690211617609353,non_fall
7.609045,0.1691,0.085,-0.0281,-0.0123,0.1135,-0.138,-15.0,16.26,-41.4,,0.0109900000000005,0.19133588267755738,0.22822295411530177,non_fall
7.612944,0.1691,0.085,-0.0281,-0.0123,0.1135,-0.138,-15.0,16.26,-41.4,,0.0038989999999996527,0.19133588267755738,0.17345769298806618,non_fall
7.613751,0.1841,-0.1384,-0.1402,-0.0123,0.1135,-0.138,-15.0,16.26,-41.4,,0.0008070000000000022,0.2696356986750827,0.14021689008326887,non_fall
7.631001,0.1841,-0.1384,-0.1402,0.0538,0.0107,-0.0378,-15.0,16.26,-41.4,,0.017250000000000654,0.2696356986750827,0.12515527476547186,non_fall
7.65097,0.1841,-0.1384,-0.1402,0.0575,0.0011,-0.0091,-15.0,16.26,-41.4,,0.01996899999999968,0.2696356986750827,0.12441323214659386,non_fall
7.659865,0.1841,-0.1384,-0.1402,0.0575,0.0011,-0.0091,-14.64,17.1,-41.34,,0.008894999999999875,0.2696356986750827,0.13403831601753483,non_fall
7.671398,0.1841,-0.1384,-0.1402,-0.0256,0.0218,-0.0128,-14.64,17.1,-41.34,,0.011533000000000015,0.2696356986750827,0.15034278376482635,non_fall
7.677118,0.1841,-0.1384,-0.1402,-0.0256,0.0218,-0.0128,-14.64,17.1,-41.34,,0.005720000000000169,0.2696356986750827,0.17016735125600307,non_fall
7.679163,-0.0874,-0.1484,-0.1096,-0.0256,0.0218,-0.0128,-14.64,17.1,-41.34,,0.0020449999999998525,0.20414083373984734,0.19103710882324768,non_fall
7.691627,-0.0874,-0.1484,-0.1096,-0.0591,0.0368,0.016,-14.64,17.1,-41.34,,0.012464000000000475,0.20414083373984734,0.2112106092715191,non_fall
7.712796,-0.0874,-0.1484,-0.1096,-0.0085,0.0021,0.0533,-14.64,17.1,-41.34,,0.02116899999999955,0.20414083373984734,0.22963581151222248,non_fall
7.721643,-0.0874,-0.1484,-0.1096,-0.0085,0.0021,0.0533,-15.0,17.1,-40.5,,0.008847000000000271,0.20414083373984734,0.24583544876799862,non_fall
7.733151,-0.0874,-0.1484,-0.1096,0.0154,0.0128,0.0485,-15.0,17.1,-40.5,,0.011508000000000074,0.20414083373984734,0.2597488519037785,non_fall
7.737265,-0.0874,-0.1484,-0.1096,0.0154,0.0128,0.0485,-15.0,17.1,-40.5,,0.004113999999999507,0.20414083373984734,0.27155772824315644,non_fall
7.738384,0.0964,-0.1724,-0.1325,0.0154,0.0128,0.0485,-15.0,17.1,-40.5,,0.0011190000000000921,0.2378465261465889,0.28152088809441267,non_fall
7.754031,0.0964,-0.1724,-0.1325,0.0415,0.0389,0.0378,-15.0,17.1,-40.5,,0.01564700000000041,0.2378465261465889,0.28983836355605735,non_fall
7.774921,0.0964,-0.1724,-0.1325,0.0336,0.0543,0.0277,-15.0,17.1,-40.5,,0.02088999999999963,0.2378465261465889,0.2965595494875831,non_fall
7.783076,0.0964,-0.1724,-0.1325,0.0336,0.0543,0.0277,-15.12,17.64,-40.62,,0.008155000000000356,0.2378465261465889,0.30154362687486264,non_fall
7.794881,0.0964,-0.1724,-0.1325,-0.0218,0.0394,0.0197,-15.12,17.64,-40.62,,0.011804999999999843,0.2378465261465889,0.3044740500860837,non_fall
7.799163,0.0964,-0.1724,-0.1325,-0.0218,0.0394,0.0197,-15.12,17.64,-40.62,,0.004281999999999897,0.2378465261465889,0.3049222837979237,non_fall
7.800153,0.0167,-0.3793,-0.0917,-0.0218,0.0394,0.0197,-15.12,17.64,-40.62,,0.0009899999999998244,0.3905845235029161,0.3024491045540754,non_fall
7.815308,0.0167,-0.3793,-0.0917,-0.0543,0.0495,0.008,-15.12,17.64,-40.62,,0.01515500000000003,0.3905845235029161,0.29672504680040407,non_fall
7.835984,0.0167,-0.3793,-0.0917,-0.0154,0.0474,-0.0011,-15.12,17.64,-40.62,,0.020675999999999917,0.3905845235029161,0.28764654666267836,non_fall
7.844654,0.0167,-0.3793,-0.0917,-0.0154,0.0474,-0.0011,-15.0,17.46,-40.8,,0.0086700000000004,0.3905845235029161,0.2754232961722184,non_fall
7.855768,0.0167,-0.3793,-0.0917,-0.0112,0.008,0.0048,-15.0,17.46,-40.8,,0.011114000000000068,0.3905845235029161,0.26061660034484635,non_fall
7.859331,0.0167,-0.3793,-0.0917,-0.0112,0.008,0.0048,-15.0,17.46,-40.8,,0.003562999999999761,0.3905845235029161,0.24411749411120598,non_fall
7.860588,-0.0902,-0.0163,-0.0173,-0.0112,0.008,0.0048,-15.0,17.46,-40.8,,0.0012569999999998416,0.0932792581445629,0.22706525617313394,non_fall
7.877339,-0.0902,-0.0163,-0.0173,-0.0059,-0.0197,0.0186,-15.0,17.46,-40.8,,0.016751000000000182,0.0932792581445629,0.21071969157233672,non_fall
7.895884,-0.0902,-0.0163,-0.0173,0.0032,-0.0325,0.0202,-15.0,17.46,-40.8,,0.01854499999999959,0.0932792581445629,0.19631114155583299,non_fall
7.907353,-0.0902,-0.0163,-0.0173,0.0032,-0.0325,0.0202,-15.48,16.98,-41.1,,0.011468999999999951,0.0932792581445629,0.18489683593969344,non_fall
7.916628,-0.0902,-0.0163,-0.0173,-0.0399,0.0415,-0.0053,-15.48,16.98,-41.1,,0.009275000000000588,0.0932792581445629,0.17724903949775303,non_fall
7.920841,-0.0902,-0.0163,-0.0173,-0.0399,0.0415,-0.0053,-15.48,16.98,-41.1,,0.004213000000000022,0.0932792581445629,0.17379132152100646,non_fall
7.921348,-0.1754,-0.0575,-0.1534,-0.0399,0.0415,-0.0053,-15.48,16.98,-41.1,,0.0005069999999998132,0.24000618742024132,0.17458793849921075,non_fall
7.937599,-0.1754,-0.0575,-0.1534,-0.057,0.0501,-0.0149,-15.48,16.98,-41.1,,0.01625099999999957,0.24000618742024132,0.17938069284607847,non_fall
7.957965,-0.1754,-0.0575,-0.1534,-0.09,0.0362,-0.0282,-15.48,16.98,-41.1,,0.020366000000000106,0.24000618742024132,0.18765964612603184,non_fall
7.96665,-0.1754,-0.0575,-0.1534,-0.09,0.0362,-0.0282,-15.3,17.04,-41.58,,0.008684999999999832,0.24000618742024132,0.19875031990726655,non_fall
7.97905,-0.1754,-0.0575,-0.1534,-0.1587,0.0043,-0.0277,-15.3,17.04,-41.58,,0.01240000000000041,0.24000618742024132,0.2119009986545621,non_fall
7.982865,-0.1754,-0.0575,-0.1534,-0.1587,0.0043,-0.0277,-15.3,17.04,-41.58,,0.003815000000000346,0.24000618742024132,0.22635805002440146,non_fall
7.983465,-0.132,-0.0229,-0.2228,-0.1587,0.0043,-0.0277,-15.3,17.04,-41.58,,0.0005999999999994898,0.25997740286417204,0.2414224933176138,non_fall
8.003091,-0.132,-0.0229,-0.2228,-0.123,-0.0469,-0.0037,-15.3,17.04,-41.58,,0.0196259999999997,0.25997740286417204,0.2564857459746405,non_fall
