
time,ax,ay,az,wx,wy,wz,Bx,By,Bz,
0.076813,0.0000,0.0000,0.0000,0.0133,-0.0138,-0.0138,0.0000,0.0000,0.0000,
0.122018,0.0000,0.0000,0.0000,0.0133,-0.0138,-0.0138,45.2250,17.5500,10.8000,
0.172060,0.0000,0.0000,0.0000,0.0197,0.0386,0.0188,45.2250,17.5500,10.8000,
0.180965,0.0000,0.0000,0.0000,0.0197,0.0386,0.0188,44.8125,17.1188,11.2875,
0.211442,0.0000,0.0000,0.0000,-0.0005,-0.0149,-0.0047,44.8125,17.1188,11.2875,
0.240379,0.0000,0.0000,0.0000,-0.0005,-0.0149,-0.0047,45.0750,17.5875,11.0813,
0.272757,0.0000,0.0000,0.0000,-0.0069,-0.0100,-0.0146,45.0750,17.5875,11.0813,
0.275050,0.0000,0.0000,0.0000,-0.0069,-0.0100,-0.0146,45.0750,17.5875,11.0813,
0.299864,0.0000,0.0000,0.0000,-0.0069,-0.0100,-0.0146,45.1313,17.7188,11.1375,
0.332756,0.0000,0.0000,0.0000,-0.0023,-0.0117,-0.0181,45.1313,17.7188,11.1375,
0.333784,0.0000,0.0000,0.0000,-0.0023,-0.0117,-0.0181,45.1313,17.7188,11.1375,
0.359670,0.0000,0.0000,0.0000,-0.0023,-0.0117,-0.0181,45.1688,18.0000,11.2688,
0.372820,0.0000,0.0000,0.0000,-0.0023,-0.0117,-0.0181,45.1688,18.0000,11.2688,
0.394390,0.0000,0.0000,0.0000,0.0165,0.0021,-0.0011,45.1688,18.0000,11.2688,
0.397755,0.0000,0.0000,0.0000,0.0165,0.0021,-0.0011,45.1688,18.0000,11.2688,
0.419633,0.0000,0.0000,0.0000,0.0165,0.0021,-0.0011,45.1688,18.0750,11.1562,
0.434356,0.0061,0.0064,-0.0151,0.0165,0.0021,-0.0011,45.1688,18.0750,11.1562,
0.455502,0.0061,0.0064,-0.0151,0.0165,0.0021,-0.0011,45.1688,18.0750,11.1562,
0.457067,0.0061,0.0064,-0.0151,0.0293,0.0124,-0.0025,45.1688,18.0750,11.1562,
0.480443,0.0061,0.0064,-0.0151,0.0293,0.0124,-0.0025,45.1500,18.1313,11.1750,
0.495380,0.0066,-0.0000,-0.0185,0.0293,0.0124,-0.0025,45.1500,18.1313,11.1750,
0.515226,0.0066,-0.0000,-0.0185,0.0165,-0.0121,-0.0019,45.1500,18.1313,11.1750,
0.516233,0.0066,-0.0000,-0.0185,0.0165,-0.0121,-0.0019,45.1500,18.1313,11.1750,
0.539779,0.0066,-0.0000,-0.0185,0.0165,-0.0121,-0.0019,45.1688,18.0938,11.1562,
0.576657,0.0066,-0.0000,-0.0185,0.0095,-0.0064,-0.0019,45.1688,18.0938,11.1562,
0.578333,0.0066,-0.0000,-0.0185,0.0095,-0.0064,-0.0019,45.1688,18.0938,11.1562,
0.579445,-0.0323,0.0187,0.0316,0.0095,-0.0064,-0.0019,45.1688,18.0938,11.1562,
0.599632,-0.0323,0.0187,0.0316,0.0095,-0.0064,-0.0019,45.1313,18.1688,11.1938,
0.639239,-0.0323,0.0187,0.0316,0.0095,-0.0064,-0.0019,45.1313,18.1688,11.1938,
0.640767,-0.0323,0.0187,0.0316,0.0116,-0.0011,-0.0036,45.1313,18.1688,11.1938,
0.642553,-0.0045,0.0018,0.0034,0.0116,-0.0011,-0.0036,45.1313,18.1688,11.1938,
0.659466,-0.0045,0.0018,0.0034,0.0116,-0.0011,-0.0036,45.2063,18.2625,11.2688,
0.699717,-0.0045,0.0018,0.0034,0.0276,-0.0004,-0.0004,45.2063,18.2625,11.2688,
0.700903,-0.0045,0.0018,0.0034,0.0276,-0.0004,-0.0004,45.2063,18.2625,11.2688,
0.701749,0.0246,0.0105,-0.0041,0.0276,-0.0004,-0.0004,45.2063,18.2625,11.2688,
0.720277,0.0246,0.0105,-0.0041,0.0276,-0.0004,-0.0004,45.1125,18.1875,11.3250,
0.760540,0.0246,0.0105,-0.0041,0.0463,0.0156,-0.0004,45.1125,18.1875,11.3250,
0.761163,0.0246,0.0105,-0.0041,0.0463,0.0156,-0.0004,45.1125,18.1875,11.3250,
0.781032,0.0246,0.0105,-0.0041,0.0463,0.0156,-0.0004,45.0188,18.1688,11.3625,
0.782553,0.0149,-0.0262,-0.0376,0.0463,0.0156,-0.0004,45.0188,18.1688,11.3625,
0.820506,0.0149,-0.0262,-0.0376,0.0346,-0.0043,0.0049,45.0188,18.1688,11.3625,
0.821381,0.0149,-0.0262,-0.0376,0.0346,-0.0043,0.0049,45.0188,18.1688,11.3625,
0.841442,0.0149,-0.0262,-0.0376,0.0346,-0.0043,0.0049,45.0750,18.0938,11.3063,
0.843907,-0.0051,0.0045,0.0013,0.0346,-0.0043,0.0049,45.0750,18.0938,11.3063,
0.880772,-0.0051,0.0045,0.0013,0.0346,-0.0043,0.0049,45.0750,18.0938,11.3063,
0.881915,-0.0051,0.0045,0.0013,0.0286,-0.0068,0.0053,45.0750,18.0938,11.3063,
0.901222,-0.0051,0.0045,0.0013,0.0286,-0.0068,0.0053,44.9438,18.0375,11.2875,
0.902820,0.0031,0.0202,-0.0037,0.0286,-0.0068,0.0053,44.9438,18.0375,11.2875,
0.942380,0.0031,0.0202,-0.0037,0.0333,0.0320,0.0099,44.9438,18.0375,11.2875,
0.943527,0.0031,0.0202,-0.0037,0.0333,0.0320,0.0099,44.9438,18.0375,11.2875,
0.962161,0.0031,0.0202,-0.0037,0.0333,0.0320,0.0099,44.9625,18.0563,11.3438,
0.964064,0.0609,-0.0233,-0.0101,0.0333,0.0320,0.0099,44.9625,18.0563,11.3438,
1.003407,0.0609,-0.0233,-0.0101,0.0261,0.0028,0.0088,44.9625,18.0563,11.3438,
1.004563,0.0609,-0.0233,-0.0101,0.0261,0.0028,0.0088,44.9625,18.0563,11.3438,
1.019990,0.0609,-0.0233,-0.0101,0.0261,0.0028,0.0088,44.9438,18.0563,11.4000,
1.043770,-0.0384,0.0319,0.0367,0.0261,0.0028,0.0088,44.9438,18.0563,11.4000,
1.064606,-0.0384,0.0319,0.0367,0.0261,0.0028,0.0088,44.9438,18.0563,11.4000,
1.065725,-0.0384,0.0319,0.0367,0.1028,0.0929,0.0237,44.9438,18.0563,11.4000,
1.080338,-0.0384,0.0319,0.0367,0.1028,0.0929,0.0237,45.0188,18.1500,11.4375,
1.106027,0.0305,-0.0768,0.0465,0.1028,0.0929,0.0237,45.0188,18.1500,11.4375,
1.124352,0.0305,-0.0768,0.0465,0.1514,0.0599,0.0141,45.0188,18.1500,11.4375,
1.125000,0.0305,-0.0768,0.0465,0.1514,0.0599,0.0141,45.0188,18.1500,11.4375,
1.139974,0.0305,-0.0768,0.0465,0.1514,0.0599,0.0141,44.9438,18.3750,11.2500,
1.166052,0.0514,-0.0122,-0.1493,0.1514,0.0599,0.0141,44.9438,18.3750,11.2500,
1.186243,0.0514,-0.0122,-0.1493,0.1514,0.0599,0.0141,44.9438,18.3750,11.2500,
1.187110,0.0514,-0.0122,-0.1493,0.3204,0.2368,0.0294,44.9438,18.3750,11.2500,
1.201374,0.0514,-0.0122,-0.1493,0.3204,0.2368,0.0294,45.0375,18.4313,11.3438,
1.246307,0.0514,-0.0122,-0.1493,0.1763,0.2127,0.0401,45.0375,18.4313,11.3438,
1.247137,0.0514,-0.0122,-0.1493,0.1763,0.2127,0.0401,45.0375,18.4313,11.3438,
1.248861,0.2251,-0.1576,-0.0135,0.1763,0.2127,0.0401,45.0375,18.4313,11.3438,
1.260299,0.2251,-0.1576,-0.0135,0.1763,0.2127,0.0401,44.9625,18.5438,11.3250,
1.307924,0.2251,-0.1576,-0.0135,0.0063,0.0418,0.0039,44.9625,18.5438,11.3250,
1.309772,-0.1831,0.1476,-0.1070,0.0063,0.0418,0.0039,44.9625,18.5438,11.3250,
1.311097,-0.1831,0.1476,-0.1070,0.0063,0.0418,0.0039,44.9625,18.5438,11.3250,
1.320250,-0.1831,0.1476,-0.1070,0.0063,0.0418,0.0039,44.8125,18.5438,11.4188,
1.369027,-0.1831,0.1476,-0.1070,-0.1499,0.0812,-0.0345,44.8125,18.5438,11.4188,
1.371903,-0.1831,0.1476,-0.1070,-0.1499,0.0812,-0.0345,44.8125,18.5438,11.4188,
1.372918,-0.0314,0.0460,0.1204,-0.1499,0.0812,-0.0345,44.8125,18.5438,11.4188,
1.380984,-0.0314,0.0460,0.1204,-0.1499,0.0812,-0.0345,44.7563,18.6375,11.6250,
1.429533,-0.0314,0.0460,0.1204,-0.1716,0.1839,-0.0370,44.7563,18.6375,11.6250,
1.431406,-0.0314,0.0460,0.1204,-0.1716,0.1839,-0.0370,44.7563,18.6375,11.6250,
1.432663,0.2108,-0.1079,0.1515,-0.1716,0.1839,-0.0370,44.7563,18.6375,11.6250,
1.439599,0.2108,-0.1079,0.1515,-0.1716,0.1839,-0.0370,44.5875,18.5250,11.7188,
1.490663,0.2108,-0.1079,0.1515,-0.0186,-0.0937,0.0429,44.5875,18.5250,11.7188,
1.491991,0.2108,-0.1079,0.1515,-0.0186,-0.0937,0.0429,44.5875,18.5250,11.7188,
1.499966,0.2108,-0.1079,0.1515,-0.0186,-0.0937,0.0429,44.4000,18.5438,11.9438,
1.511001,-0.3554,0.0908,-0.2608,-0.0186,-0.0937,0.0429,44.4000,18.5438,11.9438,
1.550270,-0.3554,0.0908,-0.2608,-0.0186,-0.0937,0.0429,44.4000,18.5438,11.9438,
1.550710,-0.3554,0.0908,-0.2608,0.0077,-0.2137,0.0652,44.4000,18.5438,11.9438,
1.559570,-0.3554,0.0908,-0.2608,0.0077,-0.2137,0.0652,44.2500,18.3563,12.1313,
1.570479,-0.2138,-0.0502,-0.0961,0.0077,-0.2137,0.0652,44.2500,18.3563,12.1313,
1.612711,-0.2138,-0.0502,-0.0961,0.0077,-0.2137,0.0652,44.2500,18.3563,12.1313,
1.614775,-0.2138,-0.0502,-0.0961,-0.0150,-0.1019,0.0614,44.2500,18.3563,12.1313,
1.619809,-0.2138,-0.0502,-0.0961,-0.0150,-0.1019,0.0614,44.2125,18.3000,12.3375,
1.633166,0.2624,0.1086,0.1579,-0.0150,-0.1019,0.0614,44.2125,18.3000,12.3375,
1.673327,0.2624,0.1086,0.1579,-0.0150,-0.1019,0.0614,44.2125,18.3000,12.3375,
1.674626,0.2624,0.1086,0.1579,-0.0364,-0.1392,0.0401,44.2125,18.3000,12.3375,
1.682635,0.2624,0.1086,0.1579,-0.0364,-0.1392,0.0401,44.3250,18.2250,12.3750,
1.715362,-0.1674,0.1496,0.1879,-0.0364,-0.1392,0.0401,44.3250,18.2250,12.3750,
1.735121,-0.1674,0.1496,0.1879,-0.0988,0.1558,0.0543,44.3250,18.2250,12.3750,
1.736632,-0.1674,0.1496,0.1879,-0.0988,0.1558,0.0543,44.3250,18.2250,12.3750,
1.740709,-0.1674,0.1496,0.1879,-0.0988,0.1558,0.0543,44.4000,18.0188,12.5625,
1.775264,0.5562,-0.0180,0.1128,-0.0988,0.1558,0.0543,44.4000,18.0188,12.5625,
1.794872,0.5562,-0.0180,0.1128,-0.0988,0.1558,0.0543,44.4000,18.0188,12.5625,
1.796202,0.5562,-0.0180,0.1128,-0.1052,-0.1357,0.0337,44.4000,18.0188,12.5625,
1.799771,0.5562,-0.0180,0.1128,-0.1052,-0.1357,0.0337,44.4563,17.7750,12.5625,
1.836177,-0.5479,0.2688,0.2954,-0.1052,-0.1357,0.0337,44.4563,17.7750,12.5625,
1.856661,-0.5479,0.2688,0.2954,-0.2703,-0.1097,0.0842,44.4563,17.7750,12.5625,
1.858445,-0.5479,0.2688,0.2954,-0.2703,-0.1097,0.0842,44.4563,17.7750,12.5625,
1.860426,-0.5479,0.2688,0.2954,-0.2703,-0.1097,0.0842,44.7188,17.6063,12.7125,
1.896384,0.3845,-0.0620,0.2265,-0.2703,-0.1097,0.0842,44.7188,17.6063,12.7125,
1.917004,0.3845,-0.0620,0.2265,-0.3760,0.0216,0.2169,44.7188,17.6063,12.7125,
1.919414,0.3845,-0.0620,0.2265,-0.3760,0.0216,0.2169,44.7188,17.6063,12.7125,
1.920485,0.3845,-0.0620,0.2265,-0.3760,0.0216,0.2169,45.0000,17.4375,12.6750,
1.976357,0.3845,-0.0620,0.2265,-0.5650,0.0035,0.3755,45.0000,17.4375,12.6750,
1.977470,0.3845,-0.0620,0.2265,-0.5650,0.0035,0.3755,45.0000,17.4375,12.6750,
1.978301,0.6395,-0.3773,-0.2502,-0.5650,0.0035,0.3755,45.0000,17.4375,12.6750,
1.979391,0.6395,-0.3773,-0.2502,-0.5650,0.0035,0.3755,45.2812,17.1188,12.6375,
2.038033,0.6395,-0.3773,-0.2502,-0.5234,-0.3876,0.5732,45.2812,17.1188,12.6375,
2.039705,0.6395,-0.3773,-0.2502,-0.5234,-0.3876,0.5732,45.2812,17.1188,12.6375,
2.040503,0.7325,-0.0421,0.3719,-0.5234,-0.3876,0.5732,45.2812,17.1188,12.6375,
2.041539,0.7325,-0.0421,0.3719,-0.5234,-0.3876,0.5732,45.5063,16.5188,12.6000,
2.099680,0.7325,-0.0421,0.3719,0.0772,-0.0437,0.6446,45.5063,16.5188,12.6000,
2.100904,0.7325,-0.0421,0.3719,0.0772,-0.0437,0.6446,45.5063,16.5188,12.6000,
2.101719,-0.1827,-0.1323,-0.1160,0.0772,-0.0437,0.6446,45.5063,16.5188,12.6000,
2.102786,-0.1827,-0.1323,-0.1160,0.0772,-0.0437,0.6446,45.8250,15.4313,12.4500,
2.163859,-0.1827,-0.1323,-0.1160,0.0772,-0.0437,0.6446,45.8250,15.4313,12.4500,
2.165568,-0.1827,-0.1323,-0.1160,0.0772,-0.0437,0.6446,45.7688,14.1750,12.2625,
2.167601,-0.1827,-0.1323,-0.1160,0.7848,-0.2052,1.0281,45.7688,14.1750,12.2625,
2.181741,0.6970,-0.1914,-0.6150,0.7848,-0.2052,1.0281,45.7688,14.1750,12.2625,
2.224857,0.6970,-0.1914,-0.6150,1.8115,-0.6738,1.0188,45.7688,14.1750,12.2625,
2.227483,0.6970,-0.1914,-0.6150,1.8115,-0.6738,1.0188,45.7688,14.1750,12.2625,
2.228613,0.6970,-0.1914,-0.6150,1.8115,-0.6738,1.0188,46.1250,12.7688,11.9813,
2.242168,-0.2328,-0.7950,-1.8747,1.8115,-0.6738,1.0188,46.1250,12.7688,11.9813,
2.282871,-0.2328,-0.7950,-1.8747,1.8115,-0.6738,1.0188,46.4438,11.2688,10.9500,
2.284786,-0.2328,-0.7950,-1.8747,3.6905,-1.6369,0.8796,46.4438,11.2688,10.9500,
2.286771,-0.2328,-0.7950,-1.8747,3.6905,-1.6369,0.8796,46.4438,11.2688,10.9500,
2.302479,-1.6475,-1.0409,3.0094,3.6905,-1.6369,0.8796,46.4438,11.2688,10.9500,
2.344540,-1.6475,-1.0409,3.0094,3.6905,-1.6369,0.8796,46.7250,9.3563,8.8875,
2.346707,-1.6475,-1.0409,3.0094,3.6905,-1.6369,0.8796,46.7250,9.3563,8.8875,
2.347403,-1.6475,-1.0409,3.0094,6.7267,-1.0846,0.9570,46.7250,9.3563,8.8875,
2.364027,0.1036,5.1812,8.4554,6.7267,-1.0846,0.9570,46.7250,9.3563,8.8875,
2.400328,0.1036,5.1812,8.4554,6.7267,-1.0846,0.9570,46.4250,5.9813,8.7563,
2.403985,0.1036,5.1812,8.4554,2.1661,5.4520,4.2457,46.4250,5.9813,8.7563,
2.405413,0.1036,5.1812,8.4554,2.1661,5.4520,4.2457,46.4250,5.9813,8.7563,
2.444168,0.8156,-5.3752,-11.4957,2.1661,5.4520,4.2457,46.4250,5.9813,8.7563,
2.459906,0.8156,-5.3752,-11.4957,2.1661,5.4520,4.2457,44.6063,0.6562,8.6813,
2.463008,0.8156,-5.3752,-11.4957,3.0131,-0.3916,5.4173,44.6063,0.6562,8.6813,
2.463886,0.8156,-5.3752,-11.4957,3.0131,-0.3916,5.4173,44.6063,0.6562,8.6813,
2.505564,-0.9915,-13.4772,1.2951,3.0131,-0.3916,5.4173,44.6063,0.6562,8.6813,
2.520130,-0.9915,-13.4772,1.2951,3.0131,-0.3916,5.4173,42.6188,-3.4313,10.9875,
2.524946,-0.9915,-13.4772,1.2951,3.0131,-0.3916,5.4173,42.6188,-3.4313,10.9875,
2.525588,-0.9915,-13.4772,1.2951,3.5882,7.7531,-0.6582,42.6188,-3.4313,10.9875,
2.566781,-2.6327,-6.1780,-6.2431,3.5882,7.7531,-0.6582,42.6188,-3.4313,10.9875,
2.580398,-2.6327,-6.1780,-6.2431,3.5882,7.7531,-0.6582,40.0125,-7.1250,15.0750,
2.586919,-2.6327,-6.1780,-6.2431,-0.5635,1.0497,-0.5947,40.0125,-7.1250,15.0750,
2.587547,-2.6327,-6.1780,-6.2431,-0.5635,1.0497,-0.5947,40.0125,-7.1250,15.0750,
2.641565,-2.6327,-6.1780,-6.2431,-0.5635,1.0497,-0.5947,37.0500,-9.7500,18.9188,
2.647076,-2.6327,-6.1780,-6.2431,0.5594,2.3866,-1.9795,37.0500,-9.7500,18.9188,
2.648060,0.5028,6.3288,4.6872,0.5594,2.3866,-1.9795,37.0500,-9.7500,18.9188,
2.648845,0.5028,6.3288,4.6872,0.5594,2.3866,-1.9795,37.0500,-9.7500,18.9188,
2.700694,0.5028,6.3288,4.6872,0.5594,2.3866,-1.9795,33.0750,-11.5312,23.4938,
2.709184,0.5028,6.3288,4.6872,1.3894,3.3810,0.4690,33.0750,-11.5312,23.4938,
2.710951,0.5028,6.3288,4.6872,1.3894,3.3810,0.4690,33.0750,-11.5312,23.4938,
2.712371,8.0391,4.5655,5.2039,1.3894,3.3810,0.4690,33.0750,-11.5312,23.4938,
2.760186,8.0391,4.5655,5.2039,1.3894,3.3810,0.4690,27.6188,-12.9375,29.2313,
2.768793,8.0391,4.5655,5.2039,2.0137,4.8912,3.7927,27.6188,-12.9375,29.2313,
2.770121,8.0391,4.5655,5.2039,2.0137,4.8912,3.7927,27.6188,-12.9375,29.2313,
2.770923,-2.7625,2.2782,-0.2782,2.0137,4.8912,3.7927,27.6188,-12.9375,29.2313,
2.820674,-2.7625,2.2782,-0.2782,2.0137,4.8912,3.7927,21.8250,-14.4563,35.7938,
2.830561,-2.7625,2.2782,-0.2782,1.7667,2.1133,1.7022,21.8250,-14.4563,35.7938,
2.831719,-2.7625,2.2782,-0.2782,1.7667,2.1133,1.7022,21.8250,-14.4563,35.7938,
2.832103,-8.6539,2.2569,2.8198,1.7667,2.1133,1.7022,21.8250,-14.4563,35.7938,
2.880766,-8.6539,2.2569,2.8198,1.7667,2.1133,1.7022,15.5063,-12.9563,40.6875,
2.892963,-8.6539,2.2569,2.8198,-1.9043,-2.2440,-1.3469,15.5063,-12.9563,40.6875,
2.893713,-8.6539,2.2569,2.8198,-1.9043,-2.2440,-1.3469,15.5063,-12.9563,40.6875,
2.911883,1.3078,1.6943,-2.4713,-1.9043,-2.2440,-1.3469,15.5063,-12.9563,40.6875,
2.942078,1.3078,1.6943,-2.4713,-1.9043,-2.2440,-1.3469,10.2375,-10.6500,45.0188,
2.952013,1.3078,1.6943,-2.4713,-1.9043,-2.2440,-1.3469,10.2375,-10.6500,45.0188,
2.953576,1.3078,1.6943,-2.4713,-0.4180,0.4447,-0.3384,10.2375,-10.6500,45.0188,
2.972263,2.6642,1.2300,-0.7326,-0.4180,0.4447,-0.3384,10.2375,-10.6500,45.0188,
3.000385,2.6642,1.2300,-0.7326,-0.4180,0.4447,-0.3384,5.8688,-8.5500,47.6250,
3.012985,2.6642,1.2300,-0.7326,1.0173,0.8434,0.9357,5.8688,-8.5500,47.6250,
3.014708,2.6642,1.2300,-0.7326,1.0173,0.8434,0.9357,5.8688,-8.5500,47.6250,
3.033308,-0.1167,-1.0690,0.6156,1.0173,0.8434,0.9357,5.8688,-8.5500,47.6250,
3.060068,-0.1167,-1.0690,0.6156,1.0173,0.8434,0.9357,1.9688,-6.6563,49.3125,
3.075566,-0.1167,-1.0690,0.6156,0.4135,0.9691,-0.1378,1.9688,-6.6563,49.3125,
3.076665,-0.1167,-1.0690,0.6156,0.4135,0.9691,-0.1378,1.9688,-6.6563,49.3125,
3.114485,0.1366,-0.8254,-0.9374,0.4135,0.9691,-0.1378,1.9688,-6.6563,49.3125,
3.118279,0.1366,-0.8254,-0.9374,0.4135,0.9691,-0.1378,-2.0625,-5.0625,50.4938,
3.134361,0.1366,-0.8254,-0.9374,-0.5969,0.1051,-0.2578,-2.0625,-5.0625,50.4938,
3.135054,0.1366,-0.8254,-0.9374,-0.5969,0.1051,-0.2578,-2.0625,-5.0625,50.4938,
3.175883,0.4867,0.6281,-0.6859,-0.5969,0.1051,-0.2578,-2.0625,-5.0625,50.4938,
3.180077,0.4867,0.6281,-0.6859,-0.5969,0.1051,-0.2578,-5.2313,-4.3500,51.1125,
3.195620,0.4867,0.6281,-0.6859,0.0606,-0.1932,-0.0228,-5.2313,-4.3500,51.1125,
3.196458,0.4867,0.6281,-0.6859,0.0606,-0.1932,-0.0228,-5.2313,-4.3500,51.1125,
3.236785,0.4341,0.4478,-1.1587,0.0606,-0.1932,-0.0228,-5.2313,-4.3500,51.1125,
3.238560,0.4341,0.4478,-1.1587,0.0606,-0.1932,-0.0228,-6.7688,-3.6188,51.2813,
3.256585,0.4341,0.4478,-1.1587,0.2707,-0.1783,0.2222,-6.7688,-3.6188,51.2813,
3.258782,0.4341,0.4478,-1.1587,0.2707,-0.1783,0.2222,-6.7688,-3.6188,51.2813,
3.297511,0.7475,0.8952,-0.8794,0.2707,-0.1783,0.2222,-6.7688,-3.6188,51.2813,
3.301919,0.7475,0.8952,-0.8794,0.2707,-0.1783,0.2222,-7.1438,-4.1250,51.2250,
3.317258,0.7475,0.8952,-0.8794,0.2707,-0.1783,0.2222,-7.1438,-4.1250,51.2250,
3.317870,0.7475,0.8952,-0.8794,-0.0939,-0.1264,0.0944,-7.1438,-4.1250,51.2250,
3.361644,0.7475,0.8952,-0.8794,-0.0939,-0.1264,0.0944,-7.3688,-4.4625,51.5063,
3.377513,0.7475,0.8952,-0.8794,-0.0935,-0.0298,-0.0863,-7.3688,-4.4625,51.5063,
3.378527,0.7475,0.8952,-0.8794,-0.0935,-0.0298,-0.0863,-7.3688,-4.4625,51.5063,
3.378808,0.1751,0.5102,-0.2783,-0.0935,-0.0298,-0.0863,-7.3688,-4.4625,51.5063,
3.421649,0.1751,0.5102,-0.2783,-0.0935,-0.0298,-0.0863,-8.0250,-4.0500,51.6000,
3.439640,0.1751,0.5102,-0.2783,-0.0935,-0.0298,-0.0863,-8.0250,-4.0500,51.6000,
3.440699,0.1751,0.5102,-0.2783,0.1384,0.2527,0.0610,-8.0250,-4.0500,51.6000,
3.441270,0.3986,0.0889,-0.4203,0.1384,0.2527,0.0610,-8.0250,-4.0500,51.6000,
3.481988,0.3986,0.0889,-0.4203,0.1384,0.2527,0.0610,-8.6438,-3.8438,51.6375,
3.501030,0.3986,0.0889,-0.4203,0.1384,0.2527,0.0610,-8.6438,-3.8438,51.6375,
3.502237,0.3572,0.3587,-0.0862,0.1384,0.2527,0.0610,-8.6438,-3.8438,51.6375,
3.503543,0.3572,0.3587,-0.0862,0.1202,0.3043,0.0124,-8.6438,-3.8438,51.6375,
3.540129,0.3572,0.3587,-0.0862,0.1202,0.3043,0.0124,-9.0563,-3.9750,51.6375,
3.560550,0.3572,0.3587,-0.0862,0.1202,0.3043,0.0124,-9.0563,-3.9750,51.6375,
3.561601,0.3572,0.3587,-0.0862,-0.0342,0.1739,-0.0635,-9.0563,-3.9750,51.6375,
3.581483,0.0993,0.2712,-0.2582,-0.0342,0.1739,-0.0635,-9.0563,-3.9750,51.6375,
3.600813,0.0993,0.2712,-0.2582,-0.0342,0.1739,-0.0635,-9.1125,-4.0125,51.7500,
3.621956,0.0993,0.2712,-0.2582,0.0567,0.0991,0.0237,-9.1125,-4.0125,51.7500,
3.623097,0.0993,0.2712,-0.2582,0.0567,0.0991,0.0237,-9.1125,-4.0125,51.7500,
3.642415,0.2576,0.2998,-0.4265,0.0567,0.0991,0.0237,-9.1125,-4.0125,51.7500,
3.661132,0.2576,0.2998,-0.4265,0.0567,0.0991,0.0237,-9.3375,-3.8063,51.6000,
3.683444,0.2576,0.2998,-0.4265,0.0567,0.0991,0.0237,-9.3375,-3.8063,51.6000,
3.685029,0.2576,0.2998,-0.4265,0.0659,0.0156,0.0284,-9.3375,-3.8063,51.6000,
3.703195,0.2902,0.2441,-0.3498,0.0659,0.0156,0.0284,-9.3375,-3.8063,51.6000,
3.721444,0.2902,0.2441,-0.3498,0.0659,0.0156,0.0284,-9.6375,-3.8063,51.6563,
3.746365,0.2902,0.2441,-0.3498,-0.0732,-0.1768,-0.0515,-9.6375,-3.8063,51.6563,
3.748744,0.2902,0.2441,-0.3498,-0.0732,-0.1768,-0.0515,-9.6375,-3.8063,51.6563,
3.763985,0.1728,0.1102,-0.4399,-0.0732,-0.1768,-0.0515,-9.6375,-3.8063,51.6563,
3.780374,0.1728,0.1102,-0.4399,-0.0732,-0.1768,-0.0515,-9.7688,-3.7875,51.7313,
3.804751,0.1728,0.1102,-0.4399,-0.1397,-0.4420,-0.0370,-9.7688,-3.7875,51.7313,
3.806191,0.1728,0.1102,-0.4399,-0.1397,-0.4420,-0.0370,-9.7688,-3.7875,51.7313,
3.842171,0.1728,0.1102,-0.4399,-0.1397,-0.4420,-0.0370,-9.7500,-3.7500,51.5250,
3.845109,0.2629,0.1031,-0.5774,-0.1397,-0.4420,-0.0370,-9.7500,-3.7500,51.5250,
3.865642,0.2629,0.1031,-0.5774,-0.2177,-0.6976,-0.1325,-9.7500,-3.7500,51.5250,
3.867355,0.2629,0.1031,-0.5774,-0.2177,-0.6976,-0.1325,-9.7500,-3.7500,51.5250,
3.900928,0.2629,0.1031,-0.5774,-0.2177,-0.6976,-0.1325,-9.5063,-3.8438,51.5625,
3.907800,0.1714,-0.0814,-0.9451,-0.2177,-0.6976,-0.1325,-9.5063,-3.8438,51.5625,
3.926998,0.1714,-0.0814,-0.9451,-0.2177,-0.6976,-0.1325,-9.5063,-3.8438,51.5625,
3.928723,0.1714,-0.0814,-0.9451,-0.1429,-0.2627,-0.3870,-9.5063,-3.8438,51.5625,
3.962144,0.1714,-0.0814,-0.9451,-0.1429,-0.2627,-0.3870,-9.0000,-3.7875,51.4875,
3.965935,0.2961,0.4000,-0.6364,-0.1429,-0.2627,-0.3870,-9.0000,-3.7875,51.4875,
3.987605,0.2961,0.4000,-0.6364,0.1671,0.1959,-0.1613,-9.0000,-3.7875,51.4875,
3.989237,0.2961,0.4000,-0.6364,0.1671,0.1959,-0.1613,-9.0000,-3.7875,51.4875,
4.021456,0.2961,0.4000,-0.6364,0.1671,0.1959,-0.1613,-8.3438,-3.7875,51.4313,
4.048737,0.2961,0.4000,-0.6364,0.0908,-0.0352,-0.6177,-8.3438,-3.7875,51.4313,
4.052535,0.2961,0.4000,-0.6364,0.0908,-0.0352,-0.6177,-8.3438,-3.7875,51.4313,
4.054881,-0.4488,0.7105,1.1747,0.0908,-0.0352,-0.6177,-8.3438,-3.7875,51.4313,
4.080335,-0.4488,0.7105,1.1747,0.0908,-0.0352,-0.6177,-7.7625,-4.1063,51.3563,
4.112389,-0.4488,0.7105,1.1747,-0.2842,-0.7047,-0.6152,-7.7625,-4.1063,51.3563,
4.115909,-0.4488,0.7105,1.1747,-0.2842,-0.7047,-0.6152,-7.7625,-4.1063,51.3563,
4.117214,-0.6547,-0.0058,1.1941,-0.2842,-0.7047,-0.6152,-7.7625,-4.1063,51.3563,
4.141976,-0.6547,-0.0058,1.1941,-0.2842,-0.7047,-0.6152,-6.8438,-4.1813,51.4875,
4.170120,-0.6547,-0.0058,1.1941,-0.1229,-0.2599,-0.5992,-6.8438,-4.1813,51.4875,
4.172277,-0.6547,-0.0058,1.1941,-0.1229,-0.2599,-0.5992,-6.8438,-4.1813,51.4875,
4.172884,0.3838,0.5169,0.3452,-0.1229,-0.2599,-0.5992,-6.8438,-4.1813,51.4875,
4.200394,0.3838,0.5169,0.3452,-0.1229,-0.2599,-0.5992,-5.8125,-4.3688,51.4500,
4.231273,0.3838,0.5169,0.3452,-0.1229,-0.2599,-0.5992,-5.8125,-4.3688,51.4500,
4.232862,0.0638,-0.1727,-0.9727,-0.1229,-0.2599,-0.5992,-5.8125,-4.3688,51.4500,
4.234642,0.0638,-0.1727,-0.9727,0.5249,-0.3309,-0.0238,-5.8125,-4.3688,51.4500,
4.260442,0.0638,-0.1727,-0.9727,0.5249,-0.3309,-0.0238,-4.8000,-4.4438,51.3750,
4.292714,0.0638,-0.1727,-0.9727,-0.0506,-0.5811,-0.6763,-4.8000,-4.4438,51.3750,
4.294866,0.0638,-0.1727,-0.9727,-0.0506,-0.5811,-0.6763,-4.8000,-4.4438,51.3750,
4.312299,0.1397,-0.3431,-0.5276,-0.0506,-0.5811,-0.6763,-4.8000,-4.4438,51.3750,
4.319544,0.1397,-0.3431,-0.5276,-0.0506,-0.5811,-0.6763,-3.6750,-4.4062,51.4688,
4.352789,0.1397,-0.3431,-0.5276,0.1192,-0.3844,-0.6533,-3.6750,-4.4062,51.4688,
4.355000,0.1397,-0.3431,-0.5276,0.1192,-0.3844,-0.6533,-3.6750,-4.4062,51.4688,
4.372224,0.3748,0.2334,-1.2770,0.1192,-0.3844,-0.6533,-3.6750,-4.4062,51.4688,
4.380293,0.3748,0.2334,-1.2770,0.1192,-0.3844,-0.6533,-2.7000,-4.1063,51.3563,
4.415614,0.3748,0.2334,-1.2770,0.3645,0.1803,-0.4196,-2.7000,-4.1063,51.3563,
4.419857,0.3748,0.2334,-1.2770,0.3645,0.1803,-0.4196,-2.7000,-4.1063,51.3563,
4.434714,0.7358,0.3045,-0.3209,0.3645,0.1803,-0.4196,-2.7000,-4.1063,51.3563,
4.440183,0.7358,0.3045,-0.3209,0.3645,0.1803,-0.4196,-1.8750,-3.7125,51.2625,
4.475301,0.7358,0.3045,-0.3209,0.3645,0.1803,-0.4196,-1.8750,-3.7125,51.2625,
4.478249,0.7358,0.3045,-0.3209,0.5313,0.1867,0.1874,-1.8750,-3.7125,51.2625,
4.500511,0.7358,0.3045,-0.3209,0.5313,0.1867,0.1874,-1.0312,-3.1125,51.2063,
4.515428,-0.1888,1.8116,0.1555,0.5313,0.1867,0.1874,-1.0312,-3.1125,51.2063,
4.536267,-0.1888,1.8116,0.1555,0.3687,0.1969,0.1522,-1.0312,-3.1125,51.2063,
4.538470,-0.1888,1.8116,0.1555,0.3687,0.1969,0.1522,-1.0312,-3.1125,51.2063,
4.560552,-0.1888,1.8116,0.1555,0.3687,0.1969,0.1522,-0.2250,-2.0813,51.2438,
4.575150,0.3136,0.1618,-0.4561,0.3687,0.1969,0.1522,-0.2250,-2.0813,51.2438,
4.596286,0.3136,0.1618,-0.4561,0.1426,0.3567,-0.3181,-0.2250,-2.0813,51.2438,
4.597975,0.3136,0.1618,-0.4561,0.1426,0.3567,-0.3181,-0.2250,-2.0813,51.2438,
4.621125,0.3136,0.1618,-0.4561,0.1426,0.3567,-0.3181,0.0938,-1.2188,51.1688,
4.637302,0.5480,0.5688,-0.1802,0.1426,0.3567,-0.3181,0.0938,-1.2188,51.1688,
4.657202,0.5480,0.5688,-0.1802,-0.0981,-0.1485,-0.2489,0.0938,-1.2188,51.1688,
4.659100,0.5480,0.5688,-0.1802,-0.0981,-0.1485,-0.2489,0.0938,-1.2188,51.1688,
4.681995,0.5480,0.5688,-0.1802,-0.0981,-0.1485,-0.2489,0.4500,-0.2812,51.1125,
4.697524,-0.3571,0.6815,0.0305,-0.0981,-0.1485,-0.2489,0.4500,-0.2812,51.1125,
4.718275,-0.3571,0.6815,0.0305,-0.0981,-0.1485,-0.2489,0.4500,-0.2812,51.1125,
4.719427,-0.3571,0.6815,0.0305,0.0655,0.0096,-0.1005,0.4500,-0.2812,51.1125,
4.740905,-0.3571,0.6815,0.0305,0.0655,0.0096,-0.1005,0.5438,0.4500,50.9813,
4.779614,-0.3571,0.6815,0.0305,0.0908,0.0429,-0.0547,0.5438,0.4500,50.9813,
4.781410,-0.0234,-0.4382,-0.0012,0.0908,0.0429,-0.0547,0.5438,0.4500,50.9813,
4.782544,-0.0234,-0.4382,-0.0012,0.0908,0.0429,-0.0547,0.5438,0.4500,50.9813,
4.800922,-0.0234,-0.4382,-0.0012,0.0908,0.0429,-0.0547,0.4500,1.1438,51.0000,
4.842059,-0.0234,-0.4382,-0.0012,0.0908,0.0429,-0.0547,0.4500,1.1438,51.0000,
4.843827,-0.0334,-0.4674,-0.4847,0.0908,0.0429,-0.0547,0.4500,1.1438,51.0000,
4.844739,-0.0334,-0.4674,-0.4847,0.1426,-0.0511,-0.0650,0.4500,1.1438,51.0000,
4.860975,-0.0334,-0.4674,-0.4847,0.1426,-0.0511,-0.0650,0.2063,1.7250,50.8688,
4.901334,-0.0334,-0.4674,-0.4847,0.1181,-0.0305,-0.1033,0.2063,1.7250,50.8688,
4.902808,-0.1323,-0.7682,0.1697,0.1181,-0.0305,-0.1033,0.2063,1.7250,50.8688,
4.903803,-0.1323,-0.7682,0.1697,0.1181,-0.0305,-0.1033,0.2063,1.7250,50.8688,
4.921282,-0.1323,-0.7682,0.1697,0.1181,-0.0305,-0.1033,0.0000,2.2313,51.0188,
4.962725,-0.1323,-0.7682,0.1697,0.0197,-0.1708,-0.0381,0.0000,2.2313,51.0188,
4.966264,-0.1323,-0.7682,0.1697,0.0197,-0.1708,-0.0381,0.0000,2.2313,51.0188,
4.980375,-0.1323,-0.7682,0.1697,0.0197,-0.1708,-0.0381,-0.2250,2.4938,51.0375,
4.984490,0.0695,0.1736,0.1462,0.0197,-0.1708,-0.0381,-0.2250,2.4938,51.0375,
5.022540,0.0695,0.1736,0.1462,0.0655,-0.0469,-0.0089,-0.2250,2.4938,51.0375,
5.024264,0.0695,0.1736,0.1462,0.0655,-0.0469,-0.0089,-0.2250,2.4938,51.0375,
5.039806,0.0695,0.1736,0.1462,0.0655,-0.0469,-0.0089,-0.3000,2.6063,50.9063,
5.042234,0.0204,-0.0198,-0.1490,0.0655,-0.0469,-0.0089,-0.3000,2.6063,50.9063,
5.084575,0.0204,-0.0198,-0.1490,0.0410,-0.0803,-0.0181,-0.3000,2.6063,50.9063,
5.088468,0.0204,-0.0198,-0.1490,0.0410,-0.0803,-0.0181,-0.3000,2.6063,50.9063,
5.099622,0.0204,-0.0198,-0.1490,0.0410,-0.0803,-0.0181,-0.1688,2.6438,50.8688,
5.102822,0.0740,0.0369,-0.0116,0.0410,-0.0803,-0.0181,-0.1688,2.6438,50.8688,
5.144312,0.0740,0.0369,-0.0116,-0.0274,-0.2016,-0.0718,-0.1688,2.6438,50.8688,
5.146309,0.0740,0.0369,-0.0116,-0.0274,-0.2016,-0.0718,-0.1688,2.6438,50.8688,
5.159773,0.0740,0.0369,-0.0116,-0.0274,-0.2016,-0.0718,-0.0563,2.7375,50.8313,
5.164195,-0.0736,-0.3011,-0.0274,-0.0274,-0.2016,-0.0718,-0.0563,2.7375,50.8313,
5.205466,-0.0736,-0.3011,-0.0274,0.0361,-0.1317,-0.0682,-0.0563,2.7375,50.8313,
5.207682,-0.0736,-0.3011,-0.0274,0.0361,-0.1317,-0.0682,-0.0563,2.7375,50.8313,
5.220281,-0.0736,-0.3011,-0.0274,0.0361,-0.1317,-0.0682,0.1688,3.0000,50.9438,
5.247129,0.0173,-0.4304,0.1550,0.0361,-0.1317,-0.0682,0.1688,3.0000,50.9438,
5.265689,0.0173,-0.4304,0.1550,0.0361,-0.1317,-0.0682,0.1688,3.0000,50.9438,
5.266718,0.0173,-0.4304,0.1550,0.0244,-0.0848,-0.0699,0.1688,3.0000,50.9438,
5.279525,0.0173,-0.4304,0.1550,0.0244,-0.0848,-0.0699,0.2812,3.0938,50.8500,
5.306927,0.0341,0.1619,0.0625,0.0244,-0.0848,-0.0699,0.2812,3.0938,50.8500,
5.327141,0.0341,0.1619,0.0625,-0.0491,-0.1545,-0.0483,0.2812,3.0938,50.8500,
5.329302,0.0341,0.1619,0.0625,-0.0491,-0.1545,-0.0483,0.2812,3.0938,50.8500,
5.340860,0.0341,0.1619,0.0625,-0.0491,-0.1545,-0.0483,0.4125,3.1313,51.0000,
5.367642,0.0012,0.1173,0.0493,-0.0491,-0.1545,-0.0483,0.4125,3.1313,51.0000,
5.388742,0.0012,0.1173,0.0493,-0.0466,-0.1274,-0.0360,0.4125,3.1313,51.0000,
5.389791,0.0012,0.1173,0.0493,-0.0466,-0.1274,-0.0360,0.4125,3.1313,51.0000,
5.398745,0.0012,0.1173,0.0493,-0.0466,-0.1274,-0.0360,0.6000,2.9813,50.8313,
5.452272,0.0012,0.1173,0.0493,-0.0466,-0.1274,-0.0360,0.6000,2.9813,50.8313,
5.454694,0.1450,0.0680,-0.1306,-0.0466,-0.1274,-0.0360,0.6000,2.9813,50.8313,
5.455752,0.1450,0.0680,-0.1306,0.0035,-0.0377,-0.0419,0.6000,2.9813,50.8313,
5.460989,0.1450,0.0680,-0.1306,0.0035,-0.0377,-0.0419,0.9000,3.0000,50.8500,
5.511698,0.1450,0.0680,-0.1306,-0.2471,-0.4317,-0.1999,0.9000,3.0000,50.8500,
5.513728,0.1450,0.0680,-0.1306,-0.2471,-0.4317,-0.1999,0.9000,3.0000,50.8500,
5.514766,-0.0366,-0.4434,0.1447,-0.2471,-0.4317,-0.1999,0.9000,3.0000,50.8500,
5.519999,-0.0366,-0.4434,0.1447,-0.2471,-0.4317,-0.1999,1.1813,2.8313,50.9438,
5.572103,-0.0366,-0.4434,0.1447,-0.1197,-0.1832,-0.2045,1.1813,2.8313,50.9438,
5.574070,-0.0243,-0.6308,-0.6053,-0.1197,-0.1832,-0.2045,1.1813,2.8313,50.9438,
5.575071,-0.0243,-0.6308,-0.6053,-0.1197,-0.1832,-0.2045,1.1813,2.8313,50.9438,
5.580493,-0.0243,-0.6308,-0.6053,-0.1197,-0.1832,-0.2045,1.6688,2.6438,50.9625,
5.632593,-0.0243,-0.6308,-0.6053,-0.1197,-0.1832,-0.2045,1.6688,2.6438,50.9625,
5.635675,0.0664,0.1319,-0.1064,-0.1197,-0.1832,-0.2045,1.6688,2.6438,50.9625,
5.637560,0.0664,0.1319,-0.1064,-0.0527,0.0230,-0.2312,1.6688,2.6438,50.9625,
5.641666,0.0664,0.1319,-0.1064,-0.0527,0.0230,-0.2312,2.0063,2.5500,50.9813,
5.693484,0.0664,0.1319,-0.1064,0.0751,0.0895,-0.2435,2.0063,2.5500,50.9813,
5.695965,0.0664,0.1319,-0.1064,0.0751,0.0895,-0.2435,2.0063,2.5500,50.9813,
5.699622,0.0664,0.1319,-0.1064,0.0751,0.0895,-0.2435,2.2125,2.3250,51.0000,
5.712936,-0.3266,0.8989,0.9122,0.0751,0.0895,-0.2435,2.2125,2.3250,51.0000,
5.754221,-0.3266,0.8989,0.9122,0.0751,0.0895,-0.2435,2.2125,2.3250,51.0000,
5.755657,-0.3266,0.8989,0.9122,0.0578,-0.0462,-0.1506,2.2125,2.3250,51.0000,
5.761791,-0.3266,0.8989,0.9122,0.0578,-0.0462,-0.1506,2.5500,2.1750,50.9625,
5.775404,-0.0740,1.5794,0.8924,0.0578,-0.0462,-0.1506,2.5500,2.1750,50.9625,
5.814967,-0.0740,1.5794,0.8924,-0.1525,-0.1538,-0.1023,2.5500,2.1750,50.9625,
5.816928,-0.0740,1.5794,0.8924,-0.1525,-0.1538,-0.1023,2.5500,2.1750,50.9625,
5.819776,-0.0740,1.5794,0.8924,-0.1525,-0.1538,-0.1023,2.8313,1.8938,51.0000,
5.834908,0.0045,-0.4911,-0.4756,-0.1525,-0.1538,-0.1023,2.8313,1.8938,51.0000,
5.876032,0.0045,-0.4911,-0.4756,0.0354,0.2119,-0.0185,2.8313,1.8938,51.0000,
5.877172,0.0045,-0.4911,-0.4756,0.0354,0.2119,-0.0185,2.8313,1.8938,51.0000,
5.879648,0.0045,-0.4911,-0.4756,0.0354,0.2119,-0.0185,3.0750,1.8563,51.0000,
5.895701,0.2973,-1.4890,-0.5458,0.0354,0.2119,-0.0185,3.0750,1.8563,51.0000,
5.937534,0.2973,-1.4890,-0.5458,-0.1531,0.0173,0.0908,3.0750,1.8563,51.0000,
5.940340,0.2973,-1.4890,-0.5458,-0.1531,0.0173,0.0908,3.0750,1.8563,51.0000,
5.941533,0.2973,-1.4890,-0.5458,-0.1531,0.0173,0.0908,3.1688,1.6313,50.9813,
5.977366,0.0773,-0.0886,0.7375,-0.1531,0.0173,0.0908,3.1688,1.6313,50.9813,
5.997459,0.0773,-0.0886,0.7375,-0.1531,0.0173,0.0908,3.1688,1.6313,50.9813,
5.998731,0.0773,-0.0886,0.7375,-0.1567,0.1513,0.0656,3.1688,1.6313,50.9813,
6.000854,0.0773,-0.0886,0.7375,-0.1567,0.1513,0.0656,3.1500,1.5375,50.9250,
6.037974,0.0051,-0.0694,0.1627,-0.1567,0.1513,0.0656,3.1500,1.5375,50.9250,
6.058313,0.0051,-0.0694,0.1627,-0.0246,0.4224,0.0493,3.1500,1.5375,50.9250,
6.059973,0.0051,-0.0694,0.1627,-0.0246,0.4224,0.0493,3.1500,1.5375,50.9250,
6.060830,0.0051,-0.0694,0.1627,-0.0246,0.4224,0.0493,2.8875,1.4250,50.8875,
6.100520,-0.1135,-0.0120,0.3618,-0.0246,0.4224,0.0493,2.8875,1.4250,50.8875,
6.124171,-0.1135,-0.0120,0.3618,-0.0246,0.4224,0.0493,2.8875,1.4250,50.8875,
6.127118,-0.1135,-0.0120,0.3618,-0.0246,0.4224,0.0493,2.6625,1.2375,50.9813,
6.128502,-0.1135,-0.0120,0.3618,-0.1702,0.0348,-0.1005,2.6625,1.2375,50.9813,
6.181228,-0.1135,-0.0120,0.3618,-0.1702,0.0348,-0.1005,2.2875,1.0500,51.0375,
6.183198,-0.1135,-0.0120,0.3618,0.0382,0.1924,-0.1641,2.2875,1.0500,51.0375,
6.184190,-0.1135,-0.0120,0.3618,0.0382,0.1924,-0.1641,2.2875,1.0500,51.0375,
6.185034,-0.2959,-0.1187,-0.1132,0.0382,0.1924,-0.1641,2.2875,1.0500,51.0375,
6.242943,-0.2959,-0.1187,-0.1132,0.0382,0.1924,-0.1641,1.7438,0.9563,51.0750,
6.245221,-0.2959,-0.1187,-0.1132,0.0382,0.1924,-0.1641,1.7438,0.9563,51.0750,
6.245679,-0.2959,-0.1187,-0.1132,0.3904,0.4362,-0.2712,1.7438,0.9563,51.0750,
6.246577,-0.0127,0.3514,-0.3028,0.3904,0.4362,-0.2712,1.7438,0.9563,51.0750,
6.300948,-0.0127,0.3514,-0.3028,0.5778,-0.2808,-0.8361,1.7438,0.9563,51.0750,
6.303097,-0.0127,0.3514,-0.3028,0.5778,-0.2808,-0.8361,1.7438,0.9563,51.0750,
6.303829,-0.2257,0.2875,0.4748,0.5778,-0.2808,-0.8361,1.7438,0.9563,51.0750,
6.304501,-0.2257,0.2875,0.4748,0.5778,-0.2808,-0.8361,1.2938,1.2000,50.8875,
6.361416,-0.2257,0.2875,0.4748,0.5778,-0.2808,-0.8361,0.9000,1.6875,50.9063,
6.363449,-0.2257,0.2875,0.4748,0.7273,-0.2120,-1.6366,0.9000,1.6875,50.9063,
6.364529,-0.2257,0.2875,0.4748,0.7273,-0.2120,-1.6366,0.9000,1.6875,50.9063,
6.383059,-0.1493,-2.6629,-0.1217,0.7273,-0.2120,-1.6366,0.9000,1.6875,50.9063,
6.422119,-0.1493,-2.6629,-0.1217,0.7273,-0.2120,-1.6366,0.3938,2.4563,50.7188,
6.424262,-0.1493,-2.6629,-0.1217,1.0627,-0.1949,-1.2241,0.3938,2.4563,50.7188,
6.425339,-0.1493,-2.6629,-0.1217,1.0627,-0.1949,-1.2241,0.3938,2.4563,50.7188,
6.444190,-0.3403,-0.0590,-0.2266,1.0627,-0.1949,-1.2241,0.3938,2.4563,50.7188,
6.480342,-0.3403,-0.0590,-0.2266,1.0627,-0.1949,-1.2241,0.1313,3.4688,50.4750,
6.483712,-0.3403,-0.0590,-0.2266,0.1944,-1.3761,-1.6887,0.1313,3.4688,50.4750,
6.484563,-0.3403,-0.0590,-0.2266,0.1944,-1.3761,-1.6887,0.1313,3.4688,50.4750,
6.505317,-0.2412,0.7389,-0.1656,0.1944,-1.3761,-1.6887,0.1313,3.4688,50.4750,
6.540601,-0.2412,0.7389,-0.1656,0.1944,-1.3761,-1.6887,0.0375,4.8375,50.1750,
6.546637,-0.2412,0.7389,-0.1656,0.1944,-1.3761,-1.6887,0.0375,4.8375,50.1750,
6.547751,-0.2412,0.7389,-0.1656,0.6080,0.0380,-1.2642,0.0375,4.8375,50.1750,
6.565763,-0.7078,2.0442,-1.2658,0.6080,0.0380,-1.2642,0.0375,4.8375,50.1750,
6.600182,-0.7078,2.0442,-1.2658,0.6080,0.0380,-1.2642,-0.2625,6.4875,49.6500,
6.606387,-0.7078,2.0442,-1.2658,0.5682,-0.8436,-0.8790,-0.2625,6.4875,49.6500,
6.607914,-0.7078,2.0442,-1.2658,0.5682,-0.8436,-0.8790,-0.2625,6.4875,49.6500,
6.647328,-1.5604,3.4044,-1.0168,0.5682,-0.8436,-0.8790,-0.2625,6.4875,49.6500,
6.660417,-1.5604,3.4044,-1.0168,0.5682,-0.8436,-0.8790,-0.0000,8.3813,49.1250,
6.667222,-1.5604,3.4044,-1.0168,0.4113,-1.7896,-2.5415,-0.0000,8.3813,49.1250,
6.668516,-1.5604,3.4044,-1.0168,0.4113,-1.7896,-2.5415,-0.0000,8.3813,49.1250,
6.709055,2.1603,-4.1211,0.2259,0.4113,-1.7896,-2.5415,-0.0000,8.3813,49.1250,
6.724698,2.1603,-4.1211,0.2259,0.4113,-1.7896,-2.5415,0.4125,10.3688,48.4125,
6.730070,2.1603,-4.1211,0.2259,0.5232,0.1083,-0.0728,0.4125,10.3688,48.4125,
6.730906,2.1603,-4.1211,0.2259,0.5232,0.1083,-0.0728,0.4125,10.3688,48.4125,
6.768616,-1.9217,-0.2577,0.4194,0.5232,0.1083,-0.0728,0.4125,10.3688,48.4125,
6.781337,-1.9217,-0.2577,0.4194,0.5232,0.1083,-0.0728,0.7313,12.5063,47.7000,
6.788718,-1.9217,-0.2577,0.4194,0.5232,0.1083,-0.0728,0.7313,12.5063,47.7000,
6.789458,-1.9217,-0.2577,0.4194,1.7574,0.7938,-0.8630,0.7313,12.5063,47.7000,
6.829767,-1.3150,7.4382,-3.3053,1.7574,0.7938,-0.8630,0.7313,12.5063,47.7000,
6.840364,-1.3150,7.4382,-3.3053,1.7574,0.7938,-0.8630,0.5063,14.6813,46.9125,
6.849662,-1.3150,7.4382,-3.3053,-0.8461,-0.5400,-1.4918,0.5063,14.6813,46.9125,
6.850920,-1.3150,7.4382,-3.3053,-0.8461,-0.5400,-1.4918,0.5063,14.6813,46.9125,
6.901383,-1.3150,7.4382,-3.3053,-0.8461,-0.5400,-1.4918,0.3000,16.1438,46.2375,
6.913033,-1.3150,7.4382,-3.3053,-0.8461,-0.5400,-1.4918,0.3000,16.1438,46.2375,
6.913988,-2.2173,-2.4420,1.6707,-0.8461,-0.5400,-1.4918,0.3000,16.1438,46.2375,
6.914445,-2.2173,-2.4420,1.6707,-0.4272,-0.4441,-2.3115,0.3000,16.1438,46.2375,
6.960137,-2.2173,-2.4420,1.6707,-0.4272,-0.4441,-2.3115,-0.3750,17.2125,45.8063,
6.971789,-2.2173,-2.4420,1.6707,-0.5071,-0.1072,-2.2674,-0.3750,17.2125,45.8063,
6.972881,-2.2173,-2.4420,1.6707,-0.5071,-0.1072,-2.2674,-0.3750,17.2125,45.8063,
6.973341,-0.6163,0.5748,0.3221,-0.5071,-0.1072,-2.2674,-0.3750,17.2125,45.8063,
7.020833,-0.6163,0.5748,0.3221,-0.5071,-0.1072,-2.2674,-1.2750,17.8125,45.7125,
7.031514,-0.6163,0.5748,0.3221,-0.7041,-0.3213,-2.2905,-1.2750,17.8125,45.7125,
7.032186,-0.6163,0.5748,0.3221,-0.7041,-0.3213,-2.2905,-1.2750,17.8125,45.7125,
7.032450,-0.1721,0.8158,-0.0597,-0.7041,-0.3213,-2.2905,-1.2750,17.8125,45.7125,
7.080197,-0.1721,0.8158,-0.0597,-0.7041,-0.3213,-2.2905,-2.2688,17.8313,45.7500,
7.093552,-0.1721,0.8158,-0.0597,-0.7041,-0.3213,-2.2905,-2.2688,17.8313,45.7500,
7.094754,-0.1721,0.8158,-0.0597,-0.4278,0.4373,-2.5280,-2.2688,17.8313,45.7500,
7.113988,-0.3721,-0.2029,0.3224,-0.4278,0.4373,-2.5280,-2.2688,17.8313,45.7500,
7.139188,-0.3721,-0.2029,0.3224,-0.4278,0.4373,-2.5280,-3.8063,17.1000,45.8813,
7.153747,-0.3721,-0.2029,0.3224,-0.4278,0.4373,-2.5280,-3.8063,17.1000,45.8813,
7.155372,-0.3721,-0.2029,0.3224,-0.3019,-0.6991,-2.8091,-3.8063,17.1000,45.8813,
7.173371,-0.9909,-0.3476,0.4668,-0.3019,-0.6991,-2.8091,-3.8063,17.1000,45.8813,
7.199281,-0.9909,-0.3476,0.4668,-0.3019,-0.6991,-2.8091,-5.6063,16.1813,46.1625,
7.214269,-0.9909,-0.3476,0.4668,0.0751,-0.4530,-3.6054,-5.6063,16.1813,46.1625,
7.216308,-0.9909,-0.3476,0.4668,0.0751,-0.4530,-3.6054,-5.6063,16.1813,46.1625,
7.235036,-0.6208,-0.3353,-0.0993,0.0751,-0.4530,-3.6054,-5.6063,16.1813,46.1625,
7.259759,-0.6208,-0.3353,-0.0993,0.0751,-0.4530,-3.6054,-7.5188,14.6250,46.5563,
7.274954,-0.6208,-0.3353,-0.0993,0.1266,-0.0688,-2.9214,-7.5188,14.6250,46.5563,
7.276676,-0.6208,-0.3353,-0.0993,0.1266,-0.0688,-2.9214,-7.5188,14.6250,46.5563,
7.295700,-0.1512,-0.7676,0.0114,0.1266,-0.0688,-2.9214,-7.5188,14.6250,46.5563,
7.320678,-0.1512,-0.7676,0.0114,0.1266,-0.0688,-2.9214,-9.0188,12.4500,47.1562,
7.336285,-0.1512,-0.7676,0.0114,0.0893,0.0252,-0.6049,-9.0188,12.4500,47.1562,
7.337997,-0.1512,-0.7676,0.0114,0.0893,0.0252,-0.6049,-9.0188,12.4500,47.1562,
7.376675,1.5234,2.1338,0.2939,0.0893,0.0252,-0.6049,-9.0188,12.4500,47.1562,
7.379296,1.5234,2.1338,0.2939,0.0893,0.0252,-0.6049,-10.3500,10.7625,47.7563,
7.397710,1.5234,2.1338,0.2939,-0.0129,0.1707,0.0703,-10.3500,10.7625,47.7563,
7.399343,1.5234,2.1338,0.2939,-0.0129,0.1707,0.0703,-10.3500,10.7625,47.7563,
7.438117,1.0064,0.8597,-0.3824,-0.0129,0.1707,0.0703,-10.3500,10.7625,47.7563,
7.440591,1.0064,0.8597,-0.3824,-0.0129,0.1707,0.0703,-11.4375,9.3750,48.1500,
7.459168,1.0064,0.8597,-0.3824,-0.0129,0.1707,0.0703,-11.4375,9.3750,48.1500,
7.460901,1.0064,0.8597,-0.3824,0.1394,0.1438,-0.1033,-11.4375,9.3750,48.1500,
7.499894,1.0064,0.8597,-0.3824,0.1394,0.1438,-0.1033,-12.6188,7.9500,48.1688,
7.502259,0.4360,0.4260,-0.2245,0.1394,0.1438,-0.1033,-12.6188,7.9500,48.1688,
7.521734,0.4360,0.4260,-0.2245,0.1671,-0.0383,-0.3475,-12.6188,7.9500,48.1688,
7.523564,0.4360,0.4260,-0.2245,0.1671,-0.0383,-0.3475,-12.6188,7.9500,48.1688,
7.560696,0.4360,0.4260,-0.2245,0.1671,-0.0383,-0.3475,-13.3875,6.9188,48.4500,
7.581112,0.4360,0.4260,-0.2245,-0.0434,0.2553,0.3638,-13.3875,6.9188,48.4500,
7.583703,0.4360,0.4260,-0.2245,-0.0434,0.2553,0.3638,-13.3875,6.9188,48.4500,
7.584592,0.8766,0.8426,0.3285,-0.0434,0.2553,0.3638,-13.3875,6.9188,48.4500,
7.623302,0.8766,0.8426,0.3285,-0.0434,0.2553,0.3638,-13.9313,6.4313,48.4500,
7.642266,0.8766,0.8426,0.3285,0.0563,-0.0230,0.1739,-13.9313,6.4313,48.4500,
7.644908,0.5738,0.5621,-0.3242,0.0563,-0.0230,0.1739,-13.9313,6.4313,48.4500,
7.646246,0.5738,0.5621,-0.3242,0.0563,-0.0230,0.1739,-13.9313,6.4313,48.4500,
7.681457,0.5738,0.5621,-0.3242,0.0563,-0.0230,0.1739,-14.3063,5.9250,48.6000,
7.703068,0.5738,0.5621,-0.3242,0.0563,-0.0230,0.1739,-14.3063,5.9250,48.6000,
7.704540,0.5738,0.5621,-0.3242,-0.0410,0.0081,0.2591,-14.3063,5.9250,48.6000,
7.705281,0.5669,0.4089,0.0273,-0.0410,0.0081,0.2591,-14.3063,5.9250,48.6000,
7.742047,0.5669,0.4089,0.0273,-0.0410,0.0081,0.2591,-14.5313,5.7000,48.7688,
7.763256,0.5669,0.4089,0.0273,-0.0410,0.0081,0.2591,-14.5313,5.7000,48.7688,
7.764364,0.5669,0.4089,0.0273,-0.0722,0.0511,0.3148,-14.5313,5.7000,48.7688,
7.764967,0.6823,0.5846,0.1155,-0.0722,0.0511,0.3148,-14.5313,5.7000,48.7688,
7.800285,0.6823,0.5846,0.1155,-0.0722,0.0511,0.3148,-14.7375,5.8125,48.7125,
7.824320,0.6823,0.5846,0.1155,-0.0509,0.0258,0.4217,-14.7375,5.8125,48.7125,
7.826550,0.6823,0.5846,0.1155,-0.0509,0.0258,0.4217,-14.7375,5.8125,48.7125,
7.845279,0.6306,0.4382,0.0493,-0.0509,0.0258,0.4217,-14.7375,5.8125,48.7125,
7.860606,0.6306,0.4382,0.0493,-0.0509,0.0258,0.4217,-14.8688,5.7938,48.6938,
7.885275,0.6306,0.4382,0.0493,-0.0739,0.0714,0.5673,-14.8688,5.7938,48.6938,
7.888163,0.6306,0.4382,0.0493,-0.0739,0.0714,0.5673,-14.8688,5.7938,48.6938,
7.905320,0.6662,0.4944,-0.0365,-0.0739,0.0714,0.5673,-14.8688,5.7938,48.6938,
7.922203,0.6662,0.4944,-0.0365,-0.0739,0.0714,0.5673,-14.9438,5.8125,48.7875,
7.949169,0.6662,0.4944,-0.0365,-0.1003,0.1483,0.6450,-14.9438,5.8125,48.7875,
7.951367,0.6662,0.4944,-0.0365,-0.1003,0.1483,0.6450,-14.9438,5.8125,48.7875,
7.966741,0.7330,0.4296,0.1388,-0.1003,0.1483,0.6450,-14.9438,5.8125,48.7875,
7.980298,0.7330,0.4296,0.1388,-0.1003,0.1483,0.6450,-14.9250,5.8500,48.9188,
8.007080,0.7330,0.4296,0.1388,-0.0909,0.2127,0.7401,-14.9250,5.8500,48.9188,
8.009080,0.7330,0.4296,0.1388,-0.0909,0.2127,0.7401,-14.9250,5.8500,48.9188,
8.040689,0.7330,0.4296,0.1388,-0.0909,0.2127,0.7401,-14.9438,6.0000,48.9000,
8.048431,0.6261,0.3410,-0.0111,-0.0909,0.2127,0.7401,-14.9438,6.0000,48.9000,
8.068139,0.6261,0.3410,-0.0111,-0.0909,0.2127,0.7401,-14.9438,6.0000,48.9000,
8.069219,0.6261,0.3410,-0.0111,0.0893,-0.0326,0.6007,-14.9438,6.0000,48.9000,
8.101658,0.6261,0.3410,-0.0111,0.0893,-0.0326,0.6007,-14.9250,6.1125,48.8438,
8.108646,0.2575,0.0824,0.0194,0.0893,-0.0326,0.6007,-14.9250,6.1125,48.8438,
8.129023,0.2575,0.0824,0.0194,-0.0240,0.3755,0.7955,-14.9250,6.1125,48.8438,
8.130756,0.2575,0.0824,0.0194,-0.0240,0.3755,0.7955,-14.9250,6.1125,48.8438,
8.161281,0.2575,0.0824,0.0194,-0.0240,0.3755,0.7955,-14.8500,6.5063,48.8063,
8.170659,0.1961,0.4928,-0.5051,-0.0240,0.3755,0.7955,-14.8500,6.5063,48.8063,
8.189645,0.1961,0.4928,-0.5051,0.1511,0.1852,0.7537,-14.8500,6.5063,48.8063,
8.191467,0.1961,0.4928,-0.5051,0.1511,0.1852,0.7537,-14.8500,6.5063,48.8063,
8.220868,0.1961,0.4928,-0.5051,0.1511,0.1852,0.7537,-14.7000,7.1250,48.6000,
8.233641,0.7229,-0.0453,-0.2157,0.1511,0.1852,0.7537,-14.7000,7.1250,48.6000,
8.251024,0.7229,-0.0453,-0.2157,0.2715,0.0369,0.7746,-14.7000,7.1250,48.6000,
8.252303,0.7229,-0.0453,-0.2157,0.2715,0.0369,0.7746,-14.7000,7.1250,48.6000,
8.281152,0.7229,-0.0453,-0.2157,0.2715,0.0369,0.7746,-14.7750,7.6313,48.4688,
8.312444,0.7229,-0.0453,-0.2157,0.1780,0.3312,0.8931,-14.7750,7.6313,48.4688,
8.314778,0.5788,0.2825,-0.0709,0.1780,0.3312,0.8931,-14.7750,7.6313,48.4688,
8.316060,0.5788,0.2825,-0.0709,0.1780,0.3312,0.8931,-14.7750,7.6313,48.4688,
8.340461,0.5788,0.2825,-0.0709,0.1780,0.3312,0.8931,-14.7563,8.4938,48.3000,
8.378016,0.5788,0.2825,-0.0709,0.1639,0.2144,0.6947,-14.7563,8.4938,48.3000,
8.380380,0.0887,0.2956,-0.3059,0.1639,0.2144,0.6947,-14.7563,8.4938,48.3000,
8.381432,0.0887,0.2956,-0.3059,0.1639,0.2144,0.6947,-14.7563,8.4938,48.3000,
8.400361,0.0887,0.2956,-0.3059,0.1639,0.2144,0.6947,-14.7938,9.2063,47.9625,
8.434235,0.0887,0.2956,-0.3059,0.1333,-0.0664,0.4036,-14.7938,9.2063,47.9625,
8.436951,-0.2282,0.1018,-0.1721,0.1333,-0.0664,0.4036,-14.7938,9.2063,47.9625,
8.438051,-0.2282,0.1018,-0.1721,0.1333,-0.0664,0.4036,-14.7938,9.2063,47.9625,
8.461663,-0.2282,0.1018,-0.1721,0.1333,-0.0664,0.4036,-14.6250,10.2000,47.4750,
8.494939,-0.2282,0.1018,-0.1721,0.0329,-0.0878,0.0482,-14.6250,10.2000,47.4750,
8.496679,-0.2282,0.1018,-0.1721,0.0329,-0.0878,0.0482,-14.6250,10.2000,47.4750,
8.515417,-0.3517,-0.0768,0.1469,0.0329,-0.0878,0.0482,-14.6250,10.2000,47.4750,
8.519395,-0.3517,-0.0768,0.1469,0.0329,-0.0878,0.0482,-14.5313,11.0625,47.0438,
8.555982,-0.3517,-0.0768,0.1469,0.0329,-0.0878,0.0482,-14.5313,11.0625,47.0438,
8.557923,-0.3517,-0.0768,0.1469,-0.0240,0.0386,-0.0810,-14.5313,11.0625,47.0438,
8.574999,-0.1270,-0.1634,0.2889,-0.0240,0.0386,-0.0810,-14.5313,11.0625,47.0438,
8.581097,-0.1270,-0.1634,0.2889,-0.0240,0.0386,-0.0810,-14.4000,12.0000,46.8750,
8.616387,-0.1270,-0.1634,0.2889,0.0972,-0.2595,-0.0153,-14.4000,12.0000,46.8750,
8.618436,-0.1270,-0.1634,0.2889,0.0972,-0.2595,-0.0153,-14.4000,12.0000,46.8750,
8.636487,-0.1684,0.0120,-0.2096,0.0972,-0.2595,-0.0153,-14.4000,12.0000,46.8750,
8.640385,-0.1684,0.0120,-0.2096,0.0972,-0.2595,-0.0153,-14.3625,12.6563,46.6875,
8.676973,-0.1684,0.0120,-0.2096,-0.0562,0.0895,0.0525,-14.3625,12.6563,46.6875,
8.679487,-0.1684,0.0120,-0.2096,-0.0562,0.0895,0.0525,-14.3625,12.6563,46.6875,
8.698082,0.2319,-0.0409,0.3950,-0.0562,0.0895,0.0525,-14.3625,12.6563,46.6875,
8.700752,0.2319,-0.0409,0.3950,-0.0562,0.0895,0.0525,-14.4188,13.0688,46.6125,
8.739949,0.2319,-0.0409,0.3950,-0.0431,0.0429,0.0901,-14.4188,13.0688,46.6125,
8.741776,0.2319,-0.0409,0.3950,-0.0431,0.0429,0.0901,-14.4188,13.0688,46.6125,
8.759574,0.2319,-0.0409,0.3950,-0.0431,0.0429,0.0901,-14.2125,13.3688,46.4813,
8.777977,0.1022,-0.0392,0.0236,-0.0431,0.0429,0.0901,-14.2125,13.3688,46.4813,
8.800195,0.1022,-0.0392,0.0236,-0.0027,-0.0963,0.1093,-14.2125,13.3688,46.4813,
8.802934,0.1022,-0.0392,0.0236,-0.0027,-0.0963,0.1093,-14.2125,13.3688,46.4813,
8.821267,0.1022,-0.0392,0.0236,-0.0027,-0.0963,0.1093,-14.1375,13.4625,46.4250,
8.840673,-0.1550,0.0671,0.0227,-0.0027,-0.0963,0.1093,-14.1375,13.4625,46.4250,
8.862365,-0.1550,0.0671,0.0227,-0.0027,-0.0963,0.1093,-14.1375,13.4625,46.4250,
8.864832,-0.1550,0.0671,0.0227,-0.0336,0.0181,0.0695,-14.1375,13.4625,46.4250,
8.881082,-0.1550,0.0671,0.0227,-0.0336,0.0181,0.0695,-14.1000,13.6125,46.4062,
8.900990,-0.0074,-0.0696,0.0391,-0.0336,0.0181,0.0695,-14.1000,13.6125,46.4062,
8.921292,-0.0074,-0.0696,0.0391,-0.0304,0.0103,0.2534,-14.1000,13.6125,46.4062,
8.922426,-0.0074,-0.0696,0.0391,-0.0304,0.0103,0.2534,-14.1000,13.6125,46.4062,
8.940372,-0.0074,-0.0696,0.0391,-0.0304,0.0103,0.2534,-14.0813,13.6500,46.6313,
8.981710,-0.0074,-0.0696,0.0391,0.0557,-0.2993,0.6593,-14.0813,13.6500,46.6313,
8.983875,0.4348,0.2656,0.1754,0.0557,-0.2993,0.6593,-14.0813,13.6500,46.6313,
8.984992,0.4348,0.2656,0.1754,0.0557,-0.2993,0.6593,-14.0813,13.6500,46.6313,
9.001366,0.4348,0.2656,0.1754,0.0557,-0.2993,0.6593,-13.7625,13.7813,46.6500,
9.043277,0.4348,0.2656,0.1754,-0.0832,0.2368,0.2169,-13.7625,13.7813,46.6500,
9.045373,0.4348,0.2656,0.1754,-0.0832,0.2368,0.2169,-13.7625,13.7813,46.6500,
9.046613,0.2778,-0.0120,0.0947,-0.0832,0.2368,0.2169,-13.7625,13.7813,46.6500,
9.060563,0.2778,-0.0120,0.0947,-0.0832,0.2368,0.2169,-13.5375,13.7250,46.7250,
9.108115,0.2778,-0.0120,0.0947,-0.0832,0.2368,0.2169,-13.5375,13.7250,46.7250,
9.110426,0.2778,-0.0120,0.0947,0.1068,-0.4111,0.3216,-13.5375,13.7250,46.7250,
9.111770,-0.2420,-0.1373,-0.1582,0.1068,-0.4111,0.3216,-13.5375,13.7250,46.7250,
9.120546,-0.2420,-0.1373,-0.1582,0.1068,-0.4111,0.3216,-13.2375,13.8000,46.6688,
9.164929,-0.2420,-0.1373,-0.1582,-0.0168,-0.0383,0.0706,-13.2375,13.8000,46.6688,
9.166691,-0.2420,-0.1373,-0.1582,-0.0168,-0.0383,0.0706,-13.2375,13.8000,46.6688,
9.167361,0.2590,0.2626,0.1752,-0.0168,-0.0383,0.0706,-13.2375,13.8000,46.6688,
9.180372,0.2590,0.2626,0.1752,-0.0168,-0.0383,0.0706,-12.7875,14.0250,46.5938,
9.225910,0.2590,0.2626,0.1752,0.0964,-0.5116,-0.2286,-12.7875,14.0250,46.5938,
9.229257,0.2590,0.2626,0.1752,0.0964,-0.5116,-0.2286,-12.7875,14.0250,46.5938,
9.240001,0.2590,0.2626,0.1752,0.0964,-0.5116,-0.2286,-12.1500,14.2688,46.6875,
9.245279,-0.7211,-0.5929,-0.1944,0.0964,-0.5116,-0.2286,-12.1500,14.2688,46.6875,
9.287205,-0.7211,-0.5929,-0.1944,0.0964,-0.5116,-0.2286,-12.1500,14.2688,46.6875,
9.289114,-0.7211,-0.5929,-0.1944,0.2036,-1.0892,-0.1485,-12.1500,14.2688,46.6875,
9.300828,-0.7211,-0.5929,-0.1944,0.2036,-1.0892,-0.1485,-11.1375,14.5313,46.7438,
9.307923,-0.2952,-0.0664,-0.0831,0.2036,-1.0892,-0.1485,-11.1375,14.5313,46.7438,
9.347239,-0.2952,-0.0664,-0.0831,0.2036,-1.0892,-0.1485,-11.1375,14.5313,46.7438,
9.348744,-0.2952,-0.0664,-0.0831,0.2530,-1.4338,-0.2514,-11.1375,14.5313,46.7438,
9.359875,-0.2952,-0.0664,-0.0831,0.2530,-1.4338,-0.2514,-9.6188,15.0000,46.7438,
9.367227,-0.1038,-0.0229,0.1855,0.2530,-1.4338,-0.2514,-9.6188,15.0000,46.7438,
9.407958,-0.1038,-0.0229,0.1855,0.3864,-2.3895,0.1530,-9.6188,15.0000,46.7438,
9.409629,-0.1038,-0.0229,0.1855,0.3864,-2.3895,0.1530,-9.6188,15.0000,46.7438,
9.420035,-0.1038,-0.0229,0.1855,0.3864,-2.3895,0.1530,-7.4625,15.5625,46.5938,
9.448164,-0.5196,-0.3941,0.0239,0.3864,-2.3895,0.1530,-7.4625,15.5625,46.5938,
9.469397,-0.5196,-0.3941,0.0239,0.3864,-2.3895,0.1530,-7.4625,15.5625,46.5938,
9.471732,-0.5196,-0.3941,0.0239,0.5298,-2.6707,0.7469,-7.4625,15.5625,46.5938,
9.480091,-0.5196,-0.3941,0.0239,0.5298,-2.6707,0.7469,-4.3875,15.9563,46.1438,
9.510168,0.8953,0.0198,-0.1309,0.5298,-2.6707,0.7469,-4.3875,15.9563,46.1438,
9.529262,0.8953,0.0198,-0.1309,0.3960,-2.6217,0.3898,-4.3875,15.9563,46.1438,
9.531481,0.8953,0.0198,-0.1309,0.3960,-2.6217,0.3898,-4.3875,15.9563,46.1438,
9.540421,0.8953,0.0198,-0.1309,0.3960,-2.6217,0.3898,-0.5063,17.4750,44.5312,
9.570695,0.3388,0.2567,-0.3164,0.3960,-2.6217,0.3898,-0.5063,17.4750,44.5312,
9.591667,0.3388,0.2567,-0.3164,0.3960,-2.6217,0.3898,-0.5063,17.4750,44.5312,
9.592867,0.3388,0.2567,-0.3164,0.2033,-1.0519,0.1055,-0.5063,17.4750,44.5312,
9.601232,0.3388,0.2567,-0.3164,0.2033,-1.0519,0.1055,3.8250,18.0563,43.7812,
9.631590,0.8971,0.5996,-0.3154,0.2033,-1.0519,0.1055,3.8250,18.0563,43.7812,
9.651707,0.8971,0.5996,-0.3154,0.0659,-0.8840,0.0682,3.8250,18.0563,43.7812,
9.653997,0.8971,0.5996,-0.3154,0.0659,-0.8840,0.0682,3.8250,18.0563,43.7812,
9.660382,0.8971,0.5996,-0.3154,0.0659,-0.8840,0.0682,8.3250,18.6188,42.8063,
9.712899,0.8971,0.5996,-0.3154,-0.0846,-0.9390,-0.1871,8.3250,18.6188,42.8063,
9.715535,-0.5808,-0.3315,-0.0006,-0.0846,-0.9390,-0.1871,8.3250,18.6188,42.8063,
9.716611,-0.5808,-0.3315,-0.0006,-0.0846,-0.9390,-0.1871,8.3250,18.6188,42.8063,
9.721664,-0.5808,-0.3315,-0.0006,-0.0846,-0.9390,-0.1871,12.7500,19.1438,41.3625,
9.774519,-0.5808,-0.3315,-0.0006,-0.5156,-1.9757,0.3131,12.7500,19.1438,41.3625,
9.777430,-0.5808,-0.3315,-0.0006,-0.5156,-1.9757,0.3131,12.7500,19.1438,41.3625,
9.779044,-0.2656,-1.6849,0.2324,-0.5156,-1.9757,0.3131,12.7500,19.1438,41.3625,
9.783029,-0.2656,-1.6849,0.2324,-0.5156,-1.9757,0.3131,17.3438,19.3688,39.6000,
9.834993,-0.2656,-1.6849,0.2324,-0.3505,-0.6234,-0.1672,17.3438,19.3688,39.6000,
9.838559,-0.2656,-1.6849,0.2324,-0.3505,-0.6234,-0.1672,17.3438,19.3688,39.6000,
9.840096,0.1019,-0.3375,0.3264,-0.3505,-0.6234,-0.1672,17.3438,19.3688,39.6000,
9.841565,0.1019,-0.3375,0.3264,-0.3505,-0.6234,-0.1672,21.8813,19.2750,37.8563,
9.895726,0.1019,-0.3375,0.3264,-0.4872,-0.2900,-0.3384,21.8813,19.2750,37.8563,
9.897662,0.1019,-0.3375,0.3264,-0.4872,-0.2900,-0.3384,21.8813,19.2750,37.8563,
9.899823,0.1019,-0.3375,0.3264,-0.4872,-0.2900,-0.3384,25.5563,19.1063,36.1500,
9.915987,0.1504,1.2413,-0.0529,-0.4872,-0.2900,-0.3384,25.5563,19.1063,36.1500,
9.956681,0.1504,1.2413,-0.0529,-0.4872,-0.2900,-0.3384,25.5563,19.1063,36.1500,
9.958446,0.1504,1.2413,-0.0529,-0.5085,-0.7814,-0.0618,25.5563,19.1063,36.1500,
9.959526,0.1504,1.2413,-0.0529,-0.5085,-0.7814,-0.0618,28.1250,18.6562,34.4813,
9.976114,0.4108,-1.0085,0.3063,-0.5085,-0.7814,-0.0618,28.1250,18.6562,34.4813,
10.016977,0.4108,-1.0085,0.3063,-0.5085,-0.7814,-0.0618,28.1250,18.6562,34.4813,
10.018727,0.4108,-1.0085,0.3063,-0.4790,-0.8495,0.0688,28.1250,18.6562,34.4813,
10.019744,0.4108,-1.0085,0.3063,-0.4790,-0.8495,0.0688,30.1688,18.0375,32.9438,
10.040262,0.4256,-1.1864,0.1696,-0.4790,-0.8495,0.0688,30.1688,18.0375,32.9438,
10.077607,0.4256,-1.1864,0.1696,-0.4790,-0.8495,0.0688,30.1688,18.0375,32.9438,
10.079593,0.4256,-1.1864,0.1696,-0.5661,-0.5595,-0.1349,30.1688,18.0375,32.9438,
10.080821,0.4256,-1.1864,0.1696,-0.5661,-0.5595,-0.1349,31.8750,17.1938,31.3500,
10.098854,-0.2134,-0.0375,0.1209,-0.5661,-0.5595,-0.1349,31.8750,17.1938,31.3500,
10.139607,-0.2134,-0.0375,0.1209,-0.5661,-0.5595,-0.1349,31.8750,17.1938,31.3500,
10.141599,-0.2134,-0.0375,0.1209,-0.5661,-0.5595,-0.1349,33.4125,16.0125,29.8875,
10.142842,-0.2134,-0.0375,0.1209,-0.6019,-0.4545,0.0390,33.4125,16.0125,29.8875,
10.179261,-0.3019,-0.6166,0.2603,-0.6019,-0.4545,0.0390,33.4125,16.0125,29.8875,
10.201154,-0.3019,-0.6166,0.2603,-0.6019,-0.4545,0.0390,33.4125,16.0125,29.8875,
10.202718,-0.3019,-0.6166,0.2603,-0.6019,-0.4545,0.0390,34.8000,14.8313,28.8563,
10.203634,-0.3019,-0.6166,0.2603,-0.7673,-0.0072,-0.2898,34.8000,14.8313,28.8563,
10.241635,-0.6414,-0.4945,0.4502,-0.7673,-0.0072,-0.2898,34.8000,14.8313,28.8563,
10.261331,-0.6414,-0.4945,0.4502,0.2419,0.1029,-0.0008,34.8000,14.8313,28.8563,
10.263804,-0.6414,-0.4945,0.4502,0.2419,0.1029,-0.0008,34.8000,14.8313,28.8563,
10.264679,-0.6414,-0.4945,0.4502,0.2419,0.1029,-0.0008,35.6250,13.6313,28.0875,
10.302045,-1.8621,0.0724,2.5877,0.2419,0.1029,-0.0008,35.6250,13.6313,28.0875,
10.322409,-1.8621,0.0724,2.5877,0.2419,0.1029,-0.0008,35.6250,13.6313,28.0875,
10.324201,-1.8621,0.0724,2.5877,1.2579,0.7575,-0.1097,35.6250,13.6313,28.0875,
10.325247,-1.8621,0.0724,2.5877,1.2579,0.7575,-0.1097,35.9625,12.7875,27.3000,
10.380297,-1.8621,0.0724,2.5877,1.2579,0.7575,-0.1097,36.4313,12.1875,26.6250,
10.382909,-1.8621,0.0724,2.5877,2.0721,0.4309,0.7452,36.4313,12.1875,26.6250,
10.383994,-1.8621,0.0724,2.5877,2.0721,0.4309,0.7452,36.4313,12.1875,26.6250,
10.384792,-1.4396,1.1455,0.9433,2.0721,0.4309,0.7452,36.4313,12.1875,26.6250,
10.440369,-1.4396,1.1455,0.9433,2.0721,0.4309,0.7452,36.7875,11.9625,26.1563,
10.443254,-1.4396,1.1455,0.9433,2.8399,1.2329,1.1460,36.7875,11.9625,26.1563,
10.443870,-1.4396,1.1455,0.9433,2.8399,1.2329,1.1460,36.7875,11.9625,26.1563,
10.444300,-1.2864,2.7005,-0.5966,2.8399,1.2329,1.1460,36.7875,11.9625,26.1563,
10.501565,-1.2864,2.7005,-0.5966,2.8399,1.2329,1.1460,36.9563,11.8688,25.6688,
10.506373,-1.2864,2.7005,-0.5966,2.3954,0.9698,1.8038,36.9563,11.8688,25.6688,
10.508986,-1.2864,2.7005,-0.5966,2.3954,0.9698,1.8038,36.9563,11.8688,25.6688,
10.510417,0.3412,0.3768,-1.9153,2.3954,0.9698,1.8038,36.9563,11.8688,25.6688,
10.564784,0.3412,0.3768,-1.9153,1.3127,0.2276,1.8530,36.9563,11.8688,25.6688,
10.568146,0.3412,0.3768,-1.9153,1.3127,0.2276,1.8530,36.9750,11.7188,25.2000,
10.569207,0.3412,0.3768,-1.9153,1.3127,0.2276,1.8530,36.9750,11.7188,25.2000,
10.570465,2.3279,-0.5208,-3.1969,1.3127,0.2276,1.8530,36.9750,11.7188,25.2000,
10.620949,2.3279,-0.5208,-3.1969,1.3127,0.2276,1.8530,37.5000,11.4563,24.4125,
10.625568,2.3279,-0.5208,-3.1969,0.0027,-0.4100,-0.0217,37.5000,11.4563,24.4125,
10.626813,2.3279,-0.5208,-3.1969,0.0027,-0.4100,-0.0217,37.5000,11.4563,24.4125,
10.646815,4.6314,-2.4812,-2.8327,0.0027,-0.4100,-0.0217,37.5000,11.4563,24.4125,
10.680582,4.6314,-2.4812,-2.8327,0.0027,-0.4100,-0.0217,37.5938,11.8125,23.5312,
10.687338,4.6314,-2.4812,-2.8327,0.0027,-0.4100,-0.0217,37.5938,11.8125,23.5312,
10.688164,4.6314,-2.4812,-2.8327,1.5701,-0.8048,-0.4462,37.5938,11.8125,23.5312,
10.707172,3.6190,-0.2538,-0.9576,1.5701,-0.8048,-0.4462,37.5938,11.8125,23.5312,
10.740561,3.6190,-0.2538,-0.9576,1.5701,-0.8048,-0.4462,37.8563,12.7688,22.0875,
10.750043,3.6190,-0.2538,-0.9576,1.8000,-1.3923,0.2261,37.8563,12.7688,22.0875,
10.751786,3.6190,-0.2538,-0.9576,1.8000,-1.3923,0.2261,37.8563,12.7688,22.0875,
10.768137,-1.1475,-1.1064,1.7655,1.8000,-1.3923,0.2261,37.8563,12.7688,22.0875,
10.800781,-1.1475,-1.1064,1.7655,1.8000,-1.3923,0.2261,38.4563,13.3688,20.1750,
10.809200,-1.1475,-1.1064,1.7655,1.5850,-1.1406,-0.0089,38.4563,13.3688,20.1750,
10.812595,-1.1475,-1.1064,1.7655,1.5850,-1.1406,-0.0089,38.4563,13.3688,20.1750,
10.850741,-1.3675,-0.3714,-0.9933,1.5850,-1.1406,-0.0089,38.4563,13.3688,20.1750,
10.859954,-1.3675,-0.3714,-0.9933,1.5850,-1.1406,-0.0089,39.1500,13.9875,17.6063,
10.869449,-1.3675,-0.3714,-0.9933,1.3964,-0.9141,-0.0330,39.1500,13.9875,17.6063,
10.870400,-1.3675,-0.3714,-0.9933,1.3964,-0.9141,-0.0330,39.1500,13.9875,17.6063,
10.912159,-0.4133,-0.5143,-0.8354,1.3964,-0.9141,-0.0330,39.1500,13.9875,17.6063,
10.920844,-0.4133,-0.5143,-0.8354,1.3964,-0.9141,-0.0330,39.7313,14.5313,14.7563,
10.930907,-0.4133,-0.5143,-0.8354,1.3964,-0.9141,-0.0330,39.7313,14.5313,14.7563,
10.931951,-0.4133,-0.5143,-0.8354,0.5011,-1.6185,-0.1758,39.7313,14.5313,14.7563,
10.974207,-0.5724,0.3371,0.6341,0.5011,-1.6185,-0.1758,39.7313,14.5313,14.7563,
10.983478,-0.5724,0.3371,0.6341,0.5011,-1.6185,-0.1758,40.4250,15.0750,11.4188,
10.991399,-0.5724,0.3371,0.6341,0.0429,-1.0505,0.0586,40.4250,15.0750,11.4188,
10.992266,-0.5724,0.3371,0.6341,0.0429,-1.0505,0.0586,40.4250,15.0750,11.4188,
11.031476,0.4435,0.4240,0.6399,0.0429,-1.0505,0.0586,40.4250,15.0750,11.4188,
11.041769,0.4435,0.4240,0.6399,0.0429,-1.0505,0.0586,41.1562,15.9188,8.0063,
11.051782,0.4435,0.4240,0.6399,0.3268,-0.3993,-0.0984,41.1562,15.9188,8.0063,
11.052908,0.4435,0.4240,0.6399,0.3268,-0.3993,-0.0984,41.1562,15.9188,8.0063,
11.102582,0.4435,0.4240,0.6399,0.3268,-0.3993,-0.0984,41.5312,16.7625,4.5000,
11.116180,0.4435,0.4240,0.6399,0.2104,-0.2844,-0.0795,41.5312,16.7625,4.5000,
11.117081,0.4435,0.4240,0.6399,0.2104,-0.2844,-0.0795,41.5312,16.7625,4.5000,
11.117492,0.3985,0.0750,0.7289,0.2104,-0.2844,-0.0795,41.5312,16.7625,4.5000,
11.160186,0.3985,0.0750,0.7289,0.2104,-0.2844,-0.0795,41.9062,17.4563,1.1813,
11.174968,0.3985,0.0750,0.7289,0.5746,-0.1509,-0.0731,41.9062,17.4563,1.1813,
11.176330,0.3985,0.0750,0.7289,0.5746,-0.1509,-0.0731,41.9062,17.4563,1.1813,
11.176918,-0.2258,0.4026,0.4243,0.5746,-0.1509,-0.0731,41.9062,17.4563,1.1813,
11.220991,-0.2258,0.4026,0.4243,0.5746,-0.1509,-0.0731,42.4688,18.3750,-1.4438,
