
time,ax,ay,az,wx,wy,wz,Bx,By,Bz,
0.075239,0.0000,0.0000,0.0000,0.0061,-0.0148,-0.0273,0.0000,0.0000,0.0000,
0.075556,0.0000,0.0000,0.0000,0.0061,-0.0148,-0.0273,0.0000,0.0000,0.0000,
0.118072,0.0000,0.0000,0.0000,0.0061,-0.0148,-0.0273,0.0000,0.0000,0.0000,
0.131833,0.0000,0.0000,0.0000,0.0061,-0.0148,-0.0273,46.0500,14.0813,6.2625,
0.159318,0.0000,0.0000,0.0000,-0.0127,-0.0208,-0.0028,46.0500,14.0813,6.2625,
0.179088,0.0000,0.0000,0.0000,-0.0127,-0.0208,-0.0028,46.0500,14.0813,6.2625,
0.191882,0.0000,0.0000,0.0000,-0.0127,-0.0208,-0.0028,45.5250,13.4813,6.2813,
0.223363,0.0000,0.0000,0.0000,-0.0127,-0.0208,-0.0028,45.5250,13.4813,6.2813,
0.225122,0.0000,0.0000,0.0000,-0.0020,-0.0112,0.0012,45.5250,13.4813,6.2813,
0.240471,0.0000,0.0000,0.0000,-0.0020,-0.0112,0.0012,45.5250,13.4813,6.2813,
0.251837,0.0000,0.0000,0.0000,-0.0020,-0.0112,0.0012,45.5250,13.5938,6.2438,
0.280512,0.0000,0.0000,0.0000,0.0083,0.0321,0.0125,45.5250,13.5938,6.2438,
0.280841,0.0501,-0.0033,-0.0121,0.0083,0.0321,0.0125,45.5250,13.5938,6.2438,
0.301008,0.0501,-0.0033,-0.0121,0.0083,0.0321,0.0125,45.5250,13.5938,6.2438,
0.311375,0.0501,-0.0033,-0.0121,0.0083,0.0321,0.0125,45.4500,13.2750,6.4313,
0.341482,0.0501,-0.0033,-0.0121,-0.0013,-0.0133,-0.0269,45.4500,13.2750,6.4313,
0.341976,0.0134,-0.0127,-0.0076,-0.0013,-0.0133,-0.0269,45.4500,13.2750,6.4313,
0.362265,0.0134,-0.0127,-0.0076,-0.0013,-0.0133,-0.0269,45.4500,13.2750,6.4313,
0.371473,0.0134,-0.0127,-0.0076,-0.0013,-0.0133,-0.0269,45.3750,13.1438,6.6375,
0.402374,0.0134,-0.0127,-0.0076,-0.0095,-0.0048,-0.0120,45.3750,13.1438,6.6375,
0.403063,-0.0605,0.0503,0.0283,-0.0095,-0.0048,-0.0120,45.3750,13.1438,6.6375,
0.422929,-0.0605,0.0503,0.0283,-0.0095,-0.0048,-0.0120,45.3750,13.1438,6.6375,
0.432676,-0.0605,0.0503,0.0283,-0.0095,-0.0048,-0.0120,45.4313,13.1250,6.9000,
0.464008,-0.0605,0.0503,0.0283,-0.0003,-0.0048,-0.0009,45.4313,13.1250,6.9000,
0.484528,-0.0605,0.0503,0.0283,-0.0003,-0.0048,-0.0009,45.4313,13.1250,6.9000,
0.485095,0.0259,0.0003,-0.0099,-0.0003,-0.0048,-0.0009,45.4313,13.1250,6.9000,
0.491328,0.0259,0.0003,-0.0099,-0.0003,-0.0048,-0.0009,45.5250,13.1438,7.0125,
0.523569,0.0259,0.0003,-0.0099,0.0008,-0.0001,0.0019,45.5250,13.1438,7.0125,
0.546047,0.0259,0.0003,-0.0099,0.0008,-0.0001,0.0019,45.5250,13.1438,7.0125,
0.546620,0.0250,0.0103,0.0048,0.0008,-0.0001,0.0019,45.5250,13.1438,7.0125,
0.551434,0.0250,0.0103,0.0048,0.0008,-0.0001,0.0019,45.6750,12.9750,7.0125,
0.584794,0.0250,0.0103,0.0048,0.0029,0.0037,0.0044,45.6750,12.9750,7.0125,
0.605914,0.0250,0.0103,0.0048,0.0029,0.0037,0.0044,45.6750,12.9750,7.0125,
0.606342,0.0159,-0.0032,-0.0081,0.0029,0.0037,0.0044,45.6750,12.9750,7.0125,
0.611258,0.0159,-0.0032,-0.0081,0.0029,0.0037,0.0044,45.6562,12.9188,7.0688,
0.646332,0.0159,-0.0032,-0.0081,-0.0020,-0.0020,-0.0009,45.6562,12.9188,7.0688,
0.666588,0.0159,-0.0032,-0.0081,-0.0020,-0.0020,-0.0009,45.6562,12.9188,7.0688,
0.671373,0.0159,-0.0032,-0.0081,-0.0020,-0.0020,-0.0009,45.7313,12.9375,7.1250,
0.689221,-0.0098,0.0061,0.0077,-0.0020,-0.0020,-0.0009,45.7313,12.9375,7.1250,
0.706711,-0.0098,0.0061,0.0077,0.0012,0.0020,-0.0017,45.7313,12.9375,7.1250,
0.727111,-0.0098,0.0061,0.0077,0.0012,0.0020,-0.0017,45.7313,12.9375,7.1250,
0.731170,-0.0098,0.0061,0.0077,0.0012,0.0020,-0.0017,45.7688,13.0125,7.1063,
0.748501,0.0037,-0.0087,-0.0002,0.0012,0.0020,-0.0017,45.7688,13.0125,7.1063,
0.767565,0.0037,-0.0087,-0.0002,0.0015,0.0055,0.0008,45.7688,13.0125,7.1063,
0.788293,0.0037,-0.0087,-0.0002,0.0015,0.0055,0.0008,45.7688,13.0125,7.1063,
0.791553,0.0037,-0.0087,-0.0002,0.0015,0.0055,0.0008,45.8438,13.2563,6.9563,
0.808263,0.0030,0.0036,-0.0024,0.0015,0.0055,0.0008,45.8438,13.2563,6.9563,
0.828631,0.0030,0.0036,-0.0024,-0.0045,-0.0012,-0.0009,45.8438,13.2563,6.9563,
0.848952,0.0030,0.0036,-0.0024,-0.0045,-0.0012,-0.0009,45.8438,13.2563,6.9563,
0.851207,0.0030,0.0036,-0.0024,-0.0045,-0.0012,-0.0009,46.0500,13.4250,6.8438,
0.869551,0.0084,0.0049,0.0070,-0.0045,-0.0012,-0.0009,46.0500,13.4250,6.8438,
0.889724,0.0084,0.0049,0.0070,-0.0049,-0.0041,0.0004,46.0500,13.4250,6.8438,
0.910067,0.0084,0.0049,0.0070,-0.0049,-0.0041,0.0004,46.0500,13.4250,6.8438,
0.910575,0.0084,0.0049,0.0070,-0.0049,-0.0041,0.0004,46.1063,13.4625,6.6938,
0.951032,0.0084,0.0049,0.0070,-0.0120,0.0001,0.0029,46.1063,13.4625,6.6938,
0.952460,-0.0066,0.0009,0.0005,-0.0120,0.0001,0.0029,46.1063,13.4625,6.6938,
0.972295,-0.0066,0.0009,0.0005,-0.0120,0.0001,0.0029,46.0500,13.3688,6.7313,
0.973657,-0.0066,0.0009,0.0005,-0.0120,0.0001,0.0029,46.0500,13.3688,6.7313,
1.011874,-0.0066,0.0009,0.0005,-0.0045,-0.0063,-0.0007,46.0500,13.3688,6.7313,
1.013115,0.0158,0.0107,0.0080,-0.0045,-0.0063,-0.0007,46.0500,13.3688,6.7313,
1.032902,0.0158,0.0107,0.0080,-0.0045,-0.0063,-0.0007,46.0688,13.5188,6.7875,
1.033356,0.0158,0.0107,0.0080,-0.0045,-0.0063,-0.0007,46.0688,13.5188,6.7875,
1.073994,0.0158,0.0107,0.0080,-0.0013,0.0095,0.0132,46.0688,13.5188,6.7875,
1.074453,0.0195,-0.0068,-0.0080,-0.0013,0.0095,0.0132,46.0688,13.5188,6.7875,
1.091665,0.0195,-0.0068,-0.0080,-0.0013,0.0095,0.0132,46.0312,13.4250,6.9563,
1.093077,0.0195,-0.0068,-0.0080,-0.0013,0.0095,0.0132,46.0312,13.4250,6.9563,
1.133104,0.0195,-0.0068,-0.0080,-0.0035,-0.0027,0.0025,46.0312,13.4250,6.9563,
1.155168,0.0195,-0.0068,-0.0080,-0.0035,-0.0027,0.0025,46.0312,13.4250,6.9563,
1.156179,-0.0285,-0.0101,0.0006,-0.0035,-0.0027,0.0025,46.0312,13.4250,6.9563,
1.156795,-0.0285,-0.0101,0.0006,-0.0035,-0.0027,0.0025,46.0688,13.3500,7.2188,
1.194072,-0.0285,-0.0101,0.0006,0.0029,-0.0001,0.0136,46.0688,13.3500,7.2188,
1.211644,-0.0285,-0.0101,0.0006,0.0029,-0.0001,0.0136,45.9375,13.0125,7.3875,
1.216424,0.0483,-0.0112,-0.0121,0.0029,-0.0001,0.0136,45.9375,13.0125,7.3875,
1.216833,0.0483,-0.0112,-0.0121,0.0029,-0.0001,0.0136,45.9375,13.0125,7.3875,
1.255302,0.0483,-0.0112,-0.0121,0.0057,0.0055,0.0172,45.9375,13.0125,7.3875,
1.271792,0.0483,-0.0112,-0.0121,0.0057,0.0055,0.0172,45.9188,12.7688,7.5938,
1.275753,0.0483,-0.0112,-0.0121,0.0057,0.0055,0.0172,45.9188,12.7688,7.5938,
1.276645,0.0125,0.0061,-0.0139,0.0057,0.0055,0.0172,45.9188,12.7688,7.5938,
1.317404,0.0125,0.0061,-0.0139,0.0036,0.0076,0.0238,45.9188,12.7688,7.5938,
1.333138,0.0125,0.0061,-0.0139,0.0036,0.0076,0.0238,45.8813,12.6375,7.8563,
1.337055,0.0125,0.0061,-0.0139,0.0036,0.0076,0.0238,45.8813,12.6375,7.8563,
1.337491,0.0191,0.0015,-0.0131,0.0036,0.0076,0.0238,45.8813,12.6375,7.8563,
1.377742,0.0191,0.0015,-0.0131,-0.0116,-0.0041,0.0210,45.8813,12.6375,7.8563,
1.392060,0.0191,0.0015,-0.0131,-0.0116,-0.0041,0.0210,45.8625,12.4688,8.0438,
1.399511,0.0191,0.0015,-0.0131,-0.0116,-0.0041,0.0210,45.8625,12.4688,8.0438,
1.417940,0.0073,0.0179,0.0186,-0.0116,-0.0041,0.0210,45.8625,12.4688,8.0438,
1.438703,0.0073,0.0179,0.0186,-0.0013,-0.0055,0.0281,45.8625,12.4688,8.0438,
1.452643,0.0073,0.0179,0.0186,-0.0013,-0.0055,0.0281,45.9938,12.3750,8.2688,
1.458360,0.0073,0.0179,0.0186,-0.0013,-0.0055,0.0281,45.9938,12.3750,8.2688,
1.478658,0.0180,-0.0064,-0.0176,-0.0013,-0.0055,0.0281,45.9938,12.3750,8.2688,
1.498915,0.0180,-0.0064,-0.0176,-0.0020,-0.0027,0.0285,45.9938,12.3750,8.2688,
1.511198,0.0180,-0.0064,-0.0176,-0.0020,-0.0027,0.0285,46.0875,12.3375,8.4375,
1.518567,0.0180,-0.0064,-0.0176,-0.0020,-0.0027,0.0285,46.0875,12.3375,8.4375,
1.539344,0.0024,0.0023,-0.0057,-0.0020,-0.0027,0.0285,46.0875,12.3375,8.4375,
1.560018,0.0024,0.0023,-0.0057,-0.0156,-0.0201,0.0189,46.0875,12.3375,8.4375,
1.571997,0.0024,0.0023,-0.0057,-0.0156,-0.0201,0.0189,46.1063,12.1500,8.4188,
1.580259,0.0024,0.0023,-0.0057,-0.0156,-0.0201,0.0189,46.1063,12.1500,8.4188,
1.621307,0.0024,0.0023,-0.0057,0.0217,0.0041,0.0242,46.1063,12.1500,8.4188,
1.622513,-0.0422,0.0107,0.0189,0.0217,0.0041,0.0242,46.1063,12.1500,8.4188,
1.633255,-0.0422,0.0107,0.0189,0.0217,0.0041,0.0242,46.1813,12.0000,8.4563,
1.642203,-0.0422,0.0107,0.0189,0.0217,0.0041,0.0242,46.1813,12.0000,8.4563,
1.683245,0.0715,-0.0264,-0.0683,0.0217,0.0041,0.0242,46.1813,12.0000,8.4563,
1.684586,0.0715,-0.0264,-0.0683,0.0174,-0.0076,0.0089,46.1813,12.0000,8.4563,
1.692535,0.0715,-0.0264,-0.0683,0.0174,-0.0076,0.0089,46.5000,12.0750,8.7375,
1.702622,0.0715,-0.0264,-0.0683,0.0174,-0.0076,0.0089,46.5000,12.0750,8.7375,
1.743508,0.0715,-0.0264,-0.0683,-0.0009,-0.0197,0.0001,46.5000,12.0750,8.7375,
1.744685,-0.0815,0.0133,0.0028,-0.0009,-0.0197,0.0001,46.5000,12.0750,8.7375,
1.751983,-0.0815,0.0133,0.0028,-0.0009,-0.0197,0.0001,46.7063,12.0000,8.8875,
1.763236,-0.0815,0.0133,0.0028,-0.0009,-0.0197,0.0001,46.7063,12.0000,8.8875,
1.805508,-0.0815,0.0133,0.0028,-0.0134,-0.0638,0.0012,46.7063,12.0000,8.8875,
1.807270,-0.0052,0.0073,0.0019,-0.0134,-0.0638,0.0012,46.7063,12.0000,8.8875,
1.812919,-0.0052,0.0073,0.0019,-0.0134,-0.0638,0.0012,46.8000,11.7563,9.0375,
1.824683,-0.0052,0.0073,0.0019,-0.0134,-0.0638,0.0012,46.8000,11.7563,9.0375,
1.866630,-0.0052,0.0073,0.0019,-0.0542,-0.1056,0.0065,46.8000,11.7563,9.0375,
1.872745,-0.0052,0.0073,0.0019,-0.0542,-0.1056,0.0065,46.9125,11.7000,9.0750,
1.885167,-0.0052,0.0073,0.0019,-0.0542,-0.1056,0.0065,46.9125,11.7000,9.0750,
1.886112,0.1169,0.0409,0.1039,-0.0542,-0.1056,0.0065,46.9125,11.7000,9.0750,
1.926519,0.1169,0.0409,0.1039,0.0519,0.0140,-0.0152,46.9125,11.7000,9.0750,
1.933935,0.1169,0.0409,0.1039,0.0519,0.0140,-0.0152,46.9125,11.6438,8.8688,
1.946052,0.1169,0.0409,0.1039,0.0519,0.0140,-0.0152,46.9125,11.6438,8.8688,
1.946713,-0.0834,-0.0490,-0.0037,0.0519,0.0140,-0.0152,46.9125,11.6438,8.8688,
1.987514,-0.0834,-0.0490,-0.0037,0.0658,0.1507,0.0238,46.9125,11.6438,8.8688,
1.992243,-0.0834,-0.0490,-0.0037,0.0658,0.1507,0.0238,46.8000,11.3625,8.7938,
2.008103,-0.0834,-0.0490,-0.0037,0.0658,0.1507,0.0238,46.8000,11.3625,8.7938,
2.008776,0.1414,-0.0265,-0.1177,0.0658,0.1507,0.0238,46.8000,11.3625,8.7938,
2.048223,0.1414,-0.0265,-0.1177,0.1001,0.0826,-0.0489,46.8000,11.3625,8.7938,
2.052710,0.1414,-0.0265,-0.1177,0.1001,0.0826,-0.0489,46.9500,11.3063,9.0938,
2.068981,0.1414,-0.0265,-0.1177,0.1001,0.0826,-0.0489,46.9500,11.3063,9.0938,
2.088635,-0.2847,-0.0000,-0.2254,0.1001,0.0826,-0.0489,46.9500,11.3063,9.0938,
2.109802,-0.2847,-0.0000,-0.2254,0.1787,0.2788,-0.1007,46.9500,11.3063,9.0938,
2.112536,-0.2847,-0.0000,-0.2254,0.1787,0.2788,-0.1007,46.9125,11.2313,9.2625,
2.129892,-0.2847,-0.0000,-0.2254,0.1787,0.2788,-0.1007,46.9125,11.2313,9.2625,
2.150109,-0.2306,-0.1985,-0.0038,0.1787,0.2788,-0.1007,46.9125,11.2313,9.2625,
2.169460,-0.2306,-0.1985,-0.0038,0.2035,0.0943,-0.0666,46.9125,11.2313,9.2625,
2.171363,-0.2306,-0.1985,-0.0038,0.2035,0.0943,-0.0666,46.7250,11.1750,9.2625,
2.189092,-0.2306,-0.1985,-0.0038,0.2035,0.0943,-0.0666,46.7250,11.1750,9.2625,
2.209454,0.1125,0.1151,-0.2015,0.2035,0.0943,-0.0666,46.7250,11.1750,9.2625,
2.229775,0.1125,0.1151,-0.2015,0.2273,0.2330,-0.0105,46.7250,11.1750,9.2625,
2.231078,0.1125,0.1151,-0.2015,0.2273,0.2330,-0.0105,46.4625,11.3625,9.2812,
2.251488,0.1125,0.1151,-0.2015,0.2273,0.2330,-0.0105,46.4625,11.3625,9.2812,
2.271250,0.0842,0.0444,-0.0939,0.2273,0.2330,-0.0105,46.4625,11.3625,9.2812,
2.291954,0.0842,0.0444,-0.0939,0.1740,0.1177,-0.0071,46.4625,11.3625,9.2812,
2.293680,0.0842,0.0444,-0.0939,0.1740,0.1177,-0.0071,46.2563,11.4938,9.5250,
2.312825,0.0842,0.0444,-0.0939,0.1740,0.1177,-0.0071,46.2563,11.4938,9.5250,
2.354214,0.0842,0.0444,-0.0939,0.1740,0.1177,-0.0071,46.0875,11.6625,9.8813,
2.356678,0.0842,0.0444,-0.0939,0.1406,0.0310,-0.0166,46.0875,11.6625,9.8813,
2.357688,0.0523,0.0853,-0.0786,0.1406,0.0310,-0.0166,46.0875,11.6625,9.8813,
2.374069,0.0523,0.0853,-0.0786,0.1406,0.0310,-0.0166,46.0875,11.6625,9.8813,
2.413037,-0.1565,0.0463,0.0288,0.1406,0.0310,-0.0166,46.0875,11.6625,9.8813,
2.414492,-0.1565,0.0463,0.0288,0.1261,0.0453,-0.0039,46.0875,11.6625,9.8813,
2.415690,-0.1565,0.0463,0.0288,0.1261,0.0453,-0.0039,45.9938,11.8875,10.2938,
2.435371,-0.1565,0.0463,0.0288,0.1261,0.0453,-0.0039,45.9938,11.8875,10.2938,
2.474363,-0.1565,0.0463,0.0288,0.0928,0.0499,0.0182,45.9938,11.8875,10.2938,
2.475304,-0.1565,0.0463,0.0288,0.0928,0.0499,0.0182,46.0125,12.1688,10.8375,
2.476411,0.1088,0.0110,0.0618,0.0928,0.0499,0.0182,46.0125,12.1688,10.8375,
2.498700,0.1088,0.0110,0.0618,0.0928,0.0499,0.0182,46.0125,12.1688,10.8375,
2.540489,0.1088,0.0110,0.0618,0.0928,0.0499,0.0182,45.8063,12.5438,10.8188,
2.541987,0.1088,0.0110,0.0618,0.0441,0.1188,-0.0003,45.8063,12.5438,10.8188,
2.557069,0.1088,0.0110,0.0618,0.0441,0.1188,-0.0003,45.8063,12.5438,10.8188,
2.557678,-0.0072,0.0518,0.1407,0.0441,0.1188,-0.0003,45.8063,12.5438,10.8188,
2.598924,-0.0072,0.0518,0.1407,0.0441,0.1188,-0.0003,45.7875,12.8625,10.9500,
2.600278,-0.0072,0.0518,0.1407,-0.0088,0.0037,-0.0269,45.7875,12.8625,10.9500,
2.615766,-0.0072,0.0518,0.1407,-0.0088,0.0037,-0.0269,45.7875,12.8625,10.9500,
2.616572,-0.1232,0.0474,0.1313,-0.0088,0.0037,-0.0269,45.7875,12.8625,10.9500,
2.658067,-0.1232,0.0474,0.1313,-0.0088,0.0037,-0.0269,45.7313,12.9750,11.2125,
2.660804,-0.1232,0.0474,0.1313,-0.0489,0.0368,-0.0410,45.7313,12.9750,11.2125,
2.682652,-0.1232,0.0474,0.1313,-0.0489,0.0368,-0.0410,45.7313,12.9750,11.2125,
2.684482,0.0548,-0.0309,0.1149,-0.0489,0.0368,-0.0410,45.7313,12.9750,11.2125,
2.715658,0.0548,-0.0309,0.1149,-0.0489,0.0368,-0.0410,45.8063,12.9563,11.6250,
2.718688,0.0548,-0.0309,0.1149,-0.0656,0.0240,-0.0308,45.8063,12.9563,11.6250,
2.741990,0.0548,-0.0309,0.1149,-0.0656,0.0240,-0.0308,45.8063,12.9563,11.6250,
2.743090,0.0006,0.0336,0.0329,-0.0656,0.0240,-0.0308,45.8063,12.9563,11.6250,
2.774969,0.0006,0.0336,0.0329,-0.0656,0.0240,-0.0308,45.7688,13.0125,11.6063,
2.782834,0.0006,0.0336,0.0329,-0.0759,-0.0489,-0.0574,45.7688,13.0125,11.6063,
2.800145,0.0006,0.0336,0.0329,-0.0759,-0.0489,-0.0574,45.7688,13.0125,11.6063,
2.825685,-0.1646,0.0597,0.1870,-0.0759,-0.0489,-0.0574,45.7688,13.0125,11.6063,
2.832792,-0.1646,0.0597,0.1870,-0.0759,-0.0489,-0.0574,45.9188,13.0313,11.7000,
2.841188,-0.1646,0.0597,0.1870,-0.0067,-0.1386,-0.0563,45.9188,13.0313,11.7000,
2.866521,-0.1646,0.0597,0.1870,-0.0067,-0.1386,-0.0563,45.9188,13.0313,11.7000,
2.882757,-0.0938,-0.0645,-0.1331,-0.0067,-0.1386,-0.0563,45.9188,13.0313,11.7000,
2.899658,-0.0938,-0.0645,-0.1331,-0.0067,-0.1386,-0.0563,46.0312,13.0313,11.7000,
2.901157,-0.0938,-0.0645,-0.1331,0.3121,-0.3495,0.0076,46.0312,13.0313,11.7000,
2.924841,-0.0938,-0.0645,-0.1331,0.3121,-0.3495,0.0076,46.0312,13.0313,11.7000,
2.940890,-0.0426,-0.0153,-0.1508,0.3121,-0.3495,0.0076,46.0312,13.0313,11.7000,
2.957685,-0.0426,-0.0153,-0.1508,0.3121,-0.3495,0.0076,45.9000,13.1250,11.2875,
2.966326,-0.0426,-0.0153,-0.1508,0.5230,-0.0399,0.1662,45.9000,13.1250,11.2875,
2.982911,-0.0426,-0.0153,-0.1508,0.5230,-0.0399,0.1662,45.9000,13.1250,11.2875,
3.016545,-0.0426,-0.0153,-0.1508,0.5230,-0.0399,0.1662,46.0312,13.0875,11.2125,
3.024732,-0.0426,-0.0153,-0.1508,0.6068,-0.1567,0.2373,46.0312,13.0875,11.2125,
3.026053,0.8597,-0.3640,-0.8881,0.6068,-0.1567,0.2373,46.0312,13.0875,11.2125,
3.049805,0.8597,-0.3640,-0.8881,0.6068,-0.1567,0.2373,46.0312,13.0875,11.2125,
3.074629,0.8597,-0.3640,-0.8881,0.6068,-0.1567,0.2373,46.1625,13.0125,10.8938,
3.091304,0.1278,0.0084,-0.5177,0.6068,-0.1567,0.2373,46.1625,13.0125,10.8938,
3.092571,0.1278,0.0084,-0.5177,0.5902,-0.1457,0.3700,46.1625,13.0125,10.8938,
3.108178,0.1278,0.0084,-0.5177,0.5902,-0.1457,0.3700,46.1625,13.0125,10.8938,
3.133681,0.1278,0.0084,-0.5177,0.5902,-0.1457,0.3700,46.3125,13.0500,10.3875,
3.149485,0.1278,0.0084,-0.5177,0.8904,-0.6306,0.3093,46.3125,13.0500,10.3875,
3.150662,-0.2261,-0.2343,-0.9068,0.8904,-0.6306,0.3093,46.3125,13.0500,10.3875,
3.166047,-0.2261,-0.2343,-0.9068,0.8904,-0.6306,0.3093,46.3125,13.0500,10.3875,
3.199850,-0.2261,-0.2343,-0.9068,0.8904,-0.6306,0.3093,46.4250,12.9938,9.3375,
3.208797,-0.2261,-0.2343,-0.9068,1.3125,-0.5017,0.3750,46.4250,12.9938,9.3375,
3.210417,0.0809,0.3018,-0.0752,1.3125,-0.5017,0.3750,46.4250,12.9938,9.3375,
3.232735,0.0809,0.3018,-0.0752,1.3125,-0.5017,0.3750,46.4250,12.9938,9.3375,
3.258263,0.0809,0.3018,-0.0752,1.3125,-0.5017,0.3750,46.7250,12.9938,8.2875,
3.267898,0.0809,0.3018,-0.0752,1.8201,-0.1855,0.5720,46.7250,12.9938,8.2875,
3.291107,0.6102,-0.4751,-1.0077,1.8201,-0.1855,0.5720,46.7250,12.9938,8.2875,
3.292616,0.6102,-0.4751,-1.0077,1.8201,-0.1855,0.5720,46.7250,12.9938,8.2875,
3.316665,0.6102,-0.4751,-1.0077,1.8201,-0.1855,0.5720,46.7250,12.8063,6.6563,
3.333780,0.6102,-0.4751,-1.0077,2.5301,-0.7258,0.5350,46.7250,12.8063,6.6563,
3.349940,0.6102,-0.4751,-1.0077,2.5301,-0.7258,0.5350,46.7250,12.8063,6.6563,
3.351194,0.0984,0.1566,-1.2119,2.5301,-0.7258,0.5350,46.7250,12.8063,6.6563,
3.372956,0.0984,0.1566,-1.2119,2.5301,-0.7258,0.5350,46.8188,12.3938,4.8938,
3.387137,0.0984,0.1566,-1.2119,3.0300,-0.1870,0.6611,46.8188,12.3938,4.8938,
3.407938,0.0984,0.1566,-1.2119,3.0300,-0.1870,0.6611,46.8188,12.3938,4.8938,
3.409677,0.1999,-0.9542,-2.2230,3.0300,-0.1870,0.6611,46.8188,12.3938,4.8938,
3.431606,0.1999,-0.9542,-2.2230,3.0300,-0.1870,0.6611,47.1000,11.7750,3.0563,
3.448443,0.1999,-0.9542,-2.2230,3.5199,0.6573,1.1088,47.1000,11.7750,3.0563,
3.469395,0.1999,-0.9542,-2.2230,3.5199,0.6573,1.1088,47.1000,11.7750,3.0563,
3.489849,1.8721,-2.7646,-1.9305,3.5199,0.6573,1.1088,47.1000,11.7750,3.0563,
3.494021,1.8721,-2.7646,-1.9305,3.5199,0.6573,1.1088,47.4375,10.6500,1.3875,
3.509637,1.8721,-2.7646,-1.9305,4.1593,0.8497,1.6914,47.4375,10.6500,1.3875,
3.530933,1.8721,-2.7646,-1.9305,4.1593,0.8497,1.6914,47.4375,10.6500,1.3875,
3.550730,0.4040,0.6234,-2.5463,4.1593,0.8497,1.6914,47.4375,10.6500,1.3875,
3.552470,0.4040,0.6234,-2.5463,4.1593,0.8497,1.6914,47.7375,9.2625,-0.0938,
3.570478,0.4040,0.6234,-2.5463,2.9516,0.1883,0.9547,47.7375,9.2625,-0.0938,
3.590199,0.4040,0.6234,-2.5463,2.9516,0.1883,0.9547,47.7375,9.2625,-0.0938,
3.611077,1.9092,-3.1521,5.7482,2.9516,0.1883,0.9547,47.7375,9.2625,-0.0938,
3.611926,1.9092,-3.1521,5.7482,2.9516,0.1883,0.9547,47.9813,7.4813,-0.6562,
3.631857,1.9092,-3.1521,5.7482,-0.7770,4.8477,2.9914,47.9813,7.4813,-0.6562,
3.652523,1.9092,-3.1521,5.7482,-0.7770,4.8477,2.9914,47.9813,7.4813,-0.6562,
3.673384,1.9092,-3.1521,5.7482,-0.7770,4.8477,2.9914,47.0250,4.0125,1.1438,
3.675526,-3.5638,1.7291,4.0361,-0.7770,4.8477,2.9914,47.0250,4.0125,1.1438,
3.693689,-3.5638,1.7291,4.0361,2.9405,5.3198,7.7732,47.0250,4.0125,1.1438,
3.711837,-3.5638,1.7291,4.0361,2.9405,5.3198,7.7732,47.0250,4.0125,1.1438,
3.734301,-3.5638,1.7291,4.0361,2.9405,5.3198,7.7732,44.4000,-0.4500,4.9875,
3.752816,-3.5638,1.7291,4.0361,4.5938,5.2450,3.9160,44.4000,-0.4500,4.9875,
3.754196,-1.8538,-12.3518,4.9443,4.5938,5.2450,3.9160,44.4000,-0.4500,4.9875,
3.772659,-1.8538,-12.3518,4.9443,4.5938,5.2450,3.9160,44.4000,-0.4500,4.9875,
3.792759,-1.8538,-12.3518,4.9443,4.5938,5.2450,3.9160,40.1063,-3.6750,10.4250,
3.814337,-1.8538,-12.3518,4.9443,1.9384,3.9304,0.1088,40.1063,-3.6750,10.4250,
3.816136,0.0973,-2.1560,3.6385,1.9384,3.9304,0.1088,40.1063,-3.6750,10.4250,
3.834643,0.0973,-2.1560,3.6385,1.9384,3.9304,0.1088,40.1063,-3.6750,10.4250,
3.853326,0.0973,-2.1560,3.6385,1.9384,3.9304,0.1088,34.7250,-5.7750,16.3688,
3.875301,0.0973,-2.1560,3.6385,0.4112,1.6438,-2.1799,34.7250,-5.7750,16.3688,
3.877107,8.2409,3.0146,1.4442,0.4112,1.6438,-2.1799,34.7250,-5.7750,16.3688,
3.894876,8.2409,3.0146,1.4442,0.4112,1.6438,-2.1799,34.7250,-5.7750,16.3688,
3.911427,8.2409,3.0146,1.4442,0.4112,1.6438,-2.1799,29.1188,-7.7063,22.6125,
3.936163,8.2409,3.0146,1.4442,-0.8988,-1.5838,-1.8952,29.1188,-7.7063,22.6125,
3.938023,7.6192,3.0562,0.5929,-0.8988,-1.5838,-1.8952,29.1188,-7.7063,22.6125,
3.956289,7.6192,3.0562,0.5929,-0.8988,-1.5838,-1.8952,29.1188,-7.7063,22.6125,
3.973035,7.6192,3.0562,0.5929,-0.8988,-1.5838,-1.8952,23.9438,-9.3563,28.6313,
3.996991,7.6192,3.0562,0.5929,-0.0876,-0.8966,-2.6361,23.9438,-9.3563,28.6313,
4.018127,7.9517,1.7958,-0.9049,-0.0876,-0.8966,-2.6361,23.9438,-9.3563,28.6313,
4.019921,7.9517,1.7958,-0.9049,-0.0876,-0.8966,-2.6361,23.9438,-9.3563,28.6313,
4.032663,7.9517,1.7958,-0.9049,-0.0876,-0.8966,-2.6361,19.1813,-10.4625,34.4813,
4.057813,7.9517,1.7958,-0.9049,0.0750,-0.4318,-1.7976,19.1813,-10.4625,34.4813,
4.078961,7.9517,1.7958,-0.9049,0.0750,-0.4318,-1.7976,19.1813,-10.4625,34.4813,
4.080078,6.6735,1.9552,0.2622,0.0750,-0.4318,-1.7976,19.1813,-10.4625,34.4813,
4.092704,6.6735,1.9552,0.2622,0.0750,-0.4318,-1.7976,15.0188,-11.1000,39.5813,
4.118149,6.6735,1.9552,0.2622,-0.2913,-0.2160,0.0040,15.0188,-11.1000,39.5813,
4.138576,6.6735,1.9552,0.2622,-0.2913,-0.2160,0.0040,15.0188,-11.1000,39.5813,
4.139602,3.2614,2.6713,-1.6274,-0.2913,-0.2160,0.0040,15.0188,-11.1000,39.5813,
4.152521,3.2614,2.6713,-1.6274,-0.2913,-0.2160,0.0040,11.7750,-10.0312,42.8250,
4.180202,3.2614,2.6713,-1.6274,-0.1720,0.8976,1.8084,11.7750,-10.0312,42.8250,
4.199772,3.2614,2.6713,-1.6274,-0.1720,0.8976,1.8084,11.7750,-10.0312,42.8250,
4.212150,3.2614,2.6713,-1.6274,-0.1720,0.8976,1.8084,10.3313,-8.5125,44.2688,
4.224922,1.7836,2.1132,-1.8153,-0.1720,0.8976,1.8084,10.3313,-8.5125,44.2688,
4.239632,1.7836,2.1132,-1.8153,0.5135,-0.6843,-5.8667,10.3313,-8.5125,44.2688,
4.261307,1.7836,2.1132,-1.8153,0.5135,-0.6843,-5.8667,10.3313,-8.5125,44.2688,
4.272831,1.7836,2.1132,-1.8153,0.5135,-0.6843,-5.8667,11.2688,-7.0875,44.3063,
4.281093,-24.0379,7.5428,1.8690,0.5135,-0.6843,-5.8667,11.2688,-7.0875,44.3063,
4.300547,-24.0379,7.5428,1.8690,-1.2698,-4.7681,-3.1090,11.2688,-7.0875,44.3063,
4.320917,-24.0379,7.5428,1.8690,-1.2698,-4.7681,-3.1090,11.2688,-7.0875,44.3063,
4.332139,-24.0379,7.5428,1.8690,-1.2698,-4.7681,-3.1090,14.2313,-6.3563,43.5000,
4.340902,4.9439,-1.3668,-4.5946,-1.2698,-4.7681,-3.1090,14.2313,-6.3563,43.5000,
4.361298,4.9439,-1.3668,-4.5946,1.2834,1.3815,2.4602,14.2313,-6.3563,43.5000,
4.381757,4.9439,-1.3668,-4.5946,1.2834,1.3815,2.4602,14.2313,-6.3563,43.5000,
4.391557,4.9439,-1.3668,-4.5946,1.2834,1.3815,2.4602,17.0250,-6.0375,43.0125,
4.402127,-1.9052,-4.1805,2.6433,1.2834,1.3815,2.4602,17.0250,-6.0375,43.0125,
4.422308,-1.9052,-4.1805,2.6433,-0.6872,1.2121,3.3914,17.0250,-6.0375,43.0125,
4.442685,-1.9052,-4.1805,2.6433,-0.6872,1.2121,3.3914,17.0250,-6.0375,43.0125,
4.453210,-1.9052,-4.1805,2.6433,-0.6872,1.2121,3.3914,18.6750,-6.0563,42.3750,
4.485061,-1.9052,-4.1805,2.6433,0.7981,0.3517,-1.0518,18.6750,-6.0563,42.3750,
4.487717,-1.4592,-4.4142,-0.6359,0.7981,0.3517,-1.0518,18.6750,-6.0563,42.3750,
4.505532,-1.4592,-4.4142,-0.6359,0.7981,0.3517,-1.0518,18.6750,-6.0563,42.3750,
4.512054,-1.4592,-4.4142,-0.6359,0.7981,0.3517,-1.0518,19.7250,-6.1125,42.3000,
4.545650,-1.4592,-4.4142,-0.6359,-0.2566,0.6040,0.6633,19.7250,-6.1125,42.3000,
4.547404,0.5489,2.1572,-0.3195,-0.2566,0.6040,0.6633,19.7250,-6.1125,42.3000,
4.565265,0.5489,2.1572,-0.3195,-0.2566,0.6040,0.6633,19.7250,-6.1125,42.3000,
4.572900,0.5489,2.1572,-0.3195,-0.2566,0.6040,0.6633,20.2125,-6.4500,42.2625,
4.607584,0.5489,2.1572,-0.3195,0.0342,0.3949,0.1137,20.2125,-6.4500,42.2625,
4.610920,-1.4430,-0.7583,-1.0612,0.0342,0.3949,0.1137,20.2125,-6.4500,42.2625,
4.626863,-1.4430,-0.7583,-1.0612,0.0342,0.3949,0.1137,20.2125,-6.4500,42.2625,
4.632923,-1.4430,-0.7583,-1.0612,0.0342,0.3949,0.1137,20.7750,-6.7125,42.3000,
4.668997,-1.4430,-0.7583,-1.0612,0.0459,0.6462,0.0204,20.7750,-6.7125,42.3000,
4.686674,-1.4430,-0.7583,-1.0612,0.0459,0.6462,0.0204,20.7750,-6.7125,42.3000,
4.687631,-0.1670,0.3332,0.4259,0.0459,0.6462,0.0204,20.7750,-6.7125,42.3000,
4.692521,-0.1670,0.3332,0.4259,0.0459,0.6462,0.0204,21.1500,-6.8250,42.3563,
4.729750,-0.1670,0.3332,0.4259,0.0292,0.1595,-0.0322,21.1500,-6.8250,42.3563,
4.749749,-0.2629,0.3213,-0.7093,0.0292,0.1595,-0.0322,21.1500,-6.8250,42.3563,
4.753254,-0.2629,0.3213,-0.7093,0.0292,0.1595,-0.0322,21.1500,-6.8250,42.3563,
4.753910,-0.2629,0.3213,-0.7093,0.0292,0.1595,-0.0322,20.6813,-7.6688,42.5438,
4.789156,-0.2629,0.3213,-0.7093,0.0065,-0.0768,-0.0655,20.6813,-7.6688,42.5438,
4.809802,-0.1708,0.2912,-0.6047,0.0065,-0.0768,-0.0655,20.6813,-7.6688,42.5438,
4.811784,-0.1708,0.2912,-0.6047,0.0065,-0.0768,-0.0655,20.6813,-7.6688,42.5438,
4.812293,-0.1708,0.2912,-0.6047,0.0065,-0.0768,-0.0655,19.3500,-8.3250,43.3875,
4.850833,-0.1708,0.2912,-0.6047,-0.0071,-0.1507,-0.0060,19.3500,-8.3250,43.3875,
4.872769,-0.4780,0.0935,-0.5695,-0.0071,-0.1507,-0.0060,19.3500,-8.3250,43.3875,
4.874608,-0.4780,0.0935,-0.5695,-0.0071,-0.1507,-0.0060,18.3563,-8.7375,44.0625,
4.875399,-0.4780,0.0935,-0.5695,-0.0071,-0.1507,-0.0060,18.3563,-8.7375,44.0625,
4.911096,-0.4780,0.0935,-0.5695,-0.0152,-0.2388,0.0515,18.3563,-8.7375,44.0625,
4.932471,-0.4780,0.0935,-0.5695,-0.0152,-0.2388,0.0515,18.3563,-8.7375,44.0625,
4.935557,-0.4780,0.0935,-0.5695,-0.0152,-0.2388,0.0515,18.0563,-8.6250,44.7750,
4.952098,-0.2790,0.0275,-0.5484,-0.0152,-0.2388,0.0515,18.0563,-8.6250,44.7750,
4.972001,-0.2790,0.0275,-0.5484,-0.0060,-0.0414,0.0434,18.0563,-8.6250,44.7750,
4.997077,-0.2790,0.0275,-0.5484,-0.0060,-0.0414,0.0434,18.0563,-8.6250,44.7750,
4.998232,-0.2790,0.0275,-0.5484,-0.0060,-0.0414,0.0434,17.7938,-8.4938,44.8688,
5.013884,-0.1803,0.1047,-0.1671,-0.0060,-0.0414,0.0434,17.7938,-8.4938,44.8688,
5.034610,-0.1803,0.1047,-0.1671,0.0047,0.1407,0.0089,17.7938,-8.4938,44.8688,
5.054098,-0.1803,0.1047,-0.1671,0.0047,0.1407,0.0089,17.6438,-8.3250,45.0375,
5.055442,-0.1803,0.1047,-0.1671,0.0047,0.1407,0.0089,17.6438,-8.3250,45.0375,
5.075109,-0.1633,0.1103,-0.0870,0.0047,0.1407,0.0089,17.6438,-8.3250,45.0375,
5.094144,-0.1633,0.1103,-0.0870,0.0055,0.1137,0.0242,17.6438,-8.3250,45.0375,
5.114380,-0.1633,0.1103,-0.0870,0.0055,0.1137,0.0242,17.5312,-8.2875,45.2250,
5.117312,-0.1633,0.1103,-0.0870,0.0055,0.1137,0.0242,17.5312,-8.2875,45.2250,
5.155535,-0.1633,0.1103,-0.0870,-0.0162,-0.1755,0.0679,17.5312,-8.2875,45.2250,
5.158136,-0.2174,0.0720,-0.2027,-0.0162,-0.1755,0.0679,17.5312,-8.2875,45.2250,
5.174410,-0.2174,0.0720,-0.2027,-0.0162,-0.1755,0.0679,17.5312,-8.2875,45.2250,
5.177411,-0.2174,0.0720,-0.2027,-0.0162,-0.1755,0.0679,17.6063,-8.3625,45.0938,
5.215619,-0.2174,0.0720,-0.2027,-0.0446,-0.4442,0.0949,17.6063,-8.3625,45.0938,
5.217141,-0.2573,0.0143,-0.6633,-0.0446,-0.4442,0.0949,17.6063,-8.3625,45.0938,
5.233374,-0.2573,0.0143,-0.6633,-0.0446,-0.4442,0.0949,17.8875,-8.2313,44.8500,
5.235576,-0.2573,0.0143,-0.6633,-0.0446,-0.4442,0.0949,17.8875,-8.2313,44.8500,
5.275723,-0.2573,0.0143,-0.6633,-0.0252,-0.6771,0.0491,17.8875,-8.2313,44.8500,
5.277276,-0.1615,0.0338,-0.6149,-0.0252,-0.6771,0.0491,17.8875,-8.2313,44.8500,
5.292651,-0.1615,0.0338,-0.6149,-0.0252,-0.6771,0.0491,18.1313,-8.3250,44.6813,
5.297536,-0.1615,0.0338,-0.6149,-0.0252,-0.6771,0.0491,18.1313,-8.3250,44.6813,
5.338051,-0.1615,0.0338,-0.6149,-0.0222,-0.3871,0.0065,18.1313,-8.3250,44.6813,
5.341022,-0.0764,0.0877,-0.2823,-0.0222,-0.3871,0.0065,18.1313,-8.3250,44.6813,
5.352802,-0.0764,0.0877,-0.2823,-0.0222,-0.3871,0.0065,18.5625,-8.3438,44.3250,
5.357835,-0.0764,0.0877,-0.2823,-0.0222,-0.3871,0.0065,18.5625,-8.3438,44.3250,
5.398072,-0.0764,0.0877,-0.2823,-0.0145,-0.4152,-0.0071,18.5625,-8.3438,44.3250,
5.414683,-0.0764,0.0877,-0.2823,-0.0145,-0.4152,-0.0071,19.1250,-8.2688,43.9688,
5.418678,-0.0764,0.0877,-0.2823,-0.0145,-0.4152,-0.0071,19.1250,-8.2688,43.9688,
5.422101,-0.0660,0.0926,-0.2589,-0.0145,-0.4152,-0.0071,19.1250,-8.2688,43.9688,
5.461044,-0.0660,0.0926,-0.2589,-0.0344,-0.2245,-0.0574,19.1250,-8.2688,43.9688,
5.473406,-0.0660,0.0926,-0.2589,-0.0344,-0.2245,-0.0574,19.7438,-8.5500,43.7812,
5.479754,-0.0660,0.0926,-0.2589,-0.0344,-0.2245,-0.0574,19.7438,-8.5500,43.7812,
5.480516,-0.0857,0.0844,-0.0883,-0.0344,-0.2245,-0.0574,19.7438,-8.5500,43.7812,
5.520210,-0.0857,0.0844,-0.0883,-0.0173,-0.0766,-0.0872,19.7438,-8.5500,43.7812,
5.533319,-0.0857,0.0844,-0.0883,-0.0173,-0.0766,-0.0872,20.4000,-8.6250,43.3125,
5.539552,-0.0857,0.0844,-0.0883,-0.0173,-0.0766,-0.0872,20.4000,-8.6250,43.3125,
5.541415,-0.0590,0.1161,-0.0247,-0.0173,-0.0766,-0.0872,20.4000,-8.6250,43.3125,
5.581324,-0.0590,0.1161,-0.0247,0.0129,0.0521,-0.0559,20.4000,-8.6250,43.3125,
5.592894,-0.0590,0.1161,-0.0247,0.0129,0.0521,-0.0559,21.0938,-8.6250,42.9375,
5.601498,-0.0590,0.1161,-0.0247,0.0129,0.0521,-0.0559,21.0938,-8.6250,42.9375,
5.621269,-0.1083,0.0371,0.0544,0.0129,0.0521,-0.0559,21.0938,-8.6250,42.9375,
5.641501,-0.1083,0.0371,0.0544,0.0577,0.4578,-0.1085,21.0938,-8.6250,42.9375,
5.653482,-0.1083,0.0371,0.0544,0.0577,0.4578,-0.1085,21.6562,-8.5688,42.6750,
5.664671,-0.1083,0.0371,0.0544,0.0577,0.4578,-0.1085,21.6562,-8.5688,42.6750,
5.682603,0.0264,0.1553,0.4748,0.0577,0.4578,-0.1085,21.6562,-8.5688,42.6750,
5.702650,0.0264,0.1553,0.4748,0.1534,0.4252,0.0867,21.6562,-8.5688,42.6750,
5.713877,0.0264,0.1553,0.4748,0.1534,0.4252,0.0867,22.0500,-8.4563,42.6938,
5.723086,0.0264,0.1553,0.4748,0.1534,0.4252,0.0867,22.0500,-8.4563,42.6938,
5.743489,-0.1891,0.1777,0.3384,0.1534,0.4252,0.0867,22.0500,-8.4563,42.6938,
5.763298,-0.1891,0.1777,0.3384,0.0466,-0.0924,0.1212,22.0500,-8.4563,42.6938,
5.772415,-0.1891,0.1777,0.3384,0.0466,-0.0924,0.1212,22.3125,-8.4750,42.5813,
5.784096,-0.1891,0.1777,0.3384,0.0466,-0.0924,0.1212,22.3125,-8.4750,42.5813,
5.803618,-0.1486,0.3429,-0.3007,0.0466,-0.0924,0.1212,22.3125,-8.4750,42.5813,
5.824275,-0.1486,0.3429,-0.3007,0.0835,-0.1135,0.0217,22.3125,-8.4750,42.5813,
5.833318,-0.1486,0.3429,-0.3007,0.0835,-0.1135,0.0217,22.4062,-8.3813,42.5625,
5.844550,-0.1486,0.3429,-0.3007,0.0835,-0.1135,0.0217,22.4062,-8.3813,42.5625,
5.884762,-0.1486,0.3429,-0.3007,0.0662,0.1478,0.0441,22.4062,-8.3813,42.5625,
5.886296,0.1273,-0.0937,-0.3603,0.0662,0.1478,0.0441,22.4062,-8.3813,42.5625,
5.892134,0.1273,-0.0937,-0.3603,0.0662,0.1478,0.0441,22.1813,-8.3813,42.6562,
5.904938,0.1273,-0.0937,-0.3603,0.0662,0.1478,0.0441,22.1813,-8.3813,42.6562,
5.946465,0.1273,-0.0937,-0.3603,0.3221,0.2324,0.1148,22.1813,-8.3813,42.6562,
5.949531,-0.0826,0.2293,0.1910,0.3221,0.2324,0.1148,22.1813,-8.3813,42.6562,
5.953344,-0.0826,0.2293,0.1910,0.3221,0.2324,0.1148,21.8625,-8.1375,42.6375,
5.965527,-0.0826,0.2293,0.1910,0.3221,0.2324,0.1148,21.8625,-8.1375,42.6375,
6.007263,-0.0826,0.2293,0.1910,0.5167,0.8139,0.0168,21.8625,-8.1375,42.6375,
6.010314,-0.0868,-1.1263,0.0943,0.5167,0.8139,0.0168,21.8625,-8.1375,42.6375,
6.011845,-0.0868,-1.1263,0.0943,0.5167,0.8139,0.0168,21.3375,-7.7625,42.8438,
6.026631,-0.0868,-1.1263,0.0943,0.5167,0.8139,0.0168,21.3375,-7.7625,42.8438,
6.067516,-0.0868,-1.1263,0.0943,0.4911,0.1563,-0.1451,21.3375,-7.7625,42.8438,
6.072245,-0.0868,-1.1263,0.0943,0.4911,0.1563,-0.1451,20.7375,-7.2375,42.9563,
6.087700,-0.0868,-1.1263,0.0943,0.4911,0.1563,-0.1451,20.7375,-7.2375,42.9563,
6.089089,0.0289,0.5985,-0.2470,0.4911,0.1563,-0.1451,20.7375,-7.2375,42.9563,
6.128907,0.0289,0.5985,-0.2470,-0.3063,-0.0073,-0.5055,20.7375,-7.2375,42.9563,
6.132255,0.0289,0.5985,-0.2470,-0.3063,-0.0073,-0.5055,20.1375,-6.6563,43.1438,
6.148718,0.0289,0.5985,-0.2470,-0.3063,-0.0073,-0.5055,20.1375,-6.6563,43.1438,
6.150132,0.1311,1.0853,-0.0611,-0.3063,-0.0073,-0.5055,20.1375,-6.6563,43.1438,
6.189690,0.1311,1.0853,-0.0611,-0.6936,-0.6530,-1.0329,20.1375,-6.6563,43.1438,
6.192646,0.1311,1.0853,-0.0611,-0.6936,-0.6530,-1.0329,19.7063,-6.4313,43.1063,
6.209977,0.1311,1.0853,-0.0611,-0.6936,-0.6530,-1.0329,19.7063,-6.4313,43.1063,
6.212256,0.0867,0.6625,-0.4653,-0.6936,-0.6530,-1.0329,19.7063,-6.4313,43.1063,
6.250236,0.0867,0.6625,-0.4653,-0.9052,-1.2224,-1.6291,19.7063,-6.4313,43.1063,
6.253239,0.0867,0.6625,-0.4653,-0.9052,-1.2224,-1.6291,19.6125,-6.2250,42.9563,
6.270565,0.2663,1.1156,-1.0611,-0.9052,-1.2224,-1.6291,19.6125,-6.2250,42.9563,
6.272107,0.2663,1.1156,-1.0611,-0.9052,-1.2224,-1.6291,19.6125,-6.2250,42.9563,
6.311936,0.2663,1.1156,-1.0611,-0.6922,-0.9884,-1.6208,19.6125,-6.2250,42.9563,
6.314922,0.2663,1.1156,-1.0611,-0.6922,-0.9884,-1.6208,19.8750,-6.1500,42.6375,
6.334186,0.2663,1.1156,-1.0611,-0.6922,-0.9884,-1.6208,19.8750,-6.1500,42.6375,
6.355010,-0.3608,-1.2403,-0.3703,-0.6922,-0.9884,-1.6208,19.8750,-6.1500,42.6375,
6.373954,-0.3608,-1.2403,-0.3703,-0.6922,-0.9884,-1.6208,20.5500,-5.9625,42.2625,
6.376392,-0.3608,-1.2403,-0.3703,-0.5012,-0.4446,-1.6325,20.5500,-5.9625,42.2625,
6.394209,-0.3608,-1.2403,-0.3703,-0.5012,-0.4446,-1.6325,20.5500,-5.9625,42.2625,
6.414942,-0.5617,1.3764,0.6741,-0.5012,-0.4446,-1.6325,20.5500,-5.9625,42.2625,
6.435236,-0.5617,1.3764,0.6741,-0.5012,-0.4446,-1.6325,21.5813,-5.5688,41.9438,
6.437128,-0.5617,1.3764,0.6741,0.1840,-0.1844,-1.3237,21.5813,-5.5688,41.9438,
6.453815,-0.5617,1.3764,0.6741,0.1840,-0.1844,-1.3237,21.5813,-5.5688,41.9438,
6.474769,0.1921,0.3823,-0.3180,0.1840,-0.1844,-1.3237,21.5813,-5.5688,41.9438,
6.493984,0.1921,0.3823,-0.3180,0.1840,-0.1844,-1.3237,22.8938,-5.0813,41.3625,
6.495639,0.1921,0.3823,-0.3180,0.0683,-0.1780,-1.4089,22.8938,-5.0813,41.3625,
6.515598,0.1921,0.3823,-0.3180,0.0683,-0.1780,-1.4089,22.8938,-5.0813,41.3625,
6.552924,0.1921,0.3823,-0.3180,0.0683,-0.1780,-1.4089,24.2813,-4.4062,40.8375,
6.555422,0.0435,0.9102,0.1007,0.0683,-0.1780,-1.4089,24.2813,-4.4062,40.8375,
6.556505,0.0435,0.9102,0.1007,0.4300,0.5356,-1.1437,24.2813,-4.4062,40.8375,
6.574908,0.0435,0.9102,0.1007,0.4300,0.5356,-1.1437,24.2813,-4.4062,40.8375,
6.615962,-0.6532,0.0613,0.7472,0.4300,0.5356,-1.1437,24.2813,-4.4062,40.8375,
6.618183,-0.6532,0.0613,0.7472,-0.3957,0.7730,-1.0844,24.2813,-4.4062,40.8375,
6.619428,-0.6532,0.0613,0.7472,-0.3957,0.7730,-1.0844,25.4438,-3.4125,40.2000,
6.637017,-0.6532,0.0613,0.7472,-0.3957,0.7730,-1.0844,25.4438,-3.4125,40.2000,
6.673254,-0.6532,0.0613,0.7472,-0.3957,0.7730,-1.0844,26.4938,-2.0625,39.7500,
6.676748,-0.6532,0.0613,0.7472,-0.5988,0.3253,-1.6713,26.4938,-2.0625,39.7500,
6.678011,-0.3551,0.8828,0.0437,-0.5988,0.3253,-1.6713,26.4938,-2.0625,39.7500,
6.697625,-0.3551,0.8828,0.0437,-0.5988,0.3253,-1.6713,26.4938,-2.0625,39.7500,
6.733239,-0.3551,0.8828,0.0437,-0.5988,0.3253,-1.6713,26.9250,-0.7125,39.7125,
6.737342,-0.3551,0.8828,0.0437,-0.5025,0.8352,-1.6056,26.9250,-0.7125,39.7125,
6.738442,-0.0083,1.0677,0.8642,-0.5025,0.8352,-1.6056,26.9250,-0.7125,39.7125,
6.758624,-0.0083,1.0677,0.8642,-0.5025,0.8352,-1.6056,26.9250,-0.7125,39.7125,
6.792820,-0.0083,1.0677,0.8642,-0.5025,0.8352,-1.6056,26.7375,0.6750,39.9563,
6.798562,-0.0083,1.0677,0.8642,-0.5200,0.8571,-1.7344,26.7375,0.6750,39.9563,
6.818707,-0.0083,1.0677,0.8642,-0.5200,0.8571,-1.7344,26.7375,0.6750,39.9563,
6.819706,-0.3086,0.0841,0.9067,-0.5200,0.8571,-1.7344,26.7375,0.6750,39.9563,
6.853596,-0.3086,0.0841,0.9067,-0.5200,0.8571,-1.7344,25.7625,2.0813,40.5750,
6.860472,-0.3086,0.0841,0.9067,-0.2566,1.7378,-1.2679,25.7625,2.0813,40.5750,
6.879926,-0.3086,0.0841,0.9067,-0.2566,1.7378,-1.2679,25.7625,2.0813,40.5750,
6.881056,0.2627,-0.7047,0.8264,-0.2566,1.7378,-1.2679,25.7625,2.0813,40.5750,
6.913344,0.2627,-0.7047,0.8264,-0.2566,1.7378,-1.2679,24.3000,3.2250,41.2875,
6.920144,0.2627,-0.7047,0.8264,-0.7362,-1.0911,-1.4281,24.3000,3.2250,41.2875,
6.940974,0.2627,-0.7047,0.8264,-0.7362,-1.0911,-1.4281,24.3000,3.2250,41.2875,
6.942420,-1.2790,2.0481,0.2650,-0.7362,-1.0911,-1.4281,24.3000,3.2250,41.2875,
6.973380,-1.2790,2.0481,0.2650,-0.7362,-1.0911,-1.4281,23.5125,3.8063,42.0188,
6.981424,-1.2790,2.0481,0.2650,-0.7944,-1.8895,-0.3133,23.5125,3.8063,42.0188,
7.001857,-1.2790,2.0481,0.2650,-0.7944,-1.8895,-0.3133,23.5125,3.8063,42.0188,
7.022193,1.8109,-0.7875,-1.5594,-0.7944,-1.8895,-0.3133,23.5125,3.8063,42.0188,
7.033334,1.8109,-0.7875,-1.5594,-0.7944,-1.8895,-0.3133,22.9313,3.7875,42.5813,
7.042357,1.8109,-0.7875,-1.5594,-0.6133,-0.2032,-0.6585,22.9313,3.7875,42.5813,
7.062676,1.8109,-0.7875,-1.5594,-0.6133,-0.2032,-0.6585,22.9313,3.7875,42.5813,
7.084240,-0.0150,-1.7343,-0.6261,-0.6133,-0.2032,-0.6585,22.9313,3.7875,42.5813,
7.091441,-0.0150,-1.7343,-0.6261,-0.6133,-0.2032,-0.6585,22.6500,3.4313,42.9375,
7.102962,-0.0150,-1.7343,-0.6261,-0.2615,-0.4684,-0.6736,22.6500,3.4313,42.9375,
7.124146,-0.0150,-1.7343,-0.6261,-0.2615,-0.4684,-0.6736,22.6500,3.4313,42.9375,
7.143814,0.4933,-0.2335,-0.4927,-0.2615,-0.4684,-0.6736,22.6500,3.4313,42.9375,
7.152447,0.4933,-0.2335,-0.4927,-0.2615,-0.4684,-0.6736,22.5563,3.0375,43.2563,
7.164346,0.4933,-0.2335,-0.4927,-0.2715,-0.0101,-0.7333,22.5563,3.0375,43.2563,
7.185519,0.4933,-0.2335,-0.4927,-0.2715,-0.0101,-0.7333,22.5563,3.0375,43.2563,
7.204735,0.5757,-0.3491,-0.4803,-0.2715,-0.0101,-0.7333,22.5563,3.0375,43.2563,
7.214460,0.5757,-0.3491,-0.4803,-0.2715,-0.0101,-0.7333,22.5750,2.7188,43.3500,
7.224909,0.5757,-0.3491,-0.4803,0.2309,0.3427,-0.3027,22.5750,2.7188,43.3500,
7.247372,0.5757,-0.3491,-0.4803,0.2309,0.3427,-0.3027,22.5750,2.7188,43.3500,
7.272899,0.5757,-0.3491,-0.4803,0.2309,0.3427,-0.3027,22.8750,2.6438,43.1438,
7.285917,0.5757,-0.3491,-0.4803,0.1250,0.4124,-0.2534,22.8750,2.6438,43.1438,
7.287386,0.4459,0.1488,-0.0216,0.1250,0.4124,-0.2534,22.8750,2.6438,43.1438,
7.306530,0.4459,0.1488,-0.0216,0.1250,0.4124,-0.2534,22.8750,2.6438,43.1438,
7.332923,0.4459,0.1488,-0.0216,0.1250,0.4124,-0.2534,23.5312,2.5875,42.8813,
7.346918,0.4459,0.1488,-0.0216,0.2469,0.5373,-0.3996,23.5312,2.5875,42.8813,
7.348848,-0.3779,0.2802,0.0013,0.2469,0.5373,-0.3996,23.5312,2.5875,42.8813,
7.367279,-0.3779,0.2802,0.0013,0.2469,0.5373,-0.3996,23.5312,2.5875,42.8813,
7.393251,-0.3779,0.2802,0.0013,0.2469,0.5373,-0.3996,24.1875,2.6063,42.6375,
7.407980,-0.3779,0.2802,0.0013,0.1272,0.5032,-0.0834,24.1875,2.6063,42.6375,
7.410043,0.8270,-0.3387,-0.2820,0.1272,0.5032,-0.0834,24.1875,2.6063,42.6375,
7.427942,0.8270,-0.3387,-0.2820,0.1272,0.5032,-0.0834,24.1875,2.6063,42.6375,
7.452791,0.8270,-0.3387,-0.2820,0.1272,0.5032,-0.0834,23.9438,2.8125,42.6938,
7.468690,0.8270,-0.3387,-0.2820,-0.1135,0.2955,0.6420,23.9438,2.8125,42.6938,
7.490187,0.8270,-0.3387,-0.2820,-0.1135,0.2955,0.6420,23.9438,2.8125,42.6938,
7.491622,0.9144,-0.2619,-0.3084,-0.1135,0.2955,0.6420,23.9438,2.8125,42.6938,
7.514742,0.9144,-0.2619,-0.3084,-0.1135,0.2955,0.6420,23.4563,3.0938,42.8438,
7.530465,0.9144,-0.2619,-0.3084,-0.0028,0.2330,1.3360,23.4563,3.0938,42.8438,
7.550083,0.9144,-0.2619,-0.3084,-0.0028,0.2330,1.3360,23.4563,3.0938,42.8438,
7.551787,0.7366,-0.1591,-0.5385,-0.0028,0.2330,1.3360,23.4563,3.0938,42.8438,
7.575327,0.7366,-0.1591,-0.5385,-0.0028,0.2330,1.3360,23.1188,3.2063,43.3313,
7.590392,0.7366,-0.1591,-0.5385,0.4414,-0.5089,1.2812,23.1188,3.2063,43.3313,
7.611978,0.7366,-0.1591,-0.5385,0.4414,-0.5089,1.2812,23.1188,3.2063,43.3313,
7.613868,0.5220,0.1127,-0.0287,0.4414,-0.5089,1.2812,23.1188,3.2063,43.3313,
7.633171,0.5220,0.1127,-0.0287,0.4414,-0.5089,1.2812,22.5375,3.1875,43.6875,
7.651252,0.5220,0.1127,-0.0287,0.1921,0.3182,0.7662,22.5375,3.1875,43.6875,
7.673165,0.5220,0.1127,-0.0287,0.1921,0.3182,0.7662,22.5375,3.1875,43.6875,
7.675906,0.1265,-0.1632,0.1525,0.1921,0.3182,0.7662,22.5375,3.1875,43.6875,
7.693831,0.1265,-0.1632,0.1525,0.1921,0.3182,0.7662,21.9938,3.0938,44.1750,
7.714151,0.1265,-0.1632,0.1525,0.0633,0.5611,-0.0911,21.9938,3.0938,44.1750,
7.733292,0.1265,-0.1632,0.1525,0.0633,0.5611,-0.0911,21.9938,3.0938,44.1750,
7.753696,0.2720,-0.8828,0.1175,0.0633,0.5611,-0.0911,21.9938,3.0938,44.1750,
7.756479,0.2720,-0.8828,0.1175,0.0633,0.5611,-0.0911,21.3938,2.8125,44.7938,
7.773706,0.2720,-0.8828,0.1175,-0.0244,0.1638,-0.2123,21.3938,2.8125,44.7938,
7.792721,0.2720,-0.8828,0.1175,-0.0244,0.1638,-0.2123,21.3938,2.8125,44.7938,
7.814490,0.2720,-0.8828,0.1175,-0.0244,0.1638,-0.2123,20.7938,2.5312,45.2250,
7.816196,-0.1751,0.0050,-0.0289,-0.0244,0.1638,-0.2123,20.7938,2.5312,45.2250,
7.834229,-0.1751,0.0050,-0.0289,0.0718,0.2104,-0.4450,20.7938,2.5312,45.2250,
7.855465,-0.1751,0.0050,-0.0289,0.0718,0.2104,-0.4450,20.7938,2.5312,45.2250,
7.873990,-0.1751,0.0050,-0.0289,0.0718,0.2104,-0.4450,20.3063,2.3813,45.4688,
7.875696,-0.9259,0.9090,-0.4268,0.0718,0.2104,-0.4450,20.3063,2.3813,45.4688,
7.894693,-0.9259,0.9090,-0.4268,0.0257,0.4376,-0.8117,20.3063,2.3813,45.4688,
7.916057,-0.9259,0.9090,-0.4268,0.0257,0.4376,-0.8117,20.3063,2.3813,45.4688,
7.933189,-0.9259,0.9090,-0.4268,0.0257,0.4376,-0.8117,19.6313,2.2313,45.5813,
7.955957,-0.3474,-0.2220,0.4158,0.0257,0.4376,-0.8117,19.6313,2.2313,45.5813,
7.957958,-0.3474,-0.2220,0.4158,-0.1273,0.0783,-0.5980,19.6313,2.2313,45.5813,
7.976595,-0.3474,-0.2220,0.4158,-0.1273,0.0783,-0.5980,19.6313,2.2313,45.5813,
7.993376,-0.3474,-0.2220,0.4158,-0.1273,0.0783,-0.5980,19.3500,2.3438,45.7875,
8.018828,-0.3474,-0.2220,0.4158,-0.1756,-0.0698,-0.5409,19.3500,2.3438,45.7875,
8.021003,-0.4560,0.4132,0.2624,-0.1756,-0.0698,-0.5409,19.3500,2.3438,45.7875,
8.037485,-0.4560,0.4132,0.2624,-0.1756,-0.0698,-0.5409,19.3500,2.3438,45.7875,
8.053312,-0.4560,0.4132,0.2624,-0.1756,-0.0698,-0.5409,18.8250,2.4563,45.9000,
8.079393,-0.4560,0.4132,0.2624,-0.3205,-0.2927,-0.3340,18.8250,2.4563,45.9000,
8.081697,0.1860,0.1579,0.1706,-0.3205,-0.2927,-0.3340,18.8250,2.4563,45.9000,
8.098425,0.1860,0.1579,0.1706,-0.3205,-0.2927,-0.3340,18.8250,2.4563,45.9000,
8.114953,0.1860,0.1579,0.1706,-0.3205,-0.2927,-0.3340,18.4125,2.6438,46.1063,
8.139239,0.1860,0.1579,0.1706,-0.1380,-0.0214,-0.2502,18.4125,2.6438,46.1063,
8.141299,0.4849,-0.5611,0.0130,-0.1380,-0.0214,-0.2502,18.4125,2.6438,46.1063,
8.159720,0.4849,-0.5611,0.0130,-0.1380,-0.0214,-0.2502,18.4125,2.6438,46.1063,
8.173775,0.4849,-0.5611,0.0130,-0.1380,-0.0214,-0.2502,18.0188,2.7000,46.2000,
8.199316,0.4849,-0.5611,0.0130,-0.2157,0.2398,-0.6886,18.0188,2.7000,46.2000,
8.220025,0.4849,-0.5611,0.0130,-0.2157,0.2398,-0.6886,18.0188,2.7000,46.2000,
8.221693,-0.4160,0.0642,0.2539,-0.2157,0.2398,-0.6886,18.0188,2.7000,46.2000,
8.233234,-0.4160,0.0642,0.2539,-0.2157,0.2398,-0.6886,17.7563,2.8500,46.2938,
8.261054,-0.4160,0.0642,0.2539,0.1627,-0.0116,-0.4902,17.7563,2.8500,46.2938,
8.282317,-0.4160,0.0642,0.2539,0.1627,-0.0116,-0.4902,17.7563,2.8500,46.2938,
8.284615,-0.4054,0.2756,-0.7673,0.1627,-0.0116,-0.4902,17.7563,2.8500,46.2938,
8.293496,-0.4054,0.2756,-0.7673,0.1627,-0.0116,-0.4902,17.3813,2.9813,46.2938,
8.321827,-0.4054,0.2756,-0.7673,0.1186,0.2011,-0.3325,17.3813,2.9813,46.2938,
8.341988,-0.4054,0.2756,-0.7673,0.1186,0.2011,-0.3325,17.3813,2.9813,46.2938,
8.344018,-0.0210,0.3606,-0.1597,0.1186,0.2011,-0.3325,17.3813,2.9813,46.2938,
8.352741,-0.0210,0.3606,-0.1597,0.1186,0.2011,-0.3325,17.1375,3.1688,46.3313,
8.382618,-0.0210,0.3606,-0.1597,0.0579,0.0502,-0.4863,17.1375,3.1688,46.3313,
8.402681,-0.0210,0.3606,-0.1597,0.0579,0.0502,-0.4863,17.1375,3.1688,46.3313,
8.413962,-0.0210,0.3606,-0.1597,0.0579,0.0502,-0.4863,17.0625,3.3750,46.4625,
8.424924,0.0304,-0.4143,-0.1639,0.0579,0.0502,-0.4863,17.0625,3.3750,46.4625,
8.443094,0.0304,-0.4143,-0.1639,0.0707,0.0154,-0.6368,17.0625,3.3750,46.4625,
8.463828,0.0304,-0.4143,-0.1639,0.0707,0.0154,-0.6368,17.0625,3.3750,46.4625,
8.475344,0.0304,-0.4143,-0.1639,0.0707,0.0154,-0.6368,16.6500,3.5063,46.5750,
8.485012,-0.4869,0.1927,-0.0313,0.0707,0.0154,-0.6368,16.6500,3.5063,46.5750,
8.504546,-0.4869,0.1927,-0.0313,-0.1639,-0.1859,-0.2651,16.6500,3.5063,46.5750,
8.525055,-0.4869,0.1927,-0.0313,-0.1639,-0.1859,-0.2651,16.6500,3.5063,46.5750,
8.533283,-0.4869,0.1927,-0.0313,-0.1639,-0.1859,-0.2651,16.4625,3.8438,46.5938,
8.545437,0.4031,-0.0082,0.2734,-0.1639,-0.1859,-0.2651,16.4625,3.8438,46.5938,
8.565586,0.4031,-0.0082,0.2734,-0.2210,-0.3879,-0.2253,16.4625,3.8438,46.5938,
8.585003,0.4031,-0.0082,0.2734,-0.2210,-0.3879,-0.2253,16.4625,3.8438,46.5938,
8.591504,0.4031,-0.0082,0.2734,-0.2210,-0.3879,-0.2253,16.3688,3.9938,46.5750,
8.605127,0.2008,-0.2826,0.2276,-0.2210,-0.3879,-0.2253,16.3688,3.9938,46.5750,
8.625897,0.2008,-0.2826,0.2276,-0.3159,-0.2328,-0.4192,16.3688,3.9938,46.5750,
8.649455,0.2008,-0.2826,0.2276,-0.3159,-0.2328,-0.4192,16.3688,3.9938,46.5750,
8.652593,0.2008,-0.2826,0.2276,-0.3159,-0.2328,-0.4192,16.4813,4.2188,46.4062,
8.686981,0.2008,-0.2826,0.2276,-0.4373,-0.1162,-0.5735,16.4813,4.2188,46.4062,
8.689184,-0.2362,-0.8887,-0.2577,-0.4373,-0.1162,-0.5735,16.4813,4.2188,46.4062,
8.708005,-0.2362,-0.8887,-0.2577,-0.4373,-0.1162,-0.5735,16.4813,4.2188,46.4062,
8.712429,-0.2362,-0.8887,-0.2577,-0.4373,-0.1162,-0.5735,16.5563,4.3125,46.1813,
8.747033,-0.2362,-0.8887,-0.2577,-0.6432,-0.5671,-0.4192,16.5563,4.3125,46.1813,
8.748001,0.1040,-1.5454,-0.2078,-0.6432,-0.5671,-0.4192,16.5563,4.3125,46.1813,
8.768158,0.1040,-1.5454,-0.2078,-0.6432,-0.5671,-0.4192,16.5563,4.3125,46.1813,
8.775037,0.1040,-1.5454,-0.2078,-0.6432,-0.5671,-0.4192,16.7812,4.2000,45.8250,
8.809202,0.1040,-1.5454,-0.2078,-0.5605,-0.2451,-0.2910,16.7812,4.2000,45.8250,
8.811916,-0.1578,-1.8349,0.8759,-0.5605,-0.2451,-0.2910,16.7812,4.2000,45.8250,
8.829975,-0.1578,-1.8349,0.8759,-0.5605,-0.2451,-0.2910,16.7812,4.2000,45.8250,
8.833210,-0.1578,-1.8349,0.8759,-0.5605,-0.2451,-0.2910,17.0250,3.6000,45.6375,
8.869800,-0.1578,-1.8349,0.8759,-0.6691,-0.6133,-0.3304,17.0250,3.6000,45.6375,
8.890395,0.0447,-1.7688,0.7848,-0.6691,-0.6133,-0.3304,17.0250,3.6000,45.6375,
8.892647,0.0447,-1.7688,0.7848,-0.6691,-0.6133,-0.3304,17.0250,3.6000,45.6375,
8.893400,0.0447,-1.7688,0.7848,-0.6691,-0.6133,-0.3304,17.3625,2.7188,45.2250,
8.931293,0.0447,-1.7688,0.7848,0.7232,-0.4589,-0.9828,17.3625,2.7188,45.2250,
8.950976,0.0447,-1.7688,0.7848,0.7232,-0.4589,-0.9828,17.3625,2.7188,45.2250,
8.952794,0.6370,-1.4299,1.4599,0.7232,-0.4589,-0.9828,17.3625,2.7188,45.2250,
8.953911,0.6370,-1.4299,1.4599,0.7232,-0.4589,-0.9828,18.1688,2.5500,44.6625,
8.994121,0.6370,-1.4299,1.4599,2.4809,-0.3949,-0.7394,18.1688,2.5500,44.6625,
9.011782,-1.2859,0.4866,1.8137,2.4809,-0.3949,-0.7394,18.1688,2.5500,44.6625,
9.013593,-1.2859,0.4866,1.8137,2.4809,-0.3949,-0.7394,18.1688,2.5500,44.6625,
9.014100,-1.2859,0.4866,1.8137,2.4809,-0.3949,-0.7394,18.6562,2.8875,43.9688,
9.054805,-1.2859,0.4866,1.8137,2.9228,-0.4372,-0.4842,18.6562,2.8875,43.9688,
9.075197,-1.2859,0.4866,1.8137,2.9228,-0.4372,-0.4842,19.3500,4.5000,42.9375,
9.077059,-1.6637,0.3823,-0.9477,2.9228,-0.4372,-0.4842,19.3500,4.5000,42.9375,
9.077999,-1.6637,0.3823,-0.9477,2.9228,-0.4372,-0.4842,19.3500,4.5000,42.9375,
9.114449,-1.6637,0.3823,-0.9477,2.0268,-0.5089,-0.4333,19.3500,4.5000,42.9375,
9.134085,-1.6637,0.3823,-0.9477,2.0268,-0.5089,-0.4333,19.3500,4.5000,42.9375,
9.135404,-1.6637,0.3823,-0.9477,2.0268,-0.5089,-0.4333,19.9875,6.8813,41.7563,
9.153498,-0.4364,0.2691,-3.2453,2.0268,-0.5089,-0.4333,19.9875,6.8813,41.7563,
9.175412,-0.4364,0.2691,-3.2453,0.8915,-0.3076,-0.2771,19.9875,6.8813,41.7563,
9.193700,-0.4364,0.2691,-3.2453,0.8915,-0.3076,-0.2771,20.4563,9.4875,40.6125,
9.195142,-0.4364,0.2691,-3.2453,0.8915,-0.3076,-0.2771,20.4563,9.4875,40.6125,
9.215739,-0.2563,1.6288,-3.6691,0.8915,-0.3076,-0.2771,20.4563,9.4875,40.6125,
9.234960,-0.2563,1.6288,-3.6691,-0.7120,-0.4092,-0.0350,20.4563,9.4875,40.6125,
9.253472,-0.2563,1.6288,-3.6691,-0.7120,-0.4092,-0.0350,21.0938,12.1500,39.5625,
9.255472,-0.2563,1.6288,-3.6691,-0.7120,-0.4092,-0.0350,21.0938,12.1500,39.5625,
9.274871,0.0358,1.0947,-2.2605,-0.7120,-0.4092,-0.0350,21.0938,12.1500,39.5625,
9.295296,0.0358,1.0947,-2.2605,-1.2157,-0.1088,0.0854,21.0938,12.1500,39.5625,
9.313439,0.0358,1.0947,-2.2605,-1.2157,-0.1088,0.0854,21.6750,14.5125,38.4938,
9.316228,0.0358,1.0947,-2.2605,-1.2157,-0.1088,0.0854,21.6750,14.5125,38.4938,
9.337101,0.0780,0.5436,-0.2331,-1.2157,-0.1088,0.0854,21.6750,14.5125,38.4938,
9.358348,0.0780,0.5436,-0.2331,-0.4228,-0.0129,-0.3474,21.6750,14.5125,38.4938,
9.373100,0.0780,0.5436,-0.2331,-0.4228,-0.0129,-0.3474,22.2563,17.1938,37.7063,
9.376857,0.0780,0.5436,-0.2331,-0.4228,-0.0129,-0.3474,22.2563,17.1938,37.7063,
9.418031,0.0780,0.5436,-0.2331,0.1286,-0.0790,-0.3979,22.2563,17.1938,37.7063,
9.419092,0.1052,1.0358,0.6954,0.1286,-0.0790,-0.3979,22.2563,17.1938,37.7063,
9.432748,0.1052,1.0358,0.6954,0.1286,-0.0790,-0.3979,22.4250,19.2000,36.8625,
9.438242,0.1052,1.0358,0.6954,0.1286,-0.0790,-0.3979,22.4250,19.2000,36.8625,
