
time,ax,ay,az,wx,wy,wz,Bx,By,Bz,
0.062627,0.0000,0.0000,0.0000,0.0041,-0.0158,0.0395,0.0000,0.0000,0.0000,
0.062843,0.0000,0.0000,0.0000,0.0041,-0.0158,0.0395,0.0000,0.0000,0.0000,
0.100524,0.0000,0.0000,0.0000,0.0041,-0.0158,0.0395,0.0000,0.0000,0.0000,
0.119371,0.0000,0.0000,0.0000,0.0041,-0.0158,0.0395,43.7063,13.3313,22.5938,
0.140744,0.0000,0.0000,0.0000,0.0177,0.0421,-0.0023,43.7063,13.3313,22.5938,
0.160876,0.0000,0.0000,0.0000,0.0177,0.0421,-0.0023,43.7063,13.3313,22.5938,
0.179385,0.0000,0.0000,0.0000,0.0177,0.0421,-0.0023,43.1063,13.1625,23.0813,
0.181048,0.0000,0.0000,0.0000,0.0177,0.0421,-0.0023,43.1063,13.1625,23.0813,
0.201252,0.0000,0.0000,0.0000,0.0216,0.0340,0.0308,43.1063,13.1625,23.0813,
0.221627,0.0000,0.0000,0.0000,0.0216,0.0340,0.0308,43.1063,13.1625,23.0813,
0.238831,0.0000,0.0000,0.0000,0.0216,0.0340,0.0308,43.0688,13.2563,23.0625,
0.242340,0.0199,0.0790,0.0246,0.0216,0.0340,0.0308,43.0688,13.2563,23.0625,
0.263596,0.0199,0.0790,0.0246,0.0450,0.0052,-0.0304,43.0688,13.2563,23.0625,
0.281269,0.0199,0.0790,0.0246,0.0450,0.0052,-0.0304,43.0688,13.2563,23.0625,
0.299248,0.0199,0.0790,0.0246,0.0450,0.0052,-0.0304,42.9000,13.4250,23.1188,
0.324184,0.0199,0.0790,0.0246,0.0188,-0.0144,0.0278,42.9000,13.4250,23.1188,
0.325390,-0.0531,-0.0070,-0.0067,0.0188,-0.0144,0.0278,42.9000,13.4250,23.1188,
0.343166,-0.0531,-0.0070,-0.0067,0.0188,-0.0144,0.0278,42.9000,13.4250,23.1188,
0.359470,-0.0531,-0.0070,-0.0067,0.0188,-0.0144,0.0278,42.6938,13.2188,23.1188,
0.383783,-0.0531,-0.0070,-0.0067,-0.0104,0.0364,-0.0289,42.6938,13.2188,23.1188,
0.384727,0.0719,-0.0231,0.0230,-0.0104,0.0364,-0.0289,42.6938,13.2188,23.1188,
0.404195,0.0719,-0.0231,0.0230,-0.0104,0.0364,-0.0289,42.6938,13.2188,23.1188,
0.418338,0.0719,-0.0231,0.0230,-0.0104,0.0364,-0.0289,42.7313,13.1625,23.1938,
0.444742,0.0719,-0.0231,0.0230,0.0067,-0.0758,-0.0499,42.7313,13.1625,23.1938,
0.447158,-0.1028,-0.1061,0.0437,0.0067,-0.0758,-0.0499,42.7313,13.1625,23.1938,
0.465066,-0.1028,-0.1061,0.0437,0.0067,-0.0758,-0.0499,42.7313,13.1625,23.1938,
0.478346,-0.1028,-0.1061,0.0437,0.0067,-0.0758,-0.0499,42.6938,13.1250,23.1188,
0.506359,-0.1028,-0.1061,0.0437,0.0369,-0.0012,0.0204,42.6938,13.1250,23.1188,
0.526116,-0.1028,-0.1061,0.0437,0.0369,-0.0012,0.0204,42.6938,13.1250,23.1188,
0.527054,0.0913,0.1374,-0.0478,0.0369,-0.0012,0.0204,42.6938,13.1250,23.1188,
0.539040,0.0913,0.1374,-0.0478,0.0369,-0.0012,0.0204,42.7125,13.1063,23.0625,
0.565485,0.0913,0.1374,-0.0478,0.0467,-0.0119,0.0318,42.7125,13.1063,23.0625,
0.587929,0.0913,0.1374,-0.0478,0.0467,-0.0119,0.0318,42.7125,13.1063,23.0625,
0.589356,-0.0341,-0.0134,-0.0039,0.0467,-0.0119,0.0318,42.7125,13.1063,23.0625,
0.598903,-0.0341,-0.0134,-0.0039,0.0467,-0.0119,0.0318,42.6000,13.0875,23.0813,
0.629291,-0.0341,-0.0134,-0.0039,0.0567,0.0052,0.0385,42.6000,13.0875,23.0813,
0.648585,-0.0341,-0.0134,-0.0039,0.0567,0.0052,0.0385,42.6000,13.0875,23.0813,
0.649475,0.0822,-0.0074,-0.0746,0.0567,0.0052,0.0385,42.6000,13.0875,23.0813,
0.658218,0.0822,-0.0074,-0.0746,0.0567,0.0052,0.0385,42.7313,13.1438,22.9500,
0.690660,0.0822,-0.0074,-0.0746,0.0656,-0.0182,0.0410,42.7313,13.1438,22.9500,
0.709149,0.0822,-0.0074,-0.0746,0.0656,-0.0182,0.0410,42.7313,13.1438,22.9500,
0.710981,0.0296,0.0334,-0.0105,0.0656,-0.0182,0.0410,42.7313,13.1438,22.9500,
0.722652,0.0296,0.0334,-0.0105,0.0656,-0.0182,0.0410,42.7125,13.0313,22.8375,
0.750315,0.0296,0.0334,-0.0105,0.1447,0.0491,0.0467,42.7125,13.0313,22.8375,
0.770367,0.0296,0.0334,-0.0105,0.1447,0.0491,0.0467,42.7125,13.0313,22.8375,
0.778128,0.0296,0.0334,-0.0105,0.1447,0.0491,0.0467,42.6750,12.7688,22.8188,
0.790292,0.0783,-0.0421,-0.1300,0.1447,0.0491,0.0467,42.6750,12.7688,22.8188,
0.811836,0.0783,-0.0421,-0.1300,0.1909,0.0009,0.0474,42.6750,12.7688,22.8188,
0.832058,0.0783,-0.0421,-0.1300,0.1909,0.0009,0.0474,42.6750,12.7688,22.8188,
0.840202,0.0783,-0.0421,-0.1300,0.1909,0.0009,0.0474,41.5688,11.8500,23.7188,
0.850340,-0.0149,-0.0375,-0.0748,0.1909,0.0009,0.0474,41.5688,11.8500,23.7188,
0.871231,-0.0149,-0.0375,-0.0748,0.2613,0.0712,0.0609,41.5688,11.8500,23.7188,
0.891328,-0.0149,-0.0375,-0.0748,0.2613,0.0712,0.0609,41.5688,11.8500,23.7188,
0.899213,-0.0149,-0.0375,-0.0748,0.2613,0.0712,0.0609,41.5312,11.8313,23.6250,
0.911916,0.0736,0.0070,-0.1107,0.2613,0.0712,0.0609,41.5312,11.8313,23.6250,
0.932193,0.0736,0.0070,-0.1107,0.3482,0.3133,0.1414,41.5312,11.8313,23.6250,
0.953022,0.0736,0.0070,-0.1107,0.3482,0.3133,0.1414,41.5312,11.8313,23.6250,
0.958367,0.0736,0.0070,-0.1107,0.3482,0.3133,0.1414,41.4938,11.9062,23.5500,
0.992061,0.0736,0.0070,-0.1107,-0.2060,-0.0815,-0.0119,41.4938,11.9062,23.5500,
0.993332,0.2000,-0.1805,0.0069,-0.2060,-0.0815,-0.0119,41.4938,11.9062,23.5500,
1.014450,0.2000,-0.1805,0.0069,-0.2060,-0.0815,-0.0119,41.4938,11.9062,23.5500,
1.019018,0.2000,-0.1805,0.0069,-0.2060,-0.0815,-0.0119,41.4000,11.7938,23.5875,
1.054243,0.2000,-0.1805,0.0069,-0.2830,-0.1003,-0.0197,41.4000,11.7938,23.5875,
1.057412,-0.2680,0.3182,0.1693,-0.2830,-0.1003,-0.0197,41.4000,11.7938,23.5875,
1.072740,-0.2680,0.3182,0.1693,-0.2830,-0.1003,-0.0197,41.4000,11.7938,23.5875,
1.077404,-0.2680,0.3182,0.1693,-0.2830,-0.1003,-0.0197,41.3063,11.7750,23.5500,
1.114607,-0.2680,0.3182,0.1693,-0.2830,-0.1774,-0.0080,41.3063,11.7750,23.5500,
1.116269,-0.3381,0.0892,0.4073,-0.2830,-0.1774,-0.0080,41.3063,11.7750,23.5500,
1.135798,-0.3381,0.0892,0.4073,-0.2830,-0.1774,-0.0080,41.3063,11.7750,23.5500,
1.139226,-0.3381,0.0892,0.4073,-0.2830,-0.1774,-0.0080,41.2125,11.6625,23.6250,
1.176616,-0.3381,0.0892,0.4073,-0.2880,-0.1987,0.0190,41.2125,11.6625,23.6250,
1.177890,-0.0088,-0.0445,0.1016,-0.2880,-0.1987,0.0190,41.2125,11.6625,23.6250,
1.196500,-0.0088,-0.0445,0.1016,-0.2880,-0.1987,0.0190,41.2125,11.6625,23.6250,
1.198775,-0.0088,-0.0445,0.1016,-0.2880,-0.1987,0.0190,41.2875,11.6250,23.7000,
1.238303,-0.0088,-0.0445,0.1016,-0.2997,-0.1312,0.0236,41.2875,11.6250,23.7000,
1.258062,-0.0088,-0.0445,0.1016,-0.2997,-0.1312,0.0236,41.2875,11.6250,23.7000,
1.259040,-0.0924,-0.0980,-0.0361,-0.2997,-0.1312,0.0236,41.2875,11.6250,23.7000,
1.259938,-0.0924,-0.0980,-0.0361,-0.2997,-0.1312,0.0236,41.4938,11.7000,23.6438,
1.298138,-0.0924,-0.0980,-0.0361,-0.2972,-0.0393,0.0182,41.4938,11.7000,23.6438,
1.319999,-0.0924,-0.0980,-0.0361,-0.2972,-0.0393,0.0182,41.5312,11.5500,23.6438,
1.323126,-0.0924,-0.0980,-0.0361,-0.2972,-0.0393,0.0182,41.5312,11.5500,23.6438,
1.323814,0.1345,-0.0532,0.0940,-0.2972,-0.0393,0.0182,41.5312,11.5500,23.6438,
1.360856,0.1345,-0.0532,0.0940,-0.2706,0.0459,0.0332,41.5312,11.5500,23.6438,
1.381122,0.1345,-0.0532,0.0940,-0.2706,0.0459,0.0332,41.5312,11.5500,23.6438,
1.382014,0.2556,0.0162,0.3609,-0.2706,0.0459,0.0332,41.5312,11.5500,23.6438,
1.382828,0.2556,0.0162,0.3609,-0.2706,0.0459,0.0332,41.6250,11.2688,23.5875,
1.420944,0.2556,0.0162,0.3609,-0.2067,0.0055,0.0250,41.6250,11.2688,23.5875,
1.440438,0.2556,0.0162,0.3609,-0.2067,0.0055,0.0250,41.7938,10.8375,23.7375,
1.441742,0.2556,0.0162,0.3609,-0.2067,0.0055,0.0250,41.7938,10.8375,23.7375,
1.460618,-0.0119,0.0022,0.0786,-0.2067,0.0055,0.0250,41.7938,10.8375,23.7375,
1.486228,-0.0119,0.0022,0.0786,-0.0530,-0.0201,0.0041,41.7938,10.8375,23.7375,
1.502352,-0.0119,0.0022,0.0786,-0.0530,-0.0201,0.0041,41.7938,10.8375,23.7375,
1.503528,-0.0119,0.0022,0.0786,-0.0530,-0.0201,0.0041,42.0000,10.6313,23.7938,
1.526915,0.1489,0.1068,0.1405,-0.0530,-0.0201,0.0041,42.0000,10.6313,23.7938,
1.543935,0.1489,0.1068,0.1405,0.0099,0.0144,0.0240,42.0000,10.6313,23.7938,
1.561038,0.1489,0.1068,0.1405,0.0099,0.0144,0.0240,42.2812,10.4062,23.8688,
1.563356,0.1489,0.1068,0.1405,0.0099,0.0144,0.0240,42.2812,10.4062,23.8688,
1.585307,0.0130,-0.0963,-0.2408,0.0099,0.0144,0.0240,42.2812,10.4062,23.8688,
1.610093,0.0130,-0.0963,-0.2408,0.0731,-0.0186,0.0176,42.2812,10.4062,23.8688,
1.618722,0.0130,-0.0963,-0.2408,0.0731,-0.0186,0.0176,42.3000,10.0500,24.0000,
1.626866,0.0130,-0.0963,-0.2408,0.0731,-0.0186,0.0176,42.3000,10.0500,24.0000,
1.643340,-0.0280,-0.0877,-0.2738,0.0731,-0.0186,0.0176,42.3000,10.0500,24.0000,
1.668968,-0.0280,-0.0877,-0.2738,0.0987,0.0233,-0.0041,42.3000,10.0500,24.0000,
1.685500,-0.0280,-0.0877,-0.2738,0.0987,0.0233,-0.0041,42.3563,9.9000,23.9625,
1.686654,-0.0280,-0.0877,-0.2738,0.0987,0.0233,-0.0041,42.3563,9.9000,23.9625,
1.725968,-0.0280,-0.0877,-0.2738,0.0812,-0.1095,-0.0148,42.3563,9.9000,23.9625,
1.727703,-0.0609,-0.0037,-0.0906,0.0812,-0.1095,-0.0148,42.3563,9.9000,23.9625,
1.743819,-0.0609,-0.0037,-0.0906,0.0812,-0.1095,-0.0148,42.3188,9.8438,23.7563,
1.745330,-0.0609,-0.0037,-0.0906,0.0812,-0.1095,-0.0148,42.3188,9.8438,23.7563,
1.793139,-0.0609,-0.0037,-0.0906,0.1072,-0.0463,0.0119,42.3188,9.8438,23.7563,
1.794916,-0.1474,0.0582,0.1789,0.1072,-0.0463,0.0119,42.3188,9.8438,23.7563,
1.802100,-0.1474,0.0582,0.1789,0.1072,-0.0463,0.0119,42.3563,9.7125,23.8125,
1.809509,-0.1474,0.0582,0.1789,0.1072,-0.0463,0.0119,42.3563,9.7125,23.8125,
1.850687,0.2665,-0.0318,-0.3554,0.1072,-0.0463,0.0119,42.3563,9.7125,23.8125,
1.851735,0.2665,-0.0318,-0.3554,0.2112,0.1951,0.0399,42.3563,9.7125,23.8125,
1.859118,0.2665,-0.0318,-0.3554,0.2112,0.1951,0.0399,42.3938,9.7500,23.9438,
1.868547,0.2665,-0.0318,-0.3554,0.2112,0.1951,0.0399,42.3938,9.7500,23.9438,
1.909482,0.2665,-0.0318,-0.3554,0.1820,0.6396,0.2174,42.3938,9.7500,23.9438,
1.926017,0.2665,-0.0318,-0.3554,0.1820,0.6396,0.2174,42.2812,9.8625,24.0750,
1.927878,0.2665,-0.0318,-0.3554,0.1820,0.6396,0.2174,42.2812,9.8625,24.0750,
1.929009,0.8936,-0.1283,-0.5658,0.1820,0.6396,0.2174,42.2812,9.8625,24.0750,
1.968455,0.8936,-0.1283,-0.5658,0.0411,0.0176,0.0523,42.2812,9.8625,24.0750,
1.983887,0.8936,-0.1283,-0.5658,0.0411,0.0176,0.0523,42.1688,9.9375,24.2438,
1.992318,-0.7126,0.2559,0.4466,0.0411,0.0176,0.0523,42.1688,9.9375,24.2438,
1.994198,-0.7126,0.2559,0.4466,0.0411,0.0176,0.0523,42.1688,9.9375,24.2438,
2.034046,-0.7126,0.2559,0.4466,-0.0345,-0.4186,-0.0751,42.1688,9.9375,24.2438,
2.042160,-0.7126,0.2559,0.4466,-0.0345,-0.4186,-0.0751,42.0000,9.7688,24.2438,
2.049932,-0.7126,0.2559,0.4466,-0.0345,-0.4186,-0.0751,42.0000,9.7688,24.2438,
2.050951,-1.0993,0.1031,0.3239,-0.0345,-0.4186,-0.0751,42.0000,9.7688,24.2438,
2.091633,-1.0993,0.1031,0.3239,0.1178,-0.0254,0.0297,42.0000,9.7688,24.2438,
2.099901,-1.0993,0.1031,0.3239,0.1178,-0.0254,0.0297,41.9625,9.8063,23.9438,
2.117127,-1.0993,0.1031,0.3239,0.1178,-0.0254,0.0297,41.9625,9.8063,23.9438,
2.118432,0.6222,-0.1865,-0.2910,0.1178,-0.0254,0.0297,41.9625,9.8063,23.9438,
2.157998,0.6222,-0.1865,-0.2910,0.2783,-0.0932,-0.0052,41.9625,9.8063,23.9438,
2.166558,0.6222,-0.1865,-0.2910,0.2783,-0.0932,-0.0052,42.0000,9.8063,23.9813,
2.175104,0.6222,-0.1865,-0.2910,0.2783,-0.0932,-0.0052,42.0000,9.8063,23.9813,
2.191617,0.0280,-0.0949,-0.4955,0.2783,-0.0932,-0.0052,42.0000,9.8063,23.9813,
2.216554,0.0280,-0.0949,-0.4955,0.3780,-0.2405,-0.0108,42.0000,9.8063,23.9813,
2.224715,0.0280,-0.0949,-0.4955,0.3780,-0.2405,-0.0108,41.9625,9.6750,24.1688,
2.233067,0.0280,-0.0949,-0.4955,0.3780,-0.2405,-0.0108,41.9625,9.6750,24.1688,
2.258091,-0.1203,-0.0248,-0.3060,0.3780,-0.2405,-0.0108,41.9625,9.6750,24.1688,
2.274341,-0.1203,-0.0248,-0.3060,0.5459,-0.3594,-0.0410,41.9625,9.6750,24.1688,
2.282727,-0.1203,-0.0248,-0.3060,0.5459,-0.3594,-0.0410,42.0000,9.8250,23.9438,
2.299220,-0.1203,-0.0248,-0.3060,0.5459,-0.3594,-0.0410,42.0000,9.8250,23.9438,
2.315856,0.0379,0.0316,-0.2725,0.5459,-0.3594,-0.0410,42.0000,9.8250,23.9438,
2.341285,0.0379,0.0316,-0.2725,0.6329,-0.1838,0.1073,42.0000,9.8250,23.9438,
2.343466,0.0379,0.0316,-0.2725,0.6329,-0.1838,0.1073,42.0563,9.9375,23.5125,
2.357976,0.0379,0.0316,-0.2725,0.6329,-0.1838,0.1073,42.0563,9.9375,23.5125,
2.374407,0.5738,0.0485,-0.2731,0.6329,-0.1838,0.1073,42.0563,9.9375,23.5125,
2.399686,0.5738,0.0485,-0.2731,0.7908,-0.1972,0.2618,42.0563,9.9375,23.5125,
2.402085,0.5738,0.0485,-0.2731,0.7908,-0.1972,0.2618,42.2812,9.9750,22.9125,
2.416599,0.5738,0.0485,-0.2731,0.7908,-0.1972,0.2618,42.2812,9.9750,22.9125,
2.457465,0.5738,0.0485,-0.2731,1.1665,-0.1646,0.4272,42.2812,9.9750,22.9125,
2.458566,0.7779,0.0947,-0.3014,1.1665,-0.1646,0.4272,42.2812,9.9750,22.9125,
2.459146,0.7779,0.0947,-0.3014,1.1665,-0.1646,0.4272,42.5250,9.9750,21.9750,
2.482278,0.7779,0.0947,-0.3014,1.1665,-0.1646,0.4272,42.5250,9.9750,21.9750,
2.523852,0.7779,0.0947,-0.3014,3.4744,-0.4435,0.3594,42.5250,9.9750,21.9750,
2.526614,0.1995,-0.1897,0.1976,3.4744,-0.4435,0.3594,42.5250,9.9750,21.9750,
2.528018,0.1995,-0.1897,0.1976,3.4744,-0.4435,0.3594,42.8625,10.4250,20.7375,
2.540072,0.1995,-0.1897,0.1976,3.4744,-0.4435,0.3594,42.8625,10.4250,20.7375,
2.581415,1.4170,-2.0258,3.8471,3.4744,-0.4435,0.3594,42.8625,10.4250,20.7375,
2.583204,1.4170,-2.0258,3.8471,3.9802,-0.2209,0.3704,42.8625,10.4250,20.7375,
2.584046,1.4170,-2.0258,3.8471,3.9802,-0.2209,0.3704,43.2938,10.7438,18.9938,
2.598239,1.4170,-2.0258,3.8471,3.9802,-0.2209,0.3704,43.2938,10.7438,18.9938,
2.639430,1.4170,-2.0258,3.8471,3.9802,-0.2209,0.3704,43.5938,10.9125,16.9313,
2.641676,1.4170,-2.0258,3.8471,3.2262,-0.1077,0.8593,43.5938,10.9125,16.9313,
2.664236,-2.0820,-3.8192,-12.2101,3.2262,-0.1077,0.8593,43.5938,10.9125,16.9313,
2.666971,-2.0820,-3.8192,-12.2101,3.2262,-0.1077,0.8593,43.5938,10.9125,16.9313,
2.705388,-2.0820,-3.8192,-12.2101,3.6700,-1.5334,0.5607,43.5938,10.9125,16.9313,
2.706965,-2.0820,-3.8192,-12.2101,3.6700,-1.5334,0.5607,43.9688,10.8750,14.2500,
2.722926,-2.0820,-3.8192,-12.2101,3.6700,-1.5334,0.5607,43.9688,10.8750,14.2500,
2.724984,-0.0936,2.9496,-0.2338,3.6700,-1.5334,0.5607,43.9688,10.8750,14.2500,
2.764501,-0.0936,2.9496,-0.2338,3.6700,-1.5334,0.5607,44.0250,10.5750,10.7812,
2.766473,-0.0936,2.9496,-0.2338,3.4469,-2.0414,0.3246,44.0250,10.5750,10.7812,
2.780858,-0.0936,2.9496,-0.2338,3.4469,-2.0414,0.3246,44.0250,10.5750,10.7812,
2.782054,-4.1139,-5.2383,0.6186,3.4469,-2.0414,0.3246,44.0250,10.5750,10.7812,
2.823630,-4.1139,-5.2383,0.6186,3.4469,-2.0414,0.3246,43.9875,9.7875,7.8938,
2.825133,-4.1139,-5.2383,0.6186,-0.1204,3.3127,0.7706,43.9875,9.7875,7.8938,
2.847419,8.0288,1.4410,5.5174,-0.1204,3.3127,0.7706,43.9875,9.7875,7.8938,
2.849392,8.0288,1.4410,5.5174,-0.1204,3.3127,0.7706,43.9875,9.7875,7.8938,
2.880237,8.0288,1.4410,5.5174,-0.1204,3.3127,0.7706,43.8563,8.5125,6.1313,
2.881618,8.0288,1.4410,5.5174,2.6919,0.8145,1.3541,43.8563,8.5125,6.1313,
2.905715,8.0288,1.4410,5.5174,2.6919,0.8145,1.3541,43.8563,8.5125,6.1313,
2.922196,-12.3408,-12.3518,11.4144,2.6919,0.8145,1.3541,43.8563,8.5125,6.1313,
2.938643,-12.3408,-12.3518,11.4144,2.6919,0.8145,1.3541,43.5750,6.6563,4.1063,
2.946840,-12.3408,-12.3518,11.4144,3.5907,-2.6680,0.4638,43.5750,6.6563,4.1063,
2.963037,-12.3408,-12.3518,11.4144,3.5907,-2.6680,0.4638,43.5750,6.6563,4.1063,
2.988502,3.6593,-6.3328,1.2303,3.5907,-2.6680,0.4638,43.5750,6.6563,4.1063,
3.004681,3.6593,-6.3328,1.2303,3.5907,-2.6680,0.4638,43.1250,4.4625,2.6250,
3.005623,3.6593,-6.3328,1.2303,2.4128,0.8373,0.0775,43.1250,4.4625,2.6250,
3.029405,3.6593,-6.3328,1.2303,2.4128,0.8373,0.0775,43.1250,4.4625,2.6250,
3.046560,5.5200,1.4771,-7.9229,2.4128,0.8373,0.0775,43.1250,4.4625,2.6250,
3.062954,5.5200,1.4771,-7.9229,2.4128,0.8373,0.0775,42.6750,2.2313,2.1000,
3.063596,5.5200,1.4771,-7.9229,1.6436,-0.8784,0.1497,42.6750,2.2313,2.1000,
3.088015,5.5200,1.4771,-7.9229,1.6436,-0.8784,0.1497,42.6750,2.2313,2.1000,
3.121516,5.5200,1.4771,-7.9229,1.6436,-0.8784,0.1497,42.0750,-0.0750,1.4250,
3.130790,5.5200,1.4771,-7.9229,1.7358,-0.6477,0.2398,42.0750,-0.0750,1.4250,
3.132278,-2.2742,1.2805,-3.4987,1.7358,-0.6477,0.2398,42.0750,-0.0750,1.4250,
3.147273,-2.2742,1.2805,-3.4987,1.7358,-0.6477,0.2398,42.0750,-0.0750,1.4250,
3.179671,-2.2742,1.2805,-3.4987,1.7358,-0.6477,0.2398,41.4188,-2.2500,1.5188,
3.187814,-2.2742,1.2805,-3.4987,1.7476,-0.4180,0.4538,41.4188,-2.2500,1.5188,
3.189185,-1.0584,0.1102,-2.0979,1.7476,-0.4180,0.4538,41.4188,-2.2500,1.5188,
3.213111,-1.0584,0.1102,-2.0979,1.7476,-0.4180,0.4538,41.4188,-2.2500,1.5188,
3.245978,-1.0584,0.1102,-2.0979,1.7476,-0.4180,0.4538,41.0438,-4.4062,2.5688,
3.247164,-1.0584,0.1102,-2.0979,1.3755,-0.6398,0.3549,41.0438,-4.4062,2.5688,
3.248209,-1.1737,0.4342,-4.3800,1.3755,-0.6398,0.3549,41.0438,-4.4062,2.5688,
3.270750,-1.1737,0.4342,-4.3800,1.3755,-0.6398,0.3549,41.0438,-4.4062,2.5688,
3.305150,-1.1737,0.4342,-4.3800,1.3755,-0.6398,0.3549,40.5375,-6.3375,3.1875,
3.307495,1.9337,1.4616,-5.3653,1.3755,-0.6398,0.3549,40.5375,-6.3375,3.1875,
3.308478,1.9337,1.4616,-5.3653,1.2967,0.4003,0.3055,40.5375,-6.3375,3.1875,
3.329350,1.9337,1.4616,-5.3653,1.2967,0.4003,0.3055,40.5375,-6.3375,3.1875,
3.362586,1.9337,1.4616,-5.3653,1.2967,0.4003,0.3055,40.2000,-7.7438,2.9438,
3.370753,1.9337,1.4616,-5.3653,0.8906,0.2437,0.1265,40.2000,-7.7438,2.9438,
3.388683,1.9337,1.4616,-5.3653,0.8906,0.2437,0.1265,40.2000,-7.7438,2.9438,
3.390953,2.1688,-0.3202,-5.6577,0.8906,0.2437,0.1265,40.2000,-7.7438,2.9438,
3.419153,2.1688,-0.3202,-5.6577,0.8906,0.2437,0.1265,39.9188,-8.4938,3.3188,
3.430630,2.1688,-0.3202,-5.6577,0.2519,0.1039,0.0489,39.9188,-8.4938,3.3188,
3.450134,1.2573,0.5821,-6.4317,0.2519,0.1039,0.0489,39.9188,-8.4938,3.3188,
3.451624,1.2573,0.5821,-6.4317,0.2519,0.1039,0.0489,39.9188,-8.4938,3.3188,
3.479158,1.2573,0.5821,-6.4317,0.2519,0.1039,0.0489,39.7313,-9.2625,3.7500,
3.489836,1.2573,0.5821,-6.4317,-0.1875,0.0680,-0.1489,39.7313,-9.2625,3.7500,
3.511689,1.2573,0.5821,-6.4317,-0.1875,0.0680,-0.1489,39.7313,-9.2625,3.7500,
3.513518,1.7193,2.5819,-4.9684,-0.1875,0.0680,-0.1489,39.7313,-9.2625,3.7500,
3.538914,1.7193,2.5819,-4.9684,-0.1875,0.0680,-0.1489,39.6938,-9.8438,3.9188,
3.551650,1.7193,2.5819,-4.9684,-0.7346,-0.7875,-0.3626,39.6938,-9.8438,3.9188,
3.572079,1.7193,2.5819,-4.9684,-0.7346,-0.7875,-0.3626,39.6938,-9.8438,3.9188,
3.592720,0.7313,2.8008,-4.3156,-0.7346,-0.7875,-0.3626,39.6938,-9.8438,3.9188,
3.598719,0.7313,2.8008,-4.3156,-0.7346,-0.7875,-0.3626,39.6375,-10.0500,3.8813,
3.612346,0.7313,2.8008,-4.3156,-1.1627,-1.4689,-0.4518,39.6375,-10.0500,3.8813,
3.632378,0.7313,2.8008,-4.3156,-1.1627,-1.4689,-0.4518,39.6375,-10.0500,3.8813,
3.654272,-0.4915,1.3809,-3.1558,-1.1627,-1.4689,-0.4518,39.6375,-10.0500,3.8813,
3.658062,-0.4915,1.3809,-3.1558,-1.1627,-1.4689,-0.4518,39.6562,-10.0688,3.1500,
3.673307,-0.4915,1.3809,-3.1558,-1.3352,-1.2228,-0.1224,39.6562,-10.0688,3.1500,
3.693777,-0.4915,1.3809,-3.1558,-1.3352,-1.2228,-0.1224,39.6562,-10.0688,3.1500,
3.713920,-0.9813,0.4902,-1.2788,-1.3352,-1.2228,-0.1224,39.6562,-10.0688,3.1500,
3.718300,-0.9813,0.4902,-1.2788,-1.3352,-1.2228,-0.1224,39.5438,-9.7875,2.1188,
3.733837,-0.9813,0.4902,-1.2788,-1.1357,0.0736,0.1557,39.5438,-9.7875,2.1188,
3.755255,-0.9813,0.4902,-1.2788,-1.1357,0.0736,0.1557,39.5438,-9.7875,2.1188,
3.775135,0.7573,0.0399,-0.8287,-1.1357,0.0736,0.1557,39.5438,-9.7875,2.1188,
3.778577,0.7573,0.0399,-0.8287,-1.1357,0.0736,0.1557,39.6000,-9.2250,1.0312,
3.795450,0.7573,0.0399,-0.8287,-1.4651,0.1891,0.0719,39.6000,-9.2250,1.0312,
3.815127,0.7573,0.0399,-0.8287,-1.4651,0.1891,0.0719,39.6000,-9.2250,1.0312,
3.839084,0.7573,0.0399,-0.8287,-1.4651,0.1891,0.0719,39.5063,-8.5875,-0.2812,
3.855879,0.7573,0.0399,-0.8287,-1.6207,0.3449,0.0246,39.5063,-8.5875,-0.2812,
3.857521,0.7509,-0.5765,-1.0573,-1.6207,0.3449,0.0246,39.5063,-8.5875,-0.2812,
3.877025,0.7509,-0.5765,-1.0573,-1.6207,0.3449,0.0246,39.5063,-8.5875,-0.2812,
3.899454,0.7509,-0.5765,-1.0573,-1.6207,0.3449,0.0246,39.5438,-7.8375,-1.8000,
3.916301,0.7509,-0.5765,-1.0573,-1.7960,-0.7886,-0.1017,39.5438,-7.8375,-1.8000,
3.917865,0.5257,-0.9574,0.2757,-1.7960,-0.7886,-0.1017,39.5438,-7.8375,-1.8000,
3.937519,0.5257,-0.9574,0.2757,-1.7960,-0.7886,-0.1017,39.5438,-7.8375,-1.8000,
3.958820,0.5257,-0.9574,0.2757,-1.7960,-0.7886,-0.1017,39.5063,-6.8063,-3.6750,
3.980440,0.5257,-0.9574,0.2757,-1.4988,0.1947,0.0854,39.5063,-6.8063,-3.6750,
3.982729,-0.1515,-1.6722,1.3803,-1.4988,0.1947,0.0854,39.5063,-6.8063,-3.6750,
3.998779,-0.1515,-1.6722,1.3803,-1.4988,0.1947,0.0854,39.5063,-6.8063,-3.6750,
4.021336,-0.1515,-1.6722,1.3803,-1.4988,0.1947,0.0854,39.3938,-5.6063,-5.4938,
4.039567,-0.1515,-1.6722,1.3803,-1.4297,0.6715,0.0758,39.3938,-5.6063,-5.4938,
4.060330,-0.1515,-1.6722,1.3803,-1.4297,0.6715,0.0758,39.3938,-5.6063,-5.4938,
4.062480,0.6555,-1.3974,3.2763,-1.4297,0.6715,0.0758,39.3938,-5.6063,-5.4938,
4.080817,0.6555,-1.3974,3.2763,-1.4297,0.6715,0.0758,39.4875,-4.4250,-6.5250,
4.101055,0.6555,-1.3974,3.2763,-1.4790,0.7776,-0.0382,39.4875,-4.4250,-6.5250,
4.120555,0.6555,-1.3974,3.2763,-1.4790,0.7776,-0.0382,39.4875,-4.4250,-6.5250,
4.122435,0.5376,-0.8235,3.9210,-1.4790,0.7776,-0.0382,39.4875,-4.4250,-6.5250,
4.139739,0.5376,-0.8235,3.9210,-1.4790,0.7776,-0.0382,39.6188,-3.2250,-6.7313,
4.160344,0.5376,-0.8235,3.9210,-1.3541,1.2597,-0.1135,39.6188,-3.2250,-6.7313,
4.182217,0.5376,-0.8235,3.9210,-1.3541,1.2597,-0.1135,39.6188,-3.2250,-6.7313,
4.183566,1.3402,-1.1075,3.6880,-1.3541,1.2597,-0.1135,39.6188,-3.2250,-6.7313,
4.201312,1.3402,-1.1075,3.6880,-1.3541,1.2597,-0.1135,39.9375,-1.8000,-6.3188,
4.221373,1.3402,-1.1075,3.6880,-1.1581,1.0152,-0.2941,39.9375,-1.8000,-6.3188,
4.242371,1.3402,-1.1075,3.6880,-1.1581,1.0152,-0.2941,39.9375,-1.8000,-6.3188,
4.244047,0.6714,-1.0969,2.9161,-1.1581,1.0152,-0.2941,39.9375,-1.8000,-6.3188,
4.258938,0.6714,-1.0969,2.9161,-1.1581,1.0152,-0.2941,40.3313,-0.3188,-5.4938,
4.281946,0.6714,-1.0969,2.9161,-1.0087,0.6161,-0.2341,40.3313,-0.3188,-5.4938,
4.303362,0.6714,-1.0969,2.9161,-1.0087,0.6161,-0.2341,40.3313,-0.3188,-5.4938,
4.319018,0.6714,-1.0969,2.9161,-1.0087,0.6161,-0.2341,40.7812,1.2375,-4.3500,
4.321942,-1.4661,-0.7095,2.2602,-1.0087,0.6161,-0.2341,40.7812,1.2375,-4.3500,
4.342974,-1.4661,-0.7095,2.2602,-0.7065,0.8011,-0.0840,40.7812,1.2375,-4.3500,
4.363369,-1.4661,-0.7095,2.2602,-0.7065,0.8011,-0.0840,40.7812,1.2375,-4.3500,
4.379416,-1.4661,-0.7095,2.2602,-0.7065,0.8011,-0.0840,41.2125,2.6250,-2.8125,
4.382906,-1.2235,-0.7754,1.6806,-0.7065,0.8011,-0.0840,41.2125,2.6250,-2.8125,
4.403989,-1.2235,-0.7754,1.6806,-0.2354,0.3336,0.0772,41.2125,2.6250,-2.8125,
4.424119,-1.2235,-0.7754,1.6806,-0.2354,0.3336,0.0772,41.2125,2.6250,-2.8125,
4.438927,-1.2235,-0.7754,1.6806,-0.2354,0.3336,0.0772,41.7188,3.7688,-0.8813,
4.444102,-1.6098,-0.8871,2.0935,-0.2354,0.3336,0.0772,41.7188,3.7688,-0.8813,
4.464492,-1.6098,-0.8871,2.0935,-0.2454,0.4866,0.2096,41.7188,3.7688,-0.8813,
4.485280,-1.6098,-0.8871,2.0935,-0.2454,0.4866,0.2096,41.7188,3.7688,-0.8813,
4.499984,-1.6098,-0.8871,2.0935,-0.2454,0.4866,0.2096,41.9438,4.5750,1.1813,
4.526562,-1.6098,-0.8871,2.0935,-0.7764,0.8529,0.1542,41.9438,4.5750,1.1813,
4.528552,-0.3048,-0.6140,-0.7081,-0.7764,0.8529,0.1542,41.9438,4.5750,1.1813,
4.546528,-0.3048,-0.6140,-0.7081,-0.7764,0.8529,0.1542,41.9438,4.5750,1.1813,
4.557945,-0.3048,-0.6140,-0.7081,-0.7764,0.8529,0.1542,42.1500,5.0813,3.4688,
4.586114,-0.3048,-0.6140,-0.7081,-0.4694,0.4499,0.0740,42.1500,5.0813,3.4688,
4.588061,1.2215,-0.4247,-2.0657,-0.4694,0.4499,0.0740,42.1500,5.0813,3.4688,
4.607374,1.2215,-0.4247,-2.0657,-0.4694,0.4499,0.0740,42.1500,5.0813,3.4688,
4.619242,1.2215,-0.4247,-2.0657,-0.4694,0.4499,0.0740,42.2812,5.3813,5.5688,
4.647793,1.1713,0.8568,1.3350,-0.4694,0.4499,0.0740,42.2812,5.3813,5.5688,
4.650673,1.1713,0.8568,1.3350,0.0077,0.8593,0.2451,42.2812,5.3813,5.5688,
4.668588,1.1713,0.8568,1.3350,0.0077,0.8593,0.2451,42.2812,5.3813,5.5688,
4.678596,1.1713,0.8568,1.3350,0.0077,0.8593,0.2451,42.2812,5.3250,7.6125,
4.709775,1.1713,0.8568,1.3350,-0.1218,1.0131,0.1659,42.2812,5.3250,7.6125,
4.712047,1.4645,0.4276,-0.9909,-0.1218,1.0131,0.1659,42.2812,5.3250,7.6125,
4.729704,1.4645,0.4276,-0.9909,-0.1218,1.0131,0.1659,42.2812,5.3250,7.6125,
4.738839,1.4645,0.4276,-0.9909,-0.1218,1.0131,0.1659,42.2812,5.0438,9.7125,
4.770023,1.4645,0.4276,-0.9909,0.1859,0.5369,0.3651,42.2812,5.0438,9.7125,
4.790440,-0.5895,0.4545,-0.3649,0.1859,0.5369,0.3651,42.2812,5.0438,9.7125,
4.792555,-0.5895,0.4545,-0.3649,0.1859,0.5369,0.3651,42.2812,5.0438,9.7125,
4.798774,-0.5895,0.4545,-0.3649,0.1859,0.5369,0.3651,42.2625,4.5375,11.7188,
4.830236,-0.5895,0.4545,-0.3649,0.1984,1.1220,0.4389,42.2625,4.5375,11.7188,
4.851641,-0.5895,0.4545,-0.3649,0.1984,1.1220,0.4389,42.2625,4.5375,11.7188,
4.853105,0.6777,0.3900,-0.2532,0.1984,1.1220,0.4389,42.2625,4.5375,11.7188,
4.860362,0.6777,0.3900,-0.2532,0.1984,1.1220,0.4389,41.9438,3.9938,13.7438,
4.891578,0.6777,0.3900,-0.2532,0.1558,1.4095,0.3711,41.9438,3.9938,13.7438,
4.913028,0.6777,0.3900,-0.2532,0.1558,1.4095,0.3711,41.9438,3.9938,13.7438,
4.914280,0.6222,-0.2601,-1.4272,0.1558,1.4095,0.3711,41.9438,3.9938,13.7438,
4.920280,0.6222,-0.2601,-1.4272,0.1558,1.4095,0.3711,41.4938,3.3750,16.1250,
4.952702,0.6222,-0.2601,-1.4272,0.1901,1.1288,0.2157,41.4938,3.3750,16.1250,
4.972586,0.6222,-0.2601,-1.4272,0.1901,1.1288,0.2157,41.4938,3.3750,16.1250,
4.979254,0.6222,-0.2601,-1.4272,0.1901,1.1288,0.2157,41.1750,2.8125,18.6000,
4.992379,0.0750,-0.2722,0.4512,0.1901,1.1288,0.2157,41.1750,2.8125,18.6000,
5.012966,0.0750,-0.2722,0.4512,-0.0629,0.0427,0.1716,41.1750,2.8125,18.6000,
5.033239,0.0750,-0.2722,0.4512,-0.0629,0.0427,0.1716,41.1750,2.8125,18.6000,
5.038414,0.0750,-0.2722,0.4512,-0.0629,0.0427,0.1716,40.7812,2.4188,20.6813,
5.053314,-2.3772,-0.7472,0.4108,-0.0629,0.0427,0.1716,40.7812,2.4188,20.6813,
5.074138,-2.3772,-0.7472,0.4108,-0.4172,-0.5543,0.2356,40.7812,2.4188,20.6813,
5.095815,-2.3772,-0.7472,0.4108,-0.4172,-0.5543,0.2356,40.7812,2.4188,20.6813,
5.098401,-2.3772,-0.7472,0.4108,-0.4172,-0.5543,0.2356,40.5188,1.9313,22.6125,
5.114872,-1.5634,-0.4343,-0.2802,-0.4172,-0.5543,0.2356,40.5188,1.9313,22.6125,
5.136217,-1.5634,-0.4343,-0.2802,-0.6465,-0.1595,0.1925,40.5188,1.9313,22.6125,
5.154118,-1.5634,-0.4343,-0.2802,-0.6465,-0.1595,0.1925,40.5188,1.9313,22.6125,
5.158342,-1.5634,-0.4343,-0.2802,-0.6465,-0.1595,0.1925,40.2375,1.2375,24.0563,
5.174217,0.5892,-0.3889,0.1841,-0.6465,-0.1595,0.1925,40.2375,1.2375,24.0563,
5.195475,0.5892,-0.3889,0.1841,-0.6294,0.5622,0.0623,40.2375,1.2375,24.0563,
5.214919,0.5892,-0.3889,0.1841,-0.6294,0.5622,0.0623,40.2375,1.2375,24.0563,
5.218021,0.5892,-0.3889,0.1841,-0.6294,0.5622,0.0623,39.8813,0.6562,25.2750,
5.257366,0.5892,-0.3889,0.1841,-0.5932,1.5047,-0.1021,39.8813,0.6562,25.2750,
5.260411,1.8332,-0.1584,0.3607,-0.5932,1.5047,-0.1021,39.8813,0.6562,25.2750,
5.275699,1.8332,-0.1584,0.3607,-0.5932,1.5047,-0.1021,39.8813,0.6562,25.2750,
5.277706,1.8332,-0.1584,0.3607,-0.5932,1.5047,-0.1021,39.1688,0.0938,26.5688,
5.316562,1.8332,-0.1584,0.3607,-0.7992,1.6332,-0.5944,39.1688,0.0938,26.5688,
5.318348,2.0797,0.7565,0.3950,-0.7992,1.6332,-0.5944,39.1688,0.0938,26.5688,
5.336596,2.0797,0.7565,0.3950,-0.7992,1.6332,-0.5944,39.1688,0.0938,26.5688,
5.338632,2.0797,0.7565,0.3950,-0.7992,1.6332,-0.5944,38.3625,-0.3375,28.0875,
5.379345,2.0797,0.7565,0.3950,-0.9476,0.3264,-0.8420,38.3625,-0.3375,28.0875,
5.382944,-1.7731,1.1106,0.6302,-0.9476,0.3264,-0.8420,38.3625,-0.3375,28.0875,
5.399933,-1.7731,1.1106,0.6302,-0.9476,0.3264,-0.8420,37.6875,-0.7500,29.2688,
5.401813,-1.7731,1.1106,0.6302,-0.9476,0.3264,-0.8420,37.6875,-0.7500,29.2688,
5.439395,-1.7731,1.1106,0.6302,-1.0715,-0.8966,-1.2413,37.6875,-0.7500,29.2688,
5.459216,-1.7731,1.1106,0.6302,-1.0715,-0.8966,-1.2413,37.2375,-0.9938,29.9438,
5.461141,-1.7731,1.1106,0.6302,-1.0715,-0.8966,-1.2413,37.2375,-0.9938,29.9438,
5.462055,-2.4250,2.4484,-0.7491,-1.0715,-0.8966,-1.2413,37.2375,-0.9938,29.9438,
5.500729,-2.4250,2.4484,-0.7491,-1.2429,-0.9172,-1.0293,37.2375,-0.9938,29.9438,
5.519792,-2.4250,2.4484,-0.7491,-1.2429,-0.9172,-1.0293,37.0688,-1.2938,30.3563,
5.521792,-2.4250,2.4484,-0.7491,-1.2429,-0.9172,-1.0293,37.0688,-1.2938,30.3563,
5.522636,-0.8649,2.3506,-0.7114,-1.2429,-0.9172,-1.0293,37.0688,-1.2938,30.3563,
5.559666,-0.8649,2.3506,-0.7114,-1.3860,-0.1344,-0.7890,37.0688,-1.2938,30.3563,
5.578969,-0.8649,2.3506,-0.7114,-1.3860,-0.1344,-0.7890,38.0063,0.5813,23.7375,
5.581392,-0.8649,2.3506,-0.7114,-1.3860,-0.1344,-0.7890,38.0063,0.5813,23.7375,
5.582109,1.0155,1.1668,-1.1976,-1.3860,-0.1344,-0.7890,38.0063,0.5813,23.7375,
5.622936,1.0155,1.1668,-1.1976,-1.2976,0.3140,-0.5004,38.0063,0.5813,23.7375,
5.639474,1.0155,1.1668,-1.1976,-1.2976,0.3140,-0.5004,37.8563,0.5438,24.5063,
5.641613,1.0155,1.1668,-1.1976,-1.2976,0.3140,-0.5004,37.8563,0.5438,24.5063,
5.642206,0.1341,0.3969,-0.3702,-1.2976,0.3140,-0.5004,37.8563,0.5438,24.5063,
5.683214,0.1341,0.3969,-0.3702,-1.2533,-0.9565,-0.3509,37.8563,0.5438,24.5063,
5.699438,0.1341,0.3969,-0.3702,-1.2533,-0.9565,-0.3509,37.9500,0.5625,24.8438,
5.701737,0.1341,0.3969,-0.3702,-1.2533,-0.9565,-0.3509,37.9500,0.5625,24.8438,
5.724321,-1.6226,-5.0262,-0.3638,-1.2533,-0.9565,-0.3509,37.9500,0.5625,24.8438,
5.744137,-1.6226,-5.0262,-0.3638,-1.0924,-0.1141,-0.3033,37.9500,0.5625,24.8438,
5.758902,-1.6226,-5.0262,-0.3638,-1.0924,-0.1141,-0.3033,38.4750,0.4313,24.7688,
5.764374,-1.6226,-5.0262,-0.3638,-1.0924,-0.1141,-0.3033,38.4750,0.4313,24.7688,
5.784354,1.3225,1.4911,0.8445,-1.0924,-0.1141,-0.3033,38.4750,0.4313,24.7688,
5.805266,1.3225,1.4911,0.8445,-1.1240,-0.5820,-0.3655,38.4750,0.4313,24.7688,
5.819079,1.3225,1.4911,0.8445,-1.1240,-0.5820,-0.3655,39.3563,0.2625,24.0750,
5.823492,1.3225,1.4911,0.8445,-1.1240,-0.5820,-0.3655,39.3563,0.2625,24.0750,
5.845454,-1.0765,-0.3873,-0.3642,-1.1240,-0.5820,-0.3655,39.3563,0.2625,24.0750,
5.866165,-1.0765,-0.3873,-0.3642,-1.0441,-0.4830,-0.1514,39.3563,0.2625,24.0750,
5.879024,-1.0765,-0.3873,-0.3642,-1.0441,-0.4830,-0.1514,40.2188,-0.0188,23.0625,
5.885852,-1.0765,-0.3873,-0.3642,-1.0441,-0.4830,-0.1514,40.2188,-0.0188,23.0625,
5.929965,-1.0765,-0.3873,-0.3642,-0.5380,-0.1180,0.0566,40.2188,-0.0188,23.0625,
5.932288,1.0357,0.9713,0.5094,-0.5380,-0.1180,0.0566,40.2188,-0.0188,23.0625,
5.940528,1.0357,0.9713,0.5094,-0.5380,-0.1180,0.0566,41.0438,-0.6000,22.0688,
5.948051,1.0357,0.9713,0.5094,-0.5380,-0.1180,0.0566,41.0438,-0.6000,22.0688,
5.987920,1.0357,0.9713,0.5094,0.1196,-0.2710,0.5164,41.0438,-0.6000,22.0688,
5.989997,0.6254,-0.6182,-0.4542,0.1196,-0.2710,0.5164,41.0438,-0.6000,22.0688,
5.998815,0.6254,-0.6182,-0.4542,0.1196,-0.2710,0.5164,41.6813,-1.3125,21.3000,
6.007789,0.6254,-0.6182,-0.4542,0.1196,-0.2710,0.5164,41.6813,-1.3125,21.3000,
6.050809,0.6254,-0.6182,-0.4542,0.4284,0.9413,0.8844,41.6813,-1.3125,21.3000,
6.053690,1.2832,-1.5443,-2.2336,0.4284,0.9413,0.8844,41.6813,-1.3125,21.3000,
6.061420,1.2832,-1.5443,-2.2336,0.4284,0.9413,0.8844,41.9813,-2.3625,20.8125,
6.069262,1.2832,-1.5443,-2.2336,0.4284,0.9413,0.8844,41.9813,-2.3625,20.8125,
6.111181,1.0767,-0.2837,-0.4091,0.4284,0.9413,0.8844,41.9813,-2.3625,20.8125,
6.114432,1.0767,-0.2837,-0.4091,0.3904,0.7244,0.6918,41.9813,-2.3625,20.8125,
6.122759,1.0767,-0.2837,-0.4091,0.3904,0.7244,0.6918,42.0750,-3.3000,20.5875,
6.130545,1.0767,-0.2837,-0.4091,0.3904,0.7244,0.6918,42.0750,-3.3000,20.5875,
6.170347,1.0767,-0.2837,-0.4091,0.2839,0.3495,0.2348,42.0750,-3.3000,20.5875,
6.179697,1.0767,-0.2837,-0.4091,0.2839,0.3495,0.2348,41.8875,-4.5188,20.5688,
6.190381,1.0767,-0.2837,-0.4091,0.2839,0.3495,0.2348,41.8875,-4.5188,20.5688,
6.191323,-0.7711,0.0436,-0.1126,0.2839,0.3495,0.2348,41.8875,-4.5188,20.5688,
6.230636,-0.7711,0.0436,-0.1126,0.1011,-0.2157,-0.3151,41.8875,-4.5188,20.5688,
6.239525,-0.7711,0.0436,-0.1126,0.1011,-0.2157,-0.3151,41.7750,-5.2313,20.7750,
6.251299,-0.7711,0.0436,-0.1126,0.1011,-0.2157,-0.3151,41.7750,-5.2313,20.7750,
6.252535,-1.0295,0.5920,0.0114,0.1011,-0.2157,-0.3151,41.7750,-5.2313,20.7750,
6.291892,-1.0295,0.5920,0.0114,-0.2390,-0.7527,-0.9185,41.7750,-5.2313,20.7750,
6.298038,-1.0295,0.5920,0.0114,-0.2390,-0.7527,-0.9185,41.8313,-5.6625,20.8125,
6.311945,-1.6240,0.7179,-0.4778,-0.2390,-0.7527,-0.9185,41.8313,-5.6625,20.8125,
6.313220,-1.6240,0.7179,-0.4778,-0.2390,-0.7527,-0.9185,41.8313,-5.6625,20.8125,
6.353414,-1.6240,0.7179,-0.4778,-0.6060,-0.0939,-1.4284,41.8313,-5.6625,20.8125,
6.358564,-1.6240,0.7179,-0.4778,-0.6060,-0.0939,-1.4284,41.8500,-5.7563,20.9813,
6.372886,-1.6240,0.7179,-0.4778,-0.6060,-0.0939,-1.4284,41.8500,-5.7563,20.9813,
6.392851,-1.2955,0.5740,0.3072,-0.6060,-0.0939,-1.4284,41.8500,-5.7563,20.9813,
6.413113,-1.2955,0.5740,0.3072,-1.0647,0.2405,-1.3513,41.8500,-5.7563,20.9813,
6.421599,-1.2955,0.5740,0.3072,-1.0647,0.2405,-1.3513,41.7188,-5.3250,21.2625,
6.434037,-1.2955,0.5740,0.3072,-1.0647,0.2405,-1.3513,41.7188,-5.3250,21.2625,
6.453890,-0.1512,1.5354,1.5061,-1.0647,0.2405,-1.3513,41.7188,-5.3250,21.2625,
6.474359,-0.1512,1.5354,1.5061,-1.5872,0.9125,-1.3133,41.7188,-5.3250,21.2625,
6.478881,-0.1512,1.5354,1.5061,-1.5872,0.9125,-1.3133,41.3813,-4.6313,21.8813,
6.494937,-0.1512,1.5354,1.5061,-1.5872,0.9125,-1.3133,41.3813,-4.6313,21.8813,
6.516186,-0.7514,0.7005,0.9931,-1.5872,0.9125,-1.3133,41.3813,-4.6313,21.8813,
6.536566,-0.7514,0.7005,0.9931,-1.7279,0.0832,-1.2839,41.3813,-4.6313,21.8813,
6.540272,-0.7514,0.7005,0.9931,-1.7279,0.0832,-1.2839,41.4375,-3.5813,22.3688,
6.555735,-0.7514,0.7005,0.9931,-1.7279,0.0832,-1.2839,41.4375,-3.5813,22.3688,
6.576303,-0.3755,0.4822,1.6878,-1.7279,0.0832,-1.2839,41.4375,-3.5813,22.3688,
6.595927,-0.3755,0.4822,1.6878,-1.9405,0.0800,-0.6449,41.4375,-3.5813,22.3688,
6.598286,-0.3755,0.4822,1.6878,-1.9405,0.0800,-0.6449,41.5875,-2.4563,22.6125,
6.616735,-0.3755,0.4822,1.6878,-1.9405,0.0800,-0.6449,41.5875,-2.4563,22.6125,
6.660090,-0.3755,0.4822,1.6878,-1.9394,0.5224,-0.3101,41.5875,-2.4563,22.6125,
6.663499,0.7227,0.0816,0.4177,-1.9394,0.5224,-0.3101,41.5875,-2.4563,22.6125,
6.665293,0.7227,0.0816,0.4177,-1.9394,0.5224,-0.3101,41.9062,-1.4062,23.0625,
6.678470,0.7227,0.0816,0.4177,-1.9394,0.5224,-0.3101,41.9062,-1.4062,23.0625,
6.717981,0.7227,0.0816,0.4177,-1.4892,0.4009,-0.5852,41.9062,-1.4062,23.0625,
6.719727,0.9893,-0.4304,-0.4403,-1.4892,0.4009,-0.5852,41.9062,-1.4062,23.0625,
6.720515,0.9893,-0.4304,-0.4403,-1.4892,0.4009,-0.5852,41.8688,-0.7313,23.4750,
6.739835,0.9893,-0.4304,-0.4403,-1.4892,0.4009,-0.5852,41.8688,-0.7313,23.4750,
6.779987,0.9893,-0.4304,-0.4403,-1.4892,0.4009,-0.5852,41.5875,-0.3563,24.2625,
6.783261,0.9893,-0.4304,-0.4403,-0.8706,0.4642,-0.5686,41.5875,-0.3563,24.2625,
6.784665,-0.7755,-0.1695,-1.1661,-0.8706,0.4642,-0.5686,41.5875,-0.3563,24.2625,
6.799923,-0.7755,-0.1695,-1.1661,-0.8706,0.4642,-0.5686,41.5875,-0.3563,24.2625,
6.841045,-0.7755,-0.1695,-1.1661,-0.8706,0.4642,-0.5686,41.3063,-0.3375,25.2750,
6.842089,-0.7755,-0.1695,-1.1661,-1.1975,0.3715,0.4184,41.3063,-0.3375,25.2750,
6.860042,-0.7755,-0.1695,-1.1661,-1.1975,0.3715,0.4184,41.3063,-0.3375,25.2750,
6.862008,1.3545,-0.4718,0.5577,-1.1975,0.3715,0.4184,41.3063,-0.3375,25.2750,
6.897925,1.3545,-0.4718,0.5577,-1.1975,0.3715,0.4184,40.8750,-1.0875,26.3250,
6.900024,1.3545,-0.4718,0.5577,-1.0537,0.2643,0.5579,40.8750,-1.0875,26.3250,
6.921453,1.3545,-0.4718,0.5577,-1.0537,0.2643,0.5579,40.8750,-1.0875,26.3250,
6.924099,2.3523,-1.0062,-0.3131,-1.0537,0.2643,0.5579,40.8750,-1.0875,26.3250,
6.959683,2.3523,-1.0062,-0.3131,-1.0537,0.2643,0.5579,40.4625,-2.2875,27.0375,
6.961944,2.3523,-1.0062,-0.3131,-0.4442,0.0655,-0.2505,40.4625,-2.2875,27.0375,
6.981776,2.3523,-1.0062,-0.3131,-0.4442,0.0655,-0.2505,40.4625,-2.2875,27.0375,
6.983211,-0.6500,1.0386,-1.0938,-0.4442,0.0655,-0.2505,40.4625,-2.2875,27.0375,
7.023372,-0.6500,1.0386,-1.0938,-0.0193,0.0585,-0.2352,40.4625,-2.2875,27.0375,
7.027773,-0.6500,1.0386,-1.0938,-0.0193,0.0585,-0.2352,39.9938,-3.5813,27.9000,
7.042822,-0.6500,1.0386,-1.0938,-0.0193,0.0585,-0.2352,39.9938,-3.5813,27.9000,
7.044104,-0.2849,0.2244,-0.8159,-0.0193,0.0585,-0.2352,39.9938,-3.5813,27.9000,
7.079377,-0.2849,0.2244,-0.8159,-0.0193,0.0585,-0.2352,39.6938,-4.6500,28.3875,
7.083802,-0.2849,0.2244,-0.8159,0.2641,0.0137,0.0886,39.6938,-4.6500,28.3875,
7.104216,-0.2849,0.2244,-0.8159,0.2641,0.0137,0.0886,39.6938,-4.6500,28.3875,
7.123430,0.5405,0.2683,-0.6212,0.2641,0.0137,0.0886,39.6938,-4.6500,28.3875,
7.139312,0.5405,0.2683,-0.6212,0.2641,0.0137,0.0886,39.1688,-5.4750,28.9125,
7.143349,0.5405,0.2683,-0.6212,0.5451,0.0598,0.3023,39.1688,-5.4750,28.9125,
7.164543,0.5405,0.2683,-0.6212,0.5451,0.0598,0.3023,39.1688,-5.4750,28.9125,
7.185384,0.4044,0.2407,-0.7963,0.5451,0.0598,0.3023,39.1688,-5.4750,28.9125,
7.199303,0.4044,0.2407,-0.7963,0.5451,0.0598,0.3023,38.8313,-6.0375,29.3813,
7.204971,0.4044,0.2407,-0.7963,0.8601,0.0840,0.1827,38.8313,-6.0375,29.3813,
7.225993,0.4044,0.2407,-0.7963,0.8601,0.0840,0.1827,38.8313,-6.0375,29.3813,
7.245553,0.1186,0.3798,-1.0496,0.8601,0.0840,0.1827,38.8313,-6.0375,29.3813,
7.259306,0.1186,0.3798,-1.0496,0.8601,0.0840,0.1827,38.3625,-6.4500,29.7375,
7.266378,0.1186,0.3798,-1.0496,1.1019,0.2860,0.1567,38.3625,-6.4500,29.7375,
7.286674,0.1186,0.3798,-1.0496,1.1019,0.2860,0.1567,38.3625,-6.4500,29.7375,
7.320137,0.1186,0.3798,-1.0496,1.1019,0.2860,0.1567,37.9313,-6.5250,30.1313,
7.327223,0.4269,0.2839,-1.0673,1.1019,0.2860,0.1567,37.9313,-6.5250,30.1313,
7.329970,0.4269,0.2839,-1.0673,1.2040,0.6314,0.2625,37.9313,-6.5250,30.1313,
7.347551,0.4269,0.2839,-1.0673,1.2040,0.6314,0.2625,37.9313,-6.5250,30.1313,
7.379963,0.4269,0.2839,-1.0673,1.2040,0.6314,0.2625,37.4062,-5.9438,30.9000,
7.388634,0.4269,0.2839,-1.0673,1.1882,0.6229,0.2164,37.4062,-5.9438,30.9000,
7.390179,0.3291,0.3126,-0.7807,1.1882,0.6229,0.2164,37.4062,-5.9438,30.9000,
7.408402,0.3291,0.3126,-0.7807,1.1882,0.6229,0.2164,37.4062,-5.9438,30.9000,
7.442205,0.3291,0.3126,-0.7807,1.1882,0.6229,0.2164,36.8813,-4.9688,31.7250,
7.450314,0.3291,0.3126,-0.7807,1.1735,0.6300,0.1936,36.8813,-4.9688,31.7250,
7.451794,-0.0998,0.4313,-0.6722,1.1735,0.6300,0.1936,36.8813,-4.9688,31.7250,
7.469297,-0.0998,0.4313,-0.6722,1.1735,0.6300,0.1936,36.8813,-4.9688,31.7250,
7.501298,-0.0998,0.4313,-0.6722,1.1735,0.6300,0.1936,36.1313,-3.6750,32.4938,
7.511228,-0.1253,0.3447,-0.5728,1.1735,0.6300,0.1936,36.1313,-3.6750,32.4938,
7.513068,-0.1253,0.3447,-0.5728,1.1850,0.4688,0.0921,36.1313,-3.6750,32.4938,
7.530457,-0.1253,0.3447,-0.5728,1.1850,0.4688,0.0921,36.1313,-3.6750,32.4938,
7.557977,-0.1253,0.3447,-0.5728,1.1850,0.4688,0.0921,35.2688,-2.1375,33.5063,
7.569851,-0.1253,0.3447,-0.5728,1.0908,0.3296,0.0268,35.2688,-2.1375,33.5063,
7.591949,-0.1253,0.3447,-0.5728,1.0908,0.3296,0.0268,35.2688,-2.1375,33.5063,
7.594906,-0.4218,0.4826,-0.5906,1.0908,0.3296,0.0268,35.2688,-2.1375,33.5063,
7.620127,-0.4218,0.4826,-0.5906,1.0908,0.3296,0.0268,34.3688,-0.4500,34.2938,
7.633150,-0.4218,0.4826,-0.5906,0.6783,0.2381,-0.0123,34.3688,-0.4500,34.2938,
7.652329,-0.4218,0.4826,-0.5906,0.6783,0.2381,-0.0123,34.3688,-0.4500,34.2938,
7.654653,-0.5355,0.4751,0.3977,0.6783,0.2381,-0.0123,34.3688,-0.4500,34.2938,
7.679195,-0.5355,0.4751,0.3977,0.6783,0.2381,-0.0123,33.5063,1.3688,35.0438,
7.693141,-0.5355,0.4751,0.3977,0.2498,-0.0708,-0.0403,33.5063,1.3688,35.0438,
7.713898,-0.5355,0.4751,0.3977,0.2498,-0.0708,-0.0403,33.5063,1.3688,35.0438,
7.716031,-0.4549,0.4475,1.0882,0.2498,-0.0708,-0.0403,33.5063,1.3688,35.0438,
7.739706,-0.4549,0.4475,1.0882,0.2498,-0.0708,-0.0403,32.7938,2.8875,35.8313,
7.753024,-0.4549,0.4475,1.0882,0.0510,0.0896,0.0129,32.7938,2.8875,35.8313,
7.774051,-0.4549,0.4475,1.0882,0.0510,0.0896,0.0129,32.7938,2.8875,35.8313,
7.794434,0.1320,-0.0583,0.4417,0.0510,0.0896,0.0129,32.7938,2.8875,35.8313,
7.799982,0.1320,-0.0583,0.4417,0.0510,0.0896,0.0129,32.0250,4.2563,36.2812,
7.814302,0.1320,-0.0583,0.4417,-0.0089,-0.0342,-0.0193,32.0250,4.2563,36.2812,
7.835507,0.1320,-0.0583,0.4417,-0.0089,-0.0342,-0.0193,32.0250,4.2563,36.2812,
7.854880,0.0045,-0.1015,0.0125,-0.0089,-0.0342,-0.0193,32.0250,4.2563,36.2812,
7.859156,0.0045,-0.1015,0.0125,-0.0089,-0.0342,-0.0193,31.5188,5.4000,36.5813,
7.874596,0.0045,-0.1015,0.0125,0.0124,0.0772,0.1951,31.5188,5.4000,36.5813,
7.895933,0.0045,-0.1015,0.0125,0.0124,0.0772,0.1951,31.5188,5.4000,36.5813,
7.916440,0.2384,0.0011,0.0719,0.0124,0.0772,0.1951,31.5188,5.4000,36.5813,
7.919411,0.2384,0.0011,0.0719,0.0124,0.0772,0.1951,31.1438,6.3188,36.7688,
7.936316,0.2384,0.0011,0.0719,-0.0739,-0.1784,-0.0992,31.1438,6.3188,36.7688,
7.957170,0.2384,0.0011,0.0719,-0.0739,-0.1784,-0.0992,31.1438,6.3188,36.7688,
7.977457,-0.1939,-0.2909,0.4305,-0.0739,-0.1784,-0.0992,31.1438,6.3188,36.7688,
7.979726,-0.1939,-0.2909,0.4305,-0.0739,-0.1784,-0.0992,30.9750,7.0500,36.7500,
7.997533,-0.1939,-0.2909,0.4305,0.0585,-0.2486,-0.0957,30.9750,7.0500,36.7500,
8.018165,-0.1939,-0.2909,0.4305,0.0585,-0.2486,-0.0957,30.9750,7.0500,36.7500,
8.039403,-0.1939,-0.2909,0.4305,0.0585,-0.2486,-0.0957,30.9563,7.4625,36.7500,
8.058926,-0.1939,-0.2909,0.4305,0.0130,-0.0566,-0.0393,30.9563,7.4625,36.7500,
8.061430,-0.1260,0.5917,-0.0442,0.0130,-0.0566,-0.0393,30.9563,7.4625,36.7500,
8.077831,-0.1260,0.5917,-0.0442,0.0130,-0.0566,-0.0393,30.9563,7.4625,36.7500,
8.100009,-0.1260,0.5917,-0.0442,0.0130,-0.0566,-0.0393,31.1250,7.6500,36.6938,
8.119543,-0.1260,0.5917,-0.0442,-0.2798,-0.0523,0.0619,31.1250,7.6500,36.6938,
8.122054,0.7216,-0.4404,-0.1392,-0.2798,-0.0523,0.0619,31.1250,7.6500,36.6938,
8.141067,0.7216,-0.4404,-0.1392,-0.2798,-0.0523,0.0619,31.1250,7.6500,36.6938,
8.160227,0.7216,-0.4404,-0.1392,-0.2798,-0.0523,0.0619,31.2188,7.4250,36.6938,
8.180290,0.7216,-0.4404,-0.1392,-0.2113,0.0005,0.0772,31.2188,7.4250,36.6938,
8.182718,0.0412,-0.1481,0.4551,-0.2113,0.0005,0.0772,31.2188,7.4250,36.6938,
8.199713,0.0412,-0.1481,0.4551,-0.2113,0.0005,0.0772,31.2188,7.4250,36.6938,
8.219597,0.0412,-0.1481,0.4551,-0.2113,0.0005,0.0772,31.2938,7.3688,36.6375,
8.243460,0.0412,-0.1481,0.4551,-0.1704,-0.0374,0.0393,31.2938,7.3688,36.6375,
8.262691,0.0412,-0.1481,0.4551,-0.1704,-0.0374,0.0393,31.2938,7.3688,36.6375,
8.263264,-0.0850,0.2072,0.2116,-0.1704,-0.0374,0.0393,31.2938,7.3688,36.6375,
