
time,ax,ay,az,wx,wy,wz,Bx,By,Bz,
0.078229,0.0000,0.0000,0.0000,-0.0177,-0.0019,-0.0422,0.0000,0.0000,0.0000,
0.105857,0.0000,0.0000,0.0000,-0.0177,-0.0019,-0.0422,0.0000,0.0000,0.0000,
0.133392,0.0000,0.0000,0.0000,-0.0177,-0.0019,-0.0422,45.1313,10.7625,0.4125,
0.147279,0.0000,0.0000,0.0000,-0.0177,-0.0019,-0.0422,45.1313,10.7625,0.4125,
0.166386,0.0000,0.0000,0.0000,-0.0134,0.0005,-0.0036,45.1313,10.7625,0.4125,
0.194430,0.0000,0.0000,0.0000,-0.0134,0.0005,-0.0036,45.2250,10.4250,0.6562,
0.206717,0.0000,0.0000,0.0000,-0.0134,0.0005,-0.0036,45.2250,10.4250,0.6562,
0.207267,0.0000,0.0000,0.0000,-0.0134,0.0005,-0.0036,45.2250,10.4250,0.6562,
0.228095,0.0000,0.0000,0.0000,-0.0084,0.0112,-0.0079,45.2250,10.4250,0.6562,
0.253708,0.0000,0.0000,0.0000,-0.0084,0.0112,-0.0079,45.3375,10.0875,0.8813,
0.268098,0.0000,0.0000,0.0000,-0.0084,0.0112,-0.0079,45.3375,10.0875,0.8813,
0.269180,0.0070,0.0232,0.0059,-0.0084,0.0112,-0.0079,45.3375,10.0875,0.8813,
0.288640,0.0070,0.0232,0.0059,-0.0081,0.0165,-0.0017,45.3375,10.0875,0.8813,
0.315951,0.0070,0.0232,0.0059,-0.0081,0.0165,-0.0017,45.6375,10.2938,0.9000,
0.329430,0.0070,0.0232,0.0059,-0.0081,0.0165,-0.0017,45.6375,10.2938,0.9000,
0.330063,0.0134,0.0118,-0.0018,-0.0081,0.0165,-0.0017,45.6375,10.2938,0.9000,
0.349519,0.0134,0.0118,-0.0018,-0.0024,-0.0069,-0.0089,45.6375,10.2938,0.9000,
0.373594,0.0134,0.0118,-0.0018,-0.0024,-0.0069,-0.0089,45.6375,10.3500,0.9938,
0.389909,0.0134,0.0118,-0.0018,-0.0024,-0.0069,-0.0089,45.6375,10.3500,0.9938,
0.410907,0.0134,0.0118,-0.0018,0.0057,0.0108,-0.0064,45.6375,10.3500,0.9938,
0.411792,-0.0017,0.0023,-0.0112,0.0057,0.0108,-0.0064,45.6375,10.3500,0.9938,
0.433436,-0.0017,0.0023,-0.0112,0.0057,0.0108,-0.0064,45.7688,10.4438,1.0688,
0.451054,-0.0017,0.0023,-0.0112,0.0057,0.0108,-0.0064,45.7688,10.4438,1.0688,
0.471818,-0.0017,0.0023,-0.0112,0.0164,0.0031,-0.0166,45.7688,10.4438,1.0688,
0.473648,0.0079,-0.0093,-0.0144,0.0164,0.0031,-0.0166,45.7688,10.4438,1.0688,
0.494610,0.0079,-0.0093,-0.0144,0.0164,0.0031,-0.0166,45.7875,10.4813,1.2000,
0.517838,0.0079,-0.0093,-0.0144,0.0164,0.0031,-0.0166,45.7875,10.4813,1.2000,
0.531571,0.0079,-0.0093,-0.0144,0.0257,0.0005,-0.0068,45.7875,10.4813,1.2000,
0.532342,0.0119,0.0046,-0.0147,0.0257,0.0005,-0.0068,45.7875,10.4813,1.2000,
0.553706,0.0119,0.0046,-0.0147,0.0257,0.0005,-0.0068,45.8438,10.5188,1.1813,
0.573801,0.0119,0.0046,-0.0147,0.0257,0.0005,-0.0068,45.8438,10.5188,1.1813,
0.593733,0.0119,0.0046,-0.0147,0.0121,-0.0027,-0.0071,45.8438,10.5188,1.1813,
0.594907,0.0182,-0.0260,-0.0104,0.0121,-0.0027,-0.0071,45.8438,10.5188,1.1813,
0.614862,0.0182,-0.0260,-0.0104,0.0121,-0.0027,-0.0071,46.0125,10.4062,1.3313,
0.635087,0.0182,-0.0260,-0.0104,0.0121,-0.0027,-0.0071,46.0125,10.4062,1.3313,
0.655088,0.0182,-0.0260,-0.0104,0.0087,-0.0385,-0.0134,46.0125,10.4062,1.3313,
0.674251,0.0182,-0.0260,-0.0104,0.0087,-0.0385,-0.0134,45.9938,10.5000,1.3500,
0.675122,-0.0127,0.0261,0.0093,0.0087,-0.0385,-0.0134,45.9938,10.5000,1.3500,
0.694667,-0.0127,0.0261,0.0093,0.0087,-0.0385,-0.0134,45.9938,10.5000,1.3500,
0.715694,-0.0127,0.0261,0.0093,0.0193,0.0289,0.0181,45.9938,10.5000,1.3500,
0.735454,-0.0127,0.0261,0.0093,0.0193,0.0289,0.0181,45.9000,10.5375,1.2188,
0.736603,0.0440,0.0262,-0.0076,0.0193,0.0289,0.0181,45.9000,10.5375,1.2188,
0.755805,0.0440,0.0262,-0.0076,0.0193,0.0289,0.0181,45.9000,10.5375,1.2188,
0.775502,0.0440,0.0262,-0.0076,0.0196,-0.0455,-0.0134,45.9000,10.5375,1.2188,
0.795102,0.0440,0.0262,-0.0076,0.0196,-0.0455,-0.0134,45.7688,10.4250,1.3688,
0.796600,-0.0398,-0.0420,-0.0042,0.0196,-0.0455,-0.0134,45.7688,10.4250,1.3688,
0.816268,-0.0398,-0.0420,-0.0042,0.0196,-0.0455,-0.0134,45.7688,10.4250,1.3688,
0.836512,-0.0398,-0.0420,-0.0042,0.0164,0.0073,0.0138,45.7688,10.4250,1.3688,
0.853645,-0.0398,-0.0420,-0.0042,0.0164,0.0073,0.0138,45.8813,10.2000,1.4813,
0.876770,-0.0398,-0.0420,-0.0042,0.0164,0.0073,0.0138,45.8813,10.2000,1.4813,
0.877994,0.0306,0.0234,0.0013,0.0164,0.0073,0.0138,45.8813,10.2000,1.4813,
0.897701,0.0306,0.0234,0.0013,0.0108,-0.0112,0.0017,45.8813,10.2000,1.4813,
0.914739,0.0306,0.0234,0.0013,0.0108,-0.0112,0.0017,45.7313,9.9750,1.4625,
0.939363,0.0306,0.0234,0.0013,0.0108,-0.0112,0.0017,45.7313,9.9750,1.4625,
0.940519,-0.0187,0.0019,0.0195,0.0108,-0.0112,0.0017,45.7313,9.9750,1.4625,
0.958266,-0.0187,0.0019,0.0195,0.0172,-0.0463,-0.0149,45.7313,9.9750,1.4625,
0.973694,-0.0187,0.0019,0.0195,0.0172,-0.0463,-0.0149,45.7500,9.8813,1.3875,
0.999527,-0.0187,0.0019,0.0195,0.0172,-0.0463,-0.0149,45.7500,9.8813,1.3875,
1.000731,-0.0083,-0.0012,0.0157,0.0172,-0.0463,-0.0149,45.7500,9.8813,1.3875,
1.019180,-0.0083,-0.0012,0.0157,0.0015,-0.0268,-0.0111,45.7500,9.8813,1.3875,
1.034226,-0.0083,-0.0012,0.0157,0.0015,-0.0268,-0.0111,45.6750,9.7688,1.2750,
1.060650,-0.0083,-0.0012,0.0157,0.0015,-0.0268,-0.0111,45.6750,9.7688,1.2750,
1.062226,-0.0083,0.0176,0.0061,0.0015,-0.0268,-0.0111,45.6750,9.7688,1.2750,
1.079806,-0.0083,0.0176,0.0061,0.0065,0.0148,-0.0007,45.6750,9.7688,1.2750,
1.094096,-0.0083,0.0176,0.0061,0.0065,0.0148,-0.0007,45.6938,9.8625,1.1438,
1.122347,-0.0083,0.0176,0.0061,0.0065,0.0148,-0.0007,45.6938,9.8625,1.1438,
1.140720,-0.0083,0.0176,0.0061,0.0115,0.0297,0.0064,45.6938,9.8625,1.1438,
1.141564,0.0118,0.0134,-0.0295,0.0115,0.0297,0.0064,45.6938,9.8625,1.1438,
1.154869,0.0118,0.0134,-0.0295,0.0115,0.0297,0.0064,45.7688,9.7313,1.2750,
1.181583,0.0118,0.0134,-0.0295,0.0115,0.0297,0.0064,45.7688,9.7313,1.2750,
1.201479,0.0118,0.0134,-0.0295,0.0029,0.0095,0.0071,45.7688,9.7313,1.2750,
1.202260,0.0440,-0.0242,0.0098,0.0029,0.0095,0.0071,45.7688,9.7313,1.2750,
1.214179,0.0440,-0.0242,0.0098,0.0029,0.0095,0.0071,45.7875,9.9000,1.3125,
1.241848,0.0440,-0.0242,0.0098,0.0029,0.0095,0.0071,45.7875,9.9000,1.3125,
1.262985,0.0440,-0.0242,0.0098,0.0061,0.0127,0.0004,45.7875,9.9000,1.3125,
1.264034,-0.0171,0.0071,0.0181,0.0061,0.0127,0.0004,45.7875,9.9000,1.3125,
1.273072,-0.0171,0.0071,0.0181,0.0061,0.0127,0.0004,45.8438,9.9563,1.1625,
1.302131,-0.0171,0.0071,0.0181,0.0061,0.0127,0.0004,45.8438,9.9563,1.1625,
1.322738,-0.0171,0.0071,0.0181,0.0178,-0.0037,-0.0039,45.8438,9.9563,1.1625,
1.334175,-0.0171,0.0071,0.0181,0.0178,-0.0037,-0.0039,45.7125,10.1438,0.9188,
1.343178,0.0158,0.0016,-0.0170,0.0178,-0.0037,-0.0039,45.7125,10.1438,0.9188,
1.364334,0.0158,0.0016,-0.0170,0.0178,-0.0037,-0.0039,45.7125,10.1438,0.9188,
1.384374,0.0158,0.0016,-0.0170,0.0178,0.0016,-0.0060,45.7125,10.1438,0.9188,
1.394394,0.0158,0.0016,-0.0170,0.0178,0.0016,-0.0060,45.7688,10.3875,0.8625,
1.404906,-0.0032,-0.0065,0.0193,0.0178,0.0016,-0.0060,45.7688,10.3875,0.8625,
1.425045,-0.0032,-0.0065,0.0193,0.0178,0.0016,-0.0060,45.7688,10.3875,0.8625,
1.445615,-0.0032,-0.0065,0.0193,0.0093,0.0033,0.0028,45.7688,10.3875,0.8625,
1.454842,-0.0032,-0.0065,0.0193,0.0093,0.0033,0.0028,45.6562,10.2750,0.9000,
1.466585,0.0135,0.0152,-0.0120,0.0093,0.0033,0.0028,45.6562,10.2750,0.9000,
1.487449,0.0135,0.0152,-0.0120,0.0093,0.0033,0.0028,45.6562,10.2750,0.9000,
1.506395,0.0135,0.0152,-0.0120,0.0108,0.0069,-0.0021,45.6562,10.2750,0.9000,
1.513056,0.0135,0.0152,-0.0120,0.0108,0.0069,-0.0021,45.6000,10.4438,0.8813,
1.526538,-0.0024,-0.0011,0.0124,0.0108,0.0069,-0.0021,45.6000,10.4438,0.8813,
1.546872,-0.0024,-0.0011,0.0124,0.0108,0.0069,-0.0021,45.6000,10.4438,0.8813,
1.566864,-0.0024,-0.0011,0.0124,0.0334,0.0517,0.0000,45.6000,10.4438,0.8813,
1.573641,-0.0024,-0.0011,0.0124,0.0334,0.0517,0.0000,45.4875,10.4625,0.8813,
1.608162,-0.0024,-0.0011,0.0124,0.0334,0.0517,0.0000,45.4875,10.4625,0.8813,
1.609529,0.0151,0.0027,-0.0183,0.0334,0.0517,0.0000,45.4875,10.4625,0.8813,
1.630381,0.0151,0.0027,-0.0183,0.0651,-0.0463,-0.0142,45.4875,10.4625,0.8813,
1.633829,0.0151,0.0027,-0.0183,0.0651,-0.0463,-0.0142,45.6000,10.5188,0.7875,
1.668451,0.0151,0.0027,-0.0183,0.0651,-0.0463,-0.0142,45.6000,10.5188,0.7875,
1.669112,-0.0276,-0.0469,0.1269,0.0651,-0.0463,-0.0142,45.6000,10.5188,0.7875,
1.688711,-0.0276,-0.0469,0.1269,-0.0258,-0.0391,-0.0160,45.6000,10.5188,0.7875,
1.695876,-0.0276,-0.0469,0.1269,-0.0258,-0.0391,-0.0160,45.6750,10.4438,0.8063,
1.729961,-0.0276,-0.0469,0.1269,-0.0258,-0.0391,-0.0160,45.6750,10.4438,0.8063,
1.731649,-0.0423,0.0818,-0.1131,-0.0258,-0.0391,-0.0160,45.6750,10.4438,0.8063,
1.749702,-0.0423,0.0818,-0.1131,-0.0503,0.0101,0.0079,45.6750,10.4438,0.8063,
1.755175,-0.0423,0.0818,-0.1131,-0.0503,0.0101,0.0079,45.8250,10.4625,0.8813,
1.790721,-0.0423,0.0818,-0.1131,-0.0503,0.0101,0.0079,45.8250,10.4625,0.8813,
1.811504,-0.0423,0.0818,-0.1131,-0.0489,0.0314,0.0081,45.8250,10.4625,0.8813,
1.812592,0.0260,0.0020,-0.0157,-0.0489,0.0314,0.0081,45.8250,10.4625,0.8813,
1.813332,0.0260,0.0020,-0.0157,-0.0489,0.0314,0.0081,45.9000,10.5000,0.9000,
1.853173,0.0260,0.0020,-0.0157,-0.0489,0.0314,0.0081,45.9000,10.5000,0.9000,
1.871564,0.0260,0.0020,-0.0157,-0.0212,0.0329,0.0025,45.9000,10.5000,0.9000,
1.872468,0.0346,-0.0092,0.0551,-0.0212,0.0329,0.0025,45.9000,10.5000,0.9000,
1.873394,0.0346,-0.0092,0.0551,-0.0212,0.0329,0.0025,45.9188,10.3688,1.1063,
1.912829,0.0346,-0.0092,0.0551,-0.0212,0.0329,0.0025,45.9188,10.3688,1.1063,
1.931400,0.0346,-0.0092,0.0551,-0.0137,0.0069,-0.0049,45.9188,10.3688,1.1063,
1.936510,0.0346,-0.0092,0.0551,-0.0137,0.0069,-0.0049,45.9938,10.6313,1.0875,
1.937540,0.0079,-0.0214,0.0444,-0.0137,0.0069,-0.0049,45.9938,10.6313,1.0875,
1.974102,0.0079,-0.0214,0.0444,-0.0137,0.0069,-0.0049,45.9938,10.6313,1.0875,
1.994666,0.0079,-0.0214,0.0444,-0.0148,0.0023,-0.0081,45.9938,10.6313,1.0875,
1.995921,-0.0190,-0.0024,0.0410,-0.0148,0.0023,-0.0081,45.9938,10.6313,1.0875,
1.996834,-0.0190,-0.0024,0.0410,-0.0148,0.0023,-0.0081,46.0312,10.5563,1.2750,
2.036514,-0.0190,-0.0024,0.0410,-0.0148,0.0023,-0.0081,46.0312,10.5563,1.2750,
2.056601,-0.0190,-0.0024,0.0410,-0.0148,0.0023,-0.0081,45.9750,10.4438,1.4062,
2.058385,-0.0190,-0.0024,0.0410,-0.0045,0.0172,-0.0096,45.9750,10.4438,1.4062,
2.074688,-0.0056,-0.0004,0.0054,-0.0045,0.0172,-0.0096,45.9750,10.4438,1.4062,
2.094605,-0.0056,-0.0004,0.0054,-0.0045,0.0172,-0.0096,45.9750,10.4438,1.4062,
2.112765,-0.0056,-0.0004,0.0054,-0.0045,0.0172,-0.0096,45.8063,10.5000,1.2375,
2.113717,-0.0056,-0.0004,0.0054,-0.0009,-0.0029,-0.0138,45.8063,10.5000,1.2375,
2.135397,-0.0010,0.0019,-0.0115,-0.0009,-0.0029,-0.0138,45.8063,10.5000,1.2375,
2.156905,-0.0010,0.0019,-0.0115,-0.0009,-0.0029,-0.0138,45.8063,10.5000,1.2375,
2.173742,-0.0010,0.0019,-0.0115,-0.0009,-0.0029,-0.0138,45.9188,10.5750,1.2563,
2.175002,-0.0010,0.0019,-0.0115,0.0004,-0.0072,-0.0113,45.9188,10.5750,1.2563,
2.194473,0.0027,-0.0031,0.0101,0.0004,-0.0072,-0.0113,45.9188,10.5750,1.2563,
2.216619,0.0027,-0.0031,0.0101,0.0004,-0.0072,-0.0113,45.9188,10.5750,1.2563,
2.233645,0.0027,-0.0031,0.0101,0.0004,-0.0072,-0.0113,45.7125,10.6500,1.2375,
2.236888,0.0027,-0.0031,0.0101,0.0185,-0.0055,-0.0142,45.7125,10.6500,1.2375,
2.277932,0.0027,-0.0031,0.0101,0.0185,-0.0055,-0.0142,45.7125,10.6500,1.2375,
2.278880,0.0120,-0.0143,-0.0378,0.0185,-0.0055,-0.0142,45.7125,10.6500,1.2375,
2.292894,0.0120,-0.0143,-0.0378,0.0185,-0.0055,-0.0142,45.6000,10.7063,1.2750,
2.297561,0.0120,-0.0143,-0.0378,0.1037,-0.0858,-0.0383,45.6000,10.7063,1.2750,
2.338107,0.0120,-0.0143,-0.0378,0.1037,-0.0858,-0.0383,45.6000,10.7063,1.2750,
2.338692,0.0259,-0.1098,0.1855,0.1037,-0.0858,-0.0383,45.6000,10.7063,1.2750,
2.353765,0.0259,-0.1098,0.1855,0.1037,-0.0858,-0.0383,45.5625,10.7812,1.0500,
2.357851,0.0259,-0.1098,0.1855,0.0089,-0.0008,-0.0192,45.5625,10.7812,1.0500,
2.399461,-0.0425,0.1324,-0.2754,0.0089,-0.0008,-0.0192,45.5625,10.7812,1.0500,
2.401135,-0.0425,0.1324,-0.2754,0.0089,-0.0008,-0.0192,45.5625,10.7812,1.0500,
2.412559,-0.0425,0.1324,-0.2754,0.0089,-0.0008,-0.0192,45.5250,10.7625,0.9563,
2.418863,-0.0425,0.1324,-0.2754,0.0023,0.0140,-0.0266,45.5250,10.7625,0.9563,
2.461492,-0.0425,0.1324,-0.2754,0.0023,0.0140,-0.0266,45.5250,10.7625,0.9563,
2.462626,-0.0293,0.0010,-0.0328,0.0023,0.0140,-0.0266,45.5250,10.7625,0.9563,
2.473428,-0.0293,0.0010,-0.0328,0.0023,0.0140,-0.0266,45.5438,10.7438,0.7500,
2.481775,-0.0293,0.0010,-0.0328,-0.0190,0.0278,-0.0288,45.5438,10.7438,0.7500,
2.520472,-0.0293,0.0010,-0.0328,-0.0190,0.0278,-0.0288,45.5438,10.7438,0.7500,
2.534879,-0.0293,0.0010,-0.0328,-0.0190,0.0278,-0.0288,45.5813,11.0063,0.6000,
2.540984,-0.0293,0.0010,-0.0328,0.0988,-0.0080,-0.0589,45.5813,11.0063,0.6000,
2.541666,-0.0169,0.0007,0.0085,0.0988,-0.0080,-0.0589,45.5813,11.0063,0.6000,
2.582738,-0.0169,0.0007,0.0085,0.0988,-0.0080,-0.0589,45.5813,11.0063,0.6000,
2.592608,-0.0169,0.0007,0.0085,0.0988,-0.0080,-0.0589,45.5625,11.1750,0.6938,
2.602312,0.0847,-0.1097,0.0122,0.0988,-0.0080,-0.0589,45.5625,11.1750,0.6938,
2.603480,0.0847,-0.1097,0.0122,0.0466,-0.0112,-0.0514,45.5625,11.1750,0.6938,
2.643333,0.0847,-0.1097,0.0122,0.0466,-0.0112,-0.0514,45.5625,11.1750,0.6938,
2.654075,0.0847,-0.1097,0.0122,0.0466,-0.0112,-0.0514,45.3938,11.0625,0.7500,
2.665877,0.0847,-0.1097,0.0122,0.0072,-0.0072,-0.0376,45.3938,11.0625,0.7500,
2.668277,-0.1042,0.0923,-0.0303,0.0072,-0.0072,-0.0376,45.3938,11.0625,0.7500,
2.704678,-0.1042,0.0923,-0.0303,0.0072,-0.0072,-0.0376,45.3938,11.0625,0.7500,
2.712241,-0.1042,0.0923,-0.0303,0.0072,-0.0072,-0.0376,45.4500,11.0250,0.7125,
2.725525,-0.1042,0.0923,-0.0303,0.0136,-0.0157,-0.0326,45.4500,11.0250,0.7125,
2.744770,0.0095,0.0176,0.0525,0.0136,-0.0157,-0.0326,45.4500,11.0250,0.7125,
2.764883,0.0095,0.0176,0.0525,0.0136,-0.0157,-0.0326,45.4500,11.0250,0.7125,
2.776445,0.0095,0.0176,0.0525,0.0136,-0.0157,-0.0326,45.5625,11.1000,0.7313,
2.784072,0.0095,0.0176,0.0525,0.1374,-0.0800,-0.0465,45.5625,11.1000,0.7313,
2.806324,0.0401,-0.0536,0.0552,0.1374,-0.0800,-0.0465,45.5625,11.1000,0.7313,
2.826374,0.0401,-0.0536,0.0552,0.1374,-0.0800,-0.0465,45.5625,11.1000,0.7313,
2.834815,0.0401,-0.0536,0.0552,0.1374,-0.0800,-0.0465,45.4688,11.1750,0.6938,
2.846207,0.0401,-0.0536,0.0552,0.1776,-0.0129,-0.0461,45.4688,11.1750,0.6938,
2.867383,0.1022,-0.1502,-0.1002,0.1776,-0.0129,-0.0461,45.4688,11.1750,0.6938,
2.886963,0.1022,-0.1502,-0.1002,0.1776,-0.0129,-0.0461,45.4688,11.1750,0.6938,
2.894026,0.1022,-0.1502,-0.1002,0.1776,-0.0129,-0.0461,45.4125,11.2313,0.5813,
2.908981,0.1022,-0.1502,-0.1002,0.0715,-0.0395,-0.0113,45.4125,11.2313,0.5813,
2.928138,-0.0188,0.1032,-0.1783,0.0715,-0.0395,-0.0113,45.4125,11.2313,0.5813,
2.946544,-0.0188,0.1032,-0.1783,0.0715,-0.0395,-0.0113,45.4125,11.2313,0.5813,
2.952633,-0.0188,0.1032,-0.1783,0.0715,-0.0395,-0.0113,45.3563,11.4563,0.4688,
2.966722,-0.0188,0.1032,-0.1783,0.0044,-0.0868,0.0004,45.3563,11.4563,0.4688,
3.009507,-0.0188,0.1032,-0.1783,0.0044,-0.0868,0.0004,45.3563,11.4563,0.4688,
3.010784,-0.0790,0.0983,0.0996,0.0044,-0.0868,0.0004,45.3563,11.4563,0.4688,
3.012561,-0.0790,0.0983,0.0996,0.0044,-0.0868,0.0004,45.3000,11.7188,0.1875,
3.028657,-0.0790,0.0983,0.0996,-0.0169,-0.1486,0.0028,45.3000,11.7188,0.1875,
3.069566,-0.0790,0.0983,0.0996,-0.0169,-0.1486,0.0028,45.3000,11.7188,0.1875,
3.070751,-0.0642,0.0055,0.0786,-0.0169,-0.1486,0.0028,45.3000,11.7188,0.1875,
3.076048,-0.0642,0.0055,0.0786,-0.0169,-0.1486,0.0028,45.3000,11.5875,-0.0563,
3.089501,-0.0642,0.0055,0.0786,-0.0734,-0.0796,0.0230,45.3000,11.5875,-0.0563,
3.131757,-0.0642,0.0055,0.0786,-0.0734,-0.0796,0.0230,45.3000,11.5875,-0.0563,
3.133910,0.2113,-0.0647,-0.0829,-0.0734,-0.0796,0.0230,45.3000,11.5875,-0.0563,
3.135510,0.2113,-0.0647,-0.0829,-0.0734,-0.0796,0.0230,45.4875,11.8125,-0.2625,
3.150790,0.2113,-0.0647,-0.0829,-0.0358,-0.1148,0.0550,45.4875,11.8125,-0.2625,
3.192255,0.2113,-0.0647,-0.0829,-0.0358,-0.1148,0.0550,45.4875,11.8125,-0.2625,
3.194868,0.2113,-0.0647,-0.0829,-0.0358,-0.1148,0.0550,45.4500,11.8313,-0.6750,
3.211491,0.2113,-0.0647,-0.0829,0.0686,-0.4823,0.0490,45.4500,11.8313,-0.6750,
3.213367,0.1304,-0.0067,0.3874,0.0686,-0.4823,0.0490,45.4500,11.8313,-0.6750,
3.252780,0.1304,-0.0067,0.3874,0.0686,-0.4823,0.0490,45.4500,11.8313,-0.6750,
3.253623,0.1304,-0.0067,0.3874,0.0686,-0.4823,0.0490,45.3563,11.8688,-1.2188,
3.272918,-0.2709,-0.0818,-0.4759,0.0686,-0.4823,0.0490,45.3563,11.8688,-1.2188,
3.274447,-0.2709,-0.0818,-0.4759,0.1108,-0.8000,0.0916,45.3563,11.8688,-1.2188,
3.314420,-0.2709,-0.0818,-0.4759,0.1108,-0.8000,0.0916,45.2625,11.8313,-1.8750,
3.316335,-0.2709,-0.0818,-0.4759,0.1108,-0.8000,0.0916,45.2625,11.8313,-1.8750,
3.334614,-0.2709,-0.0818,-0.4759,0.0023,-0.3438,0.1434,45.2625,11.8313,-1.8750,
3.335696,0.3257,-0.0412,-0.5895,0.0023,-0.3438,0.1434,45.2625,11.8313,-1.8750,
3.376580,0.3257,-0.0412,-0.5895,0.0023,-0.3438,0.1434,45.2625,11.8313,-1.8750,
3.378100,0.3257,-0.0412,-0.5895,0.0023,-0.3438,0.1434,45.3750,11.7750,-2.5500,
3.394515,0.0197,0.4085,0.7472,0.0023,-0.3438,0.1434,45.3750,11.7750,-2.5500,
3.396117,0.0197,0.4085,0.7472,-0.0563,-0.0314,0.1413,45.3750,11.7750,-2.5500,
3.435075,0.0197,0.4085,0.7472,-0.0563,-0.0314,0.1413,45.3000,11.4000,-3.1125,
3.437000,0.0197,0.4085,0.7472,-0.0563,-0.0314,0.1413,45.3000,11.4000,-3.1125,
3.457384,0.0197,0.4085,0.7472,-0.2768,0.1716,0.2368,45.3000,11.4000,-3.1125,
3.478381,0.6742,-0.1955,0.1001,-0.2768,0.1716,0.2368,45.3000,11.4000,-3.1125,
3.494622,0.6742,-0.1955,0.1001,-0.2768,0.1716,0.2368,45.3000,11.4000,-3.1125,
3.496280,0.6742,-0.1955,0.1001,-0.2768,0.1716,0.2368,45.3938,10.9125,-3.4500,
3.515470,0.6742,-0.1955,0.1001,-0.4735,-0.0445,0.2649,45.3938,10.9125,-3.4500,
3.537666,-0.2327,0.5701,1.0346,-0.4735,-0.0445,0.2649,45.3938,10.9125,-3.4500,
3.554120,-0.2327,0.5701,1.0346,-0.4735,-0.0445,0.2649,45.5250,10.6125,-3.8250,
3.555414,-0.2327,0.5701,1.0346,-0.4735,-0.0445,0.2649,45.5250,10.6125,-3.8250,
3.578383,-0.2327,0.5701,1.0346,-0.7234,-0.2117,0.3000,45.5250,10.6125,-3.8250,
3.598991,-0.0434,-0.2035,0.4559,-0.7234,-0.2117,0.3000,45.5250,10.6125,-3.8250,
3.615063,-0.0434,-0.2035,0.4559,-0.7234,-0.2117,0.3000,45.4313,10.1063,-4.3875,
3.616729,-0.0434,-0.2035,0.4559,-0.7234,-0.2117,0.3000,45.4313,10.1063,-4.3875,
3.637431,-0.0434,-0.2035,0.4559,-0.6687,-0.3186,0.1176,45.4313,10.1063,-4.3875,
3.673868,-0.0434,-0.2035,0.4559,-0.6687,-0.3186,0.1176,45.3938,9.7125,-4.8563,
3.678500,-0.0434,-0.2035,0.4559,-0.6687,-0.3186,0.1176,45.3938,9.7125,-4.8563,
3.679218,-0.3167,-0.0085,-0.2498,-0.6687,-0.3186,0.1176,45.3938,9.7125,-4.8563,
3.699039,-0.3167,-0.0085,-0.2498,-0.4171,-0.4163,0.0419,45.3938,9.7125,-4.8563,
3.735806,-0.3167,-0.0085,-0.2498,-0.4171,-0.4163,0.0419,45.3750,9.3000,-5.1562,
3.742146,-0.3167,-0.0085,-0.2498,-0.4171,-0.4163,0.0419,45.3750,9.3000,-5.1562,
3.744146,-0.4727,0.0508,0.2724,-0.4171,-0.4163,0.0419,45.3750,9.3000,-5.1562,
3.758999,-0.4727,0.0508,0.2724,-0.3280,-0.0146,0.0827,45.3750,9.3000,-5.1562,
3.794772,-0.4727,0.0508,0.2724,-0.3280,-0.0146,0.0827,45.6000,8.9813,-5.4375,
3.800159,-0.4727,0.0508,0.2724,-0.3280,-0.0146,0.0827,45.6000,8.9813,-5.4375,
3.801050,0.6894,-0.5962,-0.8248,-0.3280,-0.0146,0.0827,45.6000,8.9813,-5.4375,
3.820452,0.6894,-0.5962,-0.8248,-0.2147,-0.2345,-0.0838,45.6000,8.9813,-5.4375,
3.856503,0.6894,-0.5962,-0.8248,-0.2147,-0.2345,-0.0838,45.5063,8.5688,-5.5125,
3.860332,0.6894,-0.5962,-0.8248,-0.2147,-0.2345,-0.0838,45.5063,8.5688,-5.5125,
3.863284,-0.1582,-0.1335,-0.7349,-0.2147,-0.2345,-0.0838,45.5063,8.5688,-5.5125,
3.881489,-0.1582,-0.1335,-0.7349,0.0387,0.1312,0.1899,45.5063,8.5688,-5.5125,
3.915281,-0.1582,-0.1335,-0.7349,0.0387,0.1312,0.1899,45.6750,8.2125,-5.5875,
3.922728,-0.1582,-0.1335,-0.7349,0.0387,0.1312,0.1899,45.6750,8.2125,-5.5875,
3.942415,-0.1582,-0.1335,-0.7349,0.4555,-0.3037,0.1431,45.6750,8.2125,-5.5875,
3.947139,0.5627,0.3632,0.6010,0.4555,-0.3037,0.1431,45.6750,8.2125,-5.5875,
3.974201,0.5627,0.3632,0.6010,0.4555,-0.3037,0.1431,45.7313,7.8938,-5.8875,
3.982169,0.5627,0.3632,0.6010,0.4555,-0.3037,0.1431,45.7313,7.8938,-5.8875,
4.003641,0.5627,0.3632,0.6010,1.1826,-0.8181,-0.0980,45.7313,7.8938,-5.8875,
4.005869,-0.8802,-0.3267,-1.0812,1.1826,-0.8181,-0.0980,45.7313,7.8938,-5.8875,
4.034420,-0.8802,-0.3267,-1.0812,1.1826,-0.8181,-0.0980,45.6000,7.7438,-6.6563,
4.044018,-0.8802,-0.3267,-1.0812,1.1826,-0.8181,-0.0980,45.6000,7.7438,-6.6563,
4.063897,-0.8802,-0.3267,-1.0812,1.7790,-1.3903,-0.6344,45.6000,7.7438,-6.6563,
4.066156,-2.0547,-0.5978,-2.0603,1.7790,-1.3903,-0.6344,45.6000,7.7438,-6.6563,
4.093798,-2.0547,-0.5978,-2.0603,1.7790,-1.3903,-0.6344,45.2438,7.5000,-8.0438,
4.105456,-2.0547,-0.5978,-2.0603,1.7790,-1.3903,-0.6344,45.2438,7.5000,-8.0438,
4.125764,-2.0547,-0.5978,-2.0603,2.6980,-1.0726,-0.9017,45.2438,7.5000,-8.0438,
4.144994,-0.1841,0.1101,-1.5339,2.6980,-1.0726,-0.9017,45.2438,7.5000,-8.0438,
4.156960,-0.1841,0.1101,-1.5339,2.6980,-1.0726,-0.9017,44.7375,7.2375,-9.7313,
4.166015,-0.1841,0.1101,-1.5339,2.6980,-1.0726,-0.9017,44.7375,7.2375,-9.7313,
4.185618,-0.1841,0.1101,-1.5339,4.4930,-1.0868,-0.8964,44.7375,7.2375,-9.7313,
4.206770,2.3036,-1.3982,-0.8546,4.4930,-1.0868,-0.8964,44.7375,7.2375,-9.7313,
4.213582,2.3036,-1.3982,-0.8546,4.4930,-1.0868,-0.8964,43.9875,6.3375,-12.1313,
4.226608,2.3036,-1.3982,-0.8546,4.4930,-1.0868,-0.8964,43.9875,6.3375,-12.1313,
4.249139,2.3036,-1.3982,-0.8546,6.0667,1.2374,-2.1952,43.9875,6.3375,-12.1313,
4.266795,4.3769,2.1495,0.6009,6.0667,1.2374,-2.1952,43.9875,6.3375,-12.1313,
4.274443,4.3769,2.1495,0.6009,6.0667,1.2374,-2.1952,43.8563,8.4188,-12.1875,
4.287125,4.3769,2.1495,0.6009,6.0667,1.2374,-2.1952,43.8563,8.4188,-12.1875,
4.307714,4.3769,2.1495,0.6009,1.6533,-1.8167,0.2559,43.8563,8.4188,-12.1875,
4.332079,-4.4174,-7.2386,-13.8852,1.6533,-1.8167,0.2559,43.8563,8.4188,-12.1875,
4.336547,-4.4174,-7.2386,-13.8852,1.6533,-1.8167,0.2559,42.7875,6.9563,-15.0750,
4.350009,-4.4174,-7.2386,-13.8852,1.6533,-1.8167,0.2559,42.7875,6.9563,-15.0750,
4.368102,-4.4174,-7.2386,-13.8852,0.3093,-5.7182,-2.5446,42.7875,6.9563,-15.0750,
4.394596,-4.4174,-7.2386,-13.8852,0.3093,-5.7182,-2.5446,38.1000,13.6500,-23.7188,
4.408942,-4.4174,-7.2386,-13.8852,0.3093,-5.7182,-2.5446,38.1000,13.6500,-23.7188,
4.410153,1.2899,4.7520,12.0064,0.3093,-5.7182,-2.5446,38.1000,13.6500,-23.7188,
4.430187,1.2899,4.7520,12.0064,-0.5396,1.0581,-0.0656,38.1000,13.6500,-23.7188,
4.455762,1.2899,4.7520,12.0064,-0.5396,1.0581,-0.0656,35.5125,13.0688,-27.8250,
4.472310,1.2899,4.7520,12.0064,-0.5396,1.0581,-0.0656,35.5125,13.0688,-27.8250,
4.474486,-6.9617,-11.6532,1.3263,-0.5396,1.0581,-0.0656,35.5125,13.0688,-27.8250,
4.490911,-6.9617,-11.6532,1.3263,-0.4997,-0.3240,0.1747,35.5125,13.0688,-27.8250,
4.513448,-6.9617,-11.6532,1.3263,-0.4997,-0.3240,0.1747,33.0750,12.7875,-31.5000,
4.530600,-6.9617,-11.6532,1.3263,-0.4997,-0.3240,0.1747,33.0750,12.7875,-31.5000,
4.532554,-0.5871,5.5325,-1.0069,-0.4997,-0.3240,0.1747,33.0750,12.7875,-31.5000,
4.551316,-0.5871,5.5325,-1.0069,-0.5253,-0.7372,-0.5896,33.0750,12.7875,-31.5000,
4.574660,-0.5871,5.5325,-1.0069,-0.5253,-0.7372,-0.5896,30.7125,13.2938,-34.5938,
4.592853,-0.5871,5.5325,-1.0069,-0.5253,-0.7372,-0.5896,30.7125,13.2938,-34.5938,
4.596776,1.7810,5.2021,0.9998,-0.5253,-0.7372,-0.5896,30.7125,13.2938,-34.5938,
4.612414,1.7810,5.2021,0.9998,0.0577,-0.4336,-0.5159,30.7125,13.2938,-34.5938,
4.634203,1.7810,5.2021,0.9998,0.0577,-0.4336,-0.5159,28.3875,13.8188,-37.2563,
4.652811,1.7810,5.2021,0.9998,0.0577,-0.4336,-0.5159,28.3875,13.8188,-37.2563,
4.674990,1.7810,5.2021,0.9998,0.1044,-0.4759,-0.2350,28.3875,13.8188,-37.2563,
4.678416,-0.0188,3.2722,5.0157,0.1044,-0.4759,-0.2350,28.3875,13.8188,-37.2563,
4.695342,-0.0188,3.2722,5.0157,0.1044,-0.4759,-0.2350,26.1750,14.9063,-39.2063,
4.715566,-0.0188,3.2722,5.0157,0.1044,-0.4759,-0.2350,26.1750,14.9063,-39.2063,
4.734916,-1.7284,2.4876,-2.0680,0.1044,-0.4759,-0.2350,26.1750,14.9063,-39.2063,
4.737853,-1.7284,2.4876,-2.0680,0.0683,-1.3165,0.1065,26.1750,14.9063,-39.2063,
4.755741,-1.7284,2.4876,-2.0680,0.0683,-1.3165,0.1065,23.4000,16.5563,-41.5125,
4.775314,-1.7284,2.4876,-2.0680,0.0683,-1.3165,0.1065,23.4000,16.5563,-41.5125,
4.795689,1.8645,0.4199,1.4653,0.0683,-1.3165,0.1065,23.4000,16.5563,-41.5125,
4.798158,1.8645,0.4199,1.4653,-0.0220,-0.5266,-0.3198,23.4000,16.5563,-41.5125,
4.814358,1.8645,0.4199,1.4653,-0.0220,-0.5266,-0.3198,20.7938,18.2812,-43.2938,
4.836023,1.8645,0.4199,1.4653,-0.0220,-0.5266,-0.3198,20.7938,18.2812,-43.2938,
4.856166,1.8645,0.4199,1.4653,-0.2999,-0.2916,0.2005,20.7938,18.2812,-43.2938,
4.876333,1.8645,0.4199,1.4653,-0.2999,-0.2916,0.2005,19.5563,19.5563,-43.5188,
4.878815,2.5792,0.1006,-0.6466,-0.2999,-0.2916,0.2005,19.5563,19.5563,-43.5188,
4.896710,2.5792,0.1006,-0.6466,-0.2999,-0.2916,0.2005,19.5563,19.5563,-43.5188,
4.916798,2.5792,0.1006,-0.6466,-0.0180,-0.7698,0.1438,19.5563,19.5563,-43.5188,
4.934452,2.5792,0.1006,-0.6466,-0.0180,-0.7698,0.1438,17.9813,20.3625,-43.9875,
4.937557,-0.1123,-0.1058,0.4452,-0.0180,-0.7698,0.1438,17.9813,20.3625,-43.9875,
4.957111,-0.1123,-0.1058,0.4452,-0.0180,-0.7698,0.1438,17.9813,20.3625,-43.9875,
4.978061,-0.1123,-0.1058,0.4452,0.0481,-0.2411,-0.0806,17.9813,20.3625,-43.9875,
4.994539,-0.1123,-0.1058,0.4452,0.0481,-0.2411,-0.0806,16.3313,21.0188,-44.6063,
4.997610,0.4695,1.0324,-0.4789,0.0481,-0.2411,-0.0806,16.3313,21.0188,-44.6063,
5.020342,0.4695,1.0324,-0.4789,0.0481,-0.2411,-0.0806,16.3313,21.0188,-44.6063,
5.039027,0.4695,1.0324,-0.4789,0.0658,-0.0360,-0.1345,16.3313,21.0188,-44.6063,
5.054259,0.4695,1.0324,-0.4789,0.0658,-0.0360,-0.1345,14.7375,21.0188,-45.1313,
5.058435,0.5053,-0.7143,-0.8647,0.0658,-0.0360,-0.1345,14.7375,21.0188,-45.1313,
5.079153,0.5053,-0.7143,-0.8647,0.0658,-0.0360,-0.1345,14.7375,21.0188,-45.1313,
5.100122,0.5053,-0.7143,-0.8647,0.1176,0.4567,-0.0599,14.7375,21.0188,-45.1313,
5.113507,0.5053,-0.7143,-0.8647,0.1176,0.4567,-0.0599,13.4063,20.9813,-45.6750,
5.139944,0.5053,-0.7143,-0.8647,0.1176,0.4567,-0.0599,13.4063,20.9813,-45.6750,
5.140963,0.6722,-0.3036,-1.0768,0.1176,0.4567,-0.0599,13.4063,20.9813,-45.6750,
5.160374,0.6722,-0.3036,-1.0768,0.2411,0.4808,0.0377,13.4063,20.9813,-45.6750,
5.174264,0.6722,-0.3036,-1.0768,0.2411,0.4808,0.0377,12.3375,21.0375,-46.2938,
5.201787,0.6722,-0.3036,-1.0768,0.2411,0.4808,0.0377,12.3375,21.0375,-46.2938,
5.203534,0.5120,-0.0090,-0.7540,0.2411,0.4808,0.0377,12.3375,21.0375,-46.2938,
5.221072,0.5120,-0.0090,-0.7540,0.2192,0.4585,-0.0940,12.3375,21.0375,-46.2938,
5.233702,0.5120,-0.0090,-0.7540,0.2192,0.4585,-0.0940,11.9250,20.9625,-46.5000,
5.261657,0.5120,-0.0090,-0.7540,0.2192,0.4585,-0.0940,11.9250,20.9625,-46.5000,
5.263632,0.5051,0.2131,-0.3908,0.2192,0.4585,-0.0940,11.9250,20.9625,-46.5000,
5.282382,0.5051,0.2131,-0.3908,0.1417,0.2447,-0.0844,11.9250,20.9625,-46.5000,
5.294886,0.5051,0.2131,-0.3908,0.1417,0.2447,-0.0844,11.8125,20.8875,-46.5938,
5.323668,0.5051,0.2131,-0.3908,0.1417,0.2447,-0.0844,11.8125,20.8875,-46.5938,
5.343710,0.5051,0.2131,-0.3908,0.0494,0.0843,0.0198,11.8125,20.8875,-46.5938,
5.345600,-0.0024,0.1810,0.1127,0.0494,0.0843,0.0198,11.8125,20.8875,-46.5938,
5.353619,-0.0024,0.1810,0.1127,0.0494,0.0843,0.0198,11.9813,20.6250,-46.6875,
5.384640,-0.0024,0.1810,0.1127,0.0494,0.0843,0.0198,11.9813,20.6250,-46.6875,
5.404678,-0.0024,0.1810,0.1127,-0.0052,-0.3459,-0.0202,11.9813,20.6250,-46.6875,
5.407906,-0.0319,0.4101,0.3793,-0.0052,-0.3459,-0.0202,11.9813,20.6250,-46.6875,
5.413781,-0.0319,0.4101,0.3793,-0.0052,-0.3459,-0.0202,12.3000,20.4375,-46.5000,
5.444953,-0.0319,0.4101,0.3793,-0.0052,-0.3459,-0.0202,12.3000,20.4375,-46.5000,
5.466076,-0.0319,0.4101,0.3793,-0.0742,-0.4567,-0.0493,12.3000,20.4375,-46.5000,
5.467665,-0.2094,0.1197,0.2706,-0.0742,-0.4567,-0.0493,12.3000,20.4375,-46.5000,
5.473834,-0.2094,0.1197,0.2706,-0.0742,-0.4567,-0.0493,12.4500,20.2875,-46.6313,
5.506002,-0.2094,0.1197,0.2706,-0.0742,-0.4567,-0.0493,12.4500,20.2875,-46.6313,
5.526875,0.1047,0.0682,0.0082,-0.0742,-0.4567,-0.0493,12.4500,20.2875,-46.6313,
5.529091,0.1047,0.0682,0.0082,-0.0855,-0.4133,-0.0401,12.4500,20.2875,-46.6313,
5.533406,0.1047,0.0682,0.0082,-0.0855,-0.4133,-0.0401,12.5250,20.1000,-46.6500,
5.567092,0.1047,0.0682,0.0082,-0.0855,-0.4133,-0.0401,12.5250,20.1000,-46.6500,
5.586801,0.1047,0.0682,0.0082,-0.0880,-0.1499,-0.0656,12.5250,20.1000,-46.6500,
5.594490,0.1047,0.0682,0.0082,-0.0880,-0.1499,-0.0656,12.5813,19.8750,-46.7063,
5.606734,0.1570,0.1965,-0.1055,-0.0880,-0.1499,-0.0656,12.5813,19.8750,-46.7063,
5.627389,0.1570,0.1965,-0.1055,-0.0880,-0.1499,-0.0656,12.5813,19.8750,-46.7063,
5.648160,0.1570,0.1965,-0.1055,-0.0478,-0.0605,-0.0365,12.5813,19.8750,-46.7063,
5.652516,0.1570,0.1965,-0.1055,-0.0478,-0.0605,-0.0365,12.3938,19.7438,-46.6875,
5.668198,0.3139,0.1569,-0.2650,-0.0478,-0.0605,-0.0365,12.3938,19.7438,-46.6875,
5.689519,0.3139,0.1569,-0.2650,-0.0478,-0.0605,-0.0365,12.3938,19.7438,-46.6875,
5.708973,0.3139,0.1569,-0.2650,-0.0105,-0.0360,0.0007,12.3938,19.7438,-46.6875,
5.713393,0.3139,0.1569,-0.2650,-0.0105,-0.0360,0.0007,12.1500,19.8188,-46.8000,
5.728455,0.0799,-0.0400,-0.0567,-0.0105,-0.0360,0.0007,12.1500,19.8188,-46.8000,
5.749776,0.0799,-0.0400,-0.0567,-0.0105,-0.0360,0.0007,12.1500,19.8188,-46.8000,
5.769546,0.0799,-0.0400,-0.0567,-0.0071,-0.1056,0.0032,12.1500,19.8188,-46.8000,
5.772066,0.0799,-0.0400,-0.0567,-0.0071,-0.1056,0.0032,11.7000,19.6500,-46.9688,
5.811862,0.1152,0.0860,-0.0673,-0.0071,-0.1056,0.0032,11.7000,19.6500,-46.9688,
5.816235,0.1152,0.0860,-0.0673,-0.0071,-0.1056,0.0032,11.7000,19.6500,-46.9688,
5.831344,0.1152,0.0860,-0.0673,0.0498,-0.2475,-0.0089,11.7000,19.6500,-46.9688,
5.833955,0.1152,0.0860,-0.0673,0.0498,-0.2475,-0.0089,11.0438,19.8188,-47.1375,
5.873112,0.1152,0.0860,-0.0673,0.0498,-0.2475,-0.0089,11.0438,19.8188,-47.1375,
5.875279,-0.0963,0.1615,0.1992,0.0498,-0.2475,-0.0089,11.0438,19.8188,-47.1375,
5.893597,-0.0963,0.1615,0.1992,0.0281,-0.1755,-0.0369,11.0438,19.8188,-47.1375,
5.895136,-0.0963,0.1615,0.1992,0.0281,-0.1755,-0.0369,10.3125,19.9313,-47.4938,
5.934357,-0.0963,0.1615,0.1992,0.0281,-0.1755,-0.0369,10.3125,19.9313,-47.4938,
5.936455,0.1411,0.1747,-0.0989,0.0281,-0.1755,-0.0369,10.3125,19.9313,-47.4938,
5.952620,0.1411,0.1747,-0.0989,0.0281,-0.1755,-0.0369,10.0125,19.9688,-47.5312,
5.954817,0.1411,0.1747,-0.0989,-0.0009,-0.0615,-0.0490,10.0125,19.9688,-47.5312,
5.995182,0.1411,0.1747,-0.0989,-0.0009,-0.0615,-0.0490,10.0125,19.9688,-47.5312,
5.997156,0.1771,-0.0303,-0.2375,-0.0009,-0.0615,-0.0490,10.0125,19.9688,-47.5312,
6.012481,0.1771,-0.0303,-0.2375,-0.0009,0.0672,-0.0479,10.0125,19.9688,-47.5312,
6.014461,0.1771,-0.0303,-0.2375,-0.0009,0.0672,-0.0479,9.8250,20.1750,-47.6438,
6.056879,0.1771,-0.0303,-0.2375,-0.0009,0.0672,-0.0479,9.8250,20.1750,-47.6438,
6.076642,0.1771,-0.0303,-0.2375,0.0292,0.0410,-0.0230,9.8250,20.1750,-47.6438,
6.078290,0.1708,-0.0250,-0.2461,0.0292,0.0410,-0.0230,9.8250,20.1750,-47.6438,
6.079070,0.1708,-0.0250,-0.2461,0.0292,0.0410,-0.0230,9.5813,20.2688,-47.6813,
6.116903,0.1708,-0.0250,-0.2461,0.0292,0.0410,-0.0230,9.5813,20.2688,-47.6813,
6.134468,0.1708,-0.0250,-0.2461,0.0423,-0.0463,-0.0234,9.5813,20.2688,-47.6813,
6.136178,0.0053,-0.0206,-0.0098,0.0423,-0.0463,-0.0234,9.5813,20.2688,-47.6813,
6.137072,0.0053,-0.0206,-0.0098,0.0423,-0.0463,-0.0234,9.4313,20.2875,-47.7750,
6.176798,0.0053,-0.0206,-0.0098,0.0423,-0.0463,-0.0234,9.4313,20.2875,-47.7750,
6.196908,0.0053,-0.0206,-0.0098,0.0423,-0.0463,-0.0234,9.0375,20.1750,-47.8125,
6.199902,0.0053,-0.0206,-0.0098,0.0232,-0.1120,-0.0394,9.0375,20.1750,-47.8125,
6.200924,0.0475,0.0916,0.0242,0.0232,-0.1120,-0.0394,9.0375,20.1750,-47.8125,
6.237099,0.0475,0.0916,0.0242,0.0232,-0.1120,-0.0394,9.0375,20.1750,-47.8125,
6.253896,0.0475,0.0916,0.0242,0.0232,-0.1120,-0.0394,8.8125,20.1938,-47.8875,
6.256859,0.0475,0.0916,0.0242,-0.0631,-0.1593,-0.0593,8.8125,20.1938,-47.8875,
6.276819,-0.0235,-0.1219,-0.0095,-0.0631,-0.1593,-0.0593,8.8125,20.1938,-47.8875,
6.297298,-0.0235,-0.1219,-0.0095,-0.0631,-0.1593,-0.0593,8.8125,20.1938,-47.8875,
6.314379,-0.0235,-0.1219,-0.0095,-0.0631,-0.1593,-0.0593,8.5125,20.1938,-47.8875,
6.317100,-0.0235,-0.1219,-0.0095,-0.0706,-0.3626,0.0053,8.5125,20.1938,-47.8875,
6.337780,-0.0199,0.0722,0.1855,-0.0706,-0.3626,0.0053,8.5125,20.1938,-47.8875,
6.359542,-0.0199,0.0722,0.1855,-0.0706,-0.3626,0.0053,8.5125,20.1938,-47.8875,
6.375227,-0.0199,0.0722,0.1855,-0.0706,-0.3626,0.0053,8.2875,20.3250,-47.9062,
6.378040,-0.0199,0.0722,0.1855,0.0189,-0.3336,0.0326,8.2875,20.3250,-47.9062,
6.398715,-0.0916,0.1191,0.2161,0.0189,-0.3336,0.0326,8.2875,20.3250,-47.9062,
6.420462,-0.0916,0.1191,0.2161,0.0189,-0.3336,0.0326,8.2875,20.3250,-47.9062,
6.434048,-0.0916,0.1191,0.2161,0.0189,-0.3336,0.0326,7.8938,20.2500,-48.0375,
6.442006,-0.0916,0.1191,0.2161,-0.0297,0.0127,0.0380,7.8938,20.2500,-48.0375,
6.459417,0.2595,0.2251,-0.4202,-0.0297,0.0127,0.0380,7.8938,20.2500,-48.0375,
6.480966,0.2595,0.2251,-0.4202,-0.0297,0.0127,0.0380,7.8938,20.2500,-48.0375,
6.494716,0.2595,0.2251,-0.4202,-0.0297,0.0127,0.0380,7.5188,20.2500,-48.0188,
6.500098,0.2595,0.2251,-0.4202,-0.0145,0.2948,0.0607,7.5188,20.2500,-48.0188,
6.542121,0.2617,-0.0355,-0.3512,-0.0145,0.2948,0.0607,7.5188,20.2500,-48.0188,
6.544220,0.2617,-0.0355,-0.3512,-0.0145,0.2948,0.0607,7.5188,20.2500,-48.0188,
6.554529,0.2617,-0.0355,-0.3512,-0.0145,0.2948,0.0607,7.3688,20.2500,-47.9438,
6.560324,0.2617,-0.0355,-0.3512,-0.0134,0.3404,0.1264,7.3688,20.2500,-47.9438,
6.601810,0.2617,-0.0355,-0.3512,-0.0134,0.3404,0.1264,7.3688,20.2500,-47.9438,
6.603530,0.2210,-0.0044,-0.2982,-0.0134,0.3404,0.1264,7.3688,20.2500,-47.9438,
6.613924,0.2210,-0.0044,-0.2982,-0.0134,0.3404,0.1264,7.2938,20.1000,-47.9250,
6.622025,0.2210,-0.0044,-0.2982,0.1016,0.1816,0.2112,7.2938,20.1000,-47.9250,
6.663822,0.2210,-0.0044,-0.2982,0.1016,0.1816,0.2112,7.2938,20.1000,-47.9250,
6.666177,-0.0096,0.1236,0.0827,0.1016,0.1816,0.2112,7.2938,20.1000,-47.9250,
6.674423,-0.0096,0.1236,0.0827,0.1016,0.1816,0.2112,7.3875,20.0813,-47.8688,
6.682891,-0.0096,0.1236,0.0827,0.1027,0.1405,0.2005,7.3875,20.0813,-47.8688,
6.724175,-0.0096,0.1236,0.0827,0.1027,0.1405,0.2005,7.3875,20.0813,-47.8688,
6.734937,-0.0096,0.1236,0.0827,0.1027,0.1405,0.2005,7.5000,20.1188,-47.8500,
6.743917,-0.0096,0.1236,0.0827,0.0831,0.0144,0.1253,7.5000,20.1188,-47.8500,
6.746050,0.1504,0.1058,-0.1446,0.0831,0.0144,0.1253,7.5000,20.1188,-47.8500,
6.787302,0.1504,0.1058,-0.1446,0.0831,0.0144,0.1253,7.5000,20.1188,-47.8500,
6.794894,0.1504,0.1058,-0.1446,0.0831,0.0144,0.1253,7.5750,19.8750,-47.8688,
6.804466,0.1504,0.1058,-0.1446,0.2326,-0.4276,0.2261,7.5750,19.8750,-47.8688,
6.805845,0.1456,0.0288,0.1368,0.2326,-0.4276,0.2261,7.5750,19.8750,-47.8688,
6.846465,0.1456,0.0288,0.1368,0.2326,-0.4276,0.2261,7.5750,19.8750,-47.8688,
6.855443,0.1456,0.0288,0.1368,0.2326,-0.4276,0.2261,7.6500,19.4062,-47.9250,
6.865358,0.1456,0.0288,0.1368,0.2993,-0.3939,0.2244,7.6500,19.4062,-47.9250,
6.866645,-0.5298,-0.0212,0.8395,0.2993,-0.3939,0.2244,7.6500,19.4062,-47.9250,
6.906299,-0.5298,-0.0212,0.8395,0.2993,-0.3939,0.2244,7.6500,19.4062,-47.9250,
6.914734,-0.5298,-0.0212,0.8395,0.2993,-0.3939,0.2244,7.7250,18.9938,-47.9250,
6.926630,-0.0575,0.5922,-0.4963,0.2993,-0.3939,0.2244,7.7250,18.9938,-47.9250,
6.927866,-0.0575,0.5922,-0.4963,0.0924,0.2867,0.1136,7.7250,18.9938,-47.9250,
6.972099,-0.0575,0.5922,-0.4963,0.0924,0.2867,0.1136,7.7250,18.9938,-47.9250,
6.976101,-0.0575,0.5922,-0.4963,0.0924,0.2867,0.1136,7.9688,18.3375,-48.1313,
6.987293,-0.0575,0.5922,-0.4963,0.0746,0.3193,-0.0770,7.9688,18.3375,-48.1313,
7.007646,1.2186,0.4970,-1.1162,0.0746,0.3193,-0.0770,7.9688,18.3375,-48.1313,
7.028558,1.2186,0.4970,-1.1162,0.0746,0.3193,-0.0770,7.9688,18.3375,-48.1313,
7.034087,1.2186,0.4970,-1.1162,0.0746,0.3193,-0.0770,8.1188,17.7938,-48.2625,
7.048276,1.2186,0.4970,-1.1162,0.2241,0.4020,0.3011,8.1188,17.7938,-48.2625,
7.069126,-0.1656,-1.0075,-0.0738,0.2241,0.4020,0.3011,8.1188,17.7938,-48.2625,
7.088550,-0.1656,-1.0075,-0.0738,0.2241,0.4020,0.3011,8.1188,17.7938,-48.2625,
7.095699,-0.1656,-1.0075,-0.0738,0.2241,0.4020,0.3011,8.3438,17.3063,-48.4500,
7.109570,-0.1656,-1.0075,-0.0738,0.3302,0.6069,0.1878,8.3438,17.3063,-48.4500,
7.129492,0.1090,-0.3310,-0.3283,0.3302,0.6069,0.1878,8.3438,17.3063,-48.4500,
7.149644,0.1090,-0.3310,-0.3283,0.3302,0.6069,0.1878,8.3438,17.3063,-48.4500,
7.153109,0.1090,-0.3310,-0.3283,0.3302,0.6069,0.1878,8.7750,16.5375,-48.5625,
7.169089,0.1090,-0.3310,-0.3283,0.2862,0.2626,0.0405,8.7750,16.5375,-48.5625,
7.210501,0.1090,-0.3310,-0.3283,0.2862,0.2626,0.0405,8.7750,16.5375,-48.5625,
7.212499,0.3648,-0.0040,-0.9054,0.2862,0.2626,0.0405,8.7750,16.5375,-48.5625,
7.213847,0.3648,-0.0040,-0.9054,0.2862,0.2626,0.0405,9.3188,15.8063,-48.6000,
7.230901,0.3648,-0.0040,-0.9054,0.1819,0.4955,0.1296,9.3188,15.8063,-48.6000,
7.274841,0.3648,-0.0040,-0.9054,0.1819,0.4955,0.1296,9.3188,15.8063,-48.6000,
7.277998,0.0275,0.0020,0.1478,0.1819,0.4955,0.1296,9.3188,15.8063,-48.6000,
7.280027,0.0275,0.0020,0.1478,0.1819,0.4955,0.1296,10.3500,15.2063,-48.5250,
7.292672,0.0275,0.0020,0.1478,0.0509,0.5483,0.1707,10.3500,15.2063,-48.5250,
7.333655,0.0275,0.0020,0.1478,0.0509,0.5483,0.1707,10.3500,15.2063,-48.5250,
7.334799,-0.4083,0.2174,0.8307,0.0509,0.5483,0.1707,10.3500,15.2063,-48.5250,
7.335542,-0.4083,0.2174,0.8307,0.0509,0.5483,0.1707,11.3625,14.7375,-48.4125,
7.352252,-0.4083,0.2174,0.8307,-0.0024,-0.4450,0.2205,11.3625,14.7375,-48.4125,
7.397466,-0.4083,0.2174,0.8307,-0.0024,-0.4450,0.2205,11.3625,14.7375,-48.4125,
7.399546,-0.4083,0.2174,0.8307,-0.0024,-0.4450,0.2205,12.1313,14.3438,-48.3000,
7.400702,-1.1080,-0.1922,1.0882,-0.0024,-0.4450,0.2205,12.1313,14.3438,-48.3000,
7.414546,-1.1080,-0.1922,1.0882,-0.0041,-1.1127,0.1931,12.1313,14.3438,-48.3000,
7.455170,-1.1080,-0.1922,1.0882,-0.0041,-1.1127,0.1931,12.4500,14.0063,-48.2250,
7.457206,-1.1080,-0.1922,1.0882,-0.0041,-1.1127,0.1931,12.4500,14.0063,-48.2250,
7.475495,-1.1080,-0.1922,1.0882,0.0345,-1.2948,0.1008,12.4500,14.0063,-48.2250,
7.477980,-0.8821,0.4525,1.1339,0.0345,-1.2948,0.1008,12.4500,14.0063,-48.2250,
7.514629,-0.8821,0.4525,1.1339,0.0345,-1.2948,0.1008,12.1875,13.5563,-48.3000,
7.516115,-0.8821,0.4525,1.1339,0.0345,-1.2948,0.1008,12.1875,13.5563,-48.3000,
7.535746,-0.8821,0.4525,1.1339,-0.0407,-0.7169,0.0341,12.1875,13.5563,-48.3000,
7.538213,-0.3775,0.6758,0.6528,-0.0407,-0.7169,0.0341,12.1875,13.5563,-48.3000,
7.573936,-0.3775,0.6758,0.6528,-0.0407,-0.7169,0.0341,11.4563,13.0688,-48.4875,
7.576067,-0.3775,0.6758,0.6528,-0.0407,-0.7169,0.0341,11.4563,13.0688,-48.4875,
7.596979,-0.3775,0.6758,0.6528,0.1672,-0.4101,0.0138,11.4563,13.0688,-48.4875,
7.599002,0.0362,-0.2376,0.1386,0.1672,-0.4101,0.0138,11.4563,13.0688,-48.4875,
7.633397,0.0362,-0.2376,0.1386,0.1672,-0.4101,0.0138,10.5375,12.7125,-48.8813,
7.636950,0.0362,-0.2376,0.1386,0.1672,-0.4101,0.0138,10.5375,12.7125,-48.8813,
7.657873,0.0362,-0.2376,0.1386,0.2043,0.1812,0.1229,10.5375,12.7125,-48.8813,
7.677661,0.3525,-0.0690,-0.3359,0.2043,0.1812,0.1229,10.5375,12.7125,-48.8813,
7.698053,0.3525,-0.0690,-0.3359,0.2043,0.1812,0.1229,9.4500,12.3375,-49.3313,
7.701179,0.3525,-0.0690,-0.3359,0.2043,0.1812,0.1229,9.4500,12.3375,-49.3313,
7.719138,0.3525,-0.0690,-0.3359,0.1435,0.0928,0.0848,9.4500,12.3375,-49.3313,
7.738398,0.4322,0.2414,-1.2890,0.1435,0.0928,0.0848,9.4500,12.3375,-49.3313,
7.753543,0.4322,0.2414,-1.2890,0.1435,0.0928,0.0848,8.1000,11.9250,-49.6875,
7.758158,0.4322,0.2414,-1.2890,0.1435,0.0928,0.0848,8.1000,11.9250,-49.6875,
7.779324,0.4322,0.2414,-1.2890,-0.0414,0.5856,0.0411,8.1000,11.9250,-49.6875,
7.798695,0.9862,-0.4410,-1.3887,-0.0414,0.5856,0.0411,8.1000,11.9250,-49.6875,
7.814203,0.9862,-0.4410,-1.3887,-0.0414,0.5856,0.0411,7.1625,11.5688,-50.0063,
7.821441,0.9862,-0.4410,-1.3887,-0.0414,0.5856,0.0411,7.1625,11.5688,-50.0063,
7.840162,0.9862,-0.4410,-1.3887,-0.0348,0.5451,0.0814,7.1625,11.5688,-50.0063,
7.861058,-0.3234,-1.2626,-0.4570,-0.0348,0.5451,0.0814,7.1625,11.5688,-50.0063,
7.875206,-0.3234,-1.2626,-0.4570,-0.0348,0.5451,0.0814,6.6938,11.2313,-50.2875,
7.882241,-0.3234,-1.2626,-0.4570,-0.0348,0.5451,0.0814,6.6938,11.2313,-50.2875,
7.900531,-0.3234,-1.2626,-0.4570,-0.0158,0.4593,0.1112,6.6938,11.2313,-50.2875,
7.934639,-0.3234,-1.2626,-0.4570,-0.0158,0.4593,0.1112,6.6000,10.8563,-50.3625,
7.941604,-0.0684,0.1425,0.2732,-0.0158,0.4593,0.1112,6.6000,10.8563,-50.3625,
7.942646,-0.0684,0.1425,0.2732,-0.0158,0.4593,0.1112,6.6000,10.8563,-50.3625,
7.962163,-0.0684,0.1425,0.2732,0.0189,0.3172,0.2904,6.6000,10.8563,-50.3625,
7.995600,-0.0684,0.1425,0.2732,0.0189,0.3172,0.2904,7.2750,10.6313,-50.1750,
8.003269,-0.0684,0.1425,0.2732,0.0189,0.3172,0.2904,7.2750,10.6313,-50.1750,
8.004322,-0.2691,-0.2065,0.2140,0.0189,0.3172,0.2904,7.2750,10.6313,-50.1750,
8.022410,-0.2691,-0.2065,0.2140,-0.1047,0.5422,0.4441,7.2750,10.6313,-50.1750,
8.054305,-0.2691,-0.2065,0.2140,-0.1047,0.5422,0.4441,8.5312,10.6125,-49.8000,
8.064162,-0.2691,-0.2065,0.2140,-0.1047,0.5422,0.4441,8.5312,10.6125,-49.8000,
8.068739,0.2836,-0.1432,-0.2068,-0.1047,0.5422,0.4441,8.5312,10.6125,-49.8000,
8.084103,0.2836,-0.1432,-0.2068,-0.3581,0.5880,0.5342,8.5312,10.6125,-49.8000,
8.113963,0.2836,-0.1432,-0.2068,-0.3581,0.5880,0.5342,9.9188,10.5000,-49.1063,
8.122895,0.2836,-0.1432,-0.2068,-0.3581,0.5880,0.5342,9.9188,10.5000,-49.1063,
8.146484,0.2836,-0.1432,-0.2068,-0.2069,-0.2991,0.5736,9.9188,10.5000,-49.1063,
8.149659,0.7794,0.6775,-0.0582,-0.2069,-0.2991,0.5736,9.9188,10.5000,-49.1063,
8.176316,0.7794,0.6775,-0.0582,-0.2069,-0.2991,0.5736,11.1375,10.4625,-48.3563,
8.187773,0.7794,0.6775,-0.0582,-0.2069,-0.2991,0.5736,11.1375,10.4625,-48.3563,
8.205334,0.7794,0.6775,-0.0582,-0.1771,-0.2185,0.6376,11.1375,10.4625,-48.3563,
8.206292,0.2998,0.8197,1.3779,-0.1771,-0.2185,0.6376,11.1375,10.4625,-48.3563,
8.233194,0.2998,0.8197,1.3779,-0.1771,-0.2185,0.6376,12.3000,10.5750,-48.0375,
8.245447,0.2998,0.8197,1.3779,-0.1771,-0.2185,0.6376,12.3000,10.5750,-48.0375,
8.265692,0.2998,0.8197,1.3779,-0.2065,0.5874,0.6149,12.3000,10.5750,-48.0375,
8.268033,0.3018,0.5599,-0.2782,-0.2065,0.5874,0.6149,12.3000,10.5750,-48.0375,
8.294877,0.3018,0.5599,-0.2782,-0.2065,0.5874,0.6149,13.5375,10.5563,-47.5875,
8.306644,0.3018,0.5599,-0.2782,-0.2065,0.5874,0.6149,13.5375,10.5563,-47.5875,
8.327084,0.3018,0.5599,-0.2782,-0.4202,1.0421,0.6816,13.5375,10.5563,-47.5875,
8.328839,0.8665,1.7757,-1.5149,-0.4202,1.0421,0.6816,13.5375,10.5563,-47.5875,
8.354057,0.8665,1.7757,-1.5149,-0.4202,1.0421,0.6816,14.7000,10.4062,-46.9313,
8.368955,0.8665,1.7757,-1.5149,-0.4202,1.0421,0.6816,14.7000,10.4062,-46.9313,
8.388372,0.8665,1.7757,-1.5149,-0.3542,-0.4684,0.9966,14.7000,10.4062,-46.9313,
8.407690,-0.4260,0.1813,1.8021,-0.3542,-0.4684,0.9966,14.7000,10.4062,-46.9313,
8.414610,-0.4260,0.1813,1.8021,-0.3542,-0.4684,0.9966,15.7500,10.4438,-46.4438,
8.427524,-0.4260,0.1813,1.8021,-0.3542,-0.4684,0.9966,15.7500,10.4438,-46.4438,
8.449124,-0.4260,0.1813,1.8021,-0.8597,-0.2007,1.2209,15.7500,10.4438,-46.4438,
8.470292,0.4515,-0.2250,0.3728,-0.8597,-0.2007,1.2209,15.7500,10.4438,-46.4438,
8.473121,0.4515,-0.2250,0.3728,-0.8597,-0.2007,1.2209,16.5188,10.6313,-46.4062,
8.491313,0.4515,-0.2250,0.3728,-0.8597,-0.2007,1.2209,16.5188,10.6313,-46.4062,
8.514246,0.4515,-0.2250,0.3728,-0.5952,-0.4024,1.4665,16.5188,10.6313,-46.4062,
8.530526,0.0379,0.9971,0.2599,-0.5952,-0.4024,1.4665,16.5188,10.6313,-46.4062,
8.533765,0.0379,0.9971,0.2599,-0.5952,-0.4024,1.4665,16.9125,10.5938,-46.0312,
8.551170,0.0379,0.9971,0.2599,-0.5952,-0.4024,1.4665,16.9125,10.5938,-46.0312,
8.570968,0.0379,0.9971,0.2599,-0.5700,-0.1326,1.5393,16.9125,10.5938,-46.0312,
8.595215,0.0379,0.9971,0.2599,-0.5700,-0.1326,1.5393,17.1375,10.5188,-45.9750,
8.611452,0.0379,0.9971,0.2599,-0.5700,-0.1326,1.5393,17.1375,10.5188,-45.9750,
8.613494,0.4194,0.0247,0.5549,-0.5700,-0.1326,1.5393,17.1375,10.5188,-45.9750,
8.631626,0.4194,0.0247,0.5549,-0.6971,0.2941,1.3448,17.1375,10.5188,-45.9750,
8.654035,0.4194,0.0247,0.5549,-0.6971,0.2941,1.3448,17.5500,10.3125,-45.9938,
8.672687,0.4194,0.0247,0.5549,-0.6971,0.2941,1.3448,17.5500,10.3125,-45.9938,
8.674787,1.1796,0.6688,0.4503,-0.6971,0.2941,1.3448,17.5500,10.3125,-45.9938,
8.693484,1.1796,0.6688,0.4503,-0.6613,0.3190,0.8890,17.5500,10.3125,-45.9938,
8.714287,1.1796,0.6688,0.4503,-0.6613,0.3190,0.8890,18.1688,10.3125,-45.7313,
8.735277,1.1796,0.6688,0.4503,-0.6613,0.3190,0.8890,18.1688,10.3125,-45.7313,
8.738252,0.5378,0.3457,-0.2578,-0.6613,0.3190,0.8890,18.1688,10.3125,-45.7313,
8.755205,0.5378,0.3457,-0.2578,-0.8458,0.6268,0.5681,18.1688,10.3125,-45.7313,
8.774991,0.5378,0.3457,-0.2578,-0.8458,0.6268,0.5681,18.4313,10.4625,-45.5063,
8.795472,0.5378,0.3457,-0.2578,-0.8458,0.6268,0.5681,18.4313,10.4625,-45.5063,
8.797819,-0.6646,0.0719,0.1683,-0.8458,0.6268,0.5681,18.4313,10.4625,-45.5063,
8.815345,-0.6646,0.0719,0.1683,-0.8775,0.1699,0.7839,18.4313,10.4625,-45.5063,
8.834640,-0.6646,0.0719,0.1683,-0.8775,0.1699,0.7839,18.7875,10.8000,-45.4313,
8.854613,-0.6646,0.0719,0.1683,-0.8775,0.1699,0.7839,18.7875,10.8000,-45.4313,
8.875386,-1.5843,-0.5691,-0.7053,-0.8775,0.1699,0.7839,18.7875,10.8000,-45.4313,
8.878420,-1.5843,-0.5691,-0.7053,-0.4053,-0.0296,0.6450,18.7875,10.8000,-45.4313,
8.895118,-1.5843,-0.5691,-0.7053,-0.4053,-0.0296,0.6450,19.2000,11.1375,-45.1688,
8.916883,-1.5843,-0.5691,-0.7053,-0.4053,-0.0296,0.6450,19.2000,11.1375,-45.1688,
8.936292,-1.5843,-0.5691,-0.7053,-0.2208,0.0438,0.5521,19.2000,11.1375,-45.1688,
8.938293,0.1538,-0.4100,-0.4569,-0.2208,0.0438,0.5521,19.2000,11.1375,-45.1688,
8.953550,0.1538,-0.4100,-0.4569,-0.2208,0.0438,0.5521,19.8000,11.3250,-44.7750,
8.975869,0.1538,-0.4100,-0.4569,-0.2208,0.0438,0.5521,19.8000,11.3250,-44.7750,
8.996355,0.1538,-0.4100,-0.4569,-0.3233,-0.0900,0.2393,19.8000,11.3250,-44.7750,
8.998463,-0.7663,-0.2596,-0.3806,-0.3233,-0.0900,0.2393,19.8000,11.3250,-44.7750,
9.013456,-0.7663,-0.2596,-0.3806,-0.3233,-0.0900,0.2393,20.5125,11.6625,-44.6813,
9.038253,-0.7663,-0.2596,-0.3806,-0.3233,-0.0900,0.2393,20.5125,11.6625,-44.6813,
9.057997,-0.7663,-0.2596,-0.3806,-0.3201,-0.2305,0.1417,20.5125,11.6625,-44.6813,
9.074674,-0.7663,-0.2596,-0.3806,-0.3201,-0.2305,0.1417,21.0750,12.1500,-44.7000,
9.077690,-0.7250,0.0184,-0.1402,-0.3201,-0.2305,0.1417,21.0750,12.1500,-44.7000,
9.098340,-0.7250,0.0184,-0.1402,-0.3201,-0.2305,0.1417,21.0750,12.1500,-44.7000,
9.118979,-0.7250,0.0184,-0.1402,-0.1746,0.1518,0.2919,21.0750,12.1500,-44.7000,
9.133836,-0.7250,0.0184,-0.1402,-0.1746,0.1518,0.2919,21.5250,12.7688,-44.5312,
9.139043,-0.0784,0.1597,-0.1121,-0.1746,0.1518,0.2919,21.5250,12.7688,-44.5312,
9.159632,-0.0784,0.1597,-0.1121,-0.1746,0.1518,0.2919,21.5250,12.7688,-44.5312,
9.180152,-0.0784,0.1597,-0.1121,0.0449,-0.1201,0.3575,21.5250,12.7688,-44.5312,
9.194656,-0.0784,0.1597,-0.1121,0.0449,-0.1201,0.3575,21.8813,12.9938,-44.2688,
9.201488,0.4180,-0.3448,-0.2487,0.0449,-0.1201,0.3575,21.8813,12.9938,-44.2688,
9.220005,0.4180,-0.3448,-0.2487,0.0449,-0.1201,0.3575,21.8813,12.9938,-44.2688,
9.240875,0.4180,-0.3448,-0.2487,-0.1451,-0.1418,0.2996,21.8813,12.9938,-44.2688,
9.253887,0.4180,-0.3448,-0.2487,-0.1451,-0.1418,0.2996,22.1813,13.1063,-44.1562,
9.260912,-0.1664,0.1470,0.0077,-0.1451,-0.1418,0.2996,22.1813,13.1063,-44.1562,
9.281348,-0.1664,0.1470,0.0077,-0.1451,-0.1418,0.2996,22.1813,13.1063,-44.1562,
9.301567,-0.1664,0.1470,0.0077,0.0895,0.0332,0.2770,22.1813,13.1063,-44.1562,
9.313190,-0.1664,0.1470,0.0077,0.0895,0.0332,0.2770,22.1250,12.9938,-44.1000,
9.342957,-0.1664,0.1470,0.0077,0.0895,0.0332,0.2770,22.1250,12.9938,-44.1000,
9.344487,0.1322,-0.1270,-0.3933,0.0895,0.0332,0.2770,22.1250,12.9938,-44.1000,
9.363139,0.1322,-0.1270,-0.3933,0.3178,0.2945,0.2229,22.1250,12.9938,-44.1000,
9.373760,0.1322,-0.1270,-0.3933,0.3178,0.2945,0.2229,22.1625,12.6563,-44.1938,
9.402528,0.1322,-0.1270,-0.3933,0.3178,0.2945,0.2229,22.1625,12.6563,-44.1938,
9.403607,-0.0965,-0.6300,-1.1747,0.3178,0.2945,0.2229,22.1625,12.6563,-44.1938,
9.423021,-0.0965,-0.6300,-1.1747,0.1304,0.2330,0.3238,22.1625,12.6563,-44.1938,
9.434690,-0.0965,-0.6300,-1.1747,0.1304,0.2330,0.3238,22.1250,12.3563,-44.1562,
9.466410,-0.0965,-0.6300,-1.1747,0.1304,0.2330,0.3238,22.1250,12.3563,-44.1562,
9.469778,-0.3980,0.2602,0.5634,0.1304,0.2330,0.3238,22.1250,12.3563,-44.1562,
9.485400,-0.3980,0.2602,0.5634,-0.4473,0.0968,0.2372,22.1250,12.3563,-44.1562,
9.494170,-0.3980,0.2602,0.5634,-0.4473,0.0968,0.2372,22.1438,11.8688,-43.9125,
9.525635,-0.3980,0.2602,0.5634,-0.4473,0.0968,0.2372,22.1438,11.8688,-43.9125,
9.545183,-0.3980,0.2602,0.5634,-0.4188,0.2202,0.0241,22.1438,11.8688,-43.9125,
9.547533,-0.2698,0.6607,1.3792,-0.4188,0.2202,0.0241,22.1438,11.8688,-43.9125,
9.553681,-0.2698,0.6607,1.3792,-0.4188,0.2202,0.0241,22.3688,11.4938,-43.6875,
9.585946,-0.2698,0.6607,1.3792,-0.4188,0.2202,0.0241,22.3688,11.4938,-43.6875,
9.606376,-0.2698,0.6607,1.3792,-0.2924,0.2884,-0.1864,22.3688,11.4938,-43.6875,
9.607742,-0.1343,-0.2188,-0.3056,-0.2924,0.2884,-0.1864,22.3688,11.4938,-43.6875,
9.615960,-0.1343,-0.2188,-0.3056,-0.2924,0.2884,-0.1864,22.7438,11.3813,-43.5000,
9.646092,-0.1343,-0.2188,-0.3056,-0.2924,0.2884,-0.1864,22.7438,11.3813,-43.5000,
9.666196,-0.1343,-0.2188,-0.3056,-0.2097,0.3385,-0.2734,22.7438,11.3813,-43.5000,
9.668025,-0.6053,-0.0563,-0.2190,-0.2097,0.3385,-0.2734,22.7438,11.3813,-43.5000,
9.674241,-0.6053,-0.0563,-0.2190,-0.2097,0.3385,-0.2734,23.0813,11.5125,-43.5000,
9.708101,-0.6053,-0.0563,-0.2190,-0.2097,0.3385,-0.2734,23.0813,11.5125,-43.5000,
9.727584,-0.6053,-0.0563,-0.2190,-0.3312,0.2302,-0.3586,23.0813,11.5125,-43.5000,
9.730397,-0.4983,-0.0551,-0.3128,-0.3312,0.2302,-0.3586,23.0813,11.5125,-43.5000,
9.735151,-0.4983,-0.0551,-0.3128,-0.3312,0.2302,-0.3586,23.4750,11.7375,-43.2188,
9.770004,-0.4983,-0.0551,-0.3128,-0.3312,0.2302,-0.3586,23.4750,11.7375,-43.2188,
9.789027,-0.4983,-0.0551,-0.3128,-0.4863,0.3318,-0.1920,23.4750,11.7375,-43.2188,
9.792558,-0.4983,-0.0551,-0.3128,-0.4863,0.3318,-0.1920,24.2063,12.3938,-42.7875,
9.809663,-0.1067,0.1176,0.6503,-0.4863,0.3318,-0.1920,24.2063,12.3938,-42.7875,
9.830479,-0.1067,0.1176,0.6503,-0.4863,0.3318,-0.1920,24.2063,12.3938,-42.7875,
9.850204,-0.1067,0.1176,0.6503,-0.5686,0.3097,-0.0916,24.2063,12.3938,-42.7875,
9.857557,-0.1067,0.1176,0.6503,-0.5686,0.3097,-0.0916,24.8063,13.3313,-42.1500,
9.869607,-0.0978,0.1573,0.1873,-0.5686,0.3097,-0.0916,24.8063,13.3313,-42.1500,
9.891142,-0.0978,0.1573,0.1873,-0.5686,0.3097,-0.0916,24.8063,13.3313,-42.1500,
9.911760,-0.0978,0.1573,0.1873,-0.6088,0.1539,-0.2240,24.8063,13.3313,-42.1500,
9.914822,-0.0978,0.1573,0.1873,-0.6088,0.1539,-0.2240,25.3875,14.3625,-41.5688,
9.931202,-0.3113,0.1423,0.3518,-0.6088,0.1539,-0.2240,25.3875,14.3625,-41.5688,
9.951234,-0.3113,0.1423,0.3518,-0.6088,0.1539,-0.2240,25.3875,14.3625,-41.5688,
9.971628,-0.3113,0.1423,0.3518,-0.4164,-0.1099,-0.5265,25.3875,14.3625,-41.5688,
9.974277,-0.3113,0.1423,0.3518,-0.4164,-0.1099,-0.5265,25.8188,15.7313,-41.0438,
10.013328,-0.3113,0.1423,0.3518,-0.4164,-0.1099,-0.5265,25.8188,15.7313,-41.0438,
10.015719,-0.2837,-0.1382,-0.1047,-0.4164,-0.1099,-0.5265,25.8188,15.7313,-41.0438,
10.032893,-0.2837,-0.1382,-0.1047,-0.3922,-0.1376,-0.2992,25.8188,15.7313,-41.0438,
10.035166,-0.2837,-0.1382,-0.1047,-0.3922,-0.1376,-0.2992,26.1938,17.3813,-40.4062,
10.077998,-0.2665,0.0851,0.0688,-0.3922,-0.1376,-0.2992,26.1938,17.3813,-40.4062,
10.080291,-0.2665,0.0851,0.0688,-0.3922,-0.1376,-0.2992,26.1938,17.3813,-40.4062,
10.094069,-0.2665,0.0851,0.0688,-0.3876,0.0218,-0.2489,26.1938,17.3813,-40.4062,
10.094929,-0.2665,0.0851,0.0688,-0.3876,0.0218,-0.2489,26.3625,18.9000,-39.6562,
10.135894,-0.2665,0.0851,0.0688,-0.3876,0.0218,-0.2489,26.3625,18.9000,-39.6562,
10.137985,-0.3134,-0.1425,0.1090,-0.3876,0.0218,-0.2489,26.3625,18.9000,-39.6562,
10.155033,-0.3134,-0.1425,0.1090,-0.3876,0.0218,-0.2489,26.5500,20.2313,-38.9625,
10.157755,-0.3134,-0.1425,0.1090,-0.3755,0.2775,-0.2641,26.5500,20.2313,-38.9625,
10.197742,-0.3134,-0.1425,0.1090,-0.3755,0.2775,-0.2641,26.5500,20.2313,-38.9625,
10.201451,0.0395,0.0291,-0.0529,-0.3755,0.2775,-0.2641,26.5500,20.2313,-38.9625,
10.215992,0.0395,0.0291,-0.0529,-0.3755,0.2775,-0.2641,26.6438,21.8063,-38.2125,
10.218671,0.0395,0.0291,-0.0529,-0.5157,0.4642,-0.1545,26.6438,21.8063,-38.2125,
10.256765,0.0395,0.0291,-0.0529,-0.5157,0.4642,-0.1545,26.6438,21.8063,-38.2125,
10.274452,0.0395,0.0291,-0.0529,-0.5157,0.4642,-0.1545,26.6250,23.2125,-37.5375,
10.276209,0.0395,0.0291,-0.0529,-0.6868,0.3634,0.0166,26.6250,23.2125,-37.5375,
10.277057,0.0651,0.0027,-0.2295,-0.6868,0.3634,0.0166,26.6250,23.2125,-37.5375,
10.318147,0.0651,0.0027,-0.2295,-0.6868,0.3634,0.0166,26.6250,23.2125,-37.5375,
10.334848,0.0651,0.0027,-0.2295,-0.6868,0.3634,0.0166,26.7375,24.6563,-36.8250,
10.339091,0.0651,0.0027,-0.2295,-0.3506,0.3662,-0.2261,26.7375,24.6563,-36.8250,
10.340275,0.1955,0.1003,0.3883,-0.3506,0.3662,-0.2261,26.7375,24.6563,-36.8250,
10.378796,0.1955,0.1003,0.3883,-0.3506,0.3662,-0.2261,26.7375,24.6563,-36.8250,
10.395350,0.1955,0.1003,0.3883,-0.3506,0.3662,-0.2261,26.7563,26.1000,-36.0000,
10.398072,0.1955,0.1003,0.3883,-0.0173,0.4163,-0.7281,26.7563,26.1000,-36.0000,
10.399042,-0.8217,-0.5513,-0.6845,-0.0173,0.4163,-0.7281,26.7563,26.1000,-36.0000,
10.438938,-0.8217,-0.5513,-0.6845,-0.0173,0.4163,-0.7281,26.7563,26.1000,-36.0000,
10.454424,-0.8217,-0.5513,-0.6845,-0.0173,0.4163,-0.7281,26.7938,27.4688,-35.1938,
10.458847,-0.8217,-0.5513,-0.6845,0.0792,0.2579,-0.8815,26.7938,27.4688,-35.1938,
10.459943,-0.4029,-0.1003,-0.1381,0.0792,0.2579,-0.8815,26.7938,27.4688,-35.1938,
10.498495,-0.4029,-0.1003,-0.1381,0.0792,0.2579,-0.8815,26.7938,27.4688,-35.1938,
10.513425,-0.4029,-0.1003,-0.1381,0.0792,0.2579,-0.8815,26.8688,28.8188,-34.3125,
10.518230,-0.4029,-0.1003,-0.1381,0.1357,-0.1105,-0.7565,26.8688,28.8188,-34.3125,
10.539926,-0.4775,0.3683,-0.8332,0.1357,-0.1105,-0.7565,26.8688,28.8188,-34.3125,
10.560073,-0.4775,0.3683,-0.8332,0.1357,-0.1105,-0.7565,26.8688,28.8188,-34.3125,
10.572423,-0.4775,0.3683,-0.8332,0.1357,-0.1105,-0.7565,26.7750,30.1688,-33.8063,
10.580114,-0.4775,0.3683,-0.8332,0.0686,-0.0023,-0.3684,26.7750,30.1688,-33.8063,
10.600069,0.3561,0.1035,-0.1731,0.0686,-0.0023,-0.3684,26.7750,30.1688,-33.8063,
10.620560,0.3561,0.1035,-0.1731,0.0686,-0.0023,-0.3684,26.7750,30.1688,-33.8063,
10.632610,0.3561,0.1035,-0.1731,0.0686,-0.0023,-0.3684,26.5125,31.5938,-33.3375,
10.640483,0.3561,0.1035,-0.1731,0.0246,0.1894,-0.2470,26.5125,31.5938,-33.3375,
10.660604,0.0407,0.0844,0.1975,0.0246,0.1894,-0.2470,26.5125,31.5938,-33.3375,
10.682685,0.0407,0.0844,0.1975,0.0246,0.1894,-0.2470,26.5125,31.5938,-33.3375,
10.694365,0.0407,0.0844,0.1975,0.0246,0.1894,-0.2470,31.8563,21.8813,-34.8563,
10.702095,0.0407,0.0844,0.1975,0.0874,0.3095,-0.1178,31.8563,21.8813,-34.8563,
10.743408,0.0407,0.0844,0.1975,0.0874,0.3095,-0.1178,31.8563,21.8813,-34.8563,
10.745451,0.4217,-0.0973,-0.6713,0.0874,0.3095,-0.1178,31.8563,21.8813,-34.8563,
10.755555,0.4217,-0.0973,-0.6713,0.0874,0.3095,-0.1178,31.6313,22.7438,-34.4813,
10.763555,0.4217,-0.0973,-0.6713,0.0441,-0.2703,-0.1079,31.6313,22.7438,-34.4813,
10.803992,0.4217,-0.0973,-0.6713,0.0441,-0.2703,-0.1079,31.6313,22.7438,-34.4813,
10.806106,-0.3991,0.1449,0.7113,0.0441,-0.2703,-0.1079,31.6313,22.7438,-34.4813,
10.813997,-0.3991,0.1449,0.7113,0.0441,-0.2703,-0.1079,31.0875,23.4563,-34.3875,
10.824213,-0.3991,0.1449,0.7113,-0.0542,-0.1759,-0.1534,31.0875,23.4563,-34.3875,
10.864137,-0.3991,0.1449,0.7113,-0.0542,-0.1759,-0.1534,31.0875,23.4563,-34.3875,
10.865911,0.0569,0.0906,0.0537,-0.0542,-0.1759,-0.1534,31.0875,23.4563,-34.3875,
10.873163,0.0569,0.0906,0.0537,-0.0542,-0.1759,-0.1534,30.7500,24.0563,-34.2938,
10.885162,0.0569,0.0906,0.0537,0.0419,-0.0285,-0.3458,30.7500,24.0563,-34.2938,
10.926053,0.0569,0.0906,0.0537,0.0419,-0.0285,-0.3458,30.7500,24.0563,-34.2938,
10.928528,-0.0735,-0.1227,-0.4267,0.0419,-0.0285,-0.3458,30.7500,24.0563,-34.2938,
10.933900,-0.0735,-0.1227,-0.4267,0.0419,-0.0285,-0.3458,30.2813,24.6188,-34.2563,
10.945928,-0.0735,-0.1227,-0.4267,0.0594,-0.0104,-0.4434,30.2813,24.6188,-34.2563,
10.987482,-0.0735,-0.1227,-0.4267,0.0594,-0.0104,-0.4434,30.2813,24.6188,-34.2563,
10.993777,-0.0735,-0.1227,-0.4267,0.0594,-0.0104,-0.4434,29.6063,24.8438,-34.4062,
11.006973,-0.0735,-0.1227,-0.4267,0.1438,-0.2611,-0.2559,29.6063,24.8438,-34.4062,
11.008830,-0.1799,0.0006,-0.0899,0.1438,-0.2611,-0.2559,29.6063,24.8438,-34.4062,
11.048494,-0.1799,0.0006,-0.0899,0.1438,-0.2611,-0.2559,29.6063,24.8438,-34.4062,
11.055451,-0.1799,0.0006,-0.0899,0.1438,-0.2611,-0.2559,29.1938,25.0500,-34.3500,
11.067688,-0.1799,0.0006,-0.0899,0.1172,-0.2017,-0.2123,29.1938,25.0500,-34.3500,
11.069999,0.1049,0.2093,-0.1322,0.1172,-0.2017,-0.2123,29.1938,25.0500,-34.3500,
11.111401,0.1049,0.2093,-0.1322,0.1172,-0.2017,-0.2123,29.1938,25.0500,-34.3500,
11.113690,0.1049,0.2093,-0.1322,0.1172,-0.2017,-0.2123,28.7250,25.1813,-34.2375,
11.128562,0.1049,0.2093,-0.1322,-0.0361,0.0875,-0.0184,28.7250,25.1813,-34.2375,
11.131679,0.0960,-0.0347,0.1720,-0.0361,0.0875,-0.0184,28.7250,25.1813,-34.2375,
11.169625,0.0960,-0.0347,0.1720,-0.0361,0.0875,-0.0184,28.7250,25.1813,-34.2375,
11.175587,0.0960,-0.0347,0.1720,-0.0361,0.0875,-0.0184,28.1438,25.2375,-34.0312,
11.188993,0.0960,-0.0347,0.1720,-0.1153,0.0889,0.1477,28.1438,25.2375,-34.0312,
11.210074,0.4709,0.0077,-0.1356,-0.1153,0.0889,0.1477,28.1438,25.2375,-34.0312,
11.230747,0.4709,0.0077,-0.1356,-0.1153,0.0889,0.1477,28.1438,25.2375,-34.0312,
11.232526,0.4709,0.0077,-0.1356,-0.1153,0.0889,0.1477,27.7500,25.5375,-34.0688,
11.250307,0.4709,0.0077,-0.1356,-0.1124,-0.0740,0.1445,27.7500,25.5375,-34.0688,
11.270583,0.2076,-0.2740,-0.0098,-0.1124,-0.0740,0.1445,27.7500,25.5375,-34.0688,
11.292336,0.2076,-0.2740,-0.0098,-0.1124,-0.0740,0.1445,27.4688,25.8188,-34.0125,
11.294273,0.2076,-0.2740,-0.0098,-0.1124,-0.0740,0.1445,27.4688,25.8188,-34.0125,
11.311368,0.2076,-0.2740,-0.0098,-0.1987,-0.1550,0.4033,27.4688,25.8188,-34.0125,
11.332483,-0.2323,-0.7730,-0.3712,-0.1987,-0.1550,0.4033,27.4688,25.8188,-34.0125,
11.353650,-0.2323,-0.7730,-0.3712,-0.1987,-0.1550,0.4033,27.4688,25.8188,-34.0125,
11.356137,-0.2323,-0.7730,-0.3712,-0.1987,-0.1550,0.4033,27.1875,26.0250,-33.9750,
11.371607,-0.2323,-0.7730,-0.3712,-0.1113,-0.1273,0.2435,27.1875,26.0250,-33.9750,
11.392671,0.3164,0.4780,0.2267,-0.1113,-0.1273,0.2435,27.1875,26.0250,-33.9750,
11.413485,0.3164,0.4780,0.2267,-0.1113,-0.1273,0.2435,27.1875,26.0250,-33.9750,
11.415994,0.3164,0.4780,0.2267,-0.1113,-0.1273,0.2435,27.0938,26.0063,-34.0688,
11.435149,0.3164,0.4780,0.2267,-0.2892,-0.2149,0.7253,27.0938,26.0063,-34.0688,
11.475817,0.3164,0.4780,0.2267,-0.2892,-0.2149,0.7253,27.3000,25.9688,-33.9000,
11.479284,0.3164,0.4780,0.2267,-0.2892,-0.2149,0.7253,27.3000,25.9688,-33.9000,
11.480992,-0.2354,-0.7072,-0.0681,-0.2892,-0.2149,0.7253,27.3000,25.9688,-33.9000,
11.494239,-0.2354,-0.7072,-0.0681,-0.2935,-0.2526,0.3778,27.3000,25.9688,-33.9000,
11.536490,-0.2354,-0.7072,-0.0681,-0.2935,-0.2526,0.3778,27.5250,25.7625,-33.6562,
11.540806,-0.2354,-0.7072,-0.0681,-0.2935,-0.2526,0.3778,27.5250,25.7625,-33.6562,
11.543132,1.0280,0.2029,0.2638,-0.2935,-0.2526,0.3778,27.5250,25.7625,-33.6562,
11.554512,1.0280,0.2029,0.2638,-0.3706,0.0542,0.1072,27.5250,25.7625,-33.6562,
11.595859,1.0280,0.2029,0.2638,-0.3706,0.0542,0.1072,28.0875,25.3875,-33.3000,
11.599713,1.0280,0.2029,0.2638,-0.3706,0.0542,0.1072,28.0875,25.3875,-33.3000,
11.601834,0.3107,-0.8942,0.0111,-0.3706,0.0542,0.1072,28.0875,25.3875,-33.3000,
11.615303,0.3107,-0.8942,0.0111,-0.4611,0.1077,0.4711,28.0875,25.3875,-33.3000,
11.658202,0.3107,-0.8942,0.0111,-0.4611,0.1077,0.4711,28.5188,24.9750,-32.9438,
11.661778,0.3107,-0.8942,0.0111,-0.4611,0.1077,0.4711,28.5188,24.9750,-32.9438,
11.676712,0.3107,-0.8942,0.0111,-0.3553,0.1077,-0.0695,28.5188,24.9750,-32.9438,
11.679854,-0.8528,-0.3580,0.3119,-0.3553,0.1077,-0.0695,28.5188,24.9750,-32.9438,
11.715037,-0.8528,-0.3580,0.3119,-0.3553,0.1077,-0.0695,28.9688,24.6938,-32.3813,
11.718437,-0.8528,-0.3580,0.3119,-0.3553,0.1077,-0.0695,28.9688,24.6938,-32.3813,
11.737625,-0.8528,-0.3580,0.3119,-0.6244,0.6040,-0.6169,28.9688,24.6938,-32.3813,
11.739521,1.5845,0.3366,0.5452,-0.6244,0.6040,-0.6169,28.9688,24.6938,-32.3813,
11.774136,1.5845,0.3366,0.5452,-0.6244,0.6040,-0.6169,29.3625,24.7313,-31.4250,
11.779057,1.5845,0.3366,0.5452,-0.6244,0.6040,-0.6169,29.3625,24.7313,-31.4250,
11.799772,1.5845,0.3366,0.5452,-0.6109,0.3655,-0.6766,29.3625,24.7313,-31.4250,
11.802910,0.1811,-1.8558,0.3629,-0.6109,0.3655,-0.6766,29.3625,24.7313,-31.4250,
11.835668,0.1811,-1.8558,0.3629,-0.6109,0.3655,-0.6766,29.5313,24.8063,-30.5250,
11.839442,0.1811,-1.8558,0.3629,-0.6109,0.3655,-0.6766,29.5313,24.8063,-30.5250,
11.861174,-1.2385,-0.7322,0.2244,-0.6109,0.3655,-0.6766,29.5313,24.8063,-30.5250,
11.864009,-1.2385,-0.7322,0.2244,-0.5551,-0.0087,0.0334,29.5313,24.8063,-30.5250,
11.894643,-1.2385,-0.7322,0.2244,-0.5551,-0.0087,0.0334,29.7750,25.0688,-29.2125,
11.902551,-1.2385,-0.7322,0.2244,-0.5551,-0.0087,0.0334,29.7750,25.0688,-29.2125,
11.921485,-1.2385,-0.7322,0.2244,-0.9464,-0.0236,-0.1246,29.7750,25.0688,-29.2125,
11.940862,-0.4750,-0.8223,0.2919,-0.9464,-0.0236,-0.1246,29.7750,25.0688,-29.2125,
11.955489,-0.4750,-0.8223,0.2919,-0.9464,-0.0236,-0.1246,29.7750,25.2938,-27.9000,
11.961874,-0.4750,-0.8223,0.2919,-0.9464,-0.0236,-0.1246,29.7750,25.2938,-27.9000,
11.982052,-0.4750,-0.8223,0.2919,-0.7454,0.1000,0.3518,29.7750,25.2938,-27.9000,
12.001419,-0.4232,0.0826,0.7229,-0.7454,0.1000,0.3518,29.7750,25.2938,-27.9000,
12.013571,-0.4232,0.0826,0.7229,-0.7454,0.1000,0.3518,29.9250,25.5375,-26.6063,
12.021668,-0.4232,0.0826,0.7229,-0.7454,0.1000,0.3518,29.9250,25.5375,-26.6063,
12.043839,-0.4232,0.0826,0.7229,1.0317,0.0097,1.3906,29.9250,25.5375,-26.6063,
12.062851,-1.0801,2.5588,2.4385,1.0317,0.0097,1.3906,29.9250,25.5375,-26.6063,
12.073916,-1.0801,2.5588,2.4385,1.0317,0.0097,1.3906,30.0750,25.2563,-25.6313,
12.085683,-1.0801,2.5588,2.4385,1.0317,0.0097,1.3906,30.0750,25.2563,-25.6313,
12.103714,-1.0801,2.5588,2.4385,1.4904,-0.0240,0.7285,30.0750,25.2563,-25.6313,
12.136300,-1.0801,2.5588,2.4385,1.4904,-0.0240,0.7285,30.3938,24.8813,-25.0125,
12.143563,-1.0801,2.5588,2.4385,1.4904,-0.0240,0.7285,30.3938,24.8813,-25.0125,
12.144879,2.3879,1.7129,-0.0954,1.4904,-0.0240,0.7285,30.3938,24.8813,-25.0125,
12.165075,2.3879,1.7129,-0.0954,0.7466,0.2381,-0.0887,30.3938,24.8813,-25.0125,
12.195289,2.3879,1.7129,-0.0954,0.7466,0.2381,-0.0887,30.6750,24.1688,-24.6188,
12.206301,2.3879,1.7129,-0.0954,0.7466,0.2381,-0.0887,30.6750,24.1688,-24.6188,
12.207679,1.3630,0.6977,-1.9293,0.7466,0.2381,-0.0887,30.6750,24.1688,-24.6188,
12.224697,1.3630,0.6977,-1.9293,0.4129,0.1160,0.6493,30.6750,24.1688,-24.6188,
12.254671,1.3630,0.6977,-1.9293,0.4129,0.1160,0.6493,31.2375,22.8938,-24.6938,
12.266568,1.3630,0.6977,-1.9293,0.4129,0.1160,0.6493,31.2375,22.8938,-24.6938,
12.268598,-0.2121,0.7085,-1.6731,0.4129,0.1160,0.6493,31.2375,22.8938,-24.6938,
12.285993,-0.2121,0.7085,-1.6731,0.3828,0.1099,0.1581,31.2375,22.8938,-24.6938,
12.315847,-0.2121,0.7085,-1.6731,0.3828,0.1099,0.1581,31.6875,21.4500,-24.9000,
12.327544,-0.2121,0.7085,-1.6731,0.3828,0.1099,0.1581,31.6875,21.4500,-24.9000,
12.328852,1.3281,-0.5746,-0.9152,0.3828,0.1099,0.1581,31.6875,21.4500,-24.9000,
12.346754,1.3281,-0.5746,-0.9152,-0.2623,0.2788,-0.0170,31.6875,21.4500,-24.9000,
12.375605,1.3281,-0.5746,-0.9152,-0.2623,0.2788,-0.0170,32.1938,20.1188,-25.2563,
12.388378,1.3281,-0.5746,-0.9152,-0.2623,0.2788,-0.0170,32.1938,20.1188,-25.2563,
12.407937,1.3281,-0.5746,-0.9152,-0.3890,0.4414,-0.0149,32.1938,20.1188,-25.2563,
12.410701,0.3129,-0.8123,-0.6714,-0.3890,0.4414,-0.0149,32.1938,20.1188,-25.2563,
12.436016,0.3129,-0.8123,-0.6714,-0.3890,0.4414,-0.0149,32.8125,18.7313,-25.6125,
12.448160,0.3129,-0.8123,-0.6714,-0.3890,0.4414,-0.0149,32.8125,18.7313,-25.6125,
12.470429,0.3129,-0.8123,-0.6714,0.0963,0.1305,0.2109,32.8125,18.7313,-25.6125,
12.473693,0.7647,-1.2002,1.0772,0.0963,0.1305,0.2109,32.8125,18.7313,-25.6125,
12.494749,0.7647,-1.2002,1.0772,0.0963,0.1305,0.2109,33.3000,17.5125,-26.1000,
12.509813,0.7647,-1.2002,1.0772,0.0963,0.1305,0.2109,33.3000,17.5125,-26.1000,
12.529100,0.7647,-1.2002,1.0772,0.8248,-0.0509,-0.0791,33.3000,17.5125,-26.1000,
12.532700,1.2734,-1.5547,1.3595,0.8248,-0.0509,-0.0791,33.3000,17.5125,-26.1000,
12.555784,1.2734,-1.5547,1.3595,0.8248,-0.0509,-0.0791,33.6188,16.6313,-26.4375,
12.571531,1.2734,-1.5547,1.3595,0.8248,-0.0509,-0.0791,33.6188,16.6313,-26.4375,
12.588615,1.2734,-1.5547,1.3595,0.9334,0.0254,0.1577,33.6188,16.6313,-26.4375,
12.610959,-0.1429,-0.8332,0.4179,0.9334,0.0254,0.1577,33.6188,16.6313,-26.4375,
12.613981,-0.1429,-0.8332,0.4179,0.9334,0.0254,0.1577,33.7875,15.5625,-26.5500,
12.630970,-0.1429,-0.8332,0.4179,0.9334,0.0254,0.1577,33.7875,15.5625,-26.5500,
12.651308,-0.1429,-0.8332,0.4179,1.1726,0.0368,0.9152,33.7875,15.5625,-26.5500,
12.671270,-2.2313,0.6127,-0.9678,1.1726,0.0368,0.9152,33.7875,15.5625,-26.5500,
12.673789,-2.2313,0.6127,-0.9678,1.1726,0.0368,0.9152,33.8813,14.2313,-27.0188,
12.693763,-2.2313,0.6127,-0.9678,1.1726,0.0368,0.9152,33.8813,14.2313,-27.0188,
12.713601,-2.2313,0.6127,-0.9678,0.9927,0.0819,-0.7011,33.8813,14.2313,-27.0188,
12.735117,0.6141,1.7072,-1.4144,0.9927,0.0819,-0.7011,33.8813,14.2313,-27.0188,
12.738640,0.6141,1.7072,-1.4144,0.9927,0.0819,-0.7011,33.8625,13.2375,-27.2625,
12.753664,0.6141,1.7072,-1.4144,0.9927,0.0819,-0.7011,33.8625,13.2375,-27.2625,
12.775444,0.6141,1.7072,-1.4144,1.3654,0.6860,-1.7978,33.8625,13.2375,-27.2625,
12.794448,0.6510,1.3067,-1.7368,1.3654,0.6860,-1.7978,33.8625,13.2375,-27.2625,
12.798175,0.6510,1.3067,-1.7368,1.3654,0.6860,-1.7978,33.9750,12.4875,-27.6375,
12.815358,0.6510,1.3067,-1.7368,1.3654,0.6860,-1.7978,33.9750,12.4875,-27.6375,
12.835269,0.6510,1.3067,-1.7368,1.9245,1.8196,-1.1839,33.9750,12.4875,-27.6375,
12.855615,0.6510,1.3067,-1.7368,1.9245,1.8196,-1.1839,34.1438,11.6250,-27.9188,
12.876046,0.6510,1.3067,-1.7368,1.9245,1.8196,-1.1839,34.1438,11.6250,-27.9188,
12.878746,-1.5074,1.1117,-3.0301,1.9245,1.8196,-1.1839,34.1438,11.6250,-27.9188,
12.894359,-1.5074,1.1117,-3.0301,1.8745,1.5313,-2.3128,34.1438,11.6250,-27.9188,
12.914690,-1.5074,1.1117,-3.0301,1.8745,1.5313,-2.3128,34.3313,10.9688,-28.1813,
12.936512,-1.5074,1.1117,-3.0301,1.8745,1.5313,-2.3128,34.3313,10.9688,-28.1813,
12.939484,0.9669,1.5331,-4.0563,1.8745,1.5313,-2.3128,34.3313,10.9688,-28.1813,
12.957543,0.9669,1.5331,-4.0563,1.9341,0.5888,-2.1225,34.3313,10.9688,-28.1813,
12.978806,0.9669,1.5331,-4.0563,1.9341,0.5888,-2.1225,34.3688,10.2750,-28.2000,
12.998500,-3.2928,-1.9369,-1.1221,1.9341,0.5888,-2.1225,34.3688,10.2750,-28.2000,
13.002199,-3.2928,-1.9369,-1.1221,1.9341,0.5888,-2.1225,34.3688,10.2750,-28.2000,
13.015937,-3.2928,-1.9369,-1.1221,0.3892,-0.4173,-1.0060,34.3688,10.2750,-28.2000,
13.035060,-3.2928,-1.9369,-1.1221,0.3892,-0.4173,-1.0060,34.2563,10.1438,-28.4813,
13.058067,-3.2928,-1.9369,-1.1221,0.3892,-0.4173,-1.0060,34.2563,10.1438,-28.4813,
13.077939,-3.2928,-1.9369,-1.1221,-2.2946,0.0385,-0.5700,34.2563,10.1438,-28.4813,
13.080074,-2.6911,0.1508,-2.9814,-2.2946,0.0385,-0.5700,34.2563,10.1438,-28.4813,
13.093849,-2.6911,0.1508,-2.9814,-2.2946,0.0385,-0.5700,34.0125,10.7812,-28.4438,
13.120641,-2.6911,0.1508,-2.9814,-2.2946,0.0385,-0.5700,34.0125,10.7812,-28.4438,
13.141431,-2.6911,0.1508,-2.9814,2.1900,0.3244,-0.1374,34.0125,10.7812,-28.4438,
13.144616,0.0407,-2.4001,-0.3206,2.1900,0.3244,-0.1374,34.0125,10.7812,-28.4438,
13.154805,0.0407,-2.4001,-0.3206,2.1900,0.3244,-0.1374,33.8438,11.5688,-28.1813,
13.179867,0.0407,-2.4001,-0.3206,2.1900,0.3244,-0.1374,33.8438,11.5688,-28.1813,
13.199666,0.0407,-2.4001,-0.3206,2.0072,1.1003,-0.9876,33.8438,11.5688,-28.1813,
13.202749,1.1768,-1.2320,8.0890,2.0072,1.1003,-0.9876,33.8438,11.5688,-28.1813,
13.213150,1.1768,-1.2320,8.0890,2.0072,1.1003,-0.9876,33.8438,12.1875,-28.1063,
13.242770,1.1768,-1.2320,8.0890,2.0072,1.1003,-0.9876,33.8438,12.1875,-28.1063,
13.262152,1.1768,-1.2320,8.0890,1.1790,3.2112,-0.9280,33.8438,12.1875,-28.1063,
13.266002,1.5139,-1.9004,-2.6344,1.1790,3.2112,-0.9280,33.8438,12.1875,-28.1063,
13.274756,1.5139,-1.9004,-2.6344,1.1790,3.2112,-0.9280,34.2375,12.6750,-27.3000,
13.303284,1.5139,-1.9004,-2.6344,1.1790,3.2112,-0.9280,34.2375,12.6750,-27.3000,
13.322512,1.5139,-1.9004,-2.6344,-0.3961,1.1330,-0.5404,34.2375,12.6750,-27.3000,
13.333751,1.5139,-1.9004,-2.6344,-0.3961,1.1330,-0.5404,34.7438,13.2750,-26.1000,
13.340667,0.3645,-0.0685,-1.6006,-0.3961,1.1330,-0.5404,34.7438,13.2750,-26.1000,
13.361821,0.3645,-0.0685,-1.6006,-0.3961,1.1330,-0.5404,34.7438,13.2750,-26.1000,
13.381775,0.3645,-0.0685,-1.6006,-0.4164,-0.0391,-0.0096,34.7438,13.2750,-26.1000,
13.395857,0.3645,-0.0685,-1.6006,-0.4164,-0.0391,-0.0096,35.0813,13.7063,-25.1813,
13.403608,-2.2514,1.0134,1.6247,-0.4164,-0.0391,-0.0096,35.0813,13.7063,-25.1813,
13.424794,-2.2514,1.0134,1.6247,-0.4164,-0.0391,-0.0096,35.0813,13.7063,-25.1813,
13.446106,-2.2514,1.0134,1.6247,-0.4302,-0.3240,0.0515,35.0813,13.7063,-25.1813,
13.457128,-2.2514,1.0134,1.6247,-0.4302,-0.3240,0.0515,35.6063,14.2125,-24.5438,
13.465492,-0.3316,0.5707,1.1552,-0.4302,-0.3240,0.0515,35.6063,14.2125,-24.5438,
13.483722,-0.3316,0.5707,1.1552,-0.4302,-0.3240,0.0515,35.6063,14.2125,-24.5438,
13.503548,-0.3316,0.5707,1.1552,-0.3783,-0.5252,0.1519,35.6063,14.2125,-24.5438,
13.514660,-0.3316,0.5707,1.1552,-0.3783,-0.5252,0.1519,36.2063,14.5500,-23.6438,
13.544145,-0.3316,0.5707,1.1552,-0.3783,-0.5252,0.1519,36.2063,14.5500,-23.6438,
13.545704,-0.7105,1.0811,1.1760,-0.3783,-0.5252,0.1519,36.2063,14.5500,-23.6438,
13.564281,-0.7105,1.0811,1.1760,0.1939,0.0726,0.0497,36.2063,14.5500,-23.6438,
13.573309,-0.7105,1.0811,1.1760,0.1939,0.0726,0.0497,37.0312,14.3250,-23.0250,
13.607239,0.0100,0.4100,1.1113,0.1939,0.0726,0.0497,37.0312,14.3250,-23.0250,
13.609753,0.0100,0.4100,1.1113,0.1939,0.0726,0.0497,37.0312,14.3250,-23.0250,
