time,ax,ay,az,wx,wy,wz,Bx,By,Bz,time_diff,acc_mag,acc_mag_filtered,label
0.03376,0.0,0.0,0.0,0.0,0.0,0.0,0.0,0.0,0.0,0.0,0.0,0.0022912559526881452,non_fall
0.05376,-0.0213,0.1136,-0.038,0.0,0.0,0.0,-2.325,22.275,38.775,0.020000000000000004,0.12166614155137821,0.03880218553674382,non_fall
0.07376,-0.0086,0.0832,-0.0151,0.0,0.0,0.0,-2.325,22.275,38.775,0.020000000000000004,0.0849953528141392,0.0685897528635896,non_fall
0.09376,-0.0029,0.0678,0.015,-0.0356,0.0426,-0.0241,-2.325,22.275,38.775,0.01999999999999999,0.0695,0.08672682765076081,non_fall
0.11376,0.0103,0.0477,0.0057,-0.0356,0.0426,-0.0241,-2.325,22.275,38.775,0.020000000000000004,0.04913115101440226,0.0909341249688013,non_fall
0.13376,0.0101,0.0185,0.0373,-0.0356,0.0426,-0.0241,-2.85,21.975,39.15,0.01999999999999999,0.04284331919914702,0.08221267590971688,non_fall
0.15376,-0.0515,-0.0088,0.0953,-0.0394,0.0527,-0.0089,-2.85,21.975,39.15,0.020000000000000018,0.10868201323126103,0.06507459845190948,non_fall
0.17376,-0.0791,0.0396,0.0491,-0.0394,0.0527,-0.0089,-2.85,21.975,39.15,0.01999999999999999,0.10117203170837284,0.04739638661749632,non_fall
0.19376,-0.0518,0.0305,-0.0738,-0.0394,0.0527,-0.0089,-4.575,20.85,39.75,0.01999999999999999,0.09518366456488214,0.03951981045978003,non_fall
0.21376,-0.0177,0.0385,-0.0302,-0.0394,0.0527,-0.0089,-4.575,20.85,39.75,0.020000000000000018,0.05203441169072636,0.052106823294650086,non_fall
0.23376,0.0047,0.0296,0.0149,-0.0171,0.0423,-0.0038,-4.575,20.85,39.75,0.01999999999999999,0.0334702853289302,0.09275135951243443,non_fall
0.25376,-0.0841,-0.0053,0.1374,-0.0171,0.0423,-0.0038,-4.575,20.85,39.75,0.01999999999999999,0.16118207096324327,0.1622535152020341,non_fall
0.27376,0.02525,-0.02865,-0.0647,-0.0171,0.0423,-0.0038,-4.125,20.775,39.75,0.020000000000000018,0.07512972114948917,0.2521847760871972,non_fall
0.29376,0.0871,0.0646,-0.2965,-0.0269,0.0571,0.0031,-4.125,20.775,39.75,0.020000000000000018,0.3157084414455844,0.34538900823559787,non_fall
0.31376,-0.2743,0.0756,0.2968,-0.0269,0.0571,0.0031,-4.125,20.775,39.75,0.019999999999999962,0.4111521494532164,0.4201621507732648,non_fall
0.33376,-0.0529,0.2718,-0.6161,-0.0269,0.0571,0.0031,-4.575,20.85,39.075,0.020000000000000018,0.6754649213689783,0.4572054368998314,non_fall
0.35376,-0.0261,-0.046,0.6081,-0.0636,0.0272,0.0023,-4.575,20.85,39.075,0.020000000000000018,0.610395625803462,0.44672978874507313,non_fall
0.37376,0.0339,-0.1268,0.4052,-0.1003,-0.0027,0.0015,-4.575,20.85,39.075,0.019999999999999962,0.42592779904580075,0.3924116614511725,non_fall
0.39376,0.0043,0.0774,-0.1585,-0.1003,-0.0027,0.0015,-4.575,20.85,39.075,0.020000000000000018,0.1764412083386418,0.31007542881862954,non_fall
0.41376,0.0054,0.0523,0.0665,-0.1003,-0.0027,0.0015,-4.65,20.175,39.45,0.020000000000000018,0.08477440651517415,0.22159321752461153,non_fall
0.43376,-0.0392,0.0642,0.02,-0.0009,-0.0099,0.009,-4.65,20.175,39.45,0.019999999999999962,0.07783495358770376,0.14693320117479747,non_fall
0.45376,-0.0671,0.0657,-0.0055,-0.0009,-0.0099,0.009,-4.65,20.175,39.45,0.020000000000000018,0.09406992080362353,0.09797722551291312,non_fall
0.47376,-0.0432,0.0059,0.065,-0.0009,-0.0099,0.009,-4.35,19.875,39.45,0.020000000000000018,0.07826908712895533,0.07641189494854851,non_fall
0.49376,-0.0534,-0.0131,0.2118,-0.0009,-0.0099,0.009,-4.35,19.875,39.45,0.019999999999999962,0.21882049721175573,0.07574861538029534,non_fall
0.51376,-0.0654,0.0553,-0.0785,0.0043,0.0055,0.007,-4.35,19.875,39.45,0.020000000000000018,0.11617874160103474,0.08572089526740788,non_fall
0.53376,-0.043,0.00655,0.038,0.0043,0.0055,0.007,-4.35,19.875,39.45,0.020000000000000018,0.05775727226938613,0.09673395461696992,non_fall
0.55376,0.00755,-0.0289,0.09325,0.0043,0.0055,0.007,-4.725,20.25,39.975,0.020000000000000018,0.09791718439579439,0.10268841650442118,non_fall
0.57376,-0.0215,0.0267,0.1045,0.0072,-0.007,0.009,-4.725,20.25,39.975,0.020000000000000018,0.10997904345828799,0.10170922244513227,non_fall
0.59376,-0.0447,0.0374,0.057,0.0072,-0.007,0.009,-4.725,20.25,39.975,0.019999999999999907,0.0815220828978259,0.09526721061410698,non_fall
0.61376,-0.0518,0.0037,0.0414,0.0072,-0.007,0.009,-4.05,20.55,39.675,0.020000000000000018,0.06641453154242677,0.08652616982721903,non_fall
0.63376,-0.05055,0.0514,0.0377,0.0072,-0.007,0.009,-4.05,20.55,39.675,0.020000000000000018,0.08135448666176931,0.07867523789746836,non_fall
0.65376,-0.0255,0.0176,-0.0384,0.0116,0.0111,0.0171,-4.05,20.55,39.675,0.020000000000000018,0.0493413619593136,0.07379542156166685,non_fall
0.67376,0.0392,-0.0374,0.0203,0.0116,0.0111,0.0171,-4.05,20.55,39.675,0.020000000000000018,0.05785749735341134,0.07254337229257359,non_fall
0.69376,-0.0084,0.0428,0.115,0.0116,0.0111,0.0171,-3.825,20.85,39.75,0.020000000000000018,0.1229934957629874,0.07461479579277572,non_fall
0.71376,-0.06255,0.0394,0.05415,0.0133,0.0029,0.0237,-3.825,20.85,39.75,0.019999999999999907,0.09163560989047871,0.07962705816485038,non_fall
0.73376,-0.095,0.0297,-0.0055,0.0133,0.0029,0.0237,-3.825,20.85,39.75,0.020000000000000018,0.09968620767187406,0.08786683645127581,non_fall
0.75376,-0.0741,0.0587,-0.01,0.0133,0.0029,0.0237,-3.75,20.85,39.675,0.020000000000000018,0.09506050704682781,0.10042651188522728,non_fall
0.77376,0.0459,0.0923,0.00915,0.0133,0.0029,0.0237,-3.75,20.85,39.675,0.020000000000000018,0.10348827228241855,0.11859808069465261,non_fall
0.79376,0.1331,0.099,0.002,0.016,-0.0339,0.0353,-3.75,20.85,39.675,0.020000000000000018,0.1658933693671932,0.14280356443679165,non_fall
0.81376,0.0201,0.0866,0.0677,0.016,-0.0339,0.0353,-4.125,20.85,39.675,0.020000000000000018,0.11174461955727442,0.17159900363656658,non_fall
0.83376,0.1158,0.0581,-0.0321,0.016,-0.0339,0.0353,-4.125,20.85,39.675,0.019999999999999907,0.13347531607005095,0.20131946539991072,non_fall
0.85376,0.2006,0.0711,-0.2511,-0.007,-0.0368,0.0287,-4.125,20.85,39.675,0.020000000000000018,0.329160720621401,0.22672418619206672,non_fall
0.87376,0.0439,0.0849,0.1971,-0.007,-0.0368,0.0287,-4.125,20.85,39.675,0.020000000000000018,0.21905166057348208,0.24254564223772312,non_fall
0.89376,0.2741,0.1009,-0.0753,-0.007,-0.0368,0.0287,-3.075,21.375,39.525,0.020000000000000018,0.30163174567674406,0.24530741815918067,non_fall
0.91376,0.238,0.0596,0.1052,-0.007,-0.0368,0.0287,-3.075,21.375,39.525,0.020000000000000018,0.2669516810211166,0.23452921276230074,non_fall
0.93376,0.1465,0.05235,0.09095,0.0076,-0.0467,0.0176,-3.075,21.375,39.525,0.020000000000000018,0.18020731117243827,0.21272466176038235,non_fall
0.95376,0.1017,-0.0146,-0.00235,0.0076,-0.0467,0.0176,-3.075,21.375,39.525,0.020000000000000018,0.10276951152944146,0.18426395844259008,non_fall
0.97376,0.1333,0.082,-0.0302,0.0076,-0.0467,0.0176,-4.05,20.55,39.75,0.019999999999999907,0.1593892405402573,0.1538022658724782,non_fall
0.99376,0.06535,0.09075,-0.05205,0.011,-0.0177,-0.0047,-4.05,20.55,39.75,0.020000000000000018,0.12335066882672344,0.12515289621955134,non_fall
1.01376,-0.03385,0.10865,0.01055,0.011,-0.0177,-0.0047,-4.05,20.55,39.75,0.020000000000000018,0.11428887741158367,0.1010718340641751,non_fall
1.03376,-0.1092,0.0415,-0.1177,0.011,-0.0177,-0.0047,-3.525,20.55,39.825,0.020000000000000018,0.16583178223730213,0.08371925651738996,non_fall
1.05376,-0.0153,-0.0267,0.0749,0.0106,-0.00185,-0.00425,-3.525,20.55,39.825,0.020000000000000018,0.08097524313023086,0.0750953800958029,non_fall
1.07376,0.0077,0.0177,-0.0284,0.0102,0.014,-0.0038,-3.525,20.55,39.825,0.020000000000000018,0.03433860800906176,0.07683600116711573,non_fall
1.09376,-0.0201,0.0199,0.0301,0.0102,0.014,-0.0038,-3.4875,20.5125,39.7875,0.020000000000000018,0.041304116017656156,0.08932346421872572,non_fall
1.11376,-0.0908,0.0367,-0.0096,0.0102,0.014,-0.0038,-3.45,20.475,39.75,0.020000000000000018,0.09840574170240272,0.11069685365240826,non_fall
1.13376,-0.1366,0.1088,-0.0238,0.0108,-0.0032,0.0082,-3.45,20.475,39.75,0.020000000000000018,0.17624823403370599,0.1365391205726438,non_fall
1.15376,-0.1049,0.0497,-0.038,0.0108,-0.0032,0.0082,-3.45,20.475,39.75,0.019999999999999796,0.12213967414398975,0.16065296777241703,non_fall
1.17376,-0.1661,-0.039,0.0038,0.0108,-0.0032,0.0082,-3.45,20.85,40.125,0.020000000000000018,0.17065945622789264,0.17675157206332853,non_fall
1.19376,-0.2304,-0.0416,0.0493,0.0108,-0.0032,0.0082,-3.45,20.85,40.125,0.020000000000000018,0.23925971244653788,0.18046837357691045,non_fall
1.21376,-0.2369,0.003,0.0388,-0.0037,-0.0134,0.0301,-3.45,20.85,40.125,0.020000000000000018,0.24007509241901792,0.17092225121595955,non_fall
1.23376,-0.1064,0.0381,-0.0595,-0.0037,-0.0134,0.0301,-4.125,20.625,39.825,0.020000000000000018,0.12772165047477269,0.15114666117384992,non_fall
1.25376,-0.0032,-0.0031,-0.0569,-0.0037,-0.0134,0.0301,-4.125,20.625,39.825,0.020000000000000018,0.05707416228031735,0.12710078825677046,non_fall
1.27376,0.0361,0.0412,-0.0309,0.006,-0.0247,0.0484,-4.125,20.625,39.825,0.020000000000000018,0.06289244787730877,0.10566636223654531,non_fall
1.29376,0.1087,0.0494,-0.0798,0.006,-0.0247,0.0484,-4.125,20.625,39.825,0.020000000000000018,0.14361089791516518,0.09253812553862636,non_fall
1.31376,0.05365,0.01015,-0.1118,0.006,-0.0247,0.0484,-3.675,20.925,39.45,0.020000000000000018,0.12442099903151396,0.09080784624487839,non_fall
1.33376,-0.0375,0.0234,-0.0327,0.006,-0.0247,0.0484,-3.675,20.925,39.45,0.020000000000000018,0.05498272455962873,0.10048558216807314,non_fall
1.35376,-0.0981,0.0336,0.013,-0.0122,0.0095,0.0217,-3.675,20.925,39.45,0.020000000000000018,0.10450631559862783,0.11877007025124243,non_fall
1.37376,-0.1721,0.0258,-0.0439,-0.0122,0.0095,0.0217,-3.825,20.475,39.75,0.020000000000000018,0.1794749564702552,0.14083537039683608,non_fall
1.39376,-0.0267,0.00695,-0.13,-0.0122,0.0095,0.0217,-3.825,20.475,39.75,0.020000000000000018,0.13289541940939878,0.1609943218676574,non_fall
1.41376,-0.0871,-0.0211,-0.1351,-0.0301,0.0423,0.0119,-3.825,20.475,39.75,0.019999999999999796,0.1621222686739857,0.1740702309690973,non_fall
1.43376,-0.13345,-0.00145,0.16455,-0.0301,0.0423,0.0119,-3.825,20.475,39.75,0.020000000000000018,0.21186719307150884,0.17669550562820885,non_fall
1.45376,0.0554,0.0884,-0.1885,-0.0301,0.0423,0.0119,-3.75,21.15,39.825,0.020000000000000018,0.2154436585281637,0.16817932688690812,non_fall
1.47376,0.107,0.09115,-0.0522,-0.0115,0.0105,0.0212,-3.75,21.15,39.825,0.020000000000000018,0.14994052987768183,0.15060601681658917,non_fall
1.49376,0.0524,0.0412,0.0155,-0.0115,0.0105,0.0212,-3.75,21.15,39.825,0.020000000000000018,0.0684357362786432,0.12803828262364356,non_fall
1.51376,0.0311,0.0282,-0.058,-0.0115,0.0105,0.0212,-3.975,20.625,39.15,0.020000000000000018,0.07159923183945481,0.10511697078727346,non_fall
1.53376,0.0457,0.0381,-0.0985,-0.0115,0.0105,0.0212,-3.975,20.625,39.15,0.020000000000000018,0.11507541005792679,0.08569238505793793,non_fall
1.55376,0.0301,-0.0456,-0.0652,-0.0272,0.005,0.0189,-3.975,20.625,39.15,0.020000000000000018,0.08506709116926474,0.07205301154602967,non_fall
1.57376,-0.0089,-0.0493,0.0263,-0.0272,0.005,0.0189,-3.975,20.625,39.15,0.020000000000000018,0.05658082714135593,0.06488096401310833,non_fall
1.59376,-0.0845,0.0091,0.0193,-0.0272,0.005,0.0189,-3.825,20.925,39.45,0.020000000000000018,0.0871524526333023,0.06365778559692996,non_fall
1.61376,-0.0425,0.0296,0.0303,0.0002,-0.0012,0.0373,-3.825,20.925,39.45,0.020000000000000018,0.06000416652200079,0.06715023348298582,non_fall
1.63376,-0.0337,0.0226,-0.0427,0.0002,-0.0012,0.0373,-3.825,20.925,39.45,0.020000000000000018,0.05890449897928001,0.07375970348440082,non_fall
1.65376,-0.0606,-0.0138,0.0521,0.0002,-0.0012,0.0373,-4.125,20.775,39.75,0.019999999999999796,0.0811,0.08171906856772473,non_fall
1.67376,-0.09015,0.02845,0.0487,0.0002,-0.0012,0.0373,-4.125,20.775,39.75,0.020000000000000018,0.10633962102621958,0.08923570093548455,non_fall
1.69376,-0.0004,0.0563,0.0386,0.0354,-0.0351,0.0663,-4.125,20.775,39.75,0.020000000000000018,0.06826280099732211,0.09467673175619734,non_fall
1.71376,0.0726,0.03465,-0.06335,0.0354,-0.0351,0.0663,-4.125,20.775,39.75,0.020000000000000018,0.10239436019625299,0.0968196974922288,non_fall
1.73376,0.0121,-0.0258,-0.1285,0.0354,-0.0351,0.0663,-3.375,20.25,39.45,0.020000000000000018,0.1316218067039045,0.09511890772510818,non_fall
1.75376,-0.0346,-0.0449,-0.0338,0.0214,-0.0263,0.0867,-3.375,20.25,39.45,0.020000000000000018,0.06599704538841114,0.08989611251765944,non_fall
1.77376,-0.0173,-0.0449,-0.0669,0.0214,-0.0263,0.0867,-3.375,20.25,39.45,0.020000000000000018,0.08240697785988757,0.08237731052774361,non_fall
1.79376,0.0249,0.01,-0.0548,0.0214,-0.0263,0.0867,-3.45,20.85,39.45,0.020000000000000018,0.061016800964980134,0.07458689511325091,non_fall
1.81376,-0.0023,0.0168,-0.0312,0.0214,-0.0263,0.0867,-3.45,20.85,39.45,0.020000000000000018,0.03551013939707925,0.06920609341099544,non_fall
1.83376,-0.07375,0.06905,-0.0289,-0.0014,0.0125,0.087,-3.45,20.85,39.45,0.020000000000000018,0.10508175388715206,0.06946856871071856,non_fall
1.85376,-0.0726,0.0808,-0.0886,-0.0014,0.0125,0.087,-3.45,20.85,39.45,0.020000000000000018,0.1401761748657738,0.07896418215975004,non_fall
1.87376,0.0149,0.0897,-0.0952,-0.0014,0.0125,0.087,-3.15,20.25,39.75,0.020000000000000018,0.1316477876760563,0.10101564025437437,non_fall
1.89376,-0.0035,-0.0367,-0.1292,-0.0107,0.053,0.0687,-3.15,20.25,39.75,0.020000000000000018,0.13435691273618935,0.1373755179415312,non_fall
1.91376,-0.0562,-0.0554,0.0367,-0.0107,0.053,0.0687,-3.15,20.25,39.75,0.019999999999999796,0.08703154600488262,0.18652403920829871,non_fall
1.93376,-0.0148,0.0345,0.0298,-0.0107,0.053,0.0687,-3.45,20.925,39.45,0.020000000000000018,0.04793047047547103,0.24256443668549194,non_fall
1.95376,0.004,0.2679,-0.2725,-0.02075,0.07735,0.0604,-3.45,20.925,39.45,0.020000000000000018,0.38215528257502873,0.295939881622379,non_fall
1.97376,-0.2327,0.4296,-0.1108,-0.0308,0.1017,0.0521,-3.45,20.925,39.45,0.020000000000000018,0.5009811273890464,0.3363781536915558,non_fall
1.99376,0.0127,0.3381,-0.3366,-0.0308,0.1017,0.0521,-3.45,20.925,39.45,0.020000000000000018,0.47725513093103566,0.35690743755939586,non_fall
2.01376,-0.016,0.2945,-0.15,-0.0308,0.1017,0.0521,-3.45,20.175,39.975,0.020000000000000018,0.33088706532592055,0.35673650030074516,non_fall
2.03376,-0.0509,-0.107,-0.0448,-0.056,0.0683,0.0244,-3.45,20.175,39.975,0.020000000000000018,0.12667616192480732,0.34134469451413385,non_fall
2.05376,-0.0435,-0.4009,0.1231,-0.056,0.0683,0.0244,-3.45,20.175,39.975,0.020000000000000018,0.4216238489459533,0.3198979351053401,non_fall
2.07376,-0.04735,-0.26815,0.2261,-0.056,0.0683,0.0244,-4.05,20.475,40.35,0.020000000000000018,0.3539317095147028,0.3015485349450587,non_fall
2.09376,-0.0657,-0.0527,0.1331,-0.056,0.0683,0.0244,-4.05,20.475,40.35,0.020000000000000018,0.15750996793854033,0.2923166092229279,non_fall
2.11376,-0.1429,0.183,-0.0456,-0.038,-0.0235,0.0538,-4.05,20.475,40.35,0.020000000000000018,0.23661946242860074,0.2935579900534723,non_fall
2.13376,-0.0123,0.3116,-0.241,-0.038,-0.0235,0.0538,-3.45,19.65,39.45,0.020000000000000018,0.39411527501481086,0.30232737282449795,non_fall
2.15376,0.08385,0.28395,-0.24,-0.038,-0.0235,0.0538,-3.45,19.65,39.45,0.020000000000000018,0.3811278328855031,0.3133257344270304,non_fall
2.17376,0.1968,0.1966,-0.2195,-0.0128,-0.1168,0.0941,-3.45,19.65,39.45,0.020000000000000018,0.35434735782844495,0.3214566885877662,non_fall
2.19376,0.2347,0.1626,-0.056,-0.0128,-0.1168,0.0941,-3.45,19.65,39.45,0.020000000000000018,0.2909619390916963,0.3237478054138488,non_fall
2.21376,0.2259,0.1178,-0.1006,-0.0128,-0.1168,0.0941,-3.675,20.475,39.45,0.020000000000000018,0.2739124130082461,0.3199292451722412,non_fall
2.23376,0.2406,-0.0558,-0.1435,-0.0197,-0.18065,0.11065,-3.675,20.475,39.45,0.020000000000000018,0.2856470724513031,0.31191390312350475,non_fall
2.25376,0.2388,-0.165,-0.0289,-0.0266,-0.2445,0.1272,-3.675,20.475,39.45,0.020000000000000018,0.29169444629611996,0.30300119030503087,non_fall
2.27376,0.2615,-0.164,0.0723,-0.0266,-0.2445,0.1272,-3.675,20.475,39.45,0.019999999999999574,0.31702608725466114,0.29747264820552816,non_fall
2.29376,0.2606,-0.0286,0.1755,-0.0266,-0.2445,0.1272,-2.475,19.95,39.75,0.020000000000000018,0.31548465889801997,0.30062263336345607,non_fall
2.31376,0.3158,0.142,0.1642,0.0046,-0.3066,0.1985,-2.475,19.95,39.75,0.020000000000000018,0.38321701423605925,0.31866839697994237,lateral_fall
2.33376,0.3359,0.2837,-0.03175,0.0046,-0.3066,0.1985,-2.475,19.95,39.75,0.020000000000000018,0.44082032904574625,0.35778000509187546,lateral_fall
2.35376,0.2963,0.2402,-0.065,0.0046,-0.3066,0.1985,-1.875,20.475,39.525,0.020000000000000018,0.38692987736797996,0.421820767485461,lateral_fall
2.37376,0.2907,0.1577,-0.2758,0.02465,-0.3221,0.22515,-1.875,20.475,39.525,0.020000000000000018,0.43062909794857107,0.5092612366756495,lateral_fall
2.39376,0.3668,0.125,-0.1816,0.0447,-0.3376,0.2518,-1.875,20.475,39.525,0.020000000000000018,0.4279553715050204,0.6107851663147855,lateral_fall
2.41376,0.5444,0.1207,0.01,0.0447,-0.3376,0.2518,-1.875,20.475,39.525,0.020000000000000018,0.5577094673752634,0.7096209330685257,lateral_fall
2.43376,0.9102,0.1576,0.2166,0.0447,-0.3376,0.2518,-0.15,20.55,39.75,0.020000000000000018,0.9487978499132469,0.785847864847872,lateral_fall
2.45376,1.0159,0.1786,0.1726,-0.0034,-0.252,0.2575,-0.15,20.55,39.75,0.020000000000000018,1.0458209837252264,0.8237817858362079,lateral_fall
2.47376,0.9969,0.2154,0.1711,-0.0034,-0.252,0.2575,-0.15,20.55,39.75,0.020000000000000018,1.034157618547579,0.8191749452908008,lateral_fall
2.49376,0.7101,0.2042,0.0892,-0.0034,-0.252,0.2575,1.425,19.65,39.675,0.020000000000000018,0.7442420909892156,0.7822028539932497,lateral_fall
2.51376,0.4443,0.3064,0.0449,-0.0034,-0.252,0.2575,1.425,19.65,39.675,0.020000000000000018,0.5415712880129449,0.7340511222943283,lateral_fall
2.53376,0.57845,0.3057,-0.08535,0.035,-0.093,0.1958,1.425,19.65,39.675,0.020000000000000018,0.659804148971496,0.6983673744542918,lateral_fall
2.55376,0.49505,0.2605,0.05295,0.035,-0.093,0.1958,1.875,20.025,39.75,0.020000000000000018,0.5619060909084365,0.6916143379135444,lateral_fall
2.57376,0.4566,0.2633,-0.12795,0.035,-0.093,0.1958,1.875,20.025,39.75,0.020000000000000018,0.5423851514376108,0.7168095273473294,lateral_fall
2.59376,0.546,0.5501,-0.2583,0.0139,-0.0782,0.2147,1.875,20.025,39.75,0.020000000000000018,0.8169730105701167,0.7633330141072612,lateral_fall
2.61376,0.6478,0.9309,-0.46065,0.0139,-0.0782,0.2147,1.875,20.025,39.75,0.020000000000000018,1.224098881831039,0.8125657359237897,lateral_fall
2.63376,0.4258,0.7261,-0.4165,0.0139,-0.0782,0.2147,1.575,19.95,39.975,0.020000000000000018,0.9391480713923657,0.8464835835073863,lateral_fall
2.65376,0.4095,0.3026,0.0618,-0.04535,-0.10095,0.2153,1.575,19.95,39.975,0.020000000000000018,0.5129095924234601,0.8554526945276764,lateral_fall
2.67376,0.7197,0.1425,0.0776,-0.1046,-0.1237,0.2159,1.575,19.95,39.975,0.020000000000000018,0.7377642577409128,0.8430158862275616,lateral_fall
2.69376,0.6917,0.117,-0.1652,-0.1046,-0.1237,0.2159,2.25,19.35,40.05,0.020000000000000018,0.7207141805181857,0.8279632596371932,lateral_fall
2.71376,0.7789,0.3711,-0.6832,-0.1046,-0.1237,0.2159,2.25,19.35,40.05,0.020000000000000018,1.1005283549277594,0.8448075612539995,lateral_fall
2.73376,0.7796,0.6626,-0.7168,-0.1364,-0.1875,0.2275,2.25,19.35,40.05,0.020000000000000018,1.2492466369776625,0.9421297269800187,lateral_fall
2.75376,0.6257,1.1737,-0.539,-0.1364,-0.1875,0.2275,2.25,19.35,40.05,0.020000000000000018,1.4351282799805738,1.1762160849223497,lateral_fall
2.77376,0.8273,1.4157,-0.2833,-0.1364,-0.1875,0.2275,2.925,18.525,40.125,0.019999999999999574,1.6639983984367293,1.5978015317468721,lateral_fall
2.79376,1.0601,1.3151,0.3479,-0.20265,-0.25035,0.21675,2.925,18.525,40.125,0.020000000000000018,1.7246258811695945,2.2334899569283855,lateral_fall
2.81376,1.4976,1.5562,0.47825,-0.2689,-0.3132,0.206,2.925,18.525,40.125,0.020000000000000018,2.2120775896202196,3.068680501033819,lateral_fall
2.83376,1.3859,3.21,-1.2008,-0.2689,-0.3132,0.206,4.05,17.925,40.425,0.020000000000000018,3.6968553461016027,4.041731919091356,lateral_fall
2.85376,0.6583,5.3204,-2.1684,-0.2689,-0.3132,0.206,4.05,17.925,40.425,0.020000000000000018,5.782903562225468,5.056063921998761,lateral_fall
2.87376,0.1022,6.7053,-1.4022,-0.2054,-0.4328,0.1269,4.05,17.925,40.425,0.020000000000000018,6.851106317230816,6.007990594121472,lateral_fall
2.89376,-0.0271,6.78665,-0.9484,-0.2054,-0.4328,0.1269,4.05,17.925,40.425,0.020000000000000018,6.852650231297377,6.818751107214167,lateral_fall
2.91376,-0.1954,6.9728,-1.1873,-0.2054,-0.4328,0.1269,4.35,16.95,40.575,0.020000000000000018,7.075860533532301,7.456593579806192,lateral_fall
2.93376,-0.1149,7.7558,-0.9811,-0.2054,-0.4328,0.1269,4.35,16.95,40.575,0.020000000000000018,7.818452075698872,7.940698710837333,lateral_fall
2.95376,-0.2093,8.3677,0.3846,-0.2489,-0.5572,0.184,4.35,16.95,40.575,0.020000000000000018,8.379148342164612,8.327645130839395,lateral_fall
2.97376,-0.1345,8.811,-1.4985,-0.2489,-0.5572,0.184,5.475,16.35,40.95,0.020000000000000018,8.938529716905348,8.686276521159161,lateral_fall
2.99376,0.3638,9.6481,-2.5952,-0.2489,-0.5572,0.184,5.475,16.35,40.95,0.020000000000000018,9.997662081206785,9.067058766805523,lateral_fall
3.01376,1.66745,8.58845,0.2762,0.04,-0.5192,0.3256,5.475,16.35,40.95,0.020000000000000018,8.753179384943508,9.471431321428424,lateral_fall
3.03376,0.4939,8.585,-0.4057,0.04,-0.5192,0.3256,5.475,16.35,40.95,0.020000000000000018,8.608760346298416,9.829151526062176,lateral_fall
3.05376,0.1076,9.2232,-2.8535,0.04,-0.5192,0.3256,7.05,15.525,40.65,0.020000000000000018,9.655126009017179,9.996027059031164,lateral_fall
3.07376,1.9436,9.4798,-2.52725,-0.0316,-0.5072,0.8127,7.05,15.525,40.65,0.020000000000000018,10.001558956607713,9.78473064756932,lateral_fall
3.09376,5.1074,5.4653,1.4871,-0.0316,-0.5072,0.8127,7.05,15.525,40.65,0.020000000000000018,7.626696877416855,9.033042956962424,lateral_fall
3.11376,7.3977,0.5522,-1.8684,-0.0316,-0.5072,0.8127,9.075,15.225,40.875,0.020000000000000018,7.649954816206433,7.698992188271091,lateral_fall
3.13376,5.1097,1.3594,-3.1152,-0.0316,-0.5072,0.8127,9.075,15.225,40.875,0.020000000000000018,6.136894449964086,5.956233171907579,lateral_fall
3.15376,-0.7346,0.085,-9.1922,-0.5878,-0.3665,1.1214,9.075,15.225,40.875,0.020000000000000018,9.221898015050915,4.248770364050898,lateral_fall
3.17376,-4.3614,-1.9464,-5.9386,-0.5878,-0.3665,1.1214,9.075,15.225,40.875,0.020000000000000018,7.62084331816368,3.25681916863593,lateral_fall
3.19376,-2.2916,-0.3598,-3.3078,-0.5878,-0.3665,1.1214,10.125,12.75,41.025,0.020000000000000018,4.040102404642734,3.738361577653027,lateral_fall
3.21376,0.3736,-2.87585,3.09255,-0.5878,-0.3665,1.1214,10.125,12.75,41.025,0.020000000000000018,4.239570224091117,6.256496957433409,lateral_fall
3.23376,-1.61125,2.25595,-4.222,-1.4694,-1.5841,2.0059,10.125,12.75,41.025,0.020000000000000018,5.050813891344642,10.873106707964542,lateral_fall
3.25376,5.2393,3.17235,-2.63675,-1.4694,-1.5841,2.0059,14.025,7.125,41.25,0.020000000000000018,6.668322095924881,16.949280167870736,lateral_fall
3.27376,-4.4256,-2.9583,3.8683,-1.4694,-1.5841,2.0059,14.025,7.125,41.25,0.019999999999999574,6.580366185859265,23.196772801383588,lateral_fall
3.29376,-17.2514,-44.911,3.5416,0.5472,-2.4336,1.8443,14.025,7.125,41.25,0.020000000000000018,48.24056025296556,28.040665605632157,lateral_fall
3.31376,-34.27875,-37.60225,-2.02225,0.5472,-2.4336,1.8443,14.025,7.125,41.25,0.020000000000000018,50.92201293829123,30.190894451325935,lateral_fall
3.33376,-15.5075,-29.2648,18.2856,0.5472,-2.4336,1.8443,19.65,5.25,39.825,0.020000000000000018,37.83218527457805,29.16331516745288,lateral_fall
3.35376,-4.9229,-7.4777,-5.6549,3.0078,-2.429,5.348,19.65,5.25,39.825,0.020000000000000018,10.589090409945511,25.472458397357943,lateral_fall
3.37376,6.5659,6.247,2.4563,3.0078,-2.429,5.348,19.65,5.25,39.825,0.020000000000000018,9.389859503741256,20.391590587826492,lateral_fall
3.39376,9.9547,14.5721,7.2151,3.0078,-2.429,5.348,25.95,2.625,35.55,0.020000000000000018,19.06567120533657,15.421540683717184,lateral_fall
3.41376,0.814,7.8034,-0.2606,3.0078,-2.429,5.348,25.95,2.625,35.55,0.020000000000000018,7.850067510537728,11.740878549447215,lateral_fall
3.43376,2.87445,2.28565,-3.61495,3.2836,-0.0107,5.5946,25.95,2.625,35.55,0.020000000000000018,5.153108016284929,9.863531195046885,lateral_fall
3.45376,-6.1467,4.925,1.29225,3.2836,-0.0107,5.5946,25.95,2.625,35.55,0.020000000000000018,7.9816950550932475,9.593291335794042,lateral_fall
3.47376,-14.8558,11.1388,11.5199,3.2836,-0.0107,5.5946,26.625,-2.175,33.525,0.020000000000000018,21.851218617962708,10.23784159147303,lateral_fall
3.49376,-8.2126,12.4059,-1.4276,1.6931,-4.7258,2.8323,26.625,-2.175,33.525,0.020000000000000018,14.946276972209501,10.959598024658204,lateral_fall
3.51376,2.7569,7.0063,6.0784,1.6931,-4.7258,2.8323,26.625,-2.175,33.525,0.020000000000000018,9.676553304767147,11.106110658872568,lateral_fall
3.53376,6.8711,0.8415,0.8936,1.6931,-4.7258,2.8323,32.55,-5.625,25.95,0.020000000000000018,6.979875243870767,10.396915412008827,lateral_fall
3.55376,6.496,6.4736,-4.3784,1.6931,-4.7258,2.8323,32.55,-5.625,25.95,0.020000000000000018,10.162475068604104,8.931699546153336,lateral_fall
3.57376,3.5945,3.8496,-3.3385,-0.1527,-3.1837,1.0041,32.55,-5.625,25.95,0.020000000000000018,6.235818523658302,7.06718491338224,lateral_fall
3.59376,1.4951,1.9673,2.0524,-0.1527,-3.1837,1.0041,32.55,-5.625,25.95,0.020000000000000018,3.2121548935255286,5.242513065463241,lateral_fall
3.61376,1.7622,1.9845,0.57,-0.1527,-3.1837,1.0041,37.65,-8.85,16.95,0.020000000000000018,2.714496102410169,3.8221673834313763,lateral_fall
3.63376,2.244,2.5385,-0.2156,-0.0069,-1.6707,0.0944,37.65,-8.85,16.95,0.020000000000000018,3.3949965552265295,2.9993868643842454,lateral_fall
3.65376,4.1962,1.4579,0.3062,-0.0069,-1.6707,0.0944,37.65,-8.85,16.95,0.020000000000000018,4.452788484758736,2.774665041274548,lateral_fall
3.67376,2.30905,1.4633,1.2329,-0.0069,-1.6707,0.0944,39.15,-9.075,11.625,0.020000000000000018,2.998833306887864,2.997002231559429,lateral_fall
3.69376,1.6379,1.9058,1.2338,-0.0069,-1.6707,0.0944,39.15,-9.075,11.625,0.020000000000000018,2.799473609448748,3.438537414678413,lateral_fall
3.71376,3.4654,2.3825,1.1282,0.241,-1.062,-0.1246,39.15,-9.075,11.625,0.020000000000000018,4.354094469576883,3.8723054703582447,lateral_fall
3.73376,2.70565,3.4024,2.4148,0.241,-1.062,-0.1246,39.15,-9.075,11.625,0.020000000000000018,4.9727383525076,4.132442977399755,lateral_fall
3.75376,1.3958,3.7829,2.041,0.241,-1.062,-0.1246,39.75,-8.25,9.075,0.020000000000000018,4.519321967950503,4.145822570488687,lateral_fall
3.77376,1.4189,3.4241,0.1833,0.2071,-0.2821,-0.3419,39.75,-8.25,9.075,0.019999999999999574,3.710975196629587,3.931139899539789,lateral_fall
3.79376,2.0242,1.905,-0.3058,0.2071,-0.2821,-0.3419,39.75,-8.25,9.075,0.020000000000000018,2.7964127520807796,3.569632487124504,lateral_fall
3.81376,2.1453,0.7527,1.6275,0.2071,-0.2821,-0.3419,40.35,-7.425,7.65,0.020000000000000018,2.796001722102474,3.1611094936459136,lateral_fall
3.83376,1.2835,1.1377,0.0913,0.2071,-0.2821,-0.3419,40.35,-7.425,7.65,0.020000000000000018,1.7175765572457027,2.784296827987028,lateral_fall
3.85376,-0.3757,2.9101,-1.0368,-0.1487,0.3674,-0.33,40.35,-7.425,7.65,0.020000000000000018,3.112039000398292,2.476939782333369,lateral_fall
3.87376,0.6098,2.9924,-1.3368,-0.1487,0.3674,-0.33,40.35,-7.425,7.65,0.020000000000000018,3.33366885578037,2.239758026300223,lateral_fall
3.89376,1.14,1.2104,1.2202,-0.1487,0.3674,-0.33,40.275,-6.225,8.325,0.020000000000000018,2.062415137648092,2.0556014285598727,lateral_fall
3.91376,0.9081,-0.2778,1.9617,-0.3004,0.5052,-0.1669,40.275,-6.225,8.325,0.020000000000000018,2.1794690500211282,1.9088504391707817,lateral_fall
3.93376,-0.3052,0.2829,-0.9067,-0.3004,0.5052,-0.1669,40.275,-6.225,8.325,0.020000000000000018,0.9976393837454494,1.7938790140142096,lateral_fall
3.95376,-0.6249,1.4074,-1.0717,-0.3004,0.5052,-0.1669,40.65,-6.375,8.325,0.020000000000000018,1.8761171765111049,1.7112067741602424,lateral_fall
3.97376,-0.1767,1.2834,1.156,-0.28595,0.6233,-0.1885,40.65,-6.375,8.325,0.020000000000000018,1.7362817887658675,1.6578888781964867,lateral_fall
3.99376,0.8148,-0.1679,0.4195,-0.2715,0.7414,-0.2101,40.65,-6.375,8.325,0.020000000000000018,0.9317025812994187,1.620393598086683,lateral_fall
4.01376,0.7917,-1.0381,0.7878,-0.2715,0.7414,-0.2101,40.65,-6.375,8.325,0.020000000000000462,1.524817805509891,1.5751485307834214,lateral_fall
4.03376,-0.3953,-1.3453,2.0564,-0.2715,0.7414,-0.2101,39.75,-6.15,11.475,0.019999999999999574,2.488950610196996,1.497220216141136,lateral_fall
4.05376,-0.6707,-0.9247,-0.7139,-0.3407,1.2231,-0.4085,39.75,-6.15,11.475,0.019999999999999574,1.347056713728119,1.3730168823159634,lateral_fall
4.07376,0.00365,0.531,-0.93855,-0.3407,1.2231,-0.4085,39.75,-6.15,11.475,0.020000000000000462,1.0783554261003188,1.2103777191314349,lateral_fall
4.09376,0.1789,0.0246,-0.3771,-0.3407,1.2231,-0.4085,39.45,-5.475,13.875,0.019999999999999574,0.418108574415785,1.0410921121029504,lateral_fall
4.11376,-0.5444,-0.8568,0.1802,-0.3407,1.2231,-0.4085,39.45,-5.475,13.875,0.020000000000000462,1.0309944907709254,0.9155435077957336,lateral_fall
4.13376,-0.4864,-1.4727,-0.2396,-0.5288,1.5236,-0.6881,39.45,-5.475,13.875,0.019999999999999574,1.5693433053350692,0.8920595293172404,lateral_fall
4.15376,-0.7845,-0.7556,-1.3448,-0.5288,1.5236,-0.6881,39.45,-5.475,13.875,0.020000000000000462,1.730565991229459,1.0223843319769408,lateral_fall
4.17376,-0.3577,0.3414,-1.0123,-0.5288,1.5236,-0.6881,37.875,-3.975,17.625,0.019999999999999574,1.1266119740176739,1.3331070528320301,lateral_fall
4.19376,0.1031,-0.1959,0.1088,-0.5798,1.383,-0.7463,37.875,-3.975,17.625,0.020000000000000462,0.24666548197913707,1.8059117619480136,lateral_fall
4.21376,-0.08005,-0.79545,-1.20795,-0.5798,1.383,-0.7463,37.875,-3.975,17.625,0.019999999999999574,1.4485482068264073,2.3663318648897467,lateral_fall
4.23376,-2.6287,-1.352,-0.3383,-0.5798,1.383,-0.7463,36.15,-2.925,21.825,0.020000000000000462,2.9753007545456645,2.893516683751282,lateral_fall
4.25376,-3.7329,-2.035,1.2437,-0.71015,1.078,-0.7273,36.15,-2.925,21.825,0.019999999999999574,4.429735556441265,3.255371301448009,lateral_fall
4.27376,-4.53905,-2.5313,0.8544,-0.8405,0.773,-0.7083,36.15,-2.925,21.825,0.020000000000000462,5.266920727759247,3.3571727072991124,lateral_fall
4.29376,-2.4395,-1.3969,-0.7528,-0.8405,0.773,-0.7083,36.15,-2.925,21.825,0.019999999999999574,2.910188602135607,3.1797342476825565,lateral_fall
4.31376,-1.7405,0.7105,-0.8015,-0.8405,0.773,-0.7083,35.25,-2.625,23.775,0.020000000000000462,2.0436616035929234,2.7863729704266795,lateral_fall
4.33376,-1.447,0.9841,-0.6153,-0.8799,0.5533,-0.6568,35.25,-2.625,23.775,0.019999999999999574,1.8549544199251906,2.2952028147567676,non_fall
4.35376,-1.44645,0.2779,-0.0378,-0.8799,0.5533,-0.6568,35.25,-2.625,23.775,0.020000000000000462,1.4733889006301086,1.8319663093955596,non_fall
4.37376,0.0546,0.2944,-0.8397,-0.8799,0.5533,-0.6568,33.975,-1.575,26.025,0.019999999999999574,0.8914867413484061,1.4863483328430422,non_fall
4.39376,-1.0807,0.5192,-0.1385,-1.0171,0.3915,-0.6695,33.975,-1.575,26.025,0.020000000000000462,1.2069231044271214,1.289383201217741,non_fall
4.41376,-1.9316,0.6579,-0.4536,-1.1543,0.2297,-0.6822,33.975,-1.575,26.025,0.019999999999999574,2.0903741124497306,1.217352642023614,non_fall
4.43376,-0.2642,0.9374,-1.1318,-1.1543,0.2297,-0.6822,34.05,-2.25,26.175,0.020000000000000462,1.4931482310875903,1.215464873657803,non_fall
4.45376,0.3245,1.0189,-0.663,-1.1543,0.2297,-0.6822,34.05,-2.25,26.175,0.019999999999999574,1.2581837942049643,1.2275010311790817,non_fall
4.47376,-0.9254,0.3846,-0.7577,-1.1153,-0.0391,-0.5644,34.05,-2.25,26.175,0.020000000000000462,1.25634056290482,1.2180497177743121,non_fall
4.49376,-0.7494,0.377,-0.8702,-1.1153,-0.0391,-0.5644,34.05,-2.25,26.175,0.019999999999999574,1.2087089806897273,1.1804552601926976,non_fall
4.51376,0.5754,0.55675,-0.46885,-1.1153,-0.0391,-0.5644,34.725,-2.475,26.025,0.020000000000000462,0.9278340611337783,1.1313849100304307,non_fall
4.53376,-0.32175,0.28435,-0.30895,-1.1153,-0.0391,-0.5644,34.725,-2.475,26.025,0.019999999999999574,0.5289877952278295,1.0980029352152771,non_fall
4.55376,-1.0188,-0.00335,-0.49115,-0.9157,-0.1077,-0.4148,34.725,-2.475,26.025,0.019999999999999574,1.1310141400530764,1.1050133452385675,non_fall
4.57376,0.1321,0.1577,-1.9535,-0.9157,-0.1077,-0.4148,34.65,-2.625,25.65,0.020000000000000462,1.964301898894363,1.1666046103497478,non_fall
4.59376,1.25745,0.36665,-0.06925,-0.9157,-0.1077,-0.4148,34.65,-2.625,25.65,0.019999999999999574,1.311643353774188,1.2839585879457687,non_fall
4.61376,-0.1382,-0.8335,-0.3519,-0.7472,-0.1797,-0.337,34.65,-2.625,25.65,0.020000000000000462,0.9152349971455418,1.4457355589332541,non_fall
4.63376,-0.4068,-0.2046,-1.0514,-0.7472,-0.1797,-0.337,34.65,-2.625,25.65,0.019999999999999574,1.145770203836703,1.6295869180512437,non_fall
4.65376,2.2235,0.5321,-1.1958,-0.7472,-0.1797,-0.337,34.95,-3.375,25.575,0.020000000000000462,2.580120210377803,1.8055997231318244,non_fall
4.67376,0.9325,-1.0336,0.4858,-0.7124,-0.1304,-0.2935,34.95,-3.375,25.575,0.019999999999999574,1.4744106788815659,1.9431943978650101,non_fall
4.69376,-1.2863,-2.0667,0.8593,-0.7124,-0.1304,-0.2935,34.95,-3.375,25.575,0.020000000000000462,2.5815137167948574,2.0202853998199446,non_fall
4.71376,-0.8677,-0.11585,-1.52685,-0.7124,-0.1304,-0.2935,34.95,-3.375,25.575,0.019999999999999574,1.7599987031245223,2.030837386737645,non_fall
4.73376,1.78,0.7395,-1.3709,-0.7124,-0.1304,-0.2935,34.95,-3.375,24.45,0.020000000000000462,2.3652964000310828,1.987066863586466,non_fall
4.75376,1.3056,-0.6683,0.2468,-0.7263,-0.0502,-0.3169,34.95,-3.375,24.45,0.019999999999999574,1.487321918751956,1.9148884071957002,non_fall
4.77376,-0.9298,-1.9335,1.3425,-0.7263,-0.0502,-0.3169,34.95,-3.375,24.45,0.020000000000000462,2.5308608298363624,1.8440141008333015,non_fall
4.79376,-0.3421,-0.3962,-0.3584,-0.7263,-0.0502,-0.3169,36.15,-3.45,24.225,0.019999999999999574,0.6343953105123019,1.7963857283429534,non_fall
4.81376,1.0702,1.1105,-1.2705,-0.70455,-0.0328,-0.31345,36.15,-3.45,24.225,0.020000000000000462,1.9981763035327988,1.7778720756609216,non_fall
4.83376,1.32935,-0.24605,-0.093,-0.6828,-0.0154,-0.31,36.15,-3.45,24.225,0.019999999999999574,1.3551239887921696,1.7775478516303482,non_fall
4.85376,-1.0926,-1.9937,1.9595,-0.6828,-0.0154,-0.31,36.15,-3.675,23.25,0.020000000000000462,3.0013754680146234,1.7754596580977446,non_fall
4.87376,-1.3668,-0.4052,0.1529,-0.6828,-0.0154,-0.31,36.15,-3.675,23.25,0.019999999999999574,1.4337739326686059,1.7546442183767264,non_fall
4.89376,1.1629,1.1353,-1.1629,-0.5073,-0.0728,-0.2972,36.15,-3.675,23.25,0.020000000000000462,1.9983940827574525,1.710102989515156,non_fall
4.91376,1.4831,0.1948,-0.2005,-0.5073,-0.0728,-0.2972,36.15,-3.675,23.25,0.019999999999999574,1.509215988518542,1.649529138099339,non_fall
4.93376,-0.3684,-0.6649,0.3448,-0.5073,-0.0728,-0.2972,36.075,-3.825,23.85,0.020000000000000462,0.8346841378629403,1.5864373648891958,non_fall
4.95376,-1.5257,0.4442,-0.3309,-0.3665,-0.0002,-0.3253,36.075,-3.825,23.85,0.019999999999999574,1.6231355273050985,1.5313846009527134,non_fall
4.97376,1.1199,0.7242,-0.5813,-0.3665,-0.0002,-0.3253,36.075,-3.825,23.85,0.020000000000000462,1.4548372211350655,1.4876012179589932,non_fall
4.99376,1.9685,-0.5964,0.2081,-0.3665,-0.0002,-0.3253,35.925,-3.75,23.25,0.019999999999999574,2.0673632530351314,1.4533895934384442,non_fall
5.01376,-1.2274,-0.4737,0.3566,-0.3665,-0.0002,-0.3253,35.925,-3.75,23.25,0.020000000000000462,1.36310895015769,1.4281910567179938,non_fall
5.03376,-1.4512,1.0057,-0.7009,-0.4184,0.0583,-0.3381,35.925,-3.75,23.25,0.019999999999999574,1.8996512153550715,1.4164993330541418,non_fall
5.05376,0.7197,0.1267,-0.1432,-0.4184,0.0583,-0.3381,35.925,-3.75,23.25,0.019999999999999574,0.7446658445235689,1.4258384124107575,non_fall
5.07376,-0.671,-0.9152,0.1233,-0.4184,0.0583,-0.3381,36.15,-3.45,23.55,0.020000000000000462,1.1415055540819765,1.4601112885720238,non_fall
5.09376,-0.8005,0.57015,-0.7088,-0.4274,0.0084,-0.3441,36.15,-3.45,23.55,0.019999999999999574,1.2117213840235717,1.5137805227762866,non_fall
5.11376,0.7874,1.6473,-1.1451,-0.4274,0.0084,-0.3441,36.15,-3.45,23.55,0.020000000000000462,2.1551914207327387,1.5721336305808604,non_fall
5.13376,2.0167,0.0002,0.04725,-0.4274,0.0084,-0.3441,36.375,-3.15,24.225,0.019999999999999574,2.0172534527173327,1.6181480713163268,non_fall
5.15376,-1.2004,-0.7081,0.7694,-0.4274,0.0084,-0.3441,36.375,-3.15,24.225,0.020000000000000462,1.5919617237860966,1.6410647865449455,non_fall
5.17376,-1.1121,1.1698,-0.0503,-0.474,0.042,-0.3822,36.375,-3.15,24.225,0.019999999999999574,1.614846289898825,1.6404542852821273,non_fall
5.19376,1.1952,0.2878,-0.7912,-0.474,0.042,-0.3822,36.375,-3.15,24.225,0.020000000000000462,1.4619607792276783,1.6232981349423379,non_fall
5.21376,0.4395,-0.609,0.5702,-0.474,0.042,-0.3822,36.75,-3.075,24.525,0.019999999999999574,0.9429577350019459,1.596918946792035,non_fall
5.23376,-1.9858,0.03895,0.3387,-0.4365,0.1446,-0.4032,36.75,-3.075,24.525,0.020000000000000462,2.01485394818086,1.5632503447883248,non_fall
5.25376,-1.2298,0.94795,-0.14875,-0.4365,0.1446,-0.4032,36.75,-3.075,24.525,0.019999999999999574,1.5598537768008898,1.5183881175554856,non_fall
5.27376,1.18525,0.43905,-0.7388,-0.4365,0.1446,-0.4032,36.15,-2.175,23.85,0.020000000000000462,1.4640382184219098,1.457216495365729,non_fall
5.29376,1.629,-0.4699,0.2607,-0.4365,0.1446,-0.4032,36.15,-2.175,23.85,0.019999999999999574,1.7153458834882251,1.3794013672597476,non_fall
5.31376,-0.6898,-0.6926,0.7717,-0.5637,0.1555,-0.3984,36.15,-2.175,23.85,0.020000000000000462,1.2454074393546877,1.292477228371959,non_fall
5.33376,-0.7064,0.3605,-0.3669,-0.5637,0.1555,-0.3984,36.15,-2.175,23.85,0.019999999999999574,0.8738288276315905,1.2099086803575334,non_fall
5.35376,0.9931,0.4699,-0.9585,-0.5637,0.1555,-0.3984,36.45,-1.95,24.375,0.020000000000000462,1.4580040706390363,1.145080744517117,non_fall
5.37376,0.2628,-0.6367,-0.4204,-0.523,0.0095,-0.5072,36.45,-1.95,24.375,0.019999999999999574,0.8069615170502247,1.1043918313323537,non_fall
5.39376,-0.519,-0.4883,-0.1639,-0.523,0.0095,-0.5072,36.45,-1.95,24.375,0.020000000000000462,0.731205237946228,1.083075288783163,non_fall
5.41376,0.5544,0.3933,-1.0729,-0.523,0.0095,-0.5072,35.85,-1.275,24.375,0.019999999999999574,1.2701018305632032,1.0661453346805325,non_fall
5.43376,1.3567,-0.0459,-0.8234,-0.523,0.0095,-0.5072,35.85,-1.275,24.375,0.020000000000000462,1.5876804653329963,1.0344378335710396,non_fall
5.45376,0.14555,-0.76705,-0.37135,-0.6309,-0.0345,-0.494,35.85,-1.275,24.375,0.019999999999999574,0.8645526747977823,0.9729783615757582,non_fall
5.47376,-0.0764,-0.2465,-0.1081,-0.6309,-0.0345,-0.494,35.85,-1.275,24.375,0.020000000000000462,0.27979424583075324,0.8777116978533248,non_fall
5.49376,0.92865,-0.266,-0.6678,-0.6309,-0.0345,-0.494,36.375,-1.275,24.675,0.019999999999999574,1.174352443902596,0.758090915324986,non_fall
5.51376,1.0588,-0.1127,0.1297,-0.4885,0.1599,-0.5713,36.375,-1.275,24.675,0.020000000000000462,1.072651304012632,0.6353666230551959,non_fall
5.53376,-0.015,0.0739,0.1567,-0.4885,0.1599,-0.5713,36.375,-1.275,24.675,0.019999999999999574,0.17389968372599188,0.5373079032978467,non_fall
5.55376,0.1387,-0.1753,0.0412,-0.4885,0.1599,-0.5713,36.075,-0.75,24.15,0.019999999999999574,0.22729984601842565,0.49023654316898624,non_fall
5.57376,0.2445,0.1973,0.4028,-0.3936,0.1951,-0.54745,36.075,-0.75,24.15,0.020000000000000462,0.5108379195008922,0.5104110614931221,non_fall
5.59376,0.3651,0.1544,0.8385,-0.2987,0.2303,-0.5236,36.075,-0.75,24.15,0.019999999999999574,0.9274802531590632,0.5979551335956663,non_fall
5.61376,0.3667,0.0496,-0.0229,-0.2987,0.2303,-0.5236,35.925,0.75,24.975,0.020000000000000462,0.37074716452051254,0.735715670745887,non_fall
5.63376,0.2152,0.56275,-0.7163,-0.2987,0.2303,-0.5236,35.925,0.75,24.975,0.019999999999999574,0.9359937459726961,0.8933103823229245,non_fall
5.65376,0.54265,0.69525,-0.8834,-0.2833,0.3363,-0.5133,35.925,0.75,24.975,0.020000000000000462,1.2482936934071245,1.035139066418738,non_fall
5.67376,0.6789,0.0448,0.2642,-0.2833,0.3363,-0.5133,35.925,0.75,24.975,0.019999999999999574,0.7298725162656832,1.1305614167131168,non_fall
5.69376,-0.2422,-1.0675,0.569,-0.2833,0.3363,-0.5133,35.25,1.05,25.65,0.020000000000000462,1.233684761193069,1.1639158535873058,non_fall
5.71376,-1.8024,-0.0448,0.3056,-0.2833,0.3363,-0.5133,35.25,1.05,25.65,0.019999999999999574,1.8286727864765746,1.141257736290903,non_fall
5.73376,-1.3361,0.8792,-0.1783,-0.5907,0.3532,-0.4884,35.25,1.05,25.65,0.020000000000000462,1.6093311467811715,1.0901167960181024,non_fall
5.75376,-0.40005,-0.027,-0.02995,-0.5907,0.3532,-0.4884,35.25,1.05,25.65,0.019999999999999574,0.4020771132506798,1.0496913832950614,non_fall
5.77376,-0.3704,0.0305,0.2765,-0.5907,0.3532,-0.4884,34.425,1.575,26.55,0.020000000000000462,0.46322635935361023,1.0532504130002094,non_fall
5.79376,0.8701,0.3377,0.1322,-0.5789,0.243,-0.5084,34.425,1.575,26.55,0.019999999999999574,0.9426516535815338,1.1104493005361915,non_fall
5.81376,0.9204,-0.0138,0.274,-0.5789,0.243,-0.5084,34.425,1.575,26.55,0.020000000000000462,0.9604179298617869,1.1996389941257855,non_fall
5.83376,-1.2575,0.653,-0.1216,-0.5789,0.243,-0.5084,34.725,1.725,26.55,0.019999999999999574,1.4221469016947583,1.2758076345863099,non_fall
5.85376,-2.0128,1.1895,-0.037,-0.57755,0.2165,-0.51245,34.725,1.725,26.55,0.020000000000000462,2.338299187443728,1.291083744985886,non_fall
5.87376,-0.74095,1.0208,-0.3247,-0.5762,0.19,-0.5165,34.725,1.725,26.55,0.019999999999999574,1.3024859433022684,1.2175360530084207,non_fall
5.89376,0.5214,-0.3518,-0.3529,-0.5762,0.19,-0.5165,34.35,1.875,27.0,0.020000000000000462,0.7212209162247029,1.060849029747334,non_fall
5.91376,-0.2668,0.2941,-0.6047,-0.5762,0.19,-0.5165,33.975,2.025,27.45,0.019999999999999574,0.7234218271520427,0.8589419573025443,non_fall
5.93376,0.4301,0.0619,-0.3731,-0.7521,-0.0863,-0.4725,33.975,2.025,27.45,0.020000000000000462,0.5727313768251221,0.6677727061376287,non_fall
5.95376,0.3247,-0.0202,0.3869,-0.7521,-0.0863,-0.4725,33.975,2.025,27.45,0.019999999999999574,0.5054994955487098,0.5418173895044712,non_fall
5.97376,-0.2823,0.3145,0.13995,-0.7521,-0.0863,-0.4725,34.125,2.625,27.75,0.020000000000000462,0.44518484082457255,0.5167932934889267,non_fall
5.99376,-0.6397,0.4143,0.2011,-0.7291,-0.08095,-0.4614,34.125,2.625,27.75,0.019999999999999574,0.7882269914180814,0.5992221846920552,non_fall
6.01376,-0.6381,0.1879,0.1097,-0.7061,-0.0756,-0.4503,34.125,2.625,27.75,0.020000000000000462,0.6741751330329531,0.76442223597317,non_fall
6.03376,0.215,-0.4175,0.1559,-0.7061,-0.0756,-0.4503,34.35,2.25,28.275,0.019999999999999574,0.4948091147099051,0.962783047636419,non_fall
6.05376,-0.3896,-0.4144,0.8844,-0.7061,-0.0756,-0.4503,34.35,2.25,28.275,0.019999999999999574,1.051512662786331,1.1333357737381617,non_fall
6.07376,-1.2692,-0.0856,1.2183,-0.6,-0.3763,-0.6342,34.35,2.25,28.275,0.020000000000000462,1.7613775546429562,1.2222914837159589,non_fall
6.09376,-1.2808,0.2568,0.7331,-0.6,-0.3763,-0.6342,34.35,2.25,28.275,0.019999999999999574,1.4979420849952776,1.201533124396509,non_fall
6.11376,-1.4257,0.3973,0.6972,-0.6,-0.3763,-0.6342,34.35,2.925,27.675,0.020000000000000462,1.6360182211699232,1.079642334035845,non_fall
6.13376,-0.3346,-0.2175,0.3522,-0.5719,-0.2946,-0.4497,34.35,2.925,27.675,0.019999999999999574,0.5322670852119262,0.8992086573366154,non_fall
6.15376,-0.20605,0.13435,0.09285,-0.5719,-0.2946,-0.4497,34.35,2.925,27.675,0.020000000000000462,0.26292137132610577,0.7200666200634378,non_fall
6.17376,0.0973,-0.03,0.0072,-0.5719,-0.2946,-0.4497,35.925,3.075,27.15,0.019999999999999574,0.10207413972206672,0.5956209175800092,non_fall
6.19376,0.2985,-0.1899,0.6377,-0.5719,-0.2946,-0.4497,35.925,3.075,27.15,0.020000000000000462,0.7292637040193349,0.553375618957851,non_fall
6.21376,0.1441,-0.3089,0.4816,-0.642,-0.0325,-0.4091,35.925,3.075,27.15,0.019999999999999574,0.590019135282916,0.5883400890773296,non_fall
6.23376,-0.3966,-0.0764,-0.3333,-0.642,-0.0325,-0.4091,35.925,3.075,27.15,0.020000000000000462,0.5236577221811973,0.6710356850488595,non_fall
6.25376,-0.4457,0.4672,-1.2033,-0.642,-0.0325,-0.4091,35.85,2.55,26.775,0.019999999999999574,1.365597019621821,0.7649458832488953,non_fall
6.27376,0.7668,0.8225,0.0677,-0.57535,-0.02635,-0.4173,35.85,2.55,26.775,0.020000000000000462,1.1265308606514073,0.8446563968300933,non_fall
6.29376,0.637,0.651,0.087,-0.5087,-0.0202,-0.4255,35.85,2.55,26.775,0.019999999999999574,0.9149530042575957,0.9062923640900321,non_fall
6.31376,-0.464,0.1571,-0.582,-0.5087,-0.0202,-0.4255,35.55,3.375,27.15,0.020000000000000462,0.7607236094666708,0.9657291741493099,non_fall
6.33376,-0.3659,0.3463,-0.8865,-0.5087,-0.0202,-0.4255,35.55,3.375,27.15,0.019999999999999574,1.019651288431491,1.046050502013655,non_fall
6.35376,0.49835,0.26655,-0.16705,-0.4995,0.0822,-0.275,35.55,3.375,27.15,0.020000000000000462,0.5893278607871852,1.1610254960901727,non_fall
6.37376,1.1086,-0.2339,-0.60655,-0.4995,0.0822,-0.275,35.55,3.375,27.15,0.019999999999999574,1.2851482686834232,1.3032355958548965,non_fall
6.39376,0.84085,-0.50455,-1.0021,-0.4995,0.0822,-0.275,35.55,3.15,27.15,0.020000000000000462,1.4020712660203831,1.443163102678451,non_fall
6.41376,0.6341,-0.4311,-1.2286,-0.44585,0.10875,-0.1697,35.55,3.15,27.15,0.019999999999999574,1.448236161680822,1.540282113413237,non_fall
6.43376,0.94065,-0.26905,-2.4098,-0.3922,0.1353,-0.0644,35.55,3.15,27.15,0.020000000000000462,2.6008357051148003,1.5612403046473107,non_fall
6.45376,0.0884,0.3189,-1.5227,-0.3922,0.1353,-0.0644,34.95,3.15,27.525,0.019999999999999574,1.5582448652249747,1.4962942413180877,non_fall
6.47376,0.6216,-0.0561,-0.6601,-0.3922,0.1353,-0.0644,34.95,3.15,27.525,0.020000000000000462,0.9084414015224097,1.3656101620244214,non_fall
6.49376,1.0524,-0.3817,-0.7617,-0.2443,0.2902,0.153,34.95,3.15,27.525,0.019999999999999574,1.3540411884429513,1.2122420585859353,non_fall
6.51376,-0.5595,-0.3552,0.2164,-0.2443,0.2902,0.153,34.95,3.15,27.525,0.020000000000000462,0.6971630010263024,1.0855788834430375,non_fall
6.53376,-0.7778,0.0527,-0.2051,-0.2443,0.2902,0.153,34.65,2.025,28.65,0.019999999999999574,0.8061117416338756,1.0232865690812945,non_fall
6.55376,0.7574,0.3569,-1.1132,-0.0434,0.1326,0.2639,34.65,2.025,28.65,0.019999999999999574,1.3929273527359565,1.03921864074674,non_fall
6.57376,0.0633,-0.0656,-0.7832,-0.0434,0.1326,0.2639,34.65,2.025,28.65,0.020000000000000462,0.7884874697799579,1.1209777373630723,non_fall
6.59376,-0.0587,-1.0656,-1.2438,-0.0434,0.1326,0.2639,33.675,1.425,29.55,0.019999999999999574,1.6388982549261564,1.236533135149728,non_fall
6.61376,-0.664,-0.6197,-0.0397,-0.0434,0.1326,0.2639,33.675,1.425,29.55,0.020000000000000462,0.9091205530621339,1.346454472261553,non_fall
6.63376,1.4846,0.4731,-1.1246,0.0964,-0.1228,0.4484,33.675,1.425,29.55,0.019999999999999574,1.9216102440401384,1.4173513620932103,non_fall
6.65376,1.18625,0.38965,0.8244,0.0964,-0.1228,0.4484,33.675,1.425,29.55,0.020000000000000462,1.4962123996946424,1.4323371598420882,non_fall
6.67376,-1.4069,-0.2624,-0.3611,0.0964,-0.1228,0.4484,34.275,0.75,29.475,0.019999999999999574,1.476013069047832,1.3952563515689764,non_fall
6.69376,-1.2021,0.4262,0.0007,0.0945,-0.2436,0.582,34.275,0.75,29.475,0.020000000000000462,1.2754181039957053,1.3273495208819681,non_fall
6.71376,0.0096,0.4012,-0.3525,0.0945,-0.2436,0.582,34.275,0.75,29.475,0.019999999999999574,0.5341440348819783,1.258017276935077,non_fall
6.73376,1.4853,-0.4126,0.9576,0.0945,-0.2436,0.582,34.725,-0.45,28.65,0.020000000000000462,1.8147596562630546,1.2139366657500565,non_fall
6.75376,-0.0591,-0.6959,0.8823,0.0945,-0.2436,0.582,34.725,-0.45,28.65,0.019999999999999574,1.1252657064000484,1.2110030271969654,non_fall
6.77376,-0.9837,0.2351,0.1915,0.1759,-0.3398,0.6032,34.725,-0.45,28.65,0.020000000000000462,1.029373571644425,1.2513297422871346,non_fall
6.79376,-1.0999,0.7869,-0.0271,0.1759,-0.3398,0.6032,34.725,-0.45,28.65,0.019999999999999574,1.3526736598307814,1.324997901513955,non_fall
6.81376,0.1553,0.5293,1.3791,0.1759,-0.3398,0.6032,36.15,-1.875,28.65,0.020000000000000462,1.4853260214511828,1.4150332602668891,non_fall
6.83376,-0.362,-0.7881,1.7496,0.1541,-0.4985,0.578,36.15,-1.875,28.65,0.019999999999999574,1.9527533817663714,1.5036480482144514,non_fall
6.85376,-0.74815,-0.29905,-0.6017,0.1541,-0.4985,0.578,36.15,-1.875,28.65,0.020000000000000462,1.005585508547135,1.5774409806555771,non_fall
6.87376,1.9096,-0.4435,-0.3761,0.1541,-0.4985,0.578,36.15,-2.925,26.925,0.019999999999999574,1.996175247817686,1.6296753067361116,non_fall
6.89376,1.689,-0.9667,0.0326,0.1541,-0.4985,0.578,36.15,-2.925,26.925,0.020000000000000462,1.9463536806038106,1.6592843846022969,non_fall
6.91376,0.7081,-0.7175,0.3066,0.3233,-0.2508,0.4745,36.15,-2.925,26.925,0.019999999999999574,1.0536676041332957,1.6679890784128983,non_fall
6.93376,-0.6361,-0.2131,0.1881,0.3233,-0.2508,0.4745,36.15,-2.925,26.925,0.020000000000000462,0.6967183290254391,1.6581046706222744,non_fall
6.95376,-2.2752,1.50205,-0.97145,0.3233,-0.2508,0.4745,36.525,-2.55,25.95,0.019999999999999574,2.894201849387841,1.6335222481608085,non_fall
6.97376,-1.4357,1.4092,-1.1386,0.1805,0.1016,0.2621,36.525,-2.55,25.95,0.020000000000000462,2.3115988168365202,1.6036318103307725,non_fall
6.99376,0.936,-0.0711,-0.1024,0.1805,0.1016,0.2621,36.525,-2.55,25.95,0.019999999999999574,0.9442653069979856,1.5857653648213605,non_fall
7.01376,0.9426,-1.0409,1.0603,0.1805,0.1016,0.2621,36.825,-4.05,25.95,0.020000000000000462,1.7596032677850992,1.6010235744754735,non_fall
7.03376,-0.37735,-0.9095,-0.01345,0.1805,0.1016,0.2621,36.825,-4.05,25.95,0.019999999999999574,0.9847660508973692,1.663495708839031,non_fall
7.05376,-1.3633,0.8576,-1.0159,-0.0002,0.3751,0.4991,36.825,-4.05,25.95,0.019999999999999574,1.9042367132265883,1.76921139597813,non_fall
7.07376,0.4017,1.1684,0.6784,-0.0002,0.3751,0.4991,36.825,-4.05,25.95,0.020000000000000462,1.4095204893863729,1.8926532966348633,non_fall
7.09376,-0.11455,0.06095,2.35485,-0.0002,0.3751,0.4991,35.55,-5.25,27.075,0.019999999999999574,2.358422169057101,1.994556446653732,non_fall
7.11376,-2.1023,-0.0084,0.7516,-0.1964,0.4951,0.6872,35.55,-5.25,27.075,0.020000000000000462,2.2326303791716176,2.0383059942022377,non_fall
7.13376,-2.19855,1.83965,-0.4503,-0.1964,0.4951,0.6872,35.55,-5.25,27.075,0.019999999999999574,2.901844984660621,2.0069996455564825,non_fall
7.15376,-0.6055,1.5204,-0.6448,-0.1964,0.4951,0.6872,34.875,-6.375,28.35,0.020000000000000462,1.7589807986444876,1.9117988845489668,non_fall
7.17376,1.1395,0.2453,1.2575,-0.1964,0.4951,0.6872,34.875,-6.375,28.35,0.019999999999999574,1.7146249123350565,1.7860476614551735,non_fall
7.19376,-0.3953,-0.2011,0.6509,-0.2162,0.4858,0.6883,34.875,-6.375,28.35,0.020000000000000462,0.7876383116634184,1.6676025678037951,non_fall
7.21376,-0.7401,0.3716,-0.5483,-0.2162,0.4858,0.6883,34.875,-6.375,28.35,0.019999999999999574,0.9932106825845158,1.579364041199665,non_fall
7.23376,-0.9026,1.5796,0.2808,-0.2162,0.4858,0.6883,33.45,-7.95,29.775,0.020000000000000462,1.8408344738188709,1.519741314985112,non_fall
7.25376,-1.0332,1.5859,-0.1428,-0.2291,0.6281,0.5023,33.45,-7.95,29.775,0.019999999999999574,1.898149859731839,1.468767110690129,non_fall
7.27376,-1.3147,1.1356,0.7749,-0.2291,0.6281,0.5023,33.45,-7.95,29.775,0.020000000000000462,1.9022338079216234,1.4055136449988481,non_fall
7.29376,-1.4193,0.0872,0.9933,-0.2291,0.6281,0.5023,32.25,-9.825,30.825,0.019999999999999574,1.7345492843963817,1.3253490547890279,non_fall
7.31376,-0.66715,-0.27175,0.8733,-0.2291,0.6281,0.5023,32.25,-9.825,30.825,0.020000000000000462,1.132073352305406,1.2462329208362184,non_fall
7.33376,0.1644,0.1362,0.1401,-0.2996,0.6223,0.1716,32.25,-9.825,30.825,0.019999999999999574,0.2553542833006723,1.2008114303873372,non_fall
7.35376,0.3241,0.8722,-0.1927,-0.2996,0.6223,0.1716,29.775,-10.65,32.25,0.020000000000000462,0.950214154809325,1.2201233482749247,non_fall
7.37376,0.5829,-0.278,1.5751,-0.2996,0.6223,0.1716,29.775,-10.65,32.25,0.019999999999999574,1.702350263606171,1.3191021985665656,non_fall
7.39376,0.2294,-0.1822,2.0204,-0.4025,0.419,-0.1109,29.775,-10.65,32.25,0.020000000000000462,2.041528192310848,1.491093147740107,non_fall
7.41376,0.4352,0.7854,-0.138,-0.4025,0.419,-0.1109,29.775,-10.65,32.25,0.019999999999999574,0.9084581443302713,1.7115823824453997,non_fall
7.43376,1.0226,0.2701,-2.3038,-0.4025,0.419,-0.1109,28.05,-9.45,33.075,0.020000000000000462,2.5349870236354266,1.9464248151897694,non_fall
7.45376,2.6148,0.4065,1.3934,-0.4025,0.419,-0.1109,28.05,-9.45,33.075,0.019999999999999574,2.9906495699095204,2.159686461226259,non_fall
7.47376,-0.3473,-0.6075,0.0069,-0.4525,0.1205,-0.4116,28.05,-9.45,33.075,0.020000000000000462,0.6998007930832888,2.318817485508832,non_fall
7.49376,-2.3227,-0.5625,0.1742,-0.4525,0.1205,-0.4116,28.0875,-9.0,33.15,0.019999999999999574,2.3961817919348274,2.39798610119844,non_fall
7.51376,0.9703,-0.1804,-2.5708,-0.4525,0.1205,-0.4116,28.125,-8.55,33.225,0.020000000000000462,2.7537318115604505,2.3823560701246675,non_fall
7.53376,2.7492,-1.31,0.4265,-0.7151,0.1307,-0.5985,28.125,-8.55,33.225,0.019999999999999574,3.075077704709265,2.2744399982762826,non_fall
7.55376,0.2832,-0.8494,2.2844,-0.7151,0.1307,-0.5985,28.125,-8.55,33.225,0.019999999999999574,2.4536026491671388,2.098882118934132,non_fall
7.57376,-0.2802,0.3357,-0.6089,-0.7151,0.1307,-0.5985,27.675,-7.875,33.15,0.020000000000000462,0.749643742053517,1.899738921669282,non_fall
7.59376,0.1058,-0.6824,-2.0183,-0.9187,0.1544,-0.80665,27.675,-7.875,33.15,0.019999999999999574,2.133166259343139,1.7284495398519242,non_fall
7.61376,0.4351,-1.0931,0.2433,-1.1223,0.1781,-1.0148,27.675,-7.875,33.15,0.020000000000000462,1.2014052230617278,1.627421025393413,non_fall
7.63376,-0.2233,-0.8862,1.8369,-1.1223,0.1781,-1.0148,27.9,-7.8,32.85,0.019999999999999574,2.0516858775163413,1.6168868870108126,non_fall
7.65376,1.2189,-0.4189,-0.1634,-1.1223,0.1781,-1.0148,28.125,-7.725,32.55,0.020000000000000462,1.2991897397993875,1.6900803329539817,non_fall
7.67376,1.6066,-0.8303,-0.3183,-1.2977,0.2165,-0.9485,28.125,-7.725,32.55,0.019999999999999574,1.8362670121744278,1.8175929031407623,non_fall
7.69376,1.1318,-1.2628,-0.3817,-1.2977,0.2165,-0.9485,28.125,-7.725,32.55,0.020000000000000462,1.7381973334463494,1.9590554076279767,non_fall
7.71376,0.3091,-2.4004,1.1706,-1.2977,0.2165,-0.9485,29.25,-6.975,30.525,0.019999999999999574,2.6884507304393734,2.078634696757588,non_fall
7.73376,-0.1504,-2.2593,-0.2957,-1.20435,0.16995,-0.8622,29.25,-6.975,30.525,0.020000000000000462,2.2835269080963334,2.1592536754447056,non_fall
7.75376,-0.37435,-1.9783,1.04855,-1.111,0.1234,-0.7759,29.25,-6.975,30.525,0.019999999999999574,2.2700805965868263,2.2097520374292174,non_fall
7.77376,-0.95215,-2.14495,0.4457,-1.111,0.1234,-0.7759,30.75,-6.75,29.55,0.020000000000000462,2.3887336844026796,2.2611506361270983,non_fall
7.79376,0.8415,-1.7434,-0.3886,-1.111,0.1234,-0.7759,30.75,-6.75,29.55,0.019999999999999574,1.9744811394389161,2.352754036318176,non_fall
7.81376,0.7719,-1.8156,-0.0662,-0.5088,-0.2535,-0.4064,30.75,-6.75,29.55,0.020000000000000462,1.9739846529291964,2.513686514850753,non_fall
7.83376,2.1131,-2.2692,-0.5183,-0.5088,-0.2535,-0.4064,30.75,-6.75,29.55,0.019999999999999574,3.143739038151863,2.747793881133788,non_fall
7.85376,0.5189,-0.7645,-2.6913,-0.5088,-0.2535,-0.4064,32.55,-5.925,28.425,0.020000000000000462,2.8454899665962627,3.0282727913898664,non_fall
7.87376,-1.4128,-0.4978,-2.8405,-0.13515,-0.44155,-0.3872,32.55,-5.925,28.425,0.019999999999999574,3.211269052882365,3.3039039943567605,non_fall
7.89376,-0.8459,-0.1406,-3.6414,0.2385,-0.6296,-0.368,32.55,-5.925,28.425,0.020000000000000462,3.741003759688033,3.5140964112887323,non_fall
7.91376,2.1215,0.8559,-3.3187,0.2385,-0.6296,-0.368,34.575,-6.45,27.75,0.019999999999999574,4.030768754220466,3.60718836163776,non_fall
7.93376,2.2392,0.2997,-2.508,0.2385,-0.6296,-0.368,34.575,-6.45,27.75,0.020000000000000462,3.3754852584480353,3.5559323186542606,non_fall
7.95376,1.8349,-0.11335,-2.2032,0.2223,-0.5076,-0.4629,34.575,-6.45,27.75,0.019999999999999574,2.8694592648267374,3.3655911681541237,non_fall
7.97376,2.5027,0.00515,-2.7505,0.2223,-0.5076,-0.4629,34.575,-6.45,27.75,0.020000000000000462,3.7187073106793442,3.0729495588712785,non_fall
7.99376,1.099,0.0747,-3.1445,0.2223,-0.5076,-0.4629,36.15,-5.85,26.775,0.019999999999999574,3.331855540085734,2.737042357835679,non_fall
8.01376,-0.4971,-0.30955,-1.03925,0.1958,0.2413,-0.3639,36.15,-5.85,26.775,0.019999999999999574,1.1928831355166356,2.423665302838732,non_fall
8.03376,1.3639,0.1338,-1.7958,0.1958,0.2413,-0.3639,36.15,-5.85,26.775,0.019999999999999574,2.2589872266128466,2.1871727143568456,non_fall
8.05376,2.4644,0.5332,-1.0145,0.1958,0.2413,-0.3639,36.525,-5.55,27.15,0.02000000000000135,2.7178631036165157,2.0550290531701574,non_fall
8.07376,-0.0218,0.9089,-0.2565,0.1958,0.2413,-0.3639,36.525,-5.55,27.15,0.019999999999999574,0.944651628908774,2.020605700487038,non_fall
8.09376,-2.3681,0.8505,-0.4879,0.2724,0.5753,-0.3607,36.525,-5.55,27.15,0.019999999999999574,2.563063454150131,2.0467320952098147,non_fall
8.11376,-1.78,1.191,0.672,0.2724,0.5753,-0.3607,36.525,-5.55,27.15,0.019999999999999574,2.244652534358046,2.0786905320781868,non_fall
8.13376,-0.01575,1.80105,-0.34725,0.2724,0.5753,-0.3607,35.25,-4.95,28.65,0.02000000000000135,1.834287798438402,2.0624947181839475,non_fall
8.15376,0.0873,2.0389,-1.0319,0.2631,0.4365,-0.1492,35.25,-4.95,28.65,0.019999999999999574,2.2868213987979034,1.9626585936511682,non_fall
8.17376,-0.6332,1.93775,-0.72335,0.2631,0.4365,-0.1492,35.25,-4.95,28.65,0.019999999999999574,2.1631117689569352,1.7736228153972988,non_fall
8.19376,-0.3926,1.3639,-0.1549,0.2631,0.4365,-0.1492,34.875,-4.35,29.25,0.019999999999999574,1.4277086467483482,1.5208499978256091,non_fall
8.21376,-0.22575,0.75895,-0.7466,0.2631,0.4365,-0.1492,34.875,-4.35,29.25,0.02000000000000135,1.0882921138187118,1.251016612067523,non_fall
8.23376,-0.4377,-0.1539,-0.4408,0.102,0.1845,-0.1431,34.875,-4.35,29.25,0.019999999999999574,0.6399774527278286,1.0150201750925483,non_fall
8.25376,-0.1998,-0.4269,0.241,0.102,0.1845,-0.1431,34.875,-4.35,29.25,0.019999999999999574,0.5293813842590236,0.8509120978656809,non_fall
8.27376,0.1736,0.616,-0.3228,0.102,0.1845,-0.1431,34.425,-3.825,28.875,0.019999999999999574,0.7167934151483257,0.773923365409959,non_fall
8.29376,-0.0374,1.0413,-1.2332,0.2011,0.0675,-0.0047,34.425,-3.825,28.875,0.02000000000000135,1.614461733829576,0.7767256325230649,non_fall
8.31376,-0.3156,0.6079,-0.5586,0.2011,0.0675,-0.0047,34.425,-3.825,28.875,0.019999999999999574,0.8838437248744825,0.837283777839661,non_fall
8.33376,0.29885,0.37775,0.47805,0.2011,0.0675,-0.0047,34.05,-3.675,29.175,0.019999999999999574,0.6786296394205016,0.9282320154634197,non_fall
8.35376,0.602,0.2449,-0.4376,0.2011,0.0675,-0.0047,34.05,-3.675,29.175,0.019999999999999574,0.7835009700057811,1.023180609951914,non_fall
8.37376,-0.4528,-0.2869,-0.4365,0.18,0.0199,-0.0838,34.05,-3.675,29.175,0.02000000000000135,0.6912826484152484,1.0998254329351862,non_fall
8.39376,-1.1723,-1.2643,0.7699,0.18,0.0199,-0.0838,34.05,-3.675,29.175,0.019999999999999574,1.8882499278432396,1.1424694538215467,non_fall
8.41376,0.503,-0.7535,0.5852,0.18,0.0199,-0.0838,34.425,-2.85,29.175,0.019999999999999574,1.0785315433495675,1.1452039886391632,non_fall
8.43376,1.2541,-0.0959,-0.1499,0.2527,0.0205,-0.0945,34.425,-2.85,29.175,0.019999999999999574,1.2666623977998241,1.1139224632926508,non_fall
8.45376,0.5622,-0.0754,-0.4926,0.2527,0.0205,-0.0945,34.425,-2.85,29.175,0.02000000000000135,0.7512714289789011,1.0644855609359571,non_fall
8.47376,-0.255,-0.5205,0.7659,0.2527,0.0205,-0.0945,34.425,-2.175,28.65,0.019999999999999574,0.9604936543257326,1.0166333891801345,non_fall
8.49376,-0.0764,-0.6533,1.0232,0.2527,0.0205,-0.0945,34.425,-2.175,28.65,0.019999999999999574,1.21637826764539,0.986055410571167,non_fall
8.51376,0.2075,-0.5129,0.703,0.3809,0.0498,-0.241,34.425,-2.175,28.65,0.019999999999999574,0.8946125753643306,0.9778810884046177,non_fall
8.53376,0.29165,-0.5544,0.05935,0.3809,0.0498,-0.241,34.425,-2.175,28.65,0.019999999999999574,0.6292388298571537,0.983951080675561,non_fall
8.55376,0.6711,-0.684,0.0965,0.3809,0.0498,-0.241,34.575,-1.05,28.95,0.02000000000000135,0.9630905772563659,0.9850964495148922,non_fall
8.57376,0.5938,-0.7544,0.7237,0.4334,0.1341,-0.2001,34.575,-1.05,28.95,0.019999999999999574,1.2022726354700084,0.9585344845847149,non_fall
8.59376,0.25885,-0.69825,0.599,0.4334,0.1341,-0.2001,34.575,-1.05,28.95,0.019999999999999574,0.955697329179066,0.8886192717019021,non_fall
8.61376,0.07035,-0.7131,0.22335,0.4334,0.1341,-0.2001,34.35,0.525,29.025,0.019999999999999574,0.7505637581178564,0.7770234516369541,non_fall
8.63376,0.4976,-0.6437,0.6283,0.5607,0.26865,-0.2239,34.35,0.525,29.025,0.02000000000000135,1.0279670909129337,0.647664071714707,non_fall
8.65376,0.4019,-0.4772,0.1379,0.688,0.4032,-0.2477,34.35,0.525,29.025,0.019999999999999574,0.6389521578334327,0.5431037103532201,non_fall
8.67376,-0.1916,-0.29575,0.00265,0.688,0.4032,-0.2477,34.35,0.525,29.025,0.019999999999999574,0.3523998368331064,0.5121595410472323,non_fall
8.69376,-0.093,-0.0506,0.2718,0.688,0.4032,-0.2477,33.225,2.625,30.15,0.019999999999999574,0.2916926464619909,0.5921894085208828,non_fall
8.71376,-0.0736,0.2609,-0.1027,0.9479,0.5698,-0.1203,33.225,2.625,30.15,0.02000000000000135,0.28988456323164224,0.792812597486888,non_fall
8.73376,-0.2053,0.3759,-0.9514,0.9479,0.5698,-0.1203,33.225,2.625,30.15,0.019999999999999574,1.043365161388859,1.0886308995349208,non_fall
8.75376,-0.2104,1.1802,-1.2035,0.9479,0.5698,-0.1203,31.65,4.95,30.15,0.019999999999999574,1.6986913933966934,1.4253029941435957,non_fall
8.77376,-0.1948,1.591,-1.4108,0.9479,0.5698,-0.1203,31.65,4.95,30.15,0.019999999999999574,2.1353184024870857,1.7370822794345535,non_fall
8.79376,-0.2199,1.5652,-1.4945,1.0021,0.6124,-0.0527,31.65,4.95,30.15,0.02000000000000135,2.1752556861205994,1.9682082112159116,non_fall
8.81376,-0.31465,1.6298,-1.09955,1.0021,0.6124,-0.0527,31.65,4.95,30.15,0.019999999999999574,1.9910456712491553,2.088964862912589,non_fall
8.83376,-0.3829,1.8391,-1.0389,1.0021,0.6124,-0.0527,30.45,7.05,31.05,0.019999999999999574,2.146675203657973,2.1005560382333917,non_fall
8.85376,-0.49185,1.775,-0.40735,0.8388,0.5333,-0.0637,30.45,7.05,31.05,0.019999999999999574,1.886392176881573,2.0286454055176906,non_fall
8.87376,-0.70595,1.50875,-0.2485,0.8388,0.5333,-0.0637,30.45,7.05,31.05,0.02000000000000135,1.6841746391036767,1.9100535244738548,non_fall
8.89376,-0.8044,1.4696,-0.1958,0.8388,0.5333,-0.0637,30.075,8.925,32.25,0.019999999999999574,1.6867486949750399,1.7789026111171033,non_fall
8.91376,-0.5777,1.5154,-0.1784,0.85935,0.48625,-0.06055,30.075,8.925,32.25,0.019999999999999574,1.6315639766800443,1.6575166461041055,non_fall
8.93376,-0.5246,1.518,0.0281,0.8799,0.4392,-0.0574,30.075,8.925,32.25,0.019999999999999574,1.6063370661227987,1.5545214026625085,non_fall
8.95376,-0.5462,1.5111,0.2704,0.8799,0.4392,-0.0574,29.175,10.95,32.025,0.02000000000000135,1.6293783507828992,1.469124253044351,non_fall
8.97376,-0.6207,1.5309,-0.0106,0.8799,0.4392,-0.0574,29.175,10.95,32.025,0.019999999999999574,1.6519793158511398,1.3979554271057477,non_fall
8.99376,-0.568,1.1399,-0.3757,0.8323,0.4419,-0.0959,29.175,10.95,32.025,0.019999999999999574,1.3278352683974017,1.340243679162141,non_fall
9.01376,-1.0526,0.2425,0.2275,0.8323,0.4419,-0.0959,29.175,10.95,32.025,0.019999999999999574,1.1038701282306718,1.2987400171370425,non_fall
9.03376,-0.7695,0.2937,0.7668,0.8323,0.4419,-0.0959,28.65,12.975,31.875,0.019999999999999574,1.125332031002406,1.2768065524674383,non_fall
9.05376,-0.0259,1.0425,0.0824,0.84245,0.42335,-0.11405,28.65,12.975,31.875,0.02000000000000135,1.0460720912059551,1.2745681216262146,non_fall
9.07376,-0.0006,1.3326,-1.0273,0.8526,0.4048,-0.1322,28.65,12.975,31.875,0.019999999999999574,1.6826076221151502,1.2872252946223515,non_fall
9.09376,-0.1372,1.073,-1.0064,0.8526,0.4048,-0.1322,27.45,15.15,32.25,0.019999999999999574,1.4774957867960232,1.3064984270136117,non_fall
9.11376,-0.4577,0.7318,-0.6156,0.8526,0.4048,-0.1322,27.45,15.15,32.25,0.019999999999999574,1.0601810647243233,1.3236947399239898,non_fall
9.13376,-0.6746,1.0853,-0.168,0.628,0.5336,-0.201,27.45,15.15,32.25,0.02000000000000135,1.2888697568024474,1.3322797620090803,non_fall
9.15376,-0.7676,1.1537,0.1498,0.628,0.5336,-0.201,27.45,15.15,32.25,0.019999999999999574,1.3937982242778184,1.329175550468374,non_fall
9.17376,-0.5985,1.1878,0.0531,0.628,0.5336,-0.201,25.575,17.625,32.25,0.019999999999999574,1.3311238484829278,1.3153350336578198,non_fall
9.19376,-0.6025,1.0171,-0.183,0.628,0.5336,-0.201,25.575,17.625,32.25,0.019999999999999574,1.1962389644214069,1.2960961614477318,non_fall
9.21376,-0.8836,0.7579,-0.6335,0.483,0.7675,-0.1217,25.575,17.625,32.25,0.02000000000000135,1.3253239679414237,1.2809933284672155,non_fall
9.23376,-1.2375,0.9607,-0.5685,0.483,0.7675,-0.1217,24.6,18.0375,32.4,0.019999999999999574,1.6665962288448875,1.2821302445512026,non_fall
9.25376,-0.976,1.1533,-0.5468,0.483,0.7675,-0.1217,23.625,18.45,32.55,0.019999999999999574,1.6067567115154675,1.3102908273075853,non_fall
9.27376,-0.0976,0.1976,0.1828,0.3583,1.0699,-0.0773,23.625,18.45,32.55,0.019999999999999574,0.28633435001759744,1.3691404649760746,non_fall
9.29376,0.4361,-0.9357,0.5982,0.3583,1.0699,-0.0773,23.625,18.45,32.55,0.02000000000000135,1.1931307304734047,1.4502312881023327,non_fall
9.31376,0.048,-2.1552,0.6342,0.3583,1.0699,-0.0773,21.45,19.875,34.05,0.019999999999999574,2.2470871545180438,1.5329574768672347,non_fall
9.33376,-0.825,-1.4564,0.1082,0.4087,1.13595,-0.06955,21.45,19.875,34.05,0.019999999999999574,1.6773291865343545,1.5912505231954763,non_fall
9.35376,-1.3699,1.4033,-0.1071,0.4591,1.202,-0.0618,21.45,19.875,34.05,0.019999999999999574,1.9640130625838514,1.6037336909331688,non_fall
9.37376,-0.2984,1.0339,-0.3904,0.4591,1.202,-0.0618,18.75,21.15,34.95,0.02000000000000135,1.144728758265468,1.5613263894443883,non_fall
9.39376,0.3994,1.1465,-0.5548,0.4591,1.202,-0.0618,18.75,21.15,34.95,0.019999999999999574,1.3348354392957957,1.4686666198073568,non_fall
9.41376,0.6068,0.8712,-0.7512,0.3357,0.8263,-0.1046,18.75,21.15,34.95,0.019999999999999574,1.300575687916701,1.340341581510625,non_fall
9.43376,-0.2778,1.0779,-0.8785,0.3357,0.8263,-0.1046,18.75,21.15,34.95,0.019999999999999574,1.4180280321629752,1.1953248799706195,non_fall
9.45376,-0.0411,1.1569,-0.3486,0.3357,0.8263,-0.1046,16.725,21.75,35.25,0.02000000000000135,1.20897840344648,1.052067647259501,non_fall
9.47376,0.2114,0.0807,-0.6702,-0.338,0.4135,0.1316,16.725,21.75,35.25,0.019999999999999574,0.7073687086661383,0.9247176508273769,non_fall
9.49376,0.5928,0.1401,-0.2862,-0.338,0.4135,0.1316,16.725,21.75,35.25,0.019999999999999574,0.673015817050387,0.8204525469773847,non_fall
9.51376,0.1692,-0.0106,-0.0778,-0.338,0.4135,0.1316,16.125,21.15,36.15,0.019999999999999574,0.18653106979803658,0.7388428875693815,non_fall
9.53376,1.1334,1.4074,0.3025,-0.338,0.4135,0.1316,16.125,21.15,36.15,0.019999999999999574,1.8321780945093737,0.6743184947615845,non_fall
9.55376,0.1823,0.0823,0.0688,-0.2066,0.4383,0.1454,16.125,21.15,36.15,0.02000000000000135,0.21151836799672977,0.6209178176917716,non_fall
9.57376,0.52,-0.2808,-0.138,-0.2066,0.4383,0.1454,16.125,21.15,36.15,0.019999999999999574,0.6068711889684664,0.5762884932727027,non_fall
9.59376,0.5072,-0.1439,-0.0293,-0.2066,0.4383,0.1454,14.775,20.475,37.425,0.019999999999999574,0.5280317604084057,0.5421614824476803,non_fall
9.61376,0.5339,0.0729,0.0329,-0.0727,0.4563,-0.0194,14.775,20.475,37.425,0.019999999999999574,0.539857416361024,0.5212374895064475,non_fall
9.63376,-0.06335,-0.07195,0.2143,-0.0727,0.4563,-0.0194,14.775,20.475,37.425,0.02000000000000135,0.23476480783967602,0.5129285246218179,non_fall
9.65376,0.08045,-0.2375,-0.35345,-0.0727,0.4563,-0.0194,13.65,19.95,37.65,0.019999999999999574,0.43336515203693987,0.5109464189548062,non_fall
9.67376,-0.5372,-0.0984,0.2494,-0.0727,0.4563,-0.0194,13.65,19.95,37.65,0.019999999999999574,0.6003888406691118,0.5045945618703077,non_fall
9.69376,-0.3009,0.6708,0.07545,0.0205,0.3106,-0.0596,13.65,19.95,37.65,0.019999999999999574,0.7390576110831956,0.4834851946317707,non_fall
9.71376,0.0424,0.5723,-0.1222,0.0205,0.3106,-0.0596,13.65,19.95,37.65,0.02000000000000135,0.5867349401561152,0.44315016113220446,non_fall
9.73376,0.2387,0.0618,-0.1074,0.0205,0.3106,-0.0596,13.275,20.025,38.175,0.019999999999999574,0.26894551492820995,0.3881559724378544,non_fall
9.75376,0.1405,-0.0952,-0.0389,0.02825,0.2037,-0.03895,13.275,20.025,38.175,0.019999999999999574,0.17411634041640092,0.33079066239483684,non_fall
9.77376,0.11835,-0.19165,-0.2109,0.036,0.0968,-0.0183,13.275,20.025,38.175,0.019999999999999574,0.3085696922900887,0.28611862489762724,non_fall
9.79376,-0.1494,-0.095,0.0296,0.036,0.0968,-0.0183,12.675,20.25,38.775,0.02000000000000135,0.17950353756959778,0.2660527689397617,non_fall
9.81376,-0.1493,-0.20915,0.37535,0.036,0.0968,-0.0183,12.675,20.25,38.775,0.019999999999999574,0.45488661774116856,0.27495696450523965,non_fall
9.83376,-0.1553,-0.2259,-0.0089,-0.1051,0.0165,0.0336,12.675,20.25,38.775,0.019999999999999574,0.27427743253866144,0.3079189929454337,non_fall
9.85376,-0.0118,-0.0375,0.231,-0.1051,0.0165,0.0336,12.675,20.25,38.775,0.019999999999999574,0.23432133919043738,0.3516948576269664,non_fall
9.87376,0.0456,0.0137,-0.0204,-0.1051,0.0165,0.0336,12.825,19.125,39.15,0.02000000000000135,0.051799710423901024,0.38806409136128434,non_fall
9.89376,-0.2147,0.2218,-0.8315,-0.00435,0.00795,0.01175,12.825,19.125,39.15,0.019999999999999574,0.8869518476219552,0.3992907023543728,non_fall
9.91376,0.1479,-0.0613,-0.282,0.0964,-0.0006,-0.0101,12.825,19.125,39.15,0.019999999999999574,0.3242778129937353,0.374552068141958,non_fall
9.93376,-0.0931,0.1497,0.4846,0.0964,-0.0006,-0.0101,12.75,19.65,38.625,0.019999999999999574,0.5156693320336201,0.3148415573600795,non_fall
9.95376,0.0337,0.1999,0.1082,0.0964,-0.0006,-0.0101,12.75,19.65,38.625,0.02000000000000135,0.2297889031263259,0.2335824795441521,non_fall
