time,ax,ay,az,wx,wy,wz,Bx,By,Bz,Unnamed: 10,time_diff,acc_mag,acc_mag_filtered,label
0.075953,0.0,0.0,0.0,0.0,0.0,0.0,0.0,0.0,0.0,,0.0,0.0,0.00043431037425144606,non_fall
0.07643,0.0,0.0,0.0,0.0,0.0,0.0,0.0,0.0,0.0,,0.0004769999999999913,0.0,0.012030326802851382,non_fall
0.100651,0.0,0.0,0.0,0.0,0.0,0.0,-3.45,27.975,35.55,,0.024221000000000006,0.0,0.023365966362615922,non_fall
0.108997,0.0,0.0,0.0,0.0,0.0,0.0,-3.45,27.975,35.55,,0.008345999999999992,0.0,0.03426139856496899,non_fall
0.110217,-0.0447,-0.0184,0.0418,0.0,0.0,0.0,-3.45,27.975,35.55,,0.0012199999999999989,0.06390532059226367,0.04455377589426957,non_fall
0.133815,-0.0447,-0.0184,0.0418,0.0,0.0,0.0,-3.45,27.975,35.55,,0.023597999999999994,0.06390532059226367,0.05410337814944733,non_fall
0.137456,-0.0472,0.0004,0.0799,0.0,0.0,0.0,-3.45,27.975,35.55,,0.0036410000000000053,0.09280091594375564,0.06279896347207163,non_fall
0.14017,-0.0472,0.0004,0.0799,0.0021,0.0376,-0.0064,-3.45,27.975,35.55,,0.002713999999999994,0.09280091594375564,0.07056182497560506,non_fall
0.152208,-0.0472,0.0004,0.0799,0.0021,0.0376,-0.0064,-3.45,27.975,35.55,,0.012038000000000021,0.09280091594375564,0.07734806521937333,non_fall
0.154984,-0.0699,0.0492,0.0303,0.0021,0.0376,-0.0064,-3.45,27.975,35.55,,0.0027760000000000007,0.09069035229835642,0.08314875259128224,non_fall
0.171713,-0.0699,0.0492,0.0303,0.0021,0.0376,-0.0064,-3.45,27.975,35.55,,0.016728999999999994,0.09069035229835642,0.0879878546974285,non_fall
0.173747,-0.0918,0.0256,-0.0183,0.0021,0.0376,-0.0064,-3.45,27.975,35.55,,0.002034000000000008,0.09704375301893471,0.09191807990510287,non_fall
0.175366,-0.0918,0.0256,-0.0183,0.0021,0.0376,-0.0064,-2.175,28.05,36.225,,0.0016189999999999816,0.09704375301893471,0.09501494791405775,non_fall
0.193047,-0.0918,0.0256,-0.0183,0.0021,0.0376,-0.0064,-2.175,28.05,36.225,,0.017681000000000002,0.09704375301893471,0.09736953867317875,non_fall
0.195456,-0.0678,0.062,-0.0351,0.0021,0.0376,-0.0064,-2.175,28.05,36.225,,0.0024089999999999945,0.09835064819308513,0.09908044835202401,non_fall
0.20817,-0.0678,0.062,-0.0351,-0.0038,0.0457,-0.0151,-2.175,28.05,36.225,,0.012714000000000003,0.09835064819308513,0.10024552912870258,non_fall
0.210675,-0.0678,0.062,-0.0351,-0.0038,0.0457,-0.0151,-2.175,28.05,36.225,,0.0025050000000000072,0.09835064819308513,0.10095401568067759,non_fall
0.212363,-0.0514,0.0657,0.0398,-0.0038,0.0457,-0.0151,-2.175,28.05,36.225,,0.001687999999999995,0.09242559169407573,0.10127964823827511,non_fall
0.230318,-0.0514,0.0657,0.0398,-0.0038,0.0457,-0.0151,-2.175,28.05,36.225,,0.017955,0.09242559169407573,0.10127539071940977,non_fall
0.232457,-0.0408,0.0242,0.0301,-0.0038,0.0457,-0.0151,-2.175,28.05,36.225,,0.002139000000000002,0.056180868629810275,0.1009703090359427,non_fall
0.241504,-0.0408,0.0242,0.0301,-0.0038,0.0457,-0.0151,-2.25,28.05,36.6,,0.009047,0.056180868629810275,0.10036910210531015,non_fall
0.249869,-0.0408,0.0242,0.0301,-0.0038,0.0457,-0.0151,-2.25,28.05,36.6,,0.008365000000000011,0.056180868629810275,0.09945462998183884,non_fall
0.252163,-0.0674,0.0685,0.0496,-0.0038,0.0457,-0.0151,-2.25,28.05,36.6,,0.0022940000000000182,0.10814420927631771,0.09819352002143232,non_fall
0.269704,-0.0674,0.0685,0.0496,-0.0038,0.0457,-0.0151,-2.25,28.05,36.6,,0.017540999999999973,0.10814420927631771,0.09654455828941853,non_fall
0.272698,-0.084,0.0543,0.0275,-0.0038,0.0457,-0.0151,-2.25,28.05,36.6,,0.0029939999999999967,0.10373398671602282,0.094469176348601,non_fall
0.278587,-0.084,0.0543,0.0275,-0.0078,0.031,-0.0154,-2.25,28.05,36.6,,0.005888999999999978,0.10373398671602282,0.09194305096566219,non_fall
0.294823,-0.084,0.0543,0.0275,-0.0078,0.031,-0.0154,-2.25,28.05,36.6,,0.016236000000000028,0.10373398671602282,0.08896771896331805,non_fall
0.296857,-0.0741,0.0253,0.0443,-0.0078,0.031,-0.0154,-2.25,28.05,36.6,,0.0020339999999999803,0.08996327028293269,0.0855811458734758,non_fall
0.310034,-0.0741,0.0253,0.0443,-0.0078,0.031,-0.0154,-2.25,28.05,36.6,,0.013176999999999994,0.08996327028293269,0.081866301865406,non_fall
0.312678,-0.0803,-0.013,0.0599,-0.0078,0.031,-0.0154,-2.25,28.05,36.6,,0.002644000000000035,0.10102029499066016,0.0779569351513322,non_fall
0.314338,-0.0803,-0.013,0.0599,-0.0078,0.031,-0.0154,-2.85,27.975,37.2,,0.0016599999999999948,0.10102029499066016,0.0740398696471256,non_fall
0.32972,-0.0803,-0.013,0.0599,-0.0078,0.031,-0.0154,-2.85,27.975,37.2,,0.015382000000000007,0.10102029499066016,0.07035329799501071,non_fall
0.331276,-0.0725,-0.0425,0.0593,-0.0078,0.031,-0.0154,-2.85,27.975,37.2,,0.0015560000000000018,0.1028542172202968,0.0671807233707854,non_fall
0.342938,-0.0725,-0.0425,0.0593,0.0009,0.0406,-0.0183,-2.85,27.975,37.2,,0.011662000000000006,0.1028542172202968,0.06484045342212312,non_fall
0.349018,-0.0725,-0.0425,0.0593,0.0009,0.0406,-0.0183,-2.85,27.975,37.2,,0.006079999999999974,0.1028542172202968,0.0636708745215905,non_fall
0.350591,-0.0323,-0.0463,0.0144,0.0009,0.0406,-0.0183,-2.85,27.975,37.2,,0.001572999999999991,0.0582609646332774,0.06401212047796172,non_fall
0.363659,-0.0323,-0.0463,0.0144,0.0009,0.0406,-0.0183,-2.85,27.975,37.2,,0.013068000000000024,0.0582609646332774,0.06618516532989795,non_fall
0.365321,0.0333,0.005,0.0123,0.0009,0.0406,-0.0183,-2.85,27.975,37.2,,0.0016619999999999968,0.03584940724754038,0.0704697532706345,non_fall
0.381009,0.0333,0.005,0.0123,0.0009,0.0406,-0.0183,-2.775,28.125,36.525,,0.01568799999999998,0.03584940724754038,0.07708284199510271,non_fall
0.388773,0.0333,0.005,0.0123,0.0009,0.0406,-0.0183,-2.775,28.125,36.525,,0.007763999999999993,0.03584940724754038,0.08615930449605172,non_fall
0.390126,0.0098,0.0566,0.01,0.0009,0.0406,-0.0183,-2.775,28.125,36.525,,0.001352999999999993,0.058306088875862694,0.09773648602904396,non_fall
0.408364,0.0098,0.0566,0.01,0.0009,0.0406,-0.0183,-2.775,28.125,36.525,,0.018238000000000032,0.058306088875862694,0.11174387580895423,non_fall
0.409778,-0.0789,0.0638,0.1095,0.0009,0.0406,-0.0183,-2.775,28.125,36.525,,0.0014139999999999708,0.1492846274738293,0.12799868533248265,non_fall
0.412621,-0.0789,0.0638,0.1095,-0.0014,0.0389,-0.0128,-2.775,28.125,36.525,,0.00284300000000004,0.1492846274738293,0.14620760676183717,non_fall
0.432201,-0.0789,0.0638,0.1095,-0.0014,0.0389,-0.0128,-2.775,28.125,36.525,,0.019579999999999986,0.1492846274738293,0.16597455593604224,non_fall
0.435002,-0.1333,-0.0153,0.1363,-0.0014,0.0389,-0.0128,-2.775,28.125,36.525,,0.002800999999999998,0.1912607382606268,0.18681387691792048,non_fall
0.450758,-0.1333,-0.0153,0.1363,-0.0014,0.0389,-0.0128,-2.775,28.125,36.525,,0.015755999999999992,0.1912607382606268,0.20816831915191336,non_fall
0.453755,-0.174,-0.0918,0.0754,-0.0014,0.0389,-0.0128,-2.775,28.125,36.525,,0.0029970000000000274,0.21068554767710101,0.22943102758310602,non_fall
0.456216,-0.174,-0.0918,0.0754,-0.0014,0.0389,-0.0128,-3.0,27.15,36.45,,0.002460999999999991,0.21068554767710101,0.24997072225194994,non_fall
0.469751,-0.174,-0.0918,0.0754,-0.0014,0.0389,-0.0128,-3.0,27.15,36.45,,0.013534999999999964,0.21068554767710101,0.2691591309775558,non_fall
0.472219,-0.0602,-0.1304,0.3068,-0.0014,0.0389,-0.0128,-3.0,27.15,36.45,,0.0024680000000000257,0.33875424720584685,0.2863995432740672,non_fall
0.48482,-0.0602,-0.1304,0.3068,-0.0304,0.0971,0.0098,-3.0,27.15,36.45,,0.012600999999999973,0.33875424720584685,0.30115507220184534,non_fall
0.496618,-0.0602,-0.1304,0.3068,-0.0304,0.0971,0.0098,-3.0,27.15,36.45,,0.01179800000000003,0.33875424720584685,0.3129749248998942,non_fall
0.4985,0.2121,0.0054,0.3555,-0.0304,0.0971,0.0098,-3.0,27.15,36.45,,0.0018819999999999948,0.41399978260863857,0.3215168496718334,non_fall
0.512127,0.2121,0.0054,0.3555,-0.0304,0.0971,0.0098,-3.0,27.15,36.45,,0.013627,0.41399978260863857,0.3265640659888242,non_fall
0.514232,0.0752,0.286,0.0665,-0.0304,0.0971,0.0098,-3.0,27.15,36.45,,0.0021050000000000235,0.3031060705429701,0.32803539759411277,non_fall
0.519809,0.0752,0.286,0.0665,-0.0304,0.0971,0.0098,-3.45,27.675,36.75,,0.005576999999999943,0.3031060705429701,0.3259879407540191,non_fall
0.529006,0.0752,0.286,0.0665,-0.0304,0.0971,0.0098,-3.45,27.675,36.75,,0.00919700000000001,0.3031060705429701,0.32061226412845856,non_fall
0.530714,0.223,0.3717,-0.0823,-0.0304,0.0971,0.0098,-3.45,27.675,36.75,,0.0017080000000000428,0.4412065049384471,0.31222065152642187,non_fall
0.549353,0.223,0.3717,-0.0823,-0.0304,0.0971,0.0098,-3.45,27.675,36.75,,0.01863899999999996,0.4412065049384471,0.30122916725746113,non_fall
0.552708,-0.1298,0.083,-0.0777,-0.0304,0.0971,0.0098,-3.45,27.675,36.75,,0.003354999999999997,0.17255239783903323,0.28813451579274124,non_fall
0.555515,-0.1298,0.083,-0.0777,0.0043,0.0377,-0.0183,-3.45,27.675,36.75,,0.002807000000000004,0.17255239783903323,0.2734870515033136,non_fall
0.567662,-0.1298,0.083,-0.0777,0.0043,0.0377,-0.0183,-3.45,27.675,36.75,,0.012147000000000019,0.17255239783903323,0.25786184287921154,non_fall
0.569441,-0.2434,0.0223,-0.0258,0.0043,0.0377,-0.0183,-3.45,27.675,36.75,,0.001778999999999975,0.2457773179119668,0.24183001199280513,non_fall
0.587983,-0.2434,0.0223,-0.0258,0.0043,0.0377,-0.0183,-3.45,27.675,36.75,,0.01854200000000006,0.2457773179119668,0.2259323310398728,non_fall
0.590484,-0.086,0.1546,-0.0713,0.0043,0.0377,-0.0183,-3.45,27.675,36.75,,0.0025009999999999755,0.19073764704431057,0.2106564031425003,non_fall
0.592104,-0.086,0.1546,-0.0713,0.0043,0.0377,-0.0183,-3.3,27.825,36.45,,0.0016199999999999548,0.19073764704431057,0.196418106549941,non_fall
0.607169,-0.086,0.1546,-0.0713,0.0043,0.0377,-0.0183,-3.3,27.825,36.45,,0.015064999999999995,0.19073764704431057,0.18354760268259257,non_fall
0.610008,-0.015,0.1427,-0.0614,0.0043,0.0377,-0.0183,-3.3,27.825,36.45,,0.002839000000000036,0.15607129780968695,0.17228006216700248,non_fall
0.621769,-0.015,0.1427,-0.0614,-0.0376,0.0348,-0.0281,-3.3,27.825,36.45,,0.011761000000000021,0.15607129780968695,0.16275120273982144,non_fall
0.629993,-0.015,0.1427,-0.0614,-0.0376,0.0348,-0.0281,-3.3,27.825,36.45,,0.008224000000000009,0.15607129780968695,0.15499767732910885,non_fall
0.631283,-0.0383,0.0697,-0.0177,-0.0376,0.0348,-0.0281,-3.3,27.825,36.45,,0.0012900000000000134,0.08147557916332968,0.14896228265284947,non_fall
0.646762,-0.0383,0.0697,-0.0177,-0.0376,0.0348,-0.0281,-3.3,27.825,36.45,,0.01547899999999991,0.08147557916332968,0.14450386009688107,non_fall
0.648512,-0.0487,0.0157,0.123,-0.0376,0.0348,-0.0281,-3.3,27.825,36.45,,0.0017500000000000293,0.13321854225294616,0.14141158210720411,non_fall
0.661677,-0.0487,0.0157,0.123,-0.0376,0.0348,-0.0281,-3.3,27.525,36.15,,0.013164999999999982,0.13321854225294616,0.13942300243959327,non_fall
0.663333,-0.0487,0.0157,0.123,-0.0376,0.0348,-0.0281,-3.3,27.525,36.15,,0.0016559999999999908,0.13321854225294616,0.1382448105670074,non_fall
0.664723,-0.0764,-0.0261,0.2029,-0.0376,0.0348,-0.0281,-3.3,27.525,36.15,,0.0013900000000000023,0.21837257153772768,0.13757479072547515,non_fall
0.692276,-0.0764,-0.0261,0.2029,-0.0376,0.0348,-0.0281,-3.3,27.525,36.15,,0.02755300000000005,0.21837257153772768,0.13712319937028475,non_fall
0.694006,-0.0884,0.0098,0.1448,-0.0376,0.0348,-0.0281,-3.3,27.525,36.15,,0.0017300000000000093,0.16993422256861623,0.13663174826540214,non_fall
0.696987,-0.0884,0.0098,0.1448,-0.0298,0.0061,-0.0133,-3.3,27.525,36.15,,0.0029810000000000114,0.16993422256861623,0.13588865957795945,non_fall
0.711306,-0.0884,0.0098,0.1448,-0.0298,0.0061,-0.0133,-3.3,27.525,36.15,,0.01431899999999997,0.16993422256861623,0.13473880082973394,non_fall
0.714474,-0.1177,0.0018,0.0673,-0.0298,0.0061,-0.0133,-3.3,27.525,36.15,,0.0031680000000000597,0.1355943214150209,0.13308856138980907,non_fall
0.729201,-0.1177,0.0018,0.0673,-0.0298,0.0061,-0.0133,-3.3,27.525,36.15,,0.014726999999999935,0.1355943214150209,0.13090573108800505,non_fall
0.73109,-0.085,-0.0459,0.0483,-0.0298,0.0061,-0.0133,-3.3,27.525,36.15,,0.0018890000000000295,0.10800324069211999,0.1282151012936336,non_fall
0.732787,-0.085,-0.0459,0.0483,-0.0298,0.0061,-0.0133,-2.55,27.225,36.75,,0.0016969999999999485,0.10800324069211999,0.12509081420418716,non_fall
0.749263,-0.085,-0.0459,0.0483,-0.0298,0.0061,-0.0133,-2.55,27.225,36.75,,0.016476000000000046,0.10800324069211999,0.12164663531999288,non_fall
0.751465,-0.0189,-0.0603,0.0558,-0.0298,0.0061,-0.0133,-2.55,27.225,36.75,,0.0022020000000000373,0.08430266899689476,0.11802532440372375,non_fall
0.763108,-0.0189,-0.0603,0.0558,-0.0105,0.0017,-0.0136,-2.55,27.225,36.75,,0.011642999999999959,0.08430266899689476,0.11438816031890718,non_fall
0.768023,-0.0189,-0.0603,0.0558,-0.0105,0.0017,-0.0136,-2.55,27.225,36.75,,0.004915000000000003,0.08430266899689476,0.1109054699057218,non_fall
0.769061,-0.0326,-0.0533,0.0603,-0.0105,0.0017,-0.0136,-2.55,27.225,36.75,,0.0010379999999999834,0.08683167624778414,0.10774874173675345,non_fall
0.787898,-0.0326,-0.0533,0.0603,-0.0105,0.0017,-0.0136,-2.55,27.225,36.75,,0.018836999999999993,0.08683167624778414,0.10508458778174558,non_fall
0.791004,-0.0559,-0.0919,0.0242,-0.0105,0.0017,-0.0136,-2.55,27.225,36.75,,0.003106000000000053,0.1102545237167165,0.10307047963614839,non_fall
0.80045,-0.0559,-0.0919,0.0242,-0.0105,0.0017,-0.0136,-3.75,27.675,36.0,,0.009445999999999954,0.1102545237167165,0.10185187519925634,non_fall
0.809917,-0.0559,-0.0919,0.0242,-0.0105,0.0017,-0.0136,-3.75,27.675,36.0,,0.009467000000000003,0.1102545237167165,0.10156011116564041,non_fall
0.811861,-0.049,-0.1014,-0.0989,-0.0105,0.0017,-0.0136,-3.75,27.675,36.0,,0.0019440000000000568,0.14988051908103334,0.10231030141724078,non_fall
0.826768,-0.049,-0.1014,-0.0989,-0.0105,0.0017,-0.0136,-3.75,27.675,36.0,,0.014906999999999893,0.14988051908103334,0.10419847105301615,non_fall
0.828978,-0.0689,-0.0553,-0.1377,-0.0105,0.0017,-0.0136,-3.75,27.675,36.0,,0.0022100000000000453,0.16360498158674752,0.10729728171991494,non_fall
0.831269,-0.0689,-0.0553,-0.1377,-0.0127,0.005,-0.0133,-3.75,27.675,36.0,,0.002291000000000043,0.16360498158674752,0.11164998101893008,non_fall
0.846271,-0.0689,-0.0553,-0.1377,-0.0127,0.005,-0.0133,-3.75,27.675,36.0,,0.01500199999999996,0.16360498158674752,0.11726264186591719,non_fall
0.847837,-0.0494,-0.0063,-0.0056,-0.0127,0.005,-0.0133,-3.75,27.675,36.0,,0.0015659999999999563,0.050113970108144494,0.12409531024286345,non_fall
0.862265,-0.0494,-0.0063,-0.0056,-0.0127,0.005,-0.0133,-3.75,27.675,36.0,,0.014427999999999996,0.050113970108144494,0.13205325021171074,non_fall
0.863892,-0.0664,-0.0228,0.1083,-0.0127,0.005,-0.0133,-3.75,27.675,36.0,,0.001627000000000045,0.1290646737105084,0.14097988955507232,non_fall
0.870439,-0.0664,-0.0228,0.1083,-0.0127,0.005,-0.0133,-3.75,27.075,36.75,,0.0065469999999999695,0.1290646737105084,0.1506531486167491,non_fall
0.886313,-0.0664,-0.0228,0.1083,-0.0127,0.005,-0.0133,-3.75,27.075,36.75,,0.015874000000000055,0.1290646737105084,0.16078654781100257,non_fall
0.888048,-0.0627,-0.0302,-0.045,-0.0127,0.005,-0.0133,-3.75,27.075,36.75,,0.001734999999999931,0.08287538838521362,0.1710360045808825,non_fall
0.90035,-0.0627,-0.0302,-0.045,-0.0005,-0.0026,-0.0104,-3.75,27.075,36.75,,0.012302000000000035,0.08287538838521362,0.1810127334744189,non_fall
0.905307,-0.0627,-0.0302,-0.045,-0.0005,-0.0026,-0.0104,-3.75,27.075,36.75,,0.004956999999999989,0.08287538838521362,0.190302156740281,non_fall
0.906797,-0.0846,0.1102,-0.1659,-0.0005,-0.0026,-0.0104,-3.75,27.075,36.75,,0.0014899999999999913,0.21638856254432673,0.198488083842242,non_fall
0.92609,-0.0846,0.1102,-0.1659,-0.0005,-0.0026,-0.0104,-3.75,27.075,36.75,,0.019293000000000005,0.21638856254432673,0.20518056691256875,non_fall
0.927666,-0.1947,0.1817,-0.2355,-0.0005,-0.0026,-0.0104,-3.75,27.075,36.75,,0.0015760000000000218,0.35550419125518057,0.21004493392815068,non_fall
0.941972,-0.1947,0.1817,-0.2355,-0.0005,-0.0026,-0.0104,-3.3,27.45,36.225,,0.014306000000000041,0.35550419125518057,0.21282884651530773,non_fall
0.950214,-0.1947,0.1817,-0.2355,-0.0005,-0.0026,-0.0104,-3.3,27.45,36.225,,0.008241999999999972,0.35550419125518057,0.21338411644313657,non_fall
0.951703,-0.1019,0.0896,-0.1861,-0.0005,-0.0026,-0.0104,-3.3,27.45,36.225,,0.0014889999999999626,0.23031495826367857,0.211680573291049,non_fall
0.970525,-0.1019,0.0896,-0.1861,-0.0005,-0.0026,-0.0104,-3.3,27.45,36.225,,0.018822000000000005,0.23031495826367857,0.2078103971251363,non_fall
0.973744,-0.0415,0.0706,-0.183,-0.0005,-0.0026,-0.0104,-3.3,27.45,36.225,,0.003219000000000083,0.20048842859377197,0.2019826830425738,non_fall
0.976691,-0.0415,0.0706,-0.183,-0.02,-0.0027,-0.0111,-3.3,27.45,36.225,,0.002946999999999922,0.20048842859377197,0.19450919020453966,non_fall
0.995468,-0.0415,0.0706,-0.183,-0.02,-0.0027,-0.0111,-3.3,27.45,36.225,,0.018777000000000044,0.20048842859377197,0.18578301132346858,non_fall
0.997689,-0.1109,-0.0066,-0.0246,-0.02,-0.0027,-0.0111,-3.3,27.45,36.225,,0.0022210000000000285,0.11378721369292773,0.17625229857058752,non_fall
1.011357,-0.1109,-0.0066,-0.0246,-0.02,-0.0027,-0.0111,-3.3,27.45,36.225,,0.013668000000000013,0.11378721369292773,0.16639133896471625,non_fall
1.014018,-0.0917,-0.0892,-0.0267,-0.02,-0.0027,-0.0111,-3.3,27.45,36.225,,0.0026610000000000245,0.13068442906482777,0.1566712665132974,non_fall
1.016334,-0.0917,-0.0892,-0.0267,-0.02,-0.0027,-0.0111,-3.3,27.45,37.125,,0.0023159999999999847,0.13068442906482777,0.14753251519309366,non_fall
1.028234,-0.0917,-0.0892,-0.0267,-0.02,-0.0027,-0.0111,-3.3,27.45,37.125,,0.011900000000000022,0.13068442906482777,0.13936075853195692,non_fall
1.030774,-0.054,-0.0149,-0.0405,-0.02,-0.0027,-0.0111,-3.3,27.45,37.125,,0.0025399999999999867,0.06912495931282708,0.13246764376538048,non_fall
1.042106,-0.054,-0.0149,-0.0405,-0.0218,0.031,-0.0122,-3.3,27.45,37.125,,0.011331999999999898,0.06912495931282708,0.1270772226866932,non_fall
1.046849,-0.054,-0.0149,-0.0405,-0.0218,0.031,-0.0122,-3.3,27.45,37.125,,0.004742999999999942,0.06912495931282708,0.12331861391918733,non_fall
1.048529,-0.0134,0.1297,-0.0744,-0.0218,0.031,-0.0122,-3.3,27.45,37.125,,0.0016800000000001258,0.15012331597723252,0.12122501577089781,non_fall
1.062306,-0.0134,0.1297,-0.0744,-0.0218,0.031,-0.0122,-3.3,27.45,37.125,,0.013776999999999928,0.15012331597723252,0.12073868263611481,non_fall
1.064939,-0.011,0.082,-0.0935,-0.0218,0.031,-0.0122,-3.3,27.45,37.125,,0.0026330000000001075,0.12484890868565893,0.12172097964931963,non_fall
1.080383,-0.011,0.082,-0.0935,-0.0218,0.031,-0.0122,-3.675,27.675,36.75,,0.015444000000000013,0.12484890868565893,0.12396630967072181,non_fall
1.085948,-0.011,0.082,-0.0935,-0.0218,0.031,-0.0122,-3.675,27.675,36.75,,0.00556499999999982,0.12484890868565893,0.1272186362820323,non_fall
1.087458,-0.0905,-0.0828,-0.0933,-0.0218,0.031,-0.0122,-3.675,27.675,36.75,,0.0015100000000001224,0.15411352958127977,0.13118941793135297,non_fall
1.106516,-0.0905,-0.0828,-0.0933,-0.0218,0.031,-0.0122,-3.675,27.675,36.75,,0.01905800000000002,0.15411352958127977,0.13557588636972648,non_fall
1.108263,-0.1185,0.013,-0.0963,-0.0218,0.031,-0.0122,-3.675,27.675,36.75,,0.001746999999999943,0.15324796899143558,0.1400786976042835,non_fall
1.114342,-0.1185,0.013,-0.0963,-0.0252,0.0264,-0.033,-3.675,27.675,36.75,,0.0060789999999999456,0.15324796899143558,0.1444180908757895,non_fall
1.127698,-0.1185,0.013,-0.0963,-0.0252,0.0264,-0.033,-3.675,27.675,36.75,,0.013356000000000146,0.15324796899143558,0.14834784238954715,non_fall
1.129599,-0.1221,0.0159,-0.1808,-0.0252,0.0264,-0.033,-3.675,27.675,36.75,,0.0019009999999999305,0.21874610853681486,0.15166648079903575,non_fall
1.146489,-0.1221,0.0159,-0.1808,-0.0252,0.0264,-0.033,-3.675,27.675,36.75,,0.01689000000000007,0.21874610853681486,0.15422542170081519,non_fall
1.14862,0.0297,0.0843,-0.0197,-0.0252,0.0264,-0.033,-3.675,27.675,36.75,,0.002130999999999883,0.0915241498185042,0.15593391070474918,non_fall
1.150588,0.0297,0.0843,-0.0197,-0.0252,0.0264,-0.033,-4.05,27.375,36.15,,0.0019679999999999698,0.0915241498185042,0.15676098169156835,non_fall
1.16351,0.0297,0.0843,-0.0197,-0.0252,0.0264,-0.033,-4.05,27.375,36.15,,0.0129220000000001,0.0915241498185042,0.15673496407324833,non_fall
1.165784,0.1542,0.0698,0.0225,-0.0252,0.0264,-0.033,-4.05,27.375,36.15,,0.0022739999999998872,0.17075107613130877,0.15594120016326718,non_fall
1.180098,0.1542,0.0698,0.0225,-0.0166,0.0276,-0.0377,-4.05,27.375,36.15,,0.01431400000000016,0.17075107613130877,0.15451841872262756,non_fall
1.185106,0.1542,0.0698,0.0225,-0.0166,0.0276,-0.0377,-4.05,27.375,36.15,,0.005007999999999901,0.17075107613130877,0.15265376635094166,non_fall
1.186325,0.2007,0.034,-0.0506,-0.0166,0.0276,-0.0377,-4.05,27.375,36.15,,0.0012190000000000811,0.20975426098174976,0.15057610205895405,non_fall
1.204739,0.2007,0.034,-0.0506,-0.0166,0.0276,-0.0377,-4.05,27.375,36.15,,0.01841399999999993,0.20975426098174976,0.1485470136927551,non_fall
1.206232,0.1683,0.0168,-0.0456,-0.0166,0.0276,-0.0377,-4.05,27.375,36.15,,0.0014929999999999666,0.17517559761564966,0.1468491515628464,non_fall
1.221184,0.1683,0.0168,-0.0456,-0.0166,0.0276,-0.0377,-3.45,27.225,36.525,,0.014952000000000076,0.17517559761564966,0.14577183791149856,non_fall
1.229103,0.1683,0.0168,-0.0456,-0.0166,0.0276,-0.0377,-3.45,27.225,36.525,,0.00791900000000001,0.17517559761564966,0.14559441679797863,non_fall
1.230522,0.0624,-0.0308,0.015,-0.0166,0.0276,-0.0377,-3.45,27.225,36.525,,0.001418999999999837,0.07118567271579303,0.14656834840062358,non_fall
1.248477,0.0624,-0.0308,0.015,-0.0166,0.0276,-0.0377,-3.45,27.225,36.525,,0.017955000000000165,0.07118567271579303,0.1488995015144872,non_fall
1.250082,0.0662,-0.0103,0.1049,-0.0166,0.0276,-0.0377,-3.45,27.225,36.525,,0.0016049999999998565,0.12446903229317724,0.15273233460034344,non_fall
1.254101,0.0662,-0.0103,0.1049,-0.0263,0.0322,-0.053,-3.45,27.225,36.525,,0.004018999999999995,0.12446903229317724,0.15813757608354415,non_fall
1.263188,0.0662,-0.0103,0.1049,-0.0263,0.0322,-0.053,-3.45,27.225,36.525,,0.009087000000000067,0.12446903229317724,0.16510461766889134,non_fall
1.265099,0.0642,0.0296,0.179,-0.0263,0.0322,-0.053,-3.45,27.225,36.525,,0.001910999999999996,0.1924546699875064,0.17353926608160866,non_fall
1.288687,0.0642,0.0296,0.179,-0.0263,0.0322,-0.053,-3.45,27.225,36.525,,0.023587999999999942,0.1924546699875064,0.18326694840463179,non_fall
1.291337,0.0599,0.1086,0.1158,-0.0263,0.0322,-0.053,-3.45,27.225,36.525,,0.002650000000000041,0.1696809064096488,0.19404104814426024,non_fall
1.293593,0.0599,0.1086,0.1158,-0.0263,0.0322,-0.053,-3.75,27.45,36.45,,0.0022560000000000358,0.1696809064096488,0.20555579329170914,non_fall
1.307724,0.0599,0.1086,0.1158,-0.0263,0.0322,-0.053,-3.75,27.45,36.45,,0.014131000000000116,0.1696809064096488,0.2174629830313639,non_fall
1.310518,0.0194,0.2557,-0.0047,-0.0263,0.0322,-0.053,-3.75,27.45,36.45,,0.002793999999999963,0.25647795226880615,0.22939171727173377,non_fall
1.322629,0.0194,0.2557,-0.0047,-0.0388,0.0101,-0.0365,-3.75,27.45,36.45,,0.012110999999999983,0.25647795226880615,0.24097008706736445,non_fall
1.325869,0.0194,0.2557,-0.0047,-0.0388,0.0101,-0.0365,-3.75,27.45,36.45,,0.0032399999999999096,0.25647795226880615,0.2518475199838008,non_fall
1.32775,-0.031,0.3495,0.0036,-0.0388,0.0101,-0.0365,-3.75,27.45,36.45,,0.0018810000000000215,0.35089059548525947,0.26171628172858463,non_fall
1.345427,-0.031,0.3495,0.0036,-0.0388,0.0101,-0.0365,-3.75,27.45,36.45,,0.017676999999999943,0.35089059548525947,0.27033062650271,non_fall
1.347404,-0.0109,0.2705,0.0296,-0.0388,0.0101,-0.0365,-3.75,27.45,36.45,,0.0019770000000001176,0.2723329212563182,0.27752230530690725,non_fall
1.36117,-0.0109,0.2705,0.0296,-0.0388,0.0101,-0.0365,-4.35,26.85,35.925,,0.013765999999999945,0.2723329212563182,0.28321157662740554,non_fall
1.363675,-0.0109,0.2705,0.0296,-0.0388,0.0101,-0.0365,-4.35,26.85,35.925,,0.0025049999999999795,0.2723329212563182,0.2874134306556882,non_fall
1.365774,0.0434,0.2555,0.0232,-0.0388,0.0101,-0.0365,-4.35,26.85,35.925,,0.002099000000000073,0.2601961759903477,0.29023924507036136,non_fall
1.38516,0.0434,0.2555,0.0232,-0.0388,0.0101,-0.0365,-4.35,26.85,35.925,,0.019385999999999903,0.2601961759903477,0.2918943593046606,non_fall
1.387344,-0.0559,0.1834,0.2372,-0.0388,0.0101,-0.0365,-4.35,26.85,35.925,,0.0021839999999999637,0.3049987049152832,0.2926720539548951,non_fall
1.389307,-0.0559,0.1834,0.2372,-0.0948,0.0014,-0.0052,-4.35,26.85,35.925,,0.001963000000000159,0.3049987049152832,0.29294424572446365,non_fall
1.404375,-0.0559,0.1834,0.2372,-0.0948,0.0014,-0.0052,-4.35,26.85,35.925,,0.01506799999999986,0.3049987049152832,0.29314898223846236,non_fall
1.406408,-0.0315,0.1122,0.3458,-0.0948,0.0014,-0.0052,-4.35,26.85,35.925,,0.0020330000000001736,0.3649092078860165,0.2937746604450614,non_fall
1.425288,-0.0315,0.1122,0.3458,-0.0948,0.0014,-0.0052,-4.35,26.85,35.925,,0.018880000000000008,0.3649092078860165,0.2953408803818867,non_fall
1.427661,0.094,0.1315,0.2569,-0.0948,0.0014,-0.0052,-4.35,26.85,35.925,,0.0023729999999999585,0.3035224209181259,0.29837602595512835,non_fall
1.429658,0.094,0.1315,0.2569,-0.0948,0.0014,-0.0052,-4.575,26.85,37.425,,0.0019970000000000265,0.3035224209181259,0.3033920401922277,non_fall
1.444922,0.094,0.1315,0.2569,-0.0948,0.0014,-0.0052,-4.575,26.85,37.425,,0.015263999999999944,0.3035224209181259,0.31085736497609784,non_fall
1.446563,0.1073,0.2432,0.1486,-0.0948,0.0014,-0.0052,-4.575,26.85,37.425,,0.0016410000000000036,0.30453487485015573,0.3211694893677568,non_fall
1.457997,0.1073,0.2432,0.1486,-0.1202,-0.0182,0.0208,-4.575,26.85,37.425,,0.011433999999999944,0.30453487485015573,0.3346288494007577,non_fall
1.461919,0.1073,0.2432,0.1486,-0.1202,-0.0182,0.0208,-4.575,26.85,37.425,,0.003921999999999981,0.30453487485015573,0.35141590508265613,non_fall
1.463513,0.1616,0.238,0.1919,-0.1202,-0.0182,0.0208,-4.575,26.85,37.425,,0.0015940000000000953,0.34580944174501654,0.3715731251568152,non_fall
1.487357,0.1616,0.238,0.1919,-0.1202,-0.0182,0.0208,-4.575,26.85,37.425,,0.023843999999999976,0.34580944174501654,0.394993375181671,non_fall
1.489795,0.2477,0.1965,0.2449,-0.1202,-0.0182,0.0208,-4.575,26.85,37.425,,0.00243799999999994,0.3999294312750688,0.42141585558142447,non_fall
1.501048,0.2477,0.1965,0.2449,-0.1202,-0.0182,0.0208,-4.575,26.85,37.35,,0.011252999999999957,0.3999294312750688,0.4504303109194517,non_fall
1.507936,0.2477,0.1965,0.2449,-0.1202,-0.0182,0.0208,-4.575,26.85,37.35,,0.006888000000000005,0.3999294312750688,0.48148977036240687,non_fall
1.50985,0.4251,0.2055,0.1496,-0.1202,-0.0182,0.0208,-4.575,26.85,37.35,,0.0019139999999999713,0.4952983141501695,0.5139315935554647,non_fall
1.527027,0.4251,0.2055,0.1496,-0.1202,-0.0182,0.0208,-4.575,26.85,37.35,,0.017176999999999998,0.4952983141501695,0.5470060628585666,non_fall
1.529761,0.576,0.2659,-0.0589,-0.1202,-0.0182,0.0208,-4.575,26.85,37.35,,0.002734000000000014,0.6371405025581092,0.579911173959963,non_fall
1.532171,0.576,0.2659,-0.0589,-0.1843,0.0443,0.0383,-4.575,26.85,37.35,,0.0024100000000000232,0.6371405025581092,0.6118317002987658,non_fall
1.545938,0.576,0.2659,-0.0589,-0.1843,0.0443,0.0383,-4.575,26.85,37.35,,0.013767000000000085,0.6371405025581092,0.6419801778944,non_fall
1.548067,0.6451,0.3609,-0.1411,-0.1843,0.0443,0.0383,-4.575,26.85,37.35,,0.0021290000000000475,0.7525370622102276,0.6696372869652897,non_fall
1.562795,0.6451,0.3609,-0.1411,-0.1843,0.0443,0.0383,-4.575,26.85,37.35,,0.014727999999999852,0.7525370622102276,0.6941892008883613,non_fall
1.564868,0.6503,0.3863,-0.0428,-0.1843,0.0443,0.0383,-4.575,26.85,37.35,,0.0020729999999999915,0.7575946277528636,0.715159765045746,non_fall
1.570536,0.6503,0.3863,-0.0428,-0.1843,0.0443,0.0383,-4.275,26.25,37.65,,0.005668000000000006,0.7575946277528636,0.7322358112567698,non_fall
1.58532,0.6503,0.3863,-0.0428,-0.1843,0.0443,0.0383,-4.275,26.25,37.65,,0.01478400000000013,0.7575946277528636,0.7452844776804589,non_fall
1.587142,0.681,0.332,0.0913,-0.1843,0.0443,0.0383,-4.275,26.25,37.65,,0.0018219999999999903,0.7630993971954113,0.7543620045008359,non_fall
1.599478,0.681,0.332,0.0913,-0.3442,0.0906,0.0208,-4.275,26.25,37.65,,0.012335999999999903,0.7630993971954113,0.7597139933437508,non_fall
1.605102,0.681,0.332,0.0913,-0.3442,0.0906,0.0208,-4.275,26.25,37.65,,0.005624000000000073,0.7630993971954113,0.7617674875670296,non_fall
1.606405,0.6624,0.3116,0.0984,-0.3442,0.0906,0.0208,-4.275,26.25,37.65,,0.0013030000000000541,0.738614161792204,0.7611154594745433,non_fall
1.624359,0.6624,0.3116,0.0984,-0.3442,0.0906,0.0208,-4.275,26.25,37.65,,0.017954000000000025,0.738614161792204,0.7584944119329857,non_fall
1.626456,0.6814,0.3423,0.0121,-0.3442,0.0906,0.0208,-4.275,26.25,37.65,,0.0020969999999997935,0.7626412393779922,0.754755832261829,non_fall
1.642791,0.6814,0.3423,0.0121,-0.3442,0.0906,0.0208,-4.275,26.25,37.65,,0.01633499999999999,0.7626412393779922,0.7508321819037043,non_fall
1.645238,0.734,0.319,-0.1551,-0.3442,0.0906,0.0208,-4.275,26.25,37.65,,0.002447000000000088,0.8152134751094342,0.747698002988555,non_fall
1.646833,0.734,0.319,-0.1551,-0.3442,0.0906,0.0208,-4.05,24.975,37.95,,0.001595000000000013,0.8152134751094342,0.7463266632174018,non_fall
1.662515,0.734,0.319,-0.1551,-0.3442,0.0906,0.0208,-4.05,24.975,37.95,,0.015681999999999974,0.8152134751094342,0.7476433598483676,non_fall
1.664777,0.7561,0.2745,-0.1251,-0.3442,0.0906,0.0208,-4.05,24.975,37.95,,0.0022619999999999862,0.8140561835647463,0.7524753447811218,non_fall
1.668,0.7561,0.2745,-0.1251,-0.418,0.1125,0.0426,-4.05,24.975,37.95,,0.003222999999999976,0.8140561835647463,0.7615009170572781,non_fall
1.683035,0.7561,0.2745,-0.1251,-0.418,0.1125,0.0426,-4.05,24.975,37.95,,0.015035000000000132,0.8140561835647463,0.7751994740751599,non_fall
1.684989,0.6978,0.2129,-0.1219,-0.418,0.1125,0.0426,-4.05,24.975,37.95,,0.0019540000000000113,0.7396694261627961,0.7938056983199276,lateral_fall
1.702696,0.6978,0.2129,-0.1219,-0.418,0.1125,0.0426,-4.05,24.975,37.95,,0.017706999999999917,0.7396694261627961,0.8172716590902834,lateral_fall
1.705314,0.6241,0.1946,-0.1749,-0.418,0.1125,0.0426,-4.05,24.975,37.95,,0.002618000000000009,0.6767274044990346,0.8452410827216681,lateral_fall
1.713787,0.6241,0.1946,-0.1749,-0.418,0.1125,0.0426,-3.975,23.925,38.4,,0.008472999999999953,0.6767274044990346,0.8770401068129542,lateral_fall
1.724839,0.6241,0.1946,-0.1749,-0.418,0.1125,0.0426,-3.975,23.925,38.4,,0.011052000000000062,0.6767274044990346,0.9116883113619922,lateral_fall
1.726988,0.7433,0.2756,-0.1348,-0.418,0.1125,0.0426,-3.975,23.925,38.4,,0.0021489999999999565,0.8041276577758036,0.9479326251572832,lateral_fall
1.736794,0.7433,0.2756,-0.1348,-0.5185,0.0356,0.0982,-3.975,23.925,38.4,,0.009805999999999981,0.8041276577758036,0.9843048901603639,lateral_fall
1.745386,0.7433,0.2756,-0.1348,-0.5185,0.0356,0.0982,-3.975,23.925,38.4,,0.008592000000000155,0.8041276577758036,1.0192016299895563,lateral_fall
1.747033,1.0285,0.3505,-0.2277,-0.5185,0.0356,0.0982,-3.975,23.925,38.4,,0.001646999999999954,1.1101845747442178,1.0509821848853746,lateral_fall
1.761088,1.0285,0.3505,-0.2277,-0.5185,0.0356,0.0982,-3.975,23.925,38.4,,0.014054999999999929,1.1101845747442178,1.078079089147925,lateral_fall
1.763409,1.2443,0.418,-0.2126,-0.5185,0.0356,0.0982,-3.975,23.925,38.4,,0.0023210000000000175,1.3297387901388753,1.0991126271322016,lateral_fall
1.776878,1.2443,0.418,-0.2126,-0.5185,0.0356,0.0982,-4.2,22.875,38.925,,0.013468999999999953,1.3297387901388753,1.113000258839659,lateral_fall
1.785999,1.2443,0.418,-0.2126,-0.5185,0.0356,0.0982,-4.2,22.875,38.925,,0.009120999999999935,1.3297387901388753,1.1190514002466128,lateral_fall
1.78739,1.2711,0.3624,-0.1827,-0.5185,0.0356,0.0982,-4.2,22.875,38.925,,0.0013910000000001421,1.334319399544202,1.1170389827912819,lateral_fall
1.806053,1.2711,0.3624,-0.1827,-0.5185,0.0356,0.0982,-4.2,22.875,38.925,,0.018662999999999874,1.334319399544202,1.1072410958347585,lateral_fall
1.807903,1.1373,0.3161,-0.1691,-0.5185,0.0356,0.0982,-4.2,22.875,38.925,,0.0018500000000001293,1.1924618694113451,1.0904484608432627,lateral_fall
1.814488,1.1373,0.3161,-0.1691,-0.5832,-0.0392,0.1387,-4.2,22.875,38.925,,0.006585000000000063,1.1924618694113451,1.0679361343781015,lateral_fall
1.827856,1.1373,0.3161,-0.1691,-0.5832,-0.0392,0.1387,-4.2,22.875,38.925,,0.013367999999999824,1.1924618694113451,1.0414004129538454,lateral_fall
1.829187,1.053,0.1639,-0.0064,-0.5832,-0.0392,0.1387,-4.2,22.875,38.925,,0.001330999999999971,1.0656984423372307,1.0128642252803461,lateral_fall
1.845233,1.053,0.1639,-0.0064,-0.5832,-0.0392,0.1387,-4.2,22.875,38.925,,0.016046000000000005,1.0656984423372307,0.9845562690126032,lateral_fall
1.846675,0.9464,0.0425,-0.1626,-0.5832,-0.0392,0.1387,-4.2,22.875,38.925,,0.0014420000000001654,0.9612065178722001,0.9587708105038882,lateral_fall
1.848123,0.9464,0.0425,-0.1626,-0.5832,-0.0392,0.1387,-4.35,21.375,39.825,,0.0014479999999998938,0.9612065178722001,0.9377164475006836,lateral_fall
1.862867,0.9464,0.0425,-0.1626,-0.5832,-0.0392,0.1387,-4.35,21.375,39.825,,0.01474400000000009,0.9612065178722001,0.9233632077842086,lateral_fall
1.864385,0.6481,0.1716,-0.0186,-0.5832,-0.0392,0.1387,-4.35,21.375,39.825,,0.0015179999999999083,0.6706907856829405,0.9172980953922505,lateral_fall
1.878595,0.6481,0.1716,-0.0186,-0.6472,-0.2081,0.274,-4.35,21.375,39.825,,0.014210000000000056,0.6706907856829405,0.9205995788636102,lateral_fall
1.884323,0.6481,0.1716,-0.0186,-0.6472,-0.2081,0.274,-4.35,21.375,39.825,,0.005727999999999955,0.6706907856829405,0.9337413952254267,lateral_fall
1.885866,0.4561,0.2842,0.0831,-0.6472,-0.2081,0.274,-4.35,21.375,39.825,,0.001543000000000072,0.5437853068996992,0.9565351167239166,lateral_fall
1.902929,0.4561,0.2842,0.0831,-0.6472,-0.2081,0.274,-4.35,21.375,39.825,,0.01706300000000005,0.5437853068996992,0.9881189586225261,lateral_fall
1.905436,0.4183,0.5705,-0.2816,-0.6472,-0.2081,0.274,-4.35,21.375,39.825,,0.002506999999999815,0.7614090227991787,1.026997307296071,lateral_fall
1.914259,0.4183,0.5705,-0.2816,-0.6472,-0.2081,0.274,-3.375,19.575,40.35,,0.008823000000000025,0.7614090227991787,1.0711316105061444,lateral_fall
1.924849,0.4183,0.5705,-0.2816,-0.6472,-0.2081,0.274,-3.375,19.575,40.35,,0.0105900000000001,0.7614090227991787,1.11807889938254,lateral_fall
1.926573,0.4979,1.1255,-0.6435,-0.6472,-0.2081,0.274,-3.375,19.575,40.35,,0.0017240000000000588,1.3887933287570184,1.165169724909681,lateral_fall
1.937232,0.4979,1.1255,-0.6435,-0.6472,-0.2081,0.274,-3.375,19.575,40.35,,0.010658999999999974,1.3887933287570184,1.2097131666682472,lateral_fall
1.93872,0.653,1.3697,-0.5341,-0.6472,-0.2081,0.274,-3.375,19.575,40.35,,0.0014879999999999338,1.6086484699896368,1.249213357224661,lateral_fall
1.946808,0.653,1.3697,-0.5341,-0.7403,-0.5285,0.4594,-3.375,19.575,40.35,,0.008088000000000095,1.6086484699896368,1.2815803217129897,lateral_fall
1.958421,0.653,1.3697,-0.5341,-0.7403,-0.5285,0.4594,-3.375,19.575,40.35,,0.011612999999999873,1.6086484699896368,1.3053183036108538,lateral_fall
1.961524,0.8906,1.279,-0.3453,-0.7403,-0.5285,0.4594,-3.375,19.575,40.35,,0.003103000000000078,1.596321223939593,1.3196769569856104,lateral_fall
1.981493,0.8906,1.279,-0.3453,-0.7403,-0.5285,0.4594,-3.375,19.575,40.35,,0.019968999999999903,1.596321223939593,1.3247541544419223,lateral_fall
1.984097,0.9843,1.2294,-0.0769,-0.7403,-0.5285,0.4594,-3.375,19.575,40.35,,0.0026040000000000507,1.5767639201858976,1.3215429800481175,lateral_fall
1.985651,0.9843,1.2294,-0.0769,-0.7403,-0.5285,0.4594,-1.8,18.075,42.3,,0.0015540000000000553,1.5767639201858976,1.3119192986567094,lateral_fall
2.000252,0.9843,1.2294,-0.0769,-0.7403,-0.5285,0.4594,-1.8,18.075,42.3,,0.014601000000000086,1.5767639201858976,1.2985699478244055,lateral_fall
2.001895,0.8499,1.1031,0.0551,-0.7403,-0.5285,0.4594,-1.8,18.075,42.3,,0.001643000000000061,1.3936267900697086,1.2848650887395456,lateral_fall
2.015433,0.8499,1.1031,0.0551,-0.7112,-0.6672,0.5624,-1.8,18.075,42.3,,0.013537999999999606,1.3936267900697086,1.2746816016608333,lateral_fall
2.01959,0.8499,1.1031,0.0551,-0.7112,-0.6672,0.5624,-1.8,18.075,42.3,,0.004157000000000188,1.3936267900697086,1.2721875344602436,lateral_fall
2.020995,0.6431,0.821,-0.0722,-0.7112,-0.6672,0.5624,-1.8,18.075,42.3,,0.0014050000000001006,1.0453857900316035,1.2816003076169493,lateral_fall
2.040583,0.6431,0.821,-0.0722,-0.7112,-0.6672,0.5624,-1.8,18.075,42.3,,0.019587999999999717,1.0453857900316035,1.30693341446312,lateral_fall
2.042488,0.7601,0.7814,-0.1724,-0.7112,-0.6672,0.5624,-1.8,18.075,42.3,,0.0019050000000002676,1.103657433264507,1.3517474734480477,lateral_fall
2.055201,0.7601,0.7814,-0.1724,-0.7112,-0.6672,0.5624,0.9,15.15,42.6,,0.012712999999999752,1.103657433264507,1.4189213818125639,lateral_fall
2.060969,0.7601,0.7814,-0.1724,-0.7112,-0.6672,0.5624,0.9,15.15,42.6,,0.005768000000000217,1.103657433264507,1.5104578356280076,lateral_fall
2.062607,1.2436,0.8022,-0.1718,-0.7112,-0.6672,0.5624,0.9,15.15,42.6,,0.0016379999999998063,1.4898258421708224,1.6273348296999532,lateral_fall
2.084495,1.2436,0.8022,-0.1718,-0.7112,-0.6672,0.5624,0.9,15.15,42.6,,0.02188800000000013,1.4898258421708224,1.7694113629259864,lateral_fall
2.085888,1.6692,0.9764,-0.2818,-0.7112,-0.6672,0.5624,0.9,15.15,42.6,,0.0013930000000001996,1.954225381065347,1.9353918906394303,lateral_fall
2.089655,1.6692,0.9764,-0.2818,-0.5069,-0.6451,0.7196,0.9,15.15,42.6,,0.003766999999999854,1.954225381065347,2.122850528436386,lateral_fall
2.09971,1.6692,0.9764,-0.2818,-0.5069,-0.6451,0.7196,0.9,15.15,42.6,,0.010054999999999925,1.954225381065347,2.328313004368169,lateral_fall
2.101153,2.1802,1.3131,-0.1345,-0.5069,-0.6451,0.7196,0.9,15.15,42.6,,0.001443000000000083,2.548645503007431,2.547391959049824,lateral_fall
2.119239,2.1802,1.3131,-0.1345,-0.5069,-0.6451,0.7196,0.9,15.15,42.6,,0.018085999999999824,2.548645503007431,2.7749691048904985,lateral_fall
2.120841,2.6595,1.8221,-0.1317,-0.5069,-0.6451,0.7196,0.9,15.15,42.6,,0.0016020000000001033,3.226504850453506,3.0054156326336123,lateral_fall
2.125894,2.6595,1.8221,-0.1317,-0.5069,-0.6451,0.7196,3.15,13.875,43.65,,0.005053000000000196,3.226504850453506,3.2328401606450488,lateral_fall
2.146002,2.6595,1.8221,-0.1317,-0.5069,-0.6451,0.7196,3.15,13.875,43.65,,0.020108000000000015,3.226504850453506,3.451351903703931,lateral_fall
2.146961,3.1827,2.5977,-0.0907,-0.5069,-0.6451,0.7196,3.15,13.875,43.65,,0.0009589999999999321,4.1092397192181425,3.655325904632766,lateral_fall
2.158223,3.1827,2.5977,-0.0907,-0.5684,-0.494,0.7785,3.15,13.875,43.65,,0.011261999999999883,4.1092397192181425,3.8396570188778703,lateral_fall
2.165459,3.1827,2.5977,-0.0907,-0.5684,-0.494,0.7785,3.15,13.875,43.65,,0.007235999999999798,4.1092397192181425,3.999989722035445,lateral_fall
2.166205,3.3452,3.1036,-0.2348,-0.5684,-0.494,0.7785,3.15,13.875,43.65,,0.0007460000000003575,4.5692260876432895,4.1329119351908945,lateral_fall
2.181602,3.3452,3.1036,-0.2348,-0.5684,-0.494,0.7785,3.15,13.875,43.65,,0.015396999999999661,4.5692260876432895,4.236103182923017,lateral_fall
2.18315,3.0032,3.3126,-0.5679,-0.5684,-0.494,0.7785,3.15,13.875,43.65,,0.0015480000000001048,4.5072208077705715,4.308430358113432,lateral_fall
2.192334,3.0032,3.3126,-0.5679,-0.5684,-0.494,0.7785,5.925,12.15,44.85,,0.009183999999999859,4.5072208077705715,4.349987815225289,lateral_fall
2.20087,3.0032,3.3126,-0.5679,-0.5684,-0.494,0.7785,5.925,12.15,44.85,,0.008536000000000321,4.5072208077705715,4.362082164708505,lateral_fall
2.202387,2.4777,3.3853,-0.3776,-0.5684,-0.494,0.7785,5.925,12.15,44.85,,0.0015169999999997685,4.212105784521562,4.347165629859725,lateral_fall
2.220496,2.4777,3.3853,-0.3776,-0.5684,-0.494,0.7785,5.925,12.15,44.85,,0.01810899999999993,4.212105784521562,4.308724699974275,lateral_fall
2.222003,2.1877,3.4242,-0.0631,-0.5684,-0.494,0.7785,5.925,12.15,44.85,,0.0015070000000001471,4.063884661257009,4.251132730463863,lateral_fall
2.225325,2.1877,3.4242,-0.0631,-0.3635,-0.3386,0.598,5.925,12.15,44.85,,0.003322000000000269,4.063884661257009,4.179475925756099,lateral_fall
2.242828,2.1877,3.4242,-0.0631,-0.3635,-0.3386,0.598,5.925,12.15,44.85,,0.017502999999999602,4.063884661257009,4.099361811067096,lateral_fall
2.24477,2.5012,3.2757,-0.1648,-0.3635,-0.3386,0.598,5.925,12.15,44.85,,0.0019420000000001103,4.1247267751937216,4.016718167312039,lateral_fall
2.259722,2.5012,3.2757,-0.1648,-0.3635,-0.3386,0.598,5.925,12.15,44.85,,0.014952000000000076,4.1247267751937216,3.937589037682185,lateral_fall
2.262169,2.4657,2.9831,-0.0544,-0.3635,-0.3386,0.598,5.925,12.15,44.85,,0.002447000000000088,3.8705970418011737,3.8679334333249877,lateral_fall
2.264346,2.4657,2.9831,-0.0544,-0.3635,-0.3386,0.598,6.75,10.725,44.325,,0.0021770000000000955,3.8705970418011737,3.81343217909031,lateral_fall
2.279466,2.4657,2.9831,-0.0544,-0.3635,-0.3386,0.598,6.75,10.725,44.325,,0.015120000000000022,3.8705970418011737,3.779308930816511,lateral_fall
2.281696,1.7762,2.6585,0.522,-0.3635,-0.3386,0.598,6.75,10.725,44.325,,0.0022299999999999542,3.2395976123586707,3.770172342406296,lateral_fall
2.294584,1.7762,2.6585,0.522,-0.0707,-0.3558,0.5467,6.75,10.725,44.325,,0.012887999999999789,3.2395976123586707,3.78988707148246,lateral_fall
2.305424,1.7762,2.6585,0.522,-0.0707,-0.3558,0.5467,6.75,10.725,44.325,,0.01083999999999996,3.2395976123586707,3.841481086640214,lateral_fall
2.307298,1.3537,2.9922,0.9906,-0.0707,-0.3558,0.5467,6.75,10.725,44.325,,0.0018739999999999313,3.4303138180055774,3.92709478711341,lateral_fall
2.32531,1.3537,2.9922,0.9906,-0.0707,-0.3558,0.5467,6.75,10.725,44.325,,0.01801200000000014,3.4303138180055774,4.047973334004906,lateral_fall
2.326868,2.0918,4.164,1.6142,-0.0707,-0.3558,0.5467,6.75,10.725,44.325,,0.0015580000000001704,4.931547919264295,4.204497757426586,lateral_fall
2.335488,2.0918,4.164,1.6142,-0.0707,-0.3558,0.5467,7.2,10.125,44.25,,0.008619999999999628,4.931547919264295,4.396244133734795,lateral_fall
2.344592,2.0918,4.164,1.6142,-0.0707,-0.3558,0.5467,7.2,10.125,44.25,,0.009104000000000223,4.931547919264295,4.622055257588129,lateral_fall
2.346194,3.3162,4.4349,0.3191,-0.0707,-0.3558,0.5467,7.2,10.125,44.25,,0.0016020000000001033,5.546832002143205,4.880107538858092,lateral_fall
2.362147,3.3162,4.4349,0.3191,-0.0707,-0.3558,0.5467,7.2,10.125,44.25,,0.015953000000000106,5.546832002143205,5.167957917479321,lateral_fall
2.363963,4.0213,4.6101,-1.0615,-0.0707,-0.3558,0.5467,7.2,10.125,44.25,,0.0018159999999998178,6.208917615011493,5.482560378602184,lateral_fall
2.367225,4.0213,4.6101,-1.0615,0.2816,-0.181,-0.0186,7.2,10.125,44.25,,0.003261999999999876,6.208917615011493,5.820247667640982,lateral_fall
2.381932,4.0213,4.6101,-1.0615,0.2816,-0.181,-0.0186,7.2,10.125,44.25,,0.014707000000000026,6.208917615011493,6.176680229852735,lateral_fall
2.383353,4.4916,5.1077,0.5154,0.2816,-0.181,-0.0186,7.2,10.125,44.25,,0.0014210000000001166,6.821195423824185,6.546770860913925,lateral_fall
2.401771,4.4916,5.1077,0.5154,0.2816,-0.181,-0.0186,7.2,10.125,44.25,,0.018418000000000045,6.821195423824185,6.924599462333605,lateral_fall
2.402264,5.1749,4.8024,2.8421,0.2816,-0.181,-0.0186,7.2,10.125,44.25,,0.0004930000000000767,7.610530085348851,7.303336936816423,lateral_fall
2.402739,5.1749,4.8024,2.8421,0.2816,-0.181,-0.0186,6.9,10.35,44.025,,0.00047499999999978115,7.610530085348851,7.675200395444185,lateral_fall
2.421798,5.1749,4.8024,2.8421,0.2816,-0.181,-0.0186,6.9,10.35,44.025,,0.019058999999999937,7.610530085348851,8.031463840571766,lateral_fall
2.422302,5.6862,4.1763,3.0866,0.2816,-0.181,-0.0186,6.9,10.35,44.025,,0.000504000000000282,7.700743580330409,8.362549696243015,lateral_fall
2.435946,5.6862,4.1763,3.0866,0.3474,-0.4716,-0.1936,6.9,10.35,44.025,,0.013643999999999767,7.700743580330409,8.658226676762888,lateral_fall
2.441964,5.6862,4.1763,3.0866,0.3474,-0.4716,-0.1936,6.9,10.35,44.025,,0.006018000000000079,7.700743580330409,8.907937541799972,lateral_fall
2.444307,4.6033,3.9721,-0.3109,0.3474,-0.4716,-0.1936,6.9,10.35,44.025,,0.002342999999999762,6.088070967884655,9.101275222589292,lateral_fall
2.460044,4.6033,3.9721,-0.3109,0.3474,-0.4716,-0.1936,6.9,10.35,44.025,,0.015737000000000112,6.088070967884655,9.228616630208483,lateral_fall
2.46175,3.1171,4.2542,-6.2233,0.3474,-0.4716,-0.1936,6.9,10.35,44.025,,0.0017059999999999853,8.157450149403305,9.28190878575259,lateral_fall
2.470445,3.1171,4.2542,-6.2233,0.3474,-0.4716,-0.1936,8.25,11.475,43.8,,0.008694999999999897,8.157450149403305,9.255580633336828,lateral_fall
2.479455,3.1171,4.2542,-6.2233,0.3474,-0.4716,-0.1936,8.25,11.475,43.8,,0.009010000000000407,8.157450149403305,9.14752756666875,lateral_fall
2.48161,3.2337,3.9737,-9.4456,0.3474,-0.4716,-0.1936,8.25,11.475,43.8,,0.002154999999999685,10.745532408401179,8.960089251564508,lateral_fall
2.499221,3.2337,3.9737,-9.4456,0.3474,-0.4716,-0.1936,8.25,11.475,43.8,,0.017611000000000043,10.745532408401179,8.700920267087197,lateral_fall
2.500969,5.631,2.5027,-11.3135,0.3474,-0.4716,-0.1936,8.25,11.475,43.8,,0.0017480000000000828,12.882816095093494,8.383641239369956,lateral_fall
2.504078,5.631,2.5027,-11.3135,-0.3627,-0.1471,0.7437,8.25,11.475,43.8,,0.0031089999999998064,12.882816095093494,8.02815852398571,lateral_fall
2.518807,5.631,2.5027,-11.3135,-0.3627,-0.1471,0.7437,8.25,11.475,43.8,,0.014728999999999992,12.882816095093494,7.660556005591373,lateral_fall
2.52035,6.1439,1.2249,-7.3818,-0.3627,-0.1471,0.7437,8.25,11.475,43.8,,0.0015430000000002941,9.681883001771919,7.312494363676756,lateral_fall
2.538031,6.1439,1.2249,-7.3818,-0.3627,-0.1471,0.7437,8.25,11.475,43.8,,0.017681000000000058,9.681883001771919,7.02009852298264,lateral_fall
2.539373,3.496,-3.2151,-0.1288,-0.3627,-0.1471,0.7437,8.25,11.475,43.8,,0.0013419999999997323,4.751365430063236,6.822365868422973,lateral_fall
2.542443,3.496,-3.2151,-0.1288,-0.3627,-0.1471,0.7437,7.35,11.25,44.25,,0.003070000000000128,4.751365430063236,6.759176168253536,lateral_fall
2.56093,3.496,-3.2151,-0.1288,-0.3627,-0.1471,0.7437,7.35,11.25,44.25,,0.01848699999999992,4.751365430063236,6.8690193020351265,lateral_fall
2.562301,-3.3122,-8.4414,5.4898,-0.3627,-0.1471,0.7437,7.35,11.25,44.25,,0.0013710000000002331,10.60027390400833,7.186572984093819,lateral_fall
2.578399,-3.3122,-8.4414,5.4898,-0.6551,-1.1988,1.3039,7.35,11.25,44.25,,0.016097999999999946,10.60027390400833,7.740261452013586,lateral_fall
2.582629,-3.3122,-8.4414,5.4898,-0.6551,-1.1988,1.3039,7.35,11.25,44.25,,0.004229999999999734,10.60027390400833,8.54991831849684,lateral_fall
2.584398,-8.0097,-0.836,1.1738,-0.6551,-1.1988,1.3039,7.35,11.25,44.25,,0.0017690000000003536,8.138304278533706,9.624676344576292,lateral_fall
2.601563,-8.0097,-0.836,1.1738,-0.6551,-1.1988,1.3039,7.35,11.25,44.25,,0.017164999999999875,8.138304278533706,10.961219509447709,lateral_fall
2.602281,-1.826,6.3805,2.339,-0.6551,-1.1988,1.3039,7.35,11.25,44.25,,0.0007179999999999964,7.036759001841685,12.542550651165024,lateral_fall
2.61226,-1.826,6.3805,2.339,-0.6551,-1.1988,1.3039,10.5,9.075,44.25,,0.00997899999999996,7.036759001841685,14.337436262260287,lateral_fall
2.621587,-1.826,6.3805,2.339,-0.6551,-1.1988,1.3039,10.5,9.075,44.25,,0.009326999999999863,7.036759001841685,16.30067687035917,lateral_fall
2.622136,-3.1425,3.5336,-3.4898,-0.6551,-1.1988,1.3039,10.5,9.075,44.25,,0.0005489999999999107,5.877102964046147,18.37431172845539,lateral_fall
2.641773,-3.1425,3.5336,-3.4898,-0.6551,-1.1988,1.3039,10.5,9.075,44.25,,0.01963700000000035,5.877102964046147,20.489799307965587,lateral_fall
2.642392,-19.5694,-24.6422,-4.2412,-0.6551,-1.1988,1.3039,10.5,9.075,44.25,,0.0006189999999999252,31.751963949337057,22.57112113556943,lateral_fall
2.645636,-19.5694,-24.6422,-4.2412,0.9367,-2.863,3.5545,10.5,9.075,44.25,,0.0032440000000000246,31.751963949337057,24.53864365903864,lateral_fall
2.660916,-19.5694,-24.6422,-4.2412,0.9367,-2.863,3.5545,10.5,9.075,44.25,,0.015279999999999738,31.751963949337057,26.313465998816827,lateral_fall
2.661585,-19.8553,-6.1535,-17.9408,0.9367,-2.863,3.5545,10.5,9.075,44.25,,0.0006690000000002527,27.458528820386572,27.82191729500459,lateral_fall
2.680903,-19.8553,-6.1535,-17.9408,0.9367,-2.863,3.5545,10.5,9.075,44.25,,0.019317999999999724,27.458528820386572,28.999864607134565,lateral_fall
2.681686,-13.3935,-12.4999,32.1184,0.9367,-2.863,3.5545,10.5,9.075,44.25,,0.0007830000000002002,36.976005203645244,29.796531700681268,lateral_fall
2.68236,-13.3935,-12.4999,32.1184,0.9367,-2.863,3.5545,17.85,7.575,42.6,,0.0006740000000000634,36.976005203645244,30.17757456942339,lateral_fall
2.701305,-13.3935,-12.4999,32.1184,0.9367,-2.863,3.5545,17.85,7.575,42.6,,0.01894499999999999,36.976005203645244,30.127195229403817,lateral_fall
2.702545,-5.6923,-27.9535,34.0603,0.9367,-2.863,3.5545,17.85,7.575,42.6,,0.0012400000000001299,44.428644787231576,29.649112852638872,lateral_fall
2.715183,-5.6923,-27.9535,34.0603,2.9774,-2.5194,7.0423,17.85,7.575,42.6,,0.012637999999999927,44.428644787231576,28.76626929349184,lateral_fall
2.720804,-5.6923,-27.9535,34.0603,2.9774,-2.5194,7.0423,17.85,7.575,42.6,,0.005620999999999654,44.428644787231576,27.519234639220702,lateral_fall
2.722313,3.0124,-14.8987,-6.0877,2.9774,-2.5194,7.0423,17.85,7.575,42.6,,0.0015090000000004267,16.373939866140955,25.96340006878516,lateral_fall
2.74012,3.0124,-14.8987,-6.0877,2.9774,-2.5194,7.0423,17.85,7.575,42.6,,0.017806999999999906,16.373939866140955,24.16519138605806,lateral_fall
2.741792,-4.6845,-1.7932,-0.6123,2.9774,-2.5194,7.0423,17.85,7.575,42.6,,0.0016719999999996737,5.053218556524149,22.197674993708166,lateral_fall
2.750846,-4.6845,-1.7932,-0.6123,2.9774,-2.5194,7.0423,25.95,3.825,39.0,,0.00905400000000034,5.053218556524149,20.13600926880243,lateral_fall
2.759415,-4.6845,-1.7932,-0.6123,2.9774,-2.5194,7.0423,25.95,3.825,39.0,,0.008569000000000049,5.053218556524149,18.053183796628872,lateral_fall
2.761147,-7.128,15.6408,5.0838,2.9774,-2.5194,7.0423,25.95,3.825,39.0,,0.0017319999999996227,17.924509228427986,16.01639154345402,lateral_fall
2.783299,-7.128,15.6408,5.0838,2.9774,-2.5194,7.0423,25.95,3.825,39.0,,0.02215200000000017,17.924509228427986,14.084232312895805,lateral_fall
2.786938,3.5776,10.9235,1.6827,2.9774,-2.5194,7.0423,25.95,3.825,39.0,,0.00363900000000017,11.61695111894683,12.304799350629038,lateral_fall
2.789549,3.5776,10.9235,1.6827,2.4394,0.0069,2.4028,25.95,3.825,39.0,,0.002610999999999919,11.61695111894683,10.714596434718754,lateral_fall
2.800295,3.5776,10.9235,1.6827,2.4394,0.0069,2.4028,25.95,3.825,39.0,,0.010746000000000144,11.61695111894683,9.338185111744341,lateral_fall
2.802907,-0.7615,3.4945,0.5547,2.4394,0.0069,2.4028,25.95,3.825,39.0,,0.0026119999999996146,3.619268515874444,8.188455471444845,lateral_fall
2.813053,-0.7615,3.4945,0.5547,2.4394,0.0069,2.4028,25.95,3.825,39.0,,0.01014600000000021,3.619268515874444,7.267422595731531,lateral_fall
2.814923,5.7225,5.7582,1.1775,2.4394,0.0069,2.4028,25.95,3.825,39.0,,0.0018699999999998163,8.203071360167483,6.5674561300921495,lateral_fall
2.819916,5.7225,5.7582,1.1775,2.4394,0.0069,2.4028,26.325,5.775,37.95,,0.004993000000000247,8.203071360167483,6.072844473677031,lateral_fall
2.837666,5.7225,5.7582,1.1775,2.4394,0.0069,2.4028,26.325,5.775,37.95,,0.017749999999999932,8.203071360167483,5.7615797480941175,lateral_fall
2.839717,6.3574,5.4599,1.7433,2.4394,0.0069,2.4028,26.325,5.775,37.95,,0.002050999999999803,8.559564104555793,5.607236385685465,lateral_fall
2.851709,6.3574,5.4599,1.7433,1.187,-0.2126,1.5714,26.325,5.775,37.95,,0.011992000000000225,8.559564104555793,5.580816957895915,lateral_fall
2.862456,6.3574,5.4599,1.7433,1.187,-0.2126,1.5714,26.325,5.775,37.95,,0.01074699999999984,8.559564104555793,5.65245633262649,lateral_fall
2.864345,-1.5124,3.2523,3.2891,1.187,-0.2126,1.5714,26.325,5.775,37.95,,0.0018890000000002516,4.866517015278997,5.792903829063161,lateral_fall
2.881542,-1.5124,3.2523,3.2891,1.187,-0.2126,1.5714,26.325,5.775,37.95,,0.017196999999999907,4.866517015278997,5.974735548957572,lateral_fall
2.883954,-6.2507,2.7255,5.1178,1.187,-0.2126,1.5714,26.325,5.775,37.95,,0.0024120000000000807,8.52592971939131,6.173278536369851,lateral_fall
2.894532,-6.2507,2.7255,5.1178,1.187,-0.2126,1.5714,26.925,6.45,36.9,,0.010577999999999754,8.52592971939131,6.367248991542537,lateral_fall
2.898965,-6.2507,2.7255,5.1178,1.187,-0.2126,1.5714,26.925,6.45,36.9,,0.004433000000000131,8.52592971939131,6.539118254438657,lateral_fall
2.900433,-3.5292,1.9288,3.5157,1.187,-0.2126,1.5714,26.925,6.45,36.9,,0.0014680000000000248,5.341878749091934,6.675229519806788,lateral_fall
2.920095,-3.5292,1.9288,3.5157,1.187,-0.2126,1.5714,26.925,6.45,36.9,,0.019661999999999846,5.341878749091934,6.765701573095198,lateral_fall
2.922736,3.3642,3.301,-1.205,1.187,-0.2126,1.5714,26.925,6.45,36.9,,0.0026410000000001155,4.864819384108726,6.804171186500778,lateral_fall
2.931088,3.3642,3.301,-1.205,0.956,0.8069,1.0316,26.925,6.45,36.9,,0.008351999999999915,4.864819384108726,6.787434990572598,lateral_fall
2.944992,3.3642,3.301,-1.205,0.956,0.8069,1.0316,26.925,6.45,36.9,,0.013904000000000138,4.864819384108726,6.715048885830522,lateral_fall
2.946509,4.1952,5.2012,-2.1764,0.956,0.8069,1.0316,26.925,6.45,36.9,,0.0015169999999997685,7.027723773740684,6.588929305972201,lateral_fall
2.959621,4.1952,5.2012,-2.1764,0.956,0.8069,1.0316,26.925,6.45,36.9,,0.013112000000000013,7.027723773740684,6.412981196690447,lateral_fall
2.961275,3.9523,4.9959,-0.6852,0.956,0.8069,1.0316,26.925,6.45,36.9,,0.0016540000000002664,6.406964268668899,6.192758734193293,lateral_fall
2.962637,3.9523,4.9959,-0.6852,0.956,0.8069,1.0316,25.65,6.675,37.5,,0.0013619999999998633,6.406964268668899,5.935151834534581,lateral_fall
2.979488,3.9523,4.9959,-0.6852,0.956,0.8069,1.0316,25.65,6.675,37.5,,0.01685099999999995,6.406964268668899,5.648086583996544,lateral_fall
2.982063,3.3128,3.9073,0.1096,0.956,0.8069,1.0316,25.65,6.675,37.5,,0.002575000000000216,5.123831504840885,5.3402291932834896,lateral_fall
2.995043,3.3128,3.9073,0.1096,0.4578,0.9909,0.0797,25.65,6.675,37.5,,0.01297999999999977,5.123831504840885,5.020687615871372,lateral_fall
2.998071,3.3128,3.9073,0.1096,0.4578,0.9909,0.0797,25.65,6.675,37.5,,0.0030280000000000307,5.123831504840885,4.698710034854794,lateral_fall
2.999199,2.9737,2.6546,0.2729,0.4578,0.9909,0.0797,25.65,6.675,37.5,,0.0011280000000000179,3.995530910905333,4.3833836439918255,lateral_fall
3.018152,2.9737,2.6546,0.2729,0.4578,0.9909,0.0797,25.65,6.675,37.5,,0.01895300000000022,3.995530910905333,4.083340008935303,lateral_fall
3.019618,2.8872,1.8619,0.6757,0.4578,0.9909,0.0797,25.65,6.675,37.5,,0.0014659999999997453,3.501309175151489,3.806474903733389,lateral_fall
3.029787,2.8872,1.8619,0.6757,0.4578,0.9909,0.0797,23.625,7.575,38.25,,0.010168999999999873,3.501309175151489,3.55969098329344,lateral_fall
3.037492,2.8872,1.8619,0.6757,0.4578,0.9909,0.0797,23.625,7.575,38.25,,0.007705000000000073,3.501309175151489,3.3486708945990014,lateral_fall
3.038802,2.7286,2.0165,0.0997,0.4578,0.9909,0.0797,23.625,7.575,38.25,,0.0013100000000001444,3.394329138430745,3.1776868023252742,lateral_fall
3.058366,2.7286,2.0165,0.0997,0.4578,0.9909,0.0797,23.625,7.575,38.25,,0.019563999999999915,3.394329138430745,3.0494507814564633,lateral_fall
3.059595,1.9051,1.6903,0.8149,0.4578,0.9909,0.0797,23.625,7.575,38.25,,0.0012289999999999246,2.674057237607303,2.965010069360069,lateral_fall
3.0648,1.9051,1.6903,0.8149,0.1316,0.8453,-0.4728,23.625,7.575,38.25,,0.005205000000000126,2.674057237607303,2.9236920168156058,lateral_fall
3.080787,1.9051,1.6903,0.8149,0.1316,0.8453,-0.4728,23.625,7.575,38.25,,0.015986999999999973,2.674057237607303,2.9231049967034735,lateral_fall
3.083146,0.9466,1.7115,1.4553,0.1316,0.8453,-0.4728,23.625,7.575,38.25,,0.002359000000000222,2.4378642086875963,2.9592022258832924,lateral_fall
3.097443,0.9466,1.7115,1.4553,0.1316,0.8453,-0.4728,23.625,7.575,38.25,,0.014297000000000004,2.4378642086875963,3.0264144818639935,lateral_fall
3.100611,-0.2139,2.377,1.6671,0.1316,0.8453,-0.4728,23.625,7.575,38.25,,0.0031679999999996156,2.91120329417236,3.1178549199597527,lateral_fall
3.10339,-0.2139,2.377,1.6671,0.1316,0.8453,-0.4728,21.75,8.55,39.3,,0.002779000000000309,2.91120329417236,3.2255949979220393,lateral_fall
3.113017,-0.2139,2.377,1.6671,0.1316,0.8453,-0.4728,21.75,8.55,39.3,,0.009627000000000052,2.91120329417236,3.3410054750062392,lateral_fall
3.115176,0.8435,2.7156,0.9798,0.1316,0.8453,-0.4728,21.75,8.55,39.3,,0.0021589999999998,3.007654177261741,3.4551512721529942,lateral_fall
3.13535,0.8435,2.7156,0.9798,-0.1643,0.846,-0.7038,21.75,8.55,39.3,,0.020173999999999914,3.007654177261741,3.559224092824043,lateral_fall
3.137503,0.8435,2.7156,0.9798,-0.1643,0.846,-0.7038,21.75,8.55,39.3,,0.0021530000000002936,3.007654177261741,3.6449919120091105,lateral_fall
3.138677,-3.4005,3.1946,0.4939,-0.1643,0.846,-0.7038,21.75,8.55,39.3,,0.0011739999999997863,4.691780751484451,3.7052392901616047,lateral_fall
3.155683,-3.4005,3.1946,0.4939,-0.1643,0.846,-0.7038,21.75,8.55,39.3,,0.017005999999999855,4.691780751484451,3.734167168617804,lateral_fall
3.157134,-4.3876,3.6944,-0.0334,-0.1643,0.846,-0.7038,21.75,8.55,39.3,,0.0014510000000003132,5.735916725336936,3.727716973305239,lateral_fall
3.170957,-4.3876,3.6944,-0.0334,-0.1643,0.846,-0.7038,18.75,9.45,40.425,,0.013822999999999919,5.735916725336936,3.6837842719389924,lateral_fall
3.179821,-4.3876,3.6944,-0.0334,-0.1643,0.846,-0.7038,18.75,9.45,40.425,,0.008863999999999983,5.735916725336936,3.6022943246281045,lateral_fall
3.181183,-2.0112,2.8096,0.4867,-0.1643,0.846,-0.7038,18.75,9.45,40.425,,0.0013619999999998633,3.489363049325765,3.4851261532780176,lateral_fall
3.20007,-2.0112,2.8096,0.4867,-0.1643,0.846,-0.7038,18.75,9.45,40.425,,0.01888700000000032,3.489363049325765,3.3358912478056277,lateral_fall
3.201583,0.1412,1.4182,0.3768,-0.1643,0.846,-0.7038,18.75,9.45,40.425,,0.0015129999999996535,1.4741800839788874,3.1595934320310235,lateral_fall
3.204155,0.1412,1.4182,0.3768,-0.1194,0.6721,-0.0991,18.75,9.45,40.425,,0.0025720000000002408,1.4741800839788874,2.9622123001338463,lateral_fall
3.220306,0.1412,1.4182,0.3768,-0.1194,0.6721,-0.0991,18.75,9.45,40.425,,0.016150999999999804,1.4741800839788874,2.7502597375099476,lateral_fall
3.221683,1.4987,0.8204,-0.4573,-0.1194,0.6721,-0.0991,18.75,9.45,40.425,,0.0013770000000001836,1.7686947560277322,2.5303561549449443,lateral_fall
3.239366,1.4987,0.8204,-0.4573,-0.1194,0.6721,-0.0991,18.75,9.45,40.425,,0.017682999999999893,1.7686947560277322,2.3088623053670854,lateral_fall
3.240924,1.612,0.9264,-0.5336,-0.1194,0.6721,-0.0991,18.75,9.45,40.425,,0.0015580000000001704,1.9342931318701415,2.091588128372693,lateral_fall
3.242325,1.612,0.9264,-0.5336,-0.1194,0.6721,-0.0991,16.65,8.85,40.5,,0.0014009999999999856,1.9342931318701415,1.8835862291909764,lateral_fall
3.258532,1.612,0.9264,-0.5336,-0.1194,0.6721,-0.0991,16.65,8.85,40.5,,0.016207000000000082,1.9342931318701415,1.6890269419945994,lateral_fall
3.260079,0.9953,0.9001,-0.5067,-0.1194,0.6721,-0.0991,16.65,8.85,40.5,,0.001546999999999965,1.434415208368902,1.5111451832826024,lateral_fall
3.272333,0.9953,0.9001,-0.5067,0.0215,0.3436,-0.0536,16.65,8.85,40.5,,0.012253999999999987,1.434415208368902,1.352246055400615,lateral_fall
3.281653,0.9953,0.9001,-0.5067,0.0215,0.3436,-0.0536,16.65,8.85,40.5,,0.009319999999999773,1.434415208368902,1.2137553981173923,lateral_fall
3.283378,0.5595,0.5325,-0.9243,0.0215,0.3436,-0.0536,16.65,8.85,40.5,,0.0017249999999999766,1.2045443080268987,1.0963020045394198,lateral_fall
3.292299,0.5595,0.5325,-0.9243,0.0215,0.3436,-0.0536,16.65,8.85,40.5,,0.008920999999999957,1.2045443080268987,0.9998192064649549,lateral_fall
3.294278,0.5052,0.5,-0.9472,0.0215,0.3436,-0.0536,16.65,8.85,40.5,,0.001978999999999953,1.1842359899952375,0.9236548232589158,lateral_fall
3.310205,0.5052,0.5,-0.9472,0.0215,0.3436,-0.0536,14.85,8.925,41.25,,0.015927000000000024,1.1842359899952375,0.8666801686389382,lateral_fall
3.313462,0.5052,0.5,-0.9472,0.0215,0.3436,-0.0536,14.85,8.925,41.25,,0.0032570000000000654,1.1842359899952375,0.827390979470001,lateral_fall
3.314783,0.4962,0.507,-0.41,0.0215,0.3436,-0.0536,14.85,8.925,41.25,,0.0013209999999999056,0.8193677074427573,0.8039957979513562,lateral_fall
3.336066,0.4962,0.507,-0.41,0.0215,0.3436,-0.0536,14.85,8.925,41.25,,0.021283000000000385,0.8193677074427573,0.7944904545453209,lateral_fall
3.338587,0.1479,0.4029,-0.3103,0.0215,0.3436,-0.0536,14.85,8.925,41.25,,0.0025209999999997734,0.5296120372499099,0.7967204887340952,lateral_fall
3.34045,0.1479,0.4029,-0.3103,0.0539,0.3732,-0.4184,14.85,8.925,41.25,,0.00186300000000017,0.5296120372499099,0.8084358843909651,lateral_fall
3.355497,0.1479,0.4029,-0.3103,0.0539,0.3732,-0.4184,14.85,8.925,41.25,,0.015047000000000033,0.5296120372499099,0.8273436743240584,lateral_fall
3.357284,-0.3051,0.3257,-0.4753,0.0539,0.3732,-0.4184,14.85,8.925,41.25,,0.001786999999999761,0.6519789797225061,0.8511634724753327,lateral_fall
3.374782,-0.3051,0.3257,-0.4753,0.0539,0.3732,-0.4184,14.85,8.925,41.25,,0.017498000000000236,0.6519789797225061,0.8776890245796749,lateral_fall
3.376965,-0.6262,0.0356,-0.7779,0.0539,0.3732,-0.4184,14.85,8.925,41.25,,0.002183000000000046,0.9992608318151973,0.9048560136084989,lateral_fall
3.381995,-0.6262,0.0356,-0.7779,0.0539,0.3732,-0.4184,13.8,8.85,41.625,,0.005029999999999646,0.9992608318151973,0.9308133468189572,lateral_fall
3.395271,-0.6262,0.0356,-0.7779,0.0539,0.3732,-0.4184,13.8,8.85,41.625,,0.013276000000000288,0.9992608318151973,0.9539926617674365,lateral_fall
3.397493,-0.7949,-0.3074,-0.9738,0.0539,0.3732,-0.4184,13.8,8.85,41.625,,0.002221999999999724,1.2940816087094353,0.9731692980169839,lateral_fall
3.41383,-0.7949,-0.3074,-0.9738,-0.0767,0.3436,-0.4598,13.8,8.85,41.625,,0.016337000000000046,1.2940816087094353,0.9875076674677441,lateral_fall
3.415903,-0.7949,-0.3074,-0.9738,-0.0767,0.3436,-0.4598,13.8,8.85,41.625,,0.0020730000000002136,1.2940816087094353,0.9965847607053647,lateral_fall
3.417388,-0.842,-0.487,-0.7129,-0.0767,0.3436,-0.4598,13.8,8.85,41.625,,0.0014849999999997365,1.2059682458506111,1.0003873603159108,lateral_fall
3.43426,-0.842,-0.487,-0.7129,-0.0767,0.3436,-0.4598,13.8,8.85,41.625,,0.01687200000000022,1.2059682458506111,0.9992812636425341,lateral_fall
3.437972,-0.2819,-0.7421,-0.2975,-0.0767,0.3436,-0.4598,13.8,8.85,41.625,,0.0037119999999997155,0.8477536611539934,0.9939540709119694,lateral_fall
3.450334,-0.2819,-0.7421,-0.2975,-0.0767,0.3436,-0.4598,13.8,8.85,41.625,,0.012361999999999984,0.8477536611539934,0.9853362552648439,lateral_fall
3.454067,-0.0889,-0.7946,-0.2685,-0.0767,0.3436,-0.4598,13.8,8.85,41.625,,0.0037330000000004304,0.8434361979426779,0.9745076487880875,lateral_fall
3.456345,-0.0889,-0.7946,-0.2685,-0.0767,0.3436,-0.4598,12.15,9.675,41.85,,0.002277999999999558,0.8434361979426779,0.9625976689174027,lateral_fall
3.479174,-0.0889,-0.7946,-0.2685,-0.0767,0.3436,-0.4598,12.15,9.675,41.85,,0.02282900000000021,0.8434361979426779,0.9506874773784535,lateral_fall
3.483056,-0.248,-0.7819,-0.0067,-0.0767,0.3436,-0.4598,12.15,9.675,41.85,,0.003881999999999941,0.8203148785679801,0.9397211799568406,lateral_fall
3.485882,-0.248,-0.7819,-0.0067,-0.3196,0.2187,-0.3573,12.15,9.675,41.85,,0.0028260000000002172,0.8203148785679801,0.9304316870687673,lateral_fall
3.497356,-0.248,-0.7819,-0.0067,-0.3196,0.2187,-0.3573,12.15,9.675,41.85,,0.011473999999999762,0.8203148785679801,0.9232853182177861,lateral_fall
3.500454,-0.2588,-0.7679,0.339,-0.3196,0.2187,-0.3573,12.15,9.675,41.85,,0.003098000000000045,0.8783899191133742,0.9184477512996945,lateral_fall
3.512564,-0.2588,-0.7679,0.339,-0.3196,0.2187,-0.3573,12.15,9.675,41.85,,0.012109999999999843,0.8783899191133742,0.9157725072091987,lateral_fall
3.51474,0.0538,-0.7934,0.1712,-0.3196,0.2187,-0.3573,12.15,9.675,41.85,,0.0021760000000004,0.8134417250178405,0.9148118755174597,lateral_fall
3.520362,0.0538,-0.7934,0.1712,-0.3196,0.2187,-0.3573,11.7,9.225,41.7,,0.005621999999999794,0.8134417250178405,0.9148490953953899,lateral_fall
3.536166,0.0538,-0.7934,0.1712,-0.3196,0.2187,-0.3573,11.7,9.225,41.7,,0.01580400000000015,0.8134417250178405,0.9149496806955708,lateral_fall
3.538162,-0.001,-0.9108,-0.0433,-0.3196,0.2187,-0.3573,11.7,9.225,41.7,,0.0019959999999996647,0.9118292219489349,0.9140288771104199,lateral_fall
3.550948,-0.001,-0.9108,-0.0433,-0.2347,-0.0408,-0.2366,11.7,9.225,41.7,,0.012786000000000186,0.9118292219489349,0.9109312531524189,lateral_fall
3.561388,-0.001,-0.9108,-0.0433,-0.2347,-0.0408,-0.2366,11.7,9.225,41.7,,0.010440000000000005,0.9118292219489349,0.9045174308414285,lateral_fall
3.563556,-0.3491,-0.945,0.1347,-0.2347,-0.0408,-0.2366,11.7,9.225,41.7,,0.00216800000000017,1.016385704346534,0.8937521704192362,lateral_fall
3.57747,-0.3491,-0.945,0.1347,-0.2347,-0.0408,-0.2366,11.7,9.225,41.7,,0.01391399999999976,1.016385704346534,0.8777876170553488,lateral_fall
3.579682,-0.3631,-0.9106,0.0742,-0.2347,-0.0408,-0.2366,11.7,9.225,41.7,,0.0022120000000001028,0.983127463760422,0.8560355805142005,lateral_fall
3.590803,-0.3631,-0.9106,0.0742,-0.2347,-0.0408,-0.2366,11.025,8.325,41.25,,0.011121000000000159,0.983127463760422,0.8282232923798262,lateral_fall
3.593608,-0.3631,-0.9106,0.0742,-0.2347,-0.0408,-0.2366,11.025,8.325,41.25,,0.0028049999999999464,0.983127463760422,0.7944281645907879,lateral_fall
3.595262,-0.4775,-0.7009,-0.0621,-0.2347,-0.0408,-0.2366,11.025,8.325,41.25,,0.0016539999999998223,0.8503666679732925,0.7550885604981838,lateral_fall
3.612902,-0.4775,-0.7009,-0.0621,-0.2347,-0.0408,-0.2366,11.025,8.325,41.25,,0.0176400000000001,0.8503666679732925,0.7109893349704984,lateral_fall
3.615297,-0.4521,-0.5359,0.0437,-0.2347,-0.0408,-0.2366,11.025,8.325,41.25,,0.002394999999999925,0.7024905052739148,0.6632227554462782,lateral_fall
3.627402,-0.4521,-0.5359,0.0437,-0.1274,-0.2401,-0.1173,11.025,8.325,41.25,,0.012105000000000032,0.7024905052739148,0.6131272261690015,lateral_fall
3.633947,-0.4521,-0.5359,0.0437,-0.1274,-0.2401,-0.1173,11.025,8.325,41.25,,0.006545000000000023,0.7024905052739148,0.5622078574374705,lateral_fall
3.635483,-0.1378,-0.3262,-0.0036,-0.1274,-0.2401,-0.1173,11.025,8.325,41.25,,0.0015359999999997598,0.35413025852078783,0.512044287979068,lateral_fall
3.653693,-0.1378,-0.3262,-0.0036,-0.1274,-0.2401,-0.1173,11.025,8.325,41.25,,0.01821000000000028,0.35413025852078783,0.46419228745073043,lateral_fall
3.655927,-0.0962,-0.1871,-0.0889,-0.1274,-0.2401,-0.1173,11.025,8.325,41.25,,0.0022340000000000693,0.22839452707978794,0.4200864472284882,lateral_fall
3.66335,-0.0962,-0.1871,-0.0889,-0.1274,-0.2401,-0.1173,10.95,7.875,41.325,,0.007422999999999735,0.22839452707978794,0.3809514432652979,lateral_fall
3.675345,-0.0962,-0.1871,-0.0889,-0.1274,-0.2401,-0.1173,10.95,7.875,41.325,,0.0119950000000002,0.22839452707978794,0.3477287011017782,lateral_fall
3.677609,-0.1057,-0.0391,0.0118,-0.1274,-0.2401,-0.1173,10.95,7.875,41.325,,0.0022639999999998217,0.1133161065338904,0.3210238955963207,lateral_fall
3.687703,-0.1057,-0.0391,0.0118,-0.0867,-0.2921,0.0002,10.95,7.875,41.325,,0.010094000000000047,0.1133161065338904,0.30107889710786573,lateral_fall
3.696698,-0.1057,-0.0391,0.0118,-0.0867,-0.2921,0.0002,10.95,7.875,41.325,,0.008995000000000086,0.1133161065338904,0.28776979213283943,non_fall
3.698543,0.0023,0.0286,0.2611,-0.0867,-0.2921,0.0002,10.95,7.875,41.325,,0.0018449999999998745,0.2626717723700055,0.28063053236866564,non_fall
3.712011,0.0023,0.0286,0.2611,-0.0867,-0.2921,0.0002,10.95,7.875,41.325,,0.013468000000000035,0.2626717723700055,0.27889963771929965,non_fall
3.713451,-0.1295,0.3732,0.1757,-0.0867,-0.2921,0.0002,10.95,7.875,41.325,,0.0014400000000001079,0.4323412772336224,0.2815853957109592,non_fall
3.729957,-0.1295,0.3732,0.1757,-0.0867,-0.2921,0.0002,11.925,7.65,41.7,,0.01650600000000013,0.4323412772336224,0.2875435162965004,non_fall
3.731989,-0.1295,0.3732,0.1757,-0.0867,-0.2921,0.0002,11.925,7.65,41.7,,0.0020319999999998117,0.4323412772336224,0.2955605301728422,non_fall
3.733085,-0.0855,0.402,0.0237,-0.0867,-0.2921,0.0002,11.925,7.65,41.7,,0.0010959999999999859,0.4116745559298024,0.30443646609404124,non_fall
3.751368,-0.0855,0.402,0.0237,-0.0867,-0.2921,0.0002,11.925,7.65,41.7,,0.018282999999999827,0.4116745559298024,0.31306136225410347,non_fall
3.753589,0.163,0.1754,-0.1589,-0.0867,-0.2921,0.0002,11.925,7.65,41.7,,0.0022210000000000285,0.28737322422243866,0.32048162363856403,non_fall
3.760783,0.163,0.1754,-0.1589,-0.0883,-0.3267,0.0295,11.925,7.65,41.7,,0.007194000000000145,0.28737322422243866,0.32595374371549185,non_fall
3.77602,0.163,0.1754,-0.1589,-0.0883,-0.3267,0.0295,11.925,7.65,41.7,,0.015236999999999945,0.28737322422243866,0.3289841379312423,non_fall
3.778196,0.2251,0.28,-0.0716,-0.0883,-0.3267,0.0295,11.925,7.65,41.7,,0.0021759999999999557,0.3663285001197696,0.32935457511260763,non_fall
3.796152,0.2251,0.28,-0.0716,-0.0883,-0.3267,0.0295,11.925,7.65,41.7,,0.017956000000000305,0.3663285001197696,0.3271329150027233,non_fall
3.798603,0.2206,0.3649,0.1531,-0.0883,-0.3267,0.0295,11.925,7.65,41.7,,0.002450999999999759,0.45305185133712894,0.322668777912405,non_fall
3.800486,0.2206,0.3649,0.1531,-0.0883,-0.3267,0.0295,13.2,6.825,41.7,,0.001882999999999857,0.45305185133712894,0.31657373475138645,non_fall
3.814649,0.2206,0.3649,0.1531,-0.0883,-0.3267,0.0295,13.2,6.825,41.7,,0.01416300000000037,0.45305185133712894,0.3096859094096146,non_fall
3.817764,0.0442,0.2859,0.1032,-0.0883,-0.3267,0.0295,13.2,6.825,41.7,,0.003114999999999757,0.30715255167424543,0.3030196621936217,non_fall
3.829695,0.0442,0.2859,0.1032,-0.1413,-0.3818,-0.0727,13.2,6.825,41.7,,0.011931000000000136,0.30715255167424543,0.2977022037382652,non_fall
3.834438,0.0442,0.2859,0.1032,-0.1413,-0.3818,-0.0727,13.2,6.825,41.7,,0.004742999999999942,0.30715255167424543,0.29490030679493245,non_fall
3.835972,0.0124,0.224,-0.0394,-0.1413,-0.3818,-0.0727,13.2,6.825,41.7,,0.0015339999999999243,0.2277764693729359,0.29574139026644547,non_fall
3.854423,0.0124,0.224,-0.0394,-0.1413,-0.3818,-0.0727,13.2,6.825,41.7,,0.018451000000000217,0.2277764693729359,0.3012339216721146,non_fall
3.85722,-0.1121,0.2443,0.0526,-0.1413,-0.3818,-0.0727,13.2,6.825,41.7,,0.0027969999999997164,0.2738898683777843,0.3121922979140451,non_fall
3.865499,-0.1121,0.2443,0.0526,-0.1413,-0.3818,-0.0727,13.95,6.75,41.625,,0.008278999999999925,0.2738898683777843,0.32917119280263,non_fall
3.874115,-0.1121,0.2443,0.0526,-0.1413,-0.3818,-0.0727,13.95,6.75,41.625,,0.008616000000000401,0.2738898683777843,0.3524138943326988,non_fall
3.876189,-0.0061,0.2037,0.0363,-0.1413,-0.3818,-0.0727,13.95,6.75,41.625,,0.0020739999999999092,0.20699900965946674,0.3818185055937294,non_fall
3.896238,-0.0061,0.2037,0.0363,-0.1413,-0.3818,-0.0727,13.95,6.75,41.625,,0.02004899999999976,0.20699900965946674,0.41692511085083905,non_fall
3.898316,0.0756,0.1894,0.3201,-0.1413,-0.3818,-0.0727,13.95,6.75,41.625,,0.0020780000000000243,0.3795414733596317,0.4569260286709697,non_fall
3.899658,0.0756,0.1894,0.3201,-0.1017,-0.3847,-0.1576,13.95,6.75,41.625,,0.0013420000000001764,0.3795414733596317,0.5006999415341976,non_fall
3.912666,0.0756,0.1894,0.3201,-0.1017,-0.3847,-0.1576,13.95,6.75,41.625,,0.01300800000000013,0.3795414733596317,0.5468690153107247,non_fall
3.91457,0.271,0.1472,0.6846,-0.1017,-0.3847,-0.1576,13.95,6.75,41.625,,0.0019039999999996837,0.7508568438790446,0.5938763237974841,non_fall
3.9328,0.271,0.1472,0.6846,-0.1017,-0.3847,-0.1576,13.95,6.75,41.625,,0.01822999999999997,0.7508568438790446,0.6400792556875203,non_fall
3.936084,0.1049,0.1435,-0.3757,-0.1017,-0.3847,-0.1576,13.95,6.75,41.625,,0.0032840000000002867,0.4156281390858901,0.6838533586844657,non_fall
3.938156,0.1049,0.1435,-0.3757,-0.1017,-0.3847,-0.1576,16.125,6.75,41.4,,0.0020720000000000738,0.4156281390858901,0.723700423429823,non_fall
3.952322,0.1049,0.1435,-0.3757,-0.1017,-0.3847,-0.1576,16.125,6.75,41.4,,0.014165999999999901,0.4156281390858901,0.7583542750541546,non_fall
3.954757,-0.3509,0.2156,-1.5889,-0.1017,-0.3847,-0.1576,16.125,6.75,41.4,,0.002434999999999743,1.6414071341382674,0.78687700634345,non_fall
3.966682,-0.3509,0.2156,-1.5889,0.0673,-0.2613,-0.1416,16.125,6.75,41.4,,0.011925000000000185,1.6414071341382674,0.8087369500180862,non_fall
3.970974,-0.3509,0.2156,-1.5889,0.0673,-0.2613,-0.1416,16.125,6.75,41.4,,0.0042919999999999625,1.6414071341382674,0.8238586815235561,non_fall
3.972257,-0.4736,0.2695,-0.4272,0.0673,-0.2613,-0.1416,16.125,6.75,41.4,,0.001282999999999923,0.6924067085174724,0.8326368322008785,non_fall
3.991161,-0.4736,0.2695,-0.4272,0.0673,-0.2613,-0.1416,16.125,6.75,41.4,,0.018904000000000032,0.6924067085174724,0.8359103889719035,non_fall
3.993467,0.1171,0.4291,0.4139,0.0673,-0.2613,-0.1416,16.125,6.75,41.4,,0.0023059999999999192,0.6075791553369816,0.8349008512227274,non_fall
4.00156,0.1171,0.4291,0.4139,0.0673,-0.2613,-0.1416,16.65,6.975,40.95,,0.008092999999999684,0.6075791553369816,0.8311231400939844,non_fall
4.014196,0.1171,0.4291,0.4139,0.0673,-0.2613,-0.1416,16.65,6.975,40.95,,0.012636000000000536,0.6075791553369816,0.8262806163394012,non_fall
4.016197,0.1309,0.4946,0.5998,0.0673,-0.2613,-0.1416,16.65,6.975,40.95,,0.0020009999999999195,0.7883679407484806,0.8221551509719714,non_fall
4.035485,0.1309,0.4946,0.5998,0.0673,-0.2613,-0.1416,16.65,6.975,40.95,,0.019288000000000416,0.7883679407484806,0.8205012264804767,non_fall
4.037743,0.0035,-0.5019,-0.1077,0.0673,-0.2613,-0.1416,16.65,6.975,40.95,,0.002257999999999427,0.5133372673009432,0.8229507303183625,non_fall
4.039682,0.0035,-0.5019,-0.1077,0.1833,-0.3441,-0.2091,16.65,6.975,40.95,,0.001939000000000135,0.5133372673009432,0.8309330551472348,non_fall
4.055295,0.0035,-0.5019,-0.1077,0.1833,-0.3441,-0.2091,16.65,6.975,40.95,,0.015613000000000099,0.5133372673009432,0.8456133169550342,non_fall
4.057671,0.1419,-0.478,1.0496,0.1833,-0.3441,-0.2091,16.65,6.975,40.95,,0.0023759999999999337,1.16201539146433,0.8678494644878569,non_fall
4.074872,0.1419,-0.478,1.0496,0.1833,-0.3441,-0.2091,16.65,6.975,40.95,,0.017201000000000022,1.16201539146433,0.8981665178603295,non_fall
4.078079,0.2676,-0.3825,1.3472,0.1833,-0.3441,-0.2091,16.65,6.975,40.95,,0.003206999999999738,1.4257853449941194,0.9367437450040094,non_fall
4.080276,0.2676,-0.3825,1.3472,0.1833,-0.3441,-0.2091,18.15,7.95,40.5,,0.0021969999999997825,1.4257853449941194,0.9834094984223833,non_fall
4.093758,0.2676,-0.3825,1.3472,0.1833,-0.3441,-0.2091,18.15,7.95,40.5,,0.01348200000000066,1.4257853449941194,1.0376395802010938,non_fall
4.09707,0.4502,-0.1299,0.0952,0.1833,-0.3441,-0.2091,18.15,7.95,40.5,,0.0033120000000002037,0.4781391952141133,1.0985582458105152,non_fall
4.108644,0.4502,-0.1299,0.0952,0.2727,-0.4737,-0.2335,18.15,7.95,40.5,,0.011573999999999529,0.4781391952141133,1.1649451576574261,non_fall
4.113688,0.4502,-0.1299,0.0952,0.2727,-0.4737,-0.2335,18.15,7.95,40.5,,0.005043999999999826,0.4781391952141133,1.2352548832132637,non_fall
4.114966,-0.1147,0.451,-1.1206,0.2727,-0.4737,-0.2335,18.15,7.95,40.5,,0.0012780000000001124,1.2133842960908963,1.3076559271704011,non_fall
4.132804,-0.1147,0.451,-1.1206,0.2727,-0.4737,-0.2335,18.15,7.95,40.5,,0.017838000000000243,1.2133842960908963,1.3800930113130683,non_fall
4.134435,-0.94,1.4497,-0.9569,0.2727,-0.4737,-0.2335,18.15,7.95,40.5,,0.001630999999999716,1.9750665052093814,1.450370644252945,non_fall
4.145332,-0.94,1.4497,-0.9569,0.2727,-0.4737,-0.2335,19.35,8.55,40.05,,0.010896999999999935,1.9750665052093814,1.5162505110009286,non_fall
4.152245,-0.94,1.4497,-0.9569,0.2727,-0.4737,-0.2335,19.35,8.55,40.05,,0.006912999999999947,1.9750665052093814,1.5755520529474947,non_fall
4.153876,-0.1483,1.7613,-0.3971,0.2727,-0.4737,-0.2335,19.35,8.55,40.05,,0.0016310000000006042,1.8115901826848146,1.6262456760399828,non_fall
4.172764,-0.1483,1.7613,-0.3971,0.2727,-0.4737,-0.2335,19.35,8.55,40.05,,0.018887999999999572,1.8115901826848146,1.666530842378134,non_fall
4.176627,0.9418,1.4657,0.3555,0.2727,-0.4737,-0.2335,19.35,8.55,40.05,,0.00386299999999995,1.778101228839348,1.694895494230226,non_fall
4.178389,0.9418,1.4657,0.3555,-0.4658,-0.5966,-0.0336,19.35,8.55,40.05,,0.0017620000000002634,1.778101228839348,1.7101573520916082,non_fall
4.194799,0.9418,1.4657,0.3555,-0.4658,-0.5966,-0.0336,19.35,8.55,40.05,,0.01640999999999959,1.778101228839348,1.7114907833423085,non_fall
4.196656,0.004,0.778,0.1343,-0.4658,-0.5966,-0.0336,19.35,8.55,40.05,,0.0018570000000002196,0.7895166179378367,1.6984450368169939,non_fall
4.211615,0.004,0.778,0.1343,-0.4658,-0.5966,-0.0336,19.35,8.55,40.05,,0.014959000000000167,0.7895166179378367,1.6709606510341808,non_fall
4.214556,-1.1998,0.8534,-0.3353,-0.4658,-0.5966,-0.0336,19.35,8.55,40.05,,0.0029409999999998604,1.5100455920269427,1.6293901692947952,non_fall
4.216844,-1.1998,0.8534,-0.3353,-0.4658,-0.5966,-0.0336,19.65,7.95,39.3,,0.0022880000000000678,1.5100455920269427,1.5745260816690898,non_fall
4.23084,-1.1998,0.8534,-0.3353,-0.4658,-0.5966,-0.0336,19.65,7.95,39.3,,0.013995999999999675,1.5100455920269427,1.5076334105099953,non_fall
4.23338,-1.1797,1.0984,1.2376,-0.4658,-0.5966,-0.0336,19.65,7.95,39.3,,0.002540000000000653,2.032197925892062,1.4304784749157924,non_fall
4.245474,-1.1797,1.0984,1.2376,-0.6835,-0.4528,-0.2987,19.65,7.95,39.3,,0.012093999999999383,2.032197925892062,1.3453413512669583,non_fall
4.249733,-1.1797,1.0984,1.2376,-0.6835,-0.4528,-0.2987,19.65,7.95,39.3,,0.004259000000000235,2.032197925892062,1.2549985585802632,non_fall
4.250944,-1.1052,0.9277,0.6933,-0.6835,-0.4528,-0.2987,19.65,7.95,39.3,,0.001210999999999629,1.6008620240358005,1.1626647327155768,non_fall
4.275298,-1.1052,0.9277,0.6933,-0.6835,-0.4528,-0.2987,19.65,7.95,39.3,,0.024354000000000653,1.6008620240358005,1.0718871817900975,non_fall
4.279118,-0.1941,0.0154,-0.7471,-0.6835,-0.4528,-0.2987,19.65,7.95,39.3,,0.0038200000000001566,0.7720559435688582,0.986394245015792,non_fall
4.284895,-0.1941,0.0154,-0.7471,-0.6835,-0.4528,-0.2987,20.925,6.45,39.3,,0.005776999999999255,0.7720559435688582,0.909905713613851,non_fall
4.294757,-0.1941,0.0154,-0.7471,-0.6835,-0.4528,-0.2987,20.925,6.45,39.3,,0.009862000000000037,0.7720559435688582,0.8459195889010419,non_fall
4.296791,-0.2505,-0.3583,0.0648,-0.6835,-0.4528,-0.2987,20.925,6.45,39.3,,0.0020340000000000913,0.44195947778048605,0.7974930726027231,non_fall
4.312261,-0.2505,-0.3583,0.0648,-0.6835,-0.4528,-0.2987,20.925,6.45,39.3,,0.015470000000000539,0.44195947778048605,0.7670367231217231,non_fall
4.314302,-0.1345,0.1232,0.1597,-0.6835,-0.4528,-0.2987,20.925,6.45,39.3,,0.0020409999999992934,0.24243056737961077,0.7561397262468226,non_fall
4.318828,-0.1345,0.1232,0.1597,-0.7217,-0.5583,-0.4991,20.925,6.45,39.3,,0.004526000000000252,0.24243056737961077,0.7654418426262283,non_fall
4.333448,-0.1345,0.1232,0.1597,-0.7217,-0.5583,-0.4991,20.925,6.45,39.3,,0.014619999999999855,0.24243056737961077,0.7945640353194988,non_fall
4.336379,-0.0524,0.465,0.3789,-0.7217,-0.5583,-0.4991,20.925,6.45,39.3,,0.002931000000000239,0.6021095996577368,0.8421050888234469,non_fall
4.353311,-0.0524,0.465,0.3789,-0.7217,-0.5583,-0.4991,20.925,6.45,39.3,,0.016931999999999725,0.6021095996577368,0.905705956700199,non_fall
4.355942,-0.2757,0.5772,0.8476,-0.7217,-0.5583,-0.4991,20.925,6.45,39.3,,0.00263100000000005,1.061883275129616,0.9821777231196027,non_fall
4.357613,-0.2757,0.5772,0.8476,-0.7217,-0.5583,-0.4991,23.25,5.025,39.45,,0.001670999999999978,1.061883275129616,1.0676837502292897,non_fall
4.37409,-0.2757,0.5772,0.8476,-0.7217,-0.5583,-0.4991,23.25,5.025,39.45,,0.016477000000000075,1.061883275129616,1.1579625099606132,non_fall
4.377524,-0.7942,0.898,1.1475,-0.7217,-0.5583,-0.4991,23.25,5.025,39.45,,0.003434000000000381,1.6594920578297445,1.2485750612045663,non_fall
4.392436,-0.7942,0.898,1.1475,-0.8054,-0.6377,-0.6163,23.25,5.025,39.45,,0.014911999999999814,1.6594920578297445,1.3351600123855578,non_fall
4.396859,-0.7942,0.898,1.1475,-0.8054,-0.6377,-0.6163,23.25,5.025,39.45,,0.004423000000000066,1.6594920578297445,1.4136789116740005,non_fall
4.400676,-1.236,0.8961,0.8024,-0.8054,-0.6377,-0.6163,23.25,5.025,39.45,,0.0038169999999997373,1.7246846001515754,1.4806363438617336,non_fall
4.41297,-1.236,0.8961,0.8024,-0.8054,-0.6377,-0.6163,23.25,5.025,39.45,,0.012293999999999805,1.7246846001515754,1.533261542568048,non_fall
4.41758,-1.5578,0.8681,0.6593,-0.8054,-0.6377,-0.6163,23.25,5.025,39.45,,0.004610000000000447,1.9013192630381675,1.5696415926329719,non_fall
4.422006,-1.5578,0.8681,0.6593,-0.8054,-0.6377,-0.6163,24.45,3.975,38.925,,0.004425999999999597,1.9013192630381675,1.5887996920396177,non_fall
4.432152,-1.5578,0.8681,0.6593,-0.8054,-0.6377,-0.6163,24.45,3.975,38.925,,0.010146000000000654,1.9013192630381675,1.5907152297969775,non_fall
4.434465,-1.5923,0.7874,-0.6176,-0.8054,-0.6377,-0.6163,24.45,3.975,38.925,,0.0023130000000000095,1.880650900619251,1.5762857796082417,non_fall
4.450456,-1.5923,0.7874,-0.6176,-0.8054,-0.6377,-0.6163,24.45,3.975,38.925,,0.015990999999999644,1.880650900619251,1.5472346997676851,non_fall
4.453084,-0.994,0.5546,-0.6704,-0.8054,-0.6377,-0.6163,24.45,3.975,38.925,,0.0026279999999996306,1.3210046631257588,1.5059718386483043,non_fall
4.457678,-0.994,0.5546,-0.6704,-0.6626,-0.9176,-0.5994,24.45,3.975,38.925,,0.004593999999999987,1.3210046631257588,1.4554185875090038,non_fall
4.470244,-0.994,0.5546,-0.6704,-0.6626,-0.9176,-0.5994,24.45,3.975,38.925,,0.012566000000000521,1.3210046631257588,1.398811644683185,non_fall
4.472344,-0.4702,0.5067,0.1711,-0.6626,-0.9176,-0.5994,24.45,3.975,38.925,,0.0020999999999995467,0.7121152575250723,1.3395016767859618,non_fall
4.490275,-0.4702,0.5067,0.1711,-0.6626,-0.9176,-0.5994,24.45,3.975,38.925,,0.01793099999999992,0.7121152575250723,1.2807631497990049,non_fall
4.493328,-0.478,0.4384,0.4847,-0.6626,-0.9176,-0.5994,24.45,3.975,38.925,,0.0030530000000004165,0.8096991107812828,1.2256298793054456,non_fall
4.494826,-0.478,0.4384,0.4847,-0.6626,-0.9176,-0.5994,26.85,3.75,37.65,,0.0014979999999997773,0.8096991107812828,1.176767363031634,non_fall
4.509933,-0.478,0.4384,0.4847,-0.6626,-0.9176,-0.5994,26.85,3.75,37.65,,0.015107000000000426,0.8096991107812828,1.1363879769026344,non_fall
4.51191,-0.9351,0.5011,0.8875,-0.6626,-0.9176,-0.5994,26.85,3.75,37.65,,0.0019770000000001176,1.383173694804814,1.1062094186768083,non_fall
4.526842,-0.9351,0.5011,0.8875,-0.8014,-1.0504,-0.7648,26.85,3.75,37.65,,0.014931999999999945,1.383173694804814,1.087451475398463,non_fall
4.530556,-0.9351,0.5011,0.8875,-0.8014,-1.0504,-0.7648,26.85,3.75,37.65,,0.003713999999999551,1.383173694804814,1.0808623086756226,non_fall
4.531377,-0.4482,0.8958,-0.4496,-0.8014,-1.0504,-0.7648,26.85,3.75,37.65,,0.0008210000000001827,1.0979440058582222,1.0867637555365353,non_fall
4.54884,-0.4482,0.8958,-0.4496,-0.8014,-1.0504,-0.7648,26.85,3.75,37.65,,0.01746300000000023,1.0979440058582222,1.1051057421391393,non_fall
4.549911,-0.5672,0.942,-0.78,-0.8014,-1.0504,-0.7648,26.85,3.75,37.65,,0.0010709999999996,1.3481393993204116,1.1355219568935708,non_fall
4.560924,-0.5672,0.942,-0.78,-0.8014,-1.0504,-0.7648,29.4,2.025,35.925,,0.011013000000000162,1.3481393993204116,1.1773811625592034,non_fall
4.575226,-0.5672,0.942,-0.78,-0.8014,-1.0504,-0.7648,29.4,2.025,35.925,,0.014301999999999815,1.3481393993204116,1.2298302675543646,non_fall
4.576209,-0.6161,1.0864,-0.0556,-0.8014,-1.0504,-0.7648,29.4,2.025,35.925,,0.0009830000000006223,1.2501741998617633,1.291826713651812,non_fall
4.595306,-0.6161,1.0864,-0.0556,-0.8014,-1.0504,-0.7648,29.4,2.025,35.925,,0.019096999999999476,1.2501741998617633,1.3621592297251457,non_fall
4.596975,-0.5904,1.2893,-1.1608,-0.8014,-1.0504,-0.7648,29.4,2.025,35.925,,0.0016689999999996985,1.8325728607616123,1.4394574472336803,non_fall
4.598558,-0.5904,1.2893,-1.1608,-1.029,-0.8404,-0.8355,29.4,2.025,35.925,,0.001583000000000112,1.8325728607616123,1.522191956807188,non_fall
4.613937,-0.5904,1.2893,-1.1608,-1.029,-0.8404,-0.8355,29.4,2.025,35.925,,0.015379000000000254,1.8325728607616123,1.608667264040638,non_fall
4.615532,-0.2216,1.1374,-1.0333,-1.029,-0.8404,-0.8355,29.4,2.025,35.925,,0.001595000000000013,1.55257663578968,1.6970114521521842,non_fall
4.632898,-0.2216,1.1374,-1.0333,-1.029,-0.8404,-0.8355,29.4,2.025,35.925,,0.017365999999999993,1.55257663578968,1.7851685256868457,non_fall
4.634732,0.3628,1.1744,0.0466,-1.029,-0.8404,-0.8355,29.4,2.025,35.925,,0.0018339999999996692,1.230045023566211,1.8709017216949693,non_fall
4.636191,0.3628,1.1744,0.0466,-1.029,-0.8404,-0.8355,31.725,1.575,34.725,,0.0014590000000005432,1.230045023566211,1.9518172051692386,non_fall
4.652887,0.3628,1.1744,0.0466,-1.029,-0.8404,-0.8355,31.725,1.575,34.725,,0.0166959999999996,1.230045023566211,2.0254163996792522,non_fall
4.654357,1.1466,1.0802,1.5795,-1.029,-0.8404,-0.8355,31.725,1.575,34.725,,0.0014700000000003044,2.230772030038031,2.0891813385702322,non_fall
4.666818,1.1466,1.0802,1.5795,-1.2977,-0.5404,-0.895,31.725,1.575,34.725,,0.012461000000000055,2.230772030038031,2.1406913754960364,non_fall
4.669239,1.1466,1.0802,1.5795,-1.2977,-0.5404,-0.895,31.725,1.575,34.725,,0.0024210000000000065,2.230772030038031,2.177762930094269,non_fall
4.670376,2.2437,1.2161,0.6181,-1.2977,-0.5404,-0.895,31.725,1.575,34.725,,0.0011369999999999436,2.625859194625637,2.1985987231795674,non_fall
4.686927,2.2437,1.2161,0.6181,-1.2977,-0.5404,-0.895,31.725,1.575,34.725,,0.01655099999999976,2.625859194625637,2.2019304718917625,non_fall
4.690459,1.9386,1.3445,-1.0564,-1.2977,-0.5404,-0.895,31.725,1.575,34.725,,0.0035319999999998686,2.5849238228620974,2.1871392281128372,non_fall
4.701713,1.9386,1.3445,-1.0564,-1.2977,-0.5404,-0.895,33.9,-0.075,33.15,,0.011254000000000097,2.5849238228620974,2.1543397889543816,non_fall
4.71041,1.9386,1.3445,-1.0564,-1.2977,-0.5404,-0.895,33.9,-0.075,33.15,,0.008697000000000621,2.5849238228620974,2.1044193239521154,non_fall
4.712762,1.7436,0.823,0.063,-1.2977,-0.5404,-0.895,33.9,-0.075,33.15,,0.0023519999999992436,1.929103149134333,2.0390250502773624,non_fall
4.729582,1.7436,0.823,0.063,-1.2977,-0.5404,-0.895,33.9,-0.075,33.15,,0.016820000000000057,1.929103149134333,1.9605008081439044,non_fall
4.731687,1.8998,0.8494,0.2349,-1.2977,-0.5404,-0.895,33.9,-0.075,33.15,,0.0021050000000002456,2.0942536641963883,1.8717769528867934,non_fall
4.734172,1.8998,0.8494,0.2349,-1.2064,-0.16,-0.9546,33.9,-0.075,33.15,,0.0024850000000000705,2.0942536641963883,1.7762213584494602,non_fall
4.748888,1.8998,0.8494,0.2349,-1.2064,-0.16,-0.9546,33.9,-0.075,33.15,,0.014715999999999951,2.0942536641963883,1.6774614361124414,non_fall
4.750861,0.5339,-0.1861,-0.8673,-1.2064,-0.16,-0.9546,33.9,-0.075,33.15,,0.0019729999999995584,1.0353220320267507,1.579188722209978,non_fall
4.768594,0.5339,-0.1861,-0.8673,-1.2064,-0.16,-0.9546,33.9,-0.075,33.15,,0.017733000000000665,1.0353220320267507,1.4849595672149254,non_fall
4.770748,-0.0459,-0.8221,-0.1285,-1.2064,-0.16,-0.9546,33.9,-0.075,33.15,,0.0021539999999999893,0.8333471485521505,1.398007322648111,non_fall
4.772828,-0.0459,-0.8221,-0.1285,-1.2064,-0.16,-0.9546,34.5,-0.15,32.85,,0.0020799999999994156,0.8333471485521505,1.3210816616559826,non_fall
4.788383,-0.0459,-0.8221,-0.1285,-1.2064,-0.16,-0.9546,34.5,-0.15,32.85,,0.015554999999999986,0.8333471485521505,1.2563282068811013,non_fall
4.790708,-0.1068,-0.7338,0.7927,-1.2064,-0.16,-0.9546,34.5,-0.15,32.85,,0.0023250000000007987,1.0854685486000966,1.2052168398703629,non_fall
4.803011,-0.1068,-0.7338,0.7927,-1.5389,-0.4227,-1.0204,34.5,-0.15,32.85,,0.012302999999999287,1.0854685486000966,1.1685212597020667,non_fall
4.808016,-0.1068,-0.7338,0.7927,-1.5389,-0.4227,-1.0204,34.5,-0.15,32.85,,0.005005000000000592,1.0854685486000966,1.146346872382647,non_fall
4.809976,-0.5193,-0.2382,1.1946,-1.5389,-0.4227,-1.0204,34.5,-0.15,32.85,,0.0019599999999995177,1.324190654701958,1.1381997951643419,non_fall
4.833268,-0.5193,-0.2382,1.1946,-1.5389,-0.4227,-1.0204,34.5,-0.15,32.85,,0.023292000000000534,1.324190654701958,1.1430869992460362,non_fall
4.835688,-1.0571,0.8263,-0.5182,-1.5389,-0.4227,-1.0204,34.5,-0.15,32.85,,0.0024199999999998667,1.438319623727633,1.159636352924867,non_fall
4.844685,-1.0571,0.8263,-0.5182,-1.5389,-0.4227,-1.0204,35.55,-1.05,31.8,,0.008996999999999922,1.438319623727633,1.1862254185415884,non_fall
4.851672,-1.0571,0.8263,-0.5182,-1.5389,-0.4227,-1.0204,35.55,-1.05,31.8,,0.006986999999999632,1.438319623727633,1.22110915679597,non_fall
4.853873,-0.5625,0.8326,-0.3624,-1.5389,-0.4227,-1.0204,35.55,-1.05,31.8,,0.0022010000000003416,1.068158588412788,1.2625389259201965,non_fall
4.874138,-0.5625,0.8326,-0.3624,-1.5389,-0.4227,-1.0204,35.55,-1.05,31.8,,0.0202650000000002,1.068158588412788,1.3088677898589025,non_fall
4.879291,0.5701,0.7954,-0.854,-1.5389,-0.4227,-1.0204,35.55,-1.05,31.8,,0.005152999999999963,1.2988422421526027,1.3586393672793031,non_fall
4.881498,0.5701,0.7954,-0.854,-1.1218,-0.8949,-1.202,35.55,-1.05,31.8,,0.002206999999999404,1.2988422421526027,1.410658477394814,non_fall
4.895008,0.5701,0.7954,-0.854,-1.1218,-0.8949,-1.202,35.55,-1.05,31.8,,0.013510000000000133,1.2988422421526027,1.464041430439547,non_fall
4.897767,1.5849,0.1036,-1.7494,-1.1218,-0.8949,-1.202,35.55,-1.05,31.8,,0.002759000000000178,2.362846023337111,1.518242498859103,non_fall
4.91124,1.5849,0.1036,-1.7494,-1.1218,-0.8949,-1.202,35.55,-1.05,31.8,,0.01347300000000029,2.362846023337111,1.5730518859862248,non_fall
4.913744,1.6507,0.1918,-1.0213,-1.1218,-0.8949,-1.202,35.55,-1.05,31.8,,0.0025040000000000617,1.9505515681468153,1.6285605979342852,non_fall
4.915213,1.6507,0.1918,-1.0213,-1.1218,-0.8949,-1.202,37.05,-1.875,30.225,,0.0014689999999992764,1.9505515681468153,1.6850901485438143,non_fall
4.930345,1.6507,0.1918,-1.0213,-1.1218,-0.8949,-1.202,37.05,-1.875,30.225,,0.015132000000000367,1.9505515681468153,1.7430900918589347,non_fall
4.93252,1.3641,-0.1843,-0.3562,-1.1218,-0.8949,-1.202,37.05,-1.875,30.225,,0.00217500000000026,1.421834638767814,1.8030125454361259,non_fall
4.944659,1.3641,-0.1843,-0.3562,-1.9469,-0.2393,-1.32,37.05,-1.875,30.225,,0.012138999999999456,1.421834638767814,1.8651781601865338,non_fall
4.949692,1.3641,-0.1843,-0.3562,-1.9469,-0.2393,-1.32,37.05,-1.875,30.225,,0.005033000000000065,1.421834638767814,1.92965109365298,non_fall
4.95119,0.4115,-0.3502,0.9794,-1.9469,-0.2393,-1.32,37.05,-1.875,30.225,,0.0014980000000006655,1.11856901888082,1.9961408859545589,non_fall
4.969075,0.4115,-0.3502,0.9794,-1.9469,-0.2393,-1.32,37.05,-1.875,30.225,,0.017884999999999707,1.11856901888082,2.0639465813946782,non_fall
4.971079,-1.3419,0.1626,1.2062,-1.9469,-0.2393,-1.32,37.05,-1.875,30.225,,0.0020039999999994507,1.811643676333732,2.1319532035008595,non_fall
4.97962,-1.3419,0.1626,1.2062,-1.9469,-0.2393,-1.32,38.25,-1.35,28.8,,0.008541000000000132,1.811643676333732,2.198683329021146,non_fall
4.99092,-1.3419,0.1626,1.2062,-1.9469,-0.2393,-1.32,38.25,-1.35,28.8,,0.01130000000000031,1.811643676333732,2.2623980028859676,non_fall
4.99323,-2.9558,0.7025,-1.4593,-1.9469,-0.2393,-1.32,38.25,-1.35,28.8,,0.00230999999999959,3.3704326695544595,2.321233020848908,non_fall
5.012354,-2.9558,0.7025,-1.4593,-1.9469,-0.2393,-1.32,38.25,-1.35,28.8,,0.019124000000000585,3.3704326695544595,2.373350158583613,non_fall
5.014968,-3.3914,0.5287,-1.5707,-1.9469,-0.2393,-1.32,38.25,-1.35,28.8,,0.00261399999999945,3.774680932211357,2.41707965783938,non_fall
5.017024,-3.3914,0.5287,-1.5707,-1.8197,-0.337,-1.2959,38.25,-1.35,28.8,,0.002056000000000502,3.774680932211357,2.4510316871233364,non_fall
5.028134,-3.3914,0.5287,-1.5707,-1.8197,-0.337,-1.2959,38.25,-1.35,28.8,,0.01110999999999951,3.774680932211357,2.4741614533102654,non_fall
5.03034,-0.2925,0.5025,-0.1045,-1.8197,-0.337,-1.2959,38.25,-1.35,28.8,,0.0022060000000001523,0.5907476195466216,2.4857843111001645,non_fall
5.0485,-0.2925,0.5025,-0.1045,-1.8197,-0.337,-1.2959,38.25,-1.35,28.8,,0.018159999999999954,0.5907476195466216,2.485550663780707,non_fall
5.051009,1.4081,1.1313,1.2748,-1.8197,-0.337,-1.2959,38.25,-1.35,28.8,,0.0025089999999998724,2.2108144065027258,2.4734008619976504,non_fall
5.05268,1.4081,1.1313,1.2748,-1.8197,-0.337,-1.2959,39.9,-0.975,28.05,,0.001670999999999978,2.2108144065027258,2.4495228338349757,non_fall
5.062265,1.4081,1.1313,1.2748,-1.8197,-0.337,-1.2959,39.9,-0.975,28.05,,0.009585000000000399,2.2108144065027258,2.41432887451083,non_fall
5.064194,1.2136,1.5294,1.9307,-1.8197,-0.337,-1.2959,39.9,-0.975,28.05,,0.0019289999999996255,2.7458135060487994,2.3684574040172675,non_fall
5.081555,1.2136,1.5294,1.9307,-2.0827,-0.4447,-1.3242,39.9,-0.975,28.05,,0.017361000000000182,2.7458135060487994,2.312796456276418,non_fall
5.086343,1.2136,1.5294,1.9307,-2.0827,-0.4447,-1.3242,39.9,-0.975,28.05,,0.0047880000000004586,2.7458135060487994,2.248520917708831,non_fall
5.087822,0.0451,1.2893,1.0686,-2.0827,-0.4447,-1.3242,39.9,-0.975,28.05,,0.001478999999999786,1.6751819184793035,2.1771347710565174,non_fall
5.106229,0.0451,1.2893,1.0686,-2.0827,-0.4447,-1.3242,39.9,-0.975,28.05,,0.01840699999999984,1.6751819184793035,2.1005114981622275,non_fall
5.10984,0.8798,1.3525,-0.7039,-2.0827,-0.4447,-1.3242,39.9,-0.975,28.05,,0.003611000000000253,1.7603350533350177,2.020928472527679,non_fall
5.131886,0.8798,1.3525,-0.7039,-2.0827,-0.4447,-1.3242,41.25,-1.95,27.225,,0.022045999999999566,1.7603350533350177,1.941092442390578,non_fall
5.135026,0.8798,1.3525,-0.7039,-2.0827,-0.4447,-1.3242,41.25,-1.95,27.225,,0.0031400000000001427,1.7603350533350177,1.8641519581261843,non_fall
5.137133,2.1256,1.246,0.6127,-2.0827,-0.4447,-1.3242,41.25,-1.95,27.225,,0.002107000000000525,2.538915644522283,1.7936896139005938,non_fall
5.14999,2.1256,1.246,0.6127,-2.0827,-0.4447,-1.3242,41.25,-1.95,27.225,,0.012856999999999452,2.538915644522283,1.7336840838881271,non_fall
5.152596,1.9821,0.3372,1.0428,-2.0827,-0.4447,-1.3242,41.25,-1.95,27.225,,0.0026060000000001082,2.264918561449837,1.6884309063002372,non_fall
5.154964,1.9821,0.3372,1.0428,-2.0297,-0.5369,-1.4726,41.25,-1.95,27.225,,0.0023679999999997037,2.264918561449837,1.6624130074973809,non_fall
5.169866,1.9821,0.3372,1.0428,-2.0297,-0.5369,-1.4726,41.25,-1.95,27.225,,0.014902000000000193,2.264918561449837,1.6601172147092804,non_fall
5.172863,2.12,-0.1407,0.414,-2.0297,-0.5369,-1.4726,41.25,-1.95,27.225,,0.0029970000000005825,2.1646229440713225,1.6858003815776152,non_fall
5.189362,2.12,-0.1407,0.414,-2.0297,-0.5369,-1.4726,41.25,-1.95,27.225,,0.016498999999999597,2.1646229440713225,1.7432167382313235,non_fall
5.191969,0.9149,-0.1232,0.6196,-2.0297,-0.5369,-1.4726,41.25,-1.95,27.225,,0.002607000000000248,1.111811319424299,1.8353256941101148,non_fall
5.194065,0.9149,-0.1232,0.6196,-2.0297,-0.5369,-1.4726,43.35,-2.625,26.85,,0.0020959999999998757,1.111811319424299,1.9640058710294621,non_fall
5.204905,0.9149,-0.1232,0.6196,-2.0297,-0.5369,-1.4726,43.35,-2.625,26.85,,0.01083999999999996,1.111811319424299,2.12980539017655,non_fall
5.207057,-0.7563,-0.8069,0.8927,-2.0297,-0.5369,-1.4726,43.35,-2.625,26.85,,0.0021519999999997097,1.4212637299248863,2.331758696486237,non_fall
5.225111,-0.7563,-0.8069,0.8927,-1.8869,-0.6215,-1.4379,43.35,-2.625,26.85,,0.018054000000000237,1.4212637299248863,2.567295574922699,non_fall
5.227537,-0.7563,-0.8069,0.8927,-1.8869,-0.6215,-1.4379,43.35,-2.625,26.85,,0.002425999999999817,1.4212637299248863,2.8322591888267925,non_fall
5.22885,-2.2947,-0.8356,-0.0368,-1.8869,-0.6215,-1.4379,43.35,-2.625,26.85,,0.0013130000000005637,2.4423819705361405,3.1210384832275766,non_fall
5.245678,-2.2947,-0.8356,-0.0368,-1.8869,-0.6215,-1.4379,43.35,-2.625,26.85,,0.0168279999999994,2.4423819705361405,3.4268073313958345,non_fall
5.247968,-3.0454,0.0348,-4.9929,-1.8869,-0.6215,-1.4379,43.35,-2.625,26.85,,0.0022900000000003473,5.848480367582676,3.7418492913394177,non_fall
5.262727,-3.0454,0.0348,-4.9929,-1.8869,-0.6215,-1.4379,44.025,-1.275,27.225,,0.014758999999999745,5.848480367582676,4.057934657334738,non_fall
5.26544,-3.0454,0.0348,-4.9929,-1.8869,-0.6215,-1.4379,44.025,-1.275,27.225,,0.0027129999999999654,5.848480367582676,4.366709151168311,non_fall
5.266678,-0.086,-1.8804,-5.1261,-1.8869,-0.6215,-1.4379,44.025,-1.275,27.225,,0.0012379999999998503,5.46078761443805,4.660054807154345,non_fall
5.287029,-0.086,-1.8804,-5.1261,-1.8869,-0.6215,-1.4379,44.025,-1.275,27.225,,0.020351000000000674,5.46078761443805,4.930394053487692,non_fall
5.289244,2.1119,-3.4772,-2.1722,-1.8869,-0.6215,-1.4379,44.025,-1.275,27.225,,0.002214999999999634,4.6118861965577596,5.1709238444252295,non_fall
5.297285,2.1119,-3.4772,-2.1722,-1.7327,-1.1514,0.1084,44.025,-1.275,27.225,,0.00804099999999952,4.6118861965577596,5.375782095724384,non_fall
5.310959,2.1119,-3.4772,-2.1722,-1.7327,-1.1514,0.1084,44.025,-1.275,27.225,,0.013674000000000852,4.6118861965577596,5.540159246272351,non_fall
5.312728,3.2518,-3.8293,-2.2052,-1.7327,-1.1514,0.1084,44.025,-1.275,27.225,,0.0017689999999994654,5.486405815285631,5.660371736635226,non_fall
5.326182,3.2518,-3.8293,-2.2052,-1.7327,-1.1514,0.1084,44.025,-1.275,27.225,,0.013454000000000299,5.486405815285631,5.733912013078187,non_fall
5.327944,4.7642,-2.0505,-2.1111,-1.7327,-1.1514,0.1084,44.025,-1.275,27.225,,0.0017619999999993752,5.599901347345326,5.759483631990648,non_fall
5.33102,4.7642,-2.0505,-2.1111,-1.7327,-1.1514,0.1084,45.45,-4.05,25.425,,0.0030760000000000787,5.599901347345326,5.7370232374192245,non_fall
5.346425,4.7642,-2.0505,-2.1111,-1.7327,-1.1514,0.1084,45.45,-4.05,25.425,,0.015405000000000335,5.599901347345326,5.667705751433744,non_fall
5.347742,4.3761,-2.7552,-3.4223,-1.7327,-1.1514,0.1084,45.45,-4.05,25.425,,0.0013170000000002346,6.201089867112071,5.553925507839068,non_fall
5.365586,4.3761,-2.7552,-3.4223,-1.0794,-0.3445,0.7159,45.45,-4.05,25.425,,0.017844000000000193,6.201089867112071,5.399243981455395,non_fall
5.371277,4.3761,-2.7552,-3.4223,-1.0794,-0.3445,0.7159,45.45,-4.05,25.425,,0.0056909999999996685,6.201089867112071,5.2082944633847985,non_fall
5.374732,2.6384,-4.2354,-2.3064,-1.0794,-0.3445,0.7159,45.45,-4.05,25.425,,0.003454999999999764,5.497203714617096,4.9866364304112665,non_fall
5.389545,2.6384,-4.2354,-2.3064,-1.0794,-0.3445,0.7159,45.45,-4.05,25.425,,0.014813000000000187,5.497203714617096,4.740558023875834,non_fall
5.393389,1.512,-2.1917,-1.9803,-1.0794,-0.3445,0.7159,45.45,-4.05,25.425,,0.0038439999999999586,3.318325026274551,4.476833228977738,non_fall
5.402686,1.512,-2.1917,-1.9803,-1.0794,-0.3445,0.7159,46.125,-8.85,25.65,,0.00929700000000011,3.318325026274551,4.202448893113031,non_fall
5.412485,1.512,-2.1917,-1.9803,-1.0794,-0.3445,0.7159,46.125,-8.85,25.65,,0.009799000000000113,3.318325026274551,3.9243227613741727,non_fall
5.414682,1.0758,-0.988,-3.3149,-1.0794,-0.3445,0.7159,46.125,-8.85,25.65,,0.0021969999999997825,3.6224372527346835,3.649034799592511,non_fall
5.429244,1.0758,-0.988,-3.3149,-1.0794,-0.3445,0.7159,46.125,-8.85,25.65,,0.014561999999999742,3.6224372527346835,3.3825899808249233,non_fall
5.431483,1.3473,-0.7339,-2.4566,-1.0794,-0.3445,0.7159,46.125,-8.85,25.65,,0.002239000000000324,2.896326994660651,3.130224056266238,non_fall
5.434097,1.3473,-0.7339,-2.4566,-0.9184,0.9377,1.3776,46.125,-8.85,25.65,,0.0026140000000003383,2.896326994660651,2.896258126168547,non_fall
5.449276,1.3473,-0.7339,-2.4566,-0.9184,0.9377,1.3776,46.125,-8.85,25.65,,0.015178999999999832,2.896326994660651,2.684004737141037,non_fall
5.451174,0.0405,-0.2648,-1.4907,-0.9184,0.9377,1.3776,46.125,-8.85,25.65,,0.0018979999999997332,1.5145777563400302,2.4957271216103005,non_fall
5.467598,0.0405,-0.2648,-1.4907,-0.9184,0.9377,1.3776,46.125,-8.85,25.65,,0.016423999999999772,1.5145777563400302,2.332652590206302,non_fall
5.470595,1.699,0.8492,-1.1482,-0.9184,0.9377,1.3776,46.125,-8.85,25.65,,0.0029970000000005825,2.2194830208857197,2.1950396272801,non_fall
5.472332,1.699,0.8492,-1.1482,-0.9184,0.9377,1.3776,46.425,-12.225,29.025,,0.0017369999999994334,2.2194830208857197,2.0822948844069047,non_fall
5.483245,1.699,0.8492,-1.1482,-0.9184,0.9377,1.3776,46.425,-12.225,29.025,,0.010913000000000395,2.2194830208857197,1.9931311708198363,non_fall
5.484722,1.0002,0.5796,-1.7144,-0.9184,0.9377,1.3776,46.425,-12.225,29.025,,0.0014769999999995065,2.067729082834596,1.9257525878143964,non_fall
5.50274,1.0002,0.5796,-1.7144,-1.4404,0.108,1.5954,46.425,-12.225,29.025,,0.018018000000000534,2.067729082834596,1.8780502358729807,non_fall
5.503716,1.0002,0.5796,-1.7144,-1.4404,0.108,1.5954,46.425,-12.225,29.025,,0.0009759999999996438,2.067729082834596,1.8477918643077444,non_fall
5.504371,-1.4275,0.4989,-2.167,-1.4404,0.108,1.5954,46.425,-12.225,29.025,,0.0006550000000000722,2.6424508434406118,1.8327904541943176,non_fall
5.528744,-1.4275,0.4989,-2.167,-1.4404,0.108,1.5954,46.425,-12.225,29.025,,0.024372999999999756,2.6424508434406118,1.8310392129981528,non_fall
5.530351,-0.5856,0.0238,-1.7922,-1.4404,0.108,1.5954,46.425,-12.225,29.025,,0.001606999999999914,1.8855966270652904,1.8408039593548344,non_fall
5.547248,-0.5856,0.0238,-1.7922,-1.4404,0.108,1.5954,45.9,-13.725,27.75,,0.016897000000000162,1.8855966270652904,1.8606688806994045,non_fall
5.549502,-0.5856,0.0238,-1.7922,-1.4404,0.108,1.5954,45.9,-13.725,27.75,,0.0022540000000006444,1.8855966270652904,1.8895377558534006,non_fall
5.550653,-0.1838,-0.4744,-0.9187,-1.4404,0.108,1.5954,45.9,-13.725,27.75,,0.001150999999999236,1.0501654583921525,1.9265983306931624,non_fall
5.563855,-0.1838,-0.4744,-0.9187,-1.4404,0.108,1.5954,45.9,-13.725,27.75,,0.013202000000000602,1.0501654583921525,1.9712608524393687,non_fall
5.565578,2.1337,-0.998,1.0775,-1.4404,0.108,1.5954,45.9,-13.725,27.75,,0.001723000000000141,2.590306147929237,2.023081873178509,non_fall
5.57159,2.1337,-0.998,1.0775,-1.738,-0.2607,1.7208,45.9,-13.725,27.75,,0.00601199999999924,2.590306147929237,2.0816814347533135,non_fall
5.586245,2.1337,-0.998,1.0775,-1.738,-0.2607,1.7208,45.9,-13.725,27.75,,0.014655000000000307,2.590306147929237,2.1466572162589244,non_fall
5.589891,2.2989,-1.6327,0.2988,-1.738,-0.2607,1.7208,45.9,-13.725,27.75,,0.003645999999999816,2.835477374270513,2.217496072343269,non_fall
5.605342,2.2989,-1.6327,0.2988,-1.738,-0.2607,1.7208,45.9,-13.725,27.75,,0.015451000000000548,2.835477374270513,2.2934838874518553,non_fall
5.607563,1.5906,-0.3377,0.0474,-1.738,-0.2607,1.7208,45.9,-13.725,27.75,,0.0022209999999995844,1.6267441132519889,2.3736186741110274,non_fall
5.610269,1.5906,-0.3377,0.0474,-1.738,-0.2607,1.7208,45.525,-18.15,25.425,,0.002705999999999875,1.6267441132519889,2.456537334553987,non_fall
5.625265,1.5906,-0.3377,0.0474,-1.738,-0.2607,1.7208,45.525,-18.15,25.425,,0.01499600000000001,1.6267441132519889,2.5404708842790646,non_fall
5.628033,1.928,0.2124,0.7372,-1.738,-0.2607,1.7208,45.525,-18.15,25.425,,0.002768000000000548,2.0750329154015845,2.623243768019508,non_fall
5.64673,1.928,0.2124,0.7372,-0.7993,0.0689,1.3906,45.525,-18.15,25.425,,0.01869699999999952,2.0750329154015845,2.7023290285049453,non_fall
5.649391,1.928,0.2124,0.7372,-0.7993,0.0689,1.3906,45.525,-18.15,25.425,,0.0026609999999998024,2.0750329154015845,2.7749635318458963,non_fall
5.650752,2.4365,0.6068,0.4168,-0.7993,0.0689,1.3906,45.525,-18.15,25.425,,0.0013610000000001676,2.5452820531328157,2.838318453135021,non_fall
5.66864,2.4365,0.6068,0.4168,-0.7993,0.0689,1.3906,45.525,-18.15,25.425,,0.017888000000000126,2.5452820531328157,2.8897114708060068,non_fall
5.670783,2.7181,2.0114,2.5851,-0.7993,0.0689,1.3906,45.525,-18.15,25.425,,0.002143000000000228,4.256352849564989,2.9268393213093566,non_fall
5.681064,2.7181,2.0114,2.5851,-0.7993,0.0689,1.3906,44.325,-26.25,23.7,,0.010280999999999985,4.256352849564989,2.9480032977148434,non_fall
5.688008,2.7181,2.0114,2.5851,-0.7993,0.0689,1.3906,44.325,-26.25,23.7,,0.006943999999999839,4.256352849564989,2.95229764059203,non_fall
5.689829,2.844,2.2704,2.0599,-0.7993,0.0689,1.3906,44.325,-26.25,23.7,,0.0018209999999996285,4.181655195015486,2.939733614798417,non_fall
5.708993,2.844,2.2704,2.0599,-0.7993,0.0689,1.3906,44.325,-26.25,23.7,,0.019164000000000847,4.181655195015486,2.911281055502771,non_fall
5.712208,1.2351,0.8107,0.5554,-0.7993,0.0689,1.3906,44.325,-26.25,23.7,,0.003214999999999968,1.5783458619706898,2.8688226275336373,non_fall
5.713968,1.2351,0.8107,0.5554,-0.4784,0.7588,1.0343,44.325,-26.25,23.7,,0.0017599999999999838,1.5783458619706898,2.8150306128048124,non_fall
5.728874,1.2351,0.8107,0.5554,-0.4784,0.7588,1.0343,44.325,-26.25,23.7,,0.014905999999999864,1.5783458619706898,2.7531875473880922,non_fall
5.730321,-0.1098,1.9509,-1.6504,-0.4784,0.7588,1.0343,44.325,-26.25,23.7,,0.001446999999999754,2.557711283550198,2.686976534387431,non_fall
5.747046,-0.1098,1.9509,-1.6504,-0.4784,0.7588,1.0343,44.325,-26.25,23.7,,0.0167250000000001,2.557711283550198,2.6202632738955347,non_fall
5.749447,-0.6618,2.4491,-2.613,-0.4784,0.7588,1.0343,44.325,-26.25,23.7,,0.0024009999999998755,3.6419553882495594,2.5568828358120035,non_fall
5.751203,-0.6618,2.4491,-2.613,-0.4784,0.7588,1.0343,41.025,-31.05,22.8,,0.0017560000000003129,3.6419553882495594,2.5004354580202612,non_fall
5.762164,-0.6618,2.4491,-2.613,-0.4784,0.7588,1.0343,41.025,-31.05,22.8,,0.010960999999999999,3.6419553882495594,2.4540915985161122,non_fall
5.764607,0.8424,0.5599,-0.4494,-0.4784,0.7588,1.0343,41.025,-31.05,22.8,,0.002442999999999529,1.1068360899428604,2.420408724269547,non_fall
5.781921,0.8424,0.5599,-0.4494,-0.7481,-0.1083,0.8485,41.025,-31.05,22.8,,0.01731399999999983,1.1068360899428604,2.401169477127664,non_fall
5.785829,0.8424,0.5599,-0.4494,-0.7481,-0.1083,0.8485,41.025,-31.05,22.8,,0.003908000000000023,1.1068360899428604,2.3972585741939554,non_fall
5.787317,1.351,-0.8255,-0.0516,-0.7481,-0.1083,0.8485,41.025,-31.05,22.8,,0.0014880000000001559,1.5840813773288291,2.408598585699261,non_fall
5.805544,1.351,-0.8255,-0.0516,-0.7481,-0.1083,0.8485,41.025,-31.05,22.8,,0.018227000000000437,1.5840813773288291,2.4341597029694975,non_fall
5.808152,0.8424,-2.4926,-1.2889,-0.7481,-0.1083,0.8485,41.025,-31.05,22.8,,0.0026079999999994996,2.929838857343523,2.4720475233836297,non_fall
5.821275,0.8424,-2.4926,-1.2889,-0.7481,-0.1083,0.8485,39.15,-30.825,24.0,,0.013123000000000218,2.929838857343523,2.5196601747802405,non_fall
5.824263,0.8424,-2.4926,-1.2889,-0.7481,-0.1083,0.8485,39.15,-30.825,24.0,,0.0029880000000002127,2.929838857343523,2.5738957981241977,non_fall
5.826056,0.6785,-3.3508,-0.5288,-0.7481,-0.1083,0.8485,39.15,-30.825,24.0,,0.0017930000000001556,3.459458386799876,2.631385790007109,non_fall
5.844801,0.6785,-3.3508,-0.5288,-0.7481,-0.1083,0.8485,39.15,-30.825,24.0,,0.01874500000000001,3.459458386799876,2.688728711466328,non_fall
5.847456,0.5324,-2.6968,-0.9084,-0.7481,-0.1083,0.8485,39.15,-30.825,24.0,,0.002654999999999852,2.8950596815955283,2.74270336368708,non_fall
5.850106,0.5324,-2.6968,-0.9084,-0.0539,-0.4394,0.2046,39.15,-30.825,24.0,,0.002650000000000041,2.8950596815955283,2.790445630614993,non_fall
5.861998,0.5324,-2.6968,-0.9084,-0.0539,-0.4394,0.2046,39.15,-30.825,24.0,,0.01189199999999957,2.8950596815955283,2.8295806937226455,non_fall
5.864797,0.0003,-2.6591,-1.3832,-0.0539,-0.4394,0.2046,39.15,-30.825,24.0,,0.00279900000000044,2.9973413452591617,2.8583085129581898,non_fall
5.88358,0.0003,-2.6591,-1.3832,-0.0539,-0.4394,0.2046,39.15,-30.825,24.0,,0.018782999999999994,2.9973413452591617,2.8754449143489094,non_fall
5.886332,-0.384,-2.5466,-1.164,-0.0539,-0.4394,0.2046,39.15,-30.825,24.0,,0.0027520000000000877,2.8262207203259977,2.8804232616569085,non_fall
5.895293,-0.384,-2.5466,-1.164,-0.0539,-0.4394,0.2046,41.4,-32.625,26.925,,0.00896099999999933,2.8262207203259977,2.8732633056425922,non_fall
5.89867,-0.384,-2.5466,-1.164,-0.0539,-0.4394,0.2046,41.4,-32.625,26.925,,0.0033770000000004075,2.8262207203259977,2.8545149621103705,non_fall
5.900341,-1.4193,-1.9326,-0.5305,-0.0539,-0.4394,0.2046,41.4,-32.625,26.925,,0.001670999999999978,2.4557657665176458,2.825185477437789,non_fall
5.923669,-1.4193,-1.9326,-0.5305,0.4835,0.2533,0.1571,41.4,-32.625,26.925,,0.023328000000000237,2.4557657665176458,2.786658482189351,non_fall
5.927991,-1.4193,-1.9326,-0.5305,0.4835,0.2533,0.1571,41.4,-32.625,26.925,,0.004321999999999271,2.4557657665176458,2.7406126060119753,non_fall
5.92956,-1.4336,-1.0073,-1.9665,0.4835,0.2533,0.1571,41.4,-32.625,26.925,,0.0015690000000008197,2.6338155782058847,2.688945467341938,non_fall
5.947364,-1.4336,-1.0073,-1.9665,0.4835,0.2533,0.1571,41.4,-32.625,26.925,,0.01780399999999993,2.6338155782058847,2.6337060588553776,non_fall
5.949354,-0.6779,-1.3776,-2.351,0.4835,0.2533,0.1571,41.4,-32.625,26.925,,0.00198999999999927,2.807940734773439,2.5770354421084076,non_fall
5.9602,-0.6779,-1.3776,-2.351,0.4835,0.2533,0.1571,39.45,-35.25,24.15,,0.0108460000000008,2.807940734773439,2.52111317046344,non_fall
5.964265,-0.6779,-1.3776,-2.351,0.4835,0.2533,0.1571,39.45,-35.25,24.15,,0.004064999999999763,2.807940734773439,2.4681057151675754,non_fall
5.965924,-0.7343,-1.489,-1.814,0.4835,0.2533,0.1571,39.45,-35.25,24.15,,0.001659000000000077,2.4590472728274255,2.4201136503870613,non_fall
5.986031,-0.7343,-1.489,-1.814,0.4835,0.2533,0.1571,39.45,-35.25,24.15,,0.02010699999999943,2.4590472728274255,2.379116246590764,non_fall
5.988465,-0.6608,-1.4773,-1.3798,0.4835,0.2533,0.1571,39.45,-35.25,24.15,,0.0024340000000000472,2.126715770854206,2.3469147550782,non_fall
5.996054,-0.6608,-1.4773,-1.3798,1.1672,-0.0208,0.2454,39.45,-35.25,24.15,,0.00758900000000029,2.126715770854206,2.325078095180354,non_fall
6.012022,-0.6608,-1.4773,-1.3798,1.1672,-0.0208,0.2454,39.45,-35.25,24.15,,0.015967999999999982,2.126715770854206,2.3148960599574986,non_fall
6.014479,-0.4039,-1.4052,-1.6622,1.1672,-0.0208,0.2454,39.45,-35.25,24.15,,0.0024569999999997094,2.213736906228922,2.317345172271212,non_fall
6.025561,-0.4039,-1.4052,-1.6622,1.1672,-0.0208,0.2454,39.45,-35.25,24.15,,0.011082000000000036,2.213736906228922,2.3330711183358313,non_fall
6.027534,-0.9496,-1.4433,-1.5118,1.1672,-0.0208,0.2454,39.45,-35.25,24.15,,0.0019730000000004466,2.2957339327544037,2.362389802122738,non_fall
6.029886,-0.9496,-1.4433,-1.5118,1.1672,-0.0208,0.2454,38.25,-37.05,25.125,,0.0023520000000001318,2.2957339327544037,2.405307092185559,non_fall
6.045534,-0.9496,-1.4433,-1.5118,1.1672,-0.0208,0.2454,38.25,-37.05,25.125,,0.015647999999999662,2.2957339327544037,2.4615556067499362,non_fall
6.048061,-1.1423,-1.0168,-2.2154,1.1672,-0.0208,0.2454,38.25,-37.05,25.125,,0.002526999999999724,2.691974868010472,2.530645427394133,non_fall
6.061497,-1.1423,-1.0168,-2.2154,1.2197,-0.6095,0.2981,38.25,-37.05,25.125,,0.013436000000000448,2.691974868010472,2.611924367343257,non_fall
6.062897,-1.1423,-1.0168,-2.2154,1.2197,-0.6095,0.2981,38.25,-37.05,25.125,,0.00140000000000029,2.691974868010472,2.704642428259115,non_fall
6.063699,-0.2656,-1.5729,-2.3815,1.2197,-0.6095,0.2981,38.25,-37.05,25.125,,0.0008019999999993033,2.866374019558508,2.8080146090489553,non_fall
6.085681,-0.2656,-1.5729,-2.3815,1.2197,-0.6095,0.2981,38.25,-37.05,25.125,,0.02198200000000039,2.866374019558508,2.921276371120249,non_fall
6.087278,-0.6663,-2.1321,-2.3512,1.2197,-0.6095,0.2981,38.25,-37.05,25.125,,0.0015970000000002926,3.2431385323479476,3.0437265498839063,non_fall
6.101574,-0.6663,-2.1321,-2.3512,1.2197,-0.6095,0.2981,36.45,-36.525,25.05,,0.014295999999999864,3.2431385323479476,3.174753004388944,non_fall
6.103495,-0.6663,-2.1321,-2.3512,1.2197,-0.6095,0.2981,36.45,-36.525,25.05,,0.0019209999999993954,3.2431385323479476,3.3138367818874497,non_fall
6.10493,-1.866,-2.0567,-3.1509,1.2197,-0.6095,0.2981,36.45,-36.525,25.05,,0.0014350000000007412,4.2000168690137425,3.4605312285551046,non_fall
6.123205,-1.866,-2.0567,-3.1509,1.2197,-0.6095,0.2981,36.45,-36.525,25.05,,0.018274999999999153,4.2000168690137425,3.6144135169068927,non_fall
6.12624,-0.7149,0.3232,-4.2231,1.2197,-0.6095,0.2981,36.45,-36.525,25.05,,0.003035000000000565,4.295359572841369,3.775007896077882,non_fall
6.128263,-0.7149,0.3232,-4.2231,0.9685,-0.7426,-0.044,36.45,-36.525,25.05,,0.002022999999999442,4.295359572841369,3.941683281612085,non_fall
6.139088,-0.7149,0.3232,-4.2231,0.9685,-0.7426,-0.044,36.45,-36.525,25.05,,0.010825000000000529,4.295359572841369,4.113532867959829,non_fall
6.141439,0.9124,2.5308,-1.9439,0.9685,-0.7426,-0.044,36.45,-36.525,25.05,,0.002350999999999992,3.3190615556208054,4.289249463716336,non_fall
6.162167,0.9124,2.5308,-1.9439,0.9685,-0.7426,-0.044,36.45,-36.525,25.05,,0.02072800000000008,3.3190615556208054,4.46701550459741,non_fall
6.166042,2.662,2.8882,0.4897,0.9685,-0.7426,-0.044,36.45,-36.525,25.05,,0.003874999999999851,3.9582507917007983,4.644429156098786,non_fall
6.170073,2.662,2.8882,0.4897,0.9685,-0.7426,-0.044,35.55,-31.575,24.75,,0.00403100000000034,3.9582507917007983,4.818485909058438,non_fall
6.183323,2.662,2.8882,0.4897,0.9685,-0.7426,-0.044,35.55,-31.575,24.75,,0.013249999999999318,3.9582507917007983,4.985628367082441,non_fall
6.185032,5.1205,1.247,1.38,0.9685,-0.7426,-0.044,35.55,-31.575,24.75,,0.0017089999999999606,5.447837116691357,5.141867120588787,non_fall
6.197239,5.1205,1.247,1.38,0.9034,-0.2214,-0.3085,35.55,-31.575,24.75,,0.012207000000000079,5.447837116691357,5.28296503380982,non_fall
6.202299,5.1205,1.247,1.38,0.9034,-0.2214,-0.3085,35.55,-31.575,24.75,,0.0050600000000002865,5.447837116691357,5.404668000455005,non_fall
6.203507,5.6113,-0.1351,2.1426,0.9034,-0.2214,-0.3085,35.55,-31.575,24.75,,0.0012080000000000979,6.007967581470459,5.502958899929853,non_fall
6.227234,5.6113,-0.1351,2.1426,0.9034,-0.2214,-0.3085,35.55,-31.575,24.75,,0.023727000000000054,6.007967581470459,5.5743088975718305,non_fall
6.229035,4.8852,-0.1111,4.378,0.9034,-0.2214,-0.3085,35.55,-31.575,24.75,,0.0018009999999994974,6.560823595403248,5.61590089600644,non_fall
6.244851,4.8852,-0.1111,4.378,0.9034,-0.2214,-0.3085,33.6,-29.25,25.05,,0.015816000000000052,6.560823595403248,5.62580296865598,non_fall
6.246694,4.8852,-0.1111,4.378,0.9034,-0.2214,-0.3085,33.6,-29.25,25.05,,0.001843000000000039,6.560823595403248,5.603074740317191,non_fall
6.247889,3.65,1.5936,4.4098,0.9034,-0.2214,-0.3085,33.6,-29.25,25.05,,0.0011950000000000571,5.94208692295897,5.54779708865124,non_fall
6.263242,3.65,1.5936,4.4098,0.9034,-0.2214,-0.3085,33.6,-29.25,25.05,,0.015353000000000172,5.94208692295897,5.46102490701956,non_fall
6.265057,2.3946,2.2367,3.2137,0.9034,-0.2214,-0.3085,33.6,-29.25,25.05,,0.001814999999999678,4.5896409162373475,5.34467275687016,non_fall
6.271004,2.3946,2.2367,3.2137,1.0106,0.888,-0.0877,33.6,-29.25,25.05,,0.005946999999999925,4.5896409162373475,5.201352147850186,non_fall
6.285758,2.3946,2.2367,3.2137,1.0106,0.888,-0.0877,33.6,-29.25,25.05,,0.014754000000000822,4.5896409162373475,5.034184959912487,non_fall
6.287115,1.0443,2.7733,1.9933,1.0106,0.888,-0.0877,33.6,-29.25,25.05,,0.0013569999999996085,3.571414323485865,4.846618855453792,non_fall
6.305184,1.0443,2.7733,1.9933,1.0106,0.888,-0.0877,33.6,-29.25,25.05,,0.01806899999999967,3.571414323485865,4.642267326565927,non_fall
6.308606,1.5672,3.2724,2.0009,1.0106,0.888,-0.0877,33.6,-29.25,25.05,,0.00342200000000048,4.14346695534066,4.4247901945473425,non_fall
6.311434,1.5672,3.2724,2.0009,1.0106,0.888,-0.0877,32.85,-27.15,24.6,,0.0028280000000000527,4.14346695534066,4.1978211080025805,non_fall
6.327096,1.5672,3.2724,2.0009,1.0106,0.888,-0.0877,32.85,-27.15,24.6,,0.015661999999999843,4.14346695534066,3.964938369137727,non_fall
6.3307,2.3694,1.8866,3.4098,1.0106,0.888,-0.0877,32.85,-27.15,24.6,,0.0036040000000001626,4.56070739688483,3.729666470492002,non_fall
6.338526,2.3694,1.8866,3.4098,1.1612,1.455,-0.0438,32.85,-27.15,24.6,,0.007825999999999667,4.56070739688483,3.495490247482339,non_fall
6.34738,2.3694,1.8866,3.4098,1.1612,1.455,-0.0438,32.85,-27.15,24.6,,0.008854000000000362,4.56070739688483,3.2658626994130295,non_fall
6.349467,1.7168,0.2087,2.6227,1.1612,1.455,-0.0438,32.85,-27.15,24.6,,0.002086999999999506,3.1415781416351876,3.0441914475921,non_fall
6.362127,1.7168,0.2087,2.6227,1.1612,1.455,-0.0438,32.85,-27.15,24.6,,0.012660000000000338,3.1415781416351876,2.833796791324453,non_fall
6.364735,0.404,0.1546,1.3128,1.1612,1.455,-0.0438,32.85,-27.15,24.6,,0.0026079999999994996,1.382230443884087,2.6378443839316215,non_fall
6.374705,0.404,0.1546,1.3128,1.1612,1.455,-0.0438,30.9,-24.45,27.825,,0.009970000000000034,1.382230443884087,2.4592644185564954,non_fall
6.382408,0.404,0.1546,1.3128,1.1612,1.455,-0.0438,30.9,-24.45,27.825,,0.0077030000000002374,1.382230443884087,2.30067362653845,non_fall
6.384682,-0.3108,0.8163,2.1863,1.1612,1.455,-0.0438,30.9,-24.45,27.825,,0.0022739999999998872,2.3543258100781213,2.164314645274288,non_fall
6.402241,-0.3108,0.8163,2.1863,1.1612,1.455,-0.0438,30.9,-24.45,27.825,,0.017559000000000324,2.3543258100781213,2.052020297794659,non_fall
6.404902,-0.0934,1.0454,2.0969,1.1612,1.455,-0.0438,30.9,-24.45,27.825,,0.0026609999999998024,2.3449039063466977,1.9652014364734018,non_fall
6.409448,-0.0934,1.0454,2.0969,1.0972,0.7468,-0.3975,30.9,-24.45,27.825,,0.004546000000000383,2.3449039063466977,1.9048502924260522,non_fall
6.421311,-0.0934,1.0454,2.0969,1.0972,0.7468,-0.3975,30.9,-24.45,27.825,,0.011862999999999957,2.3449039063466977,1.8715489555215392,non_fall
6.423347,-1.0638,1.0577,0.4998,1.0972,0.7468,-0.3975,30.9,-24.45,27.825,,0.0020359999999994827,1.581202001643054,1.865474270010098,non_fall
6.441078,-1.0638,1.0577,0.4998,1.0972,0.7468,-0.3975,30.9,-24.45,27.825,,0.017731000000000385,1.581202001643054,1.8863942055324296,non_fall
6.443298,-2.1926,0.8078,0.0729,1.0972,0.7468,-0.3975,30.9,-24.45,27.825,,0.002220000000000333,2.33780880527044,1.9336546338786627,non_fall
6.445183,-2.1926,0.8078,0.0729,1.0972,0.7468,-0.3975,30.15,-20.85,30.0,,0.0018849999999996925,2.33780880527044,2.006157940286494,non_fall
6.4628,-2.1926,0.8078,0.0729,1.0972,0.7468,-0.3975,30.15,-20.85,30.0,,0.01761699999999955,2.33780880527044,2.102335864394622,non_fall
6.465763,-2.1839,0.6367,1.0808,1.0972,0.7468,-0.3975,30.15,-20.85,30.0,,0.002963000000000271,2.518518362053372,2.220119662499719,non_fall
6.476241,-2.1839,0.6367,1.0808,1.1221,0.0815,-0.1979,30.15,-20.85,30.0,,0.010477999999999987,2.518518362053372,2.3569124365961986,non_fall
6.480119,-2.1839,0.6367,1.0808,1.1221,0.0815,-0.1979,30.15,-20.85,30.0,,0.00387800000000027,2.518518362053372,2.5095713842293885,non_fall
6.481545,-1.922,-0.0636,0.2594,1.1221,0.0815,-0.1979,30.15,-20.85,30.0,,0.0014259999999994832,1.9404683249154056,2.6744109245440155,non_fall
6.500346,-1.922,-0.0636,0.2594,1.1221,0.0815,-0.1979,30.15,-20.85,30.0,,0.018801000000000734,1.9404683249154056,2.847240089154384,non_fall
6.502651,-0.4083,-1.7133,-0.7148,1.1221,0.0815,-0.1979,30.15,-20.85,30.0,,0.0023049999999997794,1.9008010995367193,3.02344802743868,non_fall
6.510954,-0.4083,-1.7133,-0.7148,1.1221,0.0815,-0.1979,30.15,-18.15,31.05,,0.008302999999999727,1.9008010995367193,3.198148658202575,non_fall
6.519608,-0.4083,-1.7133,-0.7148,1.1221,0.0815,-0.1979,30.15,-18.15,31.05,,0.00865399999999994,1.9008010995367193,3.366388630999293,non_fall
6.521998,2.131,-3.2238,0.7825,1.1221,0.0815,-0.1979,30.15,-18.15,31.05,,0.0023900000000001143,3.9428864667905414,3.523412130651069,non_fall
6.540521,2.131,-3.2238,0.7825,1.1221,0.0815,-0.1979,30.15,-18.15,31.05,,0.018523000000000067,3.9428864667905414,3.664963110541191,non_fall
6.543431,3.8352,-3.5582,1.9679,1.1221,0.0815,-0.1979,30.15,-18.15,31.05,,0.002909999999999968,5.589470161831084,3.787593015939559,non_fall
6.545311,3.8352,-3.5582,1.9679,1.2771,-0.0425,0.265,30.15,-18.15,31.05,,0.0018799999999998818,5.589470161831084,3.8889337197831493,non_fall
6.561959,3.8352,-3.5582,1.9679,1.2771,-0.0425,0.265,30.15,-18.15,31.05,,0.016647999999999996,5.589470161831084,3.9678945119132822,non_fall
6.563504,4.1698,-2.9029,1.6291,1.2771,-0.0425,0.265,30.15,-18.15,31.05,,0.0015450000000001296,5.3355437642287225,4.024749620415875,non_fall
6.583474,4.1698,-2.9029,1.6291,1.2771,-0.0425,0.265,30.15,-18.15,31.05,,0.01996999999999982,5.3355437642287225,4.061097340612362,non_fall
6.5861,3.0819,-2.0755,0.6416,1.2771,-0.0425,0.265,30.15,-18.15,31.05,,0.0026260000000002393,3.7706045165198643,4.079690142980386,non_fall
6.588086,3.0819,-2.0755,0.6416,1.2771,-0.0425,0.265,29.7,-16.05,33.0,,0.001985999999999599,3.7706045165198643,4.084153483186626,non_fall
6.602419,3.0819,-2.0755,0.6416,1.2771,-0.0425,0.265,29.7,-16.05,33.0,,0.014333000000000595,3.7706045165198643,4.078626230362386,non_fall
6.605371,2.428,-0.1179,-0.3495,1.2771,-0.0425,0.265,29.7,-16.05,33.0,,0.0029519999999996216,2.4558572149048077,4.067365263975892,non_fall
6.617254,2.428,-0.1179,-0.3495,2.0419,0.3729,-0.3044,29.7,-16.05,33.0,,0.011883000000000088,2.4558572149048077,4.054359802346116,non_fall
6.621974,2.428,-0.1179,-0.3495,2.0419,0.3729,-0.3044,29.7,-16.05,33.0,,0.0047199999999998354,2.4558572149048077,4.042997625467886,non_fall
6.623208,2.0641,1.825,-1.9951,2.0419,0.3729,-0.3044,29.7,-16.05,33.0,,0.0012340000000001794,3.401699254784291,4.035816152305594,non_fall
6.641621,2.0641,1.825,-1.9951,2.0419,0.3729,-0.3044,29.7,-16.05,33.0,,0.01841299999999979,3.401699254784291,4.034357389812535,non_fall
