time,ax,ay,az,wx,wy,wz,Bx,By,Bz,Unnamed: 10,time_diff,acc_mag,acc_mag_filtered,label
0.083106,0.0,0.0,0.0,0.0,0.0,0.0,0.0,0.0,0.0,,0.0,0.0,0.001535309997724429,non_fall
0.083713,0.0,0.0,0.0,0.0,0.0,0.0,0.0,0.0,0.0,,0.0006069999999999964,0.0,0.020455864209053366,non_fall
0.084131,0.0,0.0,0.0,0.0,0.0,0.0,0.0,0.0,0.0,,0.0004180000000000017,0.0,0.03910553552297048,non_fall
0.105714,0.0,0.0,0.0,0.0,0.0,0.0,-39.45,10.35,-20.25,,0.021583000000000005,0.0,0.05733672977737477,non_fall
0.115084,0.0,0.0,0.0,0.0,0.0,0.0,-39.45,10.35,-20.25,,0.009370000000000003,0.0,0.07500104269718666,non_fall
0.115997,-0.0616,0.0552,-0.0807,0.0,0.0,0.0,-39.45,10.35,-20.25,,0.0009129999999999971,0.11555989788849763,0.09194913512883766,non_fall
0.135012,-0.0616,0.0552,-0.0807,0.0,0.0,0.0,-39.45,10.35,-20.25,,0.01901499999999999,0.11555989788849763,0.10803307214147091,non_fall
0.135788,-0.0878,0.0511,0.0293,0.0,0.0,0.0,-39.45,10.35,-20.25,,0.0007759999999999989,0.10572861485898698,0.12311106899325093,non_fall
0.139999,-0.0878,0.0511,0.0293,-0.0357,-0.0334,0.0382,-39.45,10.35,-20.25,,0.00421100000000002,0.10572861485898698,0.13705418114639634,non_fall
0.154804,-0.0878,0.0511,0.0293,-0.0357,-0.0334,0.0382,-39.45,10.35,-20.25,,0.014804999999999985,0.10572861485898698,0.14975424024193512,non_fall
0.155811,-0.0163,-0.2167,-0.0214,-0.0357,-0.0334,0.0382,-39.45,10.35,-20.25,,0.0010070000000000079,0.21836332109582873,0.16113219742573703,non_fall
0.170987,-0.0163,-0.2167,-0.0214,-0.0357,-0.0334,0.0382,-39.45,10.35,-20.25,,0.015175999999999995,0.21836332109582873,0.17114587649020696,non_fall
0.172226,0.0727,0.1432,-0.1873,-0.0357,-0.0334,0.0382,-39.45,10.35,-20.25,,0.0012389999999999901,0.24672417798018906,0.17979598102571723,non_fall
0.178576,0.0727,0.1432,-0.1873,-0.0357,-0.0334,0.0382,-39.375,8.55,-18.375,,0.006350000000000022,0.24672417798018906,0.18712919410231885,non_fall
0.195121,0.0727,0.1432,-0.1873,-0.0357,-0.0334,0.0382,-39.375,8.55,-18.375,,0.016544999999999976,0.24672417798018906,0.19323747994239943,non_fall
0.19634,0.0011,0.1609,-0.1033,-0.0357,-0.0334,0.0382,-39.375,8.55,-18.375,,0.0012189999999999979,0.19120907405246226,0.1982532236768287,non_fall
0.211464,0.0011,0.1609,-0.1033,-0.033,-0.0148,0.0382,-39.375,8.55,-18.375,,0.015124000000000026,0.19120907405246226,0.20234049176269037,non_fall
0.213252,0.0011,0.1609,-0.1033,-0.033,-0.0148,0.0382,-39.375,8.55,-18.375,,0.001787999999999984,0.19120907405246226,0.20568329524911375,non_fall
0.214691,-0.0471,0.1389,-0.131,-0.033,-0.0148,0.0382,-39.375,8.55,-18.375,,0.0014389999999999958,0.19665355323512465,0.2084721535097739,non_fall
0.232137,-0.0471,0.1389,-0.131,-0.033,-0.0148,0.0382,-39.375,8.55,-18.375,,0.017446000000000017,0.19665355323512465,0.21089043162375004,non_fall
0.233512,-0.1113,0.1315,-0.0847,-0.033,-0.0148,0.0382,-39.375,8.55,-18.375,,0.0013749999999999873,0.19197403470261284,0.21310190473599602,non_fall
0.247585,-0.1113,0.1315,-0.0847,-0.033,-0.0148,0.0382,-40.875,8.55,-18.15,,0.014073000000000002,0.19197403470261284,0.2152408765409855,non_fall
0.257449,-0.1113,0.1315,-0.0847,-0.033,-0.0148,0.0382,-40.875,8.55,-18.15,,0.009863999999999984,0.19197403470261284,0.2174060065397186,non_fall
0.259104,-0.0429,0.0395,0.0634,-0.033,-0.0148,0.0382,-40.875,8.55,-18.15,,0.0016550000000000176,0.08614069885948221,0.2196587904256451,non_fall
0.27876,-0.0429,0.0395,0.0634,-0.033,-0.0148,0.0382,-40.875,8.55,-18.15,,0.019656000000000007,0.08614069885948221,0.22202734892361115,non_fall
0.283818,0.131,0.028,-0.163,-0.033,-0.0148,0.0382,-40.875,8.55,-18.15,,0.005058000000000007,0.21098341167020693,0.22451571514902874,non_fall
0.285376,0.131,0.028,-0.163,-0.0651,0.006,-0.0035,-40.875,8.55,-18.15,,0.0015580000000000038,0.21098341167020693,0.227118072251195,non_fall
0.30039,0.131,0.028,-0.163,-0.0651,0.006,-0.0035,-40.875,8.55,-18.15,,0.015013999999999972,0.21098341167020693,0.22983643462346742,non_fall
0.302722,0.1665,0.2238,-0.2475,-0.0651,0.006,-0.0035,-40.875,8.55,-18.15,,0.0023320000000000007,0.3729141187994898,0.23269933724607644,non_fall
0.315489,0.1665,0.2238,-0.2475,-0.0651,0.006,-0.0035,-40.875,8.55,-18.15,,0.012767000000000028,0.3729141187994898,0.23577848138425295,non_fall
0.316799,0.0823,0.3077,-0.1931,-0.0651,0.006,-0.0035,-40.875,8.55,-18.15,,0.0013099999999999778,0.37247844232921723,0.23920015450302337,non_fall
0.318083,0.0823,0.3077,-0.1931,-0.0651,0.006,-0.0035,-40.275,8.55,-17.775,,0.0012840000000000074,0.37247844232921723,0.24314868235750373,non_fall
0.334902,0.0823,0.3077,-0.1931,-0.0651,0.006,-0.0035,-40.275,8.55,-17.775,,0.016818999999999973,0.37247844232921723,0.24786017302184143,non_fall
0.33596,-0.0109,0.2104,-0.1002,-0.0651,0.006,-0.0035,-40.275,8.55,-17.775,,0.0010580000000000034,0.23329597081818623,0.2536062129558491,non_fall
0.350503,-0.0109,0.2104,-0.1002,-0.0901,0.009,-0.036,-40.275,8.55,-17.775,,0.014543000000000028,0.23329597081818623,0.2606686953477946,non_fall
0.355367,-0.0109,0.2104,-0.1002,-0.0901,0.009,-0.036,-40.275,8.55,-17.775,,0.0048639999999999795,0.23329597081818623,0.26930830167674163,non_fall
0.356999,-0.0768,0.0333,0.2147,-0.0901,0.009,-0.036,-40.275,8.55,-17.775,,0.0016320000000000223,0.23044135913503028,0.27973006503572745,non_fall
0.371605,-0.0768,0.0333,0.2147,-0.0901,0.009,-0.036,-40.275,8.55,-17.775,,0.014606000000000008,0.23044135913503028,0.29204980227656147,non_fall
0.373324,-0.1571,-0.0833,0.161,-0.0901,0.009,-0.036,-40.275,8.55,-17.775,,0.0017189999999999706,0.23987559275591172,0.30626508783170675,non_fall
0.386538,-0.1571,-0.0833,0.161,-0.0901,0.009,-0.036,-40.05,8.55,-17.625,,0.013214000000000004,0.23987559275591172,0.32223402477999563,non_fall
0.397095,-0.1571,-0.0833,0.161,-0.0901,0.009,-0.036,-40.05,8.55,-17.625,,0.010556999999999983,0.23987559275591172,0.3396644696581988,non_fall
0.399176,-0.1935,0.024,0.019,-0.0901,0.009,-0.036,-40.05,8.55,-17.625,,0.0020809999999999995,0.19590622756819143,0.35811562445643585,non_fall
0.414557,-0.1935,0.024,0.019,-0.0901,0.009,-0.036,-40.05,8.55,-17.625,,0.015381000000000034,0.19590622756819143,0.37701300240486835,non_fall
0.416326,-0.2169,0.3255,-0.0861,-0.0901,0.009,-0.036,-40.05,8.55,-17.625,,0.001768999999999965,0.4005110110845893,0.3956766471740609,non_fall
0.419193,-0.2169,0.3255,-0.0861,-0.0953,-0.0003,-0.0128,-40.05,8.55,-17.625,,0.0028670000000000084,0.4005110110845893,0.41336111950097415,non_fall
0.432552,-0.2169,0.3255,-0.0861,-0.0953,-0.0003,-0.0128,-40.05,8.55,-17.625,,0.01335900000000001,0.4005110110845893,0.42930430969819156,non_fall
0.434754,-0.4045,0.4978,0.1479,-0.0953,-0.0003,-0.0128,-40.05,8.55,-17.625,,0.0022019999999999817,0.6582548898413138,0.44278090205723997,non_fall
0.452532,-0.4045,0.4978,0.1479,-0.0953,-0.0003,-0.0128,-40.05,8.55,-17.625,,0.017778000000000016,0.6582548898413138,0.45315559748139844,non_fall
0.454853,-0.249,0.4249,0.158,-0.0953,-0.0003,-0.0128,-40.05,8.55,-17.625,,0.0023210000000000175,0.5172088649665626,0.45993115318491873,non_fall
0.457668,-0.249,0.4249,0.158,-0.0953,-0.0003,-0.0128,-40.275,8.55,-17.85,,0.002815000000000012,0.5172088649665626,0.46278698340723107,non_fall
0.470857,-0.249,0.4249,0.158,-0.0953,-0.0003,-0.0128,-40.275,8.55,-17.85,,0.013189000000000006,0.5172088649665626,0.4616053540673827,non_fall
0.473611,-0.2723,0.4031,0.0632,-0.0953,-0.0003,-0.0128,-40.275,8.55,-17.85,,0.0027539999999999787,0.4905416801863018,0.456483696239972,non_fall
0.485994,-0.2723,0.4031,0.0632,-0.1669,-0.0638,0.0615,-40.275,8.55,-17.85,,0.012382999999999977,0.4905416801863018,0.44773283561072896,non_fall
0.490906,-0.2723,0.4031,0.0632,-0.1669,-0.0638,0.0615,-40.275,8.55,-17.85,,0.0049120000000000275,0.4905416801863018,0.4358618536302935,non_fall
0.49227,-0.1547,0.2681,0.2768,-0.1669,-0.0638,0.0615,-40.275,8.55,-17.85,,0.0013639999999999763,0.41524443403855515,0.42155097273943665,non_fall
0.512198,-0.1547,0.2681,0.2768,-0.1669,-0.0638,0.0615,-40.275,8.55,-17.85,,0.019928000000000057,0.41524443403855515,0.4056144198971244,non_fall
0.515063,-0.0979,0.159,0.3034,-0.1669,-0.0638,0.0615,-40.275,8.55,-17.85,,0.0028650000000000064,0.35625408067838327,0.388955702485722,non_fall
0.52652,-0.0979,0.159,0.3034,-0.1669,-0.0638,0.0615,-39.975,9.15,-17.85,,0.01145699999999994,0.35625408067838327,0.3725180858850994,non_fall
0.535487,-0.0979,0.159,0.3034,-0.1669,-0.0638,0.0615,-39.975,9.15,-17.85,,0.008967000000000058,0.35625408067838327,0.3572332387273901,non_fall
0.538543,-0.1359,0.0978,0.2299,-0.1669,-0.0638,0.0615,-39.975,9.15,-17.85,,0.0030559999999999476,0.2844075596744925,0.343971005747055,non_fall
0.55484,-0.1359,0.0978,0.2299,-0.1669,-0.0638,0.0615,-39.975,9.15,-17.85,,0.016297000000000006,0.2844075596744925,0.3334931268588641,non_fall
0.556901,-0.1844,0.0315,0.1814,-0.1669,-0.0638,0.0615,-39.975,9.15,-17.85,,0.0020609999999999795,0.2605792969520027,0.32641348431088707,non_fall
0.561467,-0.1844,0.0315,0.1814,-0.203,-0.1568,0.0788,-39.975,9.15,-17.85,,0.00456600000000007,0.2605792969520027,0.32316711390795994,non_fall
0.570137,-0.1844,0.0315,0.1814,-0.203,-0.1568,0.0788,-39.975,9.15,-17.85,,0.008669999999999956,0.2605792969520027,0.3239897265213178,non_fall
0.573757,-0.2053,0.0035,0.2368,-0.203,-0.1568,0.0788,-39.975,9.15,-17.85,,0.0036199999999999566,0.3134239620705475,0.3289088586387708,non_fall
0.594107,-0.2053,0.0035,0.2368,-0.203,-0.1568,0.0788,-39.975,9.15,-17.85,,0.02035000000000009,0.3134239620705475,0.3377470678021129,non_fall
0.596867,-0.1636,0.0924,0.2088,-0.203,-0.1568,0.0788,-39.975,9.15,-17.85,,0.0027599999999999847,0.2808917229111602,0.35013690089905697,non_fall
0.599493,-0.1636,0.0924,0.2088,-0.203,-0.1568,0.0788,-40.5,9.0,-17.25,,0.002626000000000017,0.2808917229111602,0.36554675997685954,non_fall
0.614442,-0.1636,0.0924,0.2088,-0.203,-0.1568,0.0788,-40.5,9.0,-17.25,,0.01494899999999999,0.2808917229111602,0.3833162540570423,non_fall
0.616123,-0.0653,0.1898,0.4669,-0.203,-0.1568,0.0788,-40.5,9.0,-17.25,,0.0016809999999999325,0.5082162335069591,0.402699048946274,non_fall
0.628314,-0.0653,0.1898,0.4669,-0.2062,-0.1261,0.0823,-40.5,9.0,-17.25,,0.012191000000000063,0.5082162335069591,0.4229105525740071,non_fall
0.633423,-0.0653,0.1898,0.4669,-0.2062,-0.1261,0.0823,-40.5,9.0,-17.25,,0.005108999999999919,0.5082162335069591,0.4431771565096861,non_fall
0.634892,-0.0092,0.2237,0.4449,-0.2062,-0.1261,0.0823,-40.5,9.0,-17.25,,0.0014690000000000536,0.4980585708528667,0.4627835015440933,non_fall
0.652986,-0.0092,0.2237,0.4449,-0.2062,-0.1261,0.0823,-40.5,9.0,-17.25,,0.018093999999999943,0.4980585708528667,0.48111450706512904,non_fall
0.654869,0.1727,0.3137,0.4649,-0.2062,-0.1261,0.0823,-40.5,9.0,-17.25,,0.001883000000000079,0.5868262008465539,0.49768954097705714,non_fall
0.667034,0.1727,0.3137,0.4649,-0.2062,-0.1261,0.0823,-40.275,9.525,-16.65,,0.012164999999999981,0.5868262008465539,0.5121868166259862,non_fall
0.671413,0.1727,0.3137,0.4649,-0.2062,-0.1261,0.0823,-40.275,9.525,-16.65,,0.004379000000000022,0.5868262008465539,0.5244567511529615,non_fall
0.672747,0.2976,0.4194,0.3289,-0.2062,-0.1261,0.0823,-40.275,9.525,-16.65,,0.0013339999999999463,0.6104402755388934,0.5345236715911442,non_fall
0.692771,0.2976,0.4194,0.3289,-0.2062,-0.1261,0.0823,-40.275,9.525,-16.65,,0.020024000000000042,0.6104402755388934,0.5425760018909422,non_fall
0.694472,0.2277,0.4408,0.1265,-0.2062,-0.1261,0.0823,-40.275,9.525,-16.65,,0.0017009999999999525,0.5120099413097366,0.5489458973121231,non_fall
0.699006,0.2277,0.4408,0.1265,-0.2126,-0.0203,-0.0075,-40.275,9.525,-16.65,,0.004534000000000038,0.5120099413097366,0.554080119268178,non_fall
0.712762,0.2277,0.4408,0.1265,-0.2126,-0.0203,-0.0075,-40.275,9.525,-16.65,,0.01375599999999999,0.5120099413097366,0.5585046239064476,non_fall
0.716074,0.1577,0.3866,0.2411,-0.2126,-0.0203,-0.0075,-40.275,9.525,-16.65,,0.0033119999999999816,0.4821390463341462,0.5627857132722225,non_fall
0.73091,0.1577,0.3866,0.2411,-0.2126,-0.0203,-0.0075,-40.275,9.525,-16.65,,0.01483599999999996,0.4821390463341462,0.5674905748838381,non_fall
0.732877,0.0815,0.4256,0.4318,-0.2126,-0.0203,-0.0075,-40.275,9.525,-16.65,,0.001967000000000052,0.6117424703255447,0.5731496495906601,forward_fall
0.735688,0.0815,0.4256,0.4318,-0.2126,-0.0203,-0.0075,-40.875,9.9,-15.9,,0.002811000000000008,0.6117424703255447,0.5802226562428936,forward_fall
0.750908,0.0815,0.4256,0.4318,-0.2126,-0.0203,-0.0075,-40.875,9.9,-15.9,,0.015220000000000011,0.6117424703255447,0.5890694667106582,forward_fall
0.753482,-0.035,0.4352,0.3422,-0.2126,-0.0203,-0.0075,-40.875,9.9,-15.9,,0.002573999999999965,0.5547295557296366,0.5999265884979296,forward_fall
0.765005,-0.035,0.4352,0.3422,-0.3239,0.0973,-0.0924,-40.875,9.9,-15.9,,0.011523000000000061,0.5547295557296366,0.6128898777051314,forward_fall
0.769726,-0.035,0.4352,0.3422,-0.3239,0.0973,-0.0924,-40.875,9.9,-15.9,,0.004720999999999975,0.5547295557296366,0.6279041415943428,forward_fall
0.771318,-0.1509,0.3453,0.5221,-0.3239,0.0973,-0.0924,-40.875,9.9,-15.9,,0.0015919999999999268,0.643887653243949,0.6447602377490647,forward_fall
0.789705,-0.1509,0.3453,0.5221,-0.3239,0.0973,-0.0924,-40.875,9.9,-15.9,,0.018387000000000042,0.643887653243949,0.6630999796768203,forward_fall
0.792765,-0.5438,0.2788,0.4576,-0.3239,0.0973,-0.0924,-40.875,9.9,-15.9,,0.0030600000000000627,0.7634432788360901,0.6824286794274802,forward_fall
0.805989,-0.5438,0.2788,0.4576,-0.3239,0.0973,-0.0924,-40.875,9.9,-15.9,,0.013223999999999902,0.7634432788360901,0.702134705827912,forward_fall
0.809151,-0.5577,0.2756,0.2404,-0.3239,0.0973,-0.0924,-40.875,9.9,-15.9,,0.003161999999999998,0.6669158942475429,0.7215152185571372,forward_fall
0.811301,-0.5577,0.2756,0.2404,-0.3239,0.0973,-0.0924,-40.8,9.9,-15.975,,0.0021500000000000963,0.6669158942475429,0.7398073252255677,forward_fall
0.833751,-0.5577,0.2756,0.2404,-0.3239,0.0973,-0.0924,-40.8,9.9,-15.975,,0.02244999999999997,0.6669158942475429,0.756224159107116,forward_fall
0.835879,-0.6132,0.1851,0.2626,-0.3239,0.0973,-0.0924,-40.8,9.9,-15.975,,0.0021280000000000188,0.6922680189059726,0.7699954877923038,forward_fall
0.838209,-0.6132,0.1851,0.2626,-0.3662,-0.0096,-0.0629,-40.8,9.9,-15.975,,0.0023299999999999432,0.6922680189059726,0.7804121927291828,forward_fall
0.853292,-0.6132,0.1851,0.2626,-0.3662,-0.0096,-0.0629,-40.8,9.9,-15.975,,0.015083000000000069,0.6922680189059726,0.7868732900105972,forward_fall
0.856099,-0.763,0.1442,0.2736,-0.3662,-0.0096,-0.0629,-40.8,9.9,-15.975,,0.002807000000000004,0.8232980019409739,0.7889332483514071,forward_fall
0.870514,-0.763,0.1442,0.2736,-0.3662,-0.0096,-0.0629,-40.8,9.9,-15.975,,0.014414999999999956,0.8232980019409739,0.7863463827778837,forward_fall
0.873061,-0.9128,0.1046,0.4109,-0.3662,-0.0096,-0.0629,-40.8,9.9,-15.975,,0.002546999999999966,1.006470968284729,0.7791042541736296,forward_fall
0.877354,-0.9128,0.1046,0.4109,-0.3662,-0.0096,-0.0629,-40.65,9.45,-16.575,,0.004292999999999991,1.006470968284729,0.7674615433401052,forward_fall
0.898209,-0.9128,0.1046,0.4109,-0.3662,-0.0096,-0.0629,-40.65,9.45,-16.575,,0.020855000000000068,1.006470968284729,0.751946088197258,forward_fall
0.9013,-0.7674,-0.01,0.2739,-0.3662,-0.0096,-0.0629,-40.65,9.45,-16.575,,0.003090999999999955,0.8148766593785834,0.7333498710612854,forward_fall
0.906934,-0.7674,-0.01,0.2739,-0.3631,-0.2083,0.0644,-40.65,9.45,-16.575,,0.005634000000000028,0.8148766593785834,0.7126996542890253,forward_fall
0.918073,-0.7674,-0.01,0.2739,-0.3631,-0.2083,0.0644,-40.65,9.45,-16.575,,0.01113900000000001,0.8148766593785834,0.6912083005780456,forward_fall
0.920384,-0.4625,-0.0585,0.2783,-0.3631,-0.2083,0.0644,-40.65,9.45,-16.575,,0.002310999999999952,0.5429358986105082,0.6702100565974635,forward_fall
0.931166,-0.4625,-0.0585,0.2783,-0.3631,-0.2083,0.0644,-40.65,9.45,-16.575,,0.01078200000000007,0.5429358986105082,0.6510848539802702,forward_fall
0.933136,-0.0175,0.0568,0.4627,-0.3631,-0.2083,0.0644,-40.65,9.45,-16.575,,0.0019699999999999163,0.46650163986850035,0.6351778135283344,forward_fall
0.948677,-0.0175,0.0568,0.4627,-0.3631,-0.2083,0.0644,-40.65,9.45,-16.575,,0.015541000000000027,0.46650163986850035,0.6237204916668582,forward_fall
0.951472,0.2677,0.2225,0.4197,-0.3631,-0.2083,0.0644,-40.65,9.45,-16.575,,0.002794999999999992,0.5452684017986005,0.6177599068659757,forward_fall
0.953065,0.2677,0.2225,0.4197,-0.3631,-0.2083,0.0644,-41.175,10.5,-15.45,,0.0015930000000000666,0.5452684017986005,0.6181001778878712,forward_fall
0.9704,0.2677,0.2225,0.4197,-0.3631,-0.2083,0.0644,-41.175,10.5,-15.45,,0.01733499999999999,0.5452684017986005,0.6252600602135173,forward_fall
0.972406,0.1967,0.272,0.5597,-0.3631,-0.2083,0.0644,-41.175,10.5,-15.45,,0.0020059999999999523,0.6526400079676391,0.6394481570894637,forward_fall
0.976958,0.1967,0.272,0.5597,-0.2857,-0.265,0.0815,-41.175,10.5,-15.45,,0.0045520000000000005,0.6526400079676391,0.660556328297273,forward_fall
0.989941,0.1967,0.272,0.5597,-0.2857,-0.265,0.0815,-41.175,10.5,-15.45,,0.012982999999999967,0.6526400079676391,0.6881708862814219,forward_fall
0.992078,0.1642,0.0905,0.6798,-0.2857,-0.265,0.0815,-41.175,10.5,-15.45,,0.0021370000000000555,0.705180778240587,0.7216005420990373,forward_fall
1.009947,0.1642,0.0905,0.6798,-0.2857,-0.265,0.0815,-41.175,10.5,-15.45,,0.017868999999999913,0.705180778240587,0.7599196773420285,forward_fall
1.011298,0.1567,0.0895,0.7245,-0.2857,-0.265,0.0815,-41.175,10.5,-15.45,,0.0013510000000001021,0.7466360492234486,0.8020252437179204,forward_fall
1.016063,0.1567,0.0895,0.7245,-0.2857,-0.265,0.0815,-40.8,9.9,-15.0,,0.004764999999999908,0.7466360492234486,0.8467052875964691,forward_fall
1.030028,0.1567,0.0895,0.7245,-0.2857,-0.265,0.0815,-40.8,9.9,-15.0,,0.013965000000000005,0.7466360492234486,0.8927166648142841,forward_fall
1.031464,0.2973,0.3809,0.8966,-0.2857,-0.265,0.0815,-40.8,9.9,-15.0,,0.0014359999999999928,1.0185105105005055,0.9388688901103776,forward_fall
1.043783,0.2973,0.3809,0.8966,-0.2054,-0.1993,0.0357,-40.8,9.9,-15.0,,0.012318999999999969,1.0185105105005055,0.984110253929039,forward_fall
1.049221,0.2973,0.3809,0.8966,-0.2054,-0.1993,0.0357,-40.8,9.9,-15.0,,0.005438000000000054,1.0185105105005055,1.0276114901342448,forward_fall
1.050625,0.3307,0.7227,0.9034,-0.2054,-0.1993,0.0357,-40.8,9.9,-15.0,,0.0014039999999999608,1.203241181143664,1.0688416785720656,forward_fall
1.069008,0.3307,0.7227,0.9034,-0.2054,-0.1993,0.0357,-40.8,9.9,-15.0,,0.018383000000000038,1.203241181143664,1.1076309177053894,forward_fall
1.070497,0.2741,0.9938,0.8743,-0.2054,-0.1993,0.0357,-40.8,9.9,-15.0,,0.0014890000000000736,1.3517284268668763,1.1442146010220455,forward_fall
1.086707,0.2741,0.9938,0.8743,-0.2054,-0.1993,0.0357,-40.575,10.425,-14.25,,0.016210000000000058,1.3517284268668763,1.1792548245503776,forward_fall
1.08847,0.2741,0.9938,0.8743,-0.2054,-0.1993,0.0357,-40.575,10.425,-14.25,,0.001762999999999959,1.3517284268668763,1.2138355711831945,forward_fall
1.08968,0.2303,1.1729,0.5999,-0.2054,-0.1993,0.0357,-40.575,10.425,-14.25,,0.0012099999999999334,1.3373901861461375,1.2494298692179682,forward_fall
1.107699,0.2303,1.1729,0.5999,-0.2054,-0.1993,0.0357,-40.575,10.425,-14.25,,0.018019000000000007,1.3373901861461375,1.2878389615262238,forward_fall
1.109146,0.0712,1.2855,0.618,-0.2054,-0.1993,0.0357,-40.575,10.425,-14.25,,0.001446999999999976,1.4281119318876936,1.3311053723125952,forward_fall
1.11365,0.0712,1.2855,0.618,-0.1716,-0.095,-0.0312,-40.575,10.425,-14.25,,0.0045040000000000635,1.4281119318876936,1.3814033682184377,forward_fall
1.128521,0.0712,1.2855,0.618,-0.1716,-0.095,-0.0312,-40.575,10.425,-14.25,,0.014871000000000079,1.4281119318876936,1.4409115882032562,forward_fall
1.131955,-0.0743,1.2794,1.1616,-0.1716,-0.095,-0.0312,-40.575,10.425,-14.25,,0.003433999999999937,1.7296529738649888,1.5116736215711983,forward_fall
1.151752,-0.0743,1.2794,1.1616,-0.1716,-0.095,-0.0312,-40.575,10.425,-14.25,,0.019797000000000065,1.7296529738649888,1.5954531602011317,forward_fall
1.154727,0.0937,1.2488,1.0286,-0.1716,-0.095,-0.0312,-40.575,10.425,-14.25,,0.00297499999999995,1.6205860328905712,1.6935911918580346,forward_fall
1.157461,0.0937,1.2488,1.0286,-0.1716,-0.095,-0.0312,-40.65,10.35,-13.275,,0.002734000000000014,1.6205860328905712,1.8068736780392616,forward_fall
1.166216,0.0937,1.2488,1.0286,-0.1716,-0.095,-0.0312,-40.65,10.35,-13.275,,0.008754999999999846,1.6205860328905712,1.9354191473945788,forward_fall
1.168239,0.1948,1.6158,1.0201,-0.1716,-0.095,-0.0312,-40.65,10.35,-13.275,,0.002023000000000108,1.9207708582753957,2.078596108272458,forward_fall
1.185696,0.1948,1.6158,1.0201,-0.2005,-0.0147,-0.0499,-40.65,10.35,-13.275,,0.017457000000000056,1.9207708582753957,2.2349795832854964,forward_fall
1.188629,0.1948,1.6158,1.0201,-0.2005,-0.0147,-0.0499,-40.65,10.35,-13.275,,0.0029329999999998524,1.9207708582753957,2.4023542876978436,forward_fall
1.190534,0.1916,2.1983,0.8931,-0.2005,-0.0147,-0.0499,-40.65,10.35,-13.275,,0.0019050000000000455,2.380516973264421,2.577769307543392,forward_fall
1.211062,0.1916,2.1983,0.8931,-0.2005,-0.0147,-0.0499,-40.65,10.35,-13.275,,0.0205280000000001,2.380516973264421,2.757645862031138,forward_fall
1.213125,0.1025,2.7568,1.0013,-0.2005,-0.0147,-0.0499,-40.65,10.35,-13.275,,0.002062999999999926,2.934800534959744,2.9379360097860245,forward_fall
1.220647,0.1025,2.7568,1.0013,-0.2005,-0.0147,-0.0499,-40.65,9.45,-13.8,,0.007522000000000029,2.934800534959744,3.1143262626830563,forward_fall
1.230748,0.1025,2.7568,1.0013,-0.2005,-0.0147,-0.0499,-40.65,9.45,-13.8,,0.010100999999999916,2.934800534959744,3.282476471327843,forward_fall
1.234201,-0.058,3.4116,0.5939,-0.2005,-0.0147,-0.0499,-40.65,9.45,-13.8,,0.0034530000000001504,3.4633936781717436,3.4382813574474484,forward_fall
1.249202,-0.058,3.4116,0.5939,-0.2005,-0.0147,-0.0499,-40.65,9.45,-13.8,,0.01500099999999982,3.4633936781717436,3.578139605413576,forward_fall
1.251453,-0.1067,4.2893,0.3896,-0.2005,-0.0147,-0.0499,-40.65,9.45,-13.8,,0.002251000000000003,4.308278953364092,3.699213267642169,forward_fall
1.253938,-0.1067,4.2893,0.3896,-0.3642,0.0275,-0.1248,-40.65,9.45,-13.8,,0.0024850000000000705,4.308278953364092,3.799658582131327,forward_fall
1.269235,-0.1067,4.2893,0.3896,-0.3642,0.0275,-0.1248,-40.65,9.45,-13.8,,0.015296999999999894,4.308278953364092,3.8788089112899273,forward_fall
1.272062,-0.2555,4.768,0.4067,-0.3642,0.0275,-0.1248,-40.65,9.45,-13.8,,0.002827000000000135,4.7921299168532565,3.9372922027052333,forward_fall
1.288101,-0.2555,4.768,0.4067,-0.3642,0.0275,-0.1248,-40.65,9.45,-13.8,,0.016038999999999914,4.7921299168532565,3.9770693591645827,forward_fall
1.290483,-0.2683,4.2223,0.2377,-0.3642,0.0275,-0.1248,-40.65,9.45,-13.8,,0.0023820000000001063,4.237487872549018,4.001385784490877,forward_fall
1.292356,-0.2683,4.2223,0.2377,-0.3642,0.0275,-0.1248,-40.275,10.05,-14.325,,0.0018730000000000135,4.237487872549018,4.0146355335769135,forward_fall
1.307888,-0.2683,4.2223,0.2377,-0.3642,0.0275,-0.1248,-40.275,10.05,-14.325,,0.01553199999999988,4.237487872549018,4.0221451243581186,forward_fall
1.310454,-0.1318,3.7683,0.1837,-0.3642,0.0275,-0.1248,-40.275,10.05,-14.325,,0.0025660000000000682,3.7750763992269083,4.029890990812066,forward_fall
1.32232,-0.1318,3.7683,0.1837,-0.8589,0.3013,0.0012,-40.275,10.05,-14.325,,0.011865999999999932,3.7750763992269083,4.04416971473538,forward_fall
1.329813,-0.1318,3.7683,0.1837,-0.8589,0.3013,0.0012,-40.275,10.05,-14.325,,0.007492999999999972,3.7750763992269083,4.071243154444986,forward_fall
1.331331,0.5359,3.9641,0.2789,-0.8589,0.3013,0.0012,-40.275,10.05,-14.325,,0.0015180000000001304,4.00987067497195,4.116981426506275,forward_fall
1.347626,0.5359,3.9641,0.2789,-0.8589,0.3013,0.0012,-40.275,10.05,-14.325,,0.01629499999999995,4.00987067497195,4.186525665872921,forward_fall
1.349749,1.377,3.7534,0.6631,-0.8589,0.3013,0.0012,-40.275,10.05,-14.325,,0.002123000000000097,4.052633979278168,4.283990242551743,forward_fall
1.357186,1.377,3.7534,0.6631,-0.8589,0.3013,0.0012,-41.475,9.6,-15.075,,0.007436999999999916,4.052633979278168,4.412221484099076,forward_fall
1.367108,1.377,3.7534,0.6631,-0.8589,0.3013,0.0012,-41.475,9.6,-15.075,,0.009921999999999986,4.052633979278168,4.572627369934054,forward_fall
1.368983,1.2654,3.2902,2.1401,-0.8589,0.3013,0.0012,-41.475,9.6,-15.075,,0.001875000000000071,4.123915761748777,4.765089901388334,forward_fall
1.386637,1.2654,3.2902,2.1401,-0.8589,0.3013,0.0012,-41.475,9.6,-15.075,,0.017653999999999836,4.123915761748777,4.987968335564688,forward_fall
1.388864,0.7251,4.2354,2.7262,-0.8589,0.3013,0.0012,-41.475,9.6,-15.075,,0.002227000000000201,5.088865257599183,5.23819669554966,forward_fall
1.393348,0.7251,4.2354,2.7262,-1.2568,0.518,-0.4064,-41.475,9.6,-15.075,,0.0044839999999999325,5.088865257599183,5.511472839881166,forward_fall
1.415891,0.7251,4.2354,2.7262,-1.2568,0.518,-0.4064,-41.475,9.6,-15.075,,0.02254299999999998,5.088865257599183,5.802529442983036,forward_fall
1.418129,0.0977,5.8735,2.4058,-1.2568,0.518,-0.4064,-41.475,9.6,-15.075,,0.0022379999999999622,6.347867451357188,6.1054704547206615,forward_fall
1.430369,0.0977,5.8735,2.4058,-1.2568,0.518,-0.4064,-41.475,9.6,-15.075,,0.012240000000000029,6.347867451357188,6.414150631153084,forward_fall
1.432811,-0.8759,7.2844,2.8824,-1.2568,0.518,-0.4064,-41.475,9.6,-15.075,,0.0024420000000000552,7.88276055262368,6.722570857122741,forward_fall
1.435445,-0.8759,7.2844,2.8824,-1.2568,0.518,-0.4064,-40.5,10.05,-15.9,,0.002634000000000025,7.88276055262368,7.025258898322072,forward_fall
1.449701,-0.8759,7.2844,2.8824,-1.2568,0.518,-0.4064,-40.5,10.05,-15.9,,0.014255999999999824,7.88276055262368,7.317605186951659,forward_fall
1.451933,-1.0657,7.5324,3.3212,-1.2568,0.518,-0.4064,-40.5,10.05,-15.9,,0.0022320000000000118,8.300791268909247,7.596127111125785,forward_fall
1.464107,-1.0657,7.5324,3.3212,-1.4593,0.6093,-0.5973,-40.5,10.05,-15.9,,0.01217400000000013,8.300791268909247,7.858642467662144,forward_fall
1.468869,-1.0657,7.5324,3.3212,-1.4593,0.6093,-0.5973,-40.5,10.05,-15.9,,0.004761999999999933,8.300791268909247,8.104341451769875,forward_fall
1.470263,-1.4321,7.822,3.5937,-1.4593,0.6093,-0.5973,-40.5,10.05,-15.9,,0.0013940000000001174,8.726355144044964,8.333754984852932,forward_fall
1.489027,-1.4321,7.822,3.5937,-1.4593,0.6093,-0.5973,-40.5,10.05,-15.9,,0.018764000000000003,8.726355144044964,8.548624356532764,forward_fall
1.491135,-1.1694,8.4998,3.3466,-1.4593,0.6093,-0.5973,-40.5,10.05,-15.9,,0.0021079999999999988,9.209442326221497,8.751682892331052,forward_fall
1.499102,-1.1694,8.4998,3.3466,-1.4593,0.6093,-0.5973,-39.45,9.9,-16.425,,0.007966999999999835,9.209442326221497,8.946364946944952,forward_fall
1.514673,-1.1694,8.4998,3.3466,-1.4593,0.6093,-0.5973,-39.45,9.9,-16.425,,0.015571000000000002,9.209442326221497,9.136461504903686,forward_fall
1.5168,-0.5248,8.4873,4.6596,-1.4593,0.6093,-0.5973,-39.45,9.9,-16.425,,0.00212699999999999,9.69647092967333,9.32574546342943,forward_fall
1.530315,-0.5248,8.4873,4.6596,-1.4593,0.6093,-0.5973,-39.45,9.9,-16.425,,0.013515000000000166,9.69647092967333,9.517593309929397,forward_fall
1.532292,-0.25,7.4269,5.5455,-1.4593,0.6093,-0.5973,-39.45,9.9,-16.425,,0.0019769999999998955,9.272211918415152,9.714633199261227,forward_fall
1.534099,-0.25,7.4269,5.5455,-2.03,0.7645,-0.7095,-39.45,9.9,-16.425,,0.001807000000000114,9.272211918415152,9.918452157511572,forward_fall
1.547228,-0.25,7.4269,5.5455,-2.03,0.7645,-0.7095,-39.45,9.9,-16.425,,0.013128999999999946,9.272211918415152,10.129396733735618,forward_fall
1.549434,3.5199,3.2471,-1.2467,-2.03,0.7645,-0.7095,-39.45,9.9,-16.425,,0.0022059999999999302,4.948496267554417,10.346500584185126,forward_fall
1.56769,3.5199,3.2471,-1.2467,-2.03,0.7645,-0.7095,-39.45,9.9,-16.425,,0.01825600000000005,4.948496267554417,10.567566709615459,forward_fall
1.570752,3.6399,-5.9996,-9.7633,-2.03,0.7645,-0.7095,-39.45,9.9,-16.425,,0.003061999999999898,12.023564324275892,10.789417266415322,forward_fall
1.572983,3.6399,-5.9996,-9.7633,-2.03,0.7645,-0.7095,-39.75,9.75,-17.55,,0.002231000000000094,12.023564324275892,11.008296901541446,forward_fall
1.586461,3.6399,-5.9996,-9.7633,-2.03,0.7645,-0.7095,-39.75,9.75,-17.55,,0.013477999999999879,12.023564324275892,11.220380677020458,forward_fall
1.58847,-3.0501,-9.2031,-12.8514,-2.03,0.7645,-0.7095,-39.75,9.75,-17.55,,0.0020090000000001496,16.09840493899939,11.422307713358915,forward_fall
1.601299,-3.0501,-9.2031,-12.8514,-4.9695,0.8063,-0.5521,-39.75,9.75,-17.55,,0.01282899999999998,16.09840493899939,11.611648781847197,forward_fall
1.606162,-3.0501,-9.2031,-12.8514,-4.9695,0.8063,-0.5521,-39.75,9.75,-17.55,,0.004863000000000062,16.09840493899939,11.787223597288444,forward_fall
1.607921,-2.879,-8.7303,-11.2413,-4.9695,0.8063,-0.5521,-39.75,9.75,-17.55,,0.001758999999999844,14.5214876916933,11.949208898412992,forward_fall
1.620695,-2.879,-8.7303,-11.2413,-4.9695,0.8063,-0.5521,-39.75,9.75,-17.55,,0.012774000000000063,14.5214876916933,12.09901724216583,forward_fall
1.623839,-5.0073,-4.7397,-2.2678,-4.9695,0.8063,-0.5521,-39.75,9.75,-17.55,,0.0031440000000000357,7.258148952728925,12.23897186391242,forward_fall
1.636543,-5.0073,-4.7397,-2.2678,-4.9695,0.8063,-0.5521,-38.475,12.225,-18.15,,0.012704000000000049,7.258148952728925,12.371844628476003,forward_fall
1.645262,-5.0073,-4.7397,-2.2678,-4.9695,0.8063,-0.5521,-38.475,12.225,-18.15,,0.008718999999999921,7.258148952728925,12.500350089769945,forward_fall
1.6476,-11.3069,-1.3249,5.7054,-4.9695,0.8063,-0.5521,-38.475,12.225,-18.15,,0.0023379999999999512,12.733928568199211,12.626689209095632,forward_fall
1.665022,-11.3069,-1.3249,5.7054,-4.9695,0.8063,-0.5521,-38.475,12.225,-18.15,,0.01742200000000005,12.733928568199211,12.752210340894097,forward_fall
1.667784,-5.8692,-3.7688,-11.2374,-4.9695,0.8063,-0.5521,-38.475,12.225,-18.15,,0.002761999999999931,13.226130229209147,12.87721457762765,forward_fall
1.670986,-5.8692,-3.7688,-11.2374,-6.1002,-3.7143,-0.0255,-38.475,12.225,-18.15,,0.003202000000000149,13.226130229209147,13.000895533853141,forward_fall
1.684257,-5.8692,-3.7688,-11.2374,-6.1002,-3.7143,-0.0255,-38.475,12.225,-18.15,,0.01327099999999981,13.226130229209147,13.121381509656203,forward_fall
1.686694,-4.2942,-11.1812,-15.2234,-6.1002,-3.7143,-0.0255,-38.475,12.225,-18.15,,0.0024370000000000225,19.37037156690599,13.23584044197304,forward_fall
1.703839,-4.2942,-11.1812,-15.2234,-6.1002,-3.7143,-0.0255,-38.475,12.225,-18.15,,0.017145000000000188,19.37037156690599,13.340610480070252,forward_fall
1.705963,-4.6769,-7.6494,2.6812,-6.1002,-3.7143,-0.0255,-38.475,12.225,-18.15,,0.0021239999999997927,9.358180774595027,13.431331266408252,forward_fall
1.707494,-4.6769,-7.6494,2.6812,-6.1002,-3.7143,-0.0255,-39.75,16.65,-5.4,,0.0015310000000001711,9.358180774595027,13.503075537651943,forward_fall
1.72078,-4.6769,-7.6494,2.6812,-6.1002,-3.7143,-0.0255,-39.75,16.65,-5.4,,0.013285999999999909,9.358180774595027,13.550511278392065,forward_fall
1.72438,6.2812,0.5856,-6.5518,-6.1002,-3.7143,-0.0255,-39.75,16.65,-5.4,,0.0036000000000000476,9.095190159639325,13.568143523999032,forward_fall
1.738584,6.2812,0.5856,-6.5518,-1.653,-6.2839,1.01,-39.75,16.65,-5.4,,0.014203999999999883,9.095190159639325,13.550676929051352,forward_fall
1.748672,6.2812,0.5856,-6.5518,-1.653,-6.2839,1.01,-39.75,16.65,-5.4,,0.010088000000000097,9.095190159639325,13.493506218367166,forward_fall
1.750564,17.8543,2.5701,-13.065,-1.653,-6.2839,1.01,-39.75,16.65,-5.4,,0.0018920000000000048,22.27275617205917,13.393293727436465,forward_fall
1.763119,17.8543,2.5701,-13.065,-1.653,-6.2839,1.01,-39.75,16.65,-5.4,,0.012555000000000094,22.27275617205917,13.248545508895798,forward_fall
1.765068,16.1756,-1.529,6.0106,-1.653,-6.2839,1.01,-39.75,16.65,-5.4,,0.0019489999999999785,17.32383296848593,13.060066495836598,forward_fall
1.781936,16.1756,-1.529,6.0106,-1.653,-6.2839,1.01,-36.3,18.75,13.275,,0.016867999999999883,17.32383296848593,12.83117852465377,forward_fall
1.784022,16.1756,-1.529,6.0106,-1.653,-6.2839,1.01,-36.3,18.75,13.275,,0.0020860000000000323,17.32383296848593,12.56762754929517,forward_fall
1.785304,9.0799,0.8854,3.3339,-1.653,-6.2839,1.01,-36.3,18.75,13.275,,0.0012820000000000054,9.713053401479888,12.277172686338595,forward_fall
1.801756,9.0799,0.8854,3.3339,-1.653,-6.2839,1.01,-36.3,18.75,13.275,,0.01645199999999991,9.713053401479888,11.96891647826031,forward_fall
1.803775,5.2574,0.4946,0.2192,-1.653,-6.2839,1.01,-36.3,18.75,13.275,,0.002018999999999993,5.285161545307768,11.652486387035294,forward_fall
1.811141,5.2574,0.4946,0.2192,-0.9297,-1.468,0.6638,-36.3,18.75,13.275,,0.007365999999999984,5.285161545307768,11.337202836828668,forward_fall
1.830822,5.2574,0.4946,0.2192,-0.9297,-1.468,0.6638,-36.3,18.75,13.275,,0.01968100000000006,5.285161545307768,11.031364124344094,forward_fall
1.832593,7.296,-2.8806,-7.7406,-0.9297,-1.468,0.6638,-36.3,18.75,13.275,,0.001770999999999967,11.020270446772166,10.741744537314014,forward_fall
1.847194,7.296,-2.8806,-7.7406,-0.9297,-1.468,0.6638,-36.3,18.75,13.275,,0.014601000000000086,11.020270446772166,10.473348696569504,forward_fall
1.849509,10.0865,3.4767,-7.6615,-0.9297,-1.468,0.6638,-36.3,18.75,13.275,,0.002315000000000067,13.134820417120288,10.229408534155775,forward_fall
1.851956,10.0865,3.4767,-7.6615,-0.9297,-1.468,0.6638,-31.95,18.825,20.4,,0.002446999999999866,13.134820417120288,10.011566460608078,forward_fall
1.864914,10.0865,3.4767,-7.6615,-0.9297,-1.468,0.6638,-31.95,18.825,20.4,,0.012958000000000025,13.134820417120288,9.820169598701675,forward_fall
1.86685,-2.2857,3.7166,-5.508,-0.9297,-1.468,0.6638,-31.95,18.825,20.4,,0.0019359999999999378,7.026777643415223,9.654605410769735,forward_fall
1.880608,-2.2857,3.7166,-5.508,2.0761,2.8246,-1.1017,-31.95,18.825,20.4,,0.013758000000000159,7.026777643415223,9.513630117229672,forward_fall
1.885668,-2.2857,3.7166,-5.508,2.0761,2.8246,-1.1017,-31.95,18.825,20.4,,0.005059999999999842,7.026777643415223,9.395664749517781,forward_fall
1.887249,-10.703,2.1214,-6.9776,2.0761,2.8246,-1.1017,-31.95,18.825,20.4,,0.0015810000000000546,12.951503724278504,9.29904634492736,forward_fall
1.905626,-10.703,2.1214,-6.9776,2.0761,2.8246,-1.1017,-31.95,18.825,20.4,,0.018377000000000088,12.951503724278504,9.222218890894338,forward_fall
1.907312,-10.7898,-0.5244,-2.0996,2.0761,2.8246,-1.1017,-31.95,18.825,20.4,,0.0016859999999998543,11.004685345797034,9.163838952450773,forward_fall
1.916228,-10.7898,-0.5244,-2.0996,2.0761,2.8246,-1.1017,-34.8,18.225,14.1,,0.008916000000000146,11.004685345797034,9.122769777640048,forward_fall
1.920312,-10.7898,-0.5244,-2.0996,2.0761,2.8246,-1.1017,-34.8,18.225,14.1,,0.0040839999999999765,11.004685345797034,9.097952873181233,forward_fall
1.921569,-5.3897,-0.5272,-4.0456,2.0761,2.8246,-1.1017,-34.8,18.225,14.1,,0.0012570000000000636,6.759710444242416,9.088172524535338,forward_fall
1.945173,-5.3897,-0.5272,-4.0456,2.0761,2.8246,-1.1017,-34.8,18.225,14.1,,0.02360399999999996,6.759710444242416,9.091755745773767,forward_fall
1.948998,-4.0245,2.3562,-4.701,2.0761,2.8246,-1.1017,-34.8,18.225,14.1,,0.0038249999999999673,6.621758051303294,9.106268911198681,forward_fall
1.95195,-4.0245,2.3562,-4.701,1.8767,1.3287,-0.5151,-34.8,18.225,14.1,,0.0029520000000000657,6.621758051303294,9.128277458116958,forward_fall
1.970032,-4.0245,2.3562,-4.701,1.8767,1.3287,-0.5151,-34.8,18.225,14.1,,0.01808199999999993,6.621758051303294,9.153224960748343,forward_fall
1.974397,-2.1139,7.6099,-3.6852,1.8767,1.3287,-0.5151,-34.8,18.225,14.1,,0.004364999999999952,8.7154948373572,9.175465863161635,forward_fall
1.985506,-2.1139,7.6099,-3.6852,1.8767,1.3287,-0.5151,-34.8,18.225,14.1,,0.011109000000000036,8.7154948373572,9.18845858351404,forward_fall
1.987296,0.1433,7.0007,-7.7883,1.8767,1.3287,-0.5151,-34.8,18.225,14.1,,0.0017899999999999583,10.473201624622721,9.185098816948996,forward_fall
1.988876,0.1433,7.0007,-7.7883,1.8767,1.3287,-0.5151,-36.075,18.15,7.875,,0.0015800000000001369,10.473201624622721,9.158151720459323,forward_fall
1.997939,0.1433,7.0007,-7.7883,1.8767,1.3287,-0.5151,-36.075,18.15,7.875,,0.009062999999999821,10.473201624622721,9.100729773959701,forward_fall
1.999604,-1.0664,5.0802,-8.5585,1.8767,1.3287,-0.5151,-36.075,18.15,7.875,,0.0016650000000000276,10.009673483685669,9.006761589940561,forward_fall
2.017052,-1.0664,5.0802,-8.5585,0.4102,1.3141,-0.3138,-36.075,18.15,7.875,,0.01744800000000013,10.009673483685669,8.871404191664048,forward_fall
2.020143,-1.0664,5.0802,-8.5585,0.4102,1.3141,-0.3138,-36.075,18.15,7.875,,0.003090999999999955,10.009673483685669,8.691363907895335,forward_fall
2.021248,-0.7738,4.5345,-6.0295,0.4102,1.3141,-0.3138,-36.075,18.15,7.875,,0.0011049999999999116,7.583886005208676,8.465105560557163,forward_fall
2.043082,-0.7738,4.5345,-6.0295,0.4102,1.3141,-0.3138,-36.075,18.15,7.875,,0.02183400000000013,7.583886005208676,8.192943541917039,forward_fall
2.047153,-2.6007,2.297,-7.4169,0.4102,1.3141,-0.3138,-36.075,18.15,7.875,,0.004070999999999714,8.188422015260327,7.877019577200714,forward_fall
2.056519,-2.6007,2.297,-7.4169,0.4102,1.3141,-0.3138,-36.6,17.85,5.475,,0.00936600000000043,8.188422015260327,7.5211784334845095,forward_fall
2.062831,-2.6007,2.297,-7.4169,0.4102,1.3141,-0.3138,-36.6,17.85,5.475,,0.006311999999999873,8.188422015260327,7.130754506604127,forward_fall
2.065213,-3.5915,0.9017,-6.1464,0.4102,1.3141,-0.3138,-36.6,17.85,5.475,,0.002381999999999884,7.175664993573767,6.7122822219682865,forward_fall
2.080469,-3.5915,0.9017,-6.1464,0.4102,1.3141,-0.3138,-36.6,17.85,5.475,,0.015255999999999936,7.175664993573767,6.273145432669526,forward_fall
2.082488,-2.9081,0.2033,-2.8615,0.4102,1.3141,-0.3138,-36.6,17.85,5.475,,0.002019000000000215,4.0849184508384,5.8211867782279105,forward_fall
2.090409,-2.9081,0.2033,-2.8615,-0.9963,1.3275,-0.2495,-36.6,17.85,5.475,,0.007921000000000067,4.0849184508384,5.364305270291158,forward_fall
2.104811,-2.9081,0.2033,-2.8615,-0.9963,1.3275,-0.2495,-36.6,17.85,5.475,,0.014402000000000026,4.0849184508384,4.910075377068689,forward_fall
2.10733,-2.3229,0.3384,-2.3136,-0.9963,1.3275,-0.2495,-36.6,17.85,5.475,,0.002518999999999938,3.2959253526134358,4.4654200803503326,forward_fall
2.120156,-2.3229,0.3384,-2.3136,-0.9963,1.3275,-0.2495,-36.6,17.85,5.475,,0.012826000000000004,3.2959253526134358,4.0363629146646565,forward_fall
2.12291,-2.2963,0.2858,-2.5012,-0.9963,1.3275,-0.2495,-36.6,17.85,5.475,,0.002753999999999923,3.407444316492934,3.627872255966378,forward_fall
2.130586,-2.2963,0.2858,-2.5012,-0.9963,1.3275,-0.2495,-37.95,16.65,3.375,,0.007676000000000016,3.407444316492934,3.2437985931608493,forward_fall
2.144324,-2.2963,0.2858,-2.5012,-0.9963,1.3275,-0.2495,-37.95,16.65,3.375,,0.013738000000000028,3.407444316492934,2.8868947038846398,forward_fall
2.147175,-1.9543,-0.0252,-1.8587,-0.9963,1.3275,-0.2495,-37.95,16.65,3.375,,0.002850999999999715,2.697163180083845,2.5589010889079193,forward_fall
2.164748,-1.9543,-0.0252,-1.8587,-0.6422,0.6757,0.0948,-37.95,16.65,3.375,,0.01757300000000006,2.697163180083845,2.2606755122459483,forward_fall
2.167419,-1.9543,-0.0252,-1.8587,-0.6422,0.6757,0.0948,-37.95,16.65,3.375,,0.002671000000000312,2.697163180083845,1.99234575705429,forward_fall
2.169056,-1.5176,0.1306,-0.606,-0.6422,0.6757,0.0948,-37.95,16.65,3.375,,0.0016369999999996665,1.639329777683551,1.7534675149205634,forward_fall
2.183098,-1.5176,0.1306,-0.606,-0.6422,0.6757,0.0948,-37.95,16.65,3.375,,0.014042000000000332,1.639329777683551,1.543173417503529,forward_fall
2.184674,-1.3136,0.3957,-0.5896,-0.6422,0.6757,0.0948,-37.95,16.65,3.375,,0.0015759999999995777,1.493235282867372,1.3603036442793017,forward_fall
2.195777,-1.3136,0.3957,-0.5896,-0.6422,0.6757,0.0948,-37.35,15.75,2.475,,0.011103000000000307,1.493235282867372,1.2035124064653877,forward_fall
2.202913,-1.3136,0.3957,-0.5896,-0.6422,0.6757,0.0948,-37.35,15.75,2.475,,0.007136000000000031,1.493235282867372,1.0713473831032112,forward_fall
2.204571,-0.5952,0.5935,-0.3355,-0.6422,0.6757,0.0948,-37.35,15.75,2.475,,0.0016579999999999373,0.9050223975129014,0.9623012525162834,forward_fall
2.220828,-0.5952,0.5935,-0.3355,-0.6422,0.6757,0.0948,-37.35,15.75,2.475,,0.016256999999999966,0.9050223975129014,0.8748366558267011,forward_fall
2.2225,-0.126,0.5434,-0.2758,-0.6422,0.6757,0.0948,-37.35,15.75,2.475,,0.0016720000000001178,0.6222742160816243,0.8073884678145193,forward_fall
2.227758,-0.126,0.5434,-0.2758,0.0454,0.1591,0.2071,-37.35,15.75,2.475,,0.005257999999999985,0.6222742160816243,0.7583494912555402,forward_fall
2.246753,-0.126,0.5434,-0.2758,0.0454,0.1591,0.2071,-37.35,15.75,2.475,,0.018994999999999873,0.6222742160816243,0.7260468659509386,forward_fall
2.248212,0.1206,0.5851,-0.2159,0.0454,0.1591,0.2071,-37.35,15.75,2.475,,0.001459000000000099,0.6352158530767317,0.7087163908699247,forward_fall
2.264416,0.1206,0.5851,-0.2159,0.0454,0.1591,0.2071,-37.35,15.75,2.475,,0.016204000000000107,0.6352158530767317,0.7044809678832272,forward_fall
2.265922,0.322,0.5241,-0.1541,0.0454,0.1591,0.2071,-37.35,15.75,2.475,,0.0015060000000000073,0.6341227168301101,0.7113380363577319,forward_fall
2.267251,0.322,0.5241,-0.1541,0.0454,0.1591,0.2071,-37.5,17.25,1.65,,0.0013289999999996915,0.6341227168301101,0.7271595740182278,forward_fall
2.281277,0.322,0.5241,-0.1541,0.0454,0.1591,0.2071,-37.5,17.25,1.65,,0.014026000000000316,0.6341227168301101,0.7497071170815478,forward_fall
2.283328,0.3354,0.5092,0.0009,0.0454,0.1591,0.2071,-37.5,17.25,1.65,,0.002050999999999803,0.6097365086658335,0.7766632251010414,forward_fall
2.295866,0.3354,0.5092,0.0009,0.2187,0.119,0.1008,-37.5,17.25,1.65,,0.01253800000000016,0.6097365086658335,0.8056797339494419,forward_fall
2.300605,0.3354,0.5092,0.0009,0.2187,0.119,0.1008,-37.5,17.25,1.65,,0.004738999999999827,0.6097365086658335,0.8344418582892053,forward_fall
2.301848,0.6749,0.4821,-0.0477,0.2187,0.119,0.1008,-37.5,17.25,1.65,,0.0012430000000001051,0.830774163055159,0.8607456147054792,forward_fall
2.32022,0.6749,0.4821,-0.0477,0.2187,0.119,0.1008,-37.5,17.25,1.65,,0.018371999999999833,0.830774163055159,0.8825841429016198,forward_fall
2.321893,0.9981,0.6376,-0.0755,0.2187,0.119,0.1008,-37.5,17.25,1.65,,0.0016730000000002576,1.1867761456989265,0.8982365277603829,forward_fall
2.335494,0.9981,0.6376,-0.0755,0.2187,0.119,0.1008,-37.5,17.25,1.65,,0.013600999999999974,1.1867761456989265,0.9063511260806422,forward_fall
2.337038,1.1335,0.3575,0.0905,0.2187,0.119,0.1008,-37.5,17.25,1.65,,0.0015439999999999898,1.1919810191441806,0.906014726365827,forward_fall
2.338478,1.1335,0.3575,0.0905,0.2187,0.119,0.1008,-36.675,17.85,0.675,,0.0014399999999996638,1.1919810191441806,0.8967995139116003,forward_fall
2.361132,1.1335,0.3575,0.0905,0.2187,0.119,0.1008,-36.675,17.85,0.675,,0.022654000000000174,1.1919810191441806,0.8787817967132024,forward_fall
2.362716,0.7777,0.2885,0.2848,0.2187,0.119,0.1008,-36.675,17.85,0.675,,0.0015839999999998078,0.8770180043761929,0.8525293938986909,forward_fall
2.364185,0.7777,0.2885,0.2848,0.0396,0.2072,-0.0583,-36.675,17.85,0.675,,0.0014690000000001646,0.8770180043761929,0.8190579340406358,forward_fall
2.382015,0.7777,0.2885,0.2848,0.0396,0.2072,-0.0583,-36.675,17.85,0.675,,0.017830000000000013,0.8770180043761929,0.7797594942469537,forward_fall
2.383999,0.5152,0.2179,-0.1515,0.0396,0.2072,-0.0583,-36.675,17.85,0.675,,0.001984000000000208,0.5795374880022862,0.7363095651422824,forward_fall
2.398681,0.5152,0.2179,-0.1515,0.0396,0.2072,-0.0583,-36.675,17.85,0.675,,0.01468199999999964,0.5795374880022862,0.6905600111104121,forward_fall
2.400676,0.2952,0.0546,-0.3407,0.0396,0.2072,-0.0583,-36.675,17.85,0.675,,0.001994999999999969,0.45409326134616884,0.6444265119885455,forward_fall
2.40526,0.2952,0.0546,-0.3407,0.0396,0.2072,-0.0583,-36.9,17.85,0.225,,0.0045840000000003656,0.45409326134616884,0.5997789716320678,forward_fall
2.418047,0.2952,0.0546,-0.3407,0.0396,0.2072,-0.0583,-36.9,17.85,0.225,,0.012786999999999882,0.45409326134616884,0.5583425916616803,forward_fall
2.420398,-0.0439,-0.1476,-0.239,0.0396,0.2072,-0.0583,-36.9,17.85,0.225,,0.002350999999999992,0.28431315481349084,0.5216158935081556,forward_fall
2.432676,-0.0439,-0.1476,-0.239,-0.0458,0.2248,-0.1197,-36.9,17.85,0.225,,0.012277999999999789,0.28431315481349084,0.4908102106048887,forward_fall
2.437498,-0.0439,-0.1476,-0.239,-0.0458,0.2248,-0.1197,-36.9,17.85,0.225,,0.004822000000000326,0.28431315481349084,0.4668132577631378,forward_fall
2.439187,0.0023,0.1807,-0.435,-0.0458,0.2248,-0.1197,-36.9,17.85,0.225,,0.0016889999999998295,0.4710443503535522,0.4501773291019456,forward_fall
2.456967,0.0023,0.1807,-0.435,-0.0458,0.2248,-0.1197,-36.9,17.85,0.225,,0.01778000000000013,0.4710443503535522,0.4411305086280676,forward_fall
2.459706,-0.29,-0.4722,-0.2507,-0.0458,0.2248,-0.1197,-36.9,17.85,0.225,,0.002739000000000047,0.6082132274128869,0.43960727500266605,forward_fall
2.477957,-0.29,-0.4722,-0.2507,-0.0458,0.2248,-0.1197,-37.35,17.25,-0.45,,0.018250999999999795,0.6082132274128869,0.4452935009893838,forward_fall
2.480257,-0.29,-0.4722,-0.2507,-0.0458,0.2248,-0.1197,-37.35,17.25,-0.45,,0.0022999999999999687,0.6082132274128869,0.45768042598091846,forward_fall
2.482098,-0.0829,-0.1981,-0.355,-0.0458,0.2248,-0.1197,-37.35,17.25,-0.45,,0.0018410000000002036,0.4148988069397163,0.47612273396820154,forward_fall
2.501561,-0.0829,-0.1981,-0.355,-0.0458,0.2248,-0.1197,-37.35,17.25,-0.45,,0.019463000000000008,0.4148988069397163,0.4998970908150816,forward_fall
2.503388,-0.149,-0.0733,-0.4978,-0.0458,0.2248,-0.1197,-37.35,17.25,-0.45,,0.001827000000000023,0.5247654047286273,0.5282588395891425,forward_fall
2.506816,-0.149,-0.0733,-0.4978,0.131,-0.2129,-0.0941,-37.35,17.25,-0.45,,0.0034279999999999866,0.5247654047286273,0.5604954639936566,forward_fall
2.520735,-0.149,-0.0733,-0.4978,0.131,-0.2129,-0.0941,-37.35,17.25,-0.45,,0.013919000000000015,0.5247654047286273,0.5959756663851982,forward_fall
2.522586,-0.154,-0.1125,-0.4916,0.131,-0.2129,-0.0941,-37.35,17.25,-0.45,,0.001850999999999825,0.5272976483922529,0.6341926367136406,forward_fall
2.54125,-0.154,-0.1125,-0.4916,0.131,-0.2129,-0.0941,-37.35,17.25,-0.45,,0.018663999999999792,0.5272976483922529,0.6747995862670269,forward_fall
2.543001,-0.4093,-0.0681,-1.0812,0.131,-0.2129,-0.0941,-37.35,17.25,-0.45,,0.001751000000000058,1.1580835634789055,0.71763498231888,forward_fall
2.549137,-0.4093,-0.0681,-1.0812,0.131,-0.2129,-0.0941,-37.35,17.1,-0.15,,0.006136000000000141,1.1580835634789055,0.7627342389977845,forward_fall
2.560981,-0.4093,-0.0681,-1.0812,0.131,-0.2129,-0.0941,-37.35,17.1,-0.15,,0.011843999999999966,1.1580835634789055,0.8103243769041597,forward_fall
2.562604,-0.5793,-0.3393,-0.6148,0.131,-0.2129,-0.0941,-37.35,17.1,-0.15,,0.00162299999999993,0.9103252275972583,0.8607991336641033,forward_fall
2.580974,-0.5793,-0.3393,-0.6148,0.2364,-0.4419,0.0002,-37.35,17.1,-0.15,,0.018369999999999997,0.9103252275972583,0.914674495444346,forward_fall
2.584629,-0.5793,-0.3393,-0.6148,0.2364,-0.4419,0.0002,-37.35,17.1,-0.15,,0.003655000000000186,0.9103252275972583,0.9725279232323367,forward_fall
2.586957,-0.4129,0.0487,-0.5571,0.2364,-0.4419,0.0002,-37.35,17.1,-0.15,,0.0023279999999998857,0.6951392018869315,1.0349274288387842,forward_fall
2.599065,-0.4129,0.0487,-0.5571,0.2364,-0.4419,0.0002,-37.35,17.1,-0.15,,0.012108000000000008,0.6951392018869315,1.1023582226390023,forward_fall
2.601095,0.1708,-0.0712,-1.3397,0.2364,-0.4419,0.0002,-37.35,17.1,-0.15,,0.0020299999999999763,1.3524193765249002,1.1751546420384813,forward_fall
2.613244,0.1708,-0.0712,-1.3397,0.2364,-0.4419,0.0002,-36.9,17.25,1.275,,0.012148999999999965,1.3524193765249002,1.2534436642486866,forward_fall
2.618751,0.1708,-0.0712,-1.3397,0.2364,-0.4419,0.0002,-36.9,17.25,1.275,,0.005507000000000151,1.3524193765249002,1.3371041862410689,forward_fall
2.62083,-0.1352,-0.1671,-1.1614,0.2364,-0.4419,0.0002,-36.9,17.25,1.275,,0.002079000000000164,1.181122944489692,1.4257444736785676,forward_fall
2.638082,-0.1352,-0.1671,-1.1614,0.2364,-0.4419,0.0002,-36.9,17.25,1.275,,0.0172519999999996,1.181122944489692,1.5186993681271221,forward_fall
2.640056,-0.0389,0.2746,-1.4186,0.2364,-0.4419,0.0002,-36.9,17.25,1.275,,0.0019740000000001423,1.4454564434807438,1.6150485413436775,forward_fall
2.644467,-0.0389,0.2746,-1.4186,0.1281,-0.5185,0.2057,-36.9,17.25,1.275,,0.004411000000000165,1.4454564434807438,1.7136562700055749,forward_fall
2.657572,-0.0389,0.2746,-1.4186,0.1281,-0.5185,0.2057,-36.9,17.25,1.275,,0.013104999999999922,1.4454564434807438,1.8132313277502563,forward_fall
2.65965,-0.1527,0.5757,-2.1033,0.1281,-0.5185,0.2057,-36.9,17.25,1.275,,0.0020780000000000243,2.1860051852637494,1.9124028916289197,forward_fall
2.676892,-0.1527,0.5757,-2.1033,0.1281,-0.5185,0.2057,-36.9,17.25,1.275,,0.01724199999999998,2.1860051852637494,2.009805429748241,forward_fall
2.679146,-0.413,0.3814,-2.4214,0.1281,-0.5185,0.2057,-36.9,17.25,1.275,,0.002253999999999756,2.4858022688862444,2.1041630700756326,forward_fall
2.680786,-0.413,0.3814,-2.4214,0.1281,-0.5185,0.2057,-37.65,17.7,1.8,,0.0016400000000000858,2.4858022688862444,2.1943627435294237,forward_fall
2.697196,-0.413,0.3814,-2.4214,0.1281,-0.5185,0.2057,-37.65,17.7,1.8,,0.016410000000000036,2.4858022688862444,2.2795059986340904,forward_fall
2.700676,-1.0492,0.2821,-2.7759,0.1281,-0.5185,0.2057,-37.65,17.7,1.8,,0.0034800000000001496,2.980943115861153,2.3589316595116996,forward_fall
2.711509,-1.0492,0.2821,-2.7759,0.0599,-0.7272,0.3231,-37.65,17.7,1.8,,0.01083299999999987,2.980943115861153,2.432204832218532,forward_fall
2.716072,-1.0492,0.2821,-2.7759,0.0599,-0.7272,0.3231,-37.65,17.7,1.8,,0.004563000000000095,2.980943115861153,2.499071763492247,forward_fall
2.717696,-1.3357,0.2014,-1.9152,0.0599,-0.7272,0.3231,-37.65,17.7,1.8,,0.0016240000000000698,2.343639795275716,2.55938476383467,forward_fall
2.736953,-1.3357,0.2014,-1.9152,0.0599,-0.7272,0.3231,-37.65,17.7,1.8,,0.01925700000000008,2.343639795275716,2.613006684823978,non_fall
2.738557,-0.9536,0.3578,-1.7612,0.0599,-0.7272,0.3231,-37.65,17.7,1.8,,0.0016039999999999388,2.0345022093868566,2.6597092906927045,non_fall
2.747151,-0.9536,0.3578,-1.7612,0.0599,-0.7272,0.3231,-36.6,18.3,3.375,,0.00859399999999999,2.0345022093868566,2.6990827058218816,non_fall
2.761241,-0.9536,0.3578,-1.7612,0.0599,-0.7272,0.3231,-36.6,18.3,3.375,,0.014089999999999936,2.0345022093868566,2.73047282008315,non_fall
2.76281,-0.6879,0.3158,-1.9902,0.0599,-0.7272,0.3231,-36.6,18.3,3.375,,0.0015689999999999316,2.129279711545667,2.75296002641229,non_fall
2.786462,-0.6879,0.3158,-1.9902,0.0599,-0.7272,0.3231,-36.6,18.3,3.375,,0.02365200000000023,2.129279711545667,2.76538670216637,non_fall
2.788586,-0.86,0.9139,-2.8403,0.0599,-0.7272,0.3231,-36.6,18.3,3.375,,0.0021239999999997927,3.1051758887380276,2.766433490019548,non_fall
2.791454,-0.86,0.9139,-2.8403,0.0286,-0.4907,0.492,-36.6,18.3,3.375,,0.0028679999999998707,3.1051758887380276,2.7547368850472855,non_fall
2.801908,-0.86,0.9139,-2.8403,0.0286,-0.4907,0.492,-36.6,18.3,3.375,,0.010454000000000185,3.1051758887380276,2.7290343487882236,non_fall
2.803958,-1.0213,1.3194,-2.2602,0.0286,-0.4907,0.492,-36.6,18.3,3.375,,0.0020500000000001073,2.8093369484631068,2.6883196282658606,non_fall
2.819636,-1.0213,1.3194,-2.2602,0.0286,-0.4907,0.492,-36.6,18.3,3.375,,0.01567799999999986,2.8093369484631068,2.6319907490177896,non_fall
2.82144,-1.2386,1.5086,-2.197,0.0286,-0.4907,0.492,-36.6,18.3,3.375,,0.0018039999999999168,2.9388455080184124,2.5599753968629697,non_fall
2.823739,-1.2386,1.5086,-2.197,0.0286,-0.4907,0.492,-36.45,19.35,3.825,,0.002299000000000273,2.9388455080184124,2.4728215573310823,non_fall
2.838779,-1.2386,1.5086,-2.197,0.0286,-0.4907,0.492,-36.45,19.35,3.825,,0.015039999999999942,2.9388455080184124,2.371744498498443,non_fall
2.840974,-1.1326,1.2447,-1.6528,0.0286,-0.4907,0.492,-36.45,19.35,3.825,,0.002194999999999947,2.3587727084227508,2.2586246673835513,non_fall
2.852832,-1.1326,1.2447,-1.6528,-0.5933,-0.6661,0.3966,-36.45,19.35,3.825,,0.011857999999999702,2.3587727084227508,2.1359552551906202,non_fall
2.85793,-1.1326,1.2447,-1.6528,-0.5933,-0.6661,0.3966,-36.45,19.35,3.825,,0.005098000000000269,2.3587727084227508,2.006742888614144,non_fall
2.859562,-0.8655,0.996,-0.8842,-0.5933,-0.6661,0.3966,-36.45,19.35,3.825,,0.0016319999999998558,1.5883689401395382,1.8743693866595128,non_fall
2.877525,-0.8655,0.996,-0.8842,-0.5933,-0.6661,0.3966,-36.45,19.35,3.825,,0.01796299999999995,1.5883689401395382,1.7424261597684925,non_fall
2.880025,-0.2255,0.8186,-0.6926,-0.5933,-0.6661,0.3966,-36.45,19.35,3.825,,0.0024999999999999467,1.095742200519812,1.6145353112266512,non_fall
2.887955,-0.2255,0.8186,-0.6926,-0.5933,-0.6661,0.3966,-36.15,20.1,5.25,,0.007929999999999993,1.095742200519812,1.4941724742047966,non_fall
2.897342,-0.2255,0.8186,-0.6926,-0.5933,-0.6661,0.3966,-36.15,20.1,5.25,,0.009387000000000256,1.095742200519812,1.3845054793506477,non_fall
2.899732,0.3656,0.6855,-0.753,-0.5933,-0.6661,0.3966,-36.15,20.1,5.25,,0.0023900000000001143,1.0819346606888975,1.2882601422987605,non_fall
2.91701,0.3656,0.6855,-0.753,-0.5933,-0.6661,0.3966,-36.15,20.1,5.25,,0.017277999999999683,1.0819346606888975,1.2076204751237303,non_fall
2.919636,0.2468,0.7674,-0.6135,-0.5933,-0.6661,0.3966,-36.15,20.1,5.25,,0.0026260000000002393,1.0130129564818013,1.1441664369324827,non_fall
2.921407,0.2468,0.7674,-0.6135,-0.8008,-0.6954,0.3447,-36.15,20.1,5.25,,0.001770999999999745,1.0130129564818013,1.0988487081997211,non_fall
2.936144,0.2468,0.7674,-0.6135,-0.8008,-0.6954,0.3447,-36.15,20.1,5.25,,0.014737000000000222,1.0130129564818013,1.0719971802854298,non_fall
2.938607,0.258,0.7231,-0.9739,-0.8008,-0.6954,0.3447,-36.15,20.1,5.25,,0.002463000000000104,1.240128549788287,1.0633578033484985,non_fall
2.955865,0.258,0.7231,-0.9739,-0.8008,-0.6954,0.3447,-36.15,20.1,5.25,,0.017257999999999996,1.240128549788287,1.072150999677935,non_fall
2.958232,0.3853,0.6553,-1.1491,-0.8008,-0.6954,0.3447,-36.15,20.1,5.25,,0.002367000000000008,1.377789893271104,1.0971440949423386,non_fall
2.960455,0.3853,0.6553,-1.1491,-0.8008,-0.6954,0.3447,-35.55,20.925,7.725,,0.002222999999999864,1.377789893271104,1.136730378569717,non_fall
2.97045,0.3853,0.6553,-1.1491,-0.8008,-0.6954,0.3447,-35.55,20.925,7.725,,0.009994999999999976,1.377789893271104,1.1890086121605536,non_fall
2.972118,-0.0788,1.0253,-0.4628,-0.8008,-0.6954,0.3447,-35.55,20.925,7.725,,0.0016680000000000028,1.127667224849601,1.2518588944828968,non_fall
2.990187,-0.0788,1.0253,-0.4628,-0.797,-0.7407,0.1332,-35.55,20.925,7.725,,0.018069000000000113,1.127667224849601,1.3230132696566403,non_fall
3.000984,-0.0788,1.0253,-0.4628,-0.797,-0.7407,0.1332,-35.55,20.925,7.725,,0.010796999999999723,1.127667224849601,1.4001215969206844,non_fall
3.002992,-0.39,1.2809,-0.7882,-0.797,-0.7407,0.1332,-35.55,20.925,7.725,,0.0020080000000000098,1.5537258606330784,1.4808142472148935,non_fall
3.014767,-0.39,1.2809,-0.7882,-0.797,-0.7407,0.1332,-35.55,20.925,7.725,,0.011775000000000091,1.5537258606330784,1.5627628542471403,non_fall
3.017325,-0.9833,1.3286,-0.5314,-0.797,-0.7407,0.1332,-35.55,20.925,7.725,,0.0025580000000000602,1.7362150817223077,1.6437390693783538,non_fall
3.027119,-0.9833,1.3286,-0.5314,-0.797,-0.7407,0.1332,-35.175,21.225,10.575,,0.009793999999999858,1.7362150817223077,1.7216699513550031,non_fall
3.035089,-0.9833,1.3286,-0.5314,-0.797,-0.7407,0.1332,-35.175,21.225,10.575,,0.007970000000000255,1.7362150817223077,1.7946879282715247,non_fall
3.03694,-1.1504,1.714,0.206,-0.797,-0.7407,0.1332,-35.175,21.225,10.575,,0.001850999999999825,2.0745245623997803,1.861173243231854,non_fall
3.053946,-1.1504,1.714,0.206,-0.797,-0.7407,0.1332,-35.175,21.225,10.575,,0.017005999999999855,2.0745245623997803,1.919787119143093,non_fall
3.055869,0.175,1.9794,-0.557,-0.797,-0.7407,0.1332,-35.175,21.225,10.575,,0.001923000000000119,2.063709853637376,1.9694943774759857,non_fall
3.064098,0.175,1.9794,-0.557,-0.6367,-1.1592,0.2982,-35.175,21.225,10.575,,0.008229000000000042,2.063709853637376,2.009575042044173,non_fall
3.070927,0.175,1.9794,-0.557,-0.6367,-1.1592,0.2982,-35.175,21.225,10.575,,0.006829000000000196,2.063709853637376,2.039625651204656,non_fall
3.072628,0.7101,1.7375,-0.3862,-0.6367,-1.1592,0.2982,-35.175,21.225,10.575,,0.0017009999999997305,1.9163242679671935,2.0595523706448606,non_fall
3.09613,0.7101,1.7375,-0.3862,-0.6367,-1.1592,0.2982,-35.175,21.225,10.575,,0.023502000000000134,1.9163242679671935,2.0695591247175598,non_fall
3.099371,1.1238,0.8382,0.4046,-0.6367,-1.1592,0.2982,-35.175,21.225,10.575,,0.0032410000000000494,1.4591801944927842,2.0701344764018117,non_fall
3.101493,1.1238,0.8382,0.4046,-0.6367,-1.1592,0.2982,-34.35,21.225,13.8,,0.0021219999999999573,1.4591801944927842,2.0620405492447205,non_fall
3.11774,1.1238,0.8382,0.4046,-0.6367,-1.1592,0.2982,-34.35,21.225,13.8,,0.0162469999999999,1.4591801944927842,2.0463054712095743,non_fall
3.12054,2.7363,-0.6463,0.9398,-0.6367,-1.1592,0.2982,-34.35,21.225,13.8,,0.0028000000000001357,2.964500871985029,2.0242173054554073,non_fall
3.131937,2.7363,-0.6463,0.9398,-0.6828,-1.2425,0.0539,-34.35,21.225,13.8,,0.011397000000000101,2.964500871985029,1.9973127322643525,non_fall
3.137195,2.7363,-0.6463,0.9398,-0.6828,-1.2425,0.0539,-34.35,21.225,13.8,,0.005257999999999985,2.964500871985029,1.9673498796022992,non_fall
3.139501,2.4132,-0.2504,0.669,-0.6828,-1.2425,0.0539,-34.35,21.225,13.8,,0.0023059999999999192,2.516703280086868,1.9362544551019072,non_fall
3.156773,2.4132,-0.2504,0.669,-0.6828,-1.2425,0.0539,-34.35,21.225,13.8,,0.017271999999999732,2.516703280086868,1.9060331075984687,non_fall
3.158308,0.9466,-0.0204,0.3651,-0.6828,-1.2425,0.0539,-34.35,21.225,13.8,,0.001535000000000064,1.0147737334007025,1.8786564233914387,non_fall
3.166946,0.9466,-0.0204,0.3651,-0.6828,-1.2425,0.0539,-33.0,21.0,17.85,,0.008637999999999924,1.0147737334007025,1.8559230338423407,non_fall
3.177207,0.9466,-0.0204,0.3651,-0.6828,-1.2425,0.0539,-33.0,21.0,17.85,,0.010261000000000298,1.0147737334007025,1.8393227654736977,non_fall
3.179874,1.1354,-0.921,0.4669,-0.6828,-1.2425,0.0539,-33.0,21.0,17.85,,0.002666999999999753,1.5347213981697134,1.8299183673231982,non_fall
3.195252,1.1354,-0.921,0.4669,-0.6828,-1.2425,0.0539,-33.0,21.0,17.85,,0.015378000000000114,1.5347213981697134,1.8282617612043828,non_fall
3.197978,1.5107,-0.8498,0.9462,-0.6828,-1.2425,0.0539,-33.0,21.0,17.85,,0.002726000000000006,1.9747579522564278,1.8343539067253105,non_fall
3.20045,1.5107,-0.8498,0.9462,-0.0828,-0.2566,-0.146,-33.0,21.0,17.85,,0.0024720000000000297,1.9747579522564278,1.8476502336863554,non_fall
3.21521,1.5107,-0.8498,0.9462,-0.0828,-0.2566,-0.146,-33.0,21.0,17.85,,0.014759999999999884,1.9747579522564278,1.8671083473826202,non_fall
3.217133,1.244,-0.4607,0.4677,-0.0828,-0.2566,-0.146,-33.0,21.0,17.85,,0.001923000000000119,1.4066000782027563,1.8912719953583597,non_fall
3.234492,1.244,-0.4607,0.4677,-0.0828,-0.2566,-0.146,-33.0,21.0,17.85,,0.017358999999999902,1.4066000782027563,1.9183844796694418,non_fall
3.236526,1.6519,-0.1976,0.8189,-0.0828,-0.2566,-0.146,-33.0,21.0,17.85,,0.0020340000000000913,1.8542967885427617,1.9465243892434976,non_fall
3.238572,1.6519,-0.1976,0.8189,-0.0828,-0.2566,-0.146,-32.475,20.25,19.35,,0.0020459999999999923,1.8542967885427617,1.9737552457802114,non_fall
3.254132,1.6519,-0.1976,0.8189,-0.0828,-0.2566,-0.146,-32.475,20.25,19.35,,0.015559999999999796,1.8542967885427617,1.9982779449599233,non_fall
3.256461,3.132,-0.5455,0.9568,-0.0828,-0.2566,-0.146,-32.475,20.25,19.35,,0.0023290000000000255,3.3200091099272604,2.018571614272006,non_fall
3.26874,3.132,-0.5455,0.9568,0.2005,0.7223,-0.381,-32.475,20.25,19.35,,0.012279000000000373,3.3200091099272604,2.0335062403909907,non_fall
3.270964,3.132,-0.5455,0.9568,0.2005,0.7223,-0.381,-32.475,20.25,19.35,,0.0022240000000000038,3.3200091099272604,2.0424108229934688,non_fall
3.272636,1.7915,-1.0915,0.6962,0.2005,0.7223,-0.381,-32.475,20.25,19.35,,0.0016719999999996737,2.210325528061421,2.0450854416954307,non_fall
3.29295,1.7915,-1.0915,0.6962,0.2005,0.7223,-0.381,-32.475,20.25,19.35,,0.020313999999999943,2.210325528061421,2.0417547383009595,non_fall
3.294957,0.1865,-0.9529,0.3668,0.2005,0.7223,-0.381,-32.475,20.25,19.35,,0.002007000000000314,1.0379512994355755,2.032971696075991,non_fall
3.306021,0.1865,-0.9529,0.3668,0.2005,0.7223,-0.381,-33.675,20.25,17.325,,0.01106399999999974,1.0379512994355755,2.0194903893987113,non_fall
3.314642,0.1865,-0.9529,0.3668,0.2005,0.7223,-0.381,-33.675,20.25,17.325,,0.008621000000000212,1.0379512994355755,2.0021313373580605,non_fall
3.316695,-0.2357,-0.7391,1.3698,0.2005,0.7223,-0.381,-33.675,20.25,17.325,,0.0020530000000000825,1.574222138073277,1.9816619827830257,non_fall
3.332039,-0.2357,-0.7391,1.3698,0.2005,0.7223,-0.381,-33.675,20.25,17.325,,0.015343999999999802,1.574222138073277,1.958708521843579,non_fall
3.334062,1.4588,-0.7596,1.6802,0.2005,0.7223,-0.381,-33.675,20.25,17.325,,0.002022999999999886,2.3512042956748784,1.9337063191378707,non_fall
3.336847,1.4588,-0.7596,1.6802,0.3894,1.0511,-0.2906,-33.675,20.25,17.325,,0.0027850000000002595,2.3512042956748784,1.9068874717731215,non_fall
3.351877,1.4588,-0.7596,1.6802,0.3894,1.0511,-0.2906,-33.675,20.25,17.325,,0.015029999999999877,2.3512042956748784,1.878298084858797,non_fall
3.353494,0.8825,-0.7316,0.9512,0.3894,1.0511,-0.2906,-33.675,20.25,17.325,,0.0016169999999999796,1.4895725057881541,1.8478355714890693,non_fall
3.376676,0.8825,-0.7316,0.9512,0.3894,1.0511,-0.2906,-33.675,20.25,17.325,,0.023181999999999814,1.4895725057881541,1.815297383741948,non_fall
3.380555,1.3725,-0.351,1.301,0.3894,1.0511,-0.2906,-33.675,20.25,17.325,,0.00387900000000041,1.9234235752948439,1.7804351778024279,non_fall
3.386473,1.3725,-0.351,1.301,0.3894,1.0511,-0.2906,-35.475,19.65,14.25,,0.005917999999999868,1.9234235752948439,1.7430102774325393,non_fall
3.396481,1.3725,-0.351,1.301,0.3894,1.0511,-0.2906,-35.475,19.65,14.25,,0.010008000000000017,1.9234235752948439,1.7028465052693134,non_fall
3.399164,1.3023,-0.1705,1.1758,0.3894,1.0511,-0.2906,-35.475,19.65,14.25,,0.002682999999999769,1.7628276092686999,1.6598759307896482,non_fall
3.41105,1.3023,-0.1705,1.1758,0.4186,1.2519,-0.2582,-35.475,19.65,14.25,,0.011886000000000063,1.7628276092686999,1.6141732399393467,non_fall
3.415138,1.3023,-0.1705,1.1758,0.4186,1.2519,-0.2582,-35.475,19.65,14.25,,0.0040879999999998695,1.7628276092686999,1.5659756813166643,non_fall
3.416456,1.211,0.0012,0.8174,0.4186,1.2519,-0.2582,-35.475,19.65,14.25,,0.0013180000000003744,1.4610493489269964,1.5156873902472203,non_fall
3.435508,1.211,0.0012,0.8174,0.4186,1.2519,-0.2582,-35.475,19.65,14.25,,0.019051999999999847,1.4610493489269964,1.4638687770986327,non_fall
3.437134,0.7478,0.1166,0.9574,0.4186,1.2519,-0.2582,-35.475,19.65,14.25,,0.0016259999999999053,1.2204159782631494,1.4112132787634946,non_fall
3.445713,0.7478,0.1166,0.9574,0.4186,1.2519,-0.2582,-36.75,19.5,11.625,,0.008579000000000114,1.2204159782631494,1.3585148466184327,non_fall
3.45538,0.7478,0.1166,0.9574,0.4186,1.2519,-0.2582,-36.75,19.5,11.625,,0.00966699999999987,1.2204159782631494,1.3066298217048524,non_fall
3.45803,-0.0973,-0.1024,1.4387,0.4186,1.2519,-0.2582,-36.75,19.5,11.625,,0.002650000000000041,1.4456177710584495,1.2564362892960816,non_fall
3.470224,-0.0973,-0.1024,1.4387,0.4186,1.2519,-0.2582,-36.75,19.5,11.625,,0.012194000000000038,1.4456177710584495,1.2087929506135096,non_fall
3.472205,-0.3419,-0.0816,1.0049,0.4186,1.2519,-0.2582,-36.75,19.5,11.625,,0.0019810000000002326,1.0646023576904196,1.1644986557752,non_fall
3.479155,-0.3419,-0.0816,1.0049,0.3958,1.47,-0.1935,-36.75,19.5,11.625,,0.00694999999999979,1.0646023576904196,1.1242536050691316,non_fall
3.497483,-0.3419,-0.0816,1.0049,0.3958,1.47,-0.1935,-36.75,19.5,11.625,,0.0183279999999999,1.0646023576904196,1.0886238559646775,non_fall
3.499792,-0.1374,-0.0348,0.8042,0.3958,1.47,-0.1935,-36.75,19.5,11.625,,0.0023089999999998945,0.8165950281504291,1.0580115386513773,non_fall
3.513536,-0.1374,-0.0348,0.8042,0.3958,1.47,-0.1935,-36.75,19.5,11.625,,0.013744000000000423,0.8165950281504291,1.0326334051747945,non_fall
3.516519,-0.5655,0.4616,0.7195,0.3958,1.47,-0.1935,-36.75,19.5,11.625,,0.002982999999999958,1.024961004136255,1.0125097773390754,non_fall
3.518941,-0.5655,0.4616,0.7195,0.3958,1.47,-0.1935,-37.95,19.425,7.275,,0.002421999999999702,1.024961004136255,0.9974647361935006,non_fall
3.533361,-0.5655,0.4616,0.7195,0.3958,1.47,-0.1935,-37.95,19.425,7.275,,0.014420000000000321,1.024961004136255,0.9871368438048015,non_fall
3.535666,-0.3283,0.4572,0.9527,0.3958,1.47,-0.1935,-37.95,19.425,7.275,,0.0023049999999997794,1.1065486975275873,0.9809983287588032,non_fall
3.547523,-0.3283,0.4572,0.9527,0.2465,1.3594,-0.0997,-37.95,19.425,7.275,,0.011857000000000006,1.1065486975275873,0.9783799625222501,non_fall
3.552436,-0.3283,0.4572,0.9527,0.2465,1.3594,-0.0997,-37.95,19.425,7.275,,0.004913000000000167,1.1065486975275873,0.9784989219878233,non_fall
3.554551,-0.3249,0.1455,0.9285,0.2465,1.3594,-0.0997,-37.95,19.425,7.275,,0.002114999999999867,0.9944056063800123,0.9804876241293962,non_fall
3.570661,-0.3249,0.1455,0.9285,0.2465,1.3594,-0.0997,-37.95,19.425,7.275,,0.016109999999999847,0.9944056063800123,0.9834226084406511,non_fall
3.573041,-0.5977,0.0685,0.46,0.2465,1.3594,-0.0997,-37.95,19.425,7.275,,0.0023800000000000487,0.7573226128936069,0.9863537426969974,non_fall
3.586309,-0.5977,0.0685,0.46,0.2465,1.3594,-0.0997,-39.6,20.25,3.45,,0.013268000000000058,0.7573226128936069,0.9883349505432519,non_fall
3.593655,-0.5977,0.0685,0.46,0.2465,1.3594,-0.0997,-39.6,20.25,3.45,,0.007346000000000075,0.7573226128936069,0.9884578972587664,non_fall
3.59648,-0.9199,0.4033,0.7682,0.2465,1.3594,-0.0997,-39.6,20.25,3.45,,0.0028250000000000774,1.2645149821176498,0.9858893621741132,non_fall
3.612976,-0.9199,0.4033,0.7682,0.2465,1.3594,-0.0997,-39.6,20.25,3.45,,0.016496000000000066,1.2645149821176498,0.9799115323073316,non_fall
3.617516,0.2499,0.4066,0.7096,0.2465,1.3594,-0.0997,-39.6,20.25,3.45,,0.0045399999999999885,0.8551641538324675,0.9699629258384637,non_fall
3.62094,0.2499,0.4066,0.7096,0.2155,1.1136,0.0437,-39.6,20.25,3.45,,0.0034239999999998716,0.8551641538324675,0.9556770289826932,non_fall
3.635789,0.2499,0.4066,0.7096,0.2155,1.1136,0.0437,-39.6,20.25,3.45,,0.01484899999999989,0.8551641538324675,0.9369162205861871,non_fall
3.638249,0.0717,0.8475,0.309,0.2155,1.1136,0.0437,-39.6,20.25,3.45,,0.0024600000000001288,0.9049188582408922,0.9137993875549555,non_fall
3.655414,0.0717,0.8475,0.309,0.2155,1.1136,0.0437,-39.6,20.25,3.45,,0.017164999999999875,0.9049188582408922,0.8867219086710122,non_fall
3.658097,-0.5647,0.8668,0.1085,0.2155,1.1136,0.0437,-39.6,20.25,3.45,,0.002683000000000213,1.0401925687102365,0.8563662961721942,non_fall
3.660811,-0.5647,0.8668,0.1085,0.2155,1.1136,0.0437,-38.55,20.1,-0.075,,0.002713999999999661,1.0401925687102365,0.8237012838623751,non_fall
3.671655,-0.5647,0.8668,0.1085,0.2155,1.1136,0.0437,-38.55,20.1,-0.075,,0.010844000000000076,1.0401925687102365,0.7899671262636432,non_fall
3.674109,0.1994,-0.0575,0.6398,0.2155,1.1136,0.0437,-38.55,20.1,-0.075,,0.0024540000000001783,0.6726147857429243,0.7566456424848723,non_fall
3.689247,0.1994,-0.0575,0.6398,0.2269,1.2535,0.0788,-38.55,20.1,-0.075,,0.015137999999999874,0.6726147857429243,0.7254150575721589,non_fall
3.698273,0.1994,-0.0575,0.6398,0.2269,1.2535,0.0788,-38.55,20.1,-0.075,,0.009025999999999978,0.6726147857429243,0.6980914913375356,non_fall
3.700026,0.5285,0.2986,-0.2429,0.2269,1.2535,0.0788,-38.55,20.1,-0.075,,0.0017529999999998935,0.653815432671943,0.6765603289738633,non_fall
3.718741,0.5285,0.2986,-0.2429,0.2269,1.2535,0.0788,-38.55,20.1,-0.075,,0.01871500000000026,0.653815432671943,0.6627012816394665,non_fall
3.719997,-0.3012,0.4583,-0.4027,0.2269,1.2535,0.0788,-38.55,20.1,-0.075,,0.0012560000000001459,0.6803878452765011,0.6583108678909552,non_fall
3.72794,-0.3012,0.4583,-0.4027,0.2269,1.2535,0.0788,-39.3,20.325,-3.225,,0.00794299999999959,0.6803878452765011,0.6650257455684724,non_fall
3.734302,-0.3012,0.4583,-0.4027,0.2269,1.2535,0.0788,-39.3,20.325,-3.225,,0.006362000000000201,0.6803878452765011,0.6842500965334797,non_fall
3.735357,0.3231,-0.243,0.3097,0.2269,1.2535,0.0788,-39.3,20.325,-3.225,,0.0010550000000000281,0.509270753136286,0.7170901847158927,non_fall
3.753286,0.3231,-0.243,0.3097,0.2269,1.2535,0.0788,-39.3,20.325,-3.225,,0.017929000000000084,0.509270753136286,0.7642991588353862,non_fall
3.754421,0.6649,-0.2236,-0.5955,0.2269,1.2535,0.0788,-39.3,20.325,-3.225,,0.001134999999999664,0.9201680390015728,0.8262348737321343,non_fall
3.76279,0.6649,-0.2236,-0.5955,0.4824,1.4569,0.0718,-39.3,20.325,-3.225,,0.00836900000000007,0.9201680390015728,0.9028326839393915,non_fall
3.771145,0.6649,-0.2236,-0.5955,0.4824,1.4569,0.0718,-39.3,20.325,-3.225,,0.008355000000000334,0.9201680390015728,0.9935939128417238,non_fall
3.772479,-0.1844,0.0793,-0.9937,0.4824,1.4569,0.0718,-39.3,20.325,-3.225,,0.0013339999999999463,1.0137709504616907,1.0975895171522416,non_fall
3.793596,-0.1844,0.0793,-0.9937,0.4824,1.4569,0.0718,-39.3,20.325,-3.225,,0.02111699999999983,1.0137709504616907,1.2134777140861983,non_fall
3.795351,-0.7576,-1.0222,-0.9861,0.4824,1.4569,0.0718,-39.3,20.325,-3.225,,0.001755000000000173,1.609734080523861,1.339533847284981,non_fall
3.796886,-0.7576,-1.0222,-0.9861,0.4824,1.4569,0.0718,-38.55,20.55,-8.25,,0.001535000000000064,1.609734080523861,1.4736901958578899,non_fall
3.812887,-0.7576,-1.0222,-0.9861,0.4824,1.4569,0.0718,-38.55,20.55,-8.25,,0.01600099999999971,1.609734080523861,1.613582871075804,non_fall
3.814613,0.0144,-1.3952,-1.3674,0.4824,1.4569,0.0718,-38.55,20.55,-8.25,,0.0017260000000001163,1.9536051699358292,1.7566028777662865,non_fall
3.828861,0.0144,-1.3952,-1.3674,0.8027,1.2567,0.1168,-38.55,20.55,-8.25,,0.014247999999999816,1.9536051699358292,1.8999490949334124,non_fall
3.834273,0.0144,-1.3952,-1.3674,0.8027,1.2567,0.1168,-38.55,20.55,-8.25,,0.005412000000000194,1.9536051699358292,2.0406820934708336,non_fall
3.835513,-0.4286,-0.5894,-2.27,0.8027,1.2567,0.1168,-38.55,20.55,-8.25,,0.0012400000000001299,2.3841120611246445,2.175778936180385,non_fall
3.852236,-0.4286,-0.5894,-2.27,0.8027,1.2567,0.1168,-38.55,20.55,-8.25,,0.01672299999999982,2.3841120611246445,2.3021901569715544,non_fall
3.855324,-1.3838,-1.0191,-1.1462,0.8027,1.2567,0.1168,-38.55,20.55,-8.25,,0.0030879999999999797,2.0657303042749797,2.416900956055256,non_fall
3.870413,-1.3838,-1.0191,-1.1462,0.8027,1.2567,0.1168,-37.65,20.025,-12.525,,0.01508900000000013,2.0657303042749797,2.516999290301808,non_fall
3.873147,-1.3838,-1.0191,-1.1462,0.8027,1.2567,0.1168,-37.65,20.025,-12.525,,0.002733999999999792,2.0657303042749797,2.5997537026294197,non_fall
3.875085,-0.8483,-2.4747,-0.6004,0.8027,1.2567,0.1168,-37.65,20.025,-12.525,,0.0019379999999999953,2.684070256159477,2.6627027165298607,non_fall
3.894853,-0.8483,-2.4747,-0.6004,0.8027,1.2567,0.1168,-37.65,20.025,-12.525,,0.019768000000000008,2.684070256159477,2.703754957524547,non_fall
3.897144,-0.6303,-2.3829,-1.4434,0.8027,1.2567,0.1168,-37.65,20.025,-12.525,,0.002291000000000043,2.856377786638175,2.72129543896552,non_fall
3.899649,-0.6303,-2.3829,-1.4434,0.9042,0.7799,0.2081,-37.65,20.025,-12.525,,0.0025050000000002015,2.856377786638175,2.7142900629770117,non_fall
3.914873,-0.6303,-2.3829,-1.4434,0.9042,0.7799,0.2081,-37.65,20.025,-12.525,,0.015223999999999904,2.856377786638175,2.6823784558762496,non_fall
3.916554,-1.3916,-2.2062,-1.1995,0.9042,0.7799,0.2081,-37.65,20.025,-12.525,,0.0016810000000000436,2.8710049198843253,2.625944970222217,non_fall
3.934355,-1.3916,-2.2062,-1.1995,0.9042,0.7799,0.2081,-37.65,20.025,-12.525,,0.017800999999999956,2.8710049198843253,2.546158624740718,non_fall
3.935995,-0.3047,-2.7316,-0.2258,0.9042,0.7799,0.2081,-37.65,20.025,-12.525,,0.0016400000000000858,2.757800988106285,2.4449745067377715,non_fall
3.937734,-0.3047,-2.7316,-0.2258,0.9042,0.7799,0.2081,-36.975,20.55,-16.275,,0.001738999999999713,2.757800988106285,2.325091566713287,non_fall
3.953232,-0.3047,-2.7316,-0.2258,0.9042,0.7799,0.2081,-36.975,20.55,-16.275,,0.015498000000000012,2.757800988106285,2.1898647896159256,non_fall
3.955309,-0.2487,-1.8355,-0.6525,0.9042,0.7799,0.2081,-36.975,20.55,-16.275,,0.0020770000000003286,1.9638401640663121,2.043173451280469,non_fall
3.968139,-0.2487,-1.8355,-0.6525,1.1716,0.0379,0.2981,-36.975,20.55,-16.275,,0.012829999999999675,1.9638401640663121,1.889251443949233,non_fall
3.970927,-0.2487,-1.8355,-0.6525,1.1716,0.0379,0.2981,-36.975,20.55,-16.275,,0.0027880000000002347,1.9638401640663121,1.7324899976449113,non_fall
3.972426,-0.2577,-0.8942,-0.5283,1.1716,0.0379,0.2981,-36.975,20.55,-16.275,,0.001498999999999917,1.07009523875214,1.577226745094208,non_fall
3.992465,-0.2577,-0.8942,-0.5283,1.1716,0.0379,0.2981,-36.975,20.55,-16.275,,0.02003900000000014,1.07009523875214,1.4275373809111624,non_fall
3.995051,-0.1059,-0.4223,0.1802,1.1716,0.0379,0.2981,-36.975,20.55,-16.275,,0.002585999999999977,0.4711943760275583,1.2870469200301191,non_fall
4.006106,-0.1059,-0.4223,0.1802,1.1716,0.0379,0.2981,-36.375,20.025,-17.175,,0.011054999999999815,0.4711943760275583,1.158776468181153,non_fall
4.013113,-0.1059,-0.4223,0.1802,1.1716,0.0379,0.2981,-36.375,20.025,-17.175,,0.007006999999999763,0.4711943760275583,1.0450380449841994,non_fall
4.014631,-0.0264,-0.8773,0.2116,1.1716,0.0379,0.2981,-36.375,20.025,-17.175,,0.0015179999999999083,0.9028437350948391,0.9473843682811831,non_fall
4.031693,-0.0264,-0.8773,0.2116,1.1716,0.0379,0.2981,-36.375,20.025,-17.175,,0.017062000000000133,0.9028437350948391,0.8666135027309119,non_fall
4.033722,0.1791,-0.9602,0.4613,1.1716,0.0379,0.2981,-36.375,20.025,-17.175,,0.0020290000000002806,1.0802122661773472,0.8028214558208572,non_fall
4.03619,0.1791,-0.9602,0.4613,1.2405,-0.3792,0.3262,-36.375,20.025,-17.175,,0.002468000000000359,1.0802122661773472,0.7554907638601561,non_fall
4.051705,0.1791,-0.9602,0.4613,1.2405,-0.3792,0.3262,-36.375,20.025,-17.175,,0.015514999999999723,1.0802122661773472,0.7236007490173993,non_fall
4.054049,0.2899,-0.515,0.7737,1.2405,-0.3792,0.3262,-36.375,20.025,-17.175,,0.0023439999999999017,0.9735906223870482,0.7057453908631398,non_fall
4.070611,0.2899,-0.515,0.7737,1.2405,-0.3792,0.3262,-36.375,20.025,-17.175,,0.01656200000000041,0.9735906223870482,0.7002469652661245,non_fall
4.073223,0.4499,-0.1239,0.7065,1.2405,-0.3792,0.3262,-36.375,20.025,-17.175,,0.0026119999999991705,0.8467015235606938,0.705256912097078,non_fall
4.077669,0.4499,-0.1239,0.7065,1.2405,-0.3792,0.3262,-36.9,19.35,-18.3,,0.004446000000000616,0.8467015235606938,0.7188390380181517,non_fall
4.094327,0.4499,-0.1239,0.7065,1.2405,-0.3792,0.3262,-36.9,19.35,-18.3,,0.016657999999999618,0.8467015235606938,0.7390335818048104,non_fall
4.096764,0.0688,0.2577,0.521,1.2405,-0.3792,0.3262,-36.9,19.35,-18.3,,0.0024370000000004666,0.5853065265311844,0.7639035427815972,non_fall
4.105273,0.0688,0.2577,0.521,1.3692,-0.3329,0.3227,-36.9,19.35,-18.3,,0.0085090000000001,0.5853065265311844,0.7915668298682051,non_fall
4.111405,0.0688,0.2577,0.521,1.3692,-0.3329,0.3227,-36.9,19.35,-18.3,,0.006132000000000026,0.5853065265311844,0.820219059217124,non_fall
4.112551,-0.306,0.6124,0.0967,1.3692,-0.3329,0.3227,-36.9,19.35,-18.3,,0.0011459999999994253,0.6913903745352549,0.8481519886097232,non_fall
4.131421,-0.306,0.6124,0.0967,1.3692,-0.3329,0.3227,-36.9,19.35,-18.3,,0.01886999999999972,0.6913903745352549,0.8737715546816325,non_fall
4.13292,-0.5265,0.9026,0.0859,1.3692,-0.3329,0.3227,-36.9,19.35,-18.3,,0.0014990000000008052,1.0484597369474902,0.8956175801521844,non_fall
4.146098,-0.5265,0.9026,0.0859,1.3692,-0.3329,0.3227,-36.45,18.3,-18.15,,0.013177999999999912,1.0484597369474902,0.9123850561293567,non_fall
4.148474,-0.5265,0.9026,0.0859,1.3692,-0.3329,0.3227,-36.45,18.3,-18.15,,0.0023759999999999337,1.0484597369474902,0.9229451594162197,non_fall
4.150032,-0.5596,0.9533,0.0349,1.3692,-0.3329,0.3227,-36.45,18.3,-18.15,,0.0015580000000001704,1.1059615996950347,0.9263633685740217,non_fall
4.168921,-0.5596,0.9533,0.0349,1.3692,-0.3329,0.3227,-36.45,18.3,-18.15,,0.01888899999999971,1.1059615996950347,0.9219123710012054,non_fall
4.171558,-0.1785,0.848,-0.1252,1.3692,-0.3329,0.3227,-36.45,18.3,-18.15,,0.0026370000000000005,0.8755805445531553,0.9090786663467171,non_fall
4.173645,-0.1785,0.848,-0.1252,1.4306,-0.4047,0.3682,-36.45,18.3,-18.15,,0.002086999999999506,0.8755805445531553,0.8875634223582642,non_fall
4.188214,-0.1785,0.848,-0.1252,1.4306,-0.4047,0.3682,-36.45,18.3,-18.15,,0.01456900000000072,0.8755805445531553,0.8572797774981532,non_fall
4.190702,-0.028,0.5687,-0.2051,1.4306,-0.4047,0.3682,-36.45,18.3,-18.15,,0.0024879999999996016,0.6052021976166313,0.8183500187636507,non_fall
4.207867,-0.028,0.5687,-0.2051,1.4306,-0.4047,0.3682,-36.45,18.3,-18.15,,0.01716500000000032,0.6052021976166313,0.7711066506723738,non_fall
4.210903,0.0222,0.2425,-0.3706,1.4306,-0.4047,0.3682,-36.45,18.3,-18.15,,0.0030359999999998166,0.4434449796761713,0.7161012479461967,non_fall
4.21595,0.0222,0.2425,-0.3706,1.4306,-0.4047,0.3682,-36.3,17.925,-19.35,,0.005047000000000246,0.4434449796761713,0.6541241275247087,non_fall
4.233244,0.0222,0.2425,-0.3706,1.4306,-0.4047,0.3682,-36.3,17.925,-19.35,,0.0172939999999997,0.4434449796761713,0.5862362700393405,non_fall
4.237076,-0.0751,0.1721,-0.3083,1.4306,-0.4047,0.3682,-36.3,17.925,-19.35,,0.0038320000000000576,0.36098103828317635,0.5138127055161823,non_fall
4.249451,-0.0751,0.1721,-0.3083,1.4598,-0.4743,0.3347,-36.3,17.925,-19.35,,0.01237499999999958,0.36098103828317635,0.4385940870729356,non_fall
4.252655,-0.0751,0.1721,-0.3083,1.4598,-0.4743,0.3347,-36.3,17.925,-19.35,,0.0032040000000002067,0.36098103828317635,0.36274078538813004,non_fall
4.255041,-0.0505,0.2167,-0.3109,1.4598,-0.4743,0.3347,-36.3,17.925,-19.35,,0.0023860000000004433,0.38231917294323603,0.2888818159942748,non_fall
4.271161,-0.0505,0.2167,-0.3109,1.4598,-0.4743,0.3347,-36.3,17.925,-19.35,,0.016119999999999912,0.38231917294323603,0.22014943419824148,non_fall
4.273671,0.1404,0.2316,-0.3753,1.4598,-0.4743,0.3347,-36.3,17.925,-19.35,,0.0025100000000000122,0.4628183336904449,0.16018946386512226,non_fall
4.286302,0.1404,0.2316,-0.3753,1.4598,-0.4743,0.3347,-36.9,16.725,-19.8,,0.012630999999999837,0.4628183336904449,0.1131375448708897,non_fall
4.299217,0.1404,0.2316,-0.3753,1.4598,-0.4743,0.3347,-36.9,16.725,-19.8,,0.012914999999999566,0.4628183336904449,0.08355263154965131,non_fall
4.301312,0.1545,0.3433,-0.2582,1.4598,-0.4743,0.3347,-36.9,16.725,-19.8,,0.002095000000000624,0.45650014238771053,0.07630130363764218,non_fall
4.311977,0.1545,0.3433,-0.2582,1.4598,-0.4743,0.3347,-36.9,16.725,-19.8,,0.01066499999999948,0.45650014238771053,0.09638967468999304,non_fall
4.313896,0.1752,0.6092,-0.1372,1.4598,-0.4743,0.3347,-36.9,16.725,-19.8,,0.001919000000000004,0.6485703662672231,0.14874366300139652,non_fall
4.31881,0.1752,0.6092,-0.1372,1.5529,-0.5044,0.3196,-36.9,16.725,-19.8,,0.004914000000000307,0.6485703662672231,0.23794284601898794,non_fall
4.331467,0.1752,0.6092,-0.1372,1.5529,-0.5044,0.3196,-36.9,16.725,-19.8,,0.012656999999999918,0.6485703662672231,0.3679178750192331,non_fall
4.333628,0.2132,0.6756,-0.2168,1.5529,-0.5044,0.3196,-36.9,16.725,-19.8,,0.0021610000000000795,0.7408723506785767,0.5416263863561696,non_fall
4.350659,0.2132,0.6756,-0.2168,1.5529,-0.5044,0.3196,-37.575,16.2,-20.175,,0.01703100000000024,0.7408723506785767,0.7607272789178572,non_fall
4.352961,0.2132,0.6756,-0.2168,1.5529,-0.5044,0.3196,-37.575,16.2,-20.175,,0.00230199999999936,0.7408723506785767,1.0252776499700917,non_fall
4.354306,0.3279,0.6415,-0.1416,1.5529,-0.5044,0.3196,-37.575,16.2,-20.175,,0.0013450000000005957,0.7342283159889709,1.33347996480882,non_fall
4.369673,0.3279,0.6415,-0.1416,1.5529,-0.5044,0.3196,-37.575,16.2,-20.175,,0.015366999999999464,0.7342283159889709,1.6815085263348457,non_fall
4.370272,0.7901,0.6208,-0.5494,1.5529,-0.5044,0.3196,-37.575,16.2,-20.175,,0.0005990000000002382,1.1452034797362431,2.063443349779751,non_fall
4.383484,0.7901,0.6208,-0.5494,1.7597,-0.5098,0.1946,-37.575,16.2,-20.175,,0.013212000000000224,1.1452034797362431,2.4713355889746556,non_fall
4.388544,0.7901,0.6208,-0.5494,1.7597,-0.5098,0.1946,-37.575,16.2,-20.175,,0.005059999999999398,1.1452034797362431,2.8954214908429807,non_fall
4.389323,1.3995,-0.742,-1.6977,1.7597,-0.5098,0.1946,-37.575,16.2,-20.175,,0.0007790000000005293,2.321927979072564,3.324491593603781,non_fall
4.408181,1.3995,-0.742,-1.6977,1.7597,-0.5098,0.1946,-37.575,16.2,-20.175,,0.01885799999999982,2.321927979072564,3.7464088184184745,non_fall
4.409273,1.3908,-3.2363,-3.2554,1.7597,-0.5098,0.1946,-37.575,16.2,-20.175,,0.0010919999999998709,4.796414441017373,4.148753922988856,non_fall
4.419219,1.3908,-3.2363,-3.2554,1.7597,-0.5098,0.1946,-37.275,14.925,-20.475,,0.009946000000000232,4.796414441017373,4.5195611891489325,non_fall
4.428253,1.3908,-3.2363,-3.2554,1.7597,-0.5098,0.1946,-37.275,14.925,-20.475,,0.009033999999999764,4.796414441017373,4.848093957664647,non_fall
4.429641,1.1088,-5.3544,-2.9655,1.7597,-0.5098,0.1946,-37.275,14.925,-20.475,,0.001388000000000389,6.220388014424824,5.125601287785211,non_fall
4.448356,1.1088,-5.3544,-2.9655,1.7597,-0.5098,0.1946,-37.275,14.925,-20.475,,0.01871500000000026,6.220388014424824,5.345994390291874,non_fall
4.450117,0.7567,-6.6053,-3.3268,1.7597,-0.5098,0.1946,-37.275,14.925,-20.475,,0.0017609999999992354,7.434391785479159,5.506383554742642,non_fall
4.453257,0.7567,-6.6053,-3.3268,2.1413,-0.6892,0.1078,-37.275,14.925,-20.475,,0.0031400000000001427,7.434391785479159,5.607422150008602,non_fall
4.46754,0.7567,-6.6053,-3.3268,2.1413,-0.6892,0.1078,-37.275,14.925,-20.475,,0.014282999999999824,7.434391785479159,5.653414210605294,non_fall
4.469194,0.5763,-6.6428,-4.3999,2.1413,-0.6892,0.1078,-37.275,14.925,-20.475,,0.0016540000000002664,7.988619000803581,5.652156669141577,non_fall
4.487261,0.5763,-6.6428,-4.3999,2.1413,-0.6892,0.1078,-37.275,14.925,-20.475,,0.018067000000000277,7.988619000803581,5.614506117888054,non_fall
4.489037,0.5164,-4.4492,-4.2663,2.1413,-0.6892,0.1078,-37.275,14.925,-20.475,,0.0017759999999995557,6.185738863709007,5.553682016275452,non_fall
4.490514,0.5164,-4.4492,-4.2663,2.1413,-0.6892,0.1078,-38.25,12.45,-20.55,,0.0014770000000003947,6.185738863709007,5.484342154508269,non_fall
4.507642,0.5164,-4.4492,-4.2663,2.1413,-0.6892,0.1078,-38.25,12.45,-20.55,,0.017127999999999588,6.185738863709007,5.4214898649889145,non_fall
4.51014,0.188,-3.2316,-0.9617,2.1413,-0.6892,0.1078,-38.25,12.45,-20.55,,0.0024980000000001112,3.3768993840504042,5.379292990327384,non_fall
4.529107,0.188,-3.2316,-0.9617,2.2843,-0.3321,0.4436,-38.25,12.45,-20.55,,0.018966999999999956,3.3768993840504042,5.369909247849092,non_fall
4.535272,0.188,-3.2316,-0.9617,2.2843,-0.3321,0.4436,-38.25,12.45,-20.55,,0.006165000000000198,3.3768993840504042,5.4024194374886,non_fall
4.537757,-0.1575,-0.5096,1.297,2.2843,-0.3321,0.4436,-38.25,12.45,-20.55,,0.0024850000000000705,1.4023934576287782,5.481967200727323,non_fall
4.550507,-0.1575,-0.5096,1.297,2.2843,-0.3321,0.4436,-38.25,12.45,-20.55,,0.012749999999999595,1.4023934576287782,5.609190664018714,non_fall
4.552689,-1.8504,3.4054,2.3681,2.2843,-0.3321,0.4436,-38.25,12.45,-20.55,,0.0021820000000003503,4.5418748254437835,5.780007677469962,non_fall
4.563531,-1.8504,3.4054,2.3681,2.2843,-0.3321,0.4436,-38.775,10.725,-21.225,,0.01084200000000024,4.5418748254437835,5.985784304034469,non_fall
4.569734,-1.8504,3.4054,2.3681,2.2843,-0.3321,0.4436,-38.775,10.725,-21.225,,0.006203000000000181,4.5418748254437835,6.2138796297096075,non_fall
4.5715,-1.6692,5.7214,3.0658,2.2843,-0.3321,0.4436,-38.775,10.725,-21.225,,0.0017659999999999343,6.702221739095179,6.448524985084953,non_fall
4.589457,-1.6692,5.7214,3.0658,2.2843,-0.3321,0.4436,-38.775,10.725,-21.225,,0.017957,6.702221739095179,6.671967494814089,non_fall
4.593153,0.2524,7.9837,2.1323,2.2843,-0.3321,0.4436,-38.775,10.725,-21.225,,0.0036959999999996995,8.267398305392089,6.865788075010708,non_fall
4.595898,0.2524,7.9837,2.1323,1.5332,-0.1061,0.4685,-38.775,10.725,-21.225,,0.0027449999999999974,8.267398305392089,7.012292211377051,non_fall
4.614947,0.2524,7.9837,2.1323,1.5332,-0.1061,0.4685,-38.775,10.725,-21.225,,0.01904899999999987,8.267398305392089,7.095868051107582,non_fall
4.616667,0.3886,9.9796,-0.4622,1.5332,-0.1061,0.4685,-38.775,10.725,-21.225,,0.0017199999999997218,9.997852517415927,7.10421035282501,non_fall
4.630194,0.3886,9.9796,-0.4622,1.5332,-0.1061,0.4685,-38.775,10.725,-21.225,,0.013527000000000733,9.997852517415927,7.029319583030303,non_fall
4.632229,0.0064,8.8397,-0.2025,1.5332,-0.1061,0.4685,-38.775,10.725,-21.225,,0.002034999999999343,8.842021448741233,6.868201950186451,non_fall
4.634234,0.0064,8.8397,-0.2025,1.5332,-0.1061,0.4685,-39.0,9.225,-21.825,,0.0020050000000004786,8.842021448741233,6.623218268340333,non_fall
4.648024,0.0064,8.8397,-0.2025,1.5332,-0.1061,0.4685,-39.0,9.225,-21.825,,0.013790000000000191,8.842021448741233,6.302056553232534,non_fall
4.650079,0.2366,5.8205,0.5436,1.5332,-0.1061,0.4685,-39.0,9.225,-21.825,,0.002054999999999474,5.850615418056463,5.9173327243961955,non_fall
4.66696,0.2366,5.8205,0.5436,-1.2968,0.1423,0.389,-39.0,9.225,-21.825,,0.01688100000000059,5.850615418056463,5.4858524929855275,non_fall
4.670921,0.2366,5.8205,0.5436,-1.2968,0.1423,0.389,-39.0,9.225,-21.825,,0.003960999999999437,5.850615418056463,5.027592635482032,non_fall
4.673395,-0.6058,2.5933,0.5853,-1.2968,0.1423,0.389,-39.0,9.225,-21.825,,0.0024740000000003093,2.726678312526067,4.5644790400164625,non_fall
4.687303,-0.6058,2.5933,0.5853,-1.2968,0.1423,0.389,-39.0,9.225,-21.825,,0.01390799999999981,2.726678312526067,4.119050847375157,non_fall
4.689327,-0.4251,1.6809,0.6428,-1.2968,0.1423,0.389,-39.0,9.225,-21.825,,0.0020239999999995817,1.8491421416429836,3.713104585599922,non_fall
4.697597,-0.4251,1.6809,0.6428,-1.2968,0.1423,0.389,-38.85,11.025,-20.775,,0.008270000000000444,1.8491421416429836,3.3664093023014847,non_fall
4.706947,-0.4251,1.6809,0.6428,-1.2968,0.1423,0.389,-38.85,11.025,-20.775,,0.009350000000000414,1.8491421416429836,3.0955733144145174,non_fall
4.709143,-0.2644,1.7922,1.3587,-1.2968,0.1423,0.389,-38.85,11.025,-20.775,,0.0021959999999996427,2.2644985957160584,2.913127077479957,non_fall
4.726112,-0.2644,1.7922,1.3587,-1.2968,0.1423,0.389,-38.85,11.025,-20.775,,0.016968999999999568,2.2644985957160584,2.826868296132998,non_fall
4.729206,0.0246,0.2132,0.6802,-1.2968,0.1423,0.389,-38.85,11.025,-20.775,,0.00309399999999993,0.7132541202124247,2.8394980140552732,non_fall
4.731212,0.0246,0.2132,0.6802,-2.6022,0.1066,0.0987,-38.85,11.025,-20.775,,0.0020060000000006184,0.7132541202124247,2.948561433922675,non_fall
4.750709,0.0246,0.2132,0.6802,-2.6022,0.1066,0.0987,-38.85,11.025,-20.775,,0.01949699999999943,0.7132541202124247,3.146693364529458,non_fall
4.75298,-0.4304,-2.8908,-0.0145,-2.6022,0.1066,0.0987,-38.85,11.025,-20.775,,0.002271000000000356,2.922700643240768,3.4221523540813967,non_fall
4.771021,-0.4304,-2.8908,-0.0145,-2.6022,0.1066,0.0987,-38.85,11.025,-20.775,,0.018041000000000196,2.922700643240768,3.7596077536547545,non_fall
4.773026,-0.5853,-6.3504,0.1993,-2.6022,0.1066,0.0987,-38.85,11.025,-20.775,,0.0020049999999995904,6.38042919716221,4.141121988517222,non_fall
4.774972,-0.5853,-6.3504,0.1993,-2.6022,0.1066,0.0987,-39.075,15.15,-18.75,,0.0019460000000002253,6.38042919716221,4.54725128997173,non_fall
4.789763,-0.5853,-6.3504,0.1993,-2.6022,0.1066,0.0987,-39.075,15.15,-18.75,,0.014790999999999777,6.38042919716221,4.95817748468331,non_fall
4.791852,-0.3984,-7.6219,0.5585,-2.6022,0.1066,0.0987,-39.075,15.15,-18.75,,0.0020889999999997855,7.652712226393986,5.354784201106897,non_fall
4.804572,-0.3984,-7.6219,0.5585,-1.6983,0.2121,0.2133,-39.075,15.15,-18.75,,0.01272000000000073,7.652712226393986,5.7196023590052665,non_fall
4.812473,-0.3984,-7.6219,0.5585,-1.6983,0.2121,0.2133,-39.075,15.15,-18.75,,0.007900999999999492,7.652712226393986,6.0375684968102625,non_fall
4.814208,-0.3989,-6.8514,1.5719,-1.6983,0.2121,0.2133,-39.075,15.15,-18.75,,0.001735000000000042,7.0407153599616565,6.296561543411197,non_fall
4.829436,-0.3989,-6.8514,1.5719,-1.6983,0.2121,0.2133,-39.075,15.15,-18.75,,0.015228000000000463,7.0407153599616565,6.487706406204554,non_fall
4.832724,-0.7372,-6.2068,1.5147,-1.6983,0.2121,0.2133,-39.075,15.15,-18.75,,0.0032879999999995135,6.43134093094123,6.605453928349848,non_fall
4.839219,-0.7372,-6.2068,1.5147,-1.6983,0.2121,0.2133,-39.075,17.85,-17.1,,0.0064950000000001396,6.43134093094123,6.647463975446467,non_fall
4.848399,-0.7372,-6.2068,1.5147,-1.6983,0.2121,0.2133,-39.075,17.85,-17.1,,0.009179999999999744,6.43134093094123,6.614330095825041,non_fall
4.851125,-1.2278,-5.2922,1.0757,-1.6983,0.2121,0.2133,-39.075,17.85,-17.1,,0.002726000000000006,5.538231140896884,6.509190274019762,non_fall
4.867766,-1.2278,-5.2922,1.0757,-1.6983,0.2121,0.2133,-39.075,17.85,-17.1,,0.016640999999999906,5.538231140896884,6.337269689331316,non_fall
4.869972,-1.4318,-4.5941,0.7563,-1.6983,0.2121,0.2133,-39.075,17.85,-17.1,,0.0022060000000001523,4.871118530686766,6.10539911496451,non_fall
4.872352,-1.4318,-4.5941,0.7563,-0.4068,0.1264,0.078,-39.075,17.85,-17.1,,0.002380000000000493,4.871118530686766,5.821547146244176,non_fall
4.887711,-1.4318,-4.5941,0.7563,-0.4068,0.1264,0.078,-39.075,17.85,-17.1,,0.015359000000000123,4.871118530686766,5.49439606460913,non_fall
4.889607,-1.1315,-4.7655,0.5893,-0.4068,0.1264,0.078,-39.075,17.85,-17.1,,0.0018959999999994537,4.933310956142943,5.1329805477543795,non_fall
4.907981,-1.1315,-4.7655,0.5893,-0.4068,0.1264,0.078,-39.075,17.85,-17.1,,0.018374000000000557,4.933310956142943,4.746397167620794,non_fall
4.911723,-0.9974,-3.9934,0.872,-0.4068,0.1264,0.078,-39.075,17.85,-17.1,,0.003741999999999912,4.207426092042497,4.3435826596715685,non_fall
4.914404,-0.9974,-3.9934,0.872,-0.4068,0.1264,0.078,-38.85,19.125,-16.125,,0.0026809999999999334,4.207426092042497,3.933151880786192,non_fall
4.931331,-0.9974,-3.9934,0.872,-0.4068,0.1264,0.078,-38.85,19.125,-16.125,,0.016926999999999914,4.207426092042497,3.5232826525024197,non_fall
4.933106,-0.4792,-2.7469,1.0297,-0.4068,0.1264,0.078,-38.85,19.125,-16.125,,0.0017750000000003041,2.972435758767547,3.1216337634689557,non_fall
4.94346,-0.4792,-2.7469,1.0297,0.4487,0.1028,0.2254,-38.85,19.125,-16.125,,0.01035399999999953,2.972435758767547,2.7352835200826386,non_fall
4.946511,-0.4792,-2.7469,1.0297,0.4487,0.1028,0.2254,-38.85,19.125,-16.125,,0.003051000000000137,2.972435758767547,2.370678721115199,non_fall
4.948036,-0.4633,-1.8129,0.6586,0.4487,0.1028,0.2254,-38.85,19.125,-16.125,,0.0015249999999999986,1.9836852724159646,2.0335870288237885,non_fall
4.965894,-0.4633,-1.8129,0.6586,0.4487,0.1028,0.2254,-38.85,19.125,-16.125,,0.017857999999999485,1.9836852724159646,1.7290488469327485,non_fall
4.967663,-0.2318,-0.9635,-0.3596,0.4487,0.1028,0.2254,-38.85,19.125,-16.125,,0.0017690000000003536,1.0542180277343014,1.4613278935683722,non_fall
4.980284,-0.2318,-0.9635,-0.3596,0.4487,0.1028,0.2254,-37.8,19.5,-16.5,,0.012621000000000215,1.0542180277343014,1.233862466990472,non_fall
4.985306,-0.2318,-0.9635,-0.3596,0.4487,0.1028,0.2254,-37.8,19.5,-16.5,,0.005021999999999416,1.0542180277343014,1.0492212354747166,non_fall
4.98727,-0.8943,-0.1972,0.1147,0.4487,0.1028,0.2254,-37.8,19.5,-16.5,,0.001964000000000077,0.9229390120695949,0.9090676668656171,non_fall
5.004844,-0.8943,-0.1972,0.1147,0.4487,0.1028,0.2254,-37.8,19.5,-16.5,,0.017574000000000645,0.9229390120695949,0.8141362284842412,non_fall
5.007328,0.2172,0.532,-0.2822,0.4487,0.1028,0.2254,-37.8,19.5,-16.5,,0.0024839999999999307,0.640184879546526,0.7642221953371429,non_fall
5.014945,0.2172,0.532,-0.2822,0.7052,0.0359,0.2546,-37.8,19.5,-16.5,,0.007616999999999763,0.640184879546526,0.7581861078860485,non_fall
5.020218,0.2172,0.532,-0.2822,0.7052,0.0359,0.2546,-37.8,19.5,-16.5,,0.005272999999999861,0.640184879546526,0.7939736652898249,non_fall
5.022012,-0.2411,-0.7659,0.8724,0.7052,0.0359,0.2546,-37.8,19.5,-16.5,,0.0017940000000002954,1.1856701817959325,0.8686516227744641,non_fall
5.040369,-0.2411,-0.7659,0.8724,0.7052,0.0359,0.2546,-37.8,19.5,-16.5,,0.018356999999999957,1.1856701817959325,0.9784597514304054,non_fall
5.041887,-0.8871,1.0084,0.3707,0.7052,0.0359,0.2546,-37.8,19.5,-16.5,,0.0015179999999999083,1.3932822614244393,1.118878440638927,non_fall
5.048531,-0.8871,1.0084,0.3707,0.7052,0.0359,0.2546,-37.8,19.35,-16.875,,0.00664399999999965,1.3932822614244393,1.2847118096208228,non_fall
5.060933,-0.8871,1.0084,0.3707,0.7052,0.0359,0.2546,-37.8,19.35,-16.875,,0.01240200000000069,1.3932822614244393,1.4701876254200503,non_fall
5.062727,-0.0366,0.9448,0.3213,0.7052,0.0359,0.2546,-37.8,19.35,-16.875,,0.0017939999999994072,0.9986091778068135,1.6690774611050636,non_fall
5.081373,-0.0366,0.9448,0.3213,0.7052,0.0359,0.2546,-37.8,19.35,-16.875,,0.018646000000000384,0.9986091778068135,1.8748422771170967,non_fall
5.083613,0.0052,1.8385,0.0833,0.7052,0.0359,0.2546,-37.8,19.35,-16.875,,0.0022399999999995757,1.840393485100401,2.0808086485408466,non_fall
5.084943,0.0052,1.8385,0.0833,0.7625,-0.0954,0.1234,-37.8,19.35,-16.875,,0.0013300000000002754,1.840393485100401,2.2803782349661694,non_fall
5.099571,0.0052,1.8385,0.0833,0.7625,-0.0954,0.1234,-37.8,19.35,-16.875,,0.014628000000000085,1.840393485100401,2.467267955591542,non_fall
5.101252,0.6893,2.9118,-0.1746,0.7625,-0.0954,0.1234,-37.8,19.35,-16.875,,0.0016809999999995995,2.997365324747719,2.635772004588871,non_fall
5.115927,0.6893,2.9118,-0.1746,0.7625,-0.0954,0.1234,-38.55,18.6,-18.15,,0.014675000000000438,2.997365324747719,2.7810308087604105,non_fall
5.121467,0.6893,2.9118,-0.1746,0.7625,-0.0954,0.1234,-38.55,18.6,-18.15,,0.005539999999999878,2.997365324747719,2.8992873011715474,non_fall
5.122803,0.4553,3.7169,-0.2811,0.7625,-0.0954,0.1234,-38.55,18.6,-18.15,,0.001336000000000226,3.7552178245742285,2.9881082105371473,non_fall
5.142431,0.4553,3.7169,-0.2811,0.7625,-0.0954,0.1234,-38.55,18.6,-18.15,,0.01962799999999998,3.7552178245742285,3.0465479104792488,non_fall
5.144041,0.2331,3.8591,-0.5885,0.7625,-0.0954,0.1234,-38.55,18.6,-18.15,,0.0016099999999994452,3.9106675478746595,3.075234681677371,non_fall
5.148399,0.2331,3.8591,-0.5885,0.6299,0.088,0.0063,-38.55,18.6,-18.15,,0.00435800000000075,3.9106675478746595,3.0763638022117705,non_fall
5.167045,0.2331,3.8591,-0.5885,0.6299,0.088,0.0063,-38.55,18.6,-18.15,,0.018645999999999496,3.9106675478746595,3.053588587403773,non_fall
5.170718,0.194,3.3023,0.0217,0.6299,0.088,0.0063,-38.55,18.6,-18.15,,0.0036730000000000373,3.3080647182302827,3.0118089823990943,non_fall
5.186489,0.194,3.3023,0.0217,0.6299,0.088,0.0063,-38.55,18.6,-18.15,,0.01577099999999998,3.3080647182302827,2.9568667338552164,non_fall
5.189425,0.0265,2.4853,0.7315,0.6299,0.088,0.0063,-38.55,18.6,-18.15,,0.0029360000000000497,2.5908513253369057,2.8951653947304092,non_fall
5.192052,0.0265,2.4853,0.7315,0.6299,0.088,0.0063,-37.2,18.75,-18.45,,0.002627000000000379,2.5908513253369057,2.8332411985386203,non_fall
5.205591,0.0265,2.4853,0.7315,0.6299,0.088,0.0063,-37.2,18.75,-18.45,,0.013538999999999746,2.5908513253369057,2.7773161076075956,non_fall
5.208783,0.0081,1.5732,1.0258,0.6299,0.088,0.0063,-37.2,18.75,-18.45,,0.0031920000000003057,1.8781079548311381,2.7328665978595548,non_fall
5.220655,0.0081,1.5732,1.0258,0.5963,0.0099,-0.3922,-37.2,18.75,-18.45,,0.011871999999999439,1.8781079548311381,2.7042411547835754,non_fall
5.224563,0.0081,1.5732,1.0258,0.5963,0.0099,-0.3922,-37.2,18.75,-18.45,,0.003908000000000023,1.8781079548311381,2.6943564087421485,non_fall
5.226088,-0.4667,1.4051,0.5539,0.5963,0.0099,-0.3922,-37.2,18.75,-18.45,,0.0015249999999999986,1.5807973019966854,2.704496463470151,non_fall
5.245054,-0.4667,1.4051,0.5539,0.5963,0.0099,-0.3922,-37.2,18.75,-18.45,,0.018965999999999816,1.5807973019966854,2.734232280790395,non_fall
5.247493,0.0998,2.4211,0.6248,0.5963,0.0099,-0.3922,-37.2,18.75,-18.45,,0.002439000000000746,2.5024108955165616,2.781468282092651,non_fall
5.255489,0.0998,2.4211,0.6248,0.5963,0.0099,-0.3922,-37.8,16.725,-18.6,,0.007995999999999448,2.5024108955165616,2.842612312603531,non_fall
5.264652,0.0998,2.4211,0.6248,0.5963,0.0099,-0.3922,-37.8,16.725,-18.6,,0.009163000000000032,2.5024108955165616,2.9128539446426767,non_fall
5.266579,0.7164,3.7121,0.2452,0.5963,0.0099,-0.3922,-37.8,16.725,-18.6,,0.001927000000000234,3.7885404062778583,2.9865263071388477,non_fall
5.284348,0.7164,3.7121,0.2452,0.5963,0.0099,-0.3922,-37.8,16.725,-18.6,,0.01776899999999948,3.7885404062778583,3.0575195235755435,non_fall
5.286917,0.3924,3.9386,0.3169,0.5963,0.0099,-0.3922,-37.8,16.725,-18.6,,0.0025690000000002655,3.9707648293496307,3.119710181112183,non_fall
5.289613,0.3924,3.9386,0.3169,0.7229,-0.1298,-0.2579,-37.8,16.725,-18.6,,0.0026960000000002537,3.9707648293496307,3.167371595724472,non_fall
5.303486,0.3924,3.9386,0.3169,0.7229,-0.1298,-0.2579,-37.8,16.725,-18.6,,0.013873000000000246,3.9707648293496307,3.1955341152904704,non_fall
5.305863,0.6052,3.4593,-0.3155,0.7229,-0.1298,-0.2579,-37.8,16.725,-18.6,,0.0023770000000000735,3.525984086747982,3.200272386876977,non_fall
5.32007,0.6052,3.4593,-0.3155,0.7229,-0.1298,-0.2579,-37.8,16.725,-18.6,,0.014206999999999859,3.525984086747982,3.1789056903050046,non_fall
5.321918,0.306,3.1229,-0.08,0.7229,-0.1298,-0.2579,-37.8,16.725,-18.6,,0.0018479999999998498,3.1388756601687806,3.1301064554933458,non_fall
5.325912,0.306,3.1229,-0.08,0.7229,-0.1298,-0.2579,-38.475,15.3,-19.125,,0.003993999999999609,3.1388756601687806,3.0539197448331707,non_fall
5.343389,0.306,3.1229,-0.08,0.7229,-0.1298,-0.2579,-38.475,15.3,-19.125,,0.01747700000000041,3.1388756601687806,2.951702152425592,non_fall
5.34679,0.419,2.5119,0.1657,0.7229,-0.1298,-0.2579,-38.475,15.3,-19.125,,0.0034010000000002094,2.551991202962894,2.8259922431241593,non_fall
5.356859,0.419,2.5119,0.1657,0.6267,-0.0331,-0.005,-38.475,15.3,-19.125,,0.010068999999999662,2.551991202962894,2.6803267834598894,non_fall
5.366477,0.419,2.5119,0.1657,0.6267,-0.0331,-0.005,-38.475,15.3,-19.125,,0.009617999999999682,2.551991202962894,2.5190180532434523,non_fall
5.367977,0.3838,1.9271,-0.2029,0.6267,-0.0331,-0.005,-38.475,15.3,-19.125,,0.0015000000000000568,1.9753949630390375,2.3469076316247657,non_fall
5.38158,0.3838,1.9271,-0.2029,0.6267,-0.0331,-0.005,-38.475,15.3,-19.125,,0.01360299999999981,1.9753949630390375,2.169111307017444,non_fall
5.383468,0.6229,1.5641,-0.5155,0.6267,-0.0331,-0.005,-38.475,15.3,-19.125,,0.0018880000000001118,1.760725268177861,1.9907683652311066,non_fall
5.395998,0.6229,1.5641,-0.5155,0.6267,-0.0331,-0.005,-39.0,14.1,-19.725,,0.01252999999999993,1.760725268177861,1.8168066121173723,non_fall
5.400809,0.6229,1.5641,-0.5155,0.6267,-0.0331,-0.005,-39.0,14.1,-19.725,,0.004811000000000121,1.760725268177861,1.6517321863609737,non_fall
5.402185,0.2925,1.2528,-0.5667,0.6267,-0.0331,-0.005,-39.0,14.1,-19.725,,0.001376000000000488,1.4057784249304723,1.4994508673600568,non_fall
5.420463,0.2925,1.2528,-0.5667,0.6267,-0.0331,-0.005,-39.0,14.1,-19.725,,0.018277999999999572,1.4057784249304723,1.3631257375396268,non_fall
5.423139,0.1774,0.7307,-0.2615,0.6267,-0.0331,-0.005,-39.0,14.1,-19.725,,0.0026760000000001227,0.7961001821379016,1.2450750001112065,non_fall
5.425136,0.1774,0.7307,-0.2615,0.4734,0.0124,-0.0428,-39.0,14.1,-19.725,,0.0019970000000002486,0.7961001821379016,1.1467131771214303,non_fall
5.445001,0.1774,0.7307,-0.2615,0.4734,0.0124,-0.0428,-39.0,14.1,-19.725,,0.019865000000000244,0.7961001821379016,1.0685380718290054,non_fall
5.447442,-0.8113,0.2186,-0.0331,0.4734,0.0124,-0.0428,-39.0,14.1,-19.725,,0.0024409999999992493,0.8408859970293239,1.0101640735701258,non_fall
5.464836,-0.8113,0.2186,-0.0331,0.4734,0.0124,-0.0428,-39.0,14.1,-19.725,,0.017394000000000354,0.8408859970293239,0.9703994899642575,non_fall
5.467124,-0.9977,-0.0693,0.4682,0.4734,0.0124,-0.0428,-39.0,14.1,-19.725,,0.0022880000000000678,1.1042730731119001,0.9473621923856336,non_fall
5.469551,-0.9977,-0.0693,0.4682,0.4734,0.0124,-0.0428,-39.0,13.2,-20.625,,0.002426999999999957,1.1042730731119001,0.9386248158010135,non_fall
5.484327,-0.9977,-0.0693,0.4682,0.4734,0.0124,-0.0428,-39.0,13.2,-20.625,,0.014776000000000344,1.1042730731119001,0.9413787225254304,non_fall
5.48633,-0.2181,-0.6529,0.88,0.4734,0.0124,-0.0428,-39.0,13.2,-20.625,,0.002002999999999311,1.1172493096887552,0.9526052337712639,non_fall
5.498911,-0.2181,-0.6529,0.88,0.2924,-0.051,0.0223,-39.0,13.2,-20.625,,0.012580999999999953,1.1172493096887552,0.9692432040027185,non_fall
5.505103,-0.2181,-0.6529,0.88,0.2924,-0.051,0.0223,-39.0,13.2,-20.625,,0.006192000000000419,1.1172493096887552,0.988343478110812,non_fall
5.507735,0.7277,0.2352,0.8351,0.2924,-0.051,0.0223,-39.0,13.2,-20.625,,0.0026320000000001897,1.1323684647675418,1.0072026351901981,non_fall
5.519185,0.7277,0.2352,0.8351,0.2924,-0.051,0.0223,-39.0,13.2,-20.625,,0.01144999999999996,1.1323684647675418,1.0234703365384195,non_fall
5.521384,0.8992,0.6847,0.7171,0.2924,-0.051,0.0223,-39.0,13.2,-20.625,,0.002199000000000062,1.3385092976890374,1.0352264172091405,non_fall
5.535594,0.8992,0.6847,0.7171,0.2924,-0.051,0.0223,-38.7,13.05,-20.475,,0.01420999999999939,1.3385092976890374,1.0410256166807164,non_fall
5.538691,0.8992,0.6847,0.7171,0.2924,-0.051,0.0223,-38.7,13.05,-20.475,,0.0030970000000003495,1.3385092976890374,1.0399097315421726,non_fall
5.540109,0.2118,0.5344,0.5957,0.2924,-0.051,0.0223,-38.7,13.05,-20.475,,0.0014180000000001414,0.8278291429999309,1.0313892593160523,non_fall
5.564475,0.2118,0.5344,0.5957,0.2924,-0.051,0.0223,-38.7,13.05,-20.475,,0.024365999999999666,0.8278291429999309,1.0153992833294192,non_fall
5.568261,-0.514,0.1158,0.4929,0.2924,-0.051,0.0223,-38.7,13.05,-20.475,,0.003785999999999845,0.7214957033829099,0.9922368361925237,non_fall
5.571217,-0.514,0.1158,0.4929,0.3464,-0.009,0.0006,-38.7,13.05,-20.475,,0.0029560000000001807,0.7214957033829099,0.9624883384437701,non_fall
5.582711,-0.514,0.1158,0.4929,0.3464,-0.009,0.0006,-38.7,13.05,-20.475,,0.011493999999999893,0.7214957033829099,0.9269553748386848,non_fall
5.585564,-0.6482,0.0773,0.6453,0.3464,-0.009,0.0006,-38.7,13.05,-20.475,,0.0028529999999999944,0.9179055615911693,0.886585274028315,non_fall
5.602136,-0.6482,0.0773,0.6453,0.3464,-0.009,0.0006,-38.7,13.05,-20.475,,0.01657200000000003,0.9179055615911693,0.8424104622502171,non_fall
5.605627,-0.5771,0.2126,0.3243,0.3464,-0.009,0.0006,-38.7,13.05,-20.475,,0.003491000000000355,0.6952795552869363,0.7954981953753921,non_fall
5.608982,-0.5771,0.2126,0.3243,0.3464,-0.009,0.0006,-38.25,12.75,-21.075,,0.003354999999999997,0.6952795552869363,0.7469106157189291,non_fall
5.621267,-0.5771,0.2126,0.3243,0.3464,-0.009,0.0006,-38.25,12.75,-21.075,,0.012284999999999435,0.6952795552869363,0.6976742348215068,non_fall
5.624597,-0.5383,0.3373,0.1389,0.3464,-0.009,0.0006,-38.25,12.75,-21.075,,0.003330000000000055,0.6502548654181681,0.6487575555563387,non_fall
5.636057,-0.5383,0.3373,0.1389,0.2631,-0.0044,0.067,-38.25,12.75,-21.075,,0.01146000000000047,0.6502548654181681,0.6010552219878337,non_fall
5.640915,-0.5383,0.3373,0.1389,0.2631,-0.0044,0.067,-38.25,12.75,-21.075,,0.004857999999999585,0.6502548654181681,0.5553767615159477,non_fall
5.642719,-0.4981,0.3358,0.2133,0.2631,-0.0044,0.067,-38.25,12.75,-21.075,,0.0018039999999999168,0.6374654029827814,0.5124378438033189,non_fall
5.660231,-0.4981,0.3358,0.2133,0.2631,-0.0044,0.067,-38.25,12.75,-21.075,,0.017511999999999972,0.6374654029827814,0.47285219341236107,non_fall
5.662069,-0.2948,0.2392,0.0734,0.2631,-0.0044,0.067,-38.25,12.75,-21.075,,0.0018380000000002283,0.38666683333329743,0.43712292559919885,non_fall
5.677021,-0.2948,0.2392,0.0734,0.2631,-0.0044,0.067,-38.25,12.75,-21.075,,0.014952000000000076,0.38666683333329743,0.40563307272320176,non_fall
5.680593,0.0051,0.1289,0.255,0.2631,-0.0044,0.067,-38.25,12.75,-21.075,,0.0035720000000001306,0.2857730218197652,0.3786361860509678,non_fall
5.68225,0.0051,0.1289,0.255,0.2631,-0.0044,0.067,-38.55,12.15,-20.25,,0.0016569999999997975,0.2857730218197652,0.35624874282344904,non_fall
5.699883,0.0051,0.1289,0.255,0.2631,-0.0044,0.067,-38.55,12.15,-20.25,,0.01763300000000001,0.2857730218197652,0.3384463660050046,non_fall
5.702038,0.0755,-0.0062,0.2877,0.2631,-0.0044,0.067,-38.55,12.15,-20.25,,0.002155000000000129,0.2975062688415154,0.32506556935417963,non_fall
5.706416,0.0755,-0.0062,0.2877,0.2923,-0.0854,0.0466,-38.55,12.15,-20.25,,0.004377999999999993,0.2975062688415154,0.3158120998893752,non_fall
5.719271,0.0755,-0.0062,0.2877,0.2923,-0.0854,0.0466,-38.55,12.15,-20.25,,0.01285500000000006,0.2975062688415154,0.3102762320270874,non_fall
5.721073,-0.1664,0.1306,0.0849,0.2923,-0.0854,0.0466,-38.55,12.15,-20.25,,0.0018019999999996372,0.22793273130465488,0.30795475232354336,non_fall
5.744335,-0.1664,0.1306,0.0849,0.2923,-0.0854,0.0466,-38.55,12.15,-20.25,,0.023262000000000782,0.22793273130465488,0.308278901966433,non_fall
5.74826,-0.1528,0.2398,0.1051,0.2923,-0.0854,0.0466,-38.55,12.15,-20.25,,0.003924999999999734,0.3031466476806234,0.3106471284559841,non_fall
5.751196,-0.1528,0.2398,0.1051,0.2923,-0.0854,0.0466,-38.85,11.85,-21.0,,0.0029360000000000497,0.3031466476806234,0.3144610131414579,non_fall
5.763733,-0.1528,0.2398,0.1051,0.2923,-0.0854,0.0466,-38.85,11.85,-21.0,,0.01253700000000002,0.3031466476806234,0.3191621626318699,non_fall
5.766929,-0.3342,0.2165,0.1233,0.2923,-0.0854,0.0466,-38.85,11.85,-21.0,,0.0031959999999999766,0.4168510285461702,0.32426729816017114,non_fall
5.779237,-0.3342,0.2165,0.1233,0.2643,-0.0631,-0.0098,-38.85,11.85,-21.0,,0.012307999999999986,0.4168510285461702,0.3293984060775406,non_fall
5.783288,-0.3342,0.2165,0.1233,0.2643,-0.0631,-0.0098,-38.85,11.85,-21.0,,0.004050999999999583,0.4168510285461702,0.33430473317480663,non_fall
5.78473,-0.5464,0.1155,0.1602,0.2643,-0.0631,-0.0098,-38.85,11.85,-21.0,,0.0014419999999999433,0.5809967727965448,0.3388736944726906,non_fall
5.802333,-0.5464,0.1155,0.1602,0.2643,-0.0631,-0.0098,-38.85,11.85,-21.0,,0.017603000000000257,0.5809967727965448,0.3431284656161993,non_fall
5.804907,-0.2703,-0.074,0.3292,0.2643,-0.0631,-0.0098,-38.85,11.85,-21.0,,0.0025740000000000762,0.4323317360546181,0.34721120452035165,non_fall
5.815477,-0.2703,-0.074,0.3292,0.2643,-0.0631,-0.0098,-38.475,11.7,-20.625,,0.010569999999999524,0.4323317360546181,0.351352502977071,non_fall
5.820042,-0.2703,-0.074,0.3292,0.2643,-0.0631,-0.0098,-38.475,11.7,-20.625,,0.004565000000000374,0.4323317360546181,0.35582966792370907,non_fall
5.821751,-0.0083,-0.0425,-0.0425,0.2643,-0.0631,-0.0098,-38.475,11.7,-20.625,,0.0017089999999999606,0.060674459206489846,0.3609184061208512,non_fall
5.841445,-0.0083,-0.0425,-0.0425,0.2643,-0.0631,-0.0098,-38.475,11.7,-20.625,,0.019694000000000322,0.060674459206489846,0.36684398015408576,non_fall
5.844905,-0.0832,0.0142,0.1411,0.2643,-0.0631,-0.0098,-38.475,11.7,-20.625,,0.0034599999999995745,0.16441742608373358,0.3737385024921599,non_fall
5.8471,-0.0832,0.0142,0.1411,0.2472,-0.073,0.0107,-38.475,11.7,-20.625,,0.002195000000000391,0.16441742608373358,0.3816104099785211,non_fall
5.867835,-0.0832,0.0142,0.1411,0.2472,-0.073,0.0107,-38.475,11.7,-20.625,,0.02073500000000017,0.16441742608373358,0.3903302911052836,non_fall
5.871216,-0.0586,-0.2286,0.5621,0.2472,-0.073,0.0107,-38.475,11.7,-20.625,,0.0033810000000000784,0.6096296662728939,0.39963457921309703,non_fall
5.883959,-0.0586,-0.2286,0.5621,0.2472,-0.073,0.0107,-38.475,11.7,-20.625,,0.012742999999999505,0.6096296662728939,0.4091459000826632,non_fall
5.886144,-0.1282,0.1491,-0.1179,0.2472,-0.073,0.0107,-38.475,11.7,-20.625,,0.0021849999999998815,0.22927376648888553,0.4184067659346043,non_fall
5.8873,-0.1282,0.1491,-0.1179,0.2472,-0.073,0.0107,-38.7,11.25,-20.925,,0.0011559999999999349,0.22927376648888553,0.4269222919340042,non_fall
5.900134,-0.1282,0.1491,-0.1179,0.2472,-0.073,0.0107,-38.7,11.25,-20.925,,0.012834000000000678,0.22927376648888553,0.43420752058485557,non_fall
5.901675,0.2009,0.8485,0.1849,0.2472,-0.073,0.0107,-38.7,11.25,-20.925,,0.0015409999999995705,0.8913478950443536,0.4398349494788379,non_fall
5.915192,0.2009,0.8485,0.1849,0.279,0.0467,-0.0157,-38.7,11.25,-20.925,,0.013517000000000223,0.8913478950443536,0.44347732849302196,non_fall
5.920722,0.2009,0.8485,0.1849,0.279,0.0467,-0.0157,-38.7,11.25,-20.925,,0.005529999999999369,0.8913478950443536,0.44494020196416695,non_fall
5.922103,-0.0117,0.3107,0.1885,0.279,0.0467,-0.0157,-38.7,11.25,-20.925,,0.0013810000000002987,0.36359817106250686,0.4441792743844325,non_fall
5.939676,-0.0117,0.3107,0.1885,0.279,0.0467,-0.0157,-38.7,11.25,-20.925,,0.017573000000000505,0.36359817106250686,0.44130011255209495,non_fall
5.941206,-0.3387,-0.0592,0.1084,0.279,0.0467,-0.0157,-38.7,11.25,-20.925,,0.0015299999999998093,0.36051753078040466,0.43654115259970705,non_fall
5.956258,-0.3387,-0.0592,0.1084,0.279,0.0467,-0.0157,-38.85,11.4,-21.075,,0.015051999999999843,0.36051753078040466,0.4302438821483212,non_fall
5.958042,-0.3387,-0.0592,0.1084,0.279,0.0467,-0.0157,-38.85,11.4,-21.075,,0.0017839999999997858,0.36051753078040466,0.4228154372519508,non_fall
5.959375,-0.2541,0.0488,0.1829,0.279,0.0467,-0.0157,-38.85,11.4,-21.075,,0.0013329999999998066,0.31686063182415075,0.41468884293763897,non_fall
5.978398,-0.2541,0.0488,0.1829,0.279,0.0467,-0.0157,-38.85,11.4,-21.075,,0.019023000000000678,0.31686063182415075,0.40628542549655067,non_fall
5.979862,-0.1724,0.2008,-0.0236,0.279,0.0467,-0.0157,-38.85,11.4,-21.075,,0.0014639999999994657,0.2657054007731119,0.39798302223142196,non_fall
5.982879,-0.1724,0.2008,-0.0236,0.1571,0.0435,-0.071,-38.85,11.4,-21.075,,0.0030169999999998254,0.2657054007731119,0.3900926306575921,non_fall
6.000392,-0.1724,0.2008,-0.0236,0.1571,0.0435,-0.071,-38.85,11.4,-21.075,,0.017513000000000112,0.2657054007731119,0.3828450322522391,non_fall
6.003018,-0.2388,0.234,-0.1551,0.1571,0.0435,-0.071,-38.85,11.4,-21.075,,0.0026260000000002393,0.36856132461233637,0.3763876658650313,non_fall
