time,ax,ay,az,wx,wy,wz,Bx,By,Bz,Unnamed: 10,time_diff,acc_mag,acc_mag_filtered,label
0.056372,0.0,0.0,0.0,0.0,0.0,0.0,0.0,0.0,0.0,,0.0,0.0,-0.001185558111912562,non_fall
0.057243,0.0496,0.1061,-0.1438,0.0,0.0,0.0,0.0,0.0,0.0,,0.0008710000000000037,0.18546107408294604,0.01713489471513326,non_fall
0.058687,0.0496,0.1061,-0.1438,0.0,0.0,0.0,-42.6,10.05,-2.85,,0.0014440000000000008,0.18546107408294604,0.034848549212021664,non_fall
0.075898,0.0496,0.1061,-0.1438,0.0,0.0,0.0,-42.6,10.05,-2.85,,0.01721099999999999,0.18546107408294604,0.051432149707870134,non_fall
0.077327,0.0212,0.0958,-0.0517,0.0,0.0,0.0,-42.6,10.05,-2.85,,0.0014290000000000136,0.1109052298135665,0.0664361483875751,non_fall
0.101963,0.0212,0.0958,-0.0517,0.0,0.0,0.0,-42.6,10.05,-2.85,,0.02463599999999999,0.1109052298135665,0.07950794630180434,non_fall
0.103763,-0.012,0.0443,-0.0636,0.0,0.0,0.0,-42.6,10.05,-2.85,,0.001799999999999996,0.07843118002427352,0.09040697711417511,non_fall
0.105381,-0.012,0.0443,-0.0636,0.0211,-0.0014,-0.0116,-42.6,10.05,-2.85,,0.0016180000000000083,0.07843118002427352,0.09901149622339026,non_fall
0.117008,-0.012,0.0443,-0.0636,0.0211,-0.0014,-0.0116,-42.6,10.05,-2.85,,0.011626999999999998,0.07843118002427352,0.10531778266764304,non_fall
0.118766,-0.0567,-0.0219,-0.1103,0.0211,-0.0014,-0.0116,-42.6,10.05,-2.85,,0.0017579999999999957,0.1259388343601766,0.10943286717033916,non_fall
0.126719,-0.0567,-0.0219,-0.1103,0.0211,-0.0014,-0.0116,-42.15,9.525,-2.1,,0.007953000000000002,0.1259388343601766,0.11156197870797095,non_fall
0.134847,-0.0567,-0.0219,-0.1103,0.0211,-0.0014,-0.0116,-42.15,9.525,-2.1,,0.008127999999999996,0.1259388343601766,0.11199182160775013,non_fall
0.136318,-0.0892,-0.0209,-0.1011,0.0211,-0.0014,-0.0116,-42.15,9.525,-2.1,,0.001471,0.13643555255137862,0.11107071706378532,non_fall
0.15502,-0.0892,-0.0209,-0.1011,0.0211,-0.0014,-0.0116,-42.15,9.525,-2.1,,0.018701999999999996,0.13643555255137862,0.10918666405692774,non_fall
0.156533,0.026,0.0212,-0.0251,0.0211,-0.0014,-0.0116,-42.15,9.525,-2.1,,0.0015130000000000143,0.041898090648620254,0.1067445030011667,non_fall
0.169275,0.026,0.0212,-0.0251,0.0362,-0.0052,-0.0063,-42.15,9.525,-2.1,,0.012742000000000003,0.041898090648620254,0.10414354056911368,non_fall
0.174208,0.026,0.0212,-0.0251,0.0362,-0.0052,-0.0063,-42.15,9.525,-2.1,,0.004932999999999993,0.041898090648620254,0.10175710167838732,non_fall
0.177986,-0.0039,0.0252,-0.0677,0.0362,-0.0052,-0.0063,-42.15,9.525,-2.1,,0.0037780000000000036,0.07234320977120105,0.09991537610795267,non_fall
0.192931,-0.0039,0.0252,-0.0677,0.0362,-0.0052,-0.0063,-42.15,9.525,-2.1,,0.014944999999999986,0.07234320977120105,0.09889255922307137,non_fall
0.195827,-0.0661,-0.0263,-0.103,0.0362,-0.0052,-0.0063,-42.15,9.525,-2.1,,0.0028960000000000097,0.12517947116041034,0.09889873721802951,non_fall
0.19808,-0.0661,-0.0263,-0.103,0.0362,-0.0052,-0.0063,-42.15,10.125,-2.85,,0.002253000000000005,0.12517947116041034,0.10007641912302619,non_fall
0.212953,-0.0661,-0.0263,-0.103,0.0362,-0.0052,-0.0063,-42.15,10.125,-2.85,,0.014872999999999997,0.12517947116041034,0.10250122761980904,non_fall
0.21557,0.0142,0.0194,-0.0335,0.0362,-0.0052,-0.0063,-42.15,10.125,-2.85,,0.002617000000000008,0.041234087840038375,0.1061860981929657,non_fall
0.228031,0.0142,0.0194,-0.0335,0.0362,-0.0052,-0.0063,-42.15,10.125,-2.85,,0.012461,0.041234087840038375,0.11108835996354924,non_fall
0.230678,0.0151,0.1295,-0.0695,0.0362,-0.0052,-0.0063,-42.15,10.125,-2.85,,0.0026469999999999827,0.14774474609948066,0.11711912628087467,non_fall
0.239254,0.0151,0.1295,-0.0695,0.0392,-0.0072,-0.0044,-42.15,10.125,-2.85,,0.008576,0.14774474609948066,0.12415433411079721,non_fall
0.251509,0.0151,0.1295,-0.0695,0.0392,-0.0072,-0.0044,-42.15,10.125,-2.85,,0.012254999999999988,0.14774474609948066,0.13204651707418333,non_fall
0.253467,-0.0959,0.1913,-0.0461,0.0392,-0.0072,-0.0044,-42.15,10.125,-2.85,,0.0019580000000000153,0.21890114207102712,0.14063615029340865,non_fall
0.269059,-0.0959,0.1913,-0.0461,0.0392,-0.0072,-0.0044,-43.35,9.525,-2.175,,0.015591999999999995,0.21890114207102712,0.1497613603681093,non_fall
0.27142,-0.0959,0.1913,-0.0461,0.0392,-0.0072,-0.0044,-43.35,9.525,-2.175,,0.002361000000000002,0.21890114207102712,0.15926501678537916,non_fall
0.273039,-0.1483,0.1058,0.0458,0.0392,-0.0072,-0.0044,-43.35,9.525,-2.175,,0.0016189999999999816,0.18784081026230695,0.16899868036737714,non_fall
0.296105,-0.1483,0.1058,0.0458,0.0392,-0.0072,-0.0044,-43.35,9.525,-2.175,,0.02306600000000003,0.18784081026230695,0.17882350986596493,non_fall
0.297846,0.0025,0.0186,0.1195,0.0392,-0.0072,-0.0044,-43.35,9.525,-2.175,,0.0017409999999999926,0.12096470559630193,0.18860889496511474,non_fall
0.311066,0.0025,0.0186,0.1195,-0.0055,-0.0272,0.0017,-43.35,9.525,-2.175,,0.01322000000000001,0.12096470559630193,0.19823012124300923,non_fall
0.3163,0.0025,0.0186,0.1195,-0.0055,-0.0272,0.0017,-43.35,9.525,-2.175,,0.005234000000000016,0.12096470559630193,0.2075666221023543,non_fall
0.317639,0.11,0.0905,0.0662,-0.0055,-0.0272,0.0017,-43.35,9.525,-2.175,,0.001338999999999979,0.15707542774094232,0.21650224091884868,non_fall
0.335346,0.11,0.0905,0.0662,-0.0055,-0.0272,0.0017,-43.35,9.525,-2.175,,0.017706999999999973,0.15707542774094232,0.2249284196785487,non_fall
0.336488,0.0885,0.2382,0.0141,-0.0055,-0.0272,0.0017,-43.35,9.525,-2.175,,0.0011420000000000319,0.25450009823180814,0.232750465463733,non_fall
0.337531,0.0885,0.2382,0.0141,-0.0055,-0.0272,0.0017,-42.9,9.45,-2.25,,0.0010430000000000161,0.25450009823180814,0.23989621028154667,non_fall
0.356228,0.0885,0.2382,0.0141,-0.0055,-0.0272,0.0017,-42.9,9.45,-2.25,,0.018696999999999964,0.25450009823180814,0.24632566321107147,non_fall
0.357541,0.0447,0.3628,0.0573,-0.0055,-0.0272,0.0017,-42.9,9.45,-2.25,,0.0013130000000000086,0.37000705398681255,0.2520397989306083,non_fall
0.375138,0.0447,0.3628,0.0573,-0.0055,-0.0272,0.0017,-42.9,9.45,-2.25,,0.01759700000000003,0.37000705398681255,0.2570865001779509,non_fall
0.376484,0.068,0.3211,0.1004,-0.0055,-0.0272,0.0017,-42.9,9.45,-2.25,,0.0013459999999999583,0.3432336958982903,0.26156189116147815,non_fall
0.382992,0.068,0.3211,0.1004,-0.0739,-0.0026,-0.0026,-42.9,9.45,-2.25,,0.006508000000000014,0.3432336958982903,0.26560587598561364,non_fall
0.395026,0.068,0.3211,0.1004,-0.0739,-0.0026,-0.0026,-42.9,9.45,-2.25,,0.01203399999999999,0.3432336958982903,0.2693915952999675,non_fall
0.398672,0.1145,0.0972,0.1212,-0.0739,-0.0026,-0.0026,-42.9,9.45,-2.25,,0.003646000000000038,0.19299619167227108,0.2731095881653269,non_fall
0.408922,0.1145,0.0972,0.1212,-0.0739,-0.0026,-0.0026,-42.9,10.425,-2.7,,0.010249999999999981,0.19299619167227108,0.2769484703203202,non_fall
0.415647,0.1145,0.0972,0.1212,-0.0739,-0.0026,-0.0026,-42.9,10.425,-2.7,,0.006724999999999981,0.19299619167227108,0.2810746799623901,non_fall
0.418451,0.116,-0.0299,0.1933,-0.0739,-0.0026,-0.0026,-42.9,10.425,-2.7,,0.0028040000000000287,0.22740910272018577,0.285614095585678,non_fall
0.428202,0.116,-0.0299,0.1933,-0.0739,-0.0026,-0.0026,-42.9,10.425,-2.7,,0.00975100000000001,0.22740910272018577,0.29063802824304047,non_fall
0.430721,0.1672,0.0686,0.1588,-0.0739,-0.0026,-0.0026,-42.9,10.425,-2.7,,0.0025189999999999935,0.24058104663501653,0.29615537673163783,non_fall
0.44709,0.1672,0.0686,0.1588,-0.1587,0.0435,-0.0041,-42.9,10.425,-2.7,,0.016368999999999967,0.24058104663501653,0.3021118621288817,non_fall
0.455685,0.1672,0.0686,0.1588,-0.1587,0.0435,-0.0041,-42.9,10.425,-2.7,,0.00859500000000002,0.24058104663501653,0.30839640525254114,non_fall
0.45762,0.1037,0.2732,0.1668,-0.1587,0.0435,-0.0041,-42.9,10.425,-2.7,,0.00193500000000002,0.33647313414298025,0.3148539218979388,non_fall
0.471838,0.1037,0.2732,0.1668,-0.1587,0.0435,-0.0041,-42.9,10.425,-2.7,,0.014217999999999953,0.33647313414298025,0.321303082794236,non_fall
0.474242,0.0398,0.3763,0.1664,-0.1587,0.0435,-0.0041,-42.9,10.425,-2.7,,0.0024040000000000172,0.4133699190797512,0.32755696777387605,non_fall
0.476211,0.0398,0.3763,0.1664,-0.1587,0.0435,-0.0041,-43.425,9.75,-2.475,,0.0019689999999999985,0.4133699190797512,0.33344415989426246,non_fall
0.491387,0.0398,0.3763,0.1664,-0.1587,0.0435,-0.0041,-43.425,9.75,-2.475,,0.015176000000000023,0.4133699190797512,0.3388277986307185,non_fall
0.494443,0.069,0.2346,0.2635,-0.1587,0.0435,-0.0041,-43.425,9.75,-2.475,,0.003056000000000003,0.35948631406494463,0.3436204741815442,non_fall
0.51152,0.069,0.2346,0.2635,-0.1587,0.0435,-0.0041,-43.425,9.75,-2.475,,0.017076999999999953,0.35948631406494463,0.34779350267294584,non_fall
0.513808,0.1379,0.0366,0.3752,-0.1587,0.0435,-0.0041,-43.425,9.75,-2.475,,0.0022880000000000678,0.4014112728860514,0.35137988327005976,non_fall
0.51559,0.1379,0.0366,0.3752,-0.2198,0.0855,-0.0066,-43.425,9.75,-2.475,,0.0017819999999999503,0.4014112728860514,0.3544709125981278,non_fall
0.535624,0.1379,0.0366,0.3752,-0.2198,0.0855,-0.0066,-43.425,9.75,-2.475,,0.020033999999999996,0.4014112728860514,0.3572069509195366,non_fall
0.540533,0.2145,-0.0481,0.2662,-0.2198,0.0855,-0.0066,-43.425,9.75,-2.475,,0.004909000000000052,0.34523368897023937,0.35976326985758267,non_fall
0.554215,0.2145,-0.0481,0.2662,-0.2198,0.0855,-0.0066,-43.05,9.825,-2.55,,0.013681999999999972,0.34523368897023937,0.36233234854791896,non_fall
0.557532,0.2145,-0.0481,0.2662,-0.2198,0.0855,-0.0066,-43.05,9.825,-2.55,,0.0033170000000000144,0.34523368897023937,0.3651043988006167,non_fall
0.559395,0.2233,0.1177,0.0601,-0.2198,0.0855,-0.0066,-43.05,9.825,-2.55,,0.001862999999999948,0.25947676196530584,0.3682481750502978,non_fall
0.574947,0.2233,0.1177,0.0601,-0.2198,0.0855,-0.0066,-43.05,9.825,-2.55,,0.01555200000000001,0.25947676196530584,0.37189415825316025,non_fall
0.577911,0.1721,0.28,0.1131,-0.2198,0.0855,-0.0066,-43.05,9.825,-2.55,,0.0029639999999999667,0.3475773582959627,0.3761219393161097,non_fall
0.589046,0.1721,0.28,0.1131,-0.2563,0.135,-0.0321,-43.05,9.825,-2.55,,0.011135000000000006,0.3475773582959627,0.380953052555527,non_fall
0.594017,0.1721,0.28,0.1131,-0.2563,0.135,-0.0321,-43.05,9.825,-2.55,,0.004971000000000059,0.3475773582959627,0.3863497006570118,non_fall
0.595464,0.206,0.2977,0.2463,-0.2563,0.135,-0.0321,-43.05,9.825,-2.55,,0.001446999999999976,0.4378641113404934,0.39221896537038164,non_fall
0.616062,0.206,0.2977,0.2463,-0.2563,0.135,-0.0321,-43.05,9.825,-2.55,,0.020598000000000005,0.4378641113404934,0.39842141588842,non_fall
0.618584,0.2407,0.2149,0.3374,-0.2563,0.135,-0.0321,-43.05,9.825,-2.55,,0.0025220000000000242,0.4668589294422888,0.40478261511131775,non_fall
0.620561,0.2407,0.2149,0.3374,-0.2563,0.135,-0.0321,-43.425,9.3,-2.775,,0.0019770000000000065,0.4668589294422888,0.4111059183674015,non_fall
0.627845,0.2407,0.2149,0.3374,-0.2563,0.135,-0.0321,-43.425,9.3,-2.775,,0.007283999999999957,0.4668589294422888,0.41718516247248544,non_fall
0.629036,0.292,0.116,0.2937,-0.2563,0.135,-0.0321,-43.425,9.3,-2.775,,0.0011910000000000531,0.430092652808671,0.42281629792328645,non_fall
0.653934,0.292,0.116,0.2937,-0.2563,0.135,-0.0321,-43.425,9.3,-2.775,,0.024897999999999976,0.430092652808671,0.4278076021408929,non_fall
0.655016,0.2974,0.0814,0.2103,-0.2563,0.135,-0.0321,-43.425,9.3,-2.775,,0.0010820000000000274,0.37322755793215484,0.43198868188848716,non_fall
0.65923,0.2974,0.0814,0.2103,-0.312,0.188,-0.0495,-43.425,9.3,-2.775,,0.00421399999999994,0.37322755793215484,0.4352188920074318,non_fall
0.672819,0.2974,0.0814,0.2103,-0.312,0.188,-0.0495,-43.425,9.3,-2.775,,0.013588999999999962,0.37322755793215484,0.43739595821683347,non_fall
0.674468,0.3104,0.1965,0.1286,-0.312,0.188,-0.0495,-43.425,9.3,-2.775,,0.0016490000000000116,0.38922791523733236,0.43846544024983647,non_fall
0.686567,0.3104,0.1965,0.1286,-0.312,0.188,-0.0495,-43.05,9.75,-3.15,,0.012099000000000082,0.38922791523733236,0.4384312330923159,non_fall
0.692616,0.3104,0.1965,0.1286,-0.312,0.188,-0.0495,-43.05,9.75,-3.15,,0.006048999999999971,0.38922791523733236,0.4373666796855562,non_fall
0.693908,0.2971,0.3908,0.1479,-0.312,0.188,-0.0495,-43.05,9.75,-3.15,,0.0012919999999999598,0.5127060171287245,0.4354251880769673,non_fall
0.711343,0.2971,0.3908,0.1479,-0.312,0.188,-0.0495,-43.05,9.75,-3.15,,0.01743499999999998,0.5127060171287245,0.4328486324264895,non_fall
0.714093,0.229,0.4693,0.1562,-0.312,0.188,-0.0495,-43.05,9.75,-3.15,,0.00275000000000003,0.5450522268553721,0.4299714131546402,non_fall
0.725933,0.229,0.4693,0.1562,-0.3749,0.2068,-0.0541,-43.05,9.75,-3.15,,0.011840000000000073,0.5450522268553721,0.4272180283855739,non_fall
0.733832,0.229,0.4693,0.1562,-0.3749,0.2068,-0.0541,-43.05,9.75,-3.15,,0.00789899999999999,0.5450522268553721,0.425092476221764,non_fall
0.735553,0.1493,0.4113,0.1054,-0.3749,0.2068,-0.0541,-43.05,9.75,-3.15,,0.0017209999999999726,0.4500748160028508,0.4241587220901858,non_fall
0.750988,0.1493,0.4113,0.1054,-0.3749,0.2068,-0.0541,-43.05,9.75,-3.15,,0.015434999999999977,0.4500748160028508,0.42501265130222793,non_fall
0.754661,0.1927,0.3027,0.172,-0.3749,0.2068,-0.0541,-43.05,9.75,-3.15,,0.0036730000000000373,0.3979253447570285,0.42824714514994167,non_fall
0.756403,0.1927,0.3027,0.172,-0.3749,0.2068,-0.0541,-43.35,9.9,-3.75,,0.0017420000000000213,0.3979253447570285,0.43441292824427613,non_fall
0.770522,0.1927,0.3027,0.172,-0.3749,0.2068,-0.0541,-43.35,9.9,-3.75,,0.014118999999999993,0.3979253447570285,0.44397846775490346,non_fall
0.7725,0.114,0.1196,0.2725,-0.3749,0.2068,-0.0541,-43.35,9.9,-3.75,,0.0019779999999999243,0.3186791646782074,0.45729241843465407,non_fall
0.790163,0.114,0.1196,0.2725,-0.3749,0.2068,-0.0541,-43.35,9.9,-3.75,,0.017662999999999984,0.3186791646782074,0.4745519368784809,non_fall
0.792681,0.0077,-0.0943,0.4341,-0.3749,0.2068,-0.0541,-43.35,9.9,-3.75,,0.0025180000000000202,0.44429110952167383,0.4957796557567573,non_fall
0.795999,0.0077,-0.0943,0.4341,-0.4209,0.2147,-0.0504,-43.35,9.9,-3.75,,0.003318000000000043,0.44429110952167383,0.520811211117165,non_fall
0.809478,0.0077,-0.0943,0.4341,-0.4209,0.2147,-0.0504,-43.35,9.9,-3.75,,0.013479000000000019,0.44429110952167383,0.5492940318104907,non_fall
0.811815,0.0059,-0.2452,0.6499,-0.4209,0.2147,-0.0504,-43.35,9.9,-3.75,,0.0023369999999999225,0.6946422532498293,0.5806968370670493,non_fall
0.826247,0.0059,-0.2452,0.6499,-0.4209,0.2147,-0.0504,-42.825,9.225,-3.9,,0.014432,0.6946422532498293,0.6143281797055454,non_fall
0.829133,0.0059,-0.2452,0.6499,-0.4209,0.2147,-0.0504,-42.825,9.225,-3.9,,0.002886000000000055,0.6946422532498293,0.6493616079072838,non_fall
0.830958,-0.1291,-0.2363,0.7541,-0.4209,0.2147,-0.0504,-42.825,9.225,-3.9,,0.0018249999999999655,0.8007317341032513,0.6848647587363023,non_fall
0.853246,-0.1291,-0.2363,0.7541,-0.4209,0.2147,-0.0504,-42.825,9.225,-3.9,,0.022287999999999974,0.8007317341032513,0.7198299953490376,non_fall
0.855799,-0.3574,-0.0002,0.6849,-0.4209,0.2147,-0.0504,-42.825,9.225,-3.9,,0.0025530000000000275,0.7725430797049443,0.7532049199850143,non_fall
0.868592,-0.3574,-0.0002,0.6849,-0.4189,0.1527,-0.038,-42.825,9.225,-3.9,,0.012793000000000054,0.7725430797049443,0.7839220086512407,non_fall
0.873042,-0.3574,-0.0002,0.6849,-0.4189,0.1527,-0.038,-42.825,9.225,-3.9,,0.004449999999999954,0.7725430797049443,0.8109275178245539,non_fall
0.874924,-0.3664,0.163,0.6181,-0.4189,0.1527,-0.038,-42.825,9.225,-3.9,,0.0018820000000000503,0.7367941164260203,0.8332105186588471,non_fall
0.892621,-0.3664,0.163,0.6181,-0.4189,0.1527,-0.038,-42.825,9.225,-3.9,,0.017696999999999963,0.7367941164260203,0.8498332525153871,non_fall
0.895131,-0.2461,0.33,0.6647,-0.4189,0.1527,-0.038,-42.825,9.225,-3.9,,0.0025100000000000122,0.7818512006769575,0.8599638896890774,non_fall
0.896844,-0.2461,0.33,0.6647,-0.4189,0.1527,-0.038,-42.3,9.6,-4.95,,0.0017129999999999646,0.7818512006769575,0.8629122255421123,forward_fall
0.912034,-0.2461,0.33,0.6647,-0.4189,0.1527,-0.038,-42.3,9.6,-4.95,,0.015190000000000037,0.7818512006769575,0.8581679642417174,forward_fall
0.914705,-0.1995,0.3968,0.6614,-0.4189,0.1527,-0.038,-42.3,9.6,-4.95,,0.002670999999999979,0.7966808959677645,0.845440184660244,forward_fall
0.928553,-0.1995,0.3968,0.6614,-0.4189,0.1527,-0.038,-42.3,9.6,-4.95,,0.013847999999999971,0.7966808959677645,0.8246955201422176,forward_fall
0.930808,-0.2339,0.5567,0.6796,-0.4189,0.1527,-0.038,-42.3,9.6,-4.95,,0.002255000000000007,0.9091095973533664,0.7961916246513238,forward_fall
0.936013,-0.2339,0.5567,0.6796,-0.4082,0.1379,-0.0258,-42.3,9.6,-4.95,,0.005205000000000015,0.9091095973533664,0.7605017443508681,forward_fall
0.951126,-0.2339,0.5567,0.6796,-0.4082,0.1379,-0.0258,-42.3,9.6,-4.95,,0.015113000000000043,0.9091095973533664,0.718525839076853,forward_fall
0.953724,-0.312,0.638,0.5604,-0.4082,0.1379,-0.0258,-42.3,9.6,-4.95,,0.002597999999999989,0.9046746155386477,0.6714839255364209,forward_fall
0.966789,-0.312,0.638,0.5604,-0.4082,0.1379,-0.0258,-43.35,8.85,-4.575,,0.013064999999999993,0.9046746155386477,0.6208882884241878,forward_fall
0.969202,-0.312,0.638,0.5604,-0.4082,0.1379,-0.0258,-43.35,8.85,-4.575,,0.0024129999999999985,0.9046746155386477,0.5684929172140549,forward_fall
0.971658,-0.2445,0.297,0.2216,-0.4082,0.1379,-0.0258,-43.35,8.85,-4.575,,0.0024560000000000137,0.44395473868402396,0.5162208632243924,forward_fall
0.990892,-0.2445,0.297,0.2216,-0.4082,0.1379,-0.0258,-43.35,8.85,-4.575,,0.019233999999999973,0.44395473868402396,0.466072963806459,forward_fall
0.993258,-0.1896,0.0502,0.026,-0.4082,0.1379,-0.0258,-43.35,8.85,-4.575,,0.0023659999999999792,0.1978489322690421,0.4200240953182721,forward_fall
1.004903,-0.1896,0.0502,0.026,-0.4694,0.2329,-0.0417,-43.35,8.85,-4.575,,0.011645000000000127,0.1978489322690421,0.3799151054856224,forward_fall
1.010725,-0.1896,0.0502,0.026,-0.4694,0.2329,-0.0417,-43.35,8.85,-4.575,,0.005821999999999994,0.1978489322690421,0.3473492890298638,forward_fall
1.013171,-0.1181,-0.0567,0.0951,-0.4694,0.2329,-0.0417,-43.35,8.85,-4.575,,0.002445999999999948,0.1618842487705336,0.32360166039683,forward_fall
1.033079,-0.1181,-0.0567,0.0951,-0.4694,0.2329,-0.0417,-43.35,8.85,-4.575,,0.019908000000000037,0.1618842487705336,0.3095477414308368,forward_fall
1.037313,-0.0899,0.0562,-0.1327,-0.4694,0.2329,-0.0417,-43.35,8.85,-4.575,,0.004233999999999849,0.16985211214465365,0.3056166286399978,forward_fall
1.040576,-0.0899,0.0562,-0.1327,-0.4694,0.2329,-0.0417,-42.6,9.3,-5.1,,0.003263000000000016,0.16985211214465365,0.3117710891794728,forward_fall
1.054953,-0.0899,0.0562,-0.1327,-0.4694,0.2329,-0.0417,-42.6,9.3,-5.1,,0.014377000000000084,0.16985211214465365,0.3275154966012398,forward_fall
1.058818,-0.2161,0.182,-0.1095,-0.4694,0.2329,-0.0417,-42.6,9.3,-5.1,,0.0038650000000000073,0.30300735964659337,0.3519305670970995,forward_fall
1.068741,-0.2161,0.182,-0.1095,-0.4694,0.2329,-0.0417,-42.6,9.3,-5.1,,0.009922999999999904,0.30300735964659337,0.38373208576389056,forward_fall
1.07084,-0.4123,0.309,0.1523,-0.4694,0.2329,-0.0417,-42.6,9.3,-5.1,,0.002099000000000073,0.5372779355231331,0.4213491706991583,forward_fall
1.073524,-0.4123,0.309,0.1523,-0.5488,0.1474,-0.0731,-42.6,9.3,-5.1,,0.0026839999999999087,0.5372779355231331,0.46301625834863075,forward_fall
1.088964,-0.4123,0.309,0.1523,-0.5488,0.1474,-0.0731,-42.6,9.3,-5.1,,0.01544000000000012,0.5372779355231331,0.5068721149677189,forward_fall
1.089796,-0.5846,0.3168,0.4007,-0.5488,0.1474,-0.0731,-42.6,9.3,-5.1,,0.0008319999999999439,0.7763246035003658,0.5510589347561741,forward_fall
1.107842,-0.5846,0.3168,0.4007,-0.5488,0.1474,-0.0731,-42.6,9.3,-5.1,,0.018046000000000006,0.7763246035003658,0.5938149643694289,forward_fall
1.109067,-0.6711,0.2239,0.3837,-0.5488,0.1474,-0.0731,-42.6,9.3,-5.1,,0.0012250000000000316,0.8048180601850333,0.6335549920125103,forward_fall
1.110103,-0.6711,0.2239,0.3837,-0.5488,0.1474,-0.0731,-43.05,9.0,-5.25,,0.0010360000000000369,0.8048180601850333,0.6689344009370185,forward_fall
1.128884,-0.6711,0.2239,0.3837,-0.5488,0.1474,-0.0731,-43.05,9.0,-5.25,,0.018780999999999937,0.8048180601850333,0.6988942628841843,forward_fall
1.130388,-0.6395,0.0068,0.1223,-0.5488,0.1474,-0.0731,-43.05,9.0,-5.25,,0.0015039999999999498,0.6511250110385869,0.722686941852748,forward_fall
1.148162,-0.6395,0.0068,0.1223,-0.4473,-0.0023,-0.0438,-43.05,9.0,-5.25,,0.017773999999999957,0.6511250110385869,0.7398835581862249,forward_fall
1.153,-0.6395,0.0068,0.1223,-0.4473,-0.0023,-0.0438,-43.05,9.0,-5.25,,0.00483800000000012,0.6511250110385869,0.7503660776862219,forward_fall
1.154504,-0.5483,-0.3887,0.0599,-0.4473,-0.0023,-0.0438,-43.05,9.0,-5.25,,0.0015039999999999498,0.6747655815170184,0.75430747630781,forward_fall
1.17145,-0.5483,-0.3887,0.0599,-0.4473,-0.0023,-0.0438,-43.05,9.0,-5.25,,0.016946000000000128,0.6747655815170184,0.7521433250893407,forward_fall
1.173243,-0.5134,-0.5298,0.3297,-0.4473,-0.0023,-0.0438,-43.05,9.0,-5.25,,0.0017929999999999335,0.8080653995809992,0.7445374445221524,forward_fall
1.177804,-0.5134,-0.5298,0.3297,-0.4473,-0.0023,-0.0438,-42.75,9.15,-5.25,,0.004561000000000037,0.8080653995809992,0.7323433571228158,forward_fall
1.192304,-0.5134,-0.5298,0.3297,-0.4473,-0.0023,-0.0438,-42.75,9.15,-5.25,,0.014499999999999957,0.8080653995809992,0.7165624940163708,forward_fall
1.197258,-0.408,-0.4176,0.4328,-0.4473,-0.0023,-0.0438,-42.75,9.15,-5.25,,0.004953999999999903,0.7267527777724692,0.6982997721219271,forward_fall
1.211034,-0.408,-0.4176,0.4328,-0.4473,-0.0023,-0.0438,-42.75,9.15,-5.25,,0.01377600000000001,0.7267527777724692,0.6787173565503296,forward_fall
1.215187,-0.2748,-0.1739,0.4384,-0.4473,-0.0023,-0.0438,-42.75,9.15,-5.25,,0.004153000000000073,0.5458487061448438,0.6589880121049194,forward_fall
1.218274,-0.2748,-0.1739,0.4384,-0.3934,-0.0231,0.0014,-42.75,9.15,-5.25,,0.003087000000000062,0.5458487061448438,0.6402501106335654,forward_fall
1.227786,-0.2748,-0.1739,0.4384,-0.3934,-0.0231,0.0014,-42.75,9.15,-5.25,,0.009511999999999965,0.5458487061448438,0.6235667663233742,forward_fall
1.229699,-0.2626,-0.0548,0.4601,-0.3934,-0.0231,0.0014,-42.75,9.15,-5.25,,0.0019130000000000535,0.5325915977557287,0.6098914987101887,forward_fall
1.249977,-0.2626,-0.0548,0.4601,-0.3934,-0.0231,0.0014,-43.125,9.15,-4.65,,0.020277999999999796,0.5325915977557287,0.6000422520443506,forward_fall
1.252754,-0.2626,-0.0548,0.4601,-0.3934,-0.0231,0.0014,-43.125,9.15,-4.65,,0.0027770000000000294,0.5325915977557287,0.5946847071865203,forward_fall
1.254394,-0.3233,-0.1351,0.5758,-0.3934,-0.0231,0.0014,-43.125,9.15,-4.65,,0.0016400000000000858,0.6740330407331676,0.5943248463886489,forward_fall
1.268838,-0.3233,-0.1351,0.5758,-0.3934,-0.0231,0.0014,-43.125,9.15,-4.65,,0.014443999999999901,0.6740330407331676,0.5993098549092286,forward_fall
1.270875,-0.2906,-0.1917,0.5901,-0.3934,-0.0231,0.0014,-43.125,9.15,-4.65,,0.0020370000000000665,0.685138861837511,0.6098358289475023,forward_fall
1.286083,-0.2906,-0.1917,0.5901,-0.3564,0.0215,-0.0078,-43.125,9.15,-4.65,,0.01520800000000011,0.685138861837511,0.625960575689131,forward_fall
1.289496,-0.2906,-0.1917,0.5901,-0.3564,0.0215,-0.0078,-43.125,9.15,-4.65,,0.0034129999999998883,0.685138861837511,0.6476200979062293,forward_fall
1.291171,-0.224,-0.0499,0.5269,-0.3564,0.0215,-0.0078,-43.125,9.15,-4.65,,0.001675000000000093,0.5747082912225993,0.6746480061993213,forward_fall
1.308643,-0.224,-0.0499,0.5269,-0.3564,0.0215,-0.0078,-43.125,9.15,-4.65,,0.017471999999999932,0.5747082912225993,0.706797808073666,forward_fall
1.311655,-0.3434,0.1798,0.5723,-0.3564,0.0215,-0.0078,-43.125,9.15,-4.65,,0.0030120000000000147,0.6912155163188974,0.7437684703287566,forward_fall
1.313458,-0.3434,0.1798,0.5723,-0.3564,0.0215,-0.0078,-42.9,8.625,-4.65,,0.001802999999999999,0.6912155163188974,0.7852335986904878,forward_fall
1.327571,-0.3434,0.1798,0.5723,-0.3564,0.0215,-0.0078,-42.9,8.625,-4.65,,0.014113000000000042,0.6912155163188974,0.8308739809449528,forward_fall
1.329505,-0.3869,0.5769,0.6379,-0.3564,0.0215,-0.0078,-42.9,8.625,-4.65,,0.0019339999999998803,0.9430915279017196,0.8804122757852911,forward_fall
1.347561,-0.3869,0.5769,0.6379,-0.3564,0.0215,-0.0078,-42.9,8.625,-4.65,,0.018056000000000072,0.9430915279017196,0.9336475536947766,forward_fall
1.350476,-0.3706,0.9296,0.6113,-0.3564,0.0215,-0.0078,-42.9,8.625,-4.65,,0.002915000000000001,1.1726841902234377,0.990486436063897,forward_fall
1.353378,-0.3706,0.9296,0.6113,-0.3445,-0.0005,-0.0363,-42.9,8.625,-4.65,,0.00290199999999996,1.1726841902234377,1.0509669813312543,forward_fall
1.368077,-0.3706,0.9296,0.6113,-0.3445,-0.0005,-0.0363,-42.9,8.625,-4.65,,0.014699000000000018,1.1726841902234377,1.115271469033891,forward_fall
1.370943,-0.3716,1.2335,0.5655,-0.3445,-0.0005,-0.0363,-42.9,8.625,-4.65,,0.002866000000000035,1.4069111770115412,1.1837248996293976,forward_fall
1.376713,-0.3716,1.2335,0.5655,-0.3445,-0.0005,-0.0363,-42.525,8.4,-4.35,,0.005770000000000053,1.4069111770115412,1.2567772011735165,forward_fall
1.382458,-0.3716,1.2335,0.5655,-0.3445,-0.0005,-0.0363,-42.525,8.4,-4.35,,0.005744999999999889,1.4069111770115412,1.334968593410478,forward_fall
1.384318,-0.1983,1.3342,0.6776,-0.3445,-0.0005,-0.0363,-42.525,8.4,-4.35,,0.0018599999999999728,1.509488088724121,1.4188791821179336,forward_fall
1.41073,-0.1983,1.3342,0.6776,-0.3445,-0.0005,-0.0363,-42.525,8.4,-4.35,,0.026412000000000102,1.509488088724121,1.5090655475840793,forward_fall
1.413001,-0.1483,1.3817,0.8669,-0.3445,-0.0005,-0.0363,-42.525,8.4,-4.35,,0.002270999999999912,1.6378654981407965,1.6059886614378904,forward_fall
1.425265,-0.1483,1.3817,0.8669,-0.2518,0.005,-0.0403,-42.525,8.4,-4.35,,0.012264000000000053,1.6378654981407965,1.7099387050917187,forward_fall
1.427889,-0.1483,1.3817,0.8669,-0.2518,0.005,-0.0403,-42.525,8.4,-4.35,,0.0026239999999999597,1.6378654981407965,1.8209631670677817,forward_fall
1.429681,-0.4151,1.4386,1.0991,-0.2518,0.005,-0.0403,-42.525,8.4,-4.35,,0.0017920000000000158,1.8573903143927504,1.938804924553481,forward_fall
1.449964,-0.4151,1.4386,1.0991,-0.2518,0.005,-0.0403,-42.525,8.4,-4.35,,0.02028300000000005,1.8573903143927504,2.0628567961513733,forward_fall
1.451991,-0.5936,1.6201,1.217,-0.2518,0.005,-0.0403,-42.525,8.4,-4.35,,0.002027000000000001,2.111438838801636,2.1921382422629163,forward_fall
1.45442,-0.5936,1.6201,1.217,-0.2518,0.005,-0.0403,-42.45,8.25,-5.175,,0.0024290000000000145,2.111438838801636,2.32529857796003,forward_fall
1.469471,-0.5936,1.6201,1.217,-0.2518,0.005,-0.0403,-42.45,8.25,-5.175,,0.015050999999999926,2.111438838801636,2.46064943617241,forward_fall
1.471452,-0.543,2.0654,1.3666,-0.2518,0.005,-0.0403,-42.45,8.25,-5.175,,0.0019810000000000105,2.5354135205129755,2.5962273768973,forward_fall
1.488804,-0.543,2.0654,1.3666,-0.2518,0.005,-0.0403,-42.45,8.25,-5.175,,0.017352000000000034,2.5354135205129755,2.7298854325413022,forward_fall
1.491295,-0.567,2.5235,1.3369,-0.2518,0.005,-0.0403,-42.45,8.25,-5.175,,0.002491000000000021,2.9115018220842654,2.859410010382096,forward_fall
1.49381,-0.567,2.5235,1.3369,-0.0458,0.0661,0.0014,-42.45,8.25,-5.175,,0.002515000000000045,2.9115018220842654,2.982657200536312,forward_fall
1.508247,-0.567,2.5235,1.3369,-0.0458,0.0661,0.0014,-42.45,8.25,-5.175,,0.014436999999999811,2.9115018220842654,3.0977005567627014,forward_fall
1.510327,-0.6218,3.0902,1.1892,-0.0458,0.0661,0.0014,-42.45,8.25,-5.175,,0.002080000000000082,3.369001027010826,3.2029810113141175,forward_fall
1.518682,-0.6218,3.0902,1.1892,-0.0458,0.0661,0.0014,-42.75,8.55,-4.8,,0.008355000000000112,3.369001027010826,3.2974486268646244,forward_fall
1.527774,-0.6218,3.0902,1.1892,-0.0458,0.0661,0.0014,-42.75,8.55,-4.8,,0.009091999999999878,3.369001027010826,3.380685230638344,forward_fall
1.528984,-0.7542,3.61,1.0574,-0.0458,0.0661,0.0014,-42.75,8.55,-4.8,,0.0012099999999999334,3.8365365109692364,3.4529967048980783,forward_fall
1.549124,-0.7542,3.61,1.0574,-0.0458,0.0661,0.0014,-42.75,8.55,-4.8,,0.020140000000000047,3.8365365109692364,3.5154640229359106,forward_fall
1.551673,-0.9298,4.0105,0.9597,-0.0458,0.0661,0.0014,-42.75,8.55,-4.8,,0.0025490000000001345,4.227252344017328,3.569943181358259,forward_fall
1.565231,-0.9298,4.0105,0.9597,0.3108,0.0751,0.0295,-42.75,8.55,-4.8,,0.013557999999999959,4.227252344017328,3.6190062465033432,forward_fall
1.568656,-0.9298,4.0105,0.9597,0.3108,0.0751,0.0295,-42.75,8.55,-4.8,,0.0034250000000000114,4.227252344017328,3.66581918427382,forward_fall
1.57143,-0.9499,3.6461,1.5742,0.3108,0.0751,0.0295,-42.75,8.55,-4.8,,0.002774000000000054,4.083437382892017,3.713957142254157,forward_fall
1.586677,-0.9499,3.6461,1.5742,0.3108,0.0751,0.0295,-42.75,8.55,-4.8,,0.015246999999999788,4.083437382892017,3.7671640505979824,forward_fall
1.588568,-1.0738,2.7953,2.3696,0.3108,0.0751,0.0295,-42.75,8.55,-4.8,,0.001891000000000087,3.8186061187297127,3.829069992677848,forward_fall
1.590881,-1.0738,2.7953,2.3696,0.3108,0.0751,0.0295,-42.6,8.325,-6.075,,0.0023130000000000095,3.8186061187297127,3.902885816297552,forward_fall
1.607177,-1.0738,2.7953,2.3696,0.3108,0.0751,0.0295,-42.6,8.325,-6.075,,0.016296000000000088,3.8186061187297127,3.9910991366745696,forward_fall
1.609067,-0.8131,2.4819,2.2967,0.3108,0.0751,0.0295,-42.6,8.325,-6.075,,0.0018899999999999473,3.477900244400348,4.095198750739275,forward_fall
1.626011,-0.8131,2.4819,2.2967,0.3108,0.0751,0.0295,-42.6,8.325,-6.075,,0.01694400000000007,3.477900244400348,4.215455316578871,forward_fall
1.627629,-0.6091,3.1339,1.5674,0.3108,0.0751,0.0295,-42.6,8.325,-6.075,,0.0016179999999998973,3.5565537785896053,4.350784805675544,forward_fall
1.634636,-0.6091,3.1339,1.5674,0.6182,0.0863,0.0212,-42.6,8.325,-6.075,,0.0070069999999999855,3.5565537785896053,4.498717514786869,forward_fall
1.650717,-0.6091,3.1339,1.5674,0.6182,0.0863,0.0212,-42.6,8.325,-6.075,,0.016081000000000012,3.5565537785896053,4.655489255192273,forward_fall
1.652885,-0.7198,3.1327,3.3487,0.6182,0.0863,0.0212,-42.6,8.325,-6.075,,0.0021679999999999477,4.641735992061591,4.816263016056512,forward_fall
1.655819,-0.7198,3.1327,3.3487,0.6182,0.0863,0.0212,-42.525,8.25,-7.05,,0.002933999999999992,4.641735992061591,4.975479652814925,forward_fall
1.666406,-0.7198,3.1327,3.3487,0.6182,0.0863,0.0212,-42.525,8.25,-7.05,,0.010587000000000124,4.641735992061591,5.127326169675905,forward_fall
1.668546,-1.3547,2.0993,4.801,0.6182,0.0863,0.0212,-42.525,8.25,-7.05,,0.0021400000000000308,5.4121967425436415,5.2663013707040465,forward_fall
1.684854,-1.3547,2.0993,4.801,0.6182,0.0863,0.0212,-42.525,8.25,-7.05,,0.01630799999999999,5.4121967425436415,5.387851944030698,forward_fall
1.686991,-2.2649,2.259,2.969,0.6182,0.0863,0.0212,-42.525,8.25,-7.05,,0.0021369999999998335,4.364380140409403,5.489047373552344,forward_fall
1.699564,-2.2649,2.259,2.969,1.0386,-0.1049,-0.1086,-42.525,8.25,-7.05,,0.012573000000000167,4.364380140409403,5.569258742267115,forward_fall
1.704462,-2.2649,2.259,2.969,1.0386,-0.1049,-0.1086,-42.525,8.25,-7.05,,0.004897999999999847,4.364380140409403,5.630803102911687,forward_fall
1.706148,-1.2327,5.3967,0.6835,1.0386,-0.1049,-0.1086,-42.525,8.25,-7.05,,0.0016860000000000763,5.577731835612036,5.679509584955164,forward_fall
1.723541,-1.2327,5.3967,0.6835,1.0386,-0.1049,-0.1086,-42.525,8.25,-7.05,,0.017392999999999992,5.577731835612036,5.725154607937944,forward_fall
1.725958,-0.4679,8.9571,1.9015,1.0386,-0.1049,-0.1086,-42.525,8.25,-7.05,,0.0024170000000001135,9.168657102869537,5.781703019452564,forward_fall
1.727919,-0.4679,8.9571,1.9015,1.0386,-0.1049,-0.1086,-42.6,7.35,-8.25,,0.0019609999999998795,9.168657102869537,5.867283889503515,forward_fall
1.749896,-0.4679,8.9571,1.9015,1.0386,-0.1049,-0.1086,-42.6,7.35,-8.25,,0.021976999999999913,9.168657102869537,6.0038294698977674,forward_fall
1.753677,1.5019,10.6491,3.0055,1.0386,-0.1049,-0.1086,-42.6,7.35,-8.25,,0.0037810000000000343,11.166560109093579,6.216317961000524,forward_fall
1.767448,1.5019,10.6491,3.0055,1.0386,-0.1049,-0.1086,-42.6,7.35,-8.25,,0.013770999999999978,11.166560109093579,6.531586552974666,forward_fall
1.769031,1.641,10.1145,3.5393,1.0386,-0.1049,-0.1086,-42.6,7.35,-8.25,,0.001583000000000112,10.840785752887102,6.976718625244002,forward_fall
1.772149,1.641,10.1145,3.5393,-0.3518,-0.1706,-0.1888,-42.6,7.35,-8.25,,0.003117999999999954,10.840785752887102,7.577054641294633,forward_fall
1.787799,1.641,10.1145,3.5393,-0.3518,-0.1706,-0.1888,-42.6,7.35,-8.25,,0.015649999999999942,10.840785752887102,8.35392669992158,forward_fall
1.789952,0.8896,6.4191,3.96,-0.3518,-0.1706,-0.1888,-42.6,7.35,-8.25,,0.0021530000000000715,7.594592350482019,9.322267444840099,forward_fall
1.800118,0.8896,6.4191,3.96,-0.3518,-0.1706,-0.1888,-42.9,7.2,-8.4,,0.01016600000000012,7.594592350482019,10.48828929107705,forward_fall
1.806769,0.8896,6.4191,3.96,-0.3518,-0.1706,-0.1888,-42.9,7.2,-8.4,,0.0066509999999999625,7.594592350482019,11.847462955258361,forward_fall
1.808484,1.2905,3.4012,2.9513,-0.3518,-0.1706,-0.1888,-42.9,7.2,-8.4,,0.001714999999999911,4.684412810587896,13.383038178444178,forward_fall
1.826128,1.2905,3.4012,2.9513,-0.3518,-0.1706,-0.1888,-42.9,7.2,-8.4,,0.017643999999999993,4.684412810587896,15.065339060113917,forward_fall
1.828169,2.6462,-1.3381,-0.6662,-0.3518,-0.1706,-0.1888,-42.9,7.2,-8.4,,0.0020409999999999595,3.0391953688435365,16.85202866828802,forward_fall
1.841799,2.6462,-1.3381,-0.6662,-1.0736,0.2352,-0.8045,-42.9,7.2,-8.4,,0.013630000000000031,3.0391953688435365,18.689470216713044,forward_fall
1.84822,2.6462,-1.3381,-0.6662,-1.0736,0.2352,-0.8045,-42.9,7.2,-8.4,,0.00642100000000001,3.0391953688435365,20.515212647847044,forward_fall
1.851407,6.8476,-24.1196,-13.4692,-1.0736,0.2352,-0.8045,-42.9,7.2,-8.4,,0.003187000000000051,28.461624664800848,22.261497337438556,forward_fall
1.87475,6.8476,-24.1196,-13.4692,-1.0736,0.2352,-0.8045,-42.9,7.2,-8.4,,0.02334299999999989,28.461624664800848,23.8595303070268,forward_fall
1.877868,-1.766,-37.1387,-26.6126,-1.0736,0.2352,-0.8045,-42.9,7.2,-8.4,,0.003118000000000176,45.72343242200874,25.244119711496214,forward_fall
1.880008,-1.766,-37.1387,-26.6126,-1.0736,0.2352,-0.8045,-42.75,5.85,-8.25,,0.0021399999999998087,45.72343242200874,26.35818528172745,forward_fall
1.888103,-1.766,-37.1387,-26.6126,-1.0736,0.2352,-0.8045,-42.75,5.85,-8.25,,0.008095000000000185,45.72343242200874,27.156641594564814,forward_fall
1.890221,-5.655,-21.6394,-26.6108,-1.0736,0.2352,-0.8045,-42.75,5.85,-8.25,,0.0021179999999998422,34.76172225307601,27.609248518388142,forward_fall
1.904679,-5.655,-21.6394,-26.6108,-1.0736,0.2352,-0.8045,-42.75,5.85,-8.25,,0.014458000000000082,34.76172225307601,27.702186045888414,forward_fall
1.907097,-1.3439,-11.8325,16.9645,-1.0736,0.2352,-0.8045,-42.75,5.85,-8.25,,0.0024180000000000312,20.726996495150956,27.438302488716484,forward_fall
1.909083,-1.3439,-11.8325,16.9645,-5.997,-1.4503,-0.9068,-42.75,5.85,-8.25,,0.0019860000000000433,20.726996495150956,26.836156679713458,forward_fall
1.924338,-1.3439,-11.8325,16.9645,-5.997,-1.4503,-0.9068,-42.75,5.85,-8.25,,0.015255000000000019,20.726996495150956,25.92809146376957,forward_fall
1.926996,2.0921,-1.1935,23.9423,-5.997,-1.4503,-0.9068,-42.75,5.85,-8.25,,0.002657999999999827,24.063147216230877,24.757624305140165,forward_fall
1.935655,2.0921,-1.1935,23.9423,-5.997,-1.4503,-0.9068,-43.35,4.425,-5.175,,0.008658999999999972,24.063147216230877,23.37643119060084,forward_fall
1.943866,2.0921,-1.1935,23.9423,-5.997,-1.4503,-0.9068,-43.35,4.425,-5.175,,0.00821100000000019,24.063147216230877,21.84115959949177,forward_fall
1.9457,8.8057,5.9888,4.248,-5.997,-1.4503,-0.9068,-43.35,4.425,-5.175,,0.0018339999999998913,11.465233618640312,20.210265510569684,forward_fall
1.963791,8.8057,5.9888,4.248,-5.997,-1.4503,-0.9068,-43.35,4.425,-5.175,,0.01809100000000008,11.465233618640312,18.541043515498355,forward_fall
1.966731,5.3693,11.72,8.4702,-5.997,-1.4503,-0.9068,-43.35,4.425,-5.175,,0.0029399999999999427,15.425046856654927,16.887001134685374,forward_fall
1.978428,5.3693,11.72,8.4702,-5.997,-1.4503,-0.9068,-43.35,4.425,-5.175,,0.011697000000000068,15.425046856654927,15.295700656108199,forward_fall
1.981467,0.7996,9.9106,4.6138,-5.997,-1.4503,-0.9068,-43.35,4.425,-5.175,,0.003039000000000014,10.961136025066015,13.807147275072106,forward_fall
1.983833,0.7996,9.9106,4.6138,-3.3004,0.2821,-0.6418,-43.35,4.425,-5.175,,0.002365999999999868,10.961136025066015,12.452752808673926,forward_fall
2.00289,0.7996,9.9106,4.6138,-3.3004,0.2821,-0.6418,-43.35,4.425,-5.175,,0.01905699999999988,10.961136025066015,11.25486498356234,forward_fall
2.004386,-3.4865,7.4163,2.6868,-3.3004,0.2821,-0.6418,-43.35,4.425,-5.175,,0.0014959999999999418,8.62415689676388,10.226825917972251,forward_fall
2.005844,-3.4865,7.4163,2.6868,-3.3004,0.2821,-0.6418,-43.425,3.6,-2.55,,0.0014580000000004034,8.62415689676388,9.373503841411297,forward_fall
2.022024,-3.4865,7.4163,2.6868,-3.3004,0.2821,-0.6418,-43.425,3.6,-2.55,,0.01617999999999986,8.62415689676388,8.692225295547953,forward_fall
2.024093,-3.3133,3.7593,6.7455,-3.3004,0.2821,-0.6418,-43.425,3.6,-2.55,,0.0020690000000000985,8.403098454141782,8.174020737470821,forward_fall
2.046318,-3.3133,3.7593,6.7455,-3.3004,0.2821,-0.6418,-43.425,3.6,-2.55,,0.022224999999999717,8.403098454141782,7.805085092242862,forward_fall
2.048185,-4.7411,1.6963,8.3396,-3.3004,0.2821,-0.6418,-43.425,3.6,-2.55,,0.001867000000000285,9.741888475033987,7.568347251432104,forward_fall
2.05096,-4.7411,1.6963,8.3396,-2.8721,0.8404,0.3254,-43.425,3.6,-2.55,,0.00277499999999975,9.741888475033987,7.4450402738526344,forward_fall
2.070202,-4.7411,1.6963,8.3396,-2.8721,0.8404,0.3254,-43.425,3.6,-2.55,,0.019242000000000203,9.741888475033987,7.416168564560511,forward_fall
2.072749,-6.5882,2.5687,7.5126,-2.8721,0.8404,0.3254,-43.425,3.6,-2.55,,0.002546999999999855,10.317061485229212,7.463780565091204,forward_fall
2.076196,-6.5882,2.5687,7.5126,-2.8721,0.8404,0.3254,-43.05,4.35,-5.25,,0.003446999999999978,10.317061485229212,7.571975379988489,forward_fall
2.086475,-6.5882,2.5687,7.5126,-2.8721,0.8404,0.3254,-43.05,4.35,-5.25,,0.010279000000000149,10.317061485229212,7.727597750259573,forward_fall
2.0884,-6.4135,1.8743,3.0397,-2.8721,0.8404,0.3254,-43.05,4.35,-5.25,,0.0019249999999999545,7.340691985773549,7.920605572537245,forward_fall
2.105207,-6.4135,1.8743,3.0397,-2.8721,0.8404,0.3254,-43.05,4.35,-5.25,,0.016807000000000016,7.340691985773549,8.144124871424136,forward_fall
2.107692,-6.6587,1.4602,-1.3,-2.8721,0.8404,0.3254,-43.05,4.35,-5.25,,0.0024850000000000705,6.9397744725603285,8.394234224551623,forward_fall
2.119947,-6.6587,1.4602,-1.3,-1.9342,-1.9733,0.4302,-43.05,4.35,-5.25,,0.012254999999999683,6.9397744725603285,8.669538464174098,forward_fall
2.1248,-6.6587,1.4602,-1.3,-1.9342,-1.9733,0.4302,-43.05,4.35,-5.25,,0.004853000000000218,6.9397744725603285,8.97059656498442,forward_fall
2.12667,-8.7647,-0.9313,-6.1367,-1.9342,-1.9733,0.4302,-43.05,4.35,-5.25,,0.0018699999999998163,10.73994286157985,9.299262026500912,forward_fall
2.144389,-8.7647,-0.9313,-6.1367,-1.9342,-1.9733,0.4302,-43.05,4.35,-5.25,,0.01771900000000004,10.73994286157985,9.657980441803861,forward_fall
2.147077,-8.7471,-3.0827,-8.5442,-1.9342,-1.9733,0.4302,-43.05,4.35,-5.25,,0.0026880000000000237,12.61023993982668,10.049074913286196,forward_fall
2.149873,-8.7471,-3.0827,-8.5442,-1.9342,-1.9733,0.4302,-42.6,5.625,-2.4,,0.0027960000000000207,12.61023993982668,10.474042546585062,forward_fall
2.164482,-8.7471,-3.0827,-8.5442,-1.9342,-1.9733,0.4302,-42.6,5.625,-2.4,,0.014609000000000094,12.61023993982668,10.93288900448567,forward_fall
2.166422,-1.2709,-0.5854,-6.1087,-1.9342,-1.9733,0.4302,-42.6,5.625,-2.4,,0.0019399999999998307,6.266904791043183,11.423542449568695,forward_fall
2.180146,-1.2709,-0.5854,-6.1087,-1.9342,-1.9733,0.4302,-42.6,5.625,-2.4,,0.013724000000000292,6.266904791043183,11.941406729825848,forward_fall
2.182668,6.2843,1.9649,-6.3451,-1.9342,-1.9733,0.4302,-42.6,5.625,-2.4,,0.002521999999999913,9.144044647200712,12.479124991326545,forward_fall
2.188191,6.2843,1.9649,-6.3451,-0.8784,-5.7166,0.6246,-42.6,5.625,-2.4,,0.005523000000000167,9.144044647200712,13.026617171166514,forward_fall
2.202975,6.2843,1.9649,-6.3451,-0.8784,-5.7166,0.6246,-42.6,5.625,-2.4,,0.014783999999999686,9.144044647200712,13.571424152326863,forward_fall
2.204474,14.7775,0.8715,-7.2294,-0.8784,-5.7166,0.6246,-42.6,5.625,-2.4,,0.001498999999999917,16.47416895809922,14.099345381092283,forward_fall
2.215388,14.7775,0.8715,-7.2294,-0.8784,-5.7166,0.6246,-40.35,6.9,11.025,,0.01091400000000009,16.47416895809922,14.595308211218867,forward_fall
2.222344,14.7775,0.8715,-7.2294,-0.8784,-5.7166,0.6246,-40.35,6.9,11.025,,0.006956000000000184,16.47416895809922,15.04436736565605,forward_fall
2.223737,16.7372,-2.1633,-11.2916,-0.8784,-5.7166,0.6246,-40.35,6.9,11.025,,0.0013929999999997555,20.305515538641224,15.432710138278905,forward_fall
2.242297,16.7372,-2.1633,-11.2916,-0.8784,-5.7166,0.6246,-40.35,6.9,11.025,,0.018560000000000354,20.305515538641224,15.748541310114215,forward_fall
2.244132,14.1614,-3.7613,-14.6059,-0.8784,-5.7166,0.6246,-40.35,6.9,11.025,,0.001834999999999809,20.688763676450076,15.98273940285745,forward_fall
2.256488,14.1614,-3.7613,-14.6059,-1.2729,0.9082,-0.0454,-40.35,6.9,11.025,,0.012356000000000034,20.688763676450076,16.12920864439605,forward_fall
2.26154,14.1614,-3.7613,-14.6059,-1.2729,0.9082,-0.0454,-40.35,6.9,11.025,,0.0050520000000000564,20.688763676450076,16.184895468824298,forward_fall
2.263793,9.392,-0.9167,-10.4173,-1.2729,0.9082,-0.0454,-40.35,6.9,11.025,,0.0022530000000000605,14.055964647792763,16.14949049352111,forward_fall
2.278042,9.392,-0.9167,-10.4173,-1.2729,0.9082,-0.0454,-40.35,6.9,11.025,,0.014248999999999956,14.055964647792763,16.024890134504165,forward_fall
2.280077,0.5254,1.7269,-7.6491,-1.2729,0.9082,-0.0454,-40.35,6.9,11.025,,0.002034999999999787,7.859195860900783,15.814536678638174,forward_fall
2.286425,0.5254,1.7269,-7.6491,-1.2729,0.9082,-0.0454,-38.55,5.925,17.7,,0.00634800000000002,7.859195860900783,15.522779887064504,forward_fall
2.305381,0.5254,1.7269,-7.6491,-1.2729,0.9082,-0.0454,-38.55,5.925,17.7,,0.018956000000000195,7.859195860900783,15.154397088689777,forward_fall
2.307679,-8.5663,6.0252,-6.6254,-1.2729,0.9082,-0.0454,-38.55,5.925,17.7,,0.002297999999999689,12.392758203483194,14.714369501616137,forward_fall
2.325211,-8.5663,6.0252,-6.6254,-1.2729,0.9082,-0.0454,-38.55,5.925,17.7,,0.017532000000000103,12.392758203483194,14.207947568368288,forward_fall
2.328606,-16.9047,8.3337,-4.4959,-1.2729,0.9082,-0.0454,-38.55,5.925,17.7,,0.003395000000000259,19.376082023721924,13.640963792536976,forward_fall
2.335012,-16.9047,8.3337,-4.4959,0.1997,3.4322,-0.6344,-38.55,5.925,17.7,,0.00640599999999969,19.376082023721924,13.020288065668248,forward_fall
2.344823,-16.9047,8.3337,-4.4959,0.1997,3.4322,-0.6344,-38.55,5.925,17.7,,0.009811000000000014,19.376082023721924,12.354284846715949,forward_fall
2.346867,-12.3493,3.6789,-2.29,0.1997,3.4322,-0.6344,-38.55,5.925,17.7,,0.002044000000000157,13.087536655154018,11.653132824125937,forward_fall
2.355517,-12.3493,3.6789,-2.29,0.1997,3.4322,-0.6344,-40.65,3.15,8.55,,0.008649999999999824,13.087536655154018,10.928903341910555,forward_fall
2.365929,-12.3493,3.6789,-2.29,0.1997,3.4322,-0.6344,-40.65,3.15,8.55,,0.010412000000000088,13.087536655154018,10.195349312852407,forward_fall
2.36836,-8.7051,-0.9079,0.7178,0.1997,3.4322,-0.6344,-40.65,3.15,8.55,,0.002431000000000072,8.781701729163887,9.467412340956145,forward_fall
2.383857,-8.7051,-0.9079,0.7178,0.1997,3.4322,-0.6344,-40.65,3.15,8.55,,0.015496999999999872,8.781701729163887,8.760500017990607,forward_fall
2.386153,-5.0278,0.0342,0.803,0.1997,3.4322,-0.6344,-40.65,3.15,8.55,,0.002296000000000298,5.091635442566563,8.08961565542249,forward_fall
2.403079,-5.0278,0.0342,0.803,0.6648,0.0104,-0.2485,-40.65,3.15,8.55,,0.016925999999999775,5.091635442566563,7.468440266566561,forward_fall
2.406282,-5.0278,0.0342,0.803,0.6648,0.0104,-0.2485,-40.65,3.15,8.55,,0.003203000000000067,5.091635442566563,6.908470946289278,forward_fall
2.408476,-0.1757,1.2347,-1.6627,0.6648,0.0104,-0.2485,-40.65,3.15,8.55,,0.002193999999999807,2.0784431360997107,6.418310552608775,forward_fall
2.423139,-0.1757,1.2347,-1.6627,0.6648,0.0104,-0.2485,-40.65,3.15,8.55,,0.014663000000000093,2.0784431360997107,6.0031829690519585,forward_fall
2.424978,2.8849,3.4667,-2.9187,0.6648,0.0104,-0.2485,-40.65,3.15,8.55,,0.001838999999999924,5.372100761340948,5.664719547658633,forward_fall
2.426667,2.8849,3.4667,-2.9187,0.6648,0.0104,-0.2485,-41.4,2.55,4.95,,0.0016890000000002736,5.372100761340948,5.401028374756324,forward_fall
2.442734,2.8849,3.4667,-2.9187,0.6648,0.0104,-0.2485,-41.4,2.55,4.95,,0.016067000000000053,5.372100761340948,5.207022876864068,forward_fall
2.444702,4.3528,4.7105,-1.5682,0.6648,0.0104,-0.2485,-41.4,2.55,4.95,,0.0019679999999997477,6.602645631108791,5.074956936478169,forward_fall
2.463564,4.3528,4.7105,-1.5682,0.6648,0.0104,-0.2485,-41.4,2.55,4.95,,0.018861999999999934,6.602645631108791,4.99509613387388,forward_fall
2.46499,4.7248,3.8674,-1.9331,0.6648,0.0104,-0.2485,-41.4,2.55,4.95,,0.0014259999999999273,6.404482290552453,4.956449952365888,forward_fall
2.466749,4.7248,3.8674,-1.9331,0.315,-0.1217,-0.0783,-41.4,2.55,4.95,,0.0017590000000002881,6.404482290552453,4.947495101394454,forward_fall
2.47825,4.7248,3.8674,-1.9331,0.315,-0.1217,-0.0783,-41.4,2.55,4.95,,0.011500999999999983,6.404482290552453,4.956832373747647,forward_fall
2.479155,4.2704,2.3544,-3.3539,0.315,-0.1217,-0.0783,-41.4,2.55,4.95,,0.0009049999999999336,5.918459320634045,4.9737357807096885,forward_fall
2.496467,4.2704,2.3544,-3.3539,0.315,-0.1217,-0.0783,-40.65,2.55,6.225,,0.017311999999999994,5.918459320634045,4.9885704662783406,forward_fall
2.501484,4.2704,2.3544,-3.3539,0.315,-0.1217,-0.0783,-40.65,2.55,6.225,,0.005017000000000049,5.918459320634045,4.993073188260567,forward_fall
2.502461,0.5266,1.6022,-2.7355,0.315,-0.1217,-0.0783,-40.65,2.55,6.225,,0.0009769999999997836,3.2136136435483342,4.980504795079831,forward_fall
2.521477,0.5266,1.6022,-2.7355,0.315,-0.1217,-0.0783,-40.65,2.55,6.225,,0.019016000000000144,3.2136136435483342,4.945696899661952,forward_fall
2.522676,-3.0275,1.8366,-2.4523,0.315,-0.1217,-0.0783,-40.65,2.55,6.225,,0.0011990000000001722,4.3072765293164075,4.88502269129024,forward_fall
2.535836,-3.0275,1.8366,-2.4523,-0.1167,0.4503,0.4476,-40.65,2.55,6.225,,0.01316000000000006,4.3072765293164075,4.796322009974659,forward_fall
2.543043,-3.0275,1.8366,-2.4523,-0.1167,0.4503,0.4476,-40.65,2.55,6.225,,0.007206999999999741,4.3072765293164075,4.678803324154469,forward_fall
2.546656,-4.6067,1.9109,-2.0027,-0.1167,0.4503,0.4476,-40.65,2.55,6.225,,0.0036130000000000884,5.374386568716471,4.532933897879741,forward_fall
2.563313,-4.6067,1.9109,-2.0027,-0.1167,0.4503,0.4476,-40.65,2.55,6.225,,0.016656999999999922,5.374386568716471,4.360319313607853,forward_fall
2.565223,-3.138,1.241,-2.3384,-0.1167,0.4503,0.4476,-40.65,2.55,6.225,,0.0019100000000000783,4.105513312607815,4.163567817685417,forward_fall
2.566746,-3.138,1.241,-2.3384,-0.1167,0.4503,0.4476,-40.95,3.0,4.95,,0.0015230000000001631,4.105513312607815,3.94613447128977,forward_fall
2.578185,-3.138,1.241,-2.3384,-0.1167,0.4503,0.4476,-40.95,3.0,4.95,,0.011438999999999755,4.105513312607815,3.7121437219128737,forward_fall
2.57992,-1.6619,0.9596,-2.6281,-0.1167,0.4503,0.4476,-40.95,3.0,4.95,,0.001735000000000042,3.2541747617483607,3.4661942183515735,forward_fall
2.599396,-1.6619,0.9596,-2.6281,-0.1167,0.4503,0.4476,-40.95,3.0,4.95,,0.01947600000000005,3.2541747617483607,3.2131541116906965,forward_fall
2.600946,-0.3913,0.7935,-2.1858,-0.1167,0.4503,0.4476,-40.95,3.0,4.95,,0.0015499999999999403,2.358066915929232,2.95795792154909,forward_fall
2.605183,-0.3913,0.7935,-2.1858,0.0605,-0.0315,-0.0275,-40.95,3.0,4.95,,0.004236999999999824,2.358066915929232,2.7054174011523897,forward_fall
2.618985,-0.3913,0.7935,-2.1858,0.0605,-0.0315,-0.0275,-40.95,3.0,4.95,,0.013802000000000092,2.358066915929232,2.460058583471982,forward_fall
2.619747,0.3416,0.6739,-1.2206,0.0605,-0.0315,-0.0275,-40.95,3.0,4.95,,0.0007619999999999294,1.4355124973332694,2.22599516802843,forward_fall
2.635399,0.3416,0.6739,-1.2206,0.0605,-0.0315,-0.0275,-40.05,3.525,4.65,,0.01565200000000022,1.4355124973332694,2.006844938225394,forward_fall
2.642724,0.3416,0.6739,-1.2206,0.0605,-0.0315,-0.0275,-40.05,3.525,4.65,,0.007324999999999804,1.4355124973332694,1.8056914921344391,forward_fall
2.643347,1.381,0.2725,-0.9495,0.0605,-0.0315,-0.0275,-40.05,3.525,4.65,,0.0006230000000000402,1.6979303578180114,1.6250884071215548,forward_fall
2.663263,1.381,0.2725,-0.9495,0.0605,-0.0315,-0.0275,-40.05,3.525,4.65,,0.019916000000000267,1.6979303578180114,1.4670972795332078,forward_fall
2.665204,1.6283,0.2969,-1.1304,0.0605,-0.0315,-0.0275,-40.05,3.525,4.65,,0.0019409999999999705,2.0043239907759425,1.3333459063525788,forward_fall
2.677437,1.6283,0.2969,-1.1304,0.0197,-0.122,0.0432,-40.05,3.525,4.65,,0.012232999999999716,2.0043239907759425,1.2250897462251356,forward_fall
2.678928,1.6283,0.2969,-1.1304,0.0197,-0.122,0.0432,-40.05,3.525,4.65,,0.0014910000000001311,2.0043239907759425,1.1432598338636188,forward_fall
2.679743,1.1795,0.2793,-0.7092,0.0197,-0.122,0.0432,-40.05,3.525,4.65,,0.0008150000000002322,1.4043480266657549,1.0884837712500264,forward_fall
2.702267,1.1795,0.2793,-0.7092,0.0197,-0.122,0.0432,-40.05,3.525,4.65,,0.022523999999999766,1.4043480266657549,1.0610726776002704,forward_fall
2.703602,0.6907,0.3258,-0.4484,0.0197,-0.122,0.0432,-40.05,3.525,4.65,,0.0013350000000000861,0.8855928466287428,1.060974665374473,forward_fall
2.707117,0.6907,0.3258,-0.4484,0.0197,-0.122,0.0432,-40.35,3.3,5.025,,0.003515000000000157,0.8855928466287428,1.0877027011286726,forward_fall
2.722569,0.6907,0.3258,-0.4484,0.0197,-0.122,0.0432,-40.35,3.3,5.025,,0.0154519999999998,0.8855928466287428,1.1402500551067982,forward_fall
2.724088,0.2355,0.6154,-0.3495,0.0197,-0.122,0.0432,-40.35,3.3,5.025,,0.001519000000000048,0.7458737560740423,1.2170091990074225,forward_fall
2.741912,0.2355,0.6154,-0.3495,0.0197,-0.122,0.0432,-40.35,3.3,5.025,,0.017824000000000062,0.7458737560740423,1.3157100439171916,forward_fall
2.743328,-0.1928,0.7714,-1.0332,0.0197,-0.122,0.0432,-40.35,3.3,5.025,,0.0014159999999998618,1.3037377190217363,1.4333913191762013,forward_fall
2.750419,-0.1928,0.7714,-1.0332,0.0122,-0.0289,0.0212,-40.35,3.3,5.025,,0.0070909999999999584,1.3037377190217363,1.566415272652973,forward_fall
2.760208,-0.1928,0.7714,-1.0332,0.0122,-0.0289,0.0212,-40.35,3.3,5.025,,0.009789000000000048,1.3037377190217363,1.7105314096927575,forward_fall
2.761883,-0.6594,0.4616,-1.2671,0.0122,-0.0289,0.0212,-40.35,3.3,5.025,,0.001675000000000093,1.501141342445807,1.8609904560971273,forward_fall
2.775415,-0.6594,0.4616,-1.2671,0.0122,-0.0289,0.0212,-40.35,3.3,5.025,,0.0135320000000001,1.501141342445807,2.0127055631927284,forward_fall
2.777089,-0.9335,0.3007,-2.1249,0.0122,-0.0289,0.0212,-40.35,3.3,5.025,,0.0016739999999999533,2.340308259610259,2.1604537761192657,forward_fall
2.779257,-0.9335,0.3007,-2.1249,0.0122,-0.0289,0.0212,-40.425,3.6,4.95,,0.0021679999999997257,2.340308259610259,2.2991066709414474,forward_fall
2.799417,-0.9335,0.3007,-2.1249,0.0122,-0.0289,0.0212,-40.425,3.6,4.95,,0.020160000000000178,2.340308259610259,2.4238751710584414,forward_fall
2.801824,-0.961,0.2583,-3.0589,0.0122,-0.0289,0.0212,-40.425,3.6,4.95,,0.002406999999999826,3.216692260692651,2.530550723422469,forward_fall
2.815459,-0.961,0.2583,-3.0589,-0.1153,-0.2827,0.0921,-40.425,3.6,4.95,,0.013635000000000286,3.216692260692651,2.6157238706086097,forward_fall
2.819975,-0.961,0.2583,-3.0589,-0.1153,-0.2827,0.0921,-40.425,3.6,4.95,,0.0045159999999997424,3.216692260692651,2.6769619933847952,forward_fall
2.82154,-1.1472,-0.0645,-2.8834,-0.1153,-0.2827,0.0921,-40.425,3.6,4.95,,0.0015650000000002606,3.1039045813297808,2.712930763477717,forward_fall
2.838979,-1.1472,-0.0645,-2.8834,-0.1153,-0.2827,0.0921,-40.425,3.6,4.95,,0.017438999999999982,3.1039045813297808,2.7234485858233923,forward_fall
2.840926,-1.3314,-0.2356,-2.6282,-0.1153,-0.2827,0.0921,-40.425,3.6,4.95,,0.001946999999999921,2.9555995263228745,2.709469282142233,forward_fall
2.847371,-1.3314,-0.2356,-2.6282,-0.1153,-0.2827,0.0921,-40.65,4.05,5.25,,0.006444999999999812,2.9555995263228745,2.6729943224848243,forward_fall
2.858958,-1.3314,-0.2356,-2.6282,-0.1153,-0.2827,0.0921,-40.65,4.05,5.25,,0.011587000000000014,2.9555995263228745,2.6169212775478057,forward_fall
2.862086,-0.4919,-0.2356,-2.4015,-0.1153,-0.2827,0.0921,-40.65,4.05,5.25,,0.0031280000000002417,2.462656131090981,2.5448396980033587,forward_fall
2.881938,-0.4919,-0.2356,-2.4015,-0.1153,-0.2827,0.0921,-40.65,4.05,5.25,,0.01985199999999976,2.462656131090981,2.4607894618946595,forward_fall
2.885485,0.0471,-0.1003,-1.8235,-0.1153,-0.2827,0.0921,-40.65,4.05,5.25,,0.003547000000000189,1.8268636374945995,2.368999736851854,forward_fall
2.88848,0.0471,-0.1003,-1.8235,-0.3021,-0.5296,0.3781,-40.65,4.05,5.25,,0.002994999999999859,1.8268636374945995,2.2736286697363637,forward_fall
2.901532,0.0471,-0.1003,-1.8235,-0.3021,-0.5296,0.3781,-40.65,4.05,5.25,,0.013052000000000064,1.8268636374945995,2.178524133374481,forward_fall
2.903913,-0.3962,0.2425,-1.2956,-0.3021,-0.5296,0.3781,-40.65,4.05,5.25,,0.0023810000000001885,1.376357529859157,2.0870239742820234,non_fall
2.916997,-0.3962,0.2425,-1.2956,-0.3021,-0.5296,0.3781,-40.8,4.425,6.6,,0.013083999999999651,1.376357529859157,2.0018104055830173,non_fall
2.919789,-0.3962,0.2425,-1.2956,-0.3021,-0.5296,0.3781,-40.8,4.425,6.6,,0.0027920000000003498,1.376357529859157,1.9248279967851816,non_fall
2.92175,-0.9184,0.7299,-1.3156,-0.3021,-0.5296,0.3781,-40.8,4.425,6.6,,0.0019609999999996575,1.7626729503796217,1.8572685672572207,non_fall
2.941711,-0.9184,0.7299,-1.3156,-0.3021,-0.5296,0.3781,-40.8,4.425,6.6,,0.01996100000000034,1.7626729503796217,1.7996196222187038,non_fall
2.943952,-0.8733,1.3061,-1.0937,-0.3021,-0.5296,0.3781,-40.8,4.425,6.6,,0.0022409999999997154,1.9143483982807308,1.751766613577986,non_fall
2.956338,-0.8733,1.3061,-1.0937,-0.2781,-0.7512,0.514,-40.8,4.425,6.6,,0.01238600000000023,1.9143483982807308,1.713134388830047,non_fall
2.960835,-0.8733,1.3061,-1.0937,-0.2781,-0.7512,0.514,-40.8,4.425,6.6,,0.004496999999999751,1.9143483982807308,1.6828504475134787,non_fall
2.96261,-0.6487,1.6636,-1.0912,-0.2781,-0.7512,0.514,-40.8,4.425,6.6,,0.0017750000000003041,2.0926285121827046,1.6599120459289325,non_fall
2.977851,-0.6487,1.6636,-1.0912,-0.2781,-0.7512,0.514,-40.8,4.425,6.6,,0.015240999999999616,2.0926285121827046,1.6433403215966886,non_fall
2.980905,-0.5885,1.6569,-1.0774,-0.2781,-0.7512,0.514,-40.8,4.425,6.6,,0.003054000000000112,2.062144665148398,1.632307032131126,non_fall
2.98991,-0.5885,1.6569,-1.0774,-0.2781,-0.7512,0.514,-40.425,6.15,8.55,,0.009005000000000152,2.062144665148398,1.62622301144666,non_fall
2.999868,-0.5885,1.6569,-1.0774,-0.2781,-0.7512,0.514,-40.425,6.15,8.55,,0.009958000000000133,2.062144665148398,1.6247818737008113,non_fall
3.001802,-0.3315,1.5548,-0.5761,-0.2781,-0.7512,0.514,-40.425,6.15,8.55,,0.0019339999999998803,1.6909129191061258,1.627957529377485,non_fall
3.019613,-0.3315,1.5548,-0.5761,-0.2781,-0.7512,0.514,-40.425,6.15,8.55,,0.01781100000000002,1.6909129191061258,1.6359592506117524,non_fall
3.022081,0.2266,1.0589,-0.8469,-0.2781,-0.7512,0.514,-40.425,6.15,8.55,,0.0024679999999999147,1.374720473405412,1.6491527417365255,non_fall
3.024679,0.2266,1.0589,-0.8469,-0.0518,-1.0439,0.3871,-40.425,6.15,8.55,,0.002597999999999878,1.374720473405412,1.6679592444259537,non_fall
3.039217,0.2266,1.0589,-0.8469,-0.0518,-1.0439,0.3871,-40.425,6.15,8.55,,0.01453799999999994,1.374720473405412,1.6927465366735148,non_fall
3.041081,0.8265,0.9328,-0.8965,-0.0518,-1.0439,0.3871,-40.425,6.15,8.55,,0.0018640000000003099,1.5352297352513726,1.723725550184059,non_fall
3.055911,0.8265,0.9328,-0.8965,-0.0518,-1.0439,0.3871,-39.75,7.425,11.625,,0.014829999999999899,1.5352297352513726,1.760864511925545,non_fall
3.058585,0.8265,0.9328,-0.8965,-0.0518,-1.0439,0.3871,-39.75,7.425,11.625,,0.002673999999999843,1.5352297352513726,1.8038296741281374,non_fall
3.060139,1.2507,0.9466,-0.6449,-0.0518,-1.0439,0.3871,-39.75,7.425,11.625,,0.0015540000000000553,1.6959357476036643,1.8519585418619666,non_fall
3.078493,1.2507,0.9466,-0.6449,-0.0518,-1.0439,0.3871,-39.75,7.425,11.625,,0.01835399999999998,1.6959357476036643,1.9042684528172418,non_fall
3.080949,1.4109,0.8623,-0.3501,-0.0518,-1.0439,0.3871,-39.75,7.425,11.625,,0.0024560000000000137,1.690198245768821,1.959500491152649,non_fall
3.093892,1.4109,0.8623,-0.3501,0.1982,-0.8613,0.2002,-39.75,7.425,11.625,,0.012942999999999927,1.690198245768821,2.0161959714961584,non_fall
3.105294,1.4109,0.8623,-0.3501,0.1982,-0.8613,0.2002,-39.75,7.425,11.625,,0.011402000000000356,1.690198245768821,2.0727999979165213,non_fall
3.108005,1.7699,1.2225,-0.6693,0.1982,-0.8613,0.2002,-39.75,7.425,11.625,,0.002710999999999686,2.25277933895,2.127783693149219,non_fall
3.118193,1.7699,1.2225,-0.6693,0.1982,-0.8613,0.2002,-39.75,7.425,11.625,,0.010188000000000308,2.25277933895,2.1797735326967898,non_fall
3.120196,2.31,1.9515,-0.5541,0.1982,-0.8613,0.2002,-39.75,7.425,11.625,,0.002002999999999755,3.0743257895024723,2.2276732232047443,non_fall
3.122189,2.31,1.9515,-0.5541,0.1982,-0.8613,0.2002,-39.15,8.1,14.4,,0.0019930000000001336,3.0743257895024723,2.270761731833522,non_fall
3.137094,2.31,1.9515,-0.5541,0.1982,-0.8613,0.2002,-39.15,8.1,14.4,,0.014904999999999724,3.0743257895024723,2.3087515983080213,non_fall
3.139588,2.0143,2.2605,-0.2673,0.1982,-0.8613,0.2002,-39.15,8.1,14.4,,0.0024939999999999962,3.0395252968185673,2.3417953118349177,non_fall
3.156371,2.0143,2.2605,-0.2673,0.1982,-0.8613,0.2002,-39.15,8.1,14.4,,0.016783000000000214,3.0395252968185673,2.370434139718068,non_fall
3.158597,1.2201,1.7537,0.6604,0.1982,-0.8613,0.2002,-39.15,8.1,14.4,,0.0022259999999998392,2.23612071677716,2.3954922314059486,non_fall
3.161192,1.2201,1.7537,0.6604,0.1611,-0.0654,0.1246,-39.15,8.1,14.4,,0.002594999999999903,2.23612071677716,2.417927522022774,non_fall
3.178614,1.2201,1.7537,0.6604,0.1611,-0.0654,0.1246,-39.15,8.1,14.4,,0.01742200000000027,2.23612071677716,2.438658352599656,non_fall
3.181173,0.8009,0.5736,0.9012,0.1611,-0.0654,0.1246,-39.15,8.1,14.4,,0.002558999999999756,1.3351476360313117,2.4583894713613654,non_fall
3.191644,0.8009,0.5736,0.9012,0.1611,-0.0654,0.1246,-38.55,8.925,14.4,,0.010471000000000341,1.3351476360313117,2.4774623803227,non_fall
3.200438,0.8009,0.5736,0.9012,0.1611,-0.0654,0.1246,-38.55,8.925,14.4,,0.008793999999999969,1.3351476360313117,2.495752582441556,non_fall
3.20222,1.2543,-0.5103,1.8085,0.1611,-0.0654,0.1246,-38.55,8.925,14.4,,0.0017819999999999503,2.259280157483795,2.5126301144944403,non_fall
3.221216,1.2543,-0.5103,1.8085,0.1611,-0.0654,0.1246,-38.55,8.925,14.4,,0.018996000000000013,2.259280157483795,2.526990319455566,non_fall
3.223812,1.6258,-1.136,1.9494,0.1611,-0.0654,0.1246,-38.55,8.925,14.4,,0.0025960000000000427,2.780985796439816,2.537350939698668,non_fall
3.234786,1.6258,-1.136,1.9494,-0.2387,0.5734,-0.0684,-38.55,8.925,14.4,,0.01097400000000004,2.780985796439816,2.5420020095413656,non_fall
3.23968,1.6258,-1.136,1.9494,-0.2387,0.5734,-0.0684,-38.55,8.925,14.4,,0.004893999999999732,2.780985796439816,2.539188723496735,non_fall
3.24115,1.6297,-1.5414,2.0951,-0.2387,0.5734,-0.0684,-38.55,8.925,14.4,,0.0014700000000003044,3.0694103766032983,2.527304891726016,non_fall
3.259309,1.6297,-1.5414,2.0951,-0.2387,0.5734,-0.0684,-38.55,8.925,14.4,,0.018158999999999814,3.0694103766032983,2.5050750596909146,non_fall
3.261179,1.5941,-1.2543,2.2029,-0.2387,0.5734,-0.0684,-38.55,8.925,14.4,,0.0018699999999998163,2.9945269593042574,2.4717059616117574,non_fall
3.263818,1.5941,-1.2543,2.2029,-0.2387,0.5734,-0.0684,-39.15,9.3,13.95,,0.00263900000000028,2.9945269593042574,2.4269921318685506,non_fall
3.278592,1.5941,-1.2543,2.2029,-0.2387,0.5734,-0.0684,-39.15,9.3,13.95,,0.014774000000000065,2.9945269593042574,2.3713658958600123,non_fall
3.280688,1.4162,-0.6654,1.519,-0.2387,0.5734,-0.0684,-39.15,9.3,13.95,,0.0020959999999998757,2.1807660580630834,2.305888210550451,non_fall
3.299061,1.4162,-0.6654,1.519,-0.2387,0.5734,-0.0684,-39.15,9.3,13.95,,0.018372999999999973,2.1807660580630834,2.232183312035879,non_fall
3.301449,1.4011,0.149,1.3716,-0.2387,0.5734,-0.0684,-39.15,9.3,13.95,,0.0023879999999998347,1.9663592677839927,2.1523259573230407,non_fall
3.303647,1.4011,0.149,1.3716,-0.1144,1.0705,-0.33,-39.15,9.3,13.95,,0.0021979999999999222,1.9663592677839927,2.068694173783563,non_fall
3.318044,1.4011,0.149,1.3716,-0.1144,1.0705,-0.33,-39.15,9.3,13.95,,0.014397000000000215,1.9663592677839927,1.9838022659844434,non_fall
3.319686,1.0965,0.6414,1.1811,-0.1144,1.0705,-0.33,-39.15,9.3,13.95,,0.0016419999999999213,1.7345614488970982,1.900128748146907,non_fall
3.330826,1.0965,0.6414,1.1811,-0.1144,1.0705,-0.33,-40.125,8.1,12.15,,0.01114000000000015,1.7345614488970982,1.8199528286774826,non_fall
3.337757,1.0965,0.6414,1.1811,-0.1144,1.0705,-0.33,-40.125,8.1,12.15,,0.006930999999999798,1.7345614488970982,1.74521182646582,non_fall
3.339192,0.6739,0.4443,0.6926,-0.1144,1.0705,-0.33,-40.125,8.1,12.15,,0.0014350000000002971,1.0635969443355882,1.6773906831599652,non_fall
3.357011,0.6739,0.4443,0.6926,-0.1144,1.0705,-0.33,-40.125,8.1,12.15,,0.017818999999999807,1.0635969443355882,1.617453400893914,non_fall
3.359198,-0.0135,0.4817,0.5431,-0.1144,1.0705,-0.33,-40.125,8.1,12.15,,0.002187000000000161,0.7260680064566956,1.5658243045149935,non_fall
3.371624,-0.0135,0.4817,0.5431,-0.2404,1.2157,-0.3111,-40.125,8.1,12.15,,0.012426000000000048,0.7260680064566956,1.5224237384653105,non_fall
3.376966,-0.0135,0.4817,0.5431,-0.2404,1.2157,-0.3111,-40.125,8.1,12.15,,0.005341999999999736,0.7260680064566956,1.4867575231750227,non_fall
3.379704,-0.8517,1.2547,1.1943,-0.2404,1.2157,-0.3111,-40.125,8.1,12.15,,0.002737999999999907,1.930289478290756,1.4580522570191725,non_fall
3.396671,-0.8517,1.2547,1.1943,-0.2404,1.2157,-0.3111,-40.125,8.1,12.15,,0.016967000000000176,1.930289478290756,1.4354203626762612,non_fall
3.39812,-1.0118,2.4605,0.5591,-0.2404,1.2157,-0.3111,-40.125,8.1,12.15,,0.0014490000000000336,2.718527597799956,1.4180316305794545,non_fall
3.399182,-1.0118,2.4605,0.5591,-0.2404,1.2157,-0.3111,-41.625,7.95,9.15,,0.0010620000000001184,2.718527597799956,1.4052644039195124,non_fall
3.415508,-1.0118,2.4605,0.5591,-0.2404,1.2157,-0.3111,-41.625,7.95,9.15,,0.01632599999999984,2.718527597799956,1.3968113368412742,non_fall
3.416254,-0.407,1.747,-0.1856,-0.2404,1.2157,-0.3111,-41.625,7.95,9.15,,0.0007459999999999134,1.80335946499859,1.3927220870577204,non_fall
3.440803,-0.407,1.747,-0.1856,-0.2404,1.2157,-0.3111,-41.625,7.95,9.15,,0.024548999999999932,1.80335946499859,1.3933769138932683,non_fall
3.441392,-0.0126,0.5168,0.0198,-0.2404,1.2157,-0.3111,-41.625,7.95,9.15,,0.0005890000000001727,0.5173326202744226,1.3993982278807517,non_fall
3.445247,-0.0126,0.5168,0.0198,-0.6701,0.8549,0.0721,-41.625,7.95,9.15,,0.003855000000000164,0.5173326202744226,1.4115184615457805,non_fall
3.461482,-0.0126,0.5168,0.0198,-0.6701,0.8549,0.0721,-41.625,7.95,9.15,,0.016235,0.5173326202744226,1.4304294525768981,non_fall
3.463787,0.4727,-0.8732,0.385,-0.6701,0.8549,0.0721,-41.625,7.95,9.15,,0.0023049999999997794,1.0649640979864063,1.4566394221605683,non_fall
3.470661,0.4727,-0.8732,0.385,-0.6701,0.8549,0.0721,-41.4,6.825,6.825,,0.006874000000000269,1.0649640979864063,1.490359042303803,non_fall
3.478619,0.4727,-0.8732,0.385,-0.6701,0.8549,0.0721,-41.4,6.825,6.825,,0.00795799999999991,1.0649640979864063,1.5314302337485175,non_fall
3.479882,-0.1575,-1.5593,0.8664,-0.6701,0.8549,0.0721,-41.4,6.825,6.825,,0.001262999999999792,1.7907740505155862,1.579302974941237,non_fall
3.499435,-0.1575,-1.5593,0.8664,-0.6701,0.8549,0.0721,-41.4,6.825,6.825,,0.019553000000000154,1.7907740505155862,1.6330583557509653,non_fall
3.501295,-0.3347,-1.5378,0.771,-0.6701,0.8549,0.0721,-41.4,6.825,6.825,,0.0018599999999997507,1.7525107503236608,1.6914710554134942,non_fall
3.515645,-0.3347,-1.5378,0.771,-0.1362,1.1175,-0.336,-41.4,6.825,6.825,,0.014350000000000307,1.7525107503236608,1.753101567285104,non_fall
3.520558,-0.3347,-1.5378,0.771,-0.1362,1.1175,-0.336,-41.4,6.825,6.825,,0.004912999999999723,1.7525107503236608,1.816407677842287,non_fall
3.52216,-1.0208,-0.7273,1.3849,-0.1362,1.1175,-0.336,-41.4,6.825,6.825,,0.0016020000000001033,1.8678720352315359,1.8798651393393133,non_fall
3.539433,-1.0208,-0.7273,1.3849,-0.1362,1.1175,-0.336,-41.4,6.825,6.825,,0.017272999999999872,1.8678720352315359,1.9420881001610437,non_fall
3.542873,-1.7063,0.1586,1.6006,-0.1362,1.1175,-0.336,-41.4,6.825,6.825,,0.0034400000000003317,2.3448953089637072,2.0019400923405923,non_fall
3.545758,-1.7063,0.1586,1.6006,-0.1362,1.1175,-0.336,-42.225,6.3,4.35,,0.0028850000000000264,2.3448953089637072,2.0586263251015384,non_fall
3.558243,-1.7063,0.1586,1.6006,-0.1362,1.1175,-0.336,-42.225,6.3,4.35,,0.012484999999999857,2.3448953089637072,2.1117582361323577,non_fall
3.560349,-2.2749,0.7021,1.6454,-0.1362,1.1175,-0.336,-42.225,6.3,4.35,,0.0021059999999999413,2.8940379368626115,2.1613823301274744,non_fall
3.577302,-2.2749,0.7021,1.6454,-0.1362,1.1175,-0.336,-42.225,6.3,4.35,,0.016952999999999996,2.8940379368626115,2.2079676678551605,non_fall
3.580771,-2.1292,0.477,0.9945,-0.1362,1.1175,-0.336,-42.225,6.3,4.35,,0.0034689999999999444,2.3979265814448945,2.2523500658912163,non_fall
3.583106,-2.1292,0.477,0.9945,-0.014,0.4499,0.091,-42.225,6.3,4.35,,0.002334999999999976,2.3979265814448945,2.2956360564376648,non_fall
3.602776,-2.1292,0.477,0.9945,-0.014,0.4499,0.091,-42.225,6.3,4.35,,0.019670000000000076,2.3979265814448945,2.3390754000674105,non_fall
3.604856,-1.0158,-1.0706,-0.2861,-0.014,0.4499,0.091,-42.225,6.3,4.35,,0.0020799999999998597,1.5032921239732484,2.3839162230120765,non_fall
3.607013,-1.0158,-1.0706,-0.2861,-0.014,0.4499,0.091,-43.5,6.825,1.425,,0.0021569999999999645,1.5032921239732484,2.431260279165579,non_fall
3.618314,-1.0158,-1.0706,-0.2861,-0.014,0.4499,0.091,-43.5,6.825,1.425,,0.011301000000000005,1.5032921239732484,2.481936363430132,non_fall
3.620215,-1.1328,-2.113,-1.168,-0.014,0.4499,0.091,-43.5,6.825,1.425,,0.0019010000000001526,2.6668762325987307,2.536406854184092,non_fall
3.636166,-1.1328,-2.113,-1.168,-0.014,0.4499,0.091,-43.5,6.825,1.425,,0.015950999999999826,2.6668762325987307,2.5947159650521634,non_fall
3.638408,-1.4132,-2.2399,-0.3257,-0.014,0.4499,0.091,-43.5,6.825,1.425,,0.0022420000000002993,2.66840153275327,2.6564804169420797,non_fall
3.650944,-1.4132,-2.2399,-0.3257,-0.0501,-0.2952,0.13,-43.5,6.825,1.425,,0.01253599999999988,2.66840153275327,2.7209166836090706,non_fall
3.655192,-1.4132,-2.2399,-0.3257,-0.0501,-0.2952,0.13,-43.5,6.825,1.425,,0.0042480000000000295,2.66840153275327,2.7868953353476393,non_fall
3.656449,-0.6751,-3.008,-1.1915,-0.0501,-0.2952,0.13,-43.5,6.825,1.425,,0.0012569999999998416,3.305071294238598,2.853011809784862,non_fall
3.675111,-0.6751,-3.008,-1.1915,-0.0501,-0.2952,0.13,-43.5,6.825,1.425,,0.018661999999999956,3.305071294238598,2.9176628182868956,non_fall
3.677313,-0.5725,-2.2604,-2.7371,-0.0501,-0.2952,0.13,-43.5,6.825,1.425,,0.0022020000000000373,3.5956752940164103,2.9791180240927035,non_fall
3.679989,-0.5725,-2.2604,-2.7371,-0.0501,-0.2952,0.13,-43.2,7.425,2.625,,0.0026760000000001227,3.5956752940164103,3.035578154443762,non_fall
3.694656,-0.5725,-2.2604,-2.7371,-0.0501,-0.2952,0.13,-43.2,7.425,2.625,,0.014667000000000208,3.5956752940164103,3.085213990852101,non_fall
3.697032,-1.1567,-0.5599,-2.6341,-0.0501,-0.2952,0.13,-43.2,7.425,2.625,,0.0023759999999999337,2.930857504212718,3.126185668645554,non_fall
3.714637,-1.1567,-0.5599,-2.6341,-0.0501,-0.2952,0.13,-43.2,7.425,2.625,,0.017605000000000093,2.930857504212718,3.156647556458497,non_fall
3.71591,-1.7685,-0.8469,-1.3311,-0.0501,-0.2952,0.13,-43.2,7.425,2.625,,0.0012729999999998576,2.3699491703410014,3.174749253653282,non_fall
3.719011,-1.7685,-0.8469,-1.3311,0.6577,-0.6823,-0.0661,-43.2,7.425,2.625,,0.0031010000000000204,2.3699491703410014,3.1786463193561443,non_fall
3.739182,-1.7685,-0.8469,-1.3311,0.6577,-0.6823,-0.0661,-43.2,7.425,2.625,,0.02017099999999994,2.3699491703410014,3.1665340300604816,non_fall
3.740493,-1.764,-1.8559,-1.4656,0.6577,-0.6823,-0.0661,-43.2,7.425,2.625,,0.00131099999999984,2.950261712119791,3.1367135032317104,non_fall
3.75007,-1.764,-1.8559,-1.4656,0.6577,-0.6823,-0.0661,-43.125,7.35,4.05,,0.009577000000000169,2.950261712119791,3.08769278036919,non_fall
3.758604,-1.764,-1.8559,-1.4656,0.6577,-0.6823,-0.0661,-43.125,7.35,4.05,,0.008534000000000042,2.950261712119791,3.018317699218426,non_fall
3.76052,-1.0391,-2.6654,-1.3909,0.6577,-0.6823,-0.0661,-43.125,7.35,4.05,,0.0019160000000000288,3.1809886482035736,2.927920585612637,non_fall
3.778036,-1.0391,-2.6654,-1.3909,0.6577,-0.6823,-0.0661,-43.125,7.35,4.05,,0.017516000000000087,3.1809886482035736,2.8164702268359734,non_fall
3.78051,-0.9888,-2.9742,-0.801,0.6577,-0.6823,-0.0661,-43.125,7.35,4.05,,0.002473999999999865,3.234994911897081,2.684704507424131,non_fall
3.79228,-0.9888,-2.9742,-0.801,1.2212,-0.89,0.0429,-43.125,7.35,4.05,,0.011769999999999836,3.234994911897081,2.5342273123960224,non_fall
3.799187,-0.9888,-2.9742,-0.801,1.2212,-0.89,0.0429,-43.125,7.35,4.05,,0.0069069999999999965,3.234994911897081,2.3675537313588073,non_fall
3.80112,-1.0304,-2.2998,-0.2997,1.2212,-0.89,0.0429,-43.125,7.35,4.05,,0.0019330000000001846,2.537838507470481,2.188092167597909,non_fall
3.81737,-1.0304,-2.2998,-0.2997,1.2212,-0.89,0.0429,-43.125,7.35,4.05,,0.016249999999999876,2.537838507470481,2.00005836933355,non_fall
3.822347,-0.8834,-1.0887,0.1623,1.2212,-0.89,0.0429,-43.125,7.35,4.05,,0.004977000000000231,1.4113839095015928,1.8083238856042254,non_fall
3.824162,-0.8834,-1.0887,0.1623,1.2212,-0.89,0.0429,-42.75,7.95,6.75,,0.001814999999999678,1.4113839095015928,1.618208715965482,non_fall
3.836254,-0.8834,-1.0887,0.1623,1.2212,-0.89,0.0429,-42.75,7.95,6.75,,0.012091999999999992,1.4113839095015928,1.435233490548093,non_fall
3.838765,-0.5318,-0.5483,0.389,1.2212,-0.89,0.0429,-42.75,7.95,6.75,,0.002511000000000152,0.8571844200637341,1.2648493817989013,non_fall
3.855911,-0.5318,-0.5483,0.389,1.2212,-0.89,0.0429,-42.75,7.95,6.75,,0.017145999999999884,0.8571844200637341,1.1121641431076015,non_fall
3.858953,-0.3074,-0.8378,0.084,1.2212,-0.89,0.0429,-42.75,7.95,6.75,,0.003042000000000211,0.8963590798335229,0.9816810756001884,non_fall
3.860837,-0.3074,-0.8378,0.084,1.6471,-1.1359,-0.2873,-42.75,7.95,6.75,,0.0018839999999999968,0.8963590798335229,0.877065282162507,non_fall
3.875169,-0.3074,-0.8378,0.084,1.6471,-1.1359,-0.2873,-42.75,7.95,6.75,,0.014332000000000011,0.8963590798335229,0.8009489134049126,non_fall
3.877438,0.1039,-0.2357,-0.0875,1.6471,-1.1359,-0.2873,-42.75,7.95,6.75,,0.0022690000000000765,0.2720403462723866,0.7547848131770607,non_fall
3.887126,0.1039,-0.2357,-0.0875,1.6471,-1.1359,-0.2873,-43.2,8.1,8.85,,0.009687999999999697,0.2720403462723866,0.7387563878988401,non_fall
3.895127,0.1039,-0.2357,-0.0875,1.6471,-1.1359,-0.2873,-43.2,8.1,8.85,,0.008001000000000147,0.2720403462723866,0.7517502511346584,non_fall
3.897086,0.3666,0.326,0.0854,1.6471,-1.1359,-0.2873,-43.2,8.1,8.85,,0.001958999999999822,0.4979605606872898,0.7913961909329574,non_fall
3.914799,0.3666,0.326,0.0854,1.6471,-1.1359,-0.2873,-43.2,8.1,8.85,,0.01771300000000009,0.4979605606872898,0.8541755576024957,non_fall
3.917204,0.6015,-0.0002,0.6084,1.6471,-1.1359,-0.2873,-43.2,8.1,8.85,,0.0024049999999999905,0.8555424302745014,0.935594562577093,non_fall
3.934879,0.6015,-0.0002,0.6084,1.4941,-0.9644,-0.3604,-43.2,8.1,8.85,,0.017675000000000107,0.8555424302745014,1.030414144070772,non_fall
3.937049,0.6015,-0.0002,0.6084,1.4941,-0.9644,-0.3604,-43.2,8.1,8.85,,0.0021700000000000053,0.8555424302745014,1.1329237813791138,non_fall
3.938544,1.2665,-0.6558,0.7052,1.4941,-0.9644,-0.3604,-43.2,8.1,8.85,,0.001494999999999802,1.5910383182060701,1.2372432314416246,non_fall
3.954049,1.2665,-0.6558,0.7052,1.4941,-0.9644,-0.3604,-43.2,8.1,8.85,,0.015505000000000102,1.5910383182060701,1.3376336122432002,non_fall
3.956561,1.5801,-0.9844,0.8186,1.4941,-0.9644,-0.3604,-43.2,8.1,8.85,,0.0025120000000002918,2.0336827014064904,1.4287976801231435,non_fall
3.958593,1.5801,-0.9844,0.8186,1.4941,-0.9644,-0.3604,-42.225,8.4,11.55,,0.0020319999999998117,2.0336827014064904,1.5061490355366813,non_fall
3.97342,1.5801,-0.9844,0.8186,1.4941,-0.9644,-0.3604,-42.225,8.4,11.55,,0.014826999999999924,2.0336827014064904,1.5660318911546416,non_fall
3.976923,1.5328,-1.1632,0.9152,1.4941,-0.9644,-0.3604,-42.225,8.4,11.55,,0.003503000000000256,2.130751304117869,1.6058769758583058,non_fall
3.992932,1.5328,-1.1632,0.9152,1.4941,-0.9644,-0.3604,-42.225,8.4,11.55,,0.01600899999999994,2.130751304117869,1.6242845514041624,non_fall
3.995421,1.0418,-1.1458,0.664,1.4941,-0.9644,-0.3604,-42.225,8.4,11.55,,0.0024889999999997414,1.684963168736931,1.6210316039435129,non_fall
3.998062,1.0418,-1.1458,0.664,1.302,-0.2208,-0.3563,-42.225,8.4,11.55,,0.0026410000000001155,1.684963168736931,1.5970063734603364,non_fall
4.012524,1.0418,-1.1458,0.664,1.302,-0.2208,-0.3563,-42.225,8.4,11.55,,0.014461999999999975,1.684963168736931,1.5540789035050337,non_fall
4.014778,0.7572,-0.9649,0.3589,1.302,-0.2208,-0.3563,-42.225,8.4,11.55,,0.002253999999999756,1.277964420474999,1.494920641830576,non_fall
4.026246,0.7572,-0.9649,0.3589,1.302,-0.2208,-0.3563,-41.4,8.7,12.525,,0.0114680000000007,1.277964420474999,1.4227889609008793,non_fall
4.028802,0.7572,-0.9649,0.3589,1.302,-0.2208,-0.3563,-41.4,8.7,12.525,,0.0025559999999993366,1.277964420474999,1.3412938554480927,non_fall
4.0306,0.5928,-0.6638,0.0197,1.302,-0.2208,-0.3563,-41.4,8.7,12.525,,0.0017979999999999663,0.8901855817749464,1.2541642381626543,non_fall
4.056625,0.5928,-0.6638,0.0197,1.302,-0.2208,-0.3563,-41.4,8.7,12.525,,0.02602500000000063,0.8901855817749464,1.1650304082790164,non_fall
4.061239,0.3026,-0.0223,0.1055,1.302,-0.2208,-0.3563,-41.4,8.7,12.525,,0.00461399999999923,0.32123869629918494,1.077237591963532,non_fall
4.071791,0.3026,-0.0223,0.1055,1.3451,0.2448,-0.4801,-41.4,8.7,12.525,,0.010552000000000561,0.32123869629918494,0.9937029172832769,non_fall
4.076643,0.3026,-0.0223,0.1055,1.3451,0.2448,-0.4801,-41.4,8.7,12.525,,0.004851999999999634,0.32123869629918494,0.9168244407210249,non_fall
4.080054,-0.0234,0.4349,0.6971,1.3451,0.2448,-0.4801,-41.4,8.7,12.525,,0.003410999999999831,0.8219695736461297,0.8484455680028508,non_fall
4.099538,-0.0234,0.4349,0.6971,1.3451,0.2448,-0.4801,-41.4,8.7,12.525,,0.01948400000000028,0.8219695736461297,0.789871727931431,non_fall
4.102722,-0.3738,0.5971,0.9271,1.3451,0.2448,-0.4801,-41.4,8.7,12.525,,0.0031840000000000757,1.1643750512614053,0.7419296822878407,non_fall
4.104441,-0.3738,0.5971,0.9271,1.3451,0.2448,-0.4801,-42.0,7.65,10.125,,0.001718999999999582,1.1643750512614053,0.7050550124943942,non_fall
4.116605,-0.3738,0.5971,0.9271,1.3451,0.2448,-0.4801,-42.0,7.65,10.125,,0.012164000000000286,1.1643750512614053,0.679391258595459,non_fall
4.118936,-0.4183,0.6105,0.6218,1.3451,0.2448,-0.4801,-42.0,7.65,10.125,,0.002330999999999861,0.9666024932721827,0.6648850908769364,non_fall
4.134912,-0.4183,0.6105,0.6218,1.3451,0.2448,-0.4801,-42.0,7.65,10.125,,0.015976000000000212,0.9666024932721827,0.661365154746337,non_fall
4.137524,-0.4467,0.539,0.2607,1.3451,0.2448,-0.4801,-42.0,7.65,10.125,,0.0026120000000000587,0.7470116331088827,0.6685967906821584,non_fall
4.139672,-0.4467,0.539,0.2607,1.3232,0.2187,-0.6301,-42.0,7.65,10.125,,0.0021480000000000388,0.7470116331088827,0.6863095781442683,non_fall
4.154183,-0.4467,0.539,0.2607,1.3232,0.2187,-0.6301,-42.0,7.65,10.125,,0.014510999999999719,0.7470116331088827,0.7141987444971147,non_fall
4.156102,-0.4782,0.5169,0.0984,1.3232,0.2187,-0.6301,-42.0,7.65,10.125,,0.001919000000000004,0.7110157593190182,0.7519044997548135,non_fall
4.166422,-0.4782,0.5169,0.0984,1.3232,0.2187,-0.6301,-43.05,6.6,9.45,,0.010320000000000107,0.7110157593190182,0.7989752630213937,non_fall
4.17409,-0.4782,0.5169,0.0984,1.3232,0.2187,-0.6301,-43.05,6.6,9.45,,0.007667999999999786,0.7110157593190182,0.854821713321864,non_fall
4.175959,-0.7418,0.3668,0.1955,1.3232,0.2187,-0.6301,-43.05,6.6,9.45,,0.0018690000000001206,0.8503115487866786,0.9186688237648424,non_fall
4.193359,-0.7418,0.3668,0.1955,1.3232,0.2187,-0.6301,-43.05,6.6,9.45,,0.017400000000000304,0.8503115487866786,0.98951264841198,non_fall
4.195469,-0.9809,0.3655,0.3046,1.3232,0.2187,-0.6301,-43.05,6.6,9.45,,0.0021100000000000563,1.0902000825536566,1.0660877570646303,non_fall
4.207982,-0.9809,0.3655,0.3046,1.2432,0.0863,-0.6834,-43.05,6.6,9.45,,0.012513000000000218,1.0902000825536566,1.146850077918059,non_fall
4.217408,-0.9809,0.3655,0.3046,1.2432,0.0863,-0.6834,-43.05,6.6,9.45,,0.00942599999999949,1.0902000825536566,1.2299787773728006,non_fall
4.219632,-1.0211,0.6266,-0.1696,1.2432,0.0863,-0.6834,-43.05,6.6,9.45,,0.0022240000000000038,1.2099739377358505,1.3133998457822273,non_fall
4.228501,-1.0211,0.6266,-0.1696,1.2432,0.0863,-0.6834,-43.05,6.6,9.45,,0.008868999999999794,1.2099739377358505,1.3948332158874868,non_fall
4.22972,-0.8216,0.8029,-0.7877,1.2432,0.0863,-0.6834,-43.05,6.6,9.45,,0.0012190000000007473,1.3928913310089914,1.471864295504184,non_fall
4.237911,-0.8216,0.8029,-0.7877,1.2432,0.0863,-0.6834,-43.05,5.7,8.85,,0.00819100000000006,1.3928913310089914,1.5420395729956016,non_fall
4.255876,-0.8216,0.8029,-0.7877,1.2432,0.0863,-0.6834,-43.05,5.7,8.85,,0.017964999999999343,1.3928913310089914,1.6029844713223271,non_fall
4.257186,-0.5449,1.2092,-0.8921,1.2432,0.0863,-0.6834,-43.05,5.7,8.85,,0.0013100000000001444,1.5984126688687124,1.6525400058594162,non_fall
4.272162,-0.5449,1.2092,-0.8921,1.2432,0.0863,-0.6834,-43.05,5.7,8.85,,0.014975999999999878,1.5984126688687124,1.6889131174607066,non_fall
4.273146,-0.2842,1.5,-0.6904,1.2432,0.0863,-0.6834,-43.05,5.7,8.85,,0.0009839999999998739,1.6755362723617773,1.710833852204027,non_fall
4.276744,-0.2842,1.5,-0.6904,1.247,0.0536,-0.4807,-43.05,5.7,8.85,,0.003598000000000212,1.6755362723617773,1.7177109709754734,non_fall
4.292624,-0.2842,1.5,-0.6904,1.247,0.0536,-0.4807,-43.05,5.7,8.85,,0.015880000000000116,1.6755362723617773,1.7097762635321778,non_fall
4.293815,-0.1191,1.7649,-0.608,1.247,0.0536,-0.4807,-43.05,5.7,8.85,,0.0011910000000003862,1.8704867869086914,1.6882068826595198,non_fall
4.30737,-0.1191,1.7649,-0.608,1.247,0.0536,-0.4807,-43.35,5.1,7.95,,0.013554999999999318,1.8704867869086914,1.6552144061611387,non_fall
4.317025,-0.1191,1.7649,-0.608,1.247,0.0536,-0.4807,-43.35,5.1,7.95,,0.009655000000000413,1.8704867869086914,1.6140891917538571,non_fall
4.318762,0.0078,1.9154,-0.7567,1.247,0.0536,-0.4807,-43.35,5.1,7.95,,0.0017370000000003216,2.059469079641644,1.5691891842547006,non_fall
4.336007,0.0078,1.9154,-0.7567,1.247,0.0536,-0.4807,-43.35,5.1,7.95,,0.017244999999999955,2.059469079641644,1.525863934197417,non_fall
4.337435,0.007,1.8764,-0.7434,1.247,0.0536,-0.4807,-43.35,5.1,7.95,,0.0014279999999997628,2.0183085789838975,1.4903073436825953,non_fall
4.350427,0.007,1.8764,-0.7434,1.071,0.2895,-0.3352,-43.35,5.1,7.95,,0.01299199999999967,2.0183085789838975,1.4693366310609117,non_fall
4.355955,0.007,1.8764,-0.7434,1.071,0.2895,-0.3352,-43.35,5.1,7.95,,0.005527999999999977,2.0183085789838975,1.4701001351374745,non_fall
4.357324,0.2194,1.593,-0.549,1.071,0.2895,-0.3352,-43.35,5.1,7.95,,0.0013690000000003977,1.6991722573064805,1.4997225663387308,non_fall
4.375083,0.2194,1.593,-0.549,1.071,0.2895,-0.3352,-43.35,5.1,7.95,,0.017758999999999858,1.6991722573064805,1.5649026503549923,non_fall
4.378965,0.6362,1.1961,-0.5556,1.071,0.2895,-0.3352,-43.35,5.1,7.95,,0.003881999999999941,1.4642735434337397,1.6714841377997331,non_fall
4.382264,0.6362,1.1961,-0.5556,1.071,0.2895,-0.3352,-43.2,4.8,7.05,,0.003299000000000163,1.4642735434337397,1.8240260805288104,non_fall
4.395634,0.6362,1.1961,-0.5556,1.071,0.2895,-0.3352,-43.2,4.8,7.05,,0.013370000000000104,1.4642735434337397,2.025401334612358,non_fall
4.40004,0.6033,0.9025,-1.1725,1.071,0.2895,-0.3352,-43.2,4.8,7.05,,0.004405999999999466,1.5978840352165735,2.2764529287449378,non_fall
4.423003,0.6033,0.9025,-1.1725,1.071,0.2895,-0.3352,-43.2,4.8,7.05,,0.022962999999999845,1.5978840352165735,2.5757360581108197,non_fall
4.426233,0.6819,0.3081,-2.8897,1.071,0.2895,-0.3352,-43.2,4.8,7.05,,0.003230000000000288,2.9850090971385663,2.919369143370813,non_fall
4.429156,0.6819,0.3081,-2.8897,1.0933,0.813,-0.2457,-43.2,4.8,7.05,,0.002923000000000009,2.9850090971385663,3.30101113079837,non_fall
4.431611,0.6819,0.3081,-2.8897,1.0933,0.813,-0.2457,-43.2,4.8,7.05,,0.002455000000000318,2.9850090971385663,3.7119750935457625,non_fall
4.433512,0.7307,-0.6326,-3.4482,1.0933,0.813,-0.2457,-43.2,4.8,7.05,,0.0019010000000001526,3.581087612723263,4.141481558287768,non_fall
4.446256,0.7307,-0.6326,-3.4482,1.0933,0.813,-0.2457,-43.95,4.2,4.95,,0.012743999999999645,3.581087612723263,4.577049279586406,non_fall
4.452869,0.7307,-0.6326,-3.4482,1.0933,0.813,-0.2457,-43.95,4.2,4.95,,0.006612999999999758,3.581087612723263,5.005015479375238,non_fall
4.454685,0.684,-2.8639,-3.9258,1.0933,0.813,-0.2457,-43.95,4.2,4.95,,0.0018159999999998178,4.9073093289500305,5.411170466728654,non_fall
4.471994,0.684,-2.8639,-3.9258,1.0933,0.813,-0.2457,-43.95,4.2,4.95,,0.01730900000000002,4.9073093289500305,5.781482346739836,non_fall
4.474173,0.3203,-5.7705,-3.6822,1.0933,0.813,-0.2457,-43.95,4.2,4.95,,0.002179000000000819,6.852726404869816,6.102876660969955,non_fall
4.486931,0.3203,-5.7705,-3.6822,1.1299,1.0966,0.3418,-43.95,4.2,4.95,,0.012757999999999825,6.852726404869816,6.364024961341463,non_fall
4.492367,0.3203,-5.7705,-3.6822,1.1299,1.0966,0.3418,-43.95,4.2,4.95,,0.005435999999999552,6.852726404869816,6.556087982691631,non_fall
4.494836,0.4418,-8.195,-2.9285,1.1299,1.0966,0.3418,-43.95,4.2,4.95,,0.0024690000000004986,8.713743425761399,6.673355309217277,non_fall
4.511567,0.4418,-8.195,-2.9285,1.1299,1.0966,0.3418,-43.95,4.2,4.95,,0.01673100000000005,8.713743425761399,6.713724935586225,non_fall
4.513941,1.2946,-8.4182,-2.0582,1.1299,1.0966,0.3418,-43.95,4.2,4.95,,0.002373999999999654,8.76232090487446,6.678972822309514,non_fall
4.516914,1.2946,-8.4182,-2.0582,1.1299,1.0966,0.3418,-44.025,4.8,1.65,,0.0029729999999998924,8.76232090487446,6.574774708389233,non_fall
4.528395,1.2946,-8.4182,-2.0582,1.1299,1.0966,0.3418,-44.025,4.8,1.65,,0.011480999999999852,8.76232090487446,6.410460316528196,non_fall
4.53109,2.6766,-6.184,-0.8071,1.1299,1.0966,0.3418,-44.025,4.8,1.65,,0.002695000000000114,6.786564224259577,6.198502620918183,non_fall
4.551107,2.6766,-6.184,-0.8071,1.1299,1.0966,0.3418,-44.025,4.8,1.65,,0.020017000000000174,6.786564224259577,5.953769670508035,non_fall
4.553878,3.0797,-2.8288,-0.2186,1.1299,1.0966,0.3418,-44.025,4.8,1.65,,0.002771000000000079,4.187415371085128,5.69259050851538,non_fall
4.556271,3.0797,-2.8288,-0.2186,1.9249,0.7445,1.2622,-44.025,4.8,1.65,,0.0023929999999996454,4.187415371085128,5.431706446339257,non_fall
4.570988,3.0797,-2.8288,-0.2186,1.9249,0.7445,1.2622,-44.025,4.8,1.65,,0.014717000000000091,4.187415371085128,5.187190898897158,non_fall
4.574447,2.3371,0.4818,0.3992,1.9249,0.7445,1.2622,-44.025,4.8,1.65,,0.003459000000000323,2.4194065987344913,4.973423267383801,non_fall
4.586392,2.3371,0.4818,0.3992,1.9249,0.7445,1.2622,-44.025,4.8,1.65,,0.011944999999999872,2.4194065987344913,4.802195479505465,non_fall
4.58869,1.5794,2.7273,1.1913,1.9249,0.7445,1.2622,-44.025,4.8,1.65,,0.002297999999999689,3.3692529349990927,4.68201578353283,non_fall
4.591475,1.5794,2.7273,1.1913,1.9249,0.7445,1.2622,-43.05,9.0,-1.8,,0.0027850000000002595,3.3692529349990927,4.617655180510616,non_fall
4.609333,1.5794,2.7273,1.1913,1.9249,0.7445,1.2622,-43.05,9.0,-1.8,,0.017858000000000374,3.3692529349990927,4.609959456349134,non_fall
4.612478,1.7747,3.8687,1.7077,1.9249,0.7445,1.2622,-43.05,9.0,-1.8,,0.0031449999999999534,4.586135526780691,4.655927086112457,non_fall
4.623802,1.7747,3.8687,1.7077,1.7325,0.8714,1.3593,-43.05,9.0,-1.8,,0.011324000000000112,4.586135526780691,4.749033323610284,non_fall
4.634902,1.7747,3.8687,1.7077,1.7325,0.8714,1.3593,-43.05,9.0,-1.8,,0.011099999999999888,4.586135526780691,4.879765165546432,non_fall
4.636362,1.5505,4.9229,2.4728,1.7325,0.8714,1.3593,-43.05,9.0,-1.8,,0.0014599999999997948,5.723087846608682,5.036320952140402,non_fall
4.653784,1.5505,4.9229,2.4728,1.7325,0.8714,1.3593,-43.05,9.0,-1.8,,0.017421999999999827,5.723087846608682,5.205421888418206,non_fall
4.65579,0.4235,5.9967,1.4194,1.7325,0.8714,1.3593,-43.05,9.0,-1.8,,0.0020059999999997302,6.176929617536532,5.3731801693481955,non_fall
4.65724,0.4235,5.9967,1.4194,1.7325,0.8714,1.3593,-43.125,12.6,-5.175,,0.0014500000000001734,6.176929617536532,5.5259692278019354,non_fall
4.673101,0.4235,5.9967,1.4194,1.7325,0.8714,1.3593,-43.125,12.6,-5.175,,0.015861000000000125,6.176929617536532,5.651245626187211,non_fall
4.675153,0.4199,6.2321,2.1251,1.7325,0.8714,1.3593,-43.125,12.6,-5.175,,0.0020519999999999428,6.5978357383311685,5.738278583801677,non_fall
4.692361,0.4199,6.2321,2.1251,1.7325,0.8714,1.3593,-43.125,12.6,-5.175,,0.017208000000000112,6.5978357383311685,5.778750933989937,non_fall
4.695212,0.5243,5.9114,2.9551,1.7325,0.8714,1.3593,-43.125,12.6,-5.175,,0.002850999999999715,6.629642257316755,5.7672036095580355,non_fall
4.697108,0.5243,5.9114,2.9551,0.0973,1.4973,1.4144,-43.125,12.6,-5.175,,0.0018960000000003419,6.629642257316755,5.701304461349333,non_fall
4.715938,0.5243,5.9114,2.9551,0.0973,1.4973,1.4144,-43.125,12.6,-5.175,,0.018830000000000346,6.629642257316755,5.581931590326118,non_fall
4.71955,0.6435,5.4375,0.8417,0.0973,1.4973,1.4144,-43.125,12.6,-5.175,,0.0036119999999995045,5.539761492158304,5.413071511829564,non_fall
4.726847,0.6435,5.4375,0.8417,0.0973,1.4973,1.4144,-40.95,16.125,-9.0,,0.007297000000000331,5.539761492158304,5.2015430377351315,non_fall
4.730272,0.6435,5.4375,0.8417,0.0973,1.4973,1.4144,-40.95,16.125,-9.0,,0.0034250000000000114,5.539761492158304,4.956567906596078,non_fall
4.732496,0.4189,4.1011,0.8926,0.0973,1.4973,1.4144,-40.95,16.125,-9.0,,0.0022240000000000038,4.217965526174912,4.689217809259095,non_fall
4.75075,0.4189,4.1011,0.8926,0.0973,1.4973,1.4144,-40.95,16.125,-9.0,,0.01825399999999977,4.217965526174912,4.411773887653785,non_fall
4.752534,-1.1218,2.3321,1.897,0.0973,1.4973,1.4144,-40.95,16.125,-9.0,,0.0017839999999997858,3.2086967214119815,4.137038926129222,non_fall
4.76618,-1.1218,2.3321,1.897,-1.2583,1.5578,0.5634,-40.95,16.125,-9.0,,0.013646000000000491,3.2086967214119815,3.877644041366995,non_fall
4.771943,-1.1218,2.3321,1.897,-1.2583,1.5578,0.5634,-40.95,16.125,-9.0,,0.005762999999999963,3.2086967214119815,3.645390152145302,non_fall
4.774384,-2.2859,0.7416,1.1338,-1.2583,1.5578,0.5634,-40.95,16.125,-9.0,,0.0024410000000001375,2.6572188110880144,3.4506598631159435,non_fall
4.791292,-2.2859,0.7416,1.1338,-1.2583,1.5578,0.5634,-40.95,16.125,-9.0,,0.016907999999999923,2.6572188110880144,3.301928571131791,non_fall
4.794615,-2.5119,-0.3729,-0.2062,-1.2583,1.5578,0.5634,-40.95,16.125,-9.0,,0.003322999999999965,2.547786188046399,3.2053958454677707,non_fall
4.798044,-2.5119,-0.3729,-0.2062,-1.2583,1.5578,0.5634,-38.7,19.5,-11.775,,0.0034289999999996823,2.547786188046399,3.1647501580905266,non_fall
4.81003,-2.5119,-0.3729,-0.2062,-1.2583,1.5578,0.5634,-38.7,19.5,-11.775,,0.011986000000000274,2.547786188046399,3.1810719666999705,non_fall
4.81216,-2.4933,-1.434,-1.17,-1.2583,1.5578,0.5634,-38.7,19.5,-11.775,,0.0021300000000001873,3.105124939515317,3.2528720336394685,non_fall
4.827985,-2.4933,-1.434,-1.17,-1.2583,1.5578,0.5634,-38.7,19.5,-11.775,,0.015824999999999534,3.105124939515317,3.376253993214303,non_fall
4.830599,-2.9907,-2.402,-1.6264,-1.2583,1.5578,0.5634,-38.7,19.5,-11.775,,0.0026140000000003383,4.166421420115829,3.5451830977610954,non_fall
4.839231,-2.9907,-2.402,-1.6264,-1.503,1.0664,-0.4317,-38.7,19.5,-11.775,,0.008631999999999529,4.166421420115829,3.751837556150071,non_fall
4.849117,-2.9907,-2.402,-1.6264,-1.503,1.0664,-0.4317,-38.7,19.5,-11.775,,0.00988599999999984,4.166421420115829,3.9870158088015017,non_fall
4.851508,-3.1213,-3.6495,-0.8734,-1.503,1.0664,-0.4317,-38.7,19.5,-11.775,,0.002391000000000254,4.881003124358762,4.240572981195294,non_fall
4.867364,-3.1213,-3.6495,-0.8734,-1.503,1.0664,-0.4317,-37.95,20.55,-12.75,,0.015856000000000314,4.881003124358762,4.501862291265321,non_fall
4.86947,-3.1213,-3.6495,-0.8734,-1.503,1.0664,-0.4317,-37.95,20.55,-12.75,,0.002105999999999497,4.881003124358762,4.7601613353152405,non_fall
4.87095,-2.2393,-4.6619,-0.1397,-1.503,1.0664,-0.4317,-37.95,20.55,-12.75,,0.0014799999999999258,5.173711645424395,5.005067953668148,non_fall
4.889473,-2.2393,-4.6619,-0.1397,-1.503,1.0664,-0.4317,-37.95,20.55,-12.75,,0.018523000000000067,5.173711645424395,5.226855087236638,non_fall
4.891472,-1.8368,-5.1676,0.2748,-1.503,1.0664,-0.4317,-37.95,20.55,-12.75,,0.001999000000000528,5.4912147144325,5.416778038347024,non_fall
4.90222,-1.8368,-5.1676,0.2748,-0.6058,0.9144,-0.5044,-37.95,20.55,-12.75,,0.010747999999999536,5.4912147144325,5.567330360139262,non_fall
4.907048,-1.8368,-5.1676,0.2748,-0.6058,0.9144,-0.5044,-37.95,20.55,-12.75,,0.004827999999999832,5.4912147144325,5.6724461903879915,non_fall
4.908246,-2.4505,-5.5924,-0.2342,-0.6058,0.9144,-0.5044,-37.95,20.55,-12.75,,0.0011980000000004765,6.1102158431597156,5.7276475126366915,non_fall
4.927597,-2.4505,-5.5924,-0.2342,-0.6058,0.9144,-0.5044,-37.95,20.55,-12.75,,0.019350999999999452,6.1102158431597156,5.730134944253889,non_fall
4.929948,-2.5886,-5.1,-0.5661,-0.6058,0.9144,-0.5044,-37.95,20.55,-12.75,,0.00235100000000088,5.747287983910324,5.678820772020475,non_fall
4.935817,-2.5886,-5.1,-0.5661,-0.6058,0.9144,-0.5044,-38.25,19.725,-13.5,,0.00586899999999968,5.747287983910324,5.574303812805301,non_fall
4.951499,-2.5886,-5.1,-0.5661,-0.6058,0.9144,-0.5044,-38.25,19.725,-13.5,,0.015681999999999974,5.747287983910324,5.4187876150966465,non_fall
4.955195,-2.1725,-4.6593,-0.4959,-0.6058,0.9144,-0.5044,-38.25,19.725,-13.5,,0.0036959999999996995,5.164760357460935,5.215946120865534,non_fall
4.971102,-2.1725,-4.6593,-0.4959,-0.6058,0.9144,-0.5044,-38.25,19.725,-13.5,,0.015907000000000338,5.164760357460935,4.970743523449616,non_fall
4.974135,-1.7368,-3.7844,-0.2016,-0.6058,0.9144,-0.5044,-38.25,19.725,-13.5,,0.0030330000000002855,4.168788812113178,4.689217359329581,non_fall
4.976526,-1.7368,-3.7844,-0.2016,0.2581,0.275,-0.3835,-38.25,19.725,-13.5,,0.002390999999999366,4.168788812113178,4.378235628443894,non_fall
4.990403,-1.7368,-3.7844,-0.2016,0.2581,0.275,-0.3835,-38.25,19.725,-13.5,,0.013876999999999917,4.168788812113178,4.045239481098852,non_fall
4.992703,-1.545,-2.9185,0.5747,0.2581,0.275,-0.3835,-38.25,19.725,-13.5,,0.0022999999999999687,3.351857297081724,3.697982378863613,non_fall
5.006085,-1.545,-2.9185,0.5747,0.2581,0.275,-0.3835,-37.65,18.525,-14.55,,0.013382000000000005,3.351857297081724,3.3442749279586983,non_fall
5.008608,-1.545,-2.9185,0.5747,0.2581,0.275,-0.3835,-37.65,18.525,-14.55,,0.002523000000000053,3.351857297081724,2.9917426042114883,non_fall
5.010719,-1.7409,-1.9186,0.3261,0.2581,0.275,-0.3835,-37.65,18.525,-14.55,,0.002111000000000196,2.611149168469699,2.6476020131931843,non_fall
5.028055,-1.7409,-1.9186,0.3261,0.2581,0.275,-0.3835,-37.65,18.525,-14.55,,0.01733600000000024,2.611149168469699,2.3184605222078876,non_fall
5.030865,-1.1015,-0.7576,-0.4226,0.2581,0.275,-0.3835,-37.65,18.525,-14.55,,0.0028100000000002012,1.4020880036574024,2.010144260414431,non_fall
5.044769,-1.1015,-0.7576,-0.4226,0.7486,-0.3315,-0.3056,-37.65,18.525,-14.55,,0.01390399999999925,1.4020880036574024,1.7275603411940128,non_fall
5.050465,-1.1015,-0.7576,-0.4226,0.7486,-0.3315,-0.3056,-37.65,18.525,-14.55,,0.0056960000000003674,1.4020880036574024,1.4745997366886554,non_fall
5.052413,-0.6482,0.0132,-0.4513,0.7486,-0.3315,-0.3056,-37.65,18.525,-14.55,,0.0019479999999996167,0.7899425105664336,1.254086460041193,non_fall
5.069285,-0.6482,0.0132,-0.4513,0.7486,-0.3315,-0.3056,-37.65,18.525,-14.55,,0.01687200000000022,0.7899425105664336,1.0677763556081945,non_fall
5.071827,-0.033,-0.0287,0.5338,0.7486,-0.3315,-0.3056,-37.65,18.525,-14.55,,0.0025420000000000442,0.5355885827759962,0.9164054876374103,non_fall
5.076105,-0.033,-0.0287,0.5338,0.7486,-0.3315,-0.3056,-39.45,16.95,-14.25,,0.004278000000000226,0.5355885827759962,0.7997844746572706,non_fall
5.08869,-0.033,-0.0287,0.5338,0.7486,-0.3315,-0.3056,-39.45,16.95,-14.25,,0.012584999999999624,0.5355885827759962,0.7169312966576094,non_fall
5.091274,0.8077,-0.5087,0.6289,0.7486,-0.3315,-0.3056,-39.45,16.95,-14.25,,0.002584000000000586,1.143096754435074,0.6662312030243503,non_fall
5.10327,0.8077,-0.5087,0.6289,0.7486,-0.3315,-0.3056,-39.45,16.95,-14.25,,0.011995999999999896,1.143096754435074,0.6456088722008688,non_fall
5.10509,1.0114,-0.7484,0.4274,0.7486,-0.3315,-0.3056,-39.45,16.95,-14.25,,0.0018199999999994887,1.3287976821171839,0.6526958623951884,non_fall
5.115261,1.0114,-0.7484,0.4274,0.6539,-0.2518,-0.0583,-39.45,16.95,-14.25,,0.010171000000000596,1.3287976821171839,0.6849766763369558,non_fall
5.123787,1.0114,-0.7484,0.4274,0.6539,-0.2518,-0.0583,-39.45,16.95,-14.25,,0.008525999999999812,1.3287976821171839,0.7398999177644787,non_fall
5.125023,0.8266,-0.6126,0.3847,0.6539,-0.2518,-0.0583,-39.45,16.95,-14.25,,0.0012359999999995708,1.09842633344253,0.8149465880632423,non_fall
5.148486,0.8266,-0.6126,0.3847,0.6539,-0.2518,-0.0583,-39.45,16.95,-14.25,,0.023463000000000456,1.09842633344253,0.907654451249328,non_fall
5.150349,0.3139,0.0763,0.552,0.6539,-0.2518,-0.0583,-39.45,16.95,-14.25,,0.00186300000000017,0.6395771259199317,1.0156043108103592,non_fall
5.151551,0.3139,0.0763,0.552,0.6539,-0.2518,-0.0583,-39.225,16.125,-13.95,,0.0012020000000001474,0.6395771259199317,1.1363797841798615,non_fall
5.163191,0.3139,0.0763,0.552,0.6539,-0.2518,-0.0583,-39.225,16.125,-13.95,,0.011639999999999873,0.6395771259199317,1.2675156681531594,non_fall
5.164809,-0.1785,1.1186,0.4602,0.6539,-0.2518,-0.0583,-39.225,16.125,-13.95,,0.0016179999999996753,1.2226660418936972,1.4064505400687066,non_fall
5.182104,-0.1785,1.1186,0.4602,0.6176,-0.1878,0.0815,-39.225,16.125,-13.95,,0.01729499999999984,1.2226660418936972,1.5504968360892426,non_fall
5.184198,-0.1785,1.1186,0.4602,0.6176,-0.1878,0.0815,-39.225,16.125,-13.95,,0.0020940000000004844,1.2226660418936972,1.6968372315522438,non_fall
5.185421,-0.9428,1.6428,0.2175,0.6176,-0.1878,0.0815,-39.225,16.125,-13.95,,0.00122299999999953,1.9065597105781924,1.8425511181839673,non_fall
5.212447,-0.9428,1.6428,0.2175,0.6176,-0.1878,0.0815,-39.225,16.125,-13.95,,0.027026000000000217,1.9065597105781924,1.984670318135119,non_fall
5.214182,-1.1623,1.8749,0.8745,0.6176,-0.1878,0.0815,-39.225,16.125,-13.95,,0.001735000000000042,2.3729605032532675,2.12025927923819,non_fall
5.215558,-1.1623,1.8749,0.8745,0.6176,-0.1878,0.0815,-39.45,15.6,-13.65,,0.0013759999999995998,2.3729605032532675,2.2465121498147935,non_fall
5.228533,-1.1623,1.8749,0.8745,0.6176,-0.1878,0.0815,-39.45,15.6,-13.65,,0.012974999999999959,2.3729605032532675,2.3608576942744,non_fall
5.231324,-0.9064,2.0227,1.5353,0.6176,-0.1878,0.0815,-39.45,15.6,-13.65,,0.00279100000000021,2.6962978952630587,2.4610630135299867,non_fall
5.249899,-0.9064,2.0227,1.5353,0.6176,-0.1878,0.0815,-39.45,15.6,-13.65,,0.01857500000000023,2.6962978952630587,2.5453280257145683,non_fall
5.252289,-0.3224,2.3579,1.3496,0.6176,-0.1878,0.0815,-39.45,15.6,-13.65,,0.0023900000000001143,2.735882733232548,2.6123640912190256,non_fall
5.254934,-0.3224,2.3579,1.3496,0.3354,-0.3787,0.0191,-39.45,15.6,-13.65,,0.0026450000000002305,2.735882733232548,2.661451762297279,non_fall
5.269248,-0.3224,2.3579,1.3496,0.3354,-0.3787,0.0191,-39.45,15.6,-13.65,,0.014313999999999716,2.735882733232548,2.6924743440188545,non_fall
5.271282,0.061,2.6339,0.6992,0.3354,-0.3787,0.0191,-39.45,15.6,-13.65,,0.0020340000000000913,2.725808292965593,2.7059256372064544,non_fall
5.284782,0.061,2.6339,0.6992,0.3354,-0.3787,0.0191,-39.3,15.15,-13.35,,0.013499999999999623,2.725808292965593,2.702891663839772,non_fall
5.289466,0.061,2.6339,0.6992,0.3354,-0.3787,0.0191,-39.3,15.15,-13.35,,0.0046840000000001325,2.725808292965593,2.6850072164072434,non_fall
5.291164,0.0394,2.7355,0.4719,0.3354,-0.3787,0.0191,-39.3,15.15,-13.35,,0.0016980000000001993,2.7761848317430164,2.6543887669217305,non_fall
5.30815,0.0394,2.7355,0.4719,0.3354,-0.3787,0.0191,-39.3,15.15,-13.35,,0.016986000000000168,2.7761848317430164,2.6135457859262754,non_fall
5.310327,-0.204,2.4368,0.8737,0.3354,-0.3787,0.0191,-39.3,15.15,-13.35,,0.0021769999999996514,2.596721380895532,2.565273088383584,non_fall
5.323054,-0.204,2.4368,0.8737,0.2969,-0.5069,0.0394,-39.3,15.15,-13.35,,0.012726999999999933,2.596721380895532,2.512527639651132,non_fall
5.32783,-0.204,2.4368,0.8737,0.2969,-0.5069,0.0394,-39.3,15.15,-13.35,,0.004775999999999669,2.596721380895532,2.458294344008832,non_fall
5.329315,-0.5787,2.0053,0.9982,0.2969,-0.5069,0.0394,-39.3,15.15,-13.35,,0.0014850000000006247,2.3135524675269417,2.4054465356444354,non_fall
5.347633,-0.5787,2.0053,0.9982,0.2969,-0.5069,0.0394,-39.3,15.15,-13.35,,0.018317999999999834,2.3135524675269417,2.3566080019483224,non_fall
5.35178,-0.6821,1.7379,0.8026,0.2969,-0.5069,0.0394,-39.3,15.15,-13.35,,0.004146999999999679,2.0321721334572027,2.3140242312755226,non_fall
5.354,-0.6821,1.7379,0.8026,0.2969,-0.5069,0.0394,-40.05,14.85,-12.45,,0.002220000000000333,2.0321721334572027,2.279450958343776,non_fall
5.367745,-0.6821,1.7379,0.8026,0.2969,-0.5069,0.0394,-40.05,14.85,-12.45,,0.013745000000000118,2.0321721334572027,2.2540676723755206,non_fall
5.370471,-0.6098,1.8156,0.6902,0.2969,-0.5069,0.0394,-40.05,14.85,-12.45,,0.002726000000000006,2.0358377734976822,2.2384223820279376,non_fall
5.387048,-0.6098,1.8156,0.6902,0.2969,-0.5069,0.0394,-40.05,14.85,-12.45,,0.016576999999999842,2.0358377734976822,2.2324117288534753,non_fall
5.389969,-0.5404,1.9173,0.8587,0.2969,-0.5069,0.0394,-40.05,14.85,-12.45,,0.0029209999999997294,2.169201959246764,2.2352978908698113,non_fall
5.391861,-0.5404,1.9173,0.8587,0.2022,-0.4872,-0.0438,-40.05,14.85,-12.45,,0.0018919999999997827,2.169201959246764,2.245761041949457,non_fall
5.406208,-0.5404,1.9173,0.8587,0.2022,-0.4872,-0.0438,-40.05,14.85,-12.45,,0.014347000000000776,2.169201959246764,2.261983736756031,non_fall
5.408788,-0.3708,2.0836,1.0696,0.2022,-0.4872,-0.0438,-40.05,14.85,-12.45,,0.0025800000000000267,2.371270916618344,2.2817616469263444,non_fall
5.416482,-0.3708,2.0836,1.0696,0.2022,-0.4872,-0.0438,-40.35,14.55,-11.4,,0.007693999999999868,2.371270916618344,2.3026336465782435,non_fall
5.425706,-0.3708,2.0836,1.0696,0.2022,-0.4872,-0.0438,-40.35,14.55,-11.4,,0.009223999999999677,2.371270916618344,2.3220233478940653,non_fall
5.428008,-0.2828,2.1743,1.1166,0.2022,-0.4872,-0.0438,-40.35,14.55,-11.4,,0.0023020000000002483,2.460559263663446,2.337383850084648,non_fall
5.447504,-0.2828,2.1743,1.1166,0.2022,-0.4872,-0.0438,-40.35,14.55,-11.4,,0.01949600000000018,2.460559263663446,2.346337684449461,non_fall
5.448238,-0.4227,2.2112,0.9671,0.2022,-0.4872,-0.0438,-40.35,14.55,-11.4,,0.0007339999999995683,2.450176144688377,2.346804605951034,non_fall
5.459457,-0.4227,2.2112,0.9671,0.3273,-0.3163,-0.1155,-40.35,14.55,-11.4,,0.011218999999999646,2.450176144688377,2.337110852601007,non_fall
5.465315,-0.4227,2.2112,0.9671,0.3273,-0.3163,-0.1155,-40.35,14.55,-11.4,,0.005858000000000807,2.450176144688377,2.316074670520248,non_fall
5.465993,-0.4074,2.2757,0.6846,0.3273,-0.3163,-0.1155,-40.35,14.55,-11.4,,0.0006779999999997344,2.4111122765230157,2.283064215490309,non_fall
5.481595,-0.4074,2.2757,0.6846,0.3273,-0.3163,-0.1155,-40.35,14.55,-11.4,,0.015602000000000338,2.4111122765230157,2.238025340218742,non_fall
5.482287,-0.3321,2.154,0.5345,0.3273,-0.3163,-0.1155,-40.35,14.55,-11.4,,0.0006919999999999149,2.2440357973971805,2.1814782550144343,non_fall
5.485665,-0.3321,2.154,0.5345,0.3273,-0.3163,-0.1155,-40.5,14.25,-11.775,,0.003377999999999659,2.2440357973971805,2.114483616267321,non_fall
5.504024,-0.3321,2.154,0.5345,0.3273,-0.3163,-0.1155,-40.5,14.25,-11.775,,0.018359000000000236,2.2440357973971805,2.0385802108383566,non_fall
5.504769,-0.197,1.826,0.3569,0.3273,-0.3163,-0.1155,-40.5,14.25,-11.775,,0.0007449999999993295,1.87095232702493,1.9556979925972031,non_fall
5.523377,-0.197,1.826,0.3569,0.3273,-0.3163,-0.1155,-40.5,14.25,-11.775,,0.018608000000000402,1.87095232702493,1.8680517396399896,non_fall
5.524275,-0.2983,1.5052,0.1519,0.3273,-0.3163,-0.1155,-40.5,14.25,-11.775,,0.0008980000000002875,1.5419739102851255,1.7780219345436858,non_fall
5.533135,-0.2983,1.5052,0.1519,0.4218,-0.1216,-0.2219,-40.5,14.25,-11.775,,0.008859999999999424,1.5419739102851255,1.6880303529784086,non_fall
5.548863,-0.2983,1.5052,0.1519,0.4218,-0.1216,-0.2219,-40.5,14.25,-11.775,,0.015728000000000186,1.5419739102851255,1.6004179527432465,non_fall
5.549971,-0.6229,1.0554,0.5237,0.4218,-0.1216,-0.2219,-40.5,14.25,-11.775,,0.001108000000000331,1.3327172468306996,1.517331896060772,non_fall
5.558456,-0.6229,1.0554,0.5237,0.4218,-0.1216,-0.2219,-40.05,13.95,-10.275,,0.00848499999999941,1.3327172468306996,1.4406271622080649,non_fall
5.567018,-0.6229,1.0554,0.5237,0.4218,-0.1216,-0.2219,-40.05,13.95,-10.275,,0.008562000000000403,1.3327172468306996,1.3717865981223594,non_fall
5.567769,-0.9045,0.6747,0.8616,0.4218,-0.1216,-0.2219,-40.05,13.95,-10.275,,0.0007510000000001682,1.4197517036439857,1.311861677809904,non_fall
5.588857,-0.9045,0.6747,0.8616,0.4218,-0.1216,-0.2219,-40.05,13.95,-10.275,,0.021087999999999774,1.4197517036439857,1.2614348692488042,non_fall
5.589641,-0.8985,0.225,0.5607,0.4218,-0.1216,-0.2219,-40.05,13.95,-10.275,,0.00078400000000034,1.082733457504662,1.2206035872009242,non_fall
5.601827,-0.8985,0.225,0.5607,0.3551,-0.224,-0.3451,-40.05,13.95,-10.275,,0.012185999999999808,1.082733457504662,1.1889854534879958,non_fall
5.606733,-0.8985,0.225,0.5607,0.3551,-0.224,-0.3451,-40.05,13.95,-10.275,,0.004906000000000077,1.082733457504662,1.1657448230062886,non_fall
5.607222,-0.9198,-0.2154,0.0332,0.3551,-0.224,-0.3451,-40.05,13.95,-10.275,,0.0004889999999999617,0.9452679196926128,1.149640699553955,non_fall
5.626755,-0.9198,-0.2154,0.0332,0.3551,-0.224,-0.3451,-40.05,13.95,-10.275,,0.019533000000000023,0.9452679196926128,1.1390957635072914,non_fall
5.627493,-0.7221,-0.6838,-0.233,0.3551,-0.224,-0.3451,-40.05,13.95,-10.275,,0.0007380000000001274,1.0214205059621624,1.1322851693915885,non_fall
5.628057,-0.7221,-0.6838,-0.233,0.3551,-0.224,-0.3451,-40.35,12.225,-10.5,,0.0005639999999997869,1.0214205059621624,1.1272422136976574,non_fall
5.646818,-0.7221,-0.6838,-0.233,0.3551,-0.224,-0.3451,-40.35,12.225,-10.5,,0.018760999999999584,1.0214205059621624,1.121976140629364,non_fall
5.647574,-0.4483,-1.1877,-0.0203,0.3551,-0.224,-0.3451,-40.35,12.225,-10.5,,0.0007559999999999789,1.2696520271318437,1.114595503061317,non_fall
5.660919,-0.4483,-1.1877,-0.0203,0.3551,-0.224,-0.3451,-40.35,12.225,-10.5,,0.013345000000000162,1.2696520271318437,1.1034289222385774,non_fall
5.661487,-0.0859,-1.1878,0.7067,0.3551,-0.224,-0.3451,-40.35,12.225,-10.5,,0.000568000000000346,1.3848005415943483,1.087134099047185,non_fall
5.67028,-0.0859,-1.1878,0.7067,0.2894,-0.3971,-0.1454,-40.35,12.225,-10.5,,0.008792999999999829,1.3848005415943483,1.064785843078885,non_fall
5.681204,-0.0859,-1.1878,0.7067,0.2894,-0.3971,-0.1454,-40.35,12.225,-10.5,,0.010924000000000156,1.3848005415943483,1.0359349398673774,non_fall
5.681889,0.1182,-0.8921,0.8932,0.2894,-0.3971,-0.1454,-40.35,12.225,-10.5,,0.0006849999999998246,1.2679195124297127,1.000631870903812,non_fall
5.695615,0.1182,-0.8921,0.8932,0.2894,-0.3971,-0.1454,-40.65,11.85,-9.45,,0.013726000000000127,1.2679195124297127,0.9594124916427754,non_fall
5.705021,0.1182,-0.8921,0.8932,0.2894,-0.3971,-0.1454,-40.65,11.85,-9.45,,0.009406000000000247,1.2679195124297127,0.9132463966873303,non_fall
5.705697,0.3388,-0.3532,0.4156,0.2894,-0.3971,-0.1454,-40.65,11.85,-9.45,,0.0006759999999994548,0.6420740144251285,0.8634525036117243,non_fall
5.724275,0.3388,-0.3532,0.4156,0.2894,-0.3971,-0.1454,-40.65,11.85,-9.45,,0.01857799999999976,0.6420740144251285,0.811590026066217,non_fall
5.72503,0.26,0.1227,0.1356,0.2894,-0.3971,-0.1454,-40.65,11.85,-9.45,,0.0007550000000007273,0.31787206546030433,0.7593359685144339,non_fall
5.739273,0.26,0.1227,0.1356,0.3561,-0.3355,-0.0817,-40.65,11.85,-9.45,,0.014242999999999562,0.31787206546030433,0.7083618094135036,non_fall
5.744617,0.26,0.1227,0.1356,0.3561,-0.3355,-0.0817,-40.65,11.85,-9.45,,0.005344000000000015,0.31787206546030433,0.6602215628264112,non_fall
5.745101,0.0357,0.3789,0.1554,0.3561,-0.3355,-0.0817,-40.65,11.85,-9.45,,0.000484000000000151,0.4110825464550885,0.6162609734739316,non_fall
5.764029,0.0357,0.3789,0.1554,0.3561,-0.3355,-0.0817,-40.65,11.85,-9.45,,0.018927999999999834,0.4110825464550885,0.5775538791690895,non_fall
5.7649,-0.2087,0.5543,0.0036,0.3561,-0.3355,-0.0817,-40.65,11.85,-9.45,,0.0008710000000000662,0.5922981850385834,0.5448676794723312,non_fall
5.766237,-0.2087,0.5543,0.0036,0.3561,-0.3355,-0.0817,-40.65,11.025,-7.95,,0.0013370000000003657,0.5922981850385834,0.518656188525771,non_fall
5.779187,-0.2087,0.5543,0.0036,0.3561,-0.3355,-0.0817,-40.65,11.025,-7.95,,0.012950000000000017,0.5922981850385834,0.4990754587133863,non_fall
5.782378,-0.2085,0.5297,-0.0538,0.3561,-0.3355,-0.0817,-40.65,11.025,-7.95,,0.0031909999999992777,0.5717943511438356,0.48601667041724234,non_fall
5.802305,-0.2085,0.5297,-0.0538,0.3561,-0.3355,-0.0817,-40.65,11.025,-7.95,,0.019927000000000028,0.5717943511438356,0.47914982594651234,non_fall
5.804509,-0.1577,0.4557,0.2783,0.3561,-0.3355,-0.0817,-40.65,11.025,-7.95,,0.002204000000000761,0.5567608732660728,0.47797245180075126,non_fall
5.806934,-0.1577,0.4557,0.2783,0.1993,-0.3376,-0.0954,-40.65,11.025,-7.95,,0.0024249999999996774,0.5567608732660728,0.4818584129481116,non_fall
5.821781,-0.1577,0.4557,0.2783,0.1993,-0.3376,-0.0954,-40.65,11.025,-7.95,,0.01484699999999961,0.5567608732660728,0.4901029886426234,non_fall
5.823645,-0.1244,0.4453,0.4743,0.1993,-0.3376,-0.0954,-40.65,11.025,-7.95,,0.0018640000000003099,0.6623654127443551,0.5019614138142419,non_fall
5.846828,-0.1244,0.4453,0.4743,0.1993,-0.3376,-0.0954,-40.65,11.025,-7.95,,0.023183000000000398,0.6623654127443551,0.5166791288484905,non_fall
5.849894,-0.0106,0.44,0.2383,0.1993,-0.3376,-0.0954,-40.65,11.025,-7.95,,0.003065999999999569,0.500499000998004,0.533513066461782,non_fall
5.853012,-0.0106,0.44,0.2383,0.1993,-0.3376,-0.0954,-40.95,10.725,-7.65,,0.003117999999999732,0.500499000998004,0.5517444996372945,non_fall
5.867242,-0.0106,0.44,0.2383,0.1993,-0.3376,-0.0954,-40.95,10.725,-7.65,,0.014230000000000409,0.500499000998004,0.5706851647588946,non_fall
5.871782,0.131,0.5019,0.0394,0.1993,-0.3376,-0.0954,-40.95,10.725,-7.65,,0.004539999999999544,0.5202085831664064,0.589679238043747,non_fall
5.886656,0.131,0.5019,0.0394,0.1834,-0.3738,-0.13,-40.95,10.725,-7.65,,0.01487400000000072,0.5202085831664064,0.6081040086346631,non_fall
5.889825,0.131,0.5019,0.0394,0.1834,-0.3738,-0.13,-40.95,10.725,-7.65,,0.0031689999999997553,0.5202085831664064,0.6253717671512503,non_fall
5.892162,0.0505,0.5843,-0.0084,0.1834,-0.3738,-0.13,-40.95,10.725,-7.65,,0.0023369999999998115,0.5865384045397198,0.6409347188935132,non_fall
5.905009,0.0505,0.5843,-0.0084,0.1834,-0.3738,-0.13,-40.95,10.725,-7.65,,0.01284699999999983,0.5865384045397198,0.6542938229873133,non_fall
5.906951,-0.0558,0.6852,-0.0625,0.1834,-0.3738,-0.13,-40.95,10.725,-7.65,,0.0019420000000005544,0.6903035057132478,0.6650114701430253,non_fall
5.908765,-0.0558,0.6852,-0.0625,0.1834,-0.3738,-0.13,-41.325,10.65,-6.075,,0.0018139999999995382,0.6903035057132478,0.6727269626298727,non_fall
5.924421,-0.0558,0.6852,-0.0625,0.1834,-0.3738,-0.13,-41.325,10.65,-6.075,,0.015655999999999892,0.6903035057132478,0.6771729976914564,non_fall
5.925196,-0.1898,0.7168,-0.2386,0.1834,-0.3738,-0.13,-41.325,10.65,-6.075,,0.0007749999999999702,0.7789455950193184,0.6781909000350493,non_fall
5.944529,-0.1898,0.7168,-0.2386,0.1834,-0.3738,-0.13,-41.325,10.65,-6.075,,0.01933300000000049,0.7789455950193184,0.6757422415815333,non_fall
5.94552,-0.381,0.4964,-0.4011,0.1834,-0.3738,-0.13,-41.325,10.65,-6.075,,0.0009909999999999641,0.7432732808328307,0.6699147129391413,non_fall
5.951006,-0.381,0.4964,-0.4011,0.161,-0.3719,-0.1484,-41.325,10.65,-6.075,,0.005485999999999436,0.7432732808328307,0.6609206551543358,non_fall
5.966642,-0.381,0.4964,-0.4011,0.161,-0.3719,-0.1484,-41.325,10.65,-6.075,,0.01563600000000065,0.7432732808328307,0.6490874850042407,non_fall
5.968399,-0.5042,0.2028,-0.1757,0.161,-0.3719,-0.1484,-41.325,10.65,-6.075,,0.0017569999999995645,0.5711531931102197,0.6348402417085702,non_fall
5.976382,-0.5042,0.2028,-0.1757,0.161,-0.3719,-0.1484,-42.15,9.6,-5.475,,0.007983000000000295,0.5711531931102197,0.6186774798013509,non_fall
5.9797,-0.5042,0.2028,-0.1757,0.161,-0.3719,-0.1484,-42.15,9.6,-5.475,,0.003318000000000154,0.5711531931102197,0.601142541184574,non_fall
5.980963,-0.4527,0.0359,0.248,0.161,-0.3719,-0.1484,-42.15,9.6,-5.475,,0.001262999999999792,0.5174264198898235,0.5827926751270535,non_fall
6.004554,-0.4527,0.0359,0.248,0.161,-0.3719,-0.1484,-42.15,9.6,-5.475,,0.023590999999999696,0.5174264198898235,0.5641684624333643,non_fall
6.006339,-0.281,0.0861,0.4535,0.161,-0.3719,-0.1484,-42.15,9.6,-5.475,,0.0017849999999999255,0.5404039785197737,0.5457656404247417,non_fall
6.018909,-0.281,0.0861,0.4535,0.0341,-0.3395,-0.067,-42.15,9.6,-5.475,,0.012570000000000192,0.5404039785197737,0.5280109059521264,non_fall
6.023186,-0.281,0.0861,0.4535,0.0341,-0.3395,-0.067,-42.15,9.6,-5.475,,0.004277000000000086,0.5404039785197737,0.511242757509013,non_fall
6.024446,-0.0672,0.3442,0.2752,0.0341,-0.3395,-0.067,-42.15,9.6,-5.475,,0.001260000000000261,0.4457852846382438,0.4956980501256658,non_fall
6.043727,-0.0672,0.3442,0.2752,0.0341,-0.3395,-0.067,-42.15,9.6,-5.475,,0.019280999999999437,0.4457852846382438,0.48150474099065416,non_fall
6.045647,0.016,0.3955,0.0049,0.0341,-0.3395,-0.067,-42.15,9.6,-5.475,,0.0019200000000001438,0.39585383666196794,0.46868123498228775,non_fall
6.046886,0.016,0.3955,0.0049,0.0341,-0.3395,-0.067,-42.525,9.15,-4.05,,0.0012389999999999901,0.39585383666196794,0.45714262804752187,non_fall
6.075485,0.016,0.3955,0.0049,0.0341,-0.3395,-0.067,-42.525,9.15,-4.05,,0.02859899999999982,0.39585383666196794,0.4467138463820815,non_fall
6.080225,0.1556,0.3641,-0.104,0.0341,-0.3395,-0.067,-42.525,9.15,-4.05,,0.004740000000000855,0.4093851120888496,0.43714916448214985,non_fall
6.096816,0.1556,0.3641,-0.104,0.1358,-0.2285,-0.0472,-42.525,9.15,-4.05,,0.016590999999999134,0.4093851120888496,0.42815693768146657,non_fall
6.099856,0.1556,0.3641,-0.104,0.1358,-0.2285,-0.0472,-42.525,9.15,-4.05,,0.0030400000000003757,0.4093851120888496,0.4194277287263245,non_fall
6.101334,0.0538,0.5086,-0.1557,0.1358,-0.2285,-0.0472,-42.525,9.15,-4.05,,0.0014779999999996463,0.5346128412225056,0.4106634547476036,non_fall
6.106634,0.0538,0.5086,-0.1557,0.1358,-0.2285,-0.0472,-42.525,9.15,-4.05,,0.005300000000000082,0.5346128412225056,0.40160482523177937,non_fall
6.108312,-0.0393,0.4773,-0.11,0.1358,-0.2285,-0.0472,-42.525,9.15,-4.05,,0.0016780000000000683,0.49138557162375046,0.39205430354061577,non_fall
6.117815,-0.0393,0.4773,-0.11,0.1358,-0.2285,-0.0472,-43.05,9.15,-3.75,,0.009503000000000483,0.49138557162375046,0.3818922402376194,non_fall
6.126434,-0.0393,0.4773,-0.11,0.1358,-0.2285,-0.0472,-43.05,9.15,-3.75,,0.008618999999999488,0.49138557162375046,0.3710847259017685,non_fall
6.128017,-0.2156,0.1024,-0.1283,0.1358,-0.2285,-0.0472,-43.05,9.15,-3.75,,0.001583000000000112,0.27097972248860247,0.35968293812073704,non_fall
6.146977,-0.2156,0.1024,-0.1283,0.1358,-0.2285,-0.0472,-43.05,9.15,-3.75,,0.018959999999999866,0.27097972248860247,0.34781504219159665,non_fall
6.148975,-0.1466,-0.0401,0.1113,0.1358,-0.2285,-0.0472,-43.05,9.15,-3.75,,0.0019980000000003884,0.18838062533073832,0.3356727443099154,non_fall
6.160351,-0.1466,-0.0401,0.1113,0.0305,-0.2066,-0.0023,-43.05,9.15,-3.75,,0.011376000000000275,0.18838062533073832,0.32349508546924394,non_fall
6.169674,-0.1466,-0.0401,0.1113,0.0305,-0.2066,-0.0023,-43.05,9.15,-3.75,,0.009322999999999304,0.18838062533073832,0.3115518164158213,non_fall
6.171464,-0.1414,-0.343,0.3662,0.0305,-0.2066,-0.0023,-43.05,9.15,-3.75,,0.0017900000000006244,0.5212920486637026,0.30012778214031754,non_fall
6.185816,-0.1414,-0.343,0.3662,0.0305,-0.2066,-0.0023,-43.05,9.15,-3.75,,0.014351999999999698,0.5212920486637026,0.28950852977269004,non_fall
6.187534,-0.1613,-0.0639,0.1341,0.0305,-0.2066,-0.0023,-43.05,9.15,-3.75,,0.0017180000000003304,0.2192799808464056,0.27996641469065126,non_fall
6.189058,-0.1613,-0.0639,0.1341,0.0305,-0.2066,-0.0023,-43.65,8.925,-3.15,,0.0015239999999998588,0.2192799808464056,0.27174634970812267,non_fall
6.203734,-0.1613,-0.0639,0.1341,0.0305,-0.2066,-0.0023,-43.65,8.925,-3.15,,0.01467599999999969,0.2192799808464056,0.2650510388287245,non_fall
6.206648,0.016,0.2222,0.1314,0.0305,-0.2066,-0.0023,-43.65,8.925,-3.15,,0.0029140000000005273,0.25864029075146044,0.26002644406495135,non_fall
6.223235,0.016,0.2222,0.1314,0.0305,-0.2066,-0.0023,-43.65,8.925,-3.15,,0.016586999999999463,0.25864029075146044,0.25674869829653274,non_fall
6.22577,0.1289,0.2685,0.0212,0.0305,-0.2066,-0.0023,-43.65,8.925,-3.15,,0.002534999999999954,0.2985915270063771,0.2552136054220369,non_fall
6.228422,0.1289,0.2685,0.0212,0.0356,-0.1327,0.0513,-43.65,8.925,-3.15,,0.0026520000000003208,0.2985915270063771,0.2553296070984102,non_fall
6.243564,0.1289,0.2685,0.0212,0.0356,-0.1327,0.0513,-43.65,8.925,-3.15,,0.015141999999999989,0.2985915270063771,0.2569149656171914,non_fall
6.246322,0.0444,0.0169,0.0154,0.0356,-0.1327,0.0513,-43.65,8.925,-3.15,,0.002758000000000038,0.04994126550258814,0.25970001224523165,non_fall
6.255956,0.0444,0.0169,0.0154,0.0356,-0.1327,0.0513,-42.9,8.625,-2.475,,0.009634000000000142,0.04994126550258814,0.26333552297552143,non_fall
6.26352,0.0444,0.0169,0.0154,0.0356,-0.1327,0.0513,-42.9,8.625,-2.475,,0.00756399999999946,0.04994126550258814,0.26740828313038995,non_fall
6.265456,-0.0555,-0.3511,0.0642,0.0356,-0.1327,0.0513,-42.9,8.625,-2.475,,0.001936000000000604,0.36121060338810657,0.27146428119426147,non_fall
6.278169,-0.0555,-0.3511,0.0642,0.0356,-0.1327,0.0513,-42.9,8.625,-2.475,,0.012712999999999752,0.36121060338810657,0.2750386128453485,non_fall
6.280741,-0.0829,-0.3906,0.0567,0.0356,-0.1327,0.0513,-42.9,8.625,-2.475,,0.0025719999999997967,0.40330591366852037,0.2776895279295529,non_fall
6.297028,-0.0829,-0.3906,0.0567,-0.0341,-0.0296,0.0238,-42.9,8.625,-2.475,,0.016287000000000162,0.40330591366852037,0.27903288398566156,non_fall
6.301233,-0.0829,-0.3906,0.0567,-0.0341,-0.0296,0.0238,-42.9,8.625,-2.475,,0.004204999999999792,0.40330591366852037,0.27877307367746,non_fall
6.303072,-0.0269,-0.1895,0.1876,-0.0341,-0.0296,0.0238,-42.9,8.625,-2.475,,0.0018390000000003681,0.26800675364624676,0.27672719946241325,non_fall
6.322914,-0.0269,-0.1895,0.1876,-0.0341,-0.0296,0.0238,-42.9,8.625,-2.475,,0.019841999999999693,0.26800675364624676,0.2728404597232482,non_fall
6.325153,0.0337,0.0855,0.2682,-0.0341,-0.0296,0.0238,-42.9,8.625,-2.475,,0.002239000000000324,0.2835086947520305,0.26719194049160006,non_fall
6.327162,0.0337,0.0855,0.2682,-0.0341,-0.0296,0.0238,-43.05,8.625,-2.25,,0.0020090000000001496,0.2835086947520305,0.25999095297457925,non_fall
6.340204,0.0337,0.0855,0.2682,-0.0341,-0.0296,0.0238,-43.05,8.625,-2.25,,0.013041999999999554,0.2835086947520305,0.2515646072045347,non_fall
6.342323,0.0509,0.1807,0.2295,-0.0341,-0.0296,0.0238,-43.05,8.625,-2.25,,0.002119000000000426,0.2965021922347287,0.2423375867871126,non_fall
6.359637,0.0509,0.1807,0.2295,-0.0341,-0.0296,0.0238,-43.05,8.625,-2.25,,0.01731399999999983,0.2965021922347287,0.23280530589164447,non_fall
6.362341,0.0205,0.166,0.1108,-0.0341,-0.0296,0.0238,-43.05,8.625,-2.25,,0.0027039999999995956,0.20063122887526758,0.22350193385460115,non_fall
6.367176,0.0205,0.166,0.1108,-0.0411,0.0728,-0.0142,-43.05,8.625,-2.25,,0.004834999999999923,0.20063122887526758,0.21496518906818682,non_fall
6.378104,0.0205,0.166,0.1108,-0.0411,0.0728,-0.0142,-43.05,8.625,-2.25,,0.010928000000000715,0.20063122887526758,0.2077002486265454,non_fall
6.379847,-0.0611,0.0194,-0.0047,-0.0411,0.0728,-0.0142,-43.05,8.625,-2.25,,0.001742999999999384,0.06427799001213401,0.20214544590720904,non_fall
6.396062,-0.0611,0.0194,-0.0047,-0.0411,0.0728,-0.0142,-43.05,8.625,-2.25,,0.01621499999999987,0.06427799001213401,0.1986425021838409,non_fall
6.399359,-0.1553,-0.0432,0.0768,-0.0411,0.0728,-0.0142,-43.05,8.625,-2.25,,0.0032969999999998834,0.17855690969548055,0.19741377713281144,non_fall
6.401307,-0.1553,-0.0432,0.0768,-0.0411,0.0728,-0.0142,-43.35,8.625,-2.25,,0.0019480000000005049,0.17855690969548055,0.19854839113407594,non_fall
6.418858,-0.1553,-0.0432,0.0768,-0.0411,0.0728,-0.0142,-43.35,8.625,-2.25,,0.017551000000000094,0.17855690969548055,0.20199816015810257,non_fall
6.420901,-0.1517,0.0488,0.0035,-0.0411,0.0728,-0.0142,-43.35,8.625,-2.25,,0.002042999999999573,0.1593944164643166,0.20758334718007604,non_fall
6.432919,-0.1517,0.0488,0.0035,-0.0324,0.0841,-0.038,-43.35,8.625,-2.25,,0.012018000000000306,0.1593944164643166,0.21500750679218542,non_fall
6.438138,-0.1517,0.0488,0.0035,-0.0324,0.0841,-0.038,-43.35,8.625,-2.25,,0.005219000000000307,0.1593944164643166,0.22388019039205162,non_fall
6.439566,-0.1391,0.1757,0.1706,-0.0324,0.0841,-0.038,-43.35,8.625,-2.25,,0.0014279999999997628,0.28164456323529485,0.23374583183626813,non_fall
6.458167,-0.1391,0.1757,0.1706,-0.0324,0.0841,-0.038,-43.35,8.625,-2.25,,0.01860100000000031,0.28164456323529485,0.24411664689911308,non_fall
6.459435,0.0682,0.1153,-0.2904,-0.0324,0.0841,-0.038,-43.35,8.625,-2.25,,0.0012679999999996028,0.31980852083707834,0.2545069272341495,non_fall
6.465754,0.0682,0.1153,-0.2904,-0.0324,0.0841,-0.038,-43.2,9.0,-2.475,,0.0063189999999995194,0.31980852083707834,0.2644658730912137,non_fall
6.47874,0.0682,0.1153,-0.2904,-0.0324,0.0841,-0.038,-43.2,9.0,-2.475,,0.012986000000000608,0.31980852083707834,0.2736062154956193,non_fall
6.480005,-0.072,-0.1384,-0.4039,-0.0324,0.0841,-0.038,-43.2,9.0,-2.475,,0.0012650000000000716,0.43298241303775836,0.28162630246781856,non_fall
6.502848,-0.072,-0.1384,-0.4039,-0.0324,0.0841,-0.038,-43.2,9.0,-2.475,,0.022842999999999947,0.43298241303775836,0.28832396372574254,non_fall
6.504885,-0.1683,0.0226,0.1827,-0.0324,0.0841,-0.038,-43.2,9.0,-2.475,,0.0020369999999996224,0.2494292284396518,0.29360128513854367,non_fall
6.506432,-0.1683,0.0226,0.1827,-0.1301,0.0689,0.0127,-43.2,9.0,-2.475,,0.0015470000000004092,0.2494292284396518,0.29746042517243937,non_fall
6.522032,-0.1683,0.0226,0.1827,-0.1301,0.0689,0.0127,-43.2,9.0,-2.475,,0.015600000000000058,0.2494292284396518,0.29999165922896864,non_fall
6.523581,-0.0704,0.1787,0.2166,-0.1301,0.0689,0.0127,-43.2,9.0,-2.475,,0.0015489999999998005,0.28949164063924193,0.30135562210710365,non_fall
