time,ax,ay,az,wx,wy,wz,Bx,By,Bz,time_diff,acc_mag,acc_mag_filtered,label
0.046616,0.0,0.0,0.0,0.0,0.0,0.0,0.0,0.0,0.0,0.0,0.0,0.0006587852671382684,non_fall
0.066616,0.0359,0.0494,-0.3574,0.0,0.0,0.0,0.0,0.0,0.0,0.019999999999999997,0.3625795498921582,0.1329082628724654,non_fall
0.086616,0.0594,0.1086,-0.3554,0.0107,0.0114,0.00555,-42.0,9.75,-5.1,0.020000000000000004,0.37633958069807116,0.24244251237899178,non_fall
0.106616,0.0294,0.0895,-0.2919,0.0214,0.0228,0.0111,-42.0,9.75,-5.1,0.020000000000000004,0.3067249908305484,0.31393684052826315,non_fall
0.126616,-0.0887,0.1162,-0.3333,0.0214,0.0228,0.0111,-42.0,9.75,-5.1,0.020000000000000004,0.3639491997518335,0.3433357564794741,non_fall
0.146616,-0.0739,0.0618,-0.2127,0.0214,0.0228,0.0111,-43.425,8.325,-5.55,0.01999999999999999,0.23349890792035838,0.33734460973650665,non_fall
0.166616,-0.0238,-0.0597,-0.1506,-0.0133,0.0367,0.0159,-43.425,8.325,-5.55,0.01999999999999999,0.16374031269055278,0.309429302078916,non_fall
0.186616,-0.0733,-0.0663,-0.3809,-0.0133,0.0367,0.0159,-43.425,8.325,-5.55,0.020000000000000018,0.39351415476447604,0.2746349432062306,non_fall
0.206616,-0.0141,0.097,-0.3035,-0.0133,0.0367,0.0159,-43.95,8.175,-5.325,0.01999999999999999,0.318935824265635,0.24526107081611773,non_fall
0.226616,-0.0231,0.0166,-0.1265,-0.0113,0.006,0.0241,-43.95,8.175,-5.325,0.020000000000000018,0.12965886009062397,0.22829241907767286,non_fall
0.246616,0.0074,0.0533,-0.1823,-0.0113,0.006,0.0241,-43.95,8.175,-5.325,0.01999999999999999,0.19007614263762826,0.22457579980026726,non_fall
0.266616,0.0096,0.1064,-0.1975,-0.0113,0.006,0.0241,-43.95,8.175,-5.325,0.020000000000000018,0.22454257948104187,0.22955060721977932,non_fall
0.286616,0.17935,0.1093,-0.1589,-0.0113,0.006,0.0241,-43.725,8.775,-5.4,0.019999999999999962,0.2633668971226263,0.2353919984071042,non_fall
0.306616,-0.1182,0.1361,-0.1836,-0.0226,0.0195,0.0231,-43.725,8.775,-5.4,0.020000000000000018,0.25730023319072215,0.23411610072524405,non_fall
0.326616,0.054,0.0865,-0.2803,-0.0226,0.0195,0.0231,-43.725,8.775,-5.4,0.020000000000000018,0.298272258180341,0.2206727108194598,non_fall
0.346616,0.06495,0.0271,-0.15185,-0.0226,0.0195,0.0231,-43.725,8.775,-5.4,0.019999999999999962,0.16736587167042152,0.19486509969722776,non_fall
0.366616,0.0322,0.0562,-0.1922,-0.0199,0.0243,-0.0069,-44.25,9.3,-4.95,0.020000000000000018,0.20282041317382235,0.16133685071067574,non_fall
0.386616,0.001,0.0352,-0.0687,-0.0199,0.0243,-0.0069,-44.25,9.3,-4.95,0.020000000000000018,0.07719928756147948,0.127660638683968,non_fall
0.406616,0.0119,-0.0269,-0.0266,-0.0199,0.0243,-0.0069,-44.25,9.3,-4.95,0.019999999999999962,0.03965829043214041,0.10136657657359148,non_fall
0.426616,0.0187,-0.0033,-0.0497,-0.0199,0.0243,-0.0069,-43.65,9.75,-5.85,0.020000000000000018,0.05320404119989383,0.08719457255854504,non_fall
0.446616,0.0586,0.013,-0.0622,-0.0131,0.0029,-0.0237,-43.65,9.75,-5.85,0.020000000000000018,0.08643957427012236,0.08572433005532835,non_fall
0.466616,0.0965,0.0146,-0.1223,-0.0131,0.0029,-0.0237,-43.65,9.75,-5.85,0.019999999999999962,0.156469485843087,0.09384599379355908,non_fall
0.486616,0.0917,0.0259,-0.1045,-0.0131,0.0029,-0.0237,-43.65,9.75,-5.85,0.020000000000000018,0.14142117946050373,0.10662477425454973,non_fall
0.506616,0.0902,0.0537,-0.0344,0.0263,-0.0397,-0.0368,-43.725,9.225,-5.55,0.019999999999999962,0.11046759705904714,0.11951883816662662,non_fall
0.526616,0.1203,0.017,0.0146,0.0263,-0.0397,-0.0368,-43.725,9.225,-5.55,0.020000000000000018,0.12236931804990989,0.12996546872179976,non_fall
0.546616,0.1002,0.0348,0.0254,0.0263,-0.0397,-0.0368,-43.725,9.225,-5.55,0.020000000000000018,0.10906988585306213,0.13790227054325355,non_fall
0.566616,0.0762,0.1105,-0.1173,0.0263,-0.0397,-0.0368,-44.25,8.175,-5.4,0.020000000000000018,0.1782581835428601,0.14536367127938193,non_fall
0.586616,0.09755,0.05215,-0.1301,0.0156,-0.0429,-0.0492,-44.25,8.175,-5.4,0.020000000000000018,0.17076778091900122,0.15554685027800857,non_fall
0.606616,0.103,0.0468,-0.0234,0.0156,-0.0429,-0.0492,-44.25,8.175,-5.4,0.020000000000000018,0.11552835149866893,0.17171802797287147,non_fall
0.626616,0.1023,0.0762,0.0122,0.0156,-0.0429,-0.0492,-43.95,9.0,-4.35,0.019999999999999907,0.1281427719381784,0.19625635953341009,non_fall
0.646616,0.0974,0.1072,-0.3963,0.0027,-0.027,-0.0577,-43.95,9.0,-4.35,0.020000000000000018,0.4219387277792831,0.23005523460231883,non_fall
0.666616,0.0139,0.0488,0.1774,0.0027,-0.027,-0.0577,-43.95,9.0,-4.35,0.020000000000000018,0.18451398320994536,0.2723089539686721,non_fall
0.686616,0.15695,0.01075,-0.22995,0.0027,-0.027,-0.0577,-43.95,9.0,-4.35,0.020000000000000018,0.27861419113175123,0.32051996103093805,non_fall
0.706616,-0.0032,-0.0655,0.3801,0.0027,-0.027,-0.0577,-43.425,8.325,-4.5,0.020000000000000018,0.3857155687809347,0.37064858378077287,non_fall
0.726616,0.177,-0.121,0.3384,0.0047,-0.033,-0.0582,-43.425,8.325,-4.5,0.020000000000000018,0.4006052421024967,0.41759653194132834,non_fall
0.746616,0.3805,-0.0259,0.0605,0.0047,-0.033,-0.0582,-43.425,8.325,-4.5,0.019999999999999907,0.38614933639720267,0.4562309111837234,non_fall
0.766616,0.6399,0.1866,0.0858,0.0047,-0.033,-0.0582,-44.1,7.875,-4.65,0.020000000000000018,0.6720514935628074,0.482780438554622,non_fall
0.786616,0.5031,0.0623,-0.1301,0.0487,-0.0522,-0.0313,-44.1,7.875,-4.65,0.020000000000000018,0.5233707194713896,0.49599061250924015,non_fall
0.806616,0.1882,0.1069,-0.3128,0.0487,-0.0522,-0.0313,-44.1,7.875,-4.65,0.020000000000000018,0.3803822945406371,0.4973573581784904,non_fall
0.826616,0.25215,0.0816,-0.2649,0.0487,-0.0522,-0.0313,-44.1,7.875,-4.65,0.020000000000000018,0.3747134805421337,0.4903010251622698,non_fall
0.846616,0.4787,0.0622,-0.21945,0.0487,-0.0522,-0.0313,-44.25,8.175,-4.95,0.020000000000000018,0.530264870135671,0.4789108546345564,non_fall
0.866616,0.5257,0.1057,-0.2587,-0.029,-0.0568,-0.0151,-44.25,8.175,-4.95,0.020000000000000018,0.595364317036216,0.46703423105241987,non_fall
0.886616,0.42485,0.1834,-0.3072,-0.029,-0.0568,-0.0151,-44.25,8.175,-4.95,0.019999999999999907,0.5554321943315853,0.45777378053328427,non_fall
0.906616,0.2992,0.0319,-0.0364,-0.029,-0.0568,-0.0151,-43.65,8.4,-4.65,0.020000000000000018,0.30308944224436457,0.45280660335727685,non_fall
0.926616,0.3188,0.0507,-0.081,-0.0898,-0.0684,0.0131,-43.65,8.4,-4.65,0.020000000000000018,0.3328136565707603,0.45128797691824885,non_fall
0.946616,0.4434,0.117,-0.0721,-0.0898,-0.0684,0.0131,-43.65,8.4,-4.65,0.020000000000000018,0.46421004943882893,0.44908264730960545,non_fall
0.966616,0.4964,0.1763,0.0157,-0.0898,-0.0684,0.0131,-43.65,8.4,-4.65,0.020000000000000018,0.5270115179007001,0.4394229557633357,non_fall
0.986616,0.4202,0.1217,-0.04565,-0.0898,-0.0684,0.0131,-43.65,8.7,-4.05,0.020000000000000018,0.4398441229572131,0.4152886998695504,non_fall
1.006616,0.329,0.0314,-0.0957,-0.0596,-0.0295,0.0266,-43.65,8.7,-4.05,0.019999999999999907,0.3440718674928248,0.3726598403838002,non_fall
1.026616,0.269,0.0794,-0.0295,-0.0596,-0.0295,0.0266,-43.65,8.7,-4.05,0.020000000000000018,0.28202058435511407,0.31336404706324694,non_fall
1.046616,0.2472,0.1107,-0.0929,-0.0596,-0.0295,0.0266,-44.625,8.1,-4.2,0.020000000000000018,0.2863437444750627,0.2465970390984341,non_fall
1.066616,0.1163,0.1837,-0.0008,-0.1103,-0.0197,0.0339,-44.625,8.1,-4.2,0.020000000000000018,0.2174212961050504,0.18865838485281186,non_fall
1.086616,-0.025,0.2557,-0.0079,-0.1103,-0.0197,0.0339,-44.625,8.1,-4.2,0.020000000000000018,0.2570406582624624,0.16062959597178791,non_fall
1.106616,-0.0212,0.2038,0.0007,-0.1103,-0.0197,0.0339,-44.625,8.1,-4.2,0.020000000000000018,0.20490087847542285,0.1838956298432026,non_fall
1.126616,-0.066,0.0846,0.1314,-0.1621,-0.01015,0.04955,-44.25,8.625,-4.35,0.020000000000000018,0.16964409804057434,0.2740054214203775,non_fall
1.146616,-0.192,-0.0747,0.2935,-0.2139,-0.0006,0.0652,-44.25,8.625,-4.35,0.020000000000000018,0.3585893751911788,0.4343692403574111,non_fall
1.166616,-0.4492,-0.0587,0.3412,-0.2139,-0.0006,0.0652,-44.25,8.625,-4.35,0.020000000000000018,0.5671364650593365,0.6521129630676301,non_fall
1.186616,-0.73995,0.22855,0.2561,-0.2139,-0.0006,0.0652,-43.95,8.925,-4.05,0.019999999999999796,0.8156888591859031,0.8983159798742258,non_fall
1.206616,-1.06485,0.3167,0.1928,-0.2533,0.0554,0.1096,-43.95,8.925,-4.05,0.020000000000000018,1.1275532149304528,1.1335875973527851,non_fall
1.226616,-1.4844,0.1225,0.2672,-0.2533,0.0554,0.1096,-43.95,8.925,-4.05,0.020000000000000018,1.5132235294231977,1.3179059216309272,non_fall
1.246616,-1.54415,-0.11165,0.18165,-0.2533,0.0554,0.1096,-43.95,8.925,-4.05,0.020000000000000018,1.5588013560104443,1.4217023641203292,non_fall
1.266616,-1.3919,-0.3337,0.2034,-0.27625,0.01535,0.10395,-44.025,8.925,-3.3,0.020000000000000018,1.4457222624003545,1.4342938199939101,non_fall
1.286616,-1.2048,-0.5611,0.499,-0.2992,-0.0247,0.0983,-44.025,8.925,-3.3,0.020000000000000018,1.4196398310839269,1.3665899715035177,non_fall
1.306616,-0.76435,-0.60045,0.5379,-0.2992,-0.0247,0.0983,-44.025,8.925,-3.3,0.020000000000000018,1.1109039269891885,1.2472610255671575,non_fall
1.326616,-0.7597,-0.3322,0.6072,-0.2992,-0.0247,0.0983,-43.95,9.45,-3.3,0.020000000000000018,1.0277123965390318,1.1140545723250523,non_fall
1.346616,-0.7845,-0.0439,0.7695,-0.327,-0.0136,0.067,-43.95,9.45,-3.3,0.020000000000000018,1.0997716626645733,1.0034563097178526,non_fall
1.366616,-0.5901,0.2459,0.2015,-0.327,-0.0136,0.067,-43.95,9.45,-3.3,0.020000000000000018,0.6702887959678275,0.9419130012766975,non_fall
1.386616,-0.6163,0.1204,0.9608,-0.327,-0.0136,0.067,-43.95,9.45,-3.3,0.020000000000000018,1.1478059461424652,0.9407325457308885,non_fall
1.406616,-0.6012,0.1191,0.7969,-0.3282,-0.02405,0.0422,-43.35,9.075,-3.825,0.020000000000000018,1.0053237587961403,0.9952532686683971,non_fall
1.426616,-0.8452,0.4515,0.4645,-0.3294,-0.0345,0.0174,-43.35,9.075,-3.825,0.020000000000000018,1.0648828761887383,1.0875563670394228,non_fall
1.446616,-0.9437,0.395,0.6014,-0.3294,-0.0345,0.0174,-43.35,9.075,-3.825,0.019999999999999796,1.1867083255796262,1.191340215119221,non_fall
1.466616,-1.1039,0.3223,0.4902,-0.3294,-0.0345,0.0174,-43.95,9.45,-3.15,0.020000000000000018,1.2501074113851178,1.2776991878129629,non_fall
1.486616,-1.168,0.4719,0.3783,-0.2941,0.0573,0.0319,-43.95,9.45,-3.15,0.020000000000000018,1.3153039572661522,1.3210065541726732,non_fall
1.506616,-1.1517,0.517,0.3973,-0.2941,0.0573,0.0319,-43.95,9.45,-3.15,0.020000000000000018,1.3234610610063295,1.3043005738527957,non_fall
1.526616,-1.1309,0.3606,0.3941,-0.2941,0.0573,0.0319,-43.6875,9.375,-3.0,0.020000000000000018,1.2507125888868313,1.2233962971935337,non_fall
1.546616,-1.065,0.2795,0.4819,-0.3263,0.0548,-0.0021,-43.425,9.3,-2.85,0.020000000000000018,1.2019038480677229,1.0887034649270126,non_fall
1.566616,-0.9299,0.1596,0.2423,-0.3263,0.0548,-0.0021,-43.425,9.3,-2.85,0.020000000000000018,0.9741126526228884,0.923797654296194,non_fall
1.586616,-0.55695,0.23855,0.4625,-0.3263,0.0548,-0.0021,-43.425,9.3,-2.85,0.020000000000000018,0.7622372694902815,0.7604360713842052,non_fall
1.606616,-0.163,-0.2642,-0.0939,-0.3263,0.0548,-0.0021,-43.5,9.225,-2.925,0.020000000000000018,0.3243267642363177,0.6309333226057002,non_fall
1.626616,0.3411,-0.5572,-0.026,-0.4546,0.0365,-0.0828,-43.5,9.225,-2.925,0.020000000000000018,0.6538325856058262,0.5600814722882139,non_fall
1.646616,0.449,-0.1701,0.4611,-0.4546,0.0365,-0.0828,-43.5,9.225,-2.925,0.020000000000000018,0.6656937884643359,0.5591816147078071,non_fall
1.666616,0.2623,0.311,0.2838,-0.4546,0.0365,-0.0828,-43.5,9.225,-2.925,0.020000000000000018,0.49604912055158407,0.6238450438459474,non_fall
1.686616,0.1891,0.6051,-0.1909,-0.5079,0.08015,-0.09385,-43.5,9.375,-3.6,0.019999999999999796,0.6620782657662159,0.7357757314606271,non_fall
1.706616,0.6151,0.5137,-0.5732,-0.5612,0.1238,-0.1049,-43.5,9.375,-3.6,0.020000000000000018,0.9852887597044838,0.8677566800091355,non_fall
1.726616,0.8574,0.3992,-0.331,-0.5612,0.1238,-0.1049,-43.5,9.375,-3.6,0.020000000000000018,1.0020261473634309,0.9905657977416872,non_fall
1.746616,1.03695,0.33035,0.01135,-0.5612,0.1238,-0.1049,-43.5,9.525,-2.25,0.020000000000000018,1.0883589699634952,1.0801156808653654,non_fall
1.766616,1.1771,0.09235,-0.33505,-0.7011,0.2857,-0.1032,-43.5,9.525,-2.25,0.020000000000000018,1.227335094829444,1.1228905878459277,non_fall
1.786616,1.0163,-0.3375,-0.459,-0.7011,0.2857,-0.1032,-43.5,9.525,-2.25,0.020000000000000018,1.1650978242190653,1.1181461521096692,non_fall
1.806616,0.8691,-0.5474,-0.2508,-0.7011,0.2857,-0.1032,-42.525,9.375,-3.15,0.020000000000000018,1.0572994892649858,1.0763290068542324,non_fall
1.826616,0.5782,-0.4515,0.3569,-0.6754,0.3746,-0.1277,-42.525,9.375,-3.15,0.020000000000000018,0.8158094753065817,1.014464254779164,non_fall
1.846616,0.8057,-0.5854,0.3259,-0.6754,0.3746,-0.1277,-42.525,9.375,-3.15,0.020000000000000018,1.0478818921996886,0.9504228809370705,non_fall
1.866616,0.7072,-0.4127,0.1882,-0.6754,0.3746,-0.1277,-42.525,9.375,-3.15,0.020000000000000018,0.8401621093574739,0.8984277648524636,non_fall
1.886616,0.6287,-0.1934,0.2196,-0.6754,0.3746,-0.1277,-43.95,8.775,-3.75,0.020000000000000018,0.6934633443809414,0.867580398523282,non_fall
1.906616,0.6898,-0.0288,0.4087,-0.5612,0.2952,-0.1329,-43.95,8.775,-3.75,0.020000000000000018,0.8023024180444679,0.8639195763169749,forward_fall
1.926616,0.91405,0.4451,0.5108,-0.5612,0.2952,-0.1329,-43.95,8.775,-3.75,0.020000000000000018,1.1377688923942333,0.8949722668487319,forward_fall
1.946616,0.973,0.62,0.5277,-0.5612,0.2952,-0.1329,-43.65,8.175,-4.35,0.019999999999999796,1.2686986600450083,0.9741104247347961,forward_fall
1.966616,0.9091,0.7288,0.2549,-0.5122,0.1646,-0.1634,-43.65,8.175,-4.35,0.020000000000000018,1.1927222057126294,1.12098633461775,forward_fall
1.986616,0.58155,0.904,1.06645,-0.5122,0.1646,-0.1634,-43.65,8.175,-4.35,0.020000000000000018,1.5141770058351829,1.3552275107028584,forward_fall
2.006616,0.374,0.9426,1.0749,-0.5122,0.1646,-0.1634,-43.65,8.175,-4.35,0.02000000000000024,1.4777620816626742,1.6839645709946438,forward_fall
2.026616,-0.1018,1.0024,1.0545,-0.5122,0.1646,-0.1634,-43.95,7.725,-5.325,0.020000000000000018,1.458471545831457,2.08829682110728,forward_fall
2.046616,-0.6936,1.0533,1.4166,-0.5256,-0.2159,-0.2787,-43.95,7.725,-5.325,0.020000000000000018,1.896648994938178,2.516857506056143,forward_fall
2.066616,-1.5538,1.7155,1.5145,-0.5256,-0.2159,-0.2787,-43.95,7.725,-5.325,0.019999999999999574,2.7660341538021544,2.8935454305956227,forward_fall
2.086616,-2.9765,2.5916,2.0945,-0.5256,-0.2159,-0.2787,-43.8,7.275,-4.05,0.020000000000000018,4.467983108741572,3.1400080830923267,forward_fall
2.106616,-3.4113,2.3027,0.9202,-0.4794,-0.58815,-0.26635,-43.8,7.275,-4.05,0.020000000000000018,4.2173644637379875,3.204091849127492,forward_fall
2.126616,-2.0128,0.6961,0.7019,-0.4332,-0.9604,-0.254,-43.8,7.275,-4.05,0.020000000000000018,2.242450146603041,3.0799000105635863,forward_fall
2.146616,-0.3613,-0.8787,2.1557,-0.4332,-0.9604,-0.254,-43.8,7.275,-4.05,0.020000000000000018,2.3557788245079374,2.8090916500299103,forward_fall
2.166616,-0.2671,-0.2643,2.4073,-0.4332,-0.9604,-0.254,-44.4,6.75,-0.9,0.020000000000000018,2.436450325781341,2.464355253892451,forward_fall
2.186616,-0.6837,1.2264,1.2825,-0.6615,-0.6524,0.119,-44.4,6.75,-0.9,0.020000000000000018,1.9016595121104094,2.125252776778608,forward_fall
2.206616,-0.3819,2.1402,-1.2451,-0.6615,-0.6524,0.119,-44.4,6.75,-0.9,0.020000000000000018,2.5053098930072504,1.8574036672828313,forward_fall
2.226616,0.1675,0.7746,0.0848,-0.6615,-0.6524,0.119,-43.725,6.375,0.45,0.020000000000000018,0.7970272580031376,1.7007076069548364,forward_fall
2.246616,0.5338,-0.3345,1.9588,-1.1062,-0.0276,0.0403,-43.725,6.375,0.45,0.020000000000000018,2.0576030059270423,1.6671231545737446,forward_fall
2.266616,0.3384,-0.4301,1.8768,-1.1062,-0.0276,0.0403,-43.725,6.375,0.45,0.020000000000000018,1.9549626108956664,1.7459293574204666,forward_fall
2.286616,-0.34335,0.16575,1.91135,-1.1062,-0.0276,0.0403,-43.725,6.375,0.45,0.020000000000000018,1.9490051584077452,1.913134306715748,forward_fall
2.306616,-1.0539,0.99685,1.8148,-1.1062,-0.0276,0.0403,-44.325,6.45,1.35,0.020000000000000018,2.3233411657567644,2.1409980624579563,forward_fall
2.326616,-1.164,1.4646,0.9302,-1.3897,0.1629,-0.0162,-44.325,6.45,1.35,0.020000000000000018,2.089311178355201,2.4044779242318186,forward_fall
2.346616,-0.8468,1.6345,1.559,-1.3897,0.1629,-0.0162,-44.325,6.45,1.35,0.020000000000000018,2.4122896778786744,2.683896361401013,forward_fall
2.366616,-0.2941,1.598,2.936,-1.3897,0.1629,-0.0162,-43.95,6.3,0.45,0.020000000000000018,3.355621374648815,2.96534376031325,forward_fall
2.386616,-0.12915,1.7767,3.01255,-1.6026,-0.0425,0.0017,-43.95,6.3,0.45,0.020000000000000018,3.4998285836594913,3.2404465910040208,forward_fall
2.406616,-0.298,1.9835,2.6602,-1.6026,-0.0425,0.0017,-43.95,6.3,0.45,0.020000000000000018,3.3316272735706796,3.505772721750258,forward_fall
2.426616,-0.9204,1.5473,2.8083,-1.6026,-0.0425,0.0017,-43.95,6.3,0.45,0.020000000000000018,3.335839075854829,3.7616878527692013,forward_fall
2.446616,-0.2091,1.4185,3.3524,-1.6026,-0.0425,0.0017,-43.725,6.225,0.3,0.020000000000000018,3.6461556220216385,4.011774047600774,forward_fall
2.466616,-0.9594,1.1182,4.387,-1.7542,-0.0667,0.0447,-43.725,6.225,0.3,0.020000000000000018,4.627806024456945,4.264631000829304,forward_fall
2.486616,0.4209,0.837,5.5295,-1.7542,-0.0667,0.0447,-43.725,6.225,0.3,0.020000000000000018,5.608305988442499,4.537527526450544,forward_fall
2.506616,0.3101,1.2606,4.7325,-1.7542,-0.0667,0.0447,-44.025,6.675,1.8,0.020000000000000018,4.907324181262126,4.8575808650498855,forward_fall
2.526616,-0.0799,0.4918,4.1927,-2.0024,-0.0848,0.056,-44.025,6.675,1.8,0.020000000000000018,4.222201385533381,5.2558775727031675,forward_fall
2.546616,-0.4081,-0.2366,5.5819,-2.0024,-0.0848,0.056,-44.025,6.675,1.8,0.020000000000000018,5.601797281230374,5.755405331735827,forward_fall
2.566616,-1.25975,-0.8367,5.4083,-2.0024,-0.0848,0.056,-44.025,6.675,1.8,0.019999999999999574,5.6157587058651295,6.360157592682922,forward_fall
2.586616,-1.6081,-1.317,7.73985,-2.0024,-0.0848,0.056,-43.5,6.825,2.25,0.020000000000000018,8.014097118983521,7.053148147428484,forward_fall
2.606616,1.5443,-0.9896,8.2957,-2.232,-0.4875,0.013,-43.5,6.825,2.25,0.020000000000000018,8.496046677131664,7.803999323106679,forward_fall
2.626616,1.9001,1.6687,7.9601,-2.232,-0.4875,0.013,-43.5,6.825,2.25,0.020000000000000018,8.35213336280019,8.57851708205982,forward_fall
2.646616,-0.8955,1.37,10.528,-2.232,-0.4875,0.013,-43.65,6.825,5.175,0.020000000000000018,10.654464052687024,9.340780852144414,forward_fall
2.666616,1.7548,3.9986,7.7699,-1.5855,-0.0024,0.0964,-43.65,6.825,5.175,0.020000000000000018,8.912882306526885,10.044952173206658,forward_fall
2.686616,-0.43215,4.96465,8.359,-1.5855,-0.0024,0.0964,-43.65,6.825,5.175,0.020000000000000018,9.73177189647394,10.625362784627725,forward_fall
2.706616,-1.0238,3.8539,3.763,-1.5855,-0.0024,0.0964,-43.65,6.825,5.175,0.020000000000000018,5.482780375867704,11.002316304781342,forward_fall
2.726616,-2.6948,4.7778,-13.6523,-1.21265,0.13335,0.13775,-43.05,6.375,4.875,0.020000000000000018,14.713076332636899,11.118192378504675,forward_fall
2.746616,-12.739,-0.8998,-11.3239,-0.8398,0.2691,0.1791,-43.05,6.375,4.875,0.020000000000000018,17.068171321204858,10.997108637544532,forward_fall
2.766616,2.9329,6.6238,-8.3509,-0.8398,0.2691,0.1791,-43.05,6.375,4.875,0.020000000000000018,11.05505131874113,10.790981333917369,forward_fall
2.786616,10.0394,1.5811,-3.4635,-0.8398,0.2691,0.1791,-43.125,7.575,5.475,0.020000000000000018,10.737097457879388,10.76454869421359,forward_fall
2.806616,0.7476,6.3764,-1.9542,1.3527,-2.1987,0.1732,-43.125,7.575,5.475,0.020000000000000018,6.710907566044998,11.202646954669879,forward_fall
2.826616,1.7724,1.2019,-7.4499,1.3527,-2.1987,0.1732,-43.125,7.575,5.475,0.020000000000000018,7.751578895941137,12.276219948806718,forward_fall
2.846616,10.9444,-3.4086,-15.8407,1.3527,-2.1987,0.1732,-43.125,7.575,5.475,0.020000000000000018,19.553163984634303,13.934724242933624,forward_fall
2.866616,4.1631,-0.7785,-17.5395,0.899,0.2999,-0.0857,-41.1,8.325,9.15,0.020000000000000018,18.043600641501683,15.877375558269827,forward_fall
2.886616,-2.2118,2.4644,-10.4465,0.899,0.2999,-0.0857,-41.1,8.325,9.15,0.020000000000000018,10.958772232782284,17.614081995949448,forward_fall
2.906616,-6.3494,2.6647,-10.4823,0.899,0.2999,-0.0857,-41.1,8.325,9.15,0.020000000000000018,12.541695249845613,18.59710726196604,forward_fall
2.926616,-7.4702,19.87655,-18.6693,0.899,0.2999,-0.0857,-39.75,8.25,7.2,0.020000000000000018,28.274085138736144,18.39362400885234,forward_fall
2.946616,-4.5256,0.9308,-27.0797,-0.2845,2.0228,-0.7758,-39.75,8.25,7.2,0.020000000000000018,27.471031944395534,16.85118610331079,forward_fall
2.966616,2.6094,5.1085,-7.56,-0.2845,2.0228,-0.7758,-39.75,8.25,7.2,0.020000000000000018,9.48995998990512,14.182574434290245,forward_fall
2.986616,-1.9395,-3.6785,-2.2726,-0.2845,2.0228,-0.7758,-39.75,8.25,7.2,0.020000000000000018,4.7389590903488505,10.910035799835459,forward_fall
3.006616,-5.2817,-3.8268,-0.0052,-3.1202,0.8682,-0.9305,-40.95,6.375,3.45,0.020000000000000018,6.522329351543051,7.6821954332844955,forward_fall
3.026616,-3.1144,-0.9854,-1.8416,-3.1202,0.8682,-0.9305,-40.95,6.375,3.45,0.020000000000000018,3.7499321433860637,5.053591441935491,forward_fall
3.046616,1.6446,2.6083,-2.01565,-3.1202,0.8682,-0.9305,-40.95,6.375,3.45,0.020000000000000018,3.683854363638715,3.32890830314474,forward_fall
3.066616,1.5054,2.7808,-1.4744,-3.1202,0.8682,-0.9305,-40.425,3.3,1.35,0.019999999999999574,3.4889730810082216,2.5226157354453016,forward_fall
3.086616,1.7252,2.7068,-1.8524,-0.1955,0.6295,-0.5641,-40.425,3.3,1.35,0.020000000000000018,3.7060041878011956,2.421748090783134,forward_fall
3.106616,1.2112,2.893,-2.0112,-0.1955,0.6295,-0.5641,-40.425,3.3,1.35,0.020000000000000018,3.7257723870360087,2.703327004875682,forward_fall
3.126616,0.9166,2.199,-0.7673,-0.1955,0.6295,-0.5641,-40.2375,3.0,0.675,0.020000000000000018,2.5028994885931795,3.053427657657386,forward_fall
3.146616,2.3697,2.3149,-1.2967,0.1884,0.1636,-0.089,-40.05,2.7,0.0,0.020000000000000018,3.557480989408095,3.250957319145031,forward_fall
3.166616,2.7188,2.0768,-0.9811,0.1884,0.1636,-0.089,-40.05,2.7,0.0,0.020000000000000018,3.559147213870199,3.2019769017408417,forward_fall
3.186616,1.3752,1.6881,-0.8533,0.1884,0.1636,-0.089,-40.05,2.7,0.0,0.020000000000000018,2.3385845163260615,2.928909149668393,forward_fall
3.206616,0.9912,2.0499,-0.1538,0.1884,0.1636,-0.089,-39.75,1.425,-1.35,0.020000000000000018,2.2821529067965627,2.5293179488201467,forward_fall
3.226616,1.0088,1.1954,0.9502,0.2213,0.1506,0.0177,-39.75,1.425,-1.35,0.020000000000000018,1.830174483485113,2.122801339887258,forward_fall
3.246616,0.8405,0.5619,1.3682,0.2213,0.1506,0.0177,-39.75,1.425,-1.35,0.020000000000000018,1.701218122405237,1.8037854568562541,forward_fall
3.266616,0.1801,-0.057,1.1513,0.2213,0.1506,0.0177,-40.0875,1.5,-1.65,0.020000000000000018,1.1666947758518507,1.61320844298674,forward_fall
3.286616,-0.1168,-0.5051,1.277,-0.2175,0.1263,0.0492,-40.425,1.575,-1.95,0.020000000000000018,1.3782224965512644,1.5346047959213436,forward_fall
3.306616,-0.8021,-1.2038,1.7187,-0.2175,0.1263,0.0492,-40.425,1.575,-1.95,0.020000000000000018,2.246425725458111,1.5120124152371441,forward_fall
3.326616,-1.5055,-1.0578,0.7959,-0.2175,0.1263,0.0492,-40.425,1.575,-1.95,0.020000000000000018,2.0047263903086625,1.4800852123220336,forward_fall
3.346616,-1.2643,-0.6362,-0.2189,-0.2175,0.1263,0.0492,-40.65,1.65,-1.95,0.020000000000000018,1.4321739210026134,1.392933616661905,forward_fall
3.366616,-0.7838,-0.5391,-0.7172,-0.0751,-0.111,0.0809,-40.65,1.65,-1.95,0.020000000000000018,1.1913635423329019,1.2400009319142613,forward_fall
3.386616,-0.62695,-0.5869,-0.26005,-0.0751,-0.111,0.0809,-40.65,1.65,-1.95,0.020000000000000018,0.8972981193561034,1.0444618992900085,forward_fall
3.406616,-0.2782,-0.4226,0.2892,-0.0751,-0.111,0.0809,-40.5,2.475,-2.1,0.020000000000000018,0.5827715161193107,0.8480513190629246,forward_fall
3.426616,-0.0315,-0.1594,-0.2371,-0.086,-0.288,0.0935,-40.5,2.475,-2.1,0.020000000000000018,0.2874317658158193,0.6912965422272753,forward_fall
3.446616,-0.059,-0.0017,-0.6878,-0.086,-0.288,0.0935,-40.5,2.475,-2.1,0.020000000000000018,0.690327987264025,0.5981755923648854,forward_fall
3.466616,-0.0448,0.1294,-0.9604,-0.086,-0.288,0.0935,-40.5,2.475,-2.1,0.020000000000000018,0.970113168656111,0.5703252278056917,forward_fall
3.486616,-0.1021,0.1709,-0.5853,-0.086,-0.288,0.0935,-40.2,2.025,-1.05,0.020000000000000018,0.6182291727183375,0.5905503492574442,forward_fall
3.506616,-0.1083,0.2639,-0.3124,-0.0692,-0.0825,-0.0185,-40.2,2.025,-1.05,0.020000000000000018,0.4230435674963041,0.6315851774878664,forward_fall
3.526616,0.0433,0.4391,-0.3671,-0.0692,-0.0825,-0.0185,-40.2,2.025,-1.05,0.020000000000000018,0.5739739628240988,0.6656408057238767,forward_fall
3.546616,-0.003,0.6086,-0.7612,-0.0692,-0.0825,-0.0185,-40.05,1.95,-0.15,0.020000000000000018,0.9745914015627266,0.6720809312025962,forward_fall
3.566616,0.0186,0.6619,-0.5329,-0.0023,-0.0507,-0.0469,-40.05,1.95,-0.15,0.019999999999999574,0.8499646933843782,0.6420028964562845,forward_fall
3.586616,0.0975,0.3279,0.1897,-0.0023,-0.0507,-0.0469,-40.05,1.95,-0.15,0.020000000000000018,0.391165885526844,0.5789019004910239,forward_fall
3.606616,0.0172,0.2129,0.2329,-0.0023,-0.0507,-0.0469,-40.05,1.95,-0.15,0.020000000000000018,0.3160137022345708,0.4954546348968262,forward_fall
3.626616,-0.0559,0.2218,0.0567,-0.0023,-0.0507,-0.0469,-40.125,1.875,-0.225,0.020000000000000018,0.2356585241403332,0.4083579810807993,forward_fall
3.646616,-0.0309,0.2789,0.0508,0.0098,-0.0339,-0.0339,-40.125,1.875,-0.225,0.020000000000000018,0.285167775178052,0.3344147436361879,forward_fall
3.666616,-0.2978,0.1897,0.2575,0.0098,-0.0339,-0.0339,-40.125,1.875,-0.225,0.020000000000000018,0.4370093591675126,0.2899510008886515,forward_fall
3.686616,-0.2195,-0.1301,0.5863,0.0098,-0.0339,-0.0339,-39.9,2.7,-0.15,0.020000000000000018,0.6394168827924392,0.2926738296445016,forward_fall
3.706616,-0.12015,-0.19205,0.46615,0.0678,-0.0663,0.0046,-39.9,2.7,-0.15,0.020000000000000018,0.5182808577402797,0.36250533656368267,forward_fall
3.726616,-0.1951,-0.0218,0.3834,0.0678,-0.0663,0.0046,-39.9,2.7,-0.15,0.020000000000000018,0.43073751868162125,0.5178883249246679,forward_fall
3.746616,0.5603,-0.1374,0.0123,0.0678,-0.0663,0.0046,-39.9,2.7,-0.15,0.020000000000000018,0.577032182811323,0.7669763241244785,forward_fall
3.766616,0.6838,-0.3814,-0.0797,0.0678,-0.0663,0.0046,-40.35,2.85,-0.45,0.020000000000000018,0.7870200060989555,1.0972614600813249,forward_fall
3.786616,0.97825,-0.35835,-0.7277,0.2112,-0.1309,0.0376,-40.35,2.85,-0.45,0.020000000000000018,1.2708009580575552,1.4697487676441923,forward_fall
3.806616,1.1075,-0.17635,-1.2582,0.2112,-0.1309,0.0376,-40.35,2.85,-0.45,0.020000000000000018,1.6854443961460135,1.8228612935015518,forward_fall
3.826616,0.9876,0.0219,-2.1344,0.2112,-0.1309,0.0376,-39.75,2.175,0.15,0.020000000000000018,2.3519134188995987,2.0870402796492127,forward_fall
3.846616,0.8785,0.1607,-2.6882,0.4587,0.1617,0.0571,-39.75,2.175,0.15,0.020000000000000018,2.8326676437591476,2.2054736591576023,forward_fall
3.866616,0.4281,0.1767,-2.3701,0.4587,0.1617,0.0571,-39.75,2.175,0.15,0.020000000000000018,2.414925777327328,2.1524719878266336,forward_fall
3.886616,-0.0978,-0.1089,-1.5475,0.4587,0.1617,0.0571,-39.75,2.175,0.15,0.020000000000000018,1.554406735703368,1.9413825549789239,forward_fall
3.906616,-0.2902,0.1632,-1.3559,0.4587,0.1617,0.0571,-40.2,2.55,-0.225,0.020000000000000018,1.3961787457199026,1.619014680113838,forward_fall
3.926616,-0.4001,0.424,-1.0245,0.6298,0.2149,0.4346,-40.2,2.55,-0.225,0.020000000000000018,1.1787519925751981,1.2502427695556166,non_fall
3.946616,-0.40095,0.6561,-0.3553,0.6298,0.2149,0.4346,-40.2,2.55,-0.225,0.020000000000000018,0.8470337670364742,0.9002362422925377,non_fall
3.966616,-0.3742,0.304,0.216,0.6298,0.2149,0.4346,-39.9,3.675,-0.9,0.020000000000000018,0.5282969240872031,0.6208104067165153,non_fall
3.986616,-0.1332,0.2362,0.7004,0.6984,-0.1642,0.5345,-39.9,3.675,-0.9,0.020000000000000018,0.7510611426508498,0.4436723599192274,non_fall
4.006616,-0.2782,-0.064,-0.0795,0.6984,-0.1642,0.5345,-39.9,3.675,-0.9,0.020000000000000018,0.2963300356021981,0.37983239167619565,non_fall
4.026616,0.3073,0.2492,0.0208,0.6984,-0.1642,0.5345,-39.9,3.675,-0.9,0.019999999999999574,0.3961900680229125,0.4227390195088034,non_fall
4.046616,0.43625,-0.123,0.3962,0.6984,-0.1642,0.5345,-41.025,4.575,-0.75,0.020000000000000462,0.602011214596539,0.5528279379134498,non_fall
4.066616,-0.2804,-0.3017,-0.2624,0.8051,-0.3231,0.5339,-41.025,4.575,-0.75,0.019999999999999574,0.4883654471806948,0.7422428411610186,non_fall
4.086616,-0.1748,-0.2467,-1.4062,0.8051,-0.3231,0.5339,-41.025,4.575,-0.75,0.020000000000000462,1.4383373630689011,0.9592917595558317,non_fall
4.106616,0.1907,0.1246,-1.0798,0.8051,-0.3231,0.5339,-41.325,6.3,-0.15,0.019999999999999574,1.1035668035964112,1.172286330938962,non_fall
4.126616,0.3304,-0.0022,-0.8722,0.8228,-0.3001,0.498,-41.325,6.3,-0.15,0.020000000000000462,0.9326852845413612,1.3524371414388578,non_fall
4.146616,-0.31925,-0.1829,-1.50695,0.8228,-0.3001,0.498,-41.325,6.3,-0.15,0.019999999999999574,1.551216063287123,1.476147482239165,non_fall
4.166616,-0.6768,0.36775,-1.25295,0.8228,-0.3001,0.498,-41.325,6.3,-0.15,0.020000000000000462,1.4707759873617736,1.5276977626334007,non_fall
4.186616,-1.43915,0.24595,-1.4641,0.6739,-0.4076,0.3977,-41.25,7.725,0.0,0.019999999999999574,2.067663641649676,1.5025801177983855,non_fall
4.206616,-0.6676,0.2267,-0.9886,0.6739,-0.4076,0.3977,-41.25,7.725,0.0,0.020000000000000462,1.2142539314327954,1.409933558207311,non_fall
4.226616,0.0923,0.7274,-0.8841,0.6739,-0.4076,0.3977,-41.25,7.725,0.0,0.019999999999999574,1.148591685500117,1.2718422184636677,non_fall
4.246616,0.2017,0.591,-0.4328,0.6739,-0.4076,0.3977,-40.95,9.0,0.975,0.020000000000000462,0.7597892668365354,1.118867830660655,non_fall
4.266616,-1.1284,0.4757,-0.9207,0.5487,-0.6849,0.445,-40.95,9.0,0.975,0.019999999999999574,1.5320788295645886,0.9834161493527411,non_fall
4.286616,-0.876,-0.25425,-0.4787,0.5487,-0.6849,0.445,-40.95,9.0,0.975,0.020000000000000462,1.0301323956171846,0.8930365948975978,non_fall
4.306616,-0.3675,-0.1274,0.1856,0.5487,-0.6849,0.445,-40.95,9.0,0.975,0.019999999999999574,0.430969105621273,0.8647531228105452,non_fall
4.326616,0.0805,0.5768,0.0203,0.5487,-0.6849,0.445,-40.725,10.2,2.775,0.019999999999999574,0.5827440089782133,0.9012470905471153,non_fall
4.346616,0.7361,0.0319,-0.8589,0.489,-0.8601,0.4835,-40.725,10.2,2.775,0.020000000000000462,1.1316227419065066,0.9905613595867402,non_fall
4.366616,0.1224,-0.3087,-1.1182,0.489,-0.8601,0.4835,-40.725,10.2,2.775,0.019999999999999574,1.1664684693552587,1.1106370679254236,non_fall
4.386616,-1.6092,-0.3492,-1.2777,0.489,-0.8601,0.4835,-40.65,11.4,4.575,0.020000000000000462,2.0842222938064934,1.2372056324956193,non_fall
4.406616,-0.251,0.62555,-0.5065,0.6495,-0.8428,0.3218,-40.65,11.4,4.575,0.019999999999999574,0.8431227979956419,1.3507607345386934,non_fall
4.426616,0.9421,-0.0624,1.0235,0.6495,-0.8428,0.3218,-40.65,11.4,4.575,0.020000000000000462,1.3924792350336863,1.4388551364439277,non_fall
4.446616,0.9459,-0.0713,0.4989,0.6495,-0.8428,0.3218,-40.65,11.4,4.575,0.019999999999999574,1.0717796928473686,1.4938598322909495,non_fall
4.466616,0.9025,0.8058,-1.3048,0.6191,-0.5937,0.2538,-40.65,12.45,6.3,0.020000000000000462,1.7794164577186533,1.5100416102216188,non_fall
4.486616,0.016,0.2948,-1.2027,0.6191,-0.5937,0.2538,-40.65,12.45,6.3,0.019999999999999574,1.2384063670701957,1.4840300035202194,non_fall
4.506616,1.1534,-0.1601,-0.1492,0.6191,-0.5937,0.2538,-40.65,12.45,6.3,0.020000000000000462,1.1739779427229458,1.4196197010239209,non_fall
4.526616,2.1863,-0.0092,-0.1738,0.6191,-0.5937,0.2538,-39.825,13.875,7.65,0.019999999999999574,2.1932165351373767,1.3339082196902177,non_fall
4.546616,2.2419,0.4274,-0.3486,0.2498,0.3392,0.1416,-39.825,13.875,7.65,0.020000000000000462,2.308746051431382,1.2590907677505065,non_fall
4.566616,0.4113,0.0802,0.3353,0.2498,0.3392,0.1416,-39.825,13.875,7.65,0.019999999999999574,0.5366803704254517,1.234623517288913,non_fall
4.586616,0.0801,0.0502,-0.001,0.2498,0.3392,0.1416,-39.825,13.875,7.65,0.020000000000000462,0.09453597198950249,1.2898099807745969,non_fall
4.606616,-0.3586,0.3599,0.4717,0.1275,1.4211,0.0047,-40.125,14.1,6.075,0.019999999999999574,0.69326968778391,1.4254088045344244,non_fall
4.626616,-0.9919,0.345,1.89695,0.1275,1.4211,0.0047,-40.125,14.1,6.075,0.020000000000000462,2.1682504266112805,1.607142537757522,non_fall
4.646616,-1.1172,1.1674,2.0649,0.1275,1.4211,0.0047,-40.125,14.1,6.075,0.019999999999999574,2.6219783771038236,1.7778614224961116,non_fall
4.666616,-0.8613,1.0045,2.0191,0.1275,1.4211,0.0047,-40.65,14.475,2.25,0.020000000000000462,2.414046965160371,1.8823682032482483,non_fall
4.686616,-0.4816,0.5651,1.494,0.12,1.1621,0.0081,-40.65,14.475,2.25,0.019999999999999574,1.6683262780403598,1.890465255004484,non_fall
4.706616,-0.768,0.3178,1.2055,0.12,1.1621,0.0081,-40.65,14.475,2.25,0.020000000000000462,1.4642578632194536,1.8062578753136451,non_fall
4.726616,-0.7201,0.2384,1.3306,0.12,1.1621,0.0081,-41.025,14.55,-1.5,0.019999999999999574,1.531624931241327,1.6615379481648582,non_fall
4.746616,-0.3292,0.8152,1.2561,-0.1862,0.8275,-0.0316,-41.025,14.55,-1.5,0.020000000000000462,1.5332028208948745,1.4996073040831743,non_fall
4.766616,-0.5251,0.9675,0.8943,-0.1862,0.8275,-0.0316,-41.025,14.55,-1.5,0.019999999999999574,1.4182943100781304,1.3582315705343748,non_fall
4.786616,-0.482,0.5777,0.3647,-0.1862,0.8275,-0.0316,-41.025,14.55,-1.5,0.020000000000000462,0.836102493717128,1.257925736373224,non_fall
4.806616,-0.387,1.59895,-0.2437,-0.1862,0.8275,-0.0316,-40.5,13.8,-3.75,0.019999999999999574,1.6630693889612667,1.1982776853001353,non_fall
4.826616,0.3266,0.1807,-0.3239,-0.3902,0.6385,-0.1315,-40.5,13.8,-3.75,0.019999999999999574,0.49419759206212244,1.1624426672836705,non_fall
4.846616,1.49625,-0.30555,-0.11615,-0.3902,0.6385,-0.1315,-40.5,13.8,-3.75,0.020000000000000462,1.5315402990127291,1.1279869365696629,non_fall
4.866616,0.1156,0.7636,-0.8877,-0.3902,0.6385,-0.1315,-40.425,14.025,-5.025,0.019999999999999574,1.176630617483669,1.0803159450757622,non_fall
4.886616,-1.67355,0.4913,-0.0983,-0.7588,0.6803,-0.1403,-40.425,14.025,-5.025,0.020000000000000462,1.7469425240974588,1.0232313967263125,non_fall
4.906616,-0.871,0.0078,-0.1293,-0.7588,0.6803,-0.1403,-40.425,14.025,-5.025,0.019999999999999574,0.8805795421198473,0.9810323631818781,non_fall
4.926616,-0.5056,0.0258,-0.2208,-0.7588,0.6803,-0.1403,-40.425,14.025,-5.025,0.020000000000000462,0.552312990975226,0.9896115698087651,non_fall
4.946616,-0.6457,-0.0198,0.0236,-0.7588,0.6803,-0.1403,-41.1,14.475,-5.625,0.019999999999999574,0.6464344436986631,1.0798048717939914,non_fall
4.966616,0.6407,0.3887,0.8575,-0.8337,0.0009,-0.2373,-41.1,14.475,-5.625,0.020000000000000462,1.1388109720230133,1.2612436892952408,non_fall
4.986616,1.1266,0.8496,-0.6278,-0.8337,0.0009,-0.2373,-41.1,14.475,-5.625,0.019999999999999574,1.5444029785001063,1.5151037746796796,non_fall
5.006616,0.7579,1.2289,-2.0616,-0.8337,0.0009,-0.2373,-40.95,14.025,-5.925,0.020000000000000462,2.5169032917456327,1.799087389910482,non_fall
5.026616,0.04,0.9251,-1.1218,-1.0432,-0.2882,-0.467,-40.95,14.025,-5.925,0.019999999999999574,1.4545945311323014,2.061567609174245,non_fall
5.046616,1.5171,1.223,-1.092,-1.0432,-0.2882,-0.467,-40.95,14.025,-5.925,0.020000000000000462,2.2337827580138585,2.2583784997916094,non_fall
5.066616,1.8693,1.8181,-2.0053,-1.0432,-0.2882,-0.467,-40.95,14.025,-5.925,0.019999999999999574,3.2895285665274288,2.366147607869102,non_fall
5.086616,0.9147,1.5132,-0.737,-1.0432,-0.2882,-0.467,-41.85,13.125,-2.85,0.020000000000000462,1.9156250494290368,2.3881108356519163,non_fall
5.106616,0.4788,1.6381,-1.9347,-1.2993,-0.1646,-0.5605,-41.85,13.125,-2.85,0.019999999999999574,2.579861457520539,2.3505459609134114,non_fall
5.126616,-0.8201,1.6907,0.455,-1.2993,-0.1646,-0.5605,-41.85,13.125,-2.85,0.020000000000000462,1.933405156711857,2.2909375695896137,non_fall
5.146616,-0.4589,1.1772,1.5919,-1.2993,-0.1646,-0.5605,-42.0,11.4,-1.65,0.019999999999999574,2.0323716835264163,2.2425069661562733,non_fall
5.166616,-0.3011,1.6093,1.618,-1.0546,-0.097,-0.4534,-42.0,11.4,-1.65,0.020000000000000462,2.301832248449048,2.221571014638388,non_fall
5.186616,-0.7212,1.2445,1.3329,-1.0546,-0.097,-0.4534,-42.0,11.4,-1.65,0.019999999999999574,1.961002830186637,2.2228694395062223,non_fall
5.206616,-0.2667,1.7545,1.5624,-1.0546,-0.097,-0.4534,-42.0,11.4,-1.65,0.020000000000000462,2.3644223184532835,2.224406196542115,non_fall
5.226616,-0.3021,0.1854,2.3376,-1.0546,-0.097,-0.4534,-42.6,10.05,-1.05,0.019999999999999574,2.3643204795458677,2.1993681490776873,non_fall
5.246616,-1.5912,-0.532,2.00915,-0.5333,-0.5737,-0.4401,-42.6,10.05,-1.05,0.020000000000000462,2.617560918584322,2.1297954557795866,non_fall
5.266616,-1.6828,0.1828,0.2771,-0.5333,-0.5737,-0.4401,-42.6,10.05,-1.05,0.019999999999999574,1.7152306229775636,2.0159125340756194,non_fall
5.286616,-1.5245,1.3385,0.0951,-0.5333,-0.5737,-0.4401,-42.525,9.45,1.2,0.020000000000000462,2.030942271459236,1.876974473245418,non_fall
5.306616,-1.7972,0.6115,-0.3857,-0.1715,-1.0661,-0.4988,-42.525,9.45,1.2,0.019999999999999574,1.9371692182150737,1.743476972401012,non_fall
5.326616,-0.1439,-0.5565,-0.0244,-0.1715,-1.0661,-0.4988,-42.525,9.45,1.2,0.019999999999999574,0.5753214927325416,1.6446235838160332,non_fall
5.346616,1.5052,-1.5671,0.5175,-0.1715,-1.0661,-0.4988,-42.525,9.45,1.2,0.020000000000000462,2.2336597099827,1.5971192596812256,non_fall
5.366616,0.2142,-0.7479,0.5354,-0.1715,-1.0661,-0.4988,-43.65,8.025,5.175,0.019999999999999574,0.9443988617104534,1.6006774858616952,non_fall
5.386616,-2.2424,0.0976,-0.1266,-0.4151,-1.7092,-0.4592,-43.65,8.025,5.175,0.020000000000000462,2.2480905408813054,1.6421140314057516,non_fall
5.406616,-2.04755,-0.69035,-0.71595,-0.4151,-1.7092,-0.4592,-43.65,8.025,5.175,0.019999999999999574,2.2763190741853396,1.705163103150634,non_fall
5.426616,-1.0785,-0.3533,-0.8012,-0.4151,-1.7092,-0.4592,-43.35,6.525,10.35,0.020000000000000462,1.389210056111026,1.7801606571655477,non_fall
5.446616,-0.4466,0.9927,-0.742,-0.1472,-1.6429,-0.3291,-43.35,6.525,10.35,0.019999999999999574,1.3173719482363362,1.868678989876408,non_fall
5.466616,1.4233,-2.1338,-0.4071,-0.1472,-1.6429,-0.3291,-43.35,6.525,10.35,0.020000000000000462,2.5970398033145354,1.982136776495447,non_fall
5.486616,1.2778,-0.8961,-0.6853,-0.1472,-1.6429,-0.3291,-43.35,6.525,10.35,0.019999999999999574,1.70452460821192,2.136660893054742,non_fall
5.506616,-0.3553,-1.55,-2.3341,0.0349,-1.7022,-0.46705,-41.25,5.625,15.675,0.020000000000000462,2.8243160056905814,2.3465173322402224,non_fall
5.526616,0.4404,-1.343,-2.3631,0.217,-1.7615,-0.605,-41.25,5.625,15.675,0.019999999999999574,2.753514621352137,2.616723708852196,non_fall
5.546616,1.6138,-1.89565,-1.05685,0.217,-1.7615,-0.605,-41.25,5.625,15.675,0.020000000000000462,2.7045833847378415,2.9350227054831515,non_fall
5.566616,2.9992,-1.3744,0.1575,0.217,-1.7615,-0.605,-40.05,4.35,20.7,0.019999999999999574,3.302874846251368,3.265218210438358,non_fall
5.586616,1.90475,-1.20645,-0.14555,0.5884,-0.4994,-0.4774,-40.05,4.35,20.7,0.020000000000000462,2.2593757915627934,3.5465394853798173,non_fall
5.606616,-0.0718,-3.1036,0.356,0.5884,-0.4994,-0.4774,-40.05,4.35,20.7,0.019999999999999574,3.124775863962086,3.704413521239751,non_fall
5.626616,-1.9905,-5.0988,0.2592,0.5884,-0.4994,-0.4774,-40.05,4.35,20.7,0.020000000000000462,5.479693087208443,3.6738026435275386,non_fall
5.646616,-2.1249,-4.8599,0.0453,0.69005,0.4378,-0.29125,-39.525,4.05,21.9,0.019999999999999574,5.304326546320465,3.4271317350538584,non_fall
5.666616,-0.2984,-1.54,-0.4547,0.7917,1.375,-0.1051,-39.525,4.05,21.9,0.020000000000000462,1.633216045108546,2.9913918032867977,non_fall
5.686616,0.5965,-1.0219,-0.5534,0.7917,1.375,-0.1051,-39.525,4.05,21.9,0.019999999999999574,1.3062708065328568,2.4424610139672858,non_fall
5.706616,1.085,-2.0584,0.0676,0.7917,1.375,-0.1051,-41.25,5.175,17.55,0.020000000000000462,2.3278327517242294,1.8788560695461878,non_fall
5.726616,0.4799,-1.1276,0.0208,1.7079,0.6947,-0.1895,-41.25,5.175,17.55,0.019999999999999574,1.2256501988740507,1.3894929017218254,non_fall
5.746616,-0.5481,-0.36,0.6542,1.7079,0.6947,-0.1895,-41.25,5.175,17.55,0.020000000000000462,0.9262781709616178,1.0303059952271822,non_fall
5.766616,-0.78235,0.16335,0.37535,1.7079,0.6947,-0.1895,-41.25,5.175,17.55,0.019999999999999574,0.8829735938860233,0.816132157180319,non_fall
5.786616,-0.5757,-0.0477,0.7723,1.7038,0.6998,-0.2916,-42.0,6.3,14.55,0.020000000000000462,0.9644444359318995,0.7263874401775996,non_fall
5.806616,-0.2962,-0.27295,0.37115,1.6997,0.7049,-0.3937,-42.0,6.3,14.55,0.019999999999999574,0.5477120274377768,0.7194937671093395,non_fall
5.826616,-0.4281,0.2712,0.4359,1.6997,0.7049,-0.3937,-42.0,6.3,14.55,0.019999999999999574,0.6684518382052667,0.7503568787940784,non_fall
5.846616,-0.5948,0.9364,0.0616,1.6997,0.7049,-0.3937,-43.05,5.775,12.6,0.020000000000000462,1.1110475057350158,0.7857951608877363,non_fall
5.866616,-0.4014,1.2381,-0.2293,1.7747,0.4543,-0.3694,-43.05,5.775,12.6,0.019999999999999574,1.3215869475747708,0.8137718282312463,non_fall
5.886616,0.1621,0.5662,-0.0186,1.7747,0.4543,-0.3694,-43.05,5.775,12.6,0.020000000000000462,0.5892408760430661,0.8435622102503031,non_fall
5.906616,0.5085,0.0611,-0.1103,1.7747,0.4543,-0.3694,-43.05,5.775,12.6,0.019999999999999574,0.5239003244893058,0.8966374188596175,non_fall
5.926616,-0.23235,0.7172,-0.5662,1.7747,0.4543,-0.3694,-43.05,6.225,11.1,0.020000000000000462,0.9428386937859519,0.9921386104273442,non_fall
5.946616,0.19895,0.45785,-0.69095,1.7583,0.3444,-0.4065,-43.05,6.225,11.1,0.019999999999999574,0.8524198657351904,1.133856089622081,non_fall
5.966616,0.85,-0.4632,-0.969,1.7583,0.3444,-0.4065,-43.05,6.225,11.1,0.020000000000000462,1.3696770568276304,1.3049550112803012,non_fall
5.986616,1.021,-0.7057,-1.264,1.7583,0.3444,-0.4065,-43.05,6.6,9.15,0.019999999999999574,1.7714822861095734,1.4726219218634051,non_fall
6.006616,0.4656,-0.6286,-1.2519,1.8996,0.3766,-0.5278,-43.05,6.6,9.15,0.020000000000000462,1.4762028756238081,1.6000913951193323,non_fall
6.026616,-0.4378,-0.7119,-1.6671,1.8996,0.3766,-0.5278,-43.05,6.6,9.15,0.019999999999999574,1.864857329663586,1.6606859564694345,non_fall
6.046616,-0.0081,-0.2517,-1.7615,1.8996,0.3766,-0.5278,-43.5,5.775,7.275,0.020000000000000462,1.779410225327482,1.648403316666783,non_fall
6.066616,-0.0045,-0.5571,-1.4867,1.8996,0.3766,-0.5278,-43.5,5.775,7.275,0.019999999999999574,1.5876578819128508,1.5814995421599949,non_fall
6.086616,-0.0815,-0.7688,-1.1005,2.2519,0.1738,-0.6185,-43.5,5.775,7.275,0.020000000000000462,1.344914844887958,1.4982642212073956,non_fall
6.106616,0.0391,-0.7669,-0.8434,2.2519,0.1738,-0.6185,-43.5,5.775,7.275,0.019999999999999574,1.1406086007040277,1.446853382335588,non_fall
6.126616,0.1884,-0.8578,-1.5438,2.2519,0.1738,-0.6185,-44.25,4.65,5.55,0.020000000000000462,1.776128891719292,1.472688477888138,non_fall
6.146616,-0.7803,-0.2282,-1.4536,2.8461,-0.2498,-0.5818,-44.25,4.65,5.55,0.019999999999999574,1.6655018132683013,1.6067004301130676,non_fall
6.166616,0.5184,0.8895,-2.0488,2.8461,-0.2498,-0.5818,-44.25,4.65,5.55,0.020000000000000462,2.292930493931292,1.8561205778357102,non_fall
6.186616,1.081,0.9412,0.026,2.8461,-0.2498,-0.5818,-44.25,4.65,5.55,0.019999999999999574,1.4335600580373324,2.198640192863574,non_fall
6.206616,1.1324,1.36395,0.97145,2.7652,-0.5632,-0.398,-45.15,3.375,5.85,0.020000000000000462,2.0214857073449717,2.5818337615407567,non_fall
6.226616,1.2488,2.8276,1.506,2.7652,-0.5632,-0.398,-45.15,3.375,5.85,0.019999999999999574,3.438438482800005,2.931004241608875,non_fall
6.246616,0.7514,3.1824,0.3793,2.7652,-0.5632,-0.398,-45.15,3.375,5.85,0.020000000000000462,3.2918293105809724,3.166833063389135,non_fall
6.266616,0.2299,3.15625,0.36535,2.7652,-0.5632,-0.398,-44.25,3.675,6.75,0.019999999999999574,3.1856316006406016,3.2291615315818465,non_fall
6.286616,0.02635,3.50605,-0.17735,1.8567,-0.4861,-0.2153,-44.25,3.675,6.75,0.020000000000000462,3.5106315596342488,3.098716643404417,non_fall
6.306616,0.4143,2.4785,1.8638,1.8567,-0.4861,-0.2153,-44.25,3.675,6.75,0.019999999999999574,3.128635034643702,2.808067175228466,non_fall
6.326616,0.0611,2.2463,1.3435,1.8567,-0.4861,-0.2153,-44.1,3.75,7.3125,0.019999999999999574,2.6181270309135116,2.4364593708193727,non_fall
6.346616,-0.0382,1.4389,0.6808,0.7907,-0.1974,-0.0713,-43.95,3.825,7.875,0.020000000000000462,1.5922880047277879,2.0887697500066134,non_fall
6.366616,-0.6088,0.6559,0.8233,-0.2753,0.0913,0.0727,-43.95,3.825,7.875,0.019999999999999574,1.2160037582178767,1.8651188378581807,non_fall
6.386616,-0.2823,-0.7228,1.3782,-0.2753,0.0913,0.0727,-43.95,3.825,7.875,0.020000000000000462,1.581634714464753,1.8321472166400836,non_fall
6.406616,0.6945,-2.105,1.3789,-0.2753,0.0913,0.0727,-43.725,3.75,8.1,0.019999999999999574,2.6105019555633358,2.0062981542911897,non_fall
6.426616,0.945,-2.2171,0.7843,-1.3909,-0.0079,0.0735,-43.725,3.75,8.1,0.020000000000000462,2.5344987472871234,2.353279922412601,non_fall
6.446616,0.45245,-2.2378,1.3574,-1.3909,-0.0079,0.0735,-43.725,3.75,8.1,0.019999999999999574,2.6561239810106754,2.8004584653229014,non_fall
6.466616,-0.0126,-2.869,1.1415,-1.3909,-0.0079,0.0735,-44.1375,3.9375,8.175,0.020000000000000462,3.0877729855026588,3.255471191890126,non_fall
6.486616,-0.7033,-3.4851,0.9718,-1.3915,0.2772,-0.0197,-44.55,4.125,8.25,0.019999999999999574,3.685776463650502,3.6257067783428187,non_fall
6.506616,-0.625,-3.6352,0.8787,-1.3915,0.2772,-0.0197,-44.55,4.125,8.25,0.020000000000000462,3.7917565494108403,3.835909659360594,non_fall
6.526616,0.095,-4.0064,1.306,-1.3915,0.2772,-0.0197,-44.55,4.125,8.25,0.019999999999999574,4.2149616795411085,3.8419736152197284,non_fall
6.546616,0.39405,-3.60085,1.3199,-1.3915,0.2772,-0.0197,-43.8,3.9,8.85,0.020000000000000462,3.855325165923103,3.6384002711828796,non_fall
6.566616,0.46795,-2.9152,0.7786,-0.9389,0.3404,-0.0096,-43.8,3.9,8.85,0.019999999999999574,3.053454797847841,3.25718180976974,non_fall
6.586616,0.13675,-2.2347,0.3074,-0.9389,0.3404,-0.0096,-43.8,3.9,8.85,0.020000000000000462,2.25988482283943,2.7582329526112797,non_fall
6.606616,0.0345,-2.4192,0.256,-0.9389,0.3404,-0.0096,-44.85,3.15,7.95,0.019999999999999574,2.4329518881391796,2.214723563957469,non_fall
6.626616,0.0307,-1.89,0.64015,-0.2488,0.3796,0.0593,-44.85,3.15,7.95,0.020000000000000462,1.9957040142516123,1.6981030402004504,non_fall
6.646616,-0.009,-0.9919,0.3201,-0.2488,0.3796,0.0593,-44.85,3.15,7.95,0.019999999999999574,1.0423102321286115,1.2661954477239519,non_fall
6.666616,-0.0816,-0.645,0.5459,-0.2488,0.3796,0.0593,-44.85,3.15,7.95,0.020000000000000462,0.8489348443785306,0.9554776647270705,non_fall
6.686616,0.1318,-0.3194,0.6616,-0.2488,0.3796,0.0593,-44.925,3.6,7.35,0.019999999999999574,0.746392765238249,0.7778355561926692,non_fall
6.706616,0.2842,-0.2293,0.5257,0.0238,0.4458,0.082,-44.925,3.6,7.35,0.020000000000000462,0.6400848537498759,0.7223161484748374,non_fall
6.726616,-0.0411,0.7424,-0.3352,0.0238,0.4458,0.082,-44.925,3.6,7.35,0.019999999999999574,0.81560162456925,0.7618415217565702,non_fall
6.746616,-0.0089,1.0126,-0.3918,0.0238,0.4458,0.082,-45.15,3.6,5.25,0.020000000000000462,1.0857924341235758,0.8631673617365507,non_fall
6.766616,0.2528,0.9288,0.1437,0.0324,0.432,0.097,-45.15,3.6,5.25,0.019999999999999574,0.9732558605012354,0.9967650232591193,non_fall
6.786616,0.7952,1.0785,0.1498,0.0324,0.432,0.097,-45.15,3.6,5.25,0.020000000000000462,1.3483120299099909,1.1429733993560633,non_fall
6.806616,0.7486,1.2926,-0.2121,0.0324,0.432,0.097,-45.15,3.6,5.25,0.019999999999999574,1.5087090938945122,1.2920898684815212,non_fall
6.826616,0.31955,0.98425,0.0715,0.0324,0.432,0.097,-44.7,3.45,4.275,0.019999999999999574,1.0372909500231842,1.438710543254052,non_fall
6.846616,0.0509,1.06635,0.4029,-0.1161,0.4419,0.0139,-44.7,3.45,4.275,0.020000000000000462,1.1410615857612594,1.5737407265557806,non_fall
6.866616,-0.07705,1.37195,-0.0924,-0.1161,0.4419,0.0139,-44.7,3.45,4.275,0.019999999999999574,1.3772150394909286,1.6795370785937227,non_fall
6.886616,0.841,1.49505,-1.6372,-0.1161,0.4419,0.0139,-44.55,3.15,3.9,0.020000000000000462,2.371261129125175,1.7326041066579616,non_fall
6.906616,1.54395,0.96155,-0.0739,-0.2463,0.3841,0.0087,-44.55,3.15,3.9,0.019999999999999574,1.8203904018094579,1.713683439081684,non_fall
6.926616,1.5358,0.1974,1.0607,-0.2463,0.3841,0.0087,-44.55,3.15,3.9,0.020000000000000462,1.8768944802518868,1.6198383416094155,non_fall
6.946616,0.9369,0.0063,0.9426,-0.2463,0.3841,0.0087,-44.55,3.15,3.9,0.019999999999999574,1.3290282389776373,1.4714286246888648,non_fall
6.966616,0.5781,0.4729,0.738,-0.2463,0.3841,0.0087,-44.625,3.525,2.4,0.020000000000000462,1.0499895332811655,1.3098457818906888,non_fall
6.986616,0.0255,0.5026,1.5891,-0.2301,0.5531,-0.0577,-44.625,3.525,2.4,0.019999999999999574,1.666882065414347,1.1867120938486253,non_fall
7.006616,-0.0046,0.5578,0.6704,-0.2301,0.5531,-0.0577,-44.625,3.525,2.4,0.020000000000000462,0.8721227895199162,1.1485720313250216,non_fall
7.026616,-0.2892,0.5156,0.6981,-0.2301,0.5531,-0.0577,-44.55,3.9,1.2,0.019999999999999574,0.9147806349065333,1.222150494406123,non_fall
7.046616,-0.8404,0.41975,0.6749,0.1135,0.2604,-0.0651,-44.55,3.9,1.2,0.020000000000000462,1.1566988512573184,1.405126705336756,non_fall
7.066616,-1.2148,0.9115,0.597,0.1135,0.2604,-0.0651,-44.55,3.9,1.2,0.019999999999999574,1.6318640537740883,1.6662925597673661,non_fall
7.086616,-1.6323,1.2795,0.6254,0.1135,0.2604,-0.0651,-44.55,3.9,1.2,0.020000000000000462,2.1662522244651012,1.9559392151402402,non_fall
7.106616,-1.913,1.9526,0.6301,0.1135,0.2604,-0.0651,-44.1,3.075,1.575,0.019999999999999574,2.8052168846632872,2.222643829842493,non_fall
7.126616,-1.6463,2.0641,0.0994,0.3699,-0.3412,-0.0493,-44.1,3.075,1.575,0.020000000000000462,2.6421000851595307,2.42898584273538,non_fall
7.146616,-0.87025,2.04435,-0.5461,0.3699,-0.3412,-0.0493,-44.1,3.075,1.575,0.019999999999999574,2.2879963275757245,2.5590707282221787,non_fall
7.166616,-0.9119,2.0232,-0.4518,0.3699,-0.3412,-0.0493,-44.4,3.375,2.7,0.020000000000000462,2.264734662162436,2.6155071835100214,non_fall
7.186616,-1.3748,2.0625,-0.3518,0.536,-0.0776,0.0699,-44.4,3.375,2.7,0.019999999999999574,2.5035463906227102,2.609658288062227,non_fall
7.206616,-1.8569,1.5627,-0.0032,0.536,-0.0776,0.0699,-44.4,3.375,2.7,0.020000000000000462,2.4269567651690873,2.5522650150705797,non_fall
7.226616,-2.1839,0.9522,0.5971,0.536,-0.0776,0.0699,-44.4,3.375,2.7,0.019999999999999574,2.4561417833667503,2.4499957718403182,non_fall
7.246616,-2.2287,1.3042,0.5398,0.536,-0.0776,0.0699,-44.1,3.75,1.95,0.020000000000000462,2.638072282936917,2.3088543843030127,non_fall
7.266616,-1.807,1.4533,0.005,0.7356,0.3294,0.1541,-44.1,3.75,1.95,0.019999999999999574,2.3189124368979526,2.1409477335569735,non_fall
7.286616,-1.5527,1.1117,-0.2092,0.7356,0.3294,0.1541,-44.1,3.75,1.95,0.020000000000000462,1.921072309935261,1.9692212440069603,non_fall
7.306616,-1.5295,1.1295,0.2903,0.7356,0.3294,0.1541,-44.625,4.2,1.35,0.019999999999999574,1.9233862300640505,1.8260479091817081,non_fall
7.326616,-1.3833,0.8836,0.3613,0.7547,0.8735,0.1518,-44.625,4.2,1.35,0.019999999999999574,1.6807157820404972,1.7449661281909128,non_fall
7.346616,-1.34705,0.68625,-0.09105,0.7547,0.8735,0.1518,-44.625,4.2,1.35,0.020000000000000462,1.5145206725231586,1.7484203144118786,non_fall
7.366616,-1.4638,1.1878,-0.0273,0.7547,0.8735,0.1518,-44.625,4.2,1.35,0.019999999999999574,1.885291640569172,1.8364963734991924,non_fall
7.386616,-1.22795,0.769,-1.14545,0.7547,0.8735,0.1518,-44.625,4.725,-2.55,0.020000000000000462,1.8469645110288395,1.9818691323646356,non_fall
7.406616,-0.3854,0.3663,-0.5865,0.5328,1.0074,0.1145,-44.625,4.725,-2.55,0.019999999999999574,0.7916382380860592,2.1346213494522783,non_fall
7.426616,2.1464,-2.6191,-1.967,0.5328,1.0074,0.1145,-44.625,4.725,-2.55,0.020000000000000462,3.9160958581219636,2.2372392286556235,non_fall
7.446616,1.0068,-2.1582,1.5585,0.5328,1.0074,0.1145,-44.4,5.4,-5.25,0.019999999999999574,2.8461194159767786,2.2449923583938296,non_fall
7.466616,0.2497,-1.0691,1.59,0.1683,0.5985,-0.1762,-44.4,5.4,-5.25,0.020000000000000462,1.9322072611394463,2.1423689365621224,non_fall
7.486616,-1.054,0.4103,0.1293,0.1683,0.5985,-0.1762,-44.4,5.4,-5.25,0.019999999999999574,1.1384114282630862,1.9469948020641312,non_fall
7.506616,-1.6118,0.8797,0.1372,0.1683,0.5985,-0.1762,-44.4,5.4,-5.25,0.020000000000000462,1.8413568828448221,1.699785015984166,non_fall
7.526616,-1.5283,0.7515,-0.0546,0.1683,0.5985,-0.1762,-44.85,4.35,-6.75,0.019999999999999574,1.7039466834381878,1.4479199047006575,non_fall
7.546616,-0.40295,0.51585,0.57345,0.243,-0.2115,-0.111,-44.85,4.35,-6.75,0.020000000000000462,0.8702383739527924,1.2291183852509269,non_fall
7.566616,0.4165,0.1425,0.8738,0.243,-0.2115,-0.111,-44.85,4.35,-6.75,0.019999999999999574,0.9784196134583566,1.0623575862225474,non_fall
7.586616,0.9624,0.0798,0.2208,0.243,-0.2115,-0.111,-44.85,3.6,-7.05,0.020000000000000462,0.9906232583580905,0.9464018219505577,non_fall
7.606616,0.8898,-0.09395,0.6968,0.088,-0.0562,0.0075,-44.85,3.6,-7.05,0.019999999999999574,1.1340638793736444,0.8651067986274477,non_fall
7.626616,0.6021,0.397,-0.1838,0.088,-0.0562,0.0075,-44.85,3.6,-7.05,0.020000000000000462,0.7442552317585681,0.7966560406727644,non_fall
7.646616,0.4291,0.4238,0.6233,0.088,-0.0562,0.0075,-44.85,3.6,-7.05,0.019999999999999574,0.8673154789348567,0.7228218195549517,non_fall
7.666616,0.29,0.356,0.3654,0.088,-0.0562,0.0075,-45.0,4.425,-6.75,0.020000000000000462,0.5868161211146128,0.6349804314458152,non_fall
7.686616,-0.0824,0.2155,0.2824,0.1261,-0.0594,-0.1529,-45.0,4.425,-6.75,0.019999999999999574,0.3646639137616992,0.535667781679593,non_fall
7.706616,-0.3285,0.1667,0.0115,0.1261,-0.0594,-0.1529,-45.0,4.425,-6.75,0.020000000000000462,0.36855581666824905,0.4365191990040182,non_fall
7.726616,-0.5841,-0.0802,-0.0172,0.1261,-0.0594,-0.1529,-44.55,3.75,-5.625,0.019999999999999574,0.5898310690358722,0.354312180406074,non_fall
7.746616,-0.3317,-0.0731,-0.1679,0.1289,-0.0356,-0.0857,-44.55,3.75,-5.625,0.020000000000000462,0.37889168636960086,0.3063349487808287,non_fall
7.766616,-0.1503,-0.1409,-0.1824,0.1289,-0.0356,-0.0857,-44.55,3.75,-5.625,0.019999999999999574,0.2751593356584508,0.3053990036026802,non_fall
7.786616,-0.1039,-0.0387,-0.08005,0.1289,-0.0356,-0.0857,-44.55,3.75,-5.625,0.020000000000000462,0.13675124313877368,0.3548359889834738,non_fall
7.806616,-0.23115,-0.3162,0.22455,0.1289,-0.0356,-0.0857,-45.0,3.225,-6.15,0.019999999999999574,0.4514814115774868,0.4449304125878849,non_fall
7.826616,0.1352,0.1279,0.2011,0.0692,-0.1298,-0.099,-45.0,3.225,-6.15,0.019999999999999574,0.2740048539716039,0.5530822912177855,non_fall
7.846616,-0.4712,-0.4045,0.0747,0.0692,-0.1298,-0.099,-45.0,3.225,-6.15,0.020000000000000462,0.6254836368762975,0.6492076037133319,non_fall
7.866616,0.6012,0.8328,0.628,0.0692,-0.1298,-0.099,-44.625,2.7,-6.6,0.019999999999999574,1.2039025209708634,0.7054197287919064,non_fall
7.886616,-0.8447,-0.5004,-0.2978,0.2139,-0.1498,0.0243,-44.625,2.7,-6.6,0.020000000000000462,1.0259644681956583,0.7061419583518861,non_fall
7.906616,-0.5098,-0.1169,-0.1995,0.2139,-0.1498,0.0243,-44.625,2.7,-6.6,0.019999999999999574,0.5597873703469917,0.6535413916362298,non_fall
7.926616,-0.1829,0.048,-0.0074,0.2139,-0.1498,0.0243,-44.625,2.7,-6.6,0.020000000000000462,0.1892383946243468,0.5652270201283032,non_fall
7.946616,-0.085,-0.0689,-0.2163,0.1275,-0.0618,0.0082,-44.4,2.925,-5.7,0.019999999999999574,0.24240028877870587,0.46573596480529894,non_fall
7.966616,-0.1163,0.0826,-0.3643,0.1275,-0.0618,0.0082,-44.4,2.925,-5.7,0.020000000000000462,0.3912325906669842,0.37696640064270187,non_fall
7.986616,-0.2665,-0.2091,-0.4502,0.1275,-0.0618,0.0082,-44.4,2.925,-5.7,0.019999999999999574,0.5634049165564674,0.31245916261559764,non_fall
8.006616,-0.1223,-0.1045,-0.2265,0.1275,-0.0618,0.0082,-44.925,2.475,-5.4,0.019999999999999574,0.27781250871766017,0.2769308945872366,non_fall
8.026616,-0.09455,-0.32975,-0.16635,0.1973,-0.1374,0.0066,-44.925,2.475,-5.4,0.02000000000000135,0.38124413110236854,0.26901564781051274,non_fall
8.046616,0.0119,0.0821,-0.0991,0.1973,-0.1374,0.0066,-44.925,2.475,-5.4,0.019999999999999574,0.1292394289680978,0.284241272552303,non_fall
8.066616,-0.2483,0.1192,-0.2691,0.1973,-0.1374,0.0066,-45.075,2.85,-5.25,0.019999999999999574,0.3850666695521699,0.3166094670135482,non_fall
8.086616,-0.0478,0.24915,-0.01575,0.1973,-0.1374,0.0066,-45.225,3.225,-5.1,0.019999999999999574,0.2541822672807842,0.3589422804267162,non_fall
8.106616,0.0848,-0.2155,-0.3027,0.0254,-0.0724,-0.0344,-45.225,3.225,-5.1,0.02000000000000135,0.3811280362292966,0.40303411853657306,non_fall
8.126616,0.0438,0.218,-0.5351,0.0254,-0.0724,-0.0344,-45.225,3.225,-5.1,0.019999999999999574,0.5794604818277084,0.44044689844606105,non_fall
8.146616,-0.1072,0.0567,-0.3512,0.0254,-0.0724,-0.0344,-44.925,2.85,-4.95,0.019999999999999574,0.3715483414039148,0.4640620489003032,non_fall
8.166616,-0.0609,-0.128,-0.3385,0.2711,-0.0918,-0.0081,-44.925,2.85,-4.95,0.019999999999999574,0.366981007682959,0.4698800897417312,non_fall
8.186616,-0.2244,0.0326,-0.7405,0.2711,-0.0918,-0.0081,-44.925,2.85,-4.95,0.02000000000000135,0.7744406820409167,0.45832438944114806,non_fall
8.206616,-0.2293,0.0221,0.1876,0.2711,-0.0918,-0.0081,-44.925,2.85,-4.95,0.019999999999999574,0.29708695696714793,0.43434140028410645,non_fall
8.226616,0.0459,0.2358,-0.4431,0.0782,-0.0513,-0.0342,-44.85,2.475,-4.125,0.019999999999999574,0.5040298205463641,0.4058349063276412,non_fall
8.246616,-0.13175,-0.00715,0.0892,0.0782,-0.0513,-0.0342,-44.85,2.475,-4.125,0.019999999999999574,0.15926652190589208,0.38065976556199393,non_fall
8.266616,-0.1513,-0.2477,-0.2642,0.0782,-0.0513,-0.0342,-44.85,2.475,-4.125,0.02000000000000135,0.3924902801344258,0.36339705985552895,non_fall
8.286616,-0.07745,-0.08555,-0.1109,0.0782,-0.0513,-0.0342,-45.15,2.475,-4.35,0.019999999999999574,0.16005035145228516,0.3536135155349513,non_fall
8.306616,0.2296,-0.3788,-0.5274,0.1582,-0.0951,-0.02,-45.15,2.475,-4.35,0.019999999999999574,0.688735333782143,0.34661833018126026,non_fall
8.326616,0.1848,0.1672,-0.1584,0.1582,-0.0951,-0.02,-45.15,2.475,-4.35,0.019999999999999574,0.29529212654590026,0.3362078890271696,non_fall
8.346616,-0.1602,0.1715,-0.2701,0.1582,-0.0951,-0.02,-45.375,2.25,-4.3875,0.019999999999999574,0.35781321943159117,0.317678860025277,non_fall
8.366616,-0.1544,-0.0186,-0.0498,0.13505,-0.09945,-0.01,-45.6,2.025,-4.425,0.02000000000000135,0.16329531530328725,0.28947984590586096,non_fall
8.386616,-0.1305,-0.054,-0.2155,0.1119,-0.1038,0.0,-45.6,2.025,-4.425,0.019999999999999574,0.25765577812267276,0.2530983749969988,non_fall
8.406616,-0.0138,0.1221,-0.17,0.1119,-0.1038,0.0,-45.6,2.025,-4.425,0.019999999999999574,0.20975902841117472,0.21195267095418757,non_fall
