time,ax,ay,az,wx,wy,wz,Bx,By,Bz,time_diff,acc_mag,acc_mag_filtered,label
0.084127,0.0,0.0,0.0,0.0,0.0,0.0,0.0,0.0,0.0,0.0,0.0,-0.0003378180587334322,non_fall
0.104127,0.0313,0.0738,-0.0572,0.0,0.0,0.0,-44.4,10.95,0.3,0.020000000000000004,0.09847827171513521,0.01974251742519504,non_fall
0.124127,0.0011,-0.0054,-0.0102,0.0142,-0.0145,0.0061,-44.4,10.95,0.3,0.020000000000000004,0.011593532679903913,0.03920917895831047,non_fall
0.144127,0.0139,0.0015,0.0555,0.0142,-0.0145,0.0061,-44.4,10.95,0.3,0.020000000000000004,0.0572338186739274,0.05786567865787078,non_fall
0.164127,0.0618,0.0584,-0.0166,0.0142,-0.0145,0.0061,-44.25,10.05,1.35,0.01999999999999999,0.08663348082583315,0.07600200916004411,non_fall
0.184127,0.043,0.0079,-0.1038,0.0086,-0.0058,0.0063,-44.25,10.05,1.35,0.020000000000000018,0.11263147872597608,0.09401459566630396,non_fall
0.204127,0.0192,0.0176,-0.0504,0.0086,-0.0058,0.0063,-44.25,10.05,1.35,0.01999999999999999,0.05673235408477247,0.11180344693021395,non_fall
0.224127,0.1161,0.0415,0.0404,0.0086,-0.0058,0.0063,-44.25,10.05,1.35,0.01999999999999999,0.12974444111406083,0.12829906600954155,non_fall
0.244127,0.1082,0.0436,-0.0226,0.00485,-0.00315,0.006,-42.825,9.525,1.35,0.020000000000000018,0.11882323005203992,0.14147844661221656,non_fall
0.264127,0.133,0.0292,-0.0416,0.0011,-0.0005,0.0057,-42.825,9.525,1.35,0.01999999999999999,0.1423804761896799,0.14904675964115782,non_fall
0.284127,0.2116,-0.0576,-0.1108,0.0011,-0.0005,0.0057,-42.825,9.525,1.35,0.020000000000000018,0.24570095644909484,0.1495870140663242,non_fall
0.304127,-0.1002,0.0452,-0.0795,0.0011,-0.0005,0.0057,-42.4875,9.7125,1.125,0.019999999999999962,0.13565887365004914,0.14360400915368496,non_fall
0.324127,-0.04775,0.08365,-0.0808,0.0092,-0.0121,-0.0058,-42.15,9.9,0.9,0.020000000000000018,0.1257220147786377,0.13381041870248273,non_fall
0.344127,0.0023,0.0386,-0.0932,0.0092,-0.0121,-0.0058,-42.15,9.9,0.9,0.020000000000000018,0.10090336961667831,0.12436454763739031,non_fall
0.364127,-0.0629,0.0153,-0.0945,0.0092,-0.0121,-0.0058,-42.15,9.9,0.9,0.019999999999999962,0.11454584235143588,0.11935842632158121,non_fall
0.384127,-0.0945,-0.0314,-0.0726,0.00145,-0.0166,-0.0013,-42.3,10.2,0.75,0.020000000000000018,0.12323542510171334,0.12126048314338991,non_fall
0.404127,-0.0496,0.0292,-0.0166,-0.0063,-0.0211,0.0032,-42.3,10.2,0.75,0.020000000000000018,0.05990292146464978,0.13002942135577633,non_fall
0.424127,-0.0154,0.03475,-0.10425,-0.0063,-0.0211,0.0032,-42.3,10.2,0.75,0.019999999999999962,0.11096298932527007,0.1433266783386071,non_fall
0.444127,0.015,0.075,-0.2557,-0.0063,-0.0211,0.0032,-43.425,9.9375,0.975,0.020000000000000018,0.26689415505027453,0.1577839065602436,non_fall
0.464127,-0.0017,0.1138,-0.2563,-0.0174,-0.0226,0.0205,-44.55,9.675,1.2,0.020000000000000018,0.28043362851127535,0.17070520533415035,non_fall
0.484127,-0.0217,0.0693,-0.0468,-0.0174,-0.0226,0.0205,-44.55,9.675,1.2,0.019999999999999962,0.08639224502233983,0.18120400244554,non_fall
0.504127,0.0505,0.0337,-0.175,-0.0174,-0.0226,0.0205,-44.55,9.675,1.2,0.020000000000000018,0.18523212464364813,0.1900462313014396,non_fall
0.524127,-0.0529,0.1053,-0.06155,-0.0174,-0.0226,0.0205,-43.95,9.15,1.8,0.020000000000000018,0.1329469913160881,0.19835998095926144,non_fall
0.544127,0.2203,-0.0274,0.1102,-0.0579,0.0002,0.0191,-43.95,9.15,1.8,0.020000000000000018,0.2478444875320006,0.20615519942236119,non_fall
0.564127,0.1051,-0.0235,-0.1055,-0.0579,0.0002,0.0191,-43.95,9.15,1.8,0.020000000000000018,0.15075977580243347,0.21164666512158015,non_fall
0.584127,0.1136,-0.1107,0.1658,-0.0579,0.0002,0.0191,-44.025,9.75,1.8,0.019999999999999907,0.2294538951510739,0.21179828371403833,non_fall
0.604127,0.1186,0.0278,-0.2145,-0.0133,0.0101,-0.0118,-44.025,9.75,1.8,0.020000000000000018,0.24667600207559712,0.20380876202215634,non_fall
0.624127,0.0754,0.1502,-0.1943,-0.0133,0.0101,-0.0118,-44.025,9.75,1.8,0.020000000000000018,0.2569001557025608,0.1867653351525872,non_fall
0.644127,0.0495,0.0963,-0.115,-0.0133,0.0101,-0.0118,-44.025,9.75,1.8,0.020000000000000018,0.15795233458230365,0.16255183689527744,non_fall
0.664127,0.0399,-0.0029,-0.0838,-0.0148,0.0249,-0.0276,-44.25,9.975,1.8,0.020000000000000018,0.09285935601758177,0.13543406439980404,non_fall
0.684127,0.0683,-0.0229,-0.0274,-0.0163,0.0397,-0.0434,-44.25,9.975,1.8,0.020000000000000018,0.07707178472047992,0.11047705965535493,non_fall
0.704127,0.0316,-0.0037,-0.0467,-0.0163,0.0397,-0.0434,-44.25,9.975,1.8,0.019999999999999907,0.05650787555730617,0.09163524702820136,non_fall
0.724127,-0.0026,0.014,-0.0723,-0.0163,0.0397,-0.0434,-43.8,9.375,1.35,0.020000000000000018,0.07368887297279013,0.08051290425096425,non_fall
0.744127,-0.015,0.0182,-0.1105,-0.033,0.0603,-0.0657,-43.8,9.375,1.35,0.020000000000000018,0.11298889325947042,0.07632906344809612,non_fall
0.764127,-0.06545,0.057,-0.1294,-0.033,0.0603,-0.0657,-43.8,9.375,1.35,0.020000000000000018,0.1558109832457263,0.07688241974819648,non_fall
0.784127,-0.0404,-0.0052,0.0277,-0.033,0.0603,-0.0657,-43.8,9.375,1.35,0.020000000000000018,0.04925941534366805,0.07979244233144689,non_fall
0.804127,0.0229,0.0263,-0.008,-0.03505,0.0485,-0.0685,-44.025,9.375,0.75,0.020000000000000018,0.03577848515518789,0.08332296773857731,non_fall
0.824127,0.0006,0.0603,0.0197,-0.0371,0.0367,-0.0713,-44.025,9.375,0.75,0.020000000000000018,0.06343926229079276,0.08659056923301038,non_fall
0.844127,-0.0917,0.0752,-0.0241,-0.0371,0.0367,-0.0713,-44.025,9.375,0.75,0.019999999999999907,0.12101545355862614,0.08943465042890442,non_fall
0.864127,-0.0484,0.1379,-0.0443,-0.0371,0.0367,-0.0713,-44.2875,9.2625,0.9,0.020000000000000018,0.15271365361355219,0.09225336362927294,non_fall
0.884127,-0.0308,0.0429,-0.0423,-0.033,0.0202,-0.0693,-44.55,9.15,1.05,0.020000000000000018,0.06766343177817691,0.09580366318326966,non_fall
0.904127,-0.0317,0.0193,0.0532,-0.033,0.0202,-0.0693,-44.55,9.15,1.05,0.020000000000000018,0.06486616991930386,0.10080840210226136,non_fall
0.924127,-0.0181,0.0767,0.0415,-0.033,0.0202,-0.0693,-44.55,9.15,1.05,0.020000000000000018,0.08906598677385212,0.10742263900288651,non_fall
0.944127,-0.0854,0.0917,-0.0279,-0.0336,0.014,-0.0596,-44.4,9.15,1.05,0.020000000000000018,0.12837624390828703,0.11488379949683829,non_fall
0.964127,-0.09405,0.10335,-0.046,-0.0336,0.014,-0.0596,-44.4,9.15,1.05,0.019999999999999907,0.1471143262908137,0.12163044913082903,non_fall
0.984127,-0.1006,0.07055,0.01745,-0.0336,0.014,-0.0596,-44.4,9.15,1.05,0.020000000000000018,0.12410545918693504,0.12585404065817057,non_fall
1.004127,-0.0882,0.0344,0.0589,-0.0336,0.014,-0.0596,-44.4,9.15,1.05,0.020000000000000018,0.11149802688837143,0.1261872817150069,non_fall
1.024127,-0.0973,0.0616,0.0718,-0.0461,0.0079,-0.0504,-43.65,8.925,0.975,0.020000000000000018,0.13570957961765265,0.12223516221059132,non_fall
1.044127,-0.0684,0.06255,0.04315,-0.0461,0.0079,-0.0504,-43.65,8.925,0.975,0.020000000000000018,0.10223984057108071,0.1148132918132061,non_fall
1.064127,-0.102,0.0495,0.0456,-0.0461,0.0079,-0.0504,-43.65,8.925,0.975,0.020000000000000018,0.12220315053221827,0.10587694492498101,non_fall
1.084127,-0.0959,0.0328,0.04195,-0.0539,0.0046,-0.0336,-44.4,8.475,0.9,0.020000000000000018,0.10969253620916967,0.09815133856713795,non_fall
1.104127,-0.065,0.0454,0.0217,-0.0539,0.0046,-0.0336,-44.4,8.475,0.9,0.020000000000000018,0.08220127736233787,0.09448861145060627,non_fall
1.124127,-0.05,0.0786,-0.0114,-0.0539,0.0046,-0.0336,-44.4,8.475,0.9,0.020000000000000018,0.09385051944448684,0.0970517062059577,non_fall
1.144127,-0.0565,0.0712,-0.0469,-0.0539,0.0046,-0.0336,-44.325,8.475,0.6,0.019999999999999796,0.10228049667458601,0.1065439834948999,non_fall
1.164127,-0.0812,0.0691,-0.0053,-0.0638,0.0121,-0.0173,-44.325,8.475,0.6,0.020000000000000018,0.10675364162406825,0.12178128826706447,non_fall
1.184127,-0.0071,0.0217,0.0614,-0.0638,0.0121,-0.0173,-44.325,8.475,0.6,0.020000000000000018,0.06550770946995477,0.13986193720234255,non_fall
1.204127,-0.1898,0.1152,-0.156,-0.0638,0.0121,-0.0173,-44.325,8.475,0.6,0.020000000000000018,0.27135047447903976,0.156992902726544,non_fall
1.224127,-0.146,0.1267,0.0325,-0.0779,0.0223,-0.0093,-44.4,8.625,0.45,0.020000000000000018,0.19602331493983058,0.16970053981773847,non_fall
1.244127,0.0364,0.0211,-0.0937,-0.0779,0.0223,-0.0093,-44.4,8.625,0.45,0.020000000000000018,0.10271251140927283,0.17587371194572082,non_fall
1.264127,-0.07345,0.07975,0.23725,-0.0779,0.0223,-0.0093,-44.4,8.625,0.45,0.020000000000000018,0.2608496262216988,0.1751407691549128,non_fall
1.284127,0.0293,-0.0079,0.0887,-0.0779,0.0223,-0.0093,-44.25,8.4,1.275,0.020000000000000018,0.0937474799661303,0.16850040717070897,non_fall
1.304127,-0.0417,-0.0142,-0.0954,-0.0715,0.0214,-0.0038,-44.25,8.4,1.275,0.020000000000000018,0.10507944613481744,0.1575784195965586,non_fall
1.324127,-0.01465,0.0502,0.16845,-0.0715,0.0214,-0.0038,-44.25,8.4,1.275,0.020000000000000018,0.17638045526644952,0.14403706423453336,non_fall
1.344127,-0.0244,0.0745,0.1748,-0.0715,0.0214,-0.0038,-44.4,8.4,1.2375,0.020000000000000018,0.1915741370853592,0.12943668882718443,non_fall
1.364127,-0.0783,0.0339,0.0981,-0.0628,0.0334,-0.007,-44.55,8.4,1.2,0.020000000000000018,0.13001426844773617,0.11539890855505719,non_fall
1.384127,-0.0497,0.02,0.0255,-0.0628,0.0334,-0.007,-44.55,8.4,1.2,0.020000000000000018,0.05933245317699244,0.10362728281666488,non_fall
1.404127,0.0018,-0.0468,0.0922,-0.0628,0.0334,-0.007,-44.55,8.4,1.2,0.019999999999999796,0.10341334536702698,0.09551109173068335,non_fall
1.424127,-0.00285,-0.0372,0.0522,-0.0628,0.0334,-0.007,-44.25,8.475,0.75,0.020000000000000018,0.06416231370516497,0.09150205304754154,non_fall
1.444127,-0.0105,0.0531,-0.0392,-0.0228,0.0319,-0.0087,-44.25,8.475,0.75,0.020000000000000018,0.06683187862090964,0.09074903234395712,non_fall
1.464127,-0.0548,0.0408,-0.0293,-0.0228,0.0319,-0.0087,-44.25,8.475,0.75,0.020000000000000018,0.07433821359166495,0.09136962057906532,non_fall
1.484127,-0.0384,0.0633,-0.1572,-0.0228,0.0319,-0.0087,-44.55,8.5125,0.375,0.020000000000000018,0.17376216504176045,0.09134046643974177,non_fall
1.504127,-0.073,0.0785,-0.0802,-0.0208,0.0228,-0.0083,-44.85,8.55,0.0,0.020000000000000018,0.13387789212562318,0.08954208595144522,non_fall
1.524127,-0.0135,0.0411,0.0427,-0.0188,0.0137,-0.0079,-44.85,8.55,0.0,0.020000000000000018,0.06078445524967712,0.08629306843909615,non_fall
1.544127,0.01085,-0.00395,0.0196,-0.0188,0.0137,-0.0079,-44.85,8.55,0.0,0.020000000000000018,0.02274829663952886,0.08299191188313818,non_fall
1.564127,0.0084,0.0253,-0.0386,-0.0188,0.0137,-0.0079,-43.8,8.85,0.45,0.020000000000000018,0.0469106597693957,0.08111971896591814,non_fall
1.584127,-0.0021,0.0906,-0.0912,-0.0231,0.0104,-0.0041,-43.8,8.85,0.45,0.020000000000000018,0.1285698642761981,0.08130766317311437,non_fall
1.604127,-0.0243,0.0461,-0.0631,-0.0231,0.0104,-0.0041,-43.8,8.85,0.45,0.020000000000000018,0.08183709427881711,0.08303729415117797,non_fall
1.624127,-0.0758,0.0639,-0.0169,-0.0231,0.0104,-0.0041,-44.175,8.2875,0.8625,0.020000000000000018,0.1005706716692297,0.0850095092500481,non_fall
1.644127,-0.04705,0.067,0.0134,-0.0249,0.0177,-0.0002,-44.55,7.725,1.275,0.019999999999999796,0.08295940272205436,0.08581277148513436,non_fall
1.664127,-0.0708,0.0152,-0.0057,-0.0249,0.0177,-0.0002,-44.55,7.725,1.275,0.020000000000000018,0.07263724939726174,0.0845064529884327,non_fall
1.684127,-0.0498,0.0519,0.0226,-0.0249,0.0177,-0.0002,-44.55,7.725,1.275,0.020000000000000018,0.07539502636115993,0.08095408971444473,non_fall
1.704127,0.0124,0.0644,0.0592,-0.0249,0.0177,-0.0002,-44.25,7.8,0.675,0.020000000000000018,0.08835021222385377,0.07592338944817165,non_fall
1.724127,-0.00915,0.0598,0.05855,-0.0275,0.0173,-0.0005,-44.25,7.8,0.675,0.020000000000000018,0.08418945896013348,0.07100340404081144,non_fall
1.744127,0.0018,0.0144,0.0564,-0.0275,0.0173,-0.0005,-44.25,7.8,0.675,0.020000000000000018,0.05823710157622888,0.06834212226218166,non_fall
1.764127,-0.0206,0.0431,0.0212,-0.0275,0.0173,-0.0005,-44.25,7.8,0.675,0.020000000000000018,0.05226289314609363,0.07020234365874338,non_fall
1.784127,-0.0451,0.082,0.0224,-0.0259,0.02995,-0.00375,-44.1,8.25,1.275,0.020000000000000018,0.09622769871507891,0.07840086447636316,non_fall
1.804127,-0.0749,0.0542,0.0541,-0.0243,0.0426,-0.007,-44.1,8.25,1.275,0.020000000000000018,0.10711890589433781,0.09375148830670486,non_fall
1.824127,-0.0861,0.0358,0.058,-0.0243,0.0426,-0.007,-44.1,8.25,1.275,0.020000000000000018,0.1098127952471842,0.11562237958264451,non_fall
1.844127,-0.1042,0.0583,0.0245,-0.0243,0.0426,-0.007,-43.8,8.55,0.45,0.020000000000000018,0.12188839157196225,0.1417118777952944,non_fall
1.864127,-0.1132,0.0475,0.0471,-0.0403,0.0452,-0.0072,-43.8,8.55,0.45,0.020000000000000018,0.1314872617404439,0.16820427953013323,non_fall
1.884127,-0.1449,0.0842,0.0819,-0.0403,0.0452,-0.0072,-43.8,8.55,0.45,0.020000000000000018,0.18652951509077592,0.1904898594246336,non_fall
1.904127,0.01,0.136,0.1745,-0.0403,0.0452,-0.0072,-43.8,8.55,0.45,0.019999999999999796,0.2214638796734131,0.20445402484282407,non_fall
1.924127,-0.243,0.1228,-0.1389,-0.0505,0.033,-0.0053,-44.025,8.25,0.075,0.020000000000000018,0.3056502085718248,0.20795525453346525,non_fall
1.944127,-0.0875,0.0705,0.18885,-0.0505,0.033,-0.0053,-44.025,8.25,0.075,0.020000000000000018,0.21975172923096645,0.20178536108694584,non_fall
1.964127,-0.0339,0.0042,-0.023,-0.0505,0.033,-0.0053,-44.025,8.25,0.075,0.020000000000000018,0.04118069936268688,0.18949887507006796,non_fall
1.984127,-0.0668,0.0709,0.3014,-0.046,0.03275,-0.0022,-44.7,8.175,-0.15,0.020000000000000018,0.31675070639226677,0.17607420970177312,non_fall
2.004127,-0.0327,0.0322,0.064,-0.0415,0.0325,0.0009,-44.7,8.175,-0.15,0.020000000000000018,0.07875360309217605,0.16601288536594314,non_fall
2.024127,-0.0643,0.0647,-0.0371,-0.0415,0.0325,0.0009,-44.7,8.175,-0.15,0.020000000000000018,0.09847329587253591,0.1617289116608484,non_fall
2.044127,-0.1016,0.1814,0.0035,-0.0415,0.0325,0.0009,-44.625,8.7,0.3,0.020000000000000018,0.20794415115602555,0.16289253894986336,non_fall
2.064127,-0.1219,0.1162,0.0554,-0.0548,0.0082,-0.0044,-44.625,8.7,0.3,0.020000000000000018,0.17728849370447028,0.16697105425704398,non_fall
2.084127,-0.1699,0.0778,0.1045,-0.0548,0.0082,-0.0044,-44.625,8.7,0.3,0.020000000000000018,0.21410067725254864,0.17068336227197356,non_fall
2.104127,-0.1093,0.0317,0.0998,-0.0548,0.0082,-0.0044,-44.625,8.7,0.3,0.020000000000000018,0.15136518754323927,0.17166827333749524,non_fall
2.124127,-0.0923,-0.0073,0.1258,-0.06825,0.0197,-0.0021,-43.65,8.625,0.075,0.020000000000000018,0.15619929577306038,0.1696373773048493,non_fall
2.144127,-0.0357,0.0754,0.1886,-0.0817,0.0312,0.0002,-43.65,8.625,0.075,0.020000000000000018,0.20622708357536357,0.16661528975714382,non_fall
2.164127,-0.0938,0.0967,0.1209,-0.0817,0.0312,0.0002,-43.65,8.625,0.075,0.020000000000000018,0.18101419833814142,0.16624994791947,non_fall
2.184127,-0.0968,0.13145,0.0319,-0.0817,0.0312,0.0002,-43.65,8.625,0.075,0.020000000000000018,0.166333858549605,0.17242837801272007,non_fall
2.204127,-0.05655,0.0712,0.0167,-0.0944,0.0376,-0.0053,-44.55,8.85,-0.45,0.020000000000000018,0.09244583549300639,0.18764797372275122,non_fall
2.224127,-0.15815,0.11835,0.0748,-0.0944,0.0376,-0.0053,-44.55,8.85,-0.45,0.020000000000000018,0.21121833490490358,0.21180183226597896,non_fall
2.244127,-0.1175,0.148,0.1903,-0.0944,0.0376,-0.0053,-44.55,8.85,-0.45,0.020000000000000018,0.26818713615682616,0.24200866884537658,non_fall
2.264127,-0.1595,0.1315,0.2343,-0.11295,0.04445,-0.0074,-44.1,8.4,0.15,0.019999999999999574,0.3124563809558064,0.273662735742787,non_fall
2.284127,-0.2299,0.151,0.1545,-0.1315,0.0513,-0.0095,-44.1,8.4,0.15,0.020000000000000018,0.31547624316261913,0.3022347481686469,non_fall
2.304127,-0.2155,0.0609,0.1646,-0.1315,0.0513,-0.0095,-44.1,8.4,0.15,0.020000000000000018,0.2779248459566003,0.3250152633560745,non_fall
2.324127,-0.1758,0.1187,0.2824,-0.1315,0.0513,-0.0095,-44.025,8.25,0.2625,0.020000000000000018,0.35319270943777986,0.3421483556526663,non_fall
2.344127,-0.1135,0.1566,0.3683,-0.1457,0.0707,-0.0012,-43.95,8.1,0.375,0.020000000000000018,0.4159936297589183,0.3566667504941315,non_fall
2.364127,-0.1244,0.21165,0.33215,-0.1457,0.0707,-0.0012,-43.95,8.1,0.375,0.020000000000000018,0.4130311186823579,0.37347445458763595,non_fall
2.384127,-0.1231,0.213,0.3203,-0.1457,0.0707,-0.0012,-43.95,8.1,0.375,0.020000000000000018,0.40387460925391183,0.3973872900872223,non_fall
2.404127,-0.0698,0.1795,0.2459,-0.16225,0.08825,-0.00615,-43.95,8.25,0.0,0.020000000000000018,0.31234452132220925,0.4307342614349401,non_fall
2.424127,-0.0383,0.1093,0.2269,-0.1788,0.1058,-0.0111,-43.95,8.25,0.0,0.020000000000000018,0.25474887634688403,0.47161394935317696,non_fall
2.444127,0.1056,0.0779,0.5778,-0.1788,0.1058,-0.0111,-43.95,8.25,0.0,0.020000000000000018,0.5925138057463303,0.5140750347077693,non_fall
2.464127,0.3465,-0.0132,0.7987,-0.1788,0.1058,-0.0111,-43.9875,8.2125,-0.225,0.020000000000000018,0.8707227917081303,0.5505863736557224,non_fall
2.484127,0.3562,0.0629,0.5069,-0.2533,0.1335,-0.0524,-44.025,8.175,-0.45,0.020000000000000018,0.6227218159017717,0.5754886942313056,non_fall
2.504127,0.30855,0.21365,0.19065,-0.2533,0.1335,-0.0524,-44.025,8.175,-0.45,0.020000000000000018,0.4209475590854519,0.5871793083040933,non_fall
2.524127,0.3275,0.3525,-0.0767,-0.2533,0.1335,-0.0524,-44.025,8.175,-0.45,0.020000000000000018,0.48723237782397016,0.5877534495769204,non_fall
2.544127,0.3712,0.3735,-0.2153,-0.28265,0.1295,-0.0849,-44.4,8.175,-1.05,0.020000000000000018,0.5688987431872213,0.5809022901394274,non_fall
2.564127,0.5669,0.2163,-0.0538,-0.312,0.1255,-0.1174,-44.4,8.175,-1.05,0.020000000000000018,0.6091434478019114,0.5700178647695446,non_fall
2.584127,0.5269,0.1298,0.0982,-0.312,0.1255,-0.1174,-44.4,8.175,-1.05,0.020000000000000018,0.5514661276996077,0.5578094050240532,non_fall
2.604127,0.5214,0.1478,0.1346,-0.312,0.1255,-0.1174,-44.4,7.5,-0.75,0.020000000000000018,0.5584084168420099,0.5472667606063264,non_fall
2.624127,0.66795,0.13185,0.0043,-0.494,0.0793,-0.1463,-44.4,7.5,-0.75,0.020000000000000018,0.6808524913665222,0.5428046598030238,non_fall
2.644127,0.269,0.4805,-0.0642,-0.494,0.0793,-0.1463,-44.4,7.5,-0.75,0.020000000000000018,0.5544031836127927,0.5503033915246406,non_fall
2.664127,0.3942,0.417,-0.0283,-0.494,0.0793,-0.1463,-44.4,7.5,-0.75,0.020000000000000018,0.5745289635866933,0.5753688339688131,non_fall
2.684127,0.3418,0.1466,0.0705,-0.6098,0.0299,-0.1151,-44.55,6.675,-1.05,0.020000000000000018,0.37853540125066243,0.6202266984295131,non_fall
2.704127,0.5038,0.0243,0.682,-0.6098,0.0299,-0.1151,-44.55,6.675,-1.05,0.020000000000000018,0.8482505113467366,0.6807492308604848,non_fall
2.724127,0.6114,0.061,0.1576,-0.6098,0.0299,-0.1151,-44.55,6.675,-1.05,0.020000000000000018,0.6343254054505464,0.7454470873792521,non_fall
2.744127,0.6285,0.1048,0.2558,-0.6098,0.0299,-0.1151,-44.325,6.6,-0.45,0.020000000000000018,0.6866068234441018,0.7975582470114284,non_fall
2.764127,0.4335,0.1977,0.702,-0.629,-0.0431,-0.0605,-44.325,6.6,-0.45,0.019999999999999574,0.8484170790360127,0.8201019002214333,non_fall
2.784127,0.5766,0.2301,0.7652,-0.629,-0.0431,-0.0605,-44.325,6.6,-0.45,0.020000000000000018,0.9853652165567851,0.8024699185751101,non_fall
2.804127,0.4625,0.4985,0.6906,-0.629,-0.0431,-0.0605,-44.325,6.6,-0.45,0.020000000000000018,0.9691939228038938,0.7460387906292002,non_fall
2.824127,0.2377,0.563,0.4989,-0.5948,-0.1399,-0.0683,-44.25,6.45,-0.15,0.020000000000000018,0.7889052541338535,0.6659643483136466,non_fall
2.844127,0.0348,0.22345,0.02585,-0.5948,-0.1399,-0.0683,-44.25,6.45,-0.15,0.020000000000000018,0.2276162669933764,0.5876521127075669,non_fall
2.864127,-0.0965,0.2197,-0.0847,-0.5948,-0.1399,-0.0683,-44.25,6.45,-0.15,0.020000000000000018,0.2544689175518299,0.5392523140507032,non_fall
2.884127,-0.3188,0.3459,-0.0307,-0.5948,-0.1399,-0.0683,-44.25,6.45,-0.15,0.020000000000000018,0.47140506997697845,0.5439902016722044,non_fall
2.904127,-0.707,0.4661,0.2551,-0.7057,-0.2961,0.0105,-44.85,6.375,0.75,0.020000000000000018,0.8844061397344548,0.615884117500136,forward_fall
2.924127,-1.1742,-0.6566,-0.3532,-0.7057,-0.2961,0.0105,-44.85,6.375,0.75,0.020000000000000018,1.3909059781308009,0.7592483922546484,forward_fall
2.944127,-0.8019,-0.4679,0.056,-0.7057,-0.2961,0.0105,-44.85,6.375,0.75,0.020000000000000018,0.9301129071247211,0.9691688637511208,forward_fall
2.964127,-0.3472,0.154,0.0484,-0.916,-0.4383,0.0887,-44.85,6.075,1.95,0.020000000000000018,0.3828921519174818,1.2303420826330644,forward_fall
2.984127,-0.6346,0.8967,-0.2058,-0.916,-0.4383,0.0887,-44.85,6.075,1.95,0.020000000000000018,1.1176500749340108,1.5154763599205394,forward_fall
3.004127,-1.264,1.7343,0.36,-0.916,-0.4383,0.0887,-44.85,6.075,1.95,0.020000000000000018,2.1760267668390476,1.7876197589963707,forward_fall
3.024127,-1.3675,2.0354,0.8683,-0.916,-0.4383,0.0887,-44.4,5.325,3.45,0.020000000000000018,2.6013178006541224,2.0088700530020525,forward_fall
3.044127,-1.1847,2.0108,1.0326,-1.1805,-0.4044,0.0924,-44.4,5.325,3.45,0.020000000000000018,2.552076309595777,2.1520450045523005,forward_fall
3.064127,-1.0205,1.3051,0.971,-1.1805,-0.4044,0.0924,-44.4,5.325,3.45,0.020000000000000018,1.9202987423835907,2.2082405647099668,forward_fall
3.084127,-0.7117,0.659,1.195,-1.1805,-0.4044,0.0924,-44.4,5.325,3.45,0.020000000000000018,1.5390980767969273,2.1860111373619975,forward_fall
3.104127,-0.6348,0.8918,1.4622,-1.1838,-0.1788,0.1138,-44.25,5.85,5.175,0.020000000000000018,1.826556081810794,2.1045343555903293,forward_fall
3.124127,-1.0726,1.6001,1.3637,-1.1838,-0.1788,0.1138,-44.25,5.85,5.175,0.020000000000000018,2.36018398859072,1.9870319052719043,forward_fall
3.144127,-1.16105,1.92735,1.1183,-1.1838,-0.1788,0.1138,-44.25,5.85,5.175,0.020000000000000018,2.5126300991192476,1.8584133704054902,forward_fall
3.164127,-1.5746,0.1777,-0.0174,-1.1838,-0.1788,0.1138,-44.025,5.475,6.075,0.020000000000000018,1.5846908878390131,1.7455864776577183,forward_fall
3.184127,-1.1492,-0.6103,0.7638,-1.2933,0.2634,0.1466,-44.025,5.475,6.075,0.020000000000000018,1.5088131660348143,1.6761603065588504,forward_fall
3.204127,-0.58,0.001,1.0623,-1.2933,0.2634,0.1466,-44.025,5.475,6.075,0.020000000000000018,1.2103232171614324,1.6738220888114081,forward_fall
3.224127,-0.3258,0.2624,1.5793,-1.2933,0.2634,0.1466,-44.025,5.475,6.075,0.020000000000000018,1.6337649433134498,1.753065248857075,forward_fall
3.244127,-0.5437,1.0578,2.164,-1.5606,0.2141,0.2237,-43.35,5.325,4.8,0.020000000000000018,2.4693008180454648,1.9171947811801127,forward_fall
3.264127,-0.4726,1.73925,1.29655,-1.5606,0.2141,0.2237,-43.35,5.325,4.8,0.019999999999999574,2.220221436028398,2.1605348099278263,forward_fall
3.284127,-0.5502,2.0831,1.3479,-1.5606,0.2141,0.2237,-43.35,5.325,4.8,0.020000000000000018,2.5414287438368204,2.4719209480794646,forward_fall
3.304127,-0.4831,1.9364,1.8589,-1.5606,0.2141,0.2237,-44.25,5.25,5.775,0.020000000000000018,2.7273686549493084,2.8357535712693696,forward_fall
3.324127,-0.174,1.8349,2.383,-1.8115,0.0144,0.2164,-44.25,5.25,5.775,0.020000000000000018,3.012610663527566,3.2295435353245128,forward_fall
3.344127,0.1415,1.9219,3.6617,-1.8115,0.0144,0.2164,-44.25,5.25,5.775,0.020000000000000018,4.137845906990738,3.620250465765208,forward_fall
3.364127,0.5245,1.7939,2.5825,-1.8115,0.0144,0.2164,-44.25,5.25,5.775,0.020000000000000018,3.187865070858552,3.9633626268697597,forward_fall
3.384127,0.3341,2.0682,3.4731,-2.0502,-0.0173,0.2007,-43.95,5.775,6.975,0.020000000000000018,4.056044583088307,4.208454675086147,forward_fall
3.404127,0.3882,1.6786,3.6037,-2.0502,-0.0173,0.2007,-43.95,5.775,6.975,0.020000000000000018,3.994377409559592,4.313423910588734,forward_fall
3.424127,-0.3567,0.7424,4.4634,-2.0502,-0.0173,0.2007,-43.95,5.775,6.975,0.020000000000000018,4.538758884320691,4.266140262938437,forward_fall
3.444127,-0.57495,0.2931,4.88515,-2.0502,-0.0173,0.2007,-44.025,6.3,6.9,0.020000000000000018,4.927592275645378,4.106536577761639,forward_fall
3.464127,-0.5359,-0.1929,5.2737,-2.2994,0.1687,0.1074,-44.025,6.3,6.9,0.020000000000000018,5.304367154524656,3.9368111488991278,forward_fall
3.484127,-0.5644,-0.2503,3.9052,-2.2994,0.1687,0.1074,-44.025,6.3,6.9,0.020000000000000018,3.953705159720436,3.90748599229272,forward_fall
3.504127,-0.8663,-1.1579,2.3451,-2.2994,0.1687,0.1074,-44.025,6.3,6.9,0.020000000000000018,2.7551228847367226,4.176181374616241,forward_fall
3.524127,-0.37815,-2.135,2.77075,-2.5842,-0.1332,0.0819,-42.75,6.15,7.05,0.020000000000000018,3.518277701518173,4.851511116222029,forward_fall
3.544127,0.904,-3.4309,3.9149,-2.5842,-0.1332,0.0819,-42.75,6.15,7.05,0.020000000000000018,5.283439487682243,5.94651191463735,forward_fall
3.564127,1.236,-4.427,7.2446,-2.5842,-0.1332,0.0819,-42.75,6.15,7.05,0.020000000000000018,8.579641843340548,7.364021199758348,forward_fall
3.584127,1.5139,-2.4632,9.3362,-2.5842,-0.1332,0.0819,-43.05,5.1,7.95,0.020000000000000018,9.773631765623257,8.91996655850843,forward_fall
3.604127,1.6694,1.1992,9.4497,-2.6407,-0.5947,0.0188,-43.05,5.1,7.95,0.020000000000000018,9.670667354945056,10.391332211807647,forward_fall
3.624127,2.9143,0.3093,13.30525,-2.6407,-0.5947,0.0188,-43.05,5.1,7.95,0.020000000000000018,13.624187628717538,11.566894496625183,forward_fall
3.644127,1.5407,2.3243,11.284,-2.6407,-0.5947,0.0188,-43.05,5.1,7.95,0.020000000000000018,11.623458305513036,12.284049050346988,forward_fall
3.664127,-4.398,9.8797,-0.625,-1.0508,0.1472,-0.0029,-42.9,4.425,9.75,0.020000000000000018,10.832428217625077,12.448214002406894,forward_fall
3.684127,-6.2163,1.8596,-5.1769,-1.0508,0.1472,-0.0029,-42.9,4.425,9.75,0.020000000000000018,8.300650062495105,12.044121600328063,forward_fall
3.704127,-10.4959,1.8307,-10.2678,-1.0508,0.1472,-0.0029,-42.9,4.425,9.75,0.020000000000000018,14.796725858783761,11.15174782893275,forward_fall
3.724127,4.8641,7.9955,-11.0071,-1.0508,0.1472,-0.0029,-43.35,3.825,10.65,0.020000000000000018,14.447966620600976,9.966798223952578,forward_fall
3.744127,4.2905,3.4743,-0.6412,1.4705,-1.6404,0.0686,-43.35,3.825,10.65,0.020000000000000018,5.557903217941097,8.804568118506944,forward_fall
3.764127,-3.268,5.6661,-4.8789,1.4705,-1.6404,0.0686,-43.35,3.825,10.65,0.019999999999999574,8.160157989892108,8.059683459090817,forward_fall
3.784127,-5.4612,1.4794,-6.9247,1.4705,-1.6404,0.0686,-41.7,5.475,13.05,0.020000000000000018,8.942303947529405,8.113655990281359,forward_fall
3.804127,11.8882,-0.8541,-2.4256,0.606,-0.3341,0.0815,-41.7,5.475,13.05,0.020000000000000018,12.163154254139835,9.210337195293805,forward_fall
3.824127,-0.9633,-2.918,-4.8601,0.606,-0.3341,0.0815,-41.7,5.475,13.05,0.020000000000000018,5.7500645996371205,11.336619349175166,forward_fall
3.844127,-10.4926,2.6304,-7.5548,0.606,-0.3341,0.0815,-41.7,5.475,13.05,0.020000000000000018,13.194266253187404,14.153020177265747,forward_fall
3.864127,-6.383,5.146,-8.997,0.606,-0.3341,0.0815,-41.55,4.875,12.15,0.020000000000000018,12.172510587385004,17.019844764259602,forward_fall
3.884127,-2.5739,2.8654,-16.1295,1.4642,0.9422,-0.4855,-41.55,4.875,12.15,0.020000000000000018,16.583010843028475,19.146672288188142,forward_fall
3.904127,4.2399,9.8028,-25.6609,1.4642,0.9422,-0.4855,-41.55,4.875,12.15,0.020000000000000018,27.794845361325546,19.843106614741963,forward_fall
3.924127,-3.5377,4.0493,-33.8589,1.4642,0.9422,-0.4855,-41.55,4.6875,10.5,0.020000000000000018,34.283192106191045,18.780835458514748,forward_fall
3.944127,-1.5165,3.0593,-11.7046,-1.4257,-0.1941,-0.0156,-41.55,4.5,8.85,0.020000000000000018,12.19248743694247,16.137160955332106,forward_fall
3.964127,-0.047,-1.5283,-3.3283,-1.4257,-0.1941,-0.0156,-41.55,4.5,8.85,0.020000000000000018,3.662716311700921,12.52926657360746,forward_fall
3.984127,0.001,-1.4423,2.1971,-1.4257,-0.1941,-0.0156,-41.55,4.5,8.85,0.020000000000000018,2.6282082680031276,8.764120040224816,forward_fall
4.004127,0.4015,1.5239,4.6062,-1.4257,-0.1941,-0.0156,-41.025,3.075,9.075,0.020000000000000462,4.868321260968713,5.539079065849264,forward_fall
4.024127,1.5836,1.34405,5.92875,-2.3049,-0.1431,0.173,-41.025,3.075,9.075,0.019999999999999574,6.28206462279719,3.2427885428985777,forward_fall
4.044127,1.1501,0.478,4.8468,-2.3049,-0.1431,0.173,-41.025,3.075,9.075,0.019999999999999574,5.004266604608511,1.9225459882117493,forward_fall
4.064127,0.3963,1.2461,0.5901,-2.3049,-0.1431,0.173,-40.725,2.775,10.05,0.020000000000000462,1.4345859716308396,1.3824368123506021,forward_fall
4.084127,0.8022,1.1416,1.2491,-0.6087,0.1481,-0.0154,-40.725,2.775,10.05,0.019999999999999574,1.8727055855099062,1.3278931093567767,forward_fall
4.104127,-0.3549,1.3477,0.5492,-0.6087,0.1481,-0.0154,-40.725,2.775,10.05,0.020000000000000462,1.4979552530032396,1.485416236796552,forward_fall
4.124127,-0.2665,1.3233,-0.1235,-0.6087,0.1481,-0.0154,-40.725,2.775,10.05,0.019999999999999574,1.3555063223755173,1.6662482858094334,forward_fall
4.144127,-0.2934,1.2354,0.0784,-0.6087,0.1481,-0.0154,-41.025,2.1,10.5,0.020000000000000462,1.272180521781402,1.7767688302569444,forward_fall
4.164127,-0.2203,1.1506,-0.6863,0.2773,0.0464,-0.0308,-41.025,2.1,10.5,0.019999999999999574,1.35772609166945,1.7953484268379638,forward_fall
4.184127,-0.1995,0.4671,-1.2109,0.2773,0.0464,-0.0308,-41.025,2.1,10.5,0.020000000000000462,1.3131113699911368,1.7384607640691305,forward_fall
4.204127,-0.3302,0.2035,-1.7626,0.2773,0.0464,-0.0308,-40.9875,2.25,10.275,0.019999999999999574,1.8047722986570909,1.6332200998115498,forward_fall
4.224127,-0.3002,-0.1496,-2.2545,0.1463,0.0002,-0.0006,-40.95,2.4,10.05,0.020000000000000462,2.279313591851723,1.503445321338241,forward_fall
4.244127,-0.2529,0.20685,-1.698,0.1463,0.0002,-0.0006,-40.95,2.4,10.05,0.019999999999999574,1.7291469956310828,1.366633862977021,forward_fall
4.264127,0.2777,0.1188,-0.3057,0.1463,0.0002,-0.0006,-40.95,2.4,10.05,0.020000000000000462,0.4297478563064626,1.2346438141217837,forward_fall
4.284127,0.2867,-0.6074,0.776,0.0264,0.0657,0.0187,-41.55,2.325,9.15,0.019999999999999574,1.0263077754747842,1.1131667772737277,forward_fall
4.304127,-0.1534,-0.6928,0.6258,-0.0935,0.1312,0.038,-41.55,2.325,9.15,0.020000000000000462,0.9461125937223328,1.0005843125633043,forward_fall
4.324127,-0.2439,-0.4994,0.8479,-0.0935,0.1312,0.038,-41.55,2.325,9.15,0.019999999999999574,1.0138155552170227,0.8894900386494605,forward_fall
4.344127,-0.0732,-0.0494,1.0963,-0.0935,0.1312,0.038,-41.25,2.475,8.85,0.020000000000000462,1.099851030821902,0.7719026293704587,forward_fall
4.364127,-0.0592,0.2057,0.7724,0.0081,-0.0516,0.0217,-41.25,2.475,8.85,0.019999999999999574,0.8015103804692737,0.6453495844884578,forward_fall
4.384127,-0.0492,0.16765,0.29975,0.0081,-0.0516,0.0217,-41.25,2.475,8.85,0.020000000000000462,0.3469542116764113,0.5157392929702648,forward_fall
4.404127,0.0469,0.1817,0.0342,0.0081,-0.0516,0.0217,-41.25,2.475,8.85,0.019999999999999574,0.19074627126106553,0.39518217501807495,forward_fall
4.424127,0.0192,0.1698,-0.0593,0.0081,-0.0516,0.0217,-40.95,2.625,8.775,0.020000000000000462,0.18087888212834577,0.2964912186195879,forward_fall
4.444127,-0.0206,0.2525,-0.0247,-0.0409,-0.1122,0.0125,-40.95,2.625,8.775,0.019999999999999574,0.2545401736465189,0.22807277412776014,forward_fall
4.464127,-0.1034,0.24285,-0.09735,-0.0409,-0.1122,0.0125,-40.95,2.625,8.775,0.020000000000000462,0.2813266873227636,0.192021022405833,forward_fall
4.484127,-0.0498,0.2613,-0.0382,-0.0409,-0.1122,0.0125,-40.9875,2.925,9.2625,0.019999999999999574,0.26873215289577834,0.18558831030142914,forward_fall
4.504127,0.0114,0.1666,0.3489,0.0118,-0.1747,-0.0032,-41.025,3.225,9.75,0.020000000000000462,0.3868032187042915,0.2040174680915707,forward_fall
4.524127,0.0312,-0.0698,0.0429,0.0118,-0.1747,-0.0032,-41.025,3.225,9.75,0.019999999999999574,0.08766920782121851,0.2423668608143338,forward_fall
4.544127,-0.0386,0.013,-0.2066,0.0118,-0.1747,-0.0032,-41.025,3.225,9.75,0.019999999999999574,0.2105766368807328,0.29532299544809465,forward_fall
4.564127,-0.0663,0.2259,0.0022,0.0118,-0.1747,-0.0032,-40.2,3.45,9.9,0.020000000000000462,0.2354386119564928,0.35589755879985974,forward_fall
4.584127,0.1376,0.2975,0.3579,0.3448,-0.2798,-0.0148,-40.2,3.45,9.9,0.019999999999999574,0.4853168243529169,0.4148995110169522,forward_fall
4.604127,0.2928,0.175,0.3222,0.3448,-0.2798,-0.0148,-40.2,3.45,9.9,0.020000000000000462,0.4692224206066884,0.46245196726699234,forward_fall
4.624127,0.1509,0.2753,-0.4093,0.3448,-0.2798,-0.0148,-40.5,2.7,10.65,0.019999999999999574,0.5158365923429628,0.4911811594558098,forward_fall
4.644127,-0.07,0.3174,-0.6915,0.4334,-0.2219,0.0371,-40.5,2.7,10.65,0.020000000000000462,0.7640778821560011,0.4993131348054582,forward_fall
4.664127,0.1594,0.2095,0.3599,0.4334,-0.2219,0.0371,-40.5,2.7,10.65,0.019999999999999574,0.4458997869476952,0.49165651256226756,forward_fall
4.684127,0.3275,0.1046,0.1054,0.4334,-0.2219,0.0371,-40.5,2.7,10.65,0.020000000000000462,0.3595922273909713,0.47749275123490376,forward_fall
4.704127,-0.0148,0.0855,0.1753,0.4334,-0.2219,0.0371,-40.95,2.7,11.25,0.019999999999999574,0.19560005112473772,0.46627553013192335,forward_fall
4.724127,0.1273,-0.1204,0.4042,0.274,0.022,0.1435,-40.95,2.7,11.25,0.020000000000000462,0.44054408405969997,0.46357026232335347,forward_fall
4.744127,-0.5805,0.387,-0.506,0.274,0.022,0.1435,-40.95,2.7,11.25,0.019999999999999574,0.8618498999245751,0.46947693856948247,forward_fall
4.764127,-0.3311,0.0949,0.2301,0.274,0.022,0.1435,-40.95,2.7,11.25,0.020000000000000462,0.4142212331592865,0.4798299317953769,forward_fall
4.784127,-0.3448,-0.0632,0.2593,0.0774,-0.0113,0.1756,-40.95,4.05,11.1,0.019999999999999574,0.43602496488159936,0.4885627178650424,forward_fall
4.804127,-0.454,-0.0438,0.04265,0.0774,-0.0113,0.1756,-40.95,4.05,11.1,0.020000000000000462,0.45809765607346214,0.4895657235093807,forward_fall
4.824127,-0.1788,0.009,-0.3383,0.0774,-0.0113,0.1756,-40.95,4.05,11.1,0.019999999999999574,0.38274969627682265,0.4778486700995599,forward_fall
4.844127,-0.3179,-0.0428,-0.3689,-0.0192,-0.0861,-0.0394,-40.95,4.5,11.475,0.020000000000000462,0.4888552546511084,0.45103133504893284,forward_fall
4.864127,-0.06,-0.0508,-0.2468,-0.0192,-0.0861,-0.0394,-40.95,4.5,11.475,0.019999999999999574,0.2590190726568219,0.4120525457644635,forward_fall
4.884127,0.1818,0.0053,-0.2923,-0.0192,-0.0861,-0.0394,-40.95,4.5,11.475,0.020000000000000462,0.3442653337180495,0.3728384133541064,forward_fall
4.904127,0.5512,0.0752,-0.6062,-0.0192,-0.0861,-0.0394,-40.05,3.675,10.65,0.019999999999999574,0.8227727025126684,0.3572077627504544,forward_fall
4.924127,0.4919,0.2078,-0.1068,0.1191,-0.0418,-0.1278,-40.05,3.675,10.65,0.020000000000000462,0.5445665156801325,0.40012425417566927,non_fall
4.944127,0.5121,0.0879,-0.1936,0.1191,-0.0418,-0.1278,-40.05,3.675,10.65,0.019999999999999574,0.5544851485838012,0.5405324770268422,non_fall
4.964127,0.45005,-0.0433,-0.619,0.1191,-0.0418,-0.1278,-40.05,3.675,10.65,0.020000000000000462,0.7665382524701556,0.807449148926082,non_fall
4.984127,0.1908,-0.1013,-0.485,0.4135,0.1773,0.0634,-40.35,3.825,11.25,0.019999999999999574,0.5309343933105106,1.2031903038887648,non_fall
5.004127,0.0585,-0.6175,1.7818,0.4135,0.1773,0.0634,-40.35,3.825,11.25,0.020000000000000462,1.8866742538127774,1.6911221982030562,non_fall
5.024127,-0.0309,-0.13445,-1.485,0.4135,0.1773,0.0634,-40.35,3.825,11.25,0.019999999999999574,1.491394184144487,2.1955030825330453,non_fall
5.044127,-0.5474,-0.2037,-2.6883,0.4135,0.1773,0.0634,-40.5,4.1625,10.9125,0.019999999999999574,2.75101750994064,2.617064566018547,non_fall
5.064127,-1.6249,-0.1613,-3.036,0.9795,0.5762,0.2669,-40.65,4.5,10.575,0.020000000000000462,3.4472617684185227,2.8613170999866027,non_fall
5.084127,-2.48425,-0.85545,-2.577,0.9795,0.5762,0.2669,-40.65,4.5,10.575,0.019999999999999574,3.68024751409467,2.869828321268011,non_fall
5.104127,-1.67265,-1.2255,-1.8449,0.9795,0.5762,0.2669,-40.65,4.5,10.575,0.020000000000000462,2.7754755056566434,2.6414244189731346,non_fall
5.124127,1.7761,-0.1917,-0.2049,0.9795,0.5762,0.2669,-40.2,5.85,9.0,0.019999999999999574,1.79812794594823,2.2334649524779473,non_fall
5.144127,1.341,0.02415,0.0278,1.1003,0.1915,0.2413,-40.2,5.85,9.0,0.020000000000000462,1.3415055208607976,1.7425155555701275,non_fall
5.164127,0.72,0.5142,0.0776,1.1003,0.1915,0.2413,-40.2,5.85,9.0,0.019999999999999574,0.8881573058867444,1.273483928627114,non_fall
5.184127,1.0214,0.5376,0.4648,1.1003,0.1915,0.2413,-41.025,7.2,8.25,0.020000000000000462,1.2443113597488373,0.9103465664129284,non_fall
5.204127,0.2309,0.2342,-0.1524,1.1001,0.144,0.3124,-41.025,7.2,8.25,0.019999999999999574,0.3624778751868864,0.6983666544795963,non_fall
5.224127,-0.9512,-0.1265,-0.4826,1.1001,0.144,0.3124,-41.025,7.2,8.25,0.020000000000000462,1.0740979703919005,0.6408356549246604,non_fall
5.244127,-0.4438,0.4996,-0.1178,1.1001,0.144,0.3124,-41.025,7.2,8.25,0.019999999999999574,0.6785539330075392,0.7076178265324736,non_fall
5.264127,-0.0847,-0.0289,-0.2051,1.0087,0.2801,0.23,-40.35,8.4,7.35,0.020000000000000462,0.22377513266670182,0.850290244486679,non_fall
5.284127,-0.9612,-0.2614,-1.4715,1.0087,0.2801,0.23,-40.35,8.4,7.35,0.019999999999999574,1.7769489722555345,1.0186650479247115,non_fall
5.304127,-1.1941,0.0121,-1.4474,1.0087,0.2801,0.23,-40.35,8.4,7.35,0.020000000000000462,1.8764295830113105,1.1740907838536623,non_fall
5.324127,-0.55,-0.1194,-0.0269,1.0087,0.2801,0.23,-40.2,9.6,6.45,0.019999999999999574,0.5634536094480184,1.2956816894397962,non_fall
5.344127,-0.6063,0.0158,-0.7711,0.6518,0.1165,0.2291,-40.2,9.6,6.45,0.020000000000000462,0.981042578077017,1.378092556094266,non_fall
5.364127,-0.7287,0.0076,-1.2851,0.6518,0.1165,0.2291,-40.2,9.6,6.45,0.019999999999999574,1.4773433791776371,1.423865503903671,non_fall
5.384127,-0.9074,0.5255,-1.3678,0.6518,0.1165,0.2291,-40.2,9.6,6.45,0.020000000000000462,1.723485378528057,1.4361754938469937,non_fall
5.404127,-0.2667,0.8187,-1.0559,0.3644,0.1251,0.2805,-40.725,10.275,5.55,0.019999999999999574,1.3624695923212378,1.4160599749343719,non_fall
5.424127,-0.8536,-0.1394,-0.4655,0.3644,0.1251,0.2805,-40.725,10.275,5.55,0.020000000000000462,0.9822197157459222,1.3641218664912054,non_fall
5.444127,-0.7277,-0.1211,-1.6669,0.3644,0.1251,0.2805,-40.725,10.275,5.55,0.019999999999999574,1.8228461564268117,1.2841803243230938,non_fall
5.464127,-0.1788,0.768,-1.1624,0.3644,0.1251,0.2805,-40.8,11.625,4.95,0.020000000000000462,1.4046235082754384,1.1860581848617724,non_fall
5.484127,0.3487,0.6097,-0.4225,0.2483,0.0102,0.3172,-40.8,11.625,4.95,0.019999999999999574,0.8196536036643772,1.0853199532191684,non_fall
5.504127,-0.5952,-0.2583,0.5242,0.2483,0.0102,0.3172,-40.8,11.625,4.95,0.020000000000000462,0.8341268308836491,0.9992841762067625,non_fall
5.524127,-0.5674,-0.0695,0.2215,0.2483,0.0102,0.3172,-40.7625,12.3,4.65,0.019999999999999574,0.6130540432947164,0.9411217070206519,non_fall
5.544127,0.7674,1.0807,-0.351,0.1938,-0.1753,0.2236,-40.725,12.975,4.35,0.019999999999999574,1.3711368458326834,0.9154376945903853,non_fall
5.564127,0.5645,0.557,-0.4344,0.1938,-0.1753,0.2236,-40.725,12.975,4.35,0.020000000000000462,0.9042193373291681,0.9176107578843113,non_fall
5.584127,-0.09645,-0.10665,-0.8608,0.1938,-0.1753,0.2236,-40.725,12.975,4.35,0.019999999999999574,0.8727276006864914,0.9364485733256772,non_fall
5.604127,0.1898,0.49595,-0.7084,0.1938,-0.1753,0.2236,-40.05,13.5,4.875,0.020000000000000462,0.8853366605421917,0.9581518987111063,non_fall
5.624127,-0.1826,0.8936,-0.7155,0.08,-0.1353,0.1315,-40.05,13.5,4.875,0.019999999999999574,1.1592255906423046,0.9700770629452229,non_fall
5.644127,-0.2313,0.2787,-0.62,0.08,-0.1353,0.1315,-40.05,13.5,4.875,0.020000000000000462,0.7180343863632159,0.9639460076402276,non_fall
5.664127,0.7347,0.0942,-0.5183,0.08,-0.1353,0.1315,-39.9,13.95,5.0625,0.019999999999999574,0.904042377325311,0.9386396629164467,non_fall
5.684127,0.16655,0.4538,-0.8215,-0.0269,0.0316,0.0811,-39.75,14.4,5.25,0.020000000000000462,0.9531713342836113,0.9024359916453505,non_fall
5.704127,-0.5782,0.6882,-0.8262,-0.0269,0.0316,0.0811,-39.75,14.4,5.25,0.019999999999999574,1.2208771109329555,0.8737878186238939,non_fall
5.724127,-0.2402,0.6709,-0.6172,-0.0269,0.0316,0.0811,-39.75,14.4,5.25,0.020000000000000462,0.9427293832272334,0.8788958863181525,non_fall
5.744127,0.8725,0.17965,-0.34855,-0.0269,0.0316,0.0811,-40.35,14.625,5.25,0.019999999999999574,0.956565457770664,0.9445210152537054,non_fall
5.764127,0.9194,0.61865,0.1414,-0.0765,0.1614,-0.0712,-40.35,14.625,5.25,0.020000000000000462,1.1171473235433185,1.0866237988800715,non_fall
5.784127,0.1789,0.6987,-0.2273,-0.0765,0.1614,-0.0712,-40.35,14.625,5.25,0.019999999999999574,0.7562090914555312,1.2988481041274926,non_fall
5.804127,-0.2219,-0.0707,-0.7379,-0.0765,0.1614,-0.0712,-40.5,14.8125,5.1,0.020000000000000462,0.7737793677786969,1.5474617950104674,non_fall
5.824127,1.1498,0.2659,0.8893,-0.0018,0.4291,-0.1799,-40.65,15.0,4.95,0.019999999999999574,1.4777000169181835,1.7786988505288686,non_fall
5.844127,1.6968,1.5423,3.0441,-0.0018,0.4291,-0.1799,-40.65,15.0,4.95,0.020000000000000462,3.81108440473312,1.938919128070352,non_fall
5.864127,1.1628,2.0594,1.0146,-0.0018,0.4291,-0.1799,-40.65,15.0,4.95,0.019999999999999574,2.5734500888884555,1.9992765953103777,non_fall
5.884127,-0.3827,1.0942,0.8785,-0.0409,0.6733,-0.36065,-40.95,14.025,3.75,0.020000000000000462,1.4544741936521253,1.971214563155534,non_fall
5.904127,0.0636,-0.7465,0.367,-0.08,0.9175,-0.5414,-40.95,14.025,3.75,0.019999999999999574,0.8342638731240855,1.9035596913123558,non_fall
5.924127,1.3772,-0.574,0.5976,-0.08,0.9175,-0.5414,-40.95,14.025,3.75,0.020000000000000462,1.607259033261285,1.8638715949503228,non_fall
5.944127,2.4302,0.6942,1.2792,-0.08,0.9175,-0.5414,-41.25,12.6,1.8,0.019999999999999574,2.8326910032688,1.915256129551311,non_fall
5.964127,1.6446,1.3842,0.6852,-0.3557,0.668,-0.6855,-41.25,12.6,1.8,0.020000000000000462,2.2561511119603668,2.098094241109598,non_fall
5.984127,-0.4385,2.38815,-1.19225,-0.3557,0.668,-0.6855,-41.25,12.6,1.8,0.019999999999999574,2.704995884470067,2.418773578949503,non_fall
6.004127,1.0235,0.6012,-1.1863,-0.3557,0.668,-0.6855,-41.25,12.6,1.8,0.020000000000000462,1.6781839529682077,2.8439700237461314,non_fall
6.024127,-1.64765,1.4579,1.932,-0.3557,0.668,-0.6855,-42.75,10.5,0.375,0.019999999999999574,2.927942440093384,3.30190467594451,non_fall
6.044127,-2.375,2.584,1.0818,-0.5942,1.0565,-0.6912,-42.75,10.5,0.375,0.019999999999999574,3.6725974786246316,3.695252464329847,non_fall
6.064127,-3.3728,2.3671,-1.0561,-0.5942,1.0565,-0.6912,-42.75,10.5,0.375,0.020000000000000462,4.253738292372957,3.927421570480638,non_fall
6.084127,-4.2049,1.8191,2.7939,-0.5942,1.0565,-0.6912,-42.6,9.3,-2.625,0.019999999999999574,5.366207788559813,3.935158308655575,non_fall
6.104127,-1.5948,1.0062,3.7621,-0.8747,0.1387,-0.2741,-42.6,9.3,-2.625,0.020000000000000462,4.208232632590551,3.7129098852023596,non_fall
6.124127,0.7203,1.1602,2.1185,-0.8747,0.1387,-0.2741,-42.6,9.3,-2.625,0.019999999999999574,2.5205035965060634,3.315453262703995,non_fall
6.144127,0.5647,0.5968,1.799,-0.8747,0.1387,-0.2741,-42.6,9.3,-2.625,0.020000000000000462,1.9777404607278477,2.836174340306939,non_fall
6.164127,-0.8174,-0.9359,1.7653,-0.8251,-0.422,-0.24625,-42.9,8.7,-1.05,0.019999999999999574,2.158781058838529,2.3720976724665523,non_fall
6.184127,-1.42495,-1.11845,0.2751,-0.7755,-0.9827,-0.2184,-42.9,8.7,-1.05,0.020000000000000462,1.832237133943093,1.99325101985644,non_fall
6.204127,-0.2791,-1.3011,1.8928,-0.7755,-0.9827,-0.2184,-42.9,8.7,-1.05,0.019999999999999574,2.3137523333321566,1.7290528499070683,non_fall
6.224127,-1.22445,-0.5134,0.4129,-0.7755,-0.9827,-0.2184,-42.9,8.7,-1.05,0.020000000000000462,1.3904473282005327,1.5732814288905166,non_fall
6.244127,-0.35925,-1.2559,-1.2709,-0.4241,-1.0988,-0.2472,-43.35,8.55,2.25,0.019999999999999574,1.8225071145265799,1.5001683927523806,non_fall
6.264127,-0.422,-1.4223,-1.4086,-0.4241,-1.0988,-0.2472,-43.35,8.55,2.25,0.020000000000000462,2.045770087277649,1.481423894724376,non_fall
6.284127,-0.4475,-0.8715,-0.6763,-0.4241,-1.0988,-0.2472,-43.35,8.55,2.25,0.019999999999999574,1.1904411745231263,1.496604267446464,non_fall
6.304127,-0.5407,-0.5594,-0.0622,-0.36675,-1.0922,-0.21005,-43.5,7.575,6.45,0.020000000000000462,0.7804829850803924,1.5345603020818799,non_fall
6.324127,-0.6102,-1.4239,-0.4786,-0.3094,-1.0856,-0.1729,-43.5,7.575,6.45,0.019999999999999574,1.6213862001386343,1.589117697681851,non_fall
6.344127,-1.3908,-0.9689,-1.548,-0.3094,-1.0856,-0.1729,-43.5,7.575,6.45,0.020000000000000462,2.29551646694159,1.6545394297707197,non_fall
6.364127,-0.9777,-1.2057,0.2891,-0.3094,-1.0856,-0.1729,-43.05,7.95,9.9,0.019999999999999574,1.5789834039659822,1.7241137201537848,non_fall
6.384127,-0.3131,-1.341,1.1221,-0.0573,-1.2412,-0.1811,-43.05,7.95,9.9,0.020000000000000462,1.7763504778055486,1.7911530126649333,non_fall
6.404127,0.9305,-0.9652,0.7792,-0.0573,-1.2412,-0.1811,-43.05,7.95,9.9,0.019999999999999574,1.550675314177665,1.8501847712407884,non_fall
6.424127,1.1983,-1.4906,-0.0789,-0.0573,-1.2412,-0.1811,-43.05,7.95,9.9,0.020000000000000462,1.914167301987995,1.8976761902727346,non_fall
6.444127,0.7957,-0.4506,-1.8346,0.5198,-0.9974,-0.1675,-42.15,7.575,13.875,0.019999999999999574,2.0498624368478975,1.9330222353308795,non_fall
6.464127,2.0185,-0.3875,-1.0823,0.5198,-0.9974,-0.1675,-42.15,7.575,13.875,0.020000000000000462,2.3229015885310336,1.9597032683157622,non_fall
6.484127,1.4261,-1.5166,-0.4022,0.5198,-0.9974,-0.1675,-42.15,7.575,13.875,0.019999999999999574,2.1202833796452776,1.9848706738875892,non_fall
6.504127,0.6364,-1.3594,-0.446,0.5198,-0.9974,-0.1675,-41.1,6.75,16.2,0.020000000000000462,1.5658509890791013,2.015716014578469,non_fall
6.524127,0.2932,-1.1388,-1.3613,0.8673,-0.3928,-0.2117,-41.1,6.75,16.2,0.019999999999999574,1.7988800321311036,2.053516655335001,non_fall
6.544127,0.78545,-0.84995,-1.57745,0.8673,-0.3928,-0.2117,-41.1,6.75,16.2,0.019999999999999574,1.9564496434868954,2.0890459239575394,non_fall
6.564127,-1.7616,-2.0762,-0.1066,0.8673,-0.3928,-0.2117,-41.1,6.75,16.2,0.020000000000000462,2.724922853953851,2.103055553073044,non_fall
6.584127,0.923,-1.5429,0.7101,1.1598,0.2243,-0.1779,-40.8,7.875,17.25,0.019999999999999574,1.9330575314770122,2.0723649892517324,non_fall
6.604127,-0.0518,-1.5907,0.5564,1.1598,0.2243,-0.1779,-40.8,7.875,17.25,0.020000000000000462,1.6859984252661686,1.9787109166861467,non_fall
6.624127,-0.28915,-1.7935,0.2999,1.1598,0.2243,-0.1779,-40.8,7.875,17.25,0.019999999999999574,1.8412468553944634,1.8167655838093195,non_fall
6.644127,-0.71345,-1.75395,0.44615,1.1598,0.2243,-0.1779,-41.55,9.525,16.8,0.020000000000000462,1.9453537795218636,1.5989635584669026,non_fall
6.664127,-0.56605,-1.42115,0.61025,1.3646,0.3389,-0.277,-41.55,9.525,16.8,0.019999999999999574,1.6469623515733443,1.3555390627143724,non_fall
6.684127,-0.5498,-0.867,0.395,1.3646,0.3389,-0.277,-41.55,9.525,16.8,0.020000000000000462,1.099997290905755,1.1283203206289638,non_fall
6.704127,-0.1344,-0.3295,0.4424,1.3646,0.3389,-0.277,-41.55,9.525,16.8,0.019999999999999574,0.5677599580808778,0.958443586959709,non_fall
6.724127,0.247,-0.15355,0.5572,1.4697,-0.0255,-0.3328,-42.6,9.675,15.075,0.020000000000000462,0.6285367471357582,0.8717100177843614,non_fall
6.744127,0.0974,0.0856,0.5359,1.4697,-0.0255,-0.3328,-42.6,9.675,15.075,0.019999999999999574,0.5513646071339727,0.8681501277238199,non_fall
6.764127,-0.6388,1.0008,0.0299,1.4697,-0.0255,-0.3328,-42.6,9.675,15.075,0.020000000000000462,1.1876700257226331,0.9215017711778133,non_fall
6.784127,-0.2236,1.188,-0.56,1.4697,-0.0255,-0.3328,-42.9,9.075,14.7,0.019999999999999574,1.3322691019459996,0.9896568906756423,non_fall
6.804127,0.3462,0.7408,-0.7576,1.5816,0.0347,-0.3705,-42.9,9.075,14.7,0.020000000000000462,1.114718278310713,1.0316878069841737,non_fall
6.824127,0.4362,0.4484,-0.0888,1.5816,0.0347,-0.3705,-42.9,9.075,14.7,0.019999999999999574,0.6318373524887556,1.0243835500552074,non_fall
6.844127,-0.2493,0.6225,-1.1473,1.5816,0.0347,-0.3705,-42.675,8.8875,14.1375,0.020000000000000462,1.3288920309791914,0.9724087237867404,non_fall
6.864127,-0.7585,1.0693,-0.1905,1.609,-0.0176,-0.3439,-42.45,8.7,13.575,0.019999999999999574,1.32476978754801,0.9092095532563566,non_fall
6.884127,-0.5466,0.2873,0.0889,1.609,-0.0176,-0.3439,-42.45,8.7,13.575,0.020000000000000462,0.6238718297855738,0.8883295478503003,non_fall
6.904127,-0.3258,0.05075,-0.3946,1.609,-0.0176,-0.3439,-42.45,8.7,13.575,0.019999999999999574,0.5142279285491989,0.966952469748433,non_fall
6.924127,-0.3669,0.4579,-1.4001,1.609,-0.0176,-0.3439,-42.15,8.7,12.45,0.020000000000000462,1.5180803766599447,1.1860461145316232,non_fall
6.944127,-0.3411,0.5274,-1.6879,1.8044,-0.2857,-0.4342,-42.15,8.7,12.45,0.019999999999999574,1.800973731068835,1.553253563738079,non_fall
6.964127,0.2601,-0.3169,-1.0567,1.8044,-0.2857,-0.4342,-42.15,8.7,12.45,0.020000000000000462,1.1334427687360311,2.0342757137846688,non_fall
6.984127,0.2569,-1.3447,-1.7212,1.8044,-0.2857,-0.4342,-42.15,8.7,12.45,0.019999999999999574,2.1992601346816616,2.5567214286398126,non_fall
7.004127,0.2153,-2.5062,-1.8679,2.0298,-0.42,-0.5611,-43.05,8.775,11.25,0.020000000000000462,3.1331203200643287,3.027960957185811,non_fall
7.024127,0.4103,-2.2934,-3.5273,2.0298,-0.42,-0.5611,-43.05,8.775,11.25,0.019999999999999574,4.22727748556917,3.3639656323878775,non_fall
7.044127,2.0491,-2.4025,-2.2599,2.0298,-0.42,-0.5611,-43.05,8.775,11.25,0.019999999999999574,3.883035548382219,3.5195585569371532,non_fall
7.064127,2.1325,-3.5387,-0.8191,2.0298,-0.42,-0.5611,-43.05,8.625,11.475,0.020000000000000462,4.211992254266382,3.5065039258868556,non_fall
7.084127,0.1991,-2.2562,2.2379,2.5999,-0.1245,-0.8045,-43.05,8.625,11.475,0.019999999999999574,3.1840659006999212,3.3893383654860547,non_fall
7.104127,-0.3048,0.0851,1.3796,2.5999,-0.1245,-0.8045,-43.05,8.625,11.475,0.020000000000000462,1.4154296909419413,3.259371481218998,non_fall
7.124127,-0.541,3.4463,0.7101,2.5999,-0.1245,-0.8045,-43.05,8.625,11.475,0.019999999999999574,3.560043075582092,3.1985860099252066,non_fall
7.144127,-0.9905,4.1504,0.1464,2.3776,0.217,-0.894,-43.35,7.725,9.75,0.020000000000000462,4.269466403427951,3.2494743676175863,non_fall
7.164127,-1.5837,2.0798,0.041,2.3776,0.217,-0.894,-43.35,7.725,9.75,0.019999999999999574,2.61445113360338,3.401531123166494,non_fall
7.184127,-0.6602,1.6924,2.7132,2.3776,0.217,-0.894,-43.35,7.725,9.75,0.020000000000000462,3.265200765649794,3.5959561498321184,non_fall
7.204127,-1.6129,2.8984,2.1989,2.3776,0.217,-0.894,-44.25,6.45,8.55,0.019999999999999574,3.9796143255345737,3.744611453626248,non_fall
7.224127,-0.8911,3.6734,1.0726,0.8077,-0.2269,-0.6605,-44.25,6.45,8.55,0.020000000000000462,3.929172626648007,3.757779835024824,non_fall
7.244127,1.1149,3.7098,-1.5133,0.8077,-0.2269,-0.6605,-44.25,6.45,8.55,0.019999999999999574,4.158809317581175,3.573706993943165,non_fall
7.264127,1.171,2.9691,-0.8587,0.8077,-0.2269,-0.6605,-44.25,6.45,8.55,0.020000000000000462,3.3051719319878052,3.181090013998856,non_fall
7.284127,0.6509,1.6199,1.5321,-0.8863,-0.4951,-0.3506,-43.8,5.475,9.0,0.019999999999999574,2.322730554756621,2.6270314455901955,non_fall
7.304127,-0.1331,0.9566,1.2161,-0.8863,-0.4951,-0.3506,-43.8,5.475,9.0,0.020000000000000462,1.5529643846527839,2.008360377352297,non_fall
7.324127,0.01455,1.65165,-0.5694,-0.8863,-0.4951,-0.3506,-43.8,5.475,9.0,0.019999999999999574,1.747104972518824,1.4501933078077758,non_fall
7.344127,0.0902,1.2794,-0.7761,-1.5681,-0.527,-0.2075,-43.125,3.825,11.55,0.020000000000000462,1.4991102727951668,1.078154153737889,non_fall
7.364127,0.2438,0.3546,1.1854,-2.2499,-0.5589,-0.0644,-43.125,3.825,11.55,0.019999999999999574,1.2610918919729839,0.9894593487382171,non_fall
7.384127,0.1958,-0.6108,0.0862,-2.2499,-0.5589,-0.0644,-43.125,3.825,11.55,0.020000000000000462,0.6471821381960414,1.226778352932509,non_fall
7.404127,-0.0087,-0.88125,-0.4373,-2.2499,-0.5589,-0.0644,-43.125,3.825,11.55,0.019999999999999574,0.9838234305504215,1.7605063938263668,non_fall
7.424127,-0.7893,-0.3554,-0.6577,-3.0884,-0.3654,0.1107,-42.825,2.25,13.875,0.020000000000000462,1.0871397978181094,2.4878282768273734,non_fall
7.444127,-2.9192,-3.7186,-1.1372,-3.0884,-0.3654,0.1107,-42.825,2.25,13.875,0.019999999999999574,4.862400481243807,3.254889742622387,non_fall
7.464127,1.1904,-4.8637,0.927,-3.0884,-0.3654,0.1107,-42.825,2.25,13.875,0.020000000000000462,5.092343159096802,3.8985620760657507,non_fall
7.484127,1.8247,-3.9978,-0.526,-3.0884,-0.3654,0.1107,-42.15,0.675,17.1,0.019999999999999574,4.425902272983442,4.292130929374493,non_fall
7.504127,1.9914,-3.2125,-1.1324,-2.5961,-0.2245,0.3738,-42.15,0.675,17.1,0.020000000000000462,3.94565076635021,4.375434710423144,non_fall
7.524127,1.1319,-3.2696,1.3059,-2.5961,-0.2245,0.3738,-42.15,0.675,17.1,0.019999999999999574,3.698223435651232,4.159118270186762,non_fall
7.544127,0.8012,-3.2197,1.0673,-2.5961,-0.2245,0.3738,-42.15,-0.6,19.05,0.019999999999999574,3.485329083458261,3.7072486765385717,non_fall
7.564127,0.8154,-2.7522,0.5369,-1.3755,0.2643,0.2578,-42.15,-0.6,19.05,0.020000000000000462,2.9202300611424437,3.1111455182927474,non_fall
7.584127,0.3898,-2.8773,-0.0893,-1.3755,0.2643,0.2578,-42.15,-0.6,19.05,0.019999999999999574,2.9049567673202987,2.4659536855958586,non_fall
7.604127,-0.0604,-2.2027,-0.0692,-1.3755,0.2643,0.2578,-42.15,-0.6,19.05,0.020000000000000462,2.2046142723841737,1.854712861750567,non_fall
7.624127,-0.143,-0.6147,-0.7514,-0.8122,0.37845,0.26,-41.925,-1.125,18.6,0.019999999999999574,0.9812782734780181,1.3389160892959375,non_fall
7.644127,0.0155,-0.4475,-0.4255,-0.2489,0.4926,0.2622,-41.925,-1.125,18.6,0.020000000000000462,0.6176947061453578,0.9532257939730897,non_fall
7.664127,0.2949,-0.5915,0.3401,-0.2489,0.4926,0.2622,-41.925,-1.125,18.6,0.019999999999999574,0.7433076550123778,0.7040529497232401,non_fall
7.684127,0.4993,-0.6244,-0.0982,-0.2489,0.4926,0.2622,-42.6,-1.275,17.175,0.020000000000000462,0.8054930725959101,0.5732497099439895,non_fall
7.704127,0.4843,-0.3187,-0.3141,0.1753,0.3679,0.2569,-42.6,-1.275,17.175,0.019999999999999574,0.6593746962084608,0.5268686424960588,non_fall
7.724127,0.1343,-0.0874,-0.2238,0.1753,0.3679,0.2569,-42.6,-1.275,17.175,0.020000000000000462,0.2752484150726394,0.526385081114583,non_fall
7.744127,-0.4874,0.3723,-0.3739,0.1753,0.3679,0.2569,-42.6,-1.275,17.175,0.019999999999999574,0.7183086105567718,0.5388082665633771,non_fall
7.764127,-0.6266,0.2765,-0.3123,0.1753,0.3679,0.2569,-43.35,-0.975,15.15,0.020000000000000462,0.752735743803893,0.5431575946838745,non_fall
7.784127,0.0095,-0.1178,0.3623,0.4936,0.2512,0.2129,-43.35,-0.975,15.15,0.019999999999999574,0.38108841493805606,0.5323502607736986,non_fall
7.804127,0.1948,-0.0002,0.2174,0.4936,0.2512,0.2129,-43.35,-0.975,15.15,0.020000000000000462,0.29190724554214137,0.5108701878159423,non_fall
7.824127,0.27785,0.4351,-0.09355,0.4936,0.2512,0.2129,-43.35,-0.975,15.15,0.019999999999999574,0.5246563017824145,0.4897990742659049,non_fall
7.844127,0.1311,0.592,-0.3837,0.6086,0.1959,0.1894,-43.05,-0.075,13.35,0.020000000000000462,0.7175492317604416,0.48138973578739197,non_fall
7.864127,0.2555,0.347,-0.2493,0.6086,0.1959,0.1894,-43.05,-0.075,13.35,0.019999999999999574,0.4978350530045067,0.4947381281975241,non_fall
7.884127,0.0403,0.0461,-0.21585,0.6086,0.1959,0.1894,-43.05,-0.075,13.35,0.020000000000000462,0.22436693718103834,0.5330743422146909,non_fall
7.904127,-0.2713,0.199,0.209,0.63425,0.2188,0.17695,-43.8,-0.15,12.75,0.019999999999999574,0.39608798265031975,0.5930023914949301,non_fall
7.924127,-0.45985,0.8703,0.28155,0.6599,0.2417,0.1645,-43.8,-0.15,12.75,0.020000000000000462,1.0237941760920501,0.6662222449066443,non_fall
7.944127,-0.356,0.9333,-0.0192,0.6599,0.2417,0.1645,-43.8,-0.15,12.75,0.019999999999999574,0.9990763384246472,0.7433898832742586,non_fall
7.964127,0.098,0.6781,0.053,0.6599,0.2417,0.1645,-43.65,1.2,11.475,0.020000000000000462,0.6871918291132397,0.8180740955861276,non_fall
7.984127,0.2603,0.6254,0.2006,0.7448,0.2892,0.1665,-43.65,1.2,11.475,0.019999999999999574,0.7064853926303076,0.8883884790423275,non_fall
8.004127,-0.0059,0.874,0.2703,0.7448,0.2892,0.1665,-43.65,1.2,11.475,0.020000000000000462,0.9148622300652706,0.9556859692419735,non_fall
8.024127,0.0393,1.0669,0.4173,0.7448,0.2892,0.1665,-43.65,1.2,11.475,0.019999999999999574,1.1462806767977902,1.0218229300181276,non_fall
8.044127,0.1156,1.0833,0.3852,0.73855,0.39085,0.139,-44.025,2.25,9.975,0.019999999999999574,1.1555437205056327,1.0868694196421038,non_fall
8.064127,0.1097,0.9791,0.1665,0.7323,0.4925,0.1115,-44.025,2.25,9.975,0.019999999999999574,0.9991962519945718,1.148084601412658,non_fall
8.084127,-0.2216,1.0016,0.1084,0.7323,0.4925,0.1115,-44.025,2.25,9.975,0.02000000000000135,1.0315326848917585,1.200147205658667,non_fall
8.104127,-0.5061,1.3428,0.394,0.7323,0.4925,0.1115,-43.5375,2.55,9.5625,0.019999999999999574,1.488114595721714,1.2365233335301775,non_fall
8.124127,-0.2427,1.33735,0.13535,0.7642,0.5223,0.0305,-43.05,2.85,9.15,0.019999999999999574,1.3659165183128872,1.2516232486425776,non_fall
8.144127,-0.2216,0.9277,0.7936,0.7642,0.5223,0.0305,-43.05,2.85,9.15,0.019999999999999574,1.2407799200502883,1.2427762973657779,non_fall
8.164127,-0.2994,0.7126,0.3373,0.7642,0.5223,0.0305,-43.05,2.85,9.15,0.02000000000000135,0.8433329176547065,1.2110093545015845,non_fall
8.184127,-0.5934,1.0836,-0.031,0.8094,0.4041,0.0052,-43.725,3.075,6.9,0.019999999999999574,1.2358290820335958,1.16061207370366,non_fall
8.204127,-0.1289,1.4285,-0.107,0.8094,0.4041,0.0052,-43.725,3.075,6.9,0.019999999999999574,1.4382894215004154,1.0983022505727802,non_fall
8.224127,-0.1832,1.0873,-0.0058,0.8094,0.4041,0.0052,-43.725,3.075,6.9,0.019999999999999574,1.1026409977866776,1.0323289189420828,non_fall
8.244127,-0.5109,0.3307,0.1177,0.8094,0.4041,0.0052,-43.9125,3.1875,6.3375,0.02000000000000135,0.6198665904854044,0.9710108955721769,non_fall
8.264127,-0.0992,0.6524,0.3745,0.8004,0.3715,-0.002,-44.1,3.3,5.775,0.019999999999999574,0.7587599422742347,0.9206763579453321,non_fall
8.284127,-0.1389,0.9175,0.3055,0.8004,0.3715,-0.002,-44.1,3.3,5.775,0.019999999999999574,0.9769491849630665,0.8842809074011954,non_fall
8.304127,-0.1922,1.0515,0.2124,0.8004,0.3715,-0.002,-44.1,3.3,5.775,0.019999999999999574,1.0898196410415808,0.8619687481281918,non_fall
8.324127,-0.002,1.0755,-0.0474,0.7805,0.3376,-0.0249,-43.5,3.9,3.675,0.02000000000000135,1.0765458699005814,0.8529669576934609,non_fall
8.344127,0.0905,0.7189,0.0544,0.7805,0.3376,-0.0249,-43.5,3.9,3.675,0.019999999999999574,0.7266132533886235,0.8566107610147695,non_fall
8.364127,-0.0424,0.592,0.2353,0.7805,0.3376,-0.0249,-43.5,3.9,3.675,0.019999999999999574,0.6384573987354206,0.8710611833739518,non_fall
8.384127,-0.1052,0.656,0.2255,0.7805,0.3376,-0.0249,-44.625,4.05,2.55,0.019999999999999574,0.7016076467656265,0.8908098729929558,non_fall
8.404127,-0.4064,0.7808,0.3385,0.7585,0.2785,-0.0869,-44.625,4.05,2.55,0.02000000000000135,0.9430757392701818,0.9057904898485734,non_fall
8.424127,-0.4915,0.9172,0.3218,0.7585,0.2785,-0.0869,-44.625,4.05,2.55,0.019999999999999574,1.089212252042732,0.9040028974926118,non_fall
8.444127,-0.2146,1.0914,0.2045,0.7585,0.2785,-0.0869,-44.625,4.05,2.55,0.019999999999999574,1.1309409224181428,0.8767163620368269,non_fall
8.464127,0.1338,0.7901,-0.01905,0.7585,0.2785,-0.0869,-44.025,4.125,1.8,0.019999999999999574,0.8015755438509835,0.8230403369128937,non_fall
8.484127,0.0176,0.5647,-0.0845,0.6377,0.2396,-0.0588,-44.025,4.125,1.8,0.02000000000000135,0.5712583478602303,0.7508746807952894,non_fall
8.504127,0.2264,0.5348,-0.0925,0.6377,0.2396,-0.0588,-44.025,4.125,1.8,0.019999999999999574,0.5880682358366247,0.673684224706546,non_fall
8.524127,0.247,0.6358,-0.283,0.6377,0.2396,-0.0588,-44.1,3.9,0.9,0.019999999999999574,0.7384711504182138,0.6050742384110949,non_fall
8.544127,-0.0613,0.4135,-0.0016,0.5232,0.1828,-0.0693,-44.1,3.9,0.9,0.019999999999999574,0.41802212860086724,0.5539395285903493,non_fall
8.564127,-0.295,0.2801,0.2833,0.5232,0.1828,-0.0693,-44.1,3.9,0.9,0.019999999999999574,0.4957215952528193,0.5220649976638234,non_fall
8.584127,-0.2686,0.2752,0.1279,0.5232,0.1828,-0.0693,-44.1,3.9,0.9,0.02000000000000135,0.40526461725642915,0.5046993291528403,non_fall
8.604127,0.502,0.659,0.0147,0.3714,0.082,-0.075,-44.25,3.975,-0.45,0.019999999999999574,0.8285536132321191,0.4934957612278101,non_fall
8.624127,0.11195,0.477,0.1082,0.3714,0.082,-0.075,-44.25,3.975,-0.45,0.019999999999999574,0.5017659240123825,0.48030112052600704,non_fall
8.644127,-0.3339,-0.1167,0.0675,0.3714,0.082,-0.075,-44.25,3.975,-0.45,0.019999999999999574,0.3600893639084609,0.45994383036780173,non_fall
8.664127,-0.0415,-0.1359,-0.0062,0.3714,0.082,-0.075,-44.1,3.225,-0.75,0.02000000000000135,0.1422304468108007,0.43103050460555564,non_fall
8.684127,-0.4741,-0.0622,0.4404,0.2987,0.0182,-0.098,-44.1,3.225,-0.75,0.019999999999999574,0.6500706192407099,0.39529626688454905,non_fall
8.704127,0.1907,0.0644,-0.2912,0.2987,0.0182,-0.098,-44.1,3.225,-0.75,0.019999999999999574,0.35399334739511706,0.35672620324404275,non_fall
8.724127,0.0717,0.3118,-0.099,0.2987,0.0182,-0.098,-44.1,3.225,-0.75,0.019999999999999574,0.33490465807450337,0.32089726749866915,non_fall
8.744127,0.1266,0.2618,0.2506,0.24615,0.0182,-0.0906,-44.925,2.625,-1.5,0.02000000000000135,0.3838843054879946,0.2939821953130767,non_fall
8.764127,0.0638,0.1743,-0.015,0.1936,0.0182,-0.0832,-44.925,2.625,-1.5,0.019999999999999574,0.18621474162912025,0.2808858662967122,non_fall
8.784127,-0.0604,-0.0199,-0.1535,0.1936,0.0182,-0.0832,-44.925,2.625,-1.5,0.019999999999999574,0.16615179806430022,0.282919708698383,non_fall
8.804127,-0.08775,0.21405,-0.0439,0.1936,0.0182,-0.0832,-45.0,2.4,-1.05,0.019999999999999574,0.23546692973748987,0.2962691954696029,non_fall
8.824127,-0.0463,0.129,-0.4197,0.1043,-0.0113,-0.0956,-45.0,2.4,-1.05,0.02000000000000135,0.44151192509376236,0.31248768718549985,non_fall
8.844127,0.13365,-0.1113,-0.2334,0.1043,-0.0113,-0.0956,-45.0,2.4,-1.05,0.019999999999999574,0.29107657497641404,0.32124532363894004,non_fall
8.864127,0.1393,0.0074,0.3654,0.1043,-0.0113,-0.0956,-45.075,2.4,-1.05,0.019999999999999574,0.3911219886429297,0.31423901968682716,non_fall
8.884127,-0.0635,0.04795,0.3724,-0.0076,-0.0437,-0.0434,-45.15,2.4,-1.05,0.019999999999999574,0.38080600376044493,0.28848112695438366,non_fall
8.904127,0.139,-0.0161,0.0744,-0.0076,-0.0437,-0.0434,-45.15,2.4,-1.05,0.02000000000000135,0.15847892604381192,0.24752737913830478,non_fall
8.924127,0.1155,-0.0618,0.0329,-0.0076,-0.0437,-0.0434,-45.15,2.4,-1.05,0.019999999999999574,0.13506257808882519,0.20024460096422536,non_fall
8.944127,-0.1155,0.025,0.1853,0.021,-0.0318,-0.0686,-44.55,2.325,-0.75,0.019999999999999574,0.21977565834277463,0.1578104175957808,non_fall
8.964127,-0.0881,0.0484,0.056,0.0496,-0.0199,-0.0938,-44.55,2.325,-0.75,0.019999999999999574,0.11506593761839339,0.1301958145073496,non_fall
8.984127,-0.0535,-0.0876,-0.0415,0.0496,-0.0199,-0.0938,-44.55,2.325,-0.75,0.02000000000000135,0.11071702669418106,0.12325023567180475,non_fall
9.004127,0.0344,0.0413,0.0037,0.0496,-0.0199,-0.0938,-44.85,2.625,-1.35,0.019999999999999574,0.05387708232634726,0.13707846806598586,non_fall
9.024127,0.0256,0.1967,0.0497,0.0391,-0.0049,-0.0713,-44.85,2.625,-1.35,0.019999999999999574,0.20449043987433743,0.16605388206763774,non_fall
9.044127,-0.2562,-0.0527,-0.057,0.0391,-0.0049,-0.0713,-44.85,2.625,-1.35,0.019999999999999574,0.26770268956437476,0.20048320666873615,non_fall
9.064127,-0.1014,-0.006,-0.0536,0.0391,-0.0049,-0.0713,-44.85,2.625,-1.35,0.019999999999999574,0.11485173050502984,0.22947777457810487,non_fall
9.084127,0.0834,0.1159,-0.34165,0.0391,-0.0049,-0.0713,-44.7,1.875,-0.75,0.02000000000000135,0.3702878508674029,0.24418525012993467,non_fall
9.104127,0.1679,-0.0255,-0.1355,0.027,-0.038,-0.0699,-44.7,1.875,-0.75,0.019999999999999574,0.21725770412116574,0.2404332387146439,non_fall
9.124127,-0.14895,0.2133,-0.0025,0.027,-0.038,-0.0699,-44.7,1.875,-0.75,0.019999999999999574,0.2601715635883368,0.2200050165860509,non_fall
9.144127,0.0941,0.04815,-0.15565,0.027,-0.038,-0.0699,-44.7,1.875,-0.75,0.019999999999999574,0.18814928912966958,0.19011901372510645,non_fall
9.164127,0.0566,-0.0073,-0.1013,-0.0238,-0.0522,-0.0478,-45.525,1.8,-0.3,0.02000000000000135,0.11626925646962744,0.16120766242700102,non_fall
9.184127,-0.0914,0.0801,-0.0735,-0.0238,-0.0522,-0.0478,-45.525,1.8,-0.3,0.019999999999999574,0.14202894071279978,0.14365908178693007,non_fall
9.204127,0.0461,0.1274,-0.0569,-0.0238,-0.0522,-0.0478,-45.525,1.8,-0.3,0.019999999999999574,0.14694754166028093,0.1445297259324564,non_fall
9.224127,0.06685,0.0789,-0.06255,-0.0238,-0.0522,-0.0478,-45.15,2.025,0.15,0.019999999999999574,0.12085791244266963,0.16520791231400894,non_fall
9.244127,0.2167,0.0498,-0.1185,-0.0505,-0.0154,-0.0275,-45.15,2.025,0.15,0.02000000000000135,0.2519547181538778,0.20069995853884418,non_fall
9.264127,-0.0025,0.0089,-0.1188,-0.0505,-0.0154,-0.0275,-45.15,2.025,0.15,0.019999999999999574,0.11915913729127113,0.24081826412568255,non_fall
9.284127,0.09625,0.0918,0.0704,-0.0505,-0.0154,-0.0275,-44.7,1.5,-0.525,0.019999999999999574,0.15049073891771547,0.27314669900892785,non_fall
9.304127,0.1555,0.0608,-0.6715,-0.0609,0.0246,-0.0425,-44.7,1.5,-0.525,0.019999999999999574,0.6919459082905253,0.287109204928618,non_fall
9.324127,0.0292,0.03,0.231,-0.0609,0.0246,-0.0425,-44.7,1.5,-0.525,0.02000000000000135,0.23476294426506072,0.27774072103188285,non_fall
9.344127,-0.1015,-0.0128,-0.1244,-0.0609,0.0246,-0.0425,-44.7,1.5,-0.525,0.019999999999999574,0.1610634967955185,0.247412717287878,non_fall
9.364127,0.022,-0.0751,-0.1902,-0.0804,0.01595,-0.0412,-44.925,1.05,-0.75,0.019999999999999574,0.205669759566155,0.20455656798703614,non_fall
9.384127,0.0155,0.017,-0.052,-0.0999,0.0073,-0.0399,-44.925,1.05,-0.75,0.019999999999999574,0.0568616742630746,0.16008171992236925,non_fall
9.404127,0.1391,-0.0217,0.0344,-0.0999,0.0073,-0.0399,-44.925,1.05,-0.75,0.02000000000000135,0.1449243250803674,0.12337262657603996,non_fall
9.424127,0.0879,-0.014,-0.0411,-0.0999,0.0073,-0.0399,-44.5875,1.0125,-0.75,0.019999999999999574,0.09803886984252726,0.0996412303814433,non_fall
9.444127,-0.0165,-0.0226,-0.0558,-0.0814,0.0156,-0.0293,-44.25,0.975,-0.75,0.019999999999999574,0.06242315275600873,0.08942498425973767,non_fall
9.464127,-0.0046,0.026,-0.1091,-0.0814,0.0156,-0.0293,-44.25,0.975,-0.75,0.019999999999999574,0.11224958797251774,0.08997365018956294,non_fall
9.484127,0.044,0.0473,-0.1553,-0.0814,0.0156,-0.0293,-44.25,0.975,-0.75,0.02000000000000135,0.16820041617070988,0.09758615996767547,non_fall
9.504127,-0.02,-0.0188,-0.1959,-0.053,0.02635,-0.03135,-44.55,1.125,-0.75,0.019999999999999574,0.19781367495701604,0.10970076550220223,non_fall
9.524127,0.0056,-0.0279,-0.0262,-0.0246,0.0371,-0.0334,-44.55,1.125,-0.75,0.019999999999999574,0.03868087382673768,0.12574262608160724,non_fall
9.544127,0.0507,-0.0847,-0.0011,-0.0246,0.0371,-0.0334,-44.55,1.125,-0.75,0.019999999999999574,0.09872076782521497,0.14643667464093607,non_fall
9.564127,-0.031,-0.0357,-0.1199,-0.0246,0.0371,-0.0334,-44.55,1.125,-0.75,0.019999999999999574,0.1288856081957951,0.1722134404746354,non_fall
9.584127,-0.1826,-0.0604,-0.1572,-0.0255,0.0414,-0.0296,-45.45,0.6,-0.45,0.02000000000000135,0.24840040257616333,0.2018271905353216,non_fall
9.604127,-0.2252,0.039,-0.0966,-0.0255,0.0414,-0.0296,-45.45,0.6,-0.45,0.019999999999999574,0.24812819267467373,0.23199629285426634,non_fall
9.624127,-0.22075,0.09145,-0.0811,-0.0255,0.0414,-0.0296,-45.45,0.6,-0.45,0.019999999999999574,0.2523308839599307,0.25812165669091564,non_fall
9.644127,-0.2175,0.1179,-0.0673,-0.01975,0.04055,-0.0186,-44.85,1.275,-0.6,0.019999999999999574,0.2563902299230608,0.27560382603357436,non_fall
9.664127,-0.25745,0.11385,-0.11295,-0.014,0.0397,-0.0076,-44.85,1.275,-0.6,0.02000000000000135,0.30331506309446615,0.2812179746964946,non_fall
9.684127,-0.1571,-0.2452,0.0517,-0.014,0.0397,-0.0076,-44.85,1.275,-0.6,0.019999999999999574,0.295763993751775,0.27417637392010874,non_fall
9.704127,-0.10105,-0.21215,-0.0512,-0.014,0.0397,-0.0076,-44.25,1.125,-1.125,0.019999999999999574,0.24049982328475839,0.25664341314907096,non_fall
9.724127,-0.15305,0.1317,-0.05575,0.0275,-0.0199,-0.0017,-44.25,1.125,-1.125,0.019999999999999574,0.20946898338417552,0.23356622300751778,non_fall
9.744127,-0.2111,0.0582,-0.0437,0.0275,-0.0199,-0.0017,-44.25,1.125,-1.125,0.02000000000000135,0.2232938422796294,0.21181368807959225,non_fall
9.764127,-0.316,0.0271,-0.03045,0.0275,-0.0199,-0.0017,-44.25,1.125,-1.125,0.019999999999999574,0.3186182865122465,0.19871619849649147,non_fall
9.784127,-0.1206,0.04225,0.0178,0.0534,-0.062,0.0102,-44.85,0.825,-1.05,0.019999999999999574,0.1290203956744824,0.2001472266027562,non_fall
9.804127,0.0749,0.0743,-0.0653,0.0534,-0.062,0.0102,-44.85,0.825,-1.05,0.019999999999999574,0.124074937034036,0.21847239035398203,non_fall
9.824127,-0.00375,-0.2016,0.0323,0.0534,-0.062,0.0102,-44.85,0.825,-1.05,0.02000000000000135,0.20420556432183723,0.25107330779152015,non_fall
9.844127,-0.44,-0.0609,-0.0003,0.0534,-0.062,0.0102,-44.85,0.825,-1.05,0.019999999999999574,0.4441946645334678,0.2903257034603534,non_fall
9.864127,-0.10285,0.0834,0.08615,0.0672,-0.0761,0.036,-44.85,0.825,-1.05,0.019999999999999574,0.15797311480122178,0.3254599281882991,non_fall
9.884127,0.1417,-0.0067,-0.2794,0.0672,-0.0761,0.036,-44.85,0.825,-1.05,0.019999999999999574,0.31334986835803835,0.3458930116526452,non_fall
9.904127,0.1526,0.1336,0.6435,0.0672,-0.0761,0.036,-44.85,0.825,-1.05,0.02000000000000135,0.6747058396071579,0.34493695035773564,non_fall
9.924127,-0.11,0.0756,-0.1153,0.08,-0.049,0.0131,-44.25,1.2,-0.45,0.019999999999999574,0.1763787118673906,0.32245200465796403,non_fall
9.944127,-0.0703,0.0506,-0.3279,0.08,-0.049,0.0131,-44.25,1.2,-0.45,0.019999999999999574,0.33914725415370833,0.2851423668088087,non_fall
9.964127,0.1398,0.1996,-0.0881,0.08,-0.049,0.0131,-44.25,1.2,-0.45,0.019999999999999574,0.25912508562468434,0.24404911273050972,non_fall
9.984127,-0.0446,-0.0546,-0.0099,0.08,-0.049,0.0131,-43.95,1.5,0.0,0.02000000000000135,0.07119220462943959,0.21015032056921085,non_fall
10.004127,-0.0624,-0.1066,0.009,0.1124,-0.0423,0.0139,-43.95,1.5,0.0,0.019999999999999574,0.12384797131967887,0.1900080678228491,non_fall
10.024127,0.0633,-0.1316,-0.075,0.1124,-0.0423,0.0139,-43.95,1.5,0.0,0.019999999999999574,0.16416592216413248,0.18350125836914147,non_fall
10.044127,0.1128,0.029,-0.02285,0.1124,-0.0423,0.0139,-43.95,1.5,0.0,0.019999999999999574,0.11868851039590984,0.18479459547748894,non_fall
10.064127,0.3015,0.22655,-0.1082,0.1327,0.0034,-0.0089,-45.0,1.2,0.075,0.019999999999999574,0.3923447368068036,0.18612986303004492,non_fall
10.084127,0.2123,-0.1275,-0.2804,0.1327,0.0034,-0.0089,-45.0,1.2,0.075,0.02000000000000135,0.3741011895196271,0.18245923757295568,non_fall
10.104127,0.0947,-0.0387,0.0267,0.1327,0.0034,-0.0089,-45.0,1.2,0.075,0.019999999999999574,0.10572922963873331,0.17429919343933784,non_fall
10.124127,-0.0118,-0.0103,0.0379,0.1327,0.0034,-0.0089,-44.925,0.75,0.15,0.019999999999999574,0.04100902339729636,0.16711140371017036,non_fall
10.144127,-0.0891,-0.0184,0.0169,0.1115,0.0501,-0.0215,-44.925,0.75,0.15,0.019999999999999574,0.09253637122775023,0.16762872082595273,non_fall
10.164127,-0.2079,-0.0049,-0.0196,0.1115,0.0501,-0.0215,-44.925,0.75,0.15,0.02000000000000135,0.20887934316250614,0.1793741742005407,non_fall
10.184127,-0.1589,0.0843,0.0047,0.1115,0.0501,-0.0215,-44.925,0.75,0.15,0.019999999999999574,0.17993829497914002,0.19989139545307524,non_fall
10.204127,-0.086,0.0941,0.0017,0.0887,0.1381,-0.0475,-43.8,1.65,-0.6,0.019999999999999574,0.12748999960781238,0.22106042682699564,non_fall
10.224127,-0.2065,0.168,0.1528,0.0887,0.1381,-0.0475,-43.8,1.65,-0.6,0.019999999999999574,0.3069431380565462,0.23239430819963966,non_fall
10.244127,0.0839,0.1366,0.2231,0.0887,0.1381,-0.0475,-43.8,1.65,-0.6,0.02000000000000135,0.2747223689472701,0.22609551138987133,non_fall
10.264127,0.1527,-0.0089,0.2006,0.0887,0.1381,-0.0475,-42.3,2.475,-1.725,0.019999999999999574,0.2522634733765473,0.2019612108470951,non_fall
10.284127,0.1501,0.1718,0.1545,0.0647,0.13,-0.0315,-42.3,2.475,-1.725,0.019999999999999574,0.27552767556091345,0.17003985770201968,non_fall
10.304127,0.0728,0.1189,-0.0062,0.0647,0.13,-0.0315,-42.3,2.475,-1.725,0.019999999999999574,0.13955461296567737,0.14949801076920763,non_fall
10.324127,-0.04,0.091,-0.0495,0.0647,0.13,-0.0315,-42.3,2.475,-1.725,0.02000000000000135,0.11104616157256406,0.163437615018483,non_fall
10.344127,-0.1809,-0.1397,0.1293,0.0834,0.0611,0.022,-43.8,1.65,-2.325,0.019999999999999574,0.2626011995402915,0.23097125824869635,non_fall
10.364127,-0.1018,-0.1232,0.2558,0.0834,0.0611,0.022,-43.8,1.65,-2.325,0.019999999999999574,0.3016208215624379,0.3591160240389654,non_fall
10.384127,0.0173,-0.1661,0.1033,0.0834,0.0611,0.022,-43.8,1.65,-2.325,0.019999999999999574,0.19636545011788606,0.5375848038161554,non_fall
10.404127,-0.0578,-0.6038,-0.1821,0.0834,0.0611,0.022,-44.85,1.575,-1.725,0.02000000000000135,0.63330536868086,0.7391262844014712,non_fall
10.424127,-0.0272,-1.0856,0.3666,0.1121,0.0505,0.0473,-44.85,1.575,-1.725,0.019999999999999574,1.1461512814633152,0.9264117762095253,non_fall
10.444127,0.113,-1.4276,-0.3258,0.1121,0.0505,0.0473,-44.85,1.575,-1.725,0.019999999999999574,1.4686580269075575,1.0635779543604273,non_fall
10.464127,1.0791,-0.6716,0.5958,0.1121,0.0505,0.0473,-45.225,0.9,-1.5,0.019999999999999574,1.4037382270209784,1.1277308747448234,non_fall
10.484127,-0.2207,0.2534,0.1627,0.0693,0.0706,-0.1112,-45.225,0.9,-1.5,0.02000000000000135,0.37335149658197436,1.1153725123591958,non_fall
10.504127,-0.8123,0.7807,-0.0885,0.0693,0.0706,-0.1112,-45.225,0.9,-1.5,0.019999999999999574,1.1301132819323911,1.0416534844852505,non_fall
10.524127,-1.2327,0.5349,-0.2966,0.0693,0.0706,-0.1112,-45.225,0.9,-1.5,0.019999999999999574,1.376095512673448,0.9341183916799632,non_fall
10.544127,0.7631,0.1576,0.1112,0.05055,0.03875,-0.07125,-45.3,1.125,-2.25,0.019999999999999574,0.7870989836100667,0.8240047150587658,non_fall
10.564127,0.3982,0.1287,0.085,0.0318,0.0069,-0.0313,-45.3,1.125,-2.25,0.019999999999999574,0.4270268492729702,0.7373278720672053,non_fall
10.584127,0.4267,-0.1526,-0.0557,0.0318,0.0069,-0.0313,-45.3,1.125,-2.25,0.02000000000000135,0.456576543418516,0.6875971947664333,non_fall
10.604127,0.0148,-0.6219,0.1223,0.0318,0.0069,-0.0313,-45.4125,1.2,-1.875,0.019999999999999574,0.6339841796133402,0.6726302381219815,non_fall
10.624127,-0.567,0.769,0.122,0.021,0.0092,0.01085,-45.525,1.275,-1.5,0.019999999999999574,0.9631894932981775,0.6773349104457584,non_fall
10.644127,-0.7286,0.13735,-0.1126,0.0102,0.0115,0.053,-45.525,1.275,-1.5,0.019999999999999574,0.7499344921391469,0.6815000400672151,non_fall
10.664127,0.5954,-0.9427,-0.2654,0.0102,0.0115,0.053,-45.525,1.275,-1.5,0.02000000000000135,1.1461333299402823,0.6686859166864967,non_fall
10.684127,-0.0287,-0.1134,-0.04105,0.0102,0.0115,0.053,-44.4,1.275,-1.8,0.019999999999999574,0.12396915947121688,0.6319454395526958,non_fall
10.704127,-0.222,-0.2328,0.0099,0.0073,0.0057,0.1628,-44.4,1.275,-1.8,0.019999999999999574,0.32183512859847974,0.5747678236199968,non_fall
10.724127,0.2161,-0.4869,0.08845,0.0073,0.0057,0.1628,-44.4,1.275,-1.8,0.019999999999999574,0.539994650436465,0.5090738195306858,non_fall
10.744127,-0.6498,0.2833,-0.0238,0.0073,0.0057,0.1628,-44.475,1.2375,-2.175,0.02000000000000135,0.7092710130831514,0.4532777504403783,non_fall
10.764127,-0.0978,-0.3572,-0.2049,-0.0247,0.0127,-0.0922,-44.55,1.2,-2.55,0.019999999999999574,0.423250150620174,0.43148350727487256,non_fall
10.784127,-0.5883,-0.2004,0.1018,-0.0247,0.0127,-0.0922,-44.55,1.2,-2.55,0.019999999999999574,0.6297779688112312,0.4720713551210354,non_fall
10.804127,-0.0261,-0.5463,-0.1489,-0.0247,0.0127,-0.0922,-44.55,1.2,-2.55,0.019999999999999574,0.5668298774764788,0.6030750035877024,non_fall
10.824127,-0.9766,0.1149,0.3492,-0.0935,0.0354,-0.1074,-45.15,1.2,-2.025,0.02000000000000135,1.0434990225199063,0.8433210021155115,non_fall
10.844127,0.0621,-1.3208,0.042,-0.0935,0.0354,-0.1074,-45.15,1.2,-2.025,0.019999999999999574,1.3229259427496312,1.190951829200199,non_fall
10.864127,0.0992,0.7488,-0.0177,-0.0935,0.0354,-0.1074,-45.15,1.2,-2.025,0.019999999999999574,0.755549713784606,1.613587429352816,non_fall
10.884127,0.0115,1.4855,0.1372,-0.0935,0.0354,-0.1074,-44.925,1.275,-2.2875,0.019999999999999574,1.4918667299728887,2.0462930557613865,non_fall
10.904127,-0.4333,2.0072,0.1163,-0.1403,0.0803,-0.0287,-44.7,1.35,-2.55,0.02000000000000135,2.0567271136443943,2.402930368331853,non_fall
10.924127,-0.0138,4.20025,0.7022,-0.1403,0.0803,-0.0287,-44.7,1.35,-2.55,0.019999999999999574,4.258564939331088,2.601082967811761,non_fall
10.944127,0.0796,3.3668,-0.1493,-0.1403,0.0803,-0.0287,-44.7,1.35,-2.55,0.019999999999999574,3.3710486335856977,2.5917015852305125,non_fall
10.964127,-0.4504,1.7354,0.013,0.01535,0.1085,-0.03395,-44.7,1.725,-2.325,0.019999999999999574,1.7929423638254522,2.3786250640395794,non_fall
10.984127,0.7001,-1.3975,0.4406,0.171,0.1367,-0.0392,-44.7,1.725,-2.325,0.02000000000000135,1.6239687866458516,2.016990389894635,non_fall
11.004127,0.5982,-1.4403,-0.0702,0.171,0.1367,-0.0392,-44.7,1.725,-2.325,0.019999999999999574,1.5611647478725619,1.5915957997621906,non_fall
11.024127,-0.2992,0.5056,-0.3144,0.171,0.1367,-0.0392,-44.775,1.0125,-2.5125,0.019999999999999574,0.6663327697179541,1.1870305317273429,non_fall
11.044127,0.0165,0.214,-0.2027,0.3581,0.0635,-0.0449,-44.85,0.3,-2.7,0.019999999999999574,0.295221171327532,0.8636047000203829,non_fall
11.064127,0.1374,-1.605,0.2286,0.3581,0.0635,-0.0449,-44.85,0.3,-2.7,0.019999999999999574,1.6270100552854614,0.647552438800274,non_fall
11.084127,-0.03345,-0.8487,-0.1488,0.3581,0.0635,-0.0449,-44.85,0.3,-2.7,0.02000000000000135,0.8622946320718923,0.5354672444589701,non_fall
11.104127,-0.076,-0.3383,-0.1105,0.2337,0.0736,-0.0335,-44.55,0.45,-3.75,0.019999999999999574,0.3639136436024349,0.5061966414088062,non_fall
11.124127,-0.1795,0.006,-0.1272,0.1093,0.0837,-0.0221,-44.55,0.45,-3.75,0.019999999999999574,0.22008200744268033,0.5320796149427821,non_fall
11.144127,0.2145,-0.0604,-0.58725,0.1093,0.0837,-0.0221,-44.55,0.45,-3.75,0.019999999999999574,0.6281090450709973,0.5854963378226491,non_fall
11.164127,-0.0155,0.4996,0.0248,0.1093,0.0837,-0.0221,-44.55,0.45,-3.75,0.02000000000000135,0.5004552427540349,0.6417321211898146,non_fall
11.184127,0.1587,-0.86215,0.3613,-0.0087,-0.0185,0.2627,-44.4,0.3,-3.75,0.019999999999999574,0.9481698173323173,0.6808170910988544,non_fall
11.204127,0.0384,-0.8093,0.0612,-0.0087,-0.0185,0.2627,-44.4,0.3,-3.75,0.019999999999999574,0.8125186090176644,0.6894489382872988,non_fall
11.224127,-0.0621,0.2628,-0.0249,-0.0087,-0.0185,0.2627,-44.4,0.3,-3.75,0.019999999999999574,0.2711830746930936,0.6623053824790651,non_fall
11.244127,-0.4028,0.7181,-0.1111,0.05355,-0.0145,0.1587,-44.1,1.275,-3.525,0.02000000000000135,0.8308180667270061,0.6018653743703984,non_fall
11.264127,0.105,0.6048,0.0476,0.1158,-0.0105,0.0547,-44.1,1.275,-3.525,0.019999999999999574,0.6156896945702437,0.5167429412977999,non_fall
11.284127,0.1768,-0.0381,-0.0024,0.1158,-0.0105,0.0547,-44.1,1.275,-3.525,0.019999999999999574,0.18087456979907376,0.41911545064605626,non_fall
11.304127,0.2752,-0.4287,-0.0832,0.1158,-0.0105,0.0547,-44.4,1.35,-3.6375,0.019999999999999574,0.5161792033780517,0.3218025953853788,non_fall
11.324127,-0.0768,0.0252,-0.0723,0.0719,0.0568,0.0107,-44.7,1.425,-3.75,0.02000000000000135,0.10844616175780496,0.2355359464762266,non_fall
11.344127,-0.0201,-0.11715,0.00245,0.0719,0.0568,0.0107,-44.7,1.425,-3.75,0.019999999999999574,0.1188870682622799,0.16709163381203937,non_fall
11.364127,-0.1114,0.0156,-0.0764,0.0719,0.0568,0.0107,-44.7,1.425,-3.75,0.019999999999999574,0.1359789689621156,0.11886409533477117,non_fall
11.384127,-0.1113,0.047,-0.0448,0.04945,0.05045,0.039,-44.55,1.8,-3.525,0.019999999999999574,0.1288554616615066,0.08999184657515613,non_fall
11.404127,-0.1094,-0.0137,-0.0484,0.027,0.0441,0.0673,-44.55,1.8,-3.525,0.02000000000000135,0.12041017398874565,0.0784694682264131,non_fall
11.424127,-0.068,0.0983,-0.0166,0.027,0.0441,0.0673,-44.55,1.8,-3.525,0.019999999999999574,0.12067497669359625,0.08313700665152703,non_fall
11.444127,-0.0787,0.0086,-0.0417,0.027,0.0441,0.0673,-44.55,1.8,-3.525,0.019999999999999574,0.08947927134258526,0.10442487309040398,non_fall
11.464127,-0.1763,0.1329,-0.103,-0.0188,0.0389,0.0082,-44.7,1.2,-4.2,0.019999999999999574,0.24362491662389543,0.14333055730725133,non_fall
11.484127,0.0359,0.0621,0.0194,-0.0188,0.0389,0.0082,-44.7,1.2,-4.2,0.02000000000000135,0.07430733476582242,0.1990141666911274,non_fall
11.504127,0.1373,0.0659,0.0925,-0.0188,0.0389,0.0082,-44.7,1.2,-4.2,0.019999999999999574,0.1781862789330312,0.2662613871338792,non_fall
11.524127,0.0452,0.1099,-0.1422,-0.0367,0.0498,0.0101,-44.55,1.65,-4.05,0.019999999999999574,0.18531564963596572,0.33453117317410547,non_fall
11.544127,-0.1036,-0.0622,0.1923,-0.0367,0.0498,0.0101,-44.55,1.65,-4.05,0.019999999999999574,0.2271147067012614,0.3899141322987862,non_fall
11.564127,-0.558,0.3067,0.9929,-0.0367,0.0498,0.0101,-44.55,1.65,-4.05,0.019999999999999574,1.1795250315275212,0.4197556281945648,non_fall
11.584127,-0.1781,0.0473,0.304,-0.0367,0.0498,0.0101,-44.625,1.8375,-4.2,0.02000000000000135,0.3554896622969506,0.4175774444586895,non_fall
11.604127,0.1048,0.0041,-0.01,-0.0023,0.0675,0.0116,-44.7,2.025,-4.35,0.019999999999999574,0.1053558256576256,0.3851115687230529,non_fall
11.624127,0.0965,0.0469,0.1179,-0.0023,0.0675,0.0116,-44.7,2.025,-4.35,0.019999999999999574,0.1594122642709776,0.33013054508187323,non_fall
11.644127,-0.1781,0.2294,-0.0461,-0.0023,0.0675,0.0116,-44.7,2.025,-4.35,0.019999999999999574,0.29405642315718933,0.2619922994543588,non_fall
11.664127,-0.106,0.1076,0.1138,-0.0883,-0.0107,0.0047,-44.85,2.4,-4.35,0.02000000000000135,0.18911425118166,0.188307216228507,non_fall
