time,ax,ay,az,wx,wy,wz,Bx,By,Bz,Unnamed: 10,time_diff,acc_mag,acc_mag_filtered,label
0.078022,0.0,0.0,0.0,0.0,0.0,0.0,0.0,0.0,0.0,,0.0,0.0,-0.0005116301262722819,non_fall
0.123886,0.0,0.0,0.0,0.0,0.0,0.0,45.15,11.6813,11.2125,,0.045864,0.0,-0.002750658188801997,non_fall
0.136682,0.0,0.0,0.0,0.0,0.0,0.0,45.15,11.6813,11.2125,,0.012796000000000002,0.0,-0.004672182364856457,non_fall
0.137681,0.0,0.0,0.0,-0.0652,-0.0517,0.0225,45.15,11.6813,11.2125,,0.0009989999999999999,0.0,-0.006008627205938532,non_fall
0.183344,0.0,0.0,0.0,-0.0652,-0.0517,0.0225,45.825,11.55,11.4375,,0.04566300000000001,0.0,-0.0063924382575521735,non_fall
0.196931,0.0,0.0,0.0,-0.0312,-0.0712,0.0047,45.825,11.55,11.4375,,0.013586999999999988,0.0,-0.0053695350325741725,non_fall
0.197758,0.0,0.0,0.0,-0.0312,-0.0712,0.0047,45.825,11.55,11.4375,,0.0008269999999999944,0.0,-0.0024707223467639937,non_fall
0.198444,0.0,0.0,0.0,-0.0312,-0.0712,0.0047,45.825,11.55,11.4375,,0.0006860000000000199,0.0,0.002672252171978545,non_fall
0.243281,0.0,0.0,0.0,-0.0312,-0.0712,0.0047,45.6938,11.0625,11.775,,0.04483699999999999,0.0,0.010197846190068223,non_fall
0.258289,0.0,0.0,0.0,-0.0312,-0.0712,0.0047,45.6938,11.0625,11.775,,0.015007999999999994,0.0,0.01991807067607694,non_fall
0.259694,0.0,0.0,0.0,0.0128,-0.0286,0.0068,45.6938,11.0625,11.775,,0.0014049999999999896,0.0,0.03130018819069271,non_fall
0.260721,0.0619,0.0055,-0.0168,0.0128,-0.0286,0.0068,45.6938,11.0625,11.775,,0.0010270000000000001,0.06437468446524612,0.043555477128994886,non_fall
0.30286,0.0619,0.0055,-0.0168,0.0128,-0.0286,0.0068,45.675,11.175,11.8688,,0.04213900000000004,0.06437468446524612,0.0558265457516239,non_fall
0.318888,-0.0199,-0.056,0.073,0.0128,-0.0286,0.0068,45.675,11.175,11.8688,,0.016027999999999987,0.09413293791229507,0.06741977217133178,non_fall
0.320588,-0.0199,-0.056,0.073,-0.0426,-0.0084,0.0079,45.675,11.175,11.8688,,0.0016999999999999793,0.09413293791229507,0.07800072975324632,non_fall
0.321392,-0.0199,-0.056,0.073,-0.0426,-0.0084,0.0079,45.675,11.175,11.8688,,0.0008040000000000269,0.09413293791229507,0.08767663078137272,non_fall
0.36342,-0.0199,-0.056,0.073,-0.0426,-0.0084,0.0079,45.6938,11.2688,11.8688,,0.04202800000000001,0.09413293791229507,0.09692927838496421,non_fall
0.379358,-0.0199,-0.056,0.073,-0.0774,-0.0045,0.0065,45.6938,11.2688,11.8688,,0.015937999999999952,0.09413293791229507,0.10641594944168724,non_fall
0.380226,-0.0199,-0.056,0.073,-0.0774,-0.0045,0.0065,45.6938,11.2688,11.8688,,0.0008680000000000354,0.09413293791229507,0.11670159125544943,non_fall
0.399345,-0.0624,0.0966,0.0627,-0.0774,-0.0045,0.0065,45.6938,11.2688,11.8688,,0.019118999999999997,0.13098324320309068,0.12800772566669932,non_fall
0.423299,-0.0624,0.0966,0.0627,-0.0774,-0.0045,0.0065,45.9563,11.1938,11.85,,0.023953999999999975,0.13098324320309068,0.1400566918740817,non_fall
0.440345,-0.0624,0.0966,0.0627,-0.0386,-0.0005,-0.0028,45.9563,11.1938,11.85,,0.017046000000000006,0.13098324320309068,0.15206145875370605,non_fall
0.441428,-0.0624,0.0966,0.0627,-0.0386,-0.0005,-0.0028,45.9563,11.1938,11.85,,0.0010830000000000006,0.13098324320309068,0.16287394122194113,non_fall
0.460542,0.1673,0.0096,-0.1261,-0.0386,-0.0005,-0.0028,45.9563,11.1938,11.85,,0.01911400000000002,0.20972043295778312,0.1712650716102666,non_fall
0.484208,0.1673,0.0096,-0.1261,-0.0386,-0.0005,-0.0028,46.0875,11.2688,11.8125,,0.02366600000000002,0.20972043295778312,0.17626723795285906,non_fall
0.500768,0.1673,0.0096,-0.1261,-0.0386,-0.0005,-0.0028,46.0875,11.2688,11.8125,,0.016559999999999964,0.20972043295778312,0.1774733314126886,non_fall
0.501518,0.1673,0.0096,-0.1261,-0.0337,-0.0435,-0.0262,46.0875,11.2688,11.8125,,0.0007500000000000284,0.20972043295778312,0.17518253415531723,non_fall
0.522899,-0.1267,-0.0213,0.0261,-0.0337,-0.0435,-0.0262,46.0875,11.2688,11.8125,,0.021380999999999983,0.13110221203320713,0.1703303539700955,non_fall
0.543602,-0.1267,-0.0213,0.0261,-0.0337,-0.0435,-0.0262,46.05,11.25,11.85,,0.020703000000000027,0.13110221203320713,0.1642254444224233,non_fall
0.562335,-0.1267,-0.0213,0.0261,-0.0309,-0.0357,-0.0205,46.05,11.25,11.85,,0.018733,0.13110221203320713,0.15819532194125632,non_fall
0.563668,-0.1267,-0.0213,0.0261,-0.0309,-0.0357,-0.0205,46.05,11.25,11.85,,0.0013329999999999176,0.13110221203320713,0.1532732174576717,non_fall
0.582253,0.1058,-0.0175,-0.1337,-0.0309,-0.0357,-0.0205,46.05,11.25,11.85,,0.018585000000000074,0.17139305703557542,0.15002382008267806,non_fall
0.603866,0.1058,-0.0175,-0.1337,-0.0309,-0.0357,-0.0205,46.125,11.2125,12.0375,,0.021612999999999993,0.17139305703557542,0.14853007686620165,non_fall
0.624193,0.1058,-0.0175,-0.1337,-0.0309,-0.0357,-0.0205,46.125,11.2125,12.0375,,0.020326999999999984,0.17139305703557542,0.14849085174786306,non_fall
0.624795,0.1058,-0.0175,-0.1337,0.0575,-0.0979,-0.0602,46.125,11.2125,12.0375,,0.0006019999999999914,0.17139305703557542,0.14934678019952108,non_fall
0.664384,0.1058,-0.0175,-0.1337,0.0575,-0.0979,-0.0602,46.0688,11.2125,12.0,,0.039588999999999985,0.17139305703557542,0.15037070203407796,non_fall
0.666547,0.0703,-0.0342,-0.0485,0.0575,-0.0979,-0.0602,46.0688,11.2125,12.0,,0.002163000000000026,0.09199989130428363,0.15071625702100014,non_fall
0.683772,0.0703,-0.0342,-0.0485,0.1732,-0.2292,-0.1305,46.0688,11.2125,12.0,,0.017225000000000046,0.09199989130428363,0.14948469779422233,non_fall
0.685327,0.0703,-0.0342,-0.0485,0.1732,-0.2292,-0.1305,46.0688,11.2125,12.0,,0.001554999999999973,0.09199989130428363,0.1459082591401214,non_fall
0.72551,0.0703,-0.0342,-0.0485,0.1732,-0.2292,-0.1305,46.2563,11.4563,11.7938,,0.04018299999999997,0.09199989130428363,0.13972189811639243,non_fall
0.726937,-0.1218,-0.1563,-0.1061,0.1732,-0.2292,-0.1305,46.2563,11.4563,11.7938,,0.001427000000000067,0.22477130599789644,0.13169163760918862,non_fall
0.745041,-0.1218,-0.1563,-0.1061,0.1732,-0.2292,-0.1305,46.2563,11.4563,11.7938,,0.018103999999999898,0.22477130599789644,0.1241219110985238,non_fall
0.745691,-0.1218,-0.1563,-0.1061,0.1975,-0.2292,-0.1064,46.2563,11.4563,11.7938,,0.0006500000000000394,0.22477130599789644,0.12105379090572956,non_fall
0.783914,-0.1218,-0.1563,-0.1061,0.1975,-0.2292,-0.1064,46.4062,11.5312,11.4938,,0.03822300000000001,0.22477130599789644,0.1278738246694684,non_fall
0.785385,0.1118,0.0137,-0.0581,0.1975,-0.2292,-0.1064,46.4062,11.5312,11.4938,,0.001471,0.12673807636223614,0.15021463944979818,non_fall
0.805424,0.1118,0.0137,-0.0581,0.2542,-0.5558,-0.1795,46.4062,11.5312,11.4938,,0.02003900000000003,0.12673807636223614,0.19230027410111555,non_fall
0.806567,0.1118,0.0137,-0.0581,0.2542,-0.5558,-0.1795,46.4062,11.5312,11.4938,,0.0011430000000000051,0.12673807636223614,0.25516801072916423,non_fall
0.844015,0.1118,0.0137,-0.0581,0.2542,-0.5558,-0.1795,46.4625,11.775,11.0813,,0.037447999999999926,0.12673807636223614,0.33536881036694666,non_fall
0.867602,0.1118,0.0137,-0.0581,0.4048,-0.8533,-0.2519,46.4625,11.775,11.0813,,0.023587000000000025,0.12673807636223614,0.4247244870167959,non_fall
0.868782,-0.5601,0.0474,0.4758,0.4048,-0.8533,-0.2519,46.4625,11.775,11.0813,,0.0011800000000000699,0.736440364184365,0.5114660873590856,non_fall
0.869834,-0.5601,0.0474,0.4758,0.4048,-0.8533,-0.2519,46.4625,11.775,11.0813,,0.0010519999999999419,0.736440364184365,0.5826344580098387,non_fall
0.903575,-0.5601,0.0474,0.4758,0.4048,-0.8533,-0.2519,46.2938,12.1875,10.2938,,0.03374100000000002,0.736440364184365,0.6271476825157687,non_fall
0.927751,-0.5601,0.0474,0.4758,0.4711,-1.0844,-0.3141,46.2938,12.1875,10.2938,,0.024175999999999975,0.736440364184365,0.6386666956350788,non_fall
0.930635,-0.5601,0.0474,0.4758,0.4711,-1.0844,-0.3141,46.2938,12.1875,10.2938,,0.0028839999999999977,0.736440364184365,0.6174587044486382,non_fall
0.931408,0.4243,-0.0146,0.2558,0.4711,-1.0844,-0.3141,46.2938,12.1875,10.2938,,0.0007730000000000237,0.49565844086427097,0.5707917300072755,non_fall
0.963265,0.4243,-0.0146,0.2558,0.4711,-1.0844,-0.3141,46.1813,12.5813,9.1313,,0.031857000000000024,0.49565844086427097,0.5118028641767559,non_fall
0.988858,0.4243,-0.0146,0.2558,0.4711,-1.0844,-0.3141,46.1813,12.5813,9.1313,,0.025592999999999977,0.49565844086427097,0.4571206321072878,non_fall
0.98971,0.4243,-0.0146,0.2558,0.1694,-0.881,-0.1752,46.1813,12.5813,9.1313,,0.0008519999999999639,0.49565844086427097,0.4237259156296302,non_fall
0.990476,0.0989,0.1302,0.2776,0.1694,-0.881,-0.1752,46.1813,12.5813,9.1313,,0.0007660000000000444,0.3221723296622477,0.42562042975228803,non_fall
1.022706,0.0989,0.1302,0.2776,0.1694,-0.881,-0.1752,46.2938,13.2,7.5,,0.03222999999999987,0.3221723296622477,0.4709019944519777,non_fall
1.049918,0.0989,0.1302,0.2776,-0.1394,-0.3559,-0.0581,46.2938,13.2,7.5,,0.027212000000000014,0.3221723296622477,0.5598522914536689,non_fall
1.051576,0.0989,0.1302,0.2776,-0.1394,-0.3559,-0.0581,46.2938,13.2,7.5,,0.0016580000000001593,0.3221723296622477,0.6845561419801618,non_fall
1.05235,-0.7683,0.6544,-0.6782,-0.1394,-0.3559,-0.0581,46.2938,13.2,7.5,,0.0007739999999998304,1.2159274197089232,0.8302830466514285,non_fall
1.083386,-0.7683,0.6544,-0.6782,-0.1394,-0.3559,-0.0581,46.4438,13.7063,5.6625,,0.031036000000000064,1.2159274197089232,0.9783671028241048,non_fall
1.110175,-0.7683,0.6544,-0.6782,-0.1388,-0.0815,-0.2377,46.4438,13.7063,5.6625,,0.026788999999999952,1.2159274197089232,1.1098165297892935,non_fall
1.111331,-0.7683,0.6544,-0.6782,-0.1388,-0.0815,-0.2377,46.4438,13.7063,5.6625,,0.001156000000000157,1.2159274197089232,1.208673387368137,non_fall
1.130378,-1.0542,-0.491,-0.4255,-0.1388,-0.0815,-0.2377,46.4438,13.7063,5.6625,,0.019047000000000036,1.238333109466108,1.2643629542466663,non_fall
1.143224,-1.0542,-0.491,-0.4255,-0.1388,-0.0815,-0.2377,46.4813,14.3813,3.9563,,0.012845999999999913,1.238333109466108,1.2727363229476967,non_fall
1.171708,-1.0542,-0.491,-0.4255,0.0206,0.3083,-0.0585,46.4813,14.3813,3.9563,,0.028483999999999954,1.238333109466108,1.235913773960499,non_fall
1.173424,-1.0542,-0.491,-0.4255,0.0206,0.3083,-0.0585,46.4813,14.3813,3.9563,,0.0017160000000000508,1.238333109466108,1.1612327016066104,non_fall
1.191853,0.8259,-0.0636,-0.3499,0.0206,0.3083,-0.0585,46.4813,14.3813,3.9563,,0.01842900000000003,0.8992139789838678,1.0596393116401381,forward_fall
1.204105,0.8259,-0.0636,-0.3499,0.0206,0.3083,-0.0585,46.3688,14.85,2.4,,0.01225199999999993,0.8992139789838678,0.943839909599448,forward_fall
1.232616,0.8259,-0.0636,-0.3499,0.2883,0.189,-0.1933,46.3688,14.85,2.4,,0.028510999999999953,0.8992139789838678,0.8264871869624969,forward_fall
1.2337,0.8259,-0.0636,-0.3499,0.2883,0.189,-0.1933,46.3688,14.85,2.4,,0.001084000000000085,0.8992139789838678,0.718602749074153,forward_fall
1.253082,0.1067,-0.2306,-0.3779,0.2883,0.189,-0.1933,46.3688,14.85,2.4,,0.01938200000000001,0.45537858974703677,0.6283450340840221,forward_fall
1.263509,0.1067,-0.2306,-0.3779,0.2883,0.189,-0.1933,46.2,15.4313,0.9188,,0.010426999999999964,0.45537858974703677,0.5601980150450225,forward_fall
1.294175,0.1067,-0.2306,-0.3779,0.4626,-0.0197,-0.2796,46.2,15.4313,0.9188,,0.030666000000000082,0.45537858974703677,0.5147010230822195,forward_fall
1.295122,0.1067,-0.2306,-0.3779,0.4626,-0.0197,-0.2796,46.2,15.4313,0.9188,,0.0009470000000000312,0.45537858974703677,0.4888564609061139,forward_fall
1.322743,0.1067,-0.2306,-0.3779,0.4626,-0.0197,-0.2796,46.0688,15.7688,-0.2625,,0.027620999999999896,0.45537858974703677,0.4772316138755324,forward_fall
1.333953,-0.1315,-0.1174,-0.5935,0.4626,-0.0197,-0.2796,46.0688,15.7688,-0.2625,,0.011209999999999942,0.6191262068431606,0.4735423203679573,forward_fall
1.354424,-0.1315,-0.1174,-0.5935,0.6185,0.0459,-0.2119,46.0688,15.7688,-0.2625,,0.020471000000000128,0.6191262068431606,0.47229518329180065,forward_fall
1.356157,-0.1315,-0.1174,-0.5935,0.6185,0.0459,-0.2119,46.0688,15.7688,-0.2625,,0.0017329999999999846,0.6191262068431606,0.46998321806992055,forward_fall
1.384822,-0.1315,-0.1174,-0.5935,0.6185,0.0459,-0.2119,45.975,16.2563,-1.1438,,0.02866499999999994,0.6191262068431606,0.4654393293328319,forward_fall
1.39593,-0.1954,-0.1073,-0.0649,0.6185,0.0459,-0.2119,45.975,16.2563,-1.1438,,0.011107999999999896,0.23217764750294118,0.4592550639398953,forward_fall
1.41561,-0.1954,-0.1073,-0.0649,0.8321,-0.2057,-0.2981,45.975,16.2563,-1.1438,,0.019680000000000142,0.23217764750294118,0.4525806433506178,forward_fall
1.416753,-0.1954,-0.1073,-0.0649,0.8321,-0.2057,-0.2981,45.975,16.2563,-1.1438,,0.001142999999999894,0.23217764750294118,0.4459536841617932,forward_fall
1.445024,-0.1954,-0.1073,-0.0649,0.8321,-0.2057,-0.2981,45.825,16.7438,-1.8563,,0.028271000000000157,0.23217764750294118,0.4388557523548621,forward_fall
1.456035,-0.4526,-0.1195,-0.4048,0.8321,-0.2057,-0.2981,45.825,16.7438,-1.8563,,0.011010999999999882,0.6188618989726221,0.43038216350592706,forward_fall
1.475458,-0.4526,-0.1195,-0.4048,0.9678,-0.3286,-0.1366,45.825,16.7438,-1.8563,,0.019422999999999968,0.6188618989726221,0.4208500930873331,forward_fall
1.476632,-0.4526,-0.1195,-0.4048,0.9678,-0.3286,-0.1366,45.825,16.7438,-1.8563,,0.0011740000000000084,0.6188618989726221,0.4136352971993342,forward_fall
1.503811,-0.4526,-0.1195,-0.4048,0.9678,-0.3286,-0.1366,45.5625,17.0625,-2.4563,,0.027179000000000064,0.6188618989726221,0.41629040799148787,forward_fall
1.516638,-0.5136,-0.0586,0.0917,0.9678,-0.3286,-0.1366,45.5625,17.0625,-2.4563,,0.012826999999999922,0.5250026761836553,0.4401748517048687,forward_fall
1.536821,-0.5136,-0.0586,0.0917,1.4136,-0.7702,-0.1625,45.5625,17.0625,-2.4563,,0.020183000000000062,0.5250026761836553,0.4983288544785439,forward_fall
1.53861,-0.5136,-0.0586,0.0917,1.4136,-0.7702,-0.1625,45.5625,17.0625,-2.4563,,0.0017890000000000406,0.5250026761836553,0.6019449049850772,forward_fall
1.563385,-0.5136,-0.0586,0.0917,1.4136,-0.7702,-0.1625,45.075,17.3625,-3.3938,,0.02477499999999999,0.5250026761836553,0.7563302556556349,forward_fall
1.598601,-0.5136,-0.0586,0.0917,1.3296,-0.9342,-0.4927,45.075,17.3625,-3.3938,,0.035215999999999914,0.5250026761836553,0.9575717173450536,forward_fall
1.601132,-0.5136,-0.0586,0.0917,1.3296,-0.9342,-0.4927,45.075,17.3625,-3.3938,,0.002531000000000061,0.5250026761836553,1.1911026186100728,forward_fall
1.60216,-1.7535,-0.9322,-0.4139,1.3296,-0.9342,-0.4927,45.075,17.3625,-3.3938,,0.0010280000000000289,2.0285640980752864,1.432943178904857,forward_fall
1.622008,-1.7535,-0.9322,-0.4139,1.3296,-0.9342,-0.4927,44.6438,17.4938,-4.6125,,0.019847999999999866,2.0285640980752864,1.6535627917962952,forward_fall
1.658305,-1.7535,-0.9322,-0.4139,1.3296,-0.9342,-0.4927,44.6438,17.4938,-4.6125,,0.036297000000000024,2.0285640980752864,1.8234041944086787,forward_fall
1.660005,1.3567,-0.129,-1.1237,1.3296,-0.9342,-0.4927,44.6438,17.4938,-4.6125,,0.0017000000000000348,1.7663458268413916,1.9186360774031652,forward_fall
1.660722,1.3567,-0.129,-1.1237,1.2127,-0.3009,0.0558,44.6438,17.4938,-4.6125,,0.0007170000000000787,1.7663458268413916,1.9259291521319188,forward_fall
1.685109,1.3567,-0.129,-1.1237,1.2127,-0.3009,0.0558,44.1375,17.7375,-6.2813,,0.024386999999999937,1.7663458268413916,1.8456775636511236,forward_fall
1.71991,1.3567,-0.129,-1.1237,0.9859,-0.2956,-0.1111,44.1375,17.7375,-6.2813,,0.03480100000000008,1.7663458268413916,1.6935630781508342,forward_fall
1.721166,-0.1462,1.5644,0.1043,0.9859,-0.2956,-0.1111,44.1375,17.7375,-6.2813,,0.0012559999999999238,1.574674661636492,1.5004310698502348,forward_fall
1.722028,-0.1462,1.5644,0.1043,0.9859,-0.2956,-0.1111,44.1375,17.7375,-6.2813,,0.0008619999999999184,1.574674661636492,1.3102742993062872,forward_fall
1.744389,-0.1462,1.5644,0.1043,0.9859,-0.2956,-0.1111,43.5188,17.775,-8.175,,0.022361000000000075,1.574674661636492,1.1760031961505768,forward_fall
1.781782,-0.1462,1.5644,0.1043,1.4279,-0.2814,-0.4181,43.5188,17.775,-8.175,,0.03739300000000001,1.574674661636492,1.1528316827319416,forward_fall
1.78363,-0.1462,1.5644,0.1043,1.4279,-0.2814,-0.4181,43.5188,17.775,-8.175,,0.0018480000000000718,1.574674661636492,1.2896199275783675,forward_fall
1.7845,0.8119,0.3502,0.5814,1.4279,-0.2814,-0.4181,43.5188,17.775,-8.175,,0.0008699999999999264,1.058228524469077,1.6193840623837654,forward_fall
1.803736,0.8119,0.3502,0.5814,1.4279,-0.2814,-0.4181,42.8625,17.925,-10.1625,,0.01923600000000003,1.058228524469077,2.151219437092328,forward_fall
1.842914,0.8119,0.3502,0.5814,2.801,-0.172,-1.0734,42.8625,17.925,-10.1625,,0.039177999999999935,1.058228524469077,2.8666052145038194,forward_fall
1.844971,0.8119,0.3502,0.5814,2.801,-0.172,-1.0734,42.8625,17.925,-10.1625,,0.0020569999999999755,1.058228524469077,3.7227350019402685,forward_fall
1.862222,2.7756,-4.8738,6.0002,2.801,-0.172,-1.0734,42.8625,17.925,-10.1625,,0.017251000000000127,8.213420836655091,4.663517439066309,forward_fall
1.86357,2.7756,-4.8738,6.0002,2.801,-0.172,-1.0734,41.925,17.6813,-12.4125,,0.0013479999999999048,8.213420836655091,5.635386812873935,forward_fall
1.902511,2.7756,-4.8738,6.0002,2.801,-0.172,-1.0734,41.925,17.6813,-12.4125,,0.038941000000000114,8.213420836655091,6.601744420374057,forward_fall
1.903206,2.7756,-4.8738,6.0002,3.1315,-1.0372,-1.3404,41.925,17.6813,-12.4125,,0.0006949999999998902,8.213420836655091,7.549298297065074,forward_fall
1.922779,0.3949,-7.4651,0.9652,3.1315,-1.0372,-1.3404,41.925,17.6813,-12.4125,,0.019573000000000063,7.537590799453098,8.482958372771165,forward_fall
1.923962,0.3949,-7.4651,0.9652,3.1315,-1.0372,-1.3404,40.4813,17.4938,-15.2063,,0.001182999999999934,7.537590799453098,9.411590674356754,forward_fall
1.965071,0.3949,-7.4651,0.9652,2.8301,-0.8405,-2.5857,40.4813,17.4938,-15.2063,,0.04110900000000006,7.537590799453098,10.331678058575939,forward_fall
1.966411,0.3949,-7.4651,0.9652,2.8301,-0.8405,-2.5857,40.4813,17.4938,-15.2063,,0.0013399999999998968,7.537590799453098,11.217435128394305,forward_fall
1.985347,-1.2063,-7.0253,-12.8529,2.8301,-0.8405,-2.5857,40.4813,17.4938,-15.2063,,0.018936000000000064,14.697177898834864,12.023459600869188,forward_fall
1.987496,-1.2063,-7.0253,-12.8529,2.8301,-0.8405,-2.5857,38.7,17.5312,-18.3,,0.0021489999999999565,14.697177898834864,12.700389722577421,forward_fall
2.026329,-1.2063,-7.0253,-12.8529,2.2355,0.1344,0.1123,38.7,17.5312,-18.3,,0.03883300000000012,14.697177898834864,13.217731996406114,forward_fall
2.028233,-1.2063,-7.0253,-12.8529,2.2355,0.1344,0.1123,38.7,17.5312,-18.3,,0.0019040000000001278,14.697177898834864,13.5843195738657,forward_fall
2.044301,-1.2063,-7.0253,-12.8529,2.2355,0.1344,0.1123,36.975,17.1938,-21.075,,0.01606799999999975,14.697177898834864,13.857586982547579,forward_fall
2.065149,-7.2467,-5.4797,-11.5715,2.2355,0.1344,0.1123,36.975,17.1938,-21.075,,0.020847999999999978,14.711947023762695,14.136967893116646,forward_fall
2.084647,-7.2467,-5.4797,-11.5715,2.9746,0.0796,-0.0099,36.975,17.1938,-21.075,,0.019498000000000015,14.711947023762695,14.541789393355668,forward_fall
2.08582,-7.2467,-5.4797,-11.5715,2.9746,0.0796,-0.0099,36.975,17.1938,-21.075,,0.0011730000000000906,14.711947023762695,15.17837293776168,forward_fall
2.104513,-7.2467,-5.4797,-11.5715,2.9746,0.0796,-0.0099,35.175,16.4062,-24.0375,,0.01869299999999985,14.711947023762695,16.10414796425048,forward_fall
2.125496,-6.4201,2.8402,-14.2213,2.9746,0.0796,-0.0099,35.175,16.4062,-24.0375,,0.020983000000000196,15.859690846293315,17.29827232011757,forward_fall
2.145182,-6.4201,2.8402,-14.2213,-2.2261,-4.9162,-1.5409,35.175,16.4062,-24.0375,,0.019686000000000092,15.859690846293315,18.648233321434123,forward_fall
2.146955,-6.4201,2.8402,-14.2213,-2.2261,-4.9162,-1.5409,35.175,16.4062,-24.0375,,0.0017730000000000246,15.859690846293315,19.95981262199935,forward_fall
2.164053,-6.4201,2.8402,-14.2213,-2.2261,-4.9162,-1.5409,32.0063,16.575,-27.0188,,0.017097999999999836,15.859690846293315,20.993293293628813,forward_fall
2.187773,-0.517,9.5471,26.3658,-2.2261,-4.9162,-1.5409,32.0063,16.575,-27.0188,,0.023719999999999963,28.045852047138805,21.52158884914285,forward_fall
2.206539,-0.517,9.5471,26.3658,2.6548,-3.22,-5.6138,32.0063,16.575,-27.0188,,0.01876599999999984,28.045852047138805,21.39677665179727,forward_fall
2.207375,-0.517,9.5471,26.3658,2.6548,-3.22,-5.6138,32.0063,16.575,-27.0188,,0.0008360000000000589,28.045852047138805,20.603681075078978,forward_fall
2.225331,-0.517,9.5471,26.3658,2.6548,-3.22,-5.6138,26.2313,16.5188,-30.225,,0.017956000000000305,28.045852047138805,19.278278257145796,forward_fall
2.247803,9.3634,1.3535,-1.464,2.6548,-3.22,-5.6138,26.2313,16.5188,-30.225,,0.022472000000000047,9.57332323751789,17.67848202933394,forward_fall
2.268492,9.3634,1.3535,-1.464,3.2898,-13.2492,-1.8914,26.2313,16.5188,-30.225,,0.020688999999999957,9.57332323751789,16.11292688498552,forward_fall
2.270577,9.3634,1.3535,-1.464,3.2898,-13.2492,-1.8914,26.2313,16.5188,-30.225,,0.0020849999999996705,9.57332323751789,14.85134629451584,forward_fall
2.28416,9.3634,1.3535,-1.464,3.2898,-13.2492,-1.8914,17.175,15.4313,-32.4375,,0.013583000000000123,9.57332323751789,14.0485748951116,forward_fall
2.331407,9.3634,1.3535,-1.464,1.2092,-2.2311,5.2478,17.175,15.4313,-32.4375,,0.04724700000000004,9.57332323751789,13.708938537120407,forward_fall
2.335942,9.3634,1.3535,-1.464,1.2092,-2.2311,5.2478,17.175,15.4313,-32.4375,,0.004535000000000178,9.57332323751789,13.702417991849073,forward_fall
2.336656,-22.5228,-1.6022,8.6433,1.2092,-2.2311,5.2478,17.175,15.4313,-32.4375,,0.0007139999999998814,24.177472977339878,13.825453700135663,forward_fall
2.343378,-22.5228,-1.6022,8.6433,1.2092,-2.2311,5.2478,7.8938,15.225,-33.4313,,0.006721999999999895,24.177472977339878,13.883240604242685,forward_fall
2.391222,-22.5228,-1.6022,8.6433,1.2092,-2.2311,5.2478,7.8938,15.225,-33.4313,,0.047844,24.177472977339878,13.76168643362969,forward_fall
2.393494,-0.0256,7.6975,2.2913,1.2092,-2.2311,5.2478,7.8938,15.225,-33.4313,,0.0022720000000000518,8.031327243986514,13.460857011586091,forward_fall
2.39588,-0.0256,7.6975,2.2913,-1.0742,-7.6074,1.2301,7.8938,15.225,-33.4313,,0.0023859999999999992,8.031327243986514,13.078536087681838,forward_fall
2.4046,-0.0256,7.6975,2.2913,-1.0742,-7.6074,1.2301,-1.575,15.675,-31.725,,0.008719999999999839,8.031327243986514,12.754812255563332,forward_fall
2.450739,-0.0256,7.6975,2.2913,0.2265,4.7508,-1.4092,-1.575,15.675,-31.725,,0.04613900000000015,8.031327243986514,12.604164803014623,forward_fall
2.45245,-0.0256,7.6975,2.2913,0.2265,4.7508,-1.4092,-1.575,15.675,-31.725,,0.001710999999999796,8.031327243986514,12.663177620862042,forward_fall
2.453274,5.6077,-2.8694,-14.3615,0.2265,4.7508,-1.4092,-1.575,15.675,-31.725,,0.0008240000000001579,15.6822331923741,12.871839171849297,forward_fall
2.465718,5.6077,-2.8694,-14.3615,0.2265,4.7508,-1.4092,-10.3313,15.3563,-30.3,,0.0124439999999999,15.6822331923741,13.091381613731537,forward_fall
2.51135,5.6077,-2.8694,-14.3615,0.2212,5.2563,0.0909,-10.3313,15.3563,-30.3,,0.04563200000000034,15.6822331923741,13.148293263619,forward_fall
2.512465,5.6077,-2.8694,-14.3615,0.2212,5.2563,0.0909,-10.3313,15.3563,-30.3,,0.0011149999999999771,15.6822331923741,12.88679332371144,forward_fall
2.523261,5.6077,-2.8694,-14.3615,0.2212,5.2563,0.0909,-18.0563,15.4875,-30.3,,0.010796000000000028,15.6822331923741,12.212179017786776,forward_fall
2.533297,-4.0103,1.8137,-6.7289,0.2212,5.2563,0.0909,-18.0563,15.4875,-30.3,,0.010035999999999934,8.040529148631949,11.1134521327462,forward_fall
2.572644,-4.0103,1.8137,-6.7289,-0.3546,2.353,0.2301,-18.0563,15.4875,-30.3,,0.0393469999999998,8.040529148631949,9.66216390471002,forward_fall
2.5741,-4.0103,1.8137,-6.7289,-0.3546,2.353,0.2301,-18.0563,15.4875,-30.3,,0.0014560000000001239,8.040529148631949,7.9920233852043605,forward_fall
2.584218,-4.0103,1.8137,-6.7289,-0.3546,2.353,0.2301,-25.0313,16.1813,-30.4125,,0.01011799999999985,8.040529148631949,6.267863738073641,forward_fall
2.592684,-0.2321,1.8612,-0.0747,-0.3546,2.353,0.2301,-25.0313,16.1813,-30.4125,,0.008466000000000307,1.87710307122438,4.652594427065567,forward_fall
2.633033,-0.2321,1.8612,-0.0747,0.1751,-0.0027,-0.0791,-25.0313,16.1813,-30.4125,,0.04034899999999997,1.87710307122438,3.2788081421655835,forward_fall
2.6339,-0.2321,1.8612,-0.0747,0.1751,-0.0027,-0.0791,-25.0313,16.1813,-30.4125,,0.0008669999999999511,1.87710307122438,2.2297795381560084,forward_fall
2.644125,-0.2321,1.8612,-0.0747,0.1751,-0.0027,-0.0791,-30.525,15.7875,-30.0,,0.010224999999999707,1.87710307122438,1.5326035952760717,forward_fall
2.653399,1.4836,-0.6604,0.6876,0.1751,-0.0027,-0.0791,-30.525,15.7875,-30.0,,0.009274000000000004,1.7635166231141686,1.163391364391014,forward_fall
2.694413,1.4836,-0.6604,0.6876,0.0626,-1.357,0.0598,-30.525,15.7875,-30.0,,0.041014000000000106,1.7635166231141686,1.0613923733779855,forward_fall
2.695417,1.4836,-0.6604,0.6876,0.0626,-1.357,0.0598,-30.525,15.7875,-30.0,,0.0010040000000000049,1.7635166231141686,1.1471058276705681,forward_fall
2.703344,1.4836,-0.6604,0.6876,0.0626,-1.357,0.0598,-33.4313,15.8063,-29.1563,,0.007927000000000017,1.7635166231141686,1.3394908150745464,forward_fall
2.714521,0.682,0.3307,1.4571,0.0626,-1.357,0.0598,-33.4313,15.8063,-29.1563,,0.011176999999999992,1.6424454024411284,1.5688025267727663,forward_fall
2.754777,0.682,0.3307,1.4571,-0.0021,-0.1752,-0.1479,-33.4313,15.8063,-29.1563,,0.04025599999999985,1.6424454024411284,1.7835438816019211,forward_fall
2.755754,0.682,0.3307,1.4571,-0.0021,-0.1752,-0.1479,-33.4313,15.8063,-29.1563,,0.0009770000000002277,1.6424454024411284,1.9518538783327706,forward_fall
2.76488,0.682,0.3307,1.4571,-0.0021,-0.1752,-0.1479,-33.225,16.6688,-29.0625,,0.009125999999999745,1.6424454024411284,2.058908112153521,forward_fall
2.798623,1.1824,-0.2381,-1.6725,-0.0021,-0.1752,-0.1479,-33.225,16.6688,-29.0625,,0.0337430000000003,2.0620420994732385,2.1023783800782603,forward_fall
2.816961,1.1824,-0.2381,-1.6725,-0.0021,-0.1752,-0.1479,-33.225,16.6688,-29.0625,,0.018337999999999965,2.0620420994732385,2.0877427465605183,forward_fall
2.818008,1.1824,-0.2381,-1.6725,-0.1079,0.5511,-0.0648,-33.225,16.6688,-29.0625,,0.001046999999999798,2.0620420994732385,2.0245382189910277,forward_fall
2.824197,1.1824,-0.2381,-1.6725,-0.1079,0.5511,-0.0648,-32.2313,16.8563,-29.6813,,0.006189,2.0620420994732385,1.9238930308443205,forward_fall
2.858372,0.5539,0.0768,-1.5623,-0.1079,0.5511,-0.0648,-32.2313,16.8563,-29.6813,,0.03417500000000029,1.6593627511788975,1.797162682059824,forward_fall
2.876619,0.5539,0.0768,-1.5623,-0.1079,0.5511,-0.0648,-32.2313,16.8563,-29.6813,,0.01824699999999968,1.6593627511788975,1.6552981820189967,forward_fall
2.877592,0.5539,0.0768,-1.5623,-0.0386,0.9867,-0.0535,-32.2313,16.8563,-29.6813,,0.0009730000000001127,1.6593627511788975,1.5085818697255535,forward_fall
2.883633,0.5539,0.0768,-1.5623,-0.0386,0.9867,-0.0535,-30.375,16.4062,-32.85,,0.006041000000000185,1.6593627511788975,1.3664273465367924,forward_fall
2.917483,0.4317,0.1495,-0.8747,-0.0386,0.9867,-0.0535,-30.375,16.4062,-32.85,,0.033849999999999714,0.9868207689342579,1.2370190830417465,forward_fall
2.938962,0.4317,0.1495,-0.8747,-0.0422,-0.0744,0.0438,-30.375,16.4062,-32.85,,0.021479000000000248,0.9868207689342579,1.1267302569756779,forward_fall
2.940403,0.4317,0.1495,-0.8747,-0.0422,-0.0744,0.0438,-30.375,16.4062,-32.85,,0.0014409999999998035,0.9868207689342579,1.03949419038148,forward_fall
2.942244,0.4317,0.1495,-0.8747,-0.0422,-0.0744,0.0438,-28.8563,16.3313,-35.0625,,0.0018410000000002036,0.9868207689342579,0.9764465954946043,forward_fall
2.998993,0.4317,0.1495,-0.8747,0.021,-0.7936,-0.0549,-28.8563,16.3313,-35.0625,,0.05674899999999994,0.9868207689342579,0.9360661783622597,forward_fall
3.000907,0.7884,-0.0211,0.5163,0.021,-0.7936,-0.0549,-28.8563,16.3313,-35.0625,,0.0019140000000001933,0.9426481103784169,0.9147996265029309,forward_fall
3.002128,0.7884,-0.0211,0.5163,0.021,-0.7936,-0.0549,-28.8563,16.3313,-35.0625,,0.0012209999999996946,0.9426481103784169,0.9079568166501897,forward_fall
3.003585,0.7884,-0.0211,0.5163,0.021,-0.7936,-0.0549,-28.2938,16.5188,-35.5875,,0.0014570000000002636,0.9426481103784169,0.9106051331760434,forward_fall
3.060574,0.7884,-0.0211,0.5163,0.021,-0.7936,-0.0549,-28.2938,16.5188,-35.5875,,0.056988999999999734,0.9426481103784169,0.9182513931098333,forward_fall
3.062039,0.6513,0.011,0.6378,0.021,-0.7936,-0.0549,-28.2938,16.5188,-35.5875,,0.0014650000000000496,0.9116477005949173,0.9272094662718701,forward_fall
3.063252,0.6513,0.011,0.6378,0.0398,-0.4723,0.043,-28.2938,16.5188,-35.5875,,0.0012129999999999086,0.9116477005949173,0.934664599950095,forward_fall
3.064096,0.6513,0.011,0.6378,0.0398,-0.4723,0.043,-28.7063,16.425,-35.175,,0.000844000000000289,0.9116477005949173,0.9385341354659043,forward_fall
3.119875,0.6513,0.011,0.6378,-0.0887,0.0115,0.1137,-28.7063,16.425,-35.175,,0.0557789999999998,0.9116477005949173,0.9372677673224279,forward_fall
3.121525,0.6513,0.011,0.6378,-0.0887,0.0115,0.1137,-28.7063,16.425,-35.175,,0.0016500000000001513,0.9116477005949173,0.9297190816268269,forward_fall
3.122324,0.4188,0.1515,-0.8054,-0.0887,0.0115,0.1137,-28.7063,16.425,-35.175,,0.0007989999999997721,0.9203340969452344,0.9151638502649335,forward_fall
3.123407,0.4188,0.1515,-0.8054,-0.0887,0.0115,0.1137,-28.9313,16.4625,-34.8188,,0.0010829999999999451,0.9203340969452344,0.8934642240202183,forward_fall
3.180741,0.4188,0.1515,-0.8054,-0.0639,0.0285,0.1843,-28.9313,16.4625,-34.8188,,0.057333999999999996,0.9203340969452344,0.8653105168856051,forward_fall
3.182109,0.3259,0.3377,-0.6218,-0.0639,0.0285,0.1843,-28.9313,16.4625,-34.8188,,0.001368000000000258,0.7790297426927936,0.832439956163216,forward_fall
3.183658,0.3259,0.3377,-0.6218,-0.0639,0.0285,0.1843,-28.9313,16.4625,-34.8188,,0.0015489999999998005,0.7790297426927936,0.7977462173299334,non_fall
3.184831,0.3259,0.3377,-0.6218,-0.0639,0.0285,0.1843,-29.1563,16.6125,-35.0625,,0.0011730000000000906,0.7790297426927936,0.7652354569504145,non_fall
3.243578,0.3259,0.3377,-0.6218,-0.0639,0.0285,0.1843,-29.1563,16.6125,-35.0625,,0.05874699999999988,0.7790297426927936,0.7398131234294043,non_fall
3.24497,0.3259,0.3377,-0.6218,-0.0639,0.0285,0.1843,-29.0063,16.9313,-35.175,,0.0013920000000000599,0.7790297426927936,0.726883241944441,non_fall
3.245909,0.3259,0.3377,-0.6218,-0.0876,0.5471,0.0939,-29.0063,16.9313,-35.175,,0.0009390000000002452,0.7790297426927936,0.7317388856420811,non_fall
3.263694,0.3914,0.2215,-0.5844,-0.0876,0.5471,0.0939,-29.0063,16.9313,-35.175,,0.01778499999999994,0.7374141102528484,0.7587647270078469,non_fall
3.305536,0.3914,0.2215,-0.5844,-0.0876,0.5471,0.0939,-28.8188,17.0813,-35.625,,0.041841999999999935,0.7374141102528484,0.8105688041913776,non_fall
3.307023,0.3914,0.2215,-0.5844,-0.0876,0.5471,0.0939,-28.8188,17.0813,-35.625,,0.001487000000000016,0.7374141102528484,0.887267388318889,non_fall
3.307971,0.3914,0.2215,-0.5844,-0.0848,1.08,0.0526,-28.8188,17.0813,-35.625,,0.0009480000000001709,0.7374141102528484,0.9861864971612854,non_fall
3.324738,0.1511,0.6434,-1.2596,-0.0848,1.08,0.0526,-28.8188,17.0813,-35.625,,0.016766999999999754,1.422458059135664,1.10214155572644,non_fall
3.365542,0.1511,0.6434,-1.2596,-0.0848,1.08,0.0526,-28.4438,17.2125,-35.8688,,0.04080400000000006,1.422458059135664,1.2282076392639802,non_fall
3.366901,0.1511,0.6434,-1.2596,-0.0848,1.08,0.0526,-28.4438,17.2125,-35.8688,,0.001358999999999888,1.422458059135664,1.3566297201325077,non_fall
3.367892,0.1511,0.6434,-1.2596,-0.2796,1.2966,-0.1959,-28.4438,17.2125,-35.8688,,0.0009909999999999641,1.422458059135664,1.4794622945524394,non_fall
3.384258,0.4454,0.1369,-1.4664,-0.2796,1.2966,-0.1959,-28.4438,17.2125,-35.8688,,0.016366000000000103,1.5386525696205755,1.5887589088847316,non_fall
3.424568,0.4454,0.1369,-1.4664,-0.2796,1.2966,-0.1959,-27.675,17.55,-36.2438,,0.040309999999999846,1.5386525696205755,1.6764932670727983,non_fall
3.42763,0.4454,0.1369,-1.4664,-0.4245,1.483,-0.3194,-27.675,17.55,-36.2438,,0.0030620000000003422,1.5386525696205755,1.7346322647347123,non_fall
3.428949,0.4454,0.1369,-1.4664,-0.4245,1.483,-0.3194,-27.675,17.55,-36.2438,,0.001318999999999626,1.5386525696205755,1.755766738228998,non_fall
3.464505,0.2055,-1.2657,-1.4131,-0.4245,1.483,-0.3194,-27.675,17.55,-36.2438,,0.03555600000000014,1.908160986395016,1.7344477087963275,non_fall
3.482995,0.2055,-1.2657,-1.4131,-0.4245,1.483,-0.3194,-26.4938,17.85,-37.0688,,0.018489999999999895,1.908160986395016,1.6689579699392545,non_fall
3.484719,0.2055,-1.2657,-1.4131,-0.2732,1.2484,-0.2611,-26.4938,17.85,-37.0688,,0.0017240000000002809,1.908160986395016,1.562838039715571,non_fall
3.485141,0.2055,-1.2657,-1.4131,-0.2732,1.2484,-0.2611,-26.4938,17.85,-37.0688,,0.00042199999999992244,1.908160986395016,1.4253282518197885,non_fall
3.52554,0.1446,-0.6988,-0.3076,-0.2732,1.2484,-0.2611,-26.4938,17.85,-37.0688,,0.04039899999999985,0.777076804440848,1.2701764661389487,non_fall
3.542702,0.1446,-0.6988,-0.3076,-0.2732,1.2484,-0.2611,-24.75,18.2625,-38.3813,,0.0171619999999999,0.777076804440848,1.1129478210868082,non_fall
3.545417,0.1446,-0.6988,-0.3076,-0.1213,1.0317,-0.0734,-24.75,18.2625,-38.3813,,0.002715000000000245,0.777076804440848,0.9677120587260335,non_fall
3.546132,0.1446,-0.6988,-0.3076,-0.1213,1.0317,-0.0734,-24.75,18.2625,-38.3813,,0.0007150000000000212,0.777076804440848,0.8443094655689909,non_fall
3.587657,-0.2223,-0.2021,0.7014,-0.1213,1.0317,-0.0734,-24.75,18.2625,-38.3813,,0.041525000000000034,0.7630358182942659,0.7471001143212687,non_fall
3.602824,-0.2223,-0.2021,0.7014,-0.1213,1.0317,-0.0734,-22.8563,18.5438,-39.4688,,0.01516699999999993,0.7630358182942659,0.6754187659341979,non_fall
3.607394,-0.2223,-0.2021,0.7014,-0.0511,0.6977,0.2493,-22.8563,18.5438,-39.4688,,0.004570000000000185,0.7630358182942659,0.6253149141727992,non_fall
3.608042,-0.2223,-0.2021,0.7014,-0.0511,0.6977,0.2493,-22.8563,18.5438,-39.4688,,0.0006479999999999819,0.7630358182942659,0.5918140198342252,non_fall
3.648315,-0.1101,0.4543,0.3181,-0.0511,0.6977,0.2493,-22.8563,18.5438,-39.4688,,0.040273,0.5654185264032299,0.5709208608378575,non_fall
3.664236,-0.1101,0.4543,0.3181,-0.0511,0.6977,0.2493,-20.4938,18.9188,-40.3313,,0.01592099999999963,0.5654185264032299,0.5608148267616939,non_fall
3.667994,-0.1101,0.4543,0.3181,-0.0092,0.3409,0.0345,-20.4938,18.9188,-40.3313,,0.003758000000000372,0.5654185264032299,0.5620320165230528,non_fall
3.668665,-0.1101,0.4543,0.3181,-0.0092,0.3409,0.0345,-20.4938,18.9188,-40.3313,,0.0006709999999996441,0.5654185264032299,0.576749445976766,non_fall
3.72419,-0.1101,0.4543,0.3181,-0.0092,0.3409,0.0345,-18.375,19.2188,-41.4,,0.05552500000000027,0.5654185264032299,0.6074900952530775,non_fall
3.728941,-0.1101,0.4543,0.3181,-0.0092,0.3409,0.0345,-18.375,19.2188,-41.4,,0.004750999999999728,0.5654185264032299,0.6556466393378252,non_fall
3.729854,0.5364,-0.1377,0.5239,-0.0092,0.3409,0.0345,-18.375,19.2188,-41.4,,0.0009130000000001637,0.7623368415602122,0.7202123462415242,non_fall
3.730648,0.5364,-0.1377,0.5239,0.0128,-0.4446,-0.0241,-18.375,19.2188,-41.4,,0.0007939999999999614,0.7623368415602122,0.7970360099815711,non_fall
3.784287,0.5364,-0.1377,0.5239,0.0128,-0.4446,-0.0241,-16.7625,19.575,-42.0188,,0.05363899999999999,0.7623368415602122,0.8788055712789449,non_fall
3.790347,0.5364,-0.1377,0.5239,0.0128,-0.4446,-0.0241,-16.7625,19.575,-42.0188,,0.006060000000000176,0.7623368415602122,0.9558386987050539,non_fall
3.791333,0.1849,-0.0541,1.1623,0.0128,-0.4446,-0.0241,-16.7625,19.575,-42.0188,,0.0009859999999997093,1.178157930839495,1.0176138274187474,non_fall
3.792318,0.1849,-0.0541,1.1623,0.0541,-0.7344,-0.2385,-16.7625,19.575,-42.0188,,0.0009850000000000136,1.178157930839495,1.0547792785452745,non_fall
3.843663,0.1849,-0.0541,1.1623,0.0541,-0.7344,-0.2385,-15.6938,19.8563,-42.4125,,0.051344999999999974,1.178157930839495,1.0611612733608844,non_fall
3.853657,0.1849,-0.0541,1.1623,0.0381,-0.6658,-0.2441,-15.6938,19.8563,-42.4125,,0.00999400000000028,1.178157930839495,1.0351860198643204,non_fall
3.854388,0.1849,-0.0541,1.1623,0.0381,-0.6658,-0.2441,-15.6938,19.8563,-42.4125,,0.0007310000000000372,1.178157930839495,0.9802536037792251,non_fall
3.854682,0.2949,-0.1877,0.497,0.0381,-0.6658,-0.2441,-15.6938,19.8563,-42.4125,,0.0002939999999997944,0.6076234853920641,0.9039369281717963,non_fall
3.904291,0.2949,-0.1877,0.497,0.0381,-0.6658,-0.2441,-15.2625,19.9125,-42.45,,0.049609000000000236,0.6076234853920641,0.8162989575171009,non_fall
3.912076,0.2949,-0.1877,0.497,0.0381,-0.6658,-0.2441,-15.2625,19.9125,-42.45,,0.007784999999999709,0.6076234853920641,0.727942747433218,non_fall
3.912935,0.2949,-0.1877,0.497,0.0217,-0.8441,-0.3928,-15.2625,19.9125,-42.45,,0.0008590000000001652,0.6076234853920641,0.6484500671276525,non_fall
3.933245,0.2621,-0.2399,0.6153,0.0217,-0.8441,-0.3928,-15.2625,19.9125,-42.45,,0.020309999999999828,0.7105227019596206,0.585575872991787,non_fall
3.964188,0.2621,-0.2399,0.6153,0.0217,-0.8441,-0.3928,-15.7125,19.6688,-42.075,,0.030943000000000165,0.7105227019596206,0.5451136652888618,non_fall
3.973729,0.2621,-0.2399,0.6153,0.0334,-0.7904,-0.5253,-15.7125,19.6688,-42.075,,0.009541000000000022,0.7105227019596206,0.530998467822877,non_fall
3.975153,0.2621,-0.2399,0.6153,0.0334,-0.7904,-0.5253,-15.7125,19.6688,-42.075,,0.0014240000000000919,0.7105227019596206,0.5451504933090005,non_fall
3.993922,0.269,-0.0928,0.3352,0.0334,-0.7904,-0.5253,-15.7125,19.6688,-42.075,,0.018768999999999814,0.43969521261892314,0.5868036899250623,non_fall
4.023478,0.269,-0.0928,0.3352,0.0334,-0.7904,-0.5253,-16.5375,19.3125,-41.3625,,0.029555999999999916,0.43969521261892314,0.6514929411973386,non_fall
4.0338,0.269,-0.0928,0.3352,0.0334,-0.7904,-0.5253,-16.5375,19.3125,-41.3625,,0.010322000000000386,0.43969521261892314,0.7302811997881188,non_fall
4.035468,0.269,-0.0928,0.3352,0.0487,-0.6381,-0.8558,-16.5375,19.3125,-41.3625,,0.0016679999999995587,0.43969521261892314,0.8099583549130916,non_fall
4.054824,0.8525,-0.7777,0.1915,0.0487,-0.6381,-0.8558,-16.5375,19.3125,-41.3625,,0.01935600000000015,1.1697203896658381,0.8746932679279829,non_fall
4.084526,0.8525,-0.7777,0.1915,0.0487,-0.6381,-0.8558,-18.0,18.8438,-40.575,,0.02970200000000034,1.1697203896658381,0.9090266742352913,non_fall
4.09469,0.8525,-0.7777,0.1915,0.0913,-0.9051,-0.842,-18.0,18.8438,-40.575,,0.010163999999999618,1.1697203896658381,0.9014395092086207,non_fall
4.096243,0.8525,-0.7777,0.1915,0.0913,-0.9051,-0.842,-18.0,18.8438,-40.575,,0.0015530000000003596,1.1697203896658381,0.8473992044677997,non_fall
4.115681,0.1922,0.1461,0.2908,0.0913,-0.9051,-0.842,-18.0,18.8438,-40.575,,0.019438000000000066,0.37795593658520565,0.7509936923528332,non_fall
4.143771,0.1922,0.1461,0.2908,0.0913,-0.9051,-0.842,-19.95,18.0188,-39.6188,,0.028089999999999726,0.37795593658520565,0.6248832274362525,non_fall
4.156367,0.1922,0.1461,0.2908,0.0913,-0.9051,-0.842,-19.95,18.0188,-39.6188,,0.012596000000000274,0.37795593658520565,0.488938256726362,non_fall
4.157347,0.1922,0.1461,0.2908,-0.1739,-0.712,-0.7337,-19.95,18.0188,-39.6188,,0.0009799999999993148,0.37795593658520565,0.36819599576307616,non_fall
4.195946,-0.2465,0.4876,-0.0718,-0.1739,-0.712,-0.7337,-19.95,18.0188,-39.6188,,0.038599000000000494,0.5510637440441895,0.2905537413598865,non_fall
4.202521,-0.2465,0.4876,-0.0718,-0.1739,-0.712,-0.7337,-22.2938,17.1,-38.7,,0.0065749999999997755,0.5510637440441895,0.2841760753607282,non_fall
4.215791,-0.2465,0.4876,-0.0718,-0.1807,-0.3606,-1.0031,-22.2938,17.1,-38.7,,0.013270000000000337,0.5510637440441895,0.37431635167152416,non_fall
4.216823,-0.2465,0.4876,-0.0718,-0.1807,-0.3606,-1.0031,-22.2938,17.1,-38.7,,0.0010319999999994778,0.5510637440441895,0.579374063708761,non_fall
4.258147,0.5773,0.0408,0.8201,-0.1807,-0.3606,-1.0031,-22.2938,17.1,-38.7,,0.04132400000000036,1.0037449576461144,0.9064906487516348,non_fall
4.262014,0.5773,0.0408,0.8201,-0.1807,-0.3606,-1.0031,-24.675,15.7125,-37.6688,,0.0038669999999996207,1.0037449576461144,1.3475959714618782,non_fall
4.277591,0.5773,0.0408,0.8201,0.2582,-0.38,-2.5558,-24.675,15.7125,-37.6688,,0.015577000000000396,1.0037449576461144,1.8772841699667375,non_fall
4.279566,0.5773,0.0408,0.8201,0.2582,-0.38,-2.5558,-24.675,15.7125,-37.6688,,0.001974999999999838,1.0037449576461144,2.453968223078677,non_fall
4.317374,3.7153,-2.1423,0.7227,0.2582,-0.38,-2.5558,-24.675,15.7125,-37.6688,,0.037808000000000064,4.3491606856955745,3.0251605122099767,non_fall
4.322459,3.7153,-2.1423,0.7227,0.2582,-0.38,-2.5558,-26.8125,13.9875,-37.0312,,0.005085000000000228,4.3491606856955745,3.5363334852180315,non_fall
4.337426,3.7153,-2.1423,0.7227,-0.2105,0.2206,-1.7454,-26.8125,13.9875,-37.0312,,0.014966999999999508,4.3491606856955745,3.9411436868319933,non_fall
4.338947,3.7153,-2.1423,0.7227,-0.2105,0.2206,-1.7454,-26.8125,13.9875,-37.0312,,0.0015210000000003276,4.3491606856955745,4.209944827691334,non_fall
4.384225,3.7153,-2.1423,0.7227,-0.2105,0.2206,-1.7454,-28.7063,12.0938,-36.4125,,0.04527799999999971,4.3491606856955745,4.334132195292665,non_fall
4.399439,3.7153,-2.1423,0.7227,-0.2775,0.041,-1.0834,-28.7063,12.0938,-36.4125,,0.015214000000000283,4.3491606856955745,4.325459384099725,non_fall
4.400928,3.7153,-2.1423,0.7227,-0.2775,0.041,-1.0834,-28.7063,12.0938,-36.4125,,0.0014890000000002956,4.3491606856955745,4.211026684150038,non_fall
4.401639,-2.4082,-0.3351,-2.3684,-0.2775,0.041,-1.0834,-28.7063,12.0938,-36.4125,,0.0007109999999999062,3.3942654301041335,4.025606609167184,non_fall
4.443245,-2.4082,-0.3351,-2.3684,-0.2775,0.041,-1.0834,-30.075,10.1813,-35.7,,0.04160599999999981,3.3942654301041335,3.8033765935828154,non_fall
4.459874,-2.4082,-0.3351,-2.3684,0.1146,-1.0329,0.3494,-30.075,10.1813,-35.7,,0.016629000000000005,3.3942654301041335,3.5710865053781675,non_fall
4.460875,-2.4082,-0.3351,-2.3684,0.1146,-1.0329,0.3494,-30.075,10.1813,-35.7,,0.0010009999999995856,3.3942654301041335,3.34417650403339,non_fall
4.461163,-0.6094,-2.8933,-0.5529,0.1146,-1.0329,0.3494,-30.075,10.1813,-35.7,,0.000288000000000288,3.0080311933223034,3.1264434622646307,non_fall
4.504253,-0.6094,-2.8933,-0.5529,0.1146,-1.0329,0.3494,-31.8,8.4,-34.7812,,0.043090000000000295,3.0080311933223034,2.912847360053162,non_fall
4.521192,-0.6094,-2.8933,-0.5529,-0.1498,-0.8213,0.1418,-31.8,8.4,-34.7812,,0.016938999999999815,3.0080311933223034,2.6943038674636983,non_fall
4.521971,-0.6094,-2.8933,-0.5529,-0.1498,-0.8213,0.1418,-31.8,8.4,-34.7812,,0.0007789999999996411,3.0080311933223034,2.462965244063784,non_fall
4.522269,-1.6397,0.3657,0.8637,-0.1498,-0.8213,0.1418,-31.8,8.4,-34.7812,,0.00029799999999990945,1.8890024536776018,2.216547036643562,non_fall
4.564071,-1.6397,0.3657,0.8637,-0.1498,-0.8213,0.1418,-33.0938,7.0313,-34.05,,0.04180200000000056,1.8890024536776018,1.9606904347595413,non_fall
4.581539,-1.6397,0.3657,0.8637,-0.081,-0.4131,0.2418,-33.0938,7.0313,-34.05,,0.01746800000000004,1.8890024536776018,1.7090064833031453,non_fall
4.583646,-1.6397,0.3657,0.8637,-0.081,-0.4131,0.2418,-33.0938,7.0313,-34.05,,0.002106999999999637,1.8890024536776018,1.4810150297186087,non_fall
4.584218,-0.6967,0.6603,0.0402,-0.081,-0.4131,0.2418,-33.0938,7.0313,-34.05,,0.0005720000000000169,0.9607304616800698,1.2984961295936146,non_fall
4.623957,-0.6967,0.6603,0.0402,-0.081,-0.4131,0.2418,-34.275,5.8125,-33.15,,0.03973899999999997,0.9607304616800698,1.1809618463578213,non_fall
4.644586,-0.6967,0.6603,0.0402,-0.081,-0.4131,0.2418,-34.275,5.8125,-33.15,,0.020629000000000453,0.9607304616800698,1.1411821795626191,non_fall
4.64601,-0.6967,0.6603,0.0402,-0.1434,-0.7819,1.0779,-34.275,5.8125,-33.15,,0.0014240000000000919,0.9607304616800698,1.1818123720076938,non_fall
4.66396,-0.6645,1.3447,0.1474,-0.1434,-0.7819,1.0779,-34.275,5.8125,-33.15,,0.01794999999999991,1.5071513195429316,1.29394213504759,non_fall
4.686002,-0.6645,1.3447,0.1474,-0.1434,-0.7819,1.0779,-35.2313,5.1562,-31.95,,0.022041999999999895,1.5071513195429316,1.4578629430426058,non_fall
4.705546,-0.6645,1.3447,0.1474,-0.0458,-0.334,0.8975,-35.2313,5.1562,-31.95,,0.019543999999999784,1.5071513195429316,1.6458098488838897,non_fall
4.707426,-0.6645,1.3447,0.1474,-0.0458,-0.334,0.8975,-35.2313,5.1562,-31.95,,0.0018799999999998818,1.5071513195429316,1.8261123401340027,non_fall
4.724496,-0.8225,1.7694,1.2433,-0.0458,-0.334,0.8975,-35.2313,5.1562,-31.95,,0.017070000000000363,2.3136718652393213,1.96807340386553,non_fall
4.744121,-0.8225,1.7694,1.2433,-0.0458,-0.334,0.8975,-35.9438,5.1375,-31.0125,,0.01962499999999956,2.3136718652393213,2.046806897692351,non_fall
4.765027,-0.8225,1.7694,1.2433,-0.0546,-0.1695,0.4655,-35.9438,5.1375,-31.0125,,0.02090600000000009,2.3136718652393213,2.0471367495536765,non_fall
4.76646,-0.8225,1.7694,1.2433,-0.0546,-0.1695,0.4655,-35.9438,5.1375,-31.0125,,0.0014330000000004617,2.3136718652393213,1.9656917181739855,non_fall
4.786104,1.2197,0.3866,-0.0002,-0.0546,-0.1695,0.4655,-35.9438,5.1375,-31.0125,,0.01964399999999955,1.2795029073823943,1.8107322624158355,non_fall
4.805455,1.2197,0.3866,-0.0002,-0.0546,-0.1695,0.4655,-36.6375,5.6438,-29.5125,,0.01935100000000034,1.2795029073823943,1.5999457745911916,non_fall
4.825778,1.2197,0.3866,-0.0002,0.1768,-0.4866,0.6394,-36.6375,5.6438,-29.5125,,0.020322999999999425,1.2795029073823943,1.357065000819007,non_fall
4.827605,1.2197,0.3866,-0.0002,0.1768,-0.4866,0.6394,-36.6375,5.6438,-29.5125,,0.0018270000000004671,1.2795029073823943,1.1083102790536687,non_fall
4.865004,1.2197,0.3866,-0.0002,0.1768,-0.4866,0.6394,-37.35,6.5625,-28.05,,0.03739899999999974,1.2795029073823943,0.8792768490218176,non_fall
4.867038,-0.2115,0.1682,0.3968,0.1768,-0.4866,0.6394,-37.35,6.5625,-28.05,,0.0020340000000000913,0.4800767959399829,0.6923565707446679,non_fall
4.886702,-0.2115,0.1682,0.3968,0.3196,-0.7759,0.7485,-37.35,6.5625,-28.05,,0.01966399999999968,0.4800767959399829,0.5645481128391076,non_fall
4.889204,-0.2115,0.1682,0.3968,0.3196,-0.7759,0.7485,-37.35,6.5625,-28.05,,0.0025020000000006704,0.4800767959399829,0.5056627630607634,non_fall
4.92567,-0.2115,0.1682,0.3968,0.3196,-0.7759,0.7485,-38.1562,7.7063,-26.4375,,0.03646599999999989,0.4800767959399829,0.517192323372993,non_fall
4.927705,-0.0564,0.2275,0.5471,0.3196,-0.7759,0.7485,-38.1562,7.7063,-26.4375,,0.002034999999999343,0.5951937667684366,0.5921878849454965,non_fall
4.948238,-0.0564,0.2275,0.5471,0.3196,-0.7759,0.7485,-38.1562,7.7063,-26.4375,,0.020533000000000357,0.5951937667684366,0.7163838724058222,non_fall
4.949608,-0.0564,0.2275,0.5471,0.391,-1.4465,1.0037,-38.1562,7.7063,-26.4375,,0.0013699999999996493,0.5951937667684366,0.8706225189843889,non_fall
4.984879,-0.0564,0.2275,0.5471,0.391,-1.4465,1.0037,-38.5312,9.2812,-24.6563,,0.03527100000000072,0.5951937667684366,1.0344368254788234,non_fall
4.987974,-0.5288,1.1023,1.3657,0.391,-1.4465,1.0037,-38.5312,9.2812,-24.6563,,0.00309500000000007,1.8329842388847757,1.190347128607392,non_fall
5.008836,-0.5288,1.1023,1.3657,0.1165,-2.9215,1.1908,-38.5312,9.2812,-24.6563,,0.02086199999999927,1.8329842388847757,1.3279653804660545,non_fall
5.009818,-0.5288,1.1023,1.3657,0.1165,-2.9215,1.1908,-38.5312,9.2812,-24.6563,,0.0009820000000004825,1.8329842388847757,1.4465872762068468,non_fall
5.043989,-0.5288,1.1023,1.3657,0.1165,-2.9215,1.1908,-39.4313,10.5375,-21.5813,,0.03417099999999973,1.8329842388847757,1.5550093400151144,non_fall
5.049385,0.349,0.6071,1.2911,0.1165,-2.9215,1.1908,-39.4313,10.5375,-21.5813,,0.005396000000000178,1.4687786150404014,1.6680759635227762,non_fall
5.069025,0.349,0.6071,1.2911,-0.1775,-3.8591,0.419,-39.4313,10.5375,-21.5813,,0.01963999999999988,1.4687786150404014,1.800685322264102,non_fall
5.070426,0.349,0.6071,1.2911,-0.1775,-3.8591,0.419,-39.4313,10.5375,-21.5813,,0.0014010000000004297,1.4687786150404014,1.9610930969976346,non_fall
5.105022,0.349,0.6071,1.2911,-0.1775,-3.8591,0.419,-40.2563,12.2438,-17.8125,,0.03459599999999963,1.4687786150404014,2.1458597206990375,non_fall
5.130502,0.349,0.6071,1.2911,-0.1775,-3.8591,0.419,-40.2563,12.2438,-17.8125,,0.025479999999999947,1.4687786150404014,2.3384738032077546,non_fall
5.132029,3.0881,-0.9433,-0.2449,-0.1775,-3.8591,0.419,-40.2563,12.2438,-17.8125,,0.0015270000000002781,3.2382329301642274,2.5125830697025147,non_fall
5.132784,3.0881,-0.9433,-0.2449,0.2145,-2.4177,-0.618,-40.2563,12.2438,-17.8125,,0.0007549999999998391,3.2382329301642274,2.639138031726602,non_fall
5.164776,3.0881,-0.9433,-0.2449,0.2145,-2.4177,-0.618,-41.0625,13.3688,-13.6875,,0.0319919999999998,3.2382329301642274,2.695174853477022,non_fall
5.191174,3.0881,-0.9433,-0.2449,0.6241,-2.6982,-0.0648,-41.0625,13.3688,-13.6875,,0.026398000000000366,3.2382329301642274,2.671191938915652,non_fall
5.192989,3.0881,-0.9433,-0.2449,0.6241,-2.6982,-0.0648,-41.0625,13.3688,-13.6875,,0.001814999999999678,3.2382329301642274,2.5745517584091955,non_fall
5.193782,1.1983,-0.6611,0.878,0.6241,-2.6982,-0.0648,-41.0625,13.3688,-13.6875,,0.0007929999999998216,1.625995110693756,2.4278380282635057,non_fall
5.224237,1.1983,-0.6611,0.878,0.6241,-2.6982,-0.0648,-41.5875,14.2875,-8.7188,,0.0304549999999999,1.625995110693756,2.262951932757716,non_fall
5.252882,1.1983,-0.6611,0.878,0.977,-2.4312,0.0182,-41.5875,14.2875,-8.7188,,0.02864500000000003,1.625995110693756,2.113198240775822,non_fall
5.255177,1.1983,-0.6611,0.878,0.977,-2.4312,0.0182,-41.5875,14.2875,-8.7188,,0.002295000000000158,1.625995110693756,2.0060761033103627,non_fall
5.255847,-1.2954,0.8551,1.7914,0.977,-2.4312,0.0182,-41.5875,14.2875,-8.7188,,0.0006700000000003925,2.370310344659534,1.958761411928867,non_fall
5.284742,-1.2954,0.8551,1.7914,0.977,-2.4312,0.0182,-41.8688,15.0563,-3.6,,0.02889499999999945,2.370310344659534,1.9768132039265855,non_fall
5.315442,-1.2954,0.8551,1.7914,0.4178,-0.1554,-0.4934,-41.8688,15.0563,-3.6,,0.030700000000000394,2.370310344659534,2.0552900545714325,non_fall
5.317453,-1.2954,0.8551,1.7914,0.4178,-0.1554,-0.4934,-41.8688,15.0563,-3.6,,0.002011000000000429,2.370310344659534,2.1808708482470203,non_fall
5.334123,0.7707,-0.4282,-1.9706,0.4178,-0.1554,-0.4934,-41.8688,15.0563,-3.6,,0.01666999999999952,2.158841839968829,2.333867642469337,non_fall
5.342585,0.7707,-0.4282,-1.9706,0.4178,-0.1554,-0.4934,-42.225,15.6375,1.7063,,0.008461999999999748,2.158841839968829,2.4898413913035053,non_fall
5.373066,0.7707,-0.4282,-1.9706,0.0686,-0.1901,-0.2505,-42.225,15.6375,1.7063,,0.03048099999999998,2.158841839968829,2.6213260240245617,non_fall
5.374341,0.7707,-0.4282,-1.9706,0.0686,-0.1901,-0.2505,-42.225,15.6375,1.7063,,0.0012750000000005812,2.158841839968829,2.700479166754225,non_fall
5.393716,-1.0783,0.0686,-2.9241,0.0686,-0.1901,-0.2505,-42.225,15.6375,1.7063,,0.019375000000000142,3.1173382331726534,2.703119273820072,non_fall
5.404153,-1.0783,0.0686,-2.9241,0.0686,-0.1901,-0.2505,-42.6938,16.1063,6.6188,,0.010436999999999585,3.1173382331726534,2.6137078042134303,non_fall
5.437049,-1.0783,0.0686,-2.9241,0.0686,-0.1901,-0.2505,-42.6938,16.1063,6.6188,,0.032896000000000036,3.1173382331726534,2.4298467996990163,non_fall
5.438782,-1.0783,0.0686,-2.9241,0.0639,-0.1344,-0.1411,-42.6938,16.1063,6.6188,,0.0017329999999997625,3.1173382331726534,2.1644183236528045,non_fall
5.45774,-0.848,-0.1018,0.2986,0.0639,-0.1344,-0.1411,-42.6938,16.1063,6.6188,,0.018958000000000474,0.9047812995414969,1.8440303930815802,non_fall
5.465129,-0.848,-0.1018,0.2986,0.0639,-0.1344,-0.1411,-42.975,16.05,11.2125,,0.007388999999999868,0.9047812995414969,1.5038339920086643,non_fall
5.495976,-0.848,-0.1018,0.2986,0.0036,-0.1354,-0.1405,-42.975,16.05,11.2125,,0.030846999999999625,0.9047812995414969,1.1803036823842132,non_fall
5.497844,-0.848,-0.1018,0.2986,0.0036,-0.1354,-0.1405,-42.975,16.05,11.2125,,0.0018679999999999808,0.9047812995414969,0.9043083396291778,non_fall
5.517393,-0.4858,-0.1367,-0.3788,0.0036,-0.1354,-0.1405,-42.975,16.05,11.2125,,0.019549000000000483,0.6310134467663903,0.6963623117410273,non_fall
5.524094,-0.4858,-0.1367,-0.3788,0.0036,-0.1354,-0.1405,-42.6938,15.75,14.8875,,0.006700999999999624,0.6310134467663903,0.5648177234352827,non_fall
5.55826,-0.4858,-0.1367,-0.3788,0.0036,-0.1354,-0.1405,-42.6938,15.75,14.8875,,0.03416599999999992,0.6310134467663903,0.5067126096233524,non_fall
5.560062,-0.4858,-0.1367,-0.3788,-0.0305,-0.0194,-0.0542,-42.6938,15.75,14.8875,,0.0018020000000005254,0.6310134467663903,0.5104166014722527,non_fall
5.583993,-0.4858,-0.1367,-0.3788,-0.0305,-0.0194,-0.0542,-42.5063,15.4313,17.1375,,0.023931000000000147,0.6310134467663903,0.5590738878320729,non_fall
5.597478,-0.6502,-0.1,-0.3093,-0.0305,-0.0194,-0.0542,-42.5063,15.4313,17.1375,,0.013484999999999303,0.72692952203085,0.6339767464838357,non_fall
5.617966,-0.6502,-0.1,-0.3093,0.1115,0.1088,0.0455,-42.5063,15.4313,17.1375,,0.020488000000000284,0.72692952203085,0.7172911153074489,non_fall
5.620096,-0.6502,-0.1,-0.3093,0.1115,0.1088,0.0455,-42.5063,15.4313,17.1375,,0.0021300000000001873,0.72692952203085,0.7938954121479735,non_fall
5.64386,-0.6502,-0.1,-0.3093,0.1115,0.1088,0.0455,-42.15,15.1125,18.7875,,0.023763999999999896,0.72692952203085,0.8523924577585693,non_fall
5.659764,-0.7509,-0.0384,0.4957,0.1115,0.1088,0.0455,-42.15,15.1125,18.7875,,0.015903999999999918,0.9005797355037476,0.8855381936601301,non_fall
5.680674,-0.7509,-0.0384,0.4957,0.1115,0.1088,0.0455,-42.15,15.1125,18.7875,,0.020909999999999762,0.9005797355037476,0.8903577884180289,non_fall
5.682341,-0.7509,-0.0384,0.4957,0.267,0.0495,0.0451,-42.15,15.1125,18.7875,,0.0016670000000003071,0.9005797355037476,0.8681130512409736,non_fall
5.705453,-0.7509,-0.0384,0.4957,0.267,0.0495,0.0451,-41.8688,15.1313,19.425,,0.023112000000000243,0.9005797355037476,0.824139987054748,non_fall
5.720307,-0.3063,0.1396,0.5915,0.267,0.0495,0.0451,-41.8688,15.1313,19.425,,0.0148539999999997,0.6805733612183187,0.7674928909370724,non_fall
5.73919,-0.3063,0.1396,0.5915,0.3533,-0.7131,-0.1128,-41.8688,15.1313,19.425,,0.01888299999999976,0.6805733612183187,0.7103423114153242,non_fall
5.741119,-0.3063,0.1396,0.5915,0.3533,-0.7131,-0.1128,-41.8688,15.1313,19.425,,0.0019290000000005136,0.6805733612183187,0.6671297000011541,non_fall
5.76411,-0.3063,0.1396,0.5915,0.3533,-0.7131,-0.1128,-41.8688,14.9813,19.7812,,0.022990999999999318,0.6805733612183187,0.6535089406912495,non_fall
5.802802,-0.3063,0.1396,0.5915,0.6578,-0.2228,-0.302,-41.8688,14.9813,19.7812,,0.03869200000000017,0.6805733612183187,0.685077680080979,non_fall
5.806675,-0.3063,0.1396,0.5915,0.6578,-0.2228,-0.302,-41.8688,14.9813,19.7812,,0.0038730000000004594,0.6805733612183187,0.7758554258731234,non_fall
5.808745,1.1093,0.7311,-0.2888,0.6578,-0.2228,-0.302,-41.8688,14.9813,19.7812,,0.0020699999999997942,1.3595805014783051,0.9364440832320304,non_fall
5.823934,1.1093,0.7311,-0.2888,0.6578,-0.2228,-0.302,-41.775,14.8125,20.1188,,0.015189000000000341,1.3595805014783051,1.1718334517928337,non_fall
5.864155,1.1093,0.7311,-0.2888,0.6578,-0.2228,-0.302,-41.775,14.8125,20.1188,,0.04022099999999984,1.3595805014783051,1.478947139569707,non_fall
5.866067,-1.0114,0.598,-1.3807,0.6578,-0.2228,-0.302,-41.775,14.8125,20.1188,,0.0019119999999999138,1.8129717179261238,1.8443423547460018,non_fall
5.867483,-1.0114,0.598,-1.3807,1.0974,0.118,-0.1937,-41.775,14.8125,20.1188,,0.0014159999999998618,1.8129717179261238,2.2429258249064863,non_fall
5.884451,-1.0114,0.598,-1.3807,1.0974,0.118,-0.1937,-41.6625,14.5313,20.3625,,0.016968000000000316,1.8129717179261238,2.638872678643034,non_fall
5.924651,-1.0114,0.598,-1.3807,1.0494,0.2643,-1.771,-41.6625,14.5313,20.3625,,0.04019999999999957,1.8129717179261238,2.9898139055291613,non_fall
5.929199,-0.2833,4.237,0.4135,1.0494,0.2643,-1.771,-41.6625,14.5313,20.3625,,0.0045479999999997744,4.266545457392901,3.254544983308887,non_fall
5.930959,-0.2833,4.237,0.4135,1.0494,0.2643,-1.771,-41.6625,14.5313,20.3625,,0.0017599999999999838,4.266545457392901,3.403003786370242,non_fall
5.944037,-0.2833,4.237,0.4135,1.0494,0.2643,-1.771,-41.925,14.0625,20.25,,0.013078000000000145,4.266545457392901,3.4256183877891733,non_fall
5.984778,-0.2833,4.237,0.4135,0.2826,0.8499,-1.8299,-41.925,14.0625,20.25,,0.04074100000000058,4.266545457392901,3.3383618649083577,non_fall
5.98902,-0.2833,4.237,0.4135,0.2826,0.8499,-1.8299,-41.925,14.0625,20.25,,0.004241999999999635,4.266545457392901,3.180705189641655,non_fall
5.989683,1.6917,0.2036,0.4084,0.2826,0.8499,-1.8299,-41.925,14.0625,20.25,,0.0006630000000003022,1.7521679171814555,3.0059505215044706,non_fall
6.006896,1.6917,0.2036,0.4084,0.2826,0.8499,-1.8299,-42.525,12.8438,19.5375,,0.017212999999999923,1.7521679171814555,2.8662839936195565,non_fall
6.045728,1.6917,0.2036,0.4084,0.2826,0.8499,-1.8299,-42.525,12.8438,19.5375,,0.0388320000000002,1.7521679171814555,2.7971966475243333,non_fall
6.048794,1.6917,0.2036,0.4084,0.7622,0.6509,0.1354,-42.525,12.8438,19.5375,,0.003065999999999569,1.7521679171814555,2.8066289912806113,non_fall
6.064679,1.6917,0.2036,0.4084,0.7622,0.6509,0.1354,-43.125,11.5125,18.7875,,0.015884999999999927,1.7521679171814555,2.872819940103735,non_fall
6.066339,-2.8123,-3.2618,0.1035,0.7622,0.6509,0.1354,-43.125,11.5125,18.7875,,0.0016600000000002169,4.308025392218574,2.951858703256361,non_fall
6.106471,-2.8123,-3.2618,0.1035,1.7121,0.779,0.7954,-43.125,11.5125,18.7875,,0.040131999999999834,4.308025392218574,2.9924602100907394,non_fall
6.10867,-2.8123,-3.2618,0.1035,1.7121,0.779,0.7954,-43.125,11.5125,18.7875,,0.002199000000000062,4.308025392218574,2.952790364131138,non_fall
6.125168,-2.8123,-3.2618,0.1035,1.7121,0.779,0.7954,-43.7438,10.7063,17.5875,,0.016498000000000346,4.308025392218574,2.813414468398289,non_fall
6.127977,-1.3645,-0.0995,-0.0744,1.7121,0.779,0.7954,-43.7438,10.7063,17.5875,,0.0028089999999991733,1.3701444668355232,2.5821214253652367,non_fall
6.166295,-1.3645,-0.0995,-0.0744,1.7121,0.779,0.7954,-43.7438,10.7063,17.5875,,0.038318000000000296,1.3701444668355232,2.2897817029164274,non_fall
6.168116,-1.3645,-0.0995,-0.0744,2.2674,1.1855,0.3182,-43.7438,10.7063,17.5875,,0.0018210000000005166,1.3701444668355232,1.979860355440399,non_fall
6.184019,-1.3645,-0.0995,-0.0744,2.2674,1.1855,0.3182,-44.6063,9.825,15.9938,,0.01590299999999978,1.3701444668355232,1.6960704827067696,non_fall
6.185824,-0.3457,1.2682,-0.0576,2.2674,1.1855,0.3182,-44.6063,9.825,15.9938,,0.0018050000000000566,1.3157345818971242,1.4723233308480075,non_fall
6.228651,-0.3457,1.2682,-0.0576,2.5755,0.5032,1.3928,-44.6063,9.825,15.9938,,0.04282699999999995,1.3157345818971242,1.3273468386903549,non_fall
6.230838,-0.3457,1.2682,-0.0576,2.5755,0.5032,1.3928,-44.6063,9.825,15.9938,,0.002187000000000161,1.3157345818971242,1.2643462667768623,non_fall
6.244985,-0.3457,1.2682,-0.0576,2.5755,0.5032,1.3928,-45.3,9.3563,13.7813,,0.014146999999999466,1.3157345818971242,1.2746336460435266,non_fall
6.266749,-1.7584,0.4009,0.5852,2.5755,0.5032,1.3928,-45.3,9.3563,13.7813,,0.021764000000000117,1.8960881862402919,1.3433797983317168,non_fall
6.288187,-1.7584,0.4009,0.5852,1.9593,1.5079,0.2674,-45.3,9.3563,13.7813,,0.021437999999999846,1.8960881862402919,1.455415741870164,non_fall
6.290107,-1.7584,0.4009,0.5852,1.9593,1.5079,0.2674,-45.3,9.3563,13.7813,,0.0019200000000001438,1.8960881862402919,1.5992565755871408,non_fall
6.304753,-1.7584,0.4009,0.5852,1.9593,1.5079,0.2674,-46.0688,9.225,10.8,,0.014645999999999937,1.8960881862402919,1.76824246920497,non_fall
6.328678,1.0782,1.0084,-0.6548,1.9593,1.5079,0.2674,-46.0688,9.225,10.8,,0.023925000000000196,1.614976420880503,1.9587937787554686,non_fall
6.349434,1.0782,1.0084,-0.6548,1.9593,1.5079,0.2674,-46.0688,9.225,10.8,,0.020755999999999553,1.614976420880503,2.166943654250212,non_fall
6.351786,1.0782,1.0084,-0.6548,1.9152,0.1503,-1.875,-46.0688,9.225,10.8,,0.0023520000000001318,1.614976420880503,2.385091386518481,non_fall
6.364174,1.0782,1.0084,-0.6548,1.9152,0.1503,-1.875,-46.8375,8.55,7.5375,,0.01238800000000051,1.614976420880503,2.6009272637012746,non_fall
6.389371,3.4332,-1.003,-1.4188,1.9152,0.1503,-1.875,-46.8375,8.55,7.5375,,0.02519699999999947,3.8478389623267755,2.7995519767215393,non_fall
6.409321,3.4332,-1.003,-1.4188,3.2114,1.7361,0.2024,-46.8375,8.55,7.5375,,0.01995000000000058,3.8478389623267755,2.968171785078225,non_fall
6.412278,3.4332,-1.003,-1.4188,3.2114,1.7361,0.2024,-46.8375,8.55,7.5375,,0.0029569999999994323,3.8478389623267755,3.10113441950908,non_fall
6.424048,3.4332,-1.003,-1.4188,3.2114,1.7361,0.2024,-47.2688,7.5563,4.0875,,0.01177000000000028,3.8478389623267755,3.202485451544539,non_fall
6.453289,-1.4488,-2.1984,-0.9857,3.2114,1.7361,0.2024,-47.2688,7.5563,4.0875,,0.02924099999999985,2.8113321557581914,3.284194332265547,non_fall
6.470074,-1.4488,-2.1984,-0.9857,3.2114,1.7361,0.2024,-47.2688,7.5563,4.0875,,0.016785000000000494,2.8113321557581914,3.360256097921104,non_fall
6.471354,-1.4488,-2.1984,-0.9857,2.8212,0.532,1.5397,-47.2688,7.5563,4.0875,,0.0012799999999995038,2.8113321557581914,3.438911055129339,non_fall
6.48368,-1.4488,-2.1984,-0.9857,2.8212,0.532,1.5397,-47.4375,7.425,0.2438,,0.012325999999999837,2.8113321557581914,3.5162631572075354,non_fall
6.531032,-1.4488,-2.1984,-0.9857,2.7673,-0.1756,1.0125,-47.4375,7.425,0.2438,,0.04735200000000006,2.8113321557581914,3.5742481268960544,non_fall
6.533101,-1.4488,-2.1984,-0.9857,2.7673,-0.1756,1.0125,-47.4375,7.425,0.2438,,0.0020690000000005426,2.8113321557581914,3.5844236680730805,non_fall
6.534304,0.2871,4.7212,-1.7572,2.7673,-0.1756,1.0125,-47.4375,7.425,0.2438,,0.001202999999999399,5.045781177379772,3.516910403614722,non_fall
6.544354,0.2871,4.7212,-1.7572,2.7673,-0.1756,1.0125,-47.3438,7.4813,-3.5625,,0.010050000000000558,5.045781177379772,3.35158203402264,non_fall
6.592673,0.2871,4.7212,-1.7572,2.7673,-0.1756,1.0125,-47.3438,7.4813,-3.5625,,0.048318999999999335,5.045781177379772,3.087145594061666,non_fall
6.595248,-0.5241,-0.5333,1.0985,2.7673,-0.1756,1.0125,-47.3438,7.4813,-3.5625,,0.002575000000000216,1.3288310464464623,2.744118375345043,non_fall
6.596056,-0.5241,-0.5333,1.0985,0.9053,0.6047,0.0541,-47.3438,7.4813,-3.5625,,0.0008080000000001419,1.3288310464464623,2.360229209110523,non_fall
6.604287,-0.5241,-0.5333,1.0985,0.9053,0.6047,0.0541,-47.1562,6.9375,-7.0875,,0.008231000000000321,1.3288310464464623,1.9802150691530138,non_fall
6.654585,-0.5241,-0.5333,1.0985,0.6699,0.0442,0.1687,-47.1562,6.9375,-7.0875,,0.05029799999999973,1.3288310464464623,1.644224808741926,non_fall
6.657002,-0.8626,-0.0614,0.9318,0.6699,0.0442,0.1687,-47.1562,6.9375,-7.0875,,0.0024170000000003355,1.2712592025232305,1.3789093097286618,non_fall
6.658161,-0.8626,-0.0614,0.9318,0.6699,0.0442,0.1687,-47.1562,6.9375,-7.0875,,0.001158999999999466,1.2712592025232305,1.193422452344996,non_fall
6.664263,-0.8626,-0.0614,0.9318,0.6699,0.0442,0.1687,-46.7812,6.0188,-10.0688,,0.006102000000000274,1.2712592025232305,1.080442849009038,non_fall
6.714001,-0.8626,-0.0614,0.9318,0.4981,0.074,-0.0943,-46.7812,6.0188,-10.0688,,0.049737999999999616,1.2712592025232305,1.0208892960088023,non_fall
6.715674,-0.8626,-0.0614,0.9318,0.4981,0.074,-0.0943,-46.7812,6.0188,-10.0688,,0.0016730000000002576,1.2712592025232305,0.9904052931443049,non_fall
6.717258,-0.6475,-0.2036,0.6626,0.4981,0.074,-0.0943,-46.7812,6.0188,-10.0688,,0.0015840000000002519,0.9485504572767861,0.9657500767001891,non_fall
6.724035,-0.6475,-0.2036,0.6626,0.4981,0.074,-0.0943,-46.425,4.8375,-12.7688,,0.006776999999999589,0.9485504572767861,0.9297174979577778,non_fall
6.774993,-0.6475,-0.2036,0.6626,0.6015,-0.243,-0.2321,-46.425,4.8375,-12.7688,,0.0509580000000005,0.9485504572767861,0.8738535523717528,non_fall
6.777111,-0.6475,-0.2036,0.6626,0.6015,-0.243,-0.2321,-46.425,4.8375,-12.7688,,0.002117999999999398,0.9485504572767861,0.7988225475161868,non_fall
6.783852,-0.6475,-0.2036,0.6626,0.6015,-0.243,-0.2321,-46.2188,3.2813,-14.7188,,0.006741000000000774,0.9485504572767861,0.7126747613297936,non_fall
6.796985,-0.0923,0.0057,0.2544,0.6015,-0.243,-0.2321,-46.2188,3.2813,-14.7188,,0.01313299999999984,0.27068642374526286,0.6275637518621076,non_fall
6.8358,-0.0923,0.0057,0.2544,0.3458,0.0023,-0.192,-46.2188,3.2813,-14.7188,,0.0388149999999996,0.27068642374526286,0.5557543169470931,non_fall
6.83824,-0.0923,0.0057,0.2544,0.3458,0.0023,-0.192,-46.2188,3.2813,-14.7188,,0.0024399999999999977,0.27068642374526286,0.5059951597563068,non_fall
6.844765,-0.0923,0.0057,0.2544,0.3458,0.0023,-0.192,-45.825,2.1562,-16.275,,0.006524999999999892,0.27068642374526286,0.48128759943511107,non_fall
6.85614,-0.2732,-0.0287,0.6431,0.3458,0.0023,-0.192,-45.825,2.1562,-16.275,,0.011375000000000135,0.6993136206309727,0.4786313961773648,non_fall
6.899317,-0.2732,-0.0287,0.6431,0.3458,0.0023,-0.192,-45.825,2.1562,-16.275,,0.04317700000000002,0.6993136206309727,0.490614221127778,non_fall
6.902332,-0.2732,-0.0287,0.6431,0.3586,0.1354,-0.2672,-45.825,2.1562,-16.275,,0.003015000000000434,0.6993136206309727,0.5080696924845919,non_fall
6.903728,-0.2732,-0.0287,0.6431,0.3586,0.1354,-0.2672,-45.4875,1.5188,-17.2313,,0.0013959999999997308,0.6993136206309727,0.5227583880668941,non_fall
6.91761,0.1382,0.1516,0.3799,0.3586,0.1354,-0.2672,-45.4875,1.5188,-17.2313,,0.013881999999999728,0.4317473914223455,0.529212063522312,non_fall
6.959499,0.1382,0.1516,0.3799,0.3586,0.1354,-0.2672,-45.4875,1.5188,-17.2313,,0.04188900000000029,0.4317473914223455,0.5253708536934429,non_fall
6.961413,0.1382,0.1516,0.3799,0.2071,-0.0808,-0.0638,-45.4875,1.5188,-17.2313,,0.0019140000000001933,0.4317473914223455,0.5121615496697632,non_fall
6.965119,0.1382,0.1516,0.3799,0.2071,-0.0808,-0.0638,-45.3188,0.5625,-17.4,,0.003705999999999321,0.4317473914223455,0.49248019414972033,non_fall
6.998708,-0.075,-0.0906,0.4513,0.2071,-0.0808,-0.0638,-45.3188,0.5625,-17.4,,0.03358900000000009,0.46637436679131494,0.4700760383107158,non_fall
7.018647,-0.075,-0.0906,0.4513,0.1896,0.0939,-0.1174,-45.3188,0.5625,-17.4,,0.01993899999999993,0.46637436679131494,0.44866610557050207,non_fall
7.020565,-0.075,-0.0906,0.4513,0.1896,0.0939,-0.1174,-45.3188,0.5625,-17.4,,0.0019180000000007524,0.46637436679131494,0.4313868681999414,non_fall
7.02398,-0.075,-0.0906,0.4513,0.1896,0.0939,-0.1174,-45.15,-0.3,-17.55,,0.0034149999999995018,0.46637436679131494,0.420524364895124,non_fall
7.060898,0.1379,0.0724,0.3773,0.1896,0.0939,-0.1174,-45.15,-0.3,-17.55,,0.036918000000000006,0.4081831206701228,0.41739971126784453,non_fall
7.08006,0.1379,0.0724,0.3773,0.136,-0.0471,-0.0063,-45.15,-0.3,-17.55,,0.01916199999999968,0.4081831206701228,0.4223123909327645,non_fall
7.082082,0.1379,0.0724,0.3773,0.136,-0.0471,-0.0063,-45.15,-0.3,-17.55,,0.0020220000000001903,0.4081831206701228,0.434515528519952,non_fall
7.084775,0.1379,0.0724,0.3773,0.136,-0.0471,-0.0063,-45.2063,-1.2375,-17.5688,,0.0026929999999998344,0.4081831206701228,0.4522614094939699,non_fall
7.120541,0.0,0.0433,0.5067,0.136,-0.0471,-0.0063,-45.2063,-1.2375,-17.5688,,0.03576600000000063,0.5085467333490601,0.4729728720202296,non_fall
7.140371,0.0,0.0433,0.5067,0.136,-0.0471,-0.0063,-45.2063,-1.2375,-17.5688,,0.019829999999999792,0.5085467333490601,0.4935622879601995,non_fall
7.142874,0.0,0.0433,0.5067,0.0952,-0.0683,0.0381,-45.2063,-1.2375,-17.5688,,0.002502999999999922,0.5085467333490601,0.5108639584383999,non_fall
7.14409,0.0,0.0433,0.5067,0.0952,-0.0683,0.0381,-45.225,-2.0063,-17.5875,,0.001216000000000328,0.5085467333490601,0.5221079025963579,non_fall
7.182902,-0.3067,-0.0219,0.422,0.0952,-0.0683,0.0381,-45.225,-2.0063,-17.5875,,0.03881200000000007,0.5221383916166288,0.5253604712324247,non_fall
7.201137,-0.3067,-0.0219,0.422,0.2173,-0.39,-0.1206,-45.225,-2.0063,-17.5875,,0.01823499999999978,0.5221383916166288,0.5198724644799645,non_fall
7.202903,-0.3067,-0.0219,0.422,0.2173,-0.39,-0.1206,-45.225,-2.0063,-17.5875,,0.0017659999999999343,0.5221383916166288,0.5062823854047521,non_fall
7.203959,-0.3067,-0.0219,0.422,0.2173,-0.39,-0.1206,-45.3,-2.7,-17.4938,,0.001056000000000168,0.5221383916166288,0.48661703158754016,non_fall
7.263196,-0.3067,-0.0219,0.422,0.2173,-0.39,-0.1206,-45.3,-2.7,-17.4938,,0.05923699999999954,0.5221383916166288,0.46403189903354675,non_fall
7.266795,-0.3067,-0.0219,0.422,0.1097,-0.275,-0.1377,-45.3,-2.7,-17.4938,,0.003599000000000352,0.5221383916166288,0.44226326330136284,non_fall
7.268555,0.0829,-0.0059,0.301,0.1097,-0.275,-0.1377,-45.3,-2.7,-17.4938,,0.0017599999999999838,0.31226306217674865,0.42483906617864864,non_fall
7.270052,0.0829,-0.0059,0.301,0.1097,-0.275,-0.1377,-45.3563,-3.3563,-17.3063,,0.0014969999999996375,0.31226306217674865,0.4142103589956012,non_fall
7.324137,0.0829,-0.0059,0.301,0.1097,-0.275,-0.1377,-45.3563,-3.3563,-17.3063,,0.054085000000000605,0.31226306217674865,0.4110656592837211,non_fall
7.326203,0.3063,0.0938,0.3253,0.1097,-0.275,-0.1377,-45.3563,-3.3563,-17.3063,,0.002065999999999235,0.45655034771643754,0.41409148139702034,non_fall
7.327333,0.3063,0.0938,0.3253,-0.0145,-0.1166,0.0023,-45.3563,-3.3563,-17.3063,,0.0011300000000007415,0.45655034771643754,0.42030306602860434,non_fall
7.328258,0.3063,0.0938,0.3253,-0.0145,-0.1166,0.0023,-45.4688,-3.9,-16.8188,,0.0009249999999996206,0.45655034771643754,0.4258552876703162,non_fall
7.385763,0.3063,0.0938,0.3253,-0.0145,-0.1166,0.0023,-45.5438,-4.1438,-16.6313,,0.05750499999999992,0.45655034771643754,0.4270778468109988,non_fall
7.388097,0.3063,0.0938,0.3253,-0.1618,0.1716,0.0498,-45.5438,-4.1438,-16.6313,,0.0023340000000002803,0.45655034771643754,0.42143414846212857,non_fall
7.389108,0.3063,0.0938,0.3253,-0.1618,0.1716,0.0498,-45.5438,-4.1438,-16.6313,,0.0010110000000000952,0.45655034771643754,0.40816276916998756,non_fall
7.390019,0.32,-0.0047,0.1602,-0.1618,0.1716,0.0498,-45.5438,-4.1438,-16.6313,,0.00091099999999944,0.3578912264920726,0.38846891518180854,non_fall
7.445116,0.32,-0.0047,0.1602,-0.1618,0.1716,0.0498,-45.6188,-4.1813,-16.5188,,0.05509699999999995,0.3578912264920726,0.3652511051288824,non_fall
7.446466,0.32,-0.0047,0.1602,-0.0586,-0.0016,0.0055,-45.6188,-4.1813,-16.5188,,0.0013500000000004064,0.3578912264920726,0.3424516567658489,non_fall
7.44689,0.32,-0.0047,0.1602,-0.0586,-0.0016,0.0055,-45.6188,-4.1813,-16.5188,,0.0004239999999997579,0.3578912264920726,0.324187860017832,non_fall
7.465582,0.2283,-0.0328,0.0808,-0.0586,-0.0016,0.0055,-45.6188,-4.1813,-16.5188,,0.018692000000000597,0.2443877451919388,0.313850358253799,non_fall
7.507002,0.2283,-0.0328,0.0808,-0.0586,-0.0016,0.0055,-45.8438,-4.425,-16.2938,,0.04141999999999957,0.2443877451919388,0.3133642904166984,non_fall
7.510862,0.2283,-0.0328,0.0808,-0.0586,-0.0016,0.0055,-45.8438,-4.425,-16.2938,,0.0038600000000004187,0.2443877451919388,0.32280216074115464,non_fall
7.512567,0.2283,-0.0328,0.0808,-0.1586,0.1478,-0.0071,-45.8438,-4.425,-16.2938,,0.0017049999999994014,0.2443877451919388,0.34048329046319403,non_fall
7.525919,0.0184,0.2019,0.4766,-0.1586,0.1478,-0.0071,-45.8438,-4.425,-16.2938,,0.013352000000000253,0.5179283058493714,0.3635594682735686,non_fall
7.564405,0.0184,0.2019,0.4766,-0.1586,0.1478,-0.0071,-45.6938,-4.3688,-16.0875,,0.0384859999999998,0.5179283058493714,0.3888920031636092,non_fall
7.567157,0.0184,0.2019,0.4766,-0.1509,0.0587,0.0061,-45.6938,-4.3688,-16.0875,,0.0027520000000000877,0.5179283058493714,0.4138664633850458,non_fall
7.568397,0.0184,0.2019,0.4766,-0.1509,0.0587,0.0061,-45.6938,-4.3688,-16.0875,,0.0012400000000001299,0.5179283058493714,0.43678557264591794,non_fall
7.587465,-0.1082,0.0387,0.3143,-0.1509,0.0587,0.0061,-45.6938,-4.3688,-16.0875,,0.019067999999999863,0.33464820334195733,0.45667366763025513,non_fall
7.627419,-0.1082,0.0387,0.3143,-0.1509,0.0587,0.0061,-45.7875,-4.3125,-16.0125,,0.03995399999999982,0.33464820334195733,0.4726353419191612,non_fall
7.629397,-0.1082,0.0387,0.3143,-0.0529,0.0278,-0.0414,-45.7875,-4.3125,-16.0125,,0.0019780000000002573,0.33464820334195733,0.48317048646541316,non_fall
7.630629,-0.1082,0.0387,0.3143,-0.0529,0.0278,-0.0414,-45.7875,-4.3125,-16.0125,,0.0012319999999998998,0.33464820334195733,0.4859093118288906,non_fall
7.648356,-0.2868,0.0495,0.5282,-0.0529,0.0278,-0.0414,-45.7875,-4.3125,-16.0125,,0.017726999999999826,0.6030752274799555,0.4780439068814698,non_fall
7.684665,-0.2868,0.0495,0.5282,-0.0529,0.0278,-0.0414,-45.8625,-4.275,-15.8625,,0.03630900000000015,0.6030752274799555,0.4573743954102332,non_fall
7.687803,-0.2868,0.0495,0.5282,0.0383,-0.1997,-0.0599,-45.8625,-4.275,-15.8625,,0.003137999999999863,0.6030752274799555,0.4235329455057536,non_fall
7.688477,-0.2868,0.0495,0.5282,0.0383,-0.1997,-0.0599,-45.8625,-4.275,-15.8625,,0.0006740000000000634,0.6030752274799555,0.37879014150240614,non_fall
7.729758,0.0331,-0.1436,-0.012,0.0383,-0.1997,-0.0599,-45.8625,-4.275,-15.8625,,0.04128100000000057,0.14785320422635417,0.32798917446665243,non_fall
7.744094,0.0331,-0.1436,-0.012,0.0383,-0.1997,-0.0599,-45.75,-4.125,-15.9188,,0.014335999999999238,0.14785320422635417,0.27753705079119667,non_fall
7.748756,0.0331,-0.1436,-0.012,-0.0731,0.1216,-0.0092,-45.75,-4.125,-15.9188,,0.00466200000000061,0.14785320422635417,0.2338073193344508,non_fall
7.749487,0.0331,-0.1436,-0.012,-0.0731,0.1216,-0.0092,-45.75,-4.125,-15.9188,,0.0007310000000000372,0.14785320422635417,0.20154460266458862,non_fall
7.790736,0.0523,0.139,0.0913,-0.0731,0.1216,-0.0092,-45.75,-4.125,-15.9188,,0.04124899999999965,0.17433295729723627,0.18280542511603198,non_fall
7.805263,0.0523,0.139,0.0913,-0.0731,0.1216,-0.0092,-45.6562,-4.0312,-16.0312,,0.014527000000000179,0.17433295729723627,0.1767127155145126,non_fall
7.809881,0.0523,0.139,0.0913,0.0313,-0.1301,-0.0346,-45.6562,-4.0312,-16.0312,,0.004617999999999789,0.17433295729723627,0.1800162355673105,non_fall
7.810689,0.0523,0.139,0.0913,0.0313,-0.1301,-0.0346,-45.6562,-4.0312,-16.0312,,0.0008080000000001419,0.17433295729723627,0.18824741267555312,non_fall
7.851896,-0.0915,-0.2429,-0.0898,0.0313,-0.1301,-0.0346,-45.6562,-4.0312,-16.0312,,0.041206999999999994,0.27465742298361423,0.19714731858999465,non_fall
7.863617,-0.0915,-0.2429,-0.0898,0.0313,-0.1301,-0.0346,-45.525,-3.975,-15.8625,,0.011720999999999648,0.27465742298361423,0.20400324031163683,non_fall
7.870956,-0.0915,-0.2429,-0.0898,0.0149,0.0012,-0.074,-45.525,-3.975,-15.8625,,0.007338999999999984,0.27465742298361423,0.20854002475441202,non_fall
7.8721,-0.0915,-0.2429,-0.0898,0.0149,0.0012,-0.074,-45.525,-3.975,-15.8625,,0.0011440000000000339,0.27465742298361423,0.2130912846372583,non_fall
7.925741,-0.0915,-0.2429,-0.0898,0.0149,0.0012,-0.074,-45.3563,-3.8813,-16.1063,,0.053641000000000716,0.27465742298361423,0.22193271113714402,non_fall
7.933543,-0.0915,-0.2429,-0.0898,-0.5719,0.5993,0.4435,-45.3563,-3.8813,-16.1063,,0.007801999999999865,0.27465742298361423,0.2398738545034678,non_fall
7.935621,0.1198,0.0674,0.0096,-0.5719,0.5993,0.4435,-45.3563,-3.8813,-16.1063,,0.0020780000000000243,0.13779317835074423,0.27043303256968987,non_fall
7.936752,0.1198,0.0674,0.0096,-0.5719,0.5993,0.4435,-45.3563,-3.8813,-16.1063,,0.0011309999999999931,0.13779317835074423,0.3141131243292205,non_fall
7.984378,0.1198,0.0674,0.0096,-0.5719,0.5993,0.4435,-45.0,-3.375,-16.3875,,0.04762600000000017,0.13779317835074423,0.36738649927818856,non_fall
7.994653,0.1198,0.0674,0.0096,-0.5719,0.5993,0.4435,-45.0,-3.375,-16.3875,,0.010274999999999146,0.13779317835074423,0.42289885335347155,non_fall
7.995829,0.5925,0.353,0.3462,-0.5719,0.5993,0.4435,-45.0,-3.375,-16.3875,,0.0011760000000000659,0.7716992224953968,0.4710589389485625,non_fall
7.996386,0.5925,0.353,0.3462,-0.1569,0.0423,0.5003,-45.0,-3.375,-16.3875,,0.0005570000000005848,0.7716992224953968,0.5026509866146487,non_fall
8.044735,0.5925,0.353,0.3462,-0.1569,0.0423,0.5003,-45.0938,-3.0188,-16.7438,,0.04834899999999909,0.7716992224953968,0.5116057132796888,non_fall
8.0532,0.5925,0.353,0.3462,-0.1569,0.0423,0.5003,-45.0938,-3.0188,-16.7438,,0.008465000000001055,0.7716992224953968,0.4968906296349399,non_fall
8.055664,0.142,-0.1504,-0.0732,-0.1569,0.0423,0.5003,-45.0938,-3.0188,-16.7438,,0.0024639999999997997,0.21941376438136237,0.46279155700358154,non_fall
8.056201,0.142,-0.1504,-0.0732,-0.117,-0.0453,0.1768,-45.0938,-3.0188,-16.7438,,0.0005369999999995656,0.21941376438136237,0.4175227523630774,non_fall
8.103927,0.142,-0.1504,-0.0732,-0.117,-0.0453,0.1768,-45.0563,-2.5125,-16.9875,,0.04772600000000082,0.21941376438136237,0.37077188966034613,non_fall
8.114736,0.142,-0.1504,-0.0732,-0.1111,0.0491,0.075,-45.0563,-2.5125,-16.9875,,0.010809000000000069,0.21941376438136237,0.3311197973904572,non_fall
8.11626,-0.3254,-0.0888,0.028,-0.1111,0.0491,0.075,-45.0563,-2.5125,-16.9875,,0.0015239999999998588,0.3384591555860175,0.3041570823465888,non_fall
8.117118,-0.3254,-0.0888,0.028,-0.1111,0.0491,0.075,-45.0563,-2.5125,-16.9875,,0.0008579999999991372,0.3384591555860175,0.29170213105077664,non_fall
8.164663,-0.3254,-0.0888,0.028,-0.1111,0.0491,0.075,-44.8688,-1.95,-17.1,,0.047544999999999504,0.3384591555860175,0.2920755873722521,non_fall
8.178112,-0.3254,-0.0888,0.028,-0.1111,0.0491,0.075,-44.8688,-1.95,-17.1,,0.013449000000001377,0.3384591555860175,0.3010975214389769,non_fall
8.180124,-0.3254,-0.0888,0.028,-0.0426,-0.045,0.0306,-44.8688,-1.95,-17.1,,0.0020119999999987925,0.3384591555860175,0.3133909572241055,non_fall
8.195742,0.2779,0.0025,0.1795,-0.0426,-0.045,0.0306,-44.8688,-1.95,-17.1,,0.01561799999999991,0.33083970438869637,0.32364095355902844,non_fall
8.224239,0.2779,0.0025,0.1795,-0.0426,-0.045,0.0306,-44.9062,-1.5,-17.2125,,0.02849700000000155,0.33083970438869637,0.32758394579136313,non_fall
8.236428,0.2779,0.0025,0.1795,-0.0426,-0.045,0.0306,-44.9062,-1.5,-17.2125,,0.01218899999999934,0.33083970438869637,0.3226230425211698,non_fall
8.237848,0.2779,0.0025,0.1795,0.0,-0.051,0.0395,-44.9062,-1.5,-17.2125,,0.0014199999999995327,0.33083970438869637,0.30805416688090664,non_fall
8.256797,-0.2031,-0.0108,-0.1391,0.0,-0.051,0.0395,-44.9062,-1.5,-17.2125,,0.018949000000000993,0.24640426132678794,0.2849450192320931,non_fall
8.28395,-0.2031,-0.0108,-0.1391,0.0,-0.051,0.0395,-44.9813,-0.8813,-17.6063,,0.027153000000000205,0.24640426132678794,0.2557445729582099,non_fall
8.298445,-0.2031,-0.0108,-0.1391,0.081,-0.1561,0.0683,-44.9813,-0.8813,-17.6063,,0.01449499999999837,0.24640426132678794,0.22372031652190233,non_fall
8.300138,-0.2031,-0.0108,-0.1391,0.081,-0.1561,0.0683,-44.9813,-0.8813,-17.6063,,0.0016930000000012768,0.24640426132678794,0.19232110439330016,non_fall
8.317959,0.0937,-0.023,-0.0081,0.081,-0.1561,0.0683,-44.9813,-0.8813,-17.6063,,0.017820999999999643,0.09682096880325047,0.16455357406509552,non_fall
8.343273,0.0937,-0.023,-0.0081,0.081,-0.1561,0.0683,-45.0,-0.3,-17.7938,,0.025313999999999837,0.09682096880325047,0.142461423624718,non_fall
8.358561,0.0937,-0.023,-0.0081,0.081,-0.1561,0.0683,-45.0,-0.3,-17.7938,,0.015287999999999968,0.09682096880325047,0.12681011706520695,non_fall
8.359949,0.0937,-0.023,-0.0081,0.0415,-0.045,0.0097,-45.0,-0.3,-17.7938,,0.001388000000000389,0.09682096880325047,0.11706763649921784,non_fall
8.398907,-0.077,0.0431,0.1178,0.0415,-0.045,0.0097,-45.0,-0.3,-17.7938,,0.03895799999999916,0.14718508755984758,0.11170340408322531,non_fall
8.401941,-0.077,0.0431,0.1178,0.0415,-0.045,0.0097,-44.9438,0.2438,-17.775,,0.0030340000000013134,0.14718508755984758,0.1087224817848067,non_fall
8.41959,-0.077,0.0431,0.1178,0.0019,0.0349,0.0204,-44.9438,0.2438,-17.775,,0.017648999999998694,0.14718508755984758,0.1062665804716033,non_fall
8.421107,-0.077,0.0431,0.1178,0.0019,0.0349,0.0204,-44.9438,0.2438,-17.775,,0.0015169999999997685,0.14718508755984758,0.10309266956228418,non_fall
8.460227,-0.0378,-0.006,0.0568,0.0019,0.0349,0.0204,-44.9438,0.2438,-17.775,,0.03912000000000049,0.06849145932158257,0.09879374625690016,non_fall
8.46365,-0.0378,-0.006,0.0568,0.0019,0.0349,0.0204,-45.0938,0.3375,-17.6438,,0.003422999999999732,0.06849145932158257,0.09372930156279895,non_fall
8.47995,-0.0378,-0.006,0.0568,0.0302,0.0818,-0.0063,-45.0938,0.3375,-17.6438,,0.01630000000000109,0.06849145932158257,0.08873793191893863,non_fall
8.481104,-0.0378,-0.006,0.0568,0.0302,0.0818,-0.0063,-45.0938,0.3375,-17.6438,,0.0011539999999996553,0.06849145932158257,0.08476466760702026,non_fall
8.520859,0.0443,-0.0463,-0.0585,0.0302,0.0818,-0.0063,-45.0938,0.3375,-17.6438,,0.03975499999999954,0.08676652580344565,0.08253167574654613,non_fall
8.523216,0.0443,-0.0463,-0.0585,0.0302,0.0818,-0.0063,-45.0563,0.6188,-17.7188,,0.0023569999999999425,0.08676652580344565,0.08233137152144596,non_fall
8.541831,0.0443,-0.0463,-0.0585,0.0302,0.0818,-0.0063,-45.0563,0.6188,-17.7188,,0.018615000000000492,0.08676652580344565,0.08396225603714065,non_fall
8.543734,0.0443,-0.0463,-0.0585,0.0232,0.1103,-0.0659,-45.0563,0.6188,-17.7188,,0.0019030000000004321,0.08676652580344565,0.08678718845911222,non_fall
