time,ax,ay,az,wx,wy,wz,Bx,By,Bz,Unnamed: 10,time_diff,acc_mag,acc_mag_filtered,label
0.119819,0.0,0.0,0.0,0.0,0.0,0.0,31.1438,-6.3938,1.6688,,0.0,0.0,2.085959326892451e-05,non_fall
0.144198,0.0,0.0,0.0,-0.0017,0.085,0.0818,31.1438,-6.3938,1.6688,,0.024378999999999998,0.0,0.0002502770086417706,non_fall
0.177931,0.0,0.0,0.0,-0.0017,0.085,0.0818,36.7688,3.6188,3.9375,,0.03373300000000001,0.0,0.000403106999247973,non_fall
0.207499,0.0,0.0,0.0,0.0185,0.0304,0.0185,36.7688,3.6188,3.9375,,0.029567999999999983,0.0,0.0003774505427543994,non_fall
0.225672,0.0,0.0,0.0,0.0185,0.0304,0.0185,36.7688,3.6188,3.9375,,0.018173000000000022,0.0,0.00011190254149633925,non_fall
0.236412,0.0,0.0,0.0,0.0185,0.0304,0.0185,38.7938,6.75,4.9875,,0.01074,0.0,-0.0003896820469590804,non_fall
0.267111,0.0,0.0,0.0,0.0064,0.0048,-0.0124,38.7938,6.75,4.9875,,0.030698999999999976,0.0,-0.0010406882523636331,non_fall
0.286059,0.0,0.0,0.0,0.0064,0.0048,-0.0124,38.7938,6.75,4.9875,,0.01894800000000002,0.0,-0.0016663729197870822,non_fall
0.296829,0.0,0.0,0.0,0.0064,0.0048,-0.0124,39.8438,8.475,5.2688,,0.010770000000000002,0.0,-0.002015137142045829,non_fall
0.327998,0.0,0.0,0.0,0.0029,0.015,0.0023,39.8438,8.475,5.2688,,0.031169000000000002,0.0,-0.0017890204189829316,non_fall
0.329617,0.0,0.0,0.0,0.0029,0.015,0.0023,39.8438,8.475,5.2688,,0.0016189999999999816,0.0,-0.0006922427987138981,non_fall
0.345588,0.0,0.0,0.0,0.0029,0.015,0.0023,39.8438,8.475,5.2688,,0.015971000000000013,0.0,0.0015085988699344818,non_fall
0.356352,0.0,0.0,0.0,0.0029,0.015,0.0023,40.3688,9.1313,5.6063,,0.010763999999999996,0.0,0.00492455537779531,non_fall
0.388704,0.0,0.0,0.0,0.0008,-0.0091,-0.0095,40.3688,9.1313,5.6063,,0.03235199999999999,0.0,0.009500025054813416,non_fall
0.409571,-0.0109,-0.0205,0.004,0.0008,-0.0091,-0.0095,40.3688,9.1313,5.6063,,0.020867000000000024,0.023559711373444286,0.014998538920324787,non_fall
0.410504,-0.0109,-0.0205,0.004,0.0008,-0.0091,-0.0095,40.3688,9.1313,5.6063,,0.0009329999999999616,0.023559711373444286,0.021026065875731855,non_fall
0.416621,-0.0109,-0.0205,0.004,0.0008,-0.0091,-0.0095,40.65,9.7313,5.5875,,0.006117000000000039,0.023559711373444286,0.02708933775225641,non_fall
0.449789,-0.0109,-0.0205,0.004,-0.0017,0.0048,-0.0017,40.65,9.7313,5.5875,,0.033167999999999975,0.023559711373444286,0.032679823404352916,non_fall
0.469213,-0.0109,-0.0205,0.004,-0.0017,0.0048,-0.0017,40.65,9.7313,5.5875,,0.019423999999999997,0.023559711373444286,0.03737211441088137,non_fall
0.470365,0.057,-0.0149,-0.0184,-0.0017,0.0048,-0.0017,40.65,9.7313,5.5875,,0.0011519999999999864,0.06172171416932618,0.04092262123816619,non_fall
0.47662,0.057,-0.0149,-0.0184,-0.0017,0.0048,-0.0017,40.9313,10.2,5.7938,,0.0062550000000000106,0.06172171416932618,0.04334469125529119,non_fall
0.509682,0.057,-0.0149,-0.0184,-0.0088,-0.0154,-0.0162,40.9313,10.2,5.7938,,0.03306199999999998,0.06172171416932618,0.04492536864453937,non_fall
0.529751,0.057,-0.0149,-0.0184,-0.0088,-0.0154,-0.0162,40.9313,10.2,5.7938,,0.020069000000000004,0.06172171416932618,0.046153198666174004,non_fall
0.530766,-0.0075,-0.0107,0.013,-0.0088,-0.0154,-0.0162,40.9313,10.2,5.7938,,0.0010149999999999881,0.018432037326351094,0.0475561216993801,non_fall
0.535505,-0.0075,-0.0107,0.013,-0.0088,-0.0154,-0.0162,41.1188,10.5,5.7188,,0.004739000000000049,0.018432037326351094,0.04949454166711979,non_fall
0.570372,-0.0075,-0.0107,0.013,-0.0003,-0.0027,-0.0045,41.1188,10.5,5.7188,,0.03486699999999998,0.018432037326351094,0.051990914977679076,non_fall
0.590741,0.0631,-0.0155,-0.0267,-0.0003,-0.0027,-0.0045,41.1188,10.5,5.7188,,0.02036899999999997,0.07024777576550022,0.054676373496870205,non_fall
0.592658,0.0631,-0.0155,-0.0267,-0.0003,-0.0027,-0.0045,41.1188,10.5,5.7188,,0.0019170000000000575,0.07024777576550022,0.05688930740215231,non_fall
0.595043,0.0631,-0.0155,-0.0267,-0.0003,-0.0027,-0.0045,42.4875,12.9563,6.2438,,0.0023849999999999705,0.07024777576550022,0.057893405610246806,non_fall
0.630734,0.0631,-0.0155,-0.0267,-0.0067,-0.0016,-0.0031,42.4875,12.9563,6.2438,,0.03569100000000003,0.07024777576550022,0.057132092005469495,non_fall
0.651136,0.0631,-0.0155,-0.0267,-0.0067,-0.0016,-0.0031,42.4875,12.9563,6.2438,,0.02040200000000003,0.07024777576550022,0.05442646925965098,non_fall
0.655932,0.0631,-0.0155,-0.0267,-0.0067,-0.0016,-0.0031,42.4688,12.9563,6.2063,,0.0047959999999999114,0.07024777576550022,0.05005054705091041,non_fall
0.67121,0.0056,-0.0114,0.0166,-0.0067,-0.0016,-0.0031,42.4688,12.9563,6.2063,,0.015278000000000014,0.02090167457406224,0.04466304018092383,non_fall
0.691994,0.0056,-0.0114,0.0166,-0.0141,-0.0067,-0.0039,42.4688,12.9563,6.2063,,0.020784000000000025,0.02090167457406224,0.039124296005172754,non_fall
0.712959,0.0056,-0.0114,0.0166,-0.0141,-0.0067,-0.0039,42.4688,12.9563,6.2063,,0.02096500000000001,0.02090167457406224,0.03426577074590194,non_fall
0.71754,0.0056,-0.0114,0.0166,-0.0141,-0.0067,-0.0039,42.375,12.9938,5.85,,0.004580999999999946,0.02090167457406224,0.030691675581465808,non_fall
0.733574,0.0358,0.006,-0.0025,-0.0141,-0.0067,-0.0039,42.375,12.9938,5.85,,0.016033999999999993,0.03638529922922168,0.028671070916286796,non_fall
0.755679,0.0358,0.006,-0.0025,-0.0088,-0.0105,-0.0045,42.375,12.9938,5.85,,0.02210500000000004,0.03638529922922168,0.028136312988472995,non_fall
0.773268,0.0358,0.006,-0.0025,-0.0088,-0.0105,-0.0045,42.375,12.9938,5.85,,0.017588999999999966,0.03638529922922168,0.02876362586822074,non_fall
0.77582,0.0358,0.006,-0.0025,-0.0088,-0.0105,-0.0045,42.2438,13.0125,5.7938,,0.0025519999999999987,0.03638529922922168,0.0300910262581478,non_fall
0.794243,0.0217,-0.0128,-0.0156,-0.0088,-0.0105,-0.0045,42.2438,13.0125,5.7938,,0.018423000000000078,0.029632583417582747,0.0316313785479911,non_fall
0.814542,0.0217,-0.0128,-0.0156,0.0015,0.0001,-0.0088,42.2438,13.0125,5.7938,,0.020298999999999956,0.029632583417582747,0.03295608668207396,non_fall
0.834496,0.0217,-0.0128,-0.0156,0.0015,0.0001,-0.0088,42.2438,13.0125,5.7938,,0.019954000000000027,0.029632583417582747,0.03374550483177031,non_fall
0.836071,0.0217,-0.0128,-0.0156,0.0015,0.0001,-0.0088,42.2812,13.1813,5.7375,,0.001574999999999993,0.029632583417582747,0.0338156357519079,non_fall
0.855235,0.0182,-0.001,-0.0292,0.0015,0.0001,-0.0088,42.2812,13.1813,5.7375,,0.01916399999999996,0.034422085933307416,0.03313315405006592,non_fall
0.875215,0.0182,-0.001,-0.0292,-0.0075,0.0093,-0.0067,42.2812,13.1813,5.7375,,0.019979999999999998,0.034422085933307416,0.031824351977433114,non_fall
0.895645,0.0182,-0.001,-0.0292,-0.0075,0.0093,-0.0067,42.2812,13.1813,5.7375,,0.02043000000000006,0.034422085933307416,0.030174025237634017,non_fall
0.89679,0.0182,-0.001,-0.0292,-0.0075,0.0093,-0.0067,42.375,13.1813,5.9062,,0.0011449999999999516,0.034422085933307416,0.028603765075688743,non_fall
0.937983,0.0182,-0.001,-0.0292,-0.0134,0.0104,-0.006,42.375,13.1813,5.9062,,0.041193000000000035,0.034422085933307416,0.02761956830227009,non_fall
0.938925,0.0208,-0.0077,0.0047,-0.0134,0.0104,-0.006,42.375,13.1813,5.9062,,0.0009419999999999984,0.02267200917431007,0.02772685665572995,non_fall
0.958208,0.0208,-0.0077,0.0047,-0.0134,0.0104,-0.006,42.3375,13.275,5.7563,,0.01928299999999994,0.02267200917431007,0.029324518302507825,non_fall
0.960189,0.0208,-0.0077,0.0047,-0.0134,0.0104,-0.006,42.3375,13.275,5.7563,,0.0019810000000000105,0.02267200917431007,0.03260295328459159,non_fall
0.997402,0.0208,-0.0077,0.0047,0.0189,-0.0116,-0.0041,42.3375,13.275,5.7563,,0.03721300000000005,0.02267200917431007,0.03747673903472724,non_fall
0.998837,-0.0073,0.0036,-0.0589,0.0189,-0.0116,-0.0041,42.3375,13.275,5.7563,,0.001434999999999964,0.05945973427454919,0.043574712822132516,non_fall
1.018717,-0.0073,0.0036,-0.0589,0.0189,-0.0116,-0.0041,42.3375,13.275,5.7563,,0.01988000000000012,0.05945973427454919,0.050290341322763804,non_fall
1.019507,-0.0073,0.0036,-0.0589,0.0189,-0.0116,-0.0041,42.3563,13.3125,5.9438,,0.0007899999999998464,0.05945973427454919,0.05687360646371459,non_fall
1.058067,-0.0073,0.0036,-0.0589,0.0547,0.0069,-0.002,42.3563,13.3125,5.9438,,0.03856000000000015,0.05945973427454919,0.06253600740409586,non_fall
1.058992,0.0076,-0.0325,-0.0539,0.0547,0.0069,-0.002,42.3563,13.3125,5.9438,,0.0009249999999998426,0.06339731855528277,0.06654777285297818,non_fall
1.077216,0.0076,-0.0325,-0.0539,0.0547,0.0069,-0.002,42.3563,13.3125,5.9438,,0.018224000000000018,0.06339731855528277,0.06832210879808806,non_fall
1.077973,0.0076,-0.0325,-0.0539,0.0547,0.0069,-0.002,42.3938,13.2,5.9438,,0.0007570000000001187,0.06339731855528277,0.06749180465569721,non_fall
1.118411,0.0076,-0.0325,-0.0539,0.0413,0.0172,-0.0035,42.3938,13.2,5.9438,,0.040437999999999974,0.06339731855528277,0.06398279086799409,non_fall
1.138037,0.0076,-0.0325,-0.0539,0.0413,0.0172,-0.0035,42.4688,13.0875,6.0,,0.01962599999999992,0.06339731855528277,0.05808002007864496,non_fall
1.140339,0.0076,-0.0325,-0.0539,0.0413,0.0172,-0.0035,42.4688,13.0875,6.0,,0.0023020000000000262,0.06339731855528277,0.05046964461322515,non_fall
1.141418,-0.0306,-0.0094,0.0187,0.0413,0.0172,-0.0035,42.4688,13.0875,6.0,,0.0010790000000000521,0.03707303602350366,0.04223465768769904,non_fall
1.179841,-0.0306,-0.0094,0.0187,0.0089,0.0161,-0.0169,42.4688,13.0875,6.0,,0.038422999999999874,0.03707303602350366,0.03478390242545323,non_fall
1.196726,-0.0306,-0.0094,0.0187,0.0089,0.0161,-0.0169,42.5625,13.0125,6.2063,,0.01688500000000004,0.03707303602350366,0.029706044379341337,non_fall
1.200631,-0.0306,-0.0094,0.0187,0.0089,0.0161,-0.0169,42.5625,13.0125,6.2063,,0.0039050000000000473,0.03707303602350366,0.028554821173005597,non_fall
1.201346,0.0275,0.0125,0.023,0.0089,0.0161,-0.0169,42.5625,13.0125,6.2063,,0.0007150000000000212,0.03796709101313926,0.03258540697193485,non_fall
1.24456,0.0275,0.0125,0.023,-0.0096,-0.0457,-0.0399,42.5625,13.0125,6.2063,,0.043214000000000086,0.03796709101313926,0.042476055253683656,non_fall
1.257018,0.0275,0.0125,0.023,-0.0096,-0.0457,-0.0399,42.6188,12.9563,6.0938,,0.012457999999999858,0.03796709101313926,0.05808670010535551,non_fall
1.26154,0.0275,0.0125,0.023,-0.0096,-0.0457,-0.0399,42.6188,12.9563,6.0938,,0.004522000000000137,0.03796709101313926,0.07832131867050143,non_fall
1.262091,-0.1056,-0.0144,0.0537,-0.0096,-0.0457,-0.0399,42.6188,12.9563,6.0938,,0.0005509999999999682,0.11934156861714194,0.10116015441143973,non_fall
1.300255,-0.1056,-0.0144,0.0537,-0.0258,-0.187,-0.0964,42.6188,12.9563,6.0938,,0.038163999999999865,0.11934156861714194,0.123900722451782,non_fall
1.316248,-0.1056,-0.0144,0.0537,-0.0258,-0.187,-0.0964,42.5438,13.0313,5.9813,,0.015993000000000146,0.11934156861714194,0.14359831399934203,non_fall
1.320833,-0.1056,-0.0144,0.0537,-0.0258,-0.187,-0.0964,42.5438,13.0313,5.9813,,0.004584999999999839,0.11934156861714194,0.157646702896655,non_fall
1.321808,-0.2149,0.0298,0.0424,-0.0258,-0.187,-0.0964,42.5438,13.0313,5.9813,,0.0009750000000001702,0.22106064778698176,0.16439869135932705,non_fall
1.362347,-0.2149,0.0298,0.0424,-0.032,-0.2703,-0.1288,42.5438,13.0313,5.9813,,0.04053899999999988,0.22106064778698176,0.16368876112017383,non_fall
1.375251,-0.2149,0.0298,0.0424,-0.032,-0.2703,-0.1288,42.525,13.3125,5.6625,,0.012904000000000027,0.22106064778698176,0.15709302877866949,non_fall
1.382259,-0.2149,0.0298,0.0424,-0.032,-0.2703,-0.1288,42.525,13.3125,5.6625,,0.007007999999999903,0.22106064778698176,0.1477810414257248,non_fall
1.402527,-0.0446,0.03,0.0357,-0.032,-0.2703,-0.1288,42.525,13.3125,5.6625,,0.020268000000000175,0.0645263512063095,0.13991252837411786,non_fall
1.423009,-0.0446,0.03,0.0357,-0.0844,-0.1394,-0.1614,42.525,13.3125,5.6625,,0.02048199999999989,0.0645263512063095,0.13769372487042356,non_fall
1.436116,-0.0446,0.03,0.0357,-0.0844,-0.1394,-0.1614,42.4313,13.3875,5.4938,,0.01310699999999998,0.0645263512063095,0.14436044964866934,non_fall
1.44224,-0.0446,0.03,0.0357,-0.0844,-0.1394,-0.1614,42.4313,13.3875,5.4938,,0.006124000000000018,0.0645263512063095,0.16141046706617096,non_fall
1.463436,-0.1535,-0.0043,0.2415,-0.0844,-0.1394,-0.1614,42.4313,13.3875,5.4938,,0.021195999999999993,0.2861869843301753,0.18832039962141647,non_fall
1.483394,-0.1535,-0.0043,0.2415,0.0079,-0.2246,-0.1447,42.4313,13.3875,5.4938,,0.019958000000000142,0.2861869843301753,0.22278852756256778,non_fall
1.496052,-0.1535,-0.0043,0.2415,0.0079,-0.2246,-0.1447,42.225,13.5375,5.0813,,0.012657999999999836,0.2861869843301753,0.261347318505201,non_fall
1.50405,-0.1535,-0.0043,0.2415,0.0079,-0.2246,-0.1447,42.225,13.5375,5.0813,,0.007998000000000172,0.2861869843301753,0.30009463202773484,non_fall
1.52685,0.0872,-0.0293,-0.3457,0.0079,-0.2246,-0.1447,42.225,13.5375,5.0813,,0.02279999999999993,0.35773009378580384,0.33533243075096747,non_fall
1.545159,0.0872,-0.0293,-0.3457,0.0842,-0.0397,0.0111,42.225,13.5375,5.0813,,0.01830899999999991,0.35773009378580384,0.36401570115311066,non_fall
1.556218,0.0872,-0.0293,-0.3457,0.0842,-0.0397,0.0111,42.1313,14.0438,4.7812,,0.011059000000000152,0.35773009378580384,0.38401743551641854,non_fall
1.565565,0.0872,-0.0293,-0.3457,0.0842,-0.0397,0.0111,42.1313,14.0438,4.7812,,0.009346999999999994,0.35773009378580384,0.39427062032857735,non_fall
1.606315,0.0872,-0.0293,-0.3457,0.0807,0.178,0.1382,42.1313,14.0438,4.7812,,0.04074999999999984,0.35773009378580384,0.39485815661071594,non_fall
1.607875,0.4006,-0.0631,-0.1088,0.0807,0.178,0.1382,42.1313,14.0438,4.7812,,0.0015600000000000058,0.4198802329236279,0.38709086206645354,non_fall
1.61647,0.4006,-0.0631,-0.1088,0.0807,0.178,0.1382,41.8875,14.2313,4.1813,,0.00859500000000013,0.4198802329236279,0.37354794188484297,non_fall
1.625486,0.4006,-0.0631,-0.1088,0.0807,0.178,0.1382,41.8875,14.2313,4.1813,,0.009015999999999913,0.4198802329236279,0.35798349474483154,non_fall
1.665762,0.4006,-0.0631,-0.1088,0.0874,0.2011,0.2482,41.8875,14.2313,4.1813,,0.04027599999999998,0.4198802329236279,0.3449772933439873,non_fall
1.666418,0.2908,0.0284,-0.0645,0.0874,0.2011,0.2482,41.8875,14.2313,4.1813,,0.0006559999999999899,0.29921806429425346,0.3392654466871384,non_fall
1.675547,0.2908,0.0284,-0.0645,0.0874,0.2011,0.2482,41.7563,14.3063,3.9188,,0.009128999999999943,0.29921806429425346,0.34481899195906035,non_fall
1.686565,0.2908,0.0284,-0.0645,0.0874,0.2011,0.2482,41.7563,14.3063,3.9188,,0.011018000000000194,0.29921806429425346,0.3638892717249335,non_fall
1.727022,0.2908,0.0284,-0.0645,0.1055,0.3281,0.4766,41.7563,14.3063,3.9188,,0.040456999999999965,0.29921806429425346,0.39632950448579857,non_fall
1.728151,0.4563,-0.0513,0.0241,0.1055,0.3281,0.4766,41.7563,14.3063,3.9188,,0.0011289999999999356,0.45980668764166527,0.43947829813523565,non_fall
1.736564,0.4563,-0.0513,0.0241,0.1055,0.3281,0.4766,41.7188,14.2313,3.975,,0.008413000000000004,0.45980668764166527,0.4887571653282674,non_fall
1.747573,0.4563,-0.0513,0.0241,0.1055,0.3281,0.4766,41.7188,14.2313,3.975,,0.011009000000000047,0.45980668764166527,0.5389452032605501,non_fall
1.788911,0.4563,-0.0513,0.0241,0.2169,0.3971,0.3455,41.7188,14.2313,3.975,,0.041337999999999875,0.45980668764166527,0.5859103641612355,non_fall
1.790137,0.7019,-0.1021,-0.5369,0.2169,0.3971,0.3455,41.7188,14.2313,3.975,,0.0012260000000001714,0.8895783439360471,0.6284161341682795,non_fall
1.79753,0.7019,-0.1021,-0.5369,0.2169,0.3971,0.3455,41.7938,13.9875,4.05,,0.007392999999999983,0.8895783439360471,0.669476563106922,non_fall
1.808995,0.7019,-0.1021,-0.5369,0.2169,0.3971,0.3455,41.7938,13.9875,4.05,,0.011464999999999836,0.8895783439360471,0.7166546447678905,non_fall
1.849073,0.7019,-0.1021,-0.5369,0.3937,0.4748,0.0119,41.7938,13.9875,4.05,,0.04007800000000006,0.8895783439360471,0.7808219422416093,non_fall
1.856467,0.7019,-0.1021,-0.5369,0.3937,0.4748,0.0119,41.8875,13.5375,4.5563,,0.007394000000000123,0.8895783439360471,0.8732960100462008,non_fall
1.869345,0.7019,-0.1021,-0.5369,0.3937,0.4748,0.0119,41.8875,13.5375,4.5563,,0.012877999999999945,0.8895783439360471,1.001845154307737,non_fall
1.869865,0.6899,-0.4958,-0.4838,0.3937,0.4748,0.0119,41.8875,13.5375,4.5563,,0.000520000000000076,0.97767177007419,1.1665863535495327,non_fall
1.910431,0.6899,-0.4958,-0.4838,0.1836,0.9739,-0.2664,41.8875,13.5375,4.5563,,0.04056599999999988,0.97767177007419,1.3571184639059894,non_fall
1.916461,0.6899,-0.4958,-0.4838,0.1836,0.9739,-0.2664,42.0375,13.4625,5.1562,,0.00602999999999998,0.97767177007419,1.5522166063066056,non_fall
1.93132,0.6899,-0.4958,-0.4838,0.1836,0.9739,-0.2664,42.0375,13.4625,5.1562,,0.014858999999999956,0.97767177007419,1.7229853168524831,non_fall
1.932264,1.7321,-0.1976,-1.8537,0.1836,0.9739,-0.2664,42.0375,13.4625,5.1562,,0.0009440000000000559,2.5446846287899803,1.8394680709362097,non_fall
1.972283,1.7321,-0.1976,-1.8537,0.1615,0.9207,-0.3184,42.0375,13.4625,5.1562,,0.04001900000000003,2.5446846287899803,1.879422123438933,non_fall
1.976716,1.7321,-0.1976,-1.8537,0.1615,0.9207,-0.3184,42.1875,13.4813,6.375,,0.004432999999999909,2.5446846287899803,1.8367261785134792,non_fall
1.991528,1.7321,-0.1976,-1.8537,0.1615,0.9207,-0.3184,42.1875,13.4813,6.375,,0.014812000000000047,2.5446846287899803,1.726413316643641,non_fall
1.992244,0.6725,0.9887,-0.1844,0.1615,0.9207,-0.3184,42.1875,13.4813,6.375,,0.0007159999999999389,1.2098707782238565,1.5840873323930031,non_fall
2.032398,0.6725,0.9887,-0.1844,0.2095,2.3293,0.2162,42.1875,13.4813,6.375,,0.040154000000000245,1.2098707782238565,1.4592556121618754,non_fall
2.034908,0.6725,0.9887,-0.1844,0.2095,2.3293,0.2162,42.15,13.2375,8.175,,0.0025100000000000122,1.2098707782238565,1.4040893034461845,non_fall
2.052561,0.6725,0.9887,-0.1844,0.2095,2.3293,0.2162,42.15,13.2375,8.175,,0.017652999999999697,1.2098707782238565,1.4604684644658283,non_fall
2.07297,-0.7702,0.0944,1.2131,0.2095,2.3293,0.2162,42.15,13.2375,8.175,,0.020409000000000344,1.4400454888648484,1.648524213603787,non_fall
2.092988,-0.7702,0.0944,1.2131,0.3963,0.751,0.6384,42.15,13.2375,8.175,,0.02001799999999987,1.4400454888648484,1.9594555059152552,non_fall
2.096497,-0.7702,0.0944,1.2131,0.3963,0.751,0.6384,42.225,13.35,10.5938,,0.0035089999999997623,1.4400454888648484,2.35457066213349,non_fall
2.114198,-0.7702,0.0944,1.2131,0.3963,0.751,0.6384,42.225,13.35,10.5938,,0.01770100000000019,1.4400454888648484,2.7714280368155784,non_fall
2.134125,-4.5732,-0.0529,-0.5955,0.3963,0.751,0.6384,42.225,13.35,10.5938,,0.019927000000000028,4.612111978258984,3.1364607440426435,non_fall
2.156325,-4.5732,-0.0529,-0.5955,0.3784,-0.487,0.0217,42.225,13.35,10.5938,,0.022199999999999775,4.612111978258984,3.3815056108222685,non_fall
2.159194,-4.5732,-0.0529,-0.5955,0.3784,-0.487,0.0217,42.2625,13.5,12.6563,,0.0028690000000000104,4.612111978258984,3.4598243501274903,non_fall
2.174524,-4.5732,-0.0529,-0.5955,0.3784,-0.487,0.0217,42.2625,13.5,12.6563,,0.015330000000000066,4.612111978258984,3.356710379776448,non_fall
2.194314,-1.8423,-0.1162,0.1562,0.3784,-0.487,0.0217,42.2625,13.5,12.6563,,0.019789999999999974,1.8525577372918773,3.091389610682281,non_fall
2.213975,-1.8423,-0.1162,0.1562,0.4278,0.1209,0.3515,42.2625,13.5,12.6563,,0.01966100000000015,1.8525577372918773,2.7100801969630752,non_fall
2.214444,-1.8423,-0.1162,0.1562,0.4278,0.1209,0.3515,42.15,13.725,14.4,,0.00046899999999983066,1.8525577372918773,2.273159929252717,non_fall
2.235263,-1.8423,-0.1162,0.1562,0.4278,0.1209,0.3515,42.15,13.725,14.4,,0.020819000000000365,1.8525577372918773,1.8408838043486395,non_fall
2.257066,0.9609,0.1411,-0.2562,0.4278,0.1209,0.3515,42.15,13.725,14.4,,0.021802999999999795,1.0044284245280994,1.4616043695526053,non_fall
2.277268,0.9609,0.1411,-0.2562,0.6475,-0.0996,0.2959,42.15,13.725,14.4,,0.02020199999999983,1.0044284245280994,1.164801424661678,non_fall
2.278062,0.9609,0.1411,-0.2562,0.6475,-0.0996,0.2959,41.9813,14.0063,15.9563,,0.0007939999999999614,1.0044284245280994,0.9595297521779796,non_fall
2.296979,0.9609,0.1411,-0.2562,0.6475,-0.0996,0.2959,41.9813,14.0063,15.9563,,0.018917000000000073,1.0044284245280994,0.8376317929535366,non_fall
2.338991,0.9609,0.1411,-0.2562,0.6475,-0.0996,0.2959,41.9062,14.4188,17.1562,,0.04201200000000016,1.0044284245280994,0.780209971100863,non_fall
2.340283,0.9609,0.1411,-0.2562,0.9689,0.0087,0.4091,41.9062,14.4188,17.1562,,0.0012919999999998488,1.0044284245280994,0.7653855197683176,non_fall
2.341132,0.4038,-0.3849,-0.8088,0.9689,0.0087,0.4091,41.9062,14.4188,17.1562,,0.0008490000000000997,0.9825272973307154,0.7753524259495551,non_fall
2.357832,0.4038,-0.3849,-0.8088,0.9689,0.0087,0.4091,41.9062,14.4188,17.1562,,0.01670000000000016,0.9825272973307154,0.8011381628376512,non_fall
2.397292,0.4038,-0.3849,-0.8088,1.4002,0.1684,0.4506,41.9062,14.4188,17.1562,,0.03946000000000005,0.9825272973307154,0.8441560068129212,non_fall
2.399176,0.4038,-0.3849,-0.8088,1.4002,0.1684,0.4506,41.925,14.625,18.2438,,0.0018839999999999968,0.9825272973307154,0.9144061262533677,non_fall
2.400032,0.3304,0.2599,-0.8627,1.4002,0.1684,0.4506,41.925,14.625,18.2438,,0.0008559999999997459,0.9596684114838834,1.0259259556760052,non_fall
2.418191,0.3304,0.2599,-0.8627,1.4002,0.1684,0.4506,41.925,14.625,18.2438,,0.01815900000000026,0.9596684114838834,1.1907117934454747,non_fall
2.458112,0.3304,0.2599,-0.8627,1.4002,0.1684,0.4506,42.075,14.7563,18.675,,0.03992099999999965,0.9596684114838834,1.4127410258187132,non_fall
2.460573,0.3304,0.2599,-0.8627,1.9831,0.6424,0.6051,42.075,14.7563,18.675,,0.0024610000000002685,0.9596684114838834,1.6837980975209232,non_fall
2.462161,1.7742,-0.8785,-1.5357,1.9831,0.6424,0.6051,42.075,14.7563,18.675,,0.0015879999999999228,2.5055782526195425,1.9824185133002128,non_fall
2.478469,1.7742,-0.8785,-1.5357,1.9831,0.6424,0.6051,42.075,14.7563,18.675,,0.01630799999999999,2.5055782526195425,2.2764050508669063,non_fall
2.517247,1.7742,-0.8785,-1.5357,1.9831,0.6424,0.6051,42.1125,15.0,18.375,,0.03877799999999976,2.5055782526195425,2.52833211683908,non_fall
2.518476,1.7742,-0.8785,-1.5357,2.1428,0.8262,0.7005,42.1125,15.0,18.375,,0.0012290000000003687,2.5055782526195425,2.7027464786337547,non_fall
2.539754,1.7742,-0.8785,-1.5357,2.1428,0.8262,0.7005,42.1125,15.0,18.375,,0.021277999999999686,2.5055782526195425,2.7736511421075507,non_fall
2.540407,1.9347,-1.9232,-1.3526,2.1428,0.8262,0.7005,42.1125,15.0,18.375,,0.0006530000000002367,3.0448791585217303,2.7310459846857005,non_fall
2.577414,1.9347,-1.9232,-1.3526,2.1428,0.8262,0.7005,42.1125,15.4313,17.8313,,0.03700700000000001,3.0448791585217303,2.585359132492236,non_fall
2.580701,1.9347,-1.9232,-1.3526,2.1225,1.0027,0.9448,42.1125,15.4313,17.8313,,0.003286999999999818,3.0448791585217303,2.3684980801349105,non_fall
2.601421,1.9347,-1.9232,-1.3526,2.1225,1.0027,0.9448,42.1125,15.4313,17.8313,,0.020720000000000294,3.0448791585217303,2.1303784417623355,non_fall
2.602368,1.2152,-0.2743,0.0427,2.1225,1.0027,0.9448,42.1125,15.4313,17.8313,,0.0009469999999995871,1.2465050421077326,1.930572079933561,non_fall
2.637401,1.2152,-0.2743,0.0427,2.1225,1.0027,0.9448,42.0375,15.9,17.4,,0.035033000000000314,1.2465050421077326,1.8261726026154361,non_fall
2.640857,1.2152,-0.2743,0.0427,2.6391,1.2263,1.0513,42.0375,15.9,17.4,,0.0034559999999999036,1.2465050421077326,1.8585552400996495,non_fall
2.662079,1.2152,-0.2743,0.0427,2.6391,1.2263,1.0513,42.0375,15.9,17.4,,0.021221999999999852,1.2465050421077326,2.042551136110106,non_fall
2.664254,0.528,-2.6764,-0.3949,2.6391,1.2263,1.0513,42.0375,15.9,17.4,,0.00217500000000026,2.756419229725406,2.3611207582207823,forward_fall
2.696991,0.528,-2.6764,-0.3949,2.6391,1.2263,1.0513,42.075,16.5,17.3813,,0.032737000000000016,2.756419229725406,2.7671139896985335,forward_fall
2.703862,0.528,-2.6764,-0.3949,2.3693,1.5486,1.8702,42.075,16.5,17.3813,,0.0068709999999998495,2.756419229725406,3.1919151205650698,forward_fall
2.723228,0.528,-2.6764,-0.3949,2.3693,1.5486,1.8702,42.075,16.5,17.3813,,0.019366000000000216,2.756419229725406,3.5593864301687677,forward_fall
2.724307,3.6428,-1.6874,-2.6041,2.3693,1.5486,1.8702,42.075,16.5,17.3813,,0.00107899999999983,4.785253118697066,3.8026687089286884,forward_fall
2.756671,3.6428,-1.6874,-2.6041,2.3693,1.5486,1.8702,42.0375,17.0438,17.475,,0.03236399999999984,4.785253118697066,3.88073651226722,forward_fall
2.761746,3.6428,-1.6874,-2.6041,3.2437,2.0811,2.5703,42.0375,17.0438,17.475,,0.005075000000000163,4.785253118697066,3.7910680990145114,forward_fall
2.782498,3.6428,-1.6874,-2.6041,3.2437,2.0811,2.5703,42.0375,17.0438,17.475,,0.02075199999999988,4.785253118697066,3.574953150212653,forward_fall
2.802971,0.7211,-1.2775,-1.8807,3.2437,2.0811,2.5703,42.0375,17.0438,17.475,,0.020472999999999963,2.3851674888778778,3.3134340728190295,forward_fall
2.816184,0.7211,-1.2775,-1.8807,3.2437,2.0811,2.5703,41.9813,16.8188,17.6813,,0.01321299999999992,2.3851674888778778,3.1144571181375444,forward_fall
2.823331,0.7211,-1.2775,-1.8807,1.5042,1.7982,4.0958,41.9813,16.8188,17.6813,,0.0071470000000002365,2.3851674888778778,3.0944251679876413,forward_fall
2.843776,0.7211,-1.2775,-1.8807,1.5042,1.7982,4.0958,41.9813,16.8188,17.6813,,0.020445000000000046,2.3851674888778778,3.358735879457632,forward_fall
2.864898,-4.9914,1.4956,-0.1245,1.5042,1.7982,4.0958,41.9813,16.8188,17.6813,,0.021122000000000085,5.212139058966097,3.985467041914641,forward_fall
2.878456,-4.9914,1.4956,-0.1245,1.5042,1.7982,4.0958,41.3813,16.0125,19.0125,,0.013557999999999737,5.212139058966097,5.014629818860908,forward_fall
2.88582,-4.9914,1.4956,-0.1245,1.6825,3.7067,1.44,41.3813,16.0125,19.0125,,0.007363999999999926,5.212139058966097,6.443545027093132,forward_fall
2.906128,-4.9914,1.4956,-0.1245,1.6825,3.7067,1.44,41.3813,16.0125,19.0125,,0.020307999999999993,5.212139058966097,8.22781139781001,forward_fall
2.925155,-3.3322,8.6231,11.7583,1.6825,3.7067,1.44,41.3813,16.0125,19.0125,,0.01902700000000035,14.957240030834566,10.286768275972976,forward_fall
2.935545,-3.3322,8.6231,11.7583,1.6825,3.7067,1.44,39.4313,14.4938,21.5063,,0.010389999999999677,14.957240030834566,12.51139396984474,forward_fall
2.944581,-3.3322,8.6231,11.7583,2.7076,5.7831,10.4971,39.4313,14.4938,21.5063,,0.009036000000000044,14.957240030834566,14.7715765211168,forward_fall
2.965303,-3.3322,8.6231,11.7583,2.7076,5.7831,10.4971,39.4313,14.4938,21.5063,,0.02072200000000013,14.957240030834566,16.920642055945414,forward_fall
2.997172,-3.3322,8.6231,11.7583,2.7076,5.7831,10.4971,36.45,12.5063,24.7313,,0.031868999999999925,14.957240030834566,18.7987234322636,forward_fall
3.005939,-3.3322,8.6231,11.7583,1.0171,3.5186,2.6449,36.45,12.5063,24.7313,,0.008767000000000191,14.957240030834566,20.24038413920203,forward_fall
3.006869,-15.0074,-18.979,4.2248,1.0171,3.5186,2.6449,36.45,12.5063,24.7313,,0.0009299999999998754,24.561625166100065,21.0918986355081,forward_fall
3.02587,-15.0074,-18.979,4.2248,1.0171,3.5186,2.6449,36.45,12.5063,24.7313,,0.019000999999999824,24.561625166100065,21.238301189289842,forward_fall
3.056559,-15.0074,-18.979,4.2248,1.0171,3.5186,2.6449,33.0563,9.6,28.125,,0.03068900000000019,24.561625166100065,20.63262901998004,forward_fall
3.066745,-15.0074,-18.979,4.2248,-1.1788,0.5096,0.616,33.0563,9.6,28.125,,0.010186000000000028,24.561625166100065,19.315153189259693,forward_fall
3.069048,9.5049,-6.0544,-3.8076,-1.1788,0.5096,0.616,33.0563,9.6,28.125,,0.002302999999999944,11.895238590713513,17.412714861311052,forward_fall
3.086959,9.5049,-6.0544,-3.8076,-1.1788,0.5096,0.616,33.0563,9.6,28.125,,0.017910999999999788,11.895238590713513,15.116687622018677,forward_fall
3.116492,9.5049,-6.0544,-3.8076,-1.1788,0.5096,0.616,28.3688,6.9,31.6875,,0.029533000000000253,11.895238590713513,12.64736712675236,forward_fall
3.129389,9.5049,-6.0544,-3.8076,0.8491,6.6982,-1.1707,28.3688,6.9,31.6875,,0.012897000000000158,11.895238590713513,10.217033636527365,forward_fall
3.130718,-2.8723,-3.528,3.0487,0.8491,6.6982,-1.1707,28.3688,6.9,31.6875,,0.0013289999999996915,5.476446199863558,8.001810796371888,forward_fall
3.149438,-2.8723,-3.528,3.0487,0.8491,6.6982,-1.1707,28.3688,6.9,31.6875,,0.01872000000000007,5.476446199863558,6.126967374155356,forward_fall
3.176706,-2.8723,-3.528,3.0487,0.8491,6.6982,-1.1707,21.0,3.8063,34.2563,,0.027267999999999848,5.476446199863558,4.665515775624824,forward_fall
3.188229,-2.8723,-3.528,3.0487,-1.6691,9.2171,0.0409,21.0,3.8063,34.2563,,0.011523000000000394,5.476446199863558,3.6469161362321834,forward_fall
3.18938,3.6442,-0.0736,-0.081,-1.6691,9.2171,0.0409,21.0,3.8063,34.2563,,0.00115099999999968,3.645843057510841,3.070710042760181,forward_fall
3.209364,3.6442,-0.0736,-0.081,-1.6691,9.2171,0.0409,21.0,3.8063,34.2563,,0.019984000000000002,3.645843057510841,2.9192064567633524,forward_fall
3.23697,3.6442,-0.0736,-0.081,-1.6691,9.2171,0.0409,11.2688,0.5813,34.6688,,0.02760600000000002,3.645843057510841,3.164636570221765,forward_fall
3.251312,3.6442,-0.0736,-0.081,-2.83,10.3584,-0.4692,11.2688,0.5813,34.6688,,0.014342000000000077,3.645843057510841,3.7690605913307773,forward_fall
3.270408,3.6442,-0.0736,-0.081,-2.83,10.3584,-0.4692,11.2688,0.5813,34.6688,,0.019096000000000224,3.645843057510841,4.678425452045926,forward_fall
3.271616,-2.064,-4.5327,3.5869,-2.83,10.3584,-0.4692,11.2688,0.5813,34.6688,,0.0012079999999996538,6.137696383823495,5.814484452178515,forward_fall
3.296524,-2.064,-4.5327,3.5869,-2.83,10.3584,-0.4692,1.2938,-2.3625,30.9188,,0.02490799999999993,6.137696383823495,7.069355590346291,forward_fall
3.3109,-2.064,-4.5327,3.5869,-0.6542,15.8602,-1.9012,1.2938,-2.3625,30.9188,,0.014376000000000388,6.137696383823495,8.307297849978776,forward_fall
3.332146,-2.064,-4.5327,3.5869,-0.6542,15.8602,-1.9012,1.2938,-2.3625,30.9188,,0.021245999999999654,6.137696383823495,9.37697940299059,forward_fall
3.3339,-4.9017,-3.3635,10.9012,-0.6542,15.8602,-1.9012,1.2938,-2.3625,30.9188,,0.0017540000000000333,12.416761114719087,10.13497793578048,forward_fall
3.356563,-4.9017,-3.3635,10.9012,-0.6542,15.8602,-1.9012,-5.6438,-5.0438,22.6125,,0.0226630000000001,12.416761114719087,10.477265630858234,forward_fall
3.372855,-4.9017,-3.3635,10.9012,1.9056,12.8131,-0.7713,-5.6438,-5.0438,22.6125,,0.016291999999999973,12.416761114719087,10.37092704604771,forward_fall
3.392753,-4.9017,-3.3635,10.9012,1.9056,12.8131,-0.7713,-5.6438,-5.0438,22.6125,,0.01989799999999997,12.416761114719087,9.875807154733,forward_fall
3.394365,-6.2119,-4.703,3.6854,1.9056,12.8131,-0.7713,-5.6438,-5.0438,22.6125,,0.0016120000000001689,8.61905353098587,9.147214462443223,forward_fall
3.417704,-6.2119,-4.703,3.6854,1.9056,12.8131,-0.7713,-8.1562,-7.9875,13.4438,,0.023339,8.61905353098587,8.415797262552294,forward_fall
3.433141,-6.2119,-4.703,3.6854,6.9041,4.1391,-1.2285,-8.1562,-7.9875,13.4438,,0.015436999999999923,8.61905353098587,7.9469097596495395,forward_fall
3.455907,-6.2119,-4.703,3.6854,6.9041,4.1391,-1.2285,-8.1562,-7.9875,13.4438,,0.022765999999999842,8.61905353098587,7.98689124340475,forward_fall
3.476427,-6.2119,-4.703,3.6854,6.9041,4.1391,-1.2285,-9.0938,-12.2813,5.7,,0.020520000000000316,8.61905353098587,8.706882703716238,forward_fall
3.477932,-2.7362,-3.1955,2.8712,6.9041,4.1391,-1.2285,-9.0938,-12.2813,5.7,,0.0015049999999998676,5.093309349529047,10.15664185546138,forward_fall
3.493904,-2.7362,-3.1955,2.8712,11.7186,-6.9323,-4.4981,-9.0938,-12.2813,5.7,,0.015972000000000097,5.093309349529047,12.241579390668878,forward_fall
3.515089,-2.7362,-3.1955,2.8712,11.7186,-6.9323,-4.4981,-9.0938,-12.2813,5.7,,0.02118500000000001,5.093309349529047,14.734344157483271,forward_fall
3.534808,12.9297,22.7232,8.0763,11.7186,-6.9323,-4.4981,-9.0938,-12.2813,5.7,,0.01971899999999982,27.36325240208115,17.324836143157555,forward_fall
3.53677,12.9297,22.7232,8.0763,11.7186,-6.9323,-4.4981,-9.1688,-16.0312,-2.325,,0.0019620000000002413,27.36325240208115,19.69888897423224,forward_fall
3.555117,12.9297,22.7232,8.0763,-5.403,-19.4869,-5.2287,-9.1688,-16.0312,-2.325,,0.01834699999999989,27.36325240208115,21.621423568677155,forward_fall
3.57505,12.9297,22.7232,8.0763,-5.403,-19.4869,-5.2287,-9.1688,-16.0312,-2.325,,0.01993299999999998,27.36325240208115,22.99408378717466,forward_fall
3.59665,12.9297,22.7232,8.0763,-5.403,-19.4869,-5.2287,-10.8938,-17.6063,-12.5813,,0.02159999999999984,27.36325240208115,23.865539226156162,forward_fall
3.60066,-4.1784,-16.3395,-6.348,-5.403,-19.4869,-5.2287,-10.8938,-17.6063,-12.5813,,0.004010000000000069,18.02041594442259,24.390934261574674,forward_fall
3.616746,-4.1784,-16.3395,-6.348,-5.894,-14.1263,7.3021,-10.8938,-17.6063,-12.5813,,0.016086000000000045,18.02041594442259,24.756457635476718,forward_fall
3.636161,-4.1784,-16.3395,-6.348,-5.894,-14.1263,7.3021,-10.8938,-17.6063,-12.5813,,0.01941499999999996,18.02041594442259,25.09791393212694,forward_fall
3.659622,-4.1784,-16.3395,-6.348,-5.894,-14.1263,7.3021,-13.05,-16.4813,-20.1562,,0.023461000000000176,18.02041594442259,25.443844956483368,forward_fall
3.661639,-18.7007,-24.6202,-2.9674,-5.894,-14.1263,7.3021,-13.05,-16.4813,-20.1562,,0.0020169999999999355,31.0592319816508,25.703301602600458,forward_fall
3.677389,-18.7007,-24.6202,-2.9674,-0.1253,-4.6581,3.9077,-13.05,-16.4813,-20.1562,,0.01574999999999971,31.0592319816508,25.699869671296735,forward_fall
3.697477,-18.7007,-24.6202,-2.9674,-0.1253,-4.6581,3.9077,-13.05,-16.4813,-20.1562,,0.020088000000000328,31.0592319816508,25.23520321717845,forward_fall
3.720456,-18.7007,-24.6202,-2.9674,-0.1253,-4.6581,3.9077,-13.2188,-14.3813,-25.425,,0.02297899999999986,31.0592319816508,24.155688055111117,forward_fall
3.736751,8.6813,12.194,5.3163,-0.1253,-4.6581,3.9077,-13.2188,-14.3813,-25.425,,0.01629499999999995,15.884635701834652,22.39901635278816,forward_fall
3.738031,8.6813,12.194,5.3163,-2.6934,2.0641,0.8152,-13.2188,-14.3813,-25.425,,0.0012799999999999478,15.884635701834652,20.01032903592519,forward_fall
3.757904,8.6813,12.194,5.3163,-2.6934,2.0641,0.8152,-13.2188,-14.3813,-25.425,,0.01987300000000003,15.884635701834652,17.131856934837685,forward_fall
3.778561,8.6813,12.194,5.3163,-2.6934,2.0641,0.8152,-13.0875,-11.2125,-26.2688,,0.020656999999999925,15.884635701834652,13.977512702100741,forward_fall
3.798417,8.6813,12.194,5.3163,-4.5628,-3.7838,0.6157,-13.0875,-11.2125,-26.2688,,0.019856000000000318,15.884635701834652,10.802345235070145,forward_fall
3.80037,-0.1444,-2.4954,-3.1081,-4.5628,-3.7838,0.6157,-13.0875,-11.2125,-26.2688,,0.0019529999999998715,3.988503244326122,7.871006356257147,forward_fall
3.818591,-0.1444,-2.4954,-3.1081,-4.5628,-3.7838,0.6157,-13.0875,-11.2125,-26.2688,,0.018221000000000043,3.988503244326122,5.426066715735361,forward_fall
3.836724,-0.1444,-2.4954,-3.1081,-4.5628,-3.7838,0.6157,-15.45,-7.5938,-21.8063,,0.018132999999999733,3.988503244326122,3.658022478080831,forward_fall
3.859574,0.4482,0.6003,2.9969,-4.5628,-3.7838,0.6157,-15.45,-7.5938,-21.8063,,0.022850000000000037,3.0891184729627965,2.6808167402032246,forward_fall
3.861522,0.4482,0.6003,2.9969,0.6007,0.8489,0.0935,-15.45,-7.5938,-21.8063,,0.0019480000000000608,3.0891184729627965,2.516472694499263,forward_fall
3.880044,0.4482,0.6003,2.9969,0.6007,0.8489,0.0935,-15.45,-7.5938,-21.8063,,0.018521999999999927,3.0891184729627965,3.0905464336536412,forward_fall
3.896504,0.4482,0.6003,2.9969,0.6007,0.8489,0.0935,-21.3188,-3.0188,-17.5312,,0.016460000000000363,3.0891184729627965,4.238833542156016,forward_fall
3.920355,0.4482,0.6003,2.9969,-1.1274,-1.3598,-0.0503,-21.3188,-3.0188,-17.5312,,0.023850999999999623,3.0891184729627965,5.725779246330129,forward_fall
3.940456,0.4482,0.6003,2.9969,-1.1274,-1.3598,-0.0503,-21.3188,-3.0188,-17.5312,,0.02010100000000037,3.0891184729627965,7.275031045029349,forward_fall
3.94167,1.4131,-1.0472,12.8065,-1.1274,-1.3598,-0.0503,-21.3188,-3.0188,-17.5312,,0.0012139999999996043,12.926713491835423,8.610749582106928,forward_fall
3.958055,1.4131,-1.0472,12.8065,-1.1274,-1.3598,-0.0503,-27.4313,3.3375,-14.9813,,0.016385000000000094,12.926713491835423,9.504019249350575,forward_fall
3.982062,1.4131,-1.0472,12.8065,0.2173,0.3257,-0.0252,-27.4313,3.3375,-14.9813,,0.02400700000000011,12.926713491835423,9.813843136492254,forward_fall
4.001524,1.4131,-1.0472,12.8065,0.2173,0.3257,-0.0252,-27.4313,3.3375,-14.9813,,0.01946199999999987,12.926713491835423,9.510626214704565,forward_fall
4.002743,0.3081,-0.348,4.9297,0.2173,0.3257,-0.0252,-27.4313,3.3375,-14.9813,,0.001218999999999859,4.951562551356895,8.674314231373291,forward_fall
4.016694,0.3081,-0.348,4.9297,0.2173,0.3257,-0.0252,-33.9563,9.7125,-12.4875,,0.01395100000000049,4.951562551356895,7.467961248540553,forward_fall
4.04204,0.3081,-0.348,4.9297,-0.0067,-0.0073,0.0008,-33.9563,9.7125,-12.4875,,0.02534599999999987,4.951562551356895,6.095815779480998,forward_fall
4.062313,0.3081,-0.348,4.9297,-0.0067,-0.0073,0.0008,-33.9563,9.7125,-12.4875,,0.02027299999999954,4.951562551356895,4.758753566492168,forward_fall
4.063896,-0.0912,-0.2913,2.3746,-0.0067,-0.0073,0.0008,-33.9563,9.7125,-12.4875,,0.001583000000000112,2.3941383188947127,3.618057460277859,forward_fall
4.076872,-0.0912,-0.2913,2.3746,-0.0067,-0.0073,0.0008,-37.5,13.7625,-8.0625,,0.012976000000000099,2.3941383188947127,2.7736519670980044,forward_fall
4.101866,-0.0912,-0.2913,2.3746,0.0096,0.0487,0.0047,-37.5,13.7625,-8.0625,,0.024994000000000405,2.3941383188947127,2.258130569128986,forward_fall
4.122579,-0.0912,-0.2913,2.3746,0.0096,0.0487,0.0047,-37.5,13.7625,-8.0625,,0.02071299999999976,2.3941383188947127,2.0445707566870133,forward_fall
4.12393,0.023,-0.3569,2.8685,0.0096,0.0487,0.0047,-37.5,13.7625,-8.0625,,0.001350999999999658,2.8907090583453745,2.0639845846221494,forward_fall
4.135185,0.023,-0.3569,2.8685,0.0096,0.0487,0.0047,-37.875,15.3563,-5.775,,0.011255000000000237,2.8907090583453745,2.2271136665498354,forward_fall
4.163609,0.023,-0.3569,2.8685,-0.0177,0.0389,0.0015,-37.875,15.3563,-5.775,,0.028424000000000227,2.8907090583453745,2.4453202055410483,forward_fall
4.183569,0.023,-0.3569,2.8685,-0.0177,0.0389,0.0015,-37.875,15.3563,-5.775,,0.0199600000000002,2.8907090583453745,2.6465217339191502,forward_fall
4.19665,0.023,-0.3569,2.8685,-0.0177,0.0389,0.0015,-37.95,16.2,-3.7125,,0.013080999999999676,2.8907090583453745,2.7840281890261953,forward_fall
4.204165,-0.0523,-0.2598,2.4674,-0.0177,0.0389,0.0015,-37.95,16.2,-3.7125,,0.007514999999999716,2.4815910400386283,2.838152380900346,forward_fall
4.224743,-0.0523,-0.2598,2.4674,-0.0075,0.0172,-0.0024,-37.95,16.2,-3.7125,,0.02057800000000043,2.4815910400386283,2.812067151649344,forward_fall
4.244904,-0.0523,-0.2598,2.4674,-0.0075,0.0172,-0.0024,-37.95,16.2,-3.7125,,0.020160999999999873,2.4815910400386283,2.724283643194447,forward_fall
4.256831,-0.0523,-0.2598,2.4674,-0.0075,0.0172,-0.0024,-38.1,16.4813,-1.65,,0.011927000000000021,2.4815910400386283,2.600250830087053,forward_fall
4.265529,-0.0173,-0.2418,2.296,-0.0075,0.0172,-0.0024,-38.1,16.4813,-1.65,,0.008697999999999873,2.308762120704513,2.4650667037579104,forward_fall
4.285694,-0.0173,-0.2418,2.296,0.0146,0.0076,-0.0013,-38.1,16.4813,-1.65,,0.020165000000000433,2.308762120704513,2.338461279036244,forward_fall
4.306059,-0.0173,-0.2418,2.296,0.0146,0.0076,-0.0013,-38.1,16.4813,-1.65,,0.020364999999999966,2.308762120704513,2.232386490752768,forward_fall
4.316678,-0.0173,-0.2418,2.296,0.0146,0.0076,-0.0013,-38.2688,16.425,-1.5375,,0.010618999999999268,2.308762120704513,2.1509137929574567,forward_fall
4.327003,-0.0331,-0.2289,2.0574,0.0146,0.0076,-0.0013,-38.2688,16.425,-1.5375,,0.010325000000000806,2.070358804651986,2.0917591536585527,forward_fall
4.346556,-0.0331,-0.2289,2.0574,0.0004,-0.0088,-0.0041,-38.2688,16.425,-1.5375,,0.019552999999999265,2.070358804651986,2.0486381351384826,forward_fall
4.366676,-0.0331,-0.2289,2.0574,0.0004,-0.0088,-0.0041,-38.2688,16.425,-1.5375,,0.02012000000000036,2.070358804651986,2.0137515392587813,forward_fall
4.377027,-0.0331,-0.2289,2.0574,0.0004,-0.0088,-0.0041,-38.325,16.3688,-1.1438,,0.010350999999999999,2.070358804651986,1.979896312725353,forward_fall
4.407966,-0.0331,-0.2289,2.0574,-0.0007,-0.0077,-0.0035,-38.325,16.3688,-1.1438,,0.03093900000000005,2.070358804651986,1.9418855860121702,forward_fall
4.409778,-0.0459,-0.1862,1.7554,-0.0007,-0.0077,-0.0035,-38.325,16.3688,-1.1438,,0.0018120000000001468,1.7658443900865106,1.8971387647245042,forward_fall
4.427763,-0.0459,-0.1862,1.7554,-0.0007,-0.0077,-0.0035,-38.325,16.3688,-1.1438,,0.017984999999999474,1.7658443900865106,1.845502348581733,forward_fall
4.436872,-0.0459,-0.1862,1.7554,-0.0007,-0.0077,-0.0035,-38.4563,16.3688,-1.0875,,0.009109000000000478,1.7658443900865106,1.7885545372719776,forward_fall
4.468784,-0.0459,-0.1862,1.7554,-0.0035,0.0008,-0.0024,-38.4563,16.3688,-1.0875,,0.03191200000000016,1.7658443900865106,1.7287368034548118,forward_fall
4.470636,-0.0247,-0.1785,1.5879,-0.0035,0.0008,-0.0024,-38.4563,16.3688,-1.0875,,0.0018519999999995207,1.5980922219947133,1.668598309215673,forward_fall
4.488891,-0.0247,-0.1785,1.5879,-0.0035,0.0008,-0.0024,-38.4563,16.3688,-1.0875,,0.01825499999999991,1.5980922219947133,1.610300049892923,forward_fall
4.49773,-0.0247,-0.1785,1.5879,-0.0035,0.0008,-0.0024,-38.55,16.2563,-1.1063,,0.008839000000000041,1.5980922219947133,1.5553985014459761,forward_fall
4.529466,-0.0247,-0.1785,1.5879,-0.0077,-0.0077,-0.0041,-38.55,16.2563,-1.1063,,0.03173600000000043,1.5980922219947133,1.5048441734274816,forward_fall
4.531247,-0.0242,-0.1551,1.3869,-0.0077,-0.0077,-0.0041,-38.55,16.2563,-1.1063,,0.0017809999999993664,1.3957554441950066,1.4590849198638798,forward_fall
4.549118,-0.0242,-0.1551,1.3869,-0.0077,-0.0077,-0.0041,-38.55,16.2563,-1.1063,,0.017871000000000414,1.3957554441950066,1.4181705059581144,forward_fall
4.556472,-0.0242,-0.1551,1.3869,-0.0077,-0.0077,-0.0041,-38.6625,16.2938,-0.9375,,0.007354000000000305,1.3957554441950066,1.381812666663021,forward_fall
4.590707,-0.0242,-0.1551,1.3869,0.0008,0.0029,-0.0024,-38.6625,16.2938,-0.9375,,0.03423499999999979,1.3957554441950066,1.3494147855740501,forward_fall
4.592508,-0.0293,-0.134,1.259,0.0008,0.0029,-0.0024,-38.6625,16.2938,-0.9375,,0.0018009999999994974,1.266449955584507,1.3201041564834526,forward_fall
4.609783,-0.0293,-0.134,1.259,0.0008,0.0029,-0.0024,-38.6625,16.2938,-0.9375,,0.017275000000000595,1.266449955584507,1.2927915861340682,forward_fall
4.617006,-0.0293,-0.134,1.259,0.0008,0.0029,-0.0024,-38.7,16.275,-0.8063,,0.007222999999999757,1.266449955584507,1.2662774301336575,forward_fall
4.65181,-0.0293,-0.134,1.259,0.0057,-0.0073,0.0008,-38.7,16.275,-0.8063,,0.03480400000000028,1.266449955584507,1.2394123115286884,forward_fall
4.671885,-0.0293,-0.134,1.259,0.0057,-0.0073,0.0008,-38.7,16.275,-0.8063,,0.0200749999999994,1.266449955584507,1.2112879270501524,forward_fall
4.673833,-0.0293,-0.1193,1.1292,0.0057,-0.0073,0.0008,-38.7,16.275,-0.8063,,0.0019480000000005049,1.1358625004814624,1.181399200701317,non_fall
4.67781,-0.0293,-0.1193,1.1292,0.0057,-0.0073,0.0008,-38.8688,16.2188,-0.5625,,0.003976999999999897,1.1358625004814624,1.149720526187814,non_fall
4.71313,-0.0293,-0.1193,1.1292,0.0015,0.0005,0.0044,-38.8688,16.2188,-0.5625,,0.035319999999999574,1.1358625004814624,1.116676026195773,non_fall
4.732471,-0.0293,-0.1193,1.1292,0.0015,0.0005,0.0044,-38.8688,16.2188,-0.5625,,0.01934100000000072,1.1358625004814624,1.0830191602220076,non_fall
4.733536,-0.0109,-0.1121,0.9894,0.0015,0.0005,0.0044,-38.8688,16.2188,-0.5625,,0.0010649999999996496,0.9957899276453844,1.0496483526799567,non_fall
4.73626,-0.0109,-0.1121,0.9894,0.0015,0.0005,0.0044,-38.925,16.1438,-0.6,,0.0027239999999997266,0.9957899276453844,1.017390398727271,non_fall
4.772636,-0.0109,-0.1121,0.9894,-0.0088,-0.0127,-0.0003,-38.925,16.1438,-0.6,,0.03637600000000063,0.9957899276453844,0.9867989630332454,non_fall
4.793186,-0.0109,-0.1121,0.9894,-0.0088,-0.0127,-0.0003,-38.925,16.1438,-0.6,,0.020550000000000068,0.9957899276453844,0.9580238786520624,non_fall
4.794406,-0.0288,-0.096,0.8744,-0.0088,-0.0127,-0.0003,-38.925,16.1438,-0.6,,0.0012199999999999989,0.8801254456042047,0.9307900772014359,non_fall
4.797171,-0.0288,-0.096,0.8744,-0.0088,-0.0127,-0.0003,-38.8688,16.2375,-0.6375,,0.0027649999999992403,0.8801254456042047,0.9044985848014288,non_fall
4.833304,-0.0288,-0.096,0.8744,-0.0028,0.004,-0.0071,-38.8688,16.2375,-0.6375,,0.036133000000000415,0.8801254456042047,0.8784450395132328,non_fall
4.854132,-0.0288,-0.096,0.8744,-0.0028,0.004,-0.0071,-38.8688,16.2375,-0.6375,,0.020827999999999847,0.8801254456042047,0.8521316743612155,non_fall
4.855777,-0.0288,-0.096,0.8744,-0.0028,0.004,-0.0071,-38.85,16.3125,-0.5813,,0.0016449999999998965,0.8801254456042047,0.8256123890160386,non_fall
4.875577,-0.001,-0.0865,0.7697,-0.0028,0.004,-0.0071,-38.85,16.3125,-0.5813,,0.01980000000000004,0.7745458927655611,0.7997786546137502,non_fall
4.894613,-0.001,-0.0865,0.7697,0.0213,0.2863,0.0087,-38.85,16.3125,-0.5813,,0.01903599999999983,0.7745458927655611,0.776501947279071,non_fall
4.915796,-0.001,-0.0865,0.7697,0.0213,0.2863,0.0087,-38.85,16.3125,-0.5813,,0.021183000000000618,0.7745458927655611,0.758598154829145,non_fall
4.917084,-0.001,-0.0865,0.7697,0.0213,0.2863,0.0087,-38.8313,16.35,-0.7688,,0.0012879999999997338,0.7745458927655611,0.749636864011127,non_fall
4.935708,0.1897,-0.0861,0.7201,0.0213,0.2863,0.0087,-38.8313,16.35,-0.7688,,0.018623999999999974,0.7496287814645326,0.7536569195297582,non_fall
4.957513,0.1897,-0.0861,0.7201,0.021,0.571,0.4698,-38.8313,16.35,-0.7688,,0.02180499999999963,0.7496287814645326,0.7748754115758563,non_fall
4.977191,0.1897,-0.0861,0.7201,0.021,0.571,0.4698,-38.8313,16.35,-0.7688,,0.01967800000000075,0.7496287814645326,0.8175036311904453,non_fall
4.978894,0.1897,-0.0861,0.7201,0.021,0.571,0.4698,-38.7,16.5,-0.9375,,0.00170300000000001,0.7496287814645326,0.8857957531384947,non_fall
4.999221,-0.9253,-0.1276,0.6086,0.021,0.571,0.4698,-38.7,16.5,-0.9375,,0.020326999999999984,1.1148344316534182,0.9844151007312524,non_fall
5.01701,-0.9253,-0.1276,0.6086,0.0728,-0.0808,-1.3847,-38.7,16.5,-0.9375,,0.01778899999999961,1.1148344316534182,1.1190878467412315,non_fall
5.037083,-0.9253,-0.1276,0.6086,0.0728,-0.0808,-1.3847,-38.775,16.3125,-1.3125,,0.020073000000000008,1.1148344316534182,1.297361754649517,non_fall
5.038551,-0.9253,-0.1276,0.6086,0.0728,-0.0808,-1.3847,-38.775,16.3125,-1.3125,,0.0014680000000000248,1.1148344316534182,1.529157822514033,non_fall
5.057241,1.7282,-1.9824,0.9904,0.0728,-0.0808,-1.3847,-38.775,16.3125,-1.3125,,0.018690000000000317,2.8102450355796376,1.8266797001964517,non_fall
5.077644,1.7282,-1.9824,0.9904,0.3547,-0.3048,-2.0465,-38.775,16.3125,-1.3125,,0.02040299999999995,2.8102450355796376,2.2030865318768185,non_fall
5.09682,1.7282,-1.9824,0.9904,0.3547,-0.3048,-2.0465,-38.775,16.3125,-1.3125,,0.01917599999999986,2.8102450355796376,2.6693172840670956,non_fall
5.097971,1.7282,-1.9824,0.9904,0.3547,-0.3048,-2.0465,-39.0,15.375,-1.6125,,0.0011510000000001241,2.8102450355796376,3.228964744165351,non_fall
5.138216,1.7282,-1.9824,0.9904,0.8719,-1.6002,2.0108,-39.0,15.375,-1.6125,,0.04024499999999964,2.8102450355796376,3.8721987445222283,non_fall
5.140387,-2.299,-4.1697,1.4326,0.8719,-1.6002,2.0108,-39.0,15.375,-1.6125,,0.002170999999999701,4.972337664519577,4.570816084753337,non_fall
5.156511,-2.299,-4.1697,1.4326,0.8719,-1.6002,2.0108,-38.9625,15.0375,-1.9125,,0.01612400000000047,4.972337664519577,5.276756472506591,non_fall
5.157669,-2.299,-4.1697,1.4326,0.8719,-1.6002,2.0108,-38.9625,15.0375,-1.9125,,0.0011580000000002144,4.972337664519577,5.9257024187378065,non_fall
5.199725,-2.299,-4.1697,1.4326,0.3337,-1.6201,4.7294,-38.9625,15.0375,-1.9125,,0.04205599999999965,4.972337664519577,6.446146463450811,non_fall
5.201617,-7.2679,-0.3292,3.8897,0.3337,-1.6201,4.7294,-38.9625,15.0375,-1.9125,,0.0018919999999997827,8.249879340935841,6.77289234116012,non_fall
5.217108,-7.2679,-0.3292,3.8897,0.3337,-1.6201,4.7294,-38.4938,15.8438,-1.725,,0.015490999999999921,8.249879340935841,6.862275433231517,non_fall
5.220156,-7.2679,-0.3292,3.8897,0.3337,-1.6201,4.7294,-38.4938,15.8438,-1.725,,0.0030480000000006058,8.249879340935841,6.704754597740742,non_fall
5.260034,-7.2679,-0.3292,3.8897,1.076,-1.7297,6.212,-38.4938,15.8438,-1.725,,0.03987799999999986,8.249879340935841,6.330125286128283,non_fall
5.261912,-3.5829,-1.058,-0.5143,1.076,-1.7297,6.212,-38.4938,15.8438,-1.725,,0.0018779999999996022,3.771079540396887,5.802481199562749,non_fall
5.276632,-3.5829,-1.058,-0.5143,1.076,-1.7297,6.212,-36.675,18.2438,-1.5,,0.01472000000000051,3.771079540396887,5.205812250999032,non_fall
5.279729,-3.5829,-1.058,-0.5143,1.076,-1.7297,6.212,-36.675,18.2438,-1.5,,0.0030969999999994613,3.771079540396887,4.624880161694532,non_fall
5.321127,-3.5829,-1.058,-0.5143,3.0477,-1.1738,6.01,-36.675,18.2438,-1.5,,0.041398000000000046,3.771079540396887,4.127631433315271,non_fall
5.336752,-3.5829,-1.058,-0.5143,3.0477,-1.1738,6.01,-33.3375,20.9438,-1.875,,0.015625,3.771079540396887,3.7541312977922914,non_fall
5.341024,-3.5829,-1.058,-0.5143,3.0477,-1.1738,6.01,-33.3375,20.9438,-1.875,,0.004272000000000276,3.771079540396887,3.5139715638544624,non_fall
5.341636,-2.4319,-2.1608,1.6494,3.0477,-1.1738,6.01,-33.3375,20.9438,-1.875,,0.000612000000000279,3.6474257511291444,3.3911759483599297,non_fall
5.381536,-2.4319,-2.1608,1.6494,3.3558,-0.6985,6.176,-33.3375,20.9438,-1.875,,0.03989999999999938,3.6474257511291444,3.3538922859270115,non_fall
5.396508,-2.4319,-2.1608,1.6494,3.3558,-0.6985,6.176,-28.1813,24.2438,-3.3375,,0.014972000000000207,3.6474257511291444,3.365685924140568,non_fall
5.402357,-2.4319,-2.1608,1.6494,3.3558,-0.6985,6.176,-28.1813,24.2438,-3.3375,,0.005849000000000437,3.6474257511291444,3.3956313264863733,non_fall
5.403142,0.1013,-3.2956,-1.3102,3.3558,-0.6985,6.176,-28.1813,24.2438,-3.3375,,0.0007849999999995916,3.547938146304132,3.425224061717173,non_fall
5.443192,0.1013,-3.2956,-1.3102,3.0151,-0.8081,5.8274,-28.1813,24.2438,-3.3375,,0.04004999999999992,3.547938146304132,3.4511121900208734,non_fall
5.457222,0.1013,-3.2956,-1.3102,3.0151,-0.8081,5.8274,-21.45,26.8688,-5.7938,,0.014029999999999987,3.547938146304132,3.4835932229674387,non_fall
5.463801,0.7808,-3.3484,-0.7339,3.0151,-0.8081,5.8274,-21.45,26.8688,-5.7938,,0.006579000000000335,3.5156849133561443,3.5416247287158322,non_fall
5.465626,0.7808,-3.3484,-0.7339,3.0151,-0.8081,5.8274,-21.45,26.8688,-5.7938,,0.0018250000000001876,3.5156849133561443,3.6456916795348597,non_fall
5.503722,0.7808,-3.3484,-0.7339,1.9727,-1.0595,4.2318,-21.45,26.8688,-5.7938,,0.038095999999999464,3.5156849133561443,3.810241759115127,non_fall
5.516726,0.7808,-3.3484,-0.7339,1.9727,-1.0595,4.2318,-13.95,28.5188,-8.9625,,0.01300400000000046,3.5156849133561443,4.03751400187827,non_fall
5.523773,0.7808,-3.3484,-0.7339,1.9727,-1.0595,4.2318,-13.95,28.5188,-8.9625,,0.0070470000000000255,3.5156849133561443,4.3143668206572885,non_fall
5.524374,2.2984,-4.207,-2.2474,1.9727,-1.0595,4.2318,-13.95,28.5188,-8.9625,,0.0006009999999996296,5.294553646909246,4.613048169379584,non_fall
5.564053,2.2984,-4.207,-2.2474,1.1634,-0.5952,1.6963,-13.95,28.5188,-8.9625,,0.039679000000000464,5.294553646909246,4.895755446341888,non_fall
5.577187,2.2984,-4.207,-2.2474,1.1634,-0.5952,1.6963,-6.0375,30.225,-12.7875,,0.013133999999999979,5.294553646909246,5.121658326939699,non_fall
5.585959,2.2984,-4.207,-2.2474,1.1634,-0.5952,1.6963,-6.0375,30.225,-12.7875,,0.008771999999999558,5.294553646909246,5.254408938097709,non_fall
5.604535,2.5065,-4.2881,-1.4928,1.1634,-0.5952,1.6963,-6.0375,30.225,-12.7875,,0.01857600000000037,5.186404891637366,5.268361204749932,non_fall
5.625031,2.5065,-4.2881,-1.4928,0.4537,-0.0218,0.2322,-6.0375,30.225,-12.7875,,0.020495999999999626,5.186404891637366,5.152455250785029,non_fall
5.635998,2.5065,-4.2881,-1.4928,0.4537,-0.0218,0.2322,1.6875,31.1625,-16.8188,,0.010966999999999949,5.186404891637366,4.91142224517268,non_fall
5.645428,2.5065,-4.2881,-1.4928,0.4537,-0.0218,0.2322,1.6875,31.1625,-16.8188,,0.00943000000000005,5.186404891637366,4.5643733728740195,non_fall
5.665735,0.6504,-3.0506,-1.0841,0.4537,-0.0218,0.2322,1.6875,31.1625,-16.8188,,0.020306999999999853,3.302189172352184,4.1411181906615155,non_fall
5.685407,0.6504,-3.0506,-1.0841,0.0743,0.0566,-0.0262,1.6875,31.1625,-16.8188,,0.019671999999999912,3.302189172352184,3.6769499942616566,non_fall
5.695568,0.6504,-3.0506,-1.0841,0.0743,0.0566,-0.0262,8.8875,30.8813,-21.1875,,0.010161000000000087,3.302189172352184,3.2070484948348277,non_fall
5.704989,0.6504,-3.0506,-1.0841,0.0743,0.0566,-0.0262,8.8875,30.8813,-21.1875,,0.009421000000000568,3.302189172352184,2.761696205065084,non_fall
5.726582,-0.3837,-1.7937,0.0196,0.0743,0.0566,-0.0262,8.8875,30.8813,-21.1875,,0.021592999999999307,1.8343853302945923,2.363051583702229,non_fall
5.747167,-0.3837,-1.7937,0.0196,0.0447,0.0385,0.0328,8.8875,30.8813,-21.1875,,0.02058500000000052,1.8343853302945923,2.0236648368874026,non_fall
5.754918,-0.3837,-1.7937,0.0196,0.0447,0.0385,0.0328,14.6813,29.0813,-25.7813,,0.007750999999999841,1.8343853302945923,1.7466471544837294,non_fall
5.767871,-0.3837,-1.7937,0.0196,0.0447,0.0385,0.0328,14.6813,29.0813,-25.7813,,0.012953000000000436,1.8343853302945923,1.5272955130091432,non_fall
5.809717,-0.4601,-0.3584,1.0552,0.0447,0.0385,0.0328,14.6813,29.0813,-25.7813,,0.041845999999999606,1.2056490409733671,1.3557710168665789,non_fall
5.812224,-0.4601,-0.3584,1.0552,-0.0437,-0.0165,-0.0535,14.6813,29.0813,-25.7813,,0.002506999999999593,1.2056490409733671,1.2202054352557,non_fall
5.816356,-0.4601,-0.3584,1.0552,-0.0437,-0.0165,-0.0535,19.1063,26.5125,-29.55,,0.004132000000000247,1.2056490409733671,1.1095828482930497,non_fall
5.828517,-0.4601,-0.3584,1.0552,-0.0437,-0.0165,-0.0535,19.1063,26.5125,-29.55,,0.012160999999999866,1.2056490409733671,1.0158853501685983,non_fall
5.869314,-0.4601,-0.3584,1.0552,0.0944,-0.0435,0.3597,19.1063,26.5125,-29.55,,0.040797000000000416,1.2056490409733671,0.9351516216267171,non_fall
5.87115,-0.4447,-0.1511,0.4468,0.0944,-0.0435,0.3597,19.1063,26.5125,-29.55,,0.0018359999999999488,0.6482434264996445,0.867280181773531,non_fall
5.877314,-0.4447,-0.1511,0.4468,0.0944,-0.0435,0.3597,21.7688,23.7,-32.0063,,0.006164000000000058,0.6482434264996445,0.8147140282038641,non_fall
5.889612,-0.4447,-0.1511,0.4468,0.0944,-0.0435,0.3597,21.7688,23.7,-32.0063,,0.012297999999999476,0.6482434264996445,0.7805133154304782,non_fall
5.930273,-0.4447,-0.1511,0.4468,-0.0113,-0.008,0.0832,21.7688,23.7,-32.0063,,0.04066100000000006,0.6482434264996445,0.7665288519190494,non_fall
5.932034,-0.1851,0.7075,0.4638,-0.0113,-0.008,0.0832,21.7688,23.7,-32.0063,,0.0017610000000001236,0.8659842377318423,0.7722704608451401,non_fall
5.936964,-0.1851,0.7075,0.4638,-0.0113,-0.008,0.0832,22.9875,21.5813,-33.4313,,0.004929999999999879,0.8659842377318423,0.7946985183445133,non_fall
5.950517,-0.1851,0.7075,0.4638,-0.0113,-0.008,0.0832,22.9875,21.5813,-33.4313,,0.013552999999999926,0.8659842377318423,0.8287845601488947,non_fall
5.991969,-0.1851,0.7075,0.4638,0.0245,-0.0425,-0.0925,22.9875,21.5813,-33.4313,,0.04145200000000049,0.8659842377318423,0.8684746317793277,non_fall
5.994281,0.7437,0.601,-0.0553,0.0245,-0.0425,-0.0925,22.9875,21.5813,-33.4313,,0.0023119999999998697,0.9577832635831554,0.9076852765811512,non_fall
5.996736,0.7437,0.601,-0.0553,0.0245,-0.0425,-0.0925,23.4375,20.4188,-34.3875,,0.002455000000000318,0.9577832635831554,0.9410828172188035,non_fall
6.010951,0.7437,0.601,-0.0553,0.0245,-0.0425,-0.0925,23.4375,20.4188,-34.3875,,0.014215000000000089,0.9577832635831554,0.9645381259847366,non_fall
6.054466,0.7437,0.601,-0.0553,0.017,-0.2264,0.1609,23.4375,20.4188,-34.3875,,0.043514999999999304,0.9577832635831554,0.9752639835347284,non_fall
6.056711,0.7437,0.601,-0.0553,0.017,-0.2264,0.1609,23.6625,20.1,-34.575,,0.0022450000000002746,0.9577832635831554,0.971726253019826,non_fall
6.07281,0.3692,0.7486,0.2912,0.017,-0.2264,0.1609,23.6625,20.1,-34.575,,0.01609899999999964,0.8840294338991208,0.9534679859458807,non_fall
6.075231,0.3692,0.7486,0.2912,0.017,-0.2264,0.1609,23.6625,20.1,-34.575,,0.0024210000000000065,0.8840294338991208,0.9209843972901669,non_fall
6.113483,0.3692,0.7486,0.2912,0.0451,-0.1386,0.2049,23.6625,20.1,-34.575,,0.03825199999999995,0.8840294338991208,0.8757309844304503,non_fall
6.119543,0.3692,0.7486,0.2912,0.0451,-0.1386,0.2049,23.7375,19.875,-34.7625,,0.0060600000000006204,0.8840294338991208,0.8202467776674377,non_fall
6.133199,0.3692,0.7486,0.2912,0.0451,-0.1386,0.2049,23.7375,19.875,-34.7625,,0.013656000000000112,0.8840294338991208,0.7582652773363651,non_fall
6.134226,-0.1147,0.4351,0.4438,0.0451,-0.1386,0.2049,23.7375,19.875,-34.7625,,0.001026999999999667,0.6320020094904762,0.6946289322539845,non_fall
6.173961,-0.1147,0.4351,0.4438,-0.0486,-0.0141,0.1393,23.7375,19.875,-34.7625,,0.0397350000000003,0.6320020094904762,0.634867970771321,non_fall
6.176098,-0.1147,0.4351,0.4438,-0.0486,-0.0141,0.1393,23.85,19.7063,-34.725,,0.0021369999999993894,0.6320020094904762,0.5844326843646036,non_fall
6.194034,-0.1147,0.4351,0.4438,-0.0486,-0.0141,0.1393,23.85,19.7063,-34.725,,0.017936000000000618,0.6320020094904762,0.5477036936451626,non_fall
6.195662,0.1729,0.3023,0.1696,-0.0486,-0.0141,0.1393,23.85,19.7063,-34.725,,0.0016279999999992967,0.3873549534987258,0.526996503953356,non_fall
6.234399,0.1729,0.3023,0.1696,-0.1945,-0.1529,-0.3123,23.85,19.7063,-34.725,,0.03873700000000024,0.3873549534987258,0.5218376131730534,non_fall
6.236154,0.1729,0.3023,0.1696,-0.1945,-0.1529,-0.3123,23.8875,19.5,-34.6313,,0.001755000000000173,0.3873549534987258,0.5288203084913933,non_fall
6.255122,0.1729,0.3023,0.1696,-0.1945,-0.1529,-0.3123,23.8875,19.5,-34.6313,,0.018968000000000096,0.3873549534987258,0.5422775627617654,non_fall
6.2565,0.1371,-0.6832,0.3566,-0.1945,-0.1529,-0.3123,23.8875,19.5,-34.6313,,0.0013779999999998793,0.782765744012856,0.5557672103319189,non_fall
6.296153,0.1371,-0.6832,0.3566,-0.1334,-0.5128,0.3775,23.8875,19.5,-34.6313,,0.03965300000000038,0.782765744012856,0.5639974876410986,non_fall
6.297847,0.1371,-0.6832,0.3566,-0.1334,-0.5128,0.3775,23.6625,19.5188,-34.8375,,0.0016939999999996402,0.782765744012856,0.5645095840914593,non_fall
6.31752,0.1371,-0.6832,0.3566,-0.1334,-0.5128,0.3775,23.6625,19.5188,-34.8375,,0.01967300000000005,0.782765744012856,0.5583929062242511,non_fall
6.337013,0.1509,-0.085,0.277,-0.1334,-0.5128,0.3775,23.6625,19.5188,-34.8375,,0.01949299999999976,0.3266876336808604,0.549635032980979,non_fall
6.357344,0.1509,-0.085,0.277,-0.1334,-0.5128,0.3775,23.4563,19.35,-35.25,,0.020331000000000543,0.3266876336808604,0.5432863799821247,non_fall
6.36003,0.1509,-0.085,0.277,0.1747,-0.3726,0.0232,23.4563,19.35,-35.25,,0.002685999999999744,0.3266876336808604,0.5431672023288855,non_fall
6.377404,0.1509,-0.085,0.277,0.1747,-0.3726,0.0232,23.4563,19.35,-35.25,,0.017374000000000223,0.3266876336808604,0.5500704278556668,non_fall
6.3991,0.5319,0.3396,0.2974,0.1747,-0.3726,0.0232,23.4563,19.35,-35.25,,0.021695999999999493,0.6976335212703014,0.56119411707636,non_fall
6.417212,0.5319,0.3396,0.2974,0.1747,-0.3726,0.0232,23.0438,19.2188,-35.5312,,0.01811200000000035,0.6976335212703014,0.5709944569563261,non_fall
6.418718,0.5319,0.3396,0.2974,0.1019,-0.3427,0.0153,23.0438,19.2188,-35.5312,,0.0015060000000000073,0.6976335212703014,0.5730701124583276,non_fall
6.437547,0.5319,0.3396,0.2974,0.1019,-0.3427,0.0153,23.0438,19.2188,-35.5312,,0.018829000000000207,0.6976335212703014,0.5623462485017923,non_fall
6.458137,-0.0728,0.4032,-0.2124,0.1019,-0.3427,0.0153,23.0438,19.2188,-35.5312,,0.020589999999999442,0.46150172264033856,0.5368356033971856,non_fall
6.478018,-0.0728,0.4032,-0.2124,0.1019,-0.3427,0.0153,22.65,19.2,-35.7375,,0.019880999999999815,0.46150172264033856,0.4985276151463183,non_fall
6.480059,-0.0728,0.4032,-0.2124,-0.0256,-0.0868,0.1144,22.65,19.2,-35.7375,,0.0020410000000001816,0.46150172264033856,0.45329527316473983,non_fall
6.49876,-0.0728,0.4032,-0.2124,-0.0256,-0.0868,0.1144,22.65,19.2,-35.7375,,0.01870100000000008,0.46150172264033856,0.4099428258739704,non_fall
6.53693,-0.0728,0.4032,-0.2124,-0.0256,-0.0868,0.1144,22.1813,18.975,-36.0375,,0.03817000000000004,0.46150172264033856,0.37860050990387206,non_fall
6.538737,-0.0728,0.4032,-0.2124,-0.0876,0.2081,-0.0116,22.1813,18.975,-36.0375,,0.0018070000000003361,0.46150172264033856,0.36868375113947893,non_fall
6.539633,0.033,0.103,-0.2549,-0.0876,0.2081,-0.0116,22.1813,18.975,-36.0375,,0.0008960000000000079,0.2768971108552778,0.38668536759433514,non_fall
6.559001,0.033,0.103,-0.2549,-0.0876,0.2081,-0.0116,22.1813,18.975,-36.0375,,0.019368000000000052,0.2768971108552778,0.4341995402598952,non_fall
6.597472,0.033,0.103,-0.2549,-0.0876,0.2081,-0.0116,21.9188,19.05,-36.2438,,0.03847099999999948,0.2768971108552778,0.5067126987981011,non_fall
6.600147,0.033,0.103,-0.2549,-0.0851,0.4467,0.2919,21.9188,19.05,-36.2438,,0.002674999999999983,0.2768971108552778,0.5936950443861274,non_fall
6.601407,0.4789,0.7647,-0.2955,-0.0851,0.4467,0.2919,21.9188,19.05,-36.2438,,0.001260000000000261,0.9494374913600158,0.6802702100480623,non_fall
6.620787,0.4789,0.7647,-0.2955,-0.0851,0.4467,0.2919,21.9188,19.05,-36.2438,,0.019379999999999953,0.9494374913600158,0.7502470595623913,non_fall
6.655922,0.4789,0.7647,-0.2955,-0.0851,0.4467,0.2919,21.7313,19.1063,-36.5625,,0.03513500000000036,0.9494374913600158,0.7897690470171663,non_fall
6.659935,0.4789,0.7647,-0.2955,0.0068,0.4879,-0.1252,21.7313,19.1063,-36.5625,,0.0040129999999996,0.9494374913600158,0.7905670598016638,non_fall
6.660807,-0.4072,0.4791,0.1093,0.0068,0.4879,-0.1252,21.7313,19.1063,-36.5625,,0.0008720000000002059,0.6381967878327186,0.7519513604498166,non_fall
6.680738,-0.4072,0.4791,0.1093,0.0068,0.4879,-0.1252,21.7313,19.1063,-36.5625,,0.0199309999999997,0.6381967878327186,0.6811324533879174,non_fall
6.715656,-0.4072,0.4791,0.1093,0.0068,0.4879,-0.1252,21.6562,19.0875,-36.6938,,0.03491800000000023,0.6381967878327186,0.5919435873348665,non_fall
6.720697,-0.4072,0.4791,0.1093,0.0882,0.5657,-0.0028,21.6562,19.0875,-36.6938,,0.005041000000000295,0.6381967878327186,0.5023406797979338,non_fall
6.721657,0.3093,0.0742,-0.0746,0.0882,0.5657,-0.0028,21.6562,19.0875,-36.6938,,0.0009600000000000719,0.3267067339373341,0.43116148258353243,non_fall
6.74128,0.3093,0.0742,-0.0746,0.0882,0.5657,-0.0028,21.6562,19.0875,-36.6938,,0.01962299999999928,0.3267067339373341,0.39465609631031157,non_fall
6.775541,0.3093,0.0742,-0.0746,0.0882,0.5657,-0.0028,21.7875,18.825,-36.5438,,0.034260999999999875,0.3267067339373341,0.4033475965008696,non_fall
6.781788,0.3093,0.0742,-0.0746,0.0818,0.457,-0.4173,21.7875,18.825,-36.5438,,0.006247000000000114,0.3267067339373341,0.4598060129450744,non_fall
6.802355,0.3093,0.0742,-0.0746,0.0818,0.457,-0.4173,21.7875,18.825,-36.5438,,0.020567000000000668,0.3267067339373341,0.5578281273513715,non_fall
6.803787,0.2187,-0.7736,0.3543,0.0818,0.457,-0.4173,21.7875,18.825,-36.5438,,0.0014319999999994337,0.8785301019316298,0.6832757738762544,non_fall
6.835874,0.2187,-0.7736,0.3543,0.0818,0.457,-0.4173,21.9375,18.8813,-36.525,,0.032086999999999755,0.8785301019316298,0.8164798874438655,non_fall
6.843297,0.2187,-0.7736,0.3543,0.2429,0.0534,-0.6033,21.9375,18.8813,-36.525,,0.0074230000000001795,0.8785301019316298,0.9357723250146626,non_fall
6.863143,0.2187,-0.7736,0.3543,0.2429,0.0534,-0.6033,21.9375,18.8813,-36.525,,0.019846000000000252,0.8785301019316298,1.0214943141706916,non_fall
6.86459,-0.6677,-0.5975,0.8668,0.2429,0.0534,-0.6033,21.9375,18.8813,-36.525,,0.001446999999999754,1.246664261138499,1.0597892846893915,non_fall
6.895918,-0.6677,-0.5975,0.8668,0.2429,0.0534,-0.6033,22.1438,19.1438,-36.525,,0.031328000000000245,1.246664261138499,1.045519802656786,non_fall
6.903856,-0.6677,-0.5975,0.8668,0.3121,0.2699,-0.8149,22.1438,19.1438,-36.525,,0.007938000000000223,1.246664261138499,0.9836787914309723,non_fall
6.924153,-0.6677,-0.5975,0.8668,0.3121,0.2699,-0.8149,22.1438,19.1438,-36.525,,0.020296999999999343,1.246664261138499,0.8887901693634894,non_fall
6.925586,-0.1135,-0.3916,0.0551,0.3121,0.2699,-0.8149,22.1438,19.1438,-36.525,,0.0014330000000004617,0.41142292109215306,0.7821694927517744,non_fall
6.95579,-0.1135,-0.3916,0.0551,0.3121,0.2699,-0.8149,22.4813,19.2938,-36.4688,,0.03020400000000034,0.41142292109215306,0.687533705862134,non_fall
6.965286,-0.1135,-0.3916,0.0551,0.4594,0.6487,-0.9023,22.4813,19.2938,-36.4688,,0.009495999999999505,0.41142292109215306,0.626057060168262,non_fall
6.985286,-0.1135,-0.3916,0.0551,0.4594,0.6487,-0.9023,22.4813,19.2938,-36.4688,,0.020000000000000462,0.41142292109215306,0.6122130811529257,non_fall
7.005365,-0.2959,0.004,-0.7426,0.4594,0.6487,-0.9023,22.4813,19.2938,-36.4688,,0.020078999999999958,0.7993920002101598,0.6514501904442298,non_fall
7.015656,-0.2959,0.004,-0.7426,0.4594,0.6487,-0.9023,22.7438,19.8375,-36.3563,,0.010290999999999606,0.7993920002101598,0.740092789410031,non_fall
7.025128,-0.2959,0.004,-0.7426,-0.071,0.7794,-1.1931,22.7438,19.8375,-36.3563,,0.009471999999999703,0.7993920002101598,0.8671997406469075,non_fall
7.046608,-0.2959,0.004,-0.7426,-0.071,0.7794,-1.1931,22.7438,19.8375,-36.3563,,0.021480000000000388,0.7993920002101598,1.017707833420893,non_fall
7.066558,0.4559,0.25,-1.5055,-0.071,0.7794,-1.1931,22.7438,19.8375,-36.3563,,0.01994999999999969,1.5927570624549119,1.1760484496594985,non_fall
7.075719,0.4559,0.25,-1.5055,-0.071,0.7794,-1.1931,23.2875,20.3813,-35.7563,,0.00916100000000064,1.5927570624549119,1.3294034814172104,non_fall
7.086687,0.4559,0.25,-1.5055,-0.5176,1.3488,-0.028,23.2875,20.3813,-35.7563,,0.010968000000000089,1.5927570624549119,1.4698046780928973,non_fall
7.108264,0.4559,0.25,-1.5055,-0.5176,1.3488,-0.028,23.2875,20.3813,-35.7563,,0.021576999999999735,1.5927570624549119,1.5945071360477034,non_fall
7.127945,-1.1104,-0.7284,-0.9593,-0.5176,1.3488,-0.028,23.2875,20.3813,-35.7563,,0.01968100000000028,1.6382341743474893,1.7045692302085815,non_fall
7.138088,-1.1104,-0.7284,-0.9593,-0.5176,1.3488,-0.028,24.0375,20.775,-34.8,,0.010142999999999347,1.6382341743474893,1.8021848159565081,non_fall
7.148331,-1.1104,-0.7284,-0.9593,-0.4827,1.298,0.3543,24.0375,20.775,-34.8,,0.010243000000000002,1.6382341743474893,1.8877544364877996,non_fall
7.168064,-1.1104,-0.7284,-0.9593,-0.4827,1.298,0.3543,24.0375,20.775,-34.8,,0.019733000000000445,1.6382341743474893,1.9577807385354162,non_fall
7.188552,1.6516,0.518,1.119,-0.4827,1.298,0.3543,24.0375,20.775,-34.8,,0.020487999999999396,2.0611325915622216,2.004414281732245,non_fall
7.197396,1.6516,0.518,1.119,-0.4827,1.298,0.3543,24.975,21.2063,-33.675,,0.00884400000000074,2.0611325915622216,2.016935165698513,non_fall
7.209721,1.6516,0.518,1.119,-0.2715,0.997,0.3786,24.975,21.2063,-33.675,,0.012324999999999697,2.0611325915622216,1.984798466759574,non_fall
7.229574,1.6516,0.518,1.119,-0.2715,0.997,0.3786,24.975,21.2063,-33.675,,0.019853000000000343,2.0611325915622216,1.9013327288387871,non_fall
7.257173,1.6516,0.518,1.119,-0.2715,0.997,0.3786,26.1563,21.75,-32.4375,,0.027598999999999485,2.0611325915622216,1.7669416173111558,non_fall
7.270581,1.6516,0.518,1.119,-0.0554,0.4585,0.6984,26.1563,21.75,-32.4375,,0.013408000000000087,2.0611325915622216,1.5907588662450947,non_fall
7.272477,0.9681,0.2262,-0.1105,-0.0554,0.4585,0.6984,26.1563,21.75,-32.4375,,0.0018960000000003419,1.0002971058640528,1.3901099648066026,non_fall
7.291136,0.9681,0.2262,-0.1105,-0.0554,0.4585,0.6984,26.1563,21.75,-32.4375,,0.018658999999999537,1.0002971058640528,1.187775110481816,non_fall
7.317803,0.9681,0.2262,-0.1105,-0.0554,0.4585,0.6984,27.5625,21.9,-30.7875,,0.026666999999999774,1.0002971058640528,1.0077311687593806,non_fall
7.331057,0.9681,0.2262,-0.1105,0.0181,0.9882,0.7434,27.5625,21.9,-30.7875,,0.013254000000000765,1.0002971058640528,0.870459063915586,non_fall
7.333676,0.3882,0.2168,0.3732,0.0181,0.9882,0.7434,27.5625,21.9,-30.7875,,0.002618999999999261,0.5804995434968059,0.7888847531777531,non_fall
7.351068,0.3882,0.2168,0.3732,0.0181,0.9882,0.7434,27.5625,21.9,-30.7875,,0.017392000000000074,0.5804995434968059,0.765756093197359,non_fall
7.37887,0.3882,0.2168,0.3732,0.0181,0.9882,0.7434,29.3438,21.7688,-28.9875,,0.027802000000000326,0.5804995434968059,0.7929886080249584,non_fall
7.395961,0.3882,0.2168,0.3732,0.1698,0.6558,0.6792,29.3438,21.7688,-28.9875,,0.017090999999999745,0.5804995434968059,0.8532450642933919,non_fall
7.39889,1.0987,-0.3644,0.4317,0.1698,0.6558,0.6792,29.3438,21.7688,-28.9875,,0.0029289999999999594,1.2354326934317386,0.9236037907486183,non_fall
7.413902,1.0987,-0.3644,0.4317,0.1698,0.6558,0.6792,29.3438,21.7688,-28.9875,,0.01501200000000047,1.2354326934317386,0.9806058618692355,non_fall
7.438496,1.0987,-0.3644,0.4317,0.1698,0.6558,0.6792,31.05,21.2625,-26.7188,,0.02459399999999956,1.2354326934317386,1.0054615362693602,non_fall
7.453481,1.0987,-0.3644,0.4317,0.0021,0.5003,0.4236,31.05,21.2625,-26.7188,,0.014985000000000248,1.2354326934317386,0.9880325305535456,non_fall
7.475097,1.0987,-0.3644,0.4317,0.0021,0.5003,0.4236,31.05,21.2625,-26.7188,,0.021615999999999858,1.2354326934317386,0.9285320605578004,non_fall
7.477972,0.2257,-0.053,-0.3704,0.0021,0.5003,0.4236,31.05,21.2625,-26.7188,,0.002875000000000405,0.4369732829361539,0.8365920092371684,non_fall
7.497448,0.2257,-0.053,-0.3704,0.0021,0.5003,0.4236,32.9813,20.5312,-24.5438,,0.01947600000000005,0.4369732829361539,0.7281731772781969,non_fall
7.515621,0.2257,-0.053,-0.3704,0.0455,0.1365,0.1499,32.9813,20.5312,-24.5438,,0.018172999999999995,0.4369732829361539,0.6214336478797132,non_fall
7.534849,0.2257,-0.053,-0.3704,0.0455,0.1365,0.1499,32.9813,20.5312,-24.5438,,0.019228000000000023,0.4369732829361539,0.5328488383392128,non_fall
7.536153,-0.4618,0.3374,-0.1415,0.0455,0.1365,0.1499,32.9813,20.5312,-24.5438,,0.0013039999999993057,0.5891691183353045,0.4745220608854244,non_fall
7.556682,-0.4618,0.3374,-0.1415,0.0455,0.1365,0.1499,34.575,19.5938,-22.875,,0.020529000000000686,0.5891691183353045,0.4529722025396377,non_fall
7.574727,-0.4618,0.3374,-0.1415,0.1495,0.4144,0.3345,34.575,19.5938,-22.875,,0.018044999999999867,0.5891691183353045,0.46911111557847424,non_fall
7.596181,-0.4618,0.3374,-0.1415,0.1495,0.4144,0.3345,34.575,19.5938,-22.875,,0.021453999999999418,0.5891691183353045,0.5188735365186882,non_fall
7.598581,-0.4226,0.3107,0.1896,0.1495,0.4144,0.3345,34.575,19.5938,-22.875,,0.002400000000000624,0.5577395539138317,0.5940555604419385,non_fall
7.618083,-0.4226,0.3107,0.1896,0.1495,0.4144,0.3345,35.8875,18.6188,-21.525,,0.01950200000000013,0.5577395539138317,0.6832113953858707,non_fall
7.636946,-0.4226,0.3107,0.1896,-0.0802,0.1463,0.189,35.8875,18.6188,-21.525,,0.01886299999999963,0.5577395539138317,0.7727549751139615,non_fall
7.659079,-0.4226,0.3107,0.1896,-0.0802,0.1463,0.189,35.8875,18.6188,-21.525,,0.02213300000000018,0.5577395539138317,0.8485425108961829,non_fall
7.662026,-0.432,0.7711,-0.6996,-0.0802,0.1463,0.189,35.8875,18.6188,-21.525,,0.002946999999999811,1.1272352771271843,0.8980756864095794,non_fall
7.678659,-0.432,0.7711,-0.6996,-0.0802,0.1463,0.189,37.125,17.6625,-20.2313,,0.016632999999999676,1.1272352771271843,0.9130807773607701,non_fall
7.699981,-0.432,0.7711,-0.6996,-0.2981,0.4261,0.3771,37.125,17.6625,-20.2313,,0.021322000000000507,1.1272352771271843,0.8917685629360688,non_fall
7.718375,-0.432,0.7711,-0.6996,-0.2981,0.4261,0.3771,37.125,17.6625,-20.2313,,0.0183939999999998,1.1272352771271843,0.839855219416679,non_fall
7.737155,-0.432,0.7711,-0.6996,-0.2981,0.4261,0.3771,38.2688,16.5563,-18.9938,,0.018779999999999575,1.1272352771271843,0.7696313609807952,non_fall
7.739024,0.0524,0.0443,0.2315,-0.2981,0.4261,0.3771,38.2688,16.5563,-18.9938,,0.0018690000000001206,0.241454964744981,0.6969822621495456,non_fall
7.757008,0.0524,0.0443,0.2315,0.0668,0.7342,0.3927,38.2688,16.5563,-18.9938,,0.017984000000000222,0.241454964744981,0.6370703637059797,non_fall
7.778638,0.0524,0.0443,0.2315,0.0668,0.7342,0.3927,38.2688,16.5563,-18.9938,,0.021630000000000038,0.241454964744981,0.600053294627465,non_fall
7.798116,0.0524,0.0443,0.2315,0.0668,0.7342,0.3927,39.0563,15.6,-17.9438,,0.01947800000000033,0.241454964744981,0.5883570386075792,non_fall
7.800227,0.0973,-0.0069,0.8948,0.0668,0.7342,0.3927,39.0563,15.6,-17.9438,,0.002110999999999308,0.9001010721024613,0.59648359449762,non_fall
7.819193,0.0973,-0.0069,0.8948,0.2411,-0.1823,-0.0145,39.0563,15.6,-17.9438,,0.018966000000000705,0.9001010721024613,0.6133266523978158,non_fall
7.838914,0.0973,-0.0069,0.8948,0.2411,-0.1823,-0.0145,39.0563,15.6,-17.9438,,0.019720999999999655,0.9001010721024613,0.6260003175719189,non_fall
7.858831,0.0973,-0.0069,0.8948,0.2411,-0.1823,-0.0145,39.1688,14.3813,-16.95,,0.019917000000000407,0.9001010721024613,0.6237222045924558,non_fall
7.861481,-0.409,-0.0677,0.0693,0.2411,-0.1823,-0.0145,39.1688,14.3813,-16.95,,0.002650000000000041,0.4203174752493643,0.6004990873461371,non_fall
7.881343,-0.409,-0.0677,0.0693,0.0455,0.0566,-0.0435,39.1688,14.3813,-16.95,,0.019861999999999824,0.4203174752493643,0.5560405846203392,non_fall
7.900595,-0.409,-0.0677,0.0693,0.0455,0.0566,-0.0435,39.1688,14.3813,-16.95,,0.019251999999999825,0.4203174752493643,0.49506714149381315,non_fall
7.920063,-0.409,-0.0677,0.0693,0.0455,0.0566,-0.0435,39.6562,13.9125,-16.4062,,0.01946799999999982,0.4203174752493643,0.42562872043377376,non_fall
7.942601,-0.409,-0.0677,0.0693,-0.0234,0.331,0.1503,39.6562,13.9125,-16.4062,,0.022537999999999947,0.4203174752493643,0.35710206069741324,non_fall
7.945826,-0.098,0.1309,-0.1454,-0.0234,0.331,0.1503,39.6562,13.9125,-16.4062,,0.0032250000000004775,0.21881492179465273,0.2983371454574565,non_fall
7.961382,-0.098,0.1309,-0.1454,-0.0234,0.331,0.1503,39.6562,13.9125,-16.4062,,0.015556000000000125,0.21881492179465273,0.2562068023479727,non_fall
7.977293,-0.098,0.1309,-0.1454,-0.0234,0.331,0.1503,40.1438,13.4438,-15.8438,,0.01591100000000001,0.21881492179465273,0.23468677524753145,non_fall
8.00358,-0.098,0.1309,-0.1454,-0.1061,-0.2413,-0.0052,40.1438,13.4438,-15.8438,,0.02628699999999906,0.21881492179465273,0.23452122501649006,non_fall
8.007981,-0.0003,0.1276,0.2844,-0.1061,-0.2413,-0.0052,40.1438,13.4438,-15.8438,,0.004400999999999655,0.31171334588047395,0.2534467261799302,non_fall
8.020946,-0.0003,0.1276,0.2844,-0.1061,-0.2413,-0.0052,40.1438,13.4438,-15.8438,,0.012965000000001226,0.31171334588047395,0.28685493486394165,non_fall
8.037767,-0.0003,0.1276,0.2844,-0.1061,-0.2413,-0.0052,40.4625,13.1438,-15.4313,,0.016821000000000197,0.31171334588047395,0.3287147433257032,non_fall
8.06395,-0.0003,0.1276,0.2844,-0.0013,-0.0322,-0.0346,40.4625,13.1438,-15.4313,,0.026182999999999623,0.31171334588047395,0.3725770216449599,non_fall
8.066483,-0.0829,-0.1692,0.4408,-0.0013,-0.0322,-0.0346,40.4625,13.1438,-15.4313,,0.0025329999999996744,0.4793805273475342,0.4125276954935342,non_fall
8.083522,-0.0829,-0.1692,0.4408,-0.0013,-0.0322,-0.0346,40.4625,13.1438,-15.4313,,0.01703900000000047,0.4793805273475342,0.4439892535273798,non_fall
8.09853,-0.0829,-0.1692,0.4408,-0.0013,-0.0322,-0.0346,40.875,12.8625,-15.1313,,0.01500799999999991,0.4793805273475342,0.46427751466682454,non_fall
8.123176,-0.0829,-0.1692,0.4408,0.1083,0.3494,0.0707,40.875,12.8625,-15.1313,,0.024646000000000612,0.4793805273475342,0.4728323060223457,non_fall
8.126454,-0.0393,-0.2584,0.3652,0.1083,0.3494,0.0707,40.875,12.8625,-15.1313,,0.003277999999999892,0.4490947450149022,0.47109249191300917,non_fall
8.143165,-0.0393,-0.2584,0.3652,0.1083,0.3494,0.0707,40.875,12.8625,-15.1313,,0.016710999999999032,0.4490947450149022,0.462063695225131,non_fall
8.15781,-0.0393,-0.2584,0.3652,0.1083,0.3494,0.0707,41.1,12.5813,-14.775,,0.014644999999999797,0.4490947450149022,0.4496872454356804,non_fall
8.183755,-0.0393,-0.2584,0.3652,0.3593,0.49,0.1099,41.1,12.5813,-14.775,,0.025945000000000107,0.4490947450149022,0.4381364142244973,non_fall
8.204427,-0.0393,-0.2584,0.3652,0.3593,0.49,0.1099,41.1,12.5813,-14.775,,0.020672000000001134,0.4490947450149022,0.43115059289877916,non_fall
8.207581,0.2865,0.1014,0.2549,0.3593,0.49,0.1099,41.1,12.5813,-14.775,,0.003153999999998547,0.39665882065069474,0.43149701256207207,non_fall
8.217941,0.2865,0.1014,0.2549,0.3593,0.49,0.1099,41.1188,12.2063,-14.5313,,0.010360000000000369,0.39665882065069474,0.4406418450229395,non_fall
8.246182,0.2865,0.1014,0.2549,0.1325,0.5746,0.047,41.1188,12.2063,-14.5313,,0.028240999999999516,0.39665882065069474,0.45870980238552017,non_fall
8.266667,0.2865,0.1014,0.2549,0.1325,0.5746,0.047,41.1188,12.2063,-14.5313,,0.020485000000000753,0.39665882065069474,0.4847810663436161,non_fall
8.270122,0.0034,0.492,-0.4349,0.1325,0.5746,0.047,41.1188,12.2063,-14.5313,,0.003455000000000652,0.6566685389144207,0.5174866028571653,non_fall
8.277733,0.0034,0.492,-0.4349,0.1325,0.5746,0.047,41.3625,12.0188,-14.1375,,0.007610999999998924,0.6566685389144207,0.5557267747991795,non_fall
8.306071,0.0034,0.492,-0.4349,0.033,0.2238,0.0142,41.3625,12.0188,-14.1375,,0.028337999999999752,0.6566685389144207,0.5992223329847808,non_fall
8.324779,0.0034,0.492,-0.4349,0.033,0.2238,0.0142,41.3625,12.0188,-14.1375,,0.01870800000000017,0.6566685389144207,0.6486061605123522,non_fall
8.326361,-0.1798,0.4747,-0.5544,0.033,0.2238,0.0142,41.3625,12.0188,-14.1375,,0.0015820000000008605,0.7516831047722172,0.7049134769841252,non_fall
8.336203,-0.1798,0.4747,-0.5544,0.033,0.2238,0.0142,41.85,11.8688,-13.7063,,0.009841999999999018,0.7516831047722172,0.7685606400262792,non_fall
8.367169,-0.1798,0.4747,-0.5544,0.0594,-0.161,-0.1497,41.85,11.8688,-13.7063,,0.03096600000000116,0.7516831047722172,0.8381156789328671,non_fall
8.387208,-0.1798,0.4747,-0.5544,0.0594,-0.161,-0.1497,41.85,11.8688,-13.7063,,0.020038999999998808,0.7516831047722172,0.9092963099364818,non_fall
8.395194,-0.1798,0.4747,-0.5544,0.0594,-0.161,-0.1497,42.15,11.8313,-13.5,,0.007986000000000715,0.7516831047722172,0.9746524390636483,non_fall
8.407249,-0.1432,0.5668,-0.9595,0.0594,-0.161,-0.1497,42.15,11.8313,-13.5,,0.012055000000000149,1.1235696373612096,1.0242607602968934,non_fall
8.428309,-0.1432,0.5668,-0.9595,0.3181,-0.1256,-0.0113,42.15,11.8313,-13.5,,0.0210600000000003,1.1235696373612096,1.0474655862399471,non_fall
8.447569,-0.1432,0.5668,-0.9595,0.3181,-0.1256,-0.0113,42.15,11.8313,-13.5,,0.019259999999999167,1.1235696373612096,1.0353292229058941,non_fall
8.456696,-0.1432,0.5668,-0.9595,0.3181,-0.1256,-0.0113,42.3375,11.7375,-13.2563,,0.009127000000001217,1.1235696373612096,0.983181907370484,non_fall
8.468904,0.0857,0.1989,-0.7593,0.3181,-0.1256,-0.0113,42.3375,11.7375,-13.2563,,0.01220799999999933,0.7895835547932847,0.8926182105198717,non_fall
8.489324,0.0857,0.1989,-0.7593,0.0285,-0.3009,-0.2048,42.3375,11.7375,-13.2563,,0.02041999999999966,0.7895835547932847,0.7724555473651264,non_fall
8.510179,0.0857,0.1989,-0.7593,0.0285,-0.3009,-0.2048,42.3375,11.7375,-13.2563,,0.020855000000000956,0.7895835547932847,0.6384160927071626,non_fall
8.519966,0.0857,0.1989,-0.7593,0.0285,-0.3009,-0.2048,42.6188,11.7,-13.0688,,0.009786999999999324,0.7895835547932847,0.511496365849949,non_fall
8.529509,-0.219,0.0543,0.0065,0.0285,-0.3009,-0.2048,42.6188,11.7,-13.0688,,0.009542999999998969,0.2257249210875928,0.41515291484643746,non_fall
8.550797,-0.219,0.0543,0.0065,-0.3625,0.2249,-0.0893,42.6188,11.7,-13.0688,,0.021288000000000196,0.2257249210875928,0.371651300866774,non_fall
8.569173,-0.219,0.0543,0.0065,-0.3625,0.2249,-0.0893,42.6188,11.7,-13.0688,,0.018375999999999948,0.2257249210875928,0.3982047007191935,non_fall
8.575854,-0.219,0.0543,0.0065,-0.3625,0.2249,-0.0893,42.5438,11.775,-12.9563,,0.006681000000000381,0.2257249210875928,0.5036973667738,non_fall
8.589024,-0.2136,-0.5919,0.9109,-0.3625,0.2249,-0.0893,42.5438,11.775,-12.9563,,0.01317000000000057,1.107117599896235,0.686666044869661,non_fall
8.61042,-0.2136,-0.5919,0.9109,0.5218,0.7037,0.2972,42.5438,11.775,-12.9563,,0.021395999999999304,1.107117599896235,0.934830576492067,non_fall
8.630064,-0.2136,-0.5919,0.9109,0.5218,0.7037,0.2972,42.5438,11.775,-12.9563,,0.019644000000001327,1.107117599896235,1.2260831565809143,non_fall
8.637549,-0.2136,-0.5919,0.9109,0.5218,0.7037,0.2972,42.8438,11.6625,-12.8063,,0.007484999999999076,1.107117599896235,1.5307351446217343,non_fall
8.671068,-0.2136,-0.5919,0.9109,-0.0177,-0.2597,-0.2217,42.8438,11.6625,-12.8063,,0.033519000000000077,1.107117599896235,1.8149673249219305,non_fall
8.674829,0.1513,-1.8979,1.8199,-0.0177,-0.2597,-0.2217,42.8438,11.6625,-12.8063,,0.0037610000000007915,2.6338094293247565,2.0454695846381563,non_fall
8.692668,0.1513,-1.8979,1.8199,-0.0177,-0.2597,-0.2217,42.8438,11.6625,-12.8063,,0.017838999999998606,2.6338094293247565,2.1948446463306404,non_fall
8.696685,0.1513,-1.8979,1.8199,-0.0177,-0.2597,-0.2217,43.0312,11.775,-12.7688,,0.0040170000000010475,2.6338094293247565,2.2466425688481984,non_fall
8.733328,0.1513,-1.8979,1.8199,0.0924,-0.0229,-0.2988,43.0312,11.775,-12.7688,,0.03664299999999976,2.6338094293247565,2.198506140323426,non_fall
8.73649,-0.3645,-0.8897,-1.2497,0.0924,-0.0229,-0.2988,43.0312,11.775,-12.7688,,0.003161999999999665,1.5767613738292807,2.062313023923216,non_fall
8.752537,-0.3645,-0.8897,-1.2497,0.0924,-0.0229,-0.2988,43.0312,11.775,-12.7688,,0.016047000000000367,1.5767613738292807,1.8612407002545022,non_fall
8.756645,-0.3645,-0.8897,-1.2497,0.0924,-0.0229,-0.2988,42.9938,12.0,-13.05,,0.004108000000000445,1.5767613738292807,1.6247275722948786,non_fall
8.793789,-0.3645,-0.8897,-1.2497,-0.0316,-0.1092,-0.345,42.9938,12.0,-13.05,,0.03714399999999962,1.5767613738292807,1.3827950673307945,non_fall
8.796972,-0.7176,-0.4034,-0.0335,-0.0316,-0.1092,-0.345,42.9938,12.0,-13.05,,0.003182999999999936,0.8238953635019437,1.1610362309039393,non_fall
8.813008,-0.7176,-0.4034,-0.0335,-0.0316,-0.1092,-0.345,42.9938,12.0,-13.05,,0.016035999999999717,0.8238953635019437,0.9771087668802962,non_fall
8.8174,-0.7176,-0.4034,-0.0335,-0.0316,-0.1092,-0.345,42.8625,12.2625,-13.2188,,0.004391999999999285,0.8238953635019437,0.8391423170160401,non_fall
8.856533,-0.7176,-0.4034,-0.0335,-0.2871,-0.3751,-0.3229,42.8625,12.2625,-13.2188,,0.03913300000000142,0.8238953635019437,0.7461172871453552,non_fall
8.876676,-0.7176,-0.4034,-0.0335,-0.2871,-0.3751,-0.3229,42.8625,12.2625,-13.2188,,0.020142999999999134,0.8238953635019437,0.6898999081330923,non_fall
8.87906,-0.3885,-0.2861,0.4858,-0.2871,-0.3751,-0.3229,42.8625,12.2625,-13.2188,,0.002384000000001052,0.6846802903545567,0.658285296289371,non_fall
8.881991,-0.3885,-0.2861,0.4858,-0.2871,-0.3751,-0.3229,42.6,12.6563,-13.2563,,0.0029309999999984626,0.6846802903545567,0.6382633882903388,non_fall
8.917103,-0.3885,-0.2861,0.4858,-0.0277,0.1527,0.0104,42.6,12.6563,-13.2563,,0.03511199999999981,0.6846802903545567,0.6188188140812424,non_fall
8.936931,-0.3885,-0.2861,0.4858,-0.0277,0.1527,0.0104,42.6,12.6563,-13.2563,,0.0198280000000004,0.6846802903545567,0.5928006249839042,non_fall
8.938808,-0.3885,-0.2861,0.4858,-0.0277,0.1527,0.0104,42.4125,12.9563,-13.2375,,0.0018770000000003506,0.6846802903545567,0.5576436969866218,non_fall
8.940456,-0.2943,0.0473,-0.1813,-0.0277,0.1527,0.0104,42.4125,12.9563,-13.2375,,0.0016479999999994277,0.3488831752893796,0.51496415199812,non_fall
8.977648,-0.2943,0.0473,-0.1813,0.1811,0.1063,-0.0666,42.4125,12.9563,-13.2375,,0.037192000000001,0.3488831752893796,0.4692939560317113,non_fall
8.996892,-0.2943,0.0473,-0.1813,0.1811,0.1063,-0.0666,42.4125,12.9563,-13.2375,,0.019244000000000483,0.3488831752893796,0.4264156842739699,non_fall
8.998477,-0.1176,0.2425,-0.2964,0.1811,0.1063,-0.0666,42.4125,12.9563,-13.2375,,0.0015849999999986153,0.40061074623629356,0.39180293520316123,non_fall
8.999706,-0.1176,0.2425,-0.2964,0.1811,0.1063,-0.0666,42.3563,13.2563,-13.0875,,0.0012290000000003687,0.40061074623629356,0.36952073589632145,non_fall
9.040323,-0.1176,0.2425,-0.2964,0.0047,0.2419,0.0483,42.3563,13.2563,-13.0875,,0.04061700000000101,0.40061074623629356,0.3616851802308844,non_fall
9.057271,-0.1176,0.2425,-0.2964,0.0047,0.2419,0.0483,42.45,13.5,-12.8813,,0.016947999999999297,0.40061074623629356,0.3683735731577154,non_fall
9.058708,-0.1176,0.2425,-0.2964,0.0047,0.2419,0.0483,42.45,13.5,-12.8813,,0.0014369999999992444,0.40061074623629356,0.38779918489344883,non_fall
9.059054,0.0072,0.4187,-0.0105,0.0047,0.2419,0.0483,42.45,13.5,-12.8813,,0.00034600000000040154,0.4188935186894159,0.41660268217438107,non_fall
9.100832,0.0072,0.4187,-0.0105,0.0458,0.3871,0.1992,42.45,13.5,-12.8813,,0.04177800000000076,0.4188935186894159,0.45020322496284354,non_fall
9.118079,0.0072,0.4187,-0.0105,0.0458,0.3871,0.1992,42.2812,13.7625,-12.6938,,0.017246999999999346,0.4188935186894159,0.4832378495913602,non_fall
9.120077,0.0072,0.4187,-0.0105,0.0458,0.3871,0.1992,42.2812,13.7625,-12.6938,,0.0019980000000003884,0.4188935186894159,0.5101577809944254,non_fall
9.139323,0.4505,0.343,0.1517,0.0458,0.3871,0.1992,42.2812,13.7625,-12.6938,,0.019245999999998986,0.5861843907850157,0.5260191028954673,non_fall
9.157971,0.4505,0.343,0.1517,0.2188,-0.0048,0.0157,42.2812,13.7625,-12.6938,,0.018648000000000664,0.5861843907850157,0.5274008751332087,non_fall
9.179096,0.4505,0.343,0.1517,0.2188,-0.0048,0.0157,42.2812,13.7625,-12.6938,,0.021124999999999616,0.5861843907850157,0.5132510088162032,non_fall
9.181932,0.4505,0.343,0.1517,0.2188,-0.0048,0.0157,42.1688,13.9875,-12.4313,,0.0028360000000002827,0.5861843907850157,0.48538391484925664,non_fall
9.198541,0.1754,0.2864,-0.1901,0.2188,-0.0048,0.0157,42.1688,13.9875,-12.4313,,0.016609000000000762,0.38591207547834,0.44840040390662406,non_fall
9.220149,0.1754,0.2864,-0.1901,0.255,-0.165,-0.0237,42.1688,13.9875,-12.4313,,0.02160799999999874,0.38591207547834,0.40896019235806763,non_fall
9.237326,0.1754,0.2864,-0.1901,0.255,-0.165,-0.0237,42.1313,14.1938,-12.2438,,0.01717700000000022,0.38591207547834,0.3745305552553963,non_fall
9.238779,0.1754,0.2864,-0.1901,0.255,-0.165,-0.0237,42.1313,14.1938,-12.2438,,0.0014529999999997045,0.38591207547834,0.351870640972446,non_fall
9.259498,-0.0427,0.276,0.1034,0.255,-0.165,-0.0237,42.1313,14.1938,-12.2438,,0.020719000000001486,0.2978100904939254,0.34555693330802123,non_fall
9.28214,-0.0427,0.276,0.1034,0.0349,-0.0052,-0.0698,42.1313,14.1938,-12.2438,,0.022641999999999385,0.2978100904939254,0.3568479437627879,non_fall
9.297895,-0.0427,0.276,0.1034,0.0349,-0.0052,-0.0698,42.0188,14.325,-12.1313,,0.015755000000000408,0.2978100904939254,0.38316613148969136,non_fall
9.300745,-0.0427,0.276,0.1034,0.0349,-0.0052,-0.0698,42.0188,14.325,-12.1313,,0.002849999999998687,0.2978100904939254,0.41842820474155074,non_fall
9.344155,-0.0427,0.276,0.1034,-0.0156,0.1393,0.004,42.0188,14.325,-12.1313,,0.0434100000000015,0.2978100904939254,0.45433346242102757,non_fall
9.34702,-0.1561,0.6277,0.0391,-0.0156,0.1393,0.004,42.0188,14.325,-12.1313,,0.0028649999999998954,0.6479994675923739,0.4824966558873319,non_fall
9.356896,-0.1561,0.6277,0.0391,-0.0156,0.1393,0.004,42.225,14.2313,-11.8125,,0.009876000000000218,0.6479994675923739,0.4970149107400287,non_fall
9.361231,-0.1561,0.6277,0.0391,-0.0156,0.1393,0.004,42.225,14.2313,-11.8125,,0.004334999999999312,0.6479994675923739,0.4967910094538348,non_fall
9.404422,-0.1561,0.6277,0.0391,0.0818,-0.112,-0.0378,42.225,14.2313,-11.8125,,0.0431910000000002,0.6479994675923739,0.48684988024057757,non_fall
9.407957,0.114,0.1417,-0.4754,0.0818,-0.112,-0.0378,42.225,14.2313,-11.8125,,0.0035349999999993997,0.508999066796787,0.47807387302061893,non_fall
9.41828,0.114,0.1417,-0.4754,0.0818,-0.112,-0.0378,42.3,14.2125,-11.775,,0.010322999999999638,0.508999066796787,0.485193072407811,non_fall
9.423817,0.114,0.1417,-0.4754,0.0818,-0.112,-0.0378,42.3,14.2125,-11.775,,0.005537000000000347,0.508999066796787,0.5233475408852951,non_fall
9.465628,0.114,0.1417,-0.4754,-0.0667,1.1109,0.2929,42.3,14.2125,-11.775,,0.04181100000000093,0.508999066796787,0.6039442529920135,non_fall
9.469478,0.4505,-0.0634,-0.336,-0.0667,1.1109,0.2929,42.3,14.2125,-11.775,,0.003849999999999909,0.5655668041885061,0.730780998868753,non_fall
9.477147,0.4505,-0.0634,-0.336,-0.0667,1.1109,0.2929,42.3563,14.0438,-11.4188,,0.007668999999999926,0.5655668041885061,0.897471242705263,non_fall
9.482709,0.4505,-0.0634,-0.336,-0.0667,1.1109,0.2929,42.3563,14.0438,-11.4188,,0.005561999999999401,0.5655668041885061,1.0870482294464203,non_fall
9.525676,-0.1507,-0.2986,1.6147,-0.0667,1.1109,0.2929,42.3563,14.0438,-11.4188,,0.042967000000000866,1.6489780289621812,1.2742001973535837,non_fall
9.529352,-0.1507,-0.2986,1.6147,-0.0128,1.1919,0.4858,42.3563,14.0438,-11.4188,,0.0036759999999986803,1.6489780289621812,1.4298901300547142,non_fall
9.536321,-0.1507,-0.2986,1.6147,-0.0128,1.1919,0.4858,42.7125,13.6688,-10.5,,0.006968999999999781,1.6489780289621812,1.5273402681559782,non_fall
9.542877,-0.1507,-0.2986,1.6147,-0.0128,1.1919,0.4858,42.7125,13.6688,-10.5,,0.006556000000001561,1.6489780289621812,1.547882046355966,non_fall
9.588565,-0.1507,-0.2986,1.6147,0.0692,0.0534,-0.2526,42.7125,13.6688,-10.5,,0.0456879999999984,1.6489780289621812,1.485216207768285,non_fall
9.598212,-0.1507,-0.2986,1.6147,0.0692,0.0534,-0.2526,42.9,13.5188,-9.8813,,0.009647000000001071,1.6489780289621812,1.3470756549299872,non_fall
9.607107,-0.1507,-0.2986,1.6147,0.0692,0.0534,-0.2526,42.9,13.5188,-9.8813,,0.008894999999998987,1.6489780289621812,1.1538765513661173,non_fall
9.608483,-0.0626,-0.0475,0.2964,0.0692,0.0534,-0.2526,42.9,13.5188,-9.8813,,0.001376000000000488,0.30663980498298,0.9345884989330114,non_fall
9.646067,-0.0626,-0.0475,0.2964,0.0089,-0.2533,-0.3397,42.9,13.5188,-9.8813,,0.03758400000000073,0.30663980498298,0.7207672448554879,non_fall
9.657331,-0.0626,-0.0475,0.2964,0.0089,-0.2533,-0.3397,43.1063,13.4063,-9.2438,,0.01126399999999883,0.30663980498298,0.5403010654377154,non_fall
9.664826,-0.0626,-0.0475,0.2964,0.0089,-0.2533,-0.3397,43.1063,13.4063,-9.2438,,0.0074950000000004735,0.30663980498298,0.4125458709442524,non_fall
9.665978,-0.3698,-0.1475,0.2248,0.0089,-0.2533,-0.3397,43.1063,13.4063,-9.2438,,0.001152000000001152,0.4572125654441269,0.3459770765973132,non_fall
9.708455,-0.3698,-0.1475,0.2248,-0.1707,-0.0474,-0.3237,43.1063,13.4063,-9.2438,,0.042476999999999876,0.4572125654441269,0.33855441045446205,non_fall
9.715867,-0.3698,-0.1475,0.2248,-0.1707,-0.0474,-0.3237,43.2375,13.4063,-8.6063,,0.007411999999998642,0.4572125654441269,0.3801841914737087,non_fall
9.726381,-0.3698,-0.1475,0.2248,-0.1707,-0.0474,-0.3237,43.2375,13.4063,-8.6063,,0.010514000000000578,0.4572125654441269,0.45627078332701326,non_fall
9.727896,-0.1993,0.7156,0.0615,-0.1707,-0.0474,-0.3237,43.2375,13.4063,-8.6063,,0.001514999999999489,0.7453764820545387,0.5513545050856377,non_fall
9.770341,-0.1993,0.7156,0.0615,0.2457,0.1716,0.027,43.2375,13.4063,-8.6063,,0.04244500000000073,0.7453764820545387,0.6520600621097787,non_fall
9.778414,-0.1993,0.7156,0.0615,0.2457,0.1716,0.027,43.5188,13.3688,-7.7438,,0.008072999999999553,0.7453764820545387,0.748880991518743,non_fall
9.789861,-0.1993,0.7156,0.0615,0.2457,0.1716,0.027,43.5188,13.3688,-7.7438,,0.011447000000000429,0.7453764820545387,0.8366500020824841,non_fall
9.809564,0.1914,0.4358,-0.8264,0.2457,0.1716,0.027,43.5188,13.3688,-7.7438,,0.019702999999999804,0.953673193499744,0.9138612187842827,non_fall
9.830497,0.1914,0.4358,-0.8264,0.3944,0.3633,0.0441,43.5188,13.3688,-7.7438,,0.020932999999999424,0.953673193499744,0.9812434464067508,non_fall
9.838728,0.1914,0.4358,-0.8264,0.3944,0.3633,0.0441,43.575,13.2188,-7.05,,0.008231000000000321,0.953673193499744,1.0400755455572965,non_fall
9.848356,0.1914,0.4358,-0.8264,0.3944,0.3633,0.0441,43.575,13.2188,-7.05,,0.00962800000000108,0.953673193499744,1.090708431176692,non_fall
9.870843,0.3578,-0.5803,-0.9364,0.3944,0.3633,0.0441,43.575,13.2188,-7.05,,0.022486999999999924,1.1582805748176908,1.1316614595799386,non_fall
9.893511,0.3578,-0.5803,-0.9364,-0.0876,-0.2782,-0.2093,43.575,13.2188,-7.05,,0.022667999999999466,1.1582805748176908,1.1595027531446753,non_fall
9.898162,0.3578,-0.5803,-0.9364,-0.0876,-0.2782,-0.2093,43.65,13.2,-6.2063,,0.0046509999999990725,1.1582805748176908,1.1695127307175457,non_fall
9.910891,0.3578,-0.5803,-0.9364,-0.0876,-0.2782,-0.2093,43.65,13.2,-6.2063,,0.012729000000000212,1.1582805748176908,1.156928041198795,non_fall
9.93051,0.119,-0.7961,-0.8019,-0.0876,-0.2782,-0.2093,43.65,13.2,-6.2063,,0.019619000000000497,1.1362129289882246,1.1184329409626628,non_fall
9.952823,0.119,-0.7961,-0.8019,0.3153,-0.2097,-0.0177,43.65,13.2,-6.2063,,0.02231300000000047,1.1362129289882246,1.0535129319265872,non_fall
9.956079,0.119,-0.7961,-0.8019,0.3153,-0.2097,-0.0177,43.725,13.2188,-5.8688,,0.0032560000000003697,1.1362129289882246,0.9652871709092183,non_fall
9.970822,0.119,-0.7961,-0.8019,0.3153,-0.2097,-0.0177,43.725,13.2188,-5.8688,,0.014742999999999284,1.1362129289882246,0.8605024164851799,non_fall
9.991313,-0.2667,-0.3167,0.1853,0.3153,-0.2097,-0.0177,43.725,13.2188,-5.8688,,0.020490999999999815,0.4536120258546944,0.748554680419784,non_fall
10.010909,-0.2667,-0.3167,0.1853,0.1871,-0.0517,-0.0461,43.725,13.2188,-5.8688,,0.019595999999999947,0.4536120258546944,0.6397236842505711,non_fall
10.015762,-0.2667,-0.3167,0.1853,0.1871,-0.0517,-0.0461,43.4438,13.5,-6.1313,,0.004853000000000662,0.4536120258546944,0.5431422544788765,non_fall
10.030934,-0.2667,-0.3167,0.1853,0.1871,-0.0517,-0.0461,43.4438,13.5,-6.1313,,0.015171999999999741,0.4536120258546944,0.4651545812530593,non_fall
10.071619,-0.2667,-0.3167,0.1853,-0.072,0.0743,0.108,43.4438,13.5,-6.1313,,0.04068499999999986,0.4536120258546944,0.40852841908845205,non_fall
10.07317,-0.0694,-0.1789,0.3454,-0.072,0.0743,0.108,43.4438,13.5,-6.1313,,0.001550999999999192,0.39512368949482135,0.3726101924918014,non_fall
10.076255,-0.0694,-0.1789,0.3454,-0.072,0.0743,0.108,43.4625,13.7625,-6.2438,,0.0030850000000004485,0.39512368949482135,0.35418922548501036,non_fall
10.091784,-0.0694,-0.1789,0.3454,-0.072,0.0743,0.108,43.4625,13.7625,-6.2438,,0.015529000000000792,0.39512368949482135,0.34869494086651565,non_fall
10.132711,-0.0694,-0.1789,0.3454,0.1037,0.0551,0.0387,43.4625,13.7625,-6.2438,,0.040926999999999936,0.39512368949482135,0.35136633194516276,non_fall
10.134466,-0.1238,-0.0071,0.3351,0.1037,0.0551,0.0387,43.4625,13.7625,-6.2438,,0.001754999999999285,0.35730779448537087,0.3581342341175584,non_fall
10.135317,-0.1238,-0.0071,0.3351,0.1037,0.0551,0.0387,43.4062,13.95,-6.3188,,0.0008510000000008233,0.35730779448537087,0.3660908146482975,non_fall
10.152666,-0.1238,-0.0071,0.3351,0.1037,0.0551,0.0387,43.4062,13.95,-6.3188,,0.017348999999999393,0.35730779448537087,0.3735523053814318,non_fall
10.194096,-0.1238,-0.0071,0.3351,-0.0656,0.0613,0.0246,43.4062,13.95,-6.3188,,0.04143000000000008,0.35730779448537087,0.3798188577767288,non_fall
10.195839,-0.1456,0.288,0.2075,-0.0656,0.0613,0.0246,43.4062,13.95,-6.3188,,0.001742999999999384,0.3836660136107966,0.38477868123463194,non_fall
10.196814,-0.1456,0.288,0.2075,-0.0656,0.0613,0.0246,43.3125,13.9125,-6.525,,0.0009750000000003922,0.3836660136107966,0.3884950536674638,non_fall
10.213255,-0.1456,0.288,0.2075,-0.0656,0.0613,0.0246,43.3125,13.9125,-6.525,,0.016441000000000372,0.3836660136107966,0.3908762847334936,non_fall
10.254451,-0.1456,0.288,0.2075,-0.0376,0.0826,0.0792,43.3125,13.9125,-6.525,,0.041195999999999344,0.3836660136107966,0.3914847978317311,non_fall
10.257526,-0.1456,0.288,0.2075,-0.0376,0.0826,0.0792,43.1813,13.875,-6.75,,0.003075000000000827,0.3836660136107966,0.3895057814398864,non_fall
10.27456,-0.1456,0.288,0.2075,-0.0376,0.0826,0.0792,43.1813,13.875,-6.75,,0.017033999999998883,0.3836660136107966,0.3838685517387266,non_fall
10.277297,0.0337,0.3542,-0.0784,-0.0376,0.0826,0.0792,43.1813,13.875,-6.75,,0.0027370000000015438,0.36433485971012985,0.3734897896949619,non_fall
10.316192,0.0337,0.3542,-0.0784,0.0682,-0.0461,0.0019,43.1813,13.875,-6.75,,0.03889499999999835,0.36433485971012985,0.3575852903364555,non_fall
10.318459,0.0337,0.3542,-0.0784,0.0682,-0.0461,0.0019,43.2188,14.0063,-7.0313,,0.0022670000000015733,0.36433485971012985,0.33597794955482074,non_fall
10.335976,0.0337,0.3542,-0.0784,0.0682,-0.0461,0.0019,43.2188,14.0063,-7.0313,,0.017516999999999783,0.36433485971012985,0.30931984679799435,non_fall
10.337527,-0.0475,0.1571,-0.1638,0.0682,-0.0461,0.0019,43.2188,14.0063,-7.0313,,0.001550999999999192,0.2318773382631429,0.27915637009102173,non_fall
10.378756,-0.0475,0.1571,-0.1638,0.0682,-0.0461,0.0019,43.35,13.9125,-7.1438,,0.041228999999999516,0.2318773382631429,0.24779944132305742,non_fall
10.381501,-0.0475,0.1571,-0.1638,0.0509,-0.1194,-0.0158,43.35,13.9125,-7.1438,,0.0027450000000008856,0.2318773382631429,0.21803247677110463,non_fall
10.39761,-0.0475,0.1571,-0.1638,0.0509,-0.1194,-0.0158,43.35,13.9125,-7.1438,,0.01610900000000015,0.2318773382631429,0.1927084911775481,non_fall
10.398718,-0.0887,0.0986,0.0605,0.0509,-0.1194,-0.0158,43.35,13.9125,-7.1438,,0.001108000000000331,0.1457734543735587,0.17430855956699126,non_fall
10.438946,-0.0887,0.0986,0.0605,0.0509,-0.1194,-0.0158,43.425,13.9688,-7.1063,,0.04022799999999904,0.1457734543735587,0.16452245853220082,non_fall
10.440952,-0.0887,0.0986,0.0605,-0.1178,0.1254,0.1009,43.425,13.9688,-7.1063,,0.0020059999999997302,0.1457734543735587,0.16391996878159532,non_fall
10.457822,-0.0887,0.0986,0.0605,-0.1178,0.1254,0.1009,43.425,13.9688,-7.1063,,0.01687000000000083,0.1457734543735587,0.17178806203199062,non_fall
10.459135,-0.11,0.1318,0.1191,-0.1178,0.1254,0.1009,43.425,13.9688,-7.1063,,0.0013129999999996755,0.20894030247896167,0.18618937978846284,non_fall
10.497035,-0.11,0.1318,0.1191,-0.1178,0.1254,0.1009,43.6688,14.0063,-7.2,,0.03790000000000049,0.20894030247896167,0.2042487531179452,non_fall
10.498851,-0.11,0.1318,0.1191,0.0036,-0.1177,-0.0908,43.6688,14.0063,-7.2,,0.0018159999999998178,0.20894030247896167,0.22262123315832116,non_fall
10.517345,-0.11,0.1318,0.1191,0.0036,-0.1177,-0.0908,43.6688,14.0063,-7.2,,0.018494000000000455,0.20894030247896167,0.2380611786759823,non_fall
10.538159,-0.0777,-0.2719,-0.0437,0.0036,-0.1177,-0.0908,43.6688,14.0063,-7.2,,0.020813999999999666,0.28614085692190133,0.24799908650990718,non_fall
10.558622,-0.0777,-0.2719,-0.0437,0.0036,-0.1177,-0.0908,43.7063,13.9125,-7.3313,,0.020462999999999454,0.28614085692190133,0.2510249635645834,non_fall
10.560706,-0.0777,-0.2719,-0.0437,0.0377,-0.1788,0.0161,43.7063,13.9125,-7.3313,,0.0020839999999999748,0.28614085692190133,0.2471692121274444,non_fall
10.578915,-0.0777,-0.2719,-0.0437,0.0377,-0.1788,0.0161,43.7063,13.9125,-7.3313,,0.018209000000000586,0.28614085692190133,0.23788628524183472,non_fall
10.599677,0.0419,-0.0637,0.1564,0.0377,-0.1788,0.0161,43.7063,13.9125,-7.3313,,0.020761999999999503,0.17399499992815887,0.2257073769248297,non_fall
10.61654,0.0419,-0.0637,0.1564,0.0377,-0.1788,0.0161,43.7625,13.875,-7.4625,,0.01686300000000074,0.17399499992815887,0.21362870810192833,non_fall
10.617868,0.0419,-0.0637,0.1564,-0.2389,0.0434,0.047,43.7625,13.875,-7.4625,,0.0013279999999991077,0.17399499992815887,0.2043973432421331,non_fall
10.640298,0.0419,-0.0637,0.1564,-0.2389,0.0434,0.047,43.7625,13.875,-7.4625,,0.02242999999999995,0.17399499992815887,0.19989426102706673,non_fall
10.660974,0.0864,-0.1255,0.1549,-0.2389,0.0434,0.047,43.7625,13.875,-7.4625,,0.020675999999999917,0.21727682803281165,0.20077328707359876,non_fall
10.676745,0.0864,-0.1255,0.1549,-0.2389,0.0434,0.047,43.875,13.9875,-7.4813,,0.015771000000000868,0.21727682803281165,0.2064215817393298,non_fall
10.680256,0.0864,-0.1255,0.1549,-0.1594,0.0165,0.0739,43.875,13.9875,-7.4813,,0.0035109999999995978,0.21727682803281165,0.21521426975164584,non_fall
10.702033,0.0864,-0.1255,0.1549,-0.1594,0.0165,0.0739,43.875,13.9875,-7.4813,,0.021777000000000157,0.21727682803281165,0.22498005701301554,non_fall
10.736688,0.0864,-0.1255,0.1549,-0.1594,0.0165,0.0739,43.9125,14.0813,-7.4813,,0.03465499999999899,0.21727682803281165,0.23358090776233617,non_fall
10.740194,0.0864,-0.1255,0.1549,0.0249,-0.2569,-0.0712,43.9125,14.0813,-7.4813,,0.0035060000000015634,0.21727682803281165,0.23951513926927,non_fall
10.740881,-0.0564,-0.2333,-0.1583,0.0249,-0.2569,-0.0712,43.9125,14.0813,-7.4813,,0.000686999999999216,0.28752172091861167,0.24245263849569257,non_fall
10.760718,-0.0564,-0.2333,-0.1583,0.0249,-0.2569,-0.0712,43.9125,14.0813,-7.4813,,0.01983700000000077,0.28752172091861167,0.24359390431308975,non_fall
10.797087,-0.0564,-0.2333,-0.1583,0.0249,-0.2569,-0.0712,43.9313,14.1563,-7.7625,,0.03636899999999876,0.28752172091861167,0.24572974302408276,non_fall
10.801904,-0.0564,-0.2333,-0.1583,-0.2417,-0.2381,-0.0145,43.9313,14.1563,-7.7625,,0.004817000000000959,0.28752172091861167,0.2529001960611238,non_fall
10.803501,-0.0175,-0.2677,-0.0961,-0.2417,-0.2381,-0.0145,43.9313,14.1563,-7.7625,,0.0015970000000002926,0.2849644714696904,0.2696302171136305,non_fall
10.821708,-0.0175,-0.2677,-0.0961,-0.2417,-0.2381,-0.0145,43.9313,14.1563,-7.7625,,0.01820699999999853,0.2849644714696904,0.29984220780314397,non_fall
10.856777,-0.0175,-0.2677,-0.0961,-0.2417,-0.2381,-0.0145,44.0625,14.3813,-8.0813,,0.03506900000000002,0.2849644714696904,0.3456738447908453,non_fall
10.864767,-0.0175,-0.2677,-0.0961,0.0924,-0.1469,0.1099,44.0625,14.3813,-8.0813,,0.007990000000001274,0.2849644714696904,0.4065212096969953,non_fall
10.866146,-0.2447,0.4365,-0.0109,0.0924,-0.1469,0.1099,44.0625,14.3813,-8.0813,,0.001379000000000019,0.5005288702962098,0.47864349779030907,non_fall
10.882544,-0.2447,0.4365,-0.0109,0.0924,-0.1469,0.1099,44.0625,14.3813,-8.0813,,0.016397999999998802,0.5005288702962098,0.5555836361289538,non_fall
10.916856,-0.2447,0.4365,-0.0109,0.0924,-0.1469,0.1099,43.8563,14.4188,-8.4,,0.0343119999999999,0.5005288702962098,0.6294943336958375,non_fall
10.923076,-0.2447,0.4365,-0.0109,-0.012,0.1407,0.1045,43.8563,14.4188,-8.4,,0.0062200000000007805,0.5005288702962098,0.6932555218538582,non_fall
10.924422,0.0673,1.0058,-0.0894,-0.012,0.1407,0.1045,43.8563,14.4188,-8.4,,0.0013459999999998473,1.0120055780478683,0.7430457204792035,non_fall
10.944301,0.0673,1.0058,-0.0894,-0.012,0.1407,0.1045,43.8563,14.4188,-8.4,,0.019878999999999536,1.0120055780478683,0.7807808681776681,non_fall
10.976879,0.0673,1.0058,-0.0894,-0.012,0.1407,0.1045,43.6125,14.3438,-8.4375,,0.032578000000000884,1.0120055780478683,0.8156300222568114,non_fall
10.985466,0.0673,1.0058,-0.0894,-1.4398,0.4804,0.3328,43.6125,14.3438,-8.4375,,0.008587000000000344,1.0120055780478683,0.8638329898144755,non_fall
11.005662,0.0673,1.0058,-0.0894,-1.4398,0.4804,0.3328,43.6125,14.3438,-8.4375,,0.02019599999999855,1.0120055780478683,0.946396931810169,non_fall
11.006675,-0.001,0.7913,-0.6397,-1.4398,0.4804,0.3328,43.6125,14.3438,-8.4375,,0.0010130000000003747,1.0175326923494892,1.0848484280154171,non_fall
11.036987,-0.001,0.7913,-0.6397,-1.4398,0.4804,0.3328,43.7063,14.325,-7.9688,,0.03031200000000034,1.0175326923494892,1.2958392864913324,non_fall
11.045558,-0.001,0.7913,-0.6397,-0.5123,1.9129,1.0051,43.7063,14.325,-7.9688,,0.008570999999999884,1.0175326923494892,1.5858320034368871,non_fall
11.06722,1.351,0.2088,2.0777,-0.5123,1.9129,1.0051,43.7063,14.325,-7.9688,,0.02166200000000096,2.4870938321663703,1.947164118733572,non_fall
11.069046,1.351,0.2088,2.0777,-0.5123,1.9129,1.0051,43.7063,14.325,-7.9688,,0.0018259999999994392,2.4870938321663703,2.356462024587508,non_fall
11.09689,1.351,0.2088,2.0777,-0.5123,1.9129,1.0051,43.95,13.875,-6.9938,,0.02784399999999998,2.4870938321663703,2.775840454334687,non_fall
11.106738,1.351,0.2088,2.0777,0.1176,0.4144,0.8947,43.95,13.875,-6.9938,,0.009847999999999857,2.4870938321663703,3.156942778064353,non_fall
11.12723,1.351,0.2088,2.0777,0.1176,0.4144,0.8947,43.95,13.875,-6.9938,,0.020492000000000843,2.4870938321663703,3.447737880772907,non_fall
11.128742,1.3975,-1.1544,3.9688,0.1176,0.4144,0.8947,43.95,13.875,-6.9938,,0.0015119999999999578,4.363143253435532,3.6016823809519822,non_fall
11.157738,1.3975,-1.1544,3.9688,0.1176,0.4144,0.8947,44.0813,13.0313,-5.9813,,0.028995999999999356,4.363143253435532,3.58796379853053,non_fall
11.167585,1.3975,-1.1544,3.9688,-0.1032,-0.4593,-0.1678,44.0813,13.0313,-5.9813,,0.009847000000000605,4.363143253435532,3.400338036263584,non_fall
11.187125,1.3975,-1.1544,3.9688,-0.1032,-0.4593,-0.1678,44.0813,13.0313,-5.9813,,0.019539999999999225,4.363143253435532,3.061511654400397,non_fall
11.208853,-0.2966,0.7577,-1.2244,-0.1032,-0.4593,-0.1678,44.0813,13.0313,-5.9813,,0.021727999999999525,1.4701143526950546,2.620883695371095,non_fall
11.2189,-0.2966,0.7577,-1.2244,-0.1032,-0.4593,-0.1678,44.325,12.2063,-5.0063,,0.01004700000000014,1.4701143526950546,2.1456126327804523,non_fall
11.229511,-0.2966,0.7577,-1.2244,0.714,2.0715,0.278,44.325,12.2063,-5.0063,,0.010611000000000814,1.4701143526950546,1.7073321523421394,non_fall
11.249761,-0.2966,0.7577,-1.2244,0.714,2.0715,0.278,44.325,12.2063,-5.0063,,0.02024999999999899,1.4701143526950546,1.3681271508100799,non_fall
11.269477,-0.1567,-0.6625,0.4471,0.714,2.0715,0.278,44.325,12.2063,-5.0063,,0.019716000000000733,0.8144688760167573,1.169117761282787,non_fall
11.276375,-0.1567,-0.6625,0.4471,0.714,2.0715,0.278,44.3625,11.2313,-3.3188,,0.006897999999999627,0.8144688760167573,1.123805604814519,non_fall
11.289245,-0.1567,-0.6625,0.4471,-1.3184,-1.1972,-0.5459,44.3625,11.2313,-3.3188,,0.012869999999999493,0.8144688760167573,1.2171132301274268,non_fall
11.310213,-0.1567,-0.6625,0.4471,-1.3184,-1.1972,-0.5459,44.3625,11.2313,-3.3188,,0.020967999999999876,0.8144688760167573,1.410077992006083,non_fall
11.330048,-0.2925,0.0813,-2.5575,-1.3184,-1.1972,-0.5459,44.3625,11.2313,-3.3188,,0.01983500000000049,2.575455724721355,1.649200158025104,non_fall
11.335548,-0.2925,0.0813,-2.5575,-1.3184,-1.1972,-0.5459,44.3438,10.4625,-2.1562,,0.005499999999999616,2.575455724721355,1.8783706705586989,non_fall
11.350577,-0.2925,0.0813,-2.5575,-0.5257,-0.6487,-0.3989,44.3438,10.4625,-2.1562,,0.015029000000000181,2.575455724721355,2.0504697879008202,non_fall
11.370877,-0.2925,0.0813,-2.5575,-0.5257,-0.6487,-0.3989,44.3438,10.4625,-2.1562,,0.02030000000000065,2.575455724721355,2.1357336337620256,non_fall
11.391111,-1.0652,-0.0007,-1.2152,-0.5257,-0.6487,-0.3989,44.3438,10.4625,-2.1562,,0.020234000000000307,1.6159710919444072,2.1250864186682055,non_fall
11.394683,-1.0652,-0.0007,-1.2152,-0.5257,-0.6487,-0.3989,44.7,9.8813,-0.825,,0.0035720000000001306,1.6159710919444072,2.0283836713434087,non_fall
11.411158,-1.0652,-0.0007,-1.2152,-0.1637,-0.0502,-0.263,44.7,9.8813,-0.825,,0.016474999999999795,1.6159710919444072,1.8690468268806408,non_fall
11.432649,-1.0652,-0.0007,-1.2152,-0.1637,-0.0502,-0.263,44.7,9.8813,-0.825,,0.02149099999999926,1.6159710919444072,1.677228376787895,non_fall
11.456995,-1.0652,-0.0007,-1.2152,-0.1637,-0.0502,-0.263,44.9438,9.3938,0.3375,,0.024345999999999535,1.6159710919444072,1.4833445999745565,non_fall
11.472835,-1.0652,-0.0007,-1.2152,-0.6141,-0.6988,-0.3996,44.9438,9.3938,0.3375,,0.015840000000000742,1.6159710919444072,1.3130007145113665,non_fall
11.47416,-0.4071,0.319,-0.7336,-0.6141,-0.6988,-0.3996,44.9438,9.3938,0.3375,,0.0013249999999995765,0.8975858566176275,1.183611568837646,non_fall
11.492356,-0.4071,0.319,-0.7336,-0.6141,-0.6988,-0.3996,44.9438,9.3938,0.3375,,0.018195999999999657,0.8975858566176275,1.1027206710721922,non_fall
11.517625,-0.4071,0.319,-0.7336,-0.6141,-0.6988,-0.3996,44.8313,9.0938,1.0688,,0.02526900000000154,0.8975858566176275,1.0680516133354487,non_fall
11.533507,-0.4071,0.319,-0.7336,-0.9052,0.4932,-0.1799,44.8313,9.0938,1.0688,,0.015881999999999508,0.8975858566176275,1.0693435609606108,non_fall
11.534757,-0.6641,1.1969,0.2032,-0.9052,0.4932,-0.1799,44.8313,9.0938,1.0688,,0.0012500000000006395,1.3837950209478282,1.091763682196233,non_fall
11.553917,-0.6641,1.1969,0.2032,-0.9052,0.4932,-0.1799,44.8313,9.0938,1.0688,,0.0191599999999994,1.3837950209478282,1.1202045627524961,non_fall
11.576433,-0.6641,1.1969,0.2032,-0.9052,0.4932,-0.1799,44.55,9.1313,1.3313,,0.022515999999999536,1.3837950209478282,1.1433593817885526,non_fall
11.593696,-0.6641,1.1969,0.2032,-0.7771,-0.0431,-0.5884,44.55,9.1313,1.3313,,0.017262999999999806,1.3837950209478282,1.1564169444765307,non_fall
11.595273,-0.3547,0.9429,-0.2459,-0.7771,-0.0431,-0.5884,44.55,9.1313,1.3313,,0.0015770000000010498,1.0369856845684997,1.1616242281559617,non_fall
11.614123,-0.3547,0.9429,-0.2459,-0.7771,-0.0431,-0.5884,44.55,9.1313,1.3313,,0.0188499999999987,1.0369856845684997,1.1666639795003417,non_fall
11.634767,-0.3547,0.9429,-0.2459,-0.7771,-0.0431,-0.5884,44.4563,9.825,1.5938,,0.020644000000000773,1.0369856845684997,1.1814822188610252,non_fall
11.65547,-0.3547,0.9429,-0.2459,-0.6124,-0.4032,-0.6353,44.4563,9.825,1.5938,,0.02070299999999925,1.0369856845684997,1.2146011736460598,non_fall
11.656962,-0.3979,0.0611,-1.2796,-0.6124,-0.4032,-0.6353,44.4563,9.825,1.5938,,0.001492000000000715,1.34142975216744,1.2699603510711153,non_fall
11.675558,-0.3979,0.0611,-1.2796,-0.6124,-0.4032,-0.6353,44.4563,9.825,1.5938,,0.0185960000000005,1.34142975216744,1.3450314613741685,non_fall
11.697135,-0.3979,0.0611,-1.2796,-0.6124,-0.4032,-0.6353,44.1938,10.8188,1.6688,,0.021576999999998847,1.34142975216744,1.4305538870668937,non_fall
11.717035,-0.3979,0.0611,-1.2796,-0.9872,-0.9449,-0.7486,44.1938,10.8188,1.6688,,0.019899999999999807,1.34142975216744,1.5119120735664666,non_fall
11.737609,-0.3979,0.0611,-1.2796,-0.9872,-0.9449,-0.7486,44.1938,10.8188,1.6688,,0.020574000000001647,1.34142975216744,1.571961741449166,non_fall
11.740281,-0.5207,-0.9577,-1.4548,-0.9872,-0.9449,-0.7486,44.1938,10.8188,1.6688,,0.0026719999999986754,1.8179001127674754,1.5949054935087066,non_fall
11.758317,-0.5207,-0.9577,-1.4548,-0.9872,-0.9449,-0.7486,43.9688,11.9625,1.1063,,0.018036000000000385,1.8179001127674754,1.570521765223253,non_fall
11.777822,-0.5207,-0.9577,-1.4548,-0.6606,-0.8558,-0.6527,43.9688,11.9625,1.1063,,0.01950500000000055,1.8179001127674754,1.4977392523307052,non_fall
11.797397,-0.5207,-0.9577,-1.4548,-0.6606,-0.8558,-0.6527,43.9688,11.9625,1.1063,,0.019574999999999676,1.8179001127674754,1.3864638601016832,non_fall
11.799207,-0.2938,-0.8593,-0.1366,-0.6606,-0.8558,-0.6527,43.9688,11.9625,1.1063,,0.001809999999998979,0.9183542290423669,1.256908844396298,non_fall
11.817754,-0.2938,-0.8593,-0.1366,-0.6606,-0.8558,-0.6527,43.5188,13.0688,0.8625,,0.018547000000001646,0.9183542290423669,1.1364061346174288,non_fall
11.838076,-0.2938,-0.8593,-0.1366,-0.6269,-0.4567,-0.4557,43.5188,13.0688,0.8625,,0.020321999999998397,0.9183542290423669,1.0544682231901836,non_fall
11.859574,-0.2938,-0.8593,-0.1366,-0.6269,-0.4567,-0.4557,43.5188,13.0688,0.8625,,0.021498000000001127,0.9183542290423669,1.037320501654457,non_fall
11.86159,-0.0852,0.5677,1.2294,-0.6269,-0.4567,-0.4557,43.5188,13.0688,0.8625,,0.0020159999999993516,1.3568222764975522,1.1030483103572706,non_fall
11.877708,-0.0852,0.5677,1.2294,-0.6269,-0.4567,-0.4557,43.05,14.4188,0.5438,,0.01611800000000052,1.3568222764975522,1.2580848284071826,non_fall
11.898216,-0.0852,0.5677,1.2294,-0.5871,-0.2601,-0.7446,43.05,14.4188,0.5438,,0.020507999999999527,1.3568222764975522,1.4953746155300418,non_fall
11.917835,-0.0852,0.5677,1.2294,-0.5871,-0.2601,-0.7446,43.05,14.4188,0.5438,,0.019619000000000497,1.3568222764975522,1.7944154187697487,non_fall
11.936603,-0.0852,0.5677,1.2294,-0.5871,-0.2601,-0.7446,42.5438,15.9,0.1125,,0.018767999999999674,1.3568222764975522,2.123419323340656,non_fall
11.937839,-0.6334,1.7049,2.5609,-0.5871,-0.2601,-0.7446,42.5438,15.9,0.1125,,0.001236000000000459,3.1410330116062135,2.4437012440724244,non_fall
11.959759,-0.6334,1.7049,2.5609,-1.3482,0.0743,-0.3798,42.5438,15.9,0.1125,,0.021919999999999717,3.1410330116062135,2.715836721747837,non_fall
11.979651,-0.6334,1.7049,2.5609,-1.3482,0.0743,-0.3798,42.5438,15.9,0.1125,,0.019892000000000465,3.1410330116062135,2.9063367945919674,non_fall
11.996895,-0.6334,1.7049,2.5609,-1.3482,0.0743,-0.3798,42.0938,17.2688,-0.0563,,0.017243999999999815,3.1410330116062135,2.9931716096411756,non_fall
11.999928,-0.0384,2.2763,1.5473,-1.3482,0.0743,-0.3798,42.0938,17.2688,-0.0563,,0.0030330000000002855,2.752662990632889,2.968830394610185,non_fall
12.021027,-0.0384,2.2763,1.5473,-1.3305,0.7559,-0.2083,42.0938,17.2688,-0.0563,,0.021098999999999535,2.752662990632889,2.8404841556133307,non_fall
12.041588,-0.0384,2.2763,1.5473,-1.3305,0.7559,-0.2083,42.0938,17.2688,-0.0563,,0.020561000000000718,2.752662990632889,2.627631888359882,non_fall
12.057066,-0.0384,2.2763,1.5473,-1.3305,0.7559,-0.2083,41.4563,18.7125,0.075,,0.01547799999999988,2.752662990632889,2.358012644483043,non_fall
12.061074,-0.075,1.1373,0.9814,-1.3305,0.7559,-0.2083,41.4563,18.7125,0.075,,0.004007999999998901,1.5040685655913428,2.062640049187343,non_fall
12.081102,-0.075,1.1373,0.9814,-0.989,-0.4184,-0.634,41.4563,18.7125,0.075,,0.020027999999999935,1.5040685655913428,1.7708382394127846,non_fall
12.101988,-0.075,1.1373,0.9814,-0.989,-0.4184,-0.634,41.4563,18.7125,0.075,,0.02088600000000085,1.5040685655913428,1.5062105100454042,non_fall
12.122536,0.3051,0.3239,1.0392,-0.989,-0.4184,-0.634,41.4563,18.7125,0.075,,0.02054799999999979,1.1304573676171958,1.2843482021814911,non_fall
12.125377,0.3051,0.3239,1.0392,-0.989,-0.4184,-0.634,40.8563,19.9688,0.3938,,0.0028410000000000935,1.1304573676171958,1.1126325261980545,non_fall
12.1428,0.3051,0.3239,1.0392,-1.1566,0.2166,-0.3471,40.8563,19.9688,0.3938,,0.017422999999999078,1.1304573676171958,0.9918562652835429,non_fall
12.162999,0.3051,0.3239,1.0392,-1.1566,0.2166,-0.3471,40.8563,19.9688,0.3938,,0.020198999999999856,1.1304573676171958,0.9188837767275166,non_fall
12.181721,0.3051,0.3239,1.0392,-1.1566,0.2166,-0.3471,40.2938,21.1125,0.8438,,0.01872200000000035,1.1304573676171958,0.8893357119808705,non_fall
12.202241,0.3051,0.3239,1.0392,-1.1193,0.057,-0.061,40.2938,21.1125,0.8438,,0.020520000000001204,1.1304573676171958,0.8993698598511809,non_fall
12.203508,0.7629,-0.116,0.3136,-1.1193,0.057,-0.061,40.2938,21.1125,0.8438,,0.0012669999999985748,0.8329570036922674,0.9460221794434703,non_fall
12.222564,0.7629,-0.116,0.3136,-1.1193,0.057,-0.061,40.2938,21.1125,0.8438,,0.01905600000000085,0.8329570036922674,1.0261766643642711,non_fall
12.235903,0.7629,-0.116,0.3136,-1.1193,0.057,-0.061,39.825,22.1625,1.65,,0.013339000000000212,0.8329570036922674,1.134834439938267,non_fall
12.265732,0.7629,-0.116,0.3136,-0.9772,-0.1703,-0.078,39.825,22.1625,1.65,,0.02982899999999944,0.8329570036922674,1.2636812967435305,non_fall
12.268674,1.2779,-1.0862,-0.3998,-0.9772,-0.1703,-0.078,39.825,22.1625,1.65,,0.0029420000000008883,1.7241516435627118,1.4008223890867806,non_fall
12.284401,1.2779,-1.0862,-0.3998,-0.9772,-0.1703,-0.078,39.825,22.1625,1.65,,0.015727000000000046,1.7241516435627118,1.5319969663781723,non_fall
12.296737,1.2779,-1.0862,-0.3998,-0.9772,-0.1703,-0.078,39.5625,22.725,2.9062,,0.012335999999999459,1.7241516435627118,1.6428958460063017,non_fall
12.324544,1.2779,-1.0862,-0.3998,-0.651,-0.1614,0.2007,39.5625,22.725,2.9062,,0.02780699999999925,1.7241516435627118,1.721773694005242,non_fall
12.326144,1.1167,-0.9385,-1.0117,-0.651,-0.1614,0.2007,39.5625,22.725,2.9062,,0.0015999999999998238,1.7752008421584302,1.7615700024391838,non_fall
12.345453,1.1167,-0.9385,-1.0117,-0.651,-0.1614,0.2007,39.5625,22.725,2.9062,,0.0193089999999998,1.7752008421584302,1.761073832256197,non_fall
12.35654,1.1167,-0.9385,-1.0117,-0.651,-0.1614,0.2007,39.2625,22.8,4.1625,,0.011087000000001623,1.7752008421584302,1.7250004993758055,non_fall
12.386469,1.1167,-0.9385,-1.0117,-0.8481,-0.341,0.6842,39.2625,22.8,4.1625,,0.029928999999999206,1.7752008421584302,1.6630551724126812,non_fall
12.406816,0.8428,0.2205,-1.1475,-0.8481,-0.341,0.6842,39.2625,22.8,4.1625,,0.020346999999999227,1.4407249355793077,1.5881796641824342,non_fall
12.408758,0.8428,0.2205,-1.1475,-0.8481,-0.341,0.6842,39.2625,22.8,4.1625,,0.0019420000000014426,1.4407249355793077,1.514287978937184,non_fall
12.415536,0.8428,0.2205,-1.1475,-0.8481,-0.341,0.6842,39.225,22.65,5.6063,,0.0067779999999988405,1.4407249355793077,1.4538902768566855,non_fall
12.446302,0.8428,0.2205,-1.1475,-1.0959,-1.0751,0.0193,39.225,22.65,5.6063,,0.03076599999999985,1.4407249355793077,1.4160163597364013,non_fall
12.466378,0.8428,0.2205,-1.1475,-1.0959,-1.0751,0.0193,39.225,22.65,5.6063,,0.020076000000001315,1.4407249355793077,1.4047493399952609,non_fall
12.468217,0.691,0.976,-0.66,-1.0959,-1.0751,0.0193,39.225,22.65,5.6063,,0.0018389999999985918,1.3658905519843088,1.4185366880691785,non_fall
12.476658,0.691,0.976,-0.66,-1.0959,-1.0751,0.0193,39.2438,22.2938,6.4875,,0.008441000000001253,1.3658905519843088,1.4503517496762186,non_fall
12.508654,0.691,0.976,-0.66,-0.9964,-0.5416,0.1226,39.2438,22.2938,6.4875,,0.03199599999999947,1.3658905519843088,1.4887432905362918,non_fall
12.527671,0.691,0.976,-0.66,-0.9964,-0.5416,0.1226,39.2438,22.2938,6.4875,,0.01901699999999984,1.3658905519843088,1.5197563893592676,non_fall
12.528878,-0.8728,1.1865,-0.83,-0.9964,-0.5416,0.1226,39.2438,22.2938,6.4875,,0.0012070000000008463,1.690698698763325,1.5295536065469828,non_fall
12.538966,-0.8728,1.1865,-0.83,-0.9964,-0.5416,0.1226,39.4875,21.7125,7.0125,,0.010087999999999653,1.690698698763325,1.507307208925236,non_fall
12.567531,-0.8728,1.1865,-0.83,-0.9464,-0.2206,0.1736,39.4875,21.7125,7.0125,,0.028565000000000396,1.690698698763325,1.4476824894743372,non_fall
12.590352,-0.8728,1.1865,-0.83,-0.9464,-0.2206,0.1736,39.4875,21.7125,7.0125,,0.022820999999998648,1.690698698763325,1.3521734354397286,non_fall
12.593819,-0.2914,0.6136,-0.5372,-0.9464,-0.2206,0.1736,39.4875,21.7125,7.0125,,0.003467000000000553,0.8660269972697157,1.228818032759211,non_fall
12.596368,-0.2914,0.6136,-0.5372,-0.9464,-0.2206,0.1736,39.7688,20.9438,7.35,,0.0025490000000001345,0.8660269972697157,1.0903617181073848,non_fall
12.633766,-0.2914,0.6136,-0.5372,-0.4,-0.4152,0.0274,39.7688,20.9438,7.35,,0.0373979999999996,0.8660269972697157,0.9514922487821333,non_fall
12.649856,-0.2914,0.6136,-0.5372,-0.4,-0.4152,0.0274,39.7688,20.9438,7.35,,0.01609000000000016,0.8660269972697157,0.8260118225735726,non_fall
12.656305,-0.2914,0.6136,-0.5372,-0.4,-0.4152,0.0274,40.05,20.0813,7.575,,0.006448999999999927,0.8660269972697157,0.7246266673021324,non_fall
12.670536,-0.0124,-0.4842,0.2831,-0.4,-0.4152,0.0274,40.05,20.0813,7.575,,0.014231000000000549,0.5610249637939474,0.653632778104046,non_fall
12.690234,-0.0124,-0.4842,0.2831,-0.2975,-0.1706,-0.0007,40.05,20.0813,7.575,,0.019697999999999993,0.5610249637939474,0.6144743428534643,non_fall
12.71079,-0.0124,-0.4842,0.2831,-0.2975,-0.1706,-0.0007,40.05,20.0813,7.575,,0.02055599999999913,0.5610249637939474,0.6040626637004516,non_fall
12.716991,-0.0124,-0.4842,0.2831,-0.2975,-0.1706,-0.0007,40.3125,19.1063,7.6688,,0.006201000000000789,0.5610249637939474,0.6157509074404021,non_fall
12.730019,-0.4677,-0.1329,-0.5757,-0.2975,-0.1706,-0.0007,40.3125,19.1063,7.6688,,0.013028000000000262,0.7535490627689746,0.6408173239318276,non_fall
12.750316,-0.4677,-0.1329,-0.5757,-0.0298,-0.3474,-0.1273,40.3125,19.1063,7.6688,,0.020296999999999343,0.7535490627689746,0.6701953654636987,non_fall
12.77154,-0.4677,-0.1329,-0.5757,-0.0298,-0.3474,-0.1273,40.3125,19.1063,7.6688,,0.02122400000000013,0.7535490627689746,0.6960909619951424,non_fall
12.776075,-0.4677,-0.1329,-0.5757,-0.0298,-0.3474,-0.1273,40.5563,18.5625,7.2188,,0.004535000000000622,0.7535490627689746,0.7131392351357536,non_fall
12.792036,-0.5424,-0.2156,-0.3282,-0.0298,-0.3474,-0.1273,40.5563,18.5625,7.2188,,0.015960999999999004,0.6696240437738179,0.71889626151708,non_fall
12.813023,-0.5424,-0.2156,-0.3282,-0.0081,-0.0197,0.1052,40.5563,18.5625,7.2188,,0.020986999999999867,0.6696240437738179,0.7136712999654292,non_fall
12.833272,-0.5424,-0.2156,-0.3282,-0.0081,-0.0197,0.1052,40.5563,18.5625,7.2188,,0.02024899999999974,0.6696240437738179,0.69988110558357,non_fall
12.835635,-0.5424,-0.2156,-0.3282,-0.0081,-0.0197,0.1052,40.8938,18.0563,6.8063,,0.002363000000000781,0.6696240437738179,0.6811819226380345,non_fall
