time,ax,ay,az,wx,wy,wz,Bx,By,Bz,Unnamed: 10,time_diff,acc_mag,acc_mag_filtered,label
0.090596,0.0,0.0,0.0,0.0,0.0,0.0,0.0,0.0,0.0,,0.0,0.0,0.00014716993495009133,non_fall
0.109658,0.0,0.0,0.0,0.0,0.0,0.0,39.6188,21.7875,5.3063,,0.01906200000000001,0.0,0.007131650314097949,non_fall
0.129565,0.0,0.0,0.0,0.0,0.0,0.0,39.6188,21.7875,5.3063,,0.019907000000000008,0.0,0.013886248625612633,non_fall
0.150447,0.0,0.0,0.0,-0.0039,0.0012,-0.0085,39.6188,21.7875,5.3063,,0.020881999999999984,0.0,0.02010186068090907,non_fall
0.16918,0.0274,0.0241,0.0017,-0.0039,0.0012,-0.0085,39.6188,21.7875,5.3063,,0.018733,0.03653026142802704,0.025400995749104725,non_fall
0.169782,0.0274,0.0241,0.0017,-0.0039,0.0012,-0.0085,39.3375,22.3125,5.2688,,0.0006019999999999914,0.03653026142802704,0.029388432475251563,non_fall
0.191108,0.0274,0.0241,0.0017,-0.0039,0.0012,-0.0085,39.3375,22.3125,5.2688,,0.02132600000000001,0.03653026142802704,0.031745185782571364,non_fall
0.210234,0.0274,0.0241,0.0017,-0.0117,-0.0041,0.0029,39.3375,22.3125,5.2688,,0.019126000000000004,0.03653026142802704,0.03233003663135255,non_fall
0.227564,0.0274,0.0241,0.0017,-0.0117,-0.0041,0.0029,39.3188,22.425,5.1938,,0.017329999999999984,0.03653026142802704,0.031249685312520183,non_fall
0.251107,0.0274,0.0241,0.0017,-0.0117,-0.0041,0.0029,39.3188,22.425,5.1938,,0.023543000000000036,0.03653026142802704,0.02887132631706903,non_fall
0.253396,0.0161,0.0084,0.0025,-0.0117,-0.0041,0.0029,39.3188,22.425,5.1938,,0.0022889999999999855,0.01833084831643097,0.025770438061056798,non_fall
0.270501,0.0161,0.0084,0.0025,-0.0164,0.0087,0.0206,39.3188,22.425,5.1938,,0.01710499999999998,0.01833084831643097,0.02262511904592152,non_fall
0.287383,0.0161,0.0084,0.0025,-0.0164,0.0087,0.0206,39.6188,22.425,4.9875,,0.016882000000000008,0.01833084831643097,0.02008269429330208,non_fall
0.311474,0.0161,0.0084,0.0025,-0.0164,0.0087,0.0206,39.6188,22.425,4.9875,,0.024090999999999974,0.01833084831643097,0.018630755863291062,non_fall
0.312349,0.0059,-0.0008,-0.0121,-0.0164,0.0087,0.0206,39.6188,22.425,4.9875,,0.0008750000000000147,0.013485547819795827,0.018501861019877313,non_fall
0.332428,0.0059,-0.0008,-0.0121,-0.0053,0.0204,0.0302,39.6188,22.425,4.9875,,0.020079000000000014,0.013485547819795827,0.019632270900332476,non_fall
0.34942,0.0059,-0.0008,-0.0121,-0.0053,0.0204,0.0302,39.825,22.5,5.0813,,0.016992000000000007,0.013485547819795827,0.021684669588311785,non_fall
0.375356,0.0156,0.0256,-0.0111,-0.0053,0.0204,0.0302,39.825,22.5,5.0813,,0.025936000000000015,0.031967639887861596,0.024133163309927774,non_fall
0.376565,0.0156,0.0256,-0.0111,-0.0053,0.0204,0.0302,39.825,22.5,5.0813,,0.00120899999999996,0.031967639887861596,0.02639486286465144,non_fall
0.39288,0.0156,0.0256,-0.0111,0.0064,0.0228,0.0422,39.825,22.5,5.0813,,0.016315000000000024,0.031967639887861596,0.027978866998680494,non_fall
0.408063,0.0156,0.0256,-0.0111,0.0064,0.0228,0.0422,39.9,22.3688,5.0813,,0.015183000000000002,0.031967639887861596,0.028617183556233446,non_fall
0.434003,0.0156,0.0256,-0.0111,0.0064,0.0228,0.0422,39.9,22.3688,5.0813,,0.02594000000000002,0.031967639887861596,0.028346928196062205,non_fall
0.435019,-0.0182,-0.0206,0.0001,0.0064,0.0228,0.0422,39.9,22.3688,5.0813,,0.0010159999999999614,0.027488361173413012,0.027526075282945563,non_fall
0.453966,-0.0182,-0.0206,0.0001,0.0103,0.0072,0.0366,39.9,22.3688,5.0813,,0.01894699999999999,0.027488361173413012,0.02677996112102692,non_fall
0.468072,-0.0182,-0.0206,0.0001,0.0103,0.0072,0.0366,40.0312,22.35,5.2125,,0.014106000000000007,0.027488361173413012,0.02688845995226306,non_fall
0.494681,-0.0182,-0.0206,0.0001,0.0103,0.0072,0.0366,40.0312,22.35,5.2125,,0.026608999999999994,0.027488361173413012,0.02863284722332659,non_fall
0.5162,-0.0323,0.0049,0.0185,0.0103,0.0072,0.0366,40.0312,22.35,5.2125,,0.02151900000000001,0.03754397421690996,0.03262693299303601,non_fall
0.518638,-0.0323,0.0049,0.0185,0.0017,-0.0393,-0.0085,40.0312,22.35,5.2125,,0.0024380000000000512,0.03754397421690996,0.039160225805974176,non_fall
0.528335,-0.0323,0.0049,0.0185,0.0017,-0.0393,-0.0085,40.0875,22.1813,5.25,,0.009696999999999956,0.03754397421690996,0.04808325379011505,non_fall
0.555349,-0.0323,0.0049,0.0185,0.0017,-0.0393,-0.0085,40.0875,22.1813,5.25,,0.027013999999999982,0.03754397421690996,0.05876663855027654,non_fall
0.575363,-0.0323,0.0049,0.0185,0.0092,0.0321,0.0373,40.0875,22.1813,5.25,,0.020013999999999976,0.03754397421690996,0.07016137385436773,non_fall
0.575917,0.1123,0.0101,-0.0145,0.0092,0.0321,0.0373,40.0875,22.1813,5.25,,0.0005540000000000544,0.11368179273744762,0.08096922647731956,non_fall
0.587397,0.1123,0.0101,-0.0145,0.0092,0.0321,0.0373,40.2,22.2938,5.2125,,0.011479999999999935,0.11368179273744762,0.08989566692290259,non_fall
0.61604,0.1123,0.0101,-0.0145,0.0092,0.0321,0.0373,40.2,22.2938,5.2125,,0.028643000000000085,0.11368179273744762,0.09591730906302436,non_fall
0.636749,0.1123,0.0101,-0.0145,-0.0021,-0.0212,-0.0024,40.2,22.2938,5.2125,,0.020708999999999977,0.11368179273744762,0.09847958789408146,non_fall
0.637845,-0.0774,-0.0079,0.0145,-0.0021,-0.0212,-0.0024,40.2,22.2938,5.2125,,0.0010959999999999859,0.07914177152427156,0.09756530788077633,non_fall
0.647896,-0.0774,-0.0079,0.0145,-0.0021,-0.0212,-0.0024,40.3875,22.2563,5.2688,,0.010051000000000032,0.07914177152427156,0.0936278449808502,non_fall
0.678294,-0.0774,-0.0079,0.0145,-0.0021,-0.0212,-0.0024,40.3875,22.2563,5.2688,,0.030397999999999925,0.07914177152427156,0.08743243358119882,non_fall
0.696439,-0.0774,-0.0079,0.0145,0.0153,0.0196,0.0238,40.3875,22.2563,5.2688,,0.018145000000000078,0.07914177152427156,0.07987001079073955,non_fall
0.706867,-0.0774,-0.0079,0.0145,0.0153,0.0196,0.0238,40.5,22.275,5.25,,0.010427999999999993,0.07914177152427156,0.07179706312002758,non_fall
0.716824,-0.056,-0.0042,0.0036,0.0153,0.0196,0.0238,40.5,22.275,5.25,,0.009956999999999994,0.05627255103511836,0.06392752109587216,non_fall
0.736995,-0.056,-0.0042,0.0036,0.0153,0.0196,0.0238,40.5,22.275,5.25,,0.02017099999999994,0.05627255103511836,0.05677858206079286,non_fall
0.757521,-0.056,-0.0042,0.0036,0.0085,0.0008,0.0064,40.5,22.275,5.25,,0.020526000000000044,0.05627255103511836,0.050659938545011496,non_fall
0.767394,-0.056,-0.0042,0.0036,0.0085,0.0008,0.0064,40.3688,22.2375,5.3438,,0.00987300000000002,0.05627255103511836,0.04569181877308027,non_fall
0.777713,0.0329,0.008,0.0073,0.0085,0.0008,0.0064,40.3688,22.2375,5.3438,,0.010318999999999967,0.03463668575369185,0.04183696304963716,non_fall
0.798407,0.0329,0.008,0.0073,0.0085,0.0008,0.0064,40.3688,22.2375,5.3438,,0.02069399999999999,0.03463668575369185,0.03893566720032848,non_fall
0.819093,0.0329,0.008,0.0073,0.0007,-0.0071,0.0043,40.3688,22.2375,5.3438,,0.020685999999999982,0.03463668575369185,0.03674119080510151,non_fall
0.827211,0.0329,0.008,0.0073,0.0007,-0.0071,0.0043,40.275,22.2,5.025,,0.00811800000000007,0.03463668575369185,0.03495930353178123,non_fall
0.839504,0.0232,0.0136,0.0217,0.0007,-0.0071,0.0043,40.275,22.2,5.025,,0.012292999999999998,0.03455560735973252,0.03329476986605276,non_fall
0.860343,0.0232,0.0136,0.0217,0.0007,-0.0071,0.0043,40.275,22.2,5.025,,0.02083899999999994,0.03455560735973252,0.031500645785893996,non_fall
0.880301,0.0232,0.0136,0.0217,-0.0039,0.0136,0.0202,40.275,22.2,5.025,,0.01995800000000003,0.03455560735973252,0.02941969178088885,non_fall
0.889681,0.0232,0.0136,0.0217,-0.0039,0.0136,0.0202,40.125,22.2,4.95,,0.009380000000000055,0.03455560735973252,0.02700571097384043,non_fall
0.900657,-0.0154,0.0019,-0.0041,-0.0039,0.0136,0.0202,40.125,22.2,4.95,,0.010975999999999986,0.016049299050114308,0.024317507929856663,non_fall
0.920764,-0.0154,0.0019,-0.0041,-0.0039,0.0136,0.0202,40.125,22.2,4.95,,0.020106999999999986,0.016049299050114308,0.021488058348199238,non_fall
0.940371,-0.0154,0.0019,-0.0041,-0.0017,0.0004,0.0043,40.125,22.2,4.95,,0.01960699999999993,0.016049299050114308,0.01868173210548253,non_fall
0.947888,-0.0154,0.0019,-0.0041,-0.0017,0.0004,0.0043,40.125,22.2188,4.8563,,0.007516999999999996,0.016049299050114308,0.01605640409443148,non_fall
0.981802,-0.0154,0.0019,-0.0041,-0.0017,0.0004,0.0043,40.125,22.2188,4.8563,,0.033914,0.016049299050114308,0.013742025796038785,non_fall
0.983083,0.0089,-0.0046,-0.0072,-0.0017,0.0004,0.0043,40.125,22.2188,4.8563,,0.0012810000000000876,0.012337341690980273,0.011836825874999722,non_fall
1.001797,0.0089,-0.0046,-0.0072,0.0028,-0.0028,0.0032,40.125,22.2188,4.8563,,0.01871400000000001,0.012337341690980273,0.010413821776436799,non_fall
1.007692,0.0089,-0.0046,-0.0072,0.0028,-0.0028,0.0032,39.9563,22.3875,4.7063,,0.005894999999999984,0.012337341690980273,0.009527459524091128,non_fall
1.042098,0.0089,-0.0046,-0.0072,0.0028,-0.0028,0.0032,39.9563,22.3875,4.7063,,0.03440599999999994,0.012337341690980273,0.009212276169070766,non_fall
1.04314,0.0034,0.0002,-0.0063,0.0028,-0.0028,0.0032,39.9563,22.3875,4.7063,,0.0010419999999999874,0.007161703707917551,0.009470510491000846,non_fall
1.063248,0.0034,0.0002,-0.0063,0.0079,-0.0028,0.0011,39.9563,22.3875,4.7063,,0.020108000000000015,0.007161703707917551,0.010252088322362745,non_fall
1.066655,0.0034,0.0002,-0.0063,0.0079,-0.0028,0.0011,39.8813,22.2563,4.6875,,0.003406999999999938,0.007161703707917551,0.011436479277408628,non_fall
1.104337,0.0034,0.0002,-0.0063,0.0079,-0.0028,0.0011,39.8813,22.2563,4.6875,,0.03768199999999999,0.007161703707917551,0.01282854280758139,non_fall
1.106347,0.0146,0.0083,0.0065,0.0079,-0.0028,0.0011,39.8813,22.2563,4.6875,,0.0020100000000000673,0.018008331405213532,0.01417719680544182,non_fall
1.123461,0.0146,0.0083,0.0065,0.0064,-0.0007,0.0019,39.8813,22.2563,4.6875,,0.017114000000000074,0.018008331405213532,0.01521705751538932,non_fall
1.130362,0.0146,0.0083,0.0065,0.0064,-0.0007,0.0019,39.7688,22.1813,4.575,,0.006901000000000046,0.018008331405213532,0.01572311798292601,non_fall
1.165083,0.0146,0.0083,0.0065,0.0064,-0.0007,0.0019,39.7688,22.1813,4.575,,0.034721,0.018008331405213532,0.015562370686545073,non_fall
1.185844,0.0146,0.0083,0.0065,0.0004,-0.0031,0.0004,39.7688,22.1813,4.575,,0.020760999999999807,0.018008331405213532,0.014726965906259581,non_fall
1.18706,-0.0085,-0.0039,-0.0046,0.0004,-0.0031,0.0004,39.7688,22.1813,4.575,,0.0012160000000001059,0.010422091920531118,0.013339793217757313,non_fall
1.187835,-0.0085,-0.0039,-0.0046,0.0004,-0.0031,0.0004,39.825,22.0688,4.7625,,0.0007749999999999702,0.010422091920531118,0.011631766298571447,non_fall
1.226507,-0.0085,-0.0039,-0.0046,0.0004,-0.0031,0.0004,39.825,22.0688,4.7625,,0.03867200000000004,0.010422091920531118,0.009897279277421716,non_fall
1.248195,-0.0085,-0.0039,-0.0046,0.0017,0.0004,0.0008,39.825,22.0688,4.7625,,0.02168799999999993,0.010422091920531118,0.00843815987084983,non_fall
1.250108,0.0042,0.0029,-0.0011,0.0017,0.0004,0.0008,39.825,22.0688,4.7625,,0.0019130000000000535,0.005221110992882645,0.007506874408918461,non_fall
1.251057,0.0042,0.0029,-0.0011,0.0017,0.0004,0.0008,39.9375,22.05,4.8563,,0.0009490000000000887,0.005221110992882645,0.007258727886417978,non_fall
1.287884,0.0042,0.0029,-0.0011,0.0017,0.0004,0.0008,39.9375,22.05,4.8563,,0.03682699999999994,0.005221110992882645,0.007721993627631241,non_fall
1.307451,0.0042,0.0029,-0.0011,-0.0036,0.0057,0.0043,39.9375,22.05,4.8563,,0.01956699999999989,0.005221110992882645,0.008793538417241193,non_fall
1.308037,0.0042,0.0029,-0.0011,-0.0036,0.0057,0.0043,40.0125,21.9375,5.0625,,0.0005859999999999754,0.005221110992882645,0.01026366906603342,non_fall
1.308677,0.0044,0.0058,0.0179,-0.0036,0.0057,0.0043,40.0125,21.9375,5.0625,,0.000640000000000196,0.019323819498225498,0.011866886054462466,non_fall
1.348918,0.0044,0.0058,0.0179,-0.0036,0.0057,0.0043,40.0125,21.9375,5.0625,,0.04024099999999997,0.019323819498225498,0.013346341451139816,non_fall
1.368821,0.0044,0.0058,0.0179,-0.0057,0.0029,0.0015,40.0125,21.9375,5.0625,,0.019903000000000004,0.019323819498225498,0.014512767047794584,non_fall
1.369471,0.0044,0.0058,0.0179,-0.0057,0.0029,0.0015,40.1625,21.9938,5.1938,,0.0006500000000000394,0.019323819498225498,0.015278433201644298,non_fall
1.369996,0.0088,0.0023,0.0056,-0.0057,0.0029,0.0015,40.1625,21.9938,5.1938,,0.0005249999999998867,0.010681292056675541,0.015655616037349832,non_fall
1.411007,0.0088,0.0023,0.0056,-0.0057,0.0029,0.0015,40.1625,21.9938,5.1938,,0.04101099999999991,0.010681292056675541,0.015723588178821166,non_fall
1.432951,0.0088,0.0023,0.0056,-0.0057,0.0029,0.0015,40.1813,21.9375,5.325,,0.021944000000000186,0.010681292056675541,0.01558089786751208,non_fall
1.437055,0.0088,0.0023,0.0056,-0.0124,0.0089,0.0036,40.1813,21.9375,5.325,,0.0041039999999998855,0.010681292056675541,0.01530421547784113,non_fall
1.449192,0.0013,-0.0051,0.0176,-0.0124,0.0089,0.0036,40.1813,21.9375,5.325,,0.012137000000000064,0.018370084376507365,0.014929441659988487,non_fall
1.470244,0.0013,-0.0051,0.0176,-0.0124,0.0089,0.0036,40.1813,21.9375,5.325,,0.02105200000000007,0.018370084376507365,0.014458489700873517,non_fall
1.489271,0.0013,-0.0051,0.0176,-0.0124,0.0089,0.0036,40.3125,21.75,5.4375,,0.019026999999999905,0.018370084376507365,0.013882756295807173,non_fall
1.490384,0.0013,-0.0051,0.0176,-0.0192,0.0115,0.0128,40.3125,21.75,5.4375,,0.0011129999999999196,0.018370084376507365,0.01320802971316289,non_fall
1.51047,0.0038,0.0055,0.0025,-0.0192,0.0115,0.0128,40.3125,21.75,5.4375,,0.020086000000000048,0.007137226352022191,0.012468198662233676,non_fall
1.52995,0.0038,0.0055,0.0025,-0.0192,0.0115,0.0128,40.3125,21.75,5.4375,,0.019479999999999942,0.007137226352022191,0.011724434704777359,non_fall
1.550181,0.0038,0.0055,0.0025,-0.0192,0.0115,0.0128,40.3313,21.8625,5.5125,,0.02023100000000011,0.007137226352022191,0.011056489660305186,non_fall
1.551305,0.0038,0.0055,0.0025,-0.017,-0.0007,0.0029,40.3313,21.8625,5.5125,,0.0011239999999999029,0.007137226352022191,0.010556861545368858,non_fall
1.570991,0.011,-0.0029,-0.0119,-0.017,-0.0007,0.0029,40.3313,21.8625,5.5125,,0.019686000000000092,0.016462685078686284,0.010334060394403521,non_fall
1.590123,0.011,-0.0029,-0.0119,-0.017,-0.0007,0.0029,40.3313,21.8625,5.5125,,0.019131999999999927,0.016462685078686284,0.01052110982879888,non_fall
1.608975,0.011,-0.0029,-0.0119,-0.017,-0.0007,0.0029,40.3125,21.8625,5.5125,,0.01885200000000009,0.016462685078686284,0.011276684094734363,non_fall
1.612396,0.011,-0.0029,-0.0119,-0.0117,0.0044,0.0083,40.3125,21.8625,5.5125,,0.0034209999999998963,0.016462685078686284,0.012765263872212862,non_fall
1.652953,0.011,-0.0029,-0.0119,-0.0117,0.0044,0.0083,40.3125,21.8625,5.5125,,0.040556999999999954,0.016462685078686284,0.01511132446603608,non_fall
1.654476,-0.0103,0.0015,-0.0005,-0.0117,0.0044,0.0083,40.3125,21.8625,5.5125,,0.0015230000000001631,0.010420652570736634,0.018337436511673525,non_fall
1.668294,-0.0103,0.0015,-0.0005,-0.0117,0.0044,0.0083,40.2,21.7875,5.4188,,0.013817999999999886,0.010420652570736634,0.022310757082767627,non_fall
1.671572,-0.0103,0.0015,-0.0005,-0.0217,-0.0031,0.0015,40.2,21.7875,5.4188,,0.003278000000000114,0.010420652570736634,0.0267297012300627,non_fall
1.71382,-0.0103,0.0015,-0.0005,-0.0217,-0.0031,0.0015,40.2,21.7875,5.4188,,0.04224799999999984,0.010420652570736634,0.031176386755018038,non_fall
1.715496,0.0357,0.0177,0.0489,-0.0217,-0.0031,0.0015,40.2,21.7875,5.4188,,0.0016760000000000108,0.06307923588630414,0.03523739260246451,non_fall
1.728245,0.0357,0.0177,0.0489,-0.0217,-0.0031,0.0015,40.0875,21.6375,5.3625,,0.012749000000000121,0.06307923588630414,0.03865980579373372,non_fall
1.733449,0.0357,0.0177,0.0489,-0.0447,0.0072,0.0217,40.0875,21.6375,5.3625,,0.005203999999999986,0.06307923588630414,0.041477884133030316,non_fall
1.773879,0.0357,0.0177,0.0489,-0.0447,0.0072,0.0217,40.0875,21.6375,5.3625,,0.040429999999999966,0.06307923588630414,0.04404092474485839,non_fall
1.7747,0.0147,-0.024,0.0004,-0.0447,0.0072,0.0217,40.0875,21.6375,5.3625,,0.0008209999999999607,0.02814693589007514,0.04690678754353996,non_fall
1.788272,0.0147,-0.024,0.0004,-0.0447,0.0072,0.0217,40.05,21.75,5.4938,,0.01357200000000014,0.02814693589007514,0.05062525198767017,non_fall
1.795086,0.0147,-0.024,0.0004,-0.0426,0.0228,0.0256,40.05,21.75,5.4938,,0.006813999999999876,0.02814693589007514,0.05549069257982831,non_fall
1.83591,0.0147,-0.024,0.0004,-0.0426,0.0228,0.0256,40.05,21.75,5.4938,,0.04082399999999997,0.02814693589007514,0.06136527454891421,non_fall
1.837084,-0.024,-0.0169,-0.0852,-0.0426,0.0228,0.0256,40.05,21.75,5.4938,,0.0011740000000000084,0.09011464919756387,0.06764938969137817,non_fall
1.849734,-0.024,-0.0169,-0.0852,-0.0426,0.0228,0.0256,39.9938,21.5813,5.5312,,0.01265000000000005,0.09011464919756387,0.07341569168847838,non_fall
1.854856,-0.024,-0.0169,-0.0852,-0.0032,-0.0045,-0.0107,39.9938,21.5813,5.5312,,0.005122000000000071,0.09011464919756387,0.0776561880247639,non_fall
1.89576,-0.024,-0.0169,-0.0852,-0.0032,-0.0045,-0.0107,39.9938,21.5813,5.5312,,0.04090399999999983,0.09011464919756387,0.07955147946825696,non_fall
1.908274,-0.024,-0.0169,-0.0852,-0.0032,-0.0045,-0.0107,39.9563,21.6188,5.3813,,0.012514000000000136,0.09011464919756387,0.07867309671558742,non_fall
1.916684,-0.024,-0.0169,-0.0852,0.0196,-0.029,-0.0373,39.9563,21.6188,5.3813,,0.008410000000000029,0.09011464919756387,0.07506407487671674,non_fall
1.917265,-0.0335,-0.007,-0.0292,0.0196,-0.029,-0.0373,39.9563,21.6188,5.3813,,0.0005809999999999427,0.04498766497607984,0.06918864534835176,non_fall
1.957458,-0.0335,-0.007,-0.0292,0.0196,-0.029,-0.0373,39.9563,21.6188,5.3813,,0.04019299999999992,0.04498766497607984,0.061784058612116305,non_fall
1.968689,-0.0335,-0.007,-0.0292,0.0196,-0.029,-0.0373,39.8625,21.7125,5.3063,,0.011230999999999991,0.04498766497607984,0.05367541168129639,non_fall
1.977967,-0.0335,-0.007,-0.0292,0.0107,-0.0145,-0.0301,39.8625,21.7125,5.3063,,0.00927800000000012,0.04498766497607984,0.04561741234959902,non_fall
1.978872,0.0121,0.0213,0.0304,0.0107,-0.0145,-0.0301,39.8625,21.7125,5.3063,,0.0009049999999999336,0.03904177250074591,0.03820347056167596,non_fall
2.01755,0.0121,0.0213,0.0304,0.0107,-0.0145,-0.0301,39.8625,21.7125,5.3063,,0.03867799999999999,0.03904177250074591,0.03184625408820759,non_fall
2.028554,0.0121,0.0213,0.0304,0.0107,-0.0145,-0.0301,39.9188,21.5625,5.25,,0.011004000000000236,0.03904177250074591,0.026804286915682166,non_fall
2.038042,0.0121,0.0213,0.0304,0.0206,-0.0013,-0.0301,39.9188,21.5625,5.25,,0.009487999999999719,0.03904177250074591,0.02321730601524778,non_fall
2.038856,-0.0094,0.0015,-0.0051,0.0206,-0.0013,-0.0301,39.9188,21.5625,5.25,,0.0008140000000000924,0.01079907403437906,0.0211201092812646,non_fall
2.0782,-0.0094,0.0015,-0.0051,0.0206,-0.0013,-0.0301,39.9188,21.5625,5.25,,0.039343999999999824,0.01079907403437906,0.0204261506734344,non_fall
2.088238,-0.0094,0.0015,-0.0051,0.0206,-0.0013,-0.0301,39.975,21.6188,5.3625,,0.010038000000000213,0.01079907403437906,0.020897965310051076,non_fall
2.098253,-0.0094,0.0015,-0.0051,0.0298,-0.0088,-0.0405,39.975,21.6188,5.3625,,0.010015000000000107,0.01079907403437906,0.02213690555857952,non_fall
2.119114,-0.0132,-0.0177,-0.0213,0.0298,-0.0088,-0.0405,39.975,21.6188,5.3625,,0.02086100000000002,0.03067930898830676,0.023619722972208733,non_fall
2.139718,-0.0132,-0.0177,-0.0213,0.0298,-0.0088,-0.0405,39.975,21.6188,5.3625,,0.020603999999999623,0.03067930898830676,0.024787406307260652,non_fall
2.147953,-0.0132,-0.0177,-0.0213,0.0298,-0.0088,-0.0405,40.0125,21.6188,5.25,,0.008234999999999992,0.03067930898830676,0.025165838669625684,non_fall
2.160377,-0.0132,-0.0177,-0.0213,0.0266,-0.0188,-0.0383,40.0125,21.6188,5.25,,0.012424000000000213,0.03067930898830676,0.024482090556123447,non_fall
2.179501,0.0104,0.0199,-0.0012,0.0266,-0.0188,-0.0383,40.0125,21.6188,5.25,,0.01912400000000014,0.02248577328000974,0.022740496377561367,non_fall
2.201923,0.0104,0.0199,-0.0012,0.0266,-0.0188,-0.0383,40.0125,21.6188,5.25,,0.02242199999999972,0.02248577328000974,0.020235469289361253,non_fall
2.210186,0.0104,0.0199,-0.0012,0.0266,-0.0188,-0.0383,39.8625,21.7313,5.2125,,0.008263000000000353,0.02248577328000974,0.017495073177877397,non_fall
2.220343,0.0104,0.0199,-0.0012,0.0206,-0.0081,-0.0256,39.8625,21.7313,5.2125,,0.010156999999999972,0.02248577328000974,0.015164591359857735,non_fall
2.240986,0.0034,0.0008,-0.0023,0.0206,-0.0081,-0.0256,39.8625,21.7313,5.2125,,0.020642999999999745,0.004182104733265297,0.013851704238921344,non_fall
2.261838,0.0034,0.0008,-0.0023,0.0206,-0.0081,-0.0256,39.8625,21.7313,5.2125,,0.020852000000000093,0.004182104733265297,0.01396597876502391,non_fall
2.268225,0.0034,0.0008,-0.0023,0.0206,-0.0081,-0.0256,39.75,21.675,5.1,,0.0063870000000001426,0.004182104733265297,0.015593687550653337,non_fall
2.281449,0.0034,0.0008,-0.0023,0.0234,-0.0039,-0.023,39.75,21.675,5.1,,0.01322399999999968,0.004182104733265297,0.018448077421888406,non_fall
2.301472,-0.0086,-0.005,-0.0296,0.0234,-0.0039,-0.023,39.75,21.675,5.1,,0.020023000000000124,0.03122691147071705,0.021919507823758008,non_fall
2.321932,-0.0086,-0.005,-0.0296,0.0234,-0.0039,-0.023,39.75,21.675,5.1,,0.020459999999999923,0.03122691147071705,0.025221761747392362,non_fall
2.32827,-0.0086,-0.005,-0.0296,0.0234,-0.0039,-0.023,39.6375,21.7313,4.9688,,0.006337999999999955,0.03122691147071705,0.02760121496879136,non_fall
2.342969,-0.0086,-0.005,-0.0296,0.0337,0.0023,-0.0277,39.6375,21.7313,4.9688,,0.01469900000000024,0.03122691147071705,0.02855725229101639,non_fall
2.384799,-0.0086,-0.005,-0.0296,0.0337,0.0023,-0.0277,39.6375,21.7313,4.9688,,0.041830000000000034,0.03122691147071705,0.028020977334454317,non_fall
2.38591,-0.0318,-0.0107,0.0081,0.0337,0.0023,-0.0277,39.6375,21.7313,4.9688,,0.001110999999999862,0.03451579348646066,0.026450185288526173,non_fall
2.388545,-0.0318,-0.0107,0.0081,0.0337,0.0023,-0.0277,39.4313,21.6938,5.0063,,0.002635000000000165,0.03451579348646066,0.024813643409066263,non_fall
2.40318,-0.0318,-0.0107,0.0081,0.0277,0.0047,-0.0376,39.4313,21.6938,5.0063,,0.014634999999999732,0.03451579348646066,0.024453853915488877,non_fall
2.443871,-0.0318,-0.0107,0.0081,0.0277,0.0047,-0.0376,39.4313,21.6938,5.0063,,0.040691000000000255,0.03451579348646066,0.02683698554994144,non_fall
2.445115,-0.0264,-0.0011,-0.0001,0.0277,0.0047,-0.0376,39.4313,21.6938,5.0063,,0.0012439999999998008,0.026423095957892596,0.03322382179892121,non_fall
2.448189,-0.0264,-0.0011,-0.0001,0.0277,0.0047,-0.0376,39.5063,21.75,5.175,,0.003074000000000243,0.026423095957892596,0.044323902149206604,non_fall
2.464054,-0.0264,-0.0011,-0.0001,0.0313,0.0019,-0.0439,39.5063,21.75,5.175,,0.015864999999999796,0.026423095957892596,0.060017742013738246,non_fall
2.505561,-0.0264,-0.0011,-0.0001,0.0313,0.0019,-0.0439,39.5063,21.75,5.175,,0.04150700000000018,0.026423095957892596,0.07923545315221477,non_fall
2.506677,-0.0758,-0.0487,-0.1147,0.0313,0.0019,-0.0439,39.5063,21.75,5.175,,0.0011159999999996728,0.14585410518734124,0.10005108066427289,non_fall
2.507692,-0.0758,-0.0487,-0.1147,0.0313,0.0019,-0.0439,39.4688,21.975,5.1562,,0.0010150000000002102,0.14585410518734124,0.11998961222916855,non_fall
2.525079,-0.0758,-0.0487,-0.1147,0.0948,-0.0723,-0.0933,39.4688,21.975,5.1562,,0.01738699999999982,0.14585410518734124,0.13647203448234227,non_fall
2.565656,-0.0758,-0.0487,-0.1147,0.0948,-0.0723,-0.0933,39.4688,21.975,5.1562,,0.04057700000000031,0.14585410518734124,0.14728370359084664,non_fall
2.567076,-0.0758,-0.0487,-0.1147,0.0948,-0.0723,-0.0933,39.5063,22.0312,5.0438,,0.0014199999999999768,0.14585410518734124,0.15096367244096381,non_fall
2.586433,-0.0758,-0.0487,-0.1147,0.1839,-0.0252,-0.1029,39.5063,22.0312,5.0438,,0.019356999999999847,0.14585410518734124,0.14705693465631856,non_fall
2.587877,0.0291,-0.0308,-0.1275,0.1839,-0.0252,-0.1029,39.5063,22.0312,5.0438,,0.0014440000000002229,0.13435661502136767,0.13621069021623797,non_fall
2.626207,0.0291,-0.0308,-0.1275,0.1839,-0.0252,-0.1029,39.5063,22.0312,5.0438,,0.03832999999999975,0.13435661502136767,0.12011232360809644,non_fall
2.626965,0.0291,-0.0308,-0.1275,0.1839,-0.0252,-0.1029,39.675,22.2938,5.1938,,0.0007580000000002585,0.13435661502136767,0.10126831613331072,non_fall
2.647432,0.0291,-0.0308,-0.1275,0.1917,0.0349,-0.061,39.675,22.2938,5.1938,,0.02046699999999957,0.13435661502136767,0.08262769741906009,non_fall
2.648724,0.0052,-0.0042,0.0049,0.1917,0.0349,-0.061,39.675,22.2938,5.1938,,0.001292000000000293,0.008287943049997387,0.06707885164066199,non_fall
2.687452,0.0052,-0.0042,0.0049,0.1917,0.0349,-0.061,39.675,22.2938,5.1938,,0.038727999999999874,0.008287943049997387,0.05690074146748029,non_fall
2.68832,0.0052,-0.0042,0.0049,0.1917,0.0349,-0.061,39.825,22.4813,5.0438,,0.0008680000000000909,0.008287943049997387,0.05330569593845653,non_fall
2.7105,0.0052,-0.0042,0.0049,0.2112,0.0055,-0.0738,39.825,22.4813,5.0438,,0.02218000000000009,0.008287943049997387,0.056222451021021656,non_fall
2.711676,0.0521,-0.0316,-0.1071,0.2112,0.0055,-0.0738,39.825,22.4813,5.0438,,0.0011760000000000659,0.12322085862385475,0.06440299904971576,non_fall
2.750144,0.0521,-0.0316,-0.1071,0.2112,0.0055,-0.0738,39.8625,22.6313,5.0438,,0.03846799999999995,0.12322085862385475,0.0758161444532967,non_fall
2.751495,0.0521,-0.0316,-0.1071,0.2112,0.0055,-0.0738,39.8625,22.6313,5.0438,,0.001350999999999658,0.12322085862385475,0.08817896124618957,non_fall
2.769046,0.0521,-0.0316,-0.1071,0.2691,0.069,-0.0525,39.8625,22.6313,5.0438,,0.017551000000000094,0.12322085862385475,0.0994377101496391,non_fall
2.769869,-0.074,0.0359,-0.0261,0.2691,0.069,-0.0525,39.8625,22.6313,5.0438,,0.0008230000000000182,0.086290323907145,0.10806099538653549,non_fall
2.810758,-0.074,0.0359,-0.0261,0.2691,0.069,-0.0525,39.9,22.8938,4.8563,,0.04088899999999995,0.086290323907145,0.11311372933171598,non_fall
2.811822,-0.074,0.0359,-0.0261,0.2691,0.069,-0.0525,39.9,22.8938,4.8563,,0.0010639999999999539,0.086290323907145,0.11417925537637155,non_fall
2.830571,-0.074,0.0359,-0.0261,0.2655,0.0566,-0.0386,39.9,22.8938,4.8563,,0.018749000000000127,0.086290323907145,0.1112428278931946,non_fall
2.850322,0.0624,0.0679,0.0643,0.2655,0.0566,-0.0386,39.9,22.8938,4.8563,,0.019750999999999852,0.11242179503992987,0.10463153867842513,forward_fall
2.869845,0.0624,0.0679,0.0643,0.2655,0.0566,-0.0386,40.0125,23.2688,4.725,,0.0195230000000004,0.11242179503992987,0.09504360132272295,forward_fall
2.871207,0.0624,0.0679,0.0643,0.2655,0.0566,-0.0386,40.0125,23.2688,4.725,,0.0013619999999998633,0.11242179503992987,0.08362951007493791,forward_fall
2.890866,0.0624,0.0679,0.0643,0.251,0.0537,-0.0202,40.0125,23.2688,4.725,,0.01965899999999987,0.11242179503992987,0.07204380949538856,forward_fall
2.911373,0.007,-0.0307,-0.0189,0.251,0.0537,-0.0202,40.0125,23.2688,4.725,,0.020507000000000275,0.03672465112155594,0.06238922223491912,forward_fall
2.929034,0.007,-0.0307,-0.0189,0.251,0.0537,-0.0202,39.825,23.4938,4.3688,,0.017660999999999927,0.03672465112155594,0.057021639853192065,forward_fall
2.930256,0.007,-0.0307,-0.0189,0.251,0.0537,-0.0202,39.825,23.4938,4.3688,,0.0012219999999998343,0.03672465112155594,0.058247443865562486,forward_fall
2.951187,0.007,-0.0307,-0.0189,0.3003,0.0724,-0.0237,39.825,23.4938,4.3688,,0.020931000000000033,0.03672465112155594,0.06798459414009259,forward_fall
2.971578,-0.0376,-0.1106,-0.1107,0.3003,0.0724,-0.0237,39.825,23.4938,4.3688,,0.020391000000000048,0.1609366645609384,0.08745169044274344,forward_fall
2.988242,-0.0376,-0.1106,-0.1107,0.3003,0.0724,-0.0237,39.7875,23.7375,4.125,,0.016664000000000012,0.1609366645609384,0.11690670967893214,forward_fall
2.991789,-0.0376,-0.1106,-0.1107,0.3003,0.0724,-0.0237,39.7875,23.7375,4.125,,0.003546999999999745,0.1609366645609384,0.1554230815814662,forward_fall
3.012012,-0.0376,-0.1106,-0.1107,0.4256,0.07,-0.0482,39.7875,23.7375,4.125,,0.020223000000000102,0.1609366645609384,0.20070855455244574,forward_fall
3.048581,-0.0376,-0.1106,-0.1107,0.4256,0.07,-0.0482,39.6375,24.0188,4.0125,,0.036569000000000074,0.1609366645609384,0.24904221183341435,forward_fall
3.053255,-0.0376,-0.1106,-0.1107,0.4256,0.07,-0.0482,39.6375,24.0188,4.0125,,0.004674000000000067,0.1609366645609384,0.2954700991519048,forward_fall
3.054224,-0.3428,-0.2366,-0.0063,0.4256,0.07,-0.0482,39.6375,24.0188,4.0125,,0.0009689999999999976,0.416570630265745,0.3343846753283649,forward_fall
3.074133,-0.3428,-0.2366,-0.0063,0.634,0.0083,-0.1236,39.6375,24.0188,4.0125,,0.019908999999999732,0.416570630265745,0.36048741263206835,forward_fall
3.109055,-0.3428,-0.2366,-0.0063,0.634,0.0083,-0.1236,39.3563,24.2063,3.6188,,0.03492200000000034,0.416570630265745,0.36995169050308835,forward_fall
3.113285,-0.3428,-0.2366,-0.0063,0.634,0.0083,-0.1236,39.3563,24.2063,3.6188,,0.004229999999999734,0.416570630265745,0.3614757488084605,forward_fall
3.114376,0.1047,0.0022,-0.2999,0.634,0.0083,-0.1236,39.3563,24.2063,3.6188,,0.0010910000000001752,0.31765852735287936,0.33691992295128603,forward_fall
3.134267,0.1047,0.0022,-0.2999,0.6258,0.0115,-0.1441,39.3563,24.2063,3.6188,,0.01989099999999988,0.31765852735287936,0.30133896619049777,forward_fall
3.168835,0.1047,0.0022,-0.2999,0.6258,0.0115,-0.1441,39.1688,24.45,3.2625,,0.034568000000000154,0.31765852735287936,0.26236936603406885,forward_fall
3.174452,0.1047,0.0022,-0.2999,0.6258,0.0115,-0.1441,39.1688,24.45,3.2625,,0.005616999999999983,0.31765852735287936,0.22905449584139156,forward_fall
3.175211,0.0721,0.0028,0.0873,0.6258,0.0115,-0.1441,39.1688,24.45,3.2625,,0.0007589999999999542,0.11325873034781911,0.2102869199049006,forward_fall
3.19442,0.0721,0.0028,0.0873,0.5623,0.1613,-0.0181,39.1688,24.45,3.2625,,0.01920900000000003,0.11325873034781911,0.2131449453373416,forward_fall
3.228925,0.0721,0.0028,0.0873,0.5623,0.1613,-0.0181,38.8875,24.7313,2.7,,0.034504999999999786,0.11325873034781911,0.24148832495345893,forward_fall
3.235688,0.0721,0.0028,0.0873,0.5623,0.1613,-0.0181,38.8875,24.7313,2.7,,0.0067630000000002966,0.11325873034781911,0.2951811834632858,forward_fall
3.236427,-0.5648,-0.1328,0.2115,0.5623,0.1613,-0.0181,38.8875,24.7313,2.7,,0.0007389999999998231,0.6175492935790632,0.37015692657755905,forward_fall
3.256761,-0.5648,-0.1328,0.2115,0.8304,0.1137,-0.0411,38.8875,24.7313,2.7,,0.020334000000000074,0.6175492935790632,0.45925507187172976,forward_fall
3.289226,-0.5648,-0.1328,0.2115,0.8304,0.1137,-0.0411,38.7375,24.975,2.25,,0.03246500000000019,0.6175492935790632,0.5534921114099571,forward_fall
3.301615,-0.5648,-0.1328,0.2115,0.8304,0.1137,-0.0411,38.7375,24.975,2.25,,0.012388999999999761,0.6175492935790632,0.6433613578737966,forward_fall
3.316788,0.0308,0.503,-0.3448,0.8304,0.1137,-0.0411,38.7375,24.975,2.25,,0.015172999999999881,0.6106100883542622,0.7199452028104794,forward_fall
3.317564,0.0308,0.503,-0.3448,1.1051,-0.0478,-0.1313,38.7375,24.975,2.25,,0.0007760000000001099,0.6106100883542622,0.7759213339982924,forward_fall
3.348126,0.0308,0.503,-0.3448,1.1051,-0.0478,-0.1313,38.55,25.1813,1.4062,,0.0305620000000002,0.6106100883542622,0.8067283039841031,forward_fall
3.357913,0.0308,0.503,-0.3448,1.1051,-0.0478,-0.1313,38.55,25.1813,1.4062,,0.009786999999999768,0.6106100883542622,0.8120903514918251,forward_fall
3.378618,0.7009,0.8767,-0.0371,1.1051,-0.0478,-0.1313,38.55,25.1813,1.4062,,0.020704999999999973,1.1230494690796127,0.7977845729639901,forward_fall
3.380211,0.7009,0.8767,-0.0371,1.2056,0.3213,-0.0614,38.55,25.1813,1.4062,,0.0015930000000001776,1.1230494690796127,0.7770774624888369,forward_fall
3.408937,0.7009,0.8767,-0.0371,1.2056,0.3213,-0.0614,38.4563,25.3313,0.675,,0.028725999999999807,1.1230494690796127,0.7708914212727582,forward_fall
3.418231,0.7009,0.8767,-0.0371,1.2056,0.3213,-0.0614,38.4563,25.3313,0.675,,0.009294000000000135,1.1230494690796127,0.8057679505568617,forward_fall
3.43874,0.7009,0.8767,-0.0371,1.3418,-0.0148,-0.1402,38.4563,25.3313,0.675,,0.02050900000000011,1.1230494690796127,0.9092247352274211,forward_fall
3.440733,0.2445,-0.402,-0.6237,1.3418,-0.0148,-0.1402,38.4563,25.3313,0.675,,0.0019929999999996895,0.7812720012902038,1.1030479977086922,forward_fall
3.469101,0.2445,-0.402,-0.6237,1.3418,-0.0148,-0.1402,38.2125,25.4063,-0.3,,0.028368000000000393,0.7812720012902038,1.3961049532060865,forward_fall
3.48001,0.2445,-0.402,-0.6237,1.3418,-0.0148,-0.1402,38.2125,25.4063,-0.3,,0.010908999999999835,0.7812720012902038,1.7790023966869508,forward_fall
3.49948,0.2445,-0.402,-0.6237,1.7019,0.6543,-0.3563,38.2125,25.4063,-0.3,,0.0194700000000001,0.7812720012902038,2.2229324116991096,forward_fall
3.520047,2.5488,-3.1508,0.7454,1.7019,0.6543,-0.3563,38.2125,25.4063,-0.3,,0.02056699999999978,4.120624132337236,2.6840161506894002,forward_fall
3.529001,2.5488,-3.1508,0.7454,1.7019,0.6543,-0.3563,37.9875,25.575,-1.5563,,0.008954000000000129,4.120624132337236,3.1124838586538406,forward_fall
3.540212,2.5488,-3.1508,0.7454,1.7019,0.6543,-0.3563,37.9875,25.575,-1.5563,,0.01121099999999986,4.120624132337236,3.4639531750557992,forward_fall
3.559941,2.5488,-3.1508,0.7454,2.2879,1.6424,-0.2425,37.9875,25.575,-1.5563,,0.019728999999999886,4.120624132337236,3.7091675361959435,forward_fall
3.581072,-1.329,-2.3869,-1.8796,2.2879,1.6424,-0.2425,37.9875,25.575,-1.5563,,0.02113100000000001,3.316086363471253,3.8394892475698983,forward_fall
3.589921,-1.329,-2.3869,-1.8796,2.2879,1.6424,-0.2425,37.8188,25.8563,-2.55,,0.008849000000000107,3.316086363471253,3.867555272059954,forward_fall
3.600298,-1.329,-2.3869,-1.8796,2.2879,1.6424,-0.2425,37.8188,25.8563,-2.55,,0.01037700000000008,3.316086363471253,3.824442657279546,forward_fall
3.619782,-1.329,-2.3869,-1.8796,2.4232,0.3732,-0.3855,37.8188,25.8563,-2.55,,0.019483999999999835,3.316086363471253,3.7554829642217666,forward_fall
3.641071,-1.5736,-2.2093,-3.183,2.4232,0.3732,-0.3855,37.8188,25.8563,-2.55,,0.021289000000000335,4.181950794784654,3.7163733993136723,forward_fall
3.647638,-1.5736,-2.2093,-3.183,2.4232,0.3732,-0.3855,37.575,26.025,-3.5438,,0.0065669999999999895,4.181950794784654,3.7699730019180437,forward_fall
3.661916,-1.5736,-2.2093,-3.183,2.4232,0.3732,-0.3855,37.575,26.025,-3.5438,,0.014278000000000013,4.181950794784654,3.982934895883504,forward_fall
3.682459,-1.5736,-2.2093,-3.183,2.8155,0.7698,-0.0748,37.575,26.025,-3.5438,,0.020542999999999978,4.181950794784654,4.420752562350959,forward_fall
3.702679,-5.1887,-4.3375,-1.5718,2.8155,0.7698,-0.0748,37.575,26.025,-3.5438,,0.020219999999999683,6.9431310789873475,5.1400499296225295,forward_fall
3.707004,-5.1887,-4.3375,-1.5718,2.8155,0.7698,-0.0748,37.2938,26.0813,-4.8188,,0.004325000000000134,6.9431310789873475,6.177781653991382,forward_fall
3.722472,-5.1887,-4.3375,-1.5718,2.8155,0.7698,-0.0748,37.2938,26.0813,-4.8188,,0.015467999999999815,6.9431310789873475,7.538296747091596,forward_fall
3.743449,-5.1887,-4.3375,-1.5718,3.2638,-3.9155,-0.9037,37.2938,26.0813,-4.8188,,0.020977000000000245,6.9431310789873475,9.18102796136028,forward_fall
3.768302,-5.1887,-4.3375,-1.5718,3.2638,-3.9155,-0.9037,36.1125,26.325,-7.575,,0.024852999999999792,6.9431310789873475,11.01340393807195,forward_fall
3.784421,-0.3242,-5.3937,-14.6428,3.2638,-3.9155,-0.9037,36.1125,26.325,-7.575,,0.016119000000000216,15.607969027711452,12.893929847238686,forward_fall
3.786779,-0.3242,-5.3937,-14.6428,3.2638,-3.9155,-0.9037,36.1125,26.325,-7.575,,0.0023580000000000823,15.607969027711452,14.647963500582541,forward_fall
3.803867,-0.3242,-5.3937,-14.6428,3.3572,-2.6131,-3.316,36.1125,26.325,-7.575,,0.01708799999999977,15.607969027711452,16.09437244404922,forward_fall
3.829187,-0.3242,-5.3937,-14.6428,3.3572,-2.6131,-3.316,33.825,26.6438,-11.3625,,0.02532000000000023,15.607969027711452,17.077694618125243,forward_fall
3.844188,-1.392,12.4688,13.8161,3.3572,-2.6131,-3.316,33.825,26.6438,-11.3625,,0.01500099999999982,18.662616554224115,17.499335677734123,forward_fall
3.846096,-1.392,12.4688,13.8161,3.3572,-2.6131,-3.316,33.825,26.6438,-11.3625,,0.0019080000000002428,18.662616554224115,17.3417563540993,forward_fall
3.864199,-1.392,12.4688,13.8161,1.6742,-3.9781,-0.2297,33.825,26.6438,-11.3625,,0.01810299999999998,18.662616554224115,16.679947549700845,forward_fall
3.889401,-1.392,12.4688,13.8161,1.6742,-3.9781,-0.2297,30.525,26.7188,-15.75,,0.025201999999999725,18.662616554224115,15.675004371046574,forward_fall
3.906278,-1.392,12.4688,13.8161,1.6742,-3.9781,-0.2297,30.525,26.7188,-15.75,,0.01687700000000003,18.662616554224115,14.546836804392802,forward_fall
3.907713,5.5594,-6.5882,2.4389,1.6742,-3.9781,-0.2297,30.525,26.7188,-15.75,,0.0014350000000002971,8.958768933843533,13.527939707604135,forward_fall
3.926247,5.5594,-6.5882,2.4389,1.4513,-1.7554,-3.2082,30.525,26.7188,-15.75,,0.01853399999999983,8.958768933843533,12.80704245773617,forward_fall
3.94904,5.5594,-6.5882,2.4389,1.4513,-1.7554,-3.2082,26.3813,26.925,-19.6875,,0.022793000000000063,8.958768933843533,12.477746590278606,forward_fall
3.968952,5.5594,-6.5882,2.4389,1.4513,-1.7554,-3.2082,26.3813,26.925,-19.6875,,0.019911999999999708,8.958768933843533,12.509107861170708,forward_fall
3.988125,5.5594,-6.5882,2.4389,-1.1573,2.8532,1.2077,26.3813,26.925,-19.6875,,0.01917300000000033,8.958768933843533,12.750260440282908,forward_fall
3.989977,-10.8968,8.9474,-9.7373,-1.1573,2.8532,1.2077,26.3813,26.925,-19.6875,,0.0018519999999999648,17.135087635900785,12.970922640541229,forward_fall
4.008417,-10.8968,8.9474,-9.7373,-1.1573,2.8532,1.2077,23.25,26.9063,-23.4938,,0.018439999999999568,17.135087635900785,12.927702695330337,forward_fall
4.027524,-10.8968,8.9474,-9.7373,-1.1573,2.8532,1.2077,23.25,26.9063,-23.4938,,0.019106999999999985,17.135087635900785,12.436788228583726,forward_fall
4.048884,-10.8968,8.9474,-9.7373,-0.9744,1.3725,2.8783,23.25,26.9063,-23.4938,,0.02136000000000049,17.135087635900785,11.430644747382932,forward_fall
4.050453,-1.8146,3.5498,-5.0486,-0.9744,1.3725,2.8783,23.25,26.9063,-23.4938,,0.0015689999999999316,6.432900990999317,9.981530292115545,forward_fall
4.068751,-1.8146,3.5498,-5.0486,-0.9744,1.3725,2.8783,20.9062,26.625,-26.925,,0.018297999999999703,6.432900990999317,8.285986744043,forward_fall
4.089174,-1.8146,3.5498,-5.0486,-0.9744,1.3725,2.8783,20.9062,26.625,-26.925,,0.02042300000000008,6.432900990999317,6.6168387318648545,forward_fall
4.109991,-1.8146,3.5498,-5.0486,-0.2314,0.6952,0.7456,20.9062,26.625,-26.925,,0.020817000000000085,6.432900990999317,5.257342289384752,forward_fall
4.112413,-0.1164,1.2597,0.2813,-0.2314,0.6952,0.7456,20.9062,26.625,-26.925,,0.0024220000000001463,1.2959640195622717,4.434124972981781,forward_fall
4.130267,-0.1164,1.2597,0.2813,-0.2314,0.6952,0.7456,19.125,26.4563,-29.9063,,0.017853999999999814,1.2959640195622717,4.26363774719251,forward_fall
4.152793,-0.1164,1.2597,0.2813,-0.2314,0.6952,0.7456,19.125,26.4563,-29.9063,,0.022526000000000046,1.2959640195622717,4.723720054586915,forward_fall
4.170628,-0.1164,1.2597,0.2813,0.6716,-3.4392,-1.1928,19.125,26.4563,-29.9063,,0.017834999999999823,1.2959640195622717,5.657623892911374,forward_fall
4.172071,7.4429,3.9892,8.0361,0.6716,-3.4392,-1.1928,19.125,26.4563,-29.9063,,0.001443000000000083,11.657160042651897,6.811027084771161,forward_fall
4.188992,7.4429,3.9892,8.0361,0.6716,-3.4392,-1.1928,16.5188,26.3438,-32.9813,,0.016920999999999964,11.657160042651897,7.893488165687461,forward_fall
4.210516,7.4429,3.9892,8.0361,0.6716,-3.4392,-1.1928,16.5188,26.3438,-32.9813,,0.02152400000000032,11.657160042651897,8.647664015091786,forward_fall
4.231103,7.4429,3.9892,8.0361,0.4328,-1.689,-1.7026,16.5188,26.3438,-32.9813,,0.02058699999999991,11.657160042651897,8.90669827913087,forward_fall
4.250689,7.4429,3.9892,8.0361,0.4328,-1.689,-1.7026,14.1188,26.0813,-34.8188,,0.019586000000000325,11.657160042651897,8.624429561868249,forward_fall
4.253227,0.2449,1.9284,-3.5649,0.4328,-1.689,-1.7026,14.1188,26.0813,-34.8188,,0.002537999999999485,4.060445120919627,7.872478320703404,forward_fall
4.2726,0.2449,1.9284,-3.5649,0.4328,-1.689,-1.7026,14.1188,26.0813,-34.8188,,0.019372999999999863,4.060445120919627,6.808787067339862,forward_fall
4.291357,0.2449,1.9284,-3.5649,-0.3089,0.0728,0.1615,14.1188,26.0813,-34.8188,,0.018756999999999913,4.060445120919627,5.630031970654575,forward_fall
4.309332,0.2449,1.9284,-3.5649,-0.3089,0.0728,0.1615,12.6563,25.7625,-35.2688,,0.01797500000000074,4.060445120919627,4.5229669104085515,forward_fall
4.311028,-1.6611,1.8547,-1.3238,-0.3089,0.0728,0.1615,12.6563,25.7625,-35.2688,,0.0016959999999999198,2.819860234125089,3.6269376940230043,forward_fall
4.330487,-1.6611,1.8547,-1.3238,-0.3089,0.0728,0.1615,12.6563,25.7625,-35.2688,,0.01945899999999945,2.819860234125089,3.013948656908419,forward_fall
4.35142,-1.6611,1.8547,-1.3238,-0.1672,-0.728,-0.1633,12.6563,25.7625,-35.2688,,0.020933000000000312,2.819860234125089,2.686953581397223,forward_fall
4.368389,-1.6611,1.8547,-1.3238,-0.1672,-0.728,-0.1633,12.075,25.9125,-35.2688,,0.016968999999999568,2.819860234125089,2.5930654695710955,forward_fall
4.372211,3.2551,-0.8768,1.6178,-0.1672,-0.728,-0.1633,12.075,25.9125,-35.2688,,0.003822000000000436,3.7392153040444196,2.646109885927948,forward_fall
4.393623,3.2551,-0.8768,1.6178,-0.1672,-0.728,-0.1633,12.075,25.9125,-35.2688,,0.021411999999999765,3.7392153040444196,2.752024730998975,forward_fall
4.413066,3.2551,-0.8768,1.6178,-0.235,0.4549,-0.0965,12.075,25.9125,-35.2688,,0.019442999999999877,3.7392153040444196,2.830938491383803,forward_fall
4.43139,3.2551,-0.8768,1.6178,-0.235,0.4549,-0.0965,12.3,26.1188,-34.8938,,0.018324000000000673,3.7392153040444196,2.8313264818446537,forward_fall
4.434147,-0.23,-1.6317,-0.5182,-0.235,0.4549,-0.0965,12.3,26.1188,-34.8938,,0.0027569999999998984,1.7273899762358238,2.7342216298142796,forward_fall
4.453718,-0.23,-1.6317,-0.5182,-0.235,0.4549,-0.0965,12.3,26.1188,-34.8938,,0.019571000000000005,1.7273899762358238,2.548431011832085,forward_fall
4.474146,-0.23,-1.6317,-0.5182,-0.2027,0.3722,0.0326,12.3,26.1188,-34.8938,,0.02042799999999989,1.7273899762358238,2.3001321777837,forward_fall
4.488622,-0.23,-1.6317,-0.5182,-0.2027,0.3722,0.0326,11.8125,26.4563,-34.875,,0.014476000000000155,1.7273899762358238,2.0211925884169535,forward_fall
4.514754,-0.23,-1.6317,-0.5182,-0.2027,0.3722,0.0326,11.8125,26.4563,-34.875,,0.0261319999999996,1.7273899762358238,1.7398356933090282,forward_fall
4.516403,0.7107,-1.156,0.2768,-0.2027,0.3722,0.0326,11.8125,26.4563,-34.875,,0.0016490000000004557,1.384936363158972,1.4755257041294176,forward_fall
4.535516,0.7107,-1.156,0.2768,-0.136,0.7705,0.2237,11.8125,26.4563,-34.875,,0.019112999999999936,1.384936363158972,1.2381510320628686,forward_fall
4.549476,0.7107,-1.156,0.2768,-0.136,0.7705,0.2237,10.6125,26.9625,-35.2875,,0.013959999999999972,1.384936363158972,1.0303601778184586,forward_fall
4.575537,0.7107,-1.156,0.2768,-0.136,0.7705,0.2237,10.6125,26.9625,-35.2875,,0.026060999999999446,1.384936363158972,0.8513446387215179,forward_fall
4.577068,-0.2514,-0.2701,-0.3367,-0.136,0.7705,0.2237,10.6125,26.9625,-35.2875,,0.001530999999999949,0.49952263211990705,0.7003858702718921,forward_fall
4.595441,-0.2514,-0.2701,-0.3367,-0.2184,1.1084,0.3593,10.6125,26.9625,-35.2875,,0.018373000000000417,0.49952263211990705,0.578991935590236,forward_fall
4.608867,-0.2514,-0.2701,-0.3367,-0.2184,1.1084,0.3593,9.3375,27.4313,-35.9813,,0.013425999999999938,0.49952263211990705,0.49122947932440103,forward_fall
4.636659,-0.2514,-0.2701,-0.3367,-0.2184,1.1084,0.3593,9.3375,27.4313,-35.9813,,0.027791999999999817,0.49952263211990705,0.44254218298715275,forward_fall
4.638384,0.0015,0.4017,0.1082,-0.2184,1.1084,0.3593,9.3375,27.4313,-35.9813,,0.0017250000000004206,0.41601968703415954,0.43768139598960853,forward_fall
4.656259,0.0015,0.4017,0.1082,0.0912,-0.061,0.0874,9.3375,27.4313,-35.9813,,0.017875000000000085,0.41601968703415954,0.47841726468274937,forward_fall
4.66874,0.0015,0.4017,0.1082,0.0912,-0.061,0.0874,9.0563,27.75,-35.85,,0.012480999999999298,0.41601968703415954,0.5616561391270116,forward_fall
4.698456,0.0015,0.4017,0.1082,0.0912,-0.061,0.0874,9.0563,27.75,-35.85,,0.02971600000000052,0.41601968703415954,0.6785431092081073,forward_fall
4.718208,0.0015,0.4017,0.1082,-0.0071,0.349,-0.0354,9.0563,27.75,-35.85,,0.019751999999999548,0.41601968703415954,0.8149978765099178,forward_fall
4.720405,1.0884,0.0524,-0.8507,-0.0071,0.349,-0.0354,9.0563,27.75,-35.85,,0.0021970000000006706,1.3824076135496361,0.9538089604801926,forward_fall
4.728673,1.0884,0.0524,-0.8507,-0.0071,0.349,-0.0354,9.6,28.1813,-35.4938,,0.008267999999999276,1.3824076135496361,1.0778891456930666,forward_fall
4.759502,1.0884,0.0524,-0.8507,-0.0071,0.349,-0.0354,9.6,28.1813,-35.4938,,0.03082900000000066,1.3824076135496361,1.1737712093262693,forward_fall
4.778373,-0.9258,0.1936,0.7818,-0.0071,0.349,-0.0354,9.6,28.1813,-35.4938,,0.01887099999999986,1.2271095468620559,1.234233722831396,forward_fall
4.780213,-0.9258,0.1936,0.7818,0.0188,-0.0734,-0.2059,9.6,28.1813,-35.4938,,0.0018399999999996197,1.2271095468620559,1.2592643939408965,forward_fall
4.788689,-0.9258,0.1936,0.7818,0.0188,-0.0734,-0.2059,10.0688,28.4063,-35.4188,,0.008475999999999928,1.2271095468620559,1.2551939777662413,forward_fall
4.820108,-0.9258,0.1936,0.7818,0.0188,-0.0734,-0.2059,10.0688,28.4063,-35.4188,,0.03141900000000053,1.2271095468620559,1.2323951265177784,forward_fall
4.841717,-0.9258,0.1936,0.7818,0.022,-0.3045,-0.2222,10.0688,28.4063,-35.4188,,0.021608999999999767,1.2271095468620559,1.2022328214252023,forward_fall
4.845289,0.7965,-0.5153,-0.2422,0.022,-0.3045,-0.2222,10.0688,28.4063,-35.4188,,0.0035720000000001306,0.9790848686400991,1.1740160248387994,non_fall
4.849925,0.7965,-0.5153,-0.2422,0.022,-0.3045,-0.2222,10.7625,28.5188,-34.9688,,0.00463599999999964,0.9790848686400991,1.1526519314236776,non_fall
4.879642,0.7965,-0.5153,-0.2422,0.022,-0.3045,-0.2222,10.7625,28.5188,-34.9688,,0.02971699999999977,0.9790848686400991,1.137583678152282,non_fall
4.900913,0.7965,-0.5153,-0.2422,0.0241,-0.0712,-0.2751,10.7625,28.5188,-34.9688,,0.021271000000000484,0.9790848686400991,1.1233486233801877,non_fall
4.902819,0.7048,-1.0357,0.1505,0.0241,-0.0712,-0.2751,10.7625,28.5188,-34.9688,,0.0019059999999999633,1.2617716829918162,1.1016906792070937,non_fall
4.90882,0.7048,-1.0357,0.1505,0.0241,-0.0712,-0.2751,11.4188,28.7438,-34.5938,,0.006001000000000367,1.2617716829918162,1.0646684736525422,non_fall
4.941239,0.7048,-1.0357,0.1505,0.0241,-0.0712,-0.2751,11.4188,28.7438,-34.5938,,0.032418999999999976,1.2617716829918162,1.0077969697608034,non_fall
4.961333,0.7048,-1.0357,0.1505,-0.0228,0.124,-0.2127,11.4188,28.7438,-34.5938,,0.02009399999999939,1.2617716829918162,0.9321364481743404,non_fall
4.970953,0.7048,-1.0357,0.1505,-0.0228,0.124,-0.2127,11.8875,28.7625,-34.4062,,0.009619999999999962,1.2617716829918162,0.844508502183795,non_fall
4.981888,-0.0826,0.0901,-0.1693,-0.0228,0.124,-0.2127,11.8875,28.7625,-34.4062,,0.010934999999999917,0.20881393631652082,0.7556504257112105,non_fall
5.002021,-0.0826,0.0901,-0.1693,-0.0228,0.124,-0.2127,11.8875,28.7625,-34.4062,,0.0201330000000004,0.20881393631652082,0.6769508435213261,non_fall
5.023571,-0.0826,0.0901,-0.1693,-0.0326,0.1683,-0.1863,11.8875,28.7625,-34.4062,,0.021549999999999514,0.20881393631652082,0.6171040088297881,non_fall
5.028058,-0.0826,0.0901,-0.1693,-0.0326,0.1683,-0.1863,12.0188,28.7063,-34.3313,,0.00448700000000013,0.20881393631652082,0.5801529691604829,non_fall
5.043154,-0.6486,-0.1312,0.7872,-0.0326,0.1683,-0.1863,12.0188,28.7063,-34.3313,,0.015096000000000664,1.0283867171448686,0.5657588427469914,non_fall
5.062431,-0.6486,-0.1312,0.7872,-0.0326,0.1683,-0.1863,12.0188,28.7063,-34.3313,,0.019276999999999767,1.0283867171448686,0.5714024604927936,non_fall
5.083216,-0.6486,-0.1312,0.7872,0.2822,-0.41,-0.1161,12.0188,28.7063,-34.3313,,0.020785000000000053,1.0283867171448686,0.5952058335944101,non_fall
5.088133,-0.6486,-0.1312,0.7872,0.2822,-0.41,-0.1161,11.9438,28.7063,-34.0875,,0.004916999999999838,1.0283867171448686,0.6377217865597892,non_fall
5.103188,-0.1123,-0.4652,-0.088,0.2822,-0.41,-0.1161,11.9438,28.7063,-34.0875,,0.015055000000000263,0.48658640548210963,0.7015698046849685,non_fall
5.123732,-0.1123,-0.4652,-0.088,0.2822,-0.41,-0.1161,11.9438,28.7063,-34.0875,,0.020544000000000118,0.48658640548210963,0.7889128636805102,non_fall
5.144904,-0.1123,-0.4652,-0.088,0.1136,-0.2847,-0.1225,11.9438,28.7063,-34.0875,,0.02117199999999997,0.48658640548210963,0.8979096236844886,non_fall
5.148071,-0.1123,-0.4652,-0.088,0.1136,-0.2847,-0.1225,11.7,28.9313,-34.3875,,0.003166999999999476,0.48658640548210963,1.0199063210583734,non_fall
5.186216,-0.1123,-0.4652,-0.088,0.1136,-0.2847,-0.1225,11.7,28.9313,-34.3875,,0.038145000000000095,0.48658640548210963,1.1389833334810093,non_fall
5.188151,1.594,0.4094,-0.8891,0.1136,-0.2847,-0.1225,11.7,28.9313,-34.3875,,0.0019350000000004641,1.8705462223639382,1.2345875952971892,non_fall
5.205065,1.594,0.4094,-0.8891,-0.0633,0.0786,-0.2577,11.7,28.9313,-34.3875,,0.016913999999999874,1.8705462223639382,1.286666376035847,non_fall
5.209772,1.594,0.4094,-0.8891,-0.0633,0.0786,-0.2577,10.9875,28.9875,-34.5375,,0.004706999999999795,1.8705462223639382,1.2815041225788826,non_fall
5.246445,1.594,0.4094,-0.8891,-0.0633,0.0786,-0.2577,10.9875,28.9875,-34.5375,,0.03667299999999951,1.8705462223639382,1.2159944500013957,non_fall
5.247621,-0.0696,0.4309,0.1321,-0.0633,0.0786,-0.2577,10.9875,28.9875,-34.5375,,0.0011760000000000659,0.45603659940842467,1.0987069862383874,non_fall
5.265236,-0.0696,0.4309,0.1321,-0.0426,-0.1047,-0.3816,10.9875,28.9875,-34.5375,,0.01761500000000016,0.45603659940842467,0.9475489121668801,non_fall
5.268799,-0.0696,0.4309,0.1321,-0.0426,-0.1047,-0.3816,10.5563,29.1188,-34.4813,,0.003562999999999761,0.45603659940842467,0.7852780429716074,non_fall
5.307124,-0.0696,0.4309,0.1321,-0.0426,-0.1047,-0.3816,10.5563,29.1188,-34.4813,,0.03832500000000039,0.45603659940842467,0.6348068262456814,non_fall
5.309145,-0.0017,0.5409,0.3002,-0.0426,-0.1047,-0.3816,10.5563,29.1188,-34.4813,,0.0020210000000000505,0.6186240700134453,0.5158795385409869,non_fall
5.326902,-0.0017,0.5409,0.3002,0.0262,-0.5843,-0.6233,10.5563,29.1188,-34.4813,,0.01775699999999958,0.6186240700134453,0.4437003050539104,non_fall
5.329402,-0.0017,0.5409,0.3002,0.0262,-0.5843,-0.6233,9.8625,29.2313,-34.7438,,0.002500000000000391,0.6186240700134453,0.42909843272472326,non_fall
5.367225,-0.0017,0.5409,0.3002,0.0262,-0.5843,-0.6233,9.8625,29.2313,-34.7438,,0.037823000000000384,0.6186240700134453,0.47928206015714825,non_fall
5.368594,0.5077,0.3342,-0.6182,0.0262,-0.5843,-0.6233,9.8625,29.2313,-34.7438,,0.0013689999999995095,0.8669603047429565,0.5982292898200272,non_fall
5.38644,0.5077,0.3342,-0.6182,-0.2336,-0.22,-0.8219,9.8625,29.2313,-34.7438,,0.017846000000000473,0.8669603047429565,0.7861522399784279,non_fall
5.387726,0.5077,0.3342,-0.6182,-0.2336,-0.22,-0.8219,9.0188,29.4,-34.9688,,0.0012859999999994542,0.8669603047429565,1.0380497826054043,non_fall
5.430923,0.5077,0.3342,-0.6182,-0.2336,-0.22,-0.8219,9.0188,29.4,-34.9688,,0.04319700000000015,0.8669603047429565,1.3419652853115276,non_fall
5.452362,0.5077,0.3342,-0.6182,-0.2336,-0.22,-0.8219,7.95,29.55,-34.9688,,0.021438999999999986,0.8669603047429565,1.6779800159541063,non_fall
5.455063,-2.2542,-1.4287,0.0801,-0.2336,-0.22,-0.8219,7.95,29.55,-34.9688,,0.0027010000000000645,2.6700219736923514,2.0189377434874847,non_fall
5.456253,-2.2542,-1.4287,0.0801,-0.2201,-0.3489,-0.361,7.95,29.55,-34.9688,,0.0011900000000002464,2.6700219736923514,2.3332808655882196,non_fall
5.489637,-2.2542,-1.4287,0.0801,-0.2201,-0.3489,-0.361,7.95,29.55,-34.9688,,0.03338399999999986,2.6700219736923514,2.589468459546208,non_fall
5.509503,-2.2542,-1.4287,0.0801,0.1664,-0.7838,-0.1289,7.95,29.55,-34.9688,,0.019865999999999495,2.6700219736923514,2.760854408658243,non_fall
5.5112,-2.2542,-1.4287,0.0801,0.1664,-0.7838,-0.1289,6.8438,29.9438,-34.95,,0.0016970000000000596,2.6700219736923514,2.8299878980887585,non_fall
5.512544,0.4077,-0.7021,2.5686,0.1664,-0.7838,-0.1289,6.8438,29.9438,-34.95,,0.001344000000000456,2.693857765361787,2.7917912356320524,non_fall
5.552172,0.4077,-0.7021,2.5686,0.1664,-0.7838,-0.1289,6.8438,29.9438,-34.95,,0.03962799999999955,2.693857765361787,2.65543938398184,non_fall
5.570265,0.4077,-0.7021,2.5686,0.1664,-0.7838,-0.1289,5.3438,30.1313,-35.175,,0.01809300000000036,2.693857765361787,2.444777715424083,non_fall
5.571925,0.4077,-0.7021,2.5686,0.4384,-1.0075,-0.5591,5.3438,30.1313,-35.175,,0.0016600000000002169,2.693857765361787,2.1969315790391244,non_fall
5.573135,1.7496,-0.0549,-0.5173,0.4384,-1.0075,-0.5591,5.3438,30.1313,-35.175,,0.0012099999999994893,1.8252981838592839,1.9586972925780715,non_fall
5.613912,1.7496,-0.0549,-0.5173,0.4384,-1.0075,-0.5591,5.3438,30.1313,-35.175,,0.040777000000000285,1.8252981838592839,1.7805787807941473,non_fall
5.62795,1.7496,-0.0549,-0.5173,0.4384,-1.0075,-0.5591,3.6375,30.1875,-35.2688,,0.014038000000000217,1.8252981838592839,1.708915255556379,non_fall
5.631064,1.7496,-0.0549,-0.5173,0.4192,-0.52,-0.8598,3.6375,30.1875,-35.2688,,0.003114000000000061,1.8252981838592839,1.7771785466660441,non_fall
5.652644,1.6545,-0.6837,-0.1004,0.4192,-0.52,-0.8598,3.6375,30.1875,-35.2688,,0.021579999999999266,1.7930131343634936,1.9979775881016697,non_fall
5.671948,1.6545,-0.6837,-0.1004,0.4192,-0.52,-0.8598,3.6375,30.1875,-35.2688,,0.019304000000000876,1.7930131343634936,2.3575581632987492,non_fall
5.68884,1.6545,-0.6837,-0.1004,0.4192,-0.52,-0.8598,1.8375,30.2438,-35.4938,,0.016891999999999463,1.7930131343634936,2.8146231428074016,non_fall
5.692,1.6545,-0.6837,-0.1004,0.2649,-0.5136,-0.8125,1.8375,30.2438,-35.4938,,0.0031600000000002737,1.7930131343634936,3.3049152332612706,non_fall
5.711918,-5.0054,1.0796,-0.9336,0.2649,-0.5136,-0.8125,1.8375,30.2438,-35.4938,,0.019917999999999658,5.204918277936744,3.7518571618009906,non_fall
5.733359,-5.0054,1.0796,-0.9336,0.2649,-0.5136,-0.8125,1.8375,30.2438,-35.4938,,0.021441000000000265,5.204918277936744,4.081577974187152,non_fall
5.750699,-5.0054,1.0796,-0.9336,0.2649,-0.5136,-0.8125,-0.45,30.1313,-35.7375,,0.01733999999999991,5.204918277936744,4.238587380908192,non_fall
5.753951,-5.0054,1.0796,-0.9336,-0.2474,-2.1661,-0.2872,-0.45,30.1313,-35.7375,,0.0032519999999998106,5.204918277936744,4.19750548992534,non_fall
5.773574,-2.7207,-0.181,-1.2665,-0.2474,-2.1661,-0.2872,-0.45,30.1313,-35.7375,,0.019623000000000168,3.00649159985522,3.9674277967356937,non_fall
5.79431,-2.7207,-0.181,-1.2665,-0.2474,-2.1661,-0.2872,-0.45,30.1313,-35.7375,,0.02073600000000031,3.00649159985522,3.58816125629842,non_fall
5.808898,-2.7207,-0.181,-1.2665,-0.2474,-2.1661,-0.2872,-3.2813,30.0938,-35.6438,,0.014587999999999823,3.00649159985522,3.1202213781578485,non_fall
5.81639,-2.7207,-0.181,-1.2665,-0.1229,-2.1245,-0.6691,-3.2813,30.0938,-35.6438,,0.007492000000000054,3.00649159985522,2.631867357033457,non_fall
5.834122,1.401,0.1181,0.4577,-0.1229,-2.1245,-0.6691,-3.2813,30.0938,-35.6438,,0.017731999999999637,1.4785932165406415,2.1863532328900597,non_fall
5.854575,1.401,0.1181,0.4577,-0.1229,-2.1245,-0.6691,-3.2813,30.0938,-35.6438,,0.020452999999999832,1.4785932165406415,1.8317114656046438,non_fall
5.869247,1.401,0.1181,0.4577,-0.1229,-2.1245,-0.6691,-6.4875,29.9438,-35.25,,0.014672000000000018,1.4785932165406415,1.5945116243482715,non_fall
5.874286,1.401,0.1181,0.4577,0.1477,-1.6425,0.3153,-6.4875,29.9438,-35.25,,0.005039000000000016,1.4785932165406415,1.4782594876443078,non_fall
5.915677,1.401,0.1181,0.4577,0.1477,-1.6425,0.3153,-6.4875,29.9438,-35.25,,0.041390999999999956,1.4785932165406415,1.466225640751509,non_fall
5.918564,1.537,0.0231,1.0989,0.1477,-1.6425,0.3153,-6.4875,29.9438,-35.25,,0.002887000000000306,1.8895723907805173,1.5276018205013457,non_fall
5.928588,1.537,0.0231,1.0989,0.1477,-1.6425,0.3153,-8.9813,29.5688,-35.0625,,0.010024000000000477,1.8895723907805173,1.6252838435272499,non_fall
5.935292,1.537,0.0231,1.0989,0.1818,-0.3925,0.8044,-8.9813,29.5688,-35.0625,,0.006703999999999155,1.8895723907805173,1.7234560784619246,non_fall
5.975546,1.537,0.0231,1.0989,0.1818,-0.3925,0.8044,-8.9813,29.5688,-35.0625,,0.04025400000000001,1.8895723907805173,1.79348917773049,non_fall
5.977036,1.6446,-0.4094,0.3504,0.1818,-0.3925,0.8044,-8.9813,29.5688,-35.0625,,0.0014900000000004354,1.7306350510722937,1.8173143767560112,non_fall
5.987275,1.6446,-0.4094,0.3504,0.1818,-0.3925,0.8044,-11.8313,29.325,-34.8375,,0.010239000000000331,1.7306350510722937,1.7881669513241805,non_fall
5.995074,1.6446,-0.4094,0.3504,0.381,-0.2854,0.5344,-11.8313,29.325,-34.8375,,0.007798999999999445,1.7306350510722937,1.7091600634023296,non_fall
6.036011,1.6446,-0.4094,0.3504,0.381,-0.2854,0.5344,-11.8313,29.325,-34.8375,,0.040937000000000445,1.7306350510722937,1.5904431786696827,non_fall
6.037779,0.0976,0.2472,-1.0387,0.381,-0.2854,0.5344,-11.8313,29.325,-34.8375,,0.0017679999999993257,1.072161970039975,1.4457655420709359,non_fall
6.047741,0.0976,0.2472,-1.0387,0.381,-0.2854,0.5344,-14.3813,29.1938,-34.5,,0.009962000000000693,1.072161970039975,1.2892263622838076,non_fall
6.056791,0.0976,0.2472,-1.0387,0.1886,0.2486,0.1549,-14.3813,29.1938,-34.5,,0.009049999999999336,1.072161970039975,1.1328827828503683,non_fall
6.097343,0.0976,0.2472,-1.0387,0.1886,0.2486,0.1549,-14.3813,29.1938,-34.5,,0.04055200000000081,1.072161970039975,0.9856168799247609,non_fall
6.107402,0.0976,0.2472,-1.0387,0.1886,0.2486,0.1549,-16.5375,29.2875,-34.4813,,0.01005900000000004,1.072161970039975,0.8532101989510967,non_fall
6.117724,0.0976,0.2472,-1.0387,0.3983,-0.1061,0.1502,-16.5375,29.2875,-34.4813,,0.010321999999999498,1.072161970039975,0.7391248443649596,non_fall
6.119052,0.117,-0.3103,0.3454,0.3983,-0.1061,0.1502,-16.5375,29.2875,-34.4813,,0.0013279999999999959,0.4788279962575288,0.6453123500082979,non_fall
6.158273,0.117,-0.3103,0.3454,0.3983,-0.1061,0.1502,-16.5375,29.2875,-34.4813,,0.039221000000000394,0.4788279962575288,0.57257319302434,non_fall
6.167653,0.117,-0.3103,0.3454,0.3983,-0.1061,0.1502,-18.2063,29.2125,-34.1813,,0.009379999999999278,0.4788279962575288,0.5204188569791549,non_fall
6.177983,0.117,-0.3103,0.3454,0.4157,-0.4603,0.1314,-18.2063,29.2125,-34.1813,,0.010330000000000616,0.4788279962575288,0.486751292579655,non_fall
6.179626,-0.188,0.3188,-0.0972,0.4157,-0.4603,0.1314,-18.2063,29.2125,-34.1813,,0.001642999999999617,0.38265556313739907,0.4677790653279392,non_fall
6.219498,-0.188,0.3188,-0.0972,0.4157,-0.4603,0.1314,-18.2063,29.2125,-34.1813,,0.03987199999999991,0.38265556313739907,0.4584729312081187,non_fall
6.227398,-0.188,0.3188,-0.0972,0.4157,-0.4603,0.1314,-19.65,29.25,-33.975,,0.00790000000000024,0.38265556313739907,0.45366844816398666,non_fall
6.239743,-0.188,0.3188,-0.0972,0.3987,-0.1185,0.2186,-19.65,29.25,-33.975,,0.012344999999999828,0.38265556313739907,0.44971955936087893,non_fall
6.241825,0.2595,0.0144,-0.5729,0.3987,-0.1185,0.2186,-19.65,29.25,-33.975,,0.0020820000000005834,0.6290961929625707,0.44638833365721425,non_fall
6.285965,0.2595,0.0144,-0.5729,0.3987,-0.1185,0.2186,-19.65,29.25,-33.975,,0.044139999999999624,0.6290961929625707,0.44843928120743126,non_fall
6.288531,0.2595,0.0144,-0.5729,0.3987,-0.1185,0.2186,-20.3813,29.1563,-34.1063,,0.002565999999999846,0.6290961929625707,0.46627985266768407,non_fall
6.30075,-0.3203,0.6081,-0.2133,0.3987,-0.1185,0.2186,-20.3813,29.1563,-34.1063,,0.01221899999999998,0.7196350394470796,0.5150658619587558,non_fall
6.302404,-0.3203,0.6081,-0.2133,0.3245,-0.149,0.1634,-20.3813,29.1563,-34.1063,,0.0016540000000002664,0.7196350394470796,0.6120211199627261,non_fall
6.341039,-0.3203,0.6081,-0.2133,0.3245,-0.149,0.1634,-20.3813,29.1563,-34.1063,,0.0386350000000002,0.7196350394470796,0.7722432281905236,non_fall
6.348245,-0.3203,0.6081,-0.2133,0.3245,-0.149,0.1634,-20.475,29.0063,-34.5938,,0.007206000000000046,0.7196350394470796,1.0038449545422083,non_fall
6.360626,-0.3203,0.6081,-0.2133,0.3163,-0.2272,0.4065,-20.475,29.0063,-34.5938,,0.012380999999999531,0.7196350394470796,1.3037390668585793,non_fall
6.381344,0.2597,1.633,0.7056,0.3163,-0.2272,0.4065,-20.475,29.0063,-34.5938,,0.02071800000000046,1.7977776419791185,1.6555158871027225,non_fall
6.401596,0.2597,1.633,0.7056,0.3163,-0.2272,0.4065,-20.475,29.0063,-34.5938,,0.02025199999999927,1.7977776419791185,2.0305462639400673,non_fall
6.409334,0.2597,1.633,0.7056,0.3163,-0.2272,0.4065,-20.2313,28.8938,-35.5125,,0.007738000000000689,1.7977776419791185,2.392728381823539,non_fall
6.421866,0.2597,1.633,0.7056,0.274,1.0466,0.3398,-20.2313,28.8938,-35.5125,,0.012531999999999321,1.7977776419791185,2.7064052096208004,non_fall
6.442786,-2.1641,3.6822,-0.9313,0.274,1.0466,0.3398,-20.2313,28.8938,-35.5125,,0.02092000000000027,4.371412282089165,2.946013314468497,non_fall
6.463003,-2.1641,3.6822,-0.9313,0.274,1.0466,0.3398,-20.2313,28.8938,-35.5125,,0.020216999999999707,4.371412282089165,3.104962799826861,non_fall
6.467953,-2.1641,3.6822,-0.9313,0.274,1.0466,0.3398,-19.8563,28.5563,-36.1875,,0.00495000000000001,4.371412282089165,3.2004451215545613,non_fall
6.48373,-2.1641,3.6822,-0.9313,0.2246,0.0033,1.1424,-19.8563,28.5563,-36.1875,,0.015777000000000818,4.371412282089165,3.2711974246986664,non_fall
6.504408,0.9622,1.8,-0.5021,0.2246,0.0033,1.1424,-19.8563,28.5563,-36.1875,,0.020677999999999308,2.1018880203283907,3.3673096172065002,non_fall
6.524282,0.9622,1.8,-0.5021,0.2246,0.0033,1.1424,-19.8563,28.5563,-36.1875,,0.019874000000000613,2.1018880203283907,3.5343951365903012,non_fall
6.527952,0.9622,1.8,-0.5021,0.2246,0.0033,1.1424,-19.2188,28.2188,-36.6,,0.003669999999999618,2.1018880203283907,3.797319648242716,non_fall
6.546555,0.9622,1.8,-0.5021,0.2393,-0.2871,0.6539,-19.2188,28.2188,-36.6,,0.018602999999999703,2.1018880203283907,4.149581217641315,non_fall
6.586151,2.5512,-5.1128,-2.3332,0.2393,-0.2871,0.6539,-19.2188,28.2188,-36.6,,0.03959600000000041,6.171966260439213,4.552620065107334,non_fall
6.588217,2.5512,-5.1128,-2.3332,0.2393,-0.2871,0.6539,-19.2188,28.2188,-36.6,,0.0020660000000001233,6.171966260439213,4.9454490957505275,non_fall
6.589246,2.5512,-5.1128,-2.3332,0.2393,-0.2871,0.6539,-19.1813,27.525,-36.75,,0.0010289999999999466,6.171966260439213,5.260889320318013,non_fall
6.605809,2.5512,-5.1128,-2.3332,0.4437,-1.8044,0.1811,-19.1813,27.525,-36.75,,0.01656299999999966,6.171966260439213,5.4424536646740505,non_fall
6.646512,2.5512,-5.1128,-2.3332,0.4437,-1.8044,0.1811,-19.1813,27.525,-36.75,,0.0407030000000006,6.171966260439213,5.456492102485073,non_fall
6.648548,-2.2303,2.7266,2.356,0.4437,-1.8044,0.1811,-19.1813,27.525,-36.75,,0.0020359999999994827,4.237843986038183,5.296828278030095,non_fall
6.650162,-2.2303,2.7266,2.356,0.4437,-1.8044,0.1811,-19.3688,27.1688,-37.125,,0.0016140000000000043,4.237843986038183,4.982186055451402,non_fall
6.666648,-2.2303,2.7266,2.356,-0.0369,-0.3474,2.3147,-19.3688,27.1688,-37.125,,0.016486000000000445,4.237843986038183,4.548903144046036,non_fall
6.707517,-2.2303,2.7266,2.356,-0.0369,-0.3474,2.3147,-19.3688,27.1688,-37.125,,0.04086899999999982,4.237843986038183,4.042088485313203,non_fall
6.709745,-2.2303,2.7266,2.356,-0.0369,-0.3474,2.3147,-18.975,27.1125,-37.2938,,0.0022279999999996747,4.237843986038183,3.50760766885231,non_fall
6.710906,-0.8323,-1.8107,1.0392,-0.0369,-0.3474,2.3147,-18.975,27.1125,-37.2938,,0.0011609999999997456,2.247508491641355,2.985953137837985,non_fall
6.726987,-0.8323,-1.8107,1.0392,-0.1385,-0.2818,1.6791,-18.975,27.1125,-37.2938,,0.016081000000000678,2.247508491641355,2.5081645451658074,non_fall
6.770041,-0.8323,-1.8107,1.0392,-0.1385,-0.2818,1.6791,-18.975,27.1125,-37.2938,,0.043053999999999704,2.247508491641355,2.0937609970374718,non_fall
6.77162,-0.8323,-1.8107,1.0392,-0.1385,-0.2818,1.6791,-18.2063,27.4313,-37.275,,0.0015790000000004412,2.247508491641355,1.7506386628300041,non_fall
6.772725,-0.0929,-1.0646,0.3222,-0.1385,-0.2818,1.6791,-18.2063,27.4313,-37.275,,0.0011049999999999116,1.1161614623341911,1.4766662206381695,non_fall
6.790337,-0.0929,-1.0646,0.3222,-0.3337,-0.0862,1.7786,-18.2063,27.4313,-37.275,,0.01761199999999974,1.1161614623341911,1.2624434655700747,non_fall
6.829513,-0.0929,-1.0646,0.3222,-0.3337,-0.0862,1.7786,-17.2688,27.9375,-37.3313,,0.03917600000000032,1.1161614623341911,1.0946609553840887,non_fall
6.831948,-0.0929,-1.0646,0.3222,-0.3337,-0.0862,1.7786,-17.2688,27.9375,-37.3313,,0.002434999999999299,1.1161614623341911,0.9595995804619125,non_fall
6.849579,-0.0929,-1.0646,0.3222,-0.436,-0.1561,1.7609,-17.2688,27.9375,-37.3313,,0.01763100000000062,1.1161614623341911,0.8462799629398923,non_fall
6.852333,-0.1811,0.4533,-0.5677,-0.436,-0.1561,1.7609,-17.2688,27.9375,-37.3313,,0.002753999999999479,0.7487064778669943,0.7486583852345569,non_fall
6.889288,-0.1811,0.4533,-0.5677,-0.436,-0.1561,1.7609,-17.2688,27.9375,-37.3313,,0.03695499999999985,0.7487064778669943,0.6663204459196553,non_fall
6.890916,-0.1811,0.4533,-0.5677,-0.436,-0.1561,1.7609,-16.0312,28.6313,-37.0125,,0.0016280000000001849,0.7487064778669943,0.6034371427499661,non_fall
6.90982,-0.1811,0.4533,-0.5677,-0.3834,-0.2108,1.8176,-16.0312,28.6313,-37.0125,,0.018904000000000032,0.7487064778669943,0.5661890968770397,non_fall
6.911429,-0.0686,0.0913,-0.1794,-0.3834,-0.2108,1.8176,-16.0312,28.6313,-37.0125,,0.0016090000000001936,0.21266407783168273,0.5592902069937359,non_fall
6.949076,-0.0686,0.0913,-0.1794,-0.3834,-0.2108,1.8176,-14.7375,29.6625,-36.5063,,0.037646999999999764,0.21266407783168273,0.5826005716468536,non_fall
6.951005,-0.0686,0.0913,-0.1794,-0.3834,-0.2108,1.8176,-14.7375,29.6625,-36.5063,,0.0019290000000005136,0.21266407783168273,0.6290251888142554,non_fall
6.971526,-0.0686,0.0913,-0.1794,-0.4609,0.0622,1.9568,-14.7375,29.6625,-36.5063,,0.020520999999999567,0.21266407783168273,0.6847485803047094,non_fall
6.973624,0.4432,-0.0243,-1.1056,-0.4609,0.0622,1.9568,-14.7375,29.6625,-36.5063,,0.0020980000000001553,1.1913723557309863,0.7322022208975562,non_fall
7.00889,0.4432,-0.0243,-1.1056,-0.4609,0.0622,1.9568,-13.0125,30.9938,-36.0375,,0.03526600000000002,1.1913723557309863,0.7551256639390659,non_fall
7.01162,0.4432,-0.0243,-1.1056,-0.4609,0.0622,1.9568,-13.0125,30.9938,-36.0375,,0.002729999999999677,1.1913723557309863,0.7441010152746291,non_fall
7.031771,0.4432,-0.0243,-1.1056,-0.7782,0.4807,2.2518,-13.0125,30.9938,-36.0375,,0.020151000000000252,1.1913723557309863,0.7005439695006709,non_fall
7.05299,-0.1153,0.1546,0.3602,-0.7782,0.4807,2.2518,-13.0125,30.9938,-36.0375,,0.02121900000000032,0.40858204806378856,0.637590258307609,non_fall
7.068988,-0.1153,0.1546,0.3602,-0.7782,0.4807,2.2518,-10.0688,32.625,-35.25,,0.015997999999999735,0.40858204806378856,0.5774212127331407,non_fall
7.071054,-0.1153,0.1546,0.3602,-0.7782,0.4807,2.2518,-10.0688,32.625,-35.25,,0.0020660000000001233,0.40858204806378856,0.5457911879013349,non_fall
7.094338,-0.1153,0.1546,0.3602,-0.8076,0.4431,2.1775,-10.0688,32.625,-35.25,,0.023283999999999416,0.40858204806378856,0.5653326228131348,non_fall
7.113176,-0.5399,-0.0527,-0.1734,-0.8076,0.4431,2.1775,-10.0688,32.625,-35.25,,0.018838000000000577,0.5695058033066915,0.6494075173703059,non_fall
7.127748,-0.5399,-0.0527,-0.1734,-0.8076,0.4431,2.1775,-6.5438,34.2,-34.3875,,0.014572000000000251,0.5695058033066915,0.7979863461296548,non_fall
7.132351,-0.5399,-0.0527,-0.1734,-0.8076,0.4431,2.1775,-6.5438,34.2,-34.3875,,0.004602999999999469,0.5695058033066915,0.9965365955988824,non_fall
7.154097,-0.5399,-0.0527,-0.1734,-0.5076,0.0072,1.8833,-6.5438,34.2,-34.3875,,0.021746000000000265,0.5695058033066915,1.218327441623071,non_fall
7.17493,-0.6414,-2.0509,-0.4523,-0.5076,0.0072,1.8833,-6.5438,34.2,-34.3875,,0.020832999999999657,2.1959417250919935,1.4298463279808875,non_fall
7.189708,-0.6414,-2.0509,-0.4523,-0.5076,0.0072,1.8833,-2.9438,35.3813,-33.4875,,0.014778000000000624,2.1959417250919935,1.5981308935740381,non_fall
7.195251,-0.6414,-2.0509,-0.4523,-0.5076,0.0072,1.8833,-2.9438,35.3813,-33.4875,,0.0055429999999994095,2.1959417250919935,1.6980080727954971,non_fall
7.214733,-0.6414,-2.0509,-0.4523,-0.0138,-0.3059,1.4988,-2.9438,35.3813,-33.4875,,0.019482,2.1959417250919935,1.71705189208185,non_fall
7.235422,-0.5239,-0.9037,-0.2899,-0.0138,-0.3059,1.4988,-2.9438,35.3813,-33.4875,,0.020688999999999957,1.0840603811596474,1.656856800824403,non_fall
7.249263,-0.5239,-0.9037,-0.2899,-0.0138,-0.3059,1.4988,0.5813,36.15,-32.7563,,0.013841000000000214,1.0840603811596474,1.530663212043626,non_fall
7.254876,-0.5239,-0.9037,-0.2899,-0.0138,-0.3059,1.4988,0.5813,36.15,-32.7563,,0.005613000000000312,1.0840603811596474,1.3586941597745863,non_fall
7.274698,-0.5239,-0.9037,-0.2899,0.1824,-0.634,0.6646,0.5813,36.15,-32.7563,,0.019821999999999562,1.0840603811596474,1.163095640300383,non_fall
7.309609,-0.5239,-0.9037,-0.2899,0.1824,-0.634,0.6646,4.0312,36.675,-32.0063,,0.034911000000000136,1.0840603811596474,0.9639813314732928,non_fall
7.316725,-0.5239,-0.9037,-0.2899,0.1824,-0.634,0.6646,4.0312,36.675,-32.0063,,0.0071159999999999,1.0840603811596474,0.7771872293320485,non_fall
7.317281,0.2537,0.3358,-0.0949,0.1824,-0.634,0.6646,4.0312,36.675,-32.0063,,0.000556000000000445,0.4314294148525341,0.6135473061424616,non_fall
7.337254,0.2537,0.3358,-0.0949,-0.0731,-0.1142,0.4353,4.0312,36.675,-32.0063,,0.019972999999999352,0.4314294148525341,0.4791571848710347,non_fall
7.369761,0.2537,0.3358,-0.0949,-0.0731,-0.1142,0.4353,7.125,36.9,-31.2938,,0.03250699999999984,0.4314294148525341,0.3761494784009976,non_fall
7.37693,0.2537,0.3358,-0.0949,-0.0731,-0.1142,0.4353,7.125,36.9,-31.2938,,0.007169000000000203,0.4314294148525341,0.3036841865843889,non_fall
7.377662,-0.0852,-0.1025,-0.1793,-0.0731,-0.1142,0.4353,7.125,36.9,-31.2938,,0.000732000000000177,0.22341392078382222,0.2589555664343032,non_fall
7.397393,-0.0852,-0.1025,-0.1793,-0.1378,0.1666,0.4828,7.125,36.9,-31.2938,,0.019731000000000165,0.22341392078382222,0.23805039105608602,non_fall
7.4282,-0.0852,-0.1025,-0.1793,-0.1378,0.1666,0.4828,9.9563,37.0125,-30.8813,,0.03080700000000025,0.22341392078382222,0.23656074412814562,non_fall
7.438151,-0.0852,-0.1025,-0.1793,-0.1378,0.1666,0.4828,9.9563,37.0125,-30.8813,,0.009951000000000043,0.22341392078382222,0.24995638093934322,non_fall
7.439476,-0.2861,-0.0983,-0.1108,-0.1378,0.1666,0.4828,9.9563,37.0125,-30.8813,,0.0013249999999995765,0.3221688066837012,0.2737840699948366,non_fall
7.458083,-0.2861,-0.0983,-0.1108,0.0788,-0.2236,0.1023,9.9563,37.0125,-30.8813,,0.018607000000000262,0.3221688066837012,0.30375962476334184,non_fall
7.489629,-0.2861,-0.0983,-0.1108,0.0788,-0.2236,0.1023,12.0938,36.5063,-30.6188,,0.03154599999999963,0.3221688066837012,0.33579430217167516,non_fall
7.498121,-0.2861,-0.0983,-0.1108,0.0788,-0.2236,0.1023,12.0938,36.5063,-30.6188,,0.008492000000000388,0.3221688066837012,0.36599596091209985,non_fall
7.518864,-0.2861,-0.0983,-0.1108,-0.0153,-0.0887,0.081,12.0938,36.5063,-30.6188,,0.020742999999999512,0.3221688066837012,0.39070874157599816,non_fall
7.520563,0.2817,0.323,0.0653,-0.0153,-0.0887,0.081,12.0938,36.5063,-30.6188,,0.0016990000000003391,0.43352967603152615,0.406664081025737,non_fall
7.548415,0.2817,0.323,0.0653,-0.0153,-0.0887,0.081,13.6125,36.0938,-30.5625,,0.02785200000000021,0.43352967603152615,0.41127334851234926,non_fall
7.561087,0.2817,0.323,0.0653,-0.0153,-0.0887,0.081,13.6125,36.0938,-30.5625,,0.01267199999999935,0.43352967603152615,0.40300773778683124,non_fall
7.579487,0.2817,0.323,0.0653,-0.0543,0.0274,0.273,13.6125,36.0938,-30.5625,,0.018400000000000638,0.43352967603152615,0.3817382691010116,non_fall
7.581478,0.2258,0.2226,-0.0201,-0.0543,0.0274,0.273,13.6125,36.0938,-30.5625,,0.00199099999999941,0.3177112053422101,0.34889726995131454,non_fall
7.609203,0.2258,0.2226,-0.0201,-0.0543,0.0274,0.273,14.7375,35.7,-30.6188,,0.02772500000000022,0.3177112053422101,0.30737639639238346,non_fall
7.620147,0.2258,0.2226,-0.0201,-0.0543,0.0274,0.273,14.7375,35.7,-30.6188,,0.010944000000000287,0.3177112053422101,0.2611591241035252,non_fall
7.640377,-0.0562,-0.1196,0.0182,-0.0543,0.0274,0.273,14.7375,35.7,-30.6188,,0.020229999999999748,0.1333935530676052,0.2147584744987798,non_fall
7.641763,-0.0562,-0.1196,0.0182,-0.0788,0.0796,0.2996,14.7375,35.7,-30.6188,,0.0013860000000001094,0.1333935530676052,0.17257789742537155,non_fall
7.668706,-0.0562,-0.1196,0.0182,-0.0788,0.0796,0.2996,15.4875,35.3063,-30.9,,0.02694300000000016,0.1333935530676052,0.13833157666312548,non_fall
7.681206,-0.0562,-0.1196,0.0182,-0.0788,0.0796,0.2996,15.4875,35.3063,-30.9,,0.012500000000000178,0.1333935530676052,0.11463770494028737,non_fall
7.701659,-0.0562,-0.1196,0.0182,-0.0537,0.0767,0.2261,15.4875,35.3063,-30.9,,0.020452999999999832,0.1333935530676052,0.10283166961377564,non_fall
7.703239,-0.0662,0.0384,-0.0743,-0.0537,0.0767,0.2261,15.4875,35.3063,-30.9,,0.0015799999999996928,0.10666531769980343,0.10297108604495707,non_fall
7.728225,-0.0662,0.0384,-0.0743,-0.0537,0.0767,0.2261,16.05,34.9875,-30.9,,0.024986000000000175,0.10666531769980343,0.11396938719954582,non_fall
7.742544,-0.0662,0.0384,-0.0743,-0.0537,0.0767,0.2261,16.05,34.9875,-30.9,,0.014318999999999527,0.10666531769980343,0.13381026904460502,non_fall
7.762425,-0.0662,0.0384,-0.0743,-0.0217,0.0513,0.1662,16.05,34.9875,-30.9,,0.019881000000000704,0.10666531769980343,0.15982996032440902,non_fall
7.783433,-0.1961,-0.133,-0.0791,-0.0217,0.0513,0.1662,16.05,34.9875,-30.9,,0.02100799999999925,0.2498019615615538,0.18906709959882753,non_fall
7.788806,-0.1961,-0.133,-0.0791,-0.0217,0.0513,0.1662,16.5188,34.7438,-30.7313,,0.005373000000000516,0.2498019615615538,0.2186539452056714,non_fall
7.803569,-0.1961,-0.133,-0.0791,-0.0217,0.0513,0.1662,16.5188,34.7438,-30.7313,,0.014763000000000304,0.2498019615615538,0.2461795894139998,non_fall
7.823213,-0.1961,-0.133,-0.0791,0.0213,-0.045,0.0358,16.5188,34.7438,-30.7313,,0.01964399999999955,0.2498019615615538,0.2699398255495622,non_fall
7.842903,0.1089,0.194,-0.215,0.0213,-0.045,0.0358,16.5188,34.7438,-30.7313,,0.019689999999999763,0.30938682906678494,0.28901973188614793,non_fall
7.84787,0.1089,0.194,-0.215,0.0213,-0.045,0.0358,17.1375,34.65,-30.7875,,0.00496700000000061,0.30938682906678494,0.30320839898416313,non_fall
7.864283,0.1089,0.194,-0.215,0.0213,-0.045,0.0358,17.1375,34.65,-30.7875,,0.01641300000000001,0.30938682906678494,0.31278491761129984,non_fall
7.885226,0.1089,0.194,-0.215,-0.0511,0.1772,0.1698,17.1375,34.65,-30.7875,,0.020942999999999934,0.30938682906678494,0.3182347101289759,non_fall
7.904398,-0.051,0.0726,0.2841,-0.0511,0.1772,0.1698,17.1375,34.65,-30.7875,,0.0191719999999993,0.29763160114477094,0.319967872912622,non_fall
7.90906,-0.051,0.0726,0.2841,-0.0511,0.1772,0.1698,17.5875,34.35,-30.7125,,0.00466200000000061,0.29763160114477094,0.31811746911465183,non_fall
7.924934,-0.051,0.0726,0.2841,-0.0511,0.1772,0.1698,17.5875,34.35,-30.7125,,0.015874000000000166,0.29763160114477094,0.3124844085312393,non_fall
7.946105,-0.051,0.0726,0.2841,-0.0238,-0.0205,0.1527,17.5875,34.35,-30.7125,,0.02117099999999983,0.29763160114477094,0.3026601051895222,non_fall
7.970786,-0.051,0.0726,0.2841,-0.0238,-0.0205,0.1527,18.1875,34.3875,-30.6188,,0.024681000000000175,0.29763160114477094,0.2883047140687354,non_fall
7.986831,-0.051,0.0726,0.2841,-0.0238,-0.0205,0.1527,18.1875,34.3875,-30.6188,,0.0160449999999992,0.29763160114477094,0.2695032539947838,non_fall
7.988797,-0.107,-0.1547,-0.1704,-0.0238,-0.0205,0.1527,18.1875,34.3875,-30.6188,,0.0019660000000003564,0.25380553579463155,0.24708309487864266,non_fall
8.006393,-0.107,-0.1547,-0.1704,0.0326,-0.0358,-0.0035,18.1875,34.3875,-30.6188,,0.01759599999999928,0.25380553579463155,0.22276830195452516,non_fall
8.028418,-0.107,-0.1547,-0.1704,0.0326,-0.0358,-0.0035,18.5813,34.1625,-30.6188,,0.02202500000000107,0.25380553579463155,0.19907297274823957,non_fall
8.048442,-0.107,-0.1547,-0.1704,0.0326,-0.0358,-0.0035,18.5813,34.1625,-30.6188,,0.020023999999999376,0.25380553579463155,0.17889331677656028,non_fall
8.051203,-0.0371,-0.0601,0.0021,0.0326,-0.0358,-0.0035,18.5813,34.1625,-30.6188,,0.0027609999999995694,0.07065996037360904,0.164845714101212,non_fall
8.068247,-0.0371,-0.0601,0.0021,0.0174,-0.0105,-0.0269,18.5813,34.1625,-30.6188,,0.01704400000000028,0.07065996037360904,0.15851014850326275,non_fall
8.089615,-0.0371,-0.0601,0.0021,0.0174,-0.0105,-0.0269,18.9375,33.9375,-30.6,,0.02136800000000072,0.07065996037360904,0.15983649721490464,non_fall
8.109292,-0.0371,-0.0601,0.0021,0.0174,-0.0105,-0.0269,18.9375,33.9375,-30.6,,0.019676999999999722,0.07065996037360904,0.16698154983026722,non_fall
8.110866,0.1866,0.2008,0.0247,0.0174,-0.0105,-0.0269,18.9375,33.9375,-30.6,,0.0015739999999997423,0.2752277057274576,0.17671836819040806,non_fall
8.129038,0.1866,0.2008,0.0247,-0.0369,0.124,0.0895,18.9375,33.9375,-30.6,,0.018171999999999855,0.2752277057274576,0.18533215262275687,non_fall
8.149618,0.1866,0.2008,0.0247,-0.0369,0.124,0.0895,19.1813,33.7688,-30.45,,0.02058000000000071,0.2752277057274576,0.1896994094280691,non_fall
8.170642,0.1866,0.2008,0.0247,-0.0369,0.124,0.0895,19.1813,33.7688,-30.45,,0.021024000000000598,0.2752277057274576,0.18815911378894706,non_fall
8.172743,-0.0544,-0.1041,0.0253,-0.0369,0.124,0.0895,19.1813,33.7688,-30.45,,0.0021009999999996865,0.12015098834383343,0.18087560359134378,non_fall
8.190818,-0.0544,-0.1041,0.0253,-0.0196,0.0545,0.0912,19.1813,33.7688,-30.45,,0.01807499999999962,0.12015098834383343,0.16961070201813963,non_fall
8.2091,-0.0544,-0.1041,0.0253,-0.0196,0.0545,0.0912,19.35,33.6938,-30.5625,,0.018281999999999243,0.12015098834383343,0.15704990031594054,non_fall
8.228345,-0.0544,-0.1041,0.0253,-0.0196,0.0545,0.0912,19.35,33.6938,-30.5625,,0.019244999999999735,0.12015098834383343,0.14595786966533147,non_fall
8.248857,-0.0544,-0.1041,0.0253,0.2208,0.0377,0.0334,19.35,33.6938,-30.5625,,0.020512000000000086,0.12015098834383343,0.13843581234364283,non_fall
8.250491,0.01,0.1424,0.0109,0.2208,0.0377,0.0334,19.35,33.6938,-30.5625,,0.0016340000000010235,0.14316623205211484,0.1354576834771097,non_fall
8.26939,0.01,0.1424,0.0109,0.2208,0.0377,0.0334,19.5188,33.525,-30.825,,0.018898999999999333,0.14316623205211484,0.13674387789431033,non_fall
8.291385,0.01,0.1424,0.0109,0.2208,0.0377,0.0334,19.5188,33.525,-30.825,,0.02199500000000043,0.14316623205211484,0.14093792585810838,non_fall
