time,ax,ay,az,wx,wy,wz,Bx,By,Bz,Unnamed: 10,time_diff,acc_mag,acc_mag_filtered,label
0.048423,0.0,0.0,0.0,0.2212,0.3377,0.1858,0.0,0.0,0.0,,0.0,0.0,7.114549816386915e-05,non_fall
0.048915,0.0,0.0,0.0,0.2212,0.3377,0.1858,0.0,0.0,0.0,,0.0004919999999999994,0.0,-0.008024996496155038,non_fall
0.100728,0.0,0.0,0.0,0.2212,0.3377,0.1858,0.0,0.0,0.0,,0.051813,0.0,-0.015366564889368849,non_fall
0.117404,0.0,0.0,0.0,0.2212,0.3377,0.1858,46.35,13.7813,18.3563,,0.016675999999999996,0.0,-0.020745831101125812,non_fall
0.142375,0.0,0.0,0.0,0.2493,-0.0013,-0.0354,46.35,13.7813,18.3563,,0.024971000000000007,0.0,-0.022630768941296134,non_fall
0.161605,0.0,0.0,0.0,0.2493,-0.0013,-0.0354,46.35,13.7813,18.3563,,0.019229999999999997,0.0,-0.019269848823101177,non_fall
0.178204,0.0,0.0,0.0,0.2493,-0.0013,-0.0354,46.575,14.2875,18.6562,,0.016599000000000003,0.0,-0.008993930337489667,non_fall
0.184557,0.0,0.0,0.0,0.2493,-0.0013,-0.0354,46.575,14.2875,18.6562,,0.0063529999999999975,0.0,0.009331576622974585,non_fall
0.202511,0.0,0.0,0.0,0.1261,0.0285,0.02,46.575,14.2875,18.6562,,0.017953999999999998,0.0,0.03581754128147669,non_fall
0.22238,0.0,0.0,0.0,0.1261,0.0285,0.02,46.575,14.2875,18.6562,,0.019868999999999998,0.0,0.06918606385985426,non_fall
0.236264,0.0,0.0,0.0,0.1261,0.0285,0.02,46.6875,14.2688,18.15,,0.013884000000000007,0.0,0.10669571585439985,non_fall
0.242417,-0.2228,0.0362,0.061,0.1261,0.0285,0.02,46.6875,14.2688,18.15,,0.006152999999999992,0.23381890428278035,0.14446194871158322,non_fall
0.262892,-0.2228,0.0362,0.061,0.0984,-0.0248,-0.0063,46.6875,14.2688,18.15,,0.02047500000000002,0.23381890428278035,0.1781481028685006,non_fall
0.285839,-0.2228,0.0362,0.061,0.0984,-0.0248,-0.0063,46.6875,14.2688,18.15,,0.022946999999999995,0.23381890428278035,0.20385328498426125,non_fall
0.297093,-0.2228,0.0362,0.061,0.0984,-0.0248,-0.0063,46.8375,14.3625,18.4313,,0.011253999999999986,0.23381890428278035,0.21894007187199546,non_fall
0.324495,-0.2228,0.0362,0.061,0.0956,0.0846,0.015,46.8375,14.3625,18.4313,,0.027401999999999982,0.23381890428278035,0.2225767761445306,non_fall
0.325213,-0.1257,0.1529,-0.0408,0.0956,0.0846,0.015,46.8375,14.3625,18.4313,,0.0007179999999999964,0.20209784758873608,0.21588062284899423,non_fall
0.344607,-0.1257,0.1529,-0.0408,0.0956,0.0846,0.015,46.8375,14.3625,18.4313,,0.019394000000000022,0.20209784758873608,0.2016648276724522,non_fall
0.356019,-0.1257,0.1529,-0.0408,0.0956,0.0846,0.015,47.1,14.5688,18.4688,,0.011411999999999978,0.20209784758873608,0.18386928810651482,non_fall
0.385328,-0.1257,0.1529,-0.0408,0.0477,-0.0549,-0.0222,47.1,14.5688,18.4688,,0.02930900000000003,0.20209784758873608,0.1667905679475892,non_fall
0.386288,-0.0726,0.0687,-0.0061,0.0477,-0.0549,-0.0222,47.1,14.5688,18.4688,,0.0009600000000000164,0.10013820449758422,0.15424382877013676,non_fall
0.405436,-0.0726,0.0687,-0.0061,0.0477,-0.0549,-0.0222,47.1,14.5688,18.4688,,0.019148,0.10013820449758422,0.14880797889614342,non_fall
0.416231,-0.0726,0.0687,-0.0061,0.0477,-0.0549,-0.0222,47.1938,14.6063,18.6375,,0.010794999999999999,0.10013820449758422,0.1513208106400393,non_fall
0.446168,-0.0726,0.0687,-0.0061,-0.018,0.0385,0.0193,47.1938,14.6063,18.6375,,0.02993699999999999,0.10013820449758422,0.16076919403157633,non_fall
0.44681,-0.2072,0.0634,0.1055,-0.018,0.0385,0.0193,47.1938,14.6063,18.6375,,0.0006419999999999759,0.24100134854394487,0.17463172095854856,non_fall
0.467323,-0.2072,0.0634,0.1055,-0.018,0.0385,0.0193,47.1938,14.6063,18.6375,,0.020513000000000003,0.24100134854394487,0.18959294585846345,non_fall
0.476904,-0.2072,0.0634,0.1055,-0.018,0.0385,0.0193,47.325,14.625,18.7313,,0.009581000000000006,0.24100134854394487,0.20242015486223594,non_fall
0.507078,-0.2072,0.0634,0.1055,-0.0156,0.0048,0.0142,47.325,14.625,18.7313,,0.030174000000000034,0.24100134854394487,0.21074332574035426,non_fall
0.507642,0.1293,0.0297,0.1507,-0.0156,0.0048,0.0142,47.325,14.625,18.7313,,0.0005640000000000089,0.20077616890457892,0.21353199189484934,non_fall
0.527299,0.1293,0.0297,0.1507,-0.0156,0.0048,0.0142,47.325,14.625,18.7313,,0.019656999999999925,0.20077616890457892,0.21118267452690673,non_fall
0.536685,0.1293,0.0297,0.1507,-0.0156,0.0048,0.0142,47.4938,14.6625,18.8813,,0.009386000000000005,0.20077616890457892,0.205251933929787,non_fall
0.568008,0.1293,0.0297,0.1507,0.0551,0.0059,0.0196,47.4938,14.6625,18.8813,,0.03132299999999999,0.20077616890457892,0.19794677912787978,non_fall
0.588709,0.1293,0.0297,0.1507,0.0551,0.0059,0.0196,47.4938,14.6625,18.8813,,0.02070100000000008,0.20077616890457892,0.19150924204071526,non_fall
0.589277,0.0166,-0.0433,-0.1483,0.0551,0.0059,0.0196,47.4938,14.6625,18.8813,,0.0005680000000000129,0.1553812730028944,0.1876264864037531,non_fall
0.596942,0.0166,-0.0433,-0.1483,0.0551,0.0059,0.0196,47.6813,14.7563,18.9938,,0.007664999999999922,0.1553812730028944,0.18698524951999407,non_fall
0.628279,0.0166,-0.0433,-0.1483,0.1204,-0.0027,0.0324,47.6813,14.7563,18.9938,,0.03133700000000006,0.1553812730028944,0.18907323942999774,non_fall
0.648714,0.0166,-0.0433,-0.1483,0.1204,-0.0027,0.0324,47.6813,14.7563,18.9938,,0.02043499999999998,0.1553812730028944,0.19229420154000404,non_fall
0.649285,0.0489,-0.0995,-0.2074,0.1204,-0.0027,0.0324,47.6813,14.7563,18.9938,,0.0005709999999999882,0.23517274501948562,0.1943937802471053,non_fall
0.655822,0.0489,-0.0995,-0.2074,0.1204,-0.0027,0.0324,47.925,14.8125,19.1625,,0.006537000000000015,0.23517274501948562,0.19309959593377946,non_fall
0.689229,0.0489,-0.0995,-0.2074,0.1254,0.0101,0.0253,47.925,14.8125,19.1625,,0.033406999999999965,0.23517274501948562,0.18679713429664557,non_fall
0.709617,0.0489,-0.0995,-0.2074,0.1254,0.0101,0.0253,47.925,14.8125,19.1625,,0.020388000000000073,0.23517274501948562,0.17503779658970772,non_fall
0.71115,0.0211,0.0698,-0.0757,0.1254,0.0101,0.0253,47.925,14.8125,19.1625,,0.0015329999999998956,0.10510822993467257,0.15873051481789674,non_fall
0.715996,0.0211,0.0698,-0.0757,0.1254,0.0101,0.0253,48.0563,14.9438,19.425,,0.004846000000000017,0.10510822993467257,0.13998483474460968,non_fall
0.751178,0.0211,0.0698,-0.0757,0.0633,0.0083,0.0306,48.0563,14.9438,19.425,,0.03518200000000005,0.10510822993467257,0.12169437676342336,non_fall
0.771429,0.0211,0.0698,-0.0757,0.0633,0.0083,0.0306,48.0563,14.9438,19.425,,0.02025100000000002,0.10510822993467257,0.1070132005387999,non_fall
0.776329,0.0211,0.0698,-0.0757,0.0633,0.0083,0.0306,48.1125,15.0375,19.4813,,0.0049000000000000155,0.10510822993467257,0.09886150695338786,non_fall
0.79109,-0.0624,0.0235,0.0945,0.0633,0.0083,0.0306,48.1125,15.0375,19.4813,,0.014760999999999913,0.11565578238894933,0.09953385898844355,non_fall
0.812576,-0.0624,0.0235,0.0945,0.0004,0.0051,0.0342,48.1125,15.0375,19.4813,,0.021486000000000005,0.11565578238894933,0.11042526843074216,non_fall
0.831449,-0.0624,0.0235,0.0945,0.0004,0.0051,0.0342,48.1125,15.0375,19.4813,,0.01887300000000003,0.11565578238894933,0.13186695581354316,non_fall
0.836667,-0.0624,0.0235,0.0945,0.0004,0.0051,0.0342,47.9813,14.9063,19.5188,,0.005218000000000056,0.11565578238894933,0.16306963297350285,non_fall
0.853825,-0.1412,0.1329,0.1741,0.0004,0.0051,0.0342,47.9813,14.9063,19.5188,,0.017157999999999896,0.2605967382758272,0.20218370688578202,non_fall
0.871982,-0.1412,0.1329,0.1741,-0.0518,-0.0378,0.031,47.9813,14.9063,19.5188,,0.01815700000000009,0.2605967382758272,0.24648071121684928,non_fall
0.89266,-0.1412,0.1329,0.1741,-0.0518,-0.0378,0.031,47.9813,14.9063,19.5188,,0.020677999999999974,0.2605967382758272,0.29264119383755377,non_fall
0.896853,-0.1412,0.1329,0.1741,-0.0518,-0.0378,0.031,47.9625,15.0,19.4625,,0.004193000000000002,0.2605967382758272,0.337125180328739,non_fall
0.912251,-0.3601,0.196,0.1459,-0.0518,-0.0378,0.031,47.9625,15.0,19.4625,,0.015398000000000023,0.43517217282358484,0.37660695339625067,non_fall
0.932976,-0.3601,0.196,0.1459,0.01,-0.1458,-0.0198,47.9625,15.0,19.4625,,0.020724999999999993,0.43517217282358484,0.4084464342755829,non_fall
0.953482,-0.3601,0.196,0.1459,0.01,-0.1458,-0.0198,47.9625,15.0,19.4625,,0.020506000000000024,0.43517217282358484,0.4311301304552226,non_fall
0.955821,-0.3601,0.196,0.1459,0.01,-0.1458,-0.0198,47.8688,14.9813,19.425,,0.00233899999999998,0.43517217282358484,0.4445805796396986,non_fall
0.976034,0.3339,-0.3018,-0.1427,0.01,-0.1458,-0.0198,47.8688,14.9813,19.425,,0.020212999999999925,0.47216071416414984,0.4502428182330174,non_fall
0.997919,0.3339,-0.3018,-0.1427,0.085,0.2929,0.1084,47.8688,14.9813,19.425,,0.021885000000000043,0.47216071416414984,0.4508999603689866,forward_fall
1.014106,0.3339,-0.3018,-0.1427,0.085,0.2929,0.1084,47.8688,14.9813,19.425,,0.01618699999999995,0.47216071416414984,0.45021545318911166,forward_fall
1.015755,0.3339,-0.3018,-0.1427,0.085,0.2929,0.1084,47.7563,14.9063,19.425,,0.0016490000000000116,0.47216071416414984,0.45204017615551756,forward_fall
1.054594,0.3339,-0.3018,-0.1427,0.3707,-0.2178,-0.0194,47.7563,14.9063,19.425,,0.03883900000000007,0.47216071416414984,0.45957276079275355,forward_fall
1.055524,0.3616,-0.0043,-0.1906,0.3707,-0.2178,-0.0194,47.7563,14.9063,19.425,,0.0009299999999998754,0.40878039336543526,0.47452611622408475,forward_fall
1.076354,0.3616,-0.0043,-0.1906,0.3707,-0.2178,-0.0194,47.9438,15.0375,19.3313,,0.020830000000000126,0.40878039336543526,0.4965147200298949,forward_fall
1.078282,0.3616,-0.0043,-0.1906,0.3707,-0.2178,-0.0194,47.9438,15.0375,19.3313,,0.0019279999999999298,0.40878039336543526,0.5228987773864863,forward_fall
1.1165,0.3616,-0.0043,-0.1906,0.4677,-0.2526,-0.0077,47.9438,15.0375,19.3313,,0.038218000000000085,0.40878039336543526,0.5492561644128938,forward_fall
1.116987,-0.3537,-0.1581,-0.6756,0.4677,-0.2526,-0.0077,47.9438,15.0375,19.3313,,0.0004869999999999042,0.7788033513024967,0.5704719721736965,forward_fall
1.137263,-0.3537,-0.1581,-0.6756,0.4677,-0.2526,-0.0077,47.9438,15.0375,19.3313,,0.02027599999999996,0.7788033513024967,0.58217116061109,forward_fall
1.137785,-0.3537,-0.1581,-0.6756,0.4677,-0.2526,-0.0077,47.925,15.0188,19.125,,0.0005220000000001335,0.7788033513024967,0.5819981671614457,forward_fall
1.179183,0.3926,-0.0698,-0.207,0.4677,-0.2526,-0.0077,47.925,15.0188,19.125,,0.041398000000000046,0.4492836520506839,0.5702388543472271,forward_fall
1.179925,0.3926,-0.0698,-0.207,0.5265,0.0434,0.0541,47.925,15.0188,19.125,,0.0007419999999997984,0.4492836520506839,0.549551326109914,forward_fall
1.197834,0.3926,-0.0698,-0.207,0.5265,0.0434,0.0541,47.7563,14.9438,18.825,,0.017909000000000175,0.4492836520506839,0.5239780095142701,forward_fall
1.198679,0.3926,-0.0698,-0.207,0.5265,0.0434,0.0541,47.7563,14.9438,18.825,,0.0008449999999999847,0.4492836520506839,0.49769666896750503,forward_fall
1.237359,0.3926,-0.0698,-0.207,0.5936,-0.1032,0.0334,47.7563,14.9438,18.825,,0.03868000000000005,0.4492836520506839,0.47398987626125316,forward_fall
1.255797,0.3926,-0.0698,-0.207,0.5936,-0.1032,0.0334,47.8313,14.925,18.7125,,0.018437999999999954,0.4492836520506839,0.4547301562580581,forward_fall
1.257579,0.3926,-0.0698,-0.207,0.5936,-0.1032,0.0334,47.8313,14.925,18.7125,,0.0017819999999999503,0.4492836520506839,0.44044129399018866,forward_fall
1.257941,-0.2289,-0.0547,-0.4074,0.5936,-0.1032,0.0334,47.8313,14.925,18.7125,,0.00036199999999997345,0.4704912964125904,0.4308090128175919,forward_fall
1.300576,-0.2289,-0.0547,-0.4074,0.7988,-0.1142,-0.0084,47.8313,14.925,18.7125,,0.04263499999999998,0.4704912964125904,0.42540775695350885,forward_fall
1.316091,-0.2289,-0.0547,-0.4074,0.7988,-0.1142,-0.0084,47.9438,15.0563,18.4875,,0.015514999999999946,0.4704912964125904,0.4243834298335231,forward_fall
1.320785,-0.2289,-0.0547,-0.4074,0.7988,-0.1142,-0.0084,47.9438,15.0563,18.4875,,0.004694000000000198,0.4704912964125904,0.4288774375233781,forward_fall
1.3212,0.0132,0.203,-0.3584,0.7988,-0.1142,-0.0084,47.9438,15.0563,18.4875,,0.00041499999999983217,0.412108966172783,0.4410815399313311,forward_fall
1.360312,0.0132,0.203,-0.3584,1.0477,-0.0535,-0.0099,47.9438,15.0563,18.4875,,0.039112000000000036,0.412108966172783,0.4639473514591032,forward_fall
1.376581,0.0132,0.203,-0.3584,1.0477,-0.0535,-0.0099,48.0938,15.225,18.1125,,0.01626900000000009,0.412108966172783,0.5006926406111392,forward_fall
1.379433,0.0132,0.203,-0.3584,1.0477,-0.0535,-0.0099,48.0938,15.225,18.1125,,0.0028519999999998547,0.412108966172783,0.5542936192746396,forward_fall
1.379901,-0.1641,-0.1071,-0.8425,1.0477,-0.0535,-0.0099,48.0938,15.225,18.1125,,0.000468000000000135,0.8649887109089922,0.6270885382710557,forward_fall
1.420393,-0.1641,-0.1071,-0.8425,1.6352,0.0594,-0.0535,48.0938,15.225,18.1125,,0.04049199999999997,0.8649887109089922,0.7204605564889105,forward_fall
1.436092,-0.1641,-0.1071,-0.8425,1.6352,0.0594,-0.0535,48.1688,15.6375,17.55,,0.015698999999999907,0.8649887109089922,0.8344241392204477,forward_fall
1.440576,-0.1641,-0.1071,-0.8425,1.6352,0.0594,-0.0535,48.1688,15.6375,17.55,,0.0044840000000001545,0.8649887109089922,0.9669534853197446,forward_fall
1.441232,-0.0247,0.0064,-1.1748,1.6352,0.0594,-0.0535,48.1688,15.6375,17.55,,0.0006559999999999899,1.1750770570477496,1.1130994070059341,forward_fall
1.480785,-0.0247,0.0064,-1.1748,2.1006,-0.2441,-0.1507,48.1688,15.6375,17.55,,0.03955299999999995,1.1750770570477496,1.2642085583538494,forward_fall
1.496779,-0.0247,0.0064,-1.1748,2.1006,-0.2441,-0.1507,48.0938,16.2188,16.6125,,0.015994000000000064,1.1750770570477496,1.4077189644029977,forward_fall
1.501658,-0.0247,0.0064,-1.1748,2.1006,-0.2441,-0.1507,48.0938,16.2188,16.6125,,0.004878999999999856,1.1750770570477496,1.5279930390509828,forward_fall
1.522151,-0.6781,-0.261,-1.6188,2.1006,-0.2441,-0.1507,48.0938,16.2188,16.6125,,0.020493000000000094,1.7743883594072634,1.6084514509608332,forward_fall
1.541776,-0.6781,-0.261,-1.6188,2.196,0.4212,-0.0493,48.0938,16.2188,16.6125,,0.019625000000000004,1.7743883594072634,1.6348739269979424,forward_fall
1.555839,-0.6781,-0.261,-1.6188,2.196,0.4212,-0.0493,47.8125,16.95,15.7125,,0.014062999999999937,1.7743883594072634,1.5992244987586197,forward_fall
1.563101,-0.6781,-0.261,-1.6188,2.196,0.4212,-0.0493,47.8125,16.95,15.7125,,0.007262000000000102,1.7743883594072634,1.5029869631080648,forward_fall
1.582449,1.1585,0.1577,-0.3972,2.196,0.4212,-0.0493,47.8125,16.95,15.7125,,0.01934799999999992,1.234811475489275,1.358988162028338,forward_fall
1.603039,1.1585,0.1577,-0.3972,2.0577,0.7325,0.0935,47.8125,16.95,15.7125,,0.020590000000000108,1.234811475489275,1.1910394052737368,forward_fall
1.616441,1.1585,0.1577,-0.3972,2.0577,0.7325,0.0935,47.6438,17.9062,14.6625,,0.013401999999999914,1.234811475489275,1.0312317857698945,forward_fall
1.622992,1.1585,0.1577,-0.3972,2.0577,0.7325,0.0935,47.6438,17.9062,14.6625,,0.0065509999999999735,1.234811475489275,0.9151665267036937,forward_fall
1.643555,0.697,-0.0552,0.2388,2.0577,0.7325,0.0935,47.6438,17.9062,14.6625,,0.02056300000000011,0.7388379253936549,0.8757479499298417,forward_fall
1.663725,0.697,-0.0552,0.2388,2.5241,1.6452,0.4673,47.6438,17.9062,14.6625,,0.0201699999999998,0.7388379253936549,0.9365286426197105,forward_fall
1.676932,0.697,-0.0552,0.2388,2.5241,1.6452,0.4673,47.7563,18.8438,14.25,,0.01320700000000019,0.7388379253936549,1.1060087418881253,forward_fall
1.684316,0.697,-0.0552,0.2388,2.5241,1.6452,0.4673,47.7563,18.8438,14.25,,0.007383999999999835,0.7388379253936549,1.3745519213772648,forward_fall
1.725214,0.697,-0.0552,0.2388,3.0779,1.1514,1.2812,47.7563,18.8438,14.25,,0.0408980000000001,0.7388379253936549,1.715384522262422,forward_fall
1.727444,1.5986,-2.3385,0.806,3.0779,1.1514,1.2812,47.7563,18.8438,14.25,,0.0022299999999999542,2.9451214253405578,2.090307320667761,forward_fall
1.737148,1.5986,-2.3385,0.806,3.0779,1.1514,1.2812,47.7563,19.5,13.6125,,0.009703999999999935,2.9451214253405578,2.4593575669222103,forward_fall
1.748349,1.5986,-2.3385,0.806,3.0779,1.1514,1.2812,47.7563,19.5,13.6125,,0.011201000000000016,2.9451214253405578,2.792198261674052,forward_fall
1.785974,1.5986,-2.3385,0.806,2.7698,-0.6928,1.7594,47.7563,19.5,13.6125,,0.03762500000000002,2.9451214253405578,3.078216466384395,forward_fall
1.787252,-2.9248,-2.9674,0.6658,2.7698,-0.6928,1.7594,47.7563,19.5,13.6125,,0.0012780000000001124,4.219384722918734,3.3325435973379918,forward_fall
1.796614,-2.9248,-2.9674,0.6658,2.7698,-0.6928,1.7594,47.8688,19.65,12.6375,,0.00936199999999987,4.219384722918734,3.5961284644840834,forward_fall
1.805568,-2.9248,-2.9674,0.6658,2.7698,-0.6928,1.7594,47.8688,19.65,12.6375,,0.008954000000000129,4.219384722918734,3.9291263204936615,forward_fall
1.847616,-2.9248,-2.9674,0.6658,3.3364,-1.1252,1.6139,47.8688,19.65,12.6375,,0.04204799999999986,4.219384722918734,4.398177189899708,forward_fall
1.848535,0.0365,0.2454,-5.0657,3.3364,-1.1252,1.6139,47.8688,19.65,12.6375,,0.0009190000000001142,5.071771869869543,5.059714257594481,forward_fall
1.856153,0.0365,0.2454,-5.0657,3.3364,-1.1252,1.6139,47.9813,19.3688,11.1938,,0.007617999999999903,5.071771869869543,5.942958297061058,forward_fall
1.867336,0.0365,0.2454,-5.0657,3.3364,-1.1252,1.6139,47.9813,19.3688,11.1938,,0.011183000000000165,5.071771869869543,7.037155529305804,forward_fall
1.908736,0.0365,0.2454,-5.0657,2.205,-5.5492,0.9731,47.9813,19.3688,11.1938,,0.04139999999999988,5.071771869869543,8.287400299071441,forward_fall
1.909262,-1.4775,-12.6391,-0.524,2.205,-5.5492,0.9731,47.9813,19.3688,11.1938,,0.0005260000000000264,12.735950339884338,9.601573464048357,forward_fall
1.916911,-1.4775,-12.6391,-0.524,2.205,-5.5492,0.9731,47.8688,18.8438,8.4375,,0.007649000000000017,12.735950339884338,10.867420004211741,forward_fall
1.927863,-1.4775,-12.6391,-0.524,2.205,-5.5492,0.9731,47.8688,18.8438,8.4375,,0.010952000000000073,12.735950339884338,11.974861352133221,forward_fall
1.968786,-1.4775,-12.6391,-0.524,1.1745,2.0677,-2.6393,47.8688,18.8438,8.4375,,0.04092299999999982,12.735950339884338,12.836764564196098,forward_fall
1.977508,-1.4775,-12.6391,-0.524,1.1745,2.0677,-2.6393,47.9438,18.6562,6.1125,,0.008722000000000119,12.735950339884338,13.40290670582836,forward_fall
1.98906,-1.4775,-12.6391,-0.524,1.1745,2.0677,-2.6393,47.9438,18.6562,6.1125,,0.011552000000000007,12.735950339884338,13.665345950664658,forward_fall
1.989895,9.4928,10.4361,2.3129,1.1745,2.0677,-2.6393,47.9438,18.6562,6.1125,,0.0008349999999999191,14.295976408066712,13.656193735958182,forward_fall
2.029757,9.4928,10.4361,2.3129,3.9054,5.4679,1.4446,47.9438,18.6562,6.1125,,0.039862000000000064,14.295976408066712,13.439561818889795,forward_fall
2.037031,9.4928,10.4361,2.3129,3.9054,5.4679,1.4446,47.8313,17.6438,4.7812,,0.007273999999999781,14.295976408066712,13.09887695044433,forward_fall
2.049758,9.4928,10.4361,2.3129,3.9054,5.4679,1.4446,47.8313,17.6438,4.7812,,0.012727000000000377,14.295976408066712,12.720364035200534,forward_fall
2.050486,6.0647,0.5877,7.4295,3.9054,5.4679,1.4446,47.8313,17.6438,4.7812,,0.0007279999999996178,9.608509126290093,12.374471609095549,forward_fall
2.091095,6.0647,0.5877,7.4295,3.916,-2.4316,1.4773,47.8313,17.6438,4.7812,,0.04060900000000034,9.608509126290093,12.099259954203516,forward_fall
2.096849,6.0647,0.5877,7.4295,3.916,-2.4316,1.4773,48.1125,16.2938,3.6563,,0.005754000000000037,9.608509126290093,11.891710284321057,forward_fall
2.110673,6.0647,0.5877,7.4295,3.916,-2.4316,1.4773,48.1125,16.2938,3.6563,,0.013823999999999614,9.608509126290093,11.712325126579017,forward_fall
2.111545,-8.0716,-11.635,2.9557,3.916,-2.4316,1.4773,48.1125,16.2938,3.6563,,0.0008720000000002059,14.465825729974767,11.504195681946568,forward_fall
2.151814,-8.0716,-11.635,2.9557,2.6554,1.0289,-0.7898,48.1125,16.2938,3.6563,,0.04026899999999989,14.465825729974767,11.221241077740729,forward_fall
2.156132,-8.0716,-11.635,2.9557,2.6554,1.0289,-0.7898,47.1375,17.2875,2.4938,,0.004318000000000044,14.465825729974767,10.854840186194238,forward_fall
2.17184,-8.0716,-11.635,2.9557,2.6554,1.0289,-0.7898,47.1375,17.2875,2.4938,,0.015708000000000055,14.465825729974767,10.446947687029631,forward_fall
2.192215,0.8402,-5.24,-3.7405,2.6554,1.0289,-0.7898,47.1375,17.2875,2.4938,,0.020375000000000032,6.492678668315567,10.082465728354967,forward_fall
2.212578,0.8402,-5.24,-3.7405,1.4669,1.3317,0.948,47.1375,17.2875,2.4938,,0.02036300000000013,6.492678668315567,9.862517549049377,forward_fall
2.217596,0.8402,-5.24,-3.7405,1.4669,1.3317,0.948,47.025,15.8438,1.7625,,0.005017999999999745,6.492678668315567,9.86909262607362,forward_fall
2.232683,0.8402,-5.24,-3.7405,1.4669,1.3317,0.948,47.025,15.8438,1.7625,,0.015087000000000295,6.492678668315567,10.135552760731548,forward_fall
2.252701,-2.0249,10.0597,-8.9569,1.4669,1.3317,0.948,47.025,15.8438,1.7625,,0.02001799999999987,13.620713700463716,10.634426617604099,forward_fall
2.273201,-2.0249,10.0597,-8.9569,1.1819,-4.6766,2.0091,47.025,15.8438,1.7625,,0.02049999999999974,13.620713700463716,11.285623837849052,forward_fall
2.27962,-2.0249,10.0597,-8.9569,1.1819,-4.6766,2.0091,46.875,14.3813,0.2812,,0.0064190000000001746,13.620713700463716,11.979415527494634,forward_fall
2.294634,-2.0249,10.0597,-8.9569,1.1819,-4.6766,2.0091,46.875,14.3813,0.2812,,0.01501399999999986,13.620713700463716,12.603816539951577,forward_fall
2.313728,-9.4022,-6.2845,-5.6424,1.1819,-4.6766,2.0091,46.875,14.3813,0.2812,,0.019093999999999944,12.638551453786151,13.066963696640162,forward_fall
2.334031,-9.4022,-6.2845,-5.6424,2.0292,-3.579,0.8325,46.875,14.3813,0.2812,,0.020303000000000182,12.638551453786151,13.309768973162155,forward_fall
2.337525,-9.4022,-6.2845,-5.6424,2.0292,-3.579,0.8325,43.7625,8.175,-3.9,,0.003493999999999886,12.638551453786151,13.309125316262241,forward_fall
2.353927,-9.4022,-6.2845,-5.6424,2.0292,-3.579,0.8325,43.7625,8.175,-3.9,,0.01640200000000025,12.638551453786151,13.07492319883018,forward_fall
2.375435,-0.1427,-10.049,-6.5568,2.0292,-3.579,0.8325,43.7625,8.175,-3.9,,0.02150799999999986,11.999766269807091,12.64464354353858,forward_fall
2.396945,-0.1427,-10.049,-6.5568,1.375,0.5081,1.8095,43.7625,8.175,-3.9,,0.02151000000000014,11.999766269807091,12.078070836167445,forward_fall
2.398675,-0.1427,-10.049,-6.5568,1.375,0.5081,1.8095,44.7,12.2813,-3.0188,,0.0017299999999997873,11.999766269807091,11.452744433982636,forward_fall
2.415469,-0.1427,-10.049,-6.5568,1.375,0.5081,1.8095,44.7,12.2813,-3.0188,,0.016793999999999976,11.999766269807091,10.858947910502666,forward_fall
2.456991,-0.1427,-10.049,-6.5568,1.375,0.5081,1.8095,43.8938,9.3938,-4.1063,,0.04152200000000006,11.999766269807091,10.391956820249153,forward_fall
2.458839,-0.1427,-10.049,-6.5568,-1.4409,-1.837,0.1694,43.8938,9.3938,-4.1063,,0.0018480000000002939,11.999766269807091,10.139525132468119,forward_fall
2.460447,-1.0501,1.5313,-7.9586,-1.4409,-1.837,0.1694,43.8938,9.3938,-4.1063,,0.0016079999999996097,8.172325474428927,10.164578383018755,forward_fall
2.478239,-1.0501,1.5313,-7.9586,-1.4409,-1.837,0.1694,43.8938,9.3938,-4.1063,,0.01779200000000003,8.172325474428927,10.486455704627955,forward_fall
2.517357,-1.0501,1.5313,-7.9586,-1.4409,-1.837,0.1694,43.05,8.0813,-7.0688,,0.03911800000000021,8.172325474428927,11.067281277944263,forward_fall
2.518634,-1.0501,1.5313,-7.9586,-1.6028,0.3246,-3.4757,43.05,8.0813,-7.0688,,0.0012769999999999726,8.172325474428927,11.81084000233993,forward_fall
2.519724,3.1498,14.7565,-5.6913,-1.6028,0.3246,-3.4757,43.05,8.0813,-7.0688,,0.0010900000000000354,16.126575209262505,12.578103610122424,forward_fall
2.537257,3.1498,14.7565,-5.6913,-1.6028,0.3246,-3.4757,43.05,8.0813,-7.0688,,0.0175329999999998,16.126575209262505,13.216998599602379,forward_fall
2.579574,3.1498,14.7565,-5.6913,-1.6028,0.3246,-3.4757,38.9813,6.825,-10.35,,0.04231700000000016,16.126575209262505,13.597304169931672,forward_fall
2.580283,3.1498,14.7565,-5.6913,-2.4899,0.0792,-0.1071,38.9813,6.825,-10.35,,0.0007090000000000707,16.126575209262505,13.63869745681342,forward_fall
2.582268,9.4709,1.6341,-5.4979,-2.4899,0.0792,-0.1071,38.9813,6.825,-10.35,,0.0019849999999999035,11.072268693903702,13.322859539555191,forward_fall
2.598245,9.4709,1.6341,-5.4979,-2.4899,0.0792,-0.1071,38.9813,6.825,-10.35,,0.015976999999999908,11.072268693903702,12.687505895071778,forward_fall
2.63684,9.4709,1.6341,-5.4979,-2.4899,0.0792,-0.1071,38.025,6.525,-12.675,,0.038594999999999935,11.072268693903702,11.807203947267901,forward_fall
2.638564,9.4709,1.6341,-5.4979,-3.0122,-0.0499,0.9771,38.025,6.525,-12.675,,0.0017240000000002809,11.072268693903702,10.769491415827257,forward_fall
2.660381,-3.513,5.3219,-4.2831,-3.0122,-0.0499,0.9771,38.025,6.525,-12.675,,0.021816999999999975,7.681714276123527,9.654345177266276,forward_fall
2.664358,-3.513,5.3219,-4.2831,-3.0122,-0.0499,0.9771,38.025,6.525,-12.675,,0.003976999999999897,7.681714276123527,8.52213757535984,forward_fall
2.696613,-3.513,5.3219,-4.2831,-3.0122,-0.0499,0.9771,36.6938,-1.8938,-20.4375,,0.032255000000000145,7.681714276123527,7.411833474374252,forward_fall
2.698789,-3.513,5.3219,-4.2831,-3.8818,-0.4571,0.0132,36.6938,-1.8938,-20.4375,,0.0021759999999999557,7.681714276123527,6.348036014952481,forward_fall
2.720217,-3.513,5.3219,-4.2831,-3.8818,-0.4571,0.0132,36.6938,-1.8938,-20.4375,,0.02142799999999978,7.681714276123527,5.352758048549377,forward_fall
2.720739,0.8507,-1.6052,-3.2178,-3.8818,-0.4571,0.0132,36.6938,-1.8938,-20.4375,,0.0005220000000001335,3.6952123579031286,4.456337018664904,forward_fall
2.757006,0.8507,-1.6052,-3.2178,-3.8818,-0.4571,0.0132,38.1188,-6.7313,-23.55,,0.03626700000000005,3.6952123579031286,3.7026866516612986,forward_fall
2.75993,0.8507,-1.6052,-3.2178,-4.8443,0.7012,-0.6875,38.1188,-6.7313,-23.55,,0.0029240000000001487,3.6952123579031286,3.146745343694272,forward_fall
2.780312,1.5849,2.1335,0.186,-4.8443,0.7012,-0.6875,38.1188,-6.7313,-23.55,,0.020381999999999678,2.664268428668553,2.844928945457798,forward_fall
2.780913,1.5849,2.1335,0.186,-4.8443,0.7012,-0.6875,38.1188,-6.7313,-23.55,,0.0006010000000000737,2.664268428668553,2.841318489771707,forward_fall
2.816064,1.5849,2.1335,0.186,-4.8443,0.7012,-0.6875,38.2125,-3.6188,-22.6125,,0.03515099999999993,2.664268428668553,3.153158582394273,forward_fall
2.820509,1.5849,2.1335,0.186,-2.4605,2.5661,1.0374,38.2125,-3.6188,-22.6125,,0.004445000000000032,2.664268428668553,3.7594885952002475,forward_fall
2.840852,1.5849,2.1335,0.186,-2.4605,2.5661,1.0374,38.2125,-3.6188,-22.6125,,0.020343,2.664268428668553,4.596427999836302,forward_fall
2.841329,2.8956,-6.3637,0.9283,-2.4605,2.5661,1.0374,38.2125,-3.6188,-22.6125,,0.0004770000000000607,7.052865938042491,5.561446068134284,forward_fall
2.877811,2.8956,-6.3637,0.9283,-2.4605,2.5661,1.0374,38.5875,-0.0938,-21.75,,0.0364819999999999,7.052865938042491,6.526745290935243,forward_fall
2.881524,2.8956,-6.3637,0.9283,-0.4064,-1.5739,0.392,38.5875,-0.0938,-21.75,,0.0037130000000002994,7.052865938042491,7.359319975810082,forward_fall
2.901875,2.8956,-6.3637,0.9283,-0.4064,-1.5739,0.392,38.5875,-0.0938,-21.75,,0.020350999999999786,7.052865938042491,7.94350972184172,forward_fall
2.922576,-5.7017,-5.4131,5.406,-0.4064,-1.5739,0.392,38.5875,-0.0938,-21.75,,0.02070099999999986,9.5412719539902,8.20151811851796,forward_fall
2.936706,-5.7017,-5.4131,5.406,-0.4064,-1.5739,0.392,39.0,3.6375,-20.5125,,0.014130000000000198,9.5412719539902,8.107769823907027,forward_fall
2.942854,-5.7017,-5.4131,5.406,-0.5112,1.1461,0.0129,39.0,3.6375,-20.5125,,0.006148000000000042,9.5412719539902,7.693488047617777,forward_fall
2.963245,-5.7017,-5.4131,5.406,-0.5112,1.1461,0.0129,39.0,3.6375,-20.5125,,0.020391000000000048,9.5412719539902,7.03903115588463,forward_fall
2.983266,-0.2743,-1.5585,2.1683,-0.5112,1.1461,0.0129,39.0,3.6375,-20.5125,,0.020020999999999844,2.6843411910560104,6.254348946304852,forward_fall
2.996127,-0.2743,-1.5585,2.1683,-0.5112,1.1461,0.0129,39.5625,6.4688,-18.7125,,0.012861000000000011,2.6843411910560104,5.452248472519054,non_fall
3.003526,-0.2743,-1.5585,2.1683,-0.7529,-0.8281,0.114,39.5625,6.4688,-18.7125,,0.007398999999999933,2.6843411910560104,4.722966931808317,non_fall
3.023984,-0.2743,-1.5585,2.1683,-0.7529,-0.8281,0.114,39.5625,6.4688,-18.7125,,0.020458000000000087,2.6843411910560104,4.119047002206135,non_fall
3.044799,-5.2197,-0.7889,0.3484,-0.7529,-0.8281,0.114,39.5625,6.4688,-18.7125,,0.020814999999999806,5.290464427628258,3.6555315662035595,non_fall
3.056531,-5.2197,-0.7889,0.3484,-0.7529,-0.8281,0.114,39.9375,8.6625,-17.4563,,0.011732000000000298,5.290464427628258,3.323842810178276,non_fall
3.06479,-5.2197,-0.7889,0.3484,-0.0933,-1.2583,-0.2839,39.9375,8.6625,-17.4563,,0.008258999999999794,5.290464427628258,3.1118663131482918,non_fall
3.085211,-5.2197,-0.7889,0.3484,-0.0933,-1.2583,-0.2839,39.9375,8.6625,-17.4563,,0.020421000000000245,5.290464427628258,3.020499691659602,non_fall
3.105534,1.0739,-2.2998,-0.1948,-0.0933,-1.2583,-0.2839,39.9375,8.6625,-17.4563,,0.02032299999999987,2.5456410371456535,3.0690113402324575,non_fall
3.116081,1.0739,-2.2998,-0.1948,-0.0933,-1.2583,-0.2839,40.1438,10.65,-16.4813,,0.010546999999999862,2.5456410371456535,3.2867759371085796,non_fall
3.125269,1.0739,-2.2998,-0.1948,0.3469,-1.3165,-0.4908,40.1438,10.65,-16.4813,,0.009187999999999974,2.5456410371456535,3.694914287417285,non_fall
3.146199,1.0739,-2.2998,-0.1948,0.3469,-1.3165,-0.4908,40.1438,10.65,-16.4813,,0.020930000000000337,2.5456410371456535,4.285633292505976,non_fall
3.176081,1.0739,-2.2998,-0.1948,0.3469,-1.3165,-0.4908,40.0875,12.0,-15.675,,0.029881999999999742,2.5456410371456535,5.0082350879241,non_fall
3.186875,1.0739,-2.2998,-0.1948,0.3356,0.2422,-0.2378,40.0875,12.0,-15.675,,0.010794000000000192,2.5456410371456535,5.768765361027453,non_fall
3.187743,4.577,-0.3368,8.522,0.3356,0.2422,-0.2378,40.0875,12.0,-15.675,,0.0008680000000000909,9.679196621621033,6.445725684707197,non_fall
3.206541,4.577,-0.3368,8.522,0.3356,0.2422,-0.2378,40.0875,12.0,-15.675,,0.01879799999999987,9.679196621621033,6.918193599200734,non_fall
3.237545,4.577,-0.3368,8.522,0.3356,0.2422,-0.2378,40.2,12.4688,-15.075,,0.03100399999999981,9.679196621621033,7.09712848451664,non_fall
3.247151,4.577,-0.3368,8.522,0.2007,0.3796,-0.0815,40.2,12.4688,-15.075,,0.009606000000000225,9.679196621621033,6.948550311600726,non_fall
3.247807,0.3778,1.3017,-3.7087,0.2007,0.3796,-0.0815,40.2,12.4688,-15.075,,0.0006559999999997679,3.948621458180057,6.500376363795721,non_fall
3.267925,0.3778,1.3017,-3.7087,0.2007,0.3796,-0.0815,40.2,12.4688,-15.075,,0.02011800000000008,3.948621458180057,5.8315723119507545,non_fall
3.296112,0.3778,1.3017,-3.7087,0.2007,0.3796,-0.0815,39.9188,12.3938,-15.6,,0.028186999999999962,3.948621458180057,5.0491682541276655,non_fall
3.308092,0.3778,1.3017,-3.7087,0.6554,-0.1344,-0.0137,39.9188,12.3938,-15.6,,0.01197999999999988,3.948621458180057,4.262129675344776,non_fall
3.30877,-0.6706,-2.1754,2.0485,0.6554,-0.1344,-0.0137,39.9188,12.3938,-15.6,,0.0006780000000001785,3.0624209002029747,3.560070265089282,non_fall
3.328944,-0.6706,-2.1754,2.0485,0.6554,-0.1344,-0.0137,39.9188,12.3938,-15.6,,0.020173999999999914,3.0624209002029747,3.001083111295596,non_fall
3.357322,-0.6706,-2.1754,2.0485,0.6554,-0.1344,-0.0137,39.4688,12.6188,-16.4062,,0.028378000000000014,3.0624209002029747,2.6090941367138845,non_fall
3.370012,-0.6706,-2.1754,2.0485,0.489,-0.3265,0.0012,39.4688,12.6188,-16.4062,,0.01269000000000009,3.0624209002029747,2.378523321816988,non_fall
3.389876,-0.6706,-2.1754,2.0485,0.489,-0.3265,0.0012,39.4688,12.6188,-16.4062,,0.019864000000000104,3.0624209002029747,2.2828710861590777,non_fall
3.390785,-1.3479,-1.3344,0.6762,0.489,-0.3265,0.0012,39.4688,12.6188,-16.4062,,0.0009090000000000487,2.013629610926498,2.283958311471655,non_fall
3.416705,-1.3479,-1.3344,0.6762,0.489,-0.3265,0.0012,39.1125,12.6188,-17.25,,0.02591999999999972,2.013629610926498,2.3396692790639158,non_fall
3.430647,-1.3479,-1.3344,0.6762,0.3803,-0.1774,0.0771,39.1125,12.6188,-17.25,,0.013942000000000121,2.013629610926498,2.4095920187116713,non_fall
3.450849,-1.3479,-1.3344,0.6762,0.3803,-0.1774,0.0771,39.1125,12.6188,-17.25,,0.02020199999999983,2.013629610926498,2.4591072489113754,non_fall
3.452551,0.1385,0.83,-2.8277,0.3803,-0.1774,0.0771,39.1125,12.6188,-17.25,,0.0017020000000003144,2.9502490640622194,2.4627026613163365,non_fall
3.476933,0.1385,0.83,-2.8277,0.3803,-0.1774,0.0771,38.4563,12.6,-18.45,,0.02438199999999968,2.9502490640622194,2.4066874840179118,non_fall
3.491587,0.1385,0.83,-2.8277,0.3856,-0.0751,-0.236,38.4563,12.6,-18.45,,0.014654000000000167,2.9502490640622194,2.2906943029157296,non_fall
3.51219,-0.7222,0.5943,1.2406,0.3856,-0.0751,-0.236,38.4563,12.6,-18.45,,0.020602999999999927,1.5536581638185407,2.1271072575695604,non_fall
3.513367,-0.7222,0.5943,1.2406,0.3856,-0.0751,-0.236,38.4563,12.6,-18.45,,0.0011770000000002057,1.5536581638185407,1.9381387555249476,non_fall
3.538151,-0.7222,0.5943,1.2406,0.3856,-0.0751,-0.236,37.9875,12.5438,-19.2375,,0.024783999999999917,1.5536581638185407,1.751274450757994,non_fall
3.551644,-0.7222,0.5943,1.2406,0.1073,0.0878,-0.2236,37.9875,12.5438,-19.2375,,0.013492999999999977,1.5536581638185407,1.594428703129336,non_fall
3.573078,-0.7222,0.5943,1.2406,0.1073,0.0878,-0.2236,37.9875,12.5438,-19.2375,,0.021434000000000175,1.5536581638185407,1.491976112529673,non_fall
3.574458,-0.8749,1.3471,-0.4766,0.1073,0.0878,-0.2236,37.9875,12.5438,-19.2375,,0.0013799999999997148,1.6754927573702012,1.4621214621287146,non_fall
3.596103,-0.8749,1.3471,-0.4766,0.1073,0.0878,-0.2236,37.575,12.4875,-19.8,,0.021644999999999914,1.6754927573702012,1.5154108511661915,non_fall
3.613207,-0.8749,1.3471,-0.4766,0.0899,-1.1543,-0.2907,37.575,12.4875,-19.8,,0.01710400000000023,1.6754927573702012,1.6539204851133091,non_fall
3.633053,-0.8749,1.3471,-0.4766,0.0899,-1.1543,-0.2907,37.575,12.4875,-19.8,,0.019845999999999808,1.6754927573702012,1.870797495452008,non_fall
3.654014,-2.2918,0.3201,-0.0203,0.0899,-1.1543,-0.2907,37.575,12.4875,-19.8,,0.02096100000000023,2.3141355491846194,2.150176424526221,non_fall
3.656374,-2.2918,0.3201,-0.0203,0.0899,-1.1543,-0.2907,37.2,12.45,-20.5875,,0.0023599999999999177,2.3141355491846194,2.4678115422124884,non_fall
3.673545,-2.2918,0.3201,-0.0203,0.326,0.0839,0.0377,37.2,12.45,-20.5875,,0.017170999999999825,2.3141355491846194,2.7928969144418057,non_fall
3.693795,-2.2918,0.3201,-0.0203,0.326,0.0839,0.0377,37.2,12.45,-20.5875,,0.020250000000000323,2.3141355491846194,3.091457671664385,non_fall
3.714036,3.352,-1.7838,1.4574,0.326,0.0839,0.0377,37.2,12.45,-20.5875,,0.020240999999999953,4.067168695788263,3.3313257770364677,non_fall
3.715739,3.352,-1.7838,1.4574,0.326,0.0839,0.0377,36.9188,12.375,-21.3,,0.00170300000000001,4.067168695788263,3.4879865565378823,non_fall
3.734504,3.352,-1.7838,1.4574,-0.1011,0.5926,-0.2449,36.9188,12.375,-21.3,,0.0187649999999997,4.067168695788263,3.5497357310434245,non_fall
3.755222,3.352,-1.7838,1.4574,-0.1011,0.5926,-0.2449,36.9188,12.375,-21.3,,0.020718000000000014,4.067168695788263,3.5202546163320676,non_fall
3.776684,2.5368,-0.0832,-1.247,-0.1011,0.5926,-0.2449,36.9188,12.375,-21.3,,0.021462000000000092,2.827947220158113,3.4173696206522455,non_fall
3.778295,2.5368,-0.0832,-1.247,-0.1011,0.5926,-0.2449,36.5813,12.225,-21.8438,,0.001611000000000029,2.827947220158113,3.2681789103654255,non_fall
3.797243,2.5368,-0.0832,-1.247,-0.3308,0.2358,-0.0169,36.5813,12.225,-21.8438,,0.018947999999999965,2.827947220158113,3.102112388920554,non_fall
3.81644,2.5368,-0.0832,-1.247,-0.3308,0.2358,-0.0169,36.5813,12.225,-21.8438,,0.01919700000000013,2.827947220158113,2.9441008529582513,non_fall
3.837231,2.5368,-0.0832,-1.247,-0.3308,0.2358,-0.0169,36.3188,12.2438,-22.0875,,0.020791000000000004,2.827947220158113,2.8096725542556813,non_fall
3.856902,2.5368,-0.0832,-1.247,-0.1021,-0.7621,0.0583,36.3188,12.2438,-22.0875,,0.019670999999999772,2.827947220158113,2.702870227245908,non_fall
3.858197,-2.3349,0.37,-0.8264,-0.1021,-0.7621,0.0583,36.3188,12.2438,-22.0875,,0.0012950000000002682,2.5043152696895015,2.616979783510186,non_fall
3.876966,-2.3349,0.37,-0.8264,-0.1021,-0.7621,0.0583,36.3188,12.2438,-22.0875,,0.018768999999999814,2.5043152696895015,2.5375199913366138,non_fall
3.897137,-2.3349,0.37,-0.8264,-0.1021,-0.7621,0.0583,36.1688,12.4688,-22.5938,,0.02017099999999994,2.5043152696895015,2.4467433301710204,non_fall
3.917546,-2.3349,0.37,-0.8264,-0.1913,-0.3425,0.0963,36.1688,12.4688,-22.5938,,0.020409000000000344,2.5043152696895015,2.3288578529644726,non_fall
3.918569,-1.3543,-0.0286,1.4452,-0.1913,-0.3425,0.0963,36.1688,12.4688,-22.5938,,0.0010229999999999961,1.980795166088609,2.175170774510059,non_fall
3.937288,-1.3543,-0.0286,1.4452,-0.1913,-0.3425,0.0963,36.1688,12.4688,-22.5938,,0.01871899999999993,1.980795166088609,1.9883764381442603,non_fall
3.956618,-1.3543,-0.0286,1.4452,-0.1913,-0.3425,0.0963,35.9813,12.6563,-22.725,,0.01933000000000007,1.980795166088609,1.78527911304223,non_fall
3.979099,1.5296,0.01,-0.9169,-0.1913,-0.3425,0.0963,35.9813,12.6563,-22.725,,0.022480999999999973,1.7833905264972114,1.5973073873680619,non_fall
3.980152,1.5296,0.01,-0.9169,-0.4916,0.2294,0.0886,35.9813,12.6563,-22.725,,0.0010529999999997486,1.7833905264972114,1.4682410579284706,non_fall
3.999422,1.5296,0.01,-0.9169,-0.4916,0.2294,0.0886,35.9813,12.6563,-22.725,,0.01927000000000012,1.7833905264972114,1.4487641099807056,non_fall
4.016546,1.5296,0.01,-0.9169,-0.4916,0.2294,0.0886,35.8875,12.6938,-22.8,,0.017123999999999917,1.7833905264972114,1.5879249488843976,non_fall
4.04023,1.5296,0.01,-0.9169,-0.53,-0.6257,0.976,35.8875,12.6938,-22.8,,0.02368400000000026,1.7833905264972114,1.9223419315698098,non_fall
4.041987,-1.1808,1.7576,-1.3397,-0.53,-0.6257,0.976,35.8875,12.6938,-22.8,,0.0017569999999995645,2.5056421312709443,2.4648982918782067,non_fall
4.060257,-1.1808,1.7576,-1.3397,-0.53,-0.6257,0.976,35.8875,12.6938,-22.8,,0.01827000000000023,2.5056421312709443,3.195482615249866,non_fall
4.076449,-1.1808,1.7576,-1.3397,-0.53,-0.6257,0.976,35.7188,12.825,-23.25,,0.016192000000000206,2.5056421312709443,4.056766153823219,non_fall
4.100452,-1.1808,1.7576,-1.3397,-0.7699,-0.8856,-0.4188,35.7188,12.825,-23.25,,0.024002999999999552,2.5056421312709443,4.95773130466818,non_fall
4.124295,-2.7009,3.158,6.6688,-0.7699,-0.8856,-0.4188,35.7188,12.825,-23.25,,0.02384300000000028,7.8575262169463995,5.786234885597002,non_fall
4.126026,-2.7009,3.158,6.6688,-0.7699,-0.8856,-0.4188,35.7188,12.825,-23.25,,0.0017310000000003711,7.8575262169463995,6.429127076762079,non_fall
4.136048,-2.7009,3.158,6.6688,-0.7699,-0.8856,-0.4188,35.5688,13.1813,-23.3063,,0.01002199999999931,7.8575262169463995,6.795262776373966,non_fall
4.161773,-2.7009,3.158,6.6688,-1.8743,-0.8479,1.0864,35.5688,13.1813,-23.3063,,0.025725000000000442,7.8575262169463995,6.8350723020016275,non_fall
4.181652,3.101,4.0756,-1.7243,-1.8743,-0.8479,1.0864,35.5688,13.1813,-23.3063,,0.019878999999999536,5.403695665930863,6.551483142272333,non_fall
4.182765,3.101,4.0756,-1.7243,-1.8743,-0.8479,1.0864,35.5688,13.1813,-23.3063,,0.0011130000000001417,5.403695665930863,6.00014986740052,non_fall
4.196424,3.101,4.0756,-1.7243,-1.8743,-0.8479,1.0864,35.3813,13.65,-23.2875,,0.013659000000000532,5.403695665930863,5.280101141296727,non_fall
4.222121,3.101,4.0756,-1.7243,-2.9468,1.6516,-0.4164,35.3813,13.65,-23.2875,,0.025696999999999193,5.403695665930863,4.5174923565595595,non_fall
4.242517,3.101,4.0756,-1.7243,-2.9468,1.6516,-0.4164,35.3813,13.65,-23.2875,,0.020396000000000747,5.403695665930863,3.8451354601118015,non_fall
4.244057,1.899,0.7207,-0.5624,-2.9468,1.6516,-0.4164,35.3813,13.65,-23.2875,,0.0015399999999994307,2.1075823234217923,3.3801120656482366,non_fall
4.256701,1.899,0.7207,-0.5624,-2.9468,1.6516,-0.4164,35.3813,14.4938,-22.725,,0.012643999999999878,2.1075823234217923,3.202287426435974,non_fall
4.283207,1.899,0.7207,-0.5624,-1.9187,-2.5409,-0.2392,35.3813,14.4938,-22.725,,0.026506000000000363,2.1075823234217923,3.337819900832124,non_fall
4.303641,1.899,0.7207,-0.5624,-1.9187,-2.5409,-0.2392,35.3813,14.4938,-22.725,,0.02043399999999984,2.1075823234217923,3.75239892172053,non_fall
4.316779,1.899,0.7207,-0.5624,-1.9187,-2.5409,-0.2392,34.95,15.6188,-22.4062,,0.013138000000000538,2.1075823234217923,4.357637715708359,non_fall
4.325786,-7.4644,2.6213,0.2203,-1.9187,-2.5409,-0.2392,34.95,15.6188,-22.4062,,0.009006999999999543,7.914354878320785,5.03066503627687,non_fall
4.343472,-7.4644,2.6213,0.2203,-2.1303,-0.3048,-1.1381,34.95,15.6188,-22.4062,,0.017686000000000313,7.914354878320785,5.642500573382801,non_fall
4.364407,-7.4644,2.6213,0.2203,-2.1303,-0.3048,-1.1381,34.95,15.6188,-22.4062,,0.020934999999999704,7.914354878320785,6.087097163220122,non_fall
4.37638,-7.4644,2.6213,0.2203,-2.1303,-0.3048,-1.1381,34.2938,17.2313,-21.75,,0.011973000000000233,7.914354878320785,6.302147204526356,non_fall
4.384308,3.4523,-1.4719,-2.6568,-2.1303,-0.3048,-1.1381,34.2938,17.2313,-21.75,,0.007927999999999713,4.5982008590317145,6.275855200901026,non_fall
4.405993,3.4523,-1.4719,-2.6568,-1.5385,-2.3468,0.3526,34.2938,17.2313,-21.75,,0.021684999999999732,4.5982008590317145,6.039473686435342,non_fall
4.425564,3.4523,-1.4719,-2.6568,-1.5385,-2.3468,0.3526,34.2938,17.2313,-21.75,,0.019571000000000005,4.5982008590317145,5.65056661485716,non_fall
4.437026,3.4523,-1.4719,-2.6568,-1.5385,-2.3468,0.3526,33.6375,18.7875,-21.1875,,0.01146200000000075,4.5982008590317145,5.174292081058166,non_fall
4.447841,-0.9478,-4.1795,-0.7649,-1.5385,-2.3468,0.3526,33.6375,18.7875,-21.1875,,0.010815000000000019,4.353345506619019,4.668953334341188,non_fall
4.465705,-0.9478,-4.1795,-0.7649,-2.1204,-0.4269,1.0402,33.6375,18.7875,-21.1875,,0.017863999999999436,4.353345506619019,4.178936487992238,non_fall
4.488367,-0.9478,-4.1795,-0.7649,-2.1204,-0.4269,1.0402,33.6375,18.7875,-21.1875,,0.022662000000000404,4.353345506619019,3.7347920843146025,non_fall
4.498533,-0.9478,-4.1795,-0.7649,-2.1204,-0.4269,1.0402,33.0375,20.5312,-20.3438,,0.010165999999999897,4.353345506619019,3.3578607399751683,non_fall
4.506653,1.1513,2.7964,-0.0485,-2.1204,-0.4269,1.0402,33.0375,20.5312,-20.3438,,0.008119999999999905,3.0245159778053745,3.0659195217143087,non_fall
4.526874,1.1513,2.7964,-0.0485,-1.9223,-1.5626,0.795,33.0375,20.5312,-20.3438,,0.020221000000000267,3.0245159778053745,2.876785456800986,non_fall
4.546567,1.1513,2.7964,-0.0485,-1.9223,-1.5626,0.795,33.0375,20.5312,-20.3438,,0.019692999999999294,3.0245159778053745,2.8082206582690863,non_fall
4.556167,1.1513,2.7964,-0.0485,-1.9223,-1.5626,0.795,32.4,22.2375,-18.8438,,0.009600000000000719,3.0245159778053745,2.874118728940206,non_fall
4.589375,1.1513,2.7964,-0.0485,-2.2652,0.4651,-0.2463,32.4,22.2375,-18.8438,,0.033208000000000126,3.0245159778053745,3.078243628014103,non_fall
4.591039,1.1237,1.8215,1.6761,-2.2652,0.4651,-0.2463,32.4,22.2375,-18.8438,,0.0016639999999998878,2.7184324803091946,3.40762945660776,non_fall
4.608871,1.1237,1.8215,1.6761,-2.2652,0.4651,-0.2463,32.4,22.2375,-18.8438,,0.017831999999999404,2.7184324803091946,3.828213219842342,non_fall
4.616576,1.1237,1.8215,1.6761,-2.2652,0.4651,-0.2463,32.1188,23.7,-16.9688,,0.007705000000000517,2.7184324803091946,4.285193544224802,non_fall
4.648798,0.0019,-5.7253,-1.4424,-2.2652,0.4651,-0.2463,32.1188,23.7,-16.9688,,0.03222199999999997,5.904200323498518,4.709578553441112,non_fall
4.649878,0.0019,-5.7253,-1.4424,-1.2006,-2.2733,1.0583,32.1188,23.7,-16.9688,,0.0010799999999999699,5.904200323498518,5.030290087415846,non_fall
4.670601,0.0019,-5.7253,-1.4424,-1.2006,-2.2733,1.0583,32.1188,23.7,-16.9688,,0.02072299999999938,5.904200323498518,5.188764868041973,non_fall
4.676673,0.0019,-5.7253,-1.4424,-1.2006,-2.2733,1.0583,31.725,25.0125,-15.2438,,0.006072000000000521,5.904200323498518,5.15160003074509,non_fall
4.710871,0.0019,-5.7253,-1.4424,-1.9344,0.6693,0.927,31.725,25.0125,-15.2438,,0.03419799999999995,5.904200323498518,4.9173149702058465,non_fall
4.713279,0.0255,3.1153,-0.6799,-1.9344,0.6693,0.927,31.725,25.0125,-15.2438,,0.0024079999999999657,3.188731464077839,4.515421173177244,non_fall
4.730084,0.0255,3.1153,-0.6799,-1.9344,0.6693,0.927,31.725,25.0125,-15.2438,,0.016804999999999737,3.188731464077839,3.9986302469622768,non_fall
4.736239,0.0255,3.1153,-0.6799,-1.9344,0.6693,0.927,31.4813,25.9688,-13.8563,,0.006155000000000577,3.188731464077839,3.4310646196267744,non_fall
4.770774,0.0255,3.1153,-0.6799,-1.1217,-0.3059,1.6842,31.4813,25.9688,-13.8563,,0.03453499999999998,3.188731464077839,2.8759436901233144,non_fall
4.79124,0.0255,3.1153,-0.6799,-1.1217,-0.3059,1.6842,31.4813,25.9688,-13.8563,,0.020465999999999873,3.188731464077839,2.385343065792744,non_fall
4.792375,-0.5664,0.0297,-1.0501,-1.1217,-0.3059,1.6842,31.4813,25.9688,-13.8563,,0.001134999999999664,1.1934827439054156,1.9931978312696104,non_fall
4.800907,-0.5664,0.0297,-1.0501,-1.1217,-0.3059,1.6842,32.0063,26.1188,-12.0563,,0.008531999999999762,1.1934827439054156,1.7118612003377311,non_fall
4.831466,-0.5664,0.0297,-1.0501,-0.2758,-0.3819,0.0679,32.0063,26.1188,-12.0563,,0.030559000000000225,1.1934827439054156,1.5324425233753545,non_fall
4.851688,-0.5664,0.0297,-1.0501,-0.2758,-0.3819,0.0679,32.0063,26.1188,-12.0563,,0.020222000000000406,1.1934827439054156,1.429102698909803,non_fall
4.852934,0.0992,-1.112,-1.5483,-0.2758,-0.3819,0.0679,32.0063,26.1188,-12.0563,,0.0012460000000000804,1.908826217862695,1.3668172307488529,non_fall
4.855659,0.0992,-1.112,-1.5483,-0.2758,-0.3819,0.0679,32.7,25.725,-10.5,,0.0027249999999998664,1.908826217862695,1.3109710833213382,non_fall
4.892566,0.0992,-1.112,-1.5483,-0.508,-0.4077,0.233,32.7,25.725,-10.5,,0.036907000000000245,1.908826217862695,1.2362415094816686,non_fall
4.912987,0.0992,-1.112,-1.5483,-0.508,-0.4077,0.233,32.7,25.725,-10.5,,0.0204209999999998,1.908826217862695,1.1321902628232925,non_fall
4.913915,0.2859,-0.0133,0.1118,-0.508,-0.4077,0.233,32.7,25.725,-10.5,,0.0009280000000000399,0.3072701417319945,1.0040012903821203,non_fall
4.917471,0.2859,-0.0133,0.1118,-0.508,-0.4077,0.233,33.5625,25.2375,-8.9625,,0.0035559999999996705,0.3072701417319945,0.8685222485730073,non_fall
4.952387,0.2859,-0.0133,0.1118,-1.2796,0.2145,0.7726,33.5625,25.2375,-8.9625,,0.03491599999999995,0.3072701417319945,0.7474445013143863,non_fall
4.973284,0.2859,-0.0133,0.1118,-1.2796,0.2145,0.7726,33.5625,25.2375,-8.9625,,0.02089699999999972,0.3072701417319945,0.6602643390280674,non_fall
4.974204,-0.5157,0.233,-0.6148,-1.2796,0.2145,0.7726,33.5625,25.2375,-8.9625,,0.000920000000000698,0.8355923228464944,0.6192588555535039,non_fall
4.976214,-0.5157,0.233,-0.6148,-1.2796,0.2145,0.7726,34.3125,24.5438,-7.65,,0.002009999999999401,0.8355923228464944,0.6274712904238511,non_fall
5.013318,-0.5157,0.233,-0.6148,-0.0976,0.1003,0.2944,34.3125,24.5438,-7.65,,0.03710400000000025,0.8355923228464944,0.6794087128388355,non_fall
5.033614,-0.5157,0.233,-0.6148,-0.0976,0.1003,0.2944,34.3125,24.5438,-7.65,,0.020296000000000092,0.8355923228464944,0.763401278916693,non_fall
5.035764,-0.5157,0.233,-0.6148,-0.0976,0.1003,0.2944,35.325,23.7,-6.4313,,0.0021500000000003183,0.8355923228464944,0.8644895039396912,non_fall
5.05435,0.1576,-0.1831,-1.0094,-0.0976,0.1003,0.2944,35.325,23.7,-6.4313,,0.01858599999999999,1.0379073802608785,0.9670533280882919,non_fall
5.074456,0.1576,-0.1831,-1.0094,0.1233,-0.0354,0.1819,35.325,23.7,-6.4313,,0.02010599999999929,1.0379073802608785,1.0568310347893795,non_fall
5.094738,0.1576,-0.1831,-1.0094,0.1233,-0.0354,0.1819,35.325,23.7,-6.4313,,0.0202820000000008,1.0379073802608785,1.122290814085631,non_fall
5.095964,0.1576,-0.1831,-1.0094,0.1233,-0.0354,0.1819,36.3,22.8,-5.6813,,0.0012259999999999494,1.0379073802608785,1.1554803772807989,non_fall
5.115112,-0.8128,-0.5796,-0.6479,0.1233,-0.0354,0.1819,36.3,22.8,-5.6813,,0.0191479999999995,1.1901068901573506,1.1525171846323363,non_fall
5.134904,-0.8128,-0.5796,-0.6479,-0.1136,0.0562,-0.24,36.3,22.8,-5.6813,,0.01979199999999981,1.1901068901573506,1.113806305500503,non_fall
5.15698,-0.8128,-0.5796,-0.6479,-0.1136,0.0562,-0.24,36.3,22.8,-5.6813,,0.022076000000000207,1.1901068901573506,1.0439252535498973,non_fall
5.157967,-0.8128,-0.5796,-0.6479,-0.1136,0.0562,-0.24,37.2188,22.0875,-4.9125,,0.0009870000000002932,1.1901068901573506,0.95100646617691,non_fall
5.177033,-0.1711,-0.1263,-0.5324,-0.1136,0.0562,-0.24,37.2188,22.0875,-4.9125,,0.019065999999999583,0.5733032879724309,0.845501863477694,non_fall
5.196607,-0.1711,-0.1263,-0.5324,0.1172,0.0253,0.0758,37.2188,22.0875,-4.9125,,0.019574000000000424,0.5733032879724309,0.7384521657965276,non_fall
5.216607,-0.1711,-0.1263,-0.5324,0.1172,0.0253,0.0758,37.8375,21.4875,-4.5375,,0.019999999999999574,0.5733032879724309,0.6396653071940455,non_fall
5.217905,-0.1711,-0.1263,-0.5324,0.1172,0.0253,0.0758,37.8375,21.4875,-4.5375,,0.0012980000000002434,0.5733032879724309,0.5563104635664758,non_fall
5.258008,-0.1711,-0.1263,-0.5324,0.0072,0.1862,0.4161,37.8375,21.4875,-4.5375,,0.04010300000000022,0.5733032879724309,0.4922583015941908,non_fall
5.260207,0.2767,0.041,-0.3469,0.0072,0.1862,0.4161,37.8375,21.4875,-4.5375,,0.002199000000000062,0.4456270862503759,0.4481785109755122,non_fall
5.277748,0.2767,0.041,-0.3469,0.0072,0.1862,0.4161,37.8375,21.4875,-4.5375,,0.017540999999999585,0.4456270862503759,0.4221639529642454,non_fall
5.27951,0.2767,0.041,-0.3469,0.0072,0.1862,0.4161,38.2688,21.1313,-4.2938,,0.0017620000000002634,0.4456270862503759,0.41058524001174346,non_fall
5.320288,0.2767,0.041,-0.3469,0.2791,-0.2683,-0.1352,38.2688,21.1313,-4.2938,,0.04077799999999954,0.4456270862503759,0.4089391931729016,non_fall
5.32518,-0.0285,0.0062,-0.3852,0.2791,-0.2683,-0.1352,38.2688,21.1313,-4.2938,,0.004891999999999896,0.38630264042587126,0.41255442951106275,non_fall
5.337408,-0.0285,0.0062,-0.3852,0.2791,-0.2683,-0.1352,38.55,20.5875,-4.05,,0.01222800000000035,0.38630264042587126,0.417115426611977,non_fall
5.339776,-0.0285,0.0062,-0.3852,0.2791,-0.2683,-0.1352,38.55,20.5875,-4.05,,0.0023679999999997037,0.38630264042587126,0.4190468421776847,non_fall
5.381064,-0.0285,0.0062,-0.3852,0.4083,-0.3798,0.18,38.55,20.5875,-4.05,,0.04128800000000066,0.38630264042587126,0.4158389391177769,non_fall
5.383292,-0.3302,-0.237,-0.093,0.4083,-0.3798,0.18,38.55,20.5875,-4.05,,0.0022279999999996747,0.41695328275479493,0.40637285453612354,non_fall
5.396691,-0.3302,-0.237,-0.093,0.4083,-0.3798,0.18,38.8688,20.25,-3.975,,0.013398999999999717,0.41695328275479493,0.3912322812397449,non_fall
5.400244,-0.3302,-0.237,-0.093,0.4083,-0.3798,0.18,38.8688,20.25,-3.975,,0.0035530000000001394,0.41695328275479493,0.37290574755101785,non_fall
5.441107,-0.3302,-0.237,-0.093,-0.0138,0.2397,0.1005,38.8688,20.25,-3.975,,0.04086299999999987,0.41695328275479493,0.3557358633501837,non_fall
5.4433,0.1224,0.156,-0.3067,-0.0138,0.2397,0.1005,38.8688,20.25,-3.975,,0.0021930000000001115,0.3652158950538708,0.3454879861384984,non_fall
5.459469,0.1224,0.156,-0.3067,-0.0138,0.2397,0.1005,39.0,19.9688,-4.05,,0.016169000000000544,0.3652158950538708,0.3484945794082052,non_fall
5.460494,0.1224,0.156,-0.3067,-0.0138,0.2397,0.1005,39.0,19.9688,-4.05,,0.0010249999999993875,0.3652158950538708,0.37046049897885536,non_fall
5.501989,0.1224,0.156,-0.3067,-0.224,0.0399,0.5408,39.0,19.9688,-4.05,,0.04149500000000028,0.3652158950538708,0.41514859230971934,non_fall
5.516999,0.1224,0.156,-0.3067,-0.224,0.0399,0.5408,39.2625,19.5375,-4.0875,,0.01501000000000019,0.3652158950538708,0.4832622520889479,non_fall
5.523251,0.1224,0.156,-0.3067,-0.224,0.0399,0.5408,39.2625,19.5375,-4.0875,,0.006251999999999924,0.3652158950538708,0.5718642696667551,non_fall
5.524119,-0.1371,-0.8275,-0.0983,-0.224,0.0399,0.5408,39.2625,19.5375,-4.0875,,0.0008679999999996468,0.8445208996821808,0.6745830351527613,non_fall
5.564421,-0.1371,-0.8275,-0.0983,-0.4171,-0.3361,0.9462,39.2625,19.5375,-4.0875,,0.040302000000000504,0.8445208996821808,0.7826474967591575,non_fall
5.576869,-0.1371,-0.8275,-0.0983,-0.4171,-0.3361,0.9462,39.525,19.0875,-4.2375,,0.012448000000000015,0.8445208996821808,0.8865329669924819,non_fall
5.583691,-0.1371,-0.8275,-0.0983,-0.4171,-0.3361,0.9462,39.525,19.0875,-4.2375,,0.006821999999999662,0.8445208996821808,0.9778253345518659,non_fall
5.584565,0.3264,-1.176,0.3576,-0.4171,-0.3361,0.9462,39.525,19.0875,-4.2375,,0.0008739999999995973,1.2717667710708596,1.0508822964053093,non_fall
5.622344,0.3264,-1.176,0.3576,-0.087,-0.625,0.655,39.525,19.0875,-4.2375,,0.03777900000000045,1.2717667710708596,1.1039136629575017,non_fall
5.636644,0.3264,-1.176,0.3576,-0.087,-0.625,0.655,39.8438,18.0938,-4.575,,0.014300000000000423,1.2717667710708596,1.1391579819973037,non_fall
5.643344,0.3264,-1.176,0.3576,-0.087,-0.625,0.655,39.8438,18.0938,-4.575,,0.006699999999999484,1.2717667710708596,1.1619733269859827,non_fall
5.64391,0.908,-0.1802,0.057,-0.087,-0.625,0.655,39.8438,18.0938,-4.575,,0.0005660000000000664,0.9274616110653853,1.178976176074681,non_fall
5.684253,0.908,-0.1802,0.057,-0.1434,-0.5882,0.5433,39.8438,18.0938,-4.575,,0.04034300000000002,0.9274616110653853,1.1957842293072436,non_fall
5.698162,0.908,-0.1802,0.057,-0.1434,-0.5882,0.5433,40.0875,16.9875,-4.8563,,0.01390899999999995,0.9274616110653853,1.215223257514142,non_fall
5.704655,0.908,-0.1802,0.057,-0.1434,-0.5882,0.5433,40.0875,16.9875,-4.8563,,0.00649299999999986,0.9274616110653853,1.2368169152773063,non_fall
5.724854,0.3072,-1.5945,-0.1004,-0.1434,-0.5882,0.5433,40.0875,16.9875,-4.8563,,0.020198999999999856,1.626924168484813,1.257911292591942,non_fall
5.744804,0.3072,-1.5945,-0.1004,-0.1835,-1.1441,1.0928,40.0875,16.9875,-4.8563,,0.01995000000000058,1.626924168484813,1.2760408209704506,non_fall
5.756845,0.3072,-1.5945,-0.1004,-0.1835,-1.1441,1.0928,40.4062,15.6563,-5.6625,,0.012040999999999968,1.626924168484813,1.29147127466475,non_fall
5.765842,0.3072,-1.5945,-0.1004,-0.1835,-1.1441,1.0928,40.4062,15.6563,-5.6625,,0.008996999999999922,1.626924168484813,1.3086516858614283,non_fall
5.785967,0.1723,-1.0498,-0.3113,-0.1835,-1.1441,1.0928,40.4062,15.6563,-5.6625,,0.02012500000000017,1.108456142569475,1.335745000707086,non_fall
5.806318,0.1723,-1.0498,-0.3113,-0.8669,-0.33,1.4097,40.4062,15.6563,-5.6625,,0.020350999999999786,1.108456142569475,1.3822948421638825,non_fall
5.818268,0.1723,-1.0498,-0.3113,-0.8669,-0.33,1.4097,40.7438,14.0438,-6.4125,,0.011949999999999683,1.108456142569475,1.4559736249276674,non_fall
5.826482,0.1723,-1.0498,-0.3113,-0.8669,-0.33,1.4097,40.7438,14.0438,-6.4125,,0.00821400000000061,1.108456142569475,1.5598026046493814,non_fall
5.847448,0.4985,-1.6136,1.0617,-0.8669,-0.33,1.4097,40.7438,14.0438,-6.4125,,0.020965999999999596,1.9948468863549405,1.691027586995564,non_fall
5.867849,0.4985,-1.6136,1.0617,0.9394,0.1525,1.0069,40.7438,14.0438,-6.4125,,0.02040099999999967,1.9948468863549405,1.8420973805651513,non_fall
5.877513,0.4985,-1.6136,1.0617,0.9394,0.1525,1.0069,41.2125,11.9438,-6.9375,,0.009664000000000783,1.9948468863549405,2.00331794789772,non_fall
5.887113,0.4985,-1.6136,1.0617,0.9394,0.1525,1.0069,41.2125,11.9438,-6.9375,,0.009599999999999831,1.9948468863549405,2.166171880923352,non_fall
5.907566,1.4696,0.4243,2.3829,0.9394,0.1525,1.0069,41.2125,11.9438,-6.9375,,0.020452999999999832,2.831601500917811,2.326163194977066,non_fall
5.927182,1.4696,0.4243,2.3829,2.1574,-0.3798,0.1336,41.2125,11.9438,-6.9375,,0.019616000000000078,2.831601500917811,2.484213242446904,non_fall
5.93696,1.4696,0.4243,2.3829,2.1574,-0.3798,0.1336,41.8125,9.7875,-7.65,,0.009777999999999842,2.831601500917811,2.6459318678356736,non_fall
5.948103,1.4696,0.4243,2.3829,2.1574,-0.3798,0.1336,41.8125,9.7875,-7.65,,0.011142999999999681,2.831601500917811,2.8185841050185787,non_fall
5.988314,1.4696,0.4243,2.3829,0.9384,-0.5455,1.3253,41.8125,9.7875,-7.65,,0.04021100000000022,2.831601500917811,3.00634198512571,non_fall
5.989387,0.8238,1.8288,-1.7301,0.9384,-0.5455,1.3253,41.8125,9.7875,-7.65,,0.0010729999999998796,2.648849163316024,3.2052556477319385,non_fall
5.998458,0.8238,1.8288,-1.7301,0.9384,-0.5455,1.3253,42.1313,7.4063,-9.0188,,0.009071000000000495,2.648849163316024,3.399911935754288,non_fall
6.009047,0.8238,1.8288,-1.7301,0.9384,-0.5455,1.3253,42.1313,7.4063,-9.0188,,0.010588999999999515,2.648849163316024,3.563638747174039,non_fall
6.050107,-1.4237,0.8481,-3.9087,0.9384,-0.5455,1.3253,42.1313,7.4063,-9.0188,,0.041059999999999874,4.245483599073255,3.663190955046492,non_fall
6.05138,-1.4237,0.8481,-3.9087,-1.1356,-0.5473,0.8127,42.1313,7.4063,-9.0188,,0.0012730000000003017,4.245483599073255,3.6672308883063627,non_fall
6.056205,-1.4237,0.8481,-3.9087,-1.1356,-0.5473,0.8127,42.2438,4.725,-10.275,,0.004825000000000301,4.245483599073255,3.556159951634086,non_fall
6.069981,-1.4237,0.8481,-3.9087,-1.1356,-0.5473,0.8127,42.2438,4.725,-10.275,,0.01377600000000001,4.245483599073255,3.3298478584342255,non_fall
6.1109,-1.4237,0.8481,-3.9087,-1.0075,-0.4756,0.2352,42.2438,4.725,-10.275,,0.040918999999999706,4.245483599073255,3.0101651441444686,non_fall
6.113325,1.218,0.1853,-0.4991,-1.0075,-0.4756,0.2352,42.2438,4.725,-10.275,,0.0024249999999996774,1.3292708151464094,2.636918154993244,non_fall
6.115849,1.218,0.1853,-0.4991,-1.0075,-0.4756,0.2352,42.4125,2.3625,-11.475,,0.0025240000000001928,1.3292708151464094,2.2582181999085003,non_fall
6.130488,1.218,0.1853,-0.4991,-1.0075,-0.4756,0.2352,42.4125,2.3625,-11.475,,0.014638999999999847,1.3292708151464094,1.9185082467987324,non_fall
6.171357,1.218,0.1853,-0.4991,0.0611,-0.1802,0.4847,42.4125,2.3625,-11.475,,0.04086900000000071,1.3292708151464094,1.6483340555330397,non_fall
6.176971,1.218,0.1853,-0.4991,0.0611,-0.1802,0.4847,42.4875,0.15,-13.0125,,0.005613999999999564,1.3292708151464094,1.4590258954717594,non_fall
6.1916,1.218,0.1853,-0.4991,0.0611,-0.1802,0.4847,42.4875,0.15,-13.0125,,0.014629000000000225,1.3292708151464094,1.3433924733244744,non_fall
6.192517,-0.1025,0.2189,1.7663,0.0611,-0.1802,0.4847,42.4875,0.15,-13.0125,,0.0009169999999993905,1.782761663823855,1.2814409217113407,non_fall
6.231849,-0.1025,0.2189,1.7663,-0.1743,0.0899,0.4485,42.4875,0.15,-13.0125,,0.03933200000000081,1.782761663823855,1.2487415537645234,non_fall
6.236274,-0.1025,0.2189,1.7663,-0.1743,0.0899,0.4485,42.5063,-1.9313,-13.95,,0.004424999999999457,1.782761663823855,1.2245481027625944,non_fall
6.252127,-0.1025,0.2189,1.7663,-0.1743,0.0899,0.4485,42.5063,-1.9313,-13.95,,0.015852999999999895,1.782761663823855,1.1971601313344746,non_fall
6.252787,-0.1212,0.5023,0.3743,-0.1743,0.0899,0.4485,42.5063,-1.9313,-13.95,,0.0006599999999998829,0.6380401398031318,1.1651642357580505,non_fall
6.292403,-0.1212,0.5023,0.3743,-0.69,0.0796,0.1666,42.5063,-1.9313,-13.95,,0.03961600000000054,0.6380401398031318,1.1347788247839392,non_fall
6.295911,-0.1212,0.5023,0.3743,-0.69,0.0796,0.1666,42.525,-3.45,-15.0,,0.0035080000000000666,0.6380401398031318,1.1149621957800402,non_fall
6.312754,-0.1212,0.5023,0.3743,-0.69,0.0796,0.1666,42.525,-3.45,-15.0,,0.01684299999999972,0.6380401398031318,1.112591180436818,non_fall
6.313466,0.3272,1.1672,-0.808,-0.69,0.0796,0.1666,42.525,-3.45,-15.0,,0.0007120000000000459,1.4568046128427794,1.1295955689520545,non_fall
6.353983,0.3272,1.1672,-0.808,-0.1643,0.1708,0.1489,42.525,-3.45,-15.0,,0.04051700000000036,1.4568046128427794,1.1627425109002747,non_fall
6.357973,0.3272,1.1672,-0.808,-0.1643,0.1708,0.1489,42.3563,-4.6688,-15.9938,,0.003989999999999938,1.4568046128427794,1.205491428514526,non_fall
6.374217,0.3272,1.1672,-0.808,-0.1643,0.1708,0.1489,42.3563,-4.6688,-15.9938,,0.01624399999999948,1.4568046128427794,1.2506148626220628,non_fall
6.374861,-0.4278,0.9204,0.6668,-0.1643,0.1708,0.1489,42.3563,-4.6688,-15.9938,,0.000644000000000311,1.2144015974956555,1.2923335487670067,non_fall
6.414588,-0.4278,0.9204,0.6668,1.0061,0.0668,0.0526,42.3563,-4.6688,-15.9938,,0.03972700000000007,1.2144015974956555,1.3273159341128613,non_fall
6.417137,-0.4278,0.9204,0.6668,1.0061,0.0668,0.0526,42.0938,-5.7938,-16.7063,,0.0025490000000001345,1.2144015974956555,1.3545962671939815,non_fall
6.435211,-0.4278,0.9204,0.6668,1.0061,0.0668,0.0526,42.0938,-5.7938,-16.7063,,0.01807399999999948,1.2144015974956555,1.374913276841742,non_fall
6.45515,0.4595,1.248,0.3801,1.0061,0.0668,0.0526,42.0938,-5.7938,-16.7063,,0.01993899999999993,1.3831559058905831,1.3900350185241868,non_fall
