time,ax,ay,az,wx,wy,wz,Bx,By,Bz,Unnamed: 10,time_diff,acc_mag,acc_mag_filtered,label
0.06629,0.0,0.0,0.0,0.0,0.0,0.0,0.0,0.0,0.0,,0.0,0.0,-4.600030797908695e-05,non_fall
0.06653,0.0,0.0,0.0,0.0162,-0.0198,-0.0067,0.0,0.0,0.0,,0.0002400000000000041,0.0,-0.0027898448309736194,non_fall
0.100591,0.0,0.0,0.0,0.0162,-0.0198,-0.0067,0.0,0.0,0.0,,0.034060999999999994,0.0,-0.004985383623775856,non_fall
0.121116,0.0,0.0,0.0,0.0162,-0.0198,-0.0067,45.8063,11.8875,0.8625,,0.020525,0.0,-0.006164060429196332,non_fall
0.162182,0.0,0.0,0.0,0.0162,-0.0198,-0.0067,45.8063,11.8875,0.8625,,0.04106599999999999,0.0,-0.005889751806517656,non_fall
0.163867,0.0,0.0,0.0,0.0194,0.0157,0.0249,45.8063,11.8875,0.8625,,0.0016850000000000198,0.0,-0.0038074617259924413,non_fall
0.181933,0.0,0.0,0.0,0.0194,0.0157,0.0249,46.2375,11.9625,1.0688,,0.018066,0.0,0.00027616948595679574,non_fall
0.205819,0.0,0.0,0.0,0.0194,0.0157,0.0249,46.2375,11.9625,1.0688,,0.02388599999999999,0.0,0.006299262514080232,non_fall
0.222727,0.0,0.0,0.0,0.0194,0.0157,0.0249,46.2375,11.9625,1.0688,,0.016908000000000006,0.0,0.013872192337462227,non_fall
0.223903,0.0,0.0,0.0,0.0208,-0.0064,0.0121,46.2375,11.9625,1.0688,,0.0011759999999999826,0.0,0.022267462745862315,non_fall
0.242315,0.0,0.0,0.0,0.0208,-0.0064,0.0121,45.9938,11.625,1.3875,,0.01841200000000001,0.0,0.030505419506502533,non_fall
0.262192,-0.0702,0.0164,0.007,0.0208,-0.0064,0.0121,45.9938,11.625,1.3875,,0.019876999999999978,0.07242927584892728,0.03754146144264156,non_fall
0.282546,-0.0702,0.0164,0.007,0.0165,0.0032,0.0232,45.9938,11.625,1.3875,,0.02035400000000004,0.07242927584892728,0.042515381910469385,non_fall
0.285024,-0.0702,0.0164,0.007,0.0165,0.0032,0.0232,45.9938,11.625,1.3875,,0.0024779999999999802,0.07242927584892728,0.04498008390110726,non_fall
0.30341,-0.0702,0.0164,0.007,0.0165,0.0032,0.0232,46.0312,11.4,1.6125,,0.018386000000000013,0.07242927584892728,0.04501549038251473,non_fall
0.322863,0.0003,0.0125,0.0025,0.0165,0.0032,0.0232,46.0312,11.4,1.6125,,0.019452999999999998,0.012751078385768007,0.04317176628280442,non_fall
0.343902,0.0003,0.0125,0.0025,0.0165,0.0032,0.0232,46.0312,11.4,1.6125,,0.021038999999999974,0.012751078385768007,0.04025940708317654,non_fall
0.346066,0.0003,0.0125,0.0025,0.018,-0.0149,0.0146,46.0312,11.4,1.6125,,0.0021639999999999993,0.012751078385768007,0.03707296943712834,non_fall
0.36119,0.0003,0.0125,0.0025,0.018,-0.0149,0.0146,45.8813,11.3625,1.4062,,0.015124000000000026,0.012751078385768007,0.03416223737744978,non_fall
0.40609,-0.0407,-0.0105,0.012,0.018,-0.0149,0.0146,45.8813,11.3625,1.4062,,0.044899999999999995,0.043712012079061294,0.03173643619656468,non_fall
0.408371,-0.0407,-0.0105,0.012,0.0208,-0.0067,0.0125,45.8813,11.3625,1.4062,,0.0022809999999999775,0.043712012079061294,0.02972200402806613,non_fall
0.410118,-0.0407,-0.0105,0.012,0.0208,-0.0067,0.0125,45.8813,11.3625,1.4062,,0.0017469999999999986,0.043712012079061294,0.027927575593647273,non_fall
0.42323,-0.0407,-0.0105,0.012,0.0208,-0.0067,0.0125,45.7688,11.2875,1.3688,,0.013112000000000013,0.043712012079061294,0.026231316685027962,non_fall
0.469657,-0.0407,-0.0105,0.012,0.0208,-0.0067,0.0125,45.7688,11.2875,1.3688,,0.046426999999999996,0.043712012079061294,0.0247070900181691,non_fall
0.471202,-0.0094,-0.0002,0.0023,0.0208,-0.0067,0.0125,45.7688,11.2875,1.3688,,0.0015450000000000186,0.009679359482941007,0.023640057901174107,non_fall
0.472198,-0.0094,-0.0002,0.0023,0.0186,0.0117,0.0185,45.7688,11.2875,1.3688,,0.0009959999999999969,0.009679359482941007,0.023432113803823505,non_fall
0.480664,-0.0094,-0.0002,0.0023,0.0186,0.0117,0.0185,45.7125,11.3063,1.3688,,0.008465999999999974,0.009679359482941007,0.024443071745741105,non_fall
0.526629,-0.0094,-0.0002,0.0023,0.0186,0.0117,0.0185,45.7125,11.3063,1.3688,,0.045965000000000034,0.009679359482941007,0.026836483510956858,non_fall
0.529107,0.0374,0.0101,0.0169,0.0186,0.0117,0.0185,45.7125,11.3063,1.3688,,0.0024779999999999802,0.04226558884009544,0.030490315776436454,non_fall
0.530154,0.0374,0.0101,0.0169,0.0031,0.0136,0.0065,45.7125,11.3063,1.3688,,0.0010470000000000201,0.04226558884009544,0.03499972298598951,non_fall
0.541026,0.0374,0.0101,0.0169,0.0031,0.0136,0.0065,45.8813,11.3438,1.35,,0.010871999999999993,0.04226558884009544,0.039761298473504784,non_fall
0.589241,0.0374,0.0101,0.0169,0.0031,0.0136,0.0065,45.8813,11.3438,1.35,,0.04821500000000001,0.04226558884009544,0.044104494307114106,non_fall
0.591105,0.0374,0.0101,0.0169,-0.0061,0.0132,0.0015,45.8813,11.3438,1.35,,0.0018639999999999768,0.04226558884009544,0.04743273890358701,non_fall
0.592563,-0.0492,0.0171,0.0199,-0.0061,0.0132,0.0015,45.8813,11.3438,1.35,,0.0014579999999999593,0.05575894547065968,0.04934567202593572,non_fall
0.601136,-0.0492,0.0171,0.0199,-0.0061,0.0132,0.0015,45.825,11.1938,1.3313,,0.008573000000000053,0.05575894547065968,0.04972222350687495,non_fall
0.648032,-0.0492,0.0171,0.0199,-0.0012,0.0445,0.01,45.825,11.1938,1.3313,,0.04689600000000005,0.05575894547065968,0.04874772618057407,non_fall
0.650056,-0.0492,0.0171,0.0199,-0.0012,0.0445,0.01,45.825,11.1938,1.3313,,0.0020239999999999148,0.05575894547065968,0.04687216930784041,non_fall
0.661822,-0.0492,0.0171,0.0199,-0.0012,0.0445,0.01,45.7688,11.0813,1.4062,,0.011766000000000054,0.05575894547065968,0.04469766492830351,non_fall
0.668012,0.0097,-0.0054,0.0215,-0.0012,0.0445,0.01,45.7688,11.0813,1.4062,,0.006190000000000029,0.024197107265125722,0.04281268675528867,non_fall
0.707872,0.0097,-0.0054,0.0215,0.0318,0.0168,0.0072,45.7688,11.0813,1.4062,,0.039859999999999896,0.024197107265125722,0.04161406784808328,non_fall
0.708672,0.0097,-0.0054,0.0215,0.0318,0.0168,0.0072,45.7688,11.0813,1.4062,,0.0008000000000000229,0.024197107265125722,0.041174832682408985,non_fall
0.721398,0.0097,-0.0054,0.0215,0.0318,0.0168,0.0072,45.8813,11.0063,1.35,,0.012726000000000015,0.024197107265125722,0.041213605500040836,non_fall
0.728923,-0.031,-0.0166,-0.0426,0.0318,0.0168,0.0072,45.8813,11.0063,1.35,,0.007525000000000004,0.055238754511665086,0.04119296250570178,non_fall
0.769005,-0.031,-0.0166,-0.0426,0.0216,0.0277,0.0146,45.8813,11.0063,1.35,,0.04008200000000006,0.055238754511665086,0.04052780471218516,non_fall
0.769713,-0.031,-0.0166,-0.0426,0.0216,0.0277,0.0146,45.8813,11.0063,1.35,,0.0007079999999999309,0.055238754511665086,0.038840882208543294,non_fall
0.781002,-0.031,-0.0166,-0.0426,0.0216,0.0277,0.0146,45.9563,11.1,1.1813,,0.011288999999999993,0.055238754511665086,0.03618190912222236,non_fall
0.789797,0.0236,0.0102,0.0017,0.0216,0.0277,0.0146,45.9563,11.1,1.1813,,0.008794999999999997,0.025766062951099067,0.03313874058660117,non_fall
0.83052,0.0236,0.0102,0.0017,0.0606,-0.0081,0.0036,45.9563,11.1,1.1813,,0.040723000000000065,0.025766062951099067,0.030806630472503302,non_fall
0.832973,0.0236,0.0102,0.0017,0.0606,-0.0081,0.0036,45.9563,11.1,1.1813,,0.0024529999999999275,0.025766062951099067,0.03062574169253893,non_fall
0.840935,0.0236,0.0102,0.0017,0.0606,-0.0081,0.0036,46.125,11.175,1.3875,,0.007962000000000025,0.025766062951099067,0.03412855813075398,non_fall
0.871551,-0.0283,-0.0313,-0.0455,0.0606,-0.0081,0.0036,46.125,11.175,1.3875,,0.030615999999999977,0.062055056200119585,0.042648708299175525,non_fall
0.891891,-0.0283,-0.0313,-0.0455,0.0606,-0.0081,0.0036,46.125,11.175,1.3875,,0.020340000000000025,0.062055056200119585,0.05703640673459895,non_fall
0.894246,-0.0283,-0.0313,-0.0455,0.1465,-0.0056,0.014,46.125,11.175,1.3875,,0.002354999999999996,0.062055056200119585,0.07741754940891096,non_fall
0.901341,-0.0283,-0.0313,-0.0455,0.1465,-0.0056,0.014,46.35,11.1562,1.4438,,0.0070949999999999624,0.062055056200119585,0.10303386143883014,non_fall
0.932038,0.0401,-0.0225,-0.1553,0.1465,-0.0056,0.014,46.35,11.1562,1.4438,,0.030697000000000085,0.16196403921858704,0.13220527566623444,non_fall
0.956475,0.0401,-0.0225,-0.1553,0.2718,-0.0344,0.0051,46.35,11.1562,1.4438,,0.02443699999999993,0.16196403921858704,0.16244682231676177,non_fall
0.958515,0.0401,-0.0225,-0.1553,0.2718,-0.0344,0.0051,46.35,11.1562,1.4438,,0.0020400000000000418,0.16196403921858704,0.19074581106573102,non_fall
0.962508,0.0401,-0.0225,-0.1553,0.2718,-0.0344,0.0051,46.575,11.0813,1.6125,,0.003993000000000024,0.16196403921858704,0.2139748868028598,non_fall
0.993279,-0.0312,-0.0876,-0.2643,0.2718,-0.0344,0.0051,46.575,11.0813,1.6125,,0.030770999999999993,0.2801815304405342,0.22939057250898537,non_fall
1.013926,-0.0312,-0.0876,-0.2643,0.2963,-0.0361,0.0033,46.575,11.0813,1.6125,,0.020647000000000082,0.2801815304405342,0.23513410780315558,non_fall
1.016514,-0.0312,-0.0876,-0.2643,0.2963,-0.0361,0.0033,46.575,11.0813,1.6125,,0.0025879999999998127,0.2801815304405342,0.23061300217084651,non_fall
1.021431,-0.0312,-0.0876,-0.2643,0.2963,-0.0361,0.0033,46.65,11.1375,1.7063,,0.00491700000000006,0.2801815304405342,0.2166343822717592,non_fall
1.054845,0.017,0.0462,-0.0992,0.2963,-0.0361,0.0033,46.65,11.1375,1.7063,,0.033414000000000055,0.11074330679548991,0.1952224272502643,non_fall
1.074079,0.017,0.0462,-0.0992,0.2963,-0.0361,0.0033,46.65,11.1375,1.7063,,0.019233999999999973,0.11074330679548991,0.16917077918489526,non_fall
1.075931,0.017,0.0462,-0.0992,0.2814,-0.1004,-0.0248,46.65,11.1375,1.7063,,0.0018519999999999648,0.11074330679548991,0.14149260269937358,non_fall
1.080572,0.017,0.0462,-0.0992,0.2814,-0.1004,-0.0248,46.725,11.25,1.6313,,0.004641000000000117,0.11074330679548991,0.11496338566327699,non_fall
1.1352,0.017,0.0462,-0.0992,0.2459,-0.0344,0.0044,46.725,11.25,1.6313,,0.0546279999999999,0.11074330679548991,0.09188297296789674,non_fall
1.137384,-0.0639,0.0097,-0.0627,0.2459,-0.0344,0.0044,46.725,11.25,1.6313,,0.0021839999999999637,0.09004770957664608,0.07406266664889623,non_fall
1.138707,-0.0639,0.0097,-0.0627,0.2459,-0.0344,0.0044,46.725,11.25,1.6313,,0.001322999999999963,0.09004770957664608,0.06294426836291918,non_fall
1.142146,-0.0639,0.0097,-0.0627,0.2459,-0.0344,0.0044,46.7438,11.3625,1.4625,,0.003439000000000192,0.09004770957664608,0.05972126454169274,non_fall
1.195276,-0.0639,0.0097,-0.0627,0.4096,-0.0049,-0.0028,46.7438,11.3625,1.4625,,0.0531299999999999,0.09004770957664608,0.06535557860477109,non_fall
1.1971,-0.0639,0.0097,-0.0627,0.4096,-0.0049,-0.0028,46.7438,11.3625,1.4625,,0.0018240000000000478,0.09004770957664608,0.08044641607830581,non_fall
1.198594,0.0518,0.0532,-0.0051,0.4096,-0.0049,-0.0028,46.7438,11.3625,1.4625,,0.0014939999999998843,0.07442775020111786,0.10499074170056205,non_fall
1.20062,0.0518,0.0532,-0.0051,0.4096,-0.0049,-0.0028,46.725,11.5125,1.2563,,0.0020260000000000833,0.07442775020111786,0.13815628344982575,non_fall
1.255849,0.0518,0.0532,-0.0051,0.4096,-0.0049,-0.0028,46.725,11.5125,1.2563,,0.05522899999999997,0.07442775020111786,0.17823755494405666,forward_fall
1.256424,0.0518,0.0532,-0.0051,0.5874,-0.0467,-0.0194,46.725,11.5125,1.2563,,0.0005749999999999922,0.07442775020111786,0.222945871883325,forward_fall
1.25685,-0.0304,-0.1515,-0.4345,0.5874,-0.0467,-0.0194,46.725,11.5125,1.2563,,0.00042600000000003746,0.46115795558571904,0.27006601191938384,forward_fall
1.261167,-0.0304,-0.1515,-0.4345,0.5874,-0.0467,-0.0194,46.7438,11.7,0.975,,0.004316999999999904,0.46115795558571904,0.3183083333164817,forward_fall
1.317576,-0.0304,-0.1515,-0.4345,0.9215,-0.0766,-0.0763,46.7438,11.7,0.975,,0.05640900000000015,0.46115795558571904,0.367990899333671,forward_fall
1.319884,0.0285,-0.1504,-0.4616,0.9215,-0.0766,-0.0763,46.7438,11.7,0.975,,0.0023079999999999767,0.48631982275042007,0.4211465223707894,forward_fall
1.321551,0.0285,-0.1504,-0.4616,0.9215,-0.0766,-0.0763,46.7438,11.7,0.975,,0.001666999999999863,0.48631982275042007,0.480835557252627,forward_fall
1.322868,0.0285,-0.1504,-0.4616,0.9215,-0.0766,-0.0763,46.8375,11.8688,0.5063,,0.0013170000000000126,0.48631982275042007,0.549775910842206,forward_fall
1.377713,0.0285,-0.1504,-0.4616,1.1884,-0.1671,-0.1401,46.8375,11.8688,0.5063,,0.05484500000000003,0.48631982275042007,0.6287187011466131,forward_fall
1.379505,0.0285,-0.1504,-0.4616,1.1884,-0.1671,-0.1401,46.8375,11.8688,0.5063,,0.0017920000000000158,0.48631982275042007,0.7151777059459192,forward_fall
1.380931,0.0285,-0.1504,-0.4616,1.1884,-0.1671,-0.1401,46.7625,12.3,0.0,,0.0014259999999999273,0.48631982275042007,0.8030957697502763,forward_fall
1.397907,-0.2821,-0.4954,-1.009,1.1884,-0.1671,-0.1401,46.7625,12.3,0.0,,0.016976000000000102,1.1589143928694645,0.8837678957906885,forward_fall
1.438822,-0.2821,-0.4954,-1.009,1.2651,-0.2762,-0.204,46.7625,12.3,0.0,,0.040915000000000035,1.1589143928694645,0.9478736541771622,forward_fall
1.440733,-0.2821,-0.4954,-1.009,1.2651,-0.2762,-0.204,46.5,12.7688,-0.7688,,0.001910999999999996,1.1589143928694645,0.987978024984537,forward_fall
1.441759,-0.2821,-0.4954,-1.009,1.2651,-0.2762,-0.204,46.5,12.7688,-0.7688,,0.0010259999999999714,1.1589143928694645,1.0006171595713875,forward_fall
1.460476,-0.5039,-0.2974,-0.6523,1.2651,-0.2762,-0.204,46.5,12.7688,-0.7688,,0.018717000000000095,0.8762746487260715,0.9872557446959419,forward_fall
1.502443,-0.5039,-0.2974,-0.6523,1.2424,-0.4334,-0.2406,46.5,12.7688,-0.7688,,0.041966999999999866,0.8762746487260715,0.9538748610212399,forward_fall
1.505371,-0.5039,-0.2974,-0.6523,1.2424,-0.4334,-0.2406,46.5,12.7688,-0.7688,,0.0029280000000000417,0.8762746487260715,0.9094425921968186,forward_fall
1.506817,-0.5039,-0.2974,-0.6523,1.2424,-0.4334,-0.2406,46.1625,13.3125,-1.6688,,0.0014460000000000583,0.8762746487260715,0.863808503062939,forward_fall
1.521684,-0.6893,0.1366,-0.2218,1.2424,-0.4334,-0.2406,46.1625,13.3125,-1.6688,,0.014866999999999964,0.7368780699681597,0.8256007677584791,forward_fall
1.562647,-0.6893,0.1366,-0.2218,1.3308,-0.045,-0.3035,46.1625,13.3125,-1.6688,,0.04096299999999986,0.7368780699681597,0.8005892494107333,forward_fall
1.565448,-0.6893,0.1366,-0.2218,1.3308,-0.045,-0.3035,46.1625,13.3125,-1.6688,,0.0028010000000000534,0.7368780699681597,0.7908219645915345,forward_fall
1.56634,-0.6893,0.1366,-0.2218,1.3308,-0.045,-0.3035,46.0312,13.875,-2.3063,,0.0008920000000001149,0.7368780699681597,0.7946800570142283,forward_fall
1.602109,0.2494,-0.2404,-0.8043,1.3308,-0.045,-0.3035,46.0312,13.875,-2.3063,,0.03576899999999994,0.87572313547148,0.8078119736249451,forward_fall
1.62148,0.2494,-0.2404,-0.8043,1.3308,-0.045,-0.3035,45.7688,14.475,-3.2438,,0.019371000000000027,0.87572313547148,0.8247111248246771,forward_fall
1.622557,0.2494,-0.2404,-0.8043,1.5974,0.2369,-0.3297,45.7688,14.475,-3.2438,,0.0010769999999999946,0.87572313547148,0.8405459319668528,forward_fall
1.62358,0.2494,-0.2404,-0.8043,1.5974,0.2369,-0.3297,45.7688,14.475,-3.2438,,0.0010229999999999961,0.87572313547148,0.8527926448358482,forward_fall
1.6645,0.2382,-0.3965,-0.8381,1.5974,0.2369,-0.3297,45.7688,14.475,-3.2438,,0.04092000000000007,0.957268562107834,0.8622727673379649,forward_fall
1.681937,0.2382,-0.3965,-0.8381,1.5974,0.2369,-0.3297,45.5063,15.2625,-4.2375,,0.017436999999999925,0.957268562107834,0.8733240484376753,forward_fall
1.684284,0.2382,-0.3965,-0.8381,1.8895,-0.2477,-0.368,45.5063,15.2625,-4.2375,,0.002346999999999877,0.957268562107834,0.8930000256691717,forward_fall
1.685781,0.2382,-0.3965,-0.8381,1.8895,-0.2477,-0.368,45.5063,15.2625,-4.2375,,0.0014970000000000816,0.957268562107834,0.9293929321306064,forward_fall
1.723238,-0.2841,-0.1944,-0.827,1.8895,-0.2477,-0.368,45.5063,15.2625,-4.2375,,0.037457000000000074,0.8957863417132458,0.9894084878969702,forward_fall
1.74357,-0.2841,-0.1944,-0.827,1.8895,-0.2477,-0.368,45.15,16.0125,-5.3063,,0.020332000000000017,0.8957863417132458,1.0765489088991478,forward_fall
1.745483,-0.2841,-0.1944,-0.827,1.8895,-0.2477,-0.368,45.15,16.0125,-5.3063,,0.0019129999999998315,0.8957863417132458,1.1893957825123234,forward_fall
1.747179,-0.2841,-0.1944,-0.827,2.2432,-0.5822,-0.3834,45.15,16.0125,-5.3063,,0.0016960000000001418,0.8957863417132458,1.3214203599493637,forward_fall
1.785439,-0.8808,-1.513,-0.7817,2.2432,-0.5822,-0.3834,45.15,16.0125,-5.3063,,0.03825999999999996,1.9172982371034506,1.4624028661508728,forward_fall
1.801852,-0.8808,-1.513,-0.7817,2.2432,-0.5822,-0.3834,44.3813,16.65,-7.05,,0.01641300000000001,1.9172982371034506,1.6011455994509465,forward_fall
1.804852,-0.8808,-1.513,-0.7817,2.4501,-0.439,-0.2964,44.3813,16.65,-7.05,,0.0029999999999998916,1.9172982371034506,1.7285609420879204,forward_fall
1.806066,-0.8808,-1.513,-0.7817,2.4501,-0.439,-0.2964,44.3813,16.65,-7.05,,0.0012140000000000484,1.9172982371034506,1.8399805148179453,forward_fall
1.861887,-0.8808,-1.513,-0.7817,2.4501,-0.439,-0.2964,43.725,17.1562,-8.9813,,0.05582100000000012,1.9172982371034506,1.9358501691378767,forward_fall
1.864651,-0.8808,-1.513,-0.7817,2.5236,-0.1437,-0.2197,43.725,17.1562,-8.9813,,0.0027639999999999887,1.9172982371034506,2.0206411440093777,forward_fall
1.865965,-0.8808,-1.513,-0.7817,2.5236,-0.1437,-0.2197,43.725,17.1562,-8.9813,,0.0013140000000000374,1.9172982371034506,2.1004312733119694,forward_fall
1.866914,-0.0825,-2.1539,-0.7257,2.5236,-0.1437,-0.2197,43.725,17.1562,-8.9813,,0.0009489999999998666,2.2743640759561785,2.1799418421664023,forward_fall
1.922098,-0.0825,-2.1539,-0.7257,2.5236,-0.1437,-0.2197,43.275,17.6813,-11.175,,0.05518400000000012,2.2743640759561785,2.2598325338726015,forward_fall
1.927423,-0.0825,-2.1539,-0.7257,2.5526,-0.016,-0.0908,43.275,17.6813,-11.175,,0.005325000000000024,2.2743640759561785,2.3348842602439013,forward_fall
1.929193,0.899,-1.2424,-1.6172,2.5526,-0.016,-0.0908,43.275,17.6813,-11.175,,0.0017699999999998273,2.2286979606936423,2.393506086470648,forward_fall
1.93105,0.899,-1.2424,-1.6172,2.5526,-0.016,-0.0908,43.275,17.6813,-11.175,,0.0018569999999999975,2.2286979606936423,2.4188712009418016,forward_fall
1.98233,0.899,-1.2424,-1.6172,2.5526,-0.016,-0.0908,42.6375,17.4938,-13.4625,,0.05127999999999999,2.2286979606936423,2.391850421352759,forward_fall
1.989797,0.899,-1.2424,-1.6172,2.6447,-0.0088,0.0242,42.6375,17.4938,-13.4625,,0.0074670000000001124,2.2286979606936423,2.2956452189783563,forward_fall
1.991328,0.899,-1.2424,-1.6172,2.6447,-0.0088,0.0242,42.6375,17.4938,-13.4625,,0.001530999999999949,2.2286979606936423,2.121590644462038,forward_fall
1.992389,0.6534,-0.2544,-1.7297,2.6447,-0.0088,0.0242,42.6375,17.4938,-13.4625,,0.0010609999999999786,1.8664171586223697,1.8750999221625044,forward_fall
2.042435,0.6534,-0.2544,-1.7297,2.6447,-0.0088,0.0242,42.1125,16.95,-15.8625,,0.05004599999999981,1.8664171586223697,1.5803186646424427,forward_fall
2.04903,0.6534,-0.2544,-1.7297,3.0806,0.0089,0.3423,42.1125,16.95,-15.8625,,0.006595000000000351,1.8664171586223697,1.2818831259900105,forward_fall
2.050881,0.6534,-0.2544,-1.7297,3.0806,0.0089,0.3423,42.1125,16.95,-15.8625,,0.001850999999999825,1.8664171586223697,1.0423303250708138,forward_fall
2.070064,-0.5812,-0.7165,-0.429,3.0806,0.0089,0.3423,42.1125,16.95,-15.8625,,0.01918299999999995,1.0174510749908323,0.9343070672108239,forward_fall
2.102984,-0.5812,-0.7165,-0.429,3.0806,0.0089,0.3423,41.7188,16.1625,-18.2063,,0.03292000000000028,1.0174510749908323,1.0278669156010998,forward_fall
2.110031,-0.5812,-0.7165,-0.429,1.6918,1.2075,-0.406,41.7188,16.1625,-18.2063,,0.0070470000000000255,1.0174510749908323,1.3746831470263965,forward_fall
2.111219,-0.5812,-0.7165,-0.429,1.6918,1.2075,-0.406,41.7188,16.1625,-18.2063,,0.0011879999999999669,1.0174510749908323,1.9924495887965439,forward_fall
2.129627,-0.1172,1.1471,2.6922,1.6918,1.2075,-0.406,41.7188,16.1625,-18.2063,,0.01840799999999998,2.9287395053162375,2.8535040814516366,forward_fall
2.163814,-0.1172,1.1471,2.6922,1.6918,1.2075,-0.406,41.3813,15.1313,-19.8188,,0.034186999999999745,2.9287395053162375,3.8814804514486103,forward_fall
2.169187,-0.1172,1.1471,2.6922,-0.2092,0.3646,-0.6133,41.3813,15.1313,-19.8188,,0.005373000000000072,2.9287395053162375,4.9586539428022345,forward_fall
2.170782,-0.1172,1.1471,2.6922,-0.2092,0.3646,-0.6133,41.3813,15.1313,-19.8188,,0.001595000000000013,2.9287395053162375,5.94476692343235,forward_fall
2.190907,4.7742,8.5221,-3.0056,-0.2092,0.3646,-0.6133,41.3813,15.1313,-19.8188,,0.02012500000000017,10.220215526592382,6.705348581737558,forward_fall
2.221651,4.7742,8.5221,-3.0056,-0.2092,0.3646,-0.6133,41.025,14.25,-21.3375,,0.030743999999999883,10.220215526592382,7.143756556763856,forward_fall
2.232264,4.7742,8.5221,-3.0056,-0.2092,0.3646,-0.6133,41.025,14.25,-21.3375,,0.010612999999999762,10.220215526592382,7.2276043628106175,forward_fall
2.23335,4.7742,8.5221,-3.0056,0.6609,0.9077,-0.0844,41.025,14.25,-21.3375,,0.0010860000000003645,10.220215526592382,6.99963012005031,forward_fall
2.250547,0.3626,2.7666,1.8279,0.6609,0.9077,-0.0844,41.025,14.25,-21.3375,,0.017196999999999907,3.3356817489083097,6.567311533235728,forward_fall
2.282424,0.3626,2.7666,1.8279,0.6609,0.9077,-0.0844,41.2313,13.2188,-21.7875,,0.03187699999999971,3.3356817489083097,6.073403530491801,forward_fall
2.294083,0.3626,2.7666,1.8279,1.4895,0.7211,0.1218,41.2313,13.2188,-21.7875,,0.011659000000000308,3.3356817489083097,5.657154037325171,forward_fall
2.297766,0.3626,2.7666,1.8279,1.4895,0.7211,0.1218,41.2313,13.2188,-21.7875,,0.003683000000000103,3.3356817489083097,5.4192492792083975,forward_fall
2.333022,-1.4858,-6.1246,1.4131,1.4895,0.7211,0.1218,41.2313,13.2188,-21.7875,,0.035255999999999954,6.458728854039315,5.401091765836766,forward_fall
2.341253,-1.4858,-6.1246,1.4131,1.4895,0.7211,0.1218,41.3625,12.075,-21.9188,,0.008230999999999877,6.458728854039315,5.582678275480906,forward_fall
2.35386,-1.4858,-6.1246,1.4131,1.4895,0.7211,0.1218,41.3625,12.075,-21.9188,,0.012607000000000035,6.458728854039315,5.89667947977744,forward_fall
2.356012,-1.4858,-6.1246,1.4131,1.9815,0.2244,-0.3495,41.3625,12.075,-21.9188,,0.002152000000000154,6.458728854039315,6.25214176106446,forward_fall
2.394508,-0.0424,-7.1237,2.1535,1.9815,0.2244,-0.3495,41.3625,12.075,-21.9188,,0.038495999999999864,7.442208119906351,6.560277235527195,forward_fall
2.400812,-0.0424,-7.1237,2.1535,1.9815,0.2244,-0.3495,41.6063,10.8563,-21.45,,0.006304000000000087,7.442208119906351,6.756060840042691,forward_fall
2.414373,-0.0424,-7.1237,2.1535,1.9815,0.2244,-0.3495,41.6063,10.8563,-21.45,,0.013560999999999712,7.442208119906351,6.8114157169435,forward_fall
2.415945,-0.0424,-7.1237,2.1535,2.3837,1.0988,-0.6195,41.6063,10.8563,-21.45,,0.0015719999999999068,7.442208119906351,6.737973210604169,forward_fall
2.455014,2.844,2.0862,4.5057,2.3837,1.0988,-0.6195,41.6063,10.8563,-21.45,,0.03906900000000002,5.722053733582025,6.579697701117486,forward_fall
2.460849,2.844,2.0862,4.5057,2.3837,1.0988,-0.6195,42.0375,9.825,-20.5875,,0.005835000000000257,5.722053733582025,6.39794286308985,forward_fall
2.474432,2.844,2.0862,4.5057,3.1043,0.7818,0.8936,42.0375,9.825,-20.5875,,0.013583000000000123,5.722053733582025,6.253241101360695,forward_fall
2.47584,2.844,2.0862,4.5057,3.1043,0.7818,0.8936,42.0375,9.825,-20.5875,,0.0014079999999996318,5.722053733582025,6.1887029210453885,forward_fall
2.524367,2.844,2.0862,4.5057,3.1043,0.7818,0.8936,42.525,8.7188,-19.4062,,0.04852699999999999,5.722053733582025,6.219122458478698,forward_fall
2.53769,2.844,2.0862,4.5057,3.1043,0.7818,0.8936,42.525,8.7188,-19.4062,,0.013323000000000196,5.722053733582025,6.328174865714087,forward_fall
2.539231,2.844,2.0862,4.5057,2.5758,-0.2204,0.1939,42.525,8.7188,-19.4062,,0.0015410000000000146,5.722053733582025,6.474072260924102,forward_fall
2.540858,-3.1108,-6.518,3.0948,2.5758,-0.2204,0.1939,42.525,8.7188,-19.4062,,0.001627000000000045,7.857428821185719,6.602045983412011,forward_fall
2.581916,-3.1108,-6.518,3.0948,2.5758,-0.2204,0.1939,42.75,8.1,-18.1875,,0.04105800000000004,7.857428821185719,6.660187812606992,forward_fall
2.598756,-3.1108,-6.518,3.0948,1.7787,0.3475,-0.9059,42.75,8.1,-18.1875,,0.016839999999999744,7.857428821185719,6.61395192735781,forward_fall
2.601545,-3.1108,-6.518,3.0948,1.7787,0.3475,-0.9059,42.75,8.1,-18.1875,,0.0027890000000003745,7.857428821185719,6.454771181051992,forward_fall
2.602841,1.5956,-2.6036,-3.4971,1.7787,0.3475,-0.9059,42.75,8.1,-18.1875,,0.0012959999999999638,4.642669569331852,6.200222944154462,forward_fall
2.643988,1.5956,-2.6036,-3.4971,1.7787,0.3475,-0.9059,43.0312,7.6125,-17.1938,,0.0411469999999996,4.642669569331852,5.886430800926044,forward_fall
2.658696,1.5956,-2.6036,-3.4971,1.8224,1.2348,-0.1654,43.0312,7.6125,-17.1938,,0.014708000000000165,4.642669569331852,5.556402864329967,forward_fall
2.66185,1.5956,-2.6036,-3.4971,1.8224,1.2348,-0.1654,43.0312,7.6125,-17.1938,,0.003153999999999879,4.642669569331852,5.2491840004792625,forward_fall
2.66294,3.0568,-1.4714,-4.387,1.8224,1.2348,-0.1654,43.0312,7.6125,-17.1938,,0.0010900000000000354,5.545702227851762,4.993468845186082,forward_fall
2.702863,3.0568,-1.4714,-4.387,1.8224,1.2348,-0.1654,43.35,6.75,-15.7875,,0.03992299999999993,5.545702227851762,4.806597221310753,forward_fall
2.719441,3.0568,-1.4714,-4.387,1.8224,1.2348,-0.1654,43.35,6.75,-15.7875,,0.016578000000000426,5.545702227851762,4.697279409869847,forward_fall
2.721646,-1.4462,-0.2649,-4.4093,1.8224,1.2348,-0.1654,43.35,6.75,-15.7875,,0.0022049999999995684,4.647966538175592,4.6692156059078815,forward_fall
2.723134,-1.4462,-0.2649,-4.4093,1.4448,0.4598,-0.3304,43.35,6.75,-15.7875,,0.0014880000000001559,4.647966538175592,4.723247882615834,forward_fall
2.762829,-1.4462,-0.2649,-4.4093,1.4448,0.4598,-0.3304,43.4438,6.225,-14.8688,,0.039695000000000036,4.647966538175592,4.857188566085549,forward_fall
2.78027,-1.4462,-0.2649,-4.4093,0.8284,-0.8242,-0.0976,43.4438,6.225,-14.8688,,0.017440999999999818,4.647966538175592,5.064001584015324,forward_fall
2.781253,-1.4462,-0.2649,-4.4093,0.8284,-0.8242,-0.0976,43.4438,6.225,-14.8688,,0.0009830000000001782,4.647966538175592,5.329836592950939,forward_fall
2.800988,-1.4525,1.8777,-5.691,0.8284,-0.8242,-0.0976,43.4438,6.225,-14.8688,,0.019734999999999836,6.166278824380227,5.633349676752856,forward_fall
2.823016,-1.4525,1.8777,-5.691,0.8284,-0.8242,-0.0976,43.6125,5.7938,-14.1938,,0.02202800000000016,6.166278824380227,5.9470175565046235,forward_fall
2.841436,-1.4525,1.8777,-5.691,0.2494,-0.8679,0.1704,43.6125,5.7938,-14.1938,,0.01841999999999988,6.166278824380227,6.24022102036366,forward_fall
2.84352,-1.4525,1.8777,-5.691,0.2494,-0.8679,0.1704,43.6125,5.7938,-14.1938,,0.0020839999999999748,6.166278824380227,6.4832543787715355,forward_fall
2.865114,-1.9785,3.2524,-5.8298,0.2494,-0.8679,0.1704,43.6125,5.7938,-14.1938,,0.021594000000000335,6.96269603314693,6.651325957123906,forward_fall
2.882083,-1.9785,3.2524,-5.8298,0.2494,-0.8679,0.1704,43.5563,5.2313,-13.8188,,0.016969000000000012,6.96269603314693,6.727793622193427,forward_fall
2.903571,-1.9785,3.2524,-5.8298,-0.1798,0.3497,0.3579,43.5563,5.2313,-13.8188,,0.02148799999999973,6.96269603314693,6.706014351890752,forward_fall
2.905865,-1.9785,3.2524,-5.8298,-0.1798,0.3497,0.3579,43.5563,5.2313,-13.8188,,0.0022940000000000182,6.96269603314693,6.589330261803094,forward_fall
2.921757,-0.1637,1.862,-5.4101,-0.1798,0.3497,0.3579,43.5563,5.2313,-13.8188,,0.015892000000000017,5.723899343978718,6.389106192619037,forward_fall
2.94235,-0.1637,1.862,-5.4101,-0.1798,0.3497,0.3579,43.6688,4.9313,-13.5188,,0.02059299999999986,5.723899343978718,6.12137191064032,forward_fall
2.96402,-0.1637,1.862,-5.4101,-0.6341,0.3096,0.2131,43.6688,4.9313,-13.5188,,0.0216700000000003,5.723899343978718,5.80315072681134,forward_fall
2.96726,-0.1637,1.862,-5.4101,-0.6341,0.3096,0.2131,43.6688,4.9313,-13.5188,,0.0032399999999999096,5.723899343978718,5.449563931494479,forward_fall
3.001086,-0.1637,1.862,-5.4101,-0.6341,0.3096,0.2131,43.4625,4.9313,-13.4813,,0.03382599999999991,5.723899343978718,5.072247552276214,forward_fall
3.003219,-0.5278,0.7288,-3.8592,-0.6341,0.3096,0.2131,43.4625,4.9313,-13.4813,,0.0021330000000001625,3.9627196368151,4.678967594340234,forward_fall
3.022408,-0.5278,0.7288,-3.8592,-1.1081,-0.2879,-0.034,43.4625,4.9313,-13.4813,,0.0191889999999999,3.9627196368151,4.274092105180468,forward_fall
3.024146,-0.5278,0.7288,-3.8592,-1.1081,-0.2879,-0.034,43.4625,4.9313,-13.4813,,0.0017380000000000173,3.9627196368151,3.859764173911779,forward_fall
3.062126,-0.5278,0.7288,-3.8592,-1.1081,-0.2879,-0.034,43.5188,4.7812,-13.275,,0.037980000000000125,3.9627196368151,3.437728406665786,forward_fall
3.064498,-0.8154,1.38,-2.1085,-1.1081,-0.2879,-0.034,43.5188,4.7812,-13.275,,0.0023719999999998187,2.6485938552371517,3.0115050988324703,forward_fall
3.085075,-0.8154,1.38,-2.1085,-1.3611,0.1023,0.0023,43.5188,4.7812,-13.275,,0.020576999999999845,2.6485938552371517,2.588257435557558,forward_fall
3.086351,-0.8154,1.38,-2.1085,-1.3611,0.1023,0.0023,43.5188,4.7812,-13.275,,0.001276000000000277,2.6485938552371517,2.179629850739339,forward_fall
3.123551,-0.8154,1.38,-2.1085,-1.3611,0.1023,0.0023,43.4625,4.65,-13.1813,,0.0371999999999999,2.6485938552371517,1.8010498299410174,forward_fall
3.127168,-0.0179,-0.1325,-0.6342,-1.3611,0.1023,0.0023,43.4625,4.65,-13.1813,,0.0036170000000002034,0.6481406483163974,1.4693666837827162,forward_fall
3.145782,-0.0179,-0.1325,-0.6342,-1.3611,0.1023,0.0023,43.4625,4.65,-13.1813,,0.01861399999999991,0.6481406483163974,1.1993131443480822,forward_fall
3.14669,-0.0179,-0.1325,-0.6342,-1.4994,0.2755,0.1651,43.4625,4.65,-13.1813,,0.0009079999999999089,0.6481406483163974,1.0000056569046782,forward_fall
3.182642,-0.0179,-0.1325,-0.6342,-1.4994,0.2755,0.1651,43.575,4.5188,-13.4813,,0.035951999999999984,0.6481406483163974,0.8729973447617839,forward_fall
3.185549,-0.7393,-0.8615,0.1695,-1.4994,0.2755,0.1651,43.575,4.5188,-13.4813,,0.002906999999999993,1.147814004967704,0.8128294966050238,forward_fall
3.205992,-0.7393,-0.8615,0.1695,-1.4994,0.2755,0.1651,43.575,4.5188,-13.4813,,0.02044300000000021,1.147814004967704,0.8098605211246058,forward_fall
3.207603,-0.7393,-0.8615,0.1695,-1.5316,-0.224,0.2748,43.575,4.5188,-13.4813,,0.001611000000000029,1.147814004967704,0.8541091611899451,forward_fall
3.242348,-0.7393,-0.8615,0.1695,-1.5316,-0.224,0.2748,43.5938,4.3688,-13.7063,,0.03474499999999958,1.147814004967704,0.938472207759986,non_fall
3.269894,-0.7393,-0.8615,0.1695,-1.5316,-0.224,0.2748,43.5938,4.3688,-13.7063,,0.02754600000000007,1.147814004967704,1.0600369825007792,non_fall
3.27216,-0.7393,-0.8615,0.1695,-1.2639,-0.2268,0.3669,43.5938,4.3688,-13.7063,,0.0022660000000001013,1.147814004967704,1.2190211235642527,non_fall
3.273737,-0.8928,-0.4599,0.9955,-1.2639,-0.2268,0.3669,43.5938,4.3688,-13.7063,,0.0015770000000001616,1.4140792410611225,1.4157519904078613,non_fall
3.305521,-0.8928,-0.4599,0.9955,-1.2639,-0.2268,0.3669,43.7438,4.1625,-13.8188,,0.031784000000000034,1.4140792410611225,1.6467644376010384,non_fall
3.330501,-0.8928,-0.4599,0.9955,-1.2639,-0.2268,0.3669,43.7438,4.1625,-13.8188,,0.02497999999999978,1.4140792410611225,1.9014274549849501,non_fall
3.332992,-0.8928,-0.4599,0.9955,-0.9264,0.2887,0.2712,43.7438,4.1625,-13.8188,,0.002491000000000021,1.4140792410611225,2.1604697162891027,non_fall
3.334898,0.8179,-1.4364,2.3978,-0.9264,0.2887,0.2712,43.7438,4.1625,-13.8188,,0.0019059999999999633,2.912327284149225,2.3973101356358386,non_fall
3.365231,0.8179,-1.4364,2.3978,-0.9264,0.2887,0.2712,43.7812,4.125,-13.6688,,0.030333000000000165,2.912327284149225,2.582206902395884,non_fall
3.387908,0.8179,-1.4364,2.3978,-0.8201,0.3433,0.0483,43.7812,4.125,-13.6688,,0.022676999999999836,2.912327284149225,2.6881856737154775,non_fall
3.388851,0.8179,-1.4364,2.3978,-0.8201,0.3433,0.0483,43.7812,4.125,-13.6688,,0.0009429999999999161,2.912327284149225,2.6970360494768304,non_fall
3.389137,1.6344,-0.3468,1.7741,-0.8201,0.3433,0.0483,43.7812,4.125,-13.6688,,0.00028600000000000847,2.436999058268181,2.60373929164518,non_fall
3.422323,1.6344,-0.3468,1.7741,-0.8201,0.3433,0.0483,43.7438,4.125,-13.6313,,0.03318600000000016,2.436999058268181,2.4183346476017107,non_fall
3.452938,1.6344,-0.3468,1.7741,-0.7687,0.124,-0.1948,43.7438,4.125,-13.6313,,0.03061500000000006,2.436999058268181,2.1649600965402622,non_fall
3.454614,1.6344,-0.3468,1.7741,-0.7687,0.124,-0.1948,43.7438,4.125,-13.6313,,0.0016759999999997888,2.436999058268181,1.8783015377236774,non_fall
3.471191,0.9142,0.1027,0.3629,-0.7687,0.124,-0.1948,43.7438,4.125,-13.6313,,0.016577000000000286,0.9889415250660678,1.598010245577656,non_fall
3.483048,0.9142,0.1027,0.3629,-0.7687,0.124,-0.1948,43.9875,4.4062,-13.2375,,0.011857000000000006,0.9889415250660678,1.3620240039133924,non_fall
3.515092,0.9142,0.1027,0.3629,-0.5394,0.0266,-0.231,43.9875,4.4062,-13.2375,,0.03204399999999996,0.9889415250660678,1.2001415737592585,non_fall
3.517237,0.9142,0.1027,0.3629,-0.5394,0.0266,-0.231,43.9875,4.4062,-13.2375,,0.0021450000000000635,0.9889415250660678,1.129307532681055,non_fall
3.52974,1.0156,0.4459,0.7653,-0.5394,0.0266,-0.231,43.9875,4.4062,-13.2375,,0.012502999999999709,1.3475734710953613,1.1516053857905284,non_fall
3.540003,1.0156,0.4459,0.7653,-0.5394,0.0266,-0.231,44.1938,4.575,-13.0688,,0.010263000000000133,1.3475734710953613,1.2551330828033431,non_fall
3.571175,1.0156,0.4459,0.7653,-0.2411,0.115,-0.3834,44.1938,4.575,-13.0688,,0.0311720000000002,1.3475734710953613,1.4172103375207412,non_fall
3.574887,1.0156,0.4459,0.7653,-0.2411,0.115,-0.3834,44.1938,4.575,-13.0688,,0.0037119999999997155,1.3475734710953613,1.6090219464090103,non_fall
3.592907,0.33,-0.6155,2.099,-0.2411,0.115,-0.3834,44.1938,4.575,-13.0688,,0.018019999999999925,2.2121349981409364,1.8007706251753608,non_fall
3.604326,0.33,-0.6155,2.099,-0.2411,0.115,-0.3834,44.5125,4.95,-12.975,,0.011419000000000068,2.2121349981409364,1.9664678433810363,non_fall
3.63488,0.33,-0.6155,2.099,0.0482,-0.1136,-0.3099,44.5125,4.95,-12.975,,0.03055399999999997,2.2121349981409364,2.0875410463470163,non_fall
3.638422,0.33,-0.6155,2.099,0.0482,-0.1136,-0.3099,44.5125,4.95,-12.975,,0.003541999999999934,2.2121349981409364,2.154622101549585,non_fall
3.652913,-0.0164,-0.317,1.932,0.0482,-0.1136,-0.3099,44.5125,4.95,-12.975,,0.014491000000000032,1.9579024388360111,2.1673286271418233,non_fall
3.66188,-0.0164,-0.317,1.932,0.0482,-0.1136,-0.3099,44.5688,5.4188,-12.8438,,0.00896700000000017,1.9579024388360111,2.1324213614383827,non_fall
3.695435,-0.0164,-0.317,1.932,-0.0193,-0.4671,-0.2615,44.5688,5.4188,-12.8438,,0.03355499999999978,1.9579024388360111,2.0611246248686563,non_fall
3.700118,-0.0164,-0.317,1.932,-0.0193,-0.4671,-0.2615,44.5688,5.4188,-12.8438,,0.004682999999999993,1.9579024388360111,1.966447425988462,non_fall
3.723085,-0.0164,-0.317,1.932,-0.0193,-0.4671,-0.2615,44.7,5.9625,-12.9375,,0.022967000000000404,1.9579024388360111,1.861077200364396,non_fall
3.735239,-1.6361,0.4234,-0.0014,-0.0193,-0.4671,-0.2615,44.7,5.9625,-12.9375,,0.012153999999999776,1.6899978491110574,1.7560331038801629,non_fall
3.754382,-1.6361,0.4234,-0.0014,-0.1623,-0.3688,-0.2634,44.7,5.9625,-12.9375,,0.019143000000000132,1.6899978491110574,1.6599661656930997,non_fall
3.755891,-1.6361,0.4234,-0.0014,-0.1623,-0.3688,-0.2634,44.7,5.9625,-12.9375,,0.0015089999999999826,1.6899978491110574,1.5788629524647362,non_fall
3.783255,-1.6361,0.4234,-0.0014,-0.1623,-0.3688,-0.2634,44.5688,6.4688,-13.0125,,0.027363999999999944,1.6899978491110574,1.515909534464557,non_fall
3.79557,-1.0494,0.1611,-0.8067,-0.1623,-0.3688,-0.2634,44.5688,6.4688,-13.0125,,0.012315000000000076,1.3334010874451845,1.4713543410847028,non_fall
3.814064,-1.0494,0.1611,-0.8067,-0.4137,-0.4678,-0.2378,44.5688,6.4688,-13.0125,,0.01849400000000001,1.3334010874451845,1.4423664315487554,non_fall
3.816138,-1.0494,0.1611,-0.8067,-0.4137,-0.4678,-0.2378,44.5688,6.4688,-13.0125,,0.0020739999999999092,1.3334010874451845,1.423079725901321,non_fall
3.842454,-1.0494,0.1611,-0.8067,-0.4137,-0.4678,-0.2378,44.6625,7.1625,-13.2188,,0.026316000000000006,1.3334010874451845,1.4051195314131149,non_fall
3.857177,-0.8735,0.18,-0.9991,-0.4137,-0.4678,-0.2378,44.6625,7.1625,-13.2188,,0.014723000000000042,1.3392546658496285,1.3788224071491875,non_fall
3.876012,-0.8735,0.18,-0.9991,-0.4137,-0.4678,-0.2378,44.6625,7.1625,-13.2188,,0.018834999999999713,1.3392546658496285,1.3351139042085287,non_fall
3.878972,-0.8735,0.18,-0.9991,-0.5497,-0.3614,-0.0979,44.6625,7.1625,-13.2188,,0.0029600000000002957,1.3392546658496285,1.2677205608041824,non_fall
3.901383,-0.8735,0.18,-0.9991,-0.5497,-0.3614,-0.0979,44.7938,7.95,-13.4625,,0.02241099999999996,1.3392546658496285,1.1751681294530982,non_fall
3.940522,-0.8735,0.18,-0.9991,-0.4683,-0.5229,0.0065,44.7938,7.95,-13.4625,,0.039139000000000035,1.3392546658496285,1.0619234800220294,non_fall
3.942222,-0.8735,0.18,-0.9991,-0.4683,-0.5229,0.0065,44.7938,7.95,-13.4625,,0.0017000000000000348,1.3392546658496285,0.9381318330359852,non_fall
3.943077,-0.3705,-0.0872,-0.1125,-0.4683,-0.5229,0.0065,44.7938,7.95,-13.4625,,0.0008550000000000502,0.39690091962604473,0.8177394863742201,non_fall
3.961848,-0.3705,-0.0872,-0.1125,-0.4683,-0.5229,0.0065,44.5875,8.7,-14.2313,,0.01877099999999965,0.39690091962604473,0.7153507324476599,non_fall
4.002332,-0.3705,-0.0872,-0.1125,-0.4683,-0.5229,0.0065,44.5875,8.7,-14.2313,,0.040484000000000187,0.39690091962604473,0.6427289393680038,non_fall
4.004047,-0.2718,0.2013,0.5788,-0.4683,-0.5229,0.0065,44.5875,8.7,-14.2313,,0.001714999999999911,0.6703777815530584,0.6060617002746447,non_fall
4.005224,-0.2718,0.2013,0.5788,-0.4045,-0.4774,0.0196,44.5875,8.7,-14.2313,,0.0011770000000002057,0.6703777815530584,0.6047893506340751,non_fall
4.024569,-0.2718,0.2013,0.5788,-0.4045,-0.4774,0.0196,44.2875,9.45,-15.0,,0.0193449999999995,0.6703777815530584,0.632159586750402,non_fall
4.059471,-0.2718,0.2013,0.5788,-0.396,-0.57,-0.0851,44.2875,9.45,-15.0,,0.034902000000000655,0.6703777815530584,0.6771225258706884,non_fall
4.063077,-0.2718,0.2013,0.5788,-0.396,-0.57,-0.0851,44.2875,9.45,-15.0,,0.003605999999999554,0.6703777815530584,0.72693970197778,non_fall
4.065036,0.2262,-0.7056,0.5942,-0.396,-0.57,-0.0851,44.2875,9.45,-15.0,,0.001959000000000266,0.9497954727203115,0.7698807838474193,non_fall
4.084152,0.2262,-0.7056,0.5942,-0.396,-0.57,-0.0851,43.875,10.1438,-16.0125,,0.019115999999999467,0.9497954727203115,0.797461932164881,non_fall
4.122061,0.2262,-0.7056,0.5942,-0.396,-0.57,-0.0851,43.875,10.1438,-16.0125,,0.03790900000000086,0.9497954727203115,0.8057818926239829,non_fall
4.125668,0.6528,-0.0221,-0.133,-0.396,-0.57,-0.0851,43.875,10.1438,-16.0125,,0.003606999999999694,0.6665772648388183,0.7956969353745212,non_fall
4.128047,0.6528,-0.0221,-0.133,-0.327,-0.455,-0.3049,43.875,10.1438,-16.0125,,0.002378999999999465,0.6665772648388183,0.7718825186511837,non_fall
4.141213,0.6528,-0.0221,-0.133,-0.327,-0.455,-0.3049,43.3125,10.7063,-17.1188,,0.013166000000000011,0.6665772648388183,0.7411602060594888,non_fall
4.181922,0.6528,-0.0221,-0.133,-0.2795,-0.6201,-0.4007,43.3125,10.7063,-17.1188,,0.04070900000000055,0.6665772648388183,0.7106487771807669,non_fall
4.185231,0.6528,-0.0221,-0.133,-0.2795,-0.6201,-0.4007,43.3125,10.7063,-17.1188,,0.0033089999999997843,0.6665772648388183,0.6862447539448172,non_fall
4.203487,0.6528,-0.0221,-0.133,-0.2795,-0.6201,-0.4007,42.7875,11.325,-18.2063,,0.01825600000000005,0.6665772648388183,0.6717225282535114,non_fall
4.20519,0.4081,0.1227,0.5554,-0.2795,-0.6201,-0.4007,42.7875,11.325,-18.2063,,0.00170300000000001,0.7000500410684939,0.6685042579025983,non_fall
4.245276,0.4081,0.1227,0.5554,-0.304,-0.5647,-0.1835,42.7875,11.325,-18.2063,,0.04008599999999962,0.7000500410684939,0.6759736902886688,non_fall
4.249272,0.4081,0.1227,0.5554,-0.304,-0.5647,-0.1835,42.7875,11.325,-18.2063,,0.003996000000000777,0.7000500410684939,0.6921189779436965,non_fall
4.262215,0.4081,0.1227,0.5554,-0.304,-0.5647,-0.1835,42.4688,12.2063,-19.2,,0.012942999999999927,0.7000500410684939,0.7142763131428828,non_fall
4.263862,-0.745,-0.1767,0.2526,-0.304,-0.5647,-0.1835,42.4688,12.2063,-19.2,,0.001646999999999288,0.8062596666087173,0.739782163033026,non_fall
4.305096,-0.745,-0.1767,0.2526,-0.3044,-0.3738,0.0605,42.4688,12.2063,-19.2,,0.041234000000000215,0.8062596666087173,0.7663961981010121,non_fall
4.308477,-0.745,-0.1767,0.2526,-0.3044,-0.3738,0.0605,42.4688,12.2063,-19.2,,0.0033810000000000784,0.8062596666087173,0.7924171437166949,non_fall
4.324538,-0.745,-0.1767,0.2526,-0.3044,-0.3738,0.0605,41.9438,12.9188,-20.3625,,0.016061000000000547,0.8062596666087173,0.8164912147024068,non_fall
4.325911,-0.7199,0.2727,-0.184,-0.3044,-0.3738,0.0605,41.9438,12.9188,-20.3625,,0.0013729999999991804,0.7915031901388648,0.8372118996956285,non_fall
4.365317,-0.7199,0.2727,-0.184,-0.4088,-0.5474,0.0434,41.9438,12.9188,-20.3625,,0.039406000000000496,0.7915031901388648,0.8527012221715349,non_fall
4.368574,-0.7199,0.2727,-0.184,-0.4088,-0.5474,0.0434,41.9438,12.9188,-20.3625,,0.0032569999999996213,0.7915031901388648,0.8603997302159945,non_fall
4.384449,-0.7199,0.2727,-0.184,-0.4088,-0.5474,0.0434,41.1562,13.4438,-21.525,,0.015875000000000306,0.7915031901388648,0.8572458346857367,non_fall
4.40349,-0.2886,0.5335,-0.6391,-0.4088,-0.5474,0.0434,41.1562,13.4438,-21.525,,0.01904099999999964,0.8811135114160944,0.8402961752620763,non_fall
4.425168,-0.2886,0.5335,-0.6391,-0.4587,-0.3312,0.0711,41.1562,13.4438,-21.525,,0.02167800000000053,0.8811135114160944,0.8076596193493591,non_fall
4.428108,-0.2886,0.5335,-0.6391,-0.4587,-0.3312,0.0711,41.1562,13.4438,-21.525,,0.0029399999999997206,0.8811135114160944,0.7594508403734814,non_fall
4.441314,-0.2886,0.5335,-0.6391,-0.4587,-0.3312,0.0711,40.35,13.2938,-22.0125,,0.013206000000000273,0.8811135114160944,0.6983957538350758,non_fall
4.465708,0.2226,0.2843,-0.3095,-0.4587,-0.3312,0.0711,40.35,13.2938,-22.0125,,0.024394000000000027,0.4755707097793135,0.6298018686896254,non_fall
4.4849,0.2226,0.2843,-0.3095,-0.3949,-0.3382,0.1989,40.35,13.2938,-22.0125,,0.019191999999999432,0.4755707097793135,0.5608339029765543,non_fall
4.486552,0.2226,0.2843,-0.3095,-0.3949,-0.3382,0.1989,40.35,13.2938,-22.0125,,0.0016519999999999868,0.4755707097793135,0.49930315892378885,non_fall
4.502831,0.2226,0.2843,-0.3095,-0.3949,-0.3382,0.1989,39.9188,13.8,-22.8375,,0.016278999999999932,0.4755707097793135,0.4523356429798926,non_fall
4.526637,-0.3802,-0.0882,0.0541,-0.3949,-0.3382,0.1989,39.9188,13.8,-22.8375,,0.023806000000000438,0.39402803199772474,0.4252574661187697,non_fall
4.546073,-0.3802,-0.0882,0.0541,-0.353,-0.5317,0.2145,39.9188,13.8,-22.8375,,0.019435999999999787,0.39402803199772474,0.4208989998645323,non_fall
4.547971,-0.3802,-0.0882,0.0541,-0.353,-0.5317,0.2145,39.9188,13.8,-22.8375,,0.0018980000000006214,0.39402803199772474,0.43938793516315544,non_fall
4.562768,-0.3802,-0.0882,0.0541,-0.353,-0.5317,0.2145,39.45,14.325,-23.7938,,0.014796999999999727,0.39402803199772474,0.478412578158186,non_fall
4.5868,-0.5596,0.3566,0.2468,-0.353,-0.5317,0.2145,39.45,14.325,-23.7938,,0.024032000000000053,0.7079731350835284,0.5338541461853051,non_fall
4.607368,-0.5596,0.3566,0.2468,-0.2682,-0.3137,0.3874,39.45,14.325,-23.7938,,0.02056799999999992,0.7079731350835284,0.6005897392781498,non_fall
4.609329,-0.5596,0.3566,0.2468,-0.2682,-0.3137,0.3874,39.45,14.325,-23.7938,,0.0019609999999996575,0.7079731350835284,0.6732042402819691,non_fall
4.621689,-0.5596,0.3566,0.2468,-0.2682,-0.3137,0.3874,39.2063,14.775,-24.6188,,0.012360000000000149,0.7079731350835284,0.7464014787187223,non_fall
4.668853,-0.5596,0.3566,0.2468,-0.226,-0.3465,0.4459,39.2063,14.775,-24.6188,,0.04716400000000043,0.7079731350835284,0.8150875762638569,non_fall
4.671951,-0.5596,0.3566,0.2468,-0.226,-0.3465,0.4459,39.2063,14.775,-24.6188,,0.003097999999999601,0.7079731350835284,0.8743088655370927,non_fall
4.673499,-0.4603,-0.7781,0.4081,-0.226,-0.3465,0.4459,39.2063,14.775,-24.6188,,0.0015479999999996608,0.9918978324404182,0.9193170939770933,non_fall
4.681853,-0.4603,-0.7781,0.4081,-0.226,-0.3465,0.4459,38.7938,14.925,-25.2938,,0.008354000000000639,0.9918978324404182,0.9459404551074625,non_fall
4.731562,-0.4603,-0.7781,0.4081,-0.1446,-0.2321,0.4115,38.7938,14.925,-25.2938,,0.049709,0.9918978324404182,0.9512272594889656,non_fall
4.735518,-0.4603,-0.7781,0.4081,-0.1446,-0.2321,0.4115,38.7938,14.925,-25.2938,,0.0039559999999996265,0.9918978324404182,0.9341453235548189,non_fall
4.73812,0.4139,-0.5901,0.453,-0.1446,-0.2321,0.4115,38.7938,14.925,-25.2938,,0.0026020000000004373,0.851316756560095,0.8960709121435391,non_fall
4.742773,0.4139,-0.5901,0.453,-0.1446,-0.2321,0.4115,38.3063,14.8125,-26.0438,,0.004652999999999352,0.851316756560095,0.8408780156239214,non_fall
4.790714,0.4139,-0.5901,0.453,-0.1557,-0.3286,0.473,38.3063,14.8125,-26.0438,,0.04794100000000068,0.851316756560095,0.7745576979535097,non_fall
4.794606,0.4139,-0.5901,0.453,-0.1557,-0.3286,0.473,38.3063,14.8125,-26.0438,,0.0038919999999995625,0.851316756560095,0.7043930485662763,non_fall
4.796976,0.033,-0.382,0.274,-0.1557,-0.3286,0.473,38.3063,14.8125,-26.0438,,0.0023699999999999832,0.47126319610171136,0.6377943632757087,non_fall
4.802541,0.033,-0.382,0.274,-0.1557,-0.3286,0.473,37.9875,14.475,-26.6438,,0.00556499999999982,0.47126319610171136,0.5810039433397346,non_fall
4.853818,0.033,-0.382,0.274,-0.0513,0.0547,0.4549,37.9875,14.475,-26.6438,,0.05127700000000068,0.47126319610171136,0.53799406145705,non_fall
4.857052,0.033,-0.382,0.274,-0.0513,0.0547,0.4549,37.9875,14.475,-26.6438,,0.003233999999999959,0.47126319610171136,0.509905039816952,non_fall
4.862624,0.033,-0.382,0.274,-0.0513,0.0547,0.4549,37.7812,14.1188,-27.375,,0.00557199999999991,0.47126319610171136,0.49523054219717044,non_fall
4.871304,0.4863,-0.1351,0.2666,-0.0513,0.0547,0.4549,37.7812,14.1188,-27.375,,0.008680000000000021,0.5708022950199132,0.4907063325648414,non_fall
4.915249,0.4863,-0.1351,0.2666,-0.0513,0.0547,0.4549,37.7812,14.1188,-27.375,,0.0439449999999999,0.5708022950199132,0.4926203920707437,non_fall
4.917165,0.4863,-0.1351,0.2666,-0.1144,-0.0497,0.4807,37.7812,14.1188,-27.375,,0.0019159999999995847,0.5708022950199132,0.4981295489342821,non_fall
4.927072,0.4863,-0.1351,0.2666,-0.1144,-0.0497,0.4807,37.575,13.4438,-27.7313,,0.00990700000000011,0.5708022950199132,0.506176029020648,non_fall
4.932762,0.5087,0.0209,-0.1192,-0.1144,-0.0497,0.4807,37.575,13.4438,-27.7313,,0.005690000000000417,0.5228968731977655,0.5177355108708601,non_fall
4.973431,0.5087,0.0209,-0.1192,-0.2043,-0.0297,0.4242,37.575,13.4438,-27.7313,,0.0406689999999994,0.5228968731977655,0.5353443993103665,non_fall
4.977173,0.5087,0.0209,-0.1192,-0.2043,-0.0297,0.4242,37.575,13.4438,-27.7313,,0.003741999999999912,0.5228968731977655,0.5620742925687409,non_fall
4.98406,0.5087,0.0209,-0.1192,-0.2043,-0.0297,0.4242,37.35,12.7125,-28.2375,,0.006887000000000754,0.5228968731977655,0.6002813048251492,non_fall
4.993327,-0.2332,0.3398,-0.4806,-0.2043,-0.0297,0.4242,37.35,12.7125,-28.2375,,0.00926699999999947,0.633105552021146,0.6505204769130245,non_fall
5.034104,-0.2332,0.3398,-0.4806,-0.3406,0.0714,0.4129,37.35,12.7125,-28.2375,,0.040777000000000285,0.633105552021146,0.7109762599170598,non_fall
5.038242,-0.2332,0.3398,-0.4806,-0.3406,0.0714,0.4129,37.35,12.7125,-28.2375,,0.004138000000000197,0.633105552021146,0.7776390938580467,non_fall
5.043066,-0.2332,0.3398,-0.4806,-0.3406,0.0714,0.4129,37.2563,11.9062,-28.4063,,0.004823999999999273,0.633105552021146,0.8452775841072919,non_fall
5.054687,0.7424,0.4093,-0.9326,-0.3406,0.0714,0.4129,37.2563,11.9062,-28.4063,,0.01162100000000077,1.260328135843995,0.9090151675745523,non_fall
5.09684,0.7424,0.4093,-0.9326,-0.2209,-0.2144,0.3313,37.2563,11.9062,-28.4063,,0.042152999999999885,1.260328135843995,0.9660306777061921,non_fall
5.100805,0.7424,0.4093,-0.9326,-0.2209,-0.2144,0.3313,37.2563,11.9062,-28.4063,,0.003964999999999996,1.260328135843995,1.0166824172892284,non_fall
5.103914,0.7424,0.4093,-0.9326,-0.2209,-0.2144,0.3313,37.0875,11.1,-28.5563,,0.0031089999999993623,1.260328135843995,1.064424127279545,non_fall
5.134986,0.2398,-0.0203,0.7356,-0.2209,-0.2144,0.3313,37.0875,11.1,-28.5563,,0.03107199999999999,0.7739660780680249,1.1143560014722134,non_fall
5.15551,0.2398,-0.0203,0.7356,-0.4555,-0.3667,0.5418,37.0875,11.1,-28.5563,,0.020523999999999987,0.7739660780680249,1.1709701220117907,non_fall
5.158354,0.2398,-0.0203,0.7356,-0.4555,-0.3667,0.5418,37.0875,11.1,-28.5563,,0.002844000000000513,0.7739660780680249,1.23622332915714,non_fall
5.160871,0.2398,-0.0203,0.7356,-0.4555,-0.3667,0.5418,37.05,10.35,-28.7438,,0.0025170000000001025,0.7739660780680249,1.3091257399994227,non_fall
5.199496,-1.1283,1.1015,-1.2188,-0.4555,-0.3667,0.5418,37.05,10.35,-28.7438,,0.03862499999999969,1.9929467077671696,1.3874179566030032,non_fall
5.218473,-1.1283,1.1015,-1.2188,-0.8976,-1.0397,0.7583,37.05,10.35,-28.7438,,0.018977000000000466,1.9929467077671696,1.4708215958578714,non_fall
5.220969,-1.1283,1.1015,-1.2188,-0.8976,-1.0397,0.7583,37.05,10.35,-28.7438,,0.0024959999999998317,1.9929467077671696,1.5643163771141213,non_fall
5.221782,-1.1283,1.1015,-1.2188,-0.8976,-1.0397,0.7583,36.975,9.7313,-29.0438,,0.0008129999999999526,1.9929467077671696,1.6795364850164942,non_fall
5.25831,-1.0313,1.4688,-0.9058,-0.8976,-1.0397,0.7583,36.975,9.7313,-29.0438,,0.03652799999999967,2.0103300151965104,1.8329606085289862,non_fall
5.277655,-1.0313,1.4688,-0.9058,-1.0886,0.3032,-0.0979,36.975,9.7313,-29.0438,,0.01934500000000039,2.0103300151965104,2.0408177018614433,non_fall
5.280335,-1.0313,1.4688,-0.9058,-1.0886,0.3032,-0.0979,36.975,9.7313,-29.0438,,0.0026799999999997937,2.0103300151965104,2.311993084317023,non_fall
5.282194,-1.0313,1.4688,-0.9058,-1.0886,0.3032,-0.0979,36.8625,9.3938,-29.3438,,0.001858999999999611,2.0103300151965104,2.6412536139364198,non_fall
5.340168,-1.0313,1.4688,-0.9058,-2.0605,1.2749,-0.706,36.8625,9.3938,-29.3438,,0.057974000000000636,2.0103300151965104,3.005556291404896,non_fall
5.343911,-1.0313,1.4688,-0.9058,-2.0605,1.2749,-0.706,36.8625,9.3938,-29.3438,,0.003743000000000052,2.0103300151965104,3.3658640866698413,non_fall
5.345867,-1.0313,1.4688,-0.9058,-2.0605,1.2749,-0.706,36.9,9.5063,-28.9688,,0.0019559999999998468,2.0103300151965104,3.6755710037971885,non_fall
5.348332,6.4417,1.7394,2.3345,-2.0605,1.2749,-0.706,36.9,9.5063,-28.9688,,0.0024649999999999395,7.069009937749415,3.894246343610295,non_fall
5.403803,6.4417,1.7394,2.3345,-2.2128,0.0814,0.163,36.9,9.5063,-28.9688,,0.055470999999999826,7.069009937749415,4.00238064088948,non_fall
5.407849,6.4417,1.7394,2.3345,-2.2128,0.0814,0.163,36.9,9.5063,-28.9688,,0.004045999999999772,7.069009937749415,4.010664565628664,non_fall
5.409682,-0.5367,1.629,-0.0141,-2.2128,0.0814,0.163,36.9,9.5063,-28.9688,,0.0018330000000004176,1.7151929046028613,3.95820982930868,non_fall
5.412103,-0.5367,1.629,-0.0141,-2.2128,0.0814,0.163,37.2,10.1438,-28.3875,,0.0024210000000000065,1.7151929046028613,3.898783348097728,non_fall
5.460337,-0.5367,1.629,-0.0141,-2.3556,-0.2523,-0.2374,37.2,10.1438,-28.3875,,0.04823399999999989,1.7151929046028613,3.880292429136046,non_fall
5.462008,-0.5367,1.629,-0.0141,-2.3556,-0.2523,-0.2374,37.2,10.1438,-28.3875,,0.001670999999999978,1.7151929046028613,3.926459553401982,non_fall
5.462605,-3.6316,3.72,-0.3238,-2.3556,-0.2523,-0.2374,37.2,10.1438,-28.3875,,0.0005969999999999587,5.208816084294011,4.028523339661382,non_fall
5.463269,-3.6316,3.72,-0.3238,-2.3556,-0.2523,-0.2374,37.3313,11.0625,-27.7125,,0.000664000000000442,5.208816084294011,4.149875951138488,non_fall
5.524753,-3.6316,3.72,-0.3238,-2.3556,-0.2523,-0.2374,37.3313,12.3,-26.7375,,0.061483999999999206,5.208816084294011,4.24085266405134,non_fall
5.530057,-3.6316,3.72,-0.3238,-2.1201,0.726,-0.5967,37.3313,12.3,-26.7375,,0.0053040000000006415,5.208816084294011,4.2572779300562,non_fall
5.532164,-3.6316,3.72,-0.3238,-2.1201,0.726,-0.5967,37.3313,12.3,-26.7375,,0.002106999999999637,5.208816084294011,4.17598583136956,non_fall
5.533082,2.8783,0.1833,-1.8619,-2.1201,0.726,-0.5967,37.3313,12.3,-26.7375,,0.0009180000000004185,3.432911503374359,4.002681765653815,non_fall
5.585583,2.8783,0.1833,-1.8619,-2.1201,0.726,-0.5967,37.2938,13.8188,-25.4625,,0.052500999999999465,3.432911503374359,3.770685203271678,non_fall
5.587394,2.8783,0.1833,-1.8619,-1.4354,-0.5112,-0.7522,37.2938,13.8188,-25.4625,,0.001811000000000007,3.432911503374359,3.5319632735191693,non_fall
5.588619,2.8783,0.1833,-1.8619,-1.4354,-0.5112,-0.7522,37.2938,13.8188,-25.4625,,0.0012249999999998096,3.432911503374359,3.343619027570856,non_fall
5.605913,-1.7571,-2.1016,-0.2135,-1.4354,-0.5112,-0.7522,37.2938,13.8188,-25.4625,,0.017294000000000587,2.7476726915700858,3.2534637632201595,non_fall
5.645488,-1.7571,-2.1016,-0.2135,-1.2703,0.3217,-0.5768,37.2938,13.8188,-25.4625,,0.03957500000000014,2.7476726915700858,3.2879281932260147,non_fall
5.649165,-1.7571,-2.1016,-0.2135,-1.2703,0.3217,-0.5768,37.2938,13.8188,-25.4625,,0.0036769999999997083,2.7476726915700858,3.444885132456517,non_fall
5.65063,-1.7571,-2.1016,-0.2135,-1.2703,0.3217,-0.5768,37.3125,15.5813,-23.925,,0.0014649999999996055,2.7476726915700858,3.6930484378737147,non_fall
5.662206,2.2496,-3.1003,-3.1602,-1.2703,0.3217,-0.5768,37.3125,15.5813,-23.925,,0.011576000000000697,4.965825640314005,3.978259465525853,non_fall
5.705479,2.2496,-3.1003,-3.1602,-1.2703,0.3217,-0.5768,37.3125,15.5813,-23.925,,0.04327300000000012,4.965825640314005,4.235198028005686,non_fall
5.708758,2.2496,-3.1003,-3.1602,-1.2703,0.3217,-0.5768,37.3313,17.6063,-21.825,,0.003279000000000032,4.965825640314005,4.4014288738642415,non_fall
5.711402,2.2496,-3.1003,-3.1602,-0.9085,-0.181,-0.0678,37.3313,17.6063,-21.825,,0.0026439999999992025,4.965825640314005,4.430060400019807,non_fall
5.723555,-1.469,-3.4965,-0.1751,-0.9085,-0.181,-0.0678,37.3313,17.6063,-21.825,,0.012153000000000524,3.796594956009925,4.298055684733087,non_fall
5.761847,-1.469,-3.4965,-0.1751,-0.9085,-0.181,-0.0678,37.4813,19.6125,-19.725,,0.038292000000000215,3.796594956009925,4.008931268655128,non_fall
5.76544,-1.469,-3.4965,-0.1751,-0.784,0.2294,-0.0337,37.4813,19.6125,-19.725,,0.0035929999999995132,3.796594956009925,3.590245885944381,non_fall
5.76846,-1.469,-3.4965,-0.1751,-0.784,0.2294,-0.0337,37.4813,19.6125,-19.725,,0.0030200000000002447,3.796594956009925,3.087227230173845,non_fall
5.808598,0.787,1.3953,-0.0503,-0.784,0.2294,-0.0337,37.4813,19.6125,-19.725,,0.040137999999999785,1.602735530273164,2.5541203322879213,non_fall
5.821993,0.787,1.3953,-0.0503,-0.784,0.2294,-0.0337,37.4438,21.2438,-17.8313,,0.013395000000000046,1.602735530273164,2.0448508489500608,non_fall
5.825258,0.787,1.3953,-0.0503,-0.8518,0.081,0.0615,37.4438,21.2438,-17.8313,,0.0032649999999998514,1.602735530273164,1.6046390035323792,non_fall
5.826684,0.787,1.3953,-0.0503,-0.8518,0.081,0.0615,37.4438,21.2438,-17.8313,,0.0014260000000003714,1.602735530273164,1.2640023997790137,non_fall
5.867838,-0.6879,-0.3265,0.3073,-0.8518,0.081,0.0615,37.4438,21.2438,-17.8313,,0.04115399999999969,0.8211223721224504,1.0359207097475251,non_fall
5.882315,-0.6879,-0.3265,0.3073,-0.8518,0.081,0.0615,37.3125,22.6313,-16.275,,0.014477000000000295,0.8211223721224504,0.9161278363531505,non_fall
5.886125,-0.6879,-0.3265,0.3073,-1.0264,0.4274,0.2976,37.3125,22.6313,-16.275,,0.003809999999999647,0.8211223721224504,0.8860082878309181,non_fall
5.88874,-0.6879,-0.3265,0.3073,-1.0264,0.4274,0.2976,37.3125,22.6313,-16.275,,0.002615000000000478,0.8211223721224504,0.9174143572779092,non_fall
5.92951,1.1508,0.5271,-0.1181,-1.0264,0.4274,0.2976,37.3125,22.6313,-16.275,,0.04076999999999931,1.2712681306475044,0.9786007691975275,non_fall
5.94352,1.1508,0.5271,-0.1181,-1.0264,0.4274,0.2976,37.425,23.5875,-14.2875,,0.014010000000000744,1.2712681306475044,1.0402778864628288,non_fall
5.946986,1.1508,0.5271,-0.1181,-1.2356,0.4108,0.4975,37.425,23.5875,-14.2875,,0.003465999999999525,1.2712681306475044,1.0806631138003107,non_fall
5.948784,1.1508,0.5271,-0.1181,-1.2356,0.4108,0.4975,37.425,23.5875,-14.2875,,0.0017979999999999663,1.2712681306475044,1.088558177866444,non_fall
5.990194,-0.3202,0.6525,0.5089,-1.2356,0.4108,0.4975,37.425,23.5875,-14.2875,,0.04140999999999995,0.887278704804753,1.0639446271551025,non_fall
6.002015,-0.3202,0.6525,0.5089,-1.2356,0.4108,0.4975,37.7812,24.0938,-12.4313,,0.011821000000000303,0.887278704804753,1.0162242599240185,non_fall
6.00738,-0.3202,0.6525,0.5089,-1.4201,0.4783,0.5979,37.7812,24.0938,-12.4313,,0.005365000000000286,0.887278704804753,0.9607827339491894,non_fall
6.009221,-0.3202,0.6525,0.5089,-1.4201,0.4783,0.5979,37.7812,24.0938,-12.4313,,0.0018409999999997595,0.887278704804753,0.9148179639548779,non_fall
6.063132,-0.3202,0.6525,0.5089,-1.4201,0.4783,0.5979,38.175,24.1125,-10.5,,0.053911000000000264,0.887278704804753,0.8933142011789867,non_fall
6.072371,-0.3202,0.6525,0.5089,-1.4159,0.4368,0.6543,38.175,24.1125,-10.5,,0.009238999999999997,0.887278704804753,0.9057947258124034,non_fall
6.075347,0.8454,0.3917,0.2026,-1.4159,0.4368,0.6543,38.175,24.1125,-10.5,,0.0029759999999994236,0.9535076349982731,0.954230553757919,non_fall
6.077504,0.8454,0.3917,0.2026,-1.4159,0.4368,0.6543,38.175,24.1125,-10.5,,0.0021570000000004086,0.9535076349982731,1.0323100818636068,non_fall
6.12352,0.8454,0.3917,0.2026,-1.4159,0.4368,0.6543,38.775,23.6438,-8.4375,,0.046015999999999835,0.9535076349982731,1.1261711736542759,non_fall
6.130133,0.8454,0.3917,0.2026,-1.3498,0.3533,0.5436,38.775,23.6438,-8.4375,,0.006612999999999758,0.9535076349982731,1.2165948988800153,non_fall
6.132223,-0.1725,-1.4473,0.201,-1.3498,0.3533,0.5436,38.775,23.6438,-8.4375,,0.0020899999999999253,1.4713376702851049,1.282474718083153,non_fall
6.133381,-0.1725,-1.4473,0.201,-1.3498,0.3533,0.5436,38.775,23.6438,-8.4375,,0.0011580000000002144,1.4713376702851049,1.305061200850253,non_fall
6.184199,-0.1725,-1.4473,0.201,-1.3498,0.3533,0.5436,39.5438,22.8,-6.45,,0.050817999999999586,1.4713376702851049,1.2721237474840938,non_fall
6.192794,-0.1725,-1.4473,0.201,-1.2547,0.3362,0.4513,39.5438,22.8,-6.45,,0.008595000000000574,1.4713376702851049,1.1809782702672567,non_fall
6.195274,-0.1725,-1.4473,0.201,-1.2547,0.3362,0.4513,39.5438,22.8,-6.45,,0.0024800000000002598,1.4713376702851049,1.0394853484625874,non_fall
6.197597,0.0114,0.3131,0.2091,-1.2547,0.3362,0.4513,39.5438,22.8,-6.45,,0.002322999999999631,0.37667543057651104,0.8646431912896374,non_fall
6.245682,0.0114,0.3131,0.2091,-1.2547,0.3362,0.4513,39.7125,19.9688,-3.0375,,0.04808500000000038,0.37667543057651104,0.6791349909173672,non_fall
6.254816,0.0114,0.3131,0.2091,-1.0097,0.1811,0.4573,39.7125,19.9688,-3.0375,,0.009133999999999531,0.37667543057651104,0.5068517332774037,non_fall
6.257172,0.0114,0.3131,0.2091,-1.0097,0.1811,0.4573,39.7125,19.9688,-3.0375,,0.0023559999999998027,0.37667543057651104,0.3686559469609091,non_fall
6.272774,0.2256,-0.1159,-0.1363,-1.0097,0.1811,0.4573,39.7125,19.9688,-3.0375,,0.015602000000000338,0.28793377710855667,0.2793515193152798,non_fall
6.304032,0.2256,-0.1159,-0.1363,-1.0097,0.1811,0.4573,40.35,18.6,-0.9,,0.03125800000000023,0.28793377710855667,0.24622908804871435,non_fall
6.31325,0.2256,-0.1159,-0.1363,-0.6828,-0.0478,0.3213,40.35,18.6,-0.9,,0.009217999999999726,0.28793377710855667,0.2690471381696437,non_fall
6.315504,0.2256,-0.1159,-0.1363,-0.6828,-0.0478,0.3213,40.35,18.6,-0.9,,0.002253999999999756,0.28793377710855667,0.3410621215526224,non_fall
6.334687,0.3784,0.1587,-0.4813,-0.6828,-0.0478,0.3213,40.35,18.6,-0.9,,0.01918299999999995,0.6324728768888038,0.4506788886942731,non_fall
6.362017,0.3784,0.1587,-0.4813,-0.6828,-0.0478,0.3213,41.1562,17.1,1.2375,,0.027330000000000076,0.6324728768888038,0.5833416407595509,non_fall
6.377163,0.3784,0.1587,-0.4813,-0.6828,-0.0478,0.3213,41.1562,17.1,1.2375,,0.015146000000000548,0.6324728768888038,0.7233767484061157,non_fall
6.379896,0.3784,0.1587,-0.4813,-0.2987,-0.1164,0.0366,41.1562,17.1,1.2375,,0.0027329999999992083,0.6324728768888038,0.8556327980363314,non_fall
6.394796,-0.7617,-0.3791,-0.7408,-0.2987,-0.1164,0.0366,41.1562,17.1,1.2375,,0.014900000000000801,1.1281348944164435,0.9668974534091902,non_fall
6.422291,-0.7617,-0.3791,-0.7408,-0.2987,-0.1164,0.0366,41.7188,15.8063,2.8688,,0.027495000000000047,1.1281348944164435,1.0471050916112254,non_fall
6.435143,-0.7617,-0.3791,-0.7408,0.0866,-0.1185,-0.0226,41.7188,15.8063,2.8688,,0.012851999999999641,1.1281348944164435,1.090258398288206,non_fall
6.43687,-0.7617,-0.3791,-0.7408,0.0866,-0.1185,-0.0226,41.7188,15.8063,2.8688,,0.001726999999999812,1.1281348944164435,1.0948952171168875,non_fall
6.454868,-0.326,-0.2423,-0.8867,0.0866,-0.1185,-0.0226,41.7188,15.8063,2.8688,,0.017998000000000403,0.9753061980732,1.063969790327636,non_fall
6.483996,-0.326,-0.2423,-0.8867,0.0866,-0.1185,-0.0226,42.15,14.55,4.0125,,0.029128000000000043,0.9753061980732,1.0041646615798767,non_fall
6.496366,-0.326,-0.2423,-0.8867,0.3776,0.3051,0.0718,42.15,14.55,4.0125,,0.01236999999999977,0.9753061980732,0.9247811517752974,non_fall
6.499054,-0.326,-0.2423,-0.8867,0.3776,0.3051,0.0718,42.15,14.55,4.0125,,0.0026880000000000237,0.9753061980732,0.8363935576634665,non_fall
6.536697,0.0354,-0.2409,-0.5415,0.3776,0.3051,0.0718,42.15,14.55,4.0125,,0.03764300000000009,0.5937240268003309,0.7494271263292521,non_fall
6.541642,0.0354,-0.2409,-0.5415,0.3776,0.3051,0.0718,42.4125,13.65,4.8188,,0.004945000000000199,0.5937240268003309,0.6728158295306761,non_fall
6.556891,0.0354,-0.2409,-0.5415,0.2991,0.0096,-0.0269,42.4125,13.65,4.8188,,0.015248999999999846,0.5937240268003309,0.6129325597090203,non_fall
6.559382,0.0354,-0.2409,-0.5415,0.2991,0.0096,-0.0269,42.4125,13.65,4.8188,,0.002491000000000021,0.5937240268003309,0.5729844031640784,non_fall
6.599537,-0.4025,-0.0088,-0.4005,0.2991,0.0096,-0.0269,42.4125,13.65,4.8188,,0.0401549999999995,0.5678766943624294,0.5529663096964897,non_fall
6.603432,-0.4025,-0.0088,-0.4005,0.2991,0.0096,-0.0269,42.6938,13.1438,5.4563,,0.003894999999999982,0.5678766943624294,0.5501155458012533,non_fall
6.617552,-0.4025,-0.0088,-0.4005,0.3182,0.6352,-0.1128,42.6938,13.1438,5.4563,,0.014120000000000132,0.5678766943624294,0.5597036915057879,non_fall
6.619977,-0.4025,-0.0088,-0.4005,0.3182,0.6352,-0.1128,42.6938,13.1438,5.4563,,0.0024249999999996774,0.5678766943624294,0.5759802531530073,non_fall
6.658497,-0.1838,-0.0604,-0.5805,0.3182,0.6352,-0.1128,42.6938,13.1438,5.4563,,0.03852000000000011,0.6118912076505104,0.5931119543181034,non_fall
6.66307,-0.1838,-0.0604,-0.5805,0.3182,0.6352,-0.1128,42.6938,12.7313,6.0563,,0.004573000000000604,0.6118912076505104,0.6060027949576403,non_fall
6.677804,-0.1838,-0.0604,-0.5805,0.1162,0.4304,-0.061,42.6938,12.7313,6.0563,,0.014733999999999803,0.6118912076505104,0.6109127991139036,non_fall
6.679332,-0.1838,-0.0604,-0.5805,0.1162,0.4304,-0.061,42.6938,12.7313,6.0563,,0.0015279999999995297,0.6118912076505104,0.6058190137322713,non_fall
6.722347,-0.1838,-0.0604,-0.5805,0.1162,0.4304,-0.061,42.6188,12.45,6.5063,,0.04301500000000047,0.6118912076505104,0.5904867314855973,non_fall
6.739011,-0.1838,-0.0604,-0.5805,0.1162,0.4304,-0.061,42.6188,12.45,6.5063,,0.016663999999999568,0.6118912076505104,0.5662446049499117,non_fall
6.741591,-0.1838,-0.0604,-0.5805,0.0553,0.3838,0.0988,42.6188,12.45,6.5063,,0.0025800000000000267,0.6118912076505104,0.5354901104122484,non_fall
6.743246,0.3445,0.1333,-0.0551,0.0553,0.3838,0.0988,42.6188,12.45,6.5063,,0.0016550000000004061,0.3734771077321875,0.5010064717796955,non_fall
6.784649,0.3445,0.1333,-0.0551,0.0553,0.3838,0.0988,42.6562,12.3375,6.9188,,0.04140299999999986,0.3734771077321875,0.46525258943048353,non_fall
6.802463,0.3445,0.1333,-0.0551,0.0553,0.3838,0.0988,42.6562,12.3375,6.9188,,0.01781400000000044,0.3734771077321875,0.4298530718219268,non_fall
6.805857,0.3445,0.1333,-0.0551,-0.0824,-0.2768,0.1374,42.6562,12.3375,6.9188,,0.003393999999999231,0.3734771077321875,0.3954916772959762,non_fall
6.807529,0.3131,0.0992,-0.2524,-0.0824,-0.2768,0.1374,42.6562,12.3375,6.9188,,0.0016720000000001178,0.41421976051366743,0.36226511399075595,non_fall
6.843268,0.3131,0.0992,-0.2524,-0.0824,-0.2768,0.1374,42.6562,12.375,7.275,,0.03573900000000041,0.41421976051366743,0.3303453825726307,non_fall
6.861679,0.3131,0.0992,-0.2524,-0.1921,0.0096,0.1911,42.6562,12.375,7.275,,0.01841099999999951,0.41421976051366743,0.3006385161564389,non_fall
6.864922,0.3131,0.0992,-0.2524,-0.1921,0.0096,0.1911,42.6562,12.375,7.275,,0.003243000000000329,0.41421976051366743,0.2750997751088453,non_fall
6.866693,0.1331,-0.0027,0.009,-0.1921,0.0096,0.1911,42.6562,12.375,7.275,,0.001770999999999745,0.13343125570869818,0.2564941482623668,non_fall
6.904846,0.1331,-0.0027,0.009,-0.1921,0.0096,0.1911,42.6562,12.1688,7.7063,,0.038153000000000326,0.13343125570869818,0.24763572025493746,non_fall
6.924002,0.1331,-0.0027,0.009,-0.2671,-0.0254,0.3051,42.6562,12.1688,7.7063,,0.01915599999999973,0.13343125570869818,0.25039008801441304,non_fall
6.926683,0.2966,0.0901,0.0743,-0.2671,-0.0254,0.3051,42.6562,12.1688,7.7063,,0.0026809999999999334,0.31876332913307326,0.2648387901064745,non_fall
6.928585,0.2966,0.0901,0.0743,-0.2671,-0.0254,0.3051,42.6562,12.1688,7.7063,,0.0019020000000002923,0.31876332913307326,0.28891531695699857,non_fall
6.962095,0.2966,0.0901,0.0743,-0.2671,-0.0254,0.3051,42.5438,12.075,8.2313,,0.03350999999999971,0.31876332913307326,0.3186064369913067,non_fall
6.983395,0.2966,0.0901,0.0743,-0.3878,-0.2939,0.1915,42.5438,12.075,8.2313,,0.021300000000000097,0.31876332913307326,0.34862334200835354,non_fall
6.986294,0.2966,0.0901,0.0743,-0.3878,-0.2939,0.1915,42.5438,12.075,8.2313,,0.002899000000000207,0.31876332913307326,0.3733678384557821,non_fall
7.002958,-0.1652,0.3572,0.2138,-0.3878,-0.2939,0.1915,42.5438,12.075,8.2313,,0.016663999999999568,0.4478764561796032,0.3880128800901901,non_fall
7.024603,-0.1652,0.3572,0.2138,-0.3878,-0.2939,0.1915,42.8063,11.8125,8.7,,0.02164500000000036,0.4478764561796032,0.38950913421283634,non_fall
7.042907,-0.1652,0.3572,0.2138,-0.4666,0.0882,0.2184,42.8063,11.8125,8.7,,0.018303999999999654,0.4478764561796032,0.3773033804847682,non_fall
7.045475,-0.1652,0.3572,0.2138,-0.4666,0.0882,0.2184,42.8063,11.8125,8.7,,0.0025680000000001257,0.4478764561796032,0.35356107765656425,non_fall
7.063791,0.0954,0.0931,0.2021,-0.4666,0.0882,0.2184,42.8063,11.8125,8.7,,0.018316000000000443,0.2421015902467392,0.3227765294119797,non_fall
7.081451,0.0954,0.0931,0.2021,-0.4666,0.0882,0.2184,42.9,11.2875,9.0188,,0.01766000000000023,0.2421015902467392,0.29082281159646306,non_fall
7.10442,0.0954,0.0931,0.2021,-0.4879,0.1467,0.1332,42.9,11.2875,9.0188,,0.022968999999999795,0.2421015902467392,0.26366906842172516,non_fall
7.107202,0.0954,0.0931,0.2021,-0.4879,0.1467,0.1332,42.9,11.2875,9.0188,,0.00278199999999984,0.2421015902467392,0.24608837538933384,non_fall
7.125445,0.0306,0.077,0.1837,-0.4879,0.1467,0.1332,42.9,11.2875,9.0188,,0.01824300000000001,0.2015218350452377,0.24066090204037602,non_fall
7.14113,0.0306,0.077,0.1837,-0.4879,0.1467,0.1332,43.1625,10.7438,9.225,,0.015685000000000393,0.2015218350452377,0.2472846014730505,non_fall
7.164126,0.0306,0.077,0.1837,-0.4438,0.1531,0.0607,43.1625,10.7438,9.225,,0.022996000000000016,0.2015218350452377,0.26329745214737804,non_fall
7.165984,0.0306,0.077,0.1837,-0.4438,0.1531,0.0607,43.1625,10.7438,9.225,,0.0018579999999994712,0.2015218350452377,0.2842065915580159,non_fall
7.185455,-0.3735,-0.2085,0.0213,-0.4438,0.1531,0.0607,43.1625,10.7438,9.225,,0.019471000000000238,0.42828517368687885,0.3048903485100324,non_fall
7.201258,-0.3735,-0.2085,0.0213,-0.4438,0.1531,0.0607,43.3125,10.2375,9.2063,,0.01580300000000001,0.42828517368687885,0.32098738225961787,non_fall
7.226846,-0.3735,-0.2085,0.0213,-0.3534,-0.0702,-0.0145,43.3125,10.2375,9.2063,,0.025587999999999944,0.42828517368687885,0.33006674115466594,non_fall
7.229265,-0.3735,-0.2085,0.0213,-0.3534,-0.0702,-0.0145,43.3125,10.2375,9.2063,,0.002418999999999727,0.42828517368687885,0.3321719312566659,non_fall
7.261389,-0.3735,-0.2085,0.0213,-0.3534,-0.0702,-0.0145,43.4625,9.7688,9.1875,,0.032124000000000485,0.42828517368687885,0.32949978962234827,non_fall
7.26787,-0.1363,0.0527,-0.0301,-0.3534,-0.0702,-0.0145,43.4625,9.7688,9.1875,,0.006480999999999959,0.14920117291764162,0.3252720635208702,non_fall
7.287005,-0.1363,0.0527,-0.0301,-0.1702,-0.2285,-0.0571,43.4625,9.7688,9.1875,,0.019134999999999458,0.14920117291764162,0.32218111774213365,non_fall
7.288891,-0.1363,0.0527,-0.0301,-0.1702,-0.2285,-0.0571,43.4625,9.7688,9.1875,,0.0018859999999998323,0.14920117291764162,0.3210126328457033,non_fall
7.323916,-0.1363,0.0527,-0.0301,-0.1702,-0.2285,-0.0571,43.5563,9.1688,9.225,,0.035025000000000084,0.14920117291764162,0.3200449554400469,non_fall
7.327537,-0.14,-0.1986,-0.3962,-0.1702,-0.2285,-0.0571,43.5563,9.1688,9.225,,0.0036210000000007625,0.46477564480080064,0.3155487666521193,non_fall
7.349906,-0.14,-0.1986,-0.3962,-0.1702,-0.2285,-0.0571,43.5563,9.1688,9.225,,0.022368999999999417,0.46477564480080064,0.30325299858137544,non_fall
7.352627,-0.14,-0.1986,-0.3962,-0.151,0.1133,-0.0095,43.5563,9.1688,9.225,,0.0027210000000001955,0.46477564480080064,0.2802102156316771,non_fall
7.382392,-0.14,-0.1986,-0.3962,-0.151,0.1133,-0.0095,43.725,8.7,9.3563,,0.029765000000000263,0.46477564480080064,0.246302754811923,non_fall
7.389925,-0.0252,0.0399,0.0354,-0.151,0.1133,-0.0095,43.725,8.7,9.3563,,0.007532999999999568,0.05899330470485613,0.20478147598837418,non_fall
7.408416,-0.0252,0.0399,0.0354,-0.2535,0.0128,-0.0553,43.725,8.7,9.3563,,0.018491000000000035,0.05899330470485613,0.1616448659975088,non_fall
7.410557,-0.0252,0.0399,0.0354,-0.2535,0.0128,-0.0553,43.725,8.7,9.3563,,0.0021409999999999485,0.05899330470485613,0.12413105796300158,non_fall
7.443483,-0.0252,0.0399,0.0354,-0.2535,0.0128,-0.0553,43.8938,8.2875,9.5438,,0.03292599999999979,0.05899330470485613,0.0988808182580626,non_fall
7.470041,-0.0252,0.0399,0.0354,-0.2501,0.0903,-0.0248,43.8938,8.2875,9.5438,,0.026558000000000526,0.05899330470485613,0.09033999251723962,non_fall
7.472405,-0.0252,0.0399,0.0354,-0.2501,0.0903,-0.0248,43.8938,8.2875,9.5438,,0.0023640000000000327,0.05899330470485613,0.09978539989563379,non_fall
7.473312,0.0198,0.1299,0.0624,-0.2501,0.0903,-0.0248,43.8938,8.2875,9.5438,,0.0009069999999997691,0.1454641192871974,0.1251266324845507,non_fall
7.50172,0.0198,0.1299,0.0624,-0.2501,0.0903,-0.0248,43.9125,8.0063,9.8063,,0.028407999999999767,0.1454641192871974,0.16144643206233295,non_fall
7.530892,0.0198,0.1299,0.0624,-0.2593,-0.0738,-0.0503,43.9125,8.0063,9.8063,,0.029171999999999976,0.1454641192871974,0.20210933164970216,non_fall
7.533026,-0.291,-0.1814,-0.0656,-0.2593,-0.0738,-0.0503,43.9125,8.0063,9.8063,,0.0021340000000007464,0.34912794216447357,0.2401806799971048,non_fall
7.534019,-0.291,-0.1814,-0.0656,-0.2593,-0.0738,-0.0503,43.9125,8.0063,9.8063,,0.0009929999999993555,0.34912794216447357,0.2698448916117878,non_fall
7.561595,-0.291,-0.1814,-0.0656,-0.2593,-0.0738,-0.0503,43.8938,7.7438,10.0875,,0.027575999999999823,0.34912794216447357,0.28749953704567593,non_fall
7.593451,-0.291,-0.1814,-0.0656,-0.2593,-0.0738,-0.0503,43.8938,7.7438,10.0875,,0.03185600000000033,0.34912794216447357,0.29226347046071394,non_fall
7.595109,0.1924,0.0403,-0.076,-0.2593,-0.0738,-0.0503,43.8938,7.7438,10.0875,,0.0016579999999999373,0.2107554269763889,0.28579286476773774,non_fall
7.596341,0.1924,0.0403,-0.076,-0.1698,0.1265,0.0025,43.8938,7.7438,10.0875,,0.0012319999999998998,0.2107554269763889,0.27150816041024073,non_fall
7.622171,0.1924,0.0403,-0.076,-0.1698,0.1265,0.0025,43.9125,7.5938,10.2563,,0.02583000000000002,0.2107554269763889,0.25350834043365156,non_fall
7.658253,0.1924,0.0403,-0.076,-0.1336,0.1467,-0.0073,43.9125,7.5938,10.2563,,0.03608200000000039,0.2107554269763889,0.23551014984516305,non_fall
7.659587,0.1924,0.0403,-0.076,-0.1336,0.1467,-0.0073,43.9125,7.5938,10.2563,,0.0013339999999999463,0.2107554269763889,0.22008561798988957,non_fall
7.660787,-0.1819,0.0127,-0.0981,-0.1336,0.1467,-0.0073,43.9125,7.5938,10.2563,,0.0011999999999998678,0.20705677965234562,0.20833336854684248,non_fall
7.682391,-0.1819,0.0127,-0.0981,-0.1336,0.1467,-0.0073,43.95,7.4625,10.4062,,0.021603999999999957,0.20705677965234562,0.19997875317831607,non_fall
