time,ax,ay,az,wx,wy,wz,Bx,By,Bz,Unnamed: 10,time_diff,acc_mag,acc_mag_filtered,label
0.080983,0.0,0.0,0.0,0.0,0.0,0.0,0.0,0.0,0.0,,0.0,0.0,-6.15237095542311e-05,non_fall
0.08134,0.0,0.0,0.0,0.0117,0.0489,0.0353,0.0,0.0,0.0,,0.0003569999999999962,0.0,-0.00042071143546999285,non_fall
0.105317,0.0,0.0,0.0,0.0117,0.0489,0.0353,0.0,0.0,0.0,,0.023977,0.0,-0.0008778555037474271,non_fall
0.130992,0.0,0.0,0.0,0.0117,0.0489,0.0353,41.3625,21.225,19.575,,0.025675000000000003,0.0,-0.0014493403458854697,non_fall
0.16772,0.0,0.0,0.0,0.0117,0.0489,0.0353,41.3625,21.225,19.575,,0.03672800000000001,0.0,-0.0020563119418970663,non_fall
0.169788,0.0,0.0,0.0,0.0221,0.0184,0.015,41.3625,21.225,19.575,,0.0020679999999999865,0.0,-0.0025137662466672545,non_fall
0.192439,0.0,0.0,0.0,0.0221,0.0184,0.015,41.2313,20.8125,19.7812,,0.022651000000000004,0.0,-0.002549717562095694,non_fall
0.229642,0.0,0.0,0.0,0.0221,0.0184,0.015,41.2313,20.8125,19.7812,,0.037203000000000014,0.0,-0.001855096542332018,non_fall
0.232179,0.0,0.0,0.0,0.0394,-0.0242,0.0005,41.2313,20.8125,19.7812,,0.0025369999999999837,0.0,-0.00015796409805889718,non_fall
0.233279,0.0,0.0,0.0,0.0394,-0.0242,0.0005,41.2313,20.8125,19.7812,,0.0010999999999999899,0.0,0.002692203176232042,non_fall
0.250754,0.0,0.0,0.0,0.0394,-0.0242,0.0005,41.1562,20.8313,20.1188,,0.01747499999999999,0.0,0.00665130422059638,non_fall
0.289917,0.0,0.0,0.0,0.0394,-0.0242,0.0005,41.1562,20.8313,20.1188,,0.039163,0.0,0.011443008302164765,non_fall
0.291574,0.0,0.0,0.0,0.0341,-0.0108,0.0027,41.1562,20.8313,20.1188,,0.0016570000000000196,0.0,0.01657780031808561,non_fall
0.292718,-0.0326,0.0065,-0.0187,0.0341,-0.0108,0.0027,41.1562,20.8313,20.1188,,0.0011439999999999784,0.038140529624010204,0.02143628790762928,non_fall
0.313115,-0.0326,0.0065,-0.0187,0.0341,-0.0108,0.0027,41.0625,20.7375,20.1938,,0.020397,0.038140529624010204,0.025401539307884385,non_fall
0.352625,-0.0326,0.0065,-0.0187,0.0341,-0.0108,0.0027,41.0625,20.7375,20.1938,,0.039510000000000045,0.038140529624010204,0.02800177290462968,non_fall
0.35522,-0.0326,0.0065,-0.0187,0.026,-0.02,-0.0055,41.0625,20.7375,20.1938,,0.0025949999999999585,0.038140529624010204,0.02901550535640738,non_fall
0.357669,0.0103,0.0071,0.0148,0.026,-0.02,-0.0055,41.0625,20.7375,20.1938,,0.0024490000000000345,0.019378854455307726,0.028504880624720313,non_fall
0.371769,0.0103,0.0071,0.0148,0.026,-0.02,-0.0055,41.1188,20.55,20.25,,0.014100000000000001,0.019378854455307726,0.02677242907784496,non_fall
0.410202,0.0103,0.0071,0.0148,0.0206,0.0009,0.0009,41.1188,20.55,20.25,,0.038432999999999995,0.019378854455307726,0.02426501090102407,non_fall
0.413364,0.0103,0.0071,0.0148,0.0206,0.0009,0.0009,41.1188,20.55,20.25,,0.003161999999999998,0.019378854455307726,0.02146224354937891,non_fall
0.430541,0.0103,0.0071,0.0148,0.0206,0.0009,0.0009,41.325,20.4938,20.3813,,0.017176999999999998,0.019378854455307726,0.018782414950578,non_fall
0.433255,-0.0046,0.0077,0.0127,0.0206,0.0009,0.0009,41.325,20.4938,20.3813,,0.002713999999999994,0.015547990223819926,0.016524067933808565,non_fall
0.472868,-0.0046,0.0077,0.0127,0.0234,-0.0108,0.002,41.325,20.4938,20.3813,,0.03961300000000001,0.015547990223819926,0.014846211640964613,non_fall
0.474292,-0.0046,0.0077,0.0127,0.0234,-0.0108,0.002,41.325,20.4938,20.3813,,0.0014239999999999808,0.015547990223819926,0.013780160271073214,non_fall
0.492639,-0.0046,0.0077,0.0127,0.0234,-0.0108,0.002,41.475,20.4188,20.4,,0.018347000000000002,0.015547990223819926,0.013261608160302273,non_fall
0.49407,0.006,-0.0007,0.0114,0.0234,-0.0108,0.002,41.475,20.4188,20.4,,0.0014310000000000156,0.012901550294441363,0.013171066011198416,non_fall
0.531712,0.006,-0.0007,0.0114,0.0234,-0.0108,0.002,41.475,20.4188,20.4,,0.03764199999999995,0.012901550294441363,0.013372989157305233,non_fall
0.532869,0.006,-0.0007,0.0114,0.0174,-0.0125,-0.0031,41.475,20.4188,20.4,,0.0011570000000000746,0.012901550294441363,0.013747668448481307,non_fall
0.550941,0.006,-0.0007,0.0114,0.0174,-0.0125,-0.0031,41.7375,20.4563,20.4563,,0.018071999999999977,0.012901550294441363,0.01421341210521701,non_fall
0.553149,-0.0067,-0.0039,0.0161,0.0174,-0.0125,-0.0031,41.7375,20.4563,20.4563,,0.0022079999999999878,0.01786924732606273,0.014738103678661022,non_fall
0.593345,-0.0067,-0.0039,0.0161,0.0198,-0.0044,0.002,41.7375,20.4563,20.4563,,0.04019600000000001,0.01786924732606273,0.015338842315392755,non_fall
0.5954,-0.0067,-0.0039,0.0161,0.0198,-0.0044,0.002,41.7375,20.4563,20.4563,,0.002055000000000029,0.01786924732606273,0.016067829364743432,non_fall
0.613672,-0.0067,-0.0039,0.0161,0.0198,-0.0044,0.002,41.7938,20.3813,20.625,,0.018271999999999955,0.01786924732606273,0.0169842715070975,non_fall
0.616726,0.0022,0.0047,0.0142,0.0198,-0.0044,0.002,41.7938,20.3813,20.625,,0.003054000000000001,0.015118531674736143,0.018116691653743935,non_fall
0.65328,0.0022,0.0047,0.0142,0.0198,-0.0044,0.002,41.7938,20.3813,20.625,,0.036553999999999975,0.015118531674736143,0.019426007967132584,non_fall
0.655266,0.0022,0.0047,0.0142,0.0145,-0.0158,-0.0063,41.7938,20.3813,20.625,,0.0019860000000000433,0.015118531674736143,0.020783706643596356,non_fall
0.671863,0.0022,0.0047,0.0142,0.0145,-0.0158,-0.0063,41.9062,20.475,20.6625,,0.016596999999999973,0.015118531674736143,0.021978209427548596,non_fall
0.697271,-0.0234,0.0001,0.0171,0.0145,-0.0158,-0.0063,41.9062,20.475,20.6625,,0.025407999999999986,0.028982408457545416,0.02275466866446882,non_fall
0.714725,-0.0234,0.0001,0.0171,0.0145,-0.0158,-0.0063,41.9062,20.475,20.6625,,0.01745400000000008,0.028982408457545416,0.02288046435568706,non_fall
0.715991,-0.0234,0.0001,0.0171,0.018,-0.0065,-0.0033,41.9062,20.475,20.6625,,0.0012659999999999894,0.028982408457545416,0.022215926185119698,non_fall
0.732885,-0.0234,0.0001,0.0171,0.018,-0.0065,-0.0033,42.0188,20.4375,20.625,,0.016893999999999965,0.028982408457545416,0.02076452101272204,non_fall
0.754643,-0.0019,-0.0017,0.011,0.018,-0.0065,-0.0033,42.0188,20.4375,20.625,,0.021757999999999944,0.011291589790636214,0.018683294487445917,non_fall
0.776844,-0.0019,-0.0017,0.011,0.0116,-0.0091,-0.0069,42.0188,20.4375,20.625,,0.022201000000000026,0.011291589790636214,0.016250226146233823,non_fall
0.779376,-0.0019,-0.0017,0.011,0.0116,-0.0091,-0.0069,42.0188,20.4375,20.625,,0.0025319999999999787,0.011291589790636214,0.013801927123204227,non_fall
0.792407,-0.0019,-0.0017,0.011,0.0116,-0.0091,-0.0069,42.1688,20.4,20.6438,,0.013031000000000015,0.011291589790636214,0.011663856764762816,non_fall
0.815461,-0.0057,0.001,0.0078,0.0116,-0.0091,-0.0069,42.1688,20.4,20.6438,,0.02305400000000002,0.009712363255150623,0.010092821831950588,non_fall
0.837554,-0.0057,0.001,0.0078,0.0039,-0.0087,-0.0055,42.1688,20.4,20.6438,,0.02209300000000003,0.009712363255150623,0.00924234062034997,non_fall
0.839747,-0.0057,0.001,0.0078,0.0039,-0.0087,-0.0055,42.1688,20.4,20.6438,,0.0021930000000000005,0.009712363255150623,0.009152408816029233,non_fall
0.850547,-0.0057,0.001,0.0078,0.0039,-0.0087,-0.0055,42.2625,20.4563,20.7938,,0.010800000000000032,0.009712363255150623,0.009759907770246051,non_fall
0.898532,-0.0057,0.001,0.0078,-0.0087,0.0044,-0.0065,42.2625,20.4563,20.7938,,0.047984999999999944,0.009712363255150623,0.01092406600175927,non_fall
0.901061,-0.0057,0.001,0.0078,-0.0087,0.0044,-0.0065,42.2625,20.4563,20.7938,,0.0025290000000000035,0.009712363255150623,0.012461292297900722,non_fall
0.901893,0.0095,0.002,0.0161,-0.0087,0.0044,-0.0065,42.2625,20.4563,20.7938,,0.0008319999999999439,0.018800531907369005,0.014183631310447007,non_fall
0.910657,0.0095,0.002,0.0161,-0.0087,0.0044,-0.0065,42.2063,20.6625,20.6625,,0.008764000000000105,0.018800531907369005,0.01593410349611149,non_fall
0.960705,0.0095,0.002,0.0161,-0.0136,0.0031,-0.0112,42.2063,20.6625,20.6625,,0.05004799999999998,0.018800531907369005,0.01761117691552604,non_fall
0.962906,0.0095,0.002,0.0161,-0.0136,0.0031,-0.0112,42.2063,20.6625,20.6625,,0.0022010000000000085,0.018800531907369005,0.019175960922946086,non_fall
0.964165,-0.0075,-0.0035,0.0189,-0.0136,0.0031,-0.0112,42.2063,20.6625,20.6625,,0.0012590000000000101,0.020632740971572344,0.020640510779803868,non_fall
0.970761,-0.0075,-0.0035,0.0189,-0.0136,0.0031,-0.0112,42.075,20.6625,20.7563,,0.006595999999999935,0.020632740971572344,0.022041913700633423,non_fall
1.02105,-0.0075,-0.0035,0.0189,-0.0228,0.0055,-0.0084,42.075,20.6625,20.7563,,0.05028900000000003,0.020632740971572344,0.023411452967727293,non_fall
1.024081,-0.0075,-0.0035,0.0189,-0.0228,0.0055,-0.0084,42.075,20.6625,20.7563,,0.003031000000000006,0.020632740971572344,0.024749448793996466,non_fall
1.025289,-0.0087,-0.0061,0.0263,-0.0228,0.0055,-0.0084,42.075,20.6625,20.7563,,0.0012079999999998758,0.02836529569738345,0.026014197704824375,non_fall
1.031679,-0.0087,-0.0061,0.0263,-0.0228,0.0055,-0.0084,41.8125,20.5688,20.7188,,0.006390000000000118,0.02836529569738345,0.02712831359173503,non_fall
1.080166,-0.0087,-0.0061,0.0263,-0.0228,0.0055,-0.0084,41.8125,20.5688,20.7188,,0.04848699999999995,0.02836529569738345,0.027999451044935852,non_fall
1.081733,-0.0087,-0.0061,0.0263,-0.0249,0.0016,-0.0108,41.8125,20.5688,20.7188,,0.001567000000000096,0.02836529569738345,0.02854776427740447,non_fall
1.082798,-0.0026,-0.0016,0.0297,-0.0249,0.0016,-0.0108,41.8125,20.5688,20.7188,,0.0010649999999998716,0.0298564900817226,0.028731339218595605,non_fall
1.092237,-0.0026,-0.0016,0.0297,-0.0249,0.0016,-0.0108,41.8313,20.7,20.6063,,0.009438999999999975,0.0298564900817226,0.028562380849057833,non_fall
1.143448,-0.0026,-0.0016,0.0297,-0.0249,0.0016,-0.0108,41.8313,20.7,20.6063,,0.05121100000000012,0.0298564900817226,0.028109267220558586,non_fall
1.146051,-0.0026,-0.0016,0.0297,-0.0345,0.0154,-0.0052,41.8313,20.7,20.6063,,0.002602999999999911,0.0298564900817226,0.027482120601888198,non_fall
1.152634,-0.0026,-0.0016,0.0297,-0.0345,0.0154,-0.0052,41.775,20.55,20.625,,0.0065830000000000055,0.0298564900817226,0.02680299461257439,non_fall
1.160394,-0.0171,0.0083,0.0055,-0.0345,0.0154,-0.0052,41.775,20.55,20.625,,0.007759999999999989,0.019787622393809722,0.026166703464421202,non_fall
1.201787,-0.0171,0.0083,0.0055,-0.0164,-0.0112,-0.0201,41.775,20.55,20.625,,0.04139300000000001,0.019787622393809722,0.025604008119837686,non_fall
1.203939,-0.0171,0.0083,0.0055,-0.0164,-0.0112,-0.0201,41.775,20.55,20.625,,0.002152000000000154,0.019787622393809722,0.0250625462318621,non_fall
1.210699,-0.0171,0.0083,0.0055,-0.0164,-0.0112,-0.0201,41.7375,20.5688,20.7,,0.006759999999999877,0.019787622393809722,0.02441854242285531,non_fall
1.22142,-0.0001,-0.0215,0.0204,-0.0164,-0.0112,-0.0201,41.7375,20.5688,20.7,,0.01072099999999998,0.029638151089432012,0.02352206797488965,non_fall
1.262709,-0.0001,-0.0215,0.0204,-0.0253,0.014,-0.0063,41.7375,20.5688,20.7,,0.04128900000000013,0.029638151089432012,0.0222635164055841,non_fall
1.264906,-0.0001,-0.0215,0.0204,-0.0253,0.014,-0.0063,41.7375,20.5688,20.7,,0.0021970000000000045,0.029638151089432012,0.02063621248395132,non_fall
1.269509,-0.0001,-0.0215,0.0204,-0.0253,0.014,-0.0063,41.7563,20.55,20.7563,,0.004602999999999913,0.029638151089432012,0.0187671525758824,non_fall
1.282672,-0.0033,0.0002,0.0063,-0.0253,0.014,-0.0063,41.7563,20.55,20.7563,,0.013163000000000036,0.007114773362518303,0.01689832217932727,non_fall
1.322761,-0.0033,0.0002,0.0063,-0.0125,0.0055,-0.0116,41.7563,20.55,20.7563,,0.04008900000000004,0.007114773362518303,0.01532167148380003,non_fall
1.324589,-0.0033,0.0002,0.0063,-0.0125,0.0055,-0.0116,41.7563,20.55,20.7563,,0.0018279999999999408,0.007114773362518303,0.014291920428633696,non_fall
1.330655,-0.0033,0.0002,0.0063,-0.0125,0.0055,-0.0116,41.7,20.7375,20.6438,,0.006065999999999905,0.007114773362518303,0.013951276424531492,non_fall
1.365485,-0.006,-0.0143,0.0121,-0.0125,0.0055,-0.0116,41.7,20.7375,20.6438,,0.03483000000000014,0.019669773765857095,0.014293253713335032,non_fall
1.384748,-0.006,-0.0143,0.0121,-0.0036,0.0087,0.0016,41.7,20.7375,20.6438,,0.01926300000000003,0.019669773765857095,0.015173893316257465,non_fall
1.386069,-0.006,-0.0143,0.0121,-0.0036,0.0087,0.0016,41.7,20.7375,20.6438,,0.0013209999999999056,0.019669773765857095,0.016359078289571942,non_fall
1.391503,-0.006,-0.0143,0.0121,-0.0036,0.0087,0.0016,41.5875,20.475,20.7563,,0.005433999999999939,0.019669773765857095,0.017586018634569545,non_fall
1.4278,0.0127,-0.0097,0.009,-0.0036,0.0087,0.0016,41.5875,20.475,20.7563,,0.036297000000000024,0.018340665200586373,0.01861812698868515,non_fall
1.44509,0.0127,-0.0097,0.009,-0.0004,-0.0012,-0.0055,41.5875,20.475,20.7563,,0.017290000000000028,0.018340665200586373,0.019281320677849555,non_fall
1.446333,0.0127,-0.0097,0.009,-0.0004,-0.0012,-0.0055,41.5875,20.475,20.7563,,0.0012430000000001051,0.018340665200586373,0.01947967545830463,non_fall
1.45188,0.0127,-0.0097,0.009,-0.0004,-0.0012,-0.0055,41.625,20.55,20.6813,,0.005546999999999969,0.018340665200586373,0.019194849148878233,non_fall
1.486733,-0.0134,0.0072,-0.0093,-0.0004,-0.0012,-0.0055,41.625,20.55,20.6813,,0.03485300000000002,0.0178294699865139,0.018475741494819915,non_fall
1.508129,-0.0134,0.0072,-0.0093,0.0105,-0.0052,-0.0016,41.625,20.55,20.6813,,0.02139599999999997,0.0178294699865139,0.017423613515573547,non_fall
1.509854,-0.0134,0.0072,-0.0093,0.0105,-0.0052,-0.0016,41.625,20.55,20.6813,,0.0017249999999999766,0.0178294699865139,0.01617522430822374,non_fall
1.513902,-0.0134,0.0072,-0.0093,0.0105,-0.0052,-0.0016,41.5875,20.55,20.8125,,0.0040480000000000516,0.0178294699865139,0.014884209269856648,non_fall
1.54611,0.0042,-0.0084,-0.0058,0.0105,-0.0052,-0.0016,41.5875,20.55,20.8125,,0.032208000000000014,0.011038115781237302,0.013700293922452318,non_fall
1.569312,0.0042,-0.0084,-0.0058,0.0105,-0.0052,-0.0016,41.5875,20.55,20.8125,,0.023201999999999945,0.011038115781237302,0.012747560405906636,non_fall
1.571586,0.0042,-0.0084,-0.0058,0.0148,-0.0037,-0.0009,41.5875,20.55,20.8125,,0.0022739999999998872,0.011038115781237302,0.012105750215260041,non_fall
1.573018,0.0042,-0.0084,-0.0058,0.0148,-0.0037,-0.0009,41.6438,20.5312,20.85,,0.0014320000000000999,0.011038115781237302,0.01180002652498297,non_fall
1.627761,0.0042,-0.0084,-0.0058,0.012,-0.0052,0.002,41.6438,20.5312,20.85,,0.054742999999999986,0.011038115781237302,0.011803075475355716,non_fall
1.629262,0.0042,-0.0084,-0.0058,0.012,-0.0052,0.002,41.6438,20.5312,20.85,,0.0015009999999999746,0.011038115781237302,0.012049588895086666,non_fall
1.630695,0.0017,-0.0057,-0.0147,0.012,-0.0052,0.002,41.6438,20.5312,20.85,,0.0014330000000000176,0.01585780564895408,0.012458926962438907,non_fall
1.632966,0.0017,-0.0057,-0.0147,0.012,-0.0052,0.002,41.7,20.6438,20.8125,,0.002270999999999912,0.01585780564895408,0.012958517771904337,non_fall
1.688907,0.0017,-0.0057,-0.0147,0.012,-0.0048,0.0052,41.7,20.6438,20.8125,,0.05594100000000002,0.01585780564895408,0.013499398226415084,non_fall
1.690871,0.0017,-0.0057,-0.0147,0.012,-0.0048,0.0052,41.7,20.6438,20.8125,,0.001964000000000077,0.01585780564895408,0.014057462026197773,non_fall
1.692,0.0041,-0.0028,-0.0099,0.012,-0.0048,0.0052,41.7,20.6438,20.8125,,0.0011289999999999356,0.011075197515168748,0.0146197449762191,non_fall
1.692866,0.0041,-0.0028,-0.0099,0.012,-0.0048,0.0052,41.7,20.5688,20.6813,,0.0008660000000000334,0.011075197515168748,0.015162550809590331,non_fall
1.750888,0.0041,-0.0028,-0.0099,0.013,0.0009,0.008,41.7,20.5688,20.6813,,0.05802200000000002,0.011075197515168748,0.015633781100561604,non_fall
1.753218,0.0041,-0.0028,-0.0099,0.013,0.0009,0.008,41.7,20.5688,20.6813,,0.0023299999999999432,0.011075197515168748,0.01595199709619692,non_fall
1.754453,0.0139,0.0076,-0.013,0.013,0.0009,0.008,41.7,20.5688,20.6813,,0.0012350000000000971,0.02049316959379393,0.016028185588697803,non_fall
1.756028,0.0139,0.0076,-0.013,0.013,0.0009,0.008,41.7375,20.6438,20.5688,,0.001574999999999882,0.02049316959379393,0.015804966862071466,non_fall
1.809891,0.0139,0.0076,-0.013,0.013,0.0009,0.008,41.7375,20.6438,20.5688,,0.053862999999999994,0.02049316959379393,0.01529716042441182,non_fall
1.810936,0.0139,0.0076,-0.013,0.0166,-0.0012,0.0095,41.7375,20.6438,20.5688,,0.0010450000000001847,0.02049316959379393,0.014613081198468054,non_fall
1.811846,0.0139,0.0076,-0.013,0.0166,-0.0012,0.0095,41.7563,20.5312,20.5312,,0.0009099999999999664,0.02049316959379393,0.01394089784689917,non_fall
1.831496,-0.0046,0.0004,0.0016,0.0166,-0.0012,0.0095,41.7563,20.5312,20.5312,,0.019649999999999945,0.004886716689148246,0.013497629114196268,non_fall
1.872607,-0.0046,0.0004,0.0016,0.0198,-0.0137,-0.0001,41.7563,20.5312,20.5312,,0.0411109999999999,0.004886716689148246,0.01345516424131762,non_fall
1.874777,-0.0046,0.0004,0.0016,0.0198,-0.0137,-0.0001,41.7563,20.5312,20.5312,,0.0021700000000000053,0.004886716689148246,0.013871120847125806,non_fall
1.875986,-0.0046,0.0004,0.0016,0.0198,-0.0137,-0.0001,41.8125,20.5875,20.5312,,0.0012090000000000156,0.004886716689148246,0.014654877872137505,non_fall
1.891975,-0.0007,0.0027,-0.0247,0.0198,-0.0137,-0.0001,41.8125,20.5875,20.5312,,0.01598900000000003,0.024856990968337257,0.015586984763703165,non_fall
1.932571,-0.0007,0.0027,-0.0247,0.0198,-0.0137,-0.0001,41.7375,20.475,20.5312,,0.040596000000000076,0.024856990968337257,0.016387494665630106,non_fall
1.933679,-0.0007,0.0027,-0.0247,0.0201,-0.0027,0.008,41.7375,20.475,20.5312,,0.0011079999999998869,0.024856990968337257,0.016806661716638336,non_fall
1.934494,-0.0007,0.0027,-0.0247,0.0201,-0.0027,0.008,41.7375,20.475,20.5312,,0.0008150000000000102,0.024856990968337257,0.016701731109820574,non_fall
1.952038,0.0043,0.0077,-0.0046,0.0201,-0.0027,0.008,41.7375,20.475,20.5312,,0.017544000000000004,0.009946858800646564,0.016071374435954734,non_fall
1.993739,0.0043,0.0077,-0.0046,0.0201,-0.0027,0.008,41.625,20.475,20.3813,,0.04170099999999999,0.009946858800646564,0.015039664327021146,non_fall
1.995713,0.0043,0.0077,-0.0046,0.0077,-0.0055,-0.0009,41.625,20.475,20.3813,,0.0019740000000001423,0.009946858800646564,0.013802820245530723,non_fall
1.99763,0.0043,0.0077,-0.0046,0.0077,-0.0055,-0.0009,41.625,20.475,20.3813,,0.0019169999999999465,0.009946858800646564,0.01256378452139514,non_fall
2.014933,0.0038,0.0064,-0.0083,0.0077,-0.0055,-0.0009,41.625,20.475,20.3813,,0.01730300000000007,0.011148542505637227,0.011478452113245448,non_fall
2.05181,0.0038,0.0064,-0.0083,0.0077,-0.0055,-0.0009,41.5875,20.3813,20.3063,,0.03687700000000005,0.011148542505637227,0.010627235933350236,non_fall
2.052974,0.0038,0.0064,-0.0083,0.0095,0.0009,0.0055,41.5875,20.3813,20.3063,,0.0011639999999997208,0.011148542505637227,0.010013828198793224,non_fall
2.053702,0.0038,0.0064,-0.0083,0.0095,0.0009,0.0055,41.5875,20.3813,20.3063,,0.0007280000000000619,0.011148542505637227,0.00958455001738574,non_fall
2.094092,0.0084,-0.0029,-0.0036,0.0095,0.0009,0.0055,41.5875,20.3813,20.3063,,0.040389999999999926,0.009588013350011564,0.00925799482057292,non_fall
2.110791,0.0084,-0.0029,-0.0036,0.0095,0.0009,0.0055,41.4563,20.3438,20.2688,,0.01669900000000002,0.009588013350011564,0.008954956736043093,non_fall
2.115851,0.0084,-0.0029,-0.0036,0.0063,-0.0001,0.002,41.4563,20.3438,20.2688,,0.0050600000000002865,0.009588013350011564,0.008621244757557265,non_fall
2.116847,0.0084,-0.0029,-0.0036,0.0063,-0.0001,0.002,41.4563,20.3438,20.2688,,0.0009959999999997748,0.009588013350011564,0.008239331683118268,non_fall
2.155717,-0.0043,-0.0001,0.0048,0.0063,-0.0001,0.002,41.4563,20.3438,20.2688,,0.03887000000000018,0.0064451532177288075,0.007827996239268045,non_fall
2.170953,-0.0043,-0.0001,0.0048,0.0063,-0.0001,0.002,41.4938,20.3438,20.2875,,0.015235999999999805,0.0064451532177288075,0.007431999959387544,non_fall
2.175785,-0.0043,-0.0001,0.0048,0.0063,-0.0001,0.002,41.4938,20.3438,20.2875,,0.0048319999999999474,0.0064451532177288075,0.007106109140669883,non_fall
2.176812,-0.0043,-0.0001,0.0048,0.0103,-0.0041,0.002,41.4938,20.3438,20.2875,,0.0010270000000001112,0.0064451532177288075,0.006898649693381755,non_fall
2.217594,0.0005,-0.0064,-0.0034,0.0103,-0.0041,0.002,41.4938,20.3438,20.2875,,0.040782000000000096,0.007264296249465601,0.006838815242478179,non_fall
2.232698,0.0005,-0.0064,-0.0034,0.0103,-0.0041,0.002,41.3625,20.2313,20.3063,,0.015104000000000006,0.007264296249465601,0.006929796295852182,non_fall
2.236839,0.0005,-0.0064,-0.0034,0.0024,-0.002,0.0001,41.3625,20.2313,20.3063,,0.004140999999999728,0.007264296249465601,0.0071477513116882,non_fall
2.238191,0.0005,-0.0064,-0.0034,0.0024,-0.002,0.0001,41.3625,20.2313,20.3063,,0.001352000000000242,0.007264296249465601,0.007445579234421994,non_fall
2.292026,0.0005,-0.0064,-0.0034,0.0024,-0.002,0.0001,41.3625,20.3438,20.1938,,0.053834999999999855,0.007264296249465601,0.007760403834963759,non_fall
2.295678,0.0005,-0.0064,-0.0034,0.0013,-0.0041,0.0016,41.3625,20.3438,20.1938,,0.0036520000000002106,0.007264296249465601,0.00802404774290033,non_fall
2.296162,0.0005,-0.0064,-0.0034,0.0013,-0.0041,0.0016,41.3625,20.3438,20.1938,,0.0004839999999997069,0.007264296249465601,0.008175825272578773,non_fall
2.296593,0.0029,0.009,-0.0015,0.0013,-0.0041,0.0016,41.3625,20.3438,20.1938,,0.00043100000000029226,0.009573922915921143,0.008176265490110756,non_fall
2.350779,0.0029,0.009,-0.0015,0.0013,-0.0041,0.0016,41.4,20.475,20.25,,0.05418600000000007,0.009573922915921143,0.008018996748612247,non_fall
2.358165,0.0029,0.009,-0.0015,-0.0012,0.0005,0.0023,41.4,20.475,20.25,,0.007385999999999893,0.009573922915921143,0.007736811932867679,non_fall
2.359344,0.0029,0.009,-0.0015,-0.0012,0.0005,0.0023,41.4,20.475,20.25,,0.0011790000000000411,0.009573922915921143,0.0073981851680032535,non_fall
2.360092,0.0022,0.0021,0.0033,-0.0012,0.0005,0.0023,41.4,20.475,20.25,,0.0007479999999997489,0.004487761134463375,0.007093079818744526,non_fall
2.411784,0.0022,0.0021,0.0033,-0.0012,0.0005,0.0023,41.6063,20.6063,20.2313,,0.05169200000000007,0.004487761134463375,0.006911234274536582,non_fall
2.421102,0.0022,0.0021,0.0033,-0.0047,-0.0009,-0.0012,41.6063,20.6063,20.2313,,0.009317999999999937,0.004487761134463375,0.006920139228098765,non_fall
2.422389,0.0022,0.0021,0.0033,-0.0047,-0.0009,-0.0012,41.6063,20.6063,20.2313,,0.0012870000000000381,0.004487761134463375,0.007150995391472948,non_fall
2.423349,-0.0015,-0.0032,0.0103,-0.0047,-0.0009,-0.0012,41.6063,20.6063,20.2313,,0.0009600000000000719,0.010889444430272833,0.007597747834210937,non_fall
2.471601,-0.0015,-0.0032,0.0103,-0.0047,-0.0009,-0.0012,41.7375,20.6625,20.325,,0.048252000000000184,0.010889444430272833,0.008228113844363491,non_fall
2.479765,-0.0015,-0.0032,0.0103,-0.0051,-0.0012,-0.0001,41.7375,20.6625,20.325,,0.008163999999999838,0.010889444430272833,0.008999734272343183,non_fall
2.480676,-0.0015,-0.0032,0.0103,-0.0051,-0.0012,-0.0001,41.7375,20.6625,20.325,,0.0009109999999998841,0.010889444430272833,0.009872604969233804,non_fall
2.481525,-0.0046,0.0071,0.0054,-0.0051,-0.0012,-0.0001,41.7375,20.6625,20.325,,0.0008490000000000997,0.010036433629531957,0.010811893457930193,non_fall
2.531863,-0.0046,0.0071,0.0054,-0.0051,-0.0012,-0.0001,41.6438,20.625,20.325,,0.050337999999999994,0.010036433629531957,0.01178113648113778,non_fall
2.541579,-0.0046,0.0071,0.0054,-0.0051,-0.0055,-0.0023,41.6438,20.625,20.325,,0.009716000000000058,0.010036433629531957,0.012731230996502666,non_fall
2.542922,-0.0046,0.0071,0.0054,-0.0051,-0.0055,-0.0023,41.6438,20.625,20.325,,0.001342999999999872,0.010036433629531957,0.013592951932714559,non_fall
2.56156,-0.0075,-0.0093,0.0123,-0.0051,-0.0055,-0.0023,41.6438,20.625,20.325,,0.018638000000000154,0.017147302994931883,0.01427898596071443,non_fall
2.592512,-0.0075,-0.0093,0.0123,-0.0051,-0.0055,-0.0023,41.6813,20.5875,20.3813,,0.03095200000000009,0.017147302994931883,0.014696405445566777,non_fall
2.602874,-0.0075,-0.0093,0.0123,-0.0051,-0.0055,-0.0023,41.6813,20.5875,20.3813,,0.01036199999999976,0.017147302994931883,0.014764699069098131,non_fall
2.603812,-0.0075,-0.0093,0.0123,0.0007,0.0005,0.002,41.6813,20.5875,20.3813,,0.0009380000000001054,0.017147302994931883,0.01443149190258485,non_fall
2.623267,0.0085,-0.0005,-0.0047,0.0007,0.0005,0.002,41.6813,20.5875,20.3813,,0.019454999999999778,0.009725739046468397,0.01368004617766373,non_fall
2.65265,0.0085,-0.0005,-0.0047,0.0007,0.0005,0.002,41.7,20.7,20.4938,,0.02938300000000016,0.009725739046468397,0.012528286438976974,non_fall
2.662857,0.0085,-0.0005,-0.0047,0.0013,0.0012,0.0012,41.7,20.7,20.4938,,0.010206999999999855,0.009725739046468397,0.01102454679298953,non_fall
2.664065,0.0085,-0.0005,-0.0047,0.0013,0.0012,0.0012,41.7,20.7,20.4938,,0.0012080000000000979,0.009725739046468397,0.009246734026105614,non_fall
2.683844,-0.0005,0.0032,-0.0056,0.0013,0.0012,0.0012,41.7,20.7,20.4938,,0.019779000000000213,0.006469157595854347,0.00730827886092857,non_fall
2.712459,-0.0005,0.0032,-0.0056,0.0013,0.0012,0.0012,41.7938,20.8688,20.4938,,0.028614999999999835,0.006469157595854347,0.005368585417874875,non_fall
2.724713,-0.0005,0.0032,-0.0056,-0.0001,-0.0023,-0.0012,41.7938,20.8688,20.4938,,0.012253999999999987,0.006469157595854347,0.0036409899064476035,non_fall
2.726069,-0.0005,0.0032,-0.0056,-0.0001,-0.0023,-0.0012,41.7938,20.8688,20.4938,,0.0013559999999999128,0.006469157595854347,0.002389238491494139,non_fall
2.767694,-0.0016,0.0015,0.0024,-0.0001,-0.0023,-0.0012,41.7938,20.8688,20.4938,,0.041625000000000245,0.0032511536414017717,0.0019046730671776282,non_fall
2.773276,-0.0016,0.0015,0.0024,-0.0001,-0.0023,-0.0012,41.8875,20.7375,20.55,,0.005581999999999976,0.0032511536414017717,0.0024609382451256673,non_fall
2.785396,-0.0016,0.0015,0.0024,-0.0001,-0.0023,-0.0012,41.8875,20.7375,20.55,,0.012119999999999909,0.0032511536414017717,0.004250525542040472,non_fall
2.78593,-0.0016,0.0015,0.0024,-0.0087,0.0048,-0.0037,41.8875,20.7375,20.55,,0.0005340000000000344,0.0032511536414017717,0.007315618812374348,non_fall
2.826917,0.0033,0.0119,-0.0007,-0.0087,0.0048,-0.0037,41.8875,20.7375,20.55,,0.040986999999999885,0.012368912644206038,0.011491507126188882,non_fall
2.83197,0.0033,0.0119,-0.0007,-0.0087,0.0048,-0.0037,41.9438,20.6813,20.4188,,0.005053000000000196,0.012368912644206038,0.016382330201992916,non_fall
2.846262,0.0033,0.0119,-0.0007,-0.0434,0.0382,0.0005,41.9438,20.6813,20.4188,,0.01429199999999975,0.012368912644206038,0.02138602859175129,non_fall
2.84754,0.0033,0.0119,-0.0007,-0.0434,0.0382,0.0005,41.9438,20.6813,20.4188,,0.0012780000000001124,0.012368912644206038,0.025778718993259887,non_fall
2.887681,-0.0099,0.0241,0.0259,-0.0434,0.0382,0.0005,41.9438,20.6813,20.4188,,0.040141000000000204,0.036737310734456324,0.028857491581783093,non_fall
2.892251,-0.0099,0.0241,0.0259,-0.0434,0.0382,0.0005,41.775,20.5125,20.4563,,0.004569999999999741,0.036737310734456324,0.030123513177142215,non_fall
2.906794,-0.0099,0.0241,0.0259,-0.0846,0.1241,0.0214,41.775,20.5125,20.4563,,0.014543000000000195,0.036737310734456324,0.02946768565886902,non_fall
2.909537,-0.0099,0.0241,0.0259,-0.0846,0.1241,0.0214,41.775,20.5125,20.4563,,0.002742999999999718,0.036737310734456324,0.02730847531708899,non_fall
2.948334,0.0121,-0.0047,0.0285,-0.0846,0.1241,0.0214,41.775,20.5125,20.4563,,0.03879700000000019,0.0313169283295792,0.02463407263119878,non_fall
2.954329,0.0121,-0.0047,0.0285,-0.0846,0.1241,0.0214,41.775,20.5125,20.4563,,0.005994999999999973,0.0313169283295792,0.022918478356222925,non_fall
2.968256,0.0121,-0.0047,0.0285,-0.0846,0.1241,0.0214,41.775,20.5125,20.4563,,0.0139269999999998,0.0313169283295792,0.023907192110132272,non_fall
2.969075,0.0121,-0.0047,0.0285,-0.1278,-0.0065,-0.0286,41.775,20.5125,20.4563,,0.0008190000000003472,0.0313169283295792,0.029297191218249873,non_fall
3.012512,0.0121,-0.0047,0.0285,-0.1278,-0.0065,-0.0286,41.7,20.475,20.55,,0.04343699999999995,0.0313169283295792,0.04036449356886753,non_fall
3.028766,0.0121,-0.0047,0.0285,-0.2099,-0.0541,-0.0617,41.7,20.475,20.55,,0.01625399999999999,0.0313169283295792,0.057617066784098225,non_fall
3.030465,0.0121,-0.0047,0.0285,-0.2099,-0.0541,-0.0617,41.7,20.475,20.55,,0.001698999999999895,0.0313169283295792,0.0805634785140403,non_fall
3.031951,-0.116,0.0093,0.0641,-0.2099,-0.0541,-0.0617,41.7,20.475,20.55,,0.0014859999999998763,0.13285819508031863,0.10767654230283753,non_fall
3.072279,-0.116,0.0093,0.0641,-0.2099,-0.0541,-0.0617,41.775,20.3438,20.6625,,0.04032800000000014,0.13285819508031863,0.13658866783355927,non_fall
3.090271,-0.116,0.0093,0.0641,-0.2099,-0.0541,-0.0617,41.775,20.3438,20.6625,,0.017992000000000008,0.13285819508031863,0.1644918303413398,non_fall
3.092175,-0.0258,-0.0595,0.2299,-0.2099,-0.0541,-0.0617,41.775,20.3438,20.6625,,0.0019040000000001278,0.2388721415318245,0.18865555499896852,non_fall
3.093909,-0.0258,-0.0595,0.2299,-0.1144,0.0783,0.0321,41.775,20.3438,20.6625,,0.0017339999999999023,0.2388721415318245,0.20694009092448187,non_fall
3.134228,-0.0258,-0.0595,0.2299,-0.1144,0.0783,0.0321,41.9062,20.2313,20.7375,,0.04031899999999977,0.2388721415318245,0.2181740285659728,non_fall
3.151023,-0.0258,-0.0595,0.2299,-0.1144,0.0783,0.0321,41.9062,20.2313,20.7375,,0.016795000000000115,0.2388721415318245,0.2222913507821591,non_fall
3.15174,-0.0258,-0.0595,0.2299,0.0013,0.014,0.0133,41.9062,20.2313,20.7375,,0.0007170000000003007,0.2388721415318245,0.22018630284544347,non_fall
3.152156,0.1482,-0.051,-0.042,0.0013,0.014,0.0133,41.9062,20.2313,20.7375,,0.00041599999999997195,0.1622597916922119,0.2133309256537114,non_fall
3.193653,0.1482,-0.051,-0.042,0.0013,0.014,0.0133,41.85,20.0625,20.8875,,0.04149699999999967,0.1622597916922119,0.20327934500511438,non_fall
3.212954,0.1482,-0.051,-0.042,0.0827,0.0272,0.0329,41.85,20.0625,20.8875,,0.019301000000000013,0.1622597916922119,0.19122472552535183,non_fall
3.213804,0.1482,-0.051,-0.042,0.0827,0.0272,0.0329,41.85,20.0625,20.8875,,0.0008500000000002395,0.1622597916922119,0.17775812008140013,non_fall
3.214417,-0.0117,-0.0215,-0.1666,0.0827,0.0272,0.0329,41.85,20.0625,20.8875,,0.0006129999999999747,0.1683885388023781,0.16290353639681582,non_fall
3.253379,-0.0117,-0.0215,-0.1666,0.0827,0.0272,0.0329,41.775,19.95,21.2625,,0.03896199999999972,0.1683885388023781,0.14639993236254892,non_fall
3.273154,-0.0117,-0.0215,-0.1666,0.0791,-0.0097,0.0154,41.775,19.95,21.2625,,0.019775000000000098,0.1683885388023781,0.12811133393094826,non_fall
3.274999,-0.0117,-0.0215,-0.1666,0.0791,-0.0097,0.0154,41.775,19.95,21.2625,,0.0018450000000003186,0.1683885388023781,0.10840302619265434,non_fall
3.293668,0.0214,0.0034,-0.0521,0.0791,-0.0097,0.0154,41.775,19.95,21.2625,,0.018668999999999603,0.056426323644199965,0.08833842978611378,non_fall
3.312558,0.0214,0.0034,-0.0521,0.0791,-0.0097,0.0154,41.775,19.8938,21.3938,,0.018890000000000295,0.056426323644199965,0.06962196132603644,non_fall
3.334869,0.0214,0.0034,-0.0521,0.0791,-0.0097,0.0154,41.775,19.8938,21.3938,,0.022310999999999748,0.056426323644199965,0.054307501787997176,non_fall
3.337624,0.0214,0.0034,-0.0521,0.1053,-0.0001,0.0204,41.775,19.8938,21.3938,,0.002755000000000063,0.056426323644199965,0.044365206051494945,non_fall
3.354023,-0.0108,-0.0113,-0.0095,0.1053,-0.0001,0.0204,41.775,19.8938,21.3938,,0.016399000000000274,0.01829152809362848,0.04122627754291589,non_fall
3.374091,-0.0108,-0.0113,-0.0095,0.1053,-0.0001,0.0204,41.7,19.8938,21.5063,,0.020067999999999753,0.01829152809362848,0.04541884298356927,non_fall
3.395841,-0.0108,-0.0113,-0.0095,0.1053,-0.0001,0.0204,41.7,19.8938,21.5063,,0.021749999999999936,0.01829152809362848,0.05639062136877923,non_fall
3.39748,-0.0108,-0.0113,-0.0095,0.1639,0.0382,0.0577,41.7,19.8938,21.5063,,0.001638999999999946,0.01829152809362848,0.0725845957788807,non_fall
3.419376,0.0735,0.0103,-0.142,0.1639,0.0382,0.0577,41.7,19.8938,21.5063,,0.02189600000000036,0.16022590302444856,0.09177565722686513,non_fall
3.433615,0.0735,0.0103,-0.142,0.1639,0.0382,0.0577,41.7188,19.8938,21.5063,,0.01423899999999989,0.16022590302444856,0.11158942819366652,non_fall
3.458563,0.0735,0.0103,-0.142,0.2672,-0.0212,0.0414,41.7188,19.8938,21.5063,,0.024947999999999748,0.16022590302444856,0.13004455287391742,non_fall
3.460793,0.0735,0.0103,-0.142,0.2672,-0.0212,0.0414,41.7188,19.8938,21.5063,,0.0022299999999999542,0.16022590302444856,0.1459389413427363,non_fall
3.493947,0.0735,0.0103,-0.142,0.2672,-0.0212,0.0414,41.775,19.9313,21.6375,,0.03315400000000013,0.16022590302444856,0.15896117532938767,non_fall
3.496752,0.0073,-0.0268,-0.1471,0.2672,-0.0212,0.0414,41.775,19.9313,21.6375,,0.0028049999999999464,0.14969949899715765,0.16951808820646944,non_fall
3.517525,0.0073,-0.0268,-0.1471,0.3101,-0.0513,0.0459,41.775,19.9313,21.6375,,0.020773000000000152,0.14969949899715765,0.17837143360326765,non_fall
3.520549,0.0073,-0.0268,-0.1471,0.3101,-0.0513,0.0459,41.775,19.9313,21.6375,,0.0030239999999999156,0.14969949899715765,0.18623237581703062,non_fall
3.5508,0.0073,-0.0268,-0.1471,0.3101,-0.0513,0.0459,41.7938,20.1375,21.6188,,0.03025100000000025,0.14969949899715765,0.19346169013155043,non_fall
3.557906,0.0217,0.0288,-0.2313,0.3101,-0.0513,0.0459,41.7938,20.1375,21.6188,,0.007105999999999835,0.2340940409322715,0.19997104399713503,non_fall
3.576856,0.0217,0.0288,-0.2313,0.3254,-0.0506,0.064,41.7938,20.1375,21.6188,,0.0189499999999998,0.2340940409322715,0.20533386380440538,non_fall
3.580133,0.0217,0.0288,-0.2313,0.3254,-0.0506,0.064,41.7938,20.1375,21.6188,,0.0032770000000001964,0.2340940409322715,0.20902702704680384,non_fall
3.613245,0.0217,0.0288,-0.2313,0.3254,-0.0506,0.064,41.5688,20.175,21.4688,,0.03311200000000003,0.2340940409322715,0.2106785987635502,non_fall
3.620615,0.0424,0.0088,-0.191,0.3254,-0.0506,0.064,41.5688,20.175,21.4688,,0.007369999999999877,0.1958473895664683,0.21021376217036625,non_fall
3.636872,0.0424,0.0088,-0.191,0.3148,-0.0719,0.0583,41.5688,20.175,21.4688,,0.016256999999999966,0.1958473895664683,0.20785448485098534,non_fall
3.639352,0.0424,0.0088,-0.191,0.3148,-0.0719,0.0583,41.5688,20.175,21.4688,,0.0024800000000002598,0.1958473895664683,0.20399815683138744,forward_fall
3.672512,0.0424,0.0088,-0.191,0.3148,-0.0719,0.0583,41.6625,20.25,21.2812,,0.03316000000000008,0.1958473895664683,0.19904262002902617,forward_fall
3.679352,0.0334,0.0136,-0.178,0.3148,-0.0719,0.0583,41.6625,20.25,21.2812,,0.006839999999999957,0.1816164089502928,0.19322991933869943,forward_fall
3.701864,0.0334,0.0136,-0.178,0.2722,-0.0481,0.0779,41.6625,20.25,21.2812,,0.022511999999999865,0.1816164089502928,0.18656045914645966,forward_fall
3.703974,0.0334,0.0136,-0.178,0.2722,-0.0481,0.0779,41.6625,20.25,21.2812,,0.0021100000000000563,0.1816164089502928,0.17880022221019568,forward_fall
3.733925,0.0334,0.0136,-0.178,0.2722,-0.0481,0.0779,41.7938,20.4188,20.8313,,0.02995100000000006,0.1816164089502928,0.16957632263472344,forward_fall
3.759585,0.1042,0.0043,-0.0963,0.2722,-0.0481,0.0779,41.7938,20.4188,20.8313,,0.025659999999999794,0.14195006164140964,0.15853485704963083,forward_fall
3.762194,0.1042,0.0043,-0.0963,0.2338,0.0123,0.0943,41.7938,20.4188,20.8313,,0.0026090000000000835,0.14195006164140964,0.1455231856352619,forward_fall
3.764437,0.1042,0.0043,-0.0963,0.2338,0.0123,0.0943,41.7938,20.4188,20.8313,,0.002242999999999995,0.14195006164140964,0.1307551545823097,forward_fall
3.792677,0.1042,0.0043,-0.0963,0.2338,0.0123,0.0943,41.775,20.475,20.5125,,0.02823999999999982,0.14195006164140964,0.11491562100628977,forward_fall
3.821392,0.1042,0.0043,-0.0963,0.2338,0.0123,0.0943,41.775,20.475,20.5125,,0.028715000000000046,0.14195006164140964,0.09915936807554022,forward_fall
3.82348,0.0223,0.0159,-0.0476,0.2338,0.0123,0.0943,41.775,20.475,20.5125,,0.00208800000000009,0.054916846231370574,0.08497232252873184,forward_fall
3.825091,0.0223,0.0159,-0.0476,0.2087,-0.0009,0.0768,41.775,20.475,20.5125,,0.001611000000000029,0.054916846231370574,0.07390226861188046,forward_fall
3.851637,0.0223,0.0159,-0.0476,0.2087,-0.0009,0.0768,41.9625,20.4938,20.2125,,0.02654600000000018,0.054916846231370574,0.06722050947618494,forward_fall
3.883203,0.0223,0.0159,-0.0476,0.2641,-0.0097,0.0485,41.9625,20.4938,20.2125,,0.03156599999999976,0.054916846231370574,0.06561201443603867,forward_fall
3.885277,0.0223,0.0159,-0.0476,0.2641,-0.0097,0.0485,41.9625,20.4938,20.2125,,0.0020739999999999092,0.054916846231370574,0.06898611988416371,forward_fall
3.886163,-0.0336,0.0732,-0.0376,0.2641,-0.0097,0.0485,41.9625,20.4938,20.2125,,0.0008859999999999424,0.08888734443102685,0.07646050916111147,forward_fall
3.91347,-0.0336,0.0732,-0.0376,0.2641,-0.0097,0.0485,42.0563,20.4188,19.8938,,0.02730699999999997,0.08888734443102685,0.08652284389297296,forward_fall
3.943333,-0.0336,0.0732,-0.0376,0.2743,-0.0764,0.0165,42.0563,20.4188,19.8938,,0.029863000000000195,0.08888734443102685,0.09733623427138903,forward_fall
3.946412,-0.0336,0.0732,-0.0376,0.2743,-0.0764,0.0165,42.0563,20.4188,19.8938,,0.003079000000000054,0.08888734443102685,0.10713364656429787,forward_fall
3.961843,0.0155,0.0608,-0.1208,0.2743,-0.0764,0.0165,42.0563,20.4188,19.8938,,0.015430999999999973,0.1361232162417565,0.11463805838083069,forward_fall
3.973256,0.0155,0.0608,-0.1208,0.2743,-0.0764,0.0165,42.2438,20.325,19.5563,,0.011413000000000117,0.1361232162417565,0.11943890912513835,forward_fall
4.003882,0.0155,0.0608,-0.1208,0.2602,-0.085,-0.0023,42.2438,20.325,19.5563,,0.03062599999999982,0.1361232162417565,0.12224793413255343,forward_fall
4.006981,0.0155,0.0608,-0.1208,0.2602,-0.085,-0.0023,42.2438,20.325,19.5563,,0.003098999999999741,0.1361232162417565,0.12496031925652588,forward_fall
4.02284,-0.0915,-0.0997,-0.0669,0.2602,-0.085,-0.0023,42.2438,20.325,19.5563,,0.015859000000000734,0.15095678189468667,0.13047225527979264,forward_fall
4.031494,-0.0915,-0.0997,-0.0669,0.2602,-0.085,-0.0023,42.2812,20.3625,19.1063,,0.00865399999999994,0.15095678189468667,0.1422509326045107,forward_fall
4.066253,-0.0915,-0.0997,-0.0669,0.1816,0.018,0.0523,42.2812,20.3625,19.1063,,0.03475899999999932,0.15095678189468667,0.16370608482912338,forward_fall
4.069912,-0.0915,-0.0997,-0.0669,0.1816,0.018,0.0523,42.2812,20.3625,19.1063,,0.003659000000000745,0.15095678189468667,0.1974625117026598,forward_fall
4.085656,0.0608,-0.2838,0.0606,0.1816,0.018,0.0523,42.2812,20.3625,19.1063,,0.015743999999999758,0.2964986340609346,0.2446684977289162,forward_fall
4.093509,0.0608,-0.2838,0.0606,0.1816,0.018,0.0523,42.3938,20.4,18.675,,0.007852999999999888,0.2964986340609346,0.3044836805278867,forward_fall
4.126629,0.0608,-0.2838,0.0606,0.2549,-0.034,0.0811,42.3938,20.4,18.675,,0.03312000000000026,0.2964986340609346,0.37387488490258003,forward_fall
4.12965,0.0608,-0.2838,0.0606,0.2549,-0.034,0.0811,42.3938,20.4,18.675,,0.0030209999999994963,0.2964986340609346,0.4478242897165563,forward_fall
4.145627,-0.4891,-0.246,0.3305,0.2549,-0.034,0.0811,42.3938,20.4,18.675,,0.015977000000000352,0.6395037607395284,0.5200109401435274,forward_fall
4.150368,-0.4891,-0.246,0.3305,0.2549,-0.034,0.0811,42.375,20.4188,18.2812,,0.004741000000000106,0.6395037607395284,0.583929395485157,forward_fall
4.186554,-0.4891,-0.246,0.3305,0.4015,-0.2941,-0.0076,42.375,20.4188,18.2812,,0.03618599999999983,0.6395037607395284,0.6342699435329885,forward_fall
4.189921,-0.4891,-0.246,0.3305,0.4015,-0.2941,-0.0076,42.375,20.4188,18.2812,,0.003366999999999898,0.6395037607395284,0.6682889143067997,forward_fall
4.211651,-0.4891,-0.246,0.3305,0.4015,-0.2941,-0.0076,42.3188,20.3063,17.8125,,0.021729999999999805,0.6395037607395284,0.6869078136127582,forward_fall
4.22775,-0.1957,0.6665,-0.3565,0.4015,-0.2941,-0.0076,42.3188,20.3063,17.8125,,0.01609900000000053,0.780777170516659,0.6953522231787085,forward_fall
4.248064,-0.1957,0.6665,-0.3565,0.6101,0.3772,0.2582,42.3188,20.3063,17.8125,,0.020313999999999943,0.780777170516659,0.7031908012509885,forward_fall
4.250968,-0.1957,0.6665,-0.3565,0.6101,0.3772,0.2582,42.3188,20.3063,17.8125,,0.0029040000000000177,0.780777170516659,0.7236502176382568,forward_fall
4.272596,-0.1957,0.6665,-0.3565,0.6101,0.3772,0.2582,42.3188,20.2313,17.5125,,0.02162799999999976,0.780777170516659,0.7721289530787796,forward_fall
4.287873,0.9849,-0.1615,0.094,0.6101,0.3772,0.2582,42.3188,20.2313,17.5125,,0.015277000000000207,1.0024700793539925,0.8639618541984982,forward_fall
4.30791,0.9849,-0.1615,0.094,1.4348,0.4446,0.4218,42.3188,20.2313,17.5125,,0.020036999999999416,1.0024700793539925,1.0116815068535425,forward_fall
4.310561,0.9849,-0.1615,0.094,1.4348,0.4446,0.4218,42.3188,20.2313,17.5125,,0.002651000000000181,1.0024700793539925,1.2222342236478612,forward_fall
4.332294,0.9849,-0.1615,0.094,1.4348,0.4446,0.4218,42.4125,20.3438,16.9688,,0.021733000000000224,1.0024700793539925,1.4947828821897047,forward_fall
4.348493,-0.8237,-1.7527,1.3276,1.4348,0.4446,0.4218,42.4125,20.3438,16.9688,,0.016199000000000296,2.3479694929875046,1.819764236062408,forward_fall
4.370406,-0.8237,-1.7527,1.3276,2.6592,0.8661,0.7464,42.4125,20.3438,16.9688,,0.021912999999999627,2.3479694929875046,2.1796652277128166,forward_fall
4.372954,-0.8237,-1.7527,1.3276,2.6592,0.8661,0.7464,42.4125,20.3438,16.9688,,0.0025479999999999947,2.3479694929875046,2.551636748733732,forward_fall
4.392597,-0.8237,-1.7527,1.3276,2.6592,0.8661,0.7464,42.6375,20.1,16.35,,0.0196430000000003,2.3479694929875046,2.911860172041409,forward_fall
4.430216,-0.8237,-1.7527,1.3276,3.6593,0.2202,0.7843,42.6375,20.1,16.35,,0.0376189999999994,2.3479694929875046,3.2416060098270796,forward_fall
4.43351,-0.8237,-1.7527,1.3276,3.6593,0.2202,0.7843,42.6375,20.1,16.35,,0.003294000000000352,2.3479694929875046,3.534781076374249,forward_fall
4.435668,0.4534,-5.3031,2.9253,3.6593,0.2202,0.7843,42.6375,20.1,16.35,,0.00215799999999966,6.073369843834639,3.8059071287646775,forward_fall
4.450722,0.4534,-5.3031,2.9253,3.6593,0.2202,0.7843,42.5813,19.8938,15.3188,,0.015054000000000123,6.073369843834639,4.095921052245039,forward_fall
4.492639,-0.7382,-4.749,-2.5191,3.6593,0.2202,0.7843,42.5813,19.8938,15.3188,,0.04191699999999976,5.426214615180641,4.471948922875373,forward_fall
4.496346,-0.7382,-4.749,-2.5191,3.6593,0.2202,0.7843,42.5813,19.8938,15.3188,,0.003707000000000349,5.426214615180641,5.017794836434324,forward_fall
4.498152,-0.7382,-4.749,-2.5191,3.2638,-3.432,-0.2835,42.5813,19.8938,15.3188,,0.0018060000000001963,5.426214615180641,5.814868863310243,forward_fall
4.51176,-0.7382,-4.749,-2.5191,3.2638,-3.432,-0.2835,42.5625,19.5188,13.125,,0.01360799999999962,5.426214615180641,6.917466030273834,forward_fall
4.554407,-0.7382,-4.749,-2.5191,3.2638,-3.432,-0.2835,42.5625,19.5188,13.125,,0.042647000000000546,5.426214615180641,8.329658387636282,forward_fall
4.557979,-0.7382,-4.749,-2.5191,2.387,-0.2597,-0.2586,42.5625,19.5188,13.125,,0.0035719999999992424,5.426214615180641,9.991989305829929,forward_fall
4.560914,0.4595,-2.1036,-15.735,2.387,-0.2597,-0.2586,42.5625,19.5188,13.125,,0.002935000000000798,15.88164028713659,11.783853624953881,forward_fall
4.573632,0.4595,-2.1036,-15.735,2.387,-0.2597,-0.2586,42.375,19.425,10.3313,,0.012717999999999563,15.88164028713659,13.542146592317021,forward_fall
4.613597,0.4595,-2.1036,-15.735,3.6532,0.2913,-0.063,42.375,19.425,10.3313,,0.03996500000000047,15.88164028713659,15.090663290286614,forward_fall
4.615857,0.4595,-2.1036,-15.735,3.6532,0.2913,-0.063,42.375,19.425,10.3313,,0.0022599999999997067,15.88164028713659,16.271410385124167,forward_fall
4.616909,1.9521,2.2902,-16.3702,3.6532,0.2913,-0.063,42.375,19.425,10.3313,,0.0010519999999996088,16.64449333833866,16.97027539088839,forward_fall
4.632184,1.9521,2.2902,-16.3702,3.6532,0.2913,-0.063,42.2438,19.3313,7.2,,0.015274999999999928,16.64449333833866,17.133483759242747,forward_fall
4.675556,1.9521,2.2902,-16.3702,3.7352,-2.1919,-0.5852,42.2438,19.3313,7.2,,0.04337200000000063,16.64449333833866,16.774608160393107,forward_fall
4.677806,1.9521,2.2902,-16.3702,3.7352,-2.1919,-0.5852,42.2438,19.3313,7.2,,0.0022500000000000853,16.64449333833866,15.9730477687833,forward_fall
4.693925,1.9521,2.2902,-16.3702,3.7352,-2.1919,-0.5852,42.1125,19.2563,1.3313,,0.016118999999999772,16.64449333833866,14.864549075243536,forward_fall
4.696235,-4.9474,-1.2105,11.5458,3.7352,-2.1919,-0.5852,42.1125,19.2563,1.3313,,0.00230999999999959,12.619333367892299,13.623898971295814,forward_fall
4.733738,-4.9474,-1.2105,11.5458,1.9532,-2.1827,-0.9718,42.1125,19.2563,1.3313,,0.037503000000000064,12.619333367892299,12.440386201183582,forward_fall
4.736493,-4.9474,-1.2105,11.5458,1.9532,-2.1827,-0.9718,42.1125,19.2563,1.3313,,0.002755000000000507,12.619333367892299,11.488055905954013,forward_fall
4.751396,-4.9474,-1.2105,11.5458,1.9532,-2.1827,-0.9718,40.9875,19.275,-3.6938,,0.014902999999999444,12.619333367892299,10.894456326311179,forward_fall
4.75626,-2.8688,-4.9169,-4.9808,1.9532,-2.1827,-0.9718,40.9875,19.275,-3.6938,,0.0048640000000004235,7.564012671195099,10.713032358406114,forward_fall
4.796139,-2.8688,-4.9169,-4.9808,-1.0342,3.8878,1.9871,40.9875,19.275,-3.6938,,0.039879,7.564012671195099,10.905709956707788,forward_fall
4.799773,-2.8688,-4.9169,-4.9808,-1.0342,3.8878,1.9871,40.9875,19.275,-3.6938,,0.003633999999999915,7.564012671195099,11.343008113039007,forward_fall
4.8125,-2.8688,-4.9169,-4.9808,-1.0342,3.8878,1.9871,40.3313,18.8438,-7.425,,0.012726999999999933,7.564012671195099,11.827227335465963,forward_fall
4.813976,5.7447,15.8302,5.2492,-1.0342,3.8878,1.9871,40.3313,18.8438,-7.425,,0.0014760000000002549,17.639470251966184,12.13818531151391,forward_fall
4.856446,5.7447,15.8302,5.2492,-1.8263,-4.1906,-1.8241,40.3313,18.8438,-7.425,,0.042469999999999786,17.639470251966184,12.091643599945222,forward_fall
4.861017,5.7447,15.8302,5.2492,-1.8263,-4.1906,-1.8241,40.3313,18.8438,-7.425,,0.004571000000000325,17.639470251966184,11.592345275875331,forward_fall
4.872434,5.7447,15.8302,5.2492,-1.8263,-4.1906,-1.8241,39.2063,19.2188,-11.3063,,0.011416999999999788,17.639470251966184,10.661990413487565,forward_fall
4.89737,-2.0268,-0.26,-0.2995,-1.8263,-4.1906,-1.8241,39.2063,19.2188,-11.3063,,0.024935999999999403,2.065240540469802,9.430404989562877,forward_fall
4.917376,-2.0268,-0.26,-0.2995,0.4358,2.454,-0.4943,39.2063,19.2188,-11.3063,,0.020006000000000412,2.065240540469802,8.093050222863402,forward_fall
4.920209,-2.0268,-0.26,-0.2995,0.4358,2.454,-0.4943,39.2063,19.2188,-11.3063,,0.0028329999999998634,2.065240540469802,6.852456309762421,forward_fall
4.931744,-2.0268,-0.26,-0.2995,0.4358,2.454,-0.4943,38.1938,19.9875,-14.5313,,0.011535000000000295,2.065240540469802,5.867030011562381,forward_fall
4.95761,3.9134,7.4426,-1.8037,0.4358,2.454,-0.4943,38.1938,19.9875,-14.5313,,0.025865999999999723,8.600019070327694,5.224740102412737,forward_fall
4.977036,3.9134,7.4426,-1.8037,1.0003,4.1885,0.6971,38.1938,19.9875,-14.5313,,0.019426000000000165,8.600019070327694,4.9455221245353265,forward_fall
4.978578,3.9134,7.4426,-1.8037,1.0003,4.1885,0.6971,38.1938,19.9875,-14.5313,,0.0015419999999997103,8.600019070327694,5.002969596420424,forward_fall
4.992103,3.9134,7.4426,-1.8037,1.0003,4.1885,0.6971,37.5938,20.6063,-15.675,,0.013525000000000453,8.600019070327694,5.3495317852093605,forward_fall
5.019828,4.5282,0.1952,0.4454,1.0003,4.1885,0.6971,37.5938,20.6063,-15.675,,0.02772500000000022,4.554237525645759,5.931846218925417,forward_fall
5.038274,4.5282,0.1952,0.4454,-0.4246,0.4167,0.3059,37.5938,20.6063,-15.675,,0.018445999999999962,4.554237525645759,6.691266344531724,forward_fall
5.040576,4.5282,0.1952,0.4454,-0.4246,0.4167,0.3059,37.5938,20.6063,-15.675,,0.00230199999999936,4.554237525645759,7.554044171276963,forward_fall
5.051597,4.5282,0.1952,0.4454,-0.4246,0.4167,0.3059,37.4438,20.7563,-15.3938,,0.011021000000000392,4.554237525645759,8.421358301850935,forward_fall
5.081097,-8.1621,4.5353,5.3415,-0.4246,0.4167,0.3059,37.4438,20.7563,-15.3938,,0.029499999999999638,10.757343759032711,9.169170477200575,forward_fall
5.099273,-8.1621,4.5353,5.3415,-0.2252,-1.7078,-0.7461,37.4438,20.7563,-15.3938,,0.018176000000000414,10.757343759032711,9.662514474205022,forward_fall
5.101476,-8.1621,4.5353,5.3415,-0.2252,-1.7078,-0.7461,37.4438,20.7563,-15.3938,,0.002202999999999733,10.757343759032711,9.781453135314708,forward_fall
5.111072,-8.1621,4.5353,5.3415,-0.2252,-1.7078,-0.7461,37.2,21.15,-15.1313,,0.00959600000000016,10.757343759032711,9.450386098194299,forward_fall
5.162606,-8.1621,4.5353,5.3415,0.2242,-1.4749,-0.1499,37.2,21.15,-15.1313,,0.05153400000000019,10.757343759032711,8.660822026836062,forward_fall
5.166176,-8.1621,4.5353,5.3415,0.2242,-1.4749,-0.1499,37.2,21.15,-15.1313,,0.003569999999999851,10.757343759032711,7.479824245551987,forward_fall
5.168538,-2.7943,-0.2546,-0.2826,0.2242,-1.4749,-0.1499,37.2,21.15,-15.1313,,0.002361999999999753,2.8200702845851198,6.0406779495321645,forward_fall
5.173974,-2.7943,-0.2546,-0.2826,0.2242,-1.4749,-0.1499,37.0875,21.8625,-14.2688,,0.0054360000000004405,2.8200702845851198,4.517729714977129,forward_fall
5.222102,-2.7943,-0.2546,-0.2826,0.2242,-1.4749,-0.1499,37.0875,21.8625,-14.2688,,0.04812799999999928,2.8200702845851198,3.0923082043184933,forward_fall
5.225268,0.187,0.0633,-0.6489,0.2242,-1.4749,-0.1499,37.0875,21.8625,-14.2688,,0.003166000000000224,0.6782677200044243,1.9190031126999287,forward_fall
5.227866,0.187,0.0633,-0.6489,-0.0193,0.1667,0.0932,37.0875,21.8625,-14.2688,,0.002597999999999878,0.6782677200044243,1.1003321418782113,forward_fall
5.233308,0.187,0.0633,-0.6489,-0.0193,0.1667,0.0932,37.425,22.3313,-12.6375,,0.005442000000000391,0.6782677200044243,0.6742563970865783,forward_fall
5.281663,0.187,0.0633,-0.6489,-0.0164,0.116,-0.024,37.425,22.3313,-12.6375,,0.048354999999999926,0.6782677200044243,0.6152220939763435,forward_fall
5.283173,0.187,0.0633,-0.6489,-0.0164,0.116,-0.024,37.425,22.3313,-12.6375,,0.0015099999999996783,0.6782677200044243,0.8465340863244916,forward_fall
5.283584,2.2342,-0.1905,1.0025,-0.0164,0.116,-0.024,37.425,22.3313,-12.6375,,0.0004110000000006053,2.456205638785157,1.2600781933517344,forward_fall
5.291634,2.2342,-0.1905,1.0025,-0.0164,0.116,-0.024,37.2375,23.1188,-12.2813,,0.00804999999999989,2.456205638785157,1.7386318120411512,forward_fall
5.343819,2.2342,-0.1905,1.0025,0.1196,-0.2043,0.0581,37.2375,23.1188,-12.2813,,0.052184999999999704,2.456205638785157,2.176189243821163,forward_fall
5.345646,2.2342,-0.1905,1.0025,0.1196,-0.2043,0.0581,37.2375,23.1188,-12.2813,,0.0018270000000004671,2.456205638785157,2.4928536334048954,forward_fall
5.350738,2.2342,-0.1905,1.0025,0.1196,-0.2043,0.0581,37.5,23.475,-11.5312,,0.00509199999999943,2.456205638785157,2.642659715099714,forward_fall
5.361962,-1.0864,-2.0686,0.4551,0.1196,-0.2043,0.0581,37.5,23.475,-11.5312,,0.011224000000000345,2.380438390297048,2.6145437596423684,forward_fall
5.406023,-1.0864,-2.0686,0.4551,0.0099,0.1919,0.0148,37.5,23.475,-11.5312,,0.04406100000000013,2.380438390297048,2.4278948669915277,forward_fall
5.408027,-1.0864,-2.0686,0.4551,0.0099,0.1919,0.0148,37.5,23.475,-11.5312,,0.0020039999999994507,2.380438390297048,2.124496608626373,forward_fall
5.410961,-1.0864,-2.0686,0.4551,0.0099,0.1919,0.0148,37.7438,23.3438,-11.0438,,0.0029340000000006583,2.380438390297048,1.758490124754452,forward_fall
5.425192,0.4848,0.0292,0.1275,0.0099,0.1919,0.0148,37.7438,23.3438,-11.0438,,0.01423099999999966,0.502135370194134,1.3857501085579345,forward_fall
5.464139,0.4848,0.0292,0.1275,0.0099,0.1919,0.0148,37.7438,23.3438,-11.0438,,0.03894700000000029,0.502135370194134,1.0541012988819176,forward_fall
5.465388,0.4848,0.0292,0.1275,0.0411,0.3293,0.1184,37.7438,23.3438,-11.0438,,0.0012489999999996115,0.502135370194134,0.7959877271351202,forward_fall
5.475309,0.4848,0.0292,0.1275,0.0411,0.3293,0.1184,37.6875,23.3438,-11.325,,0.00992100000000029,0.502135370194134,0.6250167997972168,forward_fall
5.483704,0.5135,0.4757,0.4384,0.0411,0.3293,0.1184,37.6875,23.3438,-11.325,,0.008395000000000152,0.8259341983475439,0.5369134128871978,forward_fall
5.525042,0.5135,0.4757,0.4384,0.0411,0.3293,0.1184,37.6875,23.3438,-11.325,,0.04133799999999965,0.8259341983475439,0.5141548119197851,forward_fall
5.526936,0.5135,0.4757,0.4384,0.0017,0.2828,0.0743,37.6875,23.3438,-11.325,,0.0018940000000000623,0.8259341983475439,0.5325716749784639,forward_fall
5.529966,0.5135,0.4757,0.4384,0.0017,0.2828,0.0743,37.1813,23.7375,-12.5063,,0.003029999999999866,0.8259341983475439,0.5679149977986813,forward_fall
5.544968,0.1678,0.2995,0.4302,0.0017,0.2828,0.0743,37.1813,23.7375,-12.5063,,0.01500199999999996,0.5503899799233267,0.6007929576813428,forward_fall
5.585032,0.1678,0.2995,0.4302,-0.0125,0.0854,0.0158,37.1813,23.7375,-12.5063,,0.0400640000000001,0.5503899799233267,0.6191885728997252,forward_fall
5.587324,0.1678,0.2995,0.4302,-0.0125,0.0854,0.0158,37.1813,23.7375,-12.5063,,0.0022919999999997387,0.5503899799233267,0.6186106582664956,forward_fall
5.59053,0.1678,0.2995,0.4302,-0.0125,0.0854,0.0158,36.9,23.9062,-13.2,,0.0032060000000004862,0.5503899799233267,0.6005198006333492,forward_fall
5.625957,-0.309,-0.0661,0.3197,-0.0125,0.0854,0.0158,36.9,23.9062,-13.2,,0.03542699999999943,0.4495089543045833,0.5699010076124289,forward_fall
5.646554,-0.309,-0.0661,0.3197,-0.015,-0.0559,-0.0623,36.9,23.9062,-13.2,,0.02059700000000042,0.4495089543045833,0.5327954770347592,forward_fall
5.648447,-0.309,-0.0661,0.3197,-0.015,-0.0559,-0.0623,36.9,23.9062,-13.2,,0.0018929999999999225,0.4495089543045833,0.4943896326766198,non_fall
5.649531,-0.309,-0.0661,0.3197,-0.015,-0.0559,-0.0623,36.9938,23.8313,-13.4063,,0.0010839999999996408,0.4495089543045833,0.457982453676197,non_fall
5.688035,-0.2428,-0.2081,0.3303,-0.015,-0.0559,-0.0623,36.9938,23.8313,-13.4063,,0.03850400000000054,0.459734205818971,0.42486240596946867,non_fall
5.707173,-0.2428,-0.2081,0.3303,0.0152,-0.0438,-0.0414,36.9938,23.8313,-13.4063,,0.019137999999999877,0.459734205818971,0.394875308660483,non_fall
5.708673,-0.2428,-0.2081,0.3303,0.0152,-0.0438,-0.0414,36.9938,23.8313,-13.4063,,0.0015000000000000568,0.459734205818971,0.367309562487669,non_fall
5.71034,-0.2428,-0.2081,0.3303,0.0152,-0.0438,-0.0414,37.05,23.7938,-13.425,,0.0016670000000003071,0.459734205818971,0.34169832053979426,non_fall
5.747958,-0.1172,-0.104,0.1813,0.0152,-0.0438,-0.0414,37.05,23.7938,-13.425,,0.03761799999999926,0.23962789904349616,0.31824126072394254,non_fall
5.769093,-0.1172,-0.104,0.1813,0.0056,-0.0474,-0.0318,37.05,23.7938,-13.425,,0.021135000000000126,0.23962789904349616,0.2977487402440938,non_fall
5.771358,-0.1172,-0.104,0.1813,0.0056,-0.0474,-0.0318,37.05,23.7938,-13.425,,0.0022650000000004056,0.23962789904349616,0.2812297746209749,non_fall
5.772416,-0.1172,-0.104,0.1813,0.0056,-0.0474,-0.0318,37.1063,23.8875,-13.3875,,0.0010579999999995593,0.23962789904349616,0.26937959675795686,non_fall
5.829625,-0.1172,-0.104,0.1813,0.0052,-0.0487,-0.0063,37.1063,23.8875,-13.3875,,0.05720900000000029,0.23962789904349616,0.26221620524647665,non_fall
5.831905,-0.008,-0.0656,0.2716,0.0052,-0.0487,-0.0063,37.1063,23.8875,-13.3875,,0.0022799999999998377,0.27952445331312253,0.25900229485791226,non_fall
5.833313,-0.008,-0.0656,0.2716,0.0052,-0.0487,-0.0063,37.1063,23.8875,-13.3875,,0.00140800000000052,0.27952445331312253,0.25845005862818426,non_fall
5.834566,-0.008,-0.0656,0.2716,0.0052,-0.0487,-0.0063,36.9938,23.775,-13.2938,,0.0012529999999992825,0.27952445331312253,0.2591026383442888,non_fall
5.893354,-0.008,-0.0656,0.2716,0.0052,-0.0487,-0.0063,37.05,23.775,-13.275,,0.05878800000000073,0.27952445331312253,0.25974139034542565,non_fall
5.895165,-0.008,-0.0656,0.2716,-0.0087,0.0804,0.0059,37.05,23.775,-13.275,,0.001811000000000007,0.27952445331312253,0.25968104205722514,non_fall
5.896036,-0.008,-0.0656,0.2716,-0.0087,0.0804,0.0059,37.05,23.775,-13.275,,0.000870999999999178,0.27952445331312253,0.2588676029474668,non_fall
5.896846,-0.0259,0.1434,0.1803,-0.0087,0.0804,0.0059,37.05,23.775,-13.275,,0.0008100000000004215,0.23182420063487763,0.25776414394055974,non_fall
5.952613,-0.0259,0.1434,0.1803,0.0116,0.0979,0.03,37.05,23.775,-13.275,,0.055767000000000344,0.23182420063487763,0.2570789319483063,non_fall
5.954431,-0.0259,0.1434,0.1803,0.0116,0.0979,0.03,37.05,23.9625,-13.2563,,0.0018179999999992091,0.23182420063487763,0.2574413018897094,non_fall
5.955659,-0.0259,0.1434,0.1803,0.0116,0.0979,0.03,37.05,23.9625,-13.2563,,0.001228000000000229,0.23182420063487763,0.2591439372854375,non_fall
5.956513,0.2555,-0.012,0.1174,0.0116,0.0979,0.03,37.05,23.9625,-13.2563,,0.0008540000000003545,0.2814373997890117,0.2620370600072674,non_fall
6.015551,0.2555,-0.012,0.1174,0.0116,0.0979,0.03,37.275,23.775,-12.8813,,0.059038000000000146,0.2814373997890117,0.2655939654487471,non_fall
6.018725,-0.1417,-0.1215,0.2088,0.0116,0.0979,0.03,37.275,23.775,-12.8813,,0.003173999999999566,0.28006888438382443,0.26909972124734843,non_fall
6.020461,-0.1417,-0.1215,0.2088,0.0039,-0.0063,-0.0097,37.275,23.775,-12.8813,,0.0017360000000001818,0.28006888438382443,0.27187638938038655,non_fall
6.021831,-0.1417,-0.1215,0.2088,0.0039,-0.0063,-0.0097,37.275,23.775,-12.8813,,0.0013699999999996493,0.28006888438382443,0.2734603283892426,non_fall
6.074781,-0.1417,-0.1215,0.2088,0.0039,-0.0063,-0.0097,37.3313,23.7,-12.6563,,0.05295000000000005,0.28006888438382443,0.27367806495199154,non_fall
6.077995,-0.1417,-0.1215,0.2088,0.0039,-0.0063,-0.0097,37.3313,23.7,-12.6563,,0.003213999999999828,0.28006888438382443,0.2726062936066319,non_fall
6.079173,-0.1417,-0.1215,0.2088,0.0067,-0.1305,-0.0372,37.3313,23.7,-12.6563,,0.0011780000000003454,0.28006888438382443,0.27043653099201465,non_fall
6.094393,-0.1679,-0.0392,0.1559,0.0067,-0.1305,-0.0372,37.3313,23.7,-12.6563,,0.015220000000000233,0.23244754246926339,0.2672941255935538,non_fall
6.1321,-0.1679,-0.0392,0.1559,0.0067,-0.1305,-0.0372,37.35,23.6438,-12.5813,,0.03770700000000016,0.23244754246926339,0.2630838055807532,non_fall
6.1338,-0.1679,-0.0392,0.1559,0.0067,-0.1305,-0.0372,37.35,23.6438,-12.5813,,0.0016999999999995907,0.23244754246926339,0.25744035137807025,non_fall
6.134632,-0.1679,-0.0392,0.1559,-0.0012,-0.1169,-0.0372,37.35,23.6438,-12.5813,,0.0008319999999999439,0.23244754246926339,0.24983806019354798,non_fall
6.15451,-0.2121,0.0511,0.1638,-0.0012,-0.1169,-0.0372,37.35,23.6438,-12.5813,,0.019878000000000284,0.2728150655664016,0.2398515655020057,non_fall
6.193485,-0.2121,0.0511,0.1638,-0.0012,-0.1169,-0.0372,37.425,23.6063,-12.45,,0.03897499999999976,0.2728150655664016,0.2274820734178489,non_fall
6.196681,-0.2121,0.0511,0.1638,-0.0015,-0.0084,0.0027,37.425,23.6063,-12.45,,0.0031959999999999766,0.2728150655664016,0.2134044683472444,non_fall
6.197809,-0.2121,0.0511,0.1638,-0.0015,-0.0084,0.0027,37.425,23.6063,-12.45,,0.001128000000000462,0.2728150655664016,0.1989895711095079,non_fall
6.216065,0.0991,0.047,0.0165,-0.0015,-0.0084,0.0027,37.425,23.6063,-12.45,,0.01825600000000005,0.11091465187250961,0.18603041923781263,non_fall
6.253129,0.0991,0.047,0.0165,-0.0015,-0.0084,0.0027,37.4625,23.5312,-12.3375,,0.037063999999999986,0.11091465187250961,0.17623423834865623,non_fall
6.25578,0.0991,0.047,0.0165,0.0035,0.0996,0.0044,37.4625,23.5312,-12.3375,,0.002650999999999293,0.11091465187250961,0.17067273879543995,non_fall
6.256849,0.0991,0.047,0.0165,0.0035,0.0996,0.0044,37.4625,23.5312,-12.3375,,0.0010690000000002087,0.11091465187250961,0.1694339406755497,non_fall
6.297664,0.2096,-0.0319,0.0412,0.0035,0.0996,0.0044,37.4625,23.5312,-12.3375,,0.04081500000000027,0.2159796518193323,0.1716478466204078,non_fall
6.312082,0.2096,-0.0319,0.0412,0.0035,0.0996,0.0044,37.5,23.4563,-12.375,,0.014418000000000042,0.2159796518193323,0.1758997192523863,non_fall
6.317892,0.2096,-0.0319,0.0412,0.0297,0.1011,0.002,37.5,23.4563,-12.375,,0.005809999999999427,0.2159796518193323,0.1808833212012128,non_fall
6.320001,0.2096,-0.0319,0.0412,0.0297,0.1011,0.002,37.5,23.4563,-12.375,,0.0021090000000008047,0.2159796518193323,0.18605994882980034,non_fall
6.358534,0.0784,-0.0919,0.1668,0.0297,0.1011,0.002,37.5,23.4563,-12.375,,0.03853299999999926,0.20594759042047567,0.19210432178183273,non_fall
6.372048,0.0784,-0.0919,0.1668,0.0297,0.1011,0.002,37.575,23.4188,-12.1313,,0.013514000000000692,0.20594759042047567,0.20100700182092085,non_fall
6.377271,0.0784,-0.0919,0.1668,0.0273,-0.0698,-0.0406,37.575,23.4188,-12.1313,,0.005222999999999978,0.20594759042047567,0.215813425880419,non_fall
6.37854,0.0784,-0.0919,0.1668,0.0273,-0.0698,-0.0406,37.575,23.4188,-12.1313,,0.0012689999999997426,0.20594759042047567,0.2400719788800906,non_fall
6.420324,-0.29,-0.0584,0.1286,0.0273,-0.0698,-0.0406,37.575,23.4188,-12.1313,,0.04178399999999982,0.32256552822643647,0.27711890519430327,non_fall
6.433859,-0.29,-0.0584,0.1286,0.0273,-0.0698,-0.0406,37.5188,23.3063,-12.0188,,0.013535000000000075,0.32256552822643647,0.3293444544532894,non_fall
6.442456,-0.29,-0.0584,0.1286,0.0273,-0.0698,-0.0406,37.5188,23.3063,-12.0188,,0.008596999999999966,0.32256552822643647,0.3975770159578482,non_fall
6.444335,-0.29,-0.0584,0.1286,-0.0402,-0.4325,-0.1929,37.5188,23.3063,-12.0188,,0.001878999999999742,0.32256552822643647,0.48070632967081955,non_fall
6.481514,-0.629,-0.2896,0.3642,-0.0402,-0.4325,-0.1929,37.5188,23.3063,-12.0188,,0.03717900000000007,0.7824006646213946,0.5756302282700606,non_fall
6.492238,-0.629,-0.2896,0.3642,-0.0402,-0.4325,-0.1929,37.3313,23.4563,-12.3375,,0.010724000000000622,0.7824006646213946,0.677523644164849,non_fall
6.499566,-0.629,-0.2896,0.3642,0.0872,-0.7936,-0.2927,37.3313,23.4563,-12.3375,,0.007327999999999335,0.7824006646213946,0.7803276365780487,non_fall
6.501107,-0.629,-0.2896,0.3642,0.0872,-0.7936,-0.2927,37.3313,23.4563,-12.3375,,0.0015410000000004587,0.7824006646213946,0.8773459941353686,non_fall
6.550694,-0.629,-0.2896,0.3642,0.0872,-0.7936,-0.2927,36.9375,23.55,-12.9938,,0.049586999999999826,0.7824006646213946,0.9619619928270509,non_fall
6.560636,-0.629,-0.2896,0.3642,0.0872,-0.7936,-0.2927,36.9375,23.55,-12.9938,,0.009941999999999673,0.7824006646213946,1.0286299686847253,non_fall
6.561933,-0.8273,-0.5083,0.7858,0.0872,-0.7936,-0.2927,36.9375,23.55,-12.9938,,0.0012970000000001036,1.2491100111679516,1.0742717744035362,non_fall
6.56294,-0.8273,-0.5083,0.7858,0.3549,-0.6779,-0.2384,36.9375,23.55,-12.9938,,0.0010070000000004242,1.2491100111679516,1.0999508228222639,non_fall
6.612406,-0.8273,-0.5083,0.7858,0.3549,-0.6779,-0.2384,36.6,23.6438,-13.5563,,0.04946599999999979,1.2491100111679516,1.11233836584154,non_fall
6.626402,-0.8273,-0.5083,0.7858,0.6811,-0.0474,-0.2477,36.6,23.6438,-13.5563,,0.013995999999999675,1.2491100111679516,1.1242713151888433,non_fall
6.627761,0.1742,-0.4758,1.2415,0.6811,-0.0474,-0.2477,36.6,23.6438,-13.5563,,0.001358999999999888,1.340915183745788,1.1537896389755335,non_fall
6.62849,0.1742,-0.4758,1.2415,0.6811,-0.0474,-0.2477,36.6,23.6438,-13.5563,,0.0007290000000006458,1.340915183745788,1.2214028301733237,non_fall
6.673892,0.1742,-0.4758,1.2415,0.6811,-0.0474,-0.2477,36.0563,23.475,-14.4188,,0.045402000000000164,1.340915183745788,1.3458328461742757,non_fall
6.684833,0.1742,-0.4758,1.2415,1.3414,-0.5198,-0.232,36.0563,23.475,-14.4188,,0.010940999999999867,1.340915183745788,1.5390002959710194,non_fall
6.686234,0.1742,-0.4758,1.2415,1.3414,-0.5198,-0.232,36.0563,23.475,-14.4188,,0.0014009999999995415,1.340915183745788,1.801458881727474,non_fall
6.686997,0.565,-1.7476,1.0939,1.3414,-0.5198,-0.232,36.0563,23.475,-14.4188,,0.0007630000000000692,2.137743663304841,2.1196904071387124,non_fall
6.73403,0.565,-1.7476,1.0939,1.3414,-0.5198,-0.232,35.3813,23.2125,-15.6188,,0.04703299999999988,2.137743663304841,2.4665042855873516,non_fall
6.745223,0.565,-1.7476,1.0939,1.3414,-0.5198,-0.232,35.3813,23.2125,-15.6188,,0.011193000000000453,2.137743663304841,2.805230205523001,non_fall
6.746751,0.565,-1.7476,1.0939,1.4757,-1.0553,-0.5686,35.3813,23.2125,-15.6188,,0.0015279999999995297,2.137743663304841,3.0975569647242143,non_fall
6.76448,-1.0891,-4.081,2.097,1.4757,-1.0553,-0.5686,35.3813,23.2125,-15.6188,,0.017729000000000106,4.715729933955082,3.3137914313954213,non_fall
6.793112,-1.0891,-4.081,2.097,1.4757,-1.0553,-0.5686,34.575,22.8938,-17.1188,,0.02863199999999999,4.715729933955082,3.4430136486305924,non_fall
6.805016,-1.0891,-4.081,2.097,1.0529,-0.6956,-0.3932,34.575,22.8938,-17.1188,,0.011904000000000359,4.715729933955082,3.4995509407412233,non_fall
6.806338,-1.0891,-4.081,2.097,1.0529,-0.6956,-0.3932,34.575,22.8938,-17.1188,,0.0013220000000000454,4.715729933955082,3.5223553610385414,non_fall
6.828983,0.3445,-1.9104,-1.339,1.0529,-0.6956,-0.3932,34.575,22.8938,-17.1188,,0.022644999999999804,2.358225903089015,3.565879997473413,non_fall
6.852481,0.3445,-1.9104,-1.339,1.0529,-0.6956,-0.3932,33.3375,22.5563,-19.1063,,0.02349800000000002,2.358225903089015,3.6843673974789137,non_fall
6.86631,0.3445,-1.9104,-1.339,0.077,-0.4578,-0.1738,33.3375,22.5563,-19.1063,,0.013829000000000313,2.358225903089015,3.9145248291761447,non_fall
6.868312,0.3445,-1.9104,-1.339,0.077,-0.4578,-0.1738,33.3375,22.5563,-19.1063,,0.0020020000000000593,2.358225903089015,4.262714402966885,non_fall
6.887694,-1.1793,0.6808,-6.0583,0.077,-0.4578,-0.1738,33.3375,22.5563,-19.1063,,0.019381999999999344,6.2094473200116616,4.701261863869048,non_fall
6.913307,-1.1793,0.6808,-6.0583,0.077,-0.4578,-0.1738,32.2313,22.275,-20.9625,,0.025612999999999886,6.2094473200116616,5.1749078652054665,non_fall
6.926611,-1.1793,0.6808,-6.0583,-0.5348,-0.4798,-0.0148,32.2313,22.275,-20.9625,,0.013304000000000649,6.2094473200116616,5.614575120424417,non_fall
6.929423,-1.1793,0.6808,-6.0583,-0.5348,-0.4798,-0.0148,32.2313,22.275,-20.9625,,0.0028119999999995926,6.2094473200116616,5.953453679317373,non_fall
6.946896,-1.4652,4.3861,-4.0534,-0.5348,-0.4798,-0.0148,32.2313,22.275,-20.9625,,0.01747299999999985,6.1493687326424,6.140703300599261,non_fall
6.972733,-1.4652,4.3861,-4.0534,-0.5348,-0.4798,-0.0148,31.1063,21.9375,-22.575,,0.02583700000000011,6.1493687326424,6.149988567038593,non_fall
6.988741,-1.4652,4.3861,-4.0534,-0.4378,-0.2511,0.1734,31.1063,21.9375,-22.575,,0.016008000000000244,6.1493687326424,5.982117744063177,non_fall
6.991175,-1.4652,4.3861,-4.0534,-0.4378,-0.2511,0.1734,31.1063,21.9375,-22.575,,0.0024340000000000472,6.1493687326424,5.66241904245965,non_fall
7.028791,-0.5146,4.2795,-0.0116,-0.4378,-0.2511,0.1734,31.1063,21.9375,-22.575,,0.03761599999999987,4.310344298313071,5.234208639326496,non_fall
7.031966,-0.5146,4.2795,-0.0116,-0.4378,-0.2511,0.1734,30.1875,21.7875,-24.0375,,0.003174999999999706,4.310344298313071,4.750125039047325,non_fall
7.049486,-0.5146,4.2795,-0.0116,-0.3232,-0.4197,-0.1955,30.1875,21.7875,-24.0375,,0.017520000000000202,4.310344298313071,4.263288019485279,non_fall
7.05148,-0.5146,4.2795,-0.0116,-0.3232,-0.4197,-0.1955,30.1875,21.7875,-24.0375,,0.0019939999999998292,4.310344298313071,3.819954754190885,non_fall
7.090984,0.3411,1.2347,2.7819,-0.3232,-0.4197,-0.1955,30.1875,21.7875,-24.0375,,0.039503999999999984,3.062646063455586,3.4545736750931577,non_fall
7.094468,0.3411,1.2347,2.7819,-0.3232,-0.4197,-0.1955,29.0625,21.7875,-25.2563,,0.0034840000000002647,3.062646063455586,3.1873359411528384,non_fall
7.109106,0.3411,1.2347,2.7819,-0.1811,-0.4645,-0.5309,29.0625,21.7875,-25.2563,,0.014637999999999707,3.062646063455586,3.0239183149519766,non_fall
7.110858,0.3411,1.2347,2.7819,-0.1811,-0.4645,-0.5309,29.0625,21.7875,-25.2563,,0.001752000000000642,3.062646063455586,2.9570041934020175,non_fall
7.153044,0.736,-1.9221,2.3927,-0.1811,-0.4645,-0.5309,29.0625,21.7875,-25.2563,,0.04218600000000006,3.1561333463591175,2.9690524161453187,non_fall
7.156755,0.736,-1.9221,2.3927,-0.1811,-0.4645,-0.5309,27.8625,22.125,-26.4188,,0.00371100000000002,3.1561333463591175,3.035632510273122,non_fall
7.170469,0.736,-1.9221,2.3927,0.2466,-0.5934,-0.5416,27.8625,22.125,-26.4188,,0.013713999999999338,3.1561333463591175,3.1286578281023694,non_fall
7.173239,0.736,-1.9221,2.3927,0.2466,-0.5934,-0.5416,27.8625,22.125,-26.4188,,0.002769999999999939,3.1561333463591175,3.2191044485146274,non_fall
7.211755,0.736,-1.9221,2.3927,0.2466,-0.5934,-0.5416,26.6063,22.4625,-27.4125,,0.03851600000000044,3.1561333463591175,3.2791801705428547,non_fall
7.230665,0.736,-1.9221,2.3927,0.2466,-0.5934,-0.5416,26.6063,22.4625,-27.4125,,0.018909999999999982,3.1561333463591175,3.2842126242922975,non_fall
7.232279,0.736,-1.9221,2.3927,0.4686,-0.3736,-0.5447,26.6063,22.4625,-27.4125,,0.0016140000000000043,3.1561333463591175,3.214624629997066,non_fall
7.233307,0.7595,-1.9674,1.8812,0.4686,-0.3736,-0.5447,26.6063,22.4625,-27.4125,,0.0010279999999998068,2.826024849501504,3.058231542661318,non_fall
7.273936,0.7595,-1.9674,1.8812,0.4686,-0.3736,-0.5447,25.5188,23.1375,-28.1438,,0.040629000000000026,2.826024849501504,2.8127883262294873,non_fall
7.29388,0.7595,-1.9674,1.8812,0.4025,-0.4964,-0.6033,25.5188,23.1375,-28.1438,,0.01994399999999974,2.826024849501504,2.488322705418825,non_fall
7.296454,0.7595,-1.9674,1.8812,0.4025,-0.4964,-0.6033,25.5188,23.1375,-28.1438,,0.0025740000000000762,2.826024849501504,2.108431858792875,non_fall
7.297207,1.1416,-0.6535,-0.2196,0.4025,-0.4964,-0.6033,25.5188,23.1375,-28.1438,,0.0007530000000004478,1.3336180000284938,1.7095936083010697,non_fall
7.333968,1.1416,-0.6535,-0.2196,0.4025,-0.4964,-0.6033,24.225,23.7188,-28.8375,,0.03676099999999938,1.3336180000284938,1.337853812526033,non_fall
7.353643,1.1416,-0.6535,-0.2196,0.4025,-0.4964,-0.6033,24.225,23.7188,-28.8375,,0.01967500000000033,1.3336180000284938,1.0429458045915783,non_fall
7.356001,0.1649,-0.3128,-0.7167,0.4025,-0.4964,-0.6033,24.225,23.7188,-28.8375,,0.0023580000000000823,0.7991837961320287,0.8706136267981316,non_fall
7.357076,0.1649,-0.3128,-0.7167,-0.0846,-0.7715,-0.6549,24.225,23.7188,-28.8375,,0.0010750000000001592,0.7991837961320287,0.8543589571026287,non_fall
7.394374,0.1649,-0.3128,-0.7167,-0.0846,-0.7715,-0.6549,22.8938,24.0938,-29.475,,0.03729799999999983,0.7991837961320287,1.0080534589324674,non_fall
7.413577,0.1649,-0.3128,-0.7167,-0.3839,-0.2846,0.1348,22.8938,24.0938,-29.475,,0.01920300000000008,0.7991837961320287,1.3209748136876311,non_fall
7.416204,0.1649,-0.3128,-0.7167,-0.3839,-0.2846,0.1348,22.8938,24.0938,-29.475,,0.002626999999999491,0.7991837961320287,1.756748199216287,non_fall
7.41707,-1.6525,1.3352,-1.9635,-0.3839,-0.2846,0.1348,22.8938,24.0938,-29.475,,0.0008660000000002555,2.8928960472163534,2.2571828050343874,non_fall
7.455416,-1.6525,1.3352,-1.9635,-0.3839,-0.2846,0.1348,21.6,24.7313,-30.0,,0.03834599999999977,2.8928960472163534,2.7509900400086944,non_fall
7.475491,-1.6525,1.3352,-1.9635,-0.7438,-0.543,0.5273,21.6,24.7313,-30.0,,0.020075000000000287,2.8928960472163534,3.1661198495276097,non_fall
7.477096,-1.6525,1.3352,-1.9635,-0.7438,-0.543,0.5273,21.6,24.7313,-30.0,,0.0016050000000005227,2.8928960472163534,3.44348421541689,non_fall
7.494477,-3.5456,1.8851,-2.164,-0.7438,-0.543,0.5273,21.6,24.7313,-30.0,,0.017380999999999425,4.561554271298325,3.5494169358492242,non_fall
7.511442,-3.5456,1.8851,-2.164,-0.7438,-0.543,0.5273,20.3063,25.3313,-30.3938,,0.016964999999999897,4.561554271298325,3.4841128312719576,non_fall
7.534546,-3.5456,1.8851,-2.164,-0.4353,0.1944,0.6345,20.3063,25.3313,-30.3938,,0.023104000000000013,4.561554271298325,3.2833754609912678,non_fall
7.536173,-3.5456,1.8851,-2.164,-0.4353,0.1944,0.6345,20.3063,25.3313,-30.3938,,0.001627000000000045,4.561554271298325,3.011780190027945,non_fall
7.556553,-0.0369,0.4335,0.653,-0.4353,0.1944,0.6345,20.3063,25.3313,-30.3938,,0.020380000000000287,0.7846609841198937,2.747428709158216,non_fall
7.572664,-0.0369,0.4335,0.653,-0.4353,0.1944,0.6345,19.2563,25.8938,-30.8813,,0.016110999999999542,0.7846609841198937,2.56159096419732,non_fall
7.597038,-0.0369,0.4335,0.653,-0.402,0.4294,0.2072,19.2563,25.8938,-30.8813,,0.024374000000000784,0.7846609841198937,2.499315542196936,non_fall
7.599922,-0.0369,0.4335,0.653,-0.402,0.4294,0.2072,19.2563,25.8938,-30.8813,,0.0028839999999998867,0.7846609841198937,2.567716197414761,non_fall
7.616013,3.8782,-0.9213,1.5829,-0.402,0.4294,0.2072,19.2563,25.8938,-30.8813,,0.01609099999999941,4.288916103166393,2.7362094169923235,non_fall
7.633234,3.8782,-0.9213,1.5829,-0.402,0.4294,0.2072,18.7125,26.3625,-30.9375,,0.017221000000000153,4.288916103166393,2.948392444076423,non_fall
7.659449,3.8782,-0.9213,1.5829,-0.402,0.4294,0.2072,18.7125,26.3625,-30.9375,,0.026215000000000543,4.288916103166393,3.140760842586885,non_fall
7.661768,3.8782,-0.9213,1.5829,-0.3839,0.5124,0.3662,18.7125,26.3625,-30.9375,,0.00231899999999996,4.288916103166393,3.261258012433346,non_fall
7.694202,3.8782,-0.9213,1.5829,-0.3839,0.5124,0.3662,18.3938,26.9625,-30.675,,0.03243399999999941,4.288916103166393,3.2815476094014073,non_fall
7.697174,0.5686,0.9626,-1.6045,-0.3839,0.5124,0.3662,18.3938,26.9625,-30.675,,0.002972000000000641,1.95558813915405,3.200065581601099,non_fall
7.719593,0.5686,0.9626,-1.6045,-0.1144,0.2543,0.2015,18.3938,26.9625,-30.675,,0.0224189999999993,1.95558813915405,3.036697886833731,non_fall
7.72205,0.5686,0.9626,-1.6045,-0.1144,0.2543,0.2015,18.3938,26.9625,-30.675,,0.0024570000000005976,1.95558813915405,2.8228192651051205,non_fall
7.754045,0.5686,0.9626,-1.6045,-0.1144,0.2543,0.2015,18.3,27.2813,-30.3375,,0.03199499999999933,1.95558813915405,2.5913837300833156,non_fall
7.760044,0.5993,-1.1792,2.4845,-0.1144,0.2543,0.2015,18.3,27.2813,-30.3375,,0.005999000000000088,2.814678201855409,2.3705681196744433,non_fall
7.779877,0.5993,-1.1792,2.4845,0.1096,-0.0297,0.4581,18.3,27.2813,-30.3375,,0.01983300000000021,2.814678201855409,2.1819702214561763,non_fall
7.781657,0.5993,-1.1792,2.4845,0.1096,-0.0297,0.4581,18.3,27.2813,-30.3375,,0.0017800000000001148,2.814678201855409,2.041945996716426,non_fall
7.811597,0.5993,-1.1792,2.4845,0.1096,-0.0297,0.4581,18.8813,27.6563,-29.7,,0.029939999999999856,2.814678201855409,1.963454577192494,non_fall
7.819593,-1.1491,-0.5981,0.7456,0.1096,-0.0297,0.4581,18.8813,27.6563,-29.7,,0.007996000000000336,1.494681832364333,1.9561433233379126,non_fall
7.839508,-1.1491,-0.5981,0.7456,-0.0019,0.4883,0.0506,18.8813,27.6563,-29.7,,0.019915000000000127,1.494681832364333,2.0239674883540264,non_fall
7.841687,-1.1491,-0.5981,0.7456,-0.0019,0.4883,0.0506,18.8813,27.6563,-29.7,,0.002178999999999931,1.494681832364333,2.161489930395456,non_fall
7.874213,-1.1491,-0.5981,0.7456,-0.0019,0.4883,0.0506,19.7063,27.9938,-29.2125,,0.03252599999999983,1.494681832364333,2.3511334478115145,non_fall
7.885179,2.7582,0.1876,-1.3608,-0.0019,0.4883,0.0506,19.7063,27.9938,-29.2125,,0.01096599999999981,3.081336989035766,2.563479828952777,non_fall
7.901175,2.7582,0.1876,-1.3608,-0.0019,0.4883,0.0506,19.7063,27.9938,-29.2125,,0.015996000000000343,3.081336989035766,2.7613992768437563,non_fall
7.902855,2.7582,0.1876,-1.3608,0.0284,0.0059,0.1507,19.7063,27.9938,-29.2125,,0.0016799999999994597,3.081336989035766,2.907141050682394,non_fall
7.933559,2.7582,0.1876,-1.3608,0.0284,0.0059,0.1507,20.475,28.05,-28.6875,,0.030704000000000065,3.081336989035766,2.9704059207710514,non_fall
7.964351,2.7582,0.1876,-1.3608,-0.0597,-0.064,0.0694,20.475,28.05,-28.6875,,0.03079199999999993,3.081336989035766,2.9352555769446598,non_fall
7.967705,2.7582,0.1876,-1.3608,-0.0597,-0.064,0.0694,20.475,28.05,-28.6875,,0.003353999999999857,3.081336989035766,2.8042414972522316,non_fall
7.969096,-2.453,0.0137,0.89,-0.0597,-0.064,0.0694,20.475,28.05,-28.6875,,0.0013910000000008083,2.6095012339525727,2.5988655724698315,non_fall
7.992412,-2.453,0.0137,0.89,-0.0597,-0.064,0.0694,21.225,28.0125,-28.125,,0.02331599999999945,2.6095012339525727,2.3561619318871965,non_fall
8.023405,-2.453,0.0137,0.89,-0.0597,-0.064,0.0694,21.225,28.0125,-28.125,,0.030993000000000492,2.6095012339525727,2.12181773468649,non_fall
8.025544,1.2736,0.268,-0.5261,-0.0597,-0.064,0.0694,21.225,28.0125,-28.125,,0.002138999999999669,1.4038027532385027,1.940889717876768,non_fall
8.027658,1.2736,0.268,-0.5261,0.1891,-0.3076,0.3708,21.225,28.0125,-28.125,,0.0021140000000006154,1.4038027532385027,1.847827979786858,non_fall
8.052996,1.2736,0.268,-0.5261,0.1891,-0.3076,0.3708,21.9563,27.7688,-27.7688,,0.02533799999999964,1.4038027532385027,1.8580425352669814,non_fall
8.084043,1.2736,0.268,-0.5261,0.0915,-0.1904,0.4368,21.9563,27.7688,-27.7688,,0.03104699999999916,1.4038027532385027,1.9633111615893766,non_fall
8.086495,1.2736,0.268,-0.5261,0.0915,-0.1904,0.4368,21.9563,27.7688,-27.7688,,0.0024519999999998987,1.4038027532385027,2.1326561295132516,non_fall
8.088051,-2.8022,0.0263,1.2158,0.0915,-0.1904,0.4368,21.9563,27.7688,-27.7688,,0.001556000000000779,3.054699031001254,2.3189692915806868,non_fall
8.111488,-2.8022,0.0263,1.2158,0.0915,-0.1904,0.4368,22.575,27.3938,-27.675,,0.023436999999999486,3.054699031001254,2.4700058116940293,non_fall
8.144897,-2.8022,0.0263,1.2158,0.0688,0.669,0.4461,22.575,27.3938,-27.675,,0.03340900000000069,3.054699031001254,2.540956870639448,non_fall
8.148311,-2.8022,0.0263,1.2158,0.0688,0.669,0.4461,22.575,27.3938,-27.675,,0.003413999999999362,3.054699031001254,2.50526857113677,non_fall
8.165787,1.7711,0.5099,-0.9444,0.0688,0.669,0.4461,22.575,27.3938,-27.675,,0.01747600000000027,2.0709139479949425,2.360994523188606,non_fall
8.173086,1.7711,0.5099,-0.9444,0.0688,0.669,0.4461,23.2688,26.85,-27.675,,0.007298999999999722,2.0709139479949425,2.131419173237644,non_fall
8.205584,1.7711,0.5099,-0.9444,0.0688,0.669,0.4461,23.2688,26.85,-27.675,,0.03249800000000036,2.0709139479949425,1.8602374093158467,non_fall
8.208472,1.7711,0.5099,-0.9444,-0.0647,1.0009,0.6065,23.2688,26.85,-27.675,,0.0028880000000004458,2.0709139479949425,1.6026491950928963,non_fall
8.225591,-0.6871,0.3372,-0.0967,-0.0647,1.0009,0.6065,23.2688,26.85,-27.675,,0.017118999999999218,0.7714668755040621,1.4142555946009703,non_fall
8.23173,-0.6871,0.3372,-0.0967,-0.0647,1.0009,0.6065,24.075,26.3813,-27.525,,0.006139000000001005,0.7714668755040621,1.3399190032848123,non_fall
8.266573,-0.6871,0.3372,-0.0967,-0.44,0.9918,0.3523,24.075,26.3813,-27.525,,0.034842999999998625,0.7714668755040621,1.404914968333058,non_fall
8.27026,-0.6871,0.3372,-0.0967,-0.44,0.9918,0.3523,24.075,26.3813,-27.525,,0.003687000000001106,0.7714668755040621,1.610457250421988,non_fall
8.286172,2.2005,1.9044,-0.5271,-0.44,0.9918,0.3523,24.075,26.3813,-27.525,,0.015912000000000148,2.957494551136147,1.9346643658278753,non_fall
8.292312,2.2005,1.9044,-0.5271,-0.44,0.9918,0.3523,25.0125,25.8938,-27.0188,,0.006140000000000256,2.957494551136147,2.338400206965725,non_fall
8.327616,2.2005,1.9044,-0.5271,-0.44,0.9918,0.3523,25.0125,25.8938,-27.0188,,0.035304,2.957494551136147,2.7739002775301214,non_fall
8.329989,2.2005,1.9044,-0.5271,-1.1666,0.5607,-0.4269,25.0125,25.8938,-27.0188,,0.002372999999998626,2.957494551136147,3.1935222781786385,non_fall
8.348023,0.8908,3.755,0.6357,-1.1666,0.5607,-0.4269,25.0125,25.8938,-27.0188,,0.018034000000000106,3.9112228433061698,3.556547533238953,non_fall
8.350986,0.8908,3.755,0.6357,-1.1666,0.5607,-0.4269,25.8375,25.7063,-26.2875,,0.002963000000001159,3.9112228433061698,3.833108008669507,non_fall
8.390276,0.8908,3.755,0.6357,-1.1666,0.5607,-0.4269,25.8375,25.7063,-26.2875,,0.03928999999999938,3.9112228433061698,4.0052852055084,non_fall
8.392733,0.8908,3.755,0.6357,-2.2344,-1.4851,-0.8213,25.8375,25.7063,-26.2875,,0.0024569999999997094,3.9112228433061698,4.066009309811756,non_fall
8.411714,0.8908,3.755,0.6357,-2.2344,-1.4851,-0.8213,26.3438,26.25,-25.65,,0.018981000000000137,3.9112228433061698,4.016727049239585,non_fall
8.428829,-1.8099,2.8999,0.1856,-2.2344,-1.4851,-0.8213,26.3438,26.25,-25.65,,0.017115000000000435,3.4233909183731854,3.8649526273565886,non_fall
8.448454,-1.8099,2.8999,0.1856,-2.2344,-1.4851,-0.8213,26.3438,26.25,-25.65,,0.01962499999999956,3.4233909183731854,3.622678778035666,non_fall
8.450802,-1.8099,2.8999,0.1856,-3.0594,-0.9183,-0.4631,26.3438,26.25,-25.65,,0.0023479999999995727,3.4233909183731854,3.3061681366021003,non_fall
8.472873,-1.8099,2.8999,0.1856,-3.0594,-0.9183,-0.4631,26.625,27.2813,-24.45,,0.022071000000000396,3.4233909183731854,2.93695991023954,non_fall
8.489465,-1.9435,-0.7785,-1.0066,-3.0594,-0.9183,-0.4631,26.625,27.2813,-24.45,,0.016591999999999274,2.323036388006008,2.5432498253039717,non_fall
8.509183,-1.9435,-0.7785,-1.0066,-3.0176,-1.2285,-0.0559,26.625,27.2813,-24.45,,0.019718000000001012,2.323036388006008,2.160442790667913,non_fall
8.511329,-1.9435,-0.7785,-1.0066,-3.0176,-1.2285,-0.0559,26.625,27.2813,-24.45,,0.002145999999999759,2.323036388006008,1.8297740636854716,non_fall
8.531866,-1.9435,-0.7785,-1.0066,-3.0176,-1.2285,-0.0559,26.625,28.9688,-22.8375,,0.020537000000000916,2.323036388006008,1.594310799036149,non_fall
8.551361,-0.6121,-0.5974,-0.9712,-3.0176,-1.2285,-0.0559,26.625,28.9688,-22.8375,,0.019494999999999152,1.2941339227452466,1.492257966631532,non_fall
8.572698,-0.6121,-0.5974,-0.9712,-2.6267,-0.3864,-0.0421,26.625,28.9688,-22.8375,,0.021337000000000828,1.2941339227452466,1.5483691065600809,non_fall
8.576463,-0.6121,-0.5974,-0.9712,-2.6267,-0.3864,-0.0421,26.625,28.9688,-22.8375,,0.0037649999999995742,1.2941339227452466,1.765354129655561,non_fall
8.591882,-0.6121,-0.5974,-0.9712,-2.6267,-0.3864,-0.0421,26.5313,31.1063,-20.4188,,0.015418999999999627,1.2941339227452466,2.1180456134743593,non_fall
8.63498,-0.6121,-0.5974,-0.9712,-2.1578,0.337,0.5667,26.5313,31.1063,-20.4188,,0.043098000000000525,1.2941339227452466,2.5531813770420424,non_fall
8.640147,-0.6121,-0.5974,-0.9712,-2.1578,0.337,0.5667,26.5313,31.1063,-20.4188,,0.005167000000000144,1.2941339227452466,2.9966961690713845,non_fall
8.642327,4.0686,1.1061,-3.1985,-2.1578,0.337,0.5667,26.5313,31.1063,-20.4188,,0.0021799999999991826,5.292198543138759,3.368363137824154,non_fall
8.654374,4.0686,1.1061,-3.1985,-2.1578,0.337,0.5667,26.7375,33.0563,-18.0938,,0.012047000000000807,5.292198543138759,3.60078532537252,non_fall
8.695267,4.0686,1.1061,-3.1985,-1.7492,-0.2522,0.7073,26.7375,33.0563,-18.0938,,0.040892999999998736,5.292198543138759,3.6571488624841884,non_fall
8.699344,4.0686,1.1061,-3.1985,-1.7492,-0.2522,0.7073,26.7375,33.0563,-18.0938,,0.004077000000000552,5.292198543138759,3.541460454464675,non_fall
8.701238,0.2434,-1.225,-1.082,-1.7492,-0.2522,0.7073,26.7375,33.0563,-18.0938,,0.0018940000000000623,1.6524504712698656,3.297195909521484,non_fall
8.712947,0.2434,-1.225,-1.082,-1.7492,-0.2522,0.7073,26.6813,35.3438,-14.3438,,0.011708999999999747,1.6524504712698656,2.9946051782360454,non_fall
8.755575,0.2434,-1.225,-1.082,-1.3778,-0.0318,0.8543,26.6813,35.3438,-14.3438,,0.042628000000000554,1.6524504712698656,2.711160200699958,non_fall
8.759703,-0.593,-2.2642,0.665,-1.3778,-0.0318,0.8543,26.6813,35.3438,-14.3438,,0.0041279999999996875,2.4332027535739806,2.5116456669670817,non_fall
8.762035,-0.593,-2.2642,0.665,-1.3778,-0.0318,0.8543,26.6813,35.3438,-14.3438,,0.0023319999999991126,2.4332027535739806,2.4334914488110484,non_fall
8.772911,-0.593,-2.2642,0.665,-1.3778,-0.0318,0.8543,26.475,37.4813,-10.8188,,0.01087600000000144,2.4332027535739806,2.4802423363678106,non_fall
8.814386,-0.593,-2.2642,0.665,-1.2682,-0.5177,0.3822,26.475,37.4813,-10.8188,,0.04147500000000015,2.4332027535739806,2.6233450581772484,non_fall
8.817735,-0.593,-2.2642,0.665,-1.2682,-0.5177,0.3822,26.475,37.4813,-10.8188,,0.0033490000000000464,2.4332027535739806,2.8107118617730773,non_fall
8.818983,-0.4667,-3.5366,0.0686,-1.2682,-0.5177,0.3822,26.475,37.4813,-10.8188,,0.0012479999999985836,3.5679201798807103,2.9796841451727585,non_fall
8.8332,-0.4667,-3.5366,0.0686,-1.2682,-0.5177,0.3822,26.5125,39.15,-7.2188,,0.014217000000000368,3.5679201798807103,3.0715588107833516,non_fall
8.87634,-0.4667,-3.5366,0.0686,-0.8851,-0.3001,0.4514,26.5125,39.15,-7.2188,,0.043140000000001066,3.5679201798807103,3.0445780187770777,non_fall
8.879707,-0.4667,-3.5366,0.0686,-0.8851,-0.3001,0.4514,26.5125,39.15,-7.2188,,0.0033669999999990097,3.5679201798807103,2.8824777393370127,non_fall
8.892775,-0.4667,-3.5366,0.0686,-0.8851,-0.3001,0.4514,27.0375,39.9938,-3.2625,,0.013068000000000524,3.5679201798807103,2.5966205795599766,non_fall
8.895785,-0.0005,0.9478,0.1005,-0.8851,-0.3001,0.4514,27.0375,39.9938,-3.2625,,0.003009999999999735,0.9531134979633853,2.221364224311912,non_fall
8.937639,-0.0005,0.9478,0.1005,-0.567,-0.1116,0.5728,27.0375,39.9938,-3.2625,,0.041854000000000724,0.9531134979633853,1.8042622022785584,non_fall
8.941425,-0.0005,0.9478,0.1005,-0.567,-0.1116,0.5728,27.0375,39.9938,-3.2625,,0.003785999999999845,0.9531134979633853,1.3942694929848307,non_fall
8.951686,-0.0005,0.9478,0.1005,-0.567,-0.1116,0.5728,27.8813,40.2563,0.15,,0.010260999999999854,0.9531134979633853,1.0315244433087345,non_fall
8.955551,0.2211,-0.6446,-0.2138,-0.567,-0.1116,0.5728,27.8813,40.2563,0.15,,0.003864999999999341,0.7142162207623123,0.7412316084527966,non_fall
8.997777,0.2211,-0.6446,-0.2138,-0.4751,-0.2139,0.4418,27.8813,40.2563,0.15,,0.04222599999999943,0.7142162207623123,0.5323415481083601,non_fall
9.000963,0.2211,-0.6446,-0.2138,-0.4751,-0.2139,0.4418,27.8813,40.2563,0.15,,0.0031860000000012434,0.7142162207623123,0.40012084980475915,non_fall
9.011999,0.2211,-0.6446,-0.2138,-0.4751,-0.2139,0.4418,29.0063,39.8625,3.3188,,0.011035999999998936,0.7142162207623123,0.3308713981503904,non_fall
9.018976,-0.0721,0.232,-0.1366,-0.4751,-0.2139,0.4418,29.0063,39.8625,3.3188,,0.006977000000000899,0.2787148542865988,0.3069888771820339,non_fall
9.056584,-0.0721,0.232,-0.1366,-0.5205,-0.025,0.4866,29.0063,39.8625,3.3188,,0.03760800000000053,0.2787148542865988,0.3110315164928079,non_fall
9.058446,-0.0721,0.232,-0.1366,-0.5205,-0.025,0.4866,29.0063,39.8625,3.3188,,0.0018619999999991421,0.2787148542865988,0.3282159519348739,non_fall
9.07072,-0.0721,0.232,-0.1366,-0.5205,-0.025,0.4866,30.2438,38.9625,5.6625,,0.012273999999999674,0.2787148542865988,0.3474375457299941,non_fall
9.076591,-0.0913,-0.2981,0.0224,-0.5205,-0.025,0.4866,30.2438,38.9625,5.6625,,0.005871000000000848,0.3125716877773801,0.36129366684910164,non_fall
9.120213,-0.0913,-0.2981,0.0224,-0.5525,-0.2443,0.5739,30.2438,38.9625,5.6625,,0.04362199999999916,0.3125716877773801,0.365653785253277,non_fall
9.124298,-0.0913,-0.2981,0.0224,-0.5525,-0.2443,0.5739,30.2438,38.9625,5.6625,,0.004084999999999894,0.3125716877773801,0.3591971413238952,non_fall
9.131264,-0.0913,-0.2981,0.0224,-0.5525,-0.2443,0.5739,31.4438,37.8375,7.6125,,0.00696600000000025,0.3125716877773801,0.3431483147361021,non_fall
9.158862,0.1215,0.3369,-0.1241,-0.5525,-0.2443,0.5739,31.4438,37.8375,7.6125,,0.027597999999999345,0.37903122562659664,0.32124398957512246,non_fall
9.17931,0.1215,0.3369,-0.1241,-0.5525,-0.2443,0.5739,31.4438,37.8375,7.6125,,0.02044800000000002,0.37903122562659664,0.2997918107253352,non_fall
9.181418,0.1215,0.3369,-0.1241,-0.5763,-0.2302,0.6601,31.4438,37.8375,7.6125,,0.002108000000001553,0.37903122562659664,0.28757091240976357,non_fall
9.193011,0.1215,0.3369,-0.1241,-0.5763,-0.2302,0.6601,32.5312,36.4125,8.775,,0.01159299999999952,0.37903122562659664,0.29531743452431364,non_fall
9.222286,-0.1735,-0.1759,0.1953,-0.5763,-0.2302,0.6601,32.5312,36.4125,8.775,,0.029275000000000162,0.31493673967957436,0.3346589728748298,non_fall
9.240673,-0.1735,-0.1759,0.1953,-0.4108,-0.6487,0.6875,32.5312,36.4125,8.775,,0.01838699999999882,0.31493673967957436,0.4165782057042965,non_fall
9.244158,-0.1735,-0.1759,0.1953,-0.4108,-0.6487,0.6875,32.5312,36.4125,8.775,,0.0034850000000012926,0.31493673967957436,0.5497102846581111,non_fall
9.251894,-0.1735,-0.1759,0.1953,-0.4108,-0.6487,0.6875,33.7688,34.8188,9.675,,0.007735999999999521,0.31493673967957436,0.738887110980892,non_fall
9.284101,-1.3929,-0.7044,0.6935,-0.4108,-0.6487,0.6875,33.7688,34.8188,9.675,,0.03220699999999965,1.7080082025564163,0.9842184697292223,non_fall
9.302564,-1.3929,-0.7044,0.6935,-0.0541,-1.401,0.7099,33.7688,34.8188,9.675,,0.018463000000000562,1.7080082025564163,1.280649015050997,non_fall
9.306326,-1.3929,-0.7044,0.6935,-0.0541,-1.401,0.7099,33.7688,34.8188,9.675,,0.003762000000000043,1.7080082025564163,1.6176082653601782,non_fall
9.312627,-1.3929,-0.7044,0.6935,-0.0541,-1.401,0.7099,35.5125,34.5563,11.8313,,0.006301000000000556,1.7080082025564163,1.9784767632148732,non_fall
9.365198,-1.3929,-0.7044,0.6935,0.4249,-1.1968,0.3268,35.5125,34.5563,11.8313,,0.05257099999999859,1.7080082025564163,2.3402266780345946,non_fall
9.368979,-1.3929,-0.7044,0.6935,0.4249,-1.1968,0.3268,35.5125,34.5563,11.8313,,0.0037810000000000343,1.7080082025564163,2.6743019834822634,non_fall
9.370708,-3.0244,-1.2004,0.9585,0.4249,-1.1968,0.3268,35.5125,34.5563,11.8313,,0.0017290000000009798,3.392149432144757,2.9499028109374414,non_fall
9.372609,-3.0244,-1.2004,0.9585,0.4249,-1.1968,0.3268,36.8063,33.1125,11.1562,,0.0019010000000001526,3.392149432144757,3.140026627420304,non_fall
9.424131,-3.0244,-1.2004,0.9585,0.772,1.3133,0.7131,36.8063,33.1125,11.1562,,0.05152199999999851,3.392149432144757,3.229261756741099,non_fall
9.427597,-3.0244,-1.2004,0.9585,0.772,1.3133,0.7131,36.8063,33.1125,11.1562,,0.0034660000000013014,3.392149432144757,3.2212085533858024,non_fall
9.42948,3.2953,0.7057,1.404,0.772,1.3133,0.7131,36.8063,33.1125,11.1562,,0.001882999999999413,3.6507849265603145,3.1430744578456227,non_fall
9.433262,3.2953,0.7057,1.404,0.772,1.3133,0.7131,37.8938,31.5188,10.1438,,0.003781999999999286,3.6507849265603145,3.045409859039242,non_fall
9.486294,3.2953,0.7057,1.404,-0.4602,-0.6739,0.7653,37.8938,31.5188,10.1438,,0.05303199999999997,3.6507849265603145,2.9958168756611006,non_fall
9.489275,3.2953,0.7057,1.404,-0.4602,-0.6739,0.7653,37.8938,31.5188,10.1438,,0.0029810000000001224,3.6507849265603145,3.0666680427802526,non_fall
9.490449,1.1878,2.2338,0.5982,-0.4602,-0.6739,0.7653,37.8938,31.5188,10.1438,,0.0011740000000006745,2.599725854777769,3.3184650602149213,non_fall
9.494616,1.1878,2.2338,0.5982,-0.4602,-0.6739,0.7653,39.3,29.625,9.1688,,0.004167000000000698,2.599725854777769,3.782280415015947,non_fall
9.547655,1.1878,2.2338,0.5982,-0.676,-1.8938,-1.8252,39.3,29.625,9.1688,,0.05303900000000006,2.599725854777769,4.446147953515944,non_fall
9.551819,1.1878,2.2338,0.5982,-0.676,-1.8938,-1.8252,39.3,29.625,9.1688,,0.00416399999999939,2.599725854777769,5.250385643163942,non_fall
9.553808,-2.6376,3.0343,-7.2896,-0.676,-1.8938,-1.8252,39.3,29.625,9.1688,,0.0019890000000000185,8.32479299502396,6.094909937408492,non_fall
9.556069,-2.6376,3.0343,-7.2896,-0.676,-1.8938,-1.8252,40.425,28.3875,7.6313,,0.0022610000000007346,8.32479299502396,6.857789968237892,non_fall
9.608447,-2.6376,3.0343,-7.2896,-0.2535,0.4546,0.3858,40.425,28.3875,7.6313,,0.05237799999999915,8.32479299502396,7.420118440052584,non_fall
9.613001,-2.6376,3.0343,-7.2896,-0.2535,0.4546,0.3858,40.425,28.3875,7.6313,,0.004554000000000613,8.32479299502396,7.690020012508891,non_fall
9.614938,-2.6376,3.0343,-7.2896,-0.2535,0.4546,0.3858,41.3625,27.3188,5.9062,,0.0019369999999998555,8.32479299502396,7.619486301075926,non_fall
9.626897,2.182,-5.5973,-0.8948,-0.2535,0.4546,0.3858,41.3625,27.3188,5.9062,,0.011958999999999165,6.07384213904181,7.210819994132351,non_fall
9.669877,2.182,-5.5973,-0.8948,-0.0803,-0.3843,-0.2611,41.3625,27.3188,5.9062,,0.04298000000000002,6.07384213904181,6.512862410433168,non_fall
9.673432,2.182,-5.5973,-0.8948,-0.0803,-0.3843,-0.2611,41.3625,27.3188,5.9062,,0.003555000000000419,6.07384213904181,5.609472747132802,non_fall
9.675582,2.182,-5.5973,-0.8948,-0.0803,-0.3843,-0.2611,42.0938,26.9813,4.2,,0.0021500000000003183,6.07384213904181,4.603513177809461,non_fall
9.688526,0.0646,1.6448,0.1435,-0.0803,-0.3843,-0.2611,42.0938,26.9813,4.2,,0.012943999999999178,1.6523112448930437,3.5993677585652244,non_fall
9.728586,0.0646,1.6448,0.1435,-0.2337,-0.2437,-0.2264,42.0938,26.9813,4.2,,0.04006000000000043,1.6523112448930437,2.68675678853274,non_fall
9.732467,0.0646,1.6448,0.1435,-0.2337,-0.2437,-0.2264,42.0938,26.9813,4.2,,0.0038809999999998013,1.6523112448930437,1.928632266044009,non_fall
9.7345,0.0646,1.6448,0.1435,-0.2337,-0.2437,-0.2264,42.6188,27.0563,2.4188,,0.0020330000000008397,1.6523112448930437,1.3554743272543923,non_fall
9.748063,-0.5038,-0.7641,0.6408,-0.2337,-0.2437,-0.2264,42.6188,27.0563,2.4188,,0.013562999999999548,1.1172680475159038,0.9667092626570732,non_fall
9.791918,-0.5038,-0.7641,0.6408,-0.3285,-0.0679,-0.0425,42.6188,27.0563,2.4188,,0.04385500000000064,1.1172680475159038,0.7378727743011976,non_fall
9.795273,-0.5038,-0.7641,0.6408,-0.3285,-0.0679,-0.0425,42.6188,27.0563,2.4188,,0.0033549999999991087,1.1172680475159038,0.6307419967839974,non_fall
9.797207,-0.5038,-0.7641,0.6408,-0.3285,-0.0679,-0.0425,42.675,27.1313,1.1438,,0.0019340000000003243,1.1172680475159038,0.6034494115304484,non_fall
9.831387,-0.0606,0.2457,0.3878,-0.3285,-0.0679,-0.0425,42.675,27.1313,1.1438,,0.03417999999999921,0.46306553531870626,0.6182981138590196,non_fall
9.852269,-0.0606,0.2457,0.3878,-0.3285,-0.0679,-0.0425,42.675,27.1313,1.1438,,0.02088200000000029,0.46306553531870626,0.646178322931553,non_fall
9.853886,-0.0606,0.2457,0.3878,-0.3285,-0.0679,-0.0425,42.6375,27.5438,0.3188,,0.0016169999999995355,0.46306553531870626,0.6677259301699899,non_fall
9.85515,-0.0606,0.2457,0.3878,-0.2429,-0.3001,-0.1553,42.6375,27.5438,0.3188,,0.00126400000000082,0.46306553531870626,0.6722414600084039,non_fall
9.892598,-0.6331,-0.1539,-0.0478,-0.2429,-0.3001,-0.1553,42.6375,27.5438,0.3188,,0.03744799999999948,0.6532883436890635,0.6556386525584855,non_fall
9.910879,-0.6331,-0.1539,-0.0478,-0.3053,0.0393,0.0084,42.6375,27.5438,0.3188,,0.01828099999999999,0.6532883436890635,0.6183954683266035,non_fall
9.912547,-0.6331,-0.1539,-0.0478,-0.3053,0.0393,0.0084,42.6375,27.5438,0.3188,,0.001668000000000447,0.6532883436890635,0.5639546672430927,non_fall
9.913566,-0.6331,-0.1539,-0.0478,-0.3053,0.0393,0.0084,42.6938,28.05,-0.1125,,0.001018999999999437,0.6532883436890635,0.4975763322263337,non_fall
9.954392,0.0231,0.0831,0.2663,-0.3053,0.0393,0.0084,42.6938,28.05,-0.1125,,0.04082600000000092,0.2799194705625173,0.4254436106001126,non_fall
9.97332,0.0231,0.0831,0.2663,-0.3053,0.0393,0.0084,42.6938,28.05,-0.1125,,0.018927999999998946,0.2799194705625173,0.35386350948102435,non_fall
9.976077,0.0231,0.0831,0.2663,-0.2418,0.0766,0.0619,42.6938,28.05,-0.1125,,0.0027570000000007866,0.2799194705625173,0.28855618895088336,non_fall
9.977614,0.0231,0.0831,0.2663,-0.2418,0.0766,0.0619,42.3188,28.9875,-0.6375,,0.0015370000000007877,0.2799194705625173,0.23412044664565623,non_fall
10.035407,0.0231,0.0831,0.2663,-0.2418,0.0766,0.0619,42.1125,29.4563,-0.5625,,0.05779299999999843,0.2799194705625173,0.19372457267822873,non_fall
10.039375,-0.137,-0.0357,-0.0392,-0.2418,0.0766,0.0619,42.1125,29.4563,-0.5625,,0.003968000000000416,0.14690176990084225,0.16897248503235157,non_fall
10.041716,-0.137,-0.0357,-0.0392,-0.2955,-0.0342,0.0694,42.1125,29.4563,-0.5625,,0.0023409999999994824,0.14690176990084225,0.15985539942389995,non_fall
10.043881,-0.137,-0.0357,-0.0392,-0.2955,-0.0342,0.0694,42.1125,29.4563,-0.5625,,0.002165000000001527,0.14690176990084225,0.16475415697656348,non_fall
10.094955,-0.137,-0.0357,-0.0392,-0.2955,-0.0342,0.0694,42.075,29.8688,-0.375,,0.05107399999999984,0.14690176990084225,0.18054328650157406,non_fall
10.098031,-0.137,-0.0357,-0.0392,-0.2493,-0.0133,0.0218,42.075,29.8688,-0.375,,0.0030760000000000787,0.14690176990084225,0.2028901008295962,non_fall
10.099732,-0.137,-0.0357,-0.0392,-0.2493,-0.0133,0.0218,42.075,29.8688,-0.375,,0.0017009999999988423,0.14690176990084225,0.2268150506651137,non_fall
10.100993,-0.2339,0.0624,0.2467,-0.2493,-0.0133,0.0218,42.075,29.8688,-0.375,,0.0012610000000012889,0.3456354437843434,0.2474935163759387,non_fall
10.157206,-0.2339,0.0624,0.2467,-0.2493,-0.0133,0.0218,42.0188,29.9063,-0.0,,0.056212999999999624,0.3456354437843434,0.26115698740861937,non_fall
10.160957,-0.2339,0.0624,0.2467,-0.0916,-0.0403,0.0839,42.0188,29.9063,-0.0,,0.0037509999999993937,0.3456354437843434,0.26584274339267516,non_fall
10.162896,-0.2339,0.0624,0.2467,-0.0916,-0.0403,0.0839,42.0188,29.9063,-0.0,,0.001939000000000135,0.3456354437843434,0.261722864039821,non_fall
10.165688,-0.1005,0.026,-0.1187,-0.0916,-0.0403,0.0839,42.0188,29.9063,-0.0,,0.0027919999999994616,0.15768937820918694,0.2508622758880774,non_fall
10.215425,-0.1005,0.026,-0.1187,-0.0916,-0.0403,0.0839,41.8688,29.775,0.2063,,0.049737000000000364,0.15768937820918694,0.23647150402600287,non_fall
10.21877,-0.1005,0.026,-0.1187,-0.0119,0.03,0.1354,41.8688,29.775,0.2063,,0.0033449999999994873,0.15768937820918694,0.221922235886307,non_fall
10.220609,-0.1005,0.026,-0.1187,-0.0119,0.03,0.1354,41.8688,29.775,0.2063,,0.0018390000000003681,0.15768937820918694,0.20987356450059244,non_fall
10.221857,0.116,-0.0035,-0.2013,-0.0119,0.03,0.1354,41.8688,29.775,0.2063,,0.00124800000000036,0.23235735409063343,0.20177718326367813,non_fall
10.274694,0.116,-0.0035,-0.2013,-0.0119,0.03,0.1354,42.0,29.8313,0.45,,0.052837000000000245,0.23235735409063343,0.19784686145634733,non_fall
10.278232,0.116,-0.0035,-0.2013,-0.0537,0.0854,0.178,42.0,29.8313,0.45,,0.003537999999998931,0.23235735409063343,0.19739338446015886,non_fall
10.279866,0.116,-0.0035,-0.2013,-0.0537,0.0854,0.178,42.0,29.8313,0.45,,0.0016340000000010235,0.23235735409063343,0.19932134335572282,non_fall
10.296117,-0.201,0.0152,0.031,-0.0537,0.0854,0.178,42.0,29.8313,0.45,,0.01625100000000046,0.20394371772623937,0.20258229926674465,non_fall
10.333451,-0.201,0.0152,0.031,-0.0537,0.0854,0.178,42.0563,29.4938,0.825,,0.037333999999999534,0.20394371772623937,0.20645188012562246,non_fall
10.338254,-0.201,0.0152,0.031,-0.0703,0.1915,0.2337,42.0563,29.4938,0.825,,0.0048029999999990025,0.20394371772623937,0.21059566986189723,non_fall
10.341102,-0.201,0.0152,0.031,-0.0703,0.1915,0.2337,42.0563,29.4938,0.825,,0.0028480000000001837,0.20394371772623937,0.21496774206975644,non_fall
10.357974,0.1879,0.0605,0.0677,-0.0703,0.1915,0.2337,42.0563,29.4938,0.825,,0.01687200000000111,0.20868624775006137,0.2196269454080795,non_fall
10.392572,0.1879,0.0605,0.0677,-0.0703,0.1915,0.2337,42.1313,29.2875,0.9938,,0.03459799999999902,0.20868624775006137,0.22456127364459072,non_fall
10.399656,0.1879,0.0605,0.0677,-0.0097,0.0574,0.138,42.1313,29.2875,0.9938,,0.007084000000000756,0.20868624775006137,0.2295909411940995,non_fall
10.401528,0.1879,0.0605,0.0677,-0.0097,0.0574,0.138,42.1313,29.2875,0.9938,,0.00187200000000054,0.20868624775006137,0.2343851849376515,non_fall
10.41763,-0.2608,0.0465,-0.105,-0.0097,0.0574,0.138,42.1313,29.2875,0.9938,,0.01610200000000006,0.2849629625056561,0.23858043141564644,non_fall
10.456611,-0.2608,0.0465,-0.105,-0.0097,0.0574,0.138,42.3188,29.025,1.2938,,0.03898099999999971,0.2849629625056561,0.2419350455382433,non_fall
10.460361,-0.2608,0.0465,-0.105,0.0467,0.0212,0.1031,42.3188,29.025,1.2938,,0.003750000000000142,0.2849629625056561,0.24441897432507573,non_fall
10.462421,-0.2608,0.0465,-0.105,0.0467,0.0212,0.1031,42.3188,29.025,1.2938,,0.002060000000000173,0.2849629625056561,0.24614619898215512,non_fall
10.478457,-0.1206,-0.0078,-0.1358,0.0467,0.0212,0.1031,42.3188,29.025,1.2938,,0.016035999999999717,0.18178789838710388,0.24712959606633444,non_fall
10.514485,-0.1206,-0.0078,-0.1358,0.0467,0.0212,0.1031,42.6562,28.725,1.6125,,0.03602799999999995,0.18178789838710388,0.24694776050436926,non_fall
10.521097,-0.1206,-0.0078,-0.1358,0.0525,-0.0378,0.0268,42.6562,28.725,1.6125,,0.00661199999999873,0.18178789838710388,0.24450276274065172,non_fall
10.52348,-0.1206,-0.0078,-0.1358,0.0525,-0.0378,0.0268,42.6562,28.725,1.6125,,0.002383000000000024,0.18178789838710388,0.23805510967846188,non_fall
10.56186,-0.2613,0.0522,-0.0322,0.0525,-0.0378,0.0268,42.6562,28.725,1.6125,,0.03838000000000008,0.2684015089376362,0.2256238377276661,non_fall
10.573135,-0.2613,0.0522,-0.0322,0.0525,-0.0378,0.0268,42.8813,28.4625,1.7438,,0.011275000000001256,0.2684015089376362,0.20567129031544634,non_fall
10.581599,-0.2613,0.0522,-0.0322,0.0667,0.0193,0.025,42.8813,28.4625,1.7438,,0.008464000000000027,0.2684015089376362,0.17783214486234833,non_fall
10.5841,-0.2613,0.0522,-0.0322,0.0667,0.0193,0.025,42.8813,28.4625,1.7438,,0.0025009999999987542,0.2684015089376362,0.14337628453263135,non_fall
10.623823,-0.0488,0.0322,-0.0881,0.0667,0.0193,0.025,42.8813,28.4625,1.7438,,0.0397230000000004,0.10573499893601929,0.10516203379789826,non_fall
