time,ax,ay,az,wx,wy,wz,Bx,By,Bz,Unnamed: 10,time_diff,acc_mag,acc_mag_filtered,label
0.0593,0.0,0.0,0.0,0.0,0.0,0.0,0.0,0.0,0.0,,0.0,0.0,0.0002228935675475526,non_fall
0.075122,0.0,0.0,0.0,-0.0127,0.0097,0.0144,0.0,0.0,0.0,,0.015821999999999996,0.0,-2.1181978913018817e-06,non_fall
0.105012,0.0,0.0,0.0,-0.0127,0.0097,0.0144,42.375,24.15,18.7313,,0.02989,0.0,-7.13879025308242e-05,non_fall
0.117014,0.0,0.0,0.0,-0.0127,0.0097,0.0144,42.375,24.15,18.7313,,0.012002000000000013,0.0,0.00013891628096518083,non_fall
0.118048,0.0,0.0,0.0,-0.0127,0.0097,0.0144,42.375,24.15,18.7313,,0.0010339999999999933,0.0,0.0006978676606128307,non_fall
0.13708,0.0,0.0,0.0,-0.0205,0.0055,0.0084,42.375,24.15,18.7313,,0.019032000000000007,0.0,0.0016125032022995323,non_fall
0.164915,0.0,0.0,0.0,-0.0205,0.0055,0.0084,42.5063,24.3,18.15,,0.027835,0.0,0.0028336927993982378,non_fall
0.178073,0.0,0.0,0.0,-0.0205,0.0055,0.0084,42.5063,24.3,18.15,,0.013158000000000003,0.0,0.0042758170174453545,non_fall
0.178772,0.0114,0.0009,0.0053,-0.0205,0.0055,0.0084,42.5063,24.3,18.15,,0.0006989999999999774,0.012603967629282455,0.00584727788115736,non_fall
0.198218,0.0114,0.0009,0.0053,-0.0316,0.0111,0.0205,42.5063,24.3,18.15,,0.01944600000000002,0.012603967629282455,0.007483460955614563,non_fall
0.224294,0.0114,0.0009,0.0053,-0.0316,0.0111,0.0205,42.5813,24.5438,17.7375,,0.026075999999999988,0.012603967629282455,0.009169218278547183,non_fall
0.236982,0.0114,0.0009,0.0053,-0.0316,0.0111,0.0205,42.5813,24.5438,17.7375,,0.012688000000000005,0.012603967629282455,0.010938548383166073,non_fall
0.237479,-0.0079,-0.0086,0.001,-0.0316,0.0111,0.0205,42.5813,24.5438,17.7375,,0.0004969999999999974,0.011720494870098276,0.012846882894607888,non_fall
0.257613,-0.0079,-0.0086,0.001,-0.0358,0.0029,0.0162,42.5813,24.5438,17.7375,,0.020133999999999985,0.011720494870098276,0.014923220305522539,non_fall
0.287213,-0.0079,-0.0086,0.001,-0.0358,0.0029,0.0162,42.5813,24.8438,17.25,,0.029600000000000015,0.011720494870098276,0.017119597400086138,non_fall
0.298107,-0.0079,-0.0086,0.001,-0.0358,0.0029,0.0162,42.5813,24.8438,17.25,,0.010894000000000015,0.011720494870098276,0.01927969890438496,non_fall
0.318,-0.0079,-0.0086,0.001,-0.0252,-0.0056,0.0116,42.5813,24.8438,17.25,,0.019892999999999994,0.011720494870098276,0.021144910813793136,non_fall
0.318599,0.0295,-0.0066,0.0051,-0.0252,-0.0056,0.0116,42.5813,24.8438,17.25,,0.0005990000000000162,0.030656483816641465,0.022404730280984757,non_fall
0.344249,0.0295,-0.0066,0.0051,-0.0252,-0.0056,0.0116,42.5063,25.0125,17.0063,,0.025650000000000006,0.030656483816641465,0.022781333050888055,non_fall
0.359235,0.0295,-0.0066,0.0051,-0.0252,-0.0056,0.0116,42.5063,25.0125,17.0063,,0.014986,0.030656483816641465,0.022121444893112244,non_fall
0.379342,0.0295,-0.0066,0.0051,-0.0124,0.0033,0.0112,42.5063,25.0125,17.0063,,0.020106999999999986,0.030656483816641465,0.02046144746891229,non_fall
0.3805,0.0042,-0.0076,0.0059,-0.0124,0.0033,0.0112,42.5063,25.0125,17.0063,,0.0011579999999999924,0.01049809506529637,0.018039528273997095,non_fall
0.404002,0.0042,-0.0076,0.0059,-0.0124,0.0033,0.0112,42.4688,25.0688,17.2125,,0.023501999999999967,0.01049809506529637,0.01524863373856366,non_fall
0.420486,0.0042,-0.0076,0.0059,-0.0124,0.0033,0.0112,42.4688,25.0688,17.2125,,0.016484000000000054,0.01049809506529637,0.012545728693607185,non_fall
0.440172,0.0042,-0.0076,0.0059,-0.0088,0.0023,0.0099,42.4688,25.0688,17.2125,,0.01968599999999998,0.01049809506529637,0.010345816396532608,non_fall
0.44124,-0.0015,-0.0016,0.0044,-0.0088,0.0023,0.0099,42.4688,25.0688,17.2125,,0.0010680000000000134,0.0049162994213127415,0.008929564472921373,non_fall
0.46515,-0.0015,-0.0016,0.0044,-0.0088,0.0023,0.0099,42.3375,25.2375,16.8563,,0.023909999999999987,0.0049162994213127415,0.008385598058887998,non_fall
0.480661,-0.0015,-0.0016,0.0044,-0.0088,0.0023,0.0099,42.3375,25.2375,16.8563,,0.015510999999999997,0.0049162994213127415,0.008598911380094979,non_fall
0.50103,-0.0015,-0.0016,0.0044,-0.0049,0.004,0.0063,42.3375,25.2375,16.8563,,0.02036899999999997,0.0049162994213127415,0.009287568600301303,non_fall
0.521201,-0.0113,0.0011,-0.0128,-0.0049,0.004,0.0063,42.3375,25.2375,16.8563,,0.02017100000000005,0.017109646401956995,0.010079750851370166,non_fall
0.524422,-0.0113,0.0011,-0.0128,-0.0049,0.004,0.0063,42.2625,25.5375,16.5375,,0.0032210000000000294,0.017109646401956995,0.01061237450985464,non_fall
0.541612,-0.0113,0.0011,-0.0128,-0.0049,0.004,0.0063,42.2625,25.5375,16.5375,,0.017189999999999928,0.017109646401956995,0.010624497460525913,non_fall
0.561834,-0.0113,0.0011,-0.0128,-0.0028,0.0072,0.0116,42.2625,25.5375,16.5375,,0.020221999999999962,0.017109646401956995,0.01001863279944665,non_fall
0.583986,-0.0011,0.0016,0.0009,-0.0028,0.0072,0.0116,42.2625,25.5375,16.5375,,0.02215200000000006,0.0021400934559032696,0.00887330775793178,non_fall
0.585515,-0.0011,0.0016,0.0009,-0.0028,0.0072,0.0116,42.225,25.5375,16.35,,0.0015290000000000026,0.0021400934559032696,0.007407467089889128,non_fall
0.602585,-0.0011,0.0016,0.0009,-0.0028,0.0072,0.0116,42.225,25.5375,16.35,,0.01707000000000003,0.0021400934559032696,0.00591375741481984,non_fall
0.622878,-0.0011,0.0016,0.0009,-0.002,0.0055,0.0077,42.225,25.5375,16.35,,0.020293000000000005,0.0021400934559032696,0.004685467306263239,non_fall
0.643768,-0.0057,0.0003,-0.001,-0.002,0.0055,0.0077,42.225,25.5375,16.35,,0.020889999999999964,0.005794825277780168,0.0039582485789669926,non_fall
0.644932,-0.0057,0.0003,-0.001,-0.002,0.0055,0.0077,42.15,25.5938,16.3688,,0.0011639999999999429,0.005794825277780168,0.0038768476014462492,non_fall
0.667036,-0.0057,0.0003,-0.001,-0.002,0.0055,0.0077,42.15,25.5938,16.3688,,0.022104000000000013,0.005794825277780168,0.004486119993207315,non_fall
0.684765,-0.0057,0.0003,-0.001,-0.0009,0.0001,0.0056,42.15,25.5938,16.3688,,0.017728999999999995,0.005794825277780168,0.0057395868769628215,non_fall
0.704867,-0.0057,0.0003,-0.001,-0.0009,0.0001,0.0056,42.3,25.5,16.3688,,0.020102000000000064,0.005794825277780168,0.0075184191845098156,non_fall
0.705986,0.0053,0.0055,-0.0083,-0.0009,0.0001,0.0056,42.3,25.5,16.3688,,0.0011189999999999811,0.01127962765342899,0.00965652331584823,non_fall
0.724549,0.0053,0.0055,-0.0083,-0.0009,0.0001,0.0056,42.3,25.5,16.3688,,0.018562999999999996,0.01127962765342899,0.011970193773691283,non_fall
0.744766,0.0053,0.0055,-0.0083,0.0004,-0.0009,0.0052,42.3,25.5,16.3688,,0.02021700000000004,0.01127962765342899,0.014292002246984703,non_fall
0.765018,0.0053,0.0055,-0.0083,0.0004,-0.0009,0.0052,42.2438,25.425,16.425,,0.020251999999999937,0.01127962765342899,0.016508282193733348,non_fall
0.785363,0.0053,0.0055,-0.0083,0.0004,-0.0009,0.0052,42.2438,25.425,16.425,,0.020345000000000057,0.01127962765342899,0.01859753057906286,non_fall
0.78586,-0.0234,-0.0097,0.0274,0.0004,-0.0009,0.0052,42.2438,25.425,16.425,,0.0004969999999999697,0.037315010384562405,0.020661837955515832,non_fall
0.806765,-0.0234,-0.0097,0.0274,-0.0035,-0.0137,-0.0059,42.2438,25.425,16.425,,0.02090499999999995,0.037315010384562405,0.022935259624778343,non_fall
0.823864,-0.0234,-0.0097,0.0274,-0.0035,-0.0137,-0.0059,42.2063,25.2938,16.5563,,0.017099000000000086,0.037315010384562405,0.0257478483284203,non_fall
0.846309,0.0032,-0.0198,0.0144,-0.0035,-0.0137,-0.0059,42.2063,25.2938,16.5563,,0.022444999999999937,0.02469088900789115,0.029431715570361516,non_fall
0.847511,0.0032,-0.0198,0.0144,-0.0035,-0.0137,-0.0059,42.2063,25.2938,16.5563,,0.0012020000000000364,0.02469088900789115,0.03417954531645876,non_fall
0.86596,0.0032,-0.0198,0.0144,0.004,-0.0169,-0.0029,42.2063,25.2938,16.5563,,0.018448999999999938,0.02469088900789115,0.03989649125533437,non_fall
0.885723,0.0032,-0.0198,0.0144,0.004,-0.0169,-0.0029,42.3375,25.2188,16.4625,,0.019763000000000086,0.02469088900789115,0.04610577975877325,non_fall
0.906925,0.0032,-0.0198,0.0144,0.004,-0.0169,-0.0029,42.3375,25.2188,16.4625,,0.021201999999999943,0.02469088900789115,0.05196384725342709,non_fall
0.908299,0.0136,0.0349,-0.0667,0.004,-0.0169,-0.0029,42.3375,25.2188,16.4625,,0.0013739999999999863,0.07649745093792341,0.056410188526503965,non_fall
0.928552,0.0136,0.0349,-0.0667,0.0157,-0.0092,0.0063,42.3375,25.2188,16.4625,,0.020253000000000076,0.07649745093792341,0.058427928649427564,non_fall
0.944365,0.0136,0.0349,-0.0667,0.0157,-0.0092,0.0063,42.6,25.2563,16.6688,,0.015812999999999966,0.07649745093792341,0.05734141828653534,non_fall
0.969769,0.0136,0.0349,-0.0667,0.0157,-0.0092,0.0063,42.6,25.2563,16.6688,,0.025403999999999982,0.07649745093792341,0.05305106351762132,non_fall
0.990591,0.0136,0.0349,-0.0667,0.0115,0.0136,0.0152,42.6,25.2563,16.6688,,0.020822000000000007,0.07649745093792341,0.04611879971327942,non_fall
0.992033,0.0032,0.001,0.0043,0.0115,0.0136,0.0152,42.6,25.2563,16.6688,,0.0014420000000000543,0.005452522352086235,0.03766640672497215,non_fall
1.00511,0.0032,0.001,0.0043,0.0115,0.0136,0.0152,42.6188,24.9375,16.9688,,0.013076999999999894,0.005452522352086235,0.029114659328859458,non_fall
1.029682,0.0032,0.001,0.0043,0.0115,0.0136,0.0152,42.6188,24.9375,16.9688,,0.024572000000000038,0.005452522352086235,0.02184828316695755,non_fall
1.050146,0.0032,0.001,0.0043,0.0136,-0.0212,0.002,42.6188,24.9375,16.9688,,0.020464000000000038,0.005452522352086235,0.016913792970440947,non_fall
1.051195,-0.006,-0.0078,0.019,0.0136,-0.0212,0.002,42.6188,24.9375,16.9688,,0.0010490000000000776,0.021397196077991152,0.01483426132263013,non_fall
1.066174,-0.006,-0.0078,0.019,0.0136,-0.0212,0.002,42.6938,24.8063,17.25,,0.014978999999999854,0.021397196077991152,0.015573331995327407,non_fall
1.091446,-0.006,-0.0078,0.019,0.0136,-0.0212,0.002,42.6938,24.8063,17.25,,0.02527199999999996,0.021397196077991152,0.018630021135680887,non_fall
1.111385,-0.006,-0.0078,0.019,0.0174,-0.0273,-0.0172,42.6938,24.8063,17.25,,0.01993900000000015,0.021397196077991152,0.023216120340593508,non_fall
1.11212,-0.0347,0.0002,-0.0202,0.0174,-0.0273,-0.0172,42.6938,24.8063,17.25,,0.0007349999999999302,0.040151836819752096,0.028461342546398337,non_fall
1.125004,-0.0347,0.0002,-0.0202,0.0174,-0.0273,-0.0172,42.6938,24.7313,17.475,,0.012883999999999896,0.040151836819752096,0.03359862094709834,non_fall
1.151288,-0.0347,0.0002,-0.0202,0.0174,-0.0273,-0.0172,42.6938,24.7313,17.475,,0.026284000000000196,0.040151836819752096,0.03809460927878717,non_fall
1.173757,-0.0347,0.0002,-0.0202,0.0257,-0.0013,0.0099,42.6938,24.7313,17.475,,0.02246899999999985,0.040151836819752096,0.041706091874244934,non_fall
1.174357,0.0447,0.0002,0.0048,0.0257,-0.0013,0.0099,42.6938,24.7313,17.475,,0.000600000000000156,0.04495742430344515,0.04446119743287893,non_fall
1.185818,0.0447,0.0002,0.0048,0.0257,-0.0013,0.0099,42.6562,24.6,17.5875,,0.011460999999999943,0.04495742430344515,0.04658112028603912,non_fall
1.212854,0.0447,0.0002,0.0048,0.0257,-0.0013,0.0099,42.6562,24.6,17.5875,,0.02703600000000006,0.04495742430344515,0.048368691979452684,non_fall
1.233041,0.0447,0.0002,0.0048,0.0274,-0.0099,-0.0019,42.6562,24.6,17.5875,,0.020186999999999955,0.04495742430344515,0.05009348789281049,non_fall
1.244898,0.0447,0.0002,0.0048,0.0274,-0.0099,-0.0019,42.7875,24.5438,17.625,,0.011857000000000006,0.04495742430344515,0.051900770872800484,non_fall
1.253159,-0.0486,-0.023,0.0153,0.0274,-0.0099,-0.0019,42.7875,24.5438,17.625,,0.008260999999999852,0.055902146649301404,0.05376443351318542,non_fall
1.273362,-0.0486,-0.023,0.0153,0.0274,-0.0099,-0.0019,42.7875,24.5438,17.625,,0.020203000000000193,0.055902146649301404,0.05549268604772923,non_fall
1.293432,-0.0486,-0.023,0.0153,0.0405,-0.019,-0.014,42.7875,24.5438,17.625,,0.02006999999999981,0.055902146649301404,0.056781953316630156,non_fall
1.304843,-0.0486,-0.023,0.0153,0.0405,-0.019,-0.014,42.8063,24.6563,17.5688,,0.01141100000000006,0.055902146649301404,0.057303488580091745,non_fall
1.313789,0.0271,0.0066,-0.0542,0.0405,-0.019,-0.014,42.8063,24.6563,17.5688,,0.00894600000000012,0.06095580366134138,0.05680113922257115,non_fall
1.334241,0.0271,0.0066,-0.0542,0.0405,-0.019,-0.014,42.8063,24.6563,17.5688,,0.020451999999999915,0.06095580366134138,0.055176677953926855,non_fall
1.353683,0.0271,0.0066,-0.0542,0.0569,0.0029,0.0013,42.8063,24.6563,17.5688,,0.01944199999999996,0.06095580366134138,0.05253987851121215,non_fall
1.365355,0.0271,0.0066,-0.0542,0.0569,0.0029,0.0013,42.6562,24.675,17.55,,0.011672000000000127,0.06095580366134138,0.049205535840819076,non_fall
1.374256,0.0245,-0.0089,-0.0213,0.0569,0.0029,0.0013,42.6562,24.675,17.55,,0.008900999999999826,0.033662293445337325,0.04563167653528691,non_fall
1.395259,0.0245,-0.0089,-0.0213,0.0569,0.0029,0.0013,42.6562,24.675,17.55,,0.021003000000000105,0.033662293445337325,0.04231178744840331,non_fall
1.41569,0.0245,-0.0089,-0.0213,0.0724,0.0246,0.0101,42.6562,24.675,17.55,,0.020430999999999866,0.033662293445337325,0.03965214694997185,non_fall
1.423774,0.0245,-0.0089,-0.0213,0.0724,0.0246,0.0101,42.4313,24.5438,17.5312,,0.008084000000000202,0.033662293445337325,0.037872891195450904,non_fall
1.455495,0.0245,-0.0089,-0.0213,0.0724,0.0246,0.0101,42.4313,24.5438,17.5312,,0.03172099999999989,0.033662293445337325,0.03696303343616971,non_fall
1.456531,-0.0306,-0.003,-0.0264,0.0724,0.0246,0.0101,42.4313,24.5438,17.5312,,0.0010360000000000369,0.04052554749784387,0.03670017265320757,non_fall
1.475302,-0.0306,-0.003,-0.0264,0.0778,0.0119,-0.004,42.4313,24.5438,17.5312,,0.01877099999999987,0.04052554749784387,0.036724981786079004,non_fall
1.486761,-0.0306,-0.003,-0.0264,0.0778,0.0119,-0.004,42.3375,24.6938,17.3813,,0.011459000000000108,0.04052554749784387,0.03664613276687974,non_fall
1.516051,-0.0306,-0.003,-0.0264,0.0778,0.0119,-0.004,42.3375,24.6938,17.3813,,0.029290000000000038,0.04052554749784387,0.03614612338056252,non_fall
1.516918,0.0147,0.0194,-0.0234,0.0778,0.0119,-0.004,42.3375,24.6938,17.3813,,0.0008669999999999511,0.03376403411916295,0.0350622771425793,non_fall
1.535933,0.0147,0.0194,-0.0234,0.075,-0.0024,0.008,42.3375,24.6938,17.3813,,0.019015000000000004,0.03376403411916295,0.033426974666163664,non_fall
1.543461,0.0147,0.0194,-0.0234,0.075,-0.0024,0.008,42.3,24.6938,17.1562,,0.007527999999999979,0.03376403411916295,0.031462359545878546,non_fall
1.576956,0.0147,0.0194,-0.0234,0.075,-0.0024,0.008,42.3,24.6938,17.1562,,0.03349500000000005,0.03376403411916295,0.029533667289515536,non_fall
1.577617,0.0182,0.0016,-0.0161,0.075,-0.0024,0.008,42.3,24.6938,17.1562,,0.0006610000000000227,0.024351796648296814,0.028071254173459254,non_fall
1.598619,0.0182,0.0016,-0.0161,0.0778,0.0364,0.0244,42.3,24.6938,17.1562,,0.021001999999999965,0.024351796648296814,0.027476063005216832,non_fall
1.603924,0.0182,0.0016,-0.0161,0.0778,0.0364,0.0244,42.3375,24.8813,16.8563,,0.005304999999999893,0.024351796648296814,0.028027400687008968,non_fall
1.645172,0.0182,0.0016,-0.0161,0.0778,0.0364,0.0244,42.3375,24.8813,16.8563,,0.04124800000000017,0.024351796648296814,0.0298133145130654,non_fall
1.645737,-0.0352,0.0056,-0.008,0.0778,0.0364,0.0244,42.3375,24.8813,16.8563,,0.0005649999999999267,0.036529440181858795,0.03269987917095989,non_fall
1.658007,-0.0352,0.0056,-0.008,0.0839,0.027,0.0137,42.3375,24.8813,16.8563,,0.012270000000000003,0.036529440181858795,0.0363467890760206,non_fall
1.666445,-0.0352,0.0056,-0.008,0.0839,0.027,0.0137,42.3,24.975,16.65,,0.008437999999999946,0.036529440181858795,0.040266529095595395,non_fall
1.699942,-0.0352,0.0056,-0.008,0.0839,0.027,0.0137,42.3,24.975,16.65,,0.03349700000000011,0.036529440181858795,0.04391690657784454,non_fall
1.718768,0.0531,-0.0045,0.0127,0.0839,0.027,0.0137,42.3,24.975,16.65,,0.01882600000000001,0.05478275276033508,0.04681218111540728,non_fall
1.719691,0.0531,-0.0045,0.0127,0.0739,0.0236,0.0218,42.3,24.975,16.65,,0.0009230000000000071,0.05478275276033508,0.048633633890037636,non_fall
1.724714,0.0531,-0.0045,0.0127,0.0739,0.0236,0.0218,42.2438,24.9563,16.5563,,0.005023,0.05478275276033508,0.04931569260280881,non_fall
1.761405,0.0531,-0.0045,0.0127,0.0739,0.0236,0.0218,42.2438,24.9563,16.5563,,0.03669100000000003,0.05478275276033508,0.049083321667952005,non_fall
1.781486,0.0319,0.0115,-0.0329,0.0739,0.0236,0.0218,42.2438,24.9563,16.5563,,0.020080999999999793,0.047246904660517175,0.04842485740105655,non_fall
1.782664,0.0319,0.0115,-0.0329,0.081,0.0814,0.0617,42.2438,24.9563,16.5563,,0.0011780000000001234,0.047246904660517175,0.04800028651607245,non_fall
1.784571,0.0319,0.0115,-0.0329,0.081,0.0814,0.0617,42.3563,24.9,16.575,,0.001906999999999881,0.047246904660517175,0.04850180252202599,non_fall
1.821204,0.0319,0.0115,-0.0329,0.081,0.0814,0.0617,42.3563,24.9,16.575,,0.03663300000000014,0.047246904660517175,0.05049550424086406,non_fall
1.841463,0.0319,0.0115,-0.0329,0.1041,0.0768,0.0535,42.3563,24.9,16.575,,0.020259000000000027,0.047246904660517175,0.05427795984371653,non_fall
1.842652,-0.0453,-0.0259,-0.0318,0.1041,0.0768,0.0535,42.3563,24.9,16.575,,0.0011889999999998846,0.06110761000071922,0.059779549730651534,non_fall
1.844124,-0.0453,-0.0259,-0.0318,0.1041,0.0768,0.0535,42.4313,24.9563,16.5938,,0.0014720000000001399,0.06110761000071922,0.06653949227028713,non_fall
1.88344,-0.0453,-0.0259,-0.0318,0.1041,0.0768,0.0535,42.4313,24.9563,16.5938,,0.03931599999999991,0.06110761000071922,0.07376684376314009,non_fall
1.902275,-0.0453,-0.0259,-0.0318,0.1425,0.0569,0.0482,42.4313,24.9563,16.5938,,0.018834999999999935,0.06110761000071922,0.08048855793827914,non_fall
1.902861,0.0804,0.0138,-0.066,0.1425,0.0569,0.0482,42.4313,24.9563,16.5938,,0.0005859999999999754,0.10493140616612359,0.08576840983884829,non_fall
1.903344,0.0804,0.0138,-0.066,0.1425,0.0569,0.0482,42.6375,24.9,16.6688,,0.0004830000000000112,0.10493140616612359,0.08895731443632363,non_fall
1.942429,0.0804,0.0138,-0.066,0.1425,0.0569,0.0482,42.6375,24.9,16.6688,,0.039085000000000036,0.10493140616612359,0.08991220454644323,non_fall
1.963768,0.0804,0.0138,-0.066,0.1425,0.0569,0.0482,42.6938,25.0313,16.725,,0.021338999999999997,0.10493140616612359,0.0891125816681207,non_fall
1.964883,0.0804,0.0138,-0.066,0.2422,0.1123,0.0457,42.6938,25.0313,16.725,,0.0011149999999999771,0.10493140616612359,0.08762288603983218,non_fall
1.982871,0.0243,-0.0664,-0.0061,0.2422,0.1123,0.0457,42.6938,25.0313,16.725,,0.017988000000000115,0.07096943003857366,0.08689139598260429,non_fall
2.00438,0.0243,-0.0664,-0.0061,0.2422,0.1123,0.0457,42.6938,25.0313,16.725,,0.02150899999999978,0.07096943003857366,0.08842747518586949,non_fall
2.024694,0.0243,-0.0664,-0.0061,0.2422,0.1123,0.0457,42.7313,25.0313,16.65,,0.020314000000000387,0.07096943003857366,0.09344071924892645,non_fall
2.025799,0.0243,-0.0664,-0.0061,0.3451,0.063,0.0248,42.7313,25.0313,16.65,,0.0011049999999999116,0.07096943003857366,0.10254104450529168,non_fall
2.044925,0.0219,-0.014,-0.1422,0.3451,0.063,0.0248,42.7313,25.0313,16.65,,0.019125999999999976,0.14455604449486018,0.11557860045001148,non_fall
2.066222,0.0219,-0.014,-0.1422,0.3451,0.063,0.0248,42.7313,25.0313,16.65,,0.021296999999999677,0.14455604449486018,0.13165351964515273,non_fall
2.08474,0.0219,-0.014,-0.1422,0.3451,0.063,0.0248,42.7125,24.9375,16.6875,,0.018518000000000256,0.14455604449486018,0.14927210214740944,forward_fall
2.08527,0.0219,-0.014,-0.1422,0.4129,0.0654,0.0542,42.7125,24.9375,16.6875,,0.0005299999999999194,0.14455604449486018,0.16659509478271906,forward_fall
2.105746,-0.0624,-0.0102,-0.1935,0.4129,0.0654,0.0542,42.7125,24.9375,16.6875,,0.02047599999999994,0.20356829320893763,0.18172245024121844,forward_fall
2.125518,-0.0624,-0.0102,-0.1935,0.4129,0.0654,0.0542,42.7125,24.9375,16.6875,,0.019772000000000123,0.20356829320893763,0.19296976124212345,forward_fall
2.144307,-0.0624,-0.0102,-0.1935,0.4129,0.0654,0.0542,42.6938,25.0688,16.6688,,0.018788999999999945,0.20356829320893763,0.19909727433707416,forward_fall
2.144923,-0.0624,-0.0102,-0.1935,0.4232,0.0029,0.024,42.6938,25.0688,16.6688,,0.0006159999999999499,0.20356829320893763,0.19945693073929902,forward_fall
2.187124,-0.0624,-0.0102,-0.1935,0.4232,0.0029,0.024,42.6938,25.0688,16.6688,,0.04220099999999993,0.20356829320893763,0.19403813005095696,forward_fall
2.188401,0.0407,-0.0108,-0.1515,0.4232,0.0029,0.024,42.6938,25.0688,16.6688,,0.0012769999999999726,0.1572430602602226,0.18341801524352438,forward_fall
2.205,0.0407,-0.0108,-0.1515,0.4232,0.0029,0.024,42.75,25.2375,16.5563,,0.016599000000000252,0.1572430602602226,0.1686453682760319,forward_fall
2.207919,0.0407,-0.0108,-0.1515,0.3991,0.043,0.0581,42.75,25.2375,16.5563,,0.002918999999999894,0.1572430602602226,0.15109735953003617,forward_fall
2.248199,0.0407,-0.0108,-0.1515,0.3991,0.043,0.0581,42.75,25.2375,16.5563,,0.040280000000000094,0.1572430602602226,0.13233999516726988,forward_fall
2.249308,0.0915,0.0299,-0.0097,0.3991,0.043,0.0581,42.75,25.2375,16.5563,,0.0011090000000000266,0.09674890180255277,0.11400258530171346,forward_fall
2.264567,0.0915,0.0299,-0.0097,0.3991,0.043,0.0581,42.6938,25.3125,16.3125,,0.015258999999999912,0.09674890180255277,0.0976612936535975,forward_fall
2.266894,0.0915,0.0299,-0.0097,0.3643,0.0888,0.0706,42.6938,25.3125,16.3125,,0.00232700000000019,0.09674890180255277,0.08472762785929316,forward_fall
2.308798,0.0047,0.055,0.0389,0.3643,0.0888,0.0706,42.6938,25.3125,16.3125,,0.04190399999999972,0.06752999333629466,0.07634731265271345,forward_fall
2.309713,0.0047,0.055,0.0389,0.3643,0.0888,0.0706,42.6938,25.3125,16.3125,,0.0009149999999999991,0.06752999333629466,0.07332149393319985,forward_fall
2.325035,0.0047,0.055,0.0389,0.3643,0.0888,0.0706,42.6,25.35,16.3688,,0.01532200000000028,0.06752999333629466,0.07606332486671899,forward_fall
2.327977,0.0047,0.055,0.0389,0.326,0.124,0.0738,42.6,25.35,16.3688,,0.002942,0.06752999333629466,0.08459968506120344,forward_fall
2.36928,0.0047,0.055,0.0389,0.326,0.124,0.0738,42.6,25.35,16.3688,,0.041302999999999646,0.06752999333629466,0.09861603897035753,forward_fall
2.370191,-0.1675,0.0704,-0.0682,0.326,0.124,0.0738,42.6,25.35,16.3688,,0.0009110000000003282,0.19407124980274643,0.11751768108490304,forward_fall
2.384792,-0.1675,0.0704,-0.0682,0.326,0.124,0.0738,42.3,25.5938,16.0688,,0.014600999999999864,0.19407124980274643,0.1404483724954202,forward_fall
2.389279,-0.1675,0.0704,-0.0682,0.4033,-0.0081,0.0254,42.3,25.5938,16.0688,,0.00448700000000013,0.19407124980274643,0.1661924485257961,forward_fall
2.43041,-0.1675,0.0704,-0.0682,0.4033,-0.0081,0.0254,42.3,25.5938,16.0688,,0.04113100000000003,0.19407124980274643,0.1929238168778973,forward_fall
2.444515,-0.1675,0.0704,-0.0682,0.4033,-0.0081,0.0254,42.3563,25.725,15.7688,,0.014104999999999812,0.19407124980274643,0.21786393137438476,forward_fall
2.450619,-0.1675,0.0704,-0.0682,0.4762,0.004,-0.0048,42.3563,25.725,15.7688,,0.006104000000000109,0.19407124980274643,0.237031872464796,forward_fall
2.45164,0.0407,-0.09,-0.0514,0.4762,0.004,-0.0048,42.3563,25.725,15.7688,,0.0010209999999997166,0.11134832733364251,0.24535270766998665,forward_fall
2.491158,0.0407,-0.09,-0.0514,0.4762,0.004,-0.0048,42.3563,25.725,15.7688,,0.039518000000000164,0.11134832733364251,0.23739017452146954,forward_fall
2.504687,0.0407,-0.09,-0.0514,0.4762,0.004,-0.0048,42.3188,25.9688,15.4875,,0.013529000000000124,0.11134832733364251,0.20886032186405695,forward_fall
2.511134,0.0407,-0.09,-0.0514,0.5804,0.1131,0.0322,42.3188,25.9688,15.4875,,0.0064470000000000915,0.11134832733364251,0.1588533337679213,forward_fall
2.511787,0.145,0.0719,-0.2171,0.5804,0.1131,0.0322,42.3188,25.9688,15.4875,,0.0006529999999997926,0.2707896231394401,0.09236731880650705,forward_fall
2.551794,0.145,0.0719,-0.2171,0.5804,0.1131,0.0322,42.3188,25.9688,15.4875,,0.040007000000000126,0.2707896231394401,0.022428215862919303,forward_fall
2.564611,0.145,0.0719,-0.2171,0.5804,0.1131,0.0322,42.3188,26.3438,15.15,,0.012817000000000078,0.2707896231394401,-0.029123203892205397,forward_fall
2.572377,0.145,0.0719,-0.2171,0.7946,0.1936,0.1047,42.3188,26.3438,15.15,,0.007765999999999718,0.2707896231394401,-0.03300648771529792,forward_fall
2.573824,0.1167,-0.0761,0.0568,0.7946,0.1936,0.1047,42.3188,26.3438,15.15,,0.0014470000000001981,0.15045378027819706,0.04357656356273571,forward_fall
2.614175,0.1167,-0.0761,0.0568,0.7946,0.1936,0.1047,42.3188,26.3438,15.15,,0.040350999999999804,0.15045378027819706,0.23082789780860427,forward_fall
2.62463,0.1167,-0.0761,0.0568,0.7946,0.1936,0.1047,42.2438,26.5125,14.8313,,0.010454999999999881,0.15045378027819706,0.5492446886722938,forward_fall
2.633407,0.1167,-0.0761,0.0568,1.1709,0.3594,0.1874,42.2438,26.5125,14.8313,,0.008777000000000257,0.15045378027819706,1.0033791158595131,forward_fall
2.654259,-0.7308,-1.5711,0.8551,1.1709,0.3594,0.1874,42.2438,26.5125,14.8313,,0.020852000000000093,1.9322577105551941,1.5785157887969876,forward_fall
2.675042,-0.7308,-1.5711,0.8551,1.1709,0.3594,0.1874,42.2438,26.5125,14.8313,,0.020782999999999774,1.9322577105551941,2.2418515963672956,forward_fall
2.684837,-0.7308,-1.5711,0.8551,1.1709,0.3594,0.1874,42.1313,26.5688,14.4188,,0.009794999999999998,1.9322577105551941,2.9487804710109478,forward_fall
2.693639,-0.7308,-1.5711,0.8551,1.9153,0.3274,0.4621,42.1313,26.5688,14.4188,,0.008802000000000199,1.9322577105551941,3.653704110132002,forward_fall
2.715403,-0.8227,-4.7998,4.9247,1.9153,0.3274,0.4621,42.1313,26.5688,14.4188,,0.021763999999999672,6.925863514392988,4.323466322936964,forward_fall
2.734491,-0.8227,-4.7998,4.9247,1.9153,0.3274,0.4621,42.1313,26.5688,14.4188,,0.019087999999999994,6.925863514392988,4.949901314476668,forward_fall
2.744265,-0.8227,-4.7998,4.9247,1.9153,0.3274,0.4621,42.5438,26.5125,12.4125,,0.009774000000000171,6.925863514392988,5.556655697738165,forward_fall
2.756216,-0.8227,-4.7998,4.9247,3.4847,0.5361,0.8562,42.5438,26.5125,12.4125,,0.011951000000000267,6.925863514392988,6.195857273688226,forward_fall
2.775985,-2.6439,-5.5634,1.6926,3.4847,0.5361,0.8562,42.5438,26.5125,12.4125,,0.019768999999999703,6.387998241233321,6.933227449569175,forward_fall
2.795248,-2.6439,-5.5634,1.6926,3.4847,0.5361,0.8562,42.5438,26.5125,12.4125,,0.01926300000000003,6.387998241233321,7.824835232426631,forward_fall
2.804008,-2.6439,-5.5634,1.6926,3.4847,0.5361,0.8562,42.5813,26.2875,10.95,,0.008760000000000101,6.387998241233321,8.892677783363164,forward_fall
2.81627,-2.6439,-5.5634,1.6926,4.2065,-2.0376,0.8519,42.5813,26.2875,10.95,,0.012261999999999773,6.387998241233321,10.107826951941757,forward_fall
2.838546,0.2977,-2.3097,-13.5388,4.2065,-2.0376,0.8519,42.5813,26.2875,10.95,,0.022276000000000185,13.737628791752964,11.388169979931643,forward_fall
2.856535,0.2977,-2.3097,-13.5388,4.2065,-2.0376,0.8519,42.5813,26.2875,10.95,,0.017989000000000033,13.737628791752964,12.613120794940428,forward_fall
2.865355,0.2977,-2.3097,-13.5388,4.2065,-2.0376,0.8519,42.5813,25.7813,8.2313,,0.00882000000000005,13.737628791752964,13.651943101110792,forward_fall
2.878154,0.2977,-2.3097,-13.5388,3.7805,-3.3301,-1.8103,42.5813,25.7813,8.2313,,0.012798999999999783,13.737628791752964,14.398263774158767,forward_fall
2.918188,0.2977,-2.3097,-13.5388,3.7805,-3.3301,-1.8103,42.5813,25.7813,8.2313,,0.0400339999999999,13.737628791752964,14.802387907466136,forward_fall
2.919187,1.747,-0.3128,-18.1353,3.7805,-3.3301,-1.8103,42.5813,25.7813,8.2313,,0.0009990000000001942,18.221936201457847,14.893976243845534,forward_fall
2.927,1.747,-0.3128,-18.1353,3.7805,-3.3301,-1.8103,42.0188,25.4813,4.5563,,0.00781300000000007,18.221936201457847,14.788594738849195,forward_fall
2.938106,1.747,-0.3128,-18.1353,2.6075,0.9486,-0.2671,42.0188,25.4813,4.5563,,0.011105999999999838,18.221936201457847,14.672652008244745,forward_fall
2.979035,1.747,-0.3128,-18.1353,2.6075,0.9486,-0.2671,42.0188,25.4813,4.5563,,0.040929000000000215,18.221936201457847,14.764366729611663,forward_fall
2.980251,-3.7083,4.6633,-8.1607,2.6075,0.9486,-0.2671,42.0188,25.4813,4.5563,,0.0012159999999998838,10.104201119831295,15.255203428823725,forward_fall
2.9846,-3.7083,4.6633,-8.1607,2.6075,0.9486,-0.2671,41.0438,25.725,1.575,,0.004348999999999936,10.104201119831295,16.245452679555836,forward_fall
2.998109,-3.7083,4.6633,-8.1607,3.7251,-1.6165,-0.9032,41.0438,25.725,1.575,,0.013508999999999993,10.104201119831295,17.695100762780193,forward_fall
3.039277,-3.7083,4.6633,-8.1607,3.7251,-1.6165,-0.9032,41.0438,25.725,1.575,,0.04116799999999987,10.104201119831295,19.411596305154838,forward_fall
3.040348,3.9872,2.798,27.7799,3.7251,-1.6165,-0.9032,41.0438,25.725,1.575,,0.0010710000000000441,28.203712731659998,21.086585584143148,forward_fall
3.045112,3.9872,2.798,27.7799,3.7251,-1.6165,-0.9032,39.3563,23.4375,-2.6813,,0.0047640000000002125,28.203712731659998,22.37618281966227,forward_fall
3.059415,3.9872,2.798,27.7799,-0.6212,-3.3578,0.0702,39.3563,23.4375,-2.6813,,0.014302999999999955,28.203712731659998,23.00117573581769,forward_fall
3.100228,3.9872,2.798,27.7799,-0.6212,-3.3578,0.0702,39.3563,23.4375,-2.6813,,0.04081299999999999,28.203712731659998,22.833785084344882,forward_fall
3.104347,3.9872,2.798,27.7799,-0.6212,-3.3578,0.0702,37.3125,23.5875,-8.1375,,0.004119000000000206,28.203712731659998,21.940937167788825,forward_fall
3.119997,3.9872,2.798,27.7799,0.5646,-0.0095,-3.1873,37.3125,23.5875,-8.1375,,0.015649999999999942,28.203712731659998,20.568133073006777,forward_fall
3.120522,2.3283,1.9481,-5.845,0.5646,-0.0095,-3.1873,37.3125,23.5875,-8.1375,,0.0005249999999996646,6.586357073527064,19.06723294349116,forward_fall
3.161198,2.3283,1.9481,-5.845,0.5646,-0.0095,-3.1873,37.3125,23.5875,-8.1375,,0.04067600000000038,6.586357073527064,17.79069483466164,forward_fall
3.164057,2.3283,1.9481,-5.845,0.5646,-0.0095,-3.1873,35.0438,23.6063,-13.7813,,0.002858999999999945,6.586357073527064,16.98803968387595,forward_fall
3.18143,-15.5036,3.4405,-13.4575,0.5646,-0.0095,-3.1873,35.0438,23.6063,-13.7813,,0.017373000000000083,20.815930425037454,16.74018723245469,forward_fall
3.183305,-15.5036,3.4405,-13.4575,-0.761,-4.1211,5.4026,35.0438,23.6063,-13.7813,,0.001874999999999627,20.815930425037454,16.95135953384029,forward_fall
3.221323,-15.5036,3.4405,-13.4575,-0.761,-4.1211,5.4026,35.0438,23.6063,-13.7813,,0.03801800000000011,20.815930425037454,17.394458512662432,forward_fall
3.226097,-15.5036,3.4405,-13.4575,-0.761,-4.1211,5.4026,32.4188,23.55,-19.5375,,0.004774000000000278,20.815930425037454,17.787478640099543,forward_fall
3.242728,-15.5036,3.4405,-13.4575,-0.019,-1.0642,-2.8902,32.4188,23.55,-19.5375,,0.01663099999999984,20.815930425037454,17.873264952811027,forward_fall
3.244722,15.2525,-1.9585,6.1361,-0.019,-1.0642,-2.8902,32.4188,23.55,-19.5375,,0.0019939999999998292,16.556756980459667,17.48076469476915,forward_fall
3.283637,15.2525,-1.9585,6.1361,-0.019,-1.0642,-2.8902,32.4188,23.55,-19.5375,,0.038915000000000255,16.556756980459667,16.556317778169188,forward_fall
3.286165,15.2525,-1.9585,6.1361,-0.019,-1.0642,-2.8902,27.2813,25.5938,-25.575,,0.0025279999999998637,16.556756980459667,15.163265603224925,forward_fall
3.303696,15.2525,-1.9585,6.1361,1.4553,-4.7896,-5.4242,27.2813,25.5938,-25.575,,0.017530999999999963,16.556756980459667,13.454926586781468,forward_fall
3.305101,-5.2473,3.5621,0.9319,1.4553,-4.7896,-5.4242,27.2813,25.5938,-25.575,,0.0014050000000001006,6.410238007281789,11.62995340028793,forward_fall
3.344687,-5.2473,3.5621,0.9319,1.4553,-4.7896,-5.4242,20.85,26.2125,-29.85,,0.0395859999999999,6.410238007281789,9.881656309228743,forward_fall
3.346416,-5.2473,3.5621,0.9319,1.4553,-4.7896,-5.4242,20.85,26.2125,-29.85,,0.0017290000000000916,6.410238007281789,8.354264308858374,forward_fall
3.364976,-5.2473,3.5621,0.9319,0.9671,-2.912,-0.8738,20.85,26.2125,-29.85,,0.01855999999999991,6.410238007281789,7.11743510694891,forward_fall
3.385918,3.2456,6.366,-0.4398,0.9671,-2.912,-0.8738,20.85,26.2125,-29.85,,0.020942000000000238,7.159140968021233,6.164448551957292,forward_fall
3.405709,3.2456,6.366,-0.4398,0.9671,-2.912,-0.8738,14.8875,26.625,-33.1313,,0.01979099999999967,7.159140968021233,5.431487686874772,forward_fall
3.406909,3.2456,6.366,-0.4398,0.9671,-2.912,-0.8738,14.8875,26.625,-33.1313,,0.001200000000000312,7.159140968021233,4.828972882009352,forward_fall
3.424926,3.2456,6.366,-0.4398,-0.3894,0.6036,0.2455,14.8875,26.625,-33.1313,,0.01801699999999995,7.159140968021233,4.273480326310257,forward_fall
3.44564,-1.3918,1.5693,0.2908,-0.3894,0.6036,0.2455,14.8875,26.625,-33.1313,,0.0207139999999999,2.117634144511275,3.710596325215679,forward_fall
3.464959,-1.3918,1.5693,0.2908,-0.3894,0.6036,0.2455,9.0563,26.9438,-35.9062,,0.019318999999999864,2.117634144511275,3.1238999123229174,forward_fall
3.466592,-1.3918,1.5693,0.2908,-0.3894,0.6036,0.2455,9.0563,26.9438,-35.9062,,0.0016329999999999956,2.117634144511275,2.5308766174834636,forward_fall
3.486588,-1.3918,1.5693,0.2908,-0.2097,0.1627,0.3438,9.0563,26.9438,-35.9062,,0.019995999999999903,2.117634144511275,1.9704288202755724,forward_fall
3.506017,0.5678,-0.4338,-0.318,-0.2097,0.1627,0.3438,9.0563,26.9438,-35.9062,,0.01942900000000014,0.7821146207558071,1.4875532530721989,forward_fall
3.524522,0.5678,-0.4338,-0.318,-0.2097,0.1627,0.3438,3.8625,27.4688,-37.4438,,0.018505000000000216,0.7821146207558071,1.1195511508607099,forward_fall
3.5261,0.5678,-0.4338,-0.318,-0.2097,0.1627,0.3438,3.8625,27.4688,-37.4438,,0.0015779999999998573,0.7821146207558071,0.8864218923613126,forward_fall
3.546263,0.5678,-0.4338,-0.318,-0.257,0.1449,0.1356,3.8625,27.4688,-37.4438,,0.020163000000000153,0.7821146207558071,0.7866378354867299,forward_fall
3.585262,0.5678,-0.4338,-0.318,-0.257,0.1449,0.1356,-0.4125,27.45,-38.6438,,0.038999000000000006,0.7821146207558071,0.798282261357879,forward_fall
3.587744,0.5678,-0.4338,-0.318,-0.257,0.1449,0.1356,-0.4125,27.45,-38.6438,,0.002481999999999651,0.7821146207558071,0.8845288347641065,forward_fall
3.588462,1.0602,-0.9983,0.1249,-0.257,0.1449,0.1356,-0.4125,27.45,-38.6438,,0.0007179999999999964,1.461583709542495,1.0017733146522183,forward_fall
3.608622,1.0602,-0.9983,0.1249,-0.126,0.3149,0.0067,-0.4125,27.45,-38.6438,,0.020160000000000178,1.461583709542495,1.1084273529834487,forward_fall
3.645466,1.0602,-0.9983,0.1249,-0.126,0.3149,0.0067,-4.4062,27.7125,-39.45,,0.03684399999999988,1.461583709542495,1.1724209353974397,forward_fall
3.648415,1.0602,-0.9983,0.1249,-0.126,0.3149,0.0067,-4.4062,27.7125,-39.45,,0.0029490000000000904,1.461583709542495,1.175876689334126,forward_fall
3.649293,0.1178,-0.7075,0.2832,-0.126,0.3149,0.0067,-4.4062,27.7125,-39.45,,0.0008780000000001564,0.7711260143452561,1.1162229574245475,forward_fall
3.669351,0.1178,-0.7075,0.2832,0.0462,-0.0521,-0.1013,-4.4062,27.7125,-39.45,,0.020057999999999687,0.7711260143452561,1.0040038122218073,forward_fall
3.70586,0.1178,-0.7075,0.2832,0.0462,-0.0521,-0.1013,-8.0625,27.9375,-39.9,,0.036509000000000125,0.7711260143452561,0.8584590001025255,forward_fall
3.710626,0.1178,-0.7075,0.2832,0.0462,-0.0521,-0.1013,-8.0625,27.9375,-39.9,,0.004766000000000048,0.7711260143452561,0.702281441379989,forward_fall
3.711477,0.156,0.2628,-0.1606,0.0462,-0.0521,-0.1013,-8.0625,27.9375,-39.9,,0.0008509999999999351,0.3452422338011385,0.5567877980695948,forward_fall
3.729366,0.156,0.2628,-0.1606,0.0285,-0.0134,-0.07,-8.0625,27.9375,-39.9,,0.017889000000000266,0.3452422338011385,0.4383087472945283,forward_fall
3.765522,0.156,0.2628,-0.1606,0.0285,-0.0134,-0.07,-9.9938,27.9,-39.825,,0.03615599999999963,0.3452422338011385,0.3561860104399792,forward_fall
3.769984,0.156,0.2628,-0.1606,0.0285,-0.0134,-0.07,-9.9938,27.9,-39.825,,0.004462000000000188,0.3452422338011385,0.31242287436810523,forward_fall
3.770877,0.0159,0.3815,-0.0937,0.0285,-0.0134,-0.07,-9.9938,27.9,-39.825,,0.0008930000000000327,0.3931599547258088,0.3027350879966623,forward_fall
3.792182,0.0159,0.3815,-0.0937,-0.0273,0.141,-0.014,-9.9938,27.9,-39.825,,0.021304999999999907,0.3931599547258088,0.31851427773616264,forward_fall
3.825132,0.0159,0.3815,-0.0937,-0.0273,0.141,-0.014,-9.7125,28.0313,-39.6375,,0.032950000000000035,0.3931599547258088,0.3491232514160356,forward_fall
3.831143,0.0159,0.3815,-0.0937,-0.0273,0.141,-0.014,-9.7125,28.0313,-39.6375,,0.006010999999999989,0.3931599547258088,0.3840143124192625,forward_fall
3.851352,0.0159,0.3815,-0.0937,-0.0435,0.1332,0.0154,-9.7125,28.0313,-39.6375,,0.02020899999999992,0.3931599547258088,0.4143402806169523,forward_fall
3.852609,-0.0997,0.4456,0.0457,-0.0435,0.1332,0.0154,-9.7125,28.0313,-39.6375,,0.0012570000000002857,0.4588986162541787,0.43392431526439973,forward_fall
3.885181,-0.0997,0.4456,0.0457,-0.0435,0.1332,0.0154,-9.3188,28.1438,-39.5063,,0.032572000000000045,0.4588986162541787,0.43960165530066453,forward_fall
3.893563,-0.0997,0.4456,0.0457,-0.0435,0.1332,0.0154,-9.3188,28.1438,-39.5063,,0.008381999999999667,0.4588986162541787,0.4310279254627669,forward_fall
3.912917,0.1635,0.2838,-0.0656,-0.0435,0.1332,0.0154,-9.3188,28.1438,-39.5063,,0.019354000000000315,0.33403300735107,0.4100924827006739,forward_fall
3.914968,0.1635,0.2838,-0.0656,-0.0893,0.2262,0.0325,-9.3188,28.1438,-39.5063,,0.002050999999999803,0.33403300735107,0.38011066780025266,forward_fall
3.945416,0.1635,0.2838,-0.0656,-0.0893,0.2262,0.0325,-9.0938,28.35,-39.4125,,0.03044799999999981,0.33403300735107,0.3449879547959989,forward_fall
3.9534,0.1635,0.2838,-0.0656,-0.0893,0.2262,0.0325,-9.0938,28.35,-39.4125,,0.007983999999999991,0.33403300735107,0.3085195263138649,forward_fall
3.972968,0.1635,0.2838,-0.0656,-0.0489,0.1449,0.0549,-9.0938,28.35,-39.4125,,0.01956800000000003,0.33403300735107,0.27390699063829343,forward_fall
3.975087,-0.0221,0.0418,0.1864,-0.0489,0.1449,0.0549,-9.0938,28.35,-39.4125,,0.002118999999999982,0.19230343210665796,0.24348742368474427,forward_fall
4.005406,-0.0221,0.0418,0.1864,-0.0489,0.1449,0.0549,-8.7563,28.425,-39.4875,,0.030318999999999985,0.19230343210665796,0.21863299064349315,forward_fall
4.014299,-0.0221,0.0418,0.1864,-0.0489,0.1449,0.0549,-8.7563,28.425,-39.4875,,0.008893000000000484,0.19230343210665796,0.19979408996722006,forward_fall
4.034823,-0.0221,0.0418,0.1864,-0.0156,0.0108,-0.0214,-8.7563,28.425,-39.4875,,0.020523999999999987,0.19230343210665796,0.1866766942411598,forward_fall
4.054979,0.18,0.079,0.0276,-0.0156,0.0108,-0.0214,-8.7563,28.425,-39.4875,,0.020156000000000063,0.19850128463060382,0.17852645469929926,forward_fall
4.065038,0.18,0.079,0.0276,-0.0156,0.0108,-0.0214,-8.4938,28.5,-39.4313,,0.01005900000000004,0.19850128463060382,0.1744501169057286,forward_fall
4.075062,0.18,0.079,0.0276,-0.0156,0.0108,-0.0214,-8.4938,28.5,-39.4313,,0.010023999999999589,0.19850128463060382,0.17367832268233754,non_fall
4.095625,0.18,0.079,0.0276,-0.0198,0.0505,-0.0108,-8.4938,28.5,-39.4313,,0.02056300000000011,0.19850128463060382,0.1756868835073089,non_fall
4.115391,0.0643,0.1377,-0.0522,-0.0198,0.0505,-0.0108,-8.4938,28.5,-39.4313,,0.019765999999999728,0.1606879584785369,0.1801433670735512,non_fall
4.125277,0.0643,0.1377,-0.0522,-0.0198,0.0505,-0.0108,-8.2313,28.5938,-39.45,,0.00988599999999984,0.1606879584785369,0.18671398550204724,non_fall
4.136035,0.0643,0.1377,-0.0522,-0.0198,0.0505,-0.0108,-8.2313,28.5938,-39.45,,0.010758000000000045,0.1606879584785369,0.19482599691240238,non_fall
4.15664,0.0643,0.1377,-0.0522,-0.0503,0.1099,0.002,-8.2313,28.5938,-39.45,,0.02060500000000065,0.1606879584785369,0.2035052544962172,non_fall
4.176535,0.0321,0.2352,-0.0376,-0.0503,0.1099,0.002,-8.2313,28.5938,-39.45,,0.019894999999999996,0.24033978031112535,0.2113810551528204,non_fall
4.185815,0.0321,0.2352,-0.0376,-0.0503,0.1099,0.002,-7.9313,28.8,-39.375,,0.00927999999999951,0.24033978031112535,0.21687962686373624,non_fall
4.198016,0.0321,0.2352,-0.0376,-0.0503,0.1099,0.002,-7.9313,28.8,-39.375,,0.012201000000000128,0.24033978031112535,0.2185473023768297,non_fall
4.217255,0.0321,0.2352,-0.0376,-0.0503,0.075,0.0013,-7.9313,28.8,-39.375,,0.019238999999999784,0.24033978031112535,0.215396894886535,non_fall
4.239433,0.0171,0.02,0.1731,-0.0503,0.075,0.0013,-7.9313,28.8,-39.375,,0.022178000000000253,0.1750886061398628,0.20717854665537835,non_fall
4.24518,0.0171,0.02,0.1731,-0.0503,0.075,0.0013,-7.5563,28.9875,-39.3375,,0.005747000000000391,0.1750886061398628,0.19452552600813094,non_fall
4.25747,0.0171,0.02,0.1731,-0.0503,0.075,0.0013,-7.5563,28.9875,-39.3375,,0.012289999999999246,0.1750886061398628,0.1789775946435839,non_fall
4.277697,0.0171,0.02,0.1731,-0.0216,-0.0201,-0.0108,-7.5563,28.9875,-39.3375,,0.020227000000000217,0.1750886061398628,0.16290552678914758,non_fall
4.305867,0.0171,0.02,0.1731,-0.0216,-0.0201,-0.0108,-7.3125,29.1,-39.2625,,0.02817000000000025,0.1750886061398628,0.14934452833231052,non_fall
4.318715,0.0171,0.02,0.1731,-0.0216,-0.0201,-0.0108,-7.3125,29.1,-39.2625,,0.01284799999999997,0.1750886061398628,0.14171689407172983,non_fall
4.320147,0.0849,0.1244,0.0136,-0.0216,-0.0201,-0.0108,-7.3125,29.1,-39.2625,,0.001432000000000322,0.15122278267509828,0.14341904412549406,non_fall
4.338995,0.0849,0.1244,0.0136,-0.055,0.0264,0.0137,-7.3125,29.1,-39.2625,,0.01884799999999931,0.15122278267509828,0.1572811596968654,non_fall
4.365568,0.0849,0.1244,0.0136,-0.055,0.0264,0.0137,-7.1625,29.1563,-39.0938,,0.026572999999999958,0.15122278267509828,0.18496816719750642,non_fall
4.37995,0.0849,0.1244,0.0136,-0.055,0.0264,0.0137,-7.1625,29.1563,-39.0938,,0.014382000000000339,0.15122278267509828,0.22644842503044246,non_fall
4.381434,0.2642,0.1796,-0.1163,-0.055,0.0264,0.0137,-7.1625,29.1563,-39.0938,,0.0014839999999995968,0.3399757197212766,0.2796767328870754,non_fall
4.400105,0.2642,0.1796,-0.1163,-0.1458,0.2237,0.0804,-7.1625,29.1563,-39.0938,,0.018671000000000326,0.3399757197212766,0.34060437621253625,non_fall
4.424905,0.2642,0.1796,-0.1163,-0.1458,0.2237,0.0804,-6.675,29.2875,-38.9813,,0.024799999999999933,0.3399757197212766,0.40355987067168747,non_fall
4.441525,0.2642,0.1796,-0.1163,-0.1458,0.2237,0.0804,-6.675,29.2875,-38.9813,,0.016620000000000523,0.3399757197212766,0.46197909734948417,non_fall
4.443382,-0.0288,0.5525,-0.2666,-0.1458,0.2237,0.0804,-6.675,29.2875,-38.9813,,0.0018569999999993314,0.6141345536606778,0.5094106251873443,non_fall
4.460938,-0.0288,0.5525,-0.2666,-0.3389,0.6669,0.2498,-6.675,29.2875,-38.9813,,0.017555999999999905,0.6141345536606778,0.5406481762210507,non_fall
4.485582,-0.0288,0.5525,-0.2666,-0.3389,0.6669,0.2498,-6.0375,29.6063,-38.7,,0.024644000000000332,0.6141345536606778,0.552745701647882,non_fall
4.501036,-0.0288,0.5525,-0.2666,-0.3389,0.6669,0.2498,-6.0375,29.6063,-38.7,,0.015454000000000079,0.6141345536606778,0.5456239148674729,non_fall
4.521998,-0.0288,0.5525,-0.2666,-0.334,0.818,0.2867,-6.0375,29.6063,-38.7,,0.020961999999999925,0.6141345536606778,0.5220528821814585,non_fall
4.523829,-0.2985,-0.1585,0.0792,-0.334,0.818,0.2867,-6.0375,29.6063,-38.7,,0.001831000000000138,0.34712697964865824,0.48698345760232903,non_fall
4.54508,-0.2985,-0.1585,0.0792,-0.334,0.818,0.2867,-5.2875,29.9813,-38.5125,,0.021250999999999465,0.34712697964865824,0.4464241295831348,non_fall
4.562417,-0.2985,-0.1585,0.0792,-0.334,0.818,0.2867,-5.2875,29.9813,-38.5125,,0.01733700000000038,0.34712697964865824,0.40622432945878484,non_fall
4.582378,-0.1871,0.0285,0.2967,-0.334,0.818,0.2867,-5.2875,29.9813,-38.5125,,0.01996100000000034,0.35192264775089427,0.37114819747791583,non_fall
4.583457,-0.1871,0.0285,0.2967,-0.072,0.0427,0.0112,-5.2875,29.9813,-38.5125,,0.00107899999999983,0.35192264775089427,0.3444854859680865,non_fall
4.604501,-0.1871,0.0285,0.2967,-0.072,0.0427,0.0112,-4.4625,30.2813,-38.25,,0.02104399999999984,0.35192264775089427,0.32822455166879216,non_fall
4.623041,-0.1871,0.0285,0.2967,-0.072,0.0427,0.0112,-4.4625,30.2813,-38.25,,0.01853999999999978,0.35192264775089427,0.3236181013114447,non_fall
4.643276,-0.1871,0.0285,0.2967,-0.1356,0.3388,0.0708,-4.4625,30.2813,-38.25,,0.020235000000000447,0.35192264775089427,0.3318693434637229,non_fall
4.648826,0.163,-0.4168,0.0073,-0.1356,0.3388,0.0708,-4.4625,30.2813,-38.25,,0.0055499999999995,0.44759862600325306,0.3546550552550474,non_fall
4.664962,0.163,-0.4168,0.0073,-0.1356,0.3388,0.0708,-3.7125,30.6938,-38.2125,,0.016136000000000372,0.44759862600325306,0.39425849331010776,non_fall
4.685678,0.163,-0.4168,0.0073,-0.1356,0.3388,0.0708,-3.7125,30.6938,-38.2125,,0.02071600000000018,0.44759862600325306,0.4531926288931583,non_fall
4.706548,0.163,-0.4168,0.0073,-0.0354,0.1453,0.0631,-3.7125,30.6938,-38.2125,,0.0208699999999995,0.44759862600325306,0.5333423052374248,non_fall
4.708406,-0.7382,-0.1173,0.0965,-0.0354,0.1453,0.0631,-3.7125,30.6938,-38.2125,,0.0018580000000003594,0.7536648990101635,0.6348110038603013,non_fall
4.726119,-0.7382,-0.1173,0.0965,-0.0354,0.1453,0.0631,-3.075,30.8813,-38.1,,0.017712999999999646,0.7536648990101635,0.7547731895721417,non_fall
4.746901,-0.7382,-0.1173,0.0965,-0.0354,0.1453,0.0631,-3.075,30.8813,-38.1,,0.020782000000000522,0.7536648990101635,0.8866876411181295,non_fall
4.767045,-0.7382,-0.1173,0.0965,0.5081,-0.9346,-0.7318,-3.075,30.8813,-38.1,,0.020144000000000162,0.7536648990101635,1.0202450145373076,non_fall
4.785824,-0.7382,-0.1173,0.0965,0.5081,-0.9346,-0.7318,-2.7563,31.0313,-38.1,,0.018778999999999435,0.7536648990101635,1.1423878520333395,non_fall
4.786958,1.3379,-0.1507,0.7659,0.5081,-0.9346,-0.7318,-2.7563,31.0313,-38.1,,0.0011340000000004125,1.5489640764071968,1.2395459635935568,non_fall
4.807285,1.3379,-0.1507,0.7659,0.5081,-0.9346,-0.7318,-2.7563,31.0313,-38.1,,0.020326999999999984,1.5489640764071968,1.3007995395046552,non_fall
4.827082,1.3379,-0.1507,0.7659,0.3995,-1.0262,-0.5859,-2.7563,31.0313,-38.1,,0.01979699999999962,1.5489640764071968,1.321160245887139,non_fall
4.846206,1.3379,-0.1507,0.7659,0.3995,-1.0262,-0.5859,-2.8125,31.05,-38.0625,,0.019123999999999697,1.5489640764071968,1.30388035380153,non_fall
4.848244,1.0741,-0.4276,0.0676,0.3995,-1.0262,-0.5859,-2.8125,31.05,-38.0625,,0.0020380000000006504,1.1580597264390124,1.2608947605840157,non_fall
4.867426,1.0741,-0.4276,0.0676,0.3995,-1.0262,-0.5859,-2.8125,31.05,-38.0625,,0.01918199999999981,1.1580597264390124,1.2110824185513671,non_fall
4.887957,1.0741,-0.4276,0.0676,0.469,-0.9155,-0.8667,-2.8125,31.05,-38.0625,,0.020531000000000077,1.1580597264390124,1.1766909954346279,non_fall
4.905628,1.0741,-0.4276,0.0676,0.469,-0.9155,-0.8667,-3.3938,30.825,-38.1,,0.017670999999999992,1.1580597264390124,1.178723823271284,non_fall
4.907014,0.642,-0.9398,-0.4837,0.469,-0.9155,-0.8667,-3.3938,30.825,-38.1,,0.0013860000000001094,1.236670420928713,1.2322548916494958,non_fall
4.927748,0.642,-0.9398,-0.4837,0.469,-0.9155,-0.8667,-3.3938,30.825,-38.1,,0.02073400000000003,1.236670420928713,1.342605449866507,non_fall
4.947971,0.642,-0.9398,-0.4837,-0.0499,0.0605,-0.431,-3.3938,30.825,-38.1,,0.020222999999999658,1.236670420928713,1.5032131160626048,non_fall
4.966517,0.642,-0.9398,-0.4837,-0.0499,0.0605,-0.431,-4.2938,30.5438,-38.2688,,0.01854599999999973,1.236670420928713,1.6958820179708003,non_fall
4.990994,0.642,-0.9398,-0.4837,-0.0499,0.0605,-0.431,-4.2938,30.5438,-38.2688,,0.024477000000000082,1.236670420928713,1.8938192137266183,non_fall
4.992475,-1.6452,-1.4506,-1.738,-0.0499,0.0605,-0.431,-4.2938,30.5438,-38.2688,,0.0014810000000000656,2.7984937734431354,2.067281468843293,non_fall
5.009077,-1.6452,-1.4506,-1.738,-0.2932,0.0711,-0.1659,-4.2938,30.5438,-38.2688,,0.016601999999999784,2.7984937734431354,2.1907569826707807,non_fall
5.025805,-1.6452,-1.4506,-1.738,-0.2932,0.0711,-0.1659,-5.475,29.9813,-38.2688,,0.01672800000000052,2.7984937734431354,2.249726963296622,non_fall
5.049885,-1.6452,-1.4506,-1.738,-0.2932,0.0711,-0.1659,-5.475,29.9813,-38.2688,,0.024079999999999657,2.7984937734431354,2.2448048931882427,non_fall
5.051155,-0.902,0.5995,-1.2695,-0.2932,0.0711,-0.1659,-5.475,29.9813,-38.2688,,0.0012699999999998823,1.6687224155023508,2.191810556064095,non_fall
5.070138,-0.902,0.5995,-1.2695,-0.2417,-0.3585,-0.0807,-5.475,29.9813,-38.2688,,0.018983000000000416,1.6687224155023508,2.117819165033771,non_fall
5.085672,-0.902,0.5995,-1.2695,-0.2417,-0.3585,-0.0807,-6.9,29.7188,-38.3438,,0.015533999999999715,1.6687224155023508,2.05466353230454,non_fall
5.11173,-0.902,0.5995,-1.2695,-0.2417,-0.3585,-0.0807,-6.9,29.7188,-38.3438,,0.026057999999999915,1.6687224155023508,2.0320367503587953,non_fall
5.114003,2.2919,0.3148,-0.855,-0.2417,-0.3585,-0.0807,-6.9,29.7188,-38.3438,,0.0022730000000006356,2.4663595946252443,2.0720091143358856,non_fall
5.131156,2.2919,0.3148,-0.855,-0.7621,0.5376,-0.2554,-6.9,29.7188,-38.3438,,0.01715299999999953,2.4663595946252443,2.185783028392623,non_fall
5.145832,2.2919,0.3148,-0.855,-0.7621,0.5376,-0.2554,-8.1188,29.4563,-37.9688,,0.014676000000000577,2.4663595946252443,2.372516473848974,non_fall
5.171878,2.2919,0.3148,-0.855,-0.7621,0.5376,-0.2554,-8.1188,29.4563,-37.9688,,0.026046000000000014,2.4663595946252443,2.6195733772265872,non_fall
5.173552,-1.404,-0.7474,2.597,-0.7621,0.5376,-0.2554,-8.1188,29.4563,-37.9688,,0.0016739999999995092,3.045362336405965,2.9036976925210762,non_fall
5.192274,-1.404,-0.7474,2.597,-0.5172,1.3452,0.1206,-8.1188,29.4563,-37.9688,,0.01872200000000035,3.045362336405965,3.1930405865119065,non_fall
5.205555,-1.404,-0.7474,2.597,-0.5172,1.3452,0.1206,-8.8875,29.6625,-37.7063,,0.013281000000000098,3.045362336405965,3.450314134010637,non_fall
5.232771,-1.404,-0.7474,2.597,-0.5172,1.3452,0.1206,-8.8875,29.6625,-37.7063,,0.02721599999999924,3.045362336405965,3.637419193994456,non_fall
5.253448,-1.404,-0.7474,2.597,0.1985,-0.2059,-0.2759,-8.8875,29.6625,-37.7063,,0.020677000000000056,3.045362336405965,3.721629255957811,non_fall
5.254909,-1.9306,3.2209,3.1178,0.1985,-0.2059,-0.2759,-8.8875,29.6625,-37.7063,,0.0014609999999999346,4.8807878472640045,3.6827028176522085,non_fall
5.266093,-1.9306,3.2209,3.1178,0.1985,-0.2059,-0.2759,-9.3375,29.9625,-37.0688,,0.011184000000000083,4.8807878472640045,3.519215235866266,non_fall
5.293581,-1.9306,3.2209,3.1178,0.1985,-0.2059,-0.2759,-9.3375,29.9625,-37.0688,,0.027487999999999957,4.8807878472640045,3.251548141395511,non_fall
5.313891,-0.4708,1.3836,-0.6505,0.1985,-0.2059,-0.2759,-9.3375,29.9625,-37.0688,,0.020310000000000272,1.5997349311682856,2.919321817670237,non_fall
5.315287,-0.4708,1.3836,-0.6505,0.5687,-1.4501,-0.8003,-9.3375,29.9625,-37.0688,,0.0013959999999997308,1.5997349311682856,2.5730245059421595,non_fall
5.32642,-0.4708,1.3836,-0.6505,0.5687,-1.4501,-0.8003,-9.225,30.5813,-36.8438,,0.01113300000000006,1.5997349311682856,2.2622511824590896,non_fall
5.354672,-0.4708,1.3836,-0.6505,0.5687,-1.4501,-0.8003,-9.225,30.5813,-36.8438,,0.028252000000000166,1.5997349311682856,2.0245662213647386,non_fall
5.374517,-0.4708,1.3836,-0.6505,-0.3124,-0.3109,-0.5763,-9.225,30.5813,-36.8438,,0.019845000000000113,1.5997349311682856,1.8785592533364128,non_fall
5.376089,1.4177,-0.038,-1.7134,-0.3124,-0.3109,-0.5763,-9.225,30.5813,-36.8438,,0.001572000000000351,2.2241980240077543,1.822712633916241,non_fall
5.385518,1.4177,-0.038,-1.7134,-0.3124,-0.3109,-0.5763,-9.4688,31.1625,-36.6938,,0.00942899999999991,2.2241980240077543,1.8395128616193832,non_fall
5.416282,1.4177,-0.038,-1.7134,-0.3124,-0.3109,-0.5763,-9.4688,31.1625,-36.6938,,0.03076399999999957,2.2241980240077543,1.902737075529661,non_fall
5.438071,1.4177,-0.038,-1.7134,-0.1466,-1.1288,-0.9075,-9.4688,31.1625,-36.6938,,0.02178900000000006,2.2241980240077543,1.9853419574821831,non_fall
5.44687,1.4177,-0.038,-1.7134,-0.1466,-1.1288,-0.9075,-10.4062,31.275,-36.0188,,0.00879899999999978,2.2241980240077543,2.0657711726087133,non_fall
5.456736,1.3332,-1.2227,-1.0997,-0.1466,-1.1288,-0.9075,-10.4062,31.275,-36.0188,,0.009866000000000597,2.1170162068345153,2.131413947870732,non_fall
5.476913,1.3332,-1.2227,-1.0997,-0.1466,-1.1288,-0.9075,-10.4062,31.275,-36.0188,,0.020176999999999445,2.1170162068345153,2.178961726784993,non_fall
5.496333,1.3332,-1.2227,-1.0997,-0.3071,-0.4795,-0.7946,-10.4062,31.275,-36.0188,,0.019420000000000215,2.1170162068345153,2.212222630656114,non_fall
5.505334,1.3332,-1.2227,-1.0997,-0.3071,-0.4795,-0.7946,-11.5875,31.5938,-35.4375,,0.00900100000000048,2.1170162068345153,2.2384373711650074,non_fall
5.517081,-0.2471,-1.6168,1.3938,-0.3071,-0.4795,-0.7946,-11.5875,31.5938,-35.4375,,0.01174699999999973,2.148901833495425,2.26428875891509,non_fall
5.537458,-0.2471,-1.6168,1.3938,-0.3071,-0.4795,-0.7946,-11.5875,31.5938,-35.4375,,0.020376999999999867,2.148901833495425,2.292677533633152,non_fall
5.564385,-0.2471,-1.6168,1.3938,0.1276,-0.4976,-0.6999,-11.5875,31.5938,-35.4375,,0.0269269999999997,2.148901833495425,2.3210429966765784,non_fall
5.565794,-0.2471,-1.6168,1.3938,0.1276,-0.4976,-0.6999,-12.8438,31.5563,-34.6688,,0.0014090000000006597,2.148901833495425,2.341608794846409,non_fall
5.577586,-1.1053,-1.0438,2.0108,0.1276,-0.4976,-0.6999,-12.8438,31.5563,-34.6688,,0.011791999999999803,2.520817956537124,2.3434681003029705,non_fall
5.598325,-1.1053,-1.0438,2.0108,0.1276,-0.4976,-0.6999,-12.8438,31.5563,-34.6688,,0.02073899999999984,2.520817956537124,2.3159292852065283,non_fall
5.618816,-1.1053,-1.0438,2.0108,0.5056,-0.6585,-0.3204,-12.8438,31.5563,-34.6688,,0.020490999999999815,2.520817956537124,2.2521344154632623,non_fall
5.628619,-1.1053,-1.0438,2.0108,0.5056,-0.6585,-0.3204,-14.625,31.0313,-34.125,,0.009802999999999784,2.520817956537124,2.1518183469762904,non_fall
5.639848,-1.3699,1.022,-0.2941,0.5056,-0.6585,-0.3204,-14.625,31.0313,-34.125,,0.011229000000000156,1.7342447405138641,2.022324476984355,non_fall
5.658854,-1.3699,1.022,-0.2941,0.5056,-0.6585,-0.3204,-14.625,31.0313,-34.125,,0.01900600000000008,1.7342447405138641,1.8775747832904908,non_fall
5.679026,-1.3699,1.022,-0.2941,0.3139,-0.1522,0.2057,-14.625,31.0313,-34.125,,0.020172000000000523,1.7342447405138641,1.735341158066396,non_fall
5.686101,-1.3699,1.022,-0.2941,0.3139,-0.1522,0.2057,-16.725,30.1875,-33.6375,,0.007074999999999498,1.7342447405138641,1.6135664360706248,non_fall
5.721106,-1.3699,1.022,-0.2941,0.3139,-0.1522,0.2057,-16.725,30.1875,-33.6375,,0.03500499999999995,1.7342447405138641,1.5265261598195108,non_fall
5.722852,-1.076,-0.4119,-0.2133,0.3139,-0.1522,0.2057,-16.725,30.1875,-33.6375,,0.0017459999999998033,1.1717228767929728,1.4814949500015175,non_fall
5.740405,-1.076,-0.4119,-0.2133,0.3558,-0.3186,0.2537,-16.725,30.1875,-33.6375,,0.017553000000000374,1.1717228767929728,1.4765357660096508,non_fall
5.744934,-1.076,-0.4119,-0.2133,0.3558,-0.3186,0.2537,-18.7125,29.4563,-33.5625,,0.004528999999999783,1.1717228767929728,1.5000682928042903,non_fall
5.781362,-1.076,-0.4119,-0.2133,0.3558,-0.3186,0.2537,-18.7125,29.4563,-33.5625,,0.036427999999999905,1.1717228767929728,1.5327422353753162,non_fall
5.783415,1.1095,0.8566,-1.3484,0.3558,-0.3186,0.2537,-18.7125,29.4563,-33.5625,,0.0020530000000000825,1.9449772158048535,1.5516276348045097,non_fall
5.801408,1.1095,0.8566,-1.3484,-0.1104,0.1613,0.5601,-18.7125,29.4563,-33.5625,,0.017993000000000592,1.9449772158048535,1.5359137363093556,non_fall
5.805192,1.1095,0.8566,-1.3484,-0.1104,0.1613,0.5601,-20.175,28.95,-33.075,,0.0037839999999995655,1.9449772158048535,1.4725514575412388,non_fall
5.841971,1.1095,0.8566,-1.3484,-0.1104,0.1613,0.5601,-20.175,28.95,-33.075,,0.03677900000000012,1.9449772158048535,1.3600346084381072,non_fall
5.844412,-0.2744,0.6241,-0.2537,-0.1104,0.1613,0.5601,-20.175,28.95,-33.075,,0.0024410000000001375,0.7274337495607417,1.2090304993541814,non_fall
5.862024,-0.2744,0.6241,-0.2537,-0.121,-0.0698,0.5317,-20.175,28.95,-33.075,,0.01761199999999974,0.7274337495607417,1.0396718964647793,non_fall
5.865779,-0.2744,0.6241,-0.2537,-0.121,-0.0698,0.5317,-21.225,28.6875,-32.5312,,0.003754999999999953,0.7274337495607417,0.8764829172126278,non_fall
5.905033,-0.2744,0.6241,-0.2537,-0.121,-0.0698,0.5317,-21.225,28.6875,-32.5312,,0.039254000000000566,0.7274337495607417,0.742557052516034,non_fall
5.923311,0.4086,-0.4024,0.023,-0.121,-0.0698,0.5317,-21.225,28.6875,-32.5312,,0.018277999999999572,0.5739413907360228,0.6545200211637827,non_fall
5.925121,0.4086,-0.4024,0.023,-0.1121,0.0225,0.7031,-21.225,28.6875,-32.5312,,0.0018099999999998673,0.5739413907360228,0.6192656528933149,non_fall
5.925768,0.4086,-0.4024,0.023,-0.1121,0.0225,0.7031,-21.825,28.725,-32.2313,,0.0006469999999998421,0.5739413907360228,0.6328787965796092,non_fall
5.96396,0.4086,-0.4024,0.023,-0.1121,0.0225,0.7031,-21.825,28.725,-32.2313,,0.03819200000000045,0.5739413907360228,0.6817582717420021,non_fall
5.984232,0.4086,-0.4024,0.023,0.0973,-0.0844,0.0127,-21.825,28.725,-32.2313,,0.02027200000000029,0.5739413907360228,0.745680579826918,non_fall
5.98584,0.4086,-0.4024,0.023,0.0973,-0.0844,0.0127,-22.0688,28.65,-32.0813,,0.0016079999999991657,0.5739413907360228,0.802291962875834,non_fall
5.986833,1.3596,0.1454,0.3135,0.0973,-0.0844,0.0127,-22.0688,28.65,-32.0813,,0.0009930000000002437,1.4028312692551446,0.8322090212262372,non_fall
6.026498,1.3596,0.1454,0.3135,0.0973,-0.0844,0.0127,-22.0688,28.65,-32.0813,,0.03966500000000028,1.4028312692551446,0.8235667897553238,non_fall
6.046362,1.3596,0.1454,0.3135,0.0874,-0.1473,-0.1652,-22.0688,28.65,-32.0813,,0.019864000000000104,1.4028312692551446,0.7746842611510665,non_fall
6.048163,-0.0726,0.004,-0.1518,0.0874,-0.1473,-0.1652,-22.0688,28.65,-32.0813,,0.0018009999999994974,0.16831518053936786,0.6938571090054109,non_fall
6.049046,-0.0726,0.004,-0.1518,0.0874,-0.1473,-0.1652,-22.1063,28.5188,-32.0063,,0.0008829999999999671,0.16831518053936786,0.5962519685988098,non_fall
6.086793,-0.0726,0.004,-0.1518,0.0874,-0.1473,-0.1652,-22.1063,28.5188,-32.0063,,0.03774700000000042,0.16831518053936786,0.49905076263949844,non_fall
6.106463,-0.0726,0.004,-0.1518,0.0874,-0.1473,-0.1652,-21.9188,28.875,-32.1562,,0.019669999999999632,0.16831518053936786,0.4166587771425145,non_fall
6.108523,-0.3198,0.1171,-0.2829,0.0874,-0.1473,-0.1652,-21.9188,28.875,-32.1562,,0.002060000000000173,0.44273791344315655,0.3575565885235852,non_fall
6.109487,-0.3198,0.1171,-0.2829,0.0296,-0.0663,-0.0176,-21.9188,28.875,-32.1562,,0.0009639999999997428,0.44273791344315655,0.32349150307464586,non_fall
6.146906,-0.3198,0.1171,-0.2829,0.0296,-0.0663,-0.0176,-21.9188,28.875,-32.1562,,0.03741900000000076,0.44273791344315655,0.31074183897026086,non_fall
6.168379,-0.3198,0.1171,-0.2829,0.0278,0.1237,0.1132,-21.9188,28.875,-32.1562,,0.02147299999999941,0.44273791344315655,0.3125786458271239,non_fall
6.171105,-0.3198,0.1171,-0.2829,0.0278,0.1237,0.1132,-21.6375,29.2313,-32.1,,0.002726000000000006,0.44273791344315655,0.3219106078194554,non_fall
6.186775,-0.3068,0.0448,0.1132,0.0278,0.1237,0.1132,-21.6375,29.2313,-32.1,,0.015670000000000073,0.3300719921471678,0.33331570621499756,non_fall
6.209144,-0.3068,0.0448,0.1132,0.0278,0.1237,0.1132,-21.6375,29.2313,-32.1,,0.022369000000000305,0.3300719921471678,0.34404745845816226,non_fall
6.224476,-0.3068,0.0448,0.1132,0.0278,0.1237,0.1132,-21.525,29.4,-31.8375,,0.015331999999999901,0.3300719921471678,0.35399064243104816,non_fall
6.228077,-0.3068,0.0448,0.1132,0.1065,0.1687,0.2822,-21.525,29.4,-31.8375,,0.0036009999999997433,0.3300719921471678,0.36482555132457395,non_fall
6.247743,-0.2484,-0.2068,0.1198,0.1065,0.1687,0.2822,-21.525,29.4,-31.8375,,0.01966599999999996,0.3447039889528405,0.37879832829349996,non_fall
6.268582,-0.2484,-0.2068,0.1198,0.1065,0.1687,0.2822,-21.525,29.4,-31.8375,,0.020839000000000496,0.3447039889528405,0.3975058782184479,non_fall
6.285371,-0.2484,-0.2068,0.1198,0.1065,0.1687,0.2822,-21.375,29.5688,-31.9688,,0.016788999999999277,0.3447039889528405,0.4210338322038137,non_fall
6.287236,-0.2484,-0.2068,0.1198,0.1442,0.1936,0.3772,-21.375,29.5688,-31.9688,,0.0018650000000004496,0.3447039889528405,0.4476681005426292,non_fall
6.309158,0.0339,0.4074,-0.4049,0.1442,0.1936,0.3772,-21.375,29.5688,-31.9688,,0.021921999999999997,0.5753850710611113,0.4742427048976863,non_fall
6.329153,0.0339,0.4074,-0.4049,0.1442,0.1936,0.3772,-21.375,29.5688,-31.9688,,0.019994999999999763,0.5753850710611113,0.49699813888664823,non_fall
6.345525,0.0339,0.4074,-0.4049,0.1442,0.1936,0.3772,-21.0563,29.7375,-32.3813,,0.016372000000000497,0.5753850710611113,0.5126541530099399,non_fall
6.349322,0.0339,0.4074,-0.4049,0.0541,0.108,0.3378,-21.0563,29.7375,-32.3813,,0.0037969999999996062,0.5753850710611113,0.5193308288068905,non_fall
6.392696,0.0339,0.4074,-0.4049,0.0541,0.108,0.3378,-21.0563,29.7375,-32.3813,,0.043374000000000024,0.5753850710611113,0.5170293728191795,non_fall
6.395364,-0.1271,-0.1703,-0.3384,0.0541,0.108,0.3378,-21.0563,29.7375,-32.3813,,0.0026679999999998927,0.39958861345138447,0.5075723892381807,non_fall
6.405837,-0.1271,-0.1703,-0.3384,0.0541,0.108,0.3378,-20.7375,29.7188,-32.5875,,0.010473000000000177,0.39958861345138447,0.4941131042231029,non_fall
6.409878,-0.1271,-0.1703,-0.3384,-0.1714,0.2024,0.5594,-20.7375,29.7188,-32.5875,,0.004040999999999961,0.39958861345138447,0.4804636921735835,non_fall
6.451948,0.4155,0.2947,0.1667,-0.1714,0.2024,0.5594,-20.7375,29.7188,-32.5875,,0.04206999999999983,0.5359824903856468,0.470499109923369,non_fall
6.453806,0.4155,0.2947,0.1667,-0.1714,0.2024,0.5594,-20.7375,29.7188,-32.5875,,0.0018580000000003594,0.5359824903856468,0.46776137845056964,non_fall
6.465943,0.4155,0.2947,0.1667,-0.1714,0.2024,0.5594,-20.3625,29.8688,-32.7375,,0.012137000000000064,0.5359824903856468,0.4752072509965835,non_fall
6.470169,0.4155,0.2947,0.1667,-0.0403,-0.045,0.3269,-20.3625,29.8688,-32.7375,,0.004226000000000063,0.5359824903856468,0.4949360924356247,non_fall
6.51236,0.4155,0.2947,0.1667,-0.0403,-0.045,0.3269,-20.3625,29.8688,-32.7375,,0.04219099999999987,0.5359824903856468,0.5277703255962364,non_fall
6.514218,-0.0827,0.1246,-0.5354,-0.0403,-0.045,0.3269,-20.3625,29.8688,-32.7375,,0.0018579999999994712,0.555893523977389,0.5727039377519555,non_fall
6.524208,-0.0827,0.1246,-0.5354,-0.0403,-0.045,0.3269,-19.8375,30.2813,-33.0188,,0.009990000000000165,0.555893523977389,0.626400410659185,non_fall
6.532523,-0.0827,0.1246,-0.5354,-0.1434,0.1981,0.3233,-19.8375,30.2813,-33.0188,,0.008315000000000516,0.555893523977389,0.6830358820638113,non_fall
6.572146,-0.0827,0.1246,-0.5354,-0.1434,0.1981,0.3233,-19.8375,30.2813,-33.0188,,0.03962299999999974,0.555893523977389,0.7347988620151596,non_fall
6.574024,-0.1829,0.025,0.8039,-0.1434,0.1981,0.3233,-19.8375,30.2813,-33.0188,,0.0018779999999996022,0.8248227809657054,0.7732437678658283,non_fall
6.585619,-0.1829,0.025,0.8039,-0.1434,0.1981,0.3233,-19.125,30.6,-33.1875,,0.011595000000000688,0.8248227809657054,0.7914509838201215,non_fall
6.592427,-0.1829,0.025,0.8039,-0.0262,-0.0457,0.5402,-19.125,30.6,-33.1875,,0.006807999999999481,0.8248227809657054,0.7866360467890512,non_fall
6.634127,-0.1829,0.025,0.8039,-0.0262,-0.0457,0.5402,-19.125,30.6,-33.1875,,0.041700000000000514,0.8248227809657054,0.762597165293653,non_fall
6.646066,-0.1829,0.025,0.8039,-0.0262,-0.0457,0.5402,-18.4125,31.0313,-33.3188,,0.011938999999999922,0.8248227809657054,0.7312889442664422,non_fall
6.658719,-0.6163,0.0649,0.7451,-0.0262,-0.0457,0.5402,-18.4125,31.0313,-33.3188,,0.01265299999999936,0.9691293566908392,0.7128681159643485,non_fall
6.660865,-0.6163,0.0649,0.7451,0.1979,-0.6041,0.7546,-18.4125,31.0313,-33.3188,,0.0021460000000006474,0.9691293566908392,0.7337420974634259,non_fall
6.6948,-0.6163,0.0649,0.7451,0.1979,-0.6041,0.7546,-18.4125,31.0313,-33.3188,,0.033934999999999604,0.9691293566908392,0.8224703033422233,non_fall
6.705145,-0.6163,0.0649,0.7451,0.1979,-0.6041,0.7546,-17.625,31.5938,-33.6375,,0.010345000000000049,0.9691293566908392,1.0038517381812044,non_fall
6.714658,-0.6163,0.0649,0.7451,-0.0194,-0.3922,1.2587,-17.625,31.5938,-33.6375,,0.009513000000000105,0.9691293566908392,1.2921378984199083,non_fall
6.715993,-0.5676,1.4569,-0.6547,-0.0194,-0.3922,1.2587,-17.625,31.5938,-33.6375,,0.0013350000000000861,1.695098657895758,1.6848679492634242,non_fall
6.755441,-0.5676,1.4569,-0.6547,-0.0194,-0.3922,1.2587,-17.625,31.5938,-33.6375,,0.03944800000000015,1.695098657895758,2.1591127641674914,non_fall
6.76517,-0.5676,1.4569,-0.6547,-0.0194,-0.3922,1.2587,-16.8563,32.325,-33.7125,,0.009729000000000099,1.695098657895758,2.671799303126091,non_fall
6.775665,-0.5676,1.4569,-0.6547,-0.6218,0.2166,0.8093,-16.8563,32.325,-33.7125,,0.010494999999999699,1.695098657895758,3.1652091951587975,non_fall
6.776665,0.2774,4.5796,2.0043,-0.6218,0.2166,0.8093,-16.8563,32.325,-33.7125,,0.001000000000000334,5.006686070645932,3.5775818649190083,non_fall
6.816312,0.2774,4.5796,2.0043,-0.6218,0.2166,0.8093,-16.8563,32.325,-33.7125,,0.039646999999999544,5.006686070645932,3.8569573207400993,non_fall
6.824715,0.2774,4.5796,2.0043,-0.6218,0.2166,0.8093,-16.1625,33.2812,-33.3,,0.008403000000000382,5.006686070645932,3.9745348621188787,non_fall
6.8366,0.2774,4.5796,2.0043,-0.8406,-0.4043,0.8181,-16.1625,33.2812,-33.3,,0.01188499999999948,5.006686070645932,3.9331125185154563,non_fall
6.856813,0.7044,1.8461,2.2233,-0.8406,-0.4043,0.8181,-16.1625,33.2812,-33.3,,0.020213000000000036,2.974445739965683,3.7674386595047693,non_fall
6.878148,0.7044,1.8461,2.2233,-0.8406,-0.4043,0.8181,-16.1625,33.2812,-33.3,,0.021335000000000548,2.974445739965683,3.5360792491296813,non_fall
6.887468,0.7044,1.8461,2.2233,-0.8406,-0.4043,0.8181,-15.5625,34.4062,-32.9062,,0.009319999999999773,2.974445739965683,3.3072481127592144,non_fall
6.898071,0.7044,1.8461,2.2233,-0.732,-1.148,0.7642,-15.5625,34.4062,-32.9062,,0.010602999999999696,2.974445739965683,3.142666439128569,non_fall
6.917672,-2.1905,-1.4606,-0.5997,-0.732,-1.148,0.7642,-15.5625,34.4062,-32.9062,,0.019600999999999758,2.7002375265890963,3.0835413971714685,non_fall
6.937017,-2.1905,-1.4606,-0.5997,-0.732,-1.148,0.7642,-15.5625,34.4062,-32.9062,,0.01934500000000039,2.7002375265890963,3.1417272188141747,non_fall
6.945141,-2.1905,-1.4606,-0.5997,-0.732,-1.148,0.7642,-15.225,35.5312,-32.4,,0.008123999999999576,2.7002375265890963,3.297809592442071,non_fall
6.957761,-2.1905,-1.4606,-0.5997,-0.6329,-1.3059,0.8405,-15.225,35.5312,-32.4,,0.012620000000000076,2.7002375265890963,3.506543123444651,non_fall
6.978382,-0.9722,-2.8084,-3.59,-0.6329,-1.3059,0.8405,-15.225,35.5312,-32.4,,0.020621000000000222,4.660513212082979,3.708659651386712,non_fall
6.999885,-0.9722,-2.8084,-3.59,-0.6329,-1.3059,0.8405,-15.225,35.5312,-32.4,,0.02150300000000005,4.660513212082979,3.846507371502854,non_fall
7.004957,-0.9722,-2.8084,-3.59,-0.6329,-1.3059,0.8405,-15.0,36.8625,-31.5,,0.0050720000000001875,4.660513212082979,3.879678991960183,non_fall
7.019955,-0.9722,-2.8084,-3.59,-1.0759,-1.9374,1.3067,-15.0,36.8625,-31.5,,0.014998000000000289,4.660513212082979,3.7964653109799507,non_fall
7.040113,-0.2455,0.2546,-3.1412,-1.0759,-1.9374,1.3067,-15.0,36.8625,-31.5,,0.020157999999999454,3.161048694658151,3.6180494196911956,non_fall
7.059413,-0.2455,0.2546,-3.1412,-1.0759,-1.9374,1.3067,-15.0,36.8625,-31.5,,0.019300000000000317,3.161048694658151,3.394471813143691,non_fall
7.065312,-0.2455,0.2546,-3.1412,-1.0759,-1.9374,1.3067,-14.8875,38.6063,-30.1313,,0.0058989999999994325,3.161048694658151,3.193613123611714,non_fall
7.080545,-0.2455,0.2546,-3.1412,-0.8818,-1.0689,2.1693,-14.8875,38.6063,-30.1313,,0.015233000000000274,3.161048694658151,3.085906386326491,non_fall
7.121934,-0.2455,0.2546,-3.1412,-0.8818,-1.0689,2.1693,-14.8875,38.6063,-30.1313,,0.041389000000000564,3.161048694658151,3.1279581008351522,non_fall
7.124617,-2.3248,1.6998,0.7853,-0.8818,-1.0689,2.1693,-14.8875,38.6063,-30.1313,,0.002682999999999325,2.985081434400074,3.348105839521121,non_fall
7.126661,-2.3248,1.6998,0.7853,-0.8818,-1.0689,2.1693,-14.4188,40.5938,-28.4813,,0.002044000000000601,2.985081434400074,3.7366662317354487,non_fall
7.142098,-2.3248,1.6998,0.7853,-1.0659,0.1907,2.8034,-14.4188,40.5938,-28.4813,,0.015436999999999479,2.985081434400074,4.243317158291534,non_fall
7.182334,-2.3248,1.6998,0.7853,-1.0659,0.1907,2.8034,-14.4188,40.5938,-28.4813,,0.04023600000000016,2.985081434400074,4.783336927066127,non_fall
7.184223,3.9943,-5.3106,-1.2967,-1.0659,0.1907,2.8034,-14.4188,40.5938,-28.4813,,0.0018890000000002516,6.770401446000082,5.252804423714133,non_fall
7.185351,3.9943,-5.3106,-1.2967,-1.0659,0.1907,2.8034,-13.1813,42.8625,-26.3063,,0.0011279999999995738,6.770401446000082,5.550281717935648,non_fall
7.201841,3.9943,-5.3106,-1.2967,0.1949,0.0012,0.4312,-13.1813,42.8625,-26.3063,,0.016490000000000116,6.770401446000082,5.599797243795294,non_fall
7.245968,3.9943,-5.3106,-1.2967,0.1949,0.0012,0.4312,-13.1813,42.8625,-26.3063,,0.04412700000000047,6.770401446000082,5.368643555521156,non_fall
7.247994,3.9943,-5.3106,-1.2967,0.1949,0.0012,0.4312,-11.9813,44.9813,-24.3938,,0.0020259999999998612,6.770401446000082,4.874631623887852,non_fall
7.249161,-0.1931,-1.2787,1.2497,0.1949,0.0012,0.4312,-11.9813,44.9813,-24.3938,,0.001166999999999696,1.7983635311026522,4.180717848268118,non_fall
7.262542,-0.1931,-1.2787,1.2497,-0.5843,-0.9133,1.8125,-11.9813,44.9813,-24.3938,,0.013380999999999865,1.7983635311026522,3.379078301092246,non_fall
7.306387,-0.1931,-1.2787,1.2497,-0.5843,-0.9133,1.8125,-11.9813,44.9813,-24.3938,,0.043845000000000134,1.7983635311026522,2.5700859072270337,non_fall
7.31123,-0.1931,-1.2787,1.2497,-0.5843,-0.9133,1.8125,-10.3688,46.8375,-22.275,,0.004843000000000153,1.7983635311026522,1.8426765117864685,non_fall
7.324271,-0.1931,-1.2787,1.2497,-1.3273,0.212,1.5047,-10.3688,46.8375,-22.275,,0.013041000000000302,1.7983635311026522,1.2608472064575171,non_fall
7.326967,-0.6206,0.0819,-0.4311,-1.3273,0.212,1.5047,-10.3688,46.8375,-22.275,,0.0026959999999993656,0.7600652471992125,0.8578710050235493,non_fall
7.365368,-0.6206,0.0819,-0.4311,-1.3273,0.212,1.5047,-10.3688,46.8375,-22.275,,0.03840100000000035,0.7600652471992125,0.6372024127385184,non_fall
7.367242,-0.6206,0.0819,-0.4311,-1.3273,0.212,1.5047,-8.2313,48.6563,-20.025,,0.0018739999999999313,0.7600652471992125,0.5779049175903115,non_fall
7.384719,-0.6206,0.0819,-0.4311,-0.634,0.0001,0.8637,-8.2313,48.6563,-20.025,,0.01747699999999952,0.7600652471992125,0.6424032282752729,non_fall
7.386473,-0.0836,-0.5501,-0.8763,-0.634,0.0001,0.8637,-8.2313,48.6563,-20.025,,0.0017540000000000333,1.0380272925120997,0.7847591240691592,non_fall
7.42698,-0.0836,-0.5501,-0.8763,-0.634,0.0001,0.8637,-5.6813,50.2875,-17.85,,0.04050700000000074,1.0380272925120997,0.9581410964926741,non_fall
7.42984,-0.0836,-0.5501,-0.8763,-0.634,0.0001,0.8637,-5.6813,50.2875,-17.85,,0.0028600000000000847,1.0380272925120997,1.1206687848732926,non_fall
7.447807,-0.0836,-0.5501,-0.8763,0.0093,0.1768,0.9008,-5.6813,50.2875,-17.85,,0.017966999999999622,1.0380272925120997,1.2393500736730119,non_fall
7.449119,-0.9033,0.4468,-0.8133,0.0093,0.1768,0.9008,-5.6813,50.2875,-17.85,,0.0013119999999995358,1.29500502701727,1.2922741391301604,non_fall
7.486243,-0.9033,0.4468,-0.8133,0.0093,0.1768,0.9008,-2.7375,51.6,-15.9188,,0.03712400000000038,1.29500502701727,1.2694320727799242,non_fall
7.487946,-0.9033,0.4468,-0.8133,0.0093,0.1768,0.9008,-2.7375,51.6,-15.9188,,0.00170300000000001,1.29500502701727,1.1724794453450427,non_fall
7.5064,-0.9033,0.4468,-0.8133,0.2457,-0.1302,0.384,-2.7375,51.6,-15.9188,,0.018454000000000192,1.29500502701727,1.0135789237428143,non_fall
7.508323,0.4128,-0.0309,0.1278,0.2457,-0.1302,0.384,-2.7375,51.6,-15.9188,,0.001922999999999675,0.4332337590723973,0.8133777529636781,non_fall
7.548414,0.4128,-0.0309,0.1278,0.2457,-0.1302,0.384,0.3,52.4438,-14.7375,,0.04009100000000032,0.4332337590723973,0.5982797171981749,non_fall
7.550149,0.4128,-0.0309,0.1278,0.2457,-0.1302,0.384,0.3,52.4438,-14.7375,,0.001735000000000042,0.4332337590723973,0.3973476499107124,non_fall
7.566906,0.4128,-0.0309,0.1278,-0.0103,0.2802,0.7135,0.3,52.4438,-14.7375,,0.016757000000000133,0.4332337590723973,0.23919666457866345,non_fall
7.587394,-0.1071,0.2421,0.1305,-0.0103,0.2802,0.7135,0.3,52.4438,-14.7375,,0.020487999999999396,0.29514923343962796,0.1490397634929337,non_fall
7.604893,-0.1071,0.2421,0.1305,-0.0103,0.2802,0.7135,3.15,52.8,-13.9125,,0.01749899999999993,0.29514923343962796,0.14582813438385733,non_fall
7.607896,-0.1071,0.2421,0.1305,-0.0103,0.2802,0.7135,3.15,52.8,-13.9125,,0.003003000000000533,0.29514923343962796,0.23944586532543816,non_fall
7.626955,-0.1071,0.2421,0.1305,0.3213,-0.1245,0.5426,3.15,52.8,-13.9125,,0.019058999999999493,0.29514923343962796,0.4282203269218571,non_fall
7.649074,0.4563,-0.1404,0.1842,0.3213,-0.1245,0.5426,3.15,52.8,-13.9125,,0.022119,0.5117142659727203,0.6974291108465408,non_fall
7.665615,0.4563,-0.1404,0.1842,0.3213,-0.1245,0.5426,5.5875,52.8563,-13.6688,,0.01654100000000014,0.5117142659727203,1.019796072097237,non_fall
7.66805,0.4563,-0.1404,0.1842,0.3213,-0.1245,0.5426,5.5875,52.8563,-13.6688,,0.002435000000000187,0.5117142659727203,1.3589744581803003,non_fall
7.688924,0.4563,-0.1404,0.1842,0.522,-0.1334,0.7017,5.5875,52.8563,-13.6688,,0.02087400000000006,0.5117142659727203,1.6765355385397267,non_fall
7.710406,-0.2675,-1.2727,3.2075,0.522,-0.1334,0.7017,5.5875,52.8563,-13.6688,,0.02148199999999978,3.461123775596591,1.9418619870068128,non_fall
7.723844,-0.2675,-1.2727,3.2075,0.522,-0.1334,0.7017,7.7813,52.575,-13.4813,,0.013437999999999839,3.461123775596591,2.142675254372563,non_fall
7.729769,-0.2675,-1.2727,3.2075,0.522,-0.1334,0.7017,7.7813,52.575,-13.4813,,0.005925000000000402,3.461123775596591,2.2924112186495895,non_fall
7.7511,-0.2675,-1.2727,3.2075,2.0782,-2.1196,0.5044,7.7813,52.575,-13.4813,,0.02133099999999999,3.461123775596591,2.430478623446797,non_fall
7.770402,-1.0783,-0.6698,1.88,2.0782,-2.1196,0.5044,7.7813,52.575,-13.4813,,0.01930199999999971,2.2684274134298414,2.6132768507732536,non_fall
7.785157,-1.0783,-0.6698,1.88,2.0782,-2.1196,0.5044,9.2812,51.7313,-14.475,,0.014755000000000074,2.2684274134298414,2.8971465252618356,non_fall
7.790614,-1.0783,-0.6698,1.88,2.0782,-2.1196,0.5044,9.2812,51.7313,-14.475,,0.005456999999999823,2.2684274134298414,3.317746645118467,non_fall
7.810943,-1.0783,-0.6698,1.88,2.0313,-2.8151,0.0563,9.2812,51.7313,-14.475,,0.020329000000000264,2.2684274134298414,3.8723525142135666,non_fall
7.847876,-1.0783,-0.6698,1.88,2.0313,-2.8151,0.0563,9.7688,50.2875,-16.6875,,0.03693300000000033,2.2684274134298414,4.511550037162488,non_fall
7.851739,-1.0783,-0.6698,1.88,2.0313,-2.8151,0.0563,9.7688,50.2875,-16.6875,,0.00386299999999995,2.2684274134298414,5.144661275637101,non_fall
7.852642,-0.7145,4.1722,-8.4756,2.0313,-2.8151,0.0563,9.7688,50.2875,-16.6875,,0.0009030000000000982,9.473835466694576,5.659183678638407,non_fall
7.87221,-0.7145,4.1722,-8.4756,-0.1458,-0.3226,0.6016,9.7688,50.2875,-16.6875,,0.019567999999999586,9.473835466694576,5.949292765541684,non_fall
7.905556,-0.7145,4.1722,-8.4756,-0.1458,-0.3226,0.6016,10.1063,48.8813,-19.1813,,0.033345999999999876,9.473835466694576,5.944067733567348,non_fall
7.914568,0.0605,-2.2157,2.506,-0.1458,-0.3226,0.6016,10.1063,48.8813,-19.1813,,0.009012000000000242,3.3455975161396805,5.6254842303767125,non_fall
7.917204,0.0605,-2.2157,2.506,-0.1458,-0.3226,0.6016,10.1063,48.8813,-19.1813,,0.0026359999999998607,3.3455975161396805,5.03062941743645,non_fall
7.933688,0.0605,-2.2157,2.506,0.6916,-0.1667,0.7444,10.1063,48.8813,-19.1813,,0.016484000000000165,3.3455975161396805,4.239519454953724,non_fall
7.965795,0.0605,-2.2157,2.506,0.6916,-0.1667,0.7444,10.3313,47.3813,-21.7313,,0.032106999999999886,3.3455975161396805,3.3548654520380206,non_fall
7.97329,0.0605,-2.2157,2.506,0.6916,-0.1667,0.7444,10.3313,47.3813,-21.7313,,0.0074950000000004735,3.3455975161396805,2.4807951158379193,non_fall
7.975736,0.0918,0.4271,0.3939,0.6916,-0.1667,0.7444,10.3313,47.3813,-21.7313,,0.002445999999999948,0.5882166777642401,1.7052377253940056,non_fall
7.994709,0.0918,0.4271,0.3939,-0.3308,0.1403,0.1993,10.3313,47.3813,-21.7313,,0.018972999999999907,0.5882166777642401,1.0881573864800713,non_fall
8.024325,0.0918,0.4271,0.3939,-0.3308,0.1403,0.1993,10.6875,46.125,-24.0188,,0.029615999999998976,0.5882166777642401,0.6563829617218664,non_fall
8.033385,0.0918,0.4271,0.3939,-0.3308,0.1403,0.1993,10.6875,46.125,-24.0188,,0.009060000000001622,0.5882166777642401,0.4049503221789742,non_fall
8.055236,0.0918,0.4271,0.3939,-0.11,0.1229,0.3131,10.6875,46.125,-24.0188,,0.021850999999999843,0.5882166777642401,0.3039051763848886,non_fall
8.056994,0.2908,-0.1442,-0.5766,-0.11,0.1229,0.3131,10.6875,46.125,-24.0188,,0.001757999999998816,0.6616840938091229,0.30849901941517194,non_fall
8.087196,0.2908,-0.1442,-0.5766,-0.11,0.1229,0.3131,10.6875,44.925,-26.25,,0.03020200000000095,0.6616840938091229,0.3701940134807574,non_fall
8.096991,0.2908,-0.1442,-0.5766,-0.11,0.1229,0.3131,10.6875,44.925,-26.25,,0.009794999999998666,0.6616840938091229,0.4461134753658877,non_fall
8.114591,0.2908,-0.1442,-0.5766,-0.1646,0.1794,0.4258,10.6875,44.925,-26.25,,0.017600000000001614,0.6616840938091229,0.5053391726294402,non_fall
8.116633,-0.1451,0.122,0.3184,-0.1646,0.1794,0.4258,10.6875,44.925,-26.25,,0.002041999999999433,0.370562504849047,0.5314408607042868,non_fall
8.147628,-0.1451,0.122,0.3184,-0.1646,0.1794,0.4258,10.4813,43.6313,-28.275,,0.030994999999998996,0.370562504849047,0.5215553655196647,non_fall
8.156622,-0.1451,0.122,0.3184,-0.1646,0.1794,0.4258,10.4813,43.6313,-28.275,,0.008994000000001279,0.370562504849047,0.48300653264040133,non_fall
8.175436,-0.1451,0.122,0.3184,0.0959,-0.3159,0.041,10.4813,43.6313,-28.275,,0.018813999999998998,0.370562504849047,0.42874742053103826,non_fall
8.178174,0.1395,-0.1567,0.1525,0.0959,-0.3159,0.041,10.4813,43.6313,-28.275,,0.0027380000000007954,0.2593672878371519,0.372819962048338,non_fall
8.205744,0.1395,-0.1567,0.1525,0.0959,-0.3159,0.041,10.425,42.5625,-30.0188,,0.027569999999998984,0.2593672878371519,0.32670848979173217,non_fall
8.217449,0.1395,-0.1567,0.1525,0.0959,-0.3159,0.041,10.425,42.5625,-30.0188,,0.011705000000000965,0.2593672878371519,0.2970827565951262,non_fall
8.237441,0.1395,-0.1567,0.1525,-0.2321,0.1949,0.3936,10.425,42.5625,-30.0188,,0.019992000000000232,0.2593672878371519,0.28507537043411935,non_fall
8.239155,0.2776,0.2237,0.022,-0.2321,0.1949,0.3936,10.425,42.5625,-30.0188,,0.0017139999999997713,0.35719385493034456,0.28694003318782463,non_fall
8.269111,0.2776,0.2237,0.022,-0.2321,0.1949,0.3936,10.7063,42.0,-30.9563,,0.029956000000000316,0.35719385493034456,0.29570664496187615,non_fall
8.281157,0.2776,0.2237,0.022,-0.2321,0.1949,0.3936,10.7063,42.0,-30.9563,,0.012045999999999779,0.35719385493034456,0.3033180774311232,non_fall
8.298418,0.2776,0.2237,0.022,-0.0663,0.1474,0.2931,10.7063,42.0,-30.9563,,0.017260999999999527,0.35719385493034456,0.30272444550365735,non_fall
8.318671,-0.0147,0.047,0.2718,-0.0663,0.1474,0.2931,10.7063,42.0,-30.9563,,0.0202530000000003,0.27622514367812356,0.2895138383324493,non_fall
8.32437,-0.0147,0.047,0.2718,-0.0663,0.1474,0.2931,11.6813,42.0563,-30.9375,,0.005698999999999899,0.27622514367812356,0.2628259070992926,non_fall
8.338766,-0.0147,0.047,0.2718,-0.0663,0.1474,0.2931,11.6813,42.0563,-30.9375,,0.014395999999999631,0.27622514367812356,0.22546468075421386,non_fall
8.359159,-0.0147,0.047,0.2718,-0.1451,0.1719,0.347,11.6813,42.0563,-30.9375,,0.020393000000000328,0.27622514367812356,0.18326004890657122,non_fall
8.379954,-0.038,0.0053,0.0131,-0.1451,0.1719,0.347,11.6813,42.0563,-30.9375,,0.020794999999999675,0.040542570219461914,0.14382844250817203,non_fall
8.384825,-0.038,0.0053,0.0131,-0.1451,0.1719,0.347,12.6,41.7938,-30.675,,0.004870999999999626,0.040542570219461914,0.11498077546175285,non_fall
8.400271,-0.038,0.0053,0.0131,-0.1451,0.1719,0.347,12.6,41.7938,-30.675,,0.015446000000000737,0.040542570219461914,0.10311343802031922,non_fall
8.42019,-0.038,0.0053,0.0131,-0.0156,-0.0188,0.1695,12.6,41.7938,-30.675,,0.019918999999999798,0.040542570219461914,0.11193593566102587,non_fall
8.441426,-0.1845,-0.1389,-0.0547,-0.0156,-0.0188,0.1695,12.6,41.7938,-30.675,,0.021236000000000033,0.23733004445286737,0.14178908950406957,non_fall
8.44393,-0.1845,-0.1389,-0.0547,-0.0156,-0.0188,0.1695,13.3125,41.7563,-30.375,,0.0025040000000000617,0.23733004445286737,0.18962491215926994,non_fall
8.460977,-0.1845,-0.1389,-0.0547,-0.0156,-0.0188,0.1695,13.3125,41.7563,-30.375,,0.017046999999999812,0.23733004445286737,0.24955182519931268,non_fall
8.481788,-0.1845,-0.1389,-0.0547,0.2088,-0.3304,0.0229,13.3125,41.7563,-30.375,,0.020811000000000135,0.23733004445286737,0.31377948756498913,non_fall
8.505456,-0.1845,-0.1389,-0.0547,0.2088,-0.3304,0.0229,13.7625,41.4563,-30.3,,0.02366800000000069,0.23733004445286737,0.3738237809573532,non_fall
8.521318,0.4375,0.2429,0.1996,0.2088,-0.3304,0.0229,13.7625,41.4563,-30.3,,0.015862000000000265,0.5387455985899096,0.42186592518359534,non_fall
8.523797,0.4375,0.2429,0.1996,0.2088,-0.3304,0.0229,13.7625,41.4563,-30.3,,0.002478999999999232,0.5387455985899096,0.4521131564358215,non_fall
8.542424,0.4375,0.2429,0.1996,-0.0269,-0.0077,0.2917,13.7625,41.4563,-30.3,,0.018627000000000393,0.5387455985899096,0.46189856948886415,non_fall
8.565573,0.4375,0.2429,0.1996,-0.0269,-0.0077,0.2917,14.1188,41.3438,-30.2625,,0.023149000000000086,0.5387455985899096,0.4521995707363926,non_fall
8.582408,0.4375,0.2429,0.1996,-0.0269,-0.0077,0.2917,14.1188,41.3438,-30.2625,,0.0168349999999986,0.5387455985899096,0.4273432293824687,non_fall
8.584662,-0.2011,0.0352,-0.1231,-0.0269,-0.0077,0.2917,14.1188,41.3438,-30.2625,,0.0022540000000006444,0.23839853187467408,0.393892392563531,non_fall
8.602667,-0.2011,0.0352,-0.1231,-0.0546,0.1372,0.2782,14.1188,41.3438,-30.2625,,0.018005000000000493,0.23839853187467408,0.35897978983820783,non_fall
8.624119,-0.2011,0.0352,-0.1231,-0.0546,0.1372,0.2782,14.6625,41.1,-30.1125,,0.021452000000000027,0.23839853187467408,0.32856545580154695,non_fall
8.643469,-0.2011,0.0352,-0.1231,-0.0546,0.1372,0.2782,14.6625,41.1,-30.1125,,0.019349999999999312,0.23839853187467408,0.30613225833877367,non_fall
8.647455,-0.2346,-0.2265,-0.0538,-0.0546,0.1372,0.2782,14.6625,41.1,-30.1125,,0.003986000000001155,0.3305054462486208,0.29217116534927356,non_fall
8.663907,-0.2346,-0.2265,-0.0538,0.1393,-0.1145,-0.0818,14.6625,41.1,-30.1125,,0.016451999999999245,0.3305054462486208,0.28452128774238106,non_fall
8.686348,-0.2346,-0.2265,-0.0538,0.1393,-0.1145,-0.0818,15.0188,40.95,-30.0,,0.0224410000000006,0.3305054462486208,0.27935919535226406,non_fall
8.705009,-0.2346,-0.2265,-0.0538,0.1393,-0.1145,-0.0818,15.0188,40.95,-30.0,,0.018660999999999817,0.3305054462486208,0.2724818982236298,non_fall
8.707,0.1751,0.1043,0.1192,0.1393,-0.1145,-0.0818,15.0188,40.95,-30.0,,0.001991000000000298,0.2361083225979127,0.26052344634580793,non_fall
8.724874,0.1751,0.1043,0.1192,0.0605,0.0441,0.0091,15.0188,40.95,-30.0,,0.017873999999999057,0.2361083225979127,0.24184492352312423,non_fall
8.747741,0.1751,0.1043,0.1192,0.0605,0.0441,0.0091,15.3188,40.65,-29.9813,,0.02286699999999975,0.2361083225979127,0.21696949084024594,non_fall
8.766451,0.1751,0.1043,0.1192,0.0605,0.0441,0.0091,15.3188,40.65,-29.9813,,0.01871000000000045,0.2361083225979127,0.18853699225069703,non_fall
8.787002,0.1751,0.1043,0.1192,0.3569,0.0441,0.0152,15.3188,40.65,-29.9813,,0.02055099999999932,0.2361083225979127,0.16081108629327845,non_fall
8.789905,-0.0293,0.0169,0.0581,0.3569,0.0441,0.0152,15.3188,40.65,-29.9813,,0.002902999999999878,0.06722878847636628,0.13881872020940203,non_fall
8.806248,-0.0293,0.0169,0.0581,0.3569,0.0441,0.0152,15.525,40.1438,-30.0938,,0.016343000000000885,0.06722878847636628,0.1272737934381397,non_fall
8.826128,-0.0293,0.0169,0.0581,0.3569,0.0441,0.0152,15.525,40.1438,-30.0938,,0.019880000000000564,0.06722878847636628,0.12952019988796995,non_fall
8.848082,-0.0293,0.0169,0.0581,-0.204,-0.0804,-0.0249,15.525,40.1438,-30.0938,,0.02195399999999914,0.06722878847636628,0.14676021867321318,non_fall
8.849784,0.1121,0.2301,0.0754,-0.204,-0.0804,-0.0249,15.525,40.1438,-30.0938,,0.0017019999999998703,0.2668287465772757,0.17776248951384627,non_fall
8.867207,0.1121,0.2301,0.0754,-0.204,-0.0804,-0.0249,15.75,40.0125,-30.2063,,0.017423000000000854,0.2668287465772757,0.2190899367437375,non_fall
8.889926,0.1121,0.2301,0.0754,-0.204,-0.0804,-0.0249,15.75,40.0125,-30.2063,,0.022719000000000378,0.2668287465772757,0.26573420142122917,non_fall
