time,ax,ay,az,wx,wy,wz,Bx,By,Bz,Unnamed: 10,time_diff,acc_mag,acc_mag_filtered,label
0.061698,0.0,0.0,0.0,0.0,0.0,0.0,0.0,0.0,0.0,,0.0,0.0,-0.0005744118746719247,non_fall
0.062083,0.0,0.0,0.0,0.0,0.0,0.0,0.0,0.0,0.0,,0.00038499999999999646,0.0,-0.0013310385552400333,non_fall
0.104106,0.0,0.0,0.0,-0.0401,-0.021,0.0107,0.0,0.0,0.0,,0.042023000000000005,0.0,-0.002135695148622615,non_fall
0.106069,0.0,0.0,0.0,-0.0401,-0.021,0.0107,-42.6878,15.921,-1.6958,,0.0019629999999999925,0.0,-0.002899979127833843,non_fall
0.121974,0.0,0.0,0.0,-0.0401,-0.021,0.0107,-42.6878,15.921,-1.6958,,0.015905000000000002,0.0,-0.0035129144866587296,non_fall
0.12301,0.0,0.0,0.0,-0.0401,-0.021,0.0107,-42.6878,15.921,-1.6958,,0.0010359999999999953,0.0,-0.0038468817715499627,non_fall
0.124023,0.0,0.0,0.0,-0.0401,-0.021,0.0107,-42.6878,15.921,-1.6958,,0.001013,0.0,-0.0037668187617912003,non_fall
0.158636,0.0,0.0,0.0,-0.0401,-0.021,0.0107,-42.7366,15.7868,-1.7446,,0.034613000000000005,0.0,-0.0031423900650899444,non_fall
0.173731,0.0,0.0,0.0,-0.025,-0.0085,0.0016,-42.7366,15.7868,-1.7446,,0.015094999999999997,0.0,-0.0018623678755109287,non_fall
0.17496,0.0,0.0,0.0,-0.025,-0.0085,0.0016,-42.7366,15.7868,-1.7446,,0.0012290000000000079,0.0,0.00015001858725030397,non_fall
0.187771,0.0,0.0,0.0,-0.025,-0.0085,0.0016,-42.7366,15.7868,-1.7446,,0.012810999999999989,0.0,0.0029224632239620227,non_fall
0.188771,0.0,0.0,0.0,-0.025,-0.0085,0.0016,-42.7366,15.7868,-1.7446,,0.0010000000000000009,0.0,0.006421743818171836,non_fall
0.189589,0.0,0.0,0.0,-0.025,-0.0085,0.0016,-42.7366,15.7868,-1.7446,,0.0008180000000000132,0.0,0.01054687648909626,non_fall
0.190377,0.0,0.0,0.0,-0.025,-0.0085,0.0016,-42.7366,15.7868,-1.7446,,0.0007879999999999832,0.0,0.015129351655355477,non_fall
0.208549,0.0,0.0,0.0,-0.025,-0.0085,0.0016,-42.7244,15.738,-1.6958,,0.01817200000000002,0.0,0.01994202784916043,non_fall
0.24414,0.0,0.0,0.0,-0.0088,0.0021,-0.0004,-42.7244,15.738,-1.6958,,0.035590999999999984,0.0,0.024717268631758632,non_fall
0.245691,-0.0088,-0.0443,0.0257,-0.0088,0.0021,-0.0004,-42.7244,15.738,-1.6958,,0.0015509999999999968,0.05196556552179529,0.029173386568086497,non_fall
0.256981,-0.0088,-0.0443,0.0257,-0.0088,0.0021,-0.0004,-42.7244,15.738,-1.6958,,0.011290000000000022,0.05196556552179529,0.03304655050624858,non_fall
0.258266,-0.0088,-0.0443,0.0257,-0.0088,0.0021,-0.0004,-42.7244,15.738,-1.6958,,0.0012849999999999806,0.05196556552179529,0.03612356401796555,non_fall
0.259049,-0.0088,-0.0443,0.0257,-0.0088,0.0021,-0.0004,-42.7244,15.738,-1.6958,,0.0007829999999999782,0.05196556552179529,0.03827014289388198,non_fall
0.260056,-0.0088,-0.0443,0.0257,-0.0088,0.0021,-0.0004,-42.8586,15.8112,-1.7812,,0.0010070000000000356,0.05196556552179529,0.039449951585421035,non_fall
0.308444,-0.0088,-0.0443,0.0257,-0.0088,0.0021,-0.0004,-42.8952,15.8356,-1.8544,,0.04838799999999999,0.05196556552179529,0.039731376742391106,non_fall
0.314281,-0.0088,-0.0443,0.0257,0.0027,0.0161,0.0063,-42.8952,15.8356,-1.8544,,0.005836999999999981,0.05196556552179529,0.03928112009421093,non_fall
0.314953,0.0059,-0.019,-0.0166,0.0027,0.0161,0.0063,-42.8952,15.8356,-1.8544,,0.0006720000000000059,0.0259108085555044,0.03834571367638799,non_fall
0.321545,0.0059,-0.019,-0.0166,0.0027,0.0161,0.0063,-42.8952,15.8356,-1.8544,,0.006592000000000042,0.0259108085555044,0.03722381907849069,non_fall
0.322084,0.0059,-0.019,-0.0166,0.0027,0.0161,0.0063,-42.8952,15.8356,-1.8544,,0.0005389999999999562,0.0259108085555044,0.03623346660892662,non_fall
0.322499,0.0059,-0.019,-0.0166,0.0027,0.0161,0.0063,-42.8952,15.8356,-1.8544,,0.0004149999999999987,0.0259108085555044,0.035678910336667105,non_fall
0.322912,0.0059,-0.019,-0.0166,0.0027,0.0161,0.0063,-42.8952,15.8356,-1.8544,,0.0004129999999999967,0.0259108085555044,0.03582138116995099,non_fall
0.359689,0.0059,-0.019,-0.0166,0.0027,0.0161,0.0063,-42.9074,15.799,-1.83,,0.036777000000000004,0.0259108085555044,0.036856937158854935,non_fall
0.382889,0.0059,-0.019,-0.0166,-0.0025,0.0514,0.0202,-42.9074,15.799,-1.83,,0.0232,0.0259108085555044,0.03890322341309413,non_fall
0.384666,0.048,-0.0206,-0.021,-0.0025,0.0514,0.0202,-42.9074,15.799,-1.83,,0.0017770000000000286,0.05629706919547411,0.04199551162845749,non_fall
0.387539,0.048,-0.0206,-0.021,-0.0025,0.0514,0.0202,-42.9074,15.799,-1.83,,0.0028730000000000144,0.05629706919547411,0.046091019384387755,non_fall
0.388254,0.048,-0.0206,-0.021,-0.0025,0.0514,0.0202,-42.9074,15.799,-1.83,,0.0007149999999999657,0.05629706919547411,0.05107944604394357,non_fall
0.388855,0.048,-0.0206,-0.021,-0.0025,0.0514,0.0202,-42.9074,15.799,-1.83,,0.0006010000000000182,0.05629706919547411,0.05679724283908918,non_fall
0.412317,0.048,-0.0206,-0.021,-0.0025,0.0514,0.0202,-42.9074,15.8112,-1.8422,,0.023461999999999983,0.05629706919547411,0.06304345714570221,non_fall
0.453083,0.048,-0.0206,-0.021,0.0317,0.0747,0.0182,-42.9074,15.8112,-1.8422,,0.040766000000000024,0.05629706919547411,0.06959568828048268,non_fall
0.45433,0.0876,0.0135,0.0371,0.0317,0.0747,0.0182,-42.9074,15.8112,-1.8422,,0.0012469999999999981,0.09608548277445454,0.0762251987070749,non_fall
0.455145,0.0876,0.0135,0.0371,0.0317,0.0747,0.0182,-42.9074,15.8112,-1.8422,,0.0008150000000000102,0.09608548277445454,0.08271026117732952,non_fall
0.455964,0.0876,0.0135,0.0371,0.0317,0.0747,0.0182,-42.9074,15.8112,-1.8422,,0.0008189999999999586,0.09608548277445454,0.0888466389782105,non_fall
0.456367,0.0876,0.0135,0.0371,0.0317,0.0747,0.0182,-42.9074,15.8112,-1.8422,,0.0004030000000000422,0.09608548277445454,0.09445424830960124,non_fall
0.472846,0.0876,0.0135,0.0371,0.0317,0.0747,0.0182,-42.883,15.8112,-1.9154,,0.016478999999999966,0.09608548277445454,0.0993798342143879,non_fall
0.524093,0.0876,0.0135,0.0371,0.0134,0.0663,0.0166,-42.883,15.8112,-1.9154,,0.05124700000000004,0.09608548277445454,0.10349661545548537,non_fall
0.525049,0.0876,0.0135,0.0371,0.0134,0.0663,0.0166,-42.883,15.8112,-1.9154,,0.0009559999999999569,0.09608548277445454,0.10670275113300712,non_fall
0.525484,0.0876,0.0135,0.0371,0.0134,0.0663,0.0166,-42.883,15.8112,-1.9154,,0.0004349999999999632,0.09608548277445454,0.10892078496669431,non_fall
0.525885,0.0876,0.0135,0.0371,0.0134,0.0663,0.0166,-42.883,15.8112,-1.9154,,0.0004010000000000957,0.09608548277445454,0.11009987106953205,non_fall
0.526286,0.0876,0.0135,0.0371,0.0134,0.0663,0.0166,-42.883,15.8112,-1.9154,,0.0004009999999999847,0.09608548277445454,0.11022166634773521,non_fall
0.52667,0.0717,-0.0139,0.097,0.0134,0.0663,0.0166,-42.883,15.8112,-1.9154,,0.00038399999999993994,0.1214211678415259,0.10930942828042219,non_fall
0.532613,0.0717,-0.0139,0.097,0.0134,0.0663,0.0166,-42.9318,15.8234,-1.9642,,0.005943000000000032,0.1214211678415259,0.10743831603375793,non_fall
0.588791,0.0717,-0.0139,0.097,0.0134,0.0663,0.0166,-42.9318,15.8234,-1.9642,,0.05617799999999995,0.1214211678415259,0.10474357886093535,non_fall
0.589571,0.0717,-0.0139,0.097,0.0134,0.0663,0.0166,-42.9318,15.8234,-1.9642,,0.0007800000000000029,0.1214211678415259,0.10142276288521553,non_fall
0.590196,0.0717,-0.0139,0.097,0.0134,0.0663,0.0166,-42.9318,15.8234,-1.9642,,0.0006250000000000977,0.1214211678415259,0.09772860991145081,non_fall
0.590621,0.0717,-0.0139,0.097,-0.0174,0.0522,0.0386,-42.9318,15.8234,-1.9642,,0.0004249999999998977,0.1214211678415259,0.09395089148007991,non_fall
0.59175,0.0717,-0.0139,0.097,-0.0174,0.0522,0.0386,-42.9318,15.86,-2.0618,,0.0011290000000000466,0.1214211678415259,0.0903877348192305,non_fall
0.59263,0.0363,0.0063,0.0176,-0.0174,0.0522,0.0386,-42.9318,15.86,-2.0618,,0.0008799999999999919,0.0408306257605734,0.08730981203485497,non_fall
0.650695,0.0363,0.0063,0.0176,-0.0174,0.0522,0.0386,-42.883,15.8356,-2.0618,,0.05806500000000003,0.0408306257605734,0.08492371904325907,non_fall
0.653347,0.0363,0.0063,0.0176,-0.0174,0.0522,0.0386,-42.883,15.8356,-2.0618,,0.0026519999999999877,0.0408306257605734,0.0833430748569166,non_fall
0.654066,0.0363,0.0063,0.0176,-0.0174,0.0522,0.0386,-42.883,15.8356,-2.0618,,0.0007190000000000252,0.0408306257605734,0.08257605454964373,non_fall
0.654697,0.0363,0.0063,0.0176,-0.0174,0.0522,0.0386,-42.883,15.8356,-2.0618,,0.0006309999999999372,0.0408306257605734,0.082535548729517,non_fall
0.660527,0.0363,0.0063,0.0176,-0.0888,0.0778,0.066,-42.883,15.8356,-2.0618,,0.005830000000000002,0.0408306257605734,0.083073455253098,non_fall
0.661619,0.106,0.0019,-0.0918,-0.0888,0.0778,0.066,-42.883,15.8356,-2.0618,,0.0010919999999999819,0.14023854676942427,0.08403495403074818,non_fall
0.714373,0.106,0.0019,-0.0918,-0.0888,0.0778,0.066,-42.7732,15.8234,-2.0252,,0.05275400000000008,0.14023854676942427,0.08532316263627623,non_fall
0.722151,0.106,0.0019,-0.0918,-0.0888,0.0778,0.066,-42.7732,15.8234,-2.0252,,0.007777999999999952,0.14023854676942427,0.08696063110671846,non_fall
0.723033,0.106,0.0019,-0.0918,-0.0888,0.0778,0.066,-42.7732,15.8234,-2.0252,,0.0008820000000000494,0.14023854676942427,0.08913320643845703,non_fall
0.723772,0.106,0.0019,-0.0918,-0.0888,0.0778,0.066,-42.7732,15.8234,-2.0252,,0.0007389999999999342,0.14023854676942427,0.09220458027729907,non_fall
0.724395,0.106,0.0019,-0.0918,-0.0888,0.0778,0.066,-42.7732,15.8234,-2.0252,,0.0006230000000000402,0.14023854676942427,0.09669549790638485,non_fall
0.732496,0.106,0.0019,-0.0918,-0.2419,-0.085,0.122,-42.7732,15.8234,-2.0252,,0.008101000000000025,0.14023854676942427,0.10322854761783175,non_fall
0.733762,0.0142,0.0441,-0.0448,-0.2419,-0.085,0.122,-42.7732,15.8234,-2.0252,,0.0012659999999999894,0.06444757559443179,0.11244643032054703,non_fall
0.772061,0.0142,0.0441,-0.0448,-0.2419,-0.085,0.122,-42.7,15.921,-1.9886,,0.03829899999999997,0.06444757559443179,0.12491780647276363,non_fall
0.789473,0.0142,0.0441,-0.0448,-0.2419,-0.085,0.122,-42.7,15.921,-1.9886,,0.017411999999999983,0.06444757559443179,0.1410491273576748,non_fall
0.790654,0.0142,0.0441,-0.0448,-0.2419,-0.085,0.122,-42.7,15.921,-1.9886,,0.0011809999999999876,0.06444757559443179,0.16102182006287494,non_fall
0.791541,0.0142,0.0441,-0.0448,-0.2419,-0.085,0.122,-42.7,15.921,-1.9886,,0.0008870000000000822,0.06444757559443179,0.18477085657404563,non_fall
0.804049,0.0142,0.0441,-0.0448,-0.3559,-0.1289,0.0073,-42.7,15.921,-1.9886,,0.012507999999999964,0.06444757559443179,0.21201324451731127,non_fall
0.805499,-0.3705,0.1343,-0.1147,-0.3559,-0.1289,0.0073,-42.7,15.921,-1.9886,,0.0014499999999999513,0.410442237105296,0.2423242040118893,non_fall
0.830217,-0.3705,0.1343,-0.1147,-0.3559,-0.1289,0.0073,-42.6634,16.0796,-2.0008,,0.024718000000000018,0.410442237105296,0.27524640271482814,non_fall
0.855101,-0.3705,0.1343,-0.1147,-0.3559,-0.1289,0.0073,-42.6634,16.0796,-2.0008,,0.024884000000000017,0.410442237105296,0.31040721203557614,non_fall
0.856666,-0.3705,0.1343,-0.1147,-0.3559,-0.1289,0.0073,-42.6634,16.0796,-2.0008,,0.0015650000000000386,0.410442237105296,0.3476154293913227,non_fall
0.857483,-0.3705,0.1343,-0.1147,-0.3559,-0.1289,0.0073,-42.6634,16.0796,-2.0008,,0.0008169999999999566,0.410442237105296,0.3869145257077969,non_fall
0.870728,-0.3705,0.1343,-0.1147,-0.1798,0.1895,-0.0549,-42.6634,16.0796,-2.0008,,0.013244999999999951,0.410442237105296,0.42858117442661786,non_fall
0.872145,-0.2951,0.3663,0.2831,-0.1798,0.1895,-0.0549,-42.6634,16.0796,-2.0008,,0.0014170000000000016,0.5490039253047286,0.47306999453094245,non_fall
0.890064,-0.2951,0.3663,0.2831,-0.1798,0.1895,-0.0549,-42.6146,16.1528,-1.9886,,0.017919000000000018,0.5490039253047286,0.5209144962648611,non_fall
0.921197,-0.2951,0.3663,0.2831,-0.1798,0.1895,-0.0549,-42.6146,16.1528,-1.9886,,0.031133000000000077,0.5490039253047286,0.5726000216226595,non_fall
0.922649,-0.2951,0.3663,0.2831,-0.1798,0.1895,-0.0549,-42.6146,16.1528,-1.9886,,0.0014520000000000088,0.5490039253047286,0.6284286133845163,non_fall
0.92375,-0.2951,0.3663,0.2831,-0.1798,0.1895,-0.0549,-42.6146,16.1528,-1.9886,,0.0011009999999999076,0.5490039253047286,0.6883988878922741,non_fall
0.924594,-0.2951,0.3663,0.2831,-0.1798,0.1895,-0.0549,-42.6146,16.1528,-1.9886,,0.0008440000000000669,0.5490039253047286,0.7521245921407422,non_fall
0.939863,-0.2951,0.3663,0.2831,-0.0499,0.5238,-0.0973,-42.6146,16.1528,-1.9886,,0.015268999999999977,0.5490039253047286,0.818810939351329,non_fall
0.941316,-0.2142,-0.3945,1.0621,-0.0499,0.5238,-0.0973,-42.6146,16.1528,-1.9886,,0.0014530000000000376,1.15306907858983,0.8872963004360999,non_fall
0.949761,-0.2142,-0.3945,1.0621,-0.0499,0.5238,-0.0973,-42.6146,16.2138,-2.074,,0.008444999999999925,1.15306907858983,0.9561496448327126,non_fall
0.989237,-0.2142,-0.3945,1.0621,-0.0499,0.5238,-0.0973,-42.6146,16.2138,-2.074,,0.03947600000000007,1.15306907858983,1.023797381088991,non_fall
0.990685,-0.2142,-0.3945,1.0621,-0.0499,0.5238,-0.0973,-42.6146,16.2138,-2.074,,0.0014480000000000048,1.15306907858983,1.088645900469615,non_fall
0.991812,-0.2142,-0.3945,1.0621,-0.0499,0.5238,-0.0973,-42.6146,16.2138,-2.074,,0.0011269999999999891,1.15306907858983,1.1491726204001964,non_fall
1.009927,-0.2142,-0.3945,1.0621,-0.0499,0.5238,-0.0973,-42.5292,16.226,-2.3546,,0.018114999999999992,1.15306907858983,1.2039739651034655,non_fall
1.011787,-0.508,0.4894,1.0522,-0.0499,0.5238,-0.0973,-42.5292,16.226,-2.3546,,0.0018599999999999728,1.266768013489447,1.251774421471169,non_fall
1.012836,-0.508,0.4894,1.0522,-0.0527,0.6069,-0.2001,-42.5292,16.226,-2.3546,,0.0010490000000000776,1.266768013489447,1.291410734942049,non_fall
1.055109,-0.508,0.4894,1.0522,-0.0527,0.6069,-0.2001,-42.5292,16.226,-2.3546,,0.042273000000000005,1.266768013489447,1.3218089805715014,non_fall
1.056743,-0.508,0.4894,1.0522,-0.0527,0.6069,-0.2001,-42.5292,16.226,-2.3546,,0.0016339999999999133,1.266768013489447,1.3419718717754667,non_fall
1.057512,-0.508,0.4894,1.0522,-0.0527,0.6069,-0.2001,-42.5292,16.226,-2.3546,,0.0007690000000000197,1.266768013489447,1.3509911034395052,non_fall
1.07072,-0.508,0.4894,1.0522,-0.0527,0.6069,-0.2001,-42.4926,16.1772,-2.6962,,0.013207999999999886,1.266768013489447,1.3480950287385371,non_fall
1.082242,-0.508,0.4894,1.0522,-0.2491,0.2316,-0.0541,-42.4926,16.1772,-2.6962,,0.011522000000000032,1.266768013489447,1.3327350767324635,non_fall
1.083909,-1.163,-0.129,0.561,-0.2491,0.2316,-0.0541,-42.4926,16.1772,-2.6962,,0.001667000000000085,1.2976636698312858,1.3047052241410633,non_fall
1.121067,-1.163,-0.129,0.561,-0.2491,0.2316,-0.0541,-42.4926,16.1772,-2.6962,,0.037158000000000024,1.2976636698312858,1.2642787715153736,non_fall
1.122719,-1.163,-0.129,0.561,-0.2491,0.2316,-0.0541,-42.4926,16.1772,-2.6962,,0.0016519999999999868,1.2976636698312858,1.2123375676640238,non_fall
1.123793,-1.163,-0.129,0.561,-0.2491,0.2316,-0.0541,-42.4926,16.1772,-2.6962,,0.0010740000000000194,1.2976636698312858,1.1504628633271576,non_fall
1.124596,-1.163,-0.129,0.561,-0.2491,0.2316,-0.0541,-42.4926,16.1772,-2.6962,,0.0008029999999998871,1.2976636698312858,1.0809561149989406,non_fall
1.129085,-1.163,-0.129,0.561,-0.2491,0.2316,-0.0541,-42.4804,16.1772,-3.2818,,0.004488999999999965,1.2976636698312858,1.006763729654996,non_fall
1.149013,-1.163,-0.129,0.561,-0.2965,0.4394,-0.1826,-42.4804,16.1772,-3.2818,,0.019928000000000168,1.2976636698312858,0.9312929940191268,non_fall
1.150514,0.1948,0.3751,-0.2183,-0.2965,0.4394,-0.1826,-42.4804,16.1772,-3.2818,,0.0015009999999999746,0.4757120347437092,0.8581277793406606,non_fall
1.189273,0.1948,0.3751,-0.2183,-0.2965,0.4394,-0.1826,-42.4316,16.0674,-3.965,,0.03875899999999999,0.4757120347437092,0.7906797550464125,non_fall
1.190901,0.1948,0.3751,-0.2183,-0.2965,0.4394,-0.1826,-42.4316,16.0674,-3.965,,0.0016279999999999628,0.4757120347437092,0.7318353040443226,non_fall
1.19196,0.1948,0.3751,-0.2183,-0.2965,0.4394,-0.1826,-42.4316,16.0674,-3.965,,0.0010589999999999211,0.4757120347437092,0.6836675803754502,non_fall
1.19273,0.1948,0.3751,-0.2183,-0.2965,0.4394,-0.1826,-42.4316,16.0674,-3.965,,0.0007700000000001594,0.4757120347437092,0.6472705418218073,non_fall
1.220697,0.1948,0.3751,-0.2183,-0.3147,0.5113,-0.3161,-42.4316,16.0674,-3.965,,0.027966999999999853,0.4757120347437092,0.6227429335386611,non_fall
1.222747,0.6843,-0.3803,-0.004,-0.3147,0.5113,-0.3161,-42.4316,16.0674,-3.965,,0.0020500000000001073,0.7828860581208482,0.609316844716586,non_fall
1.250059,0.6843,-0.3803,-0.004,-0.3147,0.5113,-0.3161,-42.3828,15.7624,-4.819,,0.027312000000000003,0.7828860581208482,0.6055964801195178,non_fall
1.253359,0.6843,-0.3803,-0.004,-0.3147,0.5113,-0.3161,-42.3828,15.7624,-4.819,,0.0032999999999998586,0.7828860581208482,0.6098532125079705,non_fall
1.254241,0.6843,-0.3803,-0.004,-0.3147,0.5113,-0.3161,-42.3828,15.7624,-4.819,,0.0008820000000000494,0.7828860581208482,0.6203164465089135,non_fall
1.255009,0.6843,-0.3803,-0.004,-0.3147,0.5113,-0.3161,-42.3828,15.7624,-4.819,,0.0007680000000001019,0.7828860581208482,0.6354072191171434,non_fall
1.289871,0.6843,-0.3803,-0.004,-0.3194,0.3694,-0.2202,-42.3828,15.7624,-4.819,,0.03486199999999995,0.7828860581208482,0.6538790934370089,non_fall
1.291825,0.642,-0.0064,0.1249,-0.3194,0.3694,-0.2202,-42.3828,15.7624,-4.819,,0.0019540000000000113,0.6540680163408084,0.6748528411510523,non_fall
1.309854,0.642,-0.0064,0.1249,-0.3194,0.3694,-0.2202,-42.2852,15.3842,-5.734,,0.018029000000000073,0.6540680163408084,0.6977528735304374,non_fall
1.322044,0.642,-0.0064,0.1249,-0.3194,0.3694,-0.2202,-42.2852,15.3842,-5.734,,0.012189999999999923,0.6540680163408084,0.7221710704242108,non_fall
1.323482,0.642,-0.0064,0.1249,-0.3194,0.3694,-0.2202,-42.2852,15.3842,-5.734,,0.0014380000000000503,0.6540680163408084,0.747694889947307,non_fall
1.324333,0.642,-0.0064,0.1249,-0.3194,0.3694,-0.2202,-42.2852,15.3842,-5.734,,0.0008509999999999351,0.6540680163408084,0.7737400321657594,non_fall
1.325206,0.642,-0.0064,0.1249,-0.3194,0.3694,-0.2202,-42.2852,15.3842,-5.734,,0.0008730000000001237,0.6540680163408084,0.7994241785155712,non_fall
1.361864,0.642,-0.0064,0.1249,-0.3166,0.3657,-0.0614,-42.2852,15.3842,-5.734,,0.03665799999999986,0.6540680163408084,0.823509209520541,non_fall
1.363735,0.4827,0.627,0.4371,-0.3166,0.3657,-0.0614,-42.2852,15.3842,-5.734,,0.001870999999999956,0.9039826878873289,0.844426240740039,non_fall
1.369362,0.4827,0.627,0.4371,-0.3166,0.3657,-0.0614,-42.1754,15.0426,-6.7588,,0.005627000000000049,0.9039826878873289,0.8603822372358139,non_fall
1.390778,0.4827,0.627,0.4371,-0.3166,0.3657,-0.0614,-42.1754,15.0426,-6.7588,,0.0214160000000001,0.9039826878873289,0.869531793512606,non_fall
1.392506,0.4827,0.627,0.4371,-0.3166,0.3657,-0.0614,-42.1754,15.0426,-6.7588,,0.0017279999999999518,0.9039826878873289,0.8701870245764652,non_fall
1.393357,0.4827,0.627,0.4371,-0.3166,0.3657,-0.0614,-42.1754,15.0426,-6.7588,,0.0008509999999999351,0.9039826878873289,0.8610348085999482,non_fall
1.431064,0.4827,0.627,0.4371,-0.3166,0.3657,-0.0614,-42.0534,14.7132,-7.7226,,0.037706999999999935,0.9039826878873289,0.84133262943995,non_fall
1.432909,0.4827,0.627,0.4371,-0.4131,0.3871,-0.0453,-42.0534,14.7132,-7.7226,,0.0018450000000000966,0.9039826878873289,0.8110590682917205,non_fall
1.434133,0.42,0.0927,0.5891,-0.4131,0.3871,-0.0453,-42.0534,14.7132,-7.7226,,0.0012240000000001139,0.7294053057114405,0.7710008834091621,non_fall
1.454952,0.42,0.0927,0.5891,-0.4131,0.3871,-0.0453,-42.0534,14.7132,-7.7226,,0.02081899999999992,0.7294053057114405,0.7227652629094071,non_fall
1.4563,0.42,0.0927,0.5891,-0.4131,0.3871,-0.0453,-42.0534,14.7132,-7.7226,,0.0013479999999999048,0.7294053057114405,0.668712566054717,non_fall
1.457139,0.42,0.0927,0.5891,-0.4131,0.3871,-0.0453,-42.0534,14.7132,-7.7226,,0.0008390000000000342,0.7294053057114405,0.6118103701103749,non_fall
1.499759,0.42,0.0927,0.5891,-0.3811,0.0977,-0.0097,-42.0534,14.7132,-7.7226,,0.0426200000000001,0.7294053057114405,0.5554138347964694,non_fall
1.501462,0.42,0.0927,0.5891,-0.3811,0.0977,-0.0097,-41.8826,14.4204,-8.5644,,0.00170300000000001,0.7294053057114405,0.5029826836955524,non_fall
1.502427,0.0891,0.044,0.1914,-0.3811,0.0977,-0.0097,-41.8826,14.4204,-8.5644,,0.0009649999999998826,0.21565892052034386,0.4577546323068598,non_fall
1.521665,0.0891,0.044,0.1914,-0.3811,0.0977,-0.0097,-41.8826,14.4204,-8.5644,,0.01923800000000009,0.21565892052034386,0.42240915875236695,non_fall
1.522858,0.0891,0.044,0.1914,-0.3811,0.0977,-0.0097,-41.8826,14.4204,-8.5644,,0.0011929999999999996,0.21565892052034386,0.39876904095353677,forward_fall
1.523891,0.0891,0.044,0.1914,-0.3811,0.0977,-0.0097,-41.8826,14.4204,-8.5644,,0.0010330000000000616,0.21565892052034386,0.3875917118509958,forward_fall
1.524915,0.0891,0.044,0.1914,-0.3811,0.0977,-0.0097,-41.8826,14.4204,-8.5644,,0.0010239999999999139,0.21565892052034386,0.38849330718807784,forward_fall
1.560661,0.0891,0.044,0.1914,-0.3811,0.0977,-0.0097,-41.7118,14.213,-9.2964,,0.035746000000000056,0.21565892052034386,0.400027985035915,forward_fall
1.569079,0.0891,0.044,0.1914,-0.404,0.13,0.0142,-41.7118,14.213,-9.2964,,0.008417999999999815,0.21565892052034386,0.41992010410555086,forward_fall
1.570088,-0.1663,0.0703,0.6934,-0.404,0.13,0.0142,-41.7118,14.213,-9.2964,,0.0010090000000000376,0.7165202997822183,0.4454214935672678,forward_fall
1.588973,-0.1663,0.0703,0.6934,-0.404,0.13,0.0142,-41.7118,14.213,-9.2964,,0.01888500000000004,0.7165202997822183,0.4737426831887059,forward_fall
1.590052,-0.1663,0.0703,0.6934,-0.404,0.13,0.0142,-41.7118,14.213,-9.2964,,0.0010790000000000521,0.7165202997822183,0.5024900045876582,forward_fall
1.590691,-0.1663,0.0703,0.6934,-0.404,0.13,0.0142,-41.7118,14.213,-9.2964,,0.0006390000000000562,0.7165202997822183,0.530036536779552,forward_fall
1.619744,-0.1663,0.0703,0.6934,-0.404,0.13,0.0142,-41.541,14.0544,-9.943,,0.029052999999999995,0.7165202997822183,0.5557670314438461,forward_fall
1.640533,-0.1663,0.0703,0.6934,-0.3318,0.1132,-0.015,-41.541,14.0544,-9.943,,0.020788999999999946,0.7165202997822183,0.5801608995211234,forward_fall
1.642632,0.1438,0.4293,0.3961,-0.3318,0.1132,-0.015,-41.541,14.0544,-9.943,,0.002099000000000073,0.6015580936202255,0.6047051145997667,forward_fall
1.654913,0.1438,0.4293,0.3961,-0.3318,0.1132,-0.015,-41.541,14.0544,-9.943,,0.012280999999999986,0.6015580936202255,0.6316545592890852,forward_fall
1.656421,0.1438,0.4293,0.3961,-0.3318,0.1132,-0.015,-41.541,14.0544,-9.943,,0.0015079999999998428,0.6015580936202255,0.663677818731797,forward_fall
1.657452,0.1438,0.4293,0.3961,-0.3318,0.1132,-0.015,-41.541,14.0544,-9.943,,0.0010310000000000041,0.6015580936202255,0.7034397143128476,forward_fall
1.678318,0.1438,0.4293,0.3961,-0.3318,0.1132,-0.015,-41.3824,13.9202,-10.492,,0.02086600000000005,0.6015580936202255,0.753176959583712,forward_fall
1.708853,0.1438,0.4293,0.3961,0.0957,0.449,-0.1806,-41.3824,13.9202,-10.492,,0.03053499999999998,0.6015580936202255,0.814320702172043,forward_fall
1.710276,-0.2983,0.6726,0.6724,0.0957,0.449,-0.1806,-41.3824,13.9202,-10.492,,0.001422999999999952,0.9967423990179207,0.8872106672118438,forward_fall
1.722908,-0.2983,0.6726,0.6724,0.0957,0.449,-0.1806,-41.3824,13.9202,-10.492,,0.012632000000000199,0.9967423990179207,0.9709318979736076,forward_fall
1.723967,-0.2983,0.6726,0.6724,0.0957,0.449,-0.1806,-41.3824,13.9202,-10.492,,0.0010589999999999211,0.9967423990179207,1.0632901997510826,forward_fall
1.724646,-0.2983,0.6726,0.6724,0.0957,0.449,-0.1806,-41.3824,13.9202,-10.492,,0.0006789999999998741,0.9967423990179207,1.1609310348326451,forward_fall
1.725305,-0.2983,0.6726,0.6724,0.0957,0.449,-0.1806,-41.3824,13.9202,-10.492,,0.0006590000000001872,0.9967423990179207,1.2596003516253065,forward_fall
1.738461,-0.2983,0.6726,0.6724,0.0957,0.449,-0.1806,-41.1628,13.847,-11.0776,,0.013155999999999946,0.9967423990179207,1.3545402542253209,forward_fall
1.77911,-0.2983,0.6726,0.6724,0.2116,0.6691,-0.1103,-41.1628,13.847,-11.0776,,0.040648999999999935,0.9967423990179207,1.4410003674828233,forward_fall
1.783784,-0.2807,1.3275,1.5724,0.2116,0.6691,-0.1103,-41.1628,13.847,-11.0776,,0.004674000000000067,2.076894436412212,1.5148228397254784,forward_fall
1.789016,-0.2807,1.3275,1.5724,0.2116,0.6691,-0.1103,-41.1628,13.847,-11.0776,,0.005231999999999903,2.076894436412212,1.5730277140251183,forward_fall
1.790251,-0.2807,1.3275,1.5724,0.2116,0.6691,-0.1103,-41.1628,13.847,-11.0776,,0.0012350000000000971,2.076894436412212,1.6142981020139888,forward_fall
1.791309,-0.2807,1.3275,1.5724,0.2116,0.6691,-0.1103,-41.1628,13.847,-11.0776,,0.0010580000000000034,2.076894436412212,1.6392589977258538,forward_fall
1.797714,-0.2807,1.3275,1.5724,0.2116,0.6691,-0.1103,-40.8822,13.7128,-11.7974,,0.006404999999999994,2.076894436412212,1.6504696316694552,forward_fall
1.848504,-0.2807,1.3275,1.5724,0.2384,0.475,0.0415,-40.8822,13.7128,-11.7974,,0.05078999999999989,2.076894436412212,1.6521006310311601,forward_fall
1.851792,-0.3082,0.3417,1.142,0.2384,0.475,0.0415,-40.8822,13.7128,-11.7974,,0.0032880000000001797,1.2312230220394678,1.6493289122479837,forward_fall
1.853894,-0.3082,0.3417,1.142,0.2384,0.475,0.0415,-40.8822,13.7128,-11.7974,,0.0021019999999998262,1.2312230220394678,1.6475420596667807,forward_fall
1.855843,-0.3082,0.3417,1.142,0.2384,0.475,0.0415,-40.8822,13.7128,-11.7974,,0.0019489999999999785,1.2312230220394678,1.6514881741554068,forward_fall
1.857387,-0.3082,0.3417,1.142,0.2384,0.475,0.0415,-40.8822,13.7128,-11.7974,,0.0015439999999999898,1.2312230220394678,1.6645243791815834,forward_fall
1.858911,-0.3082,0.3417,1.142,0.2384,0.475,0.0415,-40.5162,13.5298,-12.627,,0.0015240000000000808,1.2312230220394678,1.688101416697463,forward_fall
1.91802,-0.3082,0.3417,1.142,0.2579,0.31,-0.0854,-40.5162,13.5298,-12.627,,0.05910900000000008,1.2312230220394678,1.7215795239997125,forward_fall
1.920674,-0.3082,0.3417,1.142,0.2579,0.31,-0.0854,-40.0648,13.2492,-13.5176,,0.002653999999999934,1.2312230220394678,1.762414484017432,forward_fall
1.922007,-0.9721,0.7831,1.8615,0.2579,0.31,-0.0854,-40.0648,13.2492,-13.5176,,0.0013330000000000286,2.2412956676886697,1.8066912350039044,forward_fall
1.923741,-0.9721,0.7831,1.8615,0.2579,0.31,-0.0854,-40.0648,13.2492,-13.5176,,0.0017339999999999023,2.2412956676886697,1.8499216608431142,forward_fall
1.924677,-0.9721,0.7831,1.8615,0.2579,0.31,-0.0854,-40.0648,13.2492,-13.5176,,0.0009360000000000479,2.2412956676886697,1.887973616323934,forward_fall
1.925604,-0.9721,0.7831,1.8615,0.2579,0.31,-0.0854,-40.0648,13.2492,-13.5176,,0.0009270000000001222,2.2412956676886697,1.9179746053999602,forward_fall
1.926476,-0.9721,0.7831,1.8615,0.2579,0.31,-0.0854,-40.0648,13.2492,-13.5176,,0.0008719999999999839,2.2412956676886697,1.9390432085215452,forward_fall
1.977641,-0.9721,0.7831,1.8615,0.2579,0.31,-0.0854,-39.6622,12.8832,-14.5302,,0.051164999999999905,2.2412956676886697,1.9527366508152584,forward_fall
1.98883,-0.9721,0.7831,1.8615,-0.1543,0.2803,-0.1529,-39.6622,12.8832,-14.5302,,0.011189000000000116,2.2412956676886697,1.9631487871095203,forward_fall
1.992069,-0.4649,1.8166,0.9559,-0.1543,0.2803,-0.1529,-39.6622,12.8832,-14.5302,,0.003238999999999992,2.104735703122841,1.9766389107183409,forward_fall
1.996195,-0.4649,1.8166,0.9559,-0.1543,0.2803,-0.1529,-39.6622,12.8832,-14.5302,,0.004125999999999852,2.104735703122841,2.0012146803164796,forward_fall
1.997876,-0.4649,1.8166,0.9559,-0.1543,0.2803,-0.1529,-39.6622,12.8832,-14.5302,,0.0016810000000000436,2.104735703122841,2.0456307427248266,forward_fall
1.999155,-0.4649,1.8166,0.9559,-0.1543,0.2803,-0.1529,-39.6622,12.8832,-14.5302,,0.0012790000000000301,2.104735703122841,2.118296362439639,forward_fall
2.036687,-0.4649,1.8166,0.9559,-0.1543,0.2803,-0.1529,-39.1986,12.3098,-15.555,,0.03753200000000012,2.104735703122841,2.2261088451143585,forward_fall
2.055777,-0.4649,1.8166,0.9559,-0.9228,0.0165,-0.2281,-39.1986,12.3098,-15.555,,0.01908999999999983,2.104735703122841,2.373344155900692,forward_fall
2.058686,-0.4649,1.8166,0.9559,-0.9228,0.0165,-0.2281,-39.1986,12.3098,-15.555,,0.0029089999999998284,2.104735703122841,2.560741245037093,forward_fall
2.060552,-0.4649,1.8166,0.9559,-0.9228,0.0165,-0.2281,-39.1986,12.3098,-15.555,,0.0018660000000001453,2.104735703122841,2.784909931562712,forward_fall
2.061999,-0.4649,1.8166,0.9559,-0.9228,0.0165,-0.2281,-39.1986,12.3098,-15.555,,0.0014470000000001981,2.104735703122841,3.03816968817027,forward_fall
2.063721,-0.1728,3.7594,0.3493,-0.9228,0.0165,-0.2281,-39.1986,12.3098,-15.555,,0.0017220000000000013,3.779544772852942,3.3088842332590223,forward_fall
2.098473,-0.1728,3.7594,0.3493,-0.9228,0.0165,-0.2281,-38.7594,11.7608,-16.5066,,0.03475199999999967,3.779544772852942,3.5822958255622663,forward_fall
2.121079,-0.1728,3.7594,0.3493,-0.9228,0.0165,-0.2281,-38.7594,11.7608,-16.5066,,0.022606000000000126,3.779544772852942,3.8417974280262643,forward_fall
2.123733,-0.1728,3.7594,0.3493,-0.9228,0.0165,-0.2281,-38.7594,11.7608,-16.5066,,0.0026540000000001562,3.779544772852942,4.070532739282357,forward_fall
2.125149,-0.1728,3.7594,0.3493,-0.9228,0.0165,-0.2281,-38.7594,11.7608,-16.5066,,0.0014159999999998618,3.779544772852942,4.2531943632739875,forward_fall
2.126293,-0.1728,3.7594,0.3493,-0.9228,0.0165,-0.2281,-38.7594,11.7608,-16.5066,,0.0011440000000000339,3.779544772852942,4.3778860378405655,forward_fall
2.127962,-0.1728,3.7594,0.3493,-1.7884,-0.014,-0.2906,-38.7594,11.7608,-16.5066,,0.0016690000000001426,3.779544772852942,4.437902007647142,forward_fall
2.130305,-0.763,5.7957,-1.0378,-1.7884,-0.014,-0.2906,-38.7594,11.7608,-16.5066,,0.002342999999999762,5.937115152159338,4.433242149866931,forward_fall
2.155735,-0.763,5.7957,-1.0378,-1.7884,-0.014,-0.2906,-38.2226,11.468,-17.263,,0.025430000000000064,5.937115152159338,4.371633230788559,forward_fall
2.189306,-0.763,5.7957,-1.0378,-1.7884,-0.014,-0.2906,-38.2226,11.468,-17.263,,0.03357100000000024,5.937115152159338,4.268795015543151,forward_fall
2.193166,-0.763,5.7957,-1.0378,-1.7884,-0.014,-0.2906,-38.2226,11.468,-17.263,,0.0038599999999999746,5.937115152159338,4.147716381899854,forward_fall
2.196543,-0.763,5.7957,-1.0378,-1.7884,-0.014,-0.2906,-38.2226,11.468,-17.263,,0.0033769999999999634,5.937115152159338,4.036815830702556,forward_fall
2.19847,1.2158,1.5304,2.3248,-1.7884,-0.014,-0.2906,-38.2226,11.468,-17.263,,0.00192699999999979,3.037266672519883,3.9670415501990215,forward_fall
2.200521,1.2158,1.5304,2.3248,-4.0227,-1.7653,-0.4561,-38.2226,11.468,-17.263,,0.002051000000000247,3.037266672519883,3.96817883609508,forward_fall
2.215834,1.2158,1.5304,2.3248,-4.0227,-1.7653,-0.4561,-38.1006,11.5046,-17.2996,,0.01531299999999991,3.037266672519883,4.064823296124601,forward_fall
2.256536,1.2158,1.5304,2.3248,-4.0227,-1.7653,-0.4561,-38.1006,11.5046,-17.2996,,0.040702000000000016,3.037266672519883,4.27259203790587,forward_fall
2.26004,1.2158,1.5304,2.3248,-4.0227,-1.7653,-0.4561,-38.1006,11.5046,-17.2996,,0.0035039999999999516,3.037266672519883,4.595152759107596,forward_fall
2.261647,1.2158,1.5304,2.3248,-4.0227,-1.7653,-0.4561,-38.1006,11.5046,-17.2996,,0.001606999999999914,3.037266672519883,5.022565422105361,forward_fall
2.26351,1.2158,1.5304,2.3248,-4.0227,-1.7653,-0.4561,-38.1006,11.5046,-17.2996,,0.00186300000000017,3.037266672519883,5.531285508031696,forward_fall
2.267172,1.2158,1.5304,2.3248,-4.9736,-0.5015,-0.6739,-38.1006,11.5046,-17.2996,,0.003661999999999832,3.037266672519883,6.0859896150317265,forward_fall
2.268877,-3.966,-5.1826,-5.6929,-4.9736,-0.5015,-0.6739,-38.1006,11.5046,-17.2996,,0.0017049999999998455,8.660116002109902,6.643153316624044,forward_fall
2.276576,-3.966,-5.1826,-5.6929,-4.9736,-0.5015,-0.6739,-38.1372,11.5778,-16.3602,,0.007699000000000122,8.660116002109902,7.156048053104431,forward_fall
2.32414,-3.966,-5.1826,-5.6929,-4.9736,-0.5015,-0.6739,-38.1372,11.5778,-16.3602,,0.04756399999999994,8.660116002109902,7.580580483088696,forward_fall
2.328438,-3.966,-5.1826,-5.6929,-4.9736,-0.5015,-0.6739,-38.1372,11.5778,-16.3602,,0.004297999999999913,8.660116002109902,7.881255559759345,forward_fall
2.331834,-3.966,-5.1826,-5.6929,-4.9736,-0.5015,-0.6739,-38.1372,11.5778,-16.3602,,0.0033960000000003987,8.660116002109902,8.03654707451785,forward_fall
2.337125,-3.966,-5.1826,-5.6929,-4.9284,-0.9071,-0.7578,-38.1372,11.5778,-16.3602,,0.005290999999999713,8.660116002109902,8.04306900289072,forward_fall
2.338864,-3.966,-5.1826,-5.6929,-4.9284,-0.9071,-0.7578,-38.4666,11.7242,-14.9084,,0.001739000000000157,8.660116002109902,7.918082189479842,forward_fall
2.341181,7.3408,5.6329,-2.5416,-4.9284,-0.9071,-0.7578,-38.4666,11.7242,-14.9084,,0.0023170000000001245,9.595657226579116,7.699997812621151,forward_fall
2.388244,7.3408,5.6329,-2.5416,-4.9284,-0.9071,-0.7578,-38.4666,11.7242,-14.9084,,0.04706299999999963,9.595657226579116,7.44665163162925,forward_fall
2.391673,7.3408,5.6329,-2.5416,-4.9284,-0.9071,-0.7578,-38.4666,11.7242,-14.9084,,0.0034290000000001264,9.595657226579116,7.231246641248478,forward_fall
2.394082,7.3408,5.6329,-2.5416,-4.9284,-0.9071,-0.7578,-38.4666,11.7242,-14.9084,,0.0024090000000001055,9.595657226579116,7.136026570826963,forward_fall
2.396276,7.3408,5.6329,-2.5416,-4.9284,-0.9071,-0.7578,-38.796,11.1142,-12.5782,,0.002193999999999807,9.595657226579116,7.243966409006382,forward_fall
2.404843,7.3408,5.6329,-2.5416,-4.6889,-0.1265,-0.1296,-38.796,11.1142,-12.5782,,0.008567000000000213,9.595657226579116,7.629044513842538,forward_fall
2.407512,-2.7437,0.0548,5.2002,-4.6889,-0.1265,-0.1296,-38.796,11.1142,-12.5782,,0.0026690000000000325,5.87987863565227,8.345970866555728,forward_fall
2.456716,-2.7437,0.0548,5.2002,-4.6889,-0.1265,-0.1296,-38.796,11.1142,-12.5782,,0.049204000000000025,5.87987863565227,9.420545999364244,forward_fall
2.461275,-2.7437,0.0548,5.2002,-4.6889,-0.1265,-0.1296,-38.796,11.1142,-12.5782,,0.00455899999999998,5.87987863565227,10.842043121296284,forward_fall
2.464224,-2.7437,0.0548,5.2002,-4.6889,-0.1265,-0.1296,-38.796,11.1142,-12.5782,,0.0029490000000000904,5.87987863565227,12.559047683073793,forward_fall
2.465704,-2.7437,0.0548,5.2002,-4.6889,-0.1265,-0.1296,-38.796,11.1142,-12.5782,,0.0014799999999999258,5.87987863565227,14.479982526330748,forward_fall
2.467011,-2.7437,0.0548,5.2002,-4.6889,-0.1265,-0.1296,-39.1498,10.5408,-9.8942,,0.001306999999999725,5.87987863565227,16.47907603178463,forward_fall
2.475809,-2.7437,0.0548,5.2002,-0.6574,-0.049,-1.242,-39.1498,10.5408,-9.8942,,0.008798000000000084,5.87987863565227,18.407809209390717,forward_fall
2.477428,3.3409,3.4426,-33.2988,-0.6574,-0.049,-1.242,-39.1498,10.5408,-9.8942,,0.0016190000000002591,33.6425799993104,20.11092541626708,forward_fall
2.514386,3.3409,3.4426,-33.2988,-0.6574,-0.049,-1.242,-39.711,9.9552,-6.9296,,0.036957999999999824,33.6425799993104,21.44500058106405,forward_fall
2.520385,3.3409,3.4426,-33.2988,-0.6574,-0.049,-1.242,-39.711,9.9552,-6.9296,,0.005999000000000088,33.6425799993104,22.296652545883166,forward_fall
2.52178,3.3409,3.4426,-33.2988,-0.6574,-0.049,-1.242,-39.711,9.9552,-6.9296,,0.001395000000000035,33.6425799993104,22.59715469172292,forward_fall
2.523218,3.3409,3.4426,-33.2988,-0.6574,-0.049,-1.242,-39.711,9.9552,-6.9296,,0.0014379999999998283,33.6425799993104,22.33075584770069,forward_fall
2.544988,3.3409,3.4426,-33.2988,-1.3191,-0.897,0.2828,-39.711,9.9552,-6.9296,,0.021770000000000067,33.6425799993104,21.53522935953945,forward_fall
2.548433,0.4856,-7.3781,-3.5875,-1.3191,-0.897,0.2828,-39.711,9.9552,-6.9296,,0.0034450000000001424,8.218413668099215,20.29469866551927,forward_fall
2.57507,0.4856,-7.3781,-3.5875,-1.3191,-0.897,0.2828,-40.3454,9.2964,-3.599,,0.026637000000000022,8.218413668099215,18.72628129933254,forward_fall
2.588962,0.4856,-7.3781,-3.5875,-1.3191,-0.897,0.2828,-40.3454,9.2964,-3.599,,0.013891999999999793,8.218413668099215,16.963243312265725,forward_fall
2.590474,0.4856,-7.3781,-3.5875,-1.3191,-0.897,0.2828,-40.3454,9.2964,-3.599,,0.0015119999999999578,8.218413668099215,15.137822392231609,forward_fall
2.59185,0.4856,-7.3781,-3.5875,-1.3191,-0.897,0.2828,-40.3454,9.2964,-3.599,,0.0013760000000000439,8.218413668099215,13.366522562755526,forward_fall
2.614476,0.4856,-7.3781,-3.5875,-0.3277,-0.4602,0.1758,-40.3454,9.2964,-3.599,,0.022625999999999813,8.218413668099215,11.73974650230552,forward_fall
2.617628,-1.5489,1.3369,10.1777,-0.3277,-0.4602,0.1758,-40.3454,9.2964,-3.599,,0.0031520000000000437,10.381327955035424,10.31653434750815,forward_fall
2.633758,-1.5489,1.3369,10.1777,-0.3277,-0.4602,0.1758,-40.9554,8.3448,-0.1464,,0.016129999999999978,10.381327955035424,9.124219793144736,forward_fall
2.656551,-1.5489,1.3369,10.1777,-0.3277,-0.4602,0.1758,-40.9554,8.3448,-0.1464,,0.022793000000000063,10.381327955035424,8.162113116542507,forward_fall
2.659963,-1.5489,1.3369,10.1777,-0.3277,-0.4602,0.1758,-40.9554,8.3448,-0.1464,,0.0034119999999999706,10.381327955035424,7.407907611281107,forward_fall
2.662304,-1.5489,1.3369,10.1777,-0.3277,-0.4602,0.1758,-40.9554,8.3448,-0.1464,,0.0023409999999999265,10.381327955035424,6.82537304510359,forward_fall
2.66538,-1.5489,1.3369,10.1777,-0.3277,-0.4602,0.1758,-40.9554,8.3448,-0.1464,,0.0030760000000000787,10.381327955035424,6.372001693367588,forward_fall
2.684426,-1.5489,1.3369,10.1777,0.4979,0.6024,-0.0601,-40.9554,8.3448,-0.1464,,0.01904600000000034,10.381327955035424,6.005546350508779,forward_fall
2.687625,-0.0004,1.2909,3.5681,0.4979,0.6024,-0.0601,-40.9554,8.3448,-0.1464,,0.003198999999999952,3.79443811123597,5.688780635016687,forward_fall
2.694739,-0.0004,1.2909,3.5681,0.4979,0.6024,-0.0601,-41.236,7.1248,2.7572,,0.007114000000000065,3.79443811123597,5.392262828222256,forward_fall
2.72252,-0.0004,1.2909,3.5681,0.4979,0.6024,-0.0601,-41.236,7.1248,2.7572,,0.02778099999999961,3.79443811123597,5.0953034341151895,forward_fall
2.724812,-0.0004,1.2909,3.5681,0.4979,0.6024,-0.0601,-41.236,7.1248,2.7572,,0.0022920000000001828,3.79443811123597,4.785609072263152,forward_fall
2.726356,-0.0004,1.2909,3.5681,0.4979,0.6024,-0.0601,-41.236,7.1248,2.7572,,0.0015439999999999898,3.79443811123597,4.458142364524828,forward_fall
2.753994,-0.0004,1.2909,3.5681,0.4979,0.6024,-0.0601,-41.358,5.8926,4.6848,,0.02763800000000005,3.79443811123597,4.113645961292905,forward_fall
2.755982,-0.0004,1.2909,3.5681,0.737,0.6578,-0.2214,-41.358,5.8926,4.6848,,0.0019879999999998788,3.79443811123597,3.7571293658300973,forward_fall
2.757454,-0.1805,2.6145,1.2628,0.737,0.6578,-0.2214,-41.358,5.8926,4.6848,,0.0014720000000001399,2.909098544222935,3.396482682718326,forward_fall
2.789842,-0.1805,2.6145,1.2628,0.737,0.6578,-0.2214,-41.358,5.8926,4.6848,,0.03238800000000008,2.909098544222935,3.0412855355937274,forward_fall
2.792613,-0.1805,2.6145,1.2628,0.737,0.6578,-0.2214,-41.358,5.8926,4.6848,,0.002770999999999635,2.909098544222935,2.7018178354362195,forward_fall
2.79464,-0.1805,2.6145,1.2628,0.737,0.6578,-0.2214,-41.358,5.8926,4.6848,,0.002027000000000001,2.909098544222935,2.388239448134923,forward_fall
2.80836,-0.1805,2.6145,1.2628,0.737,0.6578,-0.2214,-41.4556,4.7336,6.0024,,0.013720000000000176,2.909098544222935,2.1098816101411098,forward_fall
2.823315,-0.1805,2.6145,1.2628,0.7509,0.4762,-0.1956,-41.4556,4.7336,6.0024,,0.014955000000000052,2.909098544222935,1.874590129944156,forward_fall
2.824928,-0.1292,0.6522,-0.511,0.7509,0.4762,-0.1956,-41.4556,4.7336,6.0024,,0.0016129999999998645,0.8385573802668486,1.688089306309479,forward_fall
2.855627,-0.1292,0.6522,-0.511,0.7509,0.4762,-0.1956,-41.4556,4.7336,6.0024,,0.030699000000000254,0.8385573802668486,1.5533943232575997,forward_fall
2.857002,-0.1292,0.6522,-0.511,0.7509,0.4762,-0.1956,-41.4556,4.7336,6.0024,,0.001374999999999904,0.8385573802668486,1.4703644722010791,forward_fall
2.857943,-0.1292,0.6522,-0.511,0.7509,0.4762,-0.1956,-41.4556,4.7336,6.0024,,0.0009410000000000807,0.8385573802668486,1.4355226503633964,forward_fall
2.859004,-0.1292,0.6522,-0.511,0.7509,0.4762,-0.1956,-41.4556,4.7336,6.0024,,0.0010609999999999786,0.8385573802668486,1.4422457007458604,forward_fall
2.873786,-0.1292,0.6522,-0.511,0.7509,0.4762,-0.1956,-41.5288,4.2944,6.7344,,0.01478199999999985,0.8385573802668486,1.4813643927668227,forward_fall
2.893901,0.2129,1.6819,1.5584,0.7509,0.4762,-0.1956,-41.5288,4.2944,6.7344,,0.020115000000000105,2.302764551577082,1.5421271217855024,forward_fall
2.897318,0.2129,1.6819,1.5584,0.9372,0.5597,-0.0874,-41.5288,4.2944,6.7344,,0.0034169999999997813,2.302764551577082,1.6133998311623188,forward_fall
2.922057,0.2129,1.6819,1.5584,0.9372,0.5597,-0.0874,-41.5288,4.2944,6.7344,,0.02473900000000029,2.302764551577082,1.684914840569783,forward_fall
2.923739,0.2129,1.6819,1.5584,0.9372,0.5597,-0.0874,-41.5288,4.2944,6.7344,,0.0016819999999997393,2.302764551577082,1.74836258060496,forward_fall
2.924548,0.2129,1.6819,1.5584,0.9372,0.5597,-0.0874,-41.5288,4.2944,6.7344,,0.0008090000000002817,2.302764551577082,1.7981509837711405,forward_fall
2.934324,0.2129,1.6819,1.5584,0.9372,0.5597,-0.0874,-41.5532,3.8674,7.076,,0.009776000000000007,2.302764551577082,1.8317245678049363,forward_fall
2.963754,0.2129,1.6819,1.5584,0.4603,0.9033,0.1639,-41.5532,3.8674,7.076,,0.029430000000000067,2.302764551577082,1.8494161748863236,forward_fall
2.966376,-0.3434,1.2446,0.2417,0.4603,0.9033,0.1639,-41.5532,3.8674,7.076,,0.00262199999999968,1.3135340155473705,1.8538829883640182,forward_fall
2.988143,-0.3434,1.2446,0.2417,0.4603,0.9033,0.1639,-41.5532,3.8674,7.076,,0.021767000000000092,1.3135340155473705,1.8492468929412738,forward_fall
2.98904,-0.3434,1.2446,0.2417,0.4603,0.9033,0.1639,-41.5532,3.8674,7.076,,0.0008970000000001477,1.3135340155473705,1.8401076631293953,forward_fall
2.989859,-0.3434,1.2446,0.2417,0.4603,0.9033,0.1639,-41.5532,3.8674,7.076,,0.0008189999999999031,1.3135340155473705,1.8306125174947239,forward_fall
2.993205,-0.3434,1.2446,0.2417,0.4603,0.9033,0.1639,-41.4678,3.721,6.8442,,0.003346000000000071,1.3135340155473705,1.8237412944186235,forward_fall
3.033662,-0.3434,1.2446,0.2417,0.1879,1.1776,0.1475,-41.4678,3.721,6.8442,,0.040456999999999965,1.3135340155473705,1.8209117378001844,forward_fall
3.036091,-0.867,0.3967,-1.8576,0.1879,1.1776,0.1475,-41.4678,3.721,6.8442,,0.0024289999999997924,2.0879984794055764,1.821940512956298,forward_fall
3.05448,-0.867,0.3967,-1.8576,0.1879,1.1776,0.1475,-41.3336,3.6844,5.7828,,0.01838899999999999,2.0879984794055764,1.8253266976944065,forward_fall
3.05663,-0.867,0.3967,-1.8576,0.1879,1.1776,0.1475,-41.3336,3.6844,5.7828,,0.0021500000000003183,2.0879984794055764,1.8287677991093172,forward_fall
3.057432,-0.867,0.3967,-1.8576,0.1879,1.1776,0.1475,-41.3336,3.6844,5.7828,,0.0008019999999997474,2.0879984794055764,1.8297859716354743,forward_fall
3.058228,-0.867,0.3967,-1.8576,0.1879,1.1776,0.1475,-41.3336,3.6844,5.7828,,0.000796000000000241,2.0879984794055764,1.8263396627949107,forward_fall
3.059016,-0.867,0.3967,-1.8576,0.1879,1.1776,0.1475,-41.3336,3.6844,5.7828,,0.0007880000000000109,2.0879984794055764,1.8173171874365375,forward_fall
3.104361,-0.867,0.3967,-1.8576,0.0023,0.5111,-0.0142,-41.3336,3.6844,5.7828,,0.04534499999999975,2.0879984794055764,1.802841792433621,forward_fall
3.10707,-1.4861,0.413,0.7228,0.0023,0.5111,-0.0142,-41.3336,3.6844,5.7828,,0.0027090000000002945,1.7033795965667782,1.7843541573630841,forward_fall
3.11418,-1.4861,0.413,0.7228,0.0023,0.5111,-0.0142,-41.3214,3.721,4.1846,,0.00710999999999995,1.7033795965667782,1.7644740183628744,forward_fall
3.121819,-1.4861,0.413,0.7228,0.0023,0.5111,-0.0142,-41.3214,3.721,4.1846,,0.007638999999999729,1.7033795965667782,1.7466736587842322,forward_fall
3.122705,-1.4861,0.413,0.7228,0.0023,0.5111,-0.0142,-41.3214,3.721,4.1846,,0.0008859999999999424,1.7033795965667782,1.7348170396893752,forward_fall
3.123464,-1.4861,0.413,0.7228,0.0023,0.5111,-0.0142,-41.3214,3.721,4.1846,,0.0007589999999999542,1.7033795965667782,1.7326267869098062,forward_fall
3.173054,-1.4861,0.413,0.7228,0.0023,0.5111,-0.0142,-41.2238,3.7942,2.562,,0.049590000000000245,1.7033795965667782,1.7431401608966912,forward_fall
3.1767,-1.4861,0.413,0.7228,-0.4566,-0.1246,-0.0145,-41.2238,3.7942,2.562,,0.003645999999999816,1.7033795965667782,1.7682101027749904,forward_fall
3.179709,-0.113,-0.657,1.5923,-0.4566,-0.1246,-0.0145,-41.2238,3.7942,2.562,,0.0030090000000000394,1.7262205218337547,1.8081019097645856,forward_fall
3.188898,-0.113,-0.657,1.5923,-0.4566,-0.1246,-0.0145,-41.2238,3.7942,2.562,,0.009189000000000114,1.7262205218337547,1.8612303480135373,forward_fall
3.190296,-0.113,-0.657,1.5923,-0.4566,-0.1246,-0.0145,-41.2238,3.7942,2.562,,0.0013980000000000103,1.7262205218337547,1.9240748940941472,forward_fall
3.191705,-0.113,-0.657,1.5923,-0.4566,-0.1246,-0.0145,-41.2238,3.7942,2.562,,0.0014089999999997715,1.7262205218337547,1.9913008229039622,forward_fall
3.233545,-0.113,-0.657,1.5923,-0.4566,-0.1246,-0.0145,-41.1994,3.9772,1.22,,0.0418400000000001,1.7262205218337547,2.056099365863826,forward_fall
3.243231,-0.113,-0.657,1.5923,-0.0398,-0.3039,0.0366,-41.1994,3.9772,1.22,,0.009686000000000305,1.7262205218337547,2.110739367175421,forward_fall
3.247499,0.8572,-1.7509,1.4382,-0.0398,-0.3039,0.0366,-41.1994,3.9772,1.22,,0.0042679999999997165,2.422573402396716,2.147294672247263,forward_fall
3.257603,0.8572,-1.7509,1.4382,-0.0398,-0.3039,0.0366,-41.1994,3.9772,1.22,,0.010104000000000113,2.422573402396716,2.1584779052830534,forward_fall
3.258986,0.8572,-1.7509,1.4382,-0.0398,-0.3039,0.0366,-41.1994,3.9772,1.22,,0.0013830000000001341,2.422573402396716,2.1384803855560954,forward_fall
3.260139,0.8572,-1.7509,1.4382,-0.0398,-0.3039,0.0366,-41.1994,3.9772,1.22,,0.0011529999999999596,2.422573402396716,2.0837018857766854,forward_fall
3.261242,0.8572,-1.7509,1.4382,-0.0398,-0.3039,0.0366,-41.1994,3.9772,1.22,,0.0011030000000000761,2.422573402396716,1.9932605873145401,forward_fall
3.293294,0.8572,-1.7509,1.4382,-0.0398,-0.3039,0.0366,-41.1262,4.1602,0.0732,,0.03205199999999975,2.422573402396716,1.8692009393074758,forward_fall
3.315306,0.8572,-1.7509,1.4382,0.0485,-0.071,0.0067,-41.1262,4.1602,0.0732,,0.022012000000000143,2.422573402396716,1.716358533430045,forward_fall
3.318862,0.6169,-0.5091,-0.076,0.0485,-0.071,0.0067,-41.1262,4.1602,0.0732,,0.0035560000000001146,0.8034453435050825,1.541892533649997,forward_fall
3.323911,0.6169,-0.5091,-0.076,0.0485,-0.071,0.0067,-41.1262,4.1602,0.0732,,0.005048999999999637,0.8034453435050825,1.354553353154078,forward_fall
3.325865,0.6169,-0.5091,-0.076,0.0485,-0.071,0.0067,-41.1262,4.1602,0.0732,,0.0019540000000000113,0.8034453435050825,1.1638022810427875,forward_fall
3.327535,0.6169,-0.5091,-0.076,0.0485,-0.071,0.0067,-41.1262,4.1602,0.0732,,0.0016700000000002824,0.8034453435050825,0.9789193850080876,forward_fall
3.351849,0.6169,-0.5091,-0.076,0.0485,-0.071,0.0067,-41.0896,4.3066,-0.915,,0.024313999999999947,0.8034453435050825,0.8082165917399512,forward_fall
3.381296,0.6169,-0.5091,-0.076,-0.0103,-0.1382,0.0101,-41.0896,4.3066,-0.915,,0.02944699999999978,0.8034453435050825,0.6584285874322153,forward_fall
3.383469,0.0117,-0.1591,0.2874,-0.0103,-0.1382,0.0101,-41.0896,4.3066,-0.915,,0.0021729999999999805,0.3287072557763214,0.5343103186447578,forward_fall
3.386803,0.0117,-0.1591,0.2874,-0.0103,-0.1382,0.0101,-41.0896,4.3066,-0.915,,0.00333400000000017,0.3287072557763214,0.43844172785325164,forward_fall
3.387901,0.0117,-0.1591,0.2874,-0.0103,-0.1382,0.0101,-41.0896,4.3066,-0.915,,0.0010979999999998213,0.3287072557763214,0.37122715287886865,forward_fall
3.389137,0.0117,-0.1591,0.2874,-0.0103,-0.1382,0.0101,-41.0896,4.3066,-0.915,,0.0012360000000000149,0.3287072557763214,0.33106943676737777,forward_fall
3.411332,0.0117,-0.1591,0.2874,-0.0103,-0.1382,0.0101,-41.0774,4.514,-1.6348,,0.022194999999999965,0.3287072557763214,0.3146902447702293,forward_fall
3.453522,0.0117,-0.1591,0.2874,-0.0613,-0.0847,0.0067,-41.0774,4.514,-1.6348,,0.04219000000000017,0.3287072557763214,0.31755834291638685,forward_fall
3.457882,-0.2248,0.1291,0.3993,-0.0613,-0.0847,0.0067,-41.0774,4.514,-1.6348,,0.0043600000000001415,0.4760696797738751,0.33438029832079197,forward_fall
3.461061,-0.2248,0.1291,0.3993,-0.0613,-0.0847,0.0067,-41.0774,4.514,-1.6348,,0.003178999999999821,0.4760696797738751,0.35960543087569447,forward_fall
3.462958,-0.2248,0.1291,0.3993,-0.0613,-0.0847,0.0067,-41.0774,4.514,-1.6348,,0.0018970000000000375,0.4760696797738751,0.38789915379271483,forward_fall
3.465112,-0.2248,0.1291,0.3993,-0.0613,-0.0847,0.0067,-41.0774,4.514,-1.6348,,0.0021539999999999893,0.4760696797738751,0.4145460134520411,forward_fall
3.467201,-0.2248,0.1291,0.3993,-0.0613,-0.0847,0.0067,-41.0774,4.514,-1.6348,,0.0020890000000002296,0.4760696797738751,0.4357549831607329,forward_fall
3.472069,-0.2248,0.1291,0.3993,-0.0613,-0.0847,0.0067,-41.114,4.7092,-2.1472,,0.00486799999999965,0.4760696797738751,0.44885253065573116,forward_fall
3.525156,-0.2248,0.1291,0.3993,-0.0358,0.0076,0.0079,-41.114,4.7092,-2.1472,,0.053087000000000106,0.4760696797738751,0.452360875534568,forward_fall
3.528179,-0.2248,0.1291,0.3993,-0.0358,0.0076,0.0079,-41.114,4.7092,-2.1472,,0.00302300000000022,0.4760696797738751,0.4459681633268658,forward_fall
3.529393,-0.2248,0.1291,0.3993,-0.0358,0.0076,0.0079,-41.114,4.7092,-2.1472,,0.0012139999999996043,0.4760696797738751,0.43040405468698906,forward_fall
3.530545,-0.2248,0.1291,0.3993,-0.0358,0.0076,0.0079,-41.114,4.7092,-2.1472,,0.001152000000000264,0.4760696797738751,0.4072393615850762,forward_fall
3.531753,-0.0382,-0.0845,0.218,-0.0358,0.0076,0.0079,-41.114,4.7092,-2.1472,,0.0012080000000000979,0.23690396788572368,0.37863291924423287,non_fall
3.533378,-0.0382,-0.0845,0.218,-0.0358,0.0076,0.0079,-41.0896,4.819,-2.2448,,0.0016249999999997655,0.23690396788572368,0.34705319428278736,non_fall
3.589662,-0.0382,-0.0845,0.218,-0.0358,0.0076,0.0079,-41.0896,4.8922,-2.0618,,0.05628400000000022,0.23690396788572368,0.3150047375457317,non_fall
3.59184,-0.0382,-0.0845,0.218,-0.0358,0.0076,0.0079,-41.0896,4.8922,-2.0618,,0.002177999999999791,0.23690396788572368,0.28478779377316527,non_fall
3.592753,-0.0382,-0.0845,0.218,-0.0358,0.0076,0.0079,-41.0896,4.8922,-2.0618,,0.0009130000000001637,0.23690396788572368,0.25831205776525484,non_fall
3.59362,-0.0382,-0.0845,0.218,-0.0358,0.0076,0.0079,-41.0896,4.8922,-2.0618,,0.0008669999999999511,0.23690396788572368,0.23697497669813816,non_fall
3.5945,-0.0382,-0.0845,0.218,-0.0648,0.0376,0.002,-41.0896,4.8922,-2.0618,,0.0008799999999999919,0.23690396788572368,0.22160492456451877,non_fall
3.595628,0.0214,-0.1572,0.1524,-0.0648,0.0376,0.002,-41.0896,4.8922,-2.0618,,0.0011280000000000179,0.21998990885947475,0.21246243823013303,non_fall
3.652468,0.0214,-0.1572,0.1524,-0.0648,0.0376,0.002,-41.1506,4.9288,-1.9276,,0.05683999999999978,0.21998990885947475,0.20928890389716767,non_fall
3.655885,0.0214,-0.1572,0.1524,-0.0648,0.0376,0.002,-41.1506,4.9288,-1.9276,,0.0034170000000002254,0.21998990885947475,0.21139091529151566,non_fall
3.657432,0.0214,-0.1572,0.1524,-0.0648,0.0376,0.002,-41.1506,4.9288,-1.9276,,0.001546999999999965,0.21998990885947475,0.21774896510906966,non_fall
3.658859,0.0214,-0.1572,0.1524,-0.0648,0.0376,0.002,-41.1506,4.9288,-1.9276,,0.001427000000000067,0.21998990885947475,0.22714024114204107,non_fall
3.660368,0.0214,-0.1572,0.1524,-0.0648,0.0376,0.002,-41.1506,4.9288,-1.9276,,0.0015089999999999826,0.21998990885947475,0.23826642629652772,non_fall
3.663652,0.0214,-0.1572,0.1524,-0.0802,0.0423,0.0069,-41.1506,4.9288,-1.9276,,0.0032839999999998426,0.21998990885947475,0.24987810924084086,non_fall
3.665071,-0.035,-0.1981,0.258,-0.0802,0.0423,0.0069,-41.1506,4.9288,-1.9276,,0.0014190000000002811,0.3271583867181155,0.2608873730421531,non_fall
3.712089,-0.035,-0.1981,0.258,-0.0802,0.0423,0.0069,-41.1994,4.9532,-1.8422,,0.047018000000000004,0.3271583867181155,0.270459404448224,non_fall
3.722424,-0.035,-0.1981,0.258,-0.0802,0.0423,0.0069,-41.1994,4.9532,-1.8422,,0.010334999999999983,0.3271583867181155,0.27807349623535277,non_fall
3.724753,-0.035,-0.1981,0.258,-0.0802,0.0423,0.0069,-41.1994,4.9532,-1.8422,,0.0023290000000000255,0.3271583867181155,0.2835451632756211,non_fall
3.727692,-0.035,-0.1981,0.258,-0.0802,0.0423,0.0069,-41.1994,4.9532,-1.8422,,0.002938999999999581,0.3271583867181155,0.2870051376777084,non_fall
3.732321,-0.035,-0.1981,0.258,-0.0537,0.0438,0.0021,-41.1994,4.9532,-1.8422,,0.004629000000000438,0.3271583867181155,0.2888370829515312,non_fall
3.734137,-0.0172,-0.149,0.1747,-0.0537,0.0438,0.0021,-41.1994,4.9532,-1.8422,,0.0018159999999998178,0.23025405533887994,0.28958249511541073,non_fall
3.771334,-0.0172,-0.149,0.1747,-0.0537,0.0438,0.0021,-41.2482,5.002,-1.8422,,0.037196999999999925,0.23025405533887994,0.2898271444868814,non_fall
3.790256,-0.0172,-0.149,0.1747,-0.0537,0.0438,0.0021,-41.2482,5.002,-1.8422,,0.018921999999999883,0.23025405533887994,0.290087323512686,non_fall
3.793173,-0.0172,-0.149,0.1747,-0.0537,0.0438,0.0021,-41.2482,5.002,-1.8422,,0.0029170000000000584,0.23025405533887994,0.29071475698187205,non_fall
3.795092,-0.0172,-0.149,0.1747,-0.0537,0.0438,0.0021,-41.2482,5.002,-1.8422,,0.001919000000000004,0.23025405533887994,0.29183570053996327,non_fall
3.801842,-0.0172,-0.149,0.1747,-0.01,-0.0149,-0.0017,-41.2482,5.002,-1.8422,,0.006750000000000256,0.23025405533887994,0.29333332897958625,non_fall
3.805511,0.0081,-0.1097,0.3161,-0.01,-0.0149,-0.0017,-41.2482,5.002,-1.8422,,0.0036689999999999223,0.334692261637463,0.29487456993953476,non_fall
3.83019,0.0081,-0.1097,0.3161,-0.01,-0.0149,-0.0017,-41.3092,5.1118,-1.9032,,0.024678999999999895,0.334692261637463,0.29597452058433105,non_fall
3.856238,0.0081,-0.1097,0.3161,-0.01,-0.0149,-0.0017,-41.3092,5.1118,-1.9032,,0.02604799999999985,0.334692261637463,0.2960849823425882,non_fall
3.860338,0.0081,-0.1097,0.3161,-0.01,-0.0149,-0.0017,-41.3092,5.1118,-1.9032,,0.004100000000000215,0.334692261637463,0.29469010275376883,non_fall
3.86283,0.0081,-0.1097,0.3161,-0.01,-0.0149,-0.0017,-41.3092,5.1118,-1.9032,,0.0024920000000001608,0.334692261637463,0.29139244396193587,non_fall
3.86565,0.0081,-0.1097,0.3161,-0.01,-0.0149,-0.0017,-41.3092,5.1118,-1.9032,,0.0028199999999998226,0.334692261637463,0.285976269206464,non_fall
3.872195,0.0081,-0.1097,0.3161,-0.0084,-0.0226,-0.0037,-41.3092,5.1118,-1.9032,,0.006545000000000023,0.334692261637463,0.2784399752942531,non_fall
3.873769,0.0183,-0.0599,0.2114,-0.0084,-0.0226,-0.0037,-41.3092,5.1118,-1.9032,,0.0015739999999997423,0.220483241993581,0.26899538296028314,non_fall
3.891764,0.0183,-0.0599,0.2114,-0.0084,-0.0226,-0.0037,-41.3824,5.2216,-2.0862,,0.017994999999999983,0.220483241993581,0.25803742897108545,non_fall
3.922445,0.0183,-0.0599,0.2114,-0.0084,-0.0226,-0.0037,-41.3824,5.2216,-2.0862,,0.030681000000000402,0.220483241993581,0.24609263749096036,non_fall
3.926171,0.0183,-0.0599,0.2114,-0.0084,-0.0226,-0.0037,-41.3824,5.2216,-2.0862,,0.003725999999999896,0.220483241993581,0.23375709134996353,non_fall
3.927598,0.0183,-0.0599,0.2114,-0.0084,-0.0226,-0.0037,-41.3824,5.2216,-2.0862,,0.001427000000000067,0.220483241993581,0.22163383955902222,non_fall
3.939267,0.0183,-0.0599,0.2114,0.0013,0.0055,0.0003,-41.3824,5.2216,-2.0862,,0.01166899999999993,0.220483241993581,0.21027684270941033,non_fall
3.940477,-0.0139,-0.0657,0.1666,0.0013,0.0055,0.0003,-41.3824,5.2216,-2.0862,,0.0012099999999999334,0.17962533228918465,0.20014554262074266,non_fall
3.952168,-0.0139,-0.0657,0.1666,0.0013,0.0055,0.0003,-41.3214,5.2094,-2.1106,,0.011690999999999896,0.17962533228918465,0.19157210213247255,non_fall
3.991273,-0.0139,-0.0657,0.1666,0.0013,0.0055,0.0003,-41.3214,5.2094,-2.1106,,0.03910500000000017,0.17962533228918465,0.184742261937353,non_fall
3.993116,-0.0139,-0.0657,0.1666,0.0013,0.0055,0.0003,-41.3214,5.2094,-2.1106,,0.001843000000000039,0.17962533228918465,0.17968994067159685,non_fall
3.993818,-0.0139,-0.0657,0.1666,0.0013,0.0055,0.0003,-41.3214,5.2094,-2.1106,,0.0007019999999999804,0.17962533228918465,0.17630469104867882,non_fall
3.994516,-0.0139,-0.0657,0.1666,0.0013,0.0055,0.0003,-41.3214,5.2094,-2.1106,,0.0006979999999998654,0.17962533228918465,0.17435003407576136,non_fall
4.011141,-0.0139,-0.0657,0.1666,0.0013,0.0055,0.0003,-41.3214,5.2338,-2.1594,,0.016625000000000334,0.17962533228918465,0.1734899306749051,non_fall
4.013293,-0.0139,-0.0657,0.1666,0.0366,-0.0368,0.0027,-41.3214,5.2338,-2.1594,,0.0021519999999997097,0.17962533228918465,0.1733204347709515,non_fall
4.015031,-0.0318,-0.0664,0.1521,0.0366,-0.0368,0.0027,-41.3214,5.2338,-2.1594,,0.0017379999999995732,0.16898109361700794,0.17340383799483577,non_fall
4.056775,-0.0318,-0.0664,0.1521,0.0366,-0.0368,0.0027,-41.3214,5.2338,-2.1594,,0.04174400000000045,0.16898109361700794,0.17330315691661902,non_fall
4.059271,-0.0318,-0.0664,0.1521,0.0366,-0.0368,0.0027,-41.3214,5.2338,-2.1594,,0.0024959999999998317,0.16898109361700794,0.17261536678927664,non_fall
4.061605,-0.0318,-0.0664,0.1521,0.0366,-0.0368,0.0027,-41.3214,5.2338,-2.1594,,0.0023340000000002803,0.16898109361700794,0.17100209413385825,non_fall
4.070193,-0.0318,-0.0664,0.1521,0.0366,-0.0368,0.0027,-41.3214,5.2338,-2.196,,0.008587999999999596,0.16898109361700794,0.16821642625084782,non_fall
4.082146,-0.0318,-0.0664,0.1521,0.0244,0.0025,0.0015,-41.3214,5.2338,-2.196,,0.011953000000000102,0.16898109361700794,0.1641241823720446,non_fall
4.082874,-0.0085,-0.0371,0.1609,0.0244,0.0025,0.0015,-41.3214,5.2338,-2.196,,0.000728000000000506,0.1653404669159973,0.15871765490343073,non_fall
4.123077,-0.0085,-0.0371,0.1609,0.0244,0.0025,0.0015,-41.3214,5.2338,-2.196,,0.04020299999999999,0.1653404669159973,0.15211969135647432,non_fall
4.12572,-0.0085,-0.0371,0.1609,0.0244,0.0025,0.0015,-41.3214,5.2338,-2.196,,0.002642999999999951,0.1653404669159973,0.14457619900250418,non_fall
4.127277,-0.0085,-0.0371,0.1609,0.0244,0.0025,0.0015,-41.3214,5.2338,-2.196,,0.0015570000000000306,0.1653404669159973,0.13643583173560037,non_fall
4.129804,-0.0085,-0.0371,0.1609,0.0244,0.0025,0.0015,-41.3214,5.2582,-2.1228,,0.002526999999999724,0.1653404669159973,0.12811690165590167,non_fall
4.148656,0.0533,-0.0324,-0.0516,0.0244,0.0025,0.0015,-41.3214,5.2582,-2.1228,,0.01885199999999987,0.080951899298287,0.12006357950485656,non_fall
4.150779,0.0533,-0.0324,-0.0516,-0.0013,-0.0146,-0.0016,-41.3214,5.2582,-2.1228,,0.002123000000000097,0.080951899298287,0.11269605844267612,non_fall
4.189692,0.0533,-0.0324,-0.0516,-0.0013,-0.0146,-0.0016,-41.3214,5.2826,-2.1228,,0.038912999999999975,0.080951899298287,0.10636173943067578,non_fall
4.194721,0.0533,-0.0324,-0.0516,-0.0013,-0.0146,-0.0016,-41.3214,5.2826,-2.1228,,0.005029000000000394,0.080951899298287,0.10129538698881493,non_fall
4.196601,0.0533,-0.0324,-0.0516,-0.0013,-0.0146,-0.0016,-41.3214,5.2826,-2.1228,,0.0018799999999998818,0.080951899298287,0.09759491789878222,non_fall
4.198033,0.0533,-0.0324,-0.0516,-0.0013,-0.0146,-0.0016,-41.3214,5.2826,-2.1228,,0.0014319999999994337,0.080951899298287,0.09521658682962261,non_fall
4.199802,0.0533,-0.0324,-0.0516,-0.0013,-0.0146,-0.0016,-41.3214,5.2826,-2.1228,,0.0017690000000003536,0.080951899298287,0.09398999373623855,non_fall
4.21839,0.0533,-0.0324,-0.0516,-0.0036,-0.002,-0.0028,-41.3214,5.2826,-2.1228,,0.01858800000000027,0.080951899298287,0.09365032800720988,non_fall
4.220377,-0.0018,-0.0485,0.1131,-0.0036,-0.002,-0.0028,-41.3214,5.2826,-2.1228,,0.001986999999999739,0.12307355524238342,0.09388275879184414,non_fall
4.249409,-0.0018,-0.0485,0.1131,-0.0036,-0.002,-0.0028,-41.3336,5.2948,-2.074,,0.029031999999999947,0.12307355524238342,0.09437191917781315,non_fall
4.254349,-0.0018,-0.0485,0.1131,-0.0036,-0.002,-0.0028,-41.3336,5.2948,-2.074,,0.0049400000000003885,0.12307355524238342,0.09484832848515219,non_fall
4.257066,-0.0018,-0.0485,0.1131,-0.0036,-0.002,-0.0028,-41.3336,5.2948,-2.074,,0.0027169999999996364,0.12307355524238342,0.09512388368903621,non_fall
4.259871,-0.0018,-0.0485,0.1131,-0.0036,-0.002,-0.0028,-41.3336,5.2948,-2.074,,0.0028050000000003905,0.12307355524238342,0.09511047246457284,non_fall
4.290551,-0.0018,-0.0485,0.1131,-0.0084,0.0047,-0.004,-41.3336,5.2948,-2.074,,0.030679999999999374,0.12307355524238342,0.09481894933354826,non_fall
4.294218,-0.0123,-0.0465,0.0464,-0.0084,0.0047,-0.004,-41.3336,5.2948,-2.074,,0.003667000000000087,0.06683187862090964,0.09433948289483429,non_fall
4.309816,-0.0123,-0.0465,0.0464,-0.0084,0.0047,-0.004,-41.3336,5.2826,-2.074,,0.015597999999999779,0.06683187862090964,0.09380795994338877,non_fall
4.32214,-0.0123,-0.0465,0.0464,-0.0084,0.0047,-0.004,-41.3336,5.2826,-2.074,,0.012324000000000446,0.06683187862090964,0.09336596656996332,non_fall
4.324163,-0.0123,-0.0465,0.0464,-0.0084,0.0047,-0.004,-41.3336,5.2826,-2.074,,0.00202300000000033,0.06683187862090964,0.0931229945167685,non_fall
4.325506,-0.0123,-0.0465,0.0464,-0.0084,0.0047,-0.004,-41.3336,5.2826,-2.074,,0.001342999999999428,0.06683187862090964,0.09312852948688635,non_fall
4.360397,-0.0123,-0.0465,0.0464,0.0013,-0.0008,-0.0017,-41.3336,5.2826,-2.074,,0.034891000000000005,0.06683187862090964,0.09335900725818315,non_fall
4.363919,-0.0138,-0.0313,0.1047,0.0013,-0.0008,-0.0017,-41.3336,5.2826,-2.074,,0.003522000000000247,0.11014635717989044,0.09372115672458592,non_fall
4.379335,-0.0138,-0.0313,0.1047,0.0013,-0.0008,-0.0017,-41.3214,5.2582,-2.0496,,0.015416000000000096,0.11014635717989044,0.09406975323157672,non_fall
4.387724,-0.0138,-0.0313,0.1047,0.0013,-0.0008,-0.0017,-41.3214,5.2582,-2.0496,,0.008389000000000202,0.11014635717989044,0.09423494977614222,non_fall
4.388983,-0.0138,-0.0313,0.1047,0.0013,-0.0008,-0.0017,-41.3214,5.2582,-2.0496,,0.001258999999999233,0.11014635717989044,0.09405281474201788,non_fall
4.389961,-0.0138,-0.0313,0.1047,0.0013,-0.0008,-0.0017,-41.3214,5.2582,-2.0496,,0.0009779999999999234,0.11014635717989044,0.0933928053847536,non_fall
4.391056,-0.0138,-0.0313,0.1047,0.0013,-0.0008,-0.0017,-41.3214,5.2582,-2.0496,,0.0010950000000002902,0.11014635717989044,0.09217731719545103,non_fall
4.4296,-0.0138,-0.0313,0.1047,0.0003,0.0063,-0.0004,-41.3214,5.2582,-2.0496,,0.03854399999999991,0.11014635717989044,0.09039052717541136,non_fall
4.432485,-0.0053,-0.0193,0.0667,0.0003,0.0063,-0.0004,-41.3214,5.2582,-2.0496,,0.0028850000000000264,0.06963813610371834,0.08807603876532133,non_fall
4.446221,-0.0053,-0.0193,0.0667,0.0003,0.0063,-0.0004,-41.358,5.307,-2.0252,,0.013736000000000637,0.06963813610371834,0.08532507474676358,non_fall
4.455576,-0.0053,-0.0193,0.0667,0.0003,0.0063,-0.0004,-41.358,5.307,-2.0252,,0.009354999999999336,0.06963813610371834,0.0822587516221847,non_fall
4.458144,-0.0053,-0.0193,0.0667,0.0003,0.0063,-0.0004,-41.358,5.307,-2.0252,,0.0025680000000001257,0.06963813610371834,0.0790087522416271,non_fall
4.461094,-0.0053,-0.0193,0.0667,0.0003,0.0063,-0.0004,-41.358,5.307,-2.0252,,0.00295000000000023,0.06963813610371834,0.07570024820619572,non_fall
4.499607,-0.0053,-0.0193,0.0667,0.0003,0.0063,-0.0004,-41.4068,5.2948,-2.0374,,0.03851300000000002,0.06963813610371834,0.07243957993817463,non_fall
4.503152,-0.0053,-0.0193,0.0667,-0.0028,-0.0021,-0.0031,-41.4068,5.2948,-2.0374,,0.0035449999999999093,0.06963813610371834,0.06930764843513698,non_fall
4.506173,-0.0085,-0.031,0.0585,-0.0028,-0.0021,-0.0031,-41.4068,5.2948,-2.0374,,0.0030210000000003845,0.0667495318335642,0.0663586802461673,non_fall
4.521746,-0.0085,-0.031,0.0585,-0.0028,-0.0021,-0.0031,-41.4068,5.2948,-2.0374,,0.015572999999999837,0.0667495318335642,0.06362315191448717,non_fall
4.523301,-0.0085,-0.031,0.0585,-0.0028,-0.0021,-0.0031,-41.4068,5.2948,-2.0374,,0.001554999999999751,0.0667495318335642,0.061113189068058085,non_fall
4.524486,-0.0085,-0.031,0.0585,-0.0028,-0.0021,-0.0031,-41.4068,5.2948,-2.0374,,0.0011849999999995475,0.0667495318335642,0.05882862930177761,non_fall
4.557986,-0.0085,-0.031,0.0585,-0.0028,-0.0021,-0.0031,-41.4678,5.307,-2.0374,,0.033500000000000085,0.0667495318335642,0.056762112089536555,non_fall
4.567319,-0.0085,-0.031,0.0585,-0.0087,0.002,-0.0023,-41.4678,5.307,-2.0374,,0.009333000000000702,0.0667495318335642,0.05490202791669689,non_fall
4.570815,0.0082,-0.0245,0.0333,-0.0087,0.002,-0.0023,-41.4678,5.307,-2.0374,,0.0034959999999992775,0.04214712327075242,0.0532329236066816,non_fall
4.587969,0.0082,-0.0245,0.0333,-0.0087,0.002,-0.0023,-41.4678,5.307,-2.0374,,0.017154000000000558,0.04214712327075242,0.05173392765235588,non_fall
4.590389,0.0082,-0.0245,0.0333,-0.0087,0.002,-0.0023,-41.4678,5.307,-2.0374,,0.0024199999999998667,0.04214712327075242,0.050376638105577465,non_fall
4.592493,0.0082,-0.0245,0.0333,-0.0087,0.002,-0.0023,-41.4678,5.307,-2.0374,,0.002104000000000106,0.04214712327075242,0.049124299576518926,non_fall
4.594763,0.0082,-0.0245,0.0333,-0.0087,0.002,-0.0023,-41.4678,5.307,-2.0374,,0.0022700000000002163,0.04214712327075242,0.047933769111282276,non_fall
4.619037,0.0082,-0.0245,0.0333,-0.0087,0.002,-0.0023,-41.4556,5.2948,-2.0862,,0.02427399999999924,0.04214712327075242,0.04676090001760307,non_fall
4.637455,0.0082,-0.0245,0.0333,-0.0061,0.0075,0.0004,-41.4556,5.2948,-2.0862,,0.01841800000000049,0.04214712327075242,0.04556891888419054,non_fall
4.640924,0.0067,-0.0247,0.0479,-0.0061,0.0075,0.0004,-41.4556,5.2948,-2.0862,,0.0034689999999999444,0.05430828666050881,0.04433839796177752,non_fall
4.656747,0.0067,-0.0247,0.0479,-0.0061,0.0075,0.0004,-41.4556,5.2948,-2.0862,,0.015823000000000143,0.05430828666050881,0.0430766658780851,non_fall
4.658586,0.0067,-0.0247,0.0479,-0.0061,0.0075,0.0004,-41.4556,5.2948,-2.0862,,0.00183899999999948,0.05430828666050881,0.04182409837716462,non_fall
4.6603,0.0067,-0.0247,0.0479,-0.0061,0.0075,0.0004,-41.4556,5.2948,-2.0862,,0.0017140000000006594,0.05430828666050881,0.040654875401587326,non_fall
4.676713,0.0067,-0.0247,0.0479,-0.0061,0.0075,0.0004,-41.4556,5.246,-2.074,,0.01641300000000001,0.05430828666050881,0.03967057705701187,non_fall
4.706966,0.0067,-0.0247,0.0479,-0.002,0.0136,-0.0005,-41.4556,5.246,-2.074,,0.030253000000000085,0.05430828666050881,0.0389863249830498,non_fall
4.710324,-0.009,-0.0181,0.006,-0.002,0.0136,-0.0005,-41.4556,5.246,-2.074,,0.003357999999999528,0.021085777196963834,0.03871084567781821,non_fall
4.724791,-0.009,-0.0181,0.006,-0.002,0.0136,-0.0005,-41.4556,5.246,-2.074,,0.014466999999999786,0.021085777196963834,0.03892356085524359,non_fall
4.72701,-0.009,-0.0181,0.006,-0.002,0.0136,-0.0005,-41.4556,5.246,-2.074,,0.002219000000000193,0.021085777196963834,0.0396531560348874,non_fall
4.729223,-0.009,-0.0181,0.006,-0.002,0.0136,-0.0005,-41.4556,5.246,-2.074,,0.0022130000000002426,0.021085777196963834,0.040862481469435497,non_fall
4.737733,-0.009,-0.0181,0.006,-0.002,0.0136,-0.0005,-41.4434,5.2582,-2.0984,,0.00851000000000024,0.021085777196963834,0.04244378916888346,non_fall
4.77827,-0.009,-0.0181,0.006,0.0065,0.0128,-0.0009,-41.4434,5.2582,-2.0984,,0.0405369999999996,0.021085777196963834,0.04422640052157528,non_fall
4.781531,-0.0161,-0.0149,0.062,0.0065,0.0128,-0.0009,-41.4434,5.2582,-2.0984,,0.0032610000000001804,0.06576640479758643,0.04599640409258873,non_fall
4.79171,-0.0161,-0.0149,0.062,0.0065,0.0128,-0.0009,-41.4434,5.2582,-2.0984,,0.010178999999999938,0.06576640479758643,0.04752538293065068,non_fall
4.792752,-0.0161,-0.0149,0.062,0.0065,0.0128,-0.0009,-41.4434,5.2582,-2.0984,,0.0010419999999999874,0.06576640479758643,0.04860304172698388,non_fall
4.793672,-0.0161,-0.0149,0.062,0.0065,0.0128,-0.0009,-41.4434,5.2582,-2.0984,,0.0009199999999998099,0.06576640479758643,0.049067631656774184,non_fall
4.794772,-0.0161,-0.0149,0.062,0.0065,0.0128,-0.0009,-41.4434,5.2582,-2.0984,,0.001100000000000101,0.06576640479758643,0.04882860315772741,non_fall
4.795796,-0.0161,-0.0149,0.062,0.0065,0.0128,-0.0009,-41.4312,5.2582,-2.0984,,0.001024000000000136,0.06576640479758643,0.04787764099643121,non_fall
4.84681,-0.0161,-0.0149,0.062,0.0028,0.0063,-0.0007,-41.4312,5.2582,-2.0984,,0.05101399999999945,0.06576640479758643,0.04628651931334611,non_fall
4.849446,-0.0035,-0.0117,0.0188,0.0028,0.0063,-0.0007,-41.4312,5.2582,-2.0984,,0.002636000000000749,0.022418296099391676,0.04419261747203437,non_fall
4.855501,-0.0035,-0.0117,0.0188,0.0028,0.0063,-0.0007,-41.4312,5.2582,-2.0984,,0.0060549999999999216,0.022418296099391676,0.041775209145427664,non_fall
4.857193,-0.0035,-0.0117,0.0188,0.0028,0.0063,-0.0007,-41.4312,5.2582,-2.0984,,0.0016919999999993607,0.022418296099391676,0.039227364395115684,non_fall
4.858463,-0.0035,-0.0117,0.0188,0.0028,0.0063,-0.0007,-41.4312,5.2582,-2.0984,,0.0012700000000007705,0.022418296099391676,0.03672889999760668,non_fall
4.859949,-0.0035,-0.0117,0.0188,0.0028,0.0063,-0.0007,-41.4068,5.2094,-1.9764,,0.0014859999999998763,0.022418296099391676,0.034425007664433314,non_fall
4.918311,-0.0016,-0.012,0.0311,0.0028,0.0063,-0.0007,-41.4068,5.2094,-1.9764,,0.0583619999999998,0.03337319283496861,0.03241336733799846,non_fall
4.922294,-0.0016,-0.012,0.0311,0.0027,0.0023,-0.0012,-41.4068,5.2094,-1.9764,,0.003982999999999848,0.03337319283496861,0.030740444787054934,non_fall
4.923773,-0.0016,-0.012,0.0311,0.0027,0.0023,-0.0012,-41.3458,5.1484,-1.9398,,0.001478999999999786,0.03337319283496861,0.02940587547016602,non_fall
4.925097,-0.0016,-0.012,0.0311,0.0027,0.0023,-0.0012,-41.3458,5.1484,-1.9398,,0.001324000000000325,0.03337319283496861,0.028372665226690203,non_fall
4.926148,-0.0016,-0.012,0.0311,0.0027,0.0023,-0.0012,-41.3458,5.1484,-1.9398,,0.0010510000000003572,0.03337319283496861,0.027580466802159025,non_fall
4.927162,-0.0016,-0.012,0.0311,0.0027,0.0023,-0.0012,-41.3458,5.1484,-1.9398,,0.0010139999999996263,0.03337319283496861,0.026959293475420348,non_fall
4.977384,-0.0016,-0.012,0.0311,0.0027,0.0023,-0.0012,-41.3336,5.1118,-1.9398,,0.05022199999999977,0.03337319283496861,0.0264414952906243,non_fall
4.987704,-0.0016,-0.012,0.0311,0.0025,0.0013,-0.0015,-41.3336,5.1118,-1.9398,,0.010320000000000107,0.03337319283496861,0.02597048956615881,non_fall
4.990444,-0.0003,-0.0102,0.0187,0.0025,0.0013,-0.0015,-41.3336,5.1118,-1.9398,,0.0027400000000001867,0.0213030514246199,0.025505523961526336,non_fall
4.992603,-0.0003,-0.0102,0.0187,0.0025,0.0013,-0.0015,-41.3336,5.1118,-1.9398,,0.0021589999999998,0.0213030514246199,0.02502258051508379,non_fall
4.994645,-0.0003,-0.0102,0.0187,0.0025,0.0013,-0.0015,-41.3336,5.1118,-1.9398,,0.0020420000000003213,0.0213030514246199,0.02451225369537081,non_fall
4.996535,-0.0003,-0.0102,0.0187,0.0025,0.0013,-0.0015,-41.3336,5.1118,-1.9398,,0.0018899999999995032,0.0213030514246199,0.023975859688556762,non_fall
4.997564,-0.0003,-0.0102,0.0187,0.0025,0.0013,-0.0015,-41.3336,5.1118,-1.9398,,0.0010289999999999466,0.0213030514246199,0.023421061662653044,non_fall
5.015301,-0.0003,-0.0102,0.0187,0.0025,0.0013,-0.0015,-41.2604,5.0996,-1.9398,,0.017737000000000336,0.0213030514246199,0.022858020327926037,non_fall
5.057356,-0.0003,-0.0102,0.0187,0.0025,0.0013,-0.0015,-41.2482,5.0996,-1.9032,,0.0420550000000004,0.0213030514246199,0.022296689439929424,non_fall
5.060539,-0.0003,-0.0102,0.0187,0.0015,0.0068,-0.0027,-41.2482,5.0996,-1.9032,,0.003182999999999936,0.0213030514246199,0.021745507802612474,non_fall
5.062716,-0.0085,-0.0078,0.0175,0.0015,0.0068,-0.0027,-41.2482,5.0996,-1.9032,,0.0021769999999996514,0.020960438926701894,0.02121144139965415,non_fall
5.065089,-0.0085,-0.0078,0.0175,0.0015,0.0068,-0.0027,-41.2482,5.0996,-1.9032,,0.0023730000000004026,0.020960438926701894,0.020701107965546976,non_fall
5.066964,-0.0085,-0.0078,0.0175,0.0015,0.0068,-0.0027,-41.2482,5.0996,-1.9032,,0.0018749999999991829,0.020960438926701894,0.020222567729507476,non_fall
5.068463,-0.0085,-0.0078,0.0175,0.0015,0.0068,-0.0027,-41.2482,5.0996,-1.9032,,0.0014990000000008052,0.020960438926701894,0.019787281656214812,non_fall
5.107658,-0.0085,-0.0078,0.0175,0.0015,0.0068,-0.0027,-41.2604,5.124,-1.952,,0.039194999999999425,0.020960438926701894,0.019411717222731082,non_fall
5.122733,-0.0085,-0.0078,0.0175,0.0015,0.0068,-0.0027,-41.2604,5.124,-1.952,,0.015075000000000394,0.020960438926701894,0.019118120693383204,non_fall
5.125743,-0.0085,-0.0078,0.0175,0.0015,0.0068,-0.0027,-41.2604,5.124,-1.952,,0.003009999999999735,0.020960438926701894,0.018934074323862633,non_fall
5.128241,-0.0085,-0.0078,0.0175,0.0015,0.0068,-0.0027,-41.2604,5.124,-1.952,,0.0024980000000001112,0.020960438926701894,0.01889061395222491,non_fall
5.1304,-0.0085,-0.0078,0.0175,0.0012,0.0001,-0.0019,-41.2604,5.124,-1.952,,0.0021589999999998,0.020960438926701894,0.019018889159167572,non_fall
5.132084,-0.0043,-0.0037,0.0181,0.0012,0.0001,-0.0019,-41.2604,5.124,-1.952,,0.0016840000000000188,0.0189681311678299,0.019345591447185603,non_fall
5.158359,-0.0043,-0.0037,0.0181,0.0012,0.0001,-0.0019,-41.297,5.0996,-1.952,,0.02627500000000005,0.0189681311678299,0.019887632137331288,non_fall
5.189101,-0.0043,-0.0037,0.0181,0.0012,0.0001,-0.0019,-41.297,5.0996,-1.952,,0.030742000000000047,0.0189681311678299,0.02064677915430682,non_fall
5.191993,-0.0043,-0.0037,0.0181,0.0012,0.0001,-0.0019,-41.297,5.0996,-1.952,,0.0028920000000001167,0.0189681311678299,0.021605106244122256,non_fall
5.193928,-0.0043,-0.0037,0.0181,0.0012,0.0001,-0.0019,-41.297,5.0996,-1.952,,0.001934999999999576,0.0189681311678299,0.022722127445739336,non_fall
5.19647,-0.0043,-0.0037,0.0181,0.0012,0.0001,-0.0019,-41.297,5.0996,-1.952,,0.0025420000000000442,0.0189681311678299,0.023934370899564943,non_fall
5.197551,-0.0043,-0.0037,0.0181,0.0003,-0.004,-0.0012,-41.297,5.0996,-1.952,,0.0010810000000001097,0.0189681311678299,0.025157892125770537,non_fall
5.198844,-0.0037,-0.0079,0.0282,0.0003,-0.004,-0.0012,-41.297,5.0996,-1.952,,0.0012930000000004327,0.029518468794976476,0.026293840473826977,non_fall
5.208637,-0.0037,-0.0079,0.0282,0.0003,-0.004,-0.0012,-41.3336,5.0996,-2.0008,,0.009793000000000163,0.029518468794976476,0.02723670262785557,non_fall
5.256429,-0.0037,-0.0079,0.0282,0.0003,-0.004,-0.0012,-41.3336,5.0996,-2.0008,,0.04779199999999939,0.029518468794976476,0.027884360563356206,non_fall
5.258355,-0.0037,-0.0079,0.0282,0.0003,-0.004,-0.0012,-41.3336,5.0996,-2.0008,,0.0019260000000000943,0.029518468794976476,0.028148781413507597,non_fall
5.259247,-0.0037,-0.0079,0.0282,0.0003,-0.004,-0.0012,-41.3336,5.0996,-2.0008,,0.000892000000000337,0.029518468794976476,0.027966097947879458,non_fall
5.260429,-0.0037,-0.0079,0.0282,0.0003,-0.004,-0.0012,-41.3702,5.1362,-2.1106,,0.0011820000000000164,0.029518468794976476,0.02730498610546923,non_fall
5.266405,-0.0037,-0.0079,0.0282,0.0003,-0.0051,-0.0012,-41.3702,5.1362,-2.1106,,0.005975999999999537,0.029518468794976476,0.026172477111859615,non_fall
5.268993,-0.0022,-0.0075,0.0217,0.0003,-0.0051,-0.0012,-41.3702,5.1362,-2.1106,,0.0025880000000002568,0.023064691630281988,0.024616587030080954,non_fall
5.307674,-0.0022,-0.0075,0.0217,0.0003,-0.0051,-0.0012,-41.3824,5.1362,-2.1472,,0.03868099999999952,0.023064691630281988,0.02272539916808822,non_fall
5.322908,-0.0022,-0.0075,0.0217,0.0003,-0.0051,-0.0012,-41.3824,5.1362,-2.1472,,0.015234000000000414,0.023064691630281988,0.02062247989273483,non_fall
5.325917,-0.0022,-0.0075,0.0217,0.0003,-0.0051,-0.0012,-41.3824,5.1362,-2.1472,,0.0030089999999995953,0.023064691630281988,0.018458707390894055,non_fall
5.328573,-0.0022,-0.0075,0.0217,0.0003,-0.0051,-0.0012,-41.3824,5.1362,-2.1472,,0.0026559999999999917,0.023064691630281988,0.016400750251580734,non_fall
5.33551,-0.0022,-0.0075,0.0217,-0.0008,-0.0109,-0.0011,-41.3824,5.1362,-2.1472,,0.006937000000000637,0.023064691630281988,0.014616640726595364,non_fall
5.337591,-0.0004,-0.0068,0.0012,-0.0008,-0.0109,-0.0011,-41.3824,5.1362,-2.1472,,0.0020809999999995554,0.006916646586316233,0.013259263077981096,non_fall
5.356756,-0.0004,-0.0068,0.0012,-0.0008,-0.0109,-0.0011,-41.297,5.1362,-2.1594,,0.0191650000000001,0.006916646586316233,0.012449135890230932,non_fall
5.389162,-0.0004,-0.0068,0.0012,-0.0008,-0.0109,-0.0011,-41.297,5.1362,-2.1594,,0.032405999999999935,0.006916646586316233,0.01225844046037874,non_fall
5.392357,-0.0004,-0.0068,0.0012,-0.0008,-0.0109,-0.0011,-41.297,5.1362,-2.1594,,0.003194999999999837,0.006916646586316233,0.012698553208735829,non_fall
5.394564,-0.0004,-0.0068,0.0012,-0.0008,-0.0109,-0.0011,-41.297,5.1362,-2.1594,,0.002207000000000292,0.006916646586316233,0.013713198127651975,non_fall
5.396512,-0.0004,-0.0068,0.0012,-0.0008,-0.0109,-0.0011,-41.297,5.1362,-2.1594,,0.0019480000000005049,0.006916646586316233,0.015178799638605467,non_fall
5.405426,-0.0004,-0.0068,0.0012,-0.0008,-0.0109,-0.0011,-41.3458,5.1484,-2.1716,,0.008913999999999866,0.006916646586316233,0.016912856983129387,non_fall
5.407738,-0.0004,-0.0068,0.0012,0.0009,-0.0133,0.0016,-41.3458,5.1484,-2.1716,,0.0023119999999998697,0.006916646586316233,0.018690276618758363,non_fall
5.408851,-0.0003,-0.0063,0.0288,0.0009,-0.0133,0.0016,-41.3458,5.1484,-2.1716,,0.0011130000000001417,0.02948253720425025,0.0202665917807671,non_fall
5.457039,-0.0003,-0.0063,0.0288,0.0009,-0.0133,0.0016,-41.3458,5.1484,-2.1716,,0.048187999999999676,0.02948253720425025,0.02140590864716768,non_fall
5.460728,-0.0003,-0.0063,0.0288,0.0009,-0.0133,0.0016,-41.3458,5.1484,-2.1716,,0.0036889999999996093,0.02948253720425025,0.021910462974903042,non_fall
5.462682,-0.0003,-0.0063,0.0288,0.0009,-0.0133,0.0016,-41.3458,5.1484,-2.1716,,0.0019540000000004554,0.02948253720425025,0.021648194347043587,non_fall
5.464873,-0.0003,-0.0063,0.0288,0.0009,-0.0133,0.0016,-41.3824,5.1972,-2.2082,,0.002190999999999832,0.02948253720425025,0.020574948531273177,non_fall
5.475333,-0.0003,-0.0063,0.0288,-0.0036,0.0037,0.0001,-41.3824,5.1972,-2.2082,,0.010460000000000136,0.02948253720425025,0.018748684134782166,non_fall
5.477152,-0.0027,-0.0035,0.0108,-0.0036,0.0037,0.0001,-41.3824,5.1972,-2.2082,,0.001819000000000237,0.011669618674146984,0.01633411020089947,non_fall
5.506735,-0.0027,-0.0035,0.0108,-0.0036,0.0037,0.0001,-41.419,5.185,-2.1472,,0.029582999999999693,0.011669618674146984,0.013597295319939627,non_fall
5.52253,-0.0027,-0.0035,0.0108,-0.0036,0.0037,0.0001,-41.419,5.185,-2.1472,,0.01579499999999978,0.011669618674146984,0.010890783283379989,non_fall
5.524909,-0.0027,-0.0035,0.0108,-0.0036,0.0037,0.0001,-41.419,5.185,-2.1472,,0.002379000000000353,0.011669618674146984,0.008630429632311894,non_fall
5.526098,-0.0027,-0.0035,0.0108,-0.0036,0.0037,0.0001,-41.419,5.185,-2.1472,,0.0011890000000001066,0.011669618674146984,0.0072654693797051485,non_fall
5.545621,-0.0027,-0.0035,0.0108,-0.0189,-0.0666,0.0001,-41.419,5.185,-2.1472,,0.019522999999999513,0.011669618674146984,0.007243409904406014,non_fall
5.549696,-0.0027,-0.0076,0.017,-0.0189,-0.0666,0.0001,-41.419,5.185,-2.1472,,0.004075000000000273,0.01881621641032012,0.008971480559319938,non_fall
5.559586,-0.0027,-0.0076,0.017,-0.0189,-0.0666,0.0001,-41.3824,5.2094,-2.1228,,0.009890000000000398,0.01881621641032012,0.012776718476136196,non_fall
5.589103,-0.0027,-0.0076,0.017,-0.0189,-0.0666,0.0001,-41.3824,5.2094,-2.1228,,0.02951699999999935,0.01881621641032012,0.0188673499767445,non_fall
5.591489,-0.0027,-0.0076,0.017,-0.0189,-0.0666,0.0001,-41.3824,5.2094,-2.1228,,0.0023860000000004433,0.01881621641032012,0.02729887528334305,non_fall
5.592875,-0.0027,-0.0076,0.017,-0.0189,-0.0666,0.0001,-41.3824,5.2094,-2.1228,,0.0013860000000001094,0.01881621641032012,0.03794900026689606,non_fall
5.59415,-0.0027,-0.0076,0.017,-0.0189,-0.0666,0.0001,-41.3824,5.2094,-2.1228,,0.001274999999999693,0.01881621641032012,0.050505951004781675,non_fall
5.607043,-0.0027,-0.0076,0.017,-0.0189,-0.0666,0.0001,-41.3702,5.185,-2.0374,,0.012893000000000043,0.01881621641032012,0.06447434317964704,non_fall
5.613301,-0.0027,-0.0076,0.017,-0.034,-0.12,0.002,-41.3702,5.185,-2.0374,,0.006257999999999875,0.01881621641032012,0.07920127407848745,non_fall
5.616908,0.0259,-0.0169,0.146,-0.034,-0.12,0.002,-41.3702,5.185,-2.0374,,0.003606999999999694,0.14923947199048915,0.09392241719039575,non_fall
5.656841,0.0259,-0.0169,0.146,-0.034,-0.12,0.002,-41.3824,5.1728,-1.952,,0.03993300000000044,0.14923947199048915,0.10782388326710612,non_fall
5.660636,0.0259,-0.0169,0.146,-0.034,-0.12,0.002,-41.3824,5.1728,-1.952,,0.003795000000000215,0.14923947199048915,0.12011172717912189,non_fall
5.663089,0.0259,-0.0169,0.146,-0.034,-0.12,0.002,-41.3824,5.1728,-1.952,,0.0024530000000000385,0.14923947199048915,0.1300791479903919,non_fall
5.665494,0.0259,-0.0169,0.146,-0.034,-0.12,0.002,-41.3824,5.1728,-1.952,,0.0024049999999995464,0.14923947199048915,0.13716266438010838,non_fall
5.685573,0.0259,-0.0169,0.146,0.0196,-0.032,0.0012,-41.3824,5.1728,-1.952,,0.020078999999999958,0.14923947199048915,0.1409819552629624,non_fall
5.688669,0.0002,-0.0179,0.1199,0.0196,-0.032,0.0012,-41.3824,5.1728,-1.952,,0.0030960000000002097,0.1212289569368639,0.1413618235919647,non_fall
5.711499,0.0002,-0.0179,0.1199,0.0196,-0.032,0.0012,-41.4556,5.1972,-1.8666,,0.022829999999999906,0.1212289569368639,0.13833763189636336,non_fall
5.713281,0.0002,-0.0179,0.1199,0.0196,-0.032,0.0012,-41.5532,5.2094,-1.7446,,0.0017820000000003944,0.1212289569368639,0.13214714106151493,non_fall
5.722403,0.0002,-0.0179,0.1199,0.0196,-0.032,0.0012,-41.5532,5.2094,-1.7446,,0.00912199999999963,0.1212289569368639,0.12321188751867387,non_fall
5.723801,0.0002,-0.0179,0.1199,0.0196,-0.032,0.0012,-41.5532,5.2094,-1.7446,,0.0013980000000000103,0.1212289569368639,0.11211029859136305,non_fall
5.724522,0.0002,-0.0179,0.1199,0.0196,-0.032,0.0012,-41.5532,5.2094,-1.7446,,0.0007210000000004158,0.1212289569368639,0.09954333981247372,non_fall
5.746442,0.0002,-0.0179,0.1199,0.0196,-0.032,0.0012,-41.5532,5.2094,-1.7446,,0.021919999999999717,0.1212289569368639,0.08629246529328573,non_fall
5.749511,0.0002,-0.0179,0.1199,0.0196,-0.032,0.0012,-41.5532,5.2094,-1.7446,,0.0030689999999999884,0.1212289569368639,0.07316967713267292,non_fall
5.753394,0.0032,-0.0006,-0.0146,0.0196,-0.032,0.0012,-41.5532,5.2094,-1.7446,,0.003883000000000081,0.014958609561052123,0.06096093074354043,non_fall
5.755859,0.0032,-0.0006,-0.0146,0.0636,-0.0184,0.0095,-41.5532,5.2094,-1.7446,,0.0024649999999999395,0.014958609561052123,0.05036675104768587,non_fall
5.774892,0.0032,-0.0006,-0.0146,0.0636,-0.0184,0.0095,-41.5532,5.1606,-1.5982,,0.0190330000000003,0.014958609561052123,0.041946670619661966,non_fall
5.790598,0.0032,-0.0006,-0.0146,0.0636,-0.0184,0.0095,-41.5532,5.1606,-1.5982,,0.015705999999999776,0.014958609561052123,0.03607531043688073,non_fall
5.792426,0.0032,-0.0006,-0.0146,0.0636,-0.0184,0.0095,-41.5532,5.1606,-1.5982,,0.0018279999999997187,0.014958609561052123,0.03291665960159983,non_fall
5.824187,0.0032,-0.0006,-0.0146,0.0858,-0.0732,-0.015,-41.5532,5.1606,-1.5982,,0.03176100000000037,0.014958609561052123,0.03241998384418743,non_fall
5.827948,0.0473,0.022,0.0162,0.0858,-0.0732,-0.015,-41.5532,5.1606,-1.5982,,0.0037609999999999033,0.054623529728497044,0.034337184335220275,non_fall
5.839505,0.0473,0.022,0.0162,0.0858,-0.0732,-0.015,-41.541,5.0874,-1.4884,,0.011556999999999817,0.054623529728497044,0.038258331979562715,non_fall
5.854495,0.0473,0.022,0.0162,0.0858,-0.0732,-0.015,-41.541,5.0874,-1.4884,,0.014990000000000059,0.054623529728497044,0.04366001170595785,non_fall
5.85662,0.0473,0.022,0.0162,0.0858,-0.0732,-0.015,-41.541,5.0874,-1.4884,,0.0021250000000003766,0.054623529728497044,0.04996034837064383,non_fall
5.857979,0.0473,0.022,0.0162,0.0858,-0.0732,-0.015,-41.541,5.0874,-1.4884,,0.001358999999999888,0.054623529728497044,0.05657513839683919,non_fall
5.894187,0.0473,0.022,0.0162,0.0858,-0.0732,-0.015,-41.4922,5.002,-1.3542,,0.03620799999999935,0.054623529728497044,0.06297080590238555,non_fall
5.897476,0.0473,0.022,0.0162,0.1397,-0.1103,-0.087,-41.4922,5.002,-1.3542,,0.0032890000000005415,0.054623529728497044,0.06871112582068774,non_fall
5.899884,0.0146,0.0117,-0.0947,0.1397,-0.1103,-0.087,-41.4922,5.002,-1.3542,,0.0024079999999999657,0.09653051331055897,0.07349526884230147,non_fall
5.922918,0.0146,0.0117,-0.0947,0.1397,-0.1103,-0.087,-41.4922,5.002,-1.3542,,0.023034,0.09653051331055897,0.07718468135060584,non_fall
5.926381,0.0146,0.0117,-0.0947,0.1397,-0.1103,-0.087,-41.4922,5.002,-1.3542,,0.003462999999999994,0.09653051331055897,0.07981607571168349,non_fall
5.928754,0.0146,0.0117,-0.0947,0.1397,-0.1103,-0.087,-41.4922,5.002,-1.3542,,0.0023729999999995144,0.09653051331055897,0.08159809312986967,non_fall
5.930951,0.0146,0.0117,-0.0947,0.1397,-0.1103,-0.087,-41.4922,5.002,-1.3542,,0.0021970000000006706,0.09653051331055897,0.08289044899425427,non_fall
5.953706,0.0146,0.0117,-0.0947,0.1397,-0.1103,-0.087,-41.4922,4.819,-1.1834,,0.02275500000000008,0.09653051331055897,0.08416638640278395,non_fall
5.963027,0.0146,0.0117,-0.0947,0.2826,-0.0759,-0.0519,-41.4922,4.819,-1.1834,,0.009320999999999913,0.09653051331055897,0.0859615264640671,non_fall
5.965143,0.0089,-0.0521,-0.0447,0.2826,-0.0759,-0.0519,-41.4922,4.819,-1.1834,,0.0021160000000000068,0.06922217852682765,0.0888143363610601,non_fall
5.988103,0.0089,-0.0521,-0.0447,0.2826,-0.0759,-0.0519,-41.4922,4.819,-1.1834,,0.022959999999999425,0.06922217852682765,0.09320522470570747,non_fall
5.99031,0.0089,-0.0521,-0.0447,0.2826,-0.0759,-0.0519,-41.4922,4.819,-1.1834,,0.002207000000000292,0.06922217852682765,0.09950238817598454,non_fall
5.992057,0.0089,-0.0521,-0.0447,0.2826,-0.0759,-0.0519,-41.4922,4.819,-1.1834,,0.001746999999999943,0.06922217852682765,0.10792247867923299,non_fall
6.013507,0.0089,-0.0521,-0.0447,0.2826,-0.0759,-0.0519,-41.3946,4.6482,-0.9516,,0.021449999999999747,0.06922217852682765,0.11851258414380834,non_fall
6.03347,0.0089,-0.0521,-0.0447,0.3811,0.0421,-0.0555,-41.3946,4.6482,-0.9516,,0.01996300000000062,0.06922217852682765,0.13115692726852626,non_fall
6.037077,0.0042,0.1646,-0.1371,0.3811,0.0421,-0.0555,-41.3946,4.6482,-0.9516,,0.003606999999999694,0.21425967889456007,0.1456073378914838,non_fall
6.056084,0.0042,0.1646,-0.1371,0.3811,0.0421,-0.0555,-41.3946,4.6482,-0.9516,,0.019007000000000218,0.21425967889456007,0.1615315299032578,non_fall
6.058348,0.0042,0.1646,-0.1371,0.3811,0.0421,-0.0555,-41.3946,4.6482,-0.9516,,0.0022639999999993776,0.21425967889456007,0.17856893281775732,non_fall
6.06025,0.0042,0.1646,-0.1371,0.3811,0.0421,-0.0555,-41.3946,4.6482,-0.9516,,0.0019020000000002923,0.21425967889456007,0.19638227287778934,non_fall
6.071929,0.0042,0.1646,-0.1371,0.3811,0.0421,-0.0555,-41.2604,4.4286,-0.7808,,0.011678999999999995,0.21425967889456007,0.21469514487649352,non_fall
6.102407,0.0042,0.1646,-0.1371,0.7047,-0.0096,-0.0715,-41.2604,4.4286,-0.7808,,0.03047800000000045,0.21425967889456007,0.2333101405727144,non_fall
6.106432,-0.1963,0.1482,-0.1746,0.7047,-0.0096,-0.0715,-41.2604,4.4286,-0.7808,,0.004024999999999501,0.3016323755832586,0.2521063524285967,non_fall
6.122159,-0.1963,0.1482,-0.1746,0.7047,-0.0096,-0.0715,-41.2604,4.4286,-0.7808,,0.015727000000000046,0.3016323755832586,0.271017873372996,non_fall
6.123639,-0.1963,0.1482,-0.1746,0.7047,-0.0096,-0.0715,-41.2604,4.4286,-0.7808,,0.0014799999999999258,0.3016323755832586,0.28999658744947143,non_fall
6.124523,-0.1963,0.1482,-0.1746,0.7047,-0.0096,-0.0715,-41.2604,4.4286,-0.7808,,0.0008840000000001069,0.3016323755832586,0.30896430878356107,non_fall
6.12536,-0.1963,0.1482,-0.1746,0.7047,-0.0096,-0.0715,-41.2604,4.4286,-0.7808,,0.0008369999999997546,0.3016323755832586,0.3277618190992982,non_fall
6.131085,-0.1963,0.1482,-0.1746,0.7047,-0.0096,-0.0715,-41.0774,4.1358,-0.5368,,0.00572499999999998,0.3016323755832586,0.34610488446894044,non_fall
6.173524,-0.1963,0.1482,-0.1746,1.073,-0.0827,-0.1234,-41.0774,4.1358,-0.5368,,0.042438999999999893,0.3016323755832586,0.36355854635822354,non_fall
6.177345,-0.2198,0.063,-0.2829,1.073,-0.0827,-0.1234,-41.0774,4.1358,-0.5368,,0.0038210000000002964,0.36374915807462704,0.3795399638695829,non_fall
6.189378,-0.2198,0.063,-0.2829,1.073,-0.0827,-0.1234,-41.0774,4.1358,-0.5368,,0.012032999999999738,0.36374915807462704,0.3933567766340657,non_fall
6.192533,-0.2198,0.063,-0.2829,1.073,-0.0827,-0.1234,-41.0774,4.1358,-0.5368,,0.003155000000000463,0.36374915807462704,0.4042830816733945,non_fall
6.194421,-0.2198,0.063,-0.2829,1.073,-0.0827,-0.1234,-41.0774,4.1358,-0.5368,,0.0018880000000001118,0.36374915807462704,0.4116697760968759,non_fall
6.196344,-0.2198,0.063,-0.2829,1.073,-0.0827,-0.1234,-40.87,3.8308,-0.244,,0.001922999999999675,0.36374915807462704,0.415080911395562,non_fall
6.243731,-0.2198,0.063,-0.2829,1.2669,-0.2549,-0.0871,-40.87,3.8308,-0.244,,0.04738700000000051,0.36374915807462704,0.41444266338591534,non_fall
6.247943,-0.1661,-0.0229,-0.4947,1.2669,-0.2549,-0.0871,-40.87,3.8308,-0.244,,0.0042119999999998825,0.5223425217230547,0.41018606891361337,non_fall
6.252945,-0.1661,-0.0229,-0.4947,1.2669,-0.2549,-0.0871,-40.7724,3.6478,-0.0976,,0.005002000000000173,0.5223425217230547,0.4033592122113071,non_fall
6.256129,-0.1661,-0.0229,-0.4947,1.2669,-0.2549,-0.0871,-40.7724,3.6478,-0.0976,,0.0031839999999991875,0.5223425217230547,0.39568107947624254,non_fall
6.258427,-0.1661,-0.0229,-0.4947,1.2669,-0.2549,-0.0871,-40.7724,3.6478,-0.0976,,0.0022980000000005774,0.5223425217230547,0.389510755377429,non_fall
6.260949,-0.1661,-0.0229,-0.4947,1.2669,-0.2549,-0.0871,-40.7724,3.6478,-0.0976,,0.002521999999999913,0.5223425217230547,0.3877136604277538,non_fall
6.313236,-0.1661,-0.0229,-0.4947,1.2669,-0.2549,-0.0871,-40.7236,3.4648,0.2562,,0.05228699999999975,0.5223425217230547,0.39342017193886114,non_fall
6.317402,-0.1661,-0.0229,-0.4947,1.236,-0.5088,0.0229,-40.7236,3.4648,0.2562,,0.004166000000000558,0.5223425217230547,0.40968882078579627,non_fall
6.320203,-0.0205,0.1915,-0.2928,1.236,-0.5088,0.0229,-40.7236,3.4648,0.2562,,0.0028009999999998314,0.350463036567339,0.43910418945189494,non_fall
6.323069,-0.0205,0.1915,-0.2928,1.236,-0.5088,0.0229,-40.7236,3.4648,0.2562,,0.002866000000000035,0.350463036567339,0.4833567288843026,non_fall
6.324653,-0.0205,0.1915,-0.2928,1.236,-0.5088,0.0229,-40.7236,3.4648,0.2562,,0.0015839999999993637,0.350463036567339,0.5428649346166875,non_fall
6.325738,-0.0205,0.1915,-0.2928,1.236,-0.5088,0.0229,-40.7236,3.4648,0.2562,,0.0010850000000006688,0.350463036567339,0.6165056005233834,non_fall
6.326808,-0.0205,0.1915,-0.2928,1.236,-0.5088,0.0229,-40.7236,3.4648,0.2562,,0.0010699999999994603,0.350463036567339,0.7015121435149788,non_fall
6.372029,-0.0205,0.1915,-0.2928,1.236,-0.5088,0.0229,-40.7358,3.4282,0.61,,0.04522100000000062,0.350463036567339,0.7935836709395555,non_fall
6.382255,-0.0205,0.1915,-0.2928,0.9915,-0.4217,0.1045,-40.7358,3.4282,0.61,,0.010225999999999402,0.350463036567339,0.8872192533408594,non_fall
6.385406,1.0229,1.0845,-0.3499,0.9915,-0.4217,0.1045,-40.7358,3.4282,0.61,,0.003150999999999904,1.5313048912610447,0.9762535411146704,non_fall
6.387564,1.0229,1.0845,-0.3499,0.9915,-0.4217,0.1045,-40.7358,3.4282,0.61,,0.0021580000000005484,1.5313048912610447,1.0545252454127811,non_fall
6.389486,1.0229,1.0845,-0.3499,0.9915,-0.4217,0.1045,-40.7358,3.4282,0.61,,0.0019219999999995352,1.5313048912610447,1.116571367338567,non_fall
6.391015,1.0229,1.0845,-0.3499,0.9915,-0.4217,0.1045,-40.7358,3.4282,0.61,,0.0015290000000005577,1.5313048912610447,1.1582254982387474,non_fall
6.432713,1.0229,1.0845,-0.3499,0.9915,-0.4217,0.1045,-40.748,3.5258,1.0248,,0.04169799999999935,1.5313048912610447,1.1770177886843232,non_fall
6.452242,1.0229,1.0845,-0.3499,0.7482,-0.4111,0.0543,-40.748,3.5258,1.0248,,0.01952900000000035,1.5313048912610447,1.1723196063562396,non_fall
6.455332,0.4358,0.5672,0.1526,0.7482,-0.4111,0.0543,-40.748,3.5258,1.0248,,0.003090000000000259,0.7313851516130199,1.1452309226456288,non_fall
6.458239,0.4358,0.5672,0.1526,0.7482,-0.4111,0.0543,-40.748,3.5258,1.0248,,0.002906999999999549,0.7313851516130199,1.098259629802006,non_fall
6.460715,0.4358,0.5672,0.1526,0.7482,-0.4111,0.0543,-40.748,3.5258,1.0248,,0.002476000000000589,0.7313851516130199,1.0348788985148267,non_fall
6.462622,0.4358,0.5672,0.1526,0.7482,-0.4111,0.0543,-40.748,3.5258,1.0248,,0.0019069999999992149,0.7313851516130199,0.9590614236227959,non_fall
6.492259,0.4358,0.5672,0.1526,0.7482,-0.4111,0.0543,-40.8212,3.6966,1.4396,,0.029637000000000135,0.7313851516130199,0.8748747671397762,non_fall
6.523536,0.4358,0.5672,0.1526,0.777,-0.2362,0.0683,-40.8212,3.6966,1.4396,,0.03127700000000022,0.7313851516130199,0.7861888375729055,non_fall
6.52797,0.4358,0.5672,0.1526,0.777,-0.2362,0.0683,-40.8212,3.6966,1.4396,,0.004433999999999827,0.7313851516130199,0.6965094320444636,non_fall
6.529084,0.4358,0.5672,0.1526,0.777,-0.2362,0.0683,-40.8212,3.6966,1.4396,,0.0011140000000002814,0.7313851516130199,0.6089212685186073,non_fall
6.530211,0.4358,0.5672,0.1526,0.777,-0.2362,0.0683,-40.8212,3.6966,1.4396,,0.0011270000000003222,0.7313851516130199,0.5261043388433436,non_fall
6.531588,0.4358,0.5672,0.1526,0.777,-0.2362,0.0683,-40.8212,3.6966,1.4396,,0.0013769999999997395,0.7313851516130199,0.45037984103525897,non_fall
6.533159,0.0166,0.0624,-0.2728,0.777,-0.2362,0.0683,-40.8212,3.6966,1.4396,,0.0015710000000002111,0.28033758221116195,0.3837463484267017,non_fall
6.551875,0.0166,0.0624,-0.2728,0.777,-0.2362,0.0683,-40.9554,3.9406,1.9276,,0.01871599999999951,0.28033758221116195,0.3278812638189879,non_fall
6.588801,0.0166,0.0624,-0.2728,0.777,-0.2362,0.0683,-40.9554,3.9406,1.9276,,0.036926000000000236,0.28033758221116195,0.2841013933828655,non_fall
6.591835,0.0166,0.0624,-0.2728,0.777,-0.2362,0.0683,-40.9554,3.9406,1.9276,,0.003033999999999537,0.28033758221116195,0.2532917418829742,non_fall
6.593855,0.0166,0.0624,-0.2728,0.777,-0.2362,0.0683,-40.9554,3.9406,1.9276,,0.0020199999999999108,0.28033758221116195,0.23581866120762168,non_fall
6.596504,0.0166,0.0624,-0.2728,0.631,-0.0582,0.0656,-40.9554,3.9406,1.9276,,0.0026490000000007896,0.28033758221116195,0.23144429204711794,non_fall
6.599202,-0.1512,-0.0376,-0.0181,0.631,-0.0582,0.0656,-40.9554,3.9406,1.9276,,0.002697999999999645,0.15685282911060291,0.23925907417723397,non_fall
6.611154,-0.1512,-0.0376,-0.0181,0.631,-0.0582,0.0656,-41.1384,4.3432,2.2814,,0.011951999999999963,0.15685282911060291,0.257650703320353,non_fall
6.656159,-0.1512,-0.0376,-0.0181,0.631,-0.0582,0.0656,-41.1384,4.3432,2.2814,,0.04500499999999974,0.15685282911060291,0.2843298632333099,non_fall
6.659056,-0.1512,-0.0376,-0.0181,0.631,-0.0582,0.0656,-41.1384,4.3432,2.2814,,0.0028969999999999274,0.15685282911060291,0.31643194741443464,non_fall
6.661203,-0.1512,-0.0376,-0.0181,0.631,-0.0582,0.0656,-41.1384,4.3432,2.2814,,0.002147000000000787,0.15685282911060291,0.35070722860700837,non_fall
6.663269,-0.1512,-0.0376,-0.0181,0.5217,0.2124,-0.0419,-41.1384,4.3432,2.2814,,0.002065999999999235,0.15685282911060291,0.3837990880560956,non_fall
6.665888,-0.6346,-0.0163,-0.0365,0.5217,0.2124,-0.0419,-41.1384,4.3432,2.2814,,0.002619000000000149,0.6358577671146276,0.41259205740213617,non_fall
6.674353,-0.6346,-0.0163,-0.0365,0.5217,0.2124,-0.0419,-41.3458,4.7458,2.4644,,0.008465000000000167,0.6358577671146276,0.43459104858343994,non_fall
6.722435,-0.6346,-0.0163,-0.0365,0.5217,0.2124,-0.0419,-41.3458,4.7458,2.4644,,0.04808199999999996,0.6358577671146276,0.4482757137460267,non_fall
6.725569,-0.6346,-0.0163,-0.0365,0.5217,0.2124,-0.0419,-41.3458,4.7458,2.4644,,0.003134000000000192,0.6358577671146276,0.4533669811353555,non_fall
6.72631,-0.6346,-0.0163,-0.0365,0.5217,0.2124,-0.0419,-41.3458,4.7458,2.4644,,0.0007409999999996586,0.6358577671146276,0.45095067160335905,non_fall
6.72693,-0.6346,-0.0163,-0.0365,0.5217,0.2124,-0.0419,-41.3458,4.7458,2.4644,,0.000620000000000509,0.6358577671146276,0.44342284268993765,non_fall
6.728542,-0.6346,-0.0163,-0.0365,0.3868,0.4935,-0.2225,-41.3458,4.7458,2.4644,,0.0016119999999997248,0.6358577671146276,0.434246745139433,non_fall
6.729447,-0.6346,-0.0163,-0.0365,0.3868,0.4935,-0.2225,-41.4678,5.0752,2.5864,,0.0009050000000003777,0.6358577671146276,0.42753775833325836,non_fall
6.730232,-0.047,-0.0012,-0.1714,0.3868,0.4935,-0.2225,-41.4678,5.0752,2.5864,,0.0007849999999995916,0.1777312578023348,0.4275191798260211,non_fall
6.787894,-0.047,-0.0012,-0.1714,0.3868,0.4935,-0.2225,-41.4434,5.2094,2.5376,,0.05766199999999966,0.1777312578023348,0.4379168276791137,non_fall
6.788643,-0.047,-0.0012,-0.1714,0.3868,0.4935,-0.2225,-41.4434,5.2094,2.5376,,0.0007490000000007768,0.1777312578023348,0.4613791687922371,non_fall
6.788854,-0.047,-0.0012,-0.1714,0.3868,0.4935,-0.2225,-41.4434,5.2094,2.5376,,0.00021099999999929508,0.1777312578023348,0.4990146802228162,non_fall
6.789047,-0.047,-0.0012,-0.1714,0.3868,0.4935,-0.2225,-41.4434,5.2094,2.5376,,0.0001930000000003318,0.1777312578023348,0.55012497249363,non_fall
6.798985,-0.047,-0.0012,-0.1714,0.1807,0.3854,-0.1591,-41.4434,5.2094,2.5376,,0.009938000000000002,0.1777312578023348,0.6121830657868236,non_fall
6.799725,-0.2027,-0.3008,-0.9214,0.1807,0.3854,-0.1591,-41.4434,5.2094,2.5376,,0.0007399999999995188,0.9902251713625543,0.6810669944819806,non_fall
6.852715,-0.2027,-0.3008,-0.9214,0.1807,0.3854,-0.1591,-41.48,5.3436,2.1472,,0.052990000000000315,0.9902251713625543,0.7515160512015491,non_fall
6.854613,-0.2027,-0.3008,-0.9214,0.1807,0.3854,-0.1591,-41.48,5.3436,2.1472,,0.0018979999999997332,0.9902251713625543,0.8177395375422599,non_fall
6.85559,-0.2027,-0.3008,-0.9214,0.1807,0.3854,-0.1591,-41.48,5.3436,2.1472,,0.0009770000000006718,0.9902251713625543,0.8740873273982647,non_fall
6.856593,-0.2027,-0.3008,-0.9214,0.1807,0.3854,-0.1591,-41.48,5.3436,2.1472,,0.0010029999999998651,0.9902251713625543,0.9156933303510454,non_fall
6.870951,-0.2027,-0.3008,-0.9214,-0.3426,0.2459,0.0357,-41.48,5.3436,2.1472,,0.014357999999999649,0.9902251713625543,0.939020647036637,non_fall
6.872247,-0.9126,-0.1276,-0.4695,-0.3426,0.2459,0.0357,-41.48,5.3436,2.1472,,0.0012959999999999638,1.034190876966143,0.9422588964964492,non_fall
6.909126,-0.9126,-0.1276,-0.4695,-0.3426,0.2459,0.0357,-41.5288,5.4412,1.5006,,0.036878999999999884,1.034190876966143,0.9255423669868752,non_fall
6.922137,-0.9126,-0.1276,-0.4695,-0.3426,0.2459,0.0357,-41.5288,5.4412,1.5006,,0.01301100000000055,1.034190876966143,0.8909715465021822,non_fall
6.923294,-0.9126,-0.1276,-0.4695,-0.3426,0.2459,0.0357,-41.5288,5.4412,1.5006,,0.0011570000000000746,1.034190876966143,0.8424328033554037,non_fall
6.924149,-0.9126,-0.1276,-0.4695,-0.3426,0.2459,0.0357,-41.5288,5.4412,1.5006,,0.0008549999999996061,1.034190876966143,0.7852244207889468,non_fall
6.924799,-0.9126,-0.1276,-0.4695,-0.3426,0.2459,0.0357,-41.5288,5.4412,1.5006,,0.0006500000000002615,1.034190876966143,0.7255140526217926,non_fall
6.941784,-0.0755,-0.1973,-0.2097,-0.3426,0.2459,0.0357,-41.5288,5.4412,1.5006,,0.016985000000000028,0.2976602593561996,0.6696741524685775,non_fall
6.943761,-0.0755,-0.1973,-0.2097,-0.4334,0.1702,0.1123,-41.5288,5.4412,1.5006,,0.0019770000000001176,0.2976602593561996,0.6235664908680718,non_fall
6.971959,-0.0755,-0.1973,-0.2097,-0.4334,0.1702,0.1123,-41.541,5.5632,0.6832,,0.028197999999999723,0.2976602593561996,0.5918673296354565,non_fall
6.989381,-0.0755,-0.1973,-0.2097,-0.4334,0.1702,0.1123,-41.541,5.5632,0.6832,,0.017421999999999827,0.2976602593561996,0.5775301046852221,non_fall
6.9906,-0.0755,-0.1973,-0.2097,-0.4334,0.1702,0.1123,-41.541,5.5632,0.6832,,0.001218999999999859,0.2976602593561996,0.5814664167721068,non_fall
6.991223,-0.0755,-0.1973,-0.2097,-0.4334,0.1702,0.1123,-41.541,5.5632,0.6832,,0.0006230000000000402,0.2976602593561996,0.6024932151229996,non_fall
7.008797,-0.0755,-0.1973,-0.2097,-0.6579,0.0479,0.1402,-41.541,5.5632,0.6832,,0.017574000000000645,0.2976602593561996,0.6375538489498461,non_fall
7.010185,-0.1265,-0.9614,-0.4902,-0.6579,0.0479,0.1402,-41.541,5.5632,0.6832,,0.0013879999999995007,1.0865487793928075,0.6821795359499606,non_fall
7.030804,-0.1265,-0.9614,-0.4902,-0.6579,0.0479,0.1402,-41.541,5.673,-0.1952,,0.020618999999999943,1.0865487793928075,0.7311193441378061,non_fall
7.057959,-0.1265,-0.9614,-0.4902,-0.6579,0.0479,0.1402,-41.541,5.673,-0.1952,,0.027155000000000484,1.0865487793928075,0.7790379476333322,non_fall
7.059536,-0.1265,-0.9614,-0.4902,-0.6579,0.0479,0.1402,-41.541,5.673,-0.1952,,0.0015769999999992734,1.0865487793928075,0.821171585318075,non_fall
7.060397,-0.1265,-0.9614,-0.4902,-0.6579,0.0479,0.1402,-41.541,5.673,-0.1952,,0.0008610000000004447,1.0865487793928075,0.8538486689991361,non_fall
7.079604,-0.1265,-0.9614,-0.4902,-0.8257,0.0913,0.1597,-41.541,5.673,-0.1952,,0.019206999999999752,1.0865487793928075,0.8748156716205415,non_fall
7.081121,0.3783,0.0206,-0.6366,-0.8257,0.0913,0.1597,-41.541,5.673,-0.1952,,0.0015170000000006567,0.7408068641690627,0.8833489789993519,non_fall
7.089088,0.3783,0.0206,-0.6366,-0.8257,0.0913,0.1597,-41.541,5.856,-1.1224,,0.007966999999999835,0.7408068641690627,0.8801699508355199,non_fall
7.121985,0.3783,0.0206,-0.6366,-0.8257,0.0913,0.1597,-41.541,5.856,-1.1224,,0.03289699999999929,0.7408068641690627,0.8672077976500516,non_fall
7.123175,0.3783,0.0206,-0.6366,-0.8257,0.0913,0.1597,-41.541,5.856,-1.1224,,0.0011900000000002464,0.7408068641690627,0.8472687151151899,non_fall
7.123991,0.3783,0.0206,-0.6366,-0.8257,0.0913,0.1597,-41.541,5.856,-1.1224,,0.000816000000000372,0.7408068641690627,0.8236689163171163,non_fall
7.12462,0.3783,0.0206,-0.6366,-0.8257,0.0913,0.1597,-41.541,5.856,-1.1224,,0.0006289999999999907,0.7408068641690627,0.7998779215824172,non_fall
7.150014,0.3783,0.0206,-0.6366,-0.8257,0.0913,0.1597,-41.541,6.1366,-1.9642,,0.025393999999999473,0.7408068641690627,0.7792033001692829,non_fall
7.151228,0.3783,0.0206,-0.6366,-0.8619,0.0611,0.1386,-41.541,6.1366,-1.9642,,0.0012140000000000484,0.7408068641690627,0.7645337325183185,non_fall
7.152437,0.643,0.4157,-0.2953,-0.8619,0.0611,0.1386,-41.541,6.1366,-1.9642,,0.0012090000000002377,0.8206446124846004,0.7581456469714413,non_fall
7.190919,0.643,0.4157,-0.2953,-0.8619,0.0611,0.1386,-41.541,6.1366,-1.9642,,0.03848200000000013,0.8206446124846004,0.7615703264330292,non_fall
7.192297,0.643,0.4157,-0.2953,-0.8619,0.0611,0.1386,-41.541,6.1366,-1.9642,,0.0013779999999998793,0.8206446124846004,0.775513774631429,non_fall
7.192942,0.643,0.4157,-0.2953,-0.8619,0.0611,0.1386,-41.541,6.1366,-1.9642,,0.0006450000000004508,0.8206446124846004,0.7998212465589009,non_fall
7.221046,0.643,0.4157,-0.2953,-0.8619,0.0611,0.1386,-41.5044,6.4904,-2.6718,,0.028103999999999907,0.8206446124846004,0.8334817331421919,non_fall
7.222634,0.643,0.4157,-0.2953,-0.8466,0.3465,0.0854,-41.5044,6.4904,-2.6718,,0.0015879999999999228,0.8206446124846004,0.8746729593133474,non_fall
7.223675,0.6827,0.5845,0.0752,-0.8466,0.3465,0.0854,-41.5044,6.4904,-2.6718,,0.0010409999999998476,0.9018728180846788,0.9208520547167373,non_fall
7.25759,0.6827,0.5845,0.0752,-0.8466,0.3465,0.0854,-41.5044,6.4904,-2.6718,,0.03391500000000036,0.9018728180846788,0.9688990765559342,non_fall
7.259143,0.6827,0.5845,0.0752,-0.8466,0.3465,0.0854,-41.5044,6.4904,-2.6718,,0.0015529999999994715,0.9018728180846788,1.0153193841554589,non_fall
7.260289,0.6827,0.5845,0.0752,-0.8466,0.3465,0.0854,-41.5044,6.4904,-2.6718,,0.0011460000000003134,0.9018728180846788,1.0565067306074285,non_fall
7.279511,0.6827,0.5845,0.0752,-0.8466,0.3465,0.0854,-41.5654,7.1126,-3.3794,,0.019222000000000072,0.9018728180846788,1.0890618497409277,non_fall
7.289899,1.0027,0.556,0.4714,-0.8466,0.3465,0.0854,-41.5654,7.1126,-3.3794,,0.010387999999999842,1.2396617482200538,1.1101506220256014,non_fall
7.293287,1.0027,0.556,0.4714,-0.6111,0.3357,0.0831,-41.5654,7.1126,-3.3794,,0.0033880000000001687,1.2396617482200538,1.117871893064154,non_fall
7.321392,1.0027,0.556,0.4714,-0.6111,0.3357,0.0831,-41.5654,7.1126,-3.3794,,0.028105000000000047,1.2396617482200538,1.111591229022543,non_fall
7.324538,1.0027,0.556,0.4714,-0.6111,0.3357,0.0831,-41.5654,7.1126,-3.3794,,0.003146000000000093,1.2396617482200538,1.0921893632394424,non_fall
7.326481,1.0027,0.556,0.4714,-0.6111,0.3357,0.0831,-41.5654,7.1126,-3.3794,,0.001942999999999806,1.2396617482200538,1.0621768679160875,non_fall
7.328534,1.0027,0.556,0.4714,-0.6111,0.3357,0.0831,-41.5654,7.1126,-3.3794,,0.0020530000000000825,1.2396617482200538,1.0256387794537007,non_fall
7.338976,1.0027,0.556,0.4714,-0.6111,0.3357,0.0831,-41.4434,7.7958,-3.8918,,0.010441999999999396,1.2396617482200538,0.9879910709093207,non_fall
7.359244,1.0027,0.556,0.4714,-0.4177,0.2727,0.1124,-41.4434,7.7958,-3.8918,,0.02026800000000062,1.2396617482200538,0.9555529064972159,non_fall
7.362937,-0.0429,0.5417,0.4593,-0.4177,0.2727,0.1124,-41.4434,7.7958,-3.8918,,0.00369299999999928,0.7115024876976889,0.9349642214185316,non_fall
7.389271,-0.0429,0.5417,0.4593,-0.4177,0.2727,0.1124,-41.4434,7.7958,-3.8918,,0.0263340000000003,0.7115024876976889,0.9325058638649458,non_fall
7.392115,-0.0429,0.5417,0.4593,-0.4177,0.2727,0.1124,-41.4434,7.7958,-3.8918,,0.002844000000000513,0.7115024876976889,0.9534035287591665,non_fall
7.394475,-0.0429,0.5417,0.4593,-0.4177,0.2727,0.1124,-41.4434,7.7958,-3.8918,,0.0023599999999994736,0.7115024876976889,1.0012080767718983,non_fall
7.39873,-0.0429,0.5417,0.4593,-0.4177,0.2727,0.1124,-41.2848,8.5156,-4.331,,0.004254999999999676,0.7115024876976889,1.0773378703880332,non_fall
7.42893,-0.0429,0.5417,0.4593,-0.1823,-0.0691,0.1911,-41.2848,8.5156,-4.331,,0.03020000000000067,0.7115024876976889,1.1808451337728019,non_fall
7.432553,-0.7561,-0.1269,1.5323,-0.1823,-0.0691,0.1911,-41.2848,8.5156,-4.331,,0.003623000000000154,1.7133984095942192,1.3084336914958021,non_fall
7.457044,-0.7561,-0.1269,1.5323,-0.1823,-0.0691,0.1911,-41.2848,8.5156,-4.331,,0.024490999999999374,1.7133984095942192,1.4547159442999256,non_fall
7.459954,-0.7561,-0.1269,1.5323,-0.1823,-0.0691,0.1911,-41.2848,8.5156,-4.331,,0.002909999999999968,1.7133984095942192,1.612662005963353,non_fall
7.461982,-0.7561,-0.1269,1.5323,-0.1823,-0.0691,0.1911,-41.2848,8.5156,-4.331,,0.002028000000000141,1.7133984095942192,1.774175765211987,non_fall
7.464059,-0.7561,-0.1269,1.5323,-0.1823,-0.0691,0.1911,-41.175,9.2232,-4.6116,,0.0020769999999998845,1.7133984095942192,1.9307358696451538,non_fall
7.498901,-0.7561,-0.1269,1.5323,0.1627,-0.267,0.31,-41.175,9.2232,-4.6116,,0.03484200000000026,1.7133984095942192,2.074054109268651,non_fall
7.50268,-1.5455,-0.8134,1.9054,0.1627,-0.267,0.31,-41.175,9.2232,-4.6116,,0.0037789999999997548,2.5847125507491158,2.1967129219551462,non_fall
7.518677,-1.5455,-0.8134,1.9054,0.1627,-0.267,0.31,-41.1262,9.9308,-4.758,,0.015997000000000483,2.5847125507491158,2.292739623548448,non_fall
7.520388,-1.5455,-0.8134,1.9054,0.1627,-0.267,0.31,-41.1262,9.9308,-4.758,,0.001710999999999352,2.5847125507491158,2.358063889056266,non_fall
7.521407,-1.5455,-0.8134,1.9054,0.1627,-0.267,0.31,-41.1262,9.9308,-4.758,,0.0010190000000003252,2.5847125507491158,2.3908016245777888,non_fall
7.522358,-1.5455,-0.8134,1.9054,0.1627,-0.267,0.31,-41.1262,9.9308,-4.758,,0.0009509999999997021,2.5847125507491158,2.3913221146978065,non_fall
7.523773,-1.5455,-0.8134,1.9054,0.1627,-0.267,0.31,-41.1262,9.9308,-4.758,,0.0014150000000006102,2.5847125507491158,2.3620829815152335,non_fall
7.568149,-1.5455,-0.8134,1.9054,0.1595,-0.0903,0.4346,-41.1262,9.9308,-4.758,,0.04437599999999975,2.5847125507491158,2.3072496356818917,non_fall
7.57005,-0.4446,-1.2124,1.184,0.1595,-0.0903,0.4346,-41.1262,9.9308,-4.758,,0.0019010000000001526,1.7519814268421912,2.232146763974287,non_fall
7.576237,-0.4446,-1.2124,1.184,0.1595,-0.0903,0.4346,-40.9798,10.5652,-4.6726,,0.0061869999999997205,1.7519814268421912,2.1426166693779933,non_fall
7.587425,-0.4446,-1.2124,1.184,0.1595,-0.0903,0.4346,-40.9798,10.5652,-4.6726,,0.011187999999999754,1.7519814268421912,2.044377264414108,non_fall
7.588639,-0.4446,-1.2124,1.184,0.1595,-0.0903,0.4346,-40.9798,10.5652,-4.6726,,0.0012140000000000484,1.7519814268421912,1.9424718160274683,non_fall
7.589329,-0.4446,-1.2124,1.184,0.1595,-0.0903,0.4346,-40.9798,10.5652,-4.6726,,0.0006900000000005235,1.7519814268421912,1.8408795114914118,non_fall
7.638191,-0.4446,-1.2124,1.184,0.1595,-0.0903,0.4346,-40.7846,11.2362,-4.4774,,0.04886199999999974,1.7519814268421912,1.7423190351870035,non_fall
7.642859,-0.4446,-1.2124,1.184,0.0919,-0.0418,0.3622,-40.7846,11.2362,-4.4774,,0.004667999999999672,1.7519814268421912,1.648240785486231,non_fall
7.645653,-0.341,-1.145,0.8981,0.0919,-0.0418,0.3622,-40.7846,11.2362,-4.4774,,0.0027940000000006293,1.4946202226652763,1.5589768162075897,non_fall
7.655594,-0.341,-1.145,0.8981,0.0919,-0.0418,0.3622,-40.7846,11.2362,-4.4774,,0.009940999999999534,1.4946202226652763,1.4740034024390432,non_fall
7.658234,-0.341,-1.145,0.8981,0.0919,-0.0418,0.3622,-40.7846,11.2362,-4.4774,,0.00264000000000042,1.4946202226652763,1.3922666704029691,non_fall
7.660468,-0.341,-1.145,0.8981,0.0919,-0.0418,0.3622,-40.7846,11.2362,-4.4774,,0.002233999999999625,1.4946202226652763,1.3125225423373776,non_fall
7.697153,-0.341,-1.145,0.8981,0.0919,-0.0418,0.3622,-40.7236,12.0292,-4.453,,0.0366850000000003,1.4946202226652763,1.233645781859089,non_fall
7.707612,-0.341,-1.145,0.8981,0.1337,-0.4494,0.288,-40.7236,12.0292,-4.453,,0.010458999999999996,1.4946202226652763,1.1548706377282485,non_fall
7.710924,-0.2855,-0.5059,0.5107,0.1337,-0.4494,0.288,-40.7236,12.0292,-4.453,,0.0033120000000002037,0.773472397697552,1.075940620927843,non_fall
7.72069,-0.2855,-0.5059,0.5107,0.1337,-0.4494,0.288,-40.7236,12.0292,-4.453,,0.009765999999999941,0.773472397697552,0.9971670716978259,non_fall
7.722167,-0.2855,-0.5059,0.5107,0.1337,-0.4494,0.288,-40.7236,12.0292,-4.453,,0.0014769999999995065,0.773472397697552,0.9194182533292146,non_fall
7.723604,-0.2855,-0.5059,0.5107,0.1337,-0.4494,0.288,-40.7236,12.0292,-4.453,,0.0014370000000001326,0.773472397697552,0.8440716771818851,non_fall
7.724822,-0.2855,-0.5059,0.5107,0.1337,-0.4494,0.288,-40.7236,12.0292,-4.453,,0.0012179999999997193,0.773472397697552,0.7729565982203822,non_fall
7.756775,-0.2855,-0.5059,0.5107,0.1337,-0.4494,0.288,-40.6016,12.7856,-4.2212,,0.031953000000000564,0.773472397697552,0.7082965893070674,non_fall
7.777141,-0.2855,-0.5059,0.5107,-0.0808,-0.2631,0.0545,-40.6016,12.7856,-4.2212,,0.020366000000000106,0.773472397697552,0.6526447209845355,non_fall
7.780957,0.54,0.3467,0.2126,-0.0808,-0.2631,0.0545,-40.6016,12.7856,-4.2212,,0.0038159999999995975,0.6760174923772313,0.6087936360673974,non_fall
7.790695,0.54,0.3467,0.2126,-0.0808,-0.2631,0.0545,-40.6016,12.7856,-4.2212,,0.009738000000000469,0.6760174923772313,0.5796414694605224,non_fall
7.79238,0.54,0.3467,0.2126,-0.0808,-0.2631,0.0545,-40.6016,12.7856,-4.2212,,0.0016849999999992704,0.6760174923772313,0.5680004901731912,non_fall
7.793976,0.54,0.3467,0.2126,-0.0808,-0.2631,0.0545,-40.6016,12.7856,-4.2212,,0.0015960000000001529,0.6760174923772313,0.57634572745441,non_fall
7.806448,0.54,0.3467,0.2126,-0.0808,-0.2631,0.0545,-40.5894,13.481,-3.843,,0.012471999999999817,0.6760174923772313,0.6065132568801088,non_fall
7.846857,0.54,0.3467,0.2126,-0.2057,0.0064,-0.0382,-40.5894,13.481,-3.843,,0.04040900000000036,0.6760174923772313,0.6593709580204479,non_fall
7.850982,0.6044,-0.2891,0.143,-0.2057,0.0064,-0.0382,-40.5894,13.481,-3.843,,0.004125000000000156,0.6850745725831605,0.7344975011479913,non_fall
7.860938,0.6044,-0.2891,0.143,-0.2057,0.0064,-0.0382,-40.5894,13.481,-3.843,,0.009955999999999854,0.6850745725831605,0.8299164567136311,non_fall
7.862396,0.6044,-0.2891,0.143,-0.2057,0.0064,-0.0382,-40.5894,13.481,-3.843,,0.0014580000000004034,0.6850745725831605,0.9419392803889206,non_fall
7.863676,0.6044,-0.2891,0.143,-0.2057,0.0064,-0.0382,-40.5894,13.481,-3.843,,0.0012799999999995038,0.6850745725831605,1.0651706787042727,non_fall
7.875575,0.6044,-0.2891,0.143,-0.2057,0.0064,-0.0382,-40.6382,14.1032,-3.416,,0.011899000000000548,0.6850745725831605,1.192719646633365,non_fall
7.917535,0.6044,-0.2891,0.143,0.2846,-0.1864,-0.0087,-40.6382,14.1032,-3.416,,0.04195999999999955,0.6850745725831605,1.31663658835288,non_fall
7.92222,-0.3986,-1.8881,0.361,0.2846,-0.1864,-0.0087,-40.6382,14.1032,-3.416,,0.004685000000000272,1.9631924434451145,1.4285598376005089,non_fall
7.924739,-0.3986,-1.8881,0.361,0.2846,-0.1864,-0.0087,-40.6382,14.1032,-3.416,,0.002518999999999494,1.9631924434451145,1.5205070344310885,non_fall
7.926729,-0.3986,-1.8881,0.361,0.2846,-0.1864,-0.0087,-40.6382,14.1032,-3.416,,0.0019900000000001583,1.9631924434451145,1.585701776864809,non_fall
7.928735,-0.3986,-1.8881,0.361,0.2846,-0.1864,-0.0087,-40.6382,14.1032,-3.416,,0.0020059999999997302,1.9631924434451145,1.619304035720549,non_fall
7.930608,-0.3986,-1.8881,0.361,0.2846,-0.1864,-0.0087,-40.6382,14.1032,-3.416,,0.0018730000000006797,1.9631924434451145,1.6189255003936123,non_fall
7.940378,-0.3986,-1.8881,0.361,0.2846,-0.1864,-0.0087,-40.6504,14.6522,-2.9768,,0.009769999999999612,1.9631924434451145,1.5848511022002933,non_fall
7.987525,-0.3986,-1.8881,0.361,0.2667,0.0566,-0.0361,-40.6504,14.6522,-2.9768,,0.04714699999999983,1.9631924434451145,1.5199392250187165,non_fall
7.990566,0.415,-0.7297,-0.2357,0.2667,0.0566,-0.0361,-40.6504,14.6522,-2.9768,,0.0030410000000005155,0.8719183333317404,1.4292249946226279,non_fall
7.993127,0.415,-0.7297,-0.2357,0.2667,0.0566,-0.0361,-40.6504,14.6522,-2.9768,,0.0025610000000000355,0.8719183333317404,1.319298829970471,non_fall
7.995879,0.415,-0.7297,-0.2357,0.2667,0.0566,-0.0361,-40.6504,14.6522,-2.9768,,0.0027520000000000877,0.8719183333317404,1.1975678129576015,non_fall
7.997964,0.415,-0.7297,-0.2357,0.2667,0.0566,-0.0361,-40.6504,14.6522,-2.9768,,0.0020849999999992264,0.8719183333317404,1.0715175997570219,non_fall
8.000559,0.415,-0.7297,-0.2357,0.2667,0.0566,-0.0361,-40.6504,15.1524,-2.7084,,0.002595000000001235,0.8719183333317404,0.9480725626653443,non_fall
8.057984,0.415,-0.7297,-0.2357,0.2667,0.0566,-0.0361,-40.6382,15.5672,-2.6108,,0.057424999999998505,0.8719183333317404,0.8331126346567121,non_fall
8.061638,0.415,-0.7297,-0.2357,0.1547,0.0826,-0.0039,-40.6382,15.5672,-2.6108,,0.0036540000000009343,0.8719183333317404,0.7311654239481977,non_fall
8.062974,0.4726,0.2243,0.0765,0.1547,0.0826,-0.0039,-40.6382,15.5672,-2.6108,,0.001336000000000226,0.5286903630670792,0.6452640960494971,non_fall
8.06514,0.4726,0.2243,0.0765,0.1547,0.0826,-0.0039,-40.6382,15.5672,-2.6108,,0.002165999999999002,0.5286903630670792,0.5769479433299393,non_fall
8.066749,0.4726,0.2243,0.0765,0.1547,0.0826,-0.0039,-40.6382,15.5672,-2.6108,,0.0016090000000001936,0.5286903630670792,0.5263792792086637,non_fall
8.068425,0.4726,0.2243,0.0765,0.1547,0.0826,-0.0039,-40.6382,15.5672,-2.6108,,0.0016759999999997888,0.5286903630670792,0.49255037475063596,non_fall
8.069993,0.4726,0.2243,0.0765,0.1547,0.0826,-0.0039,-40.6382,15.5672,-2.6108,,0.00156800000000068,0.5286903630670792,0.47355289099532594,non_fall
8.117102,0.4726,0.2243,0.0765,0.1547,0.0826,-0.0039,-40.7236,15.86,-2.623,,0.04710899999999896,0.5286903630670792,0.4668800075741749,non_fall
8.120902,0.4726,0.2243,0.0765,0.1547,0.0826,-0.0039,-40.7236,15.86,-2.623,,0.0038000000000000256,0.5286903630670792,0.46973116220150546,non_fall
8.12292,0.4726,0.2243,0.0765,0.1547,0.0826,-0.0039,-40.7236,15.86,-2.623,,0.0020180000000014076,0.5286903630670792,0.47929254363660645,non_fall
8.124963,0.4726,0.2243,0.0765,0.1547,0.0826,-0.0039,-40.7236,15.86,-2.623,,0.0020429999999986848,0.5286903630670792,0.49297253840413113,non_fall
8.128934,0.4726,0.2243,0.0765,0.0274,0.0683,-0.0345,-40.7236,15.86,-2.623,,0.003970999999999947,0.5286903630670792,0.5085787115206842,non_fall
8.130989,-0.2946,0.4018,-0.2401,0.0274,0.0683,-0.0345,-40.7236,15.86,-2.623,,0.002055000000000362,0.5530645622348263,0.5244302772609892,non_fall
8.17718,-0.2946,0.4018,-0.2401,0.0274,0.0683,-0.0345,-40.748,15.9332,-2.44,,0.046191000000000315,0.5530645622348263,0.5394065063605394,non_fall
8.189226,-0.2946,0.4018,-0.2401,0.0274,0.0683,-0.0345,-40.748,15.9332,-2.44,,0.012045999999999779,0.5530645622348263,0.5529367555137732,non_fall
8.19192,-0.2946,0.4018,-0.2401,0.0274,0.0683,-0.0345,-40.748,15.9332,-2.44,,0.002693999999999974,0.5530645622348263,0.5649418291221844,non_fall
8.193898,-0.2946,0.4018,-0.2401,0.0274,0.0683,-0.0345,-40.748,15.9332,-2.44,,0.0019780000000011455,0.5530645622348263,0.5757392694744334,non_fall
8.196393,-0.2946,0.4018,-0.2401,0.0538,0.0004,0.0067,-40.748,15.9332,-2.44,,0.002494999999999692,0.5530645622348263,0.5859267802378758,non_fall
8.197849,-0.0289,0.4854,-0.3462,0.0538,0.0004,0.0067,-40.748,15.9332,-2.44,,0.0014559999999992357,0.5969110570260866,0.5962581038545689,non_fall
8.236402,-0.0289,0.4854,-0.3462,0.0538,0.0004,0.0067,-40.809,15.8966,-2.4644,,0.03855300000000028,0.5969110570260866,0.6075243570349412,non_fall
8.256971,-0.0289,0.4854,-0.3462,0.0538,0.0004,0.0067,-40.809,15.8966,-2.4644,,0.02056900000000006,0.5969110570260866,0.6204516006936838,non_fall
8.259191,-0.0289,0.4854,-0.3462,0.0538,0.0004,0.0067,-40.809,15.8966,-2.4644,,0.0022199999999994446,0.5969110570260866,0.6356230085146899,non_fall
8.261157,-0.0289,0.4854,-0.3462,0.0538,0.0004,0.0067,-40.809,15.8966,-2.4644,,0.0019660000000012445,0.5969110570260866,0.6534317138525669,non_fall
8.262949,-0.0289,0.4854,-0.3462,0.0538,0.0004,0.0067,-40.809,15.8966,-2.4644,,0.0017920000000000158,0.5969110570260866,0.6740677954402244,non_fall
8.26752,-0.0289,0.4854,-0.3462,0.1029,-0.0479,0.0553,-40.809,15.8966,-2.4644,,0.0045709999999985484,0.5969110570260866,0.6975390157432896,non_fall
8.270167,-0.4962,0.4192,-0.5822,0.1029,-0.0479,0.0553,-40.809,15.8966,-2.4644,,0.0026470000000013982,0.8722957755257101,0.7237192285118142,non_fall
8.296265,-0.4962,0.4192,-0.5822,0.1029,-0.0479,0.0553,-40.8334,15.8356,-2.562,,0.02609799999999929,0.8722957755257101,0.7524113723358917,non_fall
8.321235,-0.4962,0.4192,-0.5822,0.1029,-0.0479,0.0553,-40.8334,15.8356,-2.562,,0.024969999999999715,0.8722957755257101,0.7834063021647595,non_fall
8.324057,-0.4962,0.4192,-0.5822,0.1029,-0.0479,0.0553,-40.8334,15.8356,-2.562,,0.002822000000000102,0.8722957755257101,0.8165182495562073,non_fall
8.326075,-0.4962,0.4192,-0.5822,0.1029,-0.0479,0.0553,-40.8334,15.8356,-2.562,,0.002017999999999631,0.8722957755257101,0.8515841981566455,non_fall
8.336557,-0.4962,0.4192,-0.5822,0.1565,-0.1103,0.1196,-40.8334,15.8356,-2.562,,0.010482000000001435,0.8722957755257101,0.8884254366186134,non_fall
8.340255,-0.3642,0.6061,-0.6035,0.1565,-0.1103,0.1196,-40.8334,15.8356,-2.562,,0.003697999999999979,0.9296295498745725,0.9267804612948988,non_fall
8.353136,-0.3642,0.6061,-0.6035,0.1565,-0.1103,0.1196,-40.8212,15.7746,-2.623,,0.012880999999998366,0.9296295498745725,0.9662261305763525,non_fall
8.389421,-0.3642,0.6061,-0.6035,0.1565,-0.1103,0.1196,-40.8212,15.7746,-2.623,,0.03628500000000123,0.9296295498745725,1.0061078190215482,non_fall
8.392501,-0.3642,0.6061,-0.6035,0.1565,-0.1103,0.1196,-40.8212,15.7746,-2.623,,0.0030799999999988614,0.9296295498745725,1.0454997773587444,non_fall
8.39445,-0.3642,0.6061,-0.6035,0.1565,-0.1103,0.1196,-40.8212,15.7746,-2.623,,0.0019490000000015328,0.9296295498745725,1.083214225209473,non_fall
8.405232,-0.3642,0.6061,-0.6035,0.1659,-0.2594,0.1728,-40.8212,15.7746,-2.623,,0.010781999999998959,0.9296295498745725,1.117871321678836,non_fall
8.408205,-0.0905,0.8838,-0.9223,0.1659,-0.2594,0.1728,-40.8212,15.7746,-2.623,,0.0029730000000007806,1.2805975089777428,1.1480313574907444,non_fall
8.414804,-0.0905,0.8838,-0.9223,0.1659,-0.2594,0.1728,-40.809,15.8112,-2.7206,,0.006598999999999577,1.2805975089777428,1.17237611629605,non_fall
8.456382,-0.0905,0.8838,-0.9223,0.1659,-0.2594,0.1728,-40.809,15.8112,-2.7206,,0.04157799999999945,1.2805975089777428,1.189912271115971,non_fall
8.459296,-0.0905,0.8838,-0.9223,0.1659,-0.2594,0.1728,-40.809,15.8112,-2.7206,,0.0029140000000005273,1.2805975089777428,1.2001617377831661,non_fall
8.461387,-0.0905,0.8838,-0.9223,0.1659,-0.2594,0.1728,-40.809,15.8112,-2.7206,,0.002091000000000065,1.2805975089777428,1.2033054257854556,non_fall
8.463295,-0.0905,0.8838,-0.9223,0.1659,-0.2594,0.1728,-40.809,15.8112,-2.7206,,0.0019080000000002428,1.2805975089777428,1.200255874930732,non_fall
8.478488,0.2917,0.9399,-0.6553,0.1659,-0.2594,0.1728,-40.809,15.8112,-2.7206,,0.015193000000000012,1.1823362423608608,1.1926462627498027,non_fall
8.480998,0.2917,0.9399,-0.6553,0.3189,-0.4232,0.2358,-40.809,15.8112,-2.7206,,0.002509999999999124,1.1823362423608608,1.1827349028097742,non_fall
8.482644,0.2917,0.9399,-0.6553,0.3189,-0.4232,0.2358,-40.7602,15.921,-2.6474,,0.0016460000000009245,1.1823362423608608,1.1732340942937218,non_fall
8.521852,0.2917,0.9399,-0.6553,0.3189,-0.4232,0.2358,-40.7602,15.921,-2.6474,,0.039208000000000354,1.1823362423608608,1.167079094831409,non_fall
8.52558,0.2917,0.9399,-0.6553,0.3189,-0.4232,0.2358,-40.7602,15.921,-2.6474,,0.0037279999999988434,1.1823362423608608,1.167156872542533,non_fall
8.526946,0.2917,0.9399,-0.6553,0.3189,-0.4232,0.2358,-40.7602,15.921,-2.6474,,0.0013660000000008665,1.1823362423608608,1.1760161718304238,non_fall
8.533204,0.2917,0.9399,-0.6553,0.3189,-0.4232,0.2358,-40.7724,16.0918,-2.4034,,0.006257999999998987,1.1823362423608608,1.1955817300560199,non_fall
8.544395,0.2917,0.9399,-0.6553,0.3465,-0.5176,0.133,-40.7724,16.0918,-2.4034,,0.011191000000000173,1.1823362423608608,1.2268968278093997,non_fall
8.546164,0.6823,0.7876,-0.6926,0.3465,-0.5176,0.133,-40.7724,16.0918,-2.4034,,0.0017689999999994654,1.2512161324087858,1.269919329131735,non_fall
