time,ax,ay,az,wx,wy,wz,Bx,By,Bz,Unnamed: 10,time_diff,acc_mag,acc_mag_filtered,label
0.044275,0.0,0.0,0.0,0.0,0.0,0.0,0.0,0.0,0.0,,0.0,0.0,0.0009898107115957023,non_fall
0.062514,0.0,0.0,0.0,0.0,0.0,0.0,-42.2486,18.849,6.2952,,0.018239,0.0,0.0003282503293424132,non_fall
0.086441,0.0,0.0,0.0,-0.0766,0.0053,0.0031,-42.2486,18.849,6.2952,,0.023927000000000004,0.0,-0.0004480161114332662,non_fall
0.098796,0.0,0.0,0.0,-0.0766,0.0053,0.0031,-42.2486,18.849,6.2952,,0.012354999999999991,0.0,-0.0012793387935820832,non_fall
0.099958,0.0,0.0,0.0,-0.0766,0.0053,0.0031,-42.2486,18.849,6.2952,,0.0011620000000000102,0.0,-0.0020882524413738898,non_fall
0.100858,0.0,0.0,0.0,-0.0766,0.0053,0.0031,-42.2486,18.849,6.2952,,0.000899999999999998,0.0,-0.002779044486766606,non_fall
0.101685,0.0,0.0,0.0,-0.0766,0.0053,0.0031,-42.2486,18.849,6.2952,,0.0008269999999999944,0.0,-0.0032394568654803535,non_fall
0.102661,0.0,0.0,0.0,-0.0766,0.0053,0.0031,-42.3096,18.5562,6.4538,,0.0009760000000000046,0.0,-0.0033449889277168314,non_fall
0.152406,0.0,0.0,0.0,-0.0766,0.0053,0.0031,-42.4194,18.3976,6.5026,,0.04974500000000001,0.0,-0.0029659902335745785,non_fall
0.155744,0.0,0.0,0.0,-0.0111,-0.0119,0.0047,-42.4194,18.3976,6.5026,,0.00333799999999998,0.0,-0.0019773709606808825,non_fall
0.164434,0.0,0.0,0.0,-0.0111,-0.0119,0.0047,-42.4194,18.3976,6.5026,,0.008690000000000003,0.0,-0.0002703485654352827,non_fall
0.165741,0.0,0.0,0.0,-0.0111,-0.0119,0.0047,-42.4194,18.3976,6.5026,,0.0013070000000000026,0.0,0.00223475683591706,non_fall
0.166882,0.0,0.0,0.0,-0.0111,-0.0119,0.0047,-42.4194,18.3976,6.5026,,0.0011410000000000031,0.0,0.005576001158798526,non_fall
0.167892,0.0115,0.0053,0.0044,-0.0111,-0.0119,0.0047,-42.4194,18.3976,6.5026,,0.0010100000000000109,0.013405222862750175,0.009739079538142948,non_fall
0.203043,0.0115,0.0053,0.0044,-0.0111,-0.0119,0.0047,-42.4072,18.361,6.6124,,0.03515099999999999,0.013405222862750175,0.014649878623924103,non_fall
0.226144,0.0115,0.0053,0.0044,0.0415,-0.014,0.0051,-42.4072,18.361,6.6124,,0.02310100000000001,0.013405222862750175,0.02017166451419677,non_fall
0.230318,0.0115,0.0053,0.0044,0.0415,-0.014,0.0051,-42.4072,18.361,6.6124,,0.004173999999999983,0.013405222862750175,0.026108039169997117,non_fall
0.231254,0.0115,0.0053,0.0044,0.0415,-0.014,0.0051,-42.4072,18.361,6.6124,,0.0009359999999999924,0.013405222862750175,0.03221252451726419,non_fall
0.232056,0.0115,0.0053,0.0044,0.0415,-0.014,0.0051,-42.4072,18.361,6.6124,,0.0008020000000000249,0.013405222862750175,0.038205098293538665,non_fall
0.239015,0.0548,0.0222,-0.0375,0.0415,-0.014,0.0051,-42.4072,18.361,6.6124,,0.006958999999999993,0.07001521263268434,0.04379495377675322,non_fall
0.252773,0.0548,0.0222,-0.0375,0.0415,-0.014,0.0051,-42.4682,18.422,6.5636,,0.01375800000000002,0.07001521263268434,0.04870720579801178,non_fall
0.272969,0.0548,0.0222,-0.0375,0.0415,-0.014,0.0051,-42.3828,18.4098,6.8198,,0.020195999999999992,0.07001521263268434,0.052709774060043846,non_fall
0.29593,0.0548,0.0222,-0.0375,0.0369,0.0056,-0.0019,-42.3828,18.4098,6.8198,,0.02296100000000001,0.07001521263268434,0.05563613017980672,non_fall
0.308547,0.0366,-0.0111,0.0357,0.0369,0.0056,-0.0019,-42.3828,18.4098,6.8198,,0.01261699999999999,0.052318830262153226,0.05740048144105184,non_fall
0.31005,0.0366,-0.0111,0.0357,0.0369,0.0056,-0.0019,-42.3828,18.4098,6.8198,,0.0015029999999999766,0.052318830262153226,0.05800386428916121,non_fall
0.310791,0.0366,-0.0111,0.0357,0.0369,0.0056,-0.0019,-42.3828,18.4098,6.8198,,0.0007409999999999917,0.052318830262153226,0.05753157947214776,non_fall
0.312628,0.0366,-0.0111,0.0357,0.0369,0.0056,-0.0019,-42.3828,18.4098,6.8198,,0.001837000000000033,0.052318830262153226,0.05614365789578697,non_fall
0.31309,0.0366,-0.0111,0.0357,0.0369,0.0056,-0.0019,-42.3828,18.4098,6.8198,,0.00046199999999996244,0.052318830262153226,0.05406039774880079,non_fall
0.336948,0.0366,-0.0111,0.0357,0.0369,0.0056,-0.0019,-42.395,18.4342,6.7832,,0.023858000000000046,0.052318830262153226,0.051544718375687144,non_fall
0.36574,0.0366,-0.0111,0.0357,0.025,0.0028,-0.0072,-42.395,18.4342,6.7832,,0.028791999999999984,0.052318830262153226,0.04888255169731558,non_fall
0.367347,0.0366,-0.0111,0.0357,0.025,0.0028,-0.0072,-42.395,18.4342,6.7832,,0.0016069999999999696,0.052318830262153226,0.04636205544681272,non_fall
0.368194,0.0366,-0.0111,0.0357,0.025,0.0028,-0.0072,-42.395,18.4342,6.7832,,0.0008470000000000422,0.052318830262153226,0.04425224549891627,non_fall
0.368942,0.0366,-0.0111,0.0357,0.025,0.0028,-0.0072,-42.395,18.4342,6.7832,,0.0007479999999999709,0.052318830262153226,0.0427817750956682,non_fall
0.377611,0.0009,0.0253,-0.0173,0.025,0.0028,-0.0072,-42.395,18.4342,6.7832,,0.008668999999999982,0.030662517835298518,0.04211904530680229,non_fall
0.397997,0.0009,0.0253,-0.0173,0.025,0.0028,-0.0072,-42.4438,18.4342,6.7466,,0.020386000000000015,0.030662517835298518,0.04235551217875524,non_fall
0.431883,0.0009,0.0253,-0.0173,0.025,0.0028,-0.0072,-42.4438,18.4342,6.7466,,0.03388600000000003,0.030662517835298518,0.04349466900444415,non_fall
0.433142,0.0009,0.0253,-0.0173,0.025,0.0028,-0.0072,-42.4438,18.4342,6.7466,,0.0012590000000000101,0.030662517835298518,0.04544930851014619,non_fall
0.433945,0.0009,0.0253,-0.0173,0.025,0.0028,-0.0072,-42.4438,18.4342,6.7466,,0.0008029999999999982,0.030662517835298518,0.0480490374362858,non_fall
0.43472,0.0009,0.0253,-0.0173,0.0156,0.0028,-0.0024,-42.4438,18.4342,6.7466,,0.0007749999999999702,0.030662517835298518,0.05105867749496577,non_fall
0.445135,0.0451,0.0318,-0.0489,0.0156,0.0028,-0.0024,-42.4438,18.4342,6.7466,,0.010415000000000008,0.07373235382110081,0.054206386259176266,non_fall
0.456346,0.0451,0.0318,-0.0489,0.0156,0.0028,-0.0024,-42.4804,18.3854,6.9052,,0.011210999999999971,0.07373235382110081,0.0572183719069046,non_fall
0.498428,0.0451,0.0318,-0.0489,0.0156,0.0028,-0.0024,-42.4804,18.3854,6.9052,,0.04208200000000001,0.07373235382110081,0.05985543557867978,non_fall
0.499928,0.0451,0.0318,-0.0489,0.0156,0.0028,-0.0024,-42.4804,18.3854,6.9052,,0.0015000000000000013,0.07373235382110081,0.06194588159449462,non_fall
0.500849,0.0451,0.0318,-0.0489,0.0156,0.0028,-0.0024,-42.4804,18.3854,6.9052,,0.0009210000000000051,0.07373235382110081,0.06340990374973321,non_fall
0.501639,0.0451,0.0318,-0.0489,0.0156,0.0028,-0.0024,-42.4804,18.3854,6.9052,,0.0007899999999999574,0.07373235382110081,0.06427206566750533,non_fall
0.50581,0.0451,0.0318,-0.0489,0.032,0.0125,0.0955,-42.4804,18.3854,6.9052,,0.004171000000000036,0.07373235382110081,0.064660320308546,non_fall
0.518281,0.0451,0.0318,-0.0489,0.032,0.0125,0.0955,-42.4926,18.3732,7.0516,,0.01247100000000001,0.07373235382110081,0.06479174588768373,non_fall
0.519262,0.0519,-0.0283,-0.0041,0.032,0.0125,0.0955,-42.4926,18.3732,7.0516,,0.0009810000000000096,0.05925630768112371,0.06494671225603839,non_fall
0.566918,0.0519,-0.0283,-0.0041,0.032,0.0125,0.0955,-42.4926,18.3732,7.0516,,0.04765600000000003,0.05925630768112371,0.06543452466483159,non_fall
0.567856,0.0519,-0.0283,-0.0041,0.032,0.0125,0.0955,-42.4926,18.3732,7.0516,,0.0009379999999999944,0.05925630768112371,0.06655461544982978,non_fall
0.568674,0.0519,-0.0283,-0.0041,0.032,0.0125,0.0955,-42.4926,18.3732,7.0516,,0.0008179999999999854,0.05925630768112371,0.06855787179215667,non_fall
0.577569,0.0519,-0.0283,-0.0041,0.0052,-0.0206,-0.0238,-42.4926,18.3732,7.0516,,0.008894999999999986,0.05925630768112371,0.07161257976652981,non_fall
0.579554,0.0519,-0.0283,-0.0041,0.0052,-0.0206,-0.0238,-42.4316,18.4586,7.1858,,0.0019850000000000145,0.05925630768112371,0.07577879788463358,non_fall
0.586962,-0.0649,-0.0571,0.0171,0.0052,-0.0206,-0.0238,-42.4316,18.4586,7.1858,,0.00740799999999997,0.08811827279287764,0.08099390488470247,non_fall
0.633552,-0.0649,-0.0571,0.0171,0.0052,-0.0206,-0.0238,-42.4316,18.4586,7.1858,,0.04659000000000002,0.08811827279287764,0.08707075504252097,non_fall
0.63531,-0.0649,-0.0571,0.0171,0.0052,-0.0206,-0.0238,-42.4316,18.4586,7.1858,,0.0017580000000000373,0.08811827279287764,0.09370856149678132,non_fall
0.636225,-0.0649,-0.0571,0.0171,0.0052,-0.0206,-0.0238,-42.4316,18.4586,7.1858,,0.0009149999999999991,0.08811827279287764,0.1005156290015194,non_fall
0.637122,-0.0649,-0.0571,0.0171,0.0052,-0.0206,-0.0238,-42.4194,18.5074,7.2346,,0.0008969999999999256,0.08811827279287764,0.10704246428129081,non_fall
0.645607,-0.0649,-0.0571,0.0171,0.016,-0.0109,-0.0328,-42.4194,18.5074,7.2346,,0.008485000000000076,0.08811827279287764,0.11282327400397966,non_fall
0.656457,0.1129,0.0715,-0.0479,0.016,-0.0109,-0.0328,-42.4194,18.5074,7.2346,,0.010849999999999915,0.1419615088677209,0.11742293193422687,non_fall
0.695709,0.1129,0.0715,-0.0479,0.016,-0.0109,-0.0328,-42.4316,18.4952,7.2956,,0.039252000000000065,0.1419615088677209,0.12048503078191186,non_fall
0.697627,0.1129,0.0715,-0.0479,0.016,-0.0109,-0.0328,-42.4316,18.4952,7.2956,,0.0019179999999999753,0.1419615088677209,0.12177515735089676,non_fall
0.698761,0.1129,0.0715,-0.0479,0.016,-0.0109,-0.0328,-42.4316,18.4952,7.2956,,0.0011339999999999684,0.1419615088677209,0.12121296298881597,non_fall
0.700125,0.1129,0.0715,-0.0479,0.016,-0.0109,-0.0328,-42.4316,18.4952,7.2956,,0.0013640000000000319,0.1419615088677209,0.11888751958723169,non_fall
0.701099,0.1129,0.0715,-0.0479,0.016,-0.0109,-0.0328,-42.4316,18.4952,7.2956,,0.0009740000000000304,0.1419615088677209,0.11505263809959564,non_fall
0.714175,0.1129,0.0715,-0.0479,0.0469,-0.0053,0.0202,-42.4316,18.4952,7.2956,,0.013075999999999977,0.1419615088677209,0.1101016764964599,non_fall
0.728112,-0.0479,0.048,0.0009,0.0469,-0.0053,0.0202,-42.4316,18.4952,7.2956,,0.013936999999999977,0.06781754935118196,0.10452447909217093,non_fall
0.756725,-0.0479,0.048,0.0009,0.0469,-0.0053,0.0202,-42.5048,18.5562,7.1492,,0.028613,0.06781754935118196,0.09885220053669329,non_fall
0.766825,-0.0479,0.048,0.0009,0.0469,-0.0053,0.0202,-42.5048,18.5562,7.1492,,0.010099999999999998,0.06781754935118196,0.09359821895566625,non_fall
0.767931,-0.0479,0.048,0.0009,0.0469,-0.0053,0.0202,-42.5048,18.5562,7.1492,,0.0011060000000000514,0.06781754935118196,0.08920412826900197,non_fall
0.768805,-0.0479,0.048,0.0009,0.0469,-0.0053,0.0202,-42.5048,18.5562,7.1492,,0.0008739999999999304,0.06781754935118196,0.08599842743795587,non_fall
0.785699,-0.0479,0.048,0.0009,0.0274,-0.027,0.0156,-42.5048,18.5562,7.1492,,0.016894000000000076,0.06781754935118196,0.08417258543019056,non_fall
0.793939,0.0036,-0.0549,0.0786,0.0274,-0.027,0.0156,-42.5048,18.5562,7.1492,,0.008239999999999914,0.0959423264258273,0.08377577160147273,non_fall
0.814981,0.0036,-0.0549,0.0786,0.0274,-0.027,0.0156,-42.5292,18.605,7.1858,,0.021042000000000005,0.0959423264258273,0.08472652621932278,non_fall
0.832985,0.0036,-0.0549,0.0786,0.0274,-0.027,0.0156,-42.5292,18.605,7.1858,,0.01800400000000002,0.0959423264258273,0.0868374543346579,non_fall
0.834331,0.0036,-0.0549,0.0786,0.0274,-0.027,0.0156,-42.5292,18.605,7.1858,,0.0013460000000000694,0.0959423264258273,0.08984795926511398,non_fall
0.835061,0.0036,-0.0549,0.0786,0.0274,-0.027,0.0156,-42.5292,18.605,7.1858,,0.0007300000000000084,0.0959423264258273,0.09346012291585681,non_fall
0.85673,0.0036,-0.0549,0.0786,0.0069,0.0072,-0.0109,-42.5292,18.605,7.1858,,0.02166899999999994,0.0959423264258273,0.09737369414627108,non_fall
0.864644,0.0398,0.0944,0.0488,0.0069,0.0072,-0.0109,-42.5292,18.605,7.1858,,0.007913999999999977,0.11347616489818468,0.1013171821691847,non_fall
0.875133,0.0398,0.0944,0.0488,0.0069,0.0072,-0.0109,-42.5292,18.666,7.2224,,0.010489000000000082,0.11347616489818468,0.10507290345672367,non_fall
0.899067,0.0398,0.0944,0.0488,0.0069,0.0072,-0.0109,-42.5292,18.666,7.2224,,0.0239339999999999,0.11347616489818468,0.1084944982316156,non_fall
0.90041,0.0398,0.0944,0.0488,0.0069,0.0072,-0.0109,-42.5292,18.666,7.2224,,0.0013430000000000941,0.11347616489818468,0.1115161263589176,non_fall
0.901165,0.0398,0.0944,0.0488,0.0069,0.0072,-0.0109,-42.5292,18.666,7.2224,,0.0007549999999999502,0.11347616489818468,0.11415339690490889,non_fall
0.901938,0.0398,0.0944,0.0488,0.0069,0.0072,-0.0109,-42.5292,18.666,7.2224,,0.0007730000000000237,0.11347616489818468,0.11649696168594124,non_fall
0.924719,0.0398,0.0944,0.0488,-0.0712,-0.002,0.0003,-42.5292,18.666,7.2224,,0.02278099999999994,0.11347616489818468,0.1187003750696984,non_fall
0.93632,0.0398,0.0944,0.0488,-0.0712,-0.002,0.0003,-42.5048,18.7026,7.1492,,0.011601000000000083,0.11347616489818468,0.12096414131192404,non_fall
0.937671,-0.0277,-0.0159,0.1259,-0.0712,-0.002,0.0003,-42.5048,18.7026,7.1492,,0.001350999999999991,0.12988806719633642,0.1235178220711337,non_fall
0.965537,-0.0277,-0.0159,0.1259,-0.0712,-0.002,0.0003,-42.5048,18.7026,7.1492,,0.027865999999999946,0.12988806719633642,0.1266017473602171,non_fall
0.967158,-0.0277,-0.0159,0.1259,-0.0712,-0.002,0.0003,-42.5048,18.7026,7.1492,,0.0016209999999999836,0.12988806719633642,0.13044945834734142,non_fall
0.968056,-0.0277,-0.0159,0.1259,-0.0712,-0.002,0.0003,-42.5048,18.7026,7.1492,,0.0008980000000000654,0.12988806719633642,0.13527175217368895,non_fall
0.994282,-0.0277,-0.0159,0.1259,-0.0712,-0.002,0.0003,-42.5048,18.7636,7.0516,,0.02622599999999997,0.12988806719633642,0.1412431819708924,non_fall
0.995823,-0.0277,-0.0159,0.1259,-0.1248,0.004,-0.0045,-42.5048,18.7636,7.0516,,0.0015410000000000146,0.12988806719633642,0.14849188780652664,non_fall
1.00708,0.0314,0.0367,0.1744,-0.1248,0.004,-0.0045,-42.5048,18.7636,7.0516,,0.011256999999999961,0.18096466505923195,0.15709336465816515,non_fall
1.034459,0.0314,0.0367,0.1744,-0.1248,0.004,-0.0045,-42.5048,18.7636,7.0516,,0.027379000000000042,0.18096466505923195,0.16706809462560088,non_fall
1.035917,0.0314,0.0367,0.1744,-0.1248,0.004,-0.0045,-42.5048,18.7636,7.0516,,0.0014579999999999593,0.18096466505923195,0.17838222832264752,non_fall
1.036748,0.0314,0.0367,0.1744,-0.1248,0.004,-0.0045,-42.5048,18.7636,7.0516,,0.0008310000000000262,0.18096466505923195,0.19095030442114258,non_fall
1.063827,0.0314,0.0367,0.1744,-0.1248,0.004,-0.0045,-42.578,18.727,6.9784,,0.027079000000000075,0.18096466505923195,0.20463955870840642,non_fall
1.065622,0.0314,0.0367,0.1744,-0.1683,0.0256,-0.0096,-42.578,18.727,6.9784,,0.001794999999999991,0.18096466505923195,0.21927611111250786,non_fall
1.072728,0.0222,0.0439,0.2787,-0.1683,0.0256,-0.0096,-42.578,18.727,6.9784,,0.007105999999999835,0.28300837443439725,0.23465331192133024,non_fall
1.097795,0.0222,0.0439,0.2787,-0.1683,0.0256,-0.0096,-42.578,18.727,6.9784,,0.025067000000000172,0.28300837443439725,0.2505414352422283,non_fall
1.099634,0.0222,0.0439,0.2787,-0.1683,0.0256,-0.0096,-42.578,18.727,6.9784,,0.001838999999999924,0.28300837443439725,0.2666965083515731,non_fall
1.100554,0.0222,0.0439,0.2787,-0.1683,0.0256,-0.0096,-42.578,18.727,6.9784,,0.0009200000000000319,0.28300837443439725,0.2828657856296096,non_fall
1.101413,0.0222,0.0439,0.2787,-0.1683,0.0256,-0.0096,-42.578,18.727,6.9784,,0.0008589999999999431,0.28300837443439725,0.29878890539210584,non_fall
1.124345,0.0222,0.0439,0.2787,-0.1683,0.0256,-0.0096,-42.6146,18.7026,6.954,,0.022931999999999952,0.28300837443439725,0.3141962448950815,non_fall
1.135137,0.0222,0.0439,0.2787,-0.1603,0.0459,-0.0059,-42.6146,18.7026,6.954,,0.010792000000000135,0.28300837443439725,0.3288077928631658,non_fall
1.143898,-0.0244,-0.0109,0.3739,-0.1603,0.0459,-0.0059,-42.6146,18.7026,6.954,,0.008761000000000019,0.374853811505232,0.34233590889247434,non_fall
1.166417,-0.0244,-0.0109,0.3739,-0.1603,0.0459,-0.0059,-42.6146,18.7026,6.954,,0.022518999999999956,0.374853811505232,0.35449363165102465,non_fall
1.167697,-0.0244,-0.0109,0.3739,-0.1603,0.0459,-0.0059,-42.6146,18.7026,6.954,,0.0012799999999999478,0.374853811505232,0.36500776908488664,non_fall
1.168614,-0.0244,-0.0109,0.3739,-0.1603,0.0459,-0.0059,-42.6146,18.7026,6.954,,0.0009170000000000567,0.374853811505232,0.37363439309648344,non_fall
1.183381,-0.0244,-0.0109,0.3739,-0.1603,0.0459,-0.0059,-42.5902,18.6782,6.9906,,0.014766999999999975,0.374853811505232,0.38017443456300704,non_fall
1.203169,-0.0244,-0.0109,0.3739,-0.1959,0.0678,-0.0107,-42.5902,18.6782,6.9906,,0.019787999999999917,0.374853811505232,0.38448831172942943,non_fall
1.214964,0.0377,0.0382,0.3755,-0.1959,0.0678,-0.0107,-42.5902,18.6782,6.9906,,0.011795,0.3793162005504115,0.38650973195624294,non_fall
1.233915,0.0377,0.0382,0.3755,-0.1959,0.0678,-0.0107,-42.5902,18.6782,6.9906,,0.018951000000000162,0.3793162005504115,0.38625924413381846,non_fall
1.235284,0.0377,0.0382,0.3755,-0.1959,0.0678,-0.0107,-42.5902,18.6782,6.9906,,0.0013689999999999536,0.3793162005504115,0.38385776757960927,non_fall
1.236161,0.0377,0.0382,0.3755,-0.1959,0.0678,-0.0107,-42.5902,18.6782,6.9906,,0.0008770000000000167,0.3793162005504115,0.3795395067810528,non_fall
1.237034,0.0377,0.0382,0.3755,-0.1959,0.0678,-0.0107,-42.5902,18.6782,6.9906,,0.0008729999999999016,0.3793162005504115,0.3736627275632898,non_fall
1.24321,0.0377,0.0382,0.3755,-0.1959,0.0678,-0.0107,-42.6146,18.5562,7.076,,0.006175999999999959,0.3793162005504115,0.36671609271042704,non_fall
1.273121,0.0377,0.0382,0.3755,-0.2302,0.0754,-0.0088,-42.6146,18.5562,7.076,,0.02991100000000002,0.3793162005504115,0.3593178537735305,non_fall
1.283476,0.0328,0.0947,0.3344,-0.2302,0.0754,-0.0088,-42.6146,18.5562,7.076,,0.010355000000000114,0.349094958428219,0.35220535917092727,non_fall
1.297998,0.0328,0.0947,0.3344,-0.2302,0.0754,-0.0088,-42.6146,18.5562,7.076,,0.014521999999999924,0.349094958428219,0.34621313518324753,non_fall
1.299164,0.0328,0.0947,0.3344,-0.2302,0.0754,-0.0088,-42.6146,18.5562,7.076,,0.0011660000000000004,0.349094958428219,0.3422390224870276,non_fall
1.300012,0.0328,0.0947,0.3344,-0.2302,0.0754,-0.0088,-42.6146,18.5562,7.076,,0.0008479999999999599,0.349094958428219,0.34119908517747505,non_fall
1.301521,0.0328,0.0947,0.3344,-0.2302,0.0754,-0.0088,-42.578,18.3732,7.2224,,0.0015089999999999826,0.349094958428219,0.3439729635586466,non_fall
1.343721,0.0328,0.0947,0.3344,-0.277,0.0972,-0.0048,-42.578,18.3732,7.2224,,0.042200000000000015,0.349094958428219,0.3513420834901875,non_fall
1.353446,0.0711,0.0702,0.3879,-0.277,0.0972,-0.0048,-42.578,18.3732,7.2224,,0.009724999999999984,0.40056168064356834,0.36392387289887806,non_fall
1.363723,0.0711,0.0702,0.3879,-0.277,0.0972,-0.0048,-42.4926,18.1902,7.3078,,0.010277000000000092,0.40056168064356834,0.38210599410355306,non_fall
1.365501,0.0711,0.0702,0.3879,-0.277,0.0972,-0.0048,-42.4926,18.1902,7.3078,,0.0017780000000000573,0.40056168064356834,0.4059857396483035,non_fall
1.367395,0.0711,0.0702,0.3879,-0.277,0.0972,-0.0048,-42.4926,18.1902,7.3078,,0.0018939999999998403,0.40056168064356834,0.4353213461250667,non_fall
1.36909,0.0711,0.0702,0.3879,-0.277,0.0972,-0.0048,-42.4926,18.1902,7.3078,,0.001695000000000002,0.40056168064356834,0.46950374700779307,non_fall
1.414157,0.0711,0.0702,0.3879,-0.273,0.1169,-0.0133,-42.4926,18.1902,7.3078,,0.04506700000000019,0.40056168064356834,0.5075580582492887,non_fall
1.423779,0.0711,0.0702,0.3879,-0.273,0.1169,-0.0133,-42.5414,18.0194,7.3566,,0.009621999999999797,0.40056168064356834,0.5481823089943944,non_fall
1.427556,0.0946,0.0096,0.7239,-0.273,0.1169,-0.0133,-42.5414,18.0194,7.3566,,0.0037770000000001414,0.7301181616697395,0.589825482679725,non_fall
1.433202,0.0946,0.0096,0.7239,-0.273,0.1169,-0.0133,-42.5414,18.0194,7.3566,,0.00564600000000004,0.7301181616697395,0.6307982622632881,non_fall
1.436007,0.0946,0.0096,0.7239,-0.273,0.1169,-0.0133,-42.5414,18.0194,7.3566,,0.0028049999999999464,0.7301181616697395,0.6694010973647192,non_fall
1.438101,0.0946,0.0096,0.7239,-0.273,0.1169,-0.0133,-42.5414,18.0194,7.3566,,0.0020940000000000403,0.7301181616697395,0.7040501147025786,non_fall
1.439454,0.0946,0.0096,0.7239,-0.273,0.1169,-0.0133,-42.5414,18.0194,7.3566,,0.0013529999999999376,0.7301181616697395,0.7333844080454872,non_fall
1.483708,0.0946,0.0096,0.7239,-0.2621,0.1288,0.0008,-42.5414,18.0194,7.3566,,0.044254000000000016,0.7301181616697395,0.7563459091147111,non_fall
1.488483,0.0946,0.0096,0.7239,-0.2621,0.1288,0.0008,-42.578,17.8486,7.3078,,0.004774999999999974,0.7301181616697395,0.7722305622889201,non_fall
1.505083,0.0232,0.1266,0.7817,-0.2621,0.1288,0.0008,-42.578,17.8486,7.3078,,0.016599999999999948,0.7922251510776466,0.7807138152332194,non_fall
1.507436,0.0232,0.1266,0.7817,-0.2621,0.1288,0.0008,-42.578,17.8486,7.3078,,0.0023530000000000495,0.7922251510776466,0.7818541696424851,non_fall
1.508781,0.0232,0.1266,0.7817,-0.2621,0.1288,0.0008,-42.578,17.8486,7.3078,,0.0013449999999999296,0.7922251510776466,0.7760770724723485,non_fall
1.510382,0.0232,0.1266,0.7817,-0.2621,0.1288,0.0008,-42.578,17.8486,7.3078,,0.0016009999999999636,0.7922251510776466,0.7641396838561334,forward_fall
1.541266,0.0232,0.1266,0.7817,-0.2621,0.1288,0.0008,-42.6024,17.6656,7.2712,,0.030884000000000134,0.7922251510776466,0.7470765123536822,forward_fall
1.550759,0.0232,0.1266,0.7817,-0.3666,0.1633,0.0186,-42.6024,17.6656,7.2712,,0.009492999999999974,0.7922251510776466,0.7261270702178831,forward_fall
1.561163,0.0635,0.1971,0.5752,-0.3666,0.1633,0.0186,-42.6024,17.6656,7.2712,,0.01040400000000008,0.6113392675102753,0.7026494423316784,forward_fall
1.563372,0.0635,0.1971,0.5752,-0.3666,0.1633,0.0186,-42.6024,17.6656,7.2712,,0.0022089999999999055,0.6113392675102753,0.6780274276978161,forward_fall
1.564288,0.0635,0.1971,0.5752,-0.3666,0.1633,0.0186,-42.6024,17.6656,7.2712,,0.0009159999999999169,0.6113392675102753,0.6535821545020382,forward_fall
1.565069,0.0635,0.1971,0.5752,-0.3666,0.1633,0.0186,-42.6024,17.6656,7.2712,,0.0007810000000001427,0.6113392675102753,0.6304994818486439,forward_fall
1.602284,0.0635,0.1971,0.5752,-0.3666,0.1633,0.0186,-42.6268,17.4582,7.259,,0.037215,0.6113392675102753,0.6097810344019235,forward_fall
1.62308,0.0635,0.1971,0.5752,-0.4533,0.1493,0.0487,-42.6268,17.4582,7.259,,0.020796000000000037,0.6113392675102753,0.5922209445924508,forward_fall
1.631727,-0.0938,0.1467,0.5561,-0.4533,0.1493,0.0487,-42.6268,17.4582,7.259,,0.00864699999999985,0.5827233820604765,0.5784050853218402,forward_fall
1.634998,-0.0938,0.1467,0.5561,-0.4533,0.1493,0.0487,-42.6268,17.4582,7.259,,0.003271000000000024,0.5827233820604765,0.5687264900153681,forward_fall
1.638214,-0.0938,0.1467,0.5561,-0.4533,0.1493,0.0487,-42.6268,17.4582,7.259,,0.0032160000000001077,0.5827233820604765,0.5634098538393977,forward_fall
1.640572,-0.0938,0.1467,0.5561,-0.4533,0.1493,0.0487,-42.6268,17.4582,7.259,,0.00235799999999986,0.5827233820604765,0.562538726554682,forward_fall
1.642541,-0.0938,0.1467,0.5561,-0.4533,0.1493,0.0487,-42.6268,17.4582,7.259,,0.0019690000000001096,0.5827233820604765,0.5660805172940383,forward_fall
1.661826,-0.0938,0.1467,0.5561,-0.4533,0.1493,0.0487,-42.6634,17.2508,7.137,,0.019284999999999997,0.5827233820604765,0.5739063932371997,forward_fall
1.692672,-0.0938,0.1467,0.5561,-0.5084,0.1446,0.0465,-42.6634,17.2508,7.137,,0.03084599999999993,0.5827233820604765,0.5858054129940328,forward_fall
1.697699,-0.0938,0.1467,0.5561,-0.5084,0.1446,0.0465,-42.6634,17.2508,7.137,,0.005027000000000115,0.5827233820604765,0.601494494636736,forward_fall
1.700826,-0.0938,0.1467,0.5561,-0.5084,0.1446,0.0465,-42.6634,17.2508,7.137,,0.00312699999999988,0.5827233820604765,0.6206275765053498,forward_fall
1.703382,-0.0938,0.1467,0.5561,-0.5084,0.1446,0.0465,-42.6634,17.2508,7.137,,0.0025560000000000027,0.5827233820604765,0.6428080059341554,forward_fall
1.704813,-0.0551,0.3025,0.6607,-0.5084,0.1446,0.0465,-42.6634,17.2508,7.137,,0.00143099999999996,0.7287432675503767,0.6676073001237931,forward_fall
1.720446,-0.0551,0.3025,0.6607,-0.5084,0.1446,0.0465,-42.6634,17.08,6.9662,,0.015633000000000008,0.7287432675503767,0.69459100204835,forward_fall
1.762379,-0.0551,0.3025,0.6607,-0.5923,0.1309,0.0329,-42.6634,17.08,6.9662,,0.041933,0.7287432675503767,0.7233495395063736,forward_fall
1.767728,-0.0551,0.3025,0.6607,-0.5923,0.1309,0.0329,-42.6634,17.08,6.9662,,0.005349000000000048,0.7287432675503767,0.7535306252893,forward_fall
1.770586,-0.0551,0.3025,0.6607,-0.5923,0.1309,0.0329,-42.6634,17.08,6.9662,,0.002858000000000027,0.7287432675503767,0.7848705730929629,forward_fall
1.772649,-0.0551,0.3025,0.6607,-0.5923,0.1309,0.0329,-42.6634,17.08,6.9662,,0.002062999999999926,0.7287432675503767,0.8172235004575699,forward_fall
1.774662,-0.1083,0.5171,0.8197,-0.5923,0.1309,0.0329,-42.6634,17.08,6.9662,,0.0020130000000000425,0.9752073574373811,0.8505873570037246,forward_fall
1.780103,-0.1083,0.5171,0.8197,-0.5923,0.1309,0.0329,-42.7488,16.9092,6.7466,,0.005441000000000029,0.9752073574373811,0.8851231767166967,forward_fall
1.832203,-0.1083,0.5171,0.8197,-0.6521,0.1441,-0.0017,-42.7488,16.9092,6.7466,,0.052100000000000035,0.9752073574373811,0.9211608918430595,forward_fall
1.836832,-0.1083,0.5171,0.8197,-0.6521,0.1441,-0.0017,-42.7488,16.9092,6.7466,,0.004628999999999994,0.9752073574373811,0.9591850437364432,forward_fall
1.839581,-0.1083,0.5171,0.8197,-0.6521,0.1441,-0.0017,-42.7488,16.9092,6.7466,,0.0027489999999998904,0.9752073574373811,0.9997985295112485,forward_fall
1.841812,-0.1083,0.5171,0.8197,-0.6521,0.1441,-0.0017,-42.7488,16.9092,6.7466,,0.002231000000000094,0.9752073574373811,1.0436700307139701,forward_fall
1.844415,-0.1083,0.5171,0.8197,-0.6521,0.1441,-0.0017,-42.7488,16.9092,6.7466,,0.002602999999999911,0.9752073574373811,1.0914769220916805,forward_fall
1.846644,-0.1083,0.5171,0.8197,-0.6521,0.1441,-0.0017,-42.883,16.6774,6.5514,,0.0022290000000000365,0.9752073574373811,1.1438572246693683,forward_fall
1.848895,0.0803,0.413,1.3051,-0.6521,0.1441,-0.0017,-42.883,16.6774,6.5514,,0.002251000000000003,1.371241444822902,1.2013804343840544,forward_fall
1.899582,0.0803,0.413,1.3051,-0.6521,0.1441,-0.0017,-42.883,16.6774,6.5514,,0.05068700000000015,1.371241444822902,1.2645387615342458,forward_fall
1.903173,0.0803,0.413,1.3051,-0.6521,0.1441,-0.0017,-42.883,16.6774,6.5514,,0.0035909999999999,1.371241444822902,1.3337512940647571,forward_fall
1.906179,0.0803,0.413,1.3051,-0.6521,0.1441,-0.0017,-42.883,16.6774,6.5514,,0.003006000000000064,1.371241444822902,1.409369355751629,forward_fall
1.907721,0.0803,0.413,1.3051,-0.6521,0.1441,-0.0017,-42.9196,16.4212,6.344,,0.0015419999999999323,1.371241444822902,1.4916742225938304,forward_fall
1.909651,0.0803,0.413,1.3051,-0.5079,0.298,-0.0337,-42.9196,16.4212,6.344,,0.0019299999999999873,1.371241444822902,1.5808645243882244,forward_fall
1.911558,0.326,0.7241,1.8297,-0.5079,0.298,-0.0337,-42.9196,16.4212,6.344,,0.001907000000000103,1.9945924145047782,1.677033443134086,forward_fall
1.955433,0.326,0.7241,1.8297,-0.5079,0.298,-0.0337,-42.9928,16.1162,6.161,,0.043874999999999886,1.9945924145047782,1.7801323552349961,forward_fall
1.965549,0.326,0.7241,1.8297,-0.5079,0.298,-0.0337,-42.9928,16.1162,6.161,,0.010116000000000014,1.9945924145047782,1.889912287837883,forward_fall
1.967433,0.326,0.7241,1.8297,-0.5079,0.298,-0.0337,-42.9928,16.1162,6.161,,0.0018839999999999968,1.9945924145047782,2.005835965163188,forward_fall
1.969397,0.326,0.7241,1.8297,-0.5079,0.298,-0.0337,-42.9928,16.1162,6.161,,0.001964000000000077,1.9945924145047782,2.1269651768089757,forward_fall
1.971993,0.326,0.7241,1.8297,-0.3925,0.5775,0.029,-42.9928,16.1162,6.161,,0.0025960000000000427,1.9945924145047782,2.251844915756947,forward_fall
1.983482,0.1388,1.1885,2.2336,-0.3925,0.5775,0.029,-42.9928,16.1162,6.161,,0.01148899999999986,2.5339231736577967,2.378416927165165,forward_fall
2.019548,0.1388,1.1885,2.2336,-0.3925,0.5775,0.029,-42.9928,15.8112,5.734,,0.03606599999999993,2.5339231736577967,2.503995347170504,forward_fall
2.032287,0.1388,1.1885,2.2336,-0.3925,0.5775,0.029,-42.9928,15.8112,5.734,,0.012739000000000278,2.5339231736577967,2.6253288873925795,forward_fall
2.034927,0.1388,1.1885,2.2336,-0.3925,0.5775,0.029,-42.9928,15.8112,5.734,,0.0026399999999999757,2.5339231736577967,2.7387651111483096,forward_fall
2.037336,0.1388,1.1885,2.2336,-0.3925,0.5775,0.029,-42.9928,15.8112,5.734,,0.0024089999999996614,2.5339231736577967,2.840526781394198,forward_fall
2.039309,0.1388,1.1885,2.2336,-0.3925,0.5775,0.029,-42.9928,15.8112,5.734,,0.0019730000000000025,2.5339231736577967,2.927104068511424,forward_fall
2.040619,0.1388,1.1885,2.2336,-0.1601,0.506,0.1072,-42.9928,15.8112,5.734,,0.0013100000000001444,2.5339231736577967,2.995751870724593,forward_fall
2.050613,-0.9885,1.6089,2.994,-0.1601,0.506,0.1072,-42.9928,15.8112,5.734,,0.009993999999999836,3.53973550706829,3.045054331869375,forward_fall
2.082801,-0.9885,1.6089,2.994,-0.1601,0.506,0.1072,-43.0538,15.5672,5.0996,,0.032188000000000105,3.53973550706829,3.075482263833816,forward_fall
2.10027,-0.9885,1.6089,2.994,-0.1601,0.506,0.1072,-43.0538,15.5672,5.0996,,0.01746900000000018,3.53973550706829,3.0898364891016836,forward_fall
2.101566,-0.9885,1.6089,2.994,-0.1601,0.506,0.1072,-43.0538,15.5672,5.0996,,0.0012959999999999638,3.53973550706829,3.093459079869194,forward_fall
2.102455,-0.9885,1.6089,2.994,-0.1601,0.506,0.1072,-43.0538,15.5672,5.0996,,0.0008889999999999176,3.53973550706829,3.094115373394445,forward_fall
2.108926,-0.9885,1.6089,2.994,-0.3466,-0.0031,-0.0132,-43.0538,15.5672,5.0996,,0.0064709999999998935,3.53973550706829,3.101497042936812,forward_fall
2.121811,0.0726,2.6583,1.4698,-0.3466,-0.0031,-0.0132,-43.0538,15.5672,5.0996,,0.012885000000000257,3.038443958673584,3.1263564482898016,forward_fall
2.140727,0.0726,2.6583,1.4698,-0.3466,-0.0031,-0.0132,-43.127,15.2744,4.4896,,0.018915999999999933,3.038443958673584,3.1793430822212283,forward_fall
2.164336,0.0726,2.6583,1.4698,-0.3466,-0.0031,-0.0132,-43.127,15.2744,4.4896,,0.02360899999999999,3.038443958673584,3.269664875492651,forward_fall
2.166889,0.0726,2.6583,1.4698,-0.3466,-0.0031,-0.0132,-43.127,15.2744,4.4896,,0.0025529999999998054,3.038443958673584,3.403730996006998,forward_fall
2.168344,0.0726,2.6583,1.4698,-0.3466,-0.0031,-0.0132,-43.127,15.2744,4.4896,,0.001454999999999984,3.038443958673584,3.5839422302129393,forward_fall
2.179226,0.0726,2.6583,1.4698,-1.0749,0.0462,0.039,-43.127,15.2744,4.4896,,0.010882000000000058,3.038443958673584,3.8077801714863266,forward_fall
2.196205,0.5993,4.5435,0.3337,-1.0749,0.0462,0.039,-43.127,15.2744,4.4896,,0.016979000000000077,4.594987315542884,4.067310995507287,forward_fall
2.202004,0.5993,4.5435,0.3337,-1.0749,0.0462,0.039,-43.2124,14.9938,3.8064,,0.00579900000000011,4.594987315542884,4.3491695195619124,forward_fall
2.23294,0.5993,4.5435,0.3337,-1.0749,0.0462,0.039,-43.2124,14.9938,3.8064,,0.030936000000000075,4.594987315542884,4.635037850943625,forward_fall
2.236997,0.5993,4.5435,0.3337,-1.0749,0.0462,0.039,-43.2124,14.9938,3.8064,,0.004056999999999977,4.594987315542884,4.902599218552507,forward_fall
2.240115,0.5993,4.5435,0.3337,-1.0749,0.0462,0.039,-43.2124,14.9938,3.8064,,0.003117999999999732,4.594987315542884,5.126939310575813,forward_fall
2.242536,0.5993,4.5435,0.3337,-1.0749,0.0462,0.039,-43.2124,14.9938,3.8064,,0.0024210000000000065,4.594987315542884,5.282370039483253,forward_fall
2.251426,0.5993,4.5435,0.3337,-2.0052,0.1948,0.0362,-43.2124,14.9938,3.8064,,0.008890000000000065,4.594987315542884,5.344639939142079,forward_fall
2.258759,0.5993,4.5435,0.3337,-2.0052,0.1948,0.0362,-43.249,14.6522,3.1598,,0.007333000000000034,4.594987315542884,5.293457055329712,forward_fall
2.25993,-0.1653,5.1453,-0.9946,-2.0052,0.1948,0.0362,-43.249,14.6522,3.1598,,0.0011710000000002552,5.243154140400605,5.115184762747233,forward_fall
2.300537,-0.1653,5.1453,-0.9946,-2.0052,0.1948,0.0362,-43.249,14.6522,3.1598,,0.040606999999999616,5.243154140400605,4.805489639725857,forward_fall
2.304535,-0.1653,5.1453,-0.9946,-2.0052,0.1948,0.0362,-43.249,14.6522,3.1598,,0.003998000000000168,5.243154140400605,4.371643191646632,forward_fall
2.306748,-0.1653,5.1453,-0.9946,-2.0052,0.1948,0.0362,-43.249,14.6522,3.1598,,0.0022129999999997985,5.243154140400605,3.834131054165947,forward_fall
2.318444,-0.1653,5.1453,-0.9946,-2.0052,0.1948,0.0362,-43.1392,14.5668,2.5254,,0.01169600000000015,5.243154140400605,3.227226091067451,forward_fall
2.320172,-0.1653,5.1453,-0.9946,-3.1977,0.1935,0.2822,-43.1392,14.5668,2.5254,,0.0017279999999999518,5.243154140400605,2.598247538511237,forward_fall
2.33051,-0.0593,0.912,-0.6064,-3.1977,0.1935,0.2822,-43.1392,14.5668,2.5254,,0.010337999999999958,1.0968051103090284,2.0053604762330024,forward_fall
2.365635,-0.0593,0.912,-0.6064,-3.1977,0.1935,0.2822,-43.1392,14.5668,2.5254,,0.035125000000000295,1.0968051103090284,1.513957975267912,forward_fall
2.368467,-0.0593,0.912,-0.6064,-3.1977,0.1935,0.2822,-43.1392,14.5668,2.5254,,0.0028319999999997236,1.0968051103090284,1.19187186996445,forward_fall
2.370673,-0.0593,0.912,-0.6064,-3.1977,0.1935,0.2822,-43.1392,14.5668,2.5254,,0.0022060000000001523,1.0968051103090284,1.1038141819400578,forward_fall
2.38115,-0.0593,0.912,-0.6064,-3.1977,0.1935,0.2822,-43.066,14.4204,2.196,,0.010476999999999848,1.0968051103090284,1.3055215213569953,forward_fall
2.388069,-0.0593,0.912,-0.6064,-5.8435,0.2864,0.2478,-43.066,14.4204,2.196,,0.0069190000000003415,1.0968051103090284,1.8380767770389028,forward_fall
2.398432,0.5581,-3.5553,-2.2505,-5.8435,0.2864,0.2478,-43.066,14.4204,2.196,,0.0103629999999999,4.244571114965563,2.7228586130429537,forward_fall
2.432356,0.5581,-3.5553,-2.2505,-5.8435,0.2864,0.2478,-43.066,14.4204,2.196,,0.03392399999999984,4.244571114965563,3.957545951845113,forward_fall
2.434853,0.5581,-3.5553,-2.2505,-5.8435,0.2864,0.2478,-43.066,14.4204,2.196,,0.0024969999999999715,4.244571114965563,5.513593656340002,forward_fall
2.436229,0.5581,-3.5553,-2.2505,-5.8435,0.2864,0.2478,-43.066,14.4204,2.196,,0.0013760000000000439,4.244571114965563,7.335603969955278,forward_fall
2.437528,0.5581,-3.5553,-2.2505,-5.8435,0.2864,0.2478,-43.066,14.4204,2.196,,0.001298999999999939,4.244571114965563,9.343023666325157,forward_fall
2.439765,0.5581,-3.5553,-2.2505,-5.8435,0.2864,0.2478,-42.9684,14.2252,2.1594,,0.0022370000000000445,4.244571114965563,11.434528836004876,forward_fall
2.460561,0.5581,-3.5553,-2.2505,-2.9672,-1.0481,-0.2812,-42.9684,14.2252,2.1594,,0.02079600000000026,4.244571114965563,13.495227026076355,forward_fall
2.477079,-2.1758,2.2669,-24.2021,-2.9672,-1.0481,-0.2812,-42.9684,14.2252,2.1594,,0.01651799999999959,24.40521636167154,15.406352014547691,forward_fall
2.498209,-2.1758,2.2669,-24.2021,-2.9672,-1.0481,-0.2812,-42.9684,13.5786,2.6962,,0.021130000000000315,24.40521636167154,17.056492349980044,forward_fall
2.500177,-2.1758,2.2669,-24.2021,-2.9672,-1.0481,-0.2812,-42.9684,13.5786,2.6962,,0.0019679999999997477,24.40521636167154,18.35279254730874,forward_fall
2.501482,-2.1758,2.2669,-24.2021,-2.9672,-1.0481,-0.2812,-42.9684,13.5786,2.6962,,0.0013050000000003337,24.40521636167154,19.23031325986364,forward_fall
2.502922,-2.1758,2.2669,-24.2021,-2.9672,-1.0481,-0.2812,-42.9684,13.5786,2.6962,,0.0014399999999996638,24.40521636167154,19.658010486090816,forward_fall
2.529144,-2.1758,2.2669,-24.2021,-0.3285,-0.071,0.0927,-42.9684,13.5786,2.6962,,0.02622200000000019,24.40521636167154,19.640471959214768,forward_fall
2.547191,2.2169,-0.6997,-14.1173,-0.3285,-0.071,0.0927,-42.9684,13.5786,2.6962,,0.018047000000000146,14.30742412141333,19.21535922454899,forward_fall
2.558146,2.2169,-0.6997,-14.1173,-0.3285,-0.071,0.0927,-42.8586,13.0906,3.416,,0.010954999999999604,14.30742412141333,18.447238678239383,forward_fall
2.564952,2.2169,-0.6997,-14.1173,-0.3285,-0.071,0.0927,-42.8586,13.0906,3.416,,0.00680600000000009,14.30742412141333,17.41901284536057,forward_fall
2.567476,2.2169,-0.6997,-14.1173,-0.3285,-0.071,0.0927,-42.8586,13.0906,3.416,,0.0025240000000001928,14.30742412141333,16.222375187708625,forward_fall
2.569383,2.2169,-0.6997,-14.1173,-0.3285,-0.071,0.0927,-42.8586,13.0906,3.416,,0.001907000000000103,14.30742412141333,14.948583533777935,forward_fall
2.59757,2.2169,-0.6997,-14.1173,0.1189,0.7647,0.0804,-42.8586,13.0906,3.416,,0.028186999999999962,14.30742412141333,13.680503304456813,forward_fall
2.620563,0.4468,3.9135,8.6139,0.1189,0.7647,0.0804,-42.8586,13.0906,3.416,,0.02299300000000004,9.471767823379118,12.48650176323128,forward_fall
2.623748,0.4468,3.9135,8.6139,0.1189,0.7647,0.0804,-42.7732,12.444,4.0626,,0.0031849999999997713,9.471767823379118,11.416495629530482,forward_fall
2.632514,0.4468,3.9135,8.6139,0.1189,0.7647,0.0804,-42.7732,12.444,4.0626,,0.008766000000000052,9.471767823379118,10.500264173639428,forward_fall
2.633933,0.4468,3.9135,8.6139,0.1189,0.7647,0.0804,-42.7732,12.444,4.0626,,0.001418999999999837,9.471767823379118,9.74797003896759,forward_fall
2.635073,0.4468,3.9135,8.6139,0.1189,0.7647,0.0804,-42.7732,12.444,4.0626,,0.001140000000000363,9.471767823379118,9.152634972539012,forward_fall
2.63635,0.4468,3.9135,8.6139,0.1189,0.7647,0.0804,-42.7732,12.444,4.0626,,0.0012769999999999726,9.471767823379118,8.69412006047699,forward_fall
2.667782,0.4468,3.9135,8.6139,-0.0549,0.2976,-0.1497,-42.7732,12.444,4.0626,,0.03143199999999968,9.471767823379118,8.34401587571344,forward_fall
2.689449,0.4468,3.9135,8.6139,-0.0549,0.2976,-0.1497,-42.7,11.834,4.6116,,0.021667000000000325,9.471767823379118,8.070789849992194,forward_fall
2.692265,-0.4738,1.3229,8.7866,-0.0549,0.2976,-0.1497,-42.7,11.834,4.6116,,0.0028159999999997076,8.898252098586553,7.8445641733094185,forward_fall
2.700222,-0.4738,1.3229,8.7866,-0.0549,0.2976,-0.1497,-42.7,11.834,4.6116,,0.007957000000000214,8.898252098586553,7.640989800558286,forward_fall
2.702232,-0.4738,1.3229,8.7866,-0.0549,0.2976,-0.1497,-42.7,11.834,4.6116,,0.0020099999999998452,8.898252098586553,7.443819427085341,forward_fall
2.703541,-0.4738,1.3229,8.7866,-0.0549,0.2976,-0.1497,-42.7,11.834,4.6116,,0.0013090000000000046,8.898252098586553,7.245944583280074,forward_fall
2.738095,-0.4738,1.3229,8.7866,-0.0549,0.2976,-0.1497,-42.5902,11.1508,5.246,,0.034553999999999974,8.898252098586553,7.048837456096403,forward_fall
2.742119,-0.4738,1.3229,8.7866,0.165,-0.4442,-0.0055,-42.5902,11.1508,5.246,,0.00402400000000025,8.898252098586553,6.860526839438208,forward_fall
2.756828,-1.2891,2.8607,2.2408,0.165,-0.4442,-0.0055,-42.5902,11.1508,5.246,,0.014708999999999861,3.8557188616391627,6.692443729550613,forward_fall
2.764709,-1.2891,2.8607,2.2408,0.165,-0.4442,-0.0055,-42.5902,11.1508,5.246,,0.007880999999999805,3.8557188616391627,6.5556812664839015,forward_fall
2.766171,-1.2891,2.8607,2.2408,0.165,-0.4442,-0.0055,-42.5902,11.1508,5.246,,0.0014620000000000744,3.8557188616391627,6.457371319312307,forward_fall
2.767557,-1.2891,2.8607,2.2408,0.165,-0.4442,-0.0055,-42.5902,11.1508,5.246,,0.0013860000000001094,3.8557188616391627,6.397906373046843,forward_fall
2.799766,-1.2891,2.8607,2.2408,0.165,-0.4442,-0.0055,-42.5536,10.1382,6.222,,0.03220899999999993,3.8557188616391627,6.36958853785887,forward_fall
2.807744,-1.2891,2.8607,2.2408,-0.3121,-1.0611,-0.0666,-42.5536,10.1382,6.222,,0.00797800000000004,3.8557188616391627,6.357002672537713,forward_fall
2.820802,0.6875,2.4372,-7.858,-0.3121,-1.0611,-0.0666,-42.5536,10.1382,6.222,,0.013058000000000014,8.255953251442259,6.3390639241518345,forward_fall
2.831135,0.6875,2.4372,-7.858,-0.3121,-1.0611,-0.0666,-42.5536,10.1382,6.222,,0.010333000000000148,8.255953251442259,6.292349958980469,forward_fall
2.832032,0.6875,2.4372,-7.858,-0.3121,-1.0611,-0.0666,-42.5536,10.1382,6.222,,0.0008969999999997036,8.255953251442259,6.195059733762042,forward_fall
2.832565,0.6875,2.4372,-7.858,-0.3121,-1.0611,-0.0666,-42.5536,10.1382,6.222,,0.0005330000000003388,8.255953251442259,6.030813428067049,forward_fall
2.833104,0.6875,2.4372,-7.858,-0.3121,-1.0611,-0.0666,-42.5536,10.1382,6.222,,0.0005389999999998452,8.255953251442259,5.7915573350408085,forward_fall
2.856746,0.6875,2.4372,-7.858,-0.3121,-1.0611,-0.0666,-42.3584,9.2354,7.2468,,0.02364199999999972,8.255953251442259,5.479032802377484,forward_fall
2.876806,0.6875,2.4372,-7.858,-0.4748,-0.3758,0.0009,-42.3584,9.2354,7.2468,,0.02006000000000041,8.255953251442259,5.104547886215423,forward_fall
2.901603,-0.0364,-0.5364,1.4283,-0.4748,-0.3758,0.0009,-42.3584,9.2354,7.2468,,0.024796999999999958,1.5261359081025516,4.687110108493322,forward_fall
2.904362,-0.0364,-0.5364,1.4283,-0.4748,-0.3758,0.0009,-42.3584,9.2354,7.2468,,0.002758999999999734,1.5261359081025516,4.250304747873581,forward_fall
2.90574,-0.0364,-0.5364,1.4283,-0.4748,-0.3758,0.0009,-42.3584,9.2354,7.2468,,0.0013780000000003234,1.5261359081025516,3.8185675212678185,forward_fall
2.907644,-0.0364,-0.5364,1.4283,-0.4748,-0.3758,0.0009,-42.3584,9.2354,7.2468,,0.0019039999999996837,1.5261359081025516,3.4136066387831234,forward_fall
2.917595,-0.0364,-0.5364,1.4283,-0.4748,-0.3758,0.0009,-42.2364,8.479,7.991,,0.009951000000000043,1.5261359081025516,3.0516302900491685,forward_fall
2.948177,-0.0364,-0.5364,1.4283,0.031,-0.1894,-0.1278,-42.2364,8.479,7.991,,0.030581999999999887,1.5261359081025516,2.741786491414152,forward_fall
2.961444,0.2718,-0.8108,3.0334,0.031,-0.1894,-0.1278,-42.2364,8.479,7.991,,0.013267000000000362,3.1516325039572743,2.485927872488642,forward_fall
2.964553,0.2718,-0.8108,3.0334,0.031,-0.1894,-0.1278,-42.2364,8.479,7.991,,0.0031089999999998064,3.1516325039572743,2.2795522423017456,forward_fall
2.965662,0.2718,-0.8108,3.0334,0.031,-0.1894,-0.1278,-42.2364,8.479,7.991,,0.0011090000000000266,3.1516325039572743,2.11357961791503,forward_fall
2.966963,0.2718,-0.8108,3.0334,0.031,-0.1894,-0.1278,-42.2364,8.479,7.991,,0.0013009999999997746,3.1516325039572743,1.976530357830543,forward_fall
2.97566,0.2718,-0.8108,3.0334,0.031,-0.1894,-0.1278,-42.029,8.1862,8.418,,0.008697000000000177,3.1516325039572743,1.856672930851918,forward_fall
3.016906,0.2718,-0.8108,3.0334,0.1808,-0.1065,-0.0502,-42.029,8.1862,8.418,,0.041246000000000116,3.1516325039572743,1.7437946599569194,forward_fall
3.026631,-0.4985,-0.7933,-0.1564,0.1808,-0.1065,-0.0502,-42.029,8.1862,8.418,,0.009724999999999984,0.9498884671370634,1.6303826685606893,forward_fall
3.031869,-0.4985,-0.7933,-0.1564,0.1808,-0.1065,-0.0502,-42.029,8.1862,8.418,,0.005237999999999854,0.9498884671370634,1.51215460942925,forward_fall
3.033393,-0.4985,-0.7933,-0.1564,0.1808,-0.1065,-0.0502,-42.029,8.1862,8.418,,0.0015239999999998588,0.9498884671370634,1.3880162327129901,forward_fall
3.035323,-0.4985,-0.7933,-0.1564,0.1808,-0.1065,-0.0502,-42.029,8.1862,8.418,,0.0019300000000002093,0.9498884671370634,1.259609034900701,forward_fall
3.03671,-0.4985,-0.7933,-0.1564,0.1808,-0.1065,-0.0502,-42.029,8.1862,8.418,,0.001386999999999805,0.9498884671370634,1.1306286854641512,forward_fall
3.038205,-0.4985,-0.7933,-0.1564,0.1808,-0.1065,-0.0502,-41.8948,7.7104,8.906,,0.0014950000000002461,0.9498884671370634,1.006060991774269,forward_fall
3.087317,-0.4985,-0.7933,-0.1564,0.0501,0.0481,-0.0156,-41.8948,7.7104,8.906,,0.049112000000000045,0.9498884671370634,0.8914314715633872,forward_fall
3.102648,-0.4985,-0.7933,-0.1564,0.0501,0.0481,-0.0156,-41.7118,7.442,9.5648,,0.015330999999999761,0.9498884671370634,0.7921218842154724,forward_fall
3.104509,-0.1495,-0.5631,0.0212,0.0501,0.0481,-0.0156,-41.7118,7.442,9.5648,,0.0018610000000003346,0.5829933961890136,0.7127805652850789,forward_fall
3.106236,-0.1495,-0.5631,0.0212,0.0501,0.0481,-0.0156,-41.7118,7.442,9.5648,,0.001726999999999812,0.5829933961890136,0.6568422036109792,forward_fall
3.107829,-0.1495,-0.5631,0.0212,0.0501,0.0481,-0.0156,-41.7118,7.442,9.5648,,0.0015930000000001776,0.5829933961890136,0.6261713348992018,forward_fall
3.108776,-0.1495,-0.5631,0.0212,0.0501,0.0481,-0.0156,-41.7118,7.442,9.5648,,0.0009470000000000312,0.5829933961890136,0.6208445294441323,forward_fall
3.156371,-0.1495,-0.5631,0.0212,0.0501,0.0481,-0.0156,-41.5288,7.198,10.4066,,0.04759499999999983,0.5829933961890136,0.6390835094926056,forward_fall
3.160378,-0.1495,-0.5631,0.0212,0.0429,0.1437,0.0077,-41.5288,7.198,10.4066,,0.004007000000000094,0.5829933961890136,0.6773449853569802,forward_fall
3.178091,-0.1495,-0.5631,0.0212,0.0429,0.1437,0.0077,-41.5288,7.198,10.4066,,0.01771300000000009,0.5829933961890136,0.7305652034454347,forward_fall
3.179236,-0.1495,-0.5631,0.0212,0.0429,0.1437,0.0077,-41.5288,7.198,10.4066,,0.0011449999999997296,0.5829933961890136,0.7925487799146871,forward_fall
3.180162,-0.1495,-0.5631,0.0212,0.0429,0.1437,0.0077,-41.5288,7.198,10.4066,,0.0009260000000002044,0.5829933961890136,0.8564806724920979,forward_fall
3.181473,-0.0387,-0.4491,1.1358,0.0429,0.1437,0.0077,-41.5288,7.198,10.4066,,0.00131099999999984,1.2219779621580742,0.9155250446168017,forward_fall
3.216076,-0.0387,-0.4491,1.1358,0.0429,0.1437,0.0077,-41.419,7.076,11.0288,,0.03460300000000016,1.2219779621580742,0.9634558112567475,forward_fall
3.226125,-0.0387,-0.4491,1.1358,-0.0061,0.1389,0.0073,-41.419,7.076,11.0288,,0.010048999999999975,1.2219779621580742,0.9952467484916205,forward_fall
3.231667,-0.0387,-0.4491,1.1358,-0.0061,0.1389,0.0073,-41.419,7.076,11.0288,,0.005541999999999714,1.2219779621580742,1.007543841765555,forward_fall
3.233188,-0.0387,-0.4491,1.1358,-0.0061,0.1389,0.0073,-41.419,7.076,11.0288,,0.0015210000000003276,1.2219779621580742,0.9989546086530912,forward_fall
3.234587,-0.0387,-0.4491,1.1358,-0.0061,0.1389,0.0073,-41.419,7.076,11.0288,,0.001398999999999706,1.2219779621580742,0.9701149152120413,forward_fall
3.235634,-0.0387,-0.4491,1.1358,-0.0061,0.1389,0.0073,-41.419,7.076,11.0288,,0.0010470000000002422,1.2219779621580742,0.923525455445264,forward_fall
3.236866,-0.0176,-0.3345,0.3704,-0.0061,0.1389,0.0073,-41.419,7.076,11.0288,,0.0012319999999998998,0.4993958049483396,0.863182595997043,forward_fall
3.27697,-0.0176,-0.3345,0.3704,-0.0061,0.1389,0.0073,-41.3946,7.1126,11.2606,,0.04010399999999992,0.4993958049483396,0.7940591078003542,forward_fall
3.295734,-0.0176,-0.3345,0.3704,-0.002,0.0755,0.0036,-41.3946,7.1126,11.2606,,0.018764000000000003,0.4993958049483396,0.72151366765313,forward_fall
3.298842,-0.0176,-0.3345,0.3704,-0.002,0.0755,0.0036,-41.3946,7.1126,11.2606,,0.0031080000000001107,0.4993958049483396,0.6507150148324597,forward_fall
3.300043,-0.0176,-0.3345,0.3704,-0.002,0.0755,0.0036,-41.3946,7.1126,11.2606,,0.0012010000000000076,0.4993958049483396,0.5861535001450149,forward_fall
3.301117,-0.0176,-0.3345,0.3704,-0.002,0.0755,0.0036,-41.3946,7.1126,11.2606,,0.0010740000000000194,0.4993958049483396,0.5312862654163505,forward_fall
3.304591,-0.0008,-0.3054,0.345,-0.002,0.0755,0.0036,-41.3946,7.1126,11.2606,,0.003473999999999755,0.4607545984577907,0.4883341421793482,forward_fall
3.335457,-0.0008,-0.3054,0.345,-0.002,0.0755,0.0036,-41.48,7.1614,11.1264,,0.03086600000000006,0.4607545984577907,0.4582262616281452,forward_fall
3.365386,-0.0008,-0.3054,0.345,0.0201,0.0284,-0.0016,-41.48,7.1614,11.1264,,0.029929000000000094,0.4607545984577907,0.44067395280656635,forward_fall
3.367455,-0.0008,-0.3054,0.345,0.0201,0.0284,-0.0016,-41.48,7.1614,11.1264,,0.0020690000000000985,0.4607545984577907,0.43434736532921586,forward_fall
3.368576,-0.0008,-0.3054,0.345,0.0201,0.0284,-0.0016,-41.48,7.1614,11.1264,,0.0011209999999999276,0.4607545984577907,0.4371245724887204,forward_fall
3.369636,-0.0008,-0.3054,0.345,0.0201,0.0284,-0.0016,-41.48,7.1614,11.1264,,0.0010599999999998388,0.4607545984577907,0.4463823349689758,forward_fall
3.37076,-0.0008,-0.3054,0.345,0.0201,0.0284,-0.0016,-41.48,7.1614,11.1264,,0.001124000000000347,0.4607545984577907,0.45929919650180745,forward_fall
3.380075,0.0128,-0.2819,0.4851,0.0201,0.0284,-0.0016,-41.48,7.1614,11.1264,,0.009314999999999962,0.56120714535722,0.4731441419254985,forward_fall
3.39469,0.0128,-0.2819,0.4851,0.0201,0.0284,-0.0016,-41.4922,7.1248,11.0532,,0.014615000000000045,0.56120714535722,0.4855269935258137,forward_fall
3.433103,0.0128,-0.2819,0.4851,0.0201,0.0284,-0.0016,-41.4922,7.1248,11.0532,,0.03841299999999981,0.56120714535722,0.49459029758040085,forward_fall
3.435934,0.0128,-0.2819,0.4851,0.0201,0.0284,-0.0016,-41.4922,7.1248,11.0532,,0.002831000000000028,0.56120714535722,0.4991276887243202,forward_fall
3.438624,0.0128,-0.2819,0.4851,0.0201,0.0284,-0.0016,-41.4922,7.1248,11.0532,,0.002689999999999859,0.56120714535722,0.4986212176653466,forward_fall
3.440474,0.0128,-0.2819,0.4851,0.0013,-0.0276,-0.0044,-41.4922,7.1248,11.0532,,0.0018500000000001293,0.56120714535722,0.49319924407408877,forward_fall
3.452076,0.0031,-0.2636,0.2852,0.0013,-0.0276,-0.0044,-41.4922,7.1248,11.0532,,0.01160199999999989,0.3883730294446307,0.4835259591369214,forward_fall
3.45439,0.0031,-0.2636,0.2852,0.0013,-0.0276,-0.0044,-41.5288,7.0516,10.98,,0.0023140000000001493,0.3883730294446307,0.4706421757055971,forward_fall
3.498726,0.0031,-0.2636,0.2852,0.0013,-0.0276,-0.0044,-41.5288,7.0516,10.98,,0.04433599999999993,0.3883730294446307,0.45578302992545594,forward_fall
3.501411,0.0031,-0.2636,0.2852,0.0013,-0.0276,-0.0044,-41.5288,7.0516,10.98,,0.0026850000000000485,0.3883730294446307,0.4401995624893291,forward_fall
3.504178,0.0031,-0.2636,0.2852,0.0013,-0.0276,-0.0044,-41.5288,7.0516,10.98,,0.002766999999999964,0.3883730294446307,0.42500700003209585,forward_fall
3.506932,0.0031,-0.2636,0.2852,0.0119,-0.0258,-0.0049,-41.5288,7.0516,10.98,,0.002753999999999923,0.3883730294446307,0.41107470676392666,forward_fall
3.514072,0.0031,-0.2636,0.2852,0.0119,-0.0258,-0.0049,-41.541,7.0638,10.9434,,0.007140000000000146,0.3883730294446307,0.3989641824862678,non_fall
3.515921,-0.0239,-0.2233,0.3177,0.0119,-0.0258,-0.0049,-41.541,7.0638,10.9434,,0.0018489999999999895,0.3890596226801234,0.38891418204179623,non_fall
3.567473,-0.0239,-0.2233,0.3177,0.0119,-0.0258,-0.0049,-41.541,7.0638,10.9434,,0.05155200000000004,0.3890596226801234,0.3808666732430373,non_fall
3.571131,-0.0239,-0.2233,0.3177,0.0119,-0.0258,-0.0049,-41.541,7.0638,10.9434,,0.003657999999999717,0.3890596226801234,0.37452390120956436,non_fall
3.574246,-0.0239,-0.2233,0.3177,0.0119,-0.0258,-0.0049,-41.541,7.0638,10.9434,,0.003115000000000201,0.3890596226801234,0.3694250826150362,non_fall
3.576878,-0.0239,-0.2233,0.3177,0.0119,-0.0258,-0.0049,-41.541,7.0638,10.9434,,0.0026319999999997457,0.3890596226801234,0.3650309670074585,non_fall
3.57965,-0.0239,-0.2233,0.3177,0.0317,-0.0205,-0.0017,-41.541,7.0638,10.9434,,0.0027720000000002187,0.3890596226801234,0.36080541760223156,non_fall
3.582917,-0.0239,-0.2233,0.3177,0.0317,-0.0205,-0.0017,-41.5532,7.0394,10.9068,,0.003267000000000131,0.3890596226801234,0.35628505089775014,non_fall
3.586157,-0.0224,-0.2044,0.2713,0.0317,-0.0205,-0.0017,-41.5532,7.0394,10.9068,,0.0032399999999999096,0.3404185805739751,0.3511306333062132,non_fall
3.632792,-0.0224,-0.2044,0.2713,0.0317,-0.0205,-0.0017,-41.5532,7.0394,10.9068,,0.04663499999999976,0.3404185805739751,0.3451570724944043,non_fall
3.636525,-0.0224,-0.2044,0.2713,0.0317,-0.0205,-0.0017,-41.5532,7.0394,10.9068,,0.0037329999999999863,0.3404185805739751,0.338341888356313,non_fall
3.639213,-0.0224,-0.2044,0.2713,0.0317,-0.0205,-0.0017,-41.5532,7.0394,10.9068,,0.0026880000000000237,0.3404185805739751,0.33081427386940815,non_fall
3.641707,-0.0224,-0.2044,0.2713,0.0317,-0.0205,-0.0017,-41.602,7.076,10.736,,0.0024939999999999962,0.3404185805739751,0.32282795126995667,non_fall
3.64747,-0.0224,-0.2044,0.2713,-0.0011,0.0079,0.0004,-41.602,7.076,10.736,,0.005763000000000407,0.3404185805739751,0.31472146568489245,non_fall
3.653555,-0.0258,-0.1666,0.2129,-0.0011,0.0079,0.0004,-41.602,7.076,10.736,,0.006084999999999674,0.271565111897681,0.3068701521306123,non_fall
3.695771,-0.0258,-0.1666,0.2129,-0.0011,0.0079,0.0004,-41.602,7.1126,10.6628,,0.04221600000000025,0.271565111897681,0.29963511880733296,non_fall
3.700864,-0.0258,-0.1666,0.2129,-0.0011,0.0079,0.0004,-41.602,7.1126,10.6628,,0.005093000000000014,0.271565111897681,0.2933156887748666,non_fall
3.702918,-0.0258,-0.1666,0.2129,-0.0011,0.0079,0.0004,-41.602,7.1126,10.6628,,0.0020539999999997782,0.271565111897681,0.2881118036666606,non_fall
3.705427,-0.0258,-0.1666,0.2129,-0.0011,0.0079,0.0004,-41.602,7.1126,10.6628,,0.0025089999999998724,0.271565111897681,0.2841013483737302,non_fall
3.714472,-0.0258,-0.1666,0.2129,0.0233,0.0224,-0.0003,-41.602,7.1126,10.6628,,0.009045000000000414,0.271565111897681,0.28123465974038653,non_fall
3.734501,-0.0137,-0.1347,0.2536,0.0233,0.0224,-0.0003,-41.602,7.1126,10.6628,,0.02002899999999963,0.2874799819117846,0.2793455961528716,non_fall
3.753412,-0.0137,-0.1347,0.2536,0.0233,0.0224,-0.0003,-41.602,7.1614,10.6262,,0.018911000000000122,0.2874799819117846,0.2781761516874953,non_fall
3.766787,-0.0137,-0.1347,0.2536,0.0233,0.0224,-0.0003,-41.602,7.1614,10.6262,,0.013374999999999915,0.2874799819117846,0.27740998970715486,non_fall
3.770167,-0.0137,-0.1347,0.2536,0.0233,0.0224,-0.0003,-41.602,7.1614,10.6262,,0.0033799999999999386,0.2874799819117846,0.2767095851498057,non_fall
3.772355,-0.0137,-0.1347,0.2536,0.0233,0.0224,-0.0003,-41.602,7.1614,10.6262,,0.002188000000000301,0.2874799819117846,0.27575189958334545,non_fall
3.774726,-0.0137,-0.1347,0.2536,0.0233,0.0224,-0.0003,-41.602,7.1614,10.6262,,0.002370999999999679,0.2874799819117846,0.2742584508673779,non_fall
3.784713,-0.0137,-0.1347,0.2536,0.0138,0.0079,-0.0036,-41.602,7.1614,10.6262,,0.00998700000000019,0.2874799819117846,0.2720169787988782,non_fall
3.792896,0.0033,-0.1541,0.2032,0.0138,0.0079,-0.0036,-41.602,7.1614,10.6262,,0.00818299999999983,0.2550449764257277,0.2688934439079629,non_fall
3.812868,0.0033,-0.1541,0.2032,0.0138,0.0079,-0.0036,-41.602,7.1492,10.675,,0.0199720000000001,0.2550449764257277,0.264834671623737,non_fall
3.830821,0.0033,-0.1541,0.2032,0.0138,0.0079,-0.0036,-41.602,7.1492,10.675,,0.017952999999999886,0.2550449764257277,0.2598632670714382,non_fall
3.832677,0.0033,-0.1541,0.2032,0.0138,0.0079,-0.0036,-41.602,7.1492,10.675,,0.0018560000000000798,0.2550449764257277,0.2540670689050329,non_fall
3.83455,0.0033,-0.1541,0.2032,0.0138,0.0079,-0.0036,-41.602,7.1492,10.675,,0.0018730000000002356,0.2550449764257277,0.24758524621369773,non_fall
3.853055,0.0033,-0.1541,0.2032,-0.0021,-0.0051,0.0004,-41.602,7.1492,10.675,,0.01850499999999977,0.2550449764257277,0.24059254463024327,non_fall
3.86263,-0.0036,-0.1294,0.1699,-0.0021,-0.0051,0.0004,-41.602,7.1492,10.675,,0.00957499999999989,0.21359618442284964,0.23328275719361616,non_fall
3.872504,-0.0036,-0.1294,0.1699,-0.0021,-0.0051,0.0004,-41.5654,7.1004,10.8092,,0.009874000000000382,0.21359618442284964,0.22585254089249487,non_fall
3.898562,-0.0036,-0.1294,0.1699,-0.0021,-0.0051,0.0004,-41.5654,7.1004,10.8092,,0.026057999999999915,0.21359618442284964,0.21848697976780135,non_fall
3.900217,-0.0036,-0.1294,0.1699,-0.0021,-0.0051,0.0004,-41.5654,7.1004,10.8092,,0.001654999999999962,0.21359618442284964,0.2113482544080224,non_fall
3.901174,-0.0036,-0.1294,0.1699,-0.0021,-0.0051,0.0004,-41.5654,7.1004,10.8092,,0.0009570000000000967,0.21359618442284964,0.20456813846845806,non_fall
3.923619,-0.0036,-0.1294,0.1699,0.0077,-0.0064,-0.0011,-41.5654,7.1004,10.8092,,0.022444999999999826,0.21359618442284964,0.19824414571733684,non_fall
3.934126,-0.0192,-0.0999,0.1455,0.0077,-0.0064,-0.0011,-41.5654,7.1004,10.8092,,0.010507000000000044,0.17753563022672378,0.19243861327128745,non_fall
3.943988,-0.0192,-0.0999,0.1455,0.0077,-0.0064,-0.0011,-41.5288,7.1248,10.8458,,0.009862000000000037,0.17753563022672378,0.18718011965921486,non_fall
3.964407,-0.0192,-0.0999,0.1455,0.0077,-0.0064,-0.0011,-41.5288,7.1248,10.8458,,0.020418999999999965,0.17753563022672378,0.18246711501343094,non_fall
3.966165,-0.0192,-0.0999,0.1455,0.0077,-0.0064,-0.0011,-41.5288,7.1248,10.8458,,0.0017580000000001483,0.17753563022672378,0.17827388845034833,non_fall
3.967187,-0.0192,-0.0999,0.1455,0.0077,-0.0064,-0.0011,-41.5288,7.1248,10.8458,,0.0010219999999998564,0.17753563022672378,0.17455866582230445,non_fall
3.968122,-0.0192,-0.0999,0.1455,0.0077,-0.0064,-0.0011,-41.5288,7.1248,10.8458,,0.0009350000000001302,0.17753563022672378,0.17127292586949053,non_fall
3.991732,-0.0192,-0.0999,0.1455,0.0115,0.0056,-0.0004,-41.5288,7.1248,10.8458,,0.023609999999999687,0.17753563022672378,0.16837042998248683,non_fall
4.006474,-0.0192,-0.0999,0.1455,0.0115,0.0056,-0.0004,-41.5288,7.1126,10.7848,,0.014742000000000033,0.17753563022672378,0.165814308542346,non_fall
4.007832,-0.0242,-0.0937,0.1254,0.0115,0.0056,-0.0004,-41.5288,7.1126,10.7848,,0.0013579999999997483,0.15839977904024993,0.1635808975949718,non_fall
4.032078,-0.0242,-0.0937,0.1254,0.0115,0.0056,-0.0004,-41.5288,7.1126,10.7848,,0.024246000000000656,0.15839977904024993,0.16165975800777935,non_fall
4.033557,-0.0242,-0.0937,0.1254,0.0115,0.0056,-0.0004,-41.5288,7.1126,10.7848,,0.001478999999999786,0.15839977904024993,0.16005016755486853,non_fall
4.034393,-0.0242,-0.0937,0.1254,0.0115,0.0056,-0.0004,-41.5288,7.1126,10.7848,,0.0008359999999996148,0.15839977904024993,0.15875500674570486,non_fall
4.065053,-0.0242,-0.0937,0.1254,0.0115,0.0056,-0.0004,-41.48,7.0882,10.7848,,0.03066000000000013,0.15839977904024993,0.15777316565981758,non_fall
4.067251,-0.0242,-0.0937,0.1254,0.0124,0.0108,0.0,-41.48,7.0882,10.7848,,0.0021979999999999222,0.15839977904024993,0.15709148452411922,non_fall
4.08139,-0.0063,-0.0854,0.1309,0.0124,0.0108,0.0,-41.48,7.0882,10.7848,,0.014139000000000124,0.1564214179708137,0.15667705653711786,non_fall
4.098193,-0.0063,-0.0854,0.1309,0.0124,0.0108,0.0,-41.48,7.0882,10.7848,,0.016803000000000345,0.1564214179708137,0.15647062794940225,non_fall
4.099547,-0.0063,-0.0854,0.1309,0.0124,0.0108,0.0,-41.48,7.0882,10.7848,,0.0013540000000000774,0.1564214179708137,0.1563818372006604,non_fall
4.100082,-0.0063,-0.0854,0.1309,0.0124,0.0108,0.0,-41.48,7.0882,10.7848,,0.000534999999999286,0.1564214179708137,0.15628708204098868,non_fall
4.123767,-0.0063,-0.0854,0.1309,0.0124,0.0108,0.0,-41.4678,7.0028,10.797,,0.0236850000000004,0.1564214179708137,0.15603084139121418,non_fall
4.133311,-0.0063,-0.0854,0.1309,0.0145,0.0096,-0.0007,-41.4678,7.0028,10.797,,0.009543999999999997,0.1564214179708137,0.15543129733431338,non_fall
4.142761,0.0003,-0.0757,0.1142,0.0145,0.0096,-0.0007,-41.4678,7.0028,10.797,,0.00945000000000018,0.1370117513208265,0.15429110986416641,non_fall
4.1644,0.0003,-0.0757,0.1142,0.0145,0.0096,-0.0007,-41.4678,7.0028,10.797,,0.02163899999999952,0.1370117513208265,0.1524141446147192,non_fall
4.168083,0.0003,-0.0757,0.1142,0.0145,0.0096,-0.0007,-41.4678,7.0028,10.797,,0.003683000000000547,0.1370117513208265,0.1496286606196886,non_fall
4.170751,0.0003,-0.0757,0.1142,0.0145,0.0096,-0.0007,-41.4678,7.0028,10.797,,0.0026679999999998927,0.1370117513208265,0.14581668165643638,non_fall
4.172623,0.0003,-0.0757,0.1142,0.0145,0.0096,-0.0007,-41.4068,6.9174,10.919,,0.0018719999999996517,0.1370117513208265,0.14094792649209742,non_fall
4.181604,0.0003,-0.0757,0.1142,0.0145,0.0096,-0.0007,-41.4068,6.9174,10.919,,0.00898100000000035,0.1370117513208265,0.13511501177732724,non_fall
4.203307,0.0003,-0.0757,0.1142,0.0145,0.0096,-0.0007,-41.3946,6.8198,11.041,,0.021702999999999584,0.1370117513208265,0.12856508874499387,non_fall
4.206859,0.0003,-0.0757,0.1142,0.0083,-0.002,-0.0003,-41.3946,6.8198,11.041,,0.0035519999999999996,0.1370117513208265,0.12172197961712633,non_fall
4.212468,-0.0033,-0.0684,0.129,0.0083,-0.002,-0.0003,-41.3946,6.8198,11.041,,0.005609000000000641,0.1460494779175879,0.11519245474895165,non_fall
4.231572,-0.0033,-0.0684,0.129,0.0083,-0.002,-0.0003,-41.3946,6.8198,11.041,,0.019103999999999566,0.1460494779175879,0.10975069827091569,non_fall
4.233172,-0.0033,-0.0684,0.129,0.0083,-0.002,-0.0003,-41.3946,6.8198,11.041,,0.0015999999999998238,0.1460494779175879,0.10629642604077964,non_fall
4.234539,-0.0033,-0.0684,0.129,0.0083,-0.002,-0.0003,-41.3946,6.8198,11.041,,0.0013670000000001181,0.1460494779175879,0.10578470215337069,non_fall
4.252164,-0.0033,-0.0684,0.129,0.0083,-0.002,-0.0003,-41.3214,6.7588,11.102,,0.01762499999999978,0.1460494779175879,0.10912925233513927,non_fall
4.271633,-0.0033,-0.0684,0.129,-0.0051,-0.0003,-0.0001,-41.3214,6.7588,11.102,,0.01946899999999996,0.1460494779175879,0.11708575343645011,non_fall
4.294294,-0.0275,-0.0623,0.0579,-0.0051,-0.0003,-0.0001,-41.3214,6.7588,11.102,,0.022661000000000264,0.08938652023655469,0.1301267277234478,non_fall
4.302182,-0.0275,-0.0623,0.0579,-0.0051,-0.0003,-0.0001,-41.3214,6.7588,11.102,,0.00788800000000034,0.08938652023655469,0.14832455802543046,non_fall
4.304724,-0.0275,-0.0623,0.0579,-0.0051,-0.0003,-0.0001,-41.3214,6.7588,11.102,,0.0025420000000000442,0.08938652023655469,0.1712625773639819,non_fall
4.306532,-0.0275,-0.0623,0.0579,-0.0051,-0.0003,-0.0001,-41.3214,6.7588,11.102,,0.0018079999999995877,0.08938652023655469,0.19799467526452097,non_fall
4.307715,-0.0275,-0.0623,0.0579,-0.0051,-0.0003,-0.0001,-41.358,6.832,10.9556,,0.0011830000000001561,0.08938652023655469,0.22707029656882555,non_fall
4.343136,-0.0275,-0.0623,0.0579,0.1993,0.0945,0.0029,-41.358,6.832,10.9556,,0.03542100000000037,0.08938652023655469,0.25663386202156874,non_fall
4.353326,-0.0806,0.0388,-0.3967,0.1993,0.0945,0.0029,-41.358,6.832,10.9556,,0.0101899999999997,0.40666041115407336,0.28459596758805183,non_fall
4.354792,-0.0806,0.0388,-0.3967,0.1993,0.0945,0.0029,-41.3946,6.8686,10.858,,0.0014659999999997453,0.40666041115407336,0.3088596099806482,non_fall
4.369543,-0.0806,0.0388,-0.3967,0.1993,0.0945,0.0029,-41.4312,6.8686,10.797,,0.014751000000000403,0.40666041115407336,0.327571597727077,non_fall
4.384958,-0.0806,0.0388,-0.3967,0.1993,0.0945,0.0029,-41.4312,6.8686,10.797,,0.015414999999999957,0.40666041115407336,0.3393621572176771,non_fall
4.38604,-0.0806,0.0388,-0.3967,0.1993,0.0945,0.0029,-41.4312,6.8686,10.797,,0.0010820000000002494,0.40666041115407336,0.3435372207671353,non_fall
4.386615,-0.0806,0.0388,-0.3967,0.1993,0.0945,0.0029,-41.4312,6.8686,10.797,,0.0005749999999995481,0.40666041115407336,0.34019601747892536,non_fall
4.387153,-0.0806,0.0388,-0.3967,0.1993,0.0945,0.0029,-41.4312,6.8686,10.797,,0.0005379999999997054,0.40666041115407336,0.33025717488710526,non_fall
4.387682,-0.0806,0.0388,-0.3967,0.1993,0.0945,0.0029,-41.4312,6.8686,10.797,,0.0005290000000002237,0.40666041115407336,0.315386952740758,non_fall
4.412948,-0.0806,0.0388,-0.3967,0.3526,0.0467,-0.0004,-41.4312,6.8686,10.797,,0.025266000000000233,0.40666041115407336,0.2978332116800291,non_fall
4.422766,-0.0806,0.0388,-0.3967,0.3526,0.0467,-0.0004,-41.4678,6.9296,10.6506,,0.009818000000000104,0.40666041115407336,0.2801790484999894,non_fall
4.424596,-0.0489,0.0373,-0.061,0.3526,0.0467,-0.0004,-41.4678,6.9296,10.6506,,0.0018299999999999983,0.08662274528090183,0.2650413638790016,non_fall
4.453055,-0.0489,0.0373,-0.061,0.3526,0.0467,-0.0004,-41.4678,6.9296,10.6506,,0.02845899999999979,0.08662274528090183,0.254751347475012,non_fall
4.454895,-0.0489,0.0373,-0.061,0.3526,0.0467,-0.0004,-41.4678,6.9296,10.6506,,0.0018399999999996197,0.08662274528090183,0.251062757174385,non_fall
4.45568,-0.0489,0.0373,-0.061,0.3526,0.0467,-0.0004,-41.4678,6.9296,10.6506,,0.0007850000000004798,0.08662274528090183,0.25493497707724616,non_fall
4.483212,-0.0489,0.0373,-0.061,0.3526,0.0467,-0.0004,-41.419,6.9784,10.614,,0.02753199999999989,0.08662274528090183,0.26642836083740684,non_fall
4.485167,-0.0489,0.0373,-0.061,0.138,0.081,-0.0119,-41.419,6.9784,10.614,,0.001954999999999707,0.08662274528090183,0.2847311770155827,non_fall
4.494278,-0.0793,-0.0023,0.4833,0.138,0.081,-0.0119,-41.419,6.9784,10.614,,0.009111000000000757,0.48976797567827973,0.3083149320297023,non_fall
4.520857,-0.0793,-0.0023,0.4833,0.138,0.081,-0.0119,-41.419,6.9784,10.614,,0.026578999999999908,0.48976797567827973,0.335192114296622,non_fall
4.523637,-0.0793,-0.0023,0.4833,0.138,0.081,-0.0119,-41.419,6.9784,10.614,,0.0027799999999995606,0.48976797567827973,0.3632322271257565,non_fall
4.524949,-0.0793,-0.0023,0.4833,0.138,0.081,-0.0119,-41.419,6.9784,10.614,,0.001312000000000424,0.48976797567827973,0.39048392255530556,non_fall
4.526098,-0.0793,-0.0023,0.4833,0.138,0.081,-0.0119,-41.419,6.9784,10.614,,0.0011489999999998446,0.48976797567827973,0.4154555549177657,non_fall
4.540987,-0.0793,-0.0023,0.4833,0.138,0.081,-0.0119,-41.4434,7.1126,10.3578,,0.014889000000000152,0.48976797567827973,0.43731996546515295,non_fall
4.551422,-0.0793,-0.0023,0.4833,0.1029,-0.012,-0.0145,-41.4434,7.1126,10.3578,,0.010434999999999306,0.48976797567827973,0.45602534234303005,non_fall
4.564632,0.0193,0.1854,-0.4537,0.1029,-0.012,-0.0145,-41.4434,7.1126,10.3578,,0.013209999999999944,0.4904990723742503,0.4723081551050242,non_fall
4.587931,0.0193,0.1854,-0.4537,0.1029,-0.012,-0.0145,-41.4434,7.1126,10.3578,,0.023299000000000625,0.4904990723742503,0.4876151124800571,non_fall
4.589752,0.0193,0.1854,-0.4537,0.1029,-0.012,-0.0145,-41.4434,7.1126,10.3578,,0.0018209999999996285,0.4904990723742503,0.5039489568971118,non_fall
4.590811,0.0193,0.1854,-0.4537,0.1029,-0.012,-0.0145,-41.4434,7.1126,10.3578,,0.0010590000000005872,0.4904990723742503,0.5236580418783713,non_fall
4.600317,0.0193,0.1854,-0.4537,0.1029,-0.012,-0.0145,-41.4068,7.2102,10.2236,,0.009506000000000014,0.4904990723742503,0.5491922915002152,non_fall
4.622443,0.0193,0.1854,-0.4537,0.1519,-0.0205,-0.0257,-41.4068,7.2102,10.2236,,0.022125999999999202,0.4904990723742503,0.5828483715622175,non_fall
4.630711,0.0457,0.1365,-0.7243,0.1519,-0.0205,-0.0257,-41.4068,7.2102,10.2236,,0.008268000000000164,0.7384654561995436,0.626524643023912,non_fall
4.654807,0.0457,0.1365,-0.7243,0.1519,-0.0205,-0.0257,-41.4068,7.2102,10.2236,,0.024096000000000117,0.7384654561995436,0.6815021809438607,non_fall
4.656761,0.0457,0.1365,-0.7243,0.1519,-0.0205,-0.0257,-41.4068,7.2102,10.2236,,0.0019540000000004554,0.7384654561995436,0.748263767436251,non_fall
4.657717,0.0457,0.1365,-0.7243,0.1519,-0.0205,-0.0257,-41.4068,7.2102,10.2236,,0.0009559999999995128,0.7384654561995436,0.8263610559453308,non_fall
4.661014,0.0457,0.1365,-0.7243,0.1519,-0.0205,-0.0257,-41.4678,7.3566,10.0772,,0.0032969999999998834,0.7384654561995436,0.9143416444298739,non_fall
4.692007,0.0457,0.1365,-0.7243,0.0794,0.0478,-0.0625,-41.4678,7.3566,10.0772,,0.030993000000000492,0.7384654561995436,1.0097491695119885,non_fall
4.700217,0.23,0.353,-1.2921,0.0794,0.0478,-0.0625,-41.4678,7.3566,10.0772,,0.00821000000000005,1.3590553373575338,1.109205694331142,non_fall
4.720629,0.23,0.353,-1.2921,0.0794,0.0478,-0.0625,-41.48,7.3932,10.0162,,0.02041199999999943,1.3590553373575338,1.2085747987716726,non_fall
4.722597,0.23,0.353,-1.2921,0.0794,0.0478,-0.0625,-41.48,7.3932,10.0162,,0.001968000000000636,1.3590553373575338,1.3031905455078194,non_fall
4.723445,0.23,0.353,-1.2921,0.0794,0.0478,-0.0625,-41.48,7.3932,10.0162,,0.0008479999999995158,1.3590553373575338,1.3881304562735786,non_fall
4.724629,0.23,0.353,-1.2921,0.0794,0.0478,-0.0625,-41.48,7.3932,10.0162,,0.001184000000000296,1.3590553373575338,1.4585141355876474,non_fall
4.725365,0.23,0.353,-1.2921,0.0794,0.0478,-0.0625,-41.48,7.3932,10.0162,,0.0007359999999998479,1.3590553373575338,1.5098184929627632,non_fall
4.752105,0.23,0.353,-1.2921,0.0794,0.0478,-0.0625,-41.48,7.3932,10.0162,,0.026740000000000208,1.3590553373575338,1.538206716773487,non_fall
4.760789,0.23,0.353,-1.2921,-0.0909,-0.1735,-0.2059,-41.48,7.3932,10.0162,,0.008683999999999692,1.3590553373575338,1.5408657295082562,non_fall
4.770577,0.2606,0.1998,-1.6255,-0.0909,-0.1735,-0.2059,-41.48,7.3932,10.0162,,0.009788000000000352,1.6583373149030929,1.5163355771529234,non_fall
4.779493,0.2606,0.1998,-1.6255,-0.0909,-0.1735,-0.2059,-41.5288,7.4176,10.0284,,0.008916000000000146,1.6583373149030929,1.4647975019420518,non_fall
4.786149,0.2606,0.1998,-1.6255,-0.0909,-0.1735,-0.2059,-41.5288,7.4176,10.0284,,0.006655999999999551,1.6583373149030929,1.3882717428450335,non_fall
4.787687,0.2606,0.1998,-1.6255,-0.0909,-0.1735,-0.2059,-41.5288,7.4176,10.0284,,0.0015380000000000393,1.6583373149030929,1.2906695084888802,non_fall
4.831068,0.2606,0.1998,-1.6255,-0.3578,-0.7081,-0.2663,-41.5288,7.4176,10.0284,,0.043381000000000114,1.6583373149030929,1.177652025578188,non_fall
4.840249,0.2606,0.1998,-1.6255,-0.3578,-0.7081,-0.2663,-41.5532,7.381,10.248,,0.009180999999999884,1.6583373149030929,1.0562743389835019,non_fall
4.841994,-0.2166,0.1961,0.0749,-0.3578,-0.7081,-0.2663,-41.5532,7.381,10.248,,0.0017449999999996635,0.30163020405788277,0.9344305179537679,non_fall
4.853598,-0.2166,0.1961,0.0749,-0.3578,-0.7081,-0.2663,-41.5532,7.381,10.248,,0.01160400000000017,0.30163020405788277,0.8201642777270355,non_fall
4.855405,-0.2166,0.1961,0.0749,-0.3578,-0.7081,-0.2663,-41.5532,7.381,10.248,,0.0018070000000003361,0.30163020405788277,0.7209505548078443,non_fall
4.856522,-0.2166,0.1961,0.0749,-0.3578,-0.7081,-0.2663,-41.5532,7.381,10.248,,0.0011169999999998126,0.30163020405788277,0.6430691282239874,non_fall
4.900665,-0.2166,0.1961,0.0749,-0.3578,-0.7081,-0.2663,-41.5288,7.2102,10.8824,,0.04414300000000004,0.30163020405788277,0.5911704758298647,non_fall
4.904283,-0.2166,0.1961,0.0749,-0.3876,-0.6043,-0.1377,-41.5288,7.2102,10.8824,,0.003618000000000343,0.30163020405788277,0.5680862235477411,non_fall
4.909447,0.2986,-0.3697,0.831,-0.3876,-0.6043,-0.1377,-41.5288,7.2102,10.8824,,0.005163999999999724,0.9572883839261813,0.5748812308533163,non_fall
4.920153,0.2986,-0.3697,0.831,-0.3876,-0.6043,-0.1377,-41.5288,7.2102,10.8824,,0.010705999999999882,0.9572883839261813,0.6110963343744663,non_fall
4.921941,0.2986,-0.3697,0.831,-0.3876,-0.6043,-0.1377,-41.5288,7.2102,10.8824,,0.0017880000000003449,0.9572883839261813,0.6750991349494576,non_fall
4.923123,0.2986,-0.3697,0.831,-0.3876,-0.6043,-0.1377,-41.5288,7.2102,10.8824,,0.0011820000000000164,0.9572883839261813,0.7644520422665103,non_fall
4.924159,0.2986,-0.3697,0.831,-0.3876,-0.6043,-0.1377,-41.5288,7.2102,10.8824,,0.0010360000000000369,0.9572883839261813,0.8762231440455227,non_fall
4.954147,0.2986,-0.3697,0.831,-0.3876,-0.6043,-0.1377,-41.48,6.9662,11.6266,,0.02998799999999946,0.9572883839261813,1.007197245976893,non_fall
4.969454,0.2986,-0.3697,0.831,-0.157,0.012,-0.0204,-41.48,6.9662,11.6266,,0.01530699999999996,0.9572883839261813,1.1539776316932286,non_fall
4.981587,-0.2053,-0.4608,1.5225,-0.157,0.012,-0.0204,-41.48,6.9662,11.6266,,0.012133000000000393,1.6038986813386935,1.3129932863315128,non_fall
4.986479,-0.2053,-0.4608,1.5225,-0.157,0.012,-0.0204,-41.48,6.9662,11.6266,,0.004891999999999896,1.6038986813386935,1.4804383421755472,non_fall
4.987896,-0.2053,-0.4608,1.5225,-0.157,0.012,-0.0204,-41.48,6.9662,11.6266,,0.0014170000000000016,1.6038986813386935,1.6521744512355918,non_fall
4.988854,-0.2053,-0.4608,1.5225,-0.157,0.012,-0.0204,-41.48,6.9662,11.6266,,0.0009579999999997924,1.6038986813386935,1.8236304887077817,non_fall
5.020486,-0.2053,-0.4608,1.5225,-0.157,0.012,-0.0204,-41.419,6.6368,12.505,,0.031632000000000104,1.6038986813386935,1.9897407600639498,non_fall
5.039112,-0.2053,-0.4608,1.5225,-0.0807,0.1112,0.0711,-41.419,6.6368,12.505,,0.018626000000000253,1.6038986813386935,2.1449665561507305,non_fall
5.050227,-0.6515,-0.4017,2.4434,-0.0807,0.1112,0.0711,-41.419,6.6368,12.505,,0.01111499999999932,2.5604723587650775,2.2834364198045614,non_fall
5.058147,-0.6515,-0.4017,2.4434,-0.0807,0.1112,0.0711,-41.419,6.6368,12.505,,0.007920000000000371,2.5604723587650775,2.399214502858992,non_fall
5.060636,-0.6515,-0.4017,2.4434,-0.0807,0.1112,0.0711,-41.419,6.6368,12.505,,0.0024889999999997414,2.5604723587650775,2.4866728195870698,non_fall
5.062572,-0.6515,-0.4017,2.4434,-0.0807,0.1112,0.0711,-41.419,6.6368,12.505,,0.001936000000000604,2.5604723587650775,2.54091811530885,non_fall
5.078903,-0.6515,-0.4017,2.4434,-0.0807,0.1112,0.0711,-41.3946,6.4416,13.1516,,0.016331000000000095,2.5604723587650775,2.558217272133519,non_fall
5.108649,-0.6515,-0.4017,2.4434,0.0802,0.0394,0.0483,-41.3946,6.4416,13.1516,,0.029745999999999384,2.5604723587650775,2.536372417706729,non_fall
5.124154,-0.6515,-0.4017,2.4434,0.0802,0.0394,0.0483,-41.3946,6.4416,13.1516,,0.015505000000000102,2.5604723587650775,2.475007254989187,non_fall
5.124995,-0.6515,-0.4017,2.4434,0.0802,0.0394,0.0483,-41.3946,6.4416,13.1516,,0.0008410000000003137,2.5604723587650775,2.37573353764528,non_fall
5.12553,-0.6515,-0.4017,2.4434,0.0802,0.0394,0.0483,-41.3946,6.4416,13.1516,,0.0005350000000001742,2.5604723587650775,2.242172394504322,non_fall
5.126205,-0.6515,-0.4017,2.4434,0.0802,0.0394,0.0483,-41.3946,6.4416,13.1516,,0.000674999999999315,2.5604723587650775,2.0798141301073256,non_fall
5.126834,0.07,-0.3063,1.3297,0.0802,0.0394,0.0483,-41.3946,6.4416,13.1516,,0.0006289999999999907,1.3663168666162326,1.8957168683018963,non_fall
5.140105,0.07,-0.3063,1.3297,0.0802,0.0394,0.0483,-41.2848,6.2464,13.847,,0.013271000000000477,1.3663168666162326,1.698069431338252,non_fall
5.180224,0.07,-0.3063,1.3297,0.1406,0.0915,0.0466,-41.2848,6.2464,13.847,,0.040118999999999794,1.3663168666162326,1.4956685277930066,non_fall
5.187437,0.07,-0.3063,1.3297,0.1406,0.0915,0.0466,-41.2848,6.2464,13.847,,0.007213000000000136,1.3663168666162326,1.2973699955245201,non_fall
5.188401,0.07,-0.3063,1.3297,0.1406,0.0915,0.0466,-41.2848,6.2464,13.847,,0.0009639999999997428,1.3663168666162326,1.111562172462131,non_fall
5.188948,0.07,-0.3063,1.3297,0.1406,0.0915,0.0466,-41.2848,6.2464,13.847,,0.0005470000000000752,1.3663168666162326,0.9456875536012014,non_fall
5.189527,0.022,-0.3148,-0.28,0.1406,0.0915,0.0466,-41.2848,6.2464,13.847,,0.0005790000000001072,0.42188036218814456,0.8058254131372439,non_fall
5.198451,0.022,-0.3148,-0.28,0.1406,0.0915,0.0466,-41.175,6.0512,14.6034,,0.008924000000000376,0.42188036218814456,0.6963520821768887,non_fall
5.24982,0.022,-0.3148,-0.28,0.118,0.1435,0.068,-41.175,6.0512,14.6034,,0.05136899999999933,0.42188036218814456,0.6197095965834927,non_fall
5.253677,0.022,-0.3148,-0.28,0.118,0.1435,0.068,-41.175,6.0512,14.6034,,0.0038569999999999993,0.42188036218814456,0.5763208302488761,non_fall
5.255072,0.022,-0.3148,-0.28,0.118,0.1435,0.068,-41.175,6.0512,14.6034,,0.0013950000000004792,0.42188036218814456,0.5646792216903529,non_fall
5.257177,0.022,-0.3148,-0.28,0.118,0.1435,0.068,-41.175,6.0512,14.6034,,0.0021050000000002456,0.42188036218814456,0.5816170700517236,non_fall
5.258592,0.022,-0.3148,-0.28,0.118,0.1435,0.068,-41.114,6.0146,15.1402,,0.001414999999999722,0.42188036218814456,0.6227283974237157,non_fall
5.260812,-0.4839,0.0477,-1.0099,0.118,0.1435,0.068,-41.114,6.0146,15.1402,,0.0022199999999994446,1.120862395657915,0.682896951374338,non_fall
5.318626,-0.4839,0.0477,-1.0099,0.118,0.1435,0.068,-41.0774,6.0634,15.433,,0.057814000000000476,1.120862395657915,0.7568591541594105,non_fall
5.321519,-0.4839,0.0477,-1.0099,0.2606,-0.2238,-0.0684,-41.0774,6.0634,15.433,,0.0028930000000002565,1.120862395657915,0.8397200806800202,non_fall
5.323699,-0.4839,0.0477,-1.0099,0.2606,-0.2238,-0.0684,-41.0774,6.0634,15.433,,0.0021800000000000708,1.120862395657915,0.9273453833875311,non_fall
5.325092,-0.4839,0.0477,-1.0099,0.2606,-0.2238,-0.0684,-41.0774,6.0634,15.433,,0.0013929999999993115,1.120862395657915,1.0165762224635566,non_fall
5.326761,-0.4839,0.0477,-1.0099,0.2606,-0.2238,-0.0684,-41.0774,6.0634,15.433,,0.0016690000000005867,1.120862395657915,1.105250275986694,non_fall
5.328899,-0.4839,0.0477,-1.0099,0.2606,-0.2238,-0.0684,-41.0774,6.0634,15.433,,0.002137999999999529,1.120862395657915,1.1920475870006948,non_fall
5.330771,-0.9552,-0.2541,-0.7708,0.2606,-0.2238,-0.0684,-41.0774,6.0634,15.433,,0.00187200000000054,1.2534378684242788,1.2762068722261453,non_fall
5.380423,-0.9552,-0.2541,-0.7708,0.2606,-0.2238,-0.0684,-41.0774,6.2464,15.5672,,0.04965200000000003,1.2534378684242788,1.3571734126619337,non_fall
5.388254,-0.9552,-0.2541,-0.7708,0.368,-0.5851,-0.0268,-41.0774,6.2464,15.5672,,0.007830999999999477,1.2534378684242788,1.4342448180553289,non_fall
5.39112,-0.9552,-0.2541,-0.7708,0.368,-0.5851,-0.0268,-41.0774,6.2464,15.5672,,0.002866000000000035,1.2534378684242788,1.5062780535073508,non_fall
5.392647,-0.9552,-0.2541,-0.7708,0.368,-0.5851,-0.0268,-41.0774,6.2464,15.5672,,0.0015270000000002781,1.2534378684242788,1.571511511345086,non_fall
5.394457,-0.9552,-0.2541,-0.7708,0.368,-0.5851,-0.0268,-41.0774,6.2464,15.5672,,0.0018099999999998673,1.2534378684242788,1.6275390468374336,non_fall
5.399289,1.5192,0.8584,-0.7225,0.368,-0.5851,-0.0268,-41.0774,6.2464,15.5672,,0.004831999999999503,1.888604100916865,1.6714476760465928,non_fall
5.439631,1.5192,0.8584,-0.7225,0.368,-0.5851,-0.0268,-41.0164,6.5392,15.6282,,0.040342000000000766,1.888604100916865,1.7000988477626506,non_fall
5.455665,1.5192,0.8584,-0.7225,0.368,-0.5851,-0.0268,-41.0164,6.5392,15.6282,,0.016033999999999438,1.888604100916865,1.7105024242817517,non_fall
5.458172,1.5192,0.8584,-0.7225,0.368,-0.5851,-0.0268,-41.0164,6.5392,15.6282,,0.002507000000000481,1.888604100916865,1.7002138935492368,non_fall
5.459851,1.5192,0.8584,-0.7225,0.368,-0.5851,-0.0268,-41.0164,6.5392,15.6282,,0.00167899999999932,1.888604100916865,1.6676855640530617,non_fall
5.46281,1.5192,0.8584,-0.7225,0.4719,0.2084,0.1037,-41.0164,6.5392,15.6282,,0.0029590000000006,1.888604100916865,1.6125187774599075,non_fall
5.476234,1.08,0.5107,0.3437,0.4719,0.2084,0.1037,-41.0164,6.5392,15.6282,,0.013423999999999658,1.2431187312561902,1.5355888104890432,non_fall
5.497312,1.08,0.5107,0.3437,0.4719,0.2084,0.1037,-40.9676,6.9052,15.6038,,0.021078000000000152,1.2431187312561902,1.439040394714573,non_fall
5.521736,1.08,0.5107,0.3437,0.4719,0.2084,0.1037,-40.9676,6.9052,15.6038,,0.02442399999999978,1.2431187312561902,1.3261730396400186,non_fall
5.52327,1.08,0.5107,0.3437,0.4719,0.2084,0.1037,-40.9676,6.9052,15.6038,,0.0015340000000003684,1.2431187312561902,1.2012442683384785,non_fall
5.523833,1.08,0.5107,0.3437,0.4719,0.2084,0.1037,-40.9676,6.9052,15.6038,,0.0005629999999996471,1.2431187312561902,1.0692133708943246,non_fall
5.524352,1.08,0.5107,0.3437,0.4719,0.2084,0.1037,-40.9676,6.9052,15.6038,,0.0005190000000006023,1.2431187312561902,0.9354359825875135,non_fall
5.52672,1.08,0.5107,0.3437,0.5088,0.6979,0.2092,-40.9676,6.9052,15.6038,,0.0023679999999997037,1.2431187312561902,0.8053129028166156,non_fall
5.537028,-0.1155,0.1949,-0.0028,0.5088,0.6979,0.2092,-40.9676,6.9052,15.6038,,0.010308000000000206,0.22657029814165847,0.6839032944261412,non_fall
5.557441,-0.1155,0.1949,-0.0028,0.5088,0.6979,0.2092,-40.9676,7.3688,15.5184,,0.02041299999999957,0.22657029814165847,0.5755322555412008,non_fall
5.587749,-0.1155,0.1949,-0.0028,0.5088,0.6979,0.2092,-40.9676,7.3688,15.5184,,0.03030799999999978,0.22657029814165847,0.48344506834863366,non_fall
5.589591,-0.1155,0.1949,-0.0028,0.5088,0.6979,0.2092,-40.9676,7.3688,15.5184,,0.0018420000000007875,0.22657029814165847,0.40956895376567104,non_fall
5.590773,-0.1155,0.1949,-0.0028,0.5088,0.6979,0.2092,-40.9676,7.3688,15.5184,,0.0011820000000000164,0.22657029814165847,0.3544288738504798,non_fall
5.598124,-0.1155,0.1949,-0.0028,0.5704,0.8863,0.318,-40.9676,7.3688,15.5184,,0.007350999999999885,0.22657029814165847,0.31723301140202254,non_fall
5.607284,-0.3666,0.2617,-0.0977,0.5704,0.8863,0.318,-40.9676,7.3688,15.5184,,0.009159999999999613,0.4608988392261365,0.29610979446077673,non_fall
5.617098,-0.3666,0.2617,-0.0977,0.5704,0.8863,0.318,-41.0286,7.8812,15.1768,,0.009814000000000433,0.4608988392261365,0.28845150743372155,non_fall
5.655738,-0.3666,0.2617,-0.0977,0.5704,0.8863,0.318,-41.0286,7.8812,15.1768,,0.03864000000000001,0.4608988392261365,0.2913037029012725,non_fall
5.658432,-0.3666,0.2617,-0.0977,0.5704,0.8863,0.318,-41.0286,7.8812,15.1768,,0.002693999999999974,0.4608988392261365,0.3017366006120908,non_fall
5.660266,-0.3666,0.2617,-0.0977,0.5704,0.8863,0.318,-41.0286,7.8812,15.1768,,0.0018339999999996692,0.4608988392261365,0.31714407248641097,non_fall
5.668403,-0.3666,0.2617,-0.0977,0.5997,0.897,0.3674,-41.0286,7.8812,15.1768,,0.008136999999999617,0.4608988392261365,0.3354339854666525,non_fall
5.678657,-0.3666,0.2617,-0.0977,0.5997,0.897,0.3674,-41.1384,8.6132,14.4204,,0.010254000000000651,0.4608988392261365,0.35509547948314113,non_fall
5.681813,0.0607,0.1289,-0.2563,0.5997,0.897,0.3674,-41.1384,8.6132,14.4204,,0.0031559999999997146,0.2932394755144675,0.375150388773446,non_fall
5.721152,0.0607,0.1289,-0.2563,0.5997,0.897,0.3674,-41.1384,8.6132,14.4204,,0.03933900000000001,0.2932394755144675,0.39501513900189766,non_fall
5.72399,0.0607,0.1289,-0.2563,0.5997,0.897,0.3674,-41.1384,8.6132,14.4204,,0.002837999999999674,0.2932394755144675,0.41431359592293215,non_fall
5.725782,0.0607,0.1289,-0.2563,0.5997,0.897,0.3674,-41.1384,8.6132,14.4204,,0.0017920000000000158,0.2932394755144675,0.432687635905106,non_fall
5.72774,0.0607,0.1289,-0.2563,0.5997,0.897,0.3674,-41.1384,8.6132,14.4204,,0.0019580000000001263,0.2932394755144675,0.44964924410155893,non_fall
5.73687,0.0607,0.1289,-0.2563,0.5997,0.897,0.3674,-41.1628,9.394,13.4688,,0.00912999999999986,0.2932394755144675,0.46450702122487175,non_fall
5.740288,0.0607,0.1289,-0.2563,0.492,0.8401,0.2257,-41.1628,9.394,13.4688,,0.003417999999999921,0.2932394755144675,0.47638377267548243,non_fall
5.748252,-0.5694,0.2649,-0.1186,0.492,0.8401,0.2257,-41.1628,9.394,13.4688,,0.007964000000000304,0.6391043185584026,0.4843225604300956,non_fall
5.788896,-0.5694,0.2649,-0.1186,0.492,0.8401,0.2257,-41.1628,9.394,13.4688,,0.040644000000000347,0.6391043185584026,0.4874584358267793,non_fall
5.792464,-0.5694,0.2649,-0.1186,0.492,0.8401,0.2257,-41.1628,9.394,13.4688,,0.0035679999999995715,0.6391043185584026,0.48521628788653376,non_fall
5.794322,-0.5694,0.2649,-0.1186,0.492,0.8401,0.2257,-41.1628,9.394,13.4688,,0.0018580000000003594,0.6391043185584026,0.47748763621459345,non_fall
5.796766,-0.5694,0.2649,-0.1186,0.492,0.8401,0.2257,-41.236,10.2724,12.2488,,0.0024439999999996687,0.6391043185584026,0.4647439983379314,non_fall
5.806475,-0.5694,0.2649,-0.1186,0.4597,0.47,0.1582,-41.236,10.2724,12.2488,,0.009708999999999968,0.6391043185584026,0.4480596259987259,non_fall
5.816525,-0.1607,-0.0425,0.2108,0.4597,0.47,0.1582,-41.236,10.2724,12.2488,,0.010050000000000558,0.2684536831559589,0.4290370600381365,non_fall
5.856357,-0.1607,-0.0425,0.2108,0.4597,0.47,0.1582,-41.3092,11.2118,10.6628,,0.039831999999999645,0.2684536831559589,0.40965052738027935,non_fall
5.859904,-0.1607,-0.0425,0.2108,0.4597,0.47,0.1582,-41.3092,11.2118,10.6628,,0.003547000000000189,0.2684536831559589,0.39203987616588776,non_fall
5.86177,-0.1607,-0.0425,0.2108,0.4597,0.47,0.1582,-41.3092,11.2118,10.6628,,0.0018659999999997012,0.2684536831559589,0.378296060197245,non_fall
5.863696,-0.1607,-0.0425,0.2108,0.4597,0.47,0.1582,-41.3092,11.2118,10.6628,,0.0019260000000000943,0.2684536831559589,0.3702755467408747,non_fall
5.875559,-0.1607,-0.0425,0.2108,0.2935,0.402,0.0763,-41.3092,11.2118,10.6628,,0.011862999999999957,0.2684536831559589,0.3694683374364871,non_fall
5.886588,0.0871,0.4907,-0.0095,0.2935,0.402,0.0763,-41.3092,11.2118,10.6628,,0.011028999999999733,0.4984607808042675,0.37692819441353703,non_fall
5.916215,0.0871,0.4907,-0.0095,0.2935,0.402,0.0763,-41.4678,12.1024,8.8816,,0.029627000000000514,0.4984607808042675,0.3932586362055706,non_fall
5.919694,0.0871,0.4907,-0.0095,0.2935,0.402,0.0763,-41.4678,12.1024,8.8816,,0.0034789999999995658,0.4984607808042675,0.4186375354855091,non_fall
5.92083,0.0871,0.4907,-0.0095,0.2935,0.402,0.0763,-41.4678,12.1024,8.8816,,0.0011359999999998038,0.4984607808042675,0.4528595238234463,non_fall
5.922682,0.0871,0.4907,-0.0095,0.2935,0.402,0.0763,-41.4678,12.1024,8.8816,,0.0018520000000004089,0.4984607808042675,0.49537956127994076,non_fall
5.924262,0.0871,0.4907,-0.0095,0.2935,0.402,0.0763,-41.4678,12.1024,8.8816,,0.0015799999999996928,0.4984607808042675,0.5453499763666149,non_fall
5.946109,0.0871,0.4907,-0.0095,-0.0096,0.3953,0.0739,-41.4678,12.1024,8.8816,,0.021847000000000172,0.4984607808042675,0.6016522250323328,non_fall
5.958463,-0.3993,0.5533,-0.3378,-0.0096,0.3953,0.0739,-41.4678,12.1024,8.8816,,0.012354000000000198,0.7613739028887186,0.6629299452510322,non_fall
5.975885,-0.3993,0.5533,-0.3378,-0.0096,0.3953,0.0739,-41.5044,12.932,7.1858,,0.017421999999999827,0.7613739028887186,0.7276305898201698,non_fall
5.987209,-0.3993,0.5533,-0.3378,-0.0096,0.3953,0.0739,-41.5044,12.932,7.1858,,0.011324000000000112,0.7613739028887186,0.7940607724930979,non_fall
5.992624,-0.3993,0.5533,-0.3378,-0.0096,0.3953,0.0739,-41.5044,12.932,7.1858,,0.00541500000000017,0.7613739028887186,0.8604586770021692,non_fall
5.993521,-0.3993,0.5533,-0.3378,-0.0096,0.3953,0.0739,-41.5044,12.932,7.1858,,0.0008970000000001477,0.7613739028887186,0.925086816285959,non_fall
6.01563,-0.3993,0.5533,-0.3378,-0.3848,0.0724,0.0439,-41.5044,12.932,7.1858,,0.02210899999999949,0.7613739028887186,0.9863475833362837,non_fall
6.025127,-0.0306,1.063,-0.6997,-0.3848,0.0724,0.0439,-41.5044,12.932,7.1858,,0.009497000000000533,1.272982894621919,1.042918371678361,non_fall
6.034633,-0.0306,1.063,-0.6997,-0.3848,0.0724,0.0439,-41.5044,13.5786,5.7584,,0.009506000000000014,1.272982894621919,1.0938916329650148,non_fall
6.054707,-0.0306,1.063,-0.6997,-0.3848,0.0724,0.0439,-41.5044,13.5786,5.7584,,0.02007399999999926,1.272982894621919,1.1388929635710343,non_fall
6.055599,-0.0306,1.063,-0.6997,-0.3848,0.0724,0.0439,-41.5044,13.5786,5.7584,,0.000892000000000337,1.272982894621919,1.1781454049824642,non_fall
6.055912,-0.0306,1.063,-0.6997,-0.3848,0.0724,0.0439,-41.5044,13.5786,5.7584,,0.00031300000000022976,1.272982894621919,1.212455182351145,non_fall
6.056193,-0.0306,1.063,-0.6997,-0.3848,0.0724,0.0439,-41.5044,13.5786,5.7584,,0.00028100000000019776,1.272982894621919,1.2431098429736958,non_fall
6.086654,-0.0306,1.063,-0.6997,-0.474,-0.0515,-0.0166,-41.5044,13.5786,5.7584,,0.03046099999999985,1.272982894621919,1.27169701773294,non_fall
6.095132,-0.0306,1.063,-0.6997,-0.474,-0.0515,-0.0166,-41.4434,14.1032,4.697,,0.008478000000000208,1.272982894621919,1.2998658793778126,non_fall
6.096342,-0.0086,1.2062,0.4224,-0.474,-0.0515,-0.0166,-41.4434,14.1032,4.697,,0.0012099999999994893,1.2780509223031764,1.3290624667557376,non_fall
6.120905,-0.0086,1.2062,0.4224,-0.474,-0.0515,-0.0166,-41.4434,14.1032,4.697,,0.02456299999999967,1.2780509223031764,1.360274598886387,non_fall
6.122775,-0.0086,1.2062,0.4224,-0.474,-0.0515,-0.0166,-41.4434,14.1032,4.697,,0.0018700000000002603,1.2780509223031764,1.3938224592681363,non_fall
6.123784,-0.0086,1.2062,0.4224,-0.474,-0.0515,-0.0166,-41.4434,14.1032,4.697,,0.0010089999999998156,1.2780509223031764,1.4292272553720031,non_fall
6.155993,-0.0086,1.2062,0.4224,-0.474,-0.0515,-0.0166,-41.4434,14.5302,3.9894,,0.03220899999999993,1.2780509223031764,1.4651826070188771,non_fall
6.157461,-0.0086,1.2062,0.4224,-0.8706,-0.4005,0.0088,-41.4434,14.5302,3.9894,,0.0014680000000000248,1.2780509223031764,1.4996412555626952,non_fall
6.165533,0.5992,0.958,1.2669,-0.8706,-0.4005,0.0088,-41.4434,14.5302,3.9894,,0.008072000000000301,1.697598377119865,1.5300132439840668,non_fall
6.188144,0.5992,0.958,1.2669,-0.8706,-0.4005,0.0088,-41.4434,14.5302,3.9894,,0.02261100000000038,1.697598377119865,1.5534523158274978,non_fall
6.18969,0.5992,0.958,1.2669,-0.8706,-0.4005,0.0088,-41.4434,14.5302,3.9894,,0.0015459999999993812,1.697598377119865,1.56718957122723,non_fall
6.190586,0.5992,0.958,1.2669,-0.8706,-0.4005,0.0088,-41.4434,14.5302,3.9894,,0.0008960000000000079,1.697598377119865,1.5688641948719502,non_fall
6.21477,0.5992,0.958,1.2669,-0.8706,-0.4005,0.0088,-41.3824,14.7498,3.965,,0.024183999999999983,1.697598377119865,1.5568042033910212,non_fall
6.224122,0.5992,0.958,1.2669,-1.0855,-0.3284,-0.0309,-41.3824,14.7498,3.965,,0.009352000000000693,1.697598377119865,1.530223365396003,non_fall
6.237504,1.1641,0.3563,0.4825,-1.0855,-0.3284,-0.0309,-41.3824,14.7498,3.965,,0.013382000000000005,1.3095360819771251,1.4893183207894949,non_fall
6.25465,1.1641,0.3563,0.4825,-1.0855,-0.3284,-0.0309,-41.3824,14.7498,3.965,,0.01714599999999944,1.3095360819771251,1.4352679282419032,non_fall
6.257836,1.1641,0.3563,0.4825,-1.0855,-0.3284,-0.0309,-41.3824,14.7498,3.965,,0.003186000000000355,1.3095360819771251,1.3701508992732938,non_fall
6.258915,1.1641,0.3563,0.4825,-1.0855,-0.3284,-0.0309,-41.3824,14.7498,3.965,,0.00107899999999983,1.3095360819771251,1.2968035047126816,non_fall
6.259844,1.1641,0.3563,0.4825,-1.0855,-0.3284,-0.0309,-41.3824,14.7498,3.965,,0.0009290000000001797,1.3095360819771251,1.2186354505000208,non_fall
6.274592,1.1641,0.3563,0.4825,-1.0855,-0.3284,-0.0309,-41.2238,14.762,4.3676,,0.014747999999999983,1.3095360819771251,1.1394136673086837,non_fall
6.294563,1.1641,0.3563,0.4825,-0.91,0.2091,-0.0834,-41.2238,14.762,4.3676,,0.01997099999999996,1.3095360819771251,1.063018230588739,non_fall
6.304174,0.6997,-0.261,0.119,-0.91,0.2091,-0.0834,-41.2238,14.762,4.3676,,0.009610999999999592,0.756215637235835,0.9931770081623182,non_fall
6.320563,0.6997,-0.261,0.119,-0.91,0.2091,-0.0834,-41.2238,14.762,4.3676,,0.01638900000000021,0.756215637235835,0.9331959150503041,non_fall
6.321605,0.6997,-0.261,0.119,-0.91,0.2091,-0.0834,-41.2238,14.762,4.3676,,0.0010419999999999874,0.756215637235835,0.8857140550903917,non_fall
6.32241,0.6997,-0.261,0.119,-0.91,0.2091,-0.0834,-41.2238,14.762,4.3676,,0.0008049999999997226,0.756215637235835,0.8525185787370508,non_fall
6.334025,0.6997,-0.261,0.119,-0.91,0.2091,-0.0834,-41.0652,14.701,5.0996,,0.011614999999999931,0.756215637235835,0.8344476206234124,non_fall
6.365346,0.6997,-0.261,0.119,-0.3425,0.3249,-0.0694,-41.0652,14.701,5.0996,,0.031321000000000154,0.756215637235835,0.8313941853279595,non_fall
6.375812,-0.4647,-0.3686,0.7451,-0.3425,0.3249,-0.0694,-41.0652,14.701,5.0996,,0.010466000000000086,0.9523581574176807,0.8424063647212694,non_fall
6.390157,-0.4647,-0.3686,0.7451,-0.3425,0.3249,-0.0694,-41.0652,14.701,5.0996,,0.014345000000000496,0.9523581574176807,0.8658647927947065,non_fall
6.391696,-0.4647,-0.3686,0.7451,-0.3425,0.3249,-0.0694,-41.0652,14.701,5.0996,,0.001538999999999291,0.9523581574176807,0.8997090783788505,non_fall
6.39257,-0.4647,-0.3686,0.7451,-0.3425,0.3249,-0.0694,-41.0652,14.701,5.0996,,0.0008740000000004855,0.9523581574176807,0.9416824384701813,non_fall
6.394725,-0.4647,-0.3686,0.7451,-0.3425,0.3249,-0.0694,-40.9188,14.6156,5.8316,,0.002155000000000129,0.9523581574176807,0.9895675032998926,non_fall
6.437335,-0.4647,-0.3686,0.7451,0.0764,-0.1439,-0.194,-40.9188,14.6156,5.8316,,0.042609999999999815,0.9523581574176807,1.0413930520365917,non_fall
6.448885,-0.9491,-0.6957,0.5362,0.0764,-0.1439,-0.194,-40.9188,14.6156,5.8316,,0.011549999999999727,1.29317428833085,1.09559696419627,non_fall
6.4545,-0.9491,-0.6957,0.5362,0.0764,-0.1439,-0.194,-40.9188,14.6156,5.8316,,0.005615000000000592,1.29317428833085,1.1511329267209351,non_fall
6.455438,-0.9491,-0.6957,0.5362,0.0764,-0.1439,-0.194,-40.9188,14.6156,5.8316,,0.0009379999999996613,1.29317428833085,1.20750956609159,non_fall
6.456196,-0.9491,-0.6957,0.5362,0.0764,-0.1439,-0.194,-40.9188,14.6156,5.8316,,0.0007580000000002585,1.29317428833085,1.264755245563786,non_fall
6.456947,-0.9491,-0.6957,0.5362,0.0764,-0.1439,-0.194,-40.9188,14.6156,5.8316,,0.0007510000000001682,1.29317428833085,1.3233120173986044,non_fall
6.457695,-0.9491,-0.6957,0.5362,0.0764,-0.1439,-0.194,-40.8456,14.5058,6.6124,,0.0007479999999997489,1.29317428833085,1.3838752400125243,non_fall
6.507539,-0.9491,-0.6957,0.5362,0.4645,-0.3591,-0.0786,-40.8456,14.5058,6.6124,,0.04984400000000022,1.29317428833085,1.4472056811170306,non_fall
6.514831,-0.9491,-0.6957,0.5362,0.4645,-0.3591,-0.0786,-40.8212,14.3838,7.442,,0.007291999999999632,1.29317428833085,1.5139445725269913,non_fall
6.516364,-0.4434,-1.6223,0.5157,0.4645,-0.3591,-0.0786,-40.8212,14.3838,7.442,,0.0015330000000002286,1.7590927604876327,1.5844577756445886,non_fall
6.520282,-0.4434,-1.6223,0.5157,0.4645,-0.3591,-0.0786,-40.8212,14.3838,7.442,,0.003917999999999644,1.7590927604876327,1.6587242834941518,non_fall
6.521176,-0.4434,-1.6223,0.5157,0.4645,-0.3591,-0.0786,-40.8212,14.3838,7.442,,0.0008939999999997283,1.7590927604876327,1.7362715137592115,non_fall
6.522069,-0.4434,-1.6223,0.5157,0.4645,-0.3591,-0.0786,-40.8212,14.3838,7.442,,0.0008930000000004767,1.7590927604876327,1.81615202218434,non_fall
6.577121,-0.4434,-1.6223,0.5157,0.4645,-0.3591,-0.0786,-40.8334,14.4082,8.1984,,0.05505199999999988,1.7590927604876327,1.8969565195712528,non_fall
6.579366,-0.4434,-1.6223,0.5157,0.9298,-0.2887,-0.0157,-40.8334,14.4082,8.1984,,0.0022450000000002746,1.7590927604876327,1.9768623219442047,non_fall
6.584793,0.2637,-2.2488,-0.0757,0.9298,-0.2887,-0.0157,-40.8334,14.4082,8.1984,,0.005427000000000071,2.265473376581592,2.0537172513686452,non_fall
6.586616,0.2637,-2.2488,-0.0757,0.9298,-0.2887,-0.0157,-40.8334,14.4082,8.1984,,0.001822999999999908,2.265473376581592,2.1251530664513276,non_fall
6.587562,0.2637,-2.2488,-0.0757,0.9298,-0.2887,-0.0157,-40.8334,14.4082,8.1984,,0.0009459999999998914,2.265473376581592,2.1887134684879612,non_fall
6.588386,0.2637,-2.2488,-0.0757,0.9298,-0.2887,-0.0157,-40.8334,14.4082,8.1984,,0.0008239999999997139,2.265473376581592,2.2419773755682595,non_fall
6.635273,0.2637,-2.2488,-0.0757,0.9298,-0.2887,-0.0157,-40.7602,14.4448,8.9304,,0.0468869999999999,2.265473376581592,2.2826628752986435,non_fall
6.646598,0.2637,-2.2488,-0.0757,1.4185,-0.0537,-0.1912,-40.7602,14.4448,8.9304,,0.011325000000000252,2.265473376581592,2.3087079091252676,non_fall
6.655276,0.2637,-2.2488,-0.0757,1.4185,-0.0537,-0.1912,-40.7602,14.4448,8.9304,,0.008677999999999741,2.265473376581592,2.3183335615505443,non_fall
6.656684,0.2637,-2.2488,-0.0757,1.4185,-0.0537,-0.1912,-40.7602,14.4448,8.9304,,0.00140800000000052,2.265473376581592,2.310100654448266,non_fall
6.657565,0.2637,-2.2488,-0.0757,1.4185,-0.0537,-0.1912,-40.7602,14.4448,8.9304,,0.0008809999999996876,2.265473376581592,2.2829699699529815,non_fall
6.658506,0.2637,-2.2488,-0.0757,1.4185,-0.0537,-0.1912,-40.7602,14.4448,8.9304,,0.0009410000000000807,2.265473376581592,2.236372602073717,non_fall
6.659411,0.5475,-1.844,-0.5693,1.4185,-0.0537,-0.1912,-40.7602,14.4448,8.9304,,0.0009050000000003777,2.006039565910902,2.170291805080588,non_fall
6.696912,0.5475,-1.844,-0.5693,1.4185,-0.0537,-0.1912,-40.7846,14.6278,9.2842,,0.037500999999999785,2.006039565910902,2.0853527361494,non_fall
6.717218,0.5475,-1.844,-0.5693,1.7247,-0.1101,-0.157,-40.7846,14.6278,9.2842,,0.020305999999999713,2.006039565910902,1.9829114189367913,non_fall
6.719971,0.5475,-1.844,-0.5693,1.7247,-0.1101,-0.157,-40.7846,14.6278,9.2842,,0.0027530000000002275,2.006039565910902,1.8651277407476994,non_fall
6.72087,0.5475,-1.844,-0.5693,1.7247,-0.1101,-0.157,-40.7846,14.6278,9.2842,,0.0008989999999995391,2.006039565910902,1.734999999237906,non_fall
6.721653,0.5475,-1.844,-0.5693,1.7247,-0.1101,-0.157,-40.7846,14.6278,9.2842,,0.0007830000000002002,2.006039565910902,1.596335021781376,non_fall
6.727735,0.4268,-0.8094,-0.6322,1.7247,-0.1101,-0.157,-40.7846,14.6278,9.2842,,0.006082000000000143,1.112188581131815,1.4536340945619166,non_fall
6.765519,0.4268,-0.8094,-0.6322,1.7247,-0.1101,-0.157,-40.7968,14.9084,9.3818,,0.03778400000000026,1.112188581131815,1.3118923285163773,non_fall
6.784283,0.4268,-0.8094,-0.6322,1.8758,-0.419,-0.3527,-40.7968,14.9084,9.3818,,0.018764000000000003,1.112188581131815,1.176330393851715,non_fall
6.78725,0.4268,-0.8094,-0.6322,1.8758,-0.419,-0.3527,-40.7968,14.9084,9.3818,,0.002966999999999942,1.112188581131815,1.052090161766015,non_fall
6.789152,0.4268,-0.8094,-0.6322,1.8758,-0.419,-0.3527,-40.7968,14.9084,9.3818,,0.0019019999999994042,1.112188581131815,0.9439232706711499,non_fall
6.790973,0.4268,-0.8094,-0.6322,1.8758,-0.419,-0.3527,-40.7968,14.9084,9.3818,,0.0018210000000005166,1.112188581131815,0.855890755153603,non_fall
6.794428,-0.4073,0.2586,-0.3576,1.8758,-0.419,-0.3527,-40.7968,14.9084,9.3818,,0.003454999999999764,0.600537267786105,0.7910853635796022,non_fall
6.823338,-0.4073,0.2586,-0.3576,1.8758,-0.419,-0.3527,-40.9066,15.2012,9.2964,,0.02890999999999977,0.600537267786105,0.7513924171156405,non_fall
6.854478,-0.4073,0.2586,-0.3576,2.1369,-0.7449,-0.627,-40.9066,15.2012,9.2964,,0.03114000000000061,0.600537267786105,0.7373156408510585,non_fall
6.859091,-0.4073,0.2586,-0.3576,2.1369,-0.7449,-0.627,-40.9066,15.2012,9.2964,,0.004612999999999978,0.600537267786105,0.7479011589473431,non_fall
6.861557,-0.4073,0.2586,-0.3576,2.1369,-0.7449,-0.627,-40.9066,15.2012,9.2964,,0.0024660000000000792,0.600537267786105,0.7807886914232458,non_fall
6.863222,-0.4073,0.2586,-0.3576,2.1369,-0.7449,-0.627,-40.9066,15.2012,9.2964,,0.0016650000000000276,0.600537267786105,0.8324045182383863,non_fall
6.864522,-0.4073,0.2586,-0.3576,2.1369,-0.7449,-0.627,-40.9066,15.2012,9.2964,,0.0012999999999996348,0.600537267786105,0.8982904931787087,non_fall
6.866095,-0.5196,1.1118,-0.6594,2.1369,-0.7449,-0.627,-40.9066,15.2012,9.2964,,0.0015729999999996025,1.3931589141228646,0.9735400998889125,non_fall
6.882553,-0.5196,1.1118,-0.6594,2.1369,-0.7449,-0.627,-41.0652,15.4818,9.3818,,0.016458000000000084,1.3931589141228646,1.0532883064973542,non_fall
6.923742,-0.5196,1.1118,-0.6594,2.1369,-0.7449,-0.627,-41.0652,15.4818,9.3818,,0.04118900000000014,1.3931589141228646,1.1331833269207578,non_fall
6.927369,-0.5196,1.1118,-0.6594,2.1369,-0.7449,-0.627,-41.0652,15.4818,9.3818,,0.003626999999999825,1.3931589141228646,1.2097656742398988,non_fall
6.930091,-0.5196,1.1118,-0.6594,2.1369,-0.7449,-0.627,-41.0652,15.4818,9.3818,,0.0027220000000003353,1.3931589141228646,1.280697911954872,non_fall
6.933175,-0.5196,1.1118,-0.6594,2.1067,-0.2884,-0.3744,-41.0652,15.4818,9.3818,,0.0030840000000003087,1.3931589141228646,1.344820414923981,non_fall
6.935496,-0.7405,0.4316,-1.0822,2.1067,-0.2884,-0.3744,-41.0652,15.4818,9.3818,,0.0023209999999993514,1.3804983339359742,1.402041794349257,non_fall
6.944274,-0.7405,0.4316,-1.0822,2.1067,-0.2884,-0.3744,-41.3458,15.8722,9.2842,,0.008778000000000397,1.3804983339359742,1.4530989037048851,non_fall
6.988819,-0.7405,0.4316,-1.0822,2.1067,-0.2884,-0.3744,-41.3458,15.8722,9.2842,,0.04454500000000028,1.3804983339359742,1.4992379523104902,non_fall
6.992452,-0.7405,0.4316,-1.0822,2.1067,-0.2884,-0.3744,-41.3458,15.8722,9.2842,,0.0036329999999997753,1.3804983339359742,1.5418753960037577,non_fall
6.995027,-0.7405,0.4316,-1.0822,2.1067,-0.2884,-0.3744,-41.3458,15.8722,9.2842,,0.002575000000000216,1.3804983339359742,1.5822957177238826,non_fall
6.997569,-0.7405,0.4316,-1.0822,2.2212,-0.2598,-0.217,-41.3458,15.8722,9.2842,,0.0025420000000000442,1.3804983339359742,1.6214338565833744,non_fall
7.004671,-0.7405,0.4316,-1.0822,2.2212,-0.2598,-0.217,-41.602,16.3846,9.028,,0.00710199999999972,1.3804983339359742,1.6597737605447749,non_fall
7.007474,-1.2759,-0.551,-1.3148,2.2212,-0.2598,-0.217,-41.602,16.3846,9.028,,0.002803000000000111,1.9131703661723385,1.6973722720243714,non_fall
7.056501,-1.2759,-0.551,-1.3148,2.2212,-0.2598,-0.217,-41.602,16.3846,9.028,,0.04902699999999971,1.9131703661723385,1.7339917818722168,non_fall
7.060359,-1.2759,-0.551,-1.3148,2.2212,-0.2598,-0.217,-41.602,16.3846,9.028,,0.003858000000000139,1.9131703661723385,1.7693019571435704,non_fall
7.063025,-1.2759,-0.551,-1.3148,2.2212,-0.2598,-0.217,-41.602,16.3846,9.028,,0.002665999999999613,1.9131703661723385,1.803098797730997,non_fall
7.065579,-1.2759,-0.551,-1.3148,2.2212,-0.2598,-0.217,-41.602,16.3846,9.028,,0.002553999999999945,1.9131703661723385,1.8354925834669957,non_fall
7.067981,-1.2759,-0.551,-1.3148,1.604,-0.1025,-0.2049,-41.602,16.3846,9.028,,0.0024020000000000152,1.9131703661723385,1.8670309540911276,non_fall
7.071157,-1.2759,-0.551,-1.3148,1.604,-0.1025,-0.2049,-41.8094,16.775,8.6986,,0.003176000000000734,1.9131703661723385,1.898741321352495,non_fall
7.073606,0.5372,0.4223,-1.8518,1.604,-0.1025,-0.2049,-41.8094,16.775,8.6986,,0.0024489999999994794,1.9738501386883451,1.9320923471758586,non_fall
7.122876,0.5372,0.4223,-1.8518,1.604,-0.1025,-0.2049,-42.0168,17.0434,8.3326,,0.049269999999999925,1.9738501386883451,1.9688856440134919,non_fall
7.127063,0.5372,0.4223,-1.8518,1.604,-0.1025,-0.2049,-42.0168,17.0434,8.3326,,0.004186999999999941,1.9738501386883451,2.011096598194501,non_fall
7.129514,0.5372,0.4223,-1.8518,1.604,-0.1025,-0.2049,-42.0168,17.0434,8.3326,,0.002451000000000647,1.9738501386883451,2.060688142695011,non_fall
7.132786,0.5372,0.4223,-1.8518,1.604,-0.1025,-0.2049,-42.0168,17.0434,8.3326,,0.0032719999999999416,1.9738501386883451,2.1194236057866953,non_fall
7.13569,0.5372,0.4223,-1.8518,0.0076,0.3039,-0.0557,-42.0168,17.0434,8.3326,,0.0029040000000000177,1.9738501386883451,2.1887034538580297,non_fall
7.148146,0.6989,-0.2327,-2.3808,0.0076,0.3039,-0.0557,-42.0168,17.0434,8.3326,,0.012455999999999356,2.492151508235404,2.2694444088745858,non_fall
7.18306,0.6989,-0.2327,-2.3808,0.0076,0.3039,-0.0557,-42.2242,17.1776,8.052,,0.034914000000000556,2.492151508235404,2.3620083716241598,non_fall
7.186507,0.6989,-0.2327,-2.3808,0.0076,0.3039,-0.0557,-42.2242,17.1776,8.052,,0.0034469999999995338,2.492151508235404,2.4661770834670107,non_fall
7.187372,0.6989,-0.2327,-2.3808,0.0076,0.3039,-0.0557,-42.2242,17.1776,8.052,,0.0008650000000001157,2.492151508235404,2.581163092442119,non_fall
7.188126,0.6989,-0.2327,-2.3808,0.0076,0.3039,-0.0557,-42.2242,17.1776,8.052,,0.0007539999999996994,2.492151508235404,2.7056508264725077,non_fall
7.202697,0.6989,-0.2327,-2.3808,-0.8639,0.4453,-0.0479,-42.2242,17.1776,8.052,,0.014571000000000112,2.492151508235404,2.8378677974325353,non_fall
7.211457,0.6532,-2.7369,-1.8985,-0.8639,0.4453,-0.0479,-42.2242,17.1776,8.052,,0.008760000000000545,3.3943473746804407,2.975686052924281,non_fall
7.241399,0.6532,-2.7369,-1.8985,-0.8639,0.4453,-0.0479,-42.3096,17.1776,7.93,,0.029942000000000135,3.3943473746804407,3.116744250713378,non_fall
7.255296,0.6532,-2.7369,-1.8985,-0.8639,0.4453,-0.0479,-42.3096,17.1776,7.93,,0.013897000000000048,3.3943473746804407,3.2585678598071803,non_fall
7.259138,0.6532,-2.7369,-1.8985,-0.8639,0.4453,-0.0479,-42.3096,17.1776,7.93,,0.003841999999999679,3.3943473746804407,3.3986616603483113,non_fall
7.261948,0.6532,-2.7369,-1.8985,-0.8639,0.4453,-0.0479,-42.3096,17.1776,7.93,,0.0028100000000002012,3.3943473746804407,3.534561161687188,non_fall
7.264597,0.6532,-2.7369,-1.8985,-0.8639,0.4453,-0.0479,-42.3096,17.1776,7.93,,0.0026489999999999014,3.3943473746804407,3.6638503404019263,non_fall
7.272205,0.6532,-2.7369,-1.8985,-1.2019,0.2499,-0.0995,-42.3096,17.1776,7.93,,0.007607999999999393,3.3943473746804407,3.7841681110813132,non_fall
7.282652,-0.3909,-3.5321,2.2679,-1.2019,0.2499,-0.0995,-42.3096,17.1776,7.93,,0.010447000000000095,4.215673567770636,3.893225878353088,non_fall
7.303081,-0.3909,-3.5321,2.2679,-1.2019,0.2499,-0.0995,-42.3706,17.1044,7.8202,,0.02042900000000003,4.215673567770636,3.988843654049009,non_fall
7.322386,-0.3909,-3.5321,2.2679,-1.2019,0.2499,-0.0995,-42.3706,17.1044,7.8202,,0.019305000000000128,4.215673567770636,4.068992093749929,non_fall
7.325957,-0.3909,-3.5321,2.2679,-1.2019,0.2499,-0.0995,-42.3706,17.1044,7.8202,,0.003570999999999991,4.215673567770636,4.1318164219665094,non_fall
7.328436,-0.3909,-3.5321,2.2679,-1.2019,0.2499,-0.0995,-42.3706,17.1044,7.8202,,0.00247900000000012,4.215673567770636,4.175623530975,non_fall
7.3434,-0.3909,-3.5321,2.2679,-0.6444,0.1703,-0.0348,-42.3706,17.1044,7.8202,,0.014963999999999977,4.215673567770636,4.198831067727922,non_fall
7.351565,-0.9261,-2.404,3.0239,-0.6444,0.1703,-0.0348,-42.3706,17.1044,7.8202,,0.008164999999999978,3.972511600989983,4.199896355998231,non_fall
7.362363,-0.9261,-2.404,3.0239,-0.6444,0.1703,-0.0348,-42.3584,16.9824,7.6982,,0.010798000000000307,3.972511600989983,4.1772559252501456,non_fall
7.388764,-0.9261,-2.404,3.0239,-0.6444,0.1703,-0.0348,-42.3584,16.9824,7.6982,,0.026400999999999897,3.972511600989983,4.1293100348363305,non_fall
7.393473,-0.9261,-2.404,3.0239,-0.6444,0.1703,-0.0348,-42.3584,16.9824,7.6982,,0.004709000000000074,3.972511600989983,4.054479579594129,non_fall
7.396421,-0.9261,-2.404,3.0239,-0.6444,0.1703,-0.0348,-42.3584,16.9824,7.6982,,0.0029479999999999507,3.972511600989983,3.9513463964294395,non_fall
7.412389,-0.9261,-2.404,3.0239,0.4428,0.0983,0.0107,-42.3584,16.9824,7.6982,,0.015967999999999982,3.972511600989983,3.8188675134917234,non_fall
7.422299,-0.9261,-2.404,3.0239,0.4428,0.0983,0.0107,-42.2364,16.7872,7.6006,,0.009909999999999641,3.972511600989983,3.6566366519467173,non_fall
7.424578,-1.1943,-1.6415,2.1994,0.4428,0.0983,0.0107,-42.2364,16.7872,7.6006,,0.002279000000000586,2.9930310890466876,3.465158246425961,non_fall
7.454616,-1.1943,-1.6415,2.1994,0.4428,0.0983,0.0107,-42.2364,16.7872,7.6006,,0.030037999999999343,2.9930310890466876,3.2461014975169653,non_fall
7.455854,-1.1943,-1.6415,2.1994,0.4428,0.0983,0.0107,-42.2364,16.7872,7.6006,,0.0012380000000007385,2.9930310890466876,3.0025078573483848,non_fall
7.456678,-1.1943,-1.6415,2.1994,0.4428,0.0983,0.0107,-42.2364,16.7872,7.6006,,0.0008239999999997139,2.9930310890466876,2.738923768741425,non_fall
7.457769,-1.1943,-1.6415,2.1994,0.4428,0.0983,0.0107,-42.2364,16.7872,7.6006,,0.001090999999999731,2.9930310890466876,2.461417815920997,non_fall
7.482275,-1.1943,-1.6415,2.1994,0.4428,0.0983,0.0107,-42.1144,16.5432,7.5152,,0.024505999999999695,2.9930310890466876,2.1774290244938053,non_fall
7.485472,-1.1943,-1.6415,2.1994,0.865,-0.0423,0.0856,-42.1144,16.5432,7.5152,,0.0031970000000001164,2.9930310890466876,1.8953993473383428,non_fall
7.491904,0.213,-0.3822,0.4428,0.865,-0.0423,0.0856,-42.1144,16.5432,7.5152,,0.006432000000000215,0.6225091806551932,1.6241805657446418,non_fall
7.522759,0.213,-0.3822,0.4428,0.865,-0.0423,0.0856,-42.1144,16.5432,7.5152,,0.030854999999999855,0.6225091806551932,1.3722703163044434,non_fall
7.526277,0.213,-0.3822,0.4428,0.865,-0.0423,0.0856,-42.1144,16.5432,7.5152,,0.0035180000000005762,0.6225091806551932,1.1469987752347768,non_fall
7.529106,0.213,-0.3822,0.4428,0.865,-0.0423,0.0856,-42.1144,16.5432,7.5152,,0.0028289999999993043,0.6225091806551932,0.9538195727166264,non_fall
7.543004,0.213,-0.3822,0.4428,0.865,-0.0423,0.0856,-42.1022,16.409,7.3322,,0.013898000000000188,0.6225091806551932,0.7958358925988992,non_fall
7.551338,0.213,-0.3822,0.4428,0.6425,-0.0499,0.1337,-42.1022,16.409,7.3322,,0.008334000000000508,0.6225091806551932,0.6736312541133174,non_fall
7.563251,0.4007,0.2948,-0.4017,0.6425,-0.0499,0.1337,-42.1022,16.409,7.3322,,0.01191299999999984,0.6393984829509686,0.5854074482134838,non_fall
7.588796,0.4007,0.2948,-0.4017,0.6425,-0.0499,0.1337,-42.1022,16.409,7.3322,,0.02554500000000015,0.6393984829509686,0.5273816216272033,non_fall
7.59321,0.4007,0.2948,-0.4017,0.6425,-0.0499,0.1337,-42.1022,16.409,7.3322,,0.004413999999999696,0.6393984829509686,0.49436529931781503,non_fall
7.596006,0.4007,0.2948,-0.4017,0.6425,-0.0499,0.1337,-42.1022,16.409,7.3322,,0.0027960000000000207,0.6393984829509686,0.4804370341576714,non_fall
7.603185,0.4007,0.2948,-0.4017,0.6425,-0.0499,0.1337,-42.1632,16.3358,7.137,,0.007178999999999824,0.6393984829509686,0.47962295227875756,non_fall
7.620081,0.4007,0.2948,-0.4017,0.2866,-0.0278,0.0728,-42.1632,16.3358,7.137,,0.016896000000000022,0.6393984829509686,0.48651150191733045,non_fall
7.630374,0.2775,0.3959,-0.3029,0.2866,-0.0278,0.0728,-42.1632,16.3358,7.137,,0.010292999999999886,0.5705185974181736,0.4967464667951341,non_fall
7.655031,0.2775,0.3959,-0.3029,0.2866,-0.0278,0.0728,-42.1632,16.3358,7.137,,0.024657000000000373,0.5705185974181736,0.5073626197542557,non_fall
7.656461,0.2775,0.3959,-0.3029,0.2866,-0.0278,0.0728,-42.1632,16.3358,7.137,,0.0014300000000000423,0.5705185974181736,0.5169485048527335,non_fall
7.657219,0.2775,0.3959,-0.3029,0.2866,-0.0278,0.0728,-42.1632,16.3358,7.137,,0.0007580000000002585,0.5705185974181736,0.5256384333863864,non_fall
7.658021,0.2775,0.3959,-0.3029,0.2866,-0.0278,0.0728,-42.1632,16.3358,7.137,,0.0008019999999993033,0.5705185974181736,0.5349496635700239,non_fall
7.662004,0.2775,0.3959,-0.3029,0.2866,-0.0278,0.0728,-42.1998,16.3236,6.9174,,0.003982999999999848,0.5705185974181736,0.5474911738112039,non_fall
7.69215,0.2775,0.3959,-0.3029,0.2218,-0.0747,-0.0216,-42.1998,16.3236,6.9174,,0.030146000000000228,0.5705185974181736,0.5665784397137089,non_fall
7.702351,0.1938,0.5154,0.0142,0.2218,-0.0747,-0.0216,-42.1998,16.3236,6.9174,,0.010201000000000349,0.5508150687844333,0.5957948755165687,non_fall
7.721019,0.1938,0.5154,0.0142,0.2218,-0.0747,-0.0216,-42.4316,16.3358,6.6246,,0.018667999999999907,0.5508150687844333,0.6385450542826226,non_fall
7.722756,0.1938,0.5154,0.0142,0.2218,-0.0747,-0.0216,-42.4316,16.3358,6.6246,,0.0017370000000003216,0.5508150687844333,0.6976467416880727,non_fall
7.723745,0.1938,0.5154,0.0142,0.2218,-0.0747,-0.0216,-42.4316,16.3358,6.6246,,0.0009889999999996846,0.5508150687844333,0.7750068934352485,non_fall
7.724708,0.1938,0.5154,0.0142,0.2218,-0.0747,-0.0216,-42.4316,16.3358,6.6246,,0.0009629999999996031,0.5508150687844333,0.8714195091526039,non_fall
7.761376,0.1938,0.5154,0.0142,0.5286,-0.0437,-0.0578,-42.4316,16.3358,6.6246,,0.03666800000000059,0.5508150687844333,0.9865089174234535,non_fall
7.769645,0.5959,1.1712,0.9883,0.5286,-0.0437,-0.0578,-42.4316,16.3358,6.6246,,0.008268999999999416,1.6442454622105545,1.118819401746836,non_fall
7.780712,0.5959,1.1712,0.9883,0.5286,-0.0437,-0.0578,-42.6756,16.3724,6.283,,0.011067000000000604,1.6442454622105545,1.266023086398957,non_fall
7.787321,0.5959,1.1712,0.9883,0.5286,-0.0437,-0.0578,-42.6756,16.3724,6.283,,0.006609000000000087,1.6442454622105545,1.4251923377522826,non_fall
7.790304,0.5959,1.1712,0.9883,0.5286,-0.0437,-0.0578,-42.6756,16.3724,6.283,,0.002982999999999514,1.6442454622105545,1.5930750794304915,non_fall
7.792989,0.5959,1.1712,0.9883,0.5286,-0.0437,-0.0578,-42.6756,16.3724,6.283,,0.0026850000000004925,1.6442454622105545,1.7663275308811524,non_fall
7.831468,0.5959,1.1712,0.9883,0.4961,-0.0001,-0.0374,-42.6756,16.3724,6.283,,0.03847899999999971,1.6442454622105545,1.941688444406881,non_fall
7.841144,0.5959,1.1712,0.9883,0.4961,-0.0001,-0.0374,-42.944,16.4212,5.917,,0.009675999999999796,1.6442454622105545,2.1161033144493513,non_fall
7.844811,0.0507,2.4976,1.2824,0.4961,-0.0001,-0.0374,-42.944,16.4212,5.917,,0.003667000000000087,2.8080466538147117,2.2868135673423424,non_fall
7.855661,0.0507,2.4976,1.2824,0.4961,-0.0001,-0.0374,-42.944,16.4212,5.917,,0.010849999999999582,2.8080466538147117,2.4514139117962097,non_fall
7.859235,0.0507,2.4976,1.2824,0.4961,-0.0001,-0.0374,-42.944,16.4212,5.917,,0.00357400000000041,2.8080466538147117,2.6078628096843324,non_fall
7.862248,0.0507,2.4976,1.2824,0.4961,-0.0001,-0.0374,-42.944,16.4212,5.917,,0.0030130000000001544,2.8080466538147117,2.7544245706264525,non_fall
7.865287,0.0507,2.4976,1.2824,0.4961,-0.0001,-0.0374,-42.944,16.4212,5.917,,0.003039000000000236,2.8080466538147117,2.8895363921507866,non_fall
7.901122,0.0507,2.4976,1.2824,0.4961,-0.0001,-0.0374,-43.2246,16.3968,5.6486,,0.03583499999999962,2.8080466538147117,3.0116215471619268,non_fall
7.905243,0.0507,2.4976,1.2824,0.5878,0.0221,-0.0666,-43.2246,16.3968,5.6486,,0.004120999999999597,2.8080466538147117,3.1188939158803413,non_fall
7.921246,0.5507,2.9499,1.1383,0.5878,0.0221,-0.0666,-43.2246,16.3968,5.6486,,0.016003000000000434,3.2095026701967395,3.2092078717260435,non_fall
7.923225,0.5507,2.9499,1.1383,0.5878,0.0221,-0.0666,-43.2246,16.3968,5.6486,,0.001979000000000397,3.2095026701967395,3.279999828889101,non_fall
7.924365,0.5507,2.9499,1.1383,0.5878,0.0221,-0.0666,-43.2246,16.3968,5.6486,,0.0011399999999994748,3.2095026701967395,3.3283492250554847,non_fall
7.925475,0.5507,2.9499,1.1383,0.5878,0.0221,-0.0666,-43.2246,16.3968,5.6486,,0.0011099999999997223,3.2095026701967395,3.3511657252144658,non_fall
7.954135,0.5507,2.9499,1.1383,0.5878,0.0221,-0.0666,-43.4686,16.226,5.3924,,0.028660000000000352,3.2095026701967395,3.3454915667743266,non_fall
7.973612,0.5507,2.9499,1.1383,0.608,0.2152,-0.0664,-43.4686,16.226,5.3924,,0.01947700000000019,3.2095026701967395,3.308892921252241,non_fall
7.98031,0.6201,3.2308,0.3038,0.608,0.2152,-0.0664,-43.4686,16.226,5.3924,,0.006698000000000093,3.303768619319458,3.2398989476938915,non_fall
7.988059,0.6201,3.2308,0.3038,0.608,0.2152,-0.0664,-43.4686,16.226,5.3924,,0.007748999999999562,3.303768619319458,3.1384313726471893,non_fall
7.990972,0.6201,3.2308,0.3038,0.608,0.2152,-0.0664,-43.4686,16.226,5.3924,,0.0029130000000003875,3.303768619319458,3.006154404520078,non_fall
7.992236,0.6201,3.2308,0.3038,0.608,0.2152,-0.0664,-43.4686,16.226,5.3924,,0.0012639999999999318,3.303768619319458,2.8466700693709956,non_fall
8.019337,0.6201,3.2308,0.3038,0.608,0.2152,-0.0664,-43.6272,15.9454,5.0508,,0.02710100000000004,3.303768619319458,2.6654927758983686,non_fall
8.039148,0.6201,3.2308,0.3038,0.5208,0.2579,0.1561,-43.6272,15.9454,5.0508,,0.01981100000000069,3.303768619319458,2.4697627171261702,non_fall
8.049442,0.3771,1.158,-0.767,0.5208,0.2579,0.1561,-43.6272,15.9454,5.0508,,0.010294000000000025,1.4392558528628605,2.2677022069522934,non_fall
8.063788,0.3771,1.158,-0.767,0.5208,0.2579,0.1561,-43.6272,15.9454,5.0508,,0.014345999999999748,1.4392558528628605,2.067877554536809,non_fall
8.064902,0.3771,1.158,-0.767,0.5208,0.2579,0.1561,-43.6272,15.9454,5.0508,,0.0011139999999993933,1.4392558528628605,1.8783834228291152,non_fall
8.065788,0.3771,1.158,-0.767,0.5208,0.2579,0.1561,-43.6272,15.9454,5.0508,,0.0008859999999994983,1.4392558528628605,1.706089729616892,non_fall
8.066717,0.3771,1.158,-0.767,0.5208,0.2579,0.1561,-43.6272,15.9454,5.0508,,0.0009290000000010679,1.4392558528628605,1.5560694142962637,non_fall
8.078241,0.3771,1.158,-0.767,0.5208,0.2579,0.1561,-43.6882,15.7502,4.6116,,0.011523999999999646,1.4392558528628605,1.4312730270849243,non_fall
8.108755,0.3771,1.158,-0.767,0.4485,0.3429,0.3672,-43.6882,15.7502,4.6116,,0.030514000000000152,1.4392558528628605,1.3324607372288246,non_fall
8.119423,-0.1759,-0.0804,-1.2081,0.4485,0.3429,0.3672,-43.6882,15.7502,4.6116,,0.010667999999999012,1.2234829708663706,1.258362355460867,non_fall
8.122381,-0.1759,-0.0804,-1.2081,0.4485,0.3429,0.3672,-43.6882,15.7502,4.6116,,0.0029580000000013484,1.2234829708663706,1.2060148481618445,non_fall
8.124157,-0.1759,-0.0804,-1.2081,0.4485,0.3429,0.3672,-43.6882,15.7502,4.6116,,0.0017759999999995557,1.2234829708663706,1.171219947216121,non_fall
8.125972,-0.1759,-0.0804,-1.2081,0.4485,0.3429,0.3672,-43.6882,15.7502,4.6116,,0.0018150000000005662,1.2234829708663706,1.1490650729087875,non_fall
8.138353,-0.1759,-0.0804,-1.2081,0.4485,0.3429,0.3672,-43.7004,15.6648,4.0748,,0.012380999999999531,1.2234829708663706,1.1344539396731423,non_fall
8.178595,-0.1759,-0.0804,-1.2081,0.4181,0.2902,0.2076,-43.7004,15.6648,4.0748,,0.04024199999999922,1.2234829708663706,1.1225976658852286,non_fall
8.18907,-0.1759,-0.0804,-1.2081,0.4181,0.2902,0.2076,-43.7004,15.6648,4.0748,,0.010474999999999568,1.2234829708663706,1.109423918205988,non_fall
8.191523,-0.1759,-0.0804,-1.2081,0.4181,0.2902,0.2076,-43.7004,15.6648,4.0748,,0.0024530000000009267,1.2234829708663706,1.091871214750142,non_fall
8.19303,-0.1759,-0.0804,-1.2081,0.4181,0.2902,0.2076,-43.7004,15.6648,4.0748,,0.0015070000000001471,1.2234829708663706,1.068047717018468,non_fall
8.194711,-0.1759,-0.0804,-1.2081,0.4181,0.2902,0.2076,-43.7004,15.6648,4.0748,,0.0016809999999995995,1.2234829708663706,1.037248291064983,non_fall
8.195575,-0.6024,-0.4824,-0.1721,0.4181,0.2902,0.2076,-43.7004,15.6648,4.0748,,0.0008639999999999759,0.7907047046780485,0.9998401244803169,non_fall
8.198411,-0.6024,-0.4824,-0.1721,0.4181,0.2902,0.2076,-43.6638,15.7014,3.3306,,0.0028360000000002827,0.7907047046780485,0.9570445309944692,non_fall
8.24902,-0.6024,-0.4824,-0.1721,0.4984,-0.3357,0.1417,-43.6638,15.7014,3.3306,,0.05060899999999968,0.7907047046780485,0.9106566892018517,non_fall
8.254672,-0.6024,-0.4824,-0.1721,0.4984,-0.3357,0.1417,-43.6638,15.7014,3.3306,,0.005651999999999546,0.7907047046780485,0.8627500721327916,non_fall
8.257075,-0.6024,-0.4824,-0.1721,0.4984,-0.3357,0.1417,-43.6638,15.7014,3.3306,,0.002403000000001043,0.7907047046780485,0.8154056914532,non_fall
8.259294,-0.6024,-0.4824,-0.1721,0.4984,-0.3357,0.1417,-43.6638,15.7014,3.3306,,0.002219000000000193,0.7907047046780485,0.7704920464662665,non_fall
8.261579,-0.6024,-0.4824,-0.1721,0.4984,-0.3357,0.1417,-43.5784,15.86,2.6718,,0.0022849999999987602,0.7907047046780485,0.7295070199994335,non_fall
8.264761,-0.2608,-0.321,-0.4521,0.4984,-0.3357,0.1417,-43.5784,15.86,2.6718,,0.0031820000000006843,0.6127414218085799,0.6934828118575664,non_fall
8.31826,-0.2608,-0.321,-0.4521,0.4984,-0.3357,0.1417,-43.493,16.104,2.0618,,0.05349900000000041,0.6127414218085799,0.6629502817146038,non_fall
8.320954,-0.2608,-0.321,-0.4521,0.3433,-0.2273,0.0336,-43.493,16.104,2.0618,,0.002693999999999974,0.6127414218085799,0.6379577583783593,non_fall
8.322254,-0.2608,-0.321,-0.4521,0.3433,-0.2273,0.0336,-43.493,16.104,2.0618,,0.0012999999999987466,0.6127414218085799,0.6181382045869482,non_fall
8.323002,-0.2608,-0.321,-0.4521,0.3433,-0.2273,0.0336,-43.493,16.104,2.0618,,0.0007480000000015252,0.6127414218085799,0.602815589093163,non_fall
8.32408,-0.2608,-0.321,-0.4521,0.3433,-0.2273,0.0336,-43.493,16.104,2.0618,,0.0010779999999996903,0.6127414218085799,0.5911370784691241,non_fall
8.326815,0.3796,-0.2665,-0.412,0.3433,-0.2273,0.0336,-43.493,16.104,2.0618,,0.002734999999999488,0.6203727992102813,0.5822142569355698,non_fall
8.379557,0.3796,-0.2665,-0.412,0.3433,-0.2273,0.0336,-43.4076,16.409,1.4396,,0.05274200000000029,0.6203727992102813,0.5752553245963226,non_fall
8.388351,0.3796,-0.2665,-0.412,0.3433,-0.2273,0.0336,-43.4076,16.409,1.4396,,0.008793999999999969,0.6203727992102813,0.569671274360744,non_fall
8.391873,0.3796,-0.2665,-0.412,0.3433,-0.2273,0.0336,-43.4076,16.409,1.4396,,0.003522000000000247,0.6203727992102813,0.5651421110614596,non_fall
8.394195,0.3796,-0.2665,-0.412,0.3433,-0.2273,0.0336,-43.4076,16.409,1.4396,,0.002321999999999491,0.6203727992102813,0.5616339086443202,non_fall
8.397178,0.3796,-0.2665,-0.412,0.3433,-0.2273,0.0336,-43.4076,16.409,1.4396,,0.002983000000000402,0.6203727992102813,0.559363538220055,non_fall
8.39921,0.3796,-0.2665,-0.412,0.2526,-0.1053,0.0413,-43.4076,16.409,1.4396,,0.0020319999999998117,0.6203727992102813,0.5587148920616724,non_fall
8.400707,-0.0713,-0.2424,-0.4091,0.2526,-0.1053,0.0413,-43.4076,16.409,1.4396,,0.0014970000000005257,0.48083704100245855,0.5601180267907826,non_fall
8.439586,-0.0713,-0.2424,-0.4091,0.2526,-0.1053,0.0413,-43.3344,16.8238,0.8906,,0.038878999999999664,0.48083704100245855,0.563910104022414,non_fall
8.455182,-0.0713,-0.2424,-0.4091,0.2526,-0.1053,0.0413,-43.3344,16.8238,0.8906,,0.015596000000000387,0.48083704100245855,0.5702025700087962,non_fall
8.45795,-0.0713,-0.2424,-0.4091,0.2526,-0.1053,0.0413,-43.3344,16.8238,0.8906,,0.0027679999999996596,0.48083704100245855,0.5787802858541414,non_fall
8.460263,-0.0713,-0.2424,-0.4091,0.2526,-0.1053,0.0413,-43.3344,16.8238,0.8906,,0.0023129999999991213,0.48083704100245855,0.5890539354845107,non_fall
8.462791,-0.0713,-0.2424,-0.4091,0.1494,0.0063,0.0399,-43.3344,16.8238,0.8906,,0.0025279999999998637,0.48083704100245855,0.6000777739748859,non_fall
8.47501,-0.1912,-0.2969,-0.6103,0.1494,0.0063,0.0399,-43.3344,16.8238,0.8906,,0.01221899999999998,0.7051050560022952,0.610632612868734,non_fall
8.497386,-0.1912,-0.2969,-0.6103,0.1494,0.0063,0.0399,-43.2246,17.2264,0.549,,0.022376000000001284,0.7051050560022952,0.6193610143668564,non_fall
8.521932,-0.1912,-0.2969,-0.6103,0.1494,0.0063,0.0399,-43.2246,17.2264,0.549,,0.02454599999999907,0.7051050560022952,0.6249308170180821,non_fall
8.524274,-0.1912,-0.2969,-0.6103,0.1494,0.0063,0.0399,-43.2246,17.2264,0.549,,0.0023420000000005103,0.7051050560022952,0.6261978296686026,non_fall
8.526097,-0.1912,-0.2969,-0.6103,0.1494,0.0063,0.0399,-43.2246,17.2264,0.549,,0.001822999999999908,0.7051050560022952,0.622340633051515,non_fall
8.528038,-0.1912,-0.2969,-0.6103,0.1131,-0.1085,0.0373,-43.2246,17.2264,0.549,,0.0019410000000004146,0.7051050560022952,0.6129484347225858,non_fall
8.542074,-0.4034,-0.2508,-0.1987,0.1131,-0.1085,0.0373,-43.2246,17.2264,0.549,,0.01403599999999905,0.5148921149134059,0.5980536697535638,non_fall
8.556708,-0.4034,-0.2508,-0.1987,0.1131,-0.1085,0.0373,-43.127,17.5192,0.4026,,0.014634000000000924,0.5148921149134059,0.5781118694848052,non_fall
8.588985,-0.4034,-0.2508,-0.1987,0.1131,-0.1085,0.0373,-43.127,17.5192,0.4026,,0.03227699999999878,0.5148921149134059,0.5539399264622595,non_fall
8.592472,-0.4034,-0.2508,-0.1987,0.1131,-0.1085,0.0373,-43.127,17.5192,0.4026,,0.003487000000001572,0.5148921149134059,0.5266279141278042,non_fall
8.595472,-0.4034,-0.2508,-0.1987,0.1131,-0.1085,0.0373,-43.127,17.5192,0.4026,,0.0029999999999983373,0.5148921149134059,0.4974383217407247,non_fall
8.597769,-0.4034,-0.2508,-0.1987,0.1131,-0.1085,0.0373,-43.127,17.5192,0.4026,,0.0022970000000004376,0.5148921149134059,0.4677020808611797,non_fall
8.600249,-0.4034,-0.2508,-0.1987,0.0411,-0.1964,0.0462,-43.127,17.5192,0.4026,,0.0024800000000002598,0.5148921149134059,0.43871660402381324,non_fall
