time,ax,ay,az,wx,wy,wz,Bx,By,Bz,Unnamed: 10,time_diff,acc_mag,acc_mag_filtered,label
0.045866,0.0,0.0,0.0,0.0,0.0,0.0,0.0,0.0,0.0,,0.0,0.0,0.001219357458822006,non_fall
0.071029,0.0,0.0,0.0,0.0,0.0,0.0,-44.1274,14.3228,-4.8068,,0.025162999999999998,0.0,0.0007694212258013102,non_fall
0.081864,0.0,0.0,0.0,-0.0534,0.081,-0.0326,-44.1274,14.3228,-4.8068,,0.010835000000000011,0.0,9.557690089182771e-05,non_fall
0.096668,0.0,0.0,0.0,-0.0534,0.081,-0.0326,-44.1274,14.3228,-4.8068,,0.014803999999999998,0.0,-0.000781040795497354,non_fall
0.097907,0.0,0.0,0.0,-0.0534,0.081,-0.0326,-44.1274,14.3228,-4.8068,,0.0012389999999999901,0.0,-0.0018069406873202631,non_fall
0.098734,0.0,0.0,0.0,-0.0534,0.081,-0.0326,-44.1274,14.3228,-4.8068,,0.0008270000000000083,0.0,-0.0028929337996960753,non_fall
0.132244,0.0,0.0,0.0,-0.0534,0.081,-0.0326,-44.2006,14.3228,-4.8312,,0.03351,0.0,-0.003913922200921311,non_fall
0.151817,0.0,0.0,0.0,-0.0272,0.0065,0.0031,-44.2006,14.3228,-4.8312,,0.019573000000000007,0.0,-0.0047126277129783956,non_fall
0.162305,0.0,0.0,0.0,-0.0272,0.0065,0.0031,-44.2006,14.3228,-4.8312,,0.010487999999999997,0.0,-0.005107791912218275,non_fall
0.163344,0.0,0.0,0.0,-0.0272,0.0065,0.0031,-44.2006,14.3228,-4.8312,,0.0010389999999999844,0.0,-0.004906956132934794,non_fall
0.164418,0.0,0.0,0.0,-0.0272,0.0065,0.0031,-44.2006,14.3228,-4.8312,,0.0010740000000000194,0.0,-0.003923377370197297,non_fall
0.16505,0.0,0.0,0.0,-0.0272,0.0065,0.0031,-44.2006,14.3228,-4.8312,,0.0006319999999999937,0.0,-0.001995989766589974,non_fall
0.193429,0.0,0.0,0.0,-0.0272,0.0065,0.0031,-44.225,14.3106,-4.8556,,0.028378999999999988,0.0,0.000989356212697745,non_fall
0.22225,0.0,0.0,0.0,-0.0103,0.0297,0.0016,-44.225,14.3106,-4.8556,,0.028821000000000013,0.0,0.005079765322773787,non_fall
0.230372,0.0,0.0,0.0,-0.0103,0.0297,0.0016,-44.225,14.3106,-4.8556,,0.00812199999999999,0.0,0.010239118076503635,non_fall
0.231238,0.0,0.0,0.0,-0.0103,0.0297,0.0016,-44.225,14.3106,-4.8556,,0.0008660000000000057,0.0,0.016338823090462112,non_fall
0.232117,0.0,0.0,0.0,-0.0103,0.0297,0.0016,-44.225,14.3106,-4.8556,,0.0008789999999999909,0.0,0.023158174295877146,non_fall
0.232802,0.0,0.0,0.0,-0.0103,0.0297,0.0016,-44.225,14.3106,-4.8556,,0.0006850000000000189,0.0,0.030396068251287503,non_fall
0.233443,0.0216,0.0585,-0.0131,-0.0103,0.0297,0.0016,-44.225,14.3106,-4.8556,,0.0006410000000000027,0.06372142496837307,0.03769420117113357,non_fall
0.251312,0.0216,0.0585,-0.0131,-0.0103,0.0297,0.0016,-44.2372,14.3472,-5.0264,,0.017868999999999968,0.06372142496837307,0.04466964544833112,non_fall
0.29319,0.0216,0.0585,-0.0131,0.0401,0.043,-0.0009,-44.2372,14.3472,-5.0264,,0.041878000000000026,0.06372142496837307,0.050952552065276095,non_fall
0.298922,0.0216,0.0585,-0.0131,0.0401,0.043,-0.0009,-44.2372,14.3472,-5.0264,,0.005732000000000015,0.06372142496837307,0.0562236297525818,non_fall
0.30009,0.0216,0.0585,-0.0131,0.0401,0.043,-0.0009,-44.2372,14.3472,-5.0264,,0.0011680000000000024,0.06372142496837307,0.060246531514963765,non_fall
0.300707,0.0216,0.0585,-0.0131,0.0401,0.043,-0.0009,-44.2372,14.3472,-5.0264,,0.0006169999999999787,0.06372142496837307,0.06289185760931178,non_fall
0.301848,0.0489,-0.0415,0.0011,0.0401,0.043,-0.0009,-44.2372,14.3472,-5.0264,,0.0011410000000000031,0.06414569354212331,0.06415121197240073,non_fall
0.310028,0.0489,-0.0415,0.0011,0.0401,0.043,-0.0009,-44.3226,14.335,-5.0996,,0.00818000000000002,0.06414569354212331,0.0641410208353219,non_fall
0.360691,0.0489,-0.0415,0.0011,0.024,0.0237,0.0129,-44.3226,14.335,-5.0996,,0.05066299999999996,0.06414569354212331,0.06309655311724773,non_fall
0.365604,0.0489,-0.0415,0.0011,0.024,0.0237,0.0129,-44.3226,14.335,-5.0996,,0.004913000000000001,0.06414569354212331,0.061356930949398494,non_fall
0.366212,0.0489,-0.0415,0.0011,0.024,0.0237,0.0129,-44.3226,14.335,-5.0996,,0.0006079999999999974,0.06414569354212331,0.059342078673321016,non_fall
0.36664,0.0489,-0.0415,0.0011,0.024,0.0237,0.0129,-44.3226,14.335,-5.0996,,0.00042800000000003946,0.06414569354212331,0.05752269963179376,non_fall
0.370024,0.0489,-0.0415,0.0011,0.024,0.0237,0.0129,-44.2738,14.2984,-5.0874,,0.003383999999999998,0.06414569354212331,0.05638462517148516,non_fall
0.370864,0.0513,0.0078,-0.0228,0.024,0.0237,0.0129,-44.2738,14.2984,-5.0874,,0.0008400000000000074,0.05667777342133334,0.0563893327555968,non_fall
0.429426,0.0513,0.0078,-0.0228,0.024,0.0237,0.0129,-44.2006,14.2374,-4.9166,,0.05856199999999995,0.05667777342133334,0.057933081552899196,non_fall
0.429941,0.0513,0.0078,-0.0228,-0.0145,0.0108,0.0127,-44.2006,14.2374,-4.9166,,0.0005150000000000432,0.05667777342133334,0.06130784510154672,non_fall
0.430497,0.0513,0.0078,-0.0228,-0.0145,0.0108,0.0127,-44.2006,14.2374,-4.9166,,0.0005560000000000009,0.05667777342133334,0.06666781049900847,non_fall
0.430869,0.0513,0.0078,-0.0228,-0.0145,0.0108,0.0127,-44.2006,14.2374,-4.9166,,0.00037199999999998346,0.05667777342133334,0.07400543888997181,non_fall
0.431199,0.0513,0.0078,-0.0228,-0.0145,0.0108,0.0127,-44.2006,14.2374,-4.9166,,0.00032999999999999696,0.05667777342133334,0.083140788438769,non_fall
0.431524,0.0513,0.0078,-0.0228,-0.0145,0.0108,0.0127,-44.2006,14.2374,-4.9166,,0.0003250000000000197,0.05667777342133334,0.09372685639305409,non_fall
0.439828,-0.0493,-0.019,-0.1236,-0.0145,0.0108,0.0127,-44.2006,14.2374,-4.9166,,0.008303999999999978,0.1344189346781174,0.10527195998252369,non_fall
0.489668,-0.0493,-0.019,-0.1236,-0.0145,0.0108,0.0127,-44.1762,14.1642,-4.8556,,0.049839999999999995,0.1344189346781174,0.1171777246200296,non_fall
0.496535,-0.0493,-0.019,-0.1236,-0.0145,0.0108,0.0127,-44.1762,14.1642,-4.8556,,0.006867000000000012,0.1344189346781174,0.1287887525093714,non_fall
0.497367,-0.0493,-0.019,-0.1236,-0.0145,0.0108,0.0127,-44.1762,14.1642,-4.8556,,0.0008319999999999994,0.1344189346781174,0.1394485847299934,non_fall
0.497951,-0.0493,-0.019,-0.1236,-0.0145,0.0108,0.0127,-44.1762,14.1642,-4.8556,,0.0005839999999999734,0.1344189346781174,0.14855665473626098,non_fall
0.498877,-0.0493,-0.019,-0.1236,0.0079,0.0663,0.002,-44.1762,14.1642,-4.8556,,0.0009260000000000379,0.1344189346781174,0.15562187689122756,non_fall
0.510212,0.178,-0.0215,-0.0573,0.0079,0.0663,0.002,-44.1762,14.1642,-4.8556,,0.011334999999999984,0.18822736251671804,0.16030911972696743,non_fall
0.550383,0.178,-0.0215,-0.0573,0.0079,0.0663,0.002,-44.1274,14.1154,-4.88,,0.04017099999999996,0.18822736251671804,0.16247452385539782,non_fall
0.563402,0.178,-0.0215,-0.0573,0.0079,0.0663,0.002,-44.1274,14.1154,-4.88,,0.013019000000000003,0.18822736251671804,0.16218496765753876,non_fall
0.564167,0.178,-0.0215,-0.0573,0.0079,0.0663,0.002,-44.1274,14.1154,-4.88,,0.0007650000000000157,0.18822736251671804,0.1597170817298491,non_fall
0.564595,0.178,-0.0215,-0.0573,0.0079,0.0663,0.002,-44.1274,14.1154,-4.88,,0.00042799999999998395,0.18822736251671804,0.1555328363825901,non_fall
0.569173,0.178,-0.0215,-0.0573,-0.0317,0.0868,-0.0027,-44.1274,14.1154,-4.88,,0.004578000000000082,0.18822736251671804,0.15023178160637418,non_fall
0.579343,0.0503,-0.0033,0.0866,-0.0317,0.0868,-0.0027,-44.1274,14.1154,-4.88,,0.010170000000000012,0.10020249497891756,0.14448390914161874,non_fall
0.608257,0.0503,-0.0033,0.0866,-0.0317,0.0868,-0.0027,-44.1152,14.1276,-5.0386,,0.028913999999999995,0.10020249497891756,0.13895113974878853,non_fall
0.630261,0.0503,-0.0033,0.0866,-0.0317,0.0868,-0.0027,-44.1152,14.1276,-5.0386,,0.022003999999999913,0.10020249497891756,0.13420860042303873,non_fall
0.631462,0.0503,-0.0033,0.0866,-0.0317,0.0868,-0.0027,-44.1152,14.1276,-5.0386,,0.0012010000000000076,0.10020249497891756,0.1306778271060486,non_fall
0.632581,0.0503,-0.0033,0.0866,-0.0317,0.0868,-0.0027,-44.1152,14.1276,-5.0386,,0.0011189999999999811,0.10020249497891756,0.12858215413198604,non_fall
0.633367,0.0503,-0.0033,0.0866,-0.0317,0.0868,-0.0027,-44.1152,14.1276,-5.0386,,0.0007860000000000644,0.10020249497891756,0.12793053486145678,non_fall
0.638723,0.0503,-0.0033,0.0866,-0.0924,0.0409,0.0172,-44.1152,14.1276,-5.0386,,0.005356000000000027,0.10020249497891756,0.12853122707684206,non_fall
0.649616,0.0426,0.0878,0.1314,-0.0924,0.0409,0.0172,-44.1152,14.1276,-5.0386,,0.01089299999999993,0.1636751661065294,0.13003208750176856,non_fall
0.671893,0.0426,0.0878,0.1314,-0.0924,0.0409,0.0172,-44.103,14.1032,-5.1606,,0.02227699999999999,0.1636751661065294,0.1319800891968755,non_fall
0.699317,0.0426,0.0878,0.1314,-0.0924,0.0409,0.0172,-44.103,14.1032,-5.1606,,0.027424000000000004,0.1636751661065294,0.13388971142309808,non_fall
0.700774,0.0426,0.0878,0.1314,-0.0924,0.0409,0.0172,-44.103,14.1032,-5.1606,,0.0014570000000000416,0.1636751661065294,0.13530893095803417,non_fall
0.701454,0.0426,0.0878,0.1314,-0.0924,0.0409,0.0172,-44.103,14.1032,-5.1606,,0.0006800000000000139,0.1636751661065294,0.13587306736446955,non_fall
0.709546,0.0426,0.0878,0.1314,-0.1117,0.0224,0.0241,-44.103,14.1032,-5.1606,,0.008091999999999988,0.1636751661065294,0.1353401191950057,non_fall
0.720162,-0.0527,0.0297,0.0904,-0.1117,0.0224,0.0241,-44.103,14.1032,-5.1606,,0.010615999999999959,0.10877288265004287,0.1336054007084257,non_fall
0.729873,-0.0527,0.0297,0.0904,-0.1117,0.0224,0.0241,-44.0786,14.1154,-5.2582,,0.009711000000000025,0.10877288265004287,0.13069734120908308,non_fall
0.764269,-0.0527,0.0297,0.0904,-0.1117,0.0224,0.0241,-44.0786,14.1154,-5.2582,,0.03439599999999998,0.10877288265004287,0.126759448323783,non_fall
0.765593,-0.0527,0.0297,0.0904,-0.1117,0.0224,0.0241,-44.0786,14.1154,-5.2582,,0.0013239999999999919,0.10877288265004287,0.12202486892497666,non_fall
0.766229,-0.0527,0.0297,0.0904,-0.1117,0.0224,0.0241,-44.0786,14.1154,-5.2582,,0.0006360000000000809,0.10877288265004287,0.11678941749033372,non_fall
0.777903,-0.0527,0.0297,0.0904,-0.1316,0.0225,0.0252,-44.0786,14.1154,-5.2582,,0.011673999999999962,0.10877288265004287,0.11138699140356484,non_fall
0.78836,-0.0527,0.0297,0.0904,-0.1316,0.0225,0.0252,-44.0054,14.1154,-5.307,,0.010456999999999939,0.10877288265004287,0.10616899863382091,non_fall
0.789238,0.0177,0.0343,0.0987,-0.1316,0.0225,0.0252,-44.0054,14.1154,-5.307,,0.0008780000000000454,0.10597862992131951,0.10148753763224862,non_fall
0.830033,0.0177,0.0343,0.0987,-0.1316,0.0225,0.0252,-44.0054,14.1154,-5.307,,0.040795000000000026,0.10597862992131951,0.09768087528180791,non_fall
0.831158,0.0177,0.0343,0.0987,-0.1316,0.0225,0.0252,-44.0054,14.1154,-5.307,,0.0011249999999999316,0.10597862992131951,0.09505928798890148,non_fall
0.831971,0.0177,0.0343,0.0987,-0.1316,0.0225,0.0252,-44.0054,14.1154,-5.307,,0.0008130000000000637,0.10597862992131951,0.09388948972595194,non_fall
0.832586,0.0177,0.0343,0.0987,-0.1316,0.0225,0.0252,-44.0054,14.1154,-5.307,,0.0006150000000000322,0.10597862992131951,0.09437656760518644,non_fall
0.850353,0.0177,0.0343,0.0987,-0.1575,0.0141,0.0261,-44.0054,14.1154,-5.307,,0.017766999999999977,0.10597862992131951,0.09664347628800087,non_fall
0.851341,0.0177,0.0343,0.0987,-0.1575,0.0141,0.0261,-43.981,14.1642,-5.3924,,0.0009879999999999889,0.10597862992131951,0.10070958187195285,non_fall
0.861011,-0.0029,-0.089,-0.0226,-0.1575,0.0141,0.0261,-43.981,14.1642,-5.3924,,0.009669999999999956,0.09187039784391923,0.10647130980145968,non_fall
0.898121,-0.0029,-0.089,-0.0226,-0.1575,0.0141,0.0261,-43.981,14.1642,-5.3924,,0.037109999999999976,0.09187039784391923,0.11368935704837924,non_fall
0.899337,-0.0029,-0.089,-0.0226,-0.1575,0.0141,0.0261,-43.981,14.1642,-5.3924,,0.0012160000000001059,0.09187039784391923,0.12198776076043676,non_fall
0.900426,-0.0029,-0.089,-0.0226,-0.1575,0.0141,0.0261,-43.981,14.1642,-5.3924,,0.0010889999999998956,0.09187039784391923,0.13086989017098483,non_fall
0.920321,-0.0029,-0.089,-0.0226,-0.1575,0.0141,0.0261,-44.0054,14.2862,-5.6608,,0.019894999999999996,0.09187039784391923,0.13975479518363246,non_fall
0.921402,-0.0029,-0.089,-0.0226,-0.1971,0.0128,0.0222,-44.0054,14.2862,-5.6608,,0.0010810000000001097,0.09187039784391923,0.14803422047923948,non_fall
0.928945,-0.0532,0.0979,-0.1865,-0.1971,0.0128,0.0222,-44.0054,14.2862,-5.6608,,0.007542999999999966,0.21724847525356766,0.15514613820741172,non_fall
0.965138,-0.0532,0.0979,-0.1865,-0.1971,0.0128,0.0222,-44.0054,14.2862,-5.6608,,0.03619300000000003,0.21724847525356766,0.1606554692764252,non_fall
0.966389,-0.0532,0.0979,-0.1865,-0.1971,0.0128,0.0222,-44.0054,14.2862,-5.6608,,0.0012510000000000021,0.21724847525356766,0.1643282839258824,non_fall
0.967011,-0.0532,0.0979,-0.1865,-0.1971,0.0128,0.0222,-44.0054,14.2862,-5.6608,,0.0006219999999999004,0.21724847525356766,0.16618434689459186,non_fall
0.978053,-0.0532,0.0979,-0.1865,-0.1971,0.0128,0.0222,-43.9688,14.4082,-5.856,,0.011041999999999996,0.21724847525356766,0.16651558684555273,non_fall
0.989496,-0.0532,0.0979,-0.1865,-0.1722,0.0282,0.0244,-43.9688,14.4082,-5.856,,0.011443000000000092,0.21724847525356766,0.16586410614002098,non_fall
0.999127,0.0643,0.0967,0.0568,-0.1722,0.0282,0.0244,-43.9688,14.4082,-5.856,,0.009630999999999945,0.12927343114499593,0.16496083504132017,non_fall
1.030352,0.0643,0.0967,0.0568,-0.1722,0.0282,0.0244,-43.9688,14.4082,-5.856,,0.031224999999999947,0.12927343114499593,0.164633276673082,non_fall
1.031465,0.0643,0.0967,0.0568,-0.1722,0.0282,0.0244,-43.9688,14.4082,-5.856,,0.0011130000000001417,0.12927343114499593,0.16569663277361552,non_fall
1.032238,0.0643,0.0967,0.0568,-0.1722,0.0282,0.0244,-43.9688,14.4082,-5.856,,0.0007729999999999126,0.12927343114499593,0.168845548490408,non_fall
1.032874,0.0643,0.0967,0.0568,-0.1722,0.0282,0.0244,-43.9688,14.4082,-5.856,,0.0006360000000000809,0.12927343114499593,0.17456306919065898,non_fall
1.037386,0.0643,0.0967,0.0568,-0.1722,0.0282,0.0244,-43.9688,14.457,-5.795,,0.0045119999999998495,0.12927343114499593,0.18305980108916348,non_fall
1.057892,0.0643,0.0967,0.0568,-0.0864,0.0949,-0.0015,-43.9688,14.457,-5.795,,0.020506000000000135,0.12927343114499593,0.19425096311921625,non_fall
1.067072,0.0683,-0.0551,0.2517,-0.0864,0.0949,-0.0015,-43.9688,14.457,-5.795,,0.009179999999999966,0.26655916791586814,0.20777283911530214,non_fall
1.098598,0.0683,-0.0551,0.2517,-0.0864,0.0949,-0.0015,-43.8956,14.4448,-5.6974,,0.03152599999999994,0.26655916791586814,0.22303366485444068,non_fall
1.102549,0.0683,-0.0551,0.2517,-0.0864,0.0949,-0.0015,-43.8956,14.4448,-5.6974,,0.003951000000000038,0.26655916791586814,0.2392885003280784,non_fall
1.105086,0.0683,-0.0551,0.2517,-0.0864,0.0949,-0.0015,-43.8956,14.4448,-5.6974,,0.0025370000000000115,0.26655916791586814,0.25572503320917445,forward_fall
1.108256,0.0683,-0.0551,0.2517,-0.0864,0.0949,-0.0015,-43.8956,14.4448,-5.6974,,0.003169999999999895,0.26655916791586814,0.27154834483853973,forward_fall
1.127868,0.0683,-0.0551,0.2517,-0.0694,0.049,-0.0048,-43.8956,14.4448,-5.6974,,0.019612000000000185,0.26655916791586814,0.2860560795875457,forward_fall
1.137804,0.0713,-0.0579,0.3197,-0.0694,0.049,-0.0048,-43.8956,14.4448,-5.6974,,0.009935999999999945,0.3326322143148495,0.29869883795940544,forward_fall
1.157596,0.0713,-0.0579,0.3197,-0.0694,0.049,-0.0048,-43.8468,14.4448,-5.5998,,0.019792000000000032,0.3326322143148495,0.30912259516679497,forward_fall
1.163057,0.0713,-0.0579,0.3197,-0.0694,0.049,-0.0048,-43.8468,14.4448,-5.5998,,0.005460999999999938,0.3326322143148495,0.31719082048609926,forward_fall
1.165254,0.0713,-0.0579,0.3197,-0.0694,0.049,-0.0048,-43.8468,14.4448,-5.5998,,0.0021970000000000045,0.3326322143148495,0.3229849182073783,forward_fall
1.166517,0.0713,-0.0579,0.3197,-0.0694,0.049,-0.0048,-43.8468,14.4448,-5.5998,,0.0012630000000000141,0.3326322143148495,0.3267834225936273,forward_fall
1.198391,0.0713,-0.0579,0.3197,-0.0635,0.0916,-0.0213,-43.8468,14.4448,-5.5998,,0.03187399999999996,0.3326322143148495,0.32902281619217477,forward_fall
1.207323,-0.056,0.0466,0.3055,-0.0635,0.0916,-0.0213,-43.8468,14.4448,-5.5998,,0.00893199999999994,0.31406656937662114,0.3302451295009281,forward_fall
1.216854,-0.056,0.0466,0.3055,-0.0635,0.0916,-0.0213,-43.798,14.4082,-5.4778,,0.009531000000000178,0.31406656937662114,0.33103908213636246,forward_fall
1.229986,-0.056,0.0466,0.3055,-0.0635,0.0916,-0.0213,-43.798,14.4082,-5.4778,,0.013131999999999922,0.31406656937662114,0.33198222894048174,forward_fall
1.231986,-0.056,0.0466,0.3055,-0.0635,0.0916,-0.0213,-43.798,14.4082,-5.4778,,0.0020000000000000018,0.31406656937662114,0.3335912538991863,forward_fall
1.233359,-0.056,0.0466,0.3055,-0.0635,0.0916,-0.0213,-43.798,14.4082,-5.4778,,0.0013730000000000686,0.31406656937662114,0.3362862035287746,forward_fall
1.234692,-0.056,0.0466,0.3055,-0.0635,0.0916,-0.0213,-43.798,14.4082,-5.4778,,0.0013329999999998066,0.31406656937662114,0.3403722874485515,forward_fall
1.267235,-0.056,0.0466,0.3055,-0.0858,0.1105,-0.0248,-43.798,14.4082,-5.4778,,0.03254299999999999,0.31406656937662114,0.34604018797400904,forward_fall
1.278633,0.1449,0.1577,0.3379,-0.0858,0.1105,-0.0248,-43.798,14.4082,-5.4778,,0.01139800000000002,0.4000521341025442,0.3533827944597538,forward_fall
1.281808,0.1449,0.1577,0.3379,-0.0858,0.1105,-0.0248,-43.7492,14.4692,-5.5876,,0.00317500000000015,0.4000521341025442,0.36242319413392365,forward_fall
1.298305,0.1449,0.1577,0.3379,-0.0858,0.1105,-0.0248,-43.7492,14.4692,-5.5876,,0.016496999999999984,0.4000521341025442,0.3731464359947599,forward_fall
1.300742,0.1449,0.1577,0.3379,-0.0858,0.1105,-0.0248,-43.7492,14.4692,-5.5876,,0.0024370000000000225,0.4000521341025442,0.38552722628003055,forward_fall
1.302634,0.1449,0.1577,0.3379,-0.0858,0.1105,-0.0248,-43.7492,14.4692,-5.5876,,0.0018920000000000048,0.4000521341025442,0.3995477777934435,forward_fall
1.33737,0.1449,0.1577,0.3379,-0.0858,0.1105,-0.0248,-43.737,14.4204,-5.7218,,0.03473599999999988,0.4000521341025442,0.4152035662248836,forward_fall
1.341659,0.1449,0.1577,0.3379,-0.047,0.1,-0.0554,-43.737,14.4204,-5.7218,,0.004288999999999987,0.4000521341025442,0.4324980823466547,forward_fall
1.348321,-0.0164,0.0974,0.4809,-0.047,0.1,-0.0554,-43.737,14.4204,-5.7218,,0.006662000000000168,0.49093841772670427,0.45142960528695225,forward_fall
1.363555,-0.0164,0.0974,0.4809,-0.047,0.1,-0.0554,-43.737,14.4204,-5.7218,,0.01523399999999997,0.49093841772670427,0.4719733315675168,forward_fall
1.365548,-0.0164,0.0974,0.4809,-0.047,0.1,-0.0554,-43.737,14.4204,-5.7218,,0.0019929999999999115,0.49093841772670427,0.4940616464181241,forward_fall
1.366928,-0.0164,0.0974,0.4809,-0.047,0.1,-0.0554,-43.737,14.4204,-5.7218,,0.0013799999999999368,0.49093841772670427,0.5175651652375093,forward_fall
1.397537,-0.0164,0.0974,0.4809,-0.047,0.1,-0.0554,-43.7004,14.3228,-5.8194,,0.03060900000000011,0.49093841772670427,0.5422779078705119,forward_fall
1.408249,-0.0164,0.0974,0.4809,-0.0321,0.0004,-0.0238,-43.7004,14.3228,-5.8194,,0.010712000000000055,0.49093841772670427,0.5679106149356856,forward_fall
1.417919,0.0411,0.1752,0.6479,-0.0321,0.0004,-0.0238,-43.7004,14.3228,-5.8194,,0.009669999999999845,0.6724274384645529,0.5940951652479108,forward_fall
1.429944,0.0411,0.1752,0.6479,-0.0321,0.0004,-0.0238,-43.7004,14.3228,-5.8194,,0.012025000000000174,0.6724274384645529,0.6203997841565854,forward_fall
1.432028,0.0411,0.1752,0.6479,-0.0321,0.0004,-0.0238,-43.7004,14.3228,-5.8194,,0.0020839999999999748,0.6724274384645529,0.6463508300046066,forward_fall
1.433611,0.0411,0.1752,0.6479,-0.0321,0.0004,-0.0238,-43.7004,14.3228,-5.8194,,0.00158299999999989,0.6724274384645529,0.671455209377488,forward_fall
1.435145,0.0411,0.1752,0.6479,-0.0321,0.0004,-0.0238,-43.7004,14.3228,-5.8194,,0.0015339999999999243,0.6724274384645529,0.6952193175147408,forward_fall
1.457972,0.0411,0.1752,0.6479,-0.0321,0.0004,-0.0238,-43.7004,14.213,-5.9292,,0.022827000000000153,0.6724274384645529,0.7171643266146481,forward_fall
1.47768,0.0411,0.1752,0.6479,-0.0257,0.0602,-0.1551,-43.7004,14.213,-5.9292,,0.01970800000000006,0.6724274384645529,0.736840728346367,forward_fall
1.486313,-0.2269,0.5231,0.5664,-0.0257,0.0602,-0.1551,-43.7004,14.213,-5.9292,,0.00863299999999989,0.8036953278450734,0.7538453537234154,forward_fall
1.49673,-0.2269,0.5231,0.5664,-0.0257,0.0602,-0.1551,-43.7004,14.213,-5.9292,,0.010416999999999899,0.8036953278450734,0.7678416364632085,forward_fall
1.498991,-0.2269,0.5231,0.5664,-0.0257,0.0602,-0.1551,-43.7004,14.213,-5.9292,,0.0022610000000000685,0.8036953278450734,0.7785803565218621,forward_fall
1.50034,-0.2269,0.5231,0.5664,-0.0257,0.0602,-0.1551,-43.7004,14.213,-5.9292,,0.0013490000000000446,0.8036953278450734,0.7859159871510465,forward_fall
1.516144,-0.2269,0.5231,0.5664,-0.0257,0.0602,-0.1551,-43.7248,14.0544,-6.2342,,0.01580399999999993,0.8036953278450734,0.7898145401499186,forward_fall
1.546401,-0.2269,0.5231,0.5664,-0.0485,0.1746,-0.1917,-43.7248,14.0544,-6.2342,,0.03025699999999998,0.8036953278450734,0.7903518211277436,forward_fall
1.557924,0.3069,0.3525,0.5839,-0.0485,0.1746,-0.1917,-43.7248,14.0544,-6.2342,,0.011523000000000172,0.7479191600701242,0.7877045556199244,forward_fall
1.563535,0.3069,0.3525,0.5839,-0.0485,0.1746,-0.1917,-43.7248,14.0544,-6.2342,,0.005610999999999811,0.7479191600701242,0.7821396541183209,forward_fall
1.565371,0.3069,0.3525,0.5839,-0.0485,0.1746,-0.1917,-43.7248,14.0544,-6.2342,,0.0018360000000001708,0.7479191600701242,0.7740082564509492,forward_fall
1.566584,0.3069,0.3525,0.5839,-0.0485,0.1746,-0.1917,-43.7248,14.0544,-6.2342,,0.0012129999999999086,0.7479191600701242,0.7637506302858763,forward_fall
1.576757,0.3069,0.3525,0.5839,-0.0485,0.1746,-0.1917,-43.7736,13.8348,-6.5758,,0.010172999999999988,0.7479191600701242,0.7519155011955226,forward_fall
1.616099,0.3069,0.3525,0.5839,-0.0028,0.1535,-0.1079,-43.7736,13.8348,-6.5758,,0.03934199999999999,0.7479191600701242,0.739193845264313,forward_fall
1.626116,-0.0374,0.6407,0.3294,-0.0028,0.1535,-0.1079,-43.7736,13.8348,-6.5758,,0.010016999999999943,0.7213872815624075,0.7264638508787018,forward_fall
1.629481,-0.0374,0.6407,0.3294,-0.0028,0.1535,-0.1079,-43.7736,13.8348,-6.5758,,0.0033650000000000624,0.7213872815624075,0.714841501368968,forward_fall
1.633029,-0.0374,0.6407,0.3294,-0.0028,0.1535,-0.1079,-43.7736,13.8348,-6.5758,,0.0035480000000001066,0.7213872815624075,0.7057301771968482,forward_fall
1.636398,-0.0374,0.6407,0.3294,-0.0028,0.1535,-0.1079,-43.7736,13.8348,-6.5758,,0.0033689999999999554,0.7213872815624075,0.700862527182607,forward_fall
1.637854,-0.0374,0.6407,0.3294,-0.0028,0.1535,-0.1079,-43.7736,13.8348,-6.5758,,0.0014559999999999018,0.7213872815624075,0.7023283606615792,forward_fall
1.6391,-0.0374,0.6407,0.3294,-0.0028,0.1535,-0.1079,-43.7614,13.5786,-6.9662,,0.0012460000000000804,0.7213872815624075,0.712583475277737,forward_fall
1.686302,-0.0374,0.6407,0.3294,-0.1169,-0.014,-0.063,-43.7614,13.5786,-6.9662,,0.047201999999999966,0.7213872815624075,0.7344361683872646,forward_fall
1.701637,-0.0374,0.6407,0.3294,-0.1169,-0.014,-0.063,-43.798,13.2492,-7.3444,,0.015335000000000099,0.7213872815624075,0.7710103053512495,forward_fall
1.704074,-0.0374,0.6407,0.3294,-0.1169,-0.014,-0.063,-43.798,13.2492,-7.3444,,0.0024370000000000225,0.7213872815624075,0.8256853398704574,forward_fall
1.705789,-0.0374,0.6407,0.3294,-0.1169,-0.014,-0.063,-43.798,13.2492,-7.3444,,0.001714999999999911,0.7213872815624075,0.9020132446172219,forward_fall
1.707407,-0.0374,0.6407,0.3294,-0.1169,-0.014,-0.063,-43.798,13.2492,-7.3444,,0.0016179999999998973,0.7213872815624075,1.0036081278616515,forward_fall
1.708664,-0.1421,1.727,0.4334,-0.1169,-0.014,-0.063,-43.798,13.2492,-7.3444,,0.0012570000000000636,1.786213024809751,1.133994761171468,forward_fall
1.758752,-0.1421,1.727,0.4334,-0.3318,0.3232,-0.1112,-43.798,13.2492,-7.3444,,0.05008800000000013,1.786213024809751,1.2963889537589353,forward_fall
1.764146,-0.1421,1.727,0.4334,-0.3318,0.3232,-0.1112,-43.8468,12.7856,-7.6616,,0.005393999999999899,1.786213024809751,1.4933749105506906,forward_fall
1.767017,-0.1421,1.727,0.4334,-0.3318,0.3232,-0.1112,-43.8468,12.7856,-7.6616,,0.002871000000000068,1.786213024809751,1.7264561099571727,forward_fall
1.768997,-0.1421,1.727,0.4334,-0.3318,0.3232,-0.1112,-43.8468,12.7856,-7.6616,,0.0019799999999998708,1.786213024809751,1.9954913048304586,forward_fall
1.770304,-0.1421,1.727,0.4334,-0.3318,0.3232,-0.1112,-43.8468,12.7856,-7.6616,,0.0013070000000001691,1.786213024809751,2.298072542562907,forward_fall
1.771557,-0.5054,3.167,0.0306,-0.3318,0.3232,-0.1112,-43.8468,12.7856,-7.6616,,0.0012529999999999486,3.20721912566011,2.6289359451424343,forward_fall
1.815195,-0.5054,3.167,0.0306,-0.3318,0.3232,-0.1112,-43.7736,12.261,-8.1374,,0.043637999999999844,3.20721912566011,2.979506564478787,forward_fall
1.826453,-0.5054,3.167,0.0306,-0.7707,0.897,-0.1587,-43.7736,12.261,-8.1374,,0.011258000000000212,3.20721912566011,3.3376731673054545,forward_fall
1.830071,-0.5054,3.167,0.0306,-0.7707,0.897,-0.1587,-43.7736,12.261,-8.1374,,0.003617999999999899,3.20721912566011,3.6878853982135387,forward_fall
1.833311,-0.5054,3.167,0.0306,-0.7707,0.897,-0.1587,-43.7736,12.261,-8.1374,,0.0032399999999999096,3.20721912566011,4.011672322393189,forward_fall
1.835467,-0.5054,3.167,0.0306,-0.7707,0.897,-0.1587,-43.7736,12.261,-8.1374,,0.0021560000000000468,3.20721912566011,4.2886837513120994,forward_fall
1.837556,-0.5054,3.167,0.0306,-0.7707,0.897,-0.1587,-43.7736,12.261,-8.1374,,0.0020890000000000075,3.20721912566011,4.498330027887777,forward_fall
1.839456,0.3086,4.4386,1.0765,-0.7707,0.897,-0.1587,-43.7736,12.261,-8.1374,,0.0019000000000000128,4.577691139646711,4.622027835676447,forward_fall
1.875119,0.3086,4.4386,1.0765,-0.7707,0.897,-0.1587,-43.7248,11.7852,-8.7962,,0.035663,4.577691139646711,4.645953107326152,forward_fall
1.897808,0.3086,4.4386,1.0765,-1.6095,0.1337,0.0957,-43.7248,11.7852,-8.7962,,0.02268899999999996,4.577691139646711,4.564079502934914,forward_fall
1.901733,0.3086,4.4386,1.0765,-1.6095,0.1337,0.0957,-43.7248,11.7852,-8.7962,,0.003924999999999956,4.577691139646711,4.381174491751075,forward_fall
1.903252,0.3086,4.4386,1.0765,-1.6095,0.1337,0.0957,-43.7248,11.7852,-8.7962,,0.001519000000000048,4.577691139646711,4.115358222270021,forward_fall
1.905517,0.3086,4.4386,1.0765,-1.6095,0.1337,0.0957,-43.7248,11.7852,-8.7962,,0.0022649999999999615,4.577691139646711,3.799805665041434,forward_fall
1.906996,0.5088,5.0874,1.6516,-1.6095,0.1337,0.0957,-43.7248,11.7852,-8.7962,,0.001479000000000008,5.37292273906856,3.483182211362719,forward_fall
1.937049,0.5088,5.0874,1.6516,-1.6095,0.1337,0.0957,-43.615,11.5168,-9.4184,,0.030053000000000107,5.37292273906856,3.2284474111530215,forward_fall
1.96587,0.5088,5.0874,1.6516,-4.0271,-1.4635,0.9448,-43.615,11.5168,-9.4184,,0.028820999999999986,5.37292273906856,3.109754791516498,forward_fall
1.970276,0.5088,5.0874,1.6516,-4.0271,-1.4635,0.9448,-43.615,11.5168,-9.4184,,0.00440599999999991,5.37292273906856,3.2073351972727786,forward_fall
1.973265,0.5088,5.0874,1.6516,-4.0271,-1.4635,0.9448,-43.615,11.5168,-9.4184,,0.0029890000000001304,5.37292273906856,3.6004814847172217,forward_fall
1.975719,0.5088,5.0874,1.6516,-4.0271,-1.4635,0.9448,-43.615,11.5168,-9.4184,,0.002453999999999956,5.37292273906856,4.3590362937235385,forward_fall
1.978388,0.5088,5.0874,1.6516,-4.0271,-1.4635,0.9448,-43.615,11.5168,-9.4184,,0.0026690000000000325,5.37292273906856,5.534087737117493,forward_fall
1.980974,-2.7866,4.0844,-3.4361,-4.0271,-1.4635,0.9448,-43.615,11.5168,-9.4184,,0.002585999999999977,6.021149900974065,7.1488589937942475,forward_fall
1.996663,-2.7866,4.0844,-3.4361,-4.0271,-1.4635,0.9448,-43.554,11.9804,-9.4062,,0.015689000000000064,6.021149900974065,9.190993465320828,forward_fall
2.031484,-2.7866,4.0844,-3.4361,-4.0271,-1.4635,0.9448,-43.554,11.9804,-9.4062,,0.03482099999999977,6.021149900974065,11.607542443607406,forward_fall
2.035454,-2.7866,4.0844,-3.4361,-4.0271,-1.4635,0.9448,-43.554,11.9804,-9.4062,,0.003970000000000251,6.021149900974065,14.303909367853786,forward_fall
2.037894,-2.7866,4.0844,-3.4361,-4.0271,-1.4635,0.9448,-43.554,11.9804,-9.4062,,0.0024399999999999977,6.021149900974065,17.147738229558712,forward_fall
2.040997,-2.7866,4.0844,-3.4361,-4.5299,1.8703,-0.9164,-43.554,11.9804,-9.4062,,0.003102999999999856,6.021149900974065,19.978189918403487,forward_fall
2.051038,-1.7443,-26.0451,-23.6066,-4.5299,1.8703,-0.9164,-43.554,11.9804,-9.4062,,0.010041000000000189,35.1946214649341,22.620185530338563,forward_fall
2.05636,-1.7443,-26.0451,-23.6066,-4.5299,1.8703,-0.9164,-43.4076,12.4562,-9.0402,,0.005322000000000049,35.1946214649341,24.902085390290452,forward_fall
2.096923,-1.7443,-26.0451,-23.6066,-4.5299,1.8703,-0.9164,-43.4076,12.4562,-9.0402,,0.04056299999999968,35.1946214649341,26.674238096417287,forward_fall
2.101239,-1.7443,-26.0451,-23.6066,-4.5299,1.8703,-0.9164,-43.4076,12.4562,-9.0402,,0.0043160000000002086,35.1946214649341,27.825357805758,forward_fall
2.104265,-1.7443,-26.0451,-23.6066,-4.5299,1.8703,-0.9164,-43.4076,12.4562,-9.0402,,0.003025999999999751,35.1946214649341,28.29403745606347,forward_fall
2.106278,-1.7443,-26.0451,-23.6066,-4.144,-0.2426,-0.0244,-43.4076,12.4562,-9.0402,,0.0020130000000002646,35.1946214649341,28.073692048521306,forward_fall
2.116263,-1.7443,-26.0451,-23.6066,-4.144,-0.2426,-0.0244,-43.4686,13.0418,-8.3082,,0.00998499999999991,35.1946214649341,27.21044156755914,forward_fall
2.118015,2.8408,-2.2542,14.3485,-4.144,-0.2426,-0.0244,-43.4686,13.0418,-8.3082,,0.0017520000000001978,14.799696433711064,25.79461960899746,forward_fall
2.166151,2.8408,-2.2542,14.3485,-4.144,-0.2426,-0.0244,-43.4686,13.0418,-8.3082,,0.04813599999999996,14.799696433711064,23.947622473343134,forward_fall
2.170832,2.8408,-2.2542,14.3485,-4.144,-0.2426,-0.0244,-43.4686,13.0418,-8.3082,,0.004680999999999713,14.799696433711064,21.806533947811563,forward_fall
2.176175,2.8408,-2.2542,14.3485,-4.144,-0.2426,-0.0244,-43.4686,13.0418,-8.3082,,0.00534300000000032,14.799696433711064,19.50912853694167,forward_fall
2.178178,2.8408,-2.2542,14.3485,-4.144,-0.2426,-0.0244,-43.4686,13.0418,-8.3082,,0.002002999999999755,14.799696433711064,17.18138149456036,forward_fall
2.180123,2.8408,-2.2542,14.3485,-3.6814,-0.6826,0.3702,-43.4686,13.0418,-8.3082,,0.0019450000000000855,14.799696433711064,14.92872742423749,forward_fall
2.182139,2.8408,-2.2542,14.3485,-3.6814,-0.6826,0.3702,-43.4076,13.5176,-7.0882,,0.0020159999999997957,14.799696433711064,12.831389190772496,forward_fall
2.19013,-4.5039,1.0629,8.314,-3.6814,-0.6826,0.3702,-43.4076,13.5176,-7.0882,,0.007991000000000081,9.515117845828291,10.943406521231887,forward_fall
2.231818,-4.5039,1.0629,8.314,-3.6814,-0.6826,0.3702,-43.4076,13.5176,-7.0882,,0.04168800000000017,9.515117845828291,9.294598403798323,forward_fall
2.236107,-4.5039,1.0629,8.314,-3.6814,-0.6826,0.3702,-43.4076,13.5176,-7.0882,,0.004288999999999987,9.515117845828291,7.894537511815177,forward_fall
2.237316,-4.5039,1.0629,8.314,-3.6814,-0.6826,0.3702,-43.4076,13.5176,-7.0882,,0.0012089999999997936,9.515117845828291,6.737592082946441,forward_fall
2.238446,-4.5039,1.0629,8.314,-3.6814,-0.6826,0.3702,-43.2734,14.2008,-5.063,,0.0011300000000002974,9.515117845828291,5.808129687540285,forward_fall
2.243382,-4.5039,1.0629,8.314,-3.1184,-1.4446,0.429,-43.2734,14.2008,-5.063,,0.004935999999999829,9.515117845828291,5.085088583618959,forward_fall
2.253475,1.3436,0.0691,2.3548,-3.1184,-1.4446,0.429,-43.2734,14.2008,-5.063,,0.010092999999999908,2.712032228790801,4.5453535832665475,forward_fall
2.295428,1.3436,0.0691,2.3548,-3.1184,-1.4446,0.429,-43.0294,14.7254,-2.0374,,0.04195299999999991,2.712032228790801,4.165723637490821,forward_fall
2.299122,1.3436,0.0691,2.3548,-3.1184,-1.4446,0.429,-43.0294,14.7254,-2.0374,,0.003694000000000308,2.712032228790801,3.9236363289676457,forward_fall
2.302555,1.3436,0.0691,2.3548,-3.1184,-1.4446,0.429,-43.0294,14.7254,-2.0374,,0.0034329999999997973,2.712032228790801,3.797080953467521,forward_fall
2.305278,1.3436,0.0691,2.3548,-3.1184,-1.4446,0.429,-43.0294,14.7254,-2.0374,,0.002723000000000031,2.712032228790801,3.764203592337767,forward_fall
2.315152,1.3436,0.0691,2.3548,-2.7524,-1.3557,0.0202,-43.0294,14.7254,-2.0374,,0.009873999999999938,2.712032228790801,3.803016291774975,forward_fall
2.323248,0.5843,-4.1546,-0.8665,-2.7524,-1.3557,0.0202,-43.0294,14.7254,-2.0374,,0.008096000000000103,4.2840319676678424,3.8914600705905196,forward_fall
2.353141,0.5843,-4.1546,-0.8665,-2.7524,-1.3557,0.0202,-42.639,14.9206,1.7324,,0.029892999999999947,4.2840319676678424,4.007906837306838,forward_fall
2.36338,0.5843,-4.1546,-0.8665,-2.7524,-1.3557,0.0202,-42.639,14.9206,1.7324,,0.010238999999999887,4.2840319676678424,4.13205070691119,forward_fall
2.365582,0.5843,-4.1546,-0.8665,-2.7524,-1.3557,0.0202,-42.639,14.9206,1.7324,,0.0022020000000000373,4.2840319676678424,4.246053690911339,forward_fall
2.367164,0.5843,-4.1546,-0.8665,-2.7524,-1.3557,0.0202,-42.639,14.9206,1.7324,,0.0015819999999999723,4.2840319676678424,4.3357796600525385,forward_fall
2.36943,0.5843,-4.1546,-0.8665,-2.7524,-1.3557,0.0202,-42.639,14.9206,1.7324,,0.0022660000000001013,4.2840319676678424,4.3919565272676175,forward_fall
2.383105,0.5843,-4.1546,-0.8665,-0.6844,-0.649,-0.1711,-42.639,14.9206,1.7324,,0.013675000000000104,4.2840319676678424,4.411122430134518,forward_fall
2.400725,5.063,-0.3343,0.9314,-0.6844,-0.649,-0.1711,-42.639,14.9206,1.7324,,0.01761999999999997,5.158801357873745,4.396220356197879,forward_fall
2.414095,5.063,-0.3343,0.9314,-0.6844,-0.649,-0.1711,-42.2852,14.8718,5.5144,,0.013370000000000104,5.158801357873745,4.356707215297817,forward_fall
2.430048,5.063,-0.3343,0.9314,-0.6844,-0.649,-0.1711,-42.2852,14.8718,5.5144,,0.015953000000000106,5.158801357873745,4.308051340447734,forward_fall
2.432195,5.063,-0.3343,0.9314,-0.6844,-0.649,-0.1711,-42.2852,14.8718,5.5144,,0.002146999999999899,5.158801357873745,4.270525775578954,forward_fall
2.433966,5.063,-0.3343,0.9314,-0.6844,-0.649,-0.1711,-42.2852,14.8718,5.5144,,0.001770999999999745,5.158801357873745,4.267274835390661,forward_fall
2.453774,5.063,-0.3343,0.9314,1.3763,1.0366,-0.4342,-42.2852,14.8718,5.5144,,0.01980800000000027,5.158801357873745,4.321733949705602,forward_fall
2.467978,-0.1406,0.2505,-3.7949,1.3763,1.0366,-0.4342,-42.2852,14.8718,5.5144,,0.014203999999999883,3.8057567736259763,4.454603268423075,forward_fall
2.475015,-0.1406,0.2505,-3.7949,1.3763,1.0366,-0.4342,-42.212,14.0788,8.113,,0.00703699999999996,3.8057567736259763,4.680696025418491,forward_fall
2.496483,-0.1406,0.2505,-3.7949,1.3763,1.0366,-0.4342,-42.212,14.0788,8.113,,0.021468000000000043,3.8057567736259763,5.00607861899632,forward_fall
2.497691,-0.1406,0.2505,-3.7949,1.3763,1.0366,-0.4342,-42.212,14.0788,8.113,,0.0012080000000000979,3.8057567736259763,5.4259597906531205,forward_fall
2.498436,-0.1406,0.2505,-3.7949,1.3763,1.0366,-0.4342,-42.212,14.0788,8.113,,0.0007449999999997736,3.8057567736259763,5.923749163488413,forward_fall
2.525218,-0.1406,0.2505,-3.7949,0.7469,0.2863,-0.0491,-42.212,14.0788,8.113,,0.026782000000000306,3.8057567736259763,6.471589121428421,forward_fall
2.534114,-0.1406,0.2505,-3.7949,0.7469,0.2863,-0.0491,-42.2608,13.4322,10.2358,,0.008896000000000015,3.8057567736259763,7.032477445418285,forward_fall
2.538467,-2.3089,10.0216,-1.8643,0.7469,0.2863,-0.0491,-42.2608,13.4322,10.2358,,0.004352999999999607,10.451751061903455,7.563848541924852,forward_fall
2.563304,-2.3089,10.0216,-1.8643,0.7469,0.2863,-0.0491,-42.2608,13.4322,10.2358,,0.02483700000000022,10.451751061903455,8.022191243231791,forward_fall
2.565182,-2.3089,10.0216,-1.8643,0.7469,0.2863,-0.0491,-42.2608,13.4322,10.2358,,0.0018780000000000463,10.451751061903455,8.368023537791895,forward_fall
2.566314,-2.3089,10.0216,-1.8643,0.7469,0.2863,-0.0491,-42.2608,13.4322,10.2358,,0.001132000000000133,10.451751061903455,8.570427133019736,forward_fall
2.567815,-2.3089,10.0216,-1.8643,0.7469,0.2863,-0.0491,-42.2608,13.4322,10.2358,,0.0015009999999997525,10.451751061903455,8.610426570973685,forward_fall
2.594187,-2.3089,10.0216,-1.8643,0.7469,0.2863,-0.0491,-42.0534,12.7002,12.1268,,0.02637199999999984,10.451751061903455,8.482734535268392,forward_fall
2.597963,-2.3089,10.0216,-1.8643,-0.0847,-0.3848,0.1382,-42.0534,12.7002,12.1268,,0.0037760000000002236,10.451751061903455,8.195683560583936,forward_fall
2.612275,-1.157,4.6288,-1.4099,-0.0847,-0.3848,0.1382,-42.0534,12.7002,12.1268,,0.01431199999999988,4.975163962122253,7.7694632628421605,forward_fall
2.631377,-1.157,4.6288,-1.4099,-0.0847,-0.3848,0.1382,-42.0534,12.7002,12.1268,,0.019102000000000174,4.975163962122253,7.23305411498269,forward_fall
2.632879,-1.157,4.6288,-1.4099,-0.0847,-0.3848,0.1382,-42.0534,12.7002,12.1268,,0.0015019999999998923,4.975163962122253,6.620448800335451,forward_fall
2.633758,-1.157,4.6288,-1.4099,-0.0847,-0.3848,0.1382,-42.0534,12.7002,12.1268,,0.0008789999999998521,4.975163962122253,5.966812583223136,forward_fall
2.65344,-1.157,4.6288,-1.4099,-0.0847,-0.3848,0.1382,-41.8338,12.1756,13.664,,0.019681999999999977,4.975163962122253,5.305129598526895,forward_fall
2.663227,-1.157,4.6288,-1.4099,0.083,-0.4269,-0.1479,-41.8338,12.1756,13.664,,0.009787000000000212,4.975163962122253,4.663673225908581,forward_fall
2.677433,-0.6204,2.8793,-1.2802,0.083,-0.4269,-0.1479,-41.8338,12.1756,13.664,,0.014206000000000163,3.211569194334757,4.064425893431592,forward_fall
2.696346,-0.6204,2.8793,-1.2802,0.083,-0.4269,-0.1479,-41.8338,12.1756,13.664,,0.018912999999999958,3.211569194334757,3.5224201753517916,forward_fall
2.69768,-0.6204,2.8793,-1.2802,0.083,-0.4269,-0.1479,-41.8338,12.1756,13.664,,0.0013339999999999463,3.211569194334757,3.0458825694518894,forward_fall
2.698543,-0.6204,2.8793,-1.2802,0.083,-0.4269,-0.1479,-41.8338,12.1756,13.664,,0.0008629999999998361,3.211569194334757,2.637005975117659,forward_fall
2.711721,-0.6204,2.8793,-1.2802,0.083,-0.4269,-0.1479,-41.6874,11.4924,14.6278,,0.013177999999999912,3.211569194334757,2.293136830413529,forward_fall
2.734936,-0.6204,2.8793,-1.2802,0.2398,-0.3256,-0.228,-41.6874,11.4924,14.6278,,0.023214999999999986,3.211569194334757,2.0081449760556627,forward_fall
2.743331,-0.2847,0.808,-0.895,0.2398,-0.3256,-0.228,-41.6874,11.4924,14.6278,,0.008395000000000152,1.238928202116652,1.7737674490377329,forward_fall
2.765384,-0.2847,0.808,-0.895,0.2398,-0.3256,-0.228,-41.6874,11.4924,14.6278,,0.0220530000000001,1.238928202116652,1.5807847144180238,forward_fall
2.7686,-0.2847,0.808,-0.895,0.2398,-0.3256,-0.228,-41.6874,11.4924,14.6278,,0.0032160000000001077,1.238928202116652,1.4199741911311883,forward_fall
2.771847,-0.2847,0.808,-0.895,0.2398,-0.3256,-0.228,-41.6874,11.4924,14.6278,,0.003247,1.238928202116652,1.2828514561613855,forward_fall
2.77437,-0.2847,0.808,-0.895,0.2398,-0.3256,-0.228,-41.6874,11.4924,14.6278,,0.002522999999999609,1.238928202116652,1.1622305863419493,forward_fall
2.776428,-0.2847,0.808,-0.895,0.2398,-0.3256,-0.228,-41.7484,11.0776,14.7742,,0.0020580000000003373,1.238928202116652,1.0526217100376054,forward_fall
2.803336,-0.2847,0.808,-0.895,0.0013,-0.0971,-0.2332,-41.7484,11.0776,14.7742,,0.02690799999999971,1.238928202116652,0.9504634480979286,forward_fall
2.813324,-0.1749,-0.1933,-0.674,0.0013,-0.0971,-0.2332,-41.7484,11.0776,14.7742,,0.00998800000000033,0.722655450404963,0.8541796135304999,forward_fall
2.832484,-0.1749,-0.1933,-0.674,0.0013,-0.0971,-0.2332,-41.9558,10.9556,14.3106,,0.019159999999999844,0.722655450404963,0.7640565676088004,forward_fall
2.834364,-0.1749,-0.1933,-0.674,0.0013,-0.0971,-0.2332,-41.9558,10.9556,14.3106,,0.0018799999999998818,0.722655450404963,0.6819531664724073,forward_fall
2.836191,-0.1749,-0.1933,-0.674,0.0013,-0.0971,-0.2332,-41.9558,10.9556,14.3106,,0.001827000000000023,0.722655450404963,0.6108693944384274,forward_fall
2.837868,-0.1749,-0.1933,-0.674,0.0013,-0.0971,-0.2332,-41.9558,10.9556,14.3106,,0.0016769999999999285,0.722655450404963,0.5544071782411049,forward_fall
2.873309,-0.1749,-0.1933,-0.674,-0.1663,0.0176,-0.0128,-41.9558,10.9556,14.3106,,0.035441000000000056,0.722655450404963,0.5161605952886437,forward_fall
2.893411,0.0992,-0.1066,-0.2696,-0.1663,0.0176,-0.0128,-41.9558,10.9556,14.3106,,0.020102000000000064,0.3064120754800633,0.49907959156651555,forward_fall
2.895524,0.0992,-0.1066,-0.2696,-0.1663,0.0176,-0.0128,-42.1754,10.8946,13.7982,,0.0021130000000000315,0.3064120754800633,0.5048640162930305,forward_fall
2.897893,0.0992,-0.1066,-0.2696,-0.1663,0.0176,-0.0128,-42.1754,10.8946,13.7982,,0.0023689999999998435,0.3064120754800633,0.5334583064603665,forward_fall
2.899118,0.0992,-0.1066,-0.2696,-0.1663,0.0176,-0.0128,-42.1754,10.8946,13.7982,,0.0012250000000002537,0.3064120754800633,0.5827223446819576,forward_fall
2.900796,0.0992,-0.1066,-0.2696,-0.1663,0.0176,-0.0128,-42.1754,10.8946,13.7982,,0.0016780000000000683,0.3064120754800633,0.6483444564203272,forward_fall
2.943153,0.0992,-0.1066,-0.2696,-0.326,-0.0851,0.0134,-42.1754,10.8946,13.7982,,0.04235699999999998,0.3064120754800633,0.7240384460242578,forward_fall
2.959419,0.0992,-0.1066,-0.2696,-0.326,-0.0851,0.0134,-42.0412,10.858,13.9812,,0.01626599999999989,0.3064120754800633,0.8020317043877349,forward_fall
2.961554,-0.6631,-1.0461,0.4341,-0.326,-0.0851,0.0134,-42.0412,10.858,13.9812,,0.002134999999999998,1.3124289047411293,0.8738084332154303,forward_fall
2.966567,-0.6631,-1.0461,0.4341,-0.326,-0.0851,0.0134,-42.0412,10.858,13.9812,,0.005012999999999934,1.3124289047411293,0.931024584320807,forward_fall
2.968543,-0.6631,-1.0461,0.4341,-0.326,-0.0851,0.0134,-42.0412,10.858,13.9812,,0.0019759999999999778,1.3124289047411293,0.9664699458322821,forward_fall
2.97006,-0.6631,-1.0461,0.4341,-0.326,-0.0851,0.0134,-42.0412,10.858,13.9812,,0.0015170000000002126,1.3124289047411293,0.9749341939992463,forward_fall
2.971267,-0.6631,-1.0461,0.4341,-0.326,-0.0851,0.0134,-42.0412,10.858,13.9812,,0.001206999999999958,1.3124289047411293,0.9538468324332223,forward_fall
3.012969,-0.6631,-1.0461,0.4341,-0.326,-0.0851,0.0134,-41.8826,10.6872,14.457,,0.041701999999999906,1.3124289047411293,0.9035995226515979,forward_fall
3.017066,-0.6631,-1.0461,0.4341,-0.5007,0.0111,0.0332,-41.8826,10.6872,14.457,,0.004096999999999795,1.3124289047411293,0.8275098345242854,forward_fall
3.026573,-0.2383,0.0254,0.022,-0.5007,0.0111,0.0332,-41.8826,10.6872,14.457,,0.009507000000000154,0.2406575367612658,0.7314391580303902,forward_fall
3.030663,-0.2383,0.0254,0.022,-0.5007,0.0111,0.0332,-41.8826,10.6872,14.457,,0.004090000000000149,0.2406575367612658,0.6231299014430376,forward_fall
3.031584,-0.2383,0.0254,0.022,-0.5007,0.0111,0.0332,-41.8826,10.6872,14.457,,0.0009209999999999496,0.2406575367612658,0.5113689541953265,forward_fall
3.032328,-0.2383,0.0254,0.022,-0.5007,0.0111,0.0332,-41.8826,10.6872,14.457,,0.0007440000000000779,0.2406575367612658,0.4051016320824063,forward_fall
3.071043,-0.2383,0.0254,0.022,-0.5007,0.0111,0.0332,-41.7972,10.431,14.9694,,0.03871499999999983,0.2406575367612658,0.31260687672197257,forward_fall
3.080153,-0.2383,0.0254,0.022,-0.4888,0.1152,0.0414,-41.7972,10.431,14.9694,,0.009110000000000174,0.2406575367612658,0.2408108313652115,forward_fall
3.0907,-0.0996,0.034,-0.0984,-0.4888,0.1152,0.0414,-41.7972,10.431,14.9694,,0.010546999999999862,0.14407886729149422,0.19478009151850256,forward_fall
3.095451,-0.0996,0.034,-0.0984,-0.4888,0.1152,0.0414,-41.7972,10.431,14.9694,,0.004751000000000172,0.14407886729149422,0.17740937135413543,forward_fall
3.096255,-0.0996,0.034,-0.0984,-0.4888,0.1152,0.0414,-41.7972,10.431,14.9694,,0.0008040000000000269,0.14407886729149422,0.18930242783687715,non_fall
3.096849,-0.0996,0.034,-0.0984,-0.4888,0.1152,0.0414,-41.7972,10.431,14.9694,,0.0005939999999999834,0.14407886729149422,0.22883604812402536,non_fall
3.131806,-0.0996,0.034,-0.0984,-0.4888,0.1152,0.0414,-41.7118,10.1016,15.4086,,0.034956999999999905,0.14407886729149422,0.292390387104592,non_fall
3.151987,-0.0996,0.034,-0.0984,-0.374,0.1465,0.0668,-41.7118,10.1016,15.4086,,0.020181000000000004,0.14407886729149422,0.3747217654176399,non_fall
3.16299,0.1602,-0.2149,0.785,-0.374,0.1465,0.0668,-41.7118,10.1016,15.4086,,0.011003000000000096,0.8295004822180636,0.46944412381130285,non_fall
3.165102,0.1602,-0.2149,0.785,-0.374,0.1465,0.0668,-41.7118,10.1016,15.4086,,0.0021119999999998917,0.8295004822180636,0.569572765903688,non_fall
3.166471,0.1602,-0.2149,0.785,-0.374,0.1465,0.0668,-41.7118,10.1016,15.4086,,0.0013689999999999536,0.8295004822180636,0.6680738746154995,non_fall
3.167907,0.1602,-0.2149,0.785,-0.374,0.1465,0.0668,-41.7118,10.1016,15.4086,,0.0014359999999999928,0.8295004822180636,0.7583642168376014,non_fall
3.169116,0.1602,-0.2149,0.785,-0.374,0.1465,0.0668,-41.7118,10.1016,15.4086,,0.0012089999999997936,0.8295004822180636,0.8347213123146526,non_fall
3.190784,0.1602,-0.2149,0.785,-0.374,0.1465,0.0668,-41.7606,9.8942,15.5306,,0.02166800000000002,0.8295004822180636,0.8925887083712983,non_fall
3.220155,0.1602,-0.2149,0.785,-0.3514,0.2333,0.1501,-41.7606,9.8942,15.5306,,0.029371000000000258,0.8295004822180636,0.9287828005938186,non_fall
3.230136,0.1602,-0.2149,0.785,-0.3514,0.2333,0.1501,-41.7606,9.8942,15.5306,,0.009980999999999796,0.8295004822180636,0.9416199421033176,non_fall
3.231546,0.1602,-0.2149,0.785,-0.3514,0.2333,0.1501,-41.7606,9.8942,15.5306,,0.0014099999999999113,0.8295004822180636,0.9309844992155202,non_fall
3.233628,0.1602,-0.2149,0.785,-0.3514,0.2333,0.1501,-41.7606,9.8942,15.5306,,0.0020820000000001393,0.8295004822180636,0.8983522109350879,non_fall
3.235129,-0.2892,-0.5373,0.6131,-0.3514,0.2333,0.1501,-41.7606,9.8942,15.5306,,0.0015010000000001966,0.8649968439248782,0.8467717461387283,non_fall
3.249833,-0.2892,-0.5373,0.6131,-0.3514,0.2333,0.1501,-41.7728,9.577,15.7502,,0.01470400000000005,0.8649968439248782,0.7807941443419442,non_fall
3.292186,-0.2892,-0.5373,0.6131,-0.4382,0.3055,0.2668,-41.7728,9.577,15.7502,,0.04235299999999986,0.8649968439248782,0.7063285767704204,non_fall
3.297394,-0.2892,-0.5373,0.6131,-0.4382,0.3055,0.2668,-41.7728,9.577,15.7502,,0.0052080000000001014,0.8649968439248782,0.6303972255415493,non_fall
3.299553,-0.2892,-0.5373,0.6131,-0.4382,0.3055,0.2668,-41.7728,9.577,15.7502,,0.0021589999999998,0.8649968439248782,0.5607649643380227,non_fall
3.301877,-0.2892,-0.5373,0.6131,-0.4382,0.3055,0.2668,-41.7728,9.577,15.7502,,0.0023240000000002148,0.8649968439248782,0.5054326054791135,non_fall
3.306963,-0.2271,-0.1357,-0.1914,-0.4382,0.3055,0.2668,-41.7728,9.577,15.7502,,0.005085999999999924,0.32653156049607207,0.47200597120674204,non_fall
3.312198,-0.2271,-0.1357,-0.1914,-0.4382,0.3055,0.2668,-41.8216,9.2598,16.0552,,0.005234999999999879,0.32653156049607207,0.46698444098937897,non_fall
3.363191,-0.2271,-0.1357,-0.1914,-0.6654,0.1418,0.2662,-41.8216,9.2598,16.0552,,0.050993000000000066,0.32653156049607207,0.4950444873510064,non_fall
3.365911,-0.2271,-0.1357,-0.1914,-0.6654,0.1418,0.2662,-41.8216,9.2598,16.0552,,0.0027200000000000557,0.32653156049607207,0.5584150962023808,non_fall
3.366998,-0.2271,-0.1357,-0.1914,-0.6654,0.1418,0.2662,-41.8216,9.2598,16.0552,,0.0010870000000000601,0.32653156049607207,0.6564453318435445,non_fall
3.368447,-0.2271,-0.1357,-0.1914,-0.6654,0.1418,0.2662,-41.8216,9.2598,16.0552,,0.0014490000000000336,0.32653156049607207,0.7854500765776279,non_fall
3.369569,-0.2271,-0.1357,-0.1914,-0.6654,0.1418,0.2662,-41.8216,9.2598,16.0552,,0.0011219999999996233,0.32653156049607207,0.9388923815153313,non_fall
3.371202,-0.2271,-0.1357,-0.1914,-0.6654,0.1418,0.2662,-41.8216,8.9548,16.3724,,0.0016329999999999956,0.32653156049607207,1.1079213397867822,non_fall
3.3727,-0.734,1.6028,-1.1037,-0.6654,0.1418,0.2662,-41.8216,8.9548,16.3724,,0.0014980000000002214,2.0798744024579947,1.2822314084904558,non_fall
3.431071,-0.734,1.6028,-1.1037,-0.6654,0.1418,0.2662,-41.8094,8.6376,16.6652,,0.05837100000000017,2.0798744024579947,1.451145932574051,non_fall
3.435139,-0.734,1.6028,-1.1037,-0.6654,0.1418,0.2662,-41.8094,8.6376,16.6652,,0.0040679999999997385,2.0798744024579947,1.6047714851432036,non_fall
3.437226,-0.734,1.6028,-1.1037,-0.6654,0.1418,0.2662,-41.8094,8.6376,16.6652,,0.00208699999999995,2.0798744024579947,1.73504718647107,non_fall
3.439143,-0.734,1.6028,-1.1037,-0.6654,0.1418,0.2662,-41.8094,8.6376,16.6652,,0.0019170000000001686,2.0798744024579947,1.8365380501483752,non_fall
3.441341,-0.734,1.6028,-1.1037,-0.6722,-0.07,0.1105,-41.8094,8.6376,16.6652,,0.0021979999999999222,2.0798744024579947,1.9068799346760619,non_fall
3.444451,-0.7072,1.7456,-0.1665,-0.6722,-0.07,0.1105,-41.8094,8.6376,16.6652,,0.003109999999999946,1.89076001914574,1.946848989793986,non_fall
3.489747,-0.7072,1.7456,-0.1665,-0.6722,-0.07,0.1105,-41.785,8.3448,16.9214,,0.045296,1.89076001914574,1.9600823714896811,non_fall
3.498653,-0.7072,1.7456,-0.1665,-0.6722,-0.07,0.1105,-41.785,8.3448,16.9214,,0.00890600000000008,1.89076001914574,1.9525139242596752,non_fall
3.502041,-0.7072,1.7456,-0.1665,-0.6722,-0.07,0.1105,-41.785,8.3448,16.9214,,0.0033880000000001687,1.89076001914574,1.9316085844299458,non_fall
3.505012,-0.7072,1.7456,-0.1665,-0.6722,-0.07,0.1105,-41.785,8.3448,16.9214,,0.002970999999999613,1.89076001914574,1.905485037236976,non_fall
3.50745,-0.7072,1.7456,-0.1665,-0.4511,0.2407,0.0687,-41.785,8.3448,16.9214,,0.0024380000000001623,1.89076001914574,1.8820128949334083,non_fall
3.509295,0.3738,0.769,1.4541,-0.4511,0.2407,0.0687,-41.785,8.3448,16.9214,,0.0018449999999998745,1.6868592857734162,1.867964237530554,non_fall
3.549622,0.3738,0.769,1.4541,-0.4511,0.2407,0.0687,-41.785,8.0886,16.9702,,0.040327,1.6868592857734162,1.8682930579990193,non_fall
3.565458,0.3738,0.769,1.4541,-0.4511,0.2407,0.0687,-41.785,8.0886,16.9702,,0.015836000000000183,1.6868592857734162,1.8856091825715717,non_fall
3.567981,0.3738,0.769,1.4541,-0.4511,0.2407,0.0687,-41.785,8.0886,16.9702,,0.002523000000000053,1.6868592857734162,1.9199021172142983,non_fall
3.569959,0.3738,0.769,1.4541,-0.4511,0.2407,0.0687,-41.785,8.0886,16.9702,,0.0019779999999998132,1.6868592857734162,1.9685521771608698,non_fall
3.572084,0.3738,0.769,1.4541,-0.4511,0.2407,0.0687,-41.785,8.0886,16.9702,,0.0021249999999999325,1.6868592857734162,2.0266410412785327,non_fall
3.574532,0.3738,0.769,1.4541,-0.181,0.3493,0.0366,-41.785,8.0886,16.9702,,0.0024480000000002278,1.6868592857734162,2.08754271202892,non_fall
3.580049,1.0969,-0.5752,2.2767,-0.181,0.3493,0.0366,-41.785,8.0886,16.9702,,0.005516999999999772,2.5917961995496483,2.143739503416366,non_fall
3.608834,1.0969,-0.5752,2.2767,-0.181,0.3493,0.0366,-41.8948,7.8202,16.958,,0.02878500000000006,2.5917961995496483,2.1877688491985405,non_fall
3.631775,1.0969,-0.5752,2.2767,-0.181,0.3493,0.0366,-41.8948,7.8202,16.958,,0.022941000000000322,2.5917961995496483,2.213174980516939,non_fall
3.634763,1.0969,-0.5752,2.2767,-0.181,0.3493,0.0366,-41.8948,7.8202,16.958,,0.0029879999999997686,2.5917961995496483,2.2153294272951487,non_fall
3.637085,1.0969,-0.5752,2.2767,-0.181,0.3493,0.0366,-41.8948,7.8202,16.958,,0.0023219999999999352,2.5917961995496483,2.1920039773791227,non_fall
3.639152,1.0969,-0.5752,2.2767,-0.0852,0.1983,-0.0134,-41.8948,7.8202,16.958,,0.002067000000000263,2.5917961995496483,2.1436234355244,non_fall
3.65135,-0.0014,-0.6786,1.5406,-0.0852,0.1983,-0.0134,-41.8948,7.8202,16.958,,0.012197999999999709,1.6834334795292625,2.073180406254476,non_fall
3.668806,-0.0014,-0.6786,1.5406,-0.0852,0.1983,-0.0134,-41.9314,7.4908,17.1532,,0.017456000000000138,1.6834334795292625,1.9858491874761377,non_fall
3.699109,-0.0014,-0.6786,1.5406,-0.0852,0.1983,-0.0134,-41.9314,7.4908,17.1532,,0.03030299999999997,1.6834334795292625,1.8883797841030712,non_fall
3.702673,-0.0014,-0.6786,1.5406,-0.0852,0.1983,-0.0134,-41.9314,7.4908,17.1532,,0.0035639999999999006,1.6834334795292625,1.7883739811473531,non_fall
3.705107,-0.0014,-0.6786,1.5406,-0.0852,0.1983,-0.0134,-41.9314,7.4908,17.1532,,0.0024340000000000472,1.6834334795292625,1.6935388936308624,non_fall
3.707923,-0.0014,-0.6786,1.5406,-0.0852,0.1983,-0.0134,-41.9314,7.4908,17.1532,,0.0028160000000001517,1.6834334795292625,1.6109891978723803,non_fall
3.710265,-0.0014,-0.6786,1.5406,0.2193,0.4357,0.0089,-41.9314,7.4908,17.1532,,0.0023420000000000663,1.6834334795292625,1.5466436536058557,non_fall
3.720391,0.476,-0.7252,0.9939,0.2193,0.4357,0.0089,-41.9314,7.4908,17.1532,,0.010125999999999635,1.3192150128011733,1.5047453499636436,non_fall
3.728296,0.476,-0.7252,0.9939,0.2193,0.4357,0.0089,-42.0534,7.2346,17.1532,,0.007905000000000051,1.3192150128011733,1.487529891612711,non_fall
3.764693,0.476,-0.7252,0.9939,0.2193,0.4357,0.0089,-42.0534,7.2346,17.1532,,0.03639700000000001,1.3192150128011733,1.4950660743050357,non_fall
3.767221,0.476,-0.7252,0.9939,0.2193,0.4357,0.0089,-42.0534,7.2346,17.1532,,0.0025280000000003078,1.3192150128011733,1.525291012973291,non_fall
3.769073,0.476,-0.7252,0.9939,0.2193,0.4357,0.0089,-42.0534,7.2346,17.1532,,0.0018519999999999648,1.3192150128011733,1.5742501127667963,non_fall
3.779018,0.476,-0.7252,0.9939,0.3186,0.3281,-0.0731,-42.0534,7.2346,17.1532,,0.009945000000000093,1.3192150128011733,1.6365313133024297,non_fall
3.795184,0.834,-1.5341,1.1865,0.3186,0.3281,-0.0731,-42.0534,7.2346,17.1532,,0.01616599999999968,2.1111137013434402,1.705855726111178,non_fall
3.798953,0.834,-1.5341,1.1865,0.3186,0.3281,-0.0731,-42.1632,7.0272,17.0678,,0.0037690000000001334,2.1111137013434402,1.7757575137599313,non_fall
3.832106,0.834,-1.5341,1.1865,0.3186,0.3281,-0.0731,-42.1632,7.0272,17.0678,,0.03315299999999999,2.1111137013434402,1.8402628058899204,non_fall
3.835172,0.834,-1.5341,1.1865,0.3186,0.3281,-0.0731,-42.1632,7.0272,17.0678,,0.003066000000000013,2.1111137013434402,1.8944719525616107,non_fall
3.83725,0.834,-1.5341,1.1865,0.3186,0.3281,-0.0731,-42.1632,7.0272,17.0678,,0.0020780000000000243,2.1111137013434402,1.934966950266532,non_fall
3.849125,0.834,-1.5341,1.1865,0.2205,0.5394,-0.0372,-42.1632,7.0272,17.0678,,0.011874999999999858,2.1111137013434402,1.9599997850552602,non_fall
3.858931,0.834,-1.5341,1.1865,0.2205,0.5394,-0.0372,-42.3218,6.771,16.8848,,0.009806000000000203,2.1111137013434402,1.9694553778032169,non_fall
3.861028,0.1503,-1.7331,0.141,0.2205,0.5394,-0.0372,-42.3218,6.771,16.8848,,0.0020970000000000155,1.7453099151726608,1.9646166228737658,non_fall
3.898319,0.1503,-1.7331,0.141,0.2205,0.5394,-0.0372,-42.3218,6.771,16.8848,,0.03729099999999974,1.7453099151726608,1.947785751941836,non_fall
3.901795,0.1503,-1.7331,0.141,0.2205,0.5394,-0.0372,-42.3218,6.771,16.8848,,0.0034760000000000346,1.7453099151726608,1.9218332621943919,non_fall
3.903892,0.1503,-1.7331,0.141,0.2205,0.5394,-0.0372,-42.3218,6.771,16.8848,,0.0020970000000000155,1.7453099151726608,1.8897490532361074,non_fall
3.905977,0.1503,-1.7331,0.141,0.2205,0.5394,-0.0372,-42.3218,6.771,16.8848,,0.0020850000000001145,1.7453099151726608,1.854259213674481,non_fall
3.919177,0.1503,-1.7331,0.141,0.2205,0.5394,-0.0372,-42.5536,6.6124,16.4456,,0.013199999999999878,1.7453099151726608,1.8175508040430055,non_fall
3.922339,0.1503,-1.7331,0.141,0.2896,0.5369,0.033,-42.5536,6.6124,16.4456,,0.003162000000000109,1.7453099151726608,1.7811233507564215,non_fall
3.929014,-0.0751,-1.7337,0.0317,0.2896,0.5369,0.033,-42.5536,6.6124,16.4456,,0.0066749999999999865,1.735615334686808,1.745764834304137,non_fall
3.963218,-0.0751,-1.7337,0.0317,0.2896,0.5369,0.033,-42.5536,6.6124,16.4456,,0.0342039999999999,1.735615334686808,1.7116337706418703,non_fall
3.965692,-0.0751,-1.7337,0.0317,0.2896,0.5369,0.033,-42.5536,6.6124,16.4456,,0.0024740000000003093,1.735615334686808,1.6784179277906097,non_fall
3.967236,-0.0751,-1.7337,0.0317,0.2896,0.5369,0.033,-42.5536,6.6124,16.4456,,0.0015439999999999898,1.735615334686808,1.6455341896003688,non_fall
3.977972,-0.0751,-1.7337,0.0317,0.2896,0.5369,0.033,-42.822,6.527,15.86,,0.010735999999999635,1.735615334686808,1.6123329256810266,non_fall
3.989039,-0.0751,-1.7337,0.0317,0.496,0.4727,-0.0503,-42.822,6.527,15.86,,0.01106700000000016,1.735615334686808,1.5782739143355007,non_fall
4.007298,-0.4533,-1.3099,-0.4943,0.496,0.4727,-0.0503,-42.822,6.527,15.86,,0.01825899999999958,1.4716152316417497,1.5430493013141025,non_fall
4.030456,-0.4533,-1.3099,-0.4943,0.496,0.4727,-0.0503,-42.822,6.527,15.86,,0.023158000000000456,1.4716152316417497,1.5066412531346673,non_fall
4.032977,-0.4533,-1.3099,-0.4943,0.496,0.4727,-0.0503,-42.822,6.527,15.86,,0.0025209999999997734,1.4716152316417497,1.469314857617645,non_fall
4.03432,-0.4533,-1.3099,-0.4943,0.496,0.4727,-0.0503,-42.822,6.527,15.86,,0.0013430000000003162,1.4716152316417497,1.4315562050761776,non_fall
4.03625,-0.4533,-1.3099,-0.4943,0.496,0.4727,-0.0503,-43.1026,6.4538,15.3232,,0.0019299999999997652,1.4716152316417497,1.3939694191603256,non_fall
4.058294,-0.4533,-1.3099,-0.4943,0.9666,0.0586,-0.0194,-43.1026,6.4538,15.3232,,0.022044000000000175,1.4716152316417497,1.3571470020022334,non_fall
4.067851,-0.2738,-0.7109,-0.8577,0.9666,0.0586,-0.0194,-43.1026,6.4538,15.3232,,0.009557000000000038,1.1471680522050811,1.3215294649907368,non_fall
4.100042,-0.2738,-0.7109,-0.8577,0.9666,0.0586,-0.0194,-43.3222,6.5026,14.7864,,0.03219100000000008,1.1471680522050811,1.2872746470844252,non_fall
4.103527,-0.2738,-0.7109,-0.8577,0.9666,0.0586,-0.0194,-43.3222,6.5026,14.7864,,0.0034849999999995163,1.1471680522050811,1.2541616324046143,non_fall
4.105922,-0.2738,-0.7109,-0.8577,0.9666,0.0586,-0.0194,-43.3222,6.5026,14.7864,,0.002394999999999925,1.1471680522050811,1.2215535036317828,non_fall
4.108091,-0.2738,-0.7109,-0.8577,0.9666,0.0586,-0.0194,-43.3222,6.5026,14.7864,,0.0021690000000003096,1.1471680522050811,1.1884345037999957,non_fall
4.109142,-0.2738,-0.7109,-0.8577,0.9666,0.0586,-0.0194,-43.3222,6.5026,14.7864,,0.0010510000000003572,1.1471680522050811,1.1535230388121447,non_fall
4.127192,-0.2738,-0.7109,-0.8577,1.4409,0.1469,0.0744,-43.3222,6.5026,14.7864,,0.018049999999999677,1.1471680522050811,1.1154475499727257,non_fall
4.140176,0.0814,-0.6712,-0.8261,1.4409,0.1469,0.0744,-43.3222,6.5026,14.7864,,0.012984000000000329,1.067509536257171,1.072961354999943,non_fall
4.157663,0.0814,-0.6712,-0.8261,1.4409,0.1469,0.0744,-43.5418,6.71,14.0788,,0.01748700000000003,1.067509536257171,1.025166215184565,non_fall
4.162473,0.0814,-0.6712,-0.8261,1.4409,0.1469,0.0744,-43.5418,6.71,14.0788,,0.004809999999999981,1.067509536257171,0.9717121721330684,non_fall
4.163347,0.0814,-0.6712,-0.8261,1.4409,0.1469,0.0744,-43.5418,6.71,14.0788,,0.0008739999999995973,1.067509536257171,0.9129422577915115,non_fall
4.164593,0.0814,-0.6712,-0.8261,1.4409,0.1469,0.0744,-43.5418,6.71,14.0788,,0.0012460000000000804,1.067509536257171,0.8499549733806495,non_fall
4.197093,0.0814,-0.6712,-0.8261,1.8552,-0.1013,0.0257,-43.5418,6.71,14.0788,,0.03249999999999975,1.067509536257171,0.7845663280249889,non_fall
4.206796,-0.1193,-0.2465,-0.3786,1.8552,-0.1013,0.0257,-43.5418,6.71,14.0788,,0.009703000000000017,0.46726084792115846,0.7191684320085814,non_fall
4.218915,-0.1193,-0.2465,-0.3786,1.8552,-0.1013,0.0257,-43.737,7.1492,13.3224,,0.012119000000000213,0.46726084792115846,0.656502313275038,non_fall
4.230343,-0.1193,-0.2465,-0.3786,1.8552,-0.1013,0.0257,-43.737,7.1492,13.3224,,0.011428000000000438,0.46726084792115846,0.5993825879642954,non_fall
4.233288,-0.1193,-0.2465,-0.3786,1.8552,-0.1013,0.0257,-43.737,7.1492,13.3224,,0.0029449999999995313,0.46726084792115846,0.5504213372273907,non_fall
4.234771,-0.1193,-0.2465,-0.3786,1.8552,-0.1013,0.0257,-43.737,7.1492,13.3224,,0.0014830000000003452,0.46726084792115846,0.5117930476470572,non_fall
4.268223,-0.1193,-0.2465,-0.3786,2.1245,-0.1755,-0.0521,-43.737,7.1492,13.3224,,0.03345199999999959,0.46726084792115846,0.4850662675909566,non_fall
4.276812,-0.1193,-0.2465,-0.3786,2.1245,-0.1755,-0.0521,-43.92,7.747,12.4806,,0.008588999999999736,0.46726084792115846,0.4711097669914106,non_fall
4.279247,-0.0389,0.1151,-0.5308,2.1245,-0.1755,-0.0521,-43.92,7.747,12.4806,,0.002435000000000187,0.5445271894037983,0.4700673851328842,non_fall
4.298018,-0.0389,0.1151,-0.5308,2.1245,-0.1755,-0.0521,-43.92,7.747,12.4806,,0.018771000000000093,0.5445271894037983,0.4813877266862234,non_fall
4.299819,-0.0389,0.1151,-0.5308,2.1245,-0.1755,-0.0521,-43.92,7.747,12.4806,,0.0018010000000003856,0.5445271894037983,0.5038919932909177,non_fall
4.300777,-0.0389,0.1151,-0.5308,2.1245,-0.1755,-0.0521,-43.92,7.747,12.4806,,0.0009579999999997924,0.5445271894037983,0.5358649738743231,non_fall
4.301657,-0.0389,0.1151,-0.5308,2.1245,-0.1755,-0.0521,-43.92,7.747,12.4806,,0.0008799999999995478,0.5445271894037983,0.5751593596228687,non_fall
4.338343,-0.0389,0.1151,-0.5308,2.1245,-0.1755,-0.0521,-44.042,8.5766,11.59,,0.03668600000000044,0.5445271894037983,0.6193097019782116,non_fall
4.341913,-0.0389,0.1151,-0.5308,2.0661,-0.11,-0.1888,-44.042,8.5766,11.59,,0.003569999999999851,0.5445271894037983,0.6656566266836689,non_fall
4.34718,-0.3184,0.1033,-0.7477,2.0661,-0.11,-0.1888,-44.042,8.5766,11.59,,0.005266999999999911,0.8192098266012194,0.7114822517286105,non_fall
4.363288,-0.3184,0.1033,-0.7477,2.0661,-0.11,-0.1888,-44.042,8.5766,11.59,,0.01610800000000001,0.8192098266012194,0.7541538905118057,non_fall
4.365672,-0.3184,0.1033,-0.7477,2.0661,-0.11,-0.1888,-44.042,8.5766,11.59,,0.0023840000000001638,0.8192098266012194,0.7912675291197868,non_fall
4.367103,-0.3184,0.1033,-0.7477,2.0661,-0.11,-0.1888,-44.042,8.5766,11.59,,0.0014310000000001821,0.8192098266012194,0.8207794365320638,non_fall
4.397921,-0.3184,0.1033,-0.7477,2.0661,-0.11,-0.1888,-44.1274,9.4794,10.6628,,0.030818000000000012,0.8192098266012194,0.8411159191150374,non_fall
4.407136,-0.3184,0.1033,-0.7477,1.528,-0.053,0.2675,-44.1274,9.4794,10.6628,,0.009215000000000195,0.8192098266012194,0.8512558509079445,non_fall
4.420287,-0.0781,0.8074,-0.2457,1.528,-0.053,0.2675,-44.1274,9.4794,10.6628,,0.01315099999999969,0.8475628944214111,0.8507844873547238,non_fall
4.432474,-0.0781,0.8074,-0.2457,1.528,-0.053,0.2675,-44.1274,9.4794,10.6628,,0.012186999999999948,0.8475628944214111,0.839918169515036,non_fall
4.433736,-0.0781,0.8074,-0.2457,1.528,-0.053,0.2675,-44.1274,9.4794,10.6628,,0.0012619999999996523,0.8475628944214111,0.8194983494050296,non_fall
4.434305,-0.0781,0.8074,-0.2457,1.528,-0.053,0.2675,-44.1274,9.4794,10.6628,,0.0005690000000004858,0.8475628944214111,0.7909516605568583,non_fall
4.456119,-0.0781,0.8074,-0.2457,1.528,-0.053,0.2675,-44.1396,10.553,9.7112,,0.021814,0.8475628944214111,0.756212253681999,non_fall
4.477282,-0.0781,0.8074,-0.2457,1.482,0.0786,0.1968,-44.1396,10.553,9.7112,,0.0211629999999996,0.8475628944214111,0.717604551125856,non_fall
4.486765,-0.2014,0.4988,0.0942,1.482,0.0786,0.1968,-44.1396,10.553,9.7112,,0.009483000000000352,0.5461108312421573,0.6776896516436663,non_fall
4.497561,-0.2014,0.4988,0.0942,1.482,0.0786,0.1968,-44.1396,10.553,9.7112,,0.010796000000000028,0.5461108312421573,0.639086415016322,non_fall
4.499332,-0.2014,0.4988,0.0942,1.482,0.0786,0.1968,-44.1396,10.553,9.7112,,0.001770999999999745,0.5461108312421573,0.6042859956728184,non_fall
4.500889,-0.2014,0.4988,0.0942,1.482,0.0786,0.1968,-44.1396,10.553,9.7112,,0.0015570000000000306,0.5461108312421573,0.5754818565681903,non_fall
4.502116,-0.2014,0.4988,0.0942,1.482,0.0786,0.1968,-44.1396,10.553,9.7112,,0.0012270000000000891,0.5461108312421573,0.554433792429396,non_fall
4.516925,-0.2014,0.4988,0.0942,1.482,0.0786,0.1968,-44.1152,11.834,8.6376,,0.014808999999999628,0.5461108312421573,0.5423765211073588,non_fall
4.547261,-0.2014,0.4988,0.0942,1.8663,0.0567,-0.226,-44.1152,11.834,8.6376,,0.03033600000000014,0.5461108312421573,0.5399753842622729,non_fall
4.564807,-0.215,0.3619,-0.3819,1.8663,0.0567,-0.226,-44.1152,11.834,8.6376,,0.017546000000000284,0.5683697915969849,0.5473263446671619,non_fall
4.568254,-0.215,0.3619,-0.3819,1.8663,0.0567,-0.226,-44.1152,11.834,8.6376,,0.0034469999999995338,0.5683697915969849,0.5639950176769429,non_fall
4.57056,-0.215,0.3619,-0.3819,1.8663,0.0567,-0.226,-44.1152,11.834,8.6376,,0.0023060000000008074,0.5683697915969849,0.5890891001106692,non_fall
4.573299,-0.215,0.3619,-0.3819,1.8663,0.0567,-0.226,-44.1152,11.834,8.6376,,0.0027389999999991588,0.5683697915969849,0.6213592602323821,non_fall
4.576594,-0.215,0.3619,-0.3819,1.8663,0.0567,-0.226,-44.0908,13.054,7.2834,,0.003295000000000492,0.5683697915969849,0.6593241243171384,non_fall
4.616967,-0.215,0.3619,-0.3819,2.4624,0.0441,-0.2827,-44.0908,13.054,7.2834,,0.04037299999999977,0.5683697915969849,0.7014139242538449,non_fall
4.626356,0.5414,-0.3029,-0.7204,2.4624,0.0441,-0.2827,-44.0908,13.054,7.2834,,0.009389000000000536,0.9507042284538342,0.7461233030793171,non_fall
4.63043,0.5414,-0.3029,-0.7204,2.4624,0.0441,-0.2827,-44.0908,13.054,7.2834,,0.004073999999999245,0.9507042284538342,0.7921569761433271,non_fall
4.633222,0.5414,-0.3029,-0.7204,2.4624,0.0441,-0.2827,-44.0908,13.054,7.2834,,0.0027920000000003498,0.9507042284538342,0.838545964976949,non_fall
4.635431,0.5414,-0.3029,-0.7204,2.4624,0.0441,-0.2827,-44.0908,13.054,7.2834,,0.0022089999999996834,0.9507042284538342,0.8847125944012877,non_fall
4.636838,0.5414,-0.3029,-0.7204,2.4624,0.0441,-0.2827,-44.0908,14.1154,5.8194,,0.0014070000000003802,0.9507042284538342,0.9304720863599119,non_fall
4.687232,0.5414,-0.3029,-0.7204,2.1759,-0.0754,-0.3425,-44.0908,14.1154,5.8194,,0.05039399999999983,0.9507042284538342,0.975974012946679,non_fall
4.697709,0.5414,-0.3029,-0.7204,2.1759,-0.0754,-0.3425,-44.042,14.8108,4.2944,,0.010476999999999848,0.9507042284538342,1.0216017005378573,non_fall
4.700969,0.5414,-0.3029,-0.7204,2.1759,-0.0754,-0.3425,-44.042,14.8108,4.2944,,0.0032600000000000406,0.9507042284538342,1.0678574009370505,non_fall
4.70324,0.5414,-0.3029,-0.7204,2.1759,-0.0754,-0.3425,-44.042,14.8108,4.2944,,0.002271000000000356,0.9507042284538342,1.1152641079675447,non_fall
4.705529,0.5414,-0.3029,-0.7204,2.1759,-0.0754,-0.3425,-44.042,14.8108,4.2944,,0.0022890000000002075,0.9507042284538342,1.1643110791691078,non_fall
4.707783,0.5414,-0.3029,-0.7204,2.1759,-0.0754,-0.3425,-44.042,14.8108,4.2944,,0.002253999999999756,0.9507042284538342,1.2154593845458896,non_fall
4.709129,0.7632,-0.2987,-1.3478,2.1759,-0.0754,-0.3425,-44.042,14.8108,4.2944,,0.0013459999999998473,1.5774221914249844,1.269206415397783,non_fall
4.757285,0.7632,-0.2987,-1.3478,1.8465,-0.3747,-0.5262,-44.042,14.8108,4.2944,,0.04815600000000053,1.5774221914249844,1.3261866475032873,non_fall
4.761515,0.7632,-0.2987,-1.3478,1.8465,-0.3747,-0.5262,-44.0542,15.128,2.7816,,0.004229999999999734,1.5774221914249844,1.3872671685707931,non_fall
4.76442,0.7632,-0.2987,-1.3478,1.8465,-0.3747,-0.5262,-44.0542,15.128,2.7816,,0.0029050000000001575,1.5774221914249844,1.453590516303267,non_fall
4.766888,0.7632,-0.2987,-1.3478,1.8465,-0.3747,-0.5262,-44.0542,15.128,2.7816,,0.0024679999999994706,1.5774221914249844,1.5265289648768163,non_fall
4.769522,0.7632,-0.2987,-1.3478,1.8465,-0.3747,-0.5262,-44.0542,15.128,2.7816,,0.0026340000000004693,1.5774221914249844,1.607537882198719,non_fall
4.770758,-0.4992,1.527,-0.834,1.8465,-0.3747,-0.5262,-44.0542,15.128,2.7816,,0.0012359999999995708,1.8101065272519183,1.6979203532753613,non_fall
4.816371,-0.4992,1.527,-0.834,1.8465,-0.3747,-0.5262,-44.225,15.0792,1.4396,,0.04561300000000035,1.8101065272519183,1.7985337160563573,non_fall
4.826565,-0.4992,1.527,-0.834,1.3235,-0.5155,-0.4475,-44.225,15.0792,1.4396,,0.010194000000000258,1.8101065272519183,1.909480140988856,non_fall
4.831921,-0.4992,1.527,-0.834,1.3235,-0.5155,-0.4475,-44.225,15.0792,1.4396,,0.005355999999999916,1.8101065272519183,2.029830171451154,non_fall
4.834398,-0.4992,1.527,-0.834,1.3235,-0.5155,-0.4475,-44.225,15.0792,1.4396,,0.0024769999999998404,1.8101065272519183,2.1574308000274276,non_fall
4.837063,-0.4992,1.527,-0.834,1.3235,-0.5155,-0.4475,-44.225,15.0792,1.4396,,0.0026649999999994733,1.8101065272519183,2.288844850989177,non_fall
4.83943,-0.9899,2.4022,-0.9163,1.3235,-0.5155,-0.4475,-44.225,15.0792,1.4396,,0.002367000000000452,2.7550086279356734,2.419451505437019,non_fall
4.876505,-0.9899,2.4022,-0.9163,1.3235,-0.5155,-0.4475,-44.469,14.8596,0.3172,,0.03707499999999975,2.7550086279356734,2.5437086568405483,non_fall
4.897389,-0.9899,2.4022,-0.9163,0.1882,-0.0454,-0.1996,-44.469,14.8596,0.3172,,0.02088400000000057,2.7550086279356734,2.655545642419475,non_fall
4.902092,-0.9899,2.4022,-0.9163,0.1882,-0.0454,-0.1996,-44.469,14.8596,0.3172,,0.004702999999999236,2.7550086279356734,2.74883473282402,non_fall
4.905337,-0.9899,2.4022,-0.9163,0.1882,-0.0454,-0.1996,-44.469,14.8596,0.3172,,0.0032450000000006085,2.7550086279356734,2.817889587657787,non_fall
4.907577,-0.9899,2.4022,-0.9163,0.1882,-0.0454,-0.1996,-44.469,14.8596,0.3172,,0.0022399999999995757,2.7550086279356734,2.8579519690909865,non_fall
4.909922,-0.9899,2.4022,-0.9163,0.1882,-0.0454,-0.1996,-44.469,14.8596,0.3172,,0.0023450000000000415,2.7550086279356734,2.865640708492907,non_fall
4.912404,-1.1071,2.2611,-1.3811,0.1882,-0.0454,-0.1996,-44.469,14.8596,0.3172,,0.0024820000000005393,2.871529353846135,2.839340947742226,non_fall
4.934435,-1.1071,2.2611,-1.3811,0.1882,-0.0454,-0.1996,-44.7618,14.4692,-0.7076,,0.022030999999999246,2.871529353846135,2.779507128068175,non_fall
4.965777,-1.1071,2.2611,-1.3811,-0.4024,0.0836,0.1246,-44.7618,14.4692,-0.7076,,0.031342000000000425,2.871529353846135,2.6888450358488756,non_fall
4.969731,-1.1071,2.2611,-1.3811,-0.4024,0.0836,0.1246,-44.7618,14.4692,-0.7076,,0.003954000000000235,2.871529353846135,2.5723329488756153,non_fall
4.972059,-1.1071,2.2611,-1.3811,-0.4024,0.0836,0.1246,-44.7618,14.4692,-0.7076,,0.0023279999999994416,2.871529353846135,2.4370453126681433,non_fall
4.974078,-1.1071,2.2611,-1.3811,-0.4024,0.0836,0.1246,-44.7618,14.4692,-0.7076,,0.002019000000000659,2.871529353846135,2.291758162640163,non_fall
4.976074,0.5438,-1.2415,-0.8797,-0.4024,0.0836,0.1246,-44.7618,14.4692,-0.7076,,0.0019959999999992206,1.6158319157635177,2.14634534228668,non_fall
4.994911,0.5438,-1.2415,-0.8797,-0.4024,0.0836,0.1246,-45.0424,14.0056,-1.5372,,0.018837000000000437,1.6158319157635177,2.0110155073644296,non_fall
5.031367,0.5438,-1.2415,-0.8797,-0.4024,0.0836,0.1246,-45.0424,14.0056,-1.5372,,0.036456000000000266,1.6158319157635177,1.8954793220205772,non_fall
5.0348,0.5438,-1.2415,-0.8797,-0.4024,0.0836,0.1246,-45.0424,14.0056,-1.5372,,0.0034329999999993532,1.6158319157635177,1.8081548061078376,non_fall
5.037097,0.5438,-1.2415,-0.8797,-0.4024,0.0836,0.1246,-45.0424,14.0056,-1.5372,,0.0022970000000004376,1.6158319157635177,1.7555061482073326,non_fall
5.039068,0.5438,-1.2415,-0.8797,-1.1288,-0.3872,0.1915,-45.0424,14.0056,-1.5372,,0.001971000000000167,1.6158319157635177,1.7415763230677994,non_fall
5.049462,-0.5362,-1.5874,-1.136,-1.1288,-0.3872,0.1915,-45.0424,14.0056,-1.5372,,0.010393999999999792,2.02431351326814,1.767734615865624,non_fall
5.053696,-0.5362,-1.5874,-1.136,-1.1288,-0.3872,0.1915,-45.2864,13.5542,-1.7446,,0.004234000000000293,2.02431351326814,1.8326291087793904,non_fall
5.09785,-0.5362,-1.5874,-1.136,-1.1288,-0.3872,0.1915,-45.2864,13.5542,-1.7446,,0.044153999999999805,2.02431351326814,1.9323164185425457,non_fall
5.101149,-0.5362,-1.5874,-1.136,-1.1288,-0.3872,0.1915,-45.2864,13.5542,-1.7446,,0.003299000000000163,2.02431351326814,2.060538507541602,non_fall
5.102833,-0.5362,-1.5874,-1.136,-1.1288,-0.3872,0.1915,-45.2864,13.5542,-1.7446,,0.0016840000000000188,2.02431351326814,2.2091269599634558,non_fall
5.104838,-0.5362,-1.5874,-1.136,-1.1288,-0.3872,0.1915,-45.2864,13.5542,-1.7446,,0.0020049999999995904,2.02431351326814,2.3685299315732635,non_fall
5.107016,-0.5362,-1.5874,-1.136,-1.4707,-0.3735,0.3755,-45.2864,13.5542,-1.7446,,0.002177999999999791,2.02431351326814,2.5284644583489113,non_fall
5.113766,-0.5362,-1.5874,-1.136,-1.4707,-0.3735,0.3755,-45.4572,13.1028,-1.3176,,0.006750000000000256,2.02431351326814,2.6786881518977492,non_fall
5.116229,0.9087,-3.386,-0.1314,-1.4707,-0.3735,0.3755,-45.4572,13.1028,-1.3176,,0.00246299999999966,3.5082755949326443,2.80985585552763,non_fall
5.163922,0.9087,-3.386,-0.1314,-1.4707,-0.3735,0.3755,-45.4572,13.1028,-1.3176,,0.04769300000000065,3.5082755949326443,2.9143829152463736,non_fall
5.167177,0.9087,-3.386,-0.1314,-1.4707,-0.3735,0.3755,-45.4572,13.1028,-1.3176,,0.0032549999999993418,3.5082755949326443,2.9871946466026693,non_fall
5.169522,0.9087,-3.386,-0.1314,-1.4707,-0.3735,0.3755,-45.4572,13.1028,-1.3176,,0.0023450000000000415,3.5082755949326443,3.026227036961751,non_fall
5.174692,0.9087,-3.386,-0.1314,-1.4707,-0.3735,0.3755,-45.5914,12.8344,-0.427,,0.005170000000000563,3.5082755949326443,3.0325714975845584,non_fall
5.177127,0.9087,-3.386,-0.1314,-1.4366,-0.4152,0.3537,-45.5914,12.8344,-0.427,,0.002434999999999299,3.5082755949326443,3.010218025138261,non_fall
5.185954,1.3905,-1.7739,0.7993,-1.4366,-0.4152,0.3537,-45.5914,12.8344,-0.427,,0.00882700000000014,2.3914623036962133,2.965425758429672,non_fall
5.231548,1.3905,-1.7739,0.7993,-1.4366,-0.4152,0.3537,-45.5914,12.8344,-0.427,,0.045594000000000356,2.3914623036962133,2.9058202560133934,non_fall
5.235315,1.3905,-1.7739,0.7993,-1.4366,-0.4152,0.3537,-45.5914,12.8344,-0.427,,0.003766999999999854,2.3914623036962133,2.8393681783597295,non_fall
5.238042,1.3905,-1.7739,0.7993,-1.4366,-0.4152,0.3537,-45.5914,12.8344,-0.427,,0.002727000000000146,2.3914623036962133,2.7733972110901224,non_fall
5.240386,1.3905,-1.7739,0.7993,-1.4366,-0.4152,0.3537,-45.5914,12.7124,0.8174,,0.0023439999999999017,2.3914623036962133,2.713806015548521,non_fall
5.246004,1.3905,-1.7739,0.7993,-0.8155,-0.0431,0.084,-45.5914,12.7124,0.8174,,0.005618000000000123,2.3914623036962133,2.6645570772457536,non_fall
5.256043,1.0211,-1.8414,1.787,-0.8155,-0.0431,0.084,-45.5914,12.7124,0.8174,,0.010038999999999909,2.761660400918259,2.6274842071418685,non_fall
5.295126,1.0211,-1.8414,1.787,-0.8155,-0.0431,0.084,-45.506,12.7612,2.074,,0.03908299999999976,2.761660400918259,2.602390878250271,non_fall
5.300263,1.0211,-1.8414,1.787,-0.8155,-0.0431,0.084,-45.506,12.7612,2.074,,0.005137000000000391,2.761660400918259,2.5873737914892327,non_fall
5.302577,1.0211,-1.8414,1.787,-0.8155,-0.0431,0.084,-45.506,12.7612,2.074,,0.0023140000000001493,2.761660400918259,2.5792835437449537,non_fall
5.305801,1.0211,-1.8414,1.787,-0.8155,-0.0431,0.084,-45.506,12.7612,2.074,,0.0032239999999994495,2.761660400918259,2.574232521233259,non_fall
5.30821,1.0211,-1.8414,1.787,-0.8155,-0.0431,0.084,-45.506,12.7612,2.074,,0.0024090000000001055,2.761660400918259,2.5680745739376665,non_fall
5.313874,1.0211,-1.8414,1.787,-0.0937,0.3995,0.0281,-45.506,12.7612,2.074,,0.005664000000000335,2.761660400918259,2.556804236242463,non_fall
5.323661,0.3088,-0.9573,2.1233,-0.0937,0.3995,0.0281,-45.506,12.7612,2.074,,0.009787000000000212,2.3495071015002273,2.536849734438981,non_fall
5.353028,0.3088,-0.9573,2.1233,-0.0937,0.3995,0.0281,-45.3352,12.871,3.2086,,0.0293669999999997,2.3495071015002273,2.505260139404691,non_fall
5.364564,0.3088,-0.9573,2.1233,-0.0937,0.3995,0.0281,-45.3352,12.871,3.2086,,0.011535999999999547,2.3495071015002273,2.459807882933257,non_fall
5.367078,0.3088,-0.9573,2.1233,-0.0937,0.3995,0.0281,-45.3352,12.871,3.2086,,0.0025140000000005713,2.3495071015002273,2.3990374004776736,non_fall
5.369708,0.3088,-0.9573,2.1233,-0.0937,0.3995,0.0281,-45.3352,12.871,3.2086,,0.00262999999999991,2.3495071015002273,2.322286723205952,non_fall
5.384068,0.3088,-0.9573,2.1233,0.5798,0.5111,0.1301,-45.3352,12.871,3.2086,,0.014359999999999928,2.3495071015002273,2.2296964424525783,non_fall
5.401023,-0.413,-1.6191,0.9601,0.5798,0.5111,0.1301,-45.3352,12.871,3.2086,,0.016955000000000275,1.9271340949710791,2.1222080952992353,non_fall
5.412789,-0.413,-1.6191,0.9601,0.5798,0.5111,0.1301,-45.1888,13.0174,4.0626,,0.011765999999999721,1.9271340949710791,2.001546951783556,non_fall
5.430277,-0.413,-1.6191,0.9601,0.5798,0.5111,0.1301,-45.1888,13.0174,4.0626,,0.01748800000000017,1.9271340949710791,1.870181439541368,non_fall
5.432459,-0.413,-1.6191,0.9601,0.5798,0.5111,0.1301,-45.1888,13.0174,4.0626,,0.002181999999999462,1.9271340949710791,1.7312485861573945,non_fall
5.433711,-0.413,-1.6191,0.9601,0.5798,0.5111,0.1301,-45.1888,13.0174,4.0626,,0.0012520000000000309,1.9271340949710791,1.5884305459267458,non_fall
5.453758,-0.413,-1.6191,0.9601,0.7469,0.2194,0.2032,-45.1888,13.0174,4.0626,,0.020046999999999926,1.9271340949710791,1.4457668409235573,non_fall
5.463831,-0.1515,-0.7421,0.3464,0.7469,0.2194,0.2032,-45.1888,13.0174,4.0626,,0.01007300000000022,0.832861104866832,1.3073981880483476,non_fall
5.47315,-0.1515,-0.7421,0.3464,0.7469,0.2194,0.2032,-45.0424,13.1516,4.8434,,0.009319000000000521,0.832861104866832,1.1772622234141163,non_fall
5.497263,-0.1515,-0.7421,0.3464,0.7469,0.2194,0.2032,-45.0424,13.1516,4.8434,,0.02411299999999983,0.832861104866832,1.0587885075086025,non_fall
5.499196,-0.1515,-0.7421,0.3464,0.7469,0.2194,0.2032,-45.0424,13.1516,4.8434,,0.0019330000000001846,0.832861104866832,0.9546521456388244,non_fall
5.500986,-0.1515,-0.7421,0.3464,0.7469,0.2194,0.2032,-45.0424,13.1516,4.8434,,0.0017899999999997362,0.832861104866832,0.8666325913642446,non_fall
5.502885,-0.1515,-0.7421,0.3464,0.7469,0.2194,0.2032,-45.0424,13.1516,4.8434,,0.001898999999999873,0.832861104866832,0.7955945358699322,non_fall
5.523249,-0.1515,-0.7421,0.3464,0.9498,-0.0463,0.0451,-45.0424,13.1516,4.8434,,0.020363999999999827,0.832861104866832,0.7415775457432957,non_fall
5.536081,-0.1515,-0.7421,0.3464,0.9498,-0.0463,0.0451,-44.9082,13.2858,5.2582,,0.012832000000000399,0.832861104866832,0.7039611034288272,non_fall
5.53767,-0.4251,0.5653,0.193,0.9498,-0.0463,0.0451,-44.9082,13.2858,5.2582,,0.0015890000000000626,0.7331596688307397,0.681664073779301,non_fall
5.564326,-0.4251,0.5653,0.193,0.9498,-0.0463,0.0451,-44.9082,13.2858,5.2582,,0.026656000000000013,0.7331596688307397,0.6733401697211021,non_fall
5.566305,-0.4251,0.5653,0.193,0.9498,-0.0463,0.0451,-44.9082,13.2858,5.2582,,0.001978999999999509,0.7331596688307397,0.6775400931525132,non_fall
5.567274,-0.4251,0.5653,0.193,0.9498,-0.0463,0.0451,-44.9082,13.2858,5.2582,,0.0009690000000004417,0.7331596688307397,0.6928226544768492,non_fall
5.594102,-0.4251,0.5653,0.193,0.9498,-0.0463,0.0451,-44.835,13.42,5.185,,0.026828000000000074,0.7331596688307397,0.7178082493057069,non_fall
5.597537,-0.4251,0.5653,0.193,1.2605,-0.0386,-0.0134,-44.835,13.42,5.185,,0.003434999999999633,0.7331596688307397,0.7511773331051567,non_fall
5.603361,-0.2741,0.7847,0.192,1.2605,-0.0386,-0.0134,-44.835,13.42,5.185,,0.005823999999999607,0.8530820007478764,0.7916238131420292,non_fall
5.632929,-0.2741,0.7847,0.192,1.2605,-0.0386,-0.0134,-44.835,13.42,5.185,,0.02956800000000026,0.8530820007478764,0.8377785636501457,non_fall
5.63668,-0.2741,0.7847,0.192,1.2605,-0.0386,-0.0134,-44.835,13.42,5.185,,0.003751000000000282,0.8530820007478764,0.8881219172112851,non_fall
5.639219,-0.2741,0.7847,0.192,1.2605,-0.0386,-0.0134,-44.835,13.42,5.185,,0.002538999999999625,0.8530820007478764,0.9409067614559743,non_fall
5.641779,-0.2741,0.7847,0.192,1.2605,-0.0386,-0.0134,-44.835,13.42,5.185,,0.0025599999999998957,0.8530820007478764,0.9941157074660814,non_fall
5.652808,-0.2741,0.7847,0.192,1.2605,-0.0386,-0.0134,-44.774,13.5786,4.6848,,0.011029000000000622,0.8530820007478764,1.0454748754550138,non_fall
5.661765,-0.2741,0.7847,0.192,1.3432,-0.1392,0.1481,-44.774,13.5786,4.6848,,0.00895699999999966,0.8530820007478764,1.0925405991080022,non_fall
5.677418,0.5288,1.021,0.6104,1.3432,-0.1392,0.1481,-44.774,13.5786,4.6848,,0.01565300000000036,1.3017905361462727,1.1328623101490953,non_fall
5.69676,0.5288,1.021,0.6104,1.3432,-0.1392,0.1481,-44.774,13.5786,4.6848,,0.01934199999999997,1.3017905361462727,1.1642063495781954,non_fall
5.698472,0.5288,1.021,0.6104,1.3432,-0.1392,0.1481,-44.774,13.5786,4.6848,,0.0017119999999994917,1.3017905361462727,1.1848069521884674,non_fall
5.699453,0.5288,1.021,0.6104,1.3432,-0.1392,0.1481,-44.774,13.5786,4.6848,,0.0009810000000003427,1.3017905361462727,1.1936001753076033,non_fall
5.712616,0.5288,1.021,0.6104,1.3432,-0.1392,0.1481,-44.8106,13.847,3.843,,0.013162999999999592,1.3017905361462727,1.1903987528271236,non_fall
5.731539,0.5288,1.021,0.6104,1.3241,-0.3539,0.1667,-44.8106,13.847,3.843,,0.018923000000000023,1.3017905361462727,1.1759783464477682,non_fall
5.742927,-0.0589,1.0379,0.2169,1.3241,-0.3539,0.1667,-44.8106,13.847,3.843,,0.011388000000000176,1.0619563220773254,1.152062440888626,non_fall
5.76337,-0.0589,1.0379,0.2169,1.3241,-0.3539,0.1667,-44.8106,13.847,3.843,,0.02044300000000021,1.0619563220773254,1.1212095878843455,non_fall
5.766533,-0.0589,1.0379,0.2169,1.3241,-0.3539,0.1667,-44.8106,13.847,3.843,,0.003162999999999805,1.0619563220773254,1.0866198524322164,non_fall
5.768606,-0.0589,1.0379,0.2169,1.3241,-0.3539,0.1667,-44.8106,13.847,3.843,,0.0020730000000002136,1.0619563220773254,1.0518845004909219,non_fall
5.771752,-0.0589,1.0379,0.2169,1.3241,-0.3539,0.1667,-44.7496,14.213,2.9646,,0.003146000000000093,1.0619563220773254,1.0207035258753172,non_fall
5.802554,-0.0589,1.0379,0.2169,1.1657,-0.2659,0.0875,-44.7496,14.213,2.9646,,0.030801999999999552,1.0619563220773254,0.9965924623153398,non_fall
5.812956,0.4845,0.5876,-0.5328,1.1657,-0.2659,0.0875,-44.7496,14.213,2.9646,,0.010402000000000022,0.9294567499351436,0.9825974283578073,non_fall
5.833005,0.4845,0.5876,-0.5328,1.1657,-0.2659,0.0875,-44.6764,14.6034,2.0984,,0.020049000000000206,0.9294567499351436,0.9810377827976311,non_fall
5.837444,0.4845,0.5876,-0.5328,1.1657,-0.2659,0.0875,-44.6764,14.6034,2.0984,,0.004438999999999638,0.9294567499351436,0.9932980509083617,non_fall
5.84008,0.4845,0.5876,-0.5328,1.1657,-0.2659,0.0875,-44.6764,14.6034,2.0984,,0.002636000000000749,0.9294567499351436,1.01969188989783,non_fall
5.841992,0.4845,0.5876,-0.5328,1.1657,-0.2659,0.0875,-44.6764,14.6034,2.0984,,0.0019119999999999138,0.9294567499351436,1.0594182959579788,non_fall
5.844207,0.4845,0.5876,-0.5328,1.1657,-0.2659,0.0875,-44.6764,14.6034,2.0984,,0.002214999999999634,0.9294567499351436,1.110623372370389,non_fall
5.872855,0.4845,0.5876,-0.5328,0.7064,-0.4024,0.1381,-44.6764,14.6034,2.0984,,0.02864800000000045,0.9294567499351436,1.1705700348853771,non_fall
5.88223,-0.1501,1.2845,-0.7927,0.7064,-0.4024,0.1381,-44.6764,14.6034,2.0984,,0.009374999999999467,1.5168531735141673,1.2359029652060165,non_fall
5.89223,-0.1501,1.2845,-0.7927,0.7064,-0.4024,0.1381,-44.5788,14.945,1.6226,,0.009999999999999787,1.5168531735141673,1.3029780414488843,non_fall
5.898515,-0.1501,1.2845,-0.7927,0.7064,-0.4024,0.1381,-44.5788,14.945,1.6226,,0.006285000000000096,1.5168531735141673,1.368209746255009,non_fall
5.901299,-0.1501,1.2845,-0.7927,0.7064,-0.4024,0.1381,-44.5788,14.945,1.6226,,0.0027840000000001197,1.5168531735141673,1.428385099511372,non_fall
5.904434,-0.1501,1.2845,-0.7927,0.7064,-0.4024,0.1381,-44.5788,14.945,1.6226,,0.003135000000000332,1.5168531735141673,1.480902539078697,non_fall
5.941314,-0.1501,1.2845,-0.7927,0.4073,-0.168,0.1578,-44.5788,14.945,1.6226,,0.036880000000000024,1.5168531735141673,1.5239137892307677,non_fall
5.952494,-0.1501,1.2845,-0.7927,0.4073,-0.168,0.1578,-44.4568,15.2378,1.2444,,0.011179999999999524,1.5168531735141673,1.5563666939714185,non_fall
5.955498,0.1886,1.4406,-0.6246,0.4073,-0.168,0.1578,-44.4568,15.2378,1.2444,,0.003004000000000673,1.5814624497597154,1.5779610731163694,non_fall
5.964885,0.1886,1.4406,-0.6246,0.4073,-0.168,0.1578,-44.4568,15.2378,1.2444,,0.009386999999999368,1.5814624497597154,1.5890367791453226,non_fall
5.967377,0.1886,1.4406,-0.6246,0.4073,-0.168,0.1578,-44.4568,15.2378,1.2444,,0.0024920000000001608,1.5814624497597154,1.5904150178185437,non_fall
5.969881,0.1886,1.4406,-0.6246,0.4073,-0.168,0.1578,-44.4568,15.2378,1.2444,,0.0025040000000000617,1.5814624497597154,1.5832131818860253,non_fall
6.01078,0.1886,1.4406,-0.6246,0.4073,-0.168,0.1578,-44.3714,15.555,0.8784,,0.040898999999999575,1.5814624497597154,1.5686520017119616,non_fall
6.014941,0.1886,1.4406,-0.6246,0.234,0.0684,0.1764,-44.3714,15.555,0.8784,,0.0041610000000007474,1.5814624497597154,1.5478727170618605,non_fall
6.025641,0.5474,1.2479,-0.192,0.234,0.0684,0.1764,-44.3714,15.555,0.8784,,0.010699999999999932,1.3761414062515522,1.5217814511444308,non_fall
6.032884,0.5474,1.2479,-0.192,0.234,0.0684,0.1764,-44.3714,15.555,0.8784,,0.007242999999999888,1.3761414062515522,1.4909376927163907,non_fall
6.033997,0.5474,1.2479,-0.192,0.234,0.0684,0.1764,-44.3714,15.555,0.8784,,0.0011130000000001417,1.3761414062515522,1.4555022067775627,non_fall
6.034802,0.5474,1.2479,-0.192,0.234,0.0684,0.1764,-44.3714,15.555,0.8784,,0.0008049999999997226,1.3761414062515522,1.415254356554496,non_fall
6.036137,0.5474,1.2479,-0.192,0.234,0.0684,0.1764,-44.3714,15.555,0.8784,,0.0013350000000000861,1.3761414062515522,1.3696788897472578,non_fall
6.070249,0.5474,1.2479,-0.192,0.234,0.0684,0.1764,-44.2494,15.9576,0.5856,,0.034111999999999476,1.3761414062515522,1.3181101752127384,non_fall
6.081015,0.5474,1.2479,-0.192,0.1764,0.2788,0.1003,-44.2494,15.9576,0.5856,,0.010766000000000275,1.3761414062515522,1.2599117859031974,non_fall
6.090086,0.2861,1.0768,0.0362,0.1764,0.2788,0.1003,-44.2494,15.9576,0.5856,,0.009071000000000495,1.1147474557046542,1.1946642278811446,non_fall
6.095865,0.2861,1.0768,0.0362,0.1764,0.2788,0.1003,-44.2494,15.9576,0.5856,,0.0057789999999995345,1.1147474557046542,1.1223341037651524,non_fall
6.096699,0.2861,1.0768,0.0362,0.1764,0.2788,0.1003,-44.2494,15.9576,0.5856,,0.0008340000000002235,1.1147474557046542,1.0434020218686237,non_fall
6.097178,0.2861,1.0768,0.0362,0.1764,0.2788,0.1003,-44.2494,15.9576,0.5856,,0.00047900000000034026,1.1147474557046542,0.9589307917323313,non_fall
6.130737,0.2861,1.0768,0.0362,0.1764,0.2788,0.1003,-44.1152,16.2992,0.2928,,0.03355899999999945,1.1147474557046542,0.8705587394377395,non_fall
6.150743,0.2861,1.0768,0.0362,0.1304,0.4045,0.0228,-44.1152,16.2992,0.2928,,0.020006000000000412,1.1147474557046542,0.7804084670156296,non_fall
6.161024,0.3254,0.1017,-0.0355,0.1304,0.4045,0.0228,-44.1152,16.2992,0.2928,,0.010280999999999985,0.3427656633911863,0.690913815950648,non_fall
6.163932,0.3254,0.1017,-0.0355,0.1304,0.4045,0.0228,-44.1152,16.2992,0.2928,,0.0029079999999996886,0.3427656633911863,0.6045878217305153,non_fall
6.165613,0.3254,0.1017,-0.0355,0.1304,0.4045,0.0228,-44.1152,16.2992,0.2928,,0.0016809999999995995,0.3427656633911863,0.5237746018746873,non_fall
6.167186,0.3254,0.1017,-0.0355,0.1304,0.4045,0.0228,-44.1152,16.2992,0.2928,,0.0015730000000004907,0.3427656633911863,0.4504361065397682,non_fall
6.190413,0.3254,0.1017,-0.0355,0.1304,0.4045,0.0228,-43.9932,16.6042,-0.0366,,0.02322700000000033,0.3427656633911863,0.38601403219204883,non_fall
6.220155,0.3254,0.1017,-0.0355,0.1682,0.3376,-0.0214,-43.9932,16.6042,-0.0366,,0.029741999999999713,0.3427656633911863,0.331383839809042,non_fall
6.23815,0.3254,0.1017,-0.0355,0.1682,0.3376,-0.0214,-43.9932,16.6042,-0.0366,,0.017994999999999983,0.3427656633911863,0.2868936294505481,non_fall
6.240588,0.3254,0.1017,-0.0355,0.1682,0.3376,-0.0214,-43.9932,16.6042,-0.0366,,0.002437999999999718,0.3427656633911863,0.252463606812326,non_fall
6.242517,0.3254,0.1017,-0.0355,0.1682,0.3376,-0.0214,-43.9932,16.6042,-0.0366,,0.0019290000000005136,0.3427656633911863,0.2277139450327993,non_fall
6.244143,0.3254,0.1017,-0.0355,0.1682,0.3376,-0.0214,-43.9932,16.6042,-0.0366,,0.0016259999999999053,0.3427656633911863,0.21208905524545013,non_fall
6.245232,-0.1813,-0.0869,0.0058,0.1682,0.3376,-0.0214,-43.9932,16.6042,-0.0366,,0.0010889999999994515,0.20113413434820057,0.20495308970683535,non_fall
6.250303,-0.1813,-0.0869,0.0058,0.1682,0.3376,-0.0214,-43.8956,16.775,-0.427,,0.005071000000000048,0.20113413434820057,0.20564286559359465,non_fall
6.289594,-0.1813,-0.0869,0.0058,0.1397,0.1846,-0.0134,-43.8956,16.775,-0.427,,0.03929100000000041,0.20113413434820057,0.21347722972748878,non_fall
6.298186,-0.1813,-0.0869,0.0058,0.1397,0.1846,-0.0134,-43.8956,16.775,-0.427,,0.008592000000000155,0.20113413434820057,0.22773250400491535,non_fall
6.300295,-0.1813,-0.0869,0.0058,0.1397,0.1846,-0.0134,-43.8956,16.775,-0.427,,0.0021089999999999165,0.20113413434820057,0.24759962781282277,non_fall
6.301767,-0.1813,-0.0869,0.0058,0.1397,0.1846,-0.0134,-43.8956,16.775,-0.427,,0.0014719999999996958,0.20113413434820057,0.27213993970878025,non_fall
6.304295,-0.2301,-0.2447,-0.0253,0.1397,0.1846,-0.0134,-43.8956,16.775,-0.427,,0.0025279999999998637,0.3368444596546008,0.30025455590906136,non_fall
6.309577,-0.2301,-0.2447,-0.0253,0.1397,0.1846,-0.0134,-43.737,16.8848,-0.7564,,0.005282000000000231,0.3368444596546008,0.33067827466250754,non_fall
6.360501,-0.2301,-0.2447,-0.0253,0.0294,0.0407,0.0001,-43.737,16.8848,-0.7564,,0.05092400000000019,0.3368444596546008,0.3620042125098394,non_fall
6.364233,-0.2301,-0.2447,-0.0253,0.0294,0.0407,0.0001,-43.737,16.8848,-0.7564,,0.0037319999999994025,0.3368444596546008,0.39274159305398704,non_fall
6.365831,-0.2301,-0.2447,-0.0253,0.0294,0.0407,0.0001,-43.737,16.8848,-0.7564,,0.0015980000000004324,0.3368444596546008,0.4214068619636004,non_fall
6.367465,-0.2301,-0.2447,-0.0253,0.0294,0.0407,0.0001,-43.737,16.8848,-0.7564,,0.0016340000000001353,0.3368444596546008,0.4466461523122356,non_fall
6.370023,-0.2301,-0.2447,-0.0253,0.0294,0.0407,0.0001,-43.615,17.0312,-1.2322,,0.002557999999999616,0.3368444596546008,0.46738271931697795,non_fall
6.372566,-0.599,-0.2589,-0.0654,0.0294,0.0407,0.0001,-43.615,17.0312,-1.2322,,0.002543000000000184,0.6558257161777052,0.4829749842102758,non_fall
6.430282,-0.599,-0.2589,-0.0654,0.0294,0.0407,0.0001,-43.5296,17.1898,-1.7568,,0.0577160000000001,0.6558257161777052,0.49336031579840606,non_fall
6.433467,-0.599,-0.2589,-0.0654,0.1426,-0.0605,0.0382,-43.5296,17.1898,-1.7568,,0.0031850000000002154,0.6558257161777052,0.4991507684175742,non_fall
6.435747,-0.599,-0.2589,-0.0654,0.1426,-0.0605,0.0382,-43.5296,17.1898,-1.7568,,0.0022799999999998377,0.6558257161777052,0.5016455347818243,non_fall
6.436867,-0.599,-0.2589,-0.0654,0.1426,-0.0605,0.0382,-43.5296,17.1898,-1.7568,,0.001120000000000232,0.6558257161777052,0.5027341680394307,non_fall
6.438215,-0.599,-0.2589,-0.0654,0.1426,-0.0605,0.0382,-43.5296,17.1898,-1.7568,,0.0013479999999992387,0.6558257161777052,0.5046827456914412,non_fall
6.439216,-0.599,-0.2589,-0.0654,0.1426,-0.0605,0.0382,-43.5296,17.1898,-1.7568,,0.0010010000000004737,0.6558257161777052,0.509817444564502,non_fall
6.440355,-0.0316,-0.1344,0.2342,0.1426,-0.0605,0.0382,-43.5296,17.1898,-1.7568,,0.0011390000000002232,0.2718668056236362,0.5201429174874775,non_fall
6.488803,-0.0316,-0.1344,0.2342,0.1426,-0.0605,0.0382,-43.4808,17.263,-2.2936,,0.0484479999999996,0.2718668056236362,0.5369536836862779,non_fall
6.498525,-0.0316,-0.1344,0.2342,0.1848,-0.4077,-0.0939,-43.4808,17.263,-2.2936,,0.009722000000000008,0.2718668056236362,0.5605106419430353,non_fall
6.499746,-0.0316,-0.1344,0.2342,0.1848,-0.4077,-0.0939,-43.4808,17.263,-2.2936,,0.0012210000000001386,0.2718668056236362,0.5898550549269319,non_fall
6.500363,-0.0316,-0.1344,0.2342,0.1848,-0.4077,-0.0939,-43.4808,17.263,-2.2936,,0.0006170000000000897,0.2718668056236362,0.6228151067636926,non_fall
6.500918,-0.0316,-0.1344,0.2342,0.1848,-0.4077,-0.0939,-43.4808,17.263,-2.2936,,0.0005550000000003052,0.2718668056236362,0.6562277297936706,non_fall
6.511265,-0.5368,-0.9148,0.0982,0.1848,-0.4077,-0.0939,-43.4808,17.263,-2.2936,,0.01034699999999944,1.0652025722837886,0.6863567592705611,non_fall
6.548426,-0.5368,-0.9148,0.0982,0.1848,-0.4077,-0.0939,-43.4564,17.2264,-2.5986,,0.03716100000000022,1.0652025722837886,0.7094446668411393,non_fall
6.56294,-0.5368,-0.9148,0.0982,0.1848,-0.4077,-0.0939,-43.4564,17.2264,-2.5986,,0.014514000000000138,1.0652025722837886,0.7222996195972234,non_fall
6.563837,-0.5368,-0.9148,0.0982,0.1848,-0.4077,-0.0939,-43.4564,17.2264,-2.5986,,0.0008970000000001477,1.0652025722837886,0.7228056718720222,non_fall
6.564407,-0.5368,-0.9148,0.0982,0.1848,-0.4077,-0.0939,-43.4564,17.2264,-2.5986,,0.0005699999999997374,1.0652025722837886,0.710258528254459,non_fall
6.569181,-0.5368,-0.9148,0.0982,0.0726,-0.5547,0.0069,-43.4564,17.2264,-2.5986,,0.004774000000000278,1.0652025722837886,0.6854669824155984,non_fall
6.578507,0.0042,0.2877,-0.1664,0.0726,-0.5547,0.0069,-43.4564,17.2264,-2.5986,,0.009325999999999723,0.33238214452644715,0.6506087670292132,non_fall
6.610633,0.0042,0.2877,-0.1664,0.0726,-0.5547,0.0069,-43.493,17.1776,-2.5742,,0.03212599999999988,0.33238214452644715,0.6088784887679617,non_fall
6.631061,0.0042,0.2877,-0.1664,0.0726,-0.5547,0.0069,-43.493,17.1776,-2.5742,,0.02042799999999989,0.33238214452644715,0.5640044649037707,non_fall
6.633005,0.0042,0.2877,-0.1664,0.0726,-0.5547,0.0069,-43.493,17.1776,-2.5742,,0.0019439999999999458,0.33238214452644715,0.5197297720139781,non_fall
6.634052,0.0042,0.2877,-0.1664,0.0726,-0.5547,0.0069,-43.493,17.1776,-2.5742,,0.001046999999999798,0.33238214452644715,0.47934601278017813,non_fall
6.63518,0.0042,0.2877,-0.1664,0.0726,-0.5547,0.0069,-43.493,17.1776,-2.5742,,0.001128000000000462,0.33238214452644715,0.44534317285690866,non_fall
6.636737,0.0042,0.2877,-0.1664,0.2872,-0.3036,-0.0763,-43.493,17.1776,-2.5742,,0.0015570000000000306,0.33238214452644715,0.41920797424535333,non_fall
6.64776,0.032,-0.3766,0.2614,0.2872,-0.3036,-0.0763,-43.493,17.1776,-2.5742,,0.011022999999999783,0.4595449053139421,0.4013749742462675,non_fall
6.67812,0.032,-0.3766,0.2614,0.2872,-0.3036,-0.0763,-43.4686,17.0556,-2.3424,,0.030359999999999943,0.4595449053139421,0.3913123677567891,non_fall
6.697322,0.032,-0.3766,0.2614,0.2872,-0.3036,-0.0763,-43.4686,17.0556,-2.3424,,0.01920199999999994,0.4595449053139421,0.38770913071451607,non_fall
6.699193,0.032,-0.3766,0.2614,0.2872,-0.3036,-0.0763,-43.4686,17.0556,-2.3424,,0.0018710000000004001,0.4595449053139421,0.3887228511081847,non_fall
6.700431,0.032,-0.3766,0.2614,0.2872,-0.3036,-0.0763,-43.4686,17.0556,-2.3424,,0.0012379999999998503,0.4595449053139421,0.39224826824914,non_fall
6.70743,0.032,-0.3766,0.2614,0.1856,-0.2864,-0.0774,-43.4686,17.0556,-2.3424,,0.006998999999999533,0.4595449053139421,0.3961730842757579,non_fall
6.717746,0.0336,-0.3361,-0.2064,0.1856,-0.2864,-0.0774,-43.4686,17.0556,-2.3424,,0.010316000000000436,0.3958448307102166,0.3985970080787481,non_fall
6.739291,0.0336,-0.3361,-0.2064,0.1856,-0.2864,-0.0774,-43.5052,17.0312,-2.0008,,0.021544999999999703,0.3958448307102166,0.39799983540398953,non_fall
6.764373,0.0336,-0.3361,-0.2064,0.1856,-0.2864,-0.0774,-43.5052,17.0312,-2.0008,,0.02508200000000027,0.3958448307102166,0.39335301691831165,non_fall
6.76625,0.0336,-0.3361,-0.2064,0.1856,-0.2864,-0.0774,-43.5052,17.0312,-2.0008,,0.0018770000000003506,0.3958448307102166,0.3841754091750081,non_fall
6.767934,0.0336,-0.3361,-0.2064,0.1856,-0.2864,-0.0774,-43.5052,17.0312,-2.0008,,0.0016840000000000188,0.3958448307102166,0.37053739015192066,non_fall
6.779262,0.0336,-0.3361,-0.2064,0.1298,-0.2562,-0.0595,-43.5052,17.0312,-2.0008,,0.011327999999999783,0.3958448307102166,0.35301915703523984,non_fall
6.78846,0.252,-0.0593,-0.0907,0.1298,-0.2562,-0.0595,-43.5052,17.0312,-2.0008,,0.009197999999999595,0.2743118298579192,0.3326303123039513,non_fall
6.799579,0.252,-0.0593,-0.0907,0.1298,-0.2562,-0.0595,-43.6272,16.9702,-1.5982,,0.011118999999999879,0.2743118298579192,0.31069963297592496,non_fall
6.832662,0.252,-0.0593,-0.0907,0.1298,-0.2562,-0.0595,-43.6272,16.9702,-1.5982,,0.03308300000000042,0.2743118298579192,0.28874563852441587,non_fall
6.834201,0.252,-0.0593,-0.0907,0.1298,-0.2562,-0.0595,-43.6272,16.9702,-1.5982,,0.0015390000000001791,0.2743118298579192,0.2683387871897682,non_fall
6.835141,0.252,-0.0593,-0.0907,0.1298,-0.2562,-0.0595,-43.6272,16.9702,-1.5982,,0.0009399999999999409,0.2743118298579192,0.25096422462085094,non_fall
6.836454,0.252,-0.0593,-0.0907,0.1298,-0.2562,-0.0595,-43.6272,16.9702,-1.5982,,0.0013129999999996755,0.2743118298579192,0.23789118405497847,non_fall
6.84862,0.252,-0.0593,-0.0907,0.1366,-0.2053,-0.0716,-43.6272,16.9702,-1.5982,,0.012166000000000565,0.2743118298579192,0.2300533845420683,non_fall
6.857051,0.252,-0.0593,-0.0907,0.1366,-0.2053,-0.0716,-43.7126,16.8482,-1.0858,,0.008430999999999855,0.2743118298579192,0.22794529844185904,non_fall
6.858792,-0.1448,0.012,-0.0402,0.1366,-0.2053,-0.0716,-43.7126,16.8482,-1.0858,,0.0017409999999999926,0.15075503308347618,0.2315419645728271,non_fall
6.897525,-0.1448,0.012,-0.0402,0.1366,-0.2053,-0.0716,-43.7126,16.8482,-1.0858,,0.038732999999999684,0.15075503308347618,0.24025407687996297,non_fall
6.899697,-0.1448,0.012,-0.0402,0.1366,-0.2053,-0.0716,-43.7126,16.8482,-1.0858,,0.0021719999999998407,0.15075503308347618,0.25293321014534537,non_fall
6.901059,-0.1448,0.012,-0.0402,0.1366,-0.2053,-0.0716,-43.7126,16.8482,-1.0858,,0.0013620000000003074,0.15075503308347618,0.2679414415161524,non_fall
6.917294,-0.1448,0.012,-0.0402,0.1366,-0.2053,-0.0716,-43.8224,16.7018,-0.488,,0.016235,0.15075503308347618,0.283293500823997,non_fall
6.92016,-0.1448,0.012,-0.0402,0.1197,-0.1638,-0.0354,-43.8224,16.7018,-0.488,,0.002866000000000035,0.15075503308347618,0.29686826057771676,non_fall
6.927507,-0.228,-0.4209,0.0884,0.1197,-0.1638,-0.0354,-43.8224,16.7018,-0.488,,0.0073470000000002145,0.4867806179378961,0.30667155767777765,non_fall
6.965796,-0.228,-0.4209,0.0884,0.1197,-0.1638,-0.0354,-43.8224,16.7018,-0.488,,0.038288999999999795,0.4867806179378961,0.3111165501818761,non_fall
6.968356,-0.228,-0.4209,0.0884,0.1197,-0.1638,-0.0354,-43.8224,16.7018,-0.488,,0.0025599999999998957,0.4867806179378961,0.3092754674941,non_fall
6.969536,-0.228,-0.4209,0.0884,0.1197,-0.1638,-0.0354,-43.8224,16.7018,-0.488,,0.0011799999999997368,0.4867806179378961,0.3010535471237568,non_fall
6.977203,-0.228,-0.4209,0.0884,0.1197,-0.1638,-0.0354,-43.8712,16.5188,0.244,,0.0076670000000005345,0.4867806179378961,0.2872454306067056,non_fall
6.987067,-0.228,-0.4209,0.0884,0.0511,-0.0278,-0.0218,-43.8712,16.5188,0.244,,0.009863999999999429,0.4867806179378961,0.2694542666200646,non_fall
6.996874,0.0355,-0.0292,-0.0342,0.0511,-0.0278,-0.0218,-43.8712,16.5188,0.244,,0.009807000000000343,0.057293367853530834,0.24987929719653434,non_fall
7.030899,0.0355,-0.0292,-0.0342,0.0511,-0.0278,-0.0218,-43.8712,16.5188,0.244,,0.03402499999999975,0.057293367853530834,0.23100391177016594,non_fall
7.034526,0.0355,-0.0292,-0.0342,0.0511,-0.0278,-0.0218,-43.8712,16.5188,0.244,,0.003626999999999825,0.057293367853530834,0.21523735220786036,non_fall
7.037583,0.0355,-0.0292,-0.0342,0.0511,-0.0278,-0.0218,-43.8712,16.5188,0.244,,0.0030570000000000874,0.057293367853530834,0.20457270569278224,non_fall
7.040072,0.0355,-0.0292,-0.0342,0.0511,-0.0278,-0.0218,-43.8712,16.5188,0.244,,0.0024890000000006296,0.057293367853530834,0.20031823341131139,non_fall
7.042456,0.0355,-0.0292,-0.0342,0.0511,-0.0278,-0.0218,-43.8712,16.348,0.7808,,0.0023839999999992756,0.057293367853530834,0.20294188224845952,non_fall
7.057826,0.0355,-0.0292,-0.0342,0.1364,0.1172,-0.0052,-43.8712,16.348,0.7808,,0.015370000000000772,0.057293367853530834,0.21204665705157646,non_fall
7.071022,0.3653,-0.1028,-0.0468,0.1364,0.1172,-0.0052,-43.8712,16.348,0.7808,,0.013195999999999763,0.38236392350743553,0.22647195038506243,non_fall
7.098444,0.3653,-0.1028,-0.0468,0.1364,0.1172,-0.0052,-43.859,16.2138,1.037,,0.027421999999999613,0.38236392350743553,0.24449518884204965,non_fall
7.100354,0.3653,-0.1028,-0.0468,0.1364,0.1172,-0.0052,-43.859,16.2138,1.037,,0.0019100000000005224,0.38236392350743553,0.2640924142560862,non_fall
7.101101,0.3653,-0.1028,-0.0468,0.1364,0.1172,-0.0052,-43.859,16.2138,1.037,,0.0007469999999996091,0.38236392350743553,0.28321014767894725,non_fall
7.101785,0.3653,-0.1028,-0.0468,0.1364,0.1172,-0.0052,-43.859,16.2138,1.037,,0.0006839999999996849,0.38236392350743553,0.300006034643361,non_fall
7.12827,0.3653,-0.1028,-0.0468,0.0352,0.0256,0.0368,-43.859,16.2138,1.037,,0.026485000000000092,0.38236392350743553,0.31302917809599945,non_fall
7.137565,-0.234,-0.1573,-0.0242,0.0352,0.0256,0.0368,-43.859,16.2138,1.037,,0.00929500000000072,0.28299280909592034,0.3213271051827221,non_fall
7.155506,-0.234,-0.1573,-0.0242,0.0352,0.0256,0.0368,-43.92,16.1772,1.159,,0.01794099999999954,0.28299280909592034,0.32448080945106755,non_fall
7.164159,-0.234,-0.1573,-0.0242,0.0352,0.0256,0.0368,-43.92,16.1772,1.159,,0.0086529999999998,0.28299280909592034,0.3225800552493515,non_fall
7.165538,-0.234,-0.1573,-0.0242,0.0352,0.0256,0.0368,-43.92,16.1772,1.159,,0.001379000000000019,0.28299280909592034,0.31615679955873627,non_fall
7.166389,-0.234,-0.1573,-0.0242,0.0352,0.0256,0.0368,-43.92,16.1772,1.159,,0.0008509999999999351,0.28299280909592034,0.30609499498547177,non_fall
7.197999,-0.234,-0.1573,-0.0242,0.0535,-0.0266,0.0692,-43.92,16.1772,1.159,,0.03161000000000058,0.28299280909592034,0.2935317000194809,non_fall
7.206498,-0.1928,-0.1637,0.0703,0.0535,-0.0266,0.0692,-43.92,16.1772,1.159,,0.00849899999999959,0.26251022837215315,0.2797596520130725,non_fall
7.219112,-0.1928,-0.1637,0.0703,0.0535,-0.0266,0.0692,-43.9566,16.1528,1.2444,,0.012614000000000125,0.26251022837215315,0.2661369624168497,non_fall
7.230499,-0.1928,-0.1637,0.0703,0.0535,-0.0266,0.0692,-43.9566,16.1528,1.2444,,0.011387000000000036,0.26251022837215315,0.25400604841188296,non_fall
7.233237,-0.1928,-0.1637,0.0703,0.0535,-0.0266,0.0692,-43.9566,16.1528,1.2444,,0.002737999999999907,0.26251022837215315,0.24462139393540674,non_fall
7.234852,-0.1928,-0.1637,0.0703,0.0535,-0.0266,0.0692,-43.9566,16.1528,1.2444,,0.001615000000000144,0.26251022837215315,0.23908423920347446,non_fall
7.236478,-0.1928,-0.1637,0.0703,0.0535,-0.0266,0.0692,-43.9566,16.1528,1.2444,,0.0016259999999999053,0.26251022837215315,0.2382819787775588,non_fall
7.267527,-0.1928,-0.1637,0.0703,0.1952,0.0691,0.0356,-43.9566,16.1528,1.2444,,0.031049000000000326,0.26251022837215315,0.24283102916748872,non_fall
7.287292,-0.1928,-0.1637,0.0703,0.1952,0.0691,0.0356,-43.9322,16.2016,1.281,,0.01976499999999959,0.26251022837215315,0.25302405861253513,non_fall
7.289607,-0.2235,0.1384,-0.0036,0.1952,0.0691,0.0356,-43.9322,16.2016,1.281,,0.002315000000000289,0.26290639018479567,0.26878529270122875,non_fall
7.297562,-0.2235,0.1384,-0.0036,0.1952,0.0691,0.0356,-43.9322,16.2016,1.281,,0.007954999999999934,0.26290639018479567,0.28964046319862885,non_fall
7.299507,-0.2235,0.1384,-0.0036,0.1952,0.0691,0.0356,-43.9322,16.2016,1.281,,0.0019450000000000855,0.26290639018479567,0.31471010336338434,non_fall
7.3006,-0.2235,0.1384,-0.0036,0.1952,0.0691,0.0356,-43.9322,16.2016,1.281,,0.0010930000000000106,0.26290639018479567,0.34273552494608267,non_fall
7.337412,-0.2235,0.1384,-0.0036,0.1952,0.0691,0.0356,-43.9688,16.2626,1.3054,,0.0368119999999994,0.26290639018479567,0.37214516591200275,non_fall
7.338628,-0.2235,0.1384,-0.0036,-0.0148,-0.1618,0.0273,-43.9688,16.2626,1.3054,,0.001216000000000328,0.26290639018479567,0.4011643648594563,non_fall
7.348197,-0.339,-0.411,-0.1976,-0.0148,-0.1618,0.0273,-43.9688,16.2626,1.3054,,0.009568999999999939,0.568232135662882,0.42796359272102164,non_fall
7.363388,-0.339,-0.411,-0.1976,-0.0148,-0.1618,0.0273,-43.9688,16.2626,1.3054,,0.015190999999999732,0.568232135662882,0.4508296040839764,non_fall
7.364828,-0.339,-0.411,-0.1976,-0.0148,-0.1618,0.0273,-43.9688,16.2626,1.3054,,0.001440000000000552,0.568232135662882,0.4683342588418356,non_fall
7.365784,-0.339,-0.411,-0.1976,-0.0148,-0.1618,0.0273,-43.9688,16.2626,1.3054,,0.0009559999999995128,0.568232135662882,0.47947198796536317,non_fall
7.395587,-0.339,-0.411,-0.1976,-0.0148,-0.1618,0.0273,-43.9322,16.3358,1.2444,,0.029803000000000246,0.568232135662882,0.4837418572252024,non_fall
7.405216,-0.339,-0.411,-0.1976,-0.0117,-0.1308,0.0675,-43.9322,16.3358,1.2444,,0.009629000000000332,0.568232135662882,0.4811619626853735,non_fall
7.41527,-0.0668,0.3073,-0.1737,-0.0117,-0.1308,0.0675,-43.9322,16.3358,1.2444,,0.010053999999999341,0.3592592657121038,0.4722180808558144,non_fall
7.429916,-0.0668,0.3073,-0.1737,-0.0117,-0.1308,0.0675,-43.9322,16.3358,1.2444,,0.014646000000000825,0.3592592657121038,0.4577615399882369,non_fall
7.432718,-0.0668,0.3073,-0.1737,-0.0117,-0.1308,0.0675,-43.9322,16.3358,1.2444,,0.002801999999999971,0.3592592657121038,0.4388804299391718,non_fall
7.434139,-0.0668,0.3073,-0.1737,-0.0117,-0.1308,0.0675,-43.9322,16.3358,1.2444,,0.0014209999999996725,0.3592592657121038,0.4167708772235472,non_fall
7.43547,-0.0668,0.3073,-0.1737,-0.0117,-0.1308,0.0675,-43.9322,16.3358,1.2444,,0.001330999999999527,0.3592592657121038,0.392630365797534,non_fall
7.456955,-0.0668,0.3073,-0.1737,-0.0117,-0.1308,0.0675,-43.92,16.5188,1.0614,,0.0214850000000002,0.3592592657121038,0.36758549010396957,non_fall
7.477533,-0.0668,0.3073,-0.1737,-0.0346,-0.0124,0.0633,-43.92,16.5188,1.0614,,0.02057800000000043,0.3592592657121038,0.3426561625546813,non_fall
7.486991,0.259,-0.1149,-0.1563,-0.0346,-0.0124,0.0633,-43.92,16.5188,1.0614,,0.009457999999999522,0.32359341773280864,0.31875007512037146,non_fall
7.497334,0.259,-0.1149,-0.1563,-0.0346,-0.0124,0.0633,-43.92,16.5188,1.0614,,0.010343000000000657,0.32359341773280864,0.2966761588815211,non_fall
7.50056,0.259,-0.1149,-0.1563,-0.0346,-0.0124,0.0633,-43.92,16.5188,1.0614,,0.003225999999999729,0.32359341773280864,0.27716375065231336,non_fall
7.50193,0.259,-0.1149,-0.1563,-0.0346,-0.0124,0.0633,-43.92,16.5188,1.0614,,0.0013699999999996493,0.32359341773280864,0.2608745750325968,non_fall
7.514765,0.259,-0.1149,-0.1563,-0.0346,-0.0124,0.0633,-43.9688,16.7018,0.915,,0.01283499999999993,0.32359341773280864,0.24839705160828734,non_fall
7.547254,0.259,-0.1149,-0.1563,0.0198,0.0615,-0.0158,-43.9688,16.7018,0.915,,0.03248899999999999,0.32359341773280864,0.24021687059532723,non_fall
7.555791,0.1273,-0.1168,0.0154,0.0198,0.0615,-0.0158,-43.9688,16.7018,0.915,,0.008537000000000461,0.17344938743045477,0.23666437012696692,non_fall
7.56572,0.1273,-0.1168,0.0154,0.0198,0.0615,-0.0158,-43.9688,16.7018,0.915,,0.009928999999999633,0.17344938743045477,0.23784732508084308,non_fall
7.56735,0.1273,-0.1168,0.0154,0.0198,0.0615,-0.0158,-43.9688,16.7018,0.915,,0.0016300000000004644,0.17344938743045477,0.24358515102981645,non_fall
7.568648,0.1273,-0.1168,0.0154,0.0198,0.0615,-0.0158,-43.9688,16.7018,0.915,,0.0012979999999993552,0.17344938743045477,0.2533641725420597,non_fall
7.574812,0.1273,-0.1168,0.0154,0.0198,0.0615,-0.0158,-44.0054,16.8604,0.8906,,0.006164000000000058,0.17344938743045477,0.2663316088303462,non_fall
7.61638,0.1273,-0.1168,0.0154,0.0214,0.1373,0.0072,-44.0054,16.8604,0.8906,,0.041568000000000715,0.17344938743045477,0.28133885546144877,non_fall
7.634638,0.3413,-0.1613,0.0849,0.0214,0.1373,0.0072,-44.0054,16.8604,0.8906,,0.01825799999999944,0.3869255613163855,0.29703444282036334,non_fall
7.636592,0.3413,-0.1613,0.0849,0.0214,0.1373,0.0072,-44.0054,16.8604,0.8906,,0.0019540000000004554,0.3869255613163855,0.3119958087913521,non_fall
7.637399,0.3413,-0.1613,0.0849,0.0214,0.1373,0.0072,-44.0054,16.8604,0.8906,,0.0008070000000000022,0.3869255613163855,0.32487941741665766,non_fall
7.638502,0.3413,-0.1613,0.0849,0.0214,0.1373,0.0072,-44.0054,16.8604,0.8906,,0.001102999999999632,0.3869255613163855,0.33456410206475473,non_fall
7.639311,0.3413,-0.1613,0.0849,0.0214,0.1373,0.0072,-44.0054,16.8604,0.8906,,0.0008090000000002817,0.3869255613163855,0.34026446960875084,non_fall
7.640252,0.3413,-0.1613,0.0849,0.0214,0.1373,0.0072,-43.981,16.9702,0.9028,,0.0009410000000000807,0.3869255613163855,0.3415981176263756,non_fall
7.684598,0.3413,-0.1613,0.0849,0.0437,0.1768,0.0041,-43.981,16.9702,0.9028,,0.044346,0.3869255613163855,0.3385990650742803,non_fall
7.69439,0.3413,-0.1613,0.0849,0.0437,0.1768,0.0041,-43.9688,16.9824,0.9394,,0.009792000000000023,0.3869255613163855,0.33167810716651125,non_fall
7.695395,0.2114,0.0031,0.1129,0.0437,0.1768,0.0041,-43.9688,16.9824,0.9394,,0.0010050000000001447,0.2396789102111406,0.32153835529602964,non_fall
7.696167,0.2114,0.0031,0.1129,0.0437,0.1768,0.0041,-43.9688,16.9824,0.9394,,0.0007719999999995508,0.2396789102111406,0.3090608791224321,non_fall
7.696674,0.2114,0.0031,0.1129,0.0437,0.1768,0.0041,-43.9688,16.9824,0.9394,,0.0005069999999998132,0.2396789102111406,0.29517999993925875,non_fall
7.697142,0.2114,0.0031,0.1129,0.0437,0.1768,0.0041,-43.9688,16.9824,0.9394,,0.00046800000000057906,0.2396789102111406,0.2807685211678704,non_fall
7.756627,0.2114,0.0031,0.1129,-0.0409,0.0487,0.0073,-43.9688,16.9824,0.9394,,0.059484999999999566,0.2396789102111406,0.26654927160789543,non_fall
7.759183,0.2114,0.0031,0.1129,-0.0409,0.0487,0.0073,-43.9566,16.9702,0.9028,,0.0025560000000002248,0.2396789102111406,0.25304233099409146,non_fall
7.763857,0.2114,0.0031,0.1129,-0.0409,0.0487,0.0073,-43.9566,16.9702,0.9028,,0.004673999999999623,0.2396789102111406,0.24054984134995913,non_fall
7.76534,0.2114,0.0031,0.1129,-0.0409,0.0487,0.0073,-43.9566,16.9702,0.9028,,0.0014830000000003452,0.2396789102111406,0.22917420852922496,non_fall
7.766935,0.2114,0.0031,0.1129,-0.0409,0.0487,0.0073,-43.9566,16.9702,0.9028,,0.001595000000000013,0.2396789102111406,0.21886137007083512,non_fall
7.768448,0.2114,0.0031,0.1129,-0.0409,0.0487,0.0073,-43.9566,16.9702,0.9028,,0.0015130000000000976,0.2396789102111406,0.2094586583505415,non_fall
7.769589,0.0258,-0.2019,-0.0098,-0.0409,0.0487,0.0073,-43.9566,16.9702,0.9028,,0.0011409999999996145,0.20377755028461794,0.2007764772609383,non_fall
7.815588,0.0258,-0.2019,-0.0098,-0.0409,0.0487,0.0073,-43.8834,16.958,0.8418,,0.04599900000000012,0.20377755028461794,0.19264424396486335,non_fall
7.825982,0.0258,-0.2019,-0.0098,-0.0096,0.1209,-0.0341,-43.8834,16.958,0.8418,,0.010393999999999792,0.20377755028461794,0.18495325868554452,non_fall
7.830176,0.0258,-0.2019,-0.0098,-0.0096,0.1209,-0.0341,-43.8834,16.958,0.8418,,0.004194000000000031,0.20377755028461794,0.17768163484582128,non_fall
7.832797,0.0258,-0.2019,-0.0098,-0.0096,0.1209,-0.0341,-43.8834,16.958,0.8418,,0.0026210000000004285,0.20377755028461794,0.1708987441496667,non_fall
7.835491,0.0258,-0.2019,-0.0098,-0.0096,0.1209,-0.0341,-43.8834,16.958,0.8418,,0.002693999999999974,0.20377755028461794,0.16474901026692676,non_fall
7.838106,0.0007,0.0836,0.086,-0.0096,0.1209,-0.0341,-43.8834,16.958,0.8418,,0.00261499999999959,0.11993935967813067,0.1594177827548788,non_fall
7.876323,0.0007,0.0836,0.086,-0.0096,0.1209,-0.0341,-43.8956,16.958,0.6954,,0.03821700000000039,0.11993935967813067,0.15508544112183134,non_fall
7.896912,0.0007,0.0836,0.086,-0.0497,0.1216,-0.0682,-43.8956,16.958,0.6954,,0.02058900000000019,0.11993935967813067,0.15187889806356056,non_fall
7.900782,0.0007,0.0836,0.086,-0.0497,0.1216,-0.0682,-43.8956,16.958,0.6954,,0.00387000000000004,0.11993935967813067,0.1498308349785753,non_fall
7.903964,0.0007,0.0836,0.086,-0.0497,0.1216,-0.0682,-43.8956,16.958,0.6954,,0.003181999999999796,0.11993935967813067,0.14885550171115985,non_fall
7.906326,0.0007,0.0836,0.086,-0.0497,0.1216,-0.0682,-43.8956,16.958,0.6954,,0.002361999999999753,0.11993935967813067,0.14874629195497105,non_fall
7.909858,-0.0333,-0.1609,0.035,-0.0497,0.1216,-0.0682,-43.8956,16.958,0.6954,,0.0035319999999998686,0.16799613090782775,0.14919581472067725,non_fall
7.93393,-0.0333,-0.1609,0.035,-0.0497,0.1216,-0.0682,-43.9444,16.897,0.4514,,0.024072000000000315,0.16799613090782775,0.1498348438219408,non_fall
7.965292,-0.0333,-0.1609,0.035,-0.079,0.1184,-0.066,-43.9444,16.897,0.4514,,0.03136199999999967,0.16799613090782775,0.15028310501193626,non_fall
7.968692,-0.0333,-0.1609,0.035,-0.079,0.1184,-0.066,-43.9444,16.897,0.4514,,0.0034000000000000696,0.16799613090782775,0.15020307642402955,non_fall
7.972032,-0.0333,-0.1609,0.035,-0.079,0.1184,-0.066,-43.9444,16.897,0.4514,,0.0033399999999996766,0.16799613090782775,0.14934815158454706,non_fall
7.973968,-0.0333,-0.1609,0.035,-0.079,0.1184,-0.066,-43.9444,16.897,0.4514,,0.001936000000000604,0.16799613090782775,0.1475982240302181,non_fall
7.976118,-0.0333,-0.1609,0.035,-0.079,0.1184,-0.066,-43.9444,16.897,0.4514,,0.00214999999999943,0.16799613090782775,0.1449782320280141,non_fall
7.978144,0.1224,-0.0345,-0.018,-0.079,0.1184,-0.066,-43.9444,16.897,0.4514,,0.0020260000000007494,0.12843679379367892,0.14165793065225468,non_fall
7.994605,0.1224,-0.0345,-0.018,-0.079,0.1184,-0.066,-43.9566,16.8604,0.122,,0.016460999999999615,0.12843679379367892,0.13793387517445957,non_fall
8.030187,0.1224,-0.0345,-0.018,-0.079,0.1184,-0.066,-43.9566,16.8604,0.122,,0.03558199999999978,0.12843679379367892,0.13419692588773913,non_fall
8.033897,0.1224,-0.0345,-0.018,-0.079,0.1184,-0.066,-43.9566,16.8604,0.122,,0.00370999999999988,0.12843679379367892,0.13088998049768988,non_fall
8.036244,0.1224,-0.0345,-0.018,-0.079,0.1184,-0.066,-43.9566,16.8604,0.122,,0.002347000000000321,0.12843679379367892,0.128460868221372,non_fall
8.03844,0.1224,-0.0345,-0.018,-0.081,0.1036,-0.0228,-43.9566,16.8604,0.122,,0.0021959999999996427,0.12843679379367892,0.12731477147320694,non_fall
8.043873,-0.0801,-0.0914,0.0379,-0.081,0.1036,-0.0228,-43.9566,16.8604,0.122,,0.005433000000000021,0.12730428115346318,0.12776981968222947,non_fall
8.053254,-0.0801,-0.0914,0.0379,-0.081,0.1036,-0.0228,-43.9566,16.8116,-0.2196,,0.009381000000001194,0.12730428115346318,0.1300190193812627,non_fall
8.097208,-0.0801,-0.0914,0.0379,-0.081,0.1036,-0.0228,-43.9566,16.8116,-0.2196,,0.04395399999999938,0.12730428115346318,0.1341014687828779,non_fall
8.100371,-0.0801,-0.0914,0.0379,-0.081,0.1036,-0.0228,-43.9566,16.8116,-0.2196,,0.003163000000000693,0.12730428115346318,0.13988567834035573,non_fall
8.102667,-0.0801,-0.0914,0.0379,-0.081,0.1036,-0.0228,-43.9566,16.8116,-0.2196,,0.0022959999999994096,0.12730428115346318,0.14706754991222587,non_fall
8.105027,-0.0801,-0.0914,0.0379,-0.0867,0.1096,-0.0119,-43.9566,16.8116,-0.2196,,0.0023599999999994736,0.12730428115346318,0.1551849185197868,non_fall
8.113463,-0.0801,-0.0914,0.0379,-0.0867,0.1096,-0.0119,-43.981,16.7628,-0.488,,0.008435999999999666,0.12730428115346318,0.16364930051299625,non_fall
8.115472,0.179,0.0944,0.0076,-0.0867,0.1096,-0.0119,-43.981,16.7628,-0.488,,0.0020090000000010377,0.20250955533011275,0.17179344716809095,non_fall
8.164817,0.179,0.0944,0.0076,-0.0867,0.1096,-0.0119,-43.981,16.7628,-0.488,,0.04934499999999886,0.20250955533011275,0.17893059963247473,non_fall
8.166854,0.179,0.0944,0.0076,-0.0867,0.1096,-0.0119,-43.981,16.7628,-0.488,,0.002037000000001399,0.20250955533011275,0.18441873996137556,non_fall
8.167961,0.179,0.0944,0.0076,-0.0867,0.1096,-0.0119,-43.981,16.7628,-0.488,,0.001106999999999303,0.20250955533011275,0.1877218275348063,non_fall
8.168941,0.179,0.0944,0.0076,-0.0867,0.1096,-0.0119,-43.981,16.7628,-0.488,,0.000980000000000203,0.20250955533011275,0.18846066846864776,non_fall
8.173476,0.179,0.0944,0.0076,-0.0591,0.0533,0.0285,-43.981,16.7628,-0.488,,0.004535000000000622,0.20250955533011275,0.18644821500144892,non_fall
8.175431,0.179,0.0944,0.0076,-0.0591,0.0533,0.0285,-43.9932,16.7262,-0.7686,,0.001954999999998819,0.20250955533011275,0.18170672974790444,non_fall
8.18522,-0.1434,-0.015,-0.0192,-0.0591,0.0533,0.0285,-43.9932,16.7262,-0.7686,,0.009788999999999604,0.14545514772602583,0.17446676608539308,non_fall
8.233234,-0.1434,-0.015,-0.0192,-0.0591,0.0533,0.0285,-44.0176,16.7262,-1.0492,,0.04801400000000022,0.14545514772602583,0.16515012499518125,non_fall
8.237613,-0.1434,-0.015,-0.0192,-0.0591,0.0533,0.0285,-44.0176,16.7262,-1.0492,,0.004379000000000133,0.14545514772602583,0.15434051981761904,non_fall
8.239554,-0.1434,-0.015,-0.0192,-0.0591,0.0533,0.0285,-44.0176,16.7262,-1.0492,,0.0019410000000004146,0.14545514772602583,0.14274605617020802,non_fall
8.241827,-0.1434,-0.015,-0.0192,-0.0591,0.0533,0.0285,-44.0176,16.7262,-1.0492,,0.0022730000000006356,0.14545514772602583,0.1311566933842792,non_fall
8.246983,-0.1434,-0.015,-0.0192,-0.0526,-0.0076,0.0871,-44.0176,16.7262,-1.0492,,0.005155999999999494,0.14545514772602583,0.12039835246349845,non_fall
8.255352,-0.0911,-0.0319,-0.0223,-0.0526,-0.0076,0.0871,-44.0176,16.7262,-1.0492,,0.00836900000000007,0.09906618999436691,0.11128438896483475,non_fall
8.294048,-0.0911,-0.0319,-0.0223,-0.0526,-0.0076,0.0871,-44.0298,16.7872,-1.3176,,0.03869599999999984,0.09906618999436691,0.10456534173523058,non_fall
8.29905,-0.0911,-0.0319,-0.0223,-0.0526,-0.0076,0.0871,-44.0298,16.7872,-1.3176,,0.005001999999999285,0.09906618999436691,0.10087888426861585,non_fall
8.300763,-0.0911,-0.0319,-0.0223,-0.0526,-0.0076,0.0871,-44.0298,16.7872,-1.3176,,0.0017130000000005197,0.09906618999436691,0.10070289367921485,non_fall
8.303555,-0.0911,-0.0319,-0.0223,-0.0526,-0.0076,0.0871,-44.0298,16.7872,-1.3176,,0.0027919999999994616,0.09906618999436691,0.10431489470819058,non_fall
8.311992,-0.0911,-0.0319,-0.0223,-0.0342,0.0671,-0.0076,-44.0298,16.7872,-1.3176,,0.008437000000000694,0.09906618999436691,0.11176087086568369,non_fall
8.323501,-0.1077,-0.0298,-0.0923,-0.0342,0.0671,-0.0076,-44.0298,16.7872,-1.3176,,0.011509000000000214,0.14493660683209056,0.12283591867316986,non_fall
8.355558,-0.1077,-0.0298,-0.0923,-0.0342,0.0671,-0.0076,-44.0298,16.7628,-1.4884,,0.032057,0.14493660683209056,0.13707868889344993,non_fall
8.36334,-0.1077,-0.0298,-0.0923,-0.0342,0.0671,-0.0076,-44.0298,16.7628,-1.4884,,0.007782000000000622,0.14493660683209056,0.153781204431881,non_fall
8.364854,-0.1077,-0.0298,-0.0923,-0.0342,0.0671,-0.0076,-44.0298,16.7628,-1.4884,,0.001513999999998461,0.14493660683209056,0.17201570993434115,non_fall
8.365798,-0.1077,-0.0298,-0.0923,-0.0342,0.0671,-0.0076,-44.0298,16.7628,-1.4884,,0.0009440000000005,0.14493660683209056,0.1906805624273249,non_fall
8.36675,-0.1077,-0.0298,-0.0923,-0.0342,0.0671,-0.0076,-44.0298,16.7628,-1.4884,,0.0009519999999998419,0.14493660683209056,0.20856699968160927,non_fall
8.383514,-0.1077,-0.0298,-0.0923,-0.1205,0.0344,-0.0378,-44.0298,16.7628,-1.4884,,0.016764000000000223,0.14493660683209056,0.22444683296466925,non_fall
8.393129,-0.2416,-0.134,-0.1452,-0.1205,0.0344,-0.0378,-44.0298,16.7628,-1.4884,,0.009615000000000151,0.312105110499652,0.23717705857275462,non_fall
8.413532,-0.2416,-0.134,-0.1452,-0.1205,0.0344,-0.0378,-43.981,16.7384,-1.5494,,0.02040299999999995,0.312105110499652,0.24581151619495373,non_fall
8.432391,-0.2416,-0.134,-0.1452,-0.1205,0.0344,-0.0378,-43.981,16.7384,-1.5494,,0.018859000000000847,0.312105110499652,0.2497040940643343,non_fall
8.436076,-0.2416,-0.134,-0.1452,-0.1205,0.0344,-0.0378,-43.981,16.7384,-1.5494,,0.00368499999999905,0.312105110499652,0.2485856235376703,non_fall
8.438883,-0.2416,-0.134,-0.1452,-0.1205,0.0344,-0.0378,-43.981,16.7384,-1.5494,,0.00280700000000067,0.312105110499652,0.2425993351681677,non_fall
8.453568,-0.2416,-0.134,-0.1452,-0.1088,0.1656,-0.0832,-43.981,16.7384,-1.5494,,0.014685000000000059,0.312105110499652,0.23228676345773364,non_fall
8.461643,-0.1152,0.0445,0.0481,-0.1088,0.1656,-0.0832,-43.981,16.7384,-1.5494,,0.008074999999999832,0.13253263748978966,0.21852509598311542,non_fall
8.47321,-0.1152,0.0445,0.0481,-0.1088,0.1656,-0.0832,-43.92,16.6774,-1.5006,,0.011566999999999439,0.13253263748978966,0.2024261600845185,non_fall
8.497001,-0.1152,0.0445,0.0481,-0.1088,0.1656,-0.0832,-43.92,16.6774,-1.5006,,0.02379099999999923,0.13253263748978966,0.1852144083988431,non_fall
8.500274,-0.1152,0.0445,0.0481,-0.1088,0.1656,-0.0832,-43.92,16.6774,-1.5006,,0.0032730000000000814,0.13253263748978966,0.16810395817170404,non_fall
8.502656,-0.1152,0.0445,0.0481,-0.1088,0.1656,-0.0832,-43.92,16.6774,-1.5006,,0.0023820000000007724,0.13253263748978966,0.1521919680875822,non_fall
8.523358,-0.1152,0.0445,0.0481,-0.0814,0.0888,-0.0194,-43.92,16.6774,-1.5006,,0.020701999999999998,0.13253263748978966,0.13837920837800513,non_fall
8.533386,-0.1152,0.0445,0.0481,-0.0814,0.0888,-0.0194,-43.8834,16.592,-1.4396,,0.010028000000000148,0.13253263748978966,0.1273217110499449,non_fall
8.536726,0.0682,0.0195,0.1023,-0.0814,0.0888,-0.0194,-43.8834,16.592,-1.4396,,0.0033399999999996766,0.12448606347700131,0.11941197918626349,non_fall
8.564577,0.0682,0.0195,0.1023,-0.0814,0.0888,-0.0194,-43.8834,16.592,-1.4396,,0.02785100000000007,0.12448606347700131,0.11478493929868847,non_fall
8.567775,0.0682,0.0195,0.1023,-0.0814,0.0888,-0.0194,-43.8834,16.592,-1.4396,,0.003197999999999368,0.12448606347700131,0.11334236959508932,non_fall
8.57047,0.0682,0.0195,0.1023,-0.0814,0.0888,-0.0194,-43.8834,16.592,-1.4396,,0.002695000000001002,0.12448606347700131,0.11478942225887993,non_fall
8.573003,0.0682,0.0195,0.1023,-0.0814,0.0888,-0.0194,-43.8834,16.592,-1.4396,,0.0025329999999996744,0.12448606347700131,0.1186775785145497,non_fall
8.593977,0.0682,0.0195,0.1023,-0.0814,0.0888,-0.0194,-43.9078,16.5676,-1.5494,,0.020974000000000714,0.12448606347700131,0.12444953899091625,non_fall
8.597888,0.0682,0.0195,0.1023,-0.0539,0.1036,-0.018,-43.9078,16.5676,-1.5494,,0.0039109999999986655,0.12448606347700131,0.13148284194175036,non_fall
8.603139,0.0732,0.0237,0.1357,-0.0539,0.1036,-0.018,-43.9078,16.5676,-1.5494,,0.005251000000001227,0.15599493581523727,0.1391301202834269,non_fall
