time,ax,ay,az,wx,wy,wz,Bx,By,Bz,Unnamed: 10,time_diff,acc_mag,acc_mag_filtered,label
0.051671,0.0561,-0.0666,-0.938,0.0,0.0,0.0,0.0,0.0,0.0,,0.0,0.9420333168205888,0.9423293564484722,non_fall
0.070422,0.0561,-0.0666,-0.938,0.0,0.0,0.0,0.0,0.0,0.0,,0.018750999999999997,0.9420333168205888,0.8921413082165285,non_fall
0.080268,0.0561,-0.0666,-0.938,0.0,0.0,0.0,0.0,0.0,0.0,,0.009846000000000008,0.9420333168205888,0.8408814496280227,non_fall
0.087073,0.0561,-0.0666,-0.938,0.0,0.0,0.0,-41.2125,10.3875,-10.875,,0.006804999999999992,0.9420333168205888,0.7877428038200361,non_fall
0.089069,0.0561,-0.0666,-0.938,0.0,0.0,0.0,-41.2125,10.3875,-10.875,,0.0019959999999999978,0.9420333168205888,0.7323181129096151,non_fall
0.093534,0.0561,-0.0666,-0.938,-0.0117,-0.0025,0.0019,-41.2125,10.3875,-10.875,,0.004465000000000011,0.9420333168205888,0.6747166183151629,non_fall
0.108667,0.0561,-0.0666,-0.938,-0.0117,-0.0025,0.0019,-41.2125,10.3875,-10.875,,0.015132999999999994,0.9420333168205888,0.61559676930417,non_fall
0.128444,0.0237,-0.2914,-0.0536,-0.0117,-0.0025,0.0019,-41.2125,10.3875,-10.875,,0.019777000000000003,0.29723494074553214,0.5561089322598781,non_fall
0.142003,0.0237,-0.2914,-0.0536,-0.0117,-0.0025,0.0019,-41.2125,10.3875,-10.875,,0.013558999999999988,0.29723494074553214,0.4977596044492055,non_fall
0.148002,0.0151,-0.2894,-0.0327,-0.0117,-0.0025,0.0019,-41.2125,10.3875,-10.875,,0.005999000000000004,0.2916327485040046,0.4422248147788319,non_fall
0.150749,0.0151,-0.2894,-0.0327,-0.0117,-0.0025,0.0019,-42.0563,10.0875,-11.9813,,0.0027469999999999994,0.2916327485040046,0.3911488996503394,non_fall
0.155955,0.0151,-0.2894,-0.0327,-0.0067,0.0025,-0.0054,-42.0563,10.0875,-11.9813,,0.005206000000000016,0.2916327485040046,0.34596238518618916,non_fall
0.16625,0.0071,-0.2679,-0.0086,-0.0067,0.0025,-0.0054,-42.0563,10.0875,-11.9813,,0.010294999999999999,0.268132019721629,0.30774235454327065,non_fall
0.185084,-0.0022,-0.2393,-0.0274,-0.0067,0.0025,-0.0054,-42.0563,10.0875,-11.9813,,0.01883399999999999,0.24087359755689292,0.2771265798458815,non_fall
0.2037,-0.0022,-0.2393,-0.0274,-0.0067,0.0025,-0.0054,-42.0563,10.0875,-11.9813,,0.018615999999999994,0.24087359755689292,0.25428289525373104,non_fall
0.204962,0.0075,-0.256,0.0251,-0.0067,0.0025,-0.0054,-42.0563,10.0875,-11.9813,,0.0012620000000000131,0.25733686094300595,0.238928523443891,non_fall
0.206651,0.0075,-0.256,0.0251,-0.0067,0.0025,-0.0054,-41.9813,10.3875,-12.1875,,0.001688999999999996,0.25733686094300595,0.23038965922780877,non_fall
0.218778,0.0075,-0.256,0.0251,0.003,0.0048,0.0008,-41.9813,10.3875,-12.1875,,0.012126999999999999,0.25733686094300595,0.22768901531776134,non_fall
0.225855,0.0124,-0.3011,0.0207,0.003,0.0048,0.0008,-41.9813,10.3875,-12.1875,,0.007077,0.3020653240608726,0.22964812854229047,non_fall
0.242284,0.0096,-0.272,-0.0219,0.003,0.0048,0.0008,-41.9813,10.3875,-12.1875,,0.016429,0.2730490249021227,0.23499198414671355,non_fall
0.262146,0.0186,-0.2458,-0.0526,0.003,0.0048,0.0008,-41.9813,10.3875,-12.1875,,0.01986199999999999,0.2520522961609356,0.24244575429544601,non_fall
0.268575,0.0186,-0.2458,-0.0526,0.003,0.0048,0.0008,-41.9813,10.3875,-12.1875,,0.006429000000000018,0.2520522961609356,0.2508167448870105,non_fall
0.269472,0.0186,-0.2458,-0.0526,0.003,0.0048,0.0008,-42.2812,10.4813,-11.8688,,0.0008969999999999811,0.2520522961609356,0.2590582545881144,non_fall
0.280065,0.0186,-0.2458,-0.0526,-0.0067,-0.0073,-0.0016,-42.2812,10.4813,-11.8688,,0.010593000000000019,0.2520522961609356,0.2663150347298094,non_fall
0.281483,0.0063,-0.2508,-0.0319,-0.0067,-0.0073,-0.0016,-42.2812,10.4813,-11.8688,,0.0014179999999999748,0.25289907077725693,0.27195178052158225,non_fall
0.300038,0.0181,-0.2724,-0.0346,-0.0067,-0.0073,-0.0016,-42.2812,10.4813,-11.8688,,0.018555000000000044,0.27518453808308346,0.27556657198102513,non_fall
0.319674,0.0057,-0.2984,-0.0481,-0.0067,-0.0073,-0.0016,-42.2812,10.4813,-11.8688,,0.019635999999999987,0.30230557388179263,0.2769907920233337,non_fall
0.329214,0.0057,-0.2984,-0.0481,-0.0067,-0.0073,-0.0016,-41.8875,10.4625,-11.775,,0.009539999999999993,0.30230557388179263,0.2762762961665871,non_fall
0.330092,0.0057,-0.2984,-0.0481,-0.0067,-0.0073,-0.0016,-41.8875,10.4625,-11.775,,0.0008779999999999899,0.30230557388179263,0.2736701094716305,non_fall
0.338346,-0.0047,-0.267,-0.0279,-0.0067,-0.0073,-0.0016,-41.8875,10.4625,-11.775,,0.008253999999999984,0.26849487890833224,0.2695772240931805,non_fall
0.342108,-0.0047,-0.267,-0.0279,0.003,-0.0037,-0.0054,-41.8875,10.4625,-11.775,,0.003762000000000043,0.26849487890833224,0.26451327786865303,non_fall
0.358258,-0.0173,-0.2478,-0.0358,0.003,-0.0037,-0.0054,-41.8875,10.4625,-11.775,,0.016149999999999998,0.25096965952082734,0.2590505727896774,non_fall
0.378312,0.0008,-0.2095,-0.0259,0.003,-0.0037,-0.0054,-41.8875,10.4625,-11.775,,0.02005399999999996,0.211096423465676,0.25376236638566485,non_fall
0.387872,0.0008,-0.2095,-0.0259,0.003,-0.0037,-0.0054,-41.8688,10.3688,-11.9813,,0.009560000000000013,0.211096423465676,0.24917111690674074,non_fall
0.391942,0.0008,-0.2095,-0.0259,0.003,-0.0037,-0.0054,-41.8688,10.3688,-11.9813,,0.004070000000000018,0.211096423465676,0.2457060991685594,non_fall
0.395943,0.0258,-0.2432,-0.0349,0.003,-0.0037,-0.0054,-41.8688,10.3688,-11.9813,,0.004000999999999977,0.24704228383011684,0.24367442221097718,non_fall
0.404481,0.0258,-0.2432,-0.0349,-0.0055,-0.0012,-0.0041,-41.8688,10.3688,-11.9813,,0.00853799999999999,0.24704228383011684,0.24324718232840142,non_fall
0.415504,0.0317,-0.2458,-0.0318,-0.0055,-0.0012,-0.0041,-41.8688,10.3688,-11.9813,,0.011023000000000005,0.2498675048900917,0.2444599425219693,non_fall
0.435342,0.0167,-0.2651,-0.0002,-0.0055,-0.0012,-0.0041,-41.8688,10.3688,-11.9813,,0.019838000000000022,0.265625563528814,0.2472247648777969,non_fall
0.448641,0.0167,-0.2651,-0.0002,-0.0055,-0.0012,-0.0041,-41.4938,10.575,-12.2063,,0.013299000000000005,0.265625563528814,0.2513500884996059,non_fall
0.452802,0.0167,-0.2651,-0.0002,-0.0055,-0.0012,-0.0041,-41.4938,10.575,-12.2063,,0.00416099999999997,0.265625563528814,0.25656477416596507,non_fall
0.455118,0.0064,-0.2675,-0.0195,-0.0055,-0.0012,-0.0041,-41.4938,10.575,-12.2063,,0.0023160000000000402,0.26828615320213606,0.2625433136715384,non_fall
0.466872,0.0064,-0.2675,-0.0195,-0.0043,-0.0025,-0.0078,-41.4938,10.575,-12.2063,,0.011753999999999987,0.26828615320213606,0.26893020608689716,non_fall
0.471794,-0.0374,-0.2579,-0.0265,-0.0043,-0.0025,-0.0078,-41.4938,10.575,-12.2063,,0.004921999999999982,0.26194163472040866,0.2753625350384781,non_fall
0.490871,-0.0523,-0.2654,0.0034,-0.0043,-0.0025,-0.0078,-41.4938,10.575,-12.2063,,0.01907700000000001,0.2705254331851259,0.2814905668327702,non_fall
0.507309,-0.0523,-0.2654,0.0034,-0.0043,-0.0025,-0.0078,-41.475,10.1813,-12.3188,,0.016438000000000008,0.2705254331851259,0.28699652990948754,non_fall
0.510673,-0.0077,-0.3088,0.0075,-0.0043,-0.0025,-0.0078,-41.475,10.1813,-12.3188,,0.0033640000000000336,0.30898702238119974,0.2916115523336059,non_fall
0.51555,-0.0077,-0.3088,0.0075,-0.0043,-0.0025,-0.0078,-41.475,10.1813,-12.3188,,0.004876999999999909,0.30898702238119974,0.29513013953847406,non_fall
0.529483,-0.0077,-0.3088,0.0075,-0.0104,-0.0122,-0.0089,-41.475,10.1813,-12.3188,,0.013933000000000084,0.30898702238119974,0.2974209277078806,non_fall
0.530314,0.0076,-0.3066,0.049,-0.0104,-0.0122,-0.0089,-41.475,10.1813,-12.3188,,0.0008309999999999151,0.3105838373128904,0.29843220448498503,non_fall
0.549609,0.0399,-0.3017,0.0147,-0.0104,-0.0122,-0.0089,-41.475,10.1813,-12.3188,,0.019295000000000062,0.3046817848181936,0.29819107860696226,non_fall
0.569146,0.046,-0.2848,-0.039,-0.0104,-0.0122,-0.0089,-41.475,10.1813,-12.3188,,0.019537000000000027,0.2911151662143352,0.2967960499622443,non_fall
0.572406,0.046,-0.2848,-0.039,-0.0104,-0.0122,-0.0089,-41.8875,10.4813,-12.0938,,0.0032599999999999296,0.2911151662143352,0.29440371962650513,non_fall
0.576822,0.046,-0.2848,-0.039,-0.0104,-0.0122,-0.0089,-41.8875,10.4813,-12.0938,,0.0044159999999999755,0.2911151662143352,0.2912111671943171,non_fall
0.587656,0.0568,-0.2798,-0.0427,-0.0104,-0.0122,-0.0089,-41.8875,10.4813,-12.0938,,0.01083400000000001,0.28868247262346913,0.28743594677845974,non_fall
0.591087,0.0568,-0.2798,-0.0427,0.0055,-0.0073,-0.0066,-41.8875,10.4813,-12.0938,,0.003431000000000073,0.28868247262346913,0.28329573984927353,non_fall
0.606432,0.0194,-0.2698,-0.0353,0.0055,-0.0073,-0.0066,-41.8875,10.4813,-12.0938,,0.015344999999999942,0.2727901941052867,0.27898963414343864,non_fall
0.625086,0.0162,-0.2455,-0.0157,0.0055,-0.0073,-0.0066,-41.8875,10.4813,-12.0938,,0.01865400000000006,0.24653433837905828,0.2746829463676328,non_fall
0.627809,0.0162,-0.2455,-0.0157,0.0055,-0.0073,-0.0066,-41.9625,9.9938,-12.2063,,0.00272299999999992,0.24653433837905828,0.2704974450996764,non_fall
0.641778,0.0162,-0.2455,-0.0157,0.0055,-0.0073,-0.0066,-41.9625,9.9938,-12.2063,,0.01396900000000001,0.24653433837905828,0.2665084935471391,non_fall
0.648844,0.049,-0.2691,-0.0032,0.0055,-0.0073,-0.0066,-41.9625,9.9938,-12.2063,,0.007066000000000017,0.27354350659447213,0.2627497320702189,non_fall
0.654349,0.049,-0.2691,-0.0032,0.0018,0.0037,-0.0029,-41.9625,9.9938,-12.2063,,0.005504999999999982,0.27354350659447213,0.25922449481447885,non_fall
0.662655,0.0457,-0.252,-0.0174,0.0018,0.0037,-0.0029,-41.9625,9.9938,-12.2063,,0.008306000000000036,0.25670070120667765,0.25592168364336426,non_fall
0.682382,0.0256,-0.2612,-0.0193,0.0018,0.0037,-0.0029,-41.9625,9.9938,-12.2063,,0.01972700000000005,0.26316019835833837,0.2528329037853758,non_fall
0.688422,0.0256,-0.2612,-0.0193,0.0018,0.0037,-0.0029,-40.6875,10.3313,-13.4813,,0.006039999999999934,0.26316019835833837,0.24996754102458696,non_fall
0.702395,0.0256,-0.2612,-0.0193,0.0018,0.0037,-0.0029,-40.6875,10.3313,-13.4813,,0.013973000000000013,0.26316019835833837,0.2473629219937703,non_fall
0.704796,0.0224,-0.2682,-0.0179,0.0018,0.0037,-0.0029,-40.6875,10.3313,-13.4813,,0.0024009999999999865,0.26972840043273155,0.2450874460967206,non_fall
0.715296,0.0224,-0.2682,-0.0179,0.0043,0.0147,-0.0016,-40.6875,10.3313,-13.4813,,0.010500000000000065,0.26972840043273155,0.2432355280704905,non_fall
0.720111,0.0122,-0.2463,-0.0344,0.0043,0.0147,-0.0016,-40.6875,10.3313,-13.4813,,0.004814999999999903,0.24898973874439081,0.2419144303071107,non_fall
0.7406,0.0529,-0.1981,-0.1029,0.0043,0.0147,-0.0016,-40.6875,10.3313,-13.4813,,0.02048900000000009,0.22941322978416043,0.24122462051845434,non_fall
0.748377,0.0529,-0.1981,-0.1029,0.0043,0.0147,-0.0016,-42.1688,10.1813,-12.0938,,0.007776999999999923,0.22941322978416043,0.24123696094841582,non_fall
0.760005,-0.0149,-0.1838,-0.0308,0.0043,0.0147,-0.0016,-42.1688,10.1813,-12.0938,,0.011628000000000083,0.1869574550532821,0.2419713712280906,non_fall
0.763453,-0.0149,-0.1838,-0.0308,0.0043,0.0147,-0.0016,-42.1688,10.1813,-12.0938,,0.0034480000000000066,0.1869574550532821,0.2433820822344774,non_fall
0.777324,-0.0149,-0.1838,-0.0308,0.003,0.0232,-0.0016,-42.1688,10.1813,-12.0938,,0.013870999999999967,0.1869574550532821,0.2453538100786163,non_fall
0.778292,-0.0106,-0.2842,-0.0486,0.003,0.0232,-0.0016,-42.1688,10.1813,-12.0938,,0.0009679999999999689,0.2885202939136171,0.24771096704365325,non_fall
0.797216,-0.0104,-0.2887,-0.0547,0.003,0.0232,-0.0016,-42.1688,10.1813,-12.0938,,0.018924000000000052,0.2940203054212413,0.2502387174920461,non_fall
0.806914,-0.0104,-0.2887,-0.0547,0.003,0.0232,-0.0016,-41.6813,10.3688,-12.0938,,0.009697999999999984,0.2940203054212413,0.25271137810067734,non_fall
0.816579,-0.019,-0.2551,-0.0792,0.003,0.0232,-0.0016,-41.6813,10.3688,-12.0938,,0.009665000000000035,0.26778657546635903,0.2549218463255967,non_fall
0.826443,-0.019,-0.2551,-0.0792,0.003,0.0232,-0.0016,-41.6813,10.3688,-12.0938,,0.009863999999999984,0.26778657546635903,0.2567062010245804,non_fall
0.835985,-0.0254,-0.2528,-0.093,0.003,0.0232,-0.0016,-41.6813,10.3688,-12.0938,,0.00954199999999994,0.27055868125048216,0.25795977449847146,non_fall
0.839643,-0.0254,-0.2528,-0.093,-0.0043,-0.0049,-0.0004,-41.6813,10.3688,-12.0938,,0.00365800000000005,0.27055868125048216,0.2586435549212377,non_fall
0.854899,0.0321,-0.2121,-0.0494,-0.0043,-0.0049,-0.0004,-41.6813,10.3688,-12.0938,,0.015255999999999936,0.2201299161858742,0.2587818450095098,non_fall
0.866989,0.0321,-0.2121,-0.0494,-0.0043,-0.0049,-0.0004,-41.9813,10.4813,-12.0938,,0.012090000000000045,0.2201299161858742,0.25845344836577056,non_fall
0.87399,0.0459,-0.2672,-0.0162,-0.0043,-0.0049,-0.0004,-41.9813,10.4813,-12.0938,,0.007001000000000035,0.2715972938009508,0.25777920575558744,non_fall
0.888366,0.0459,-0.2672,-0.0162,-0.0043,-0.0049,-0.0004,-41.9813,10.4813,-12.0938,,0.014375999999999944,0.2715972938009508,0.25690830075351223,non_fall
0.89418,0.062,-0.2599,-0.0242,-0.0043,-0.0049,-0.0004,-41.9813,10.4813,-12.0938,,0.005813999999999986,0.26828650730142956,0.2560045965957273,non_fall
0.901856,0.062,-0.2599,-0.0242,-0.0055,-0.0062,-0.0016,-41.9813,10.4813,-12.0938,,0.007676000000000016,0.26828650730142956,0.2552331474868206,non_fall
0.913883,0.0379,-0.2312,-0.0528,-0.0055,-0.0062,-0.0016,-41.9813,10.4813,-12.0938,,0.01202700000000001,0.2401617996268349,0.2547467045333604,non_fall
0.9273,0.0379,-0.2312,-0.0528,-0.0055,-0.0062,-0.0016,-41.6813,10.2563,-11.8875,,0.013417000000000012,0.2401617996268349,0.2546725241417,non_fall
0.930952,0.0426,-0.2292,-0.0986,-0.0055,-0.0062,-0.0016,-41.6813,10.2563,-11.8875,,0.0036519999999999886,0.2531192604287552,0.25510048142322345,non_fall
0.950766,0.0426,-0.2292,-0.0986,-0.0055,-0.0062,-0.0016,-41.6813,10.2563,-11.8875,,0.019814,0.2531192604287552,0.25607379488415116,non_fall
0.9534,0.0325,-0.2393,-0.1032,-0.0055,-0.0062,-0.0016,-41.6813,10.2563,-11.8875,,0.002634000000000025,0.2626232662960386,0.25758341601345985,non_fall
0.965201,0.0325,-0.2393,-0.1032,-0.0104,0.006,-0.0029,-41.6813,10.2563,-11.8875,,0.01180099999999995,0.2626232662960386,0.2595665954703556,non_fall
0.97138,0.0078,-0.2421,-0.094,-0.0104,0.006,-0.0029,-41.6813,10.2563,-11.8875,,0.006179000000000046,0.2598254221588026,0.2619096891188465,non_fall
0.987358,0.0078,-0.2421,-0.094,-0.0104,0.006,-0.0029,-41.6813,10.2938,-12.3,,0.015977999999999937,0.2598254221588026,0.2644550938243517,non_fall
0.990556,0.0093,-0.2329,-0.0944,-0.0104,0.006,-0.0029,-41.6813,10.2938,-12.3,,0.003198000000000034,0.2514761618921364,0.26701222505645683,non_fall
1.007924,0.0301,-0.2287,-0.1203,-0.0104,0.006,-0.0029,-41.6813,10.2938,-12.3,,0.01736800000000005,0.26015724091402875,0.2693724495154154,non_fall
1.01494,0.0301,-0.2287,-0.1203,-0.0104,0.006,-0.0029,-41.6813,10.2938,-12.3,,0.007015999999999911,0.26015724091402875,0.2713276560352004,non_fall
1.026386,0.0301,-0.2287,-0.1203,-0.0177,0.0183,-0.0004,-41.6813,10.2938,-12.3,,0.011446000000000067,0.26015724091402875,0.272691590462398,non_fall
1.027379,0.0482,-0.2438,-0.1501,-0.0177,0.0183,-0.0004,-41.6813,10.2938,-12.3,,0.0009930000000000216,0.2903303118863065,0.2733222561058938,non_fall
1.047341,0.0446,-0.2614,-0.1269,-0.0177,0.0183,-0.0004,-41.6813,10.2938,-12.3,,0.019962000000000035,0.29397743110653923,0.2731427887344083,non_fall
1.050168,0.0446,-0.2614,-0.1269,-0.0177,0.0183,-0.0004,-42.5438,10.1063,-12.2813,,0.002826999999999913,0.29397743110653923,0.27215756333724045,non_fall
1.064882,0.0058,-0.2623,-0.1323,-0.0177,0.0183,-0.0004,-42.5438,10.1063,-12.2813,,0.014714000000000116,0.2938336604271199,0.2704602336185181,non_fall
1.074402,0.0058,-0.2623,-0.1323,-0.0177,0.0183,-0.0004,-42.5438,10.1063,-12.2813,,0.009519999999999973,0.2938336604271199,0.2682311533476713,non_fall
1.083811,-0.0079,-0.2438,-0.1214,-0.0177,0.0183,-0.0004,-42.5438,10.1063,-12.2813,,0.009409,0.27246799812088024,0.2657230873410469,non_fall
1.088378,-0.0079,-0.2438,-0.1214,-0.0165,0.017,0.0056,-42.5438,10.1063,-12.2813,,0.004566999999999988,0.27246799812088024,0.2632359742515676,non_fall
1.103503,-0.0089,-0.2133,-0.1111,-0.0165,0.017,0.0056,-42.5438,10.1063,-12.2813,,0.015124999999999833,0.24066430977608624,0.2610833912834805,non_fall
1.10756,-0.0089,-0.2133,-0.1111,-0.0165,0.017,0.0056,-41.8875,10.6125,-12.7125,,0.004057000000000199,0.24066430977608624,0.2595549378234242,non_fall
1.122959,0.0256,-0.2257,-0.0752,-0.0165,0.017,0.0056,-41.8875,10.6125,-12.7125,,0.01539899999999994,0.2392715820986688,0.25887966644442373,non_fall
1.135983,0.0256,-0.2257,-0.0752,-0.0165,0.017,0.0056,-41.8875,10.6125,-12.7125,,0.013023999999999925,0.2392715820986688,0.2591957259202342,non_fall
1.141383,0.0777,-0.2238,-0.0848,-0.0165,0.017,0.0056,-41.8875,10.6125,-12.7125,,0.005400000000000071,0.2516242635359317,0.260530562997,non_fall
1.151248,0.0777,-0.2238,-0.0848,-0.019,0.0428,0.0056,-41.8875,10.6125,-12.7125,,0.009865000000000013,0.2516242635359317,0.26279463699805394,non_fall
1.16073,0.0665,-0.21,-0.0676,-0.019,0.0428,0.0056,-41.8875,10.6125,-12.7125,,0.00948199999999999,0.23041703496052543,0.2657900122226451,non_fall
1.167067,0.0665,-0.21,-0.0676,-0.019,0.0428,0.0056,-40.9875,10.35,-13.8938,,0.006337000000000037,0.23041703496052543,0.26923364084051704,non_fall
1.179603,0.0296,-0.2564,-0.0923,-0.019,0.0428,0.0056,-40.9875,10.35,-13.8938,,0.01253599999999988,0.27411021505956323,0.2727935694061007,non_fall
1.199129,0.0296,-0.2564,-0.0923,-0.019,0.0428,0.0056,-40.9875,10.35,-13.8938,,0.019525999999999932,0.27411021505956323,0.2761344744902197,non_fall
1.201592,-0.0149,-0.3145,-0.0818,-0.019,0.0428,0.0056,-40.9875,10.35,-13.8938,,0.002463000000000104,0.32530524127348454,0.2789669024243841,non_fall
1.213248,-0.0149,-0.3145,-0.0818,-0.0067,0.0378,0.0104,-40.9875,10.35,-13.8938,,0.01165600000000011,0.32530524127348454,0.28109290588919283,non_fall
1.218067,-0.0393,-0.3243,-0.0612,-0.0067,0.0378,0.0104,-40.9875,10.35,-13.8938,,0.004818999999999907,0.33235586349574153,0.28244020000335357,non_fall
1.227519,-0.0393,-0.3243,-0.0612,-0.0067,0.0378,0.0104,-42.4688,10.5188,-12.4875,,0.009452000000000016,0.33235586349574153,0.28307798091380393,non_fall
1.237817,-0.0132,-0.3265,-0.0642,-0.0067,0.0378,0.0104,-42.4688,10.5188,-12.4875,,0.010297999999999918,0.33301370842654515,0.2832101214839329,non_fall
1.257211,0.014,-0.2735,-0.0226,-0.0067,0.0378,0.0104,-42.4688,10.5188,-12.4875,,0.019394000000000133,0.27478902816524536,0.28314512216777643,non_fall
1.260241,0.014,-0.2735,-0.0226,-0.0067,0.0378,0.0104,-42.4688,10.5188,-12.4875,,0.003029999999999866,0.27478902816524536,0.2832462770013746,non_fall
1.275423,0.014,-0.2735,-0.0226,0.0103,0.028,0.0044,-42.4688,10.5188,-12.4875,,0.015182000000000029,0.27478902816524536,0.2838692356508591,non_fall
1.278876,0.026,-0.2227,-0.0177,0.0103,0.028,0.0044,-42.4688,10.5188,-12.4875,,0.0034529999999999283,0.2249101598416577,0.28529673814317896,non_fall
1.286191,0.026,-0.2227,-0.0177,0.0103,0.028,0.0044,-42.075,10.3875,-12.0938,,0.0073150000000001825,0.2249101598416577,0.287681290851556,non_fall
1.300775,0.0196,-0.2032,-0.0412,0.0103,0.028,0.0044,-42.075,10.3875,-12.0938,,0.01458399999999993,0.20825906943036118,0.29100582985963724,non_fall
1.313858,0.0188,-0.258,-0.0279,0.0103,0.028,0.0044,-42.075,10.3875,-12.0938,,0.013082999999999956,0.26018426163009933,0.29506999293639613,non_fall
1.325027,0.0188,-0.258,-0.0279,0.0103,0.028,0.0044,-42.075,10.3875,-12.0938,,0.011168999999999984,0.26018426163009933,0.29950560847186297,non_fall
1.333368,0.0088,-0.3364,0.0081,0.0103,0.028,0.0044,-42.075,10.3875,-12.0938,,0.008341000000000154,0.3366125517564667,0.303819967177242,non_fall
1.3368,0.0088,-0.3364,0.0081,0.0128,0.0245,0.0117,-42.075,10.3875,-12.0938,,0.0034319999999998796,0.3366125517564667,0.3074604559293575,non_fall
1.347379,0.0088,-0.3364,0.0081,0.0128,0.0245,0.0117,-41.6813,10.4813,-12.4125,,0.010579000000000116,0.3366125517564667,0.3098904049986553,non_fall
1.35227,-0.037,-0.3738,0.0178,0.0128,0.0245,0.0117,-41.6813,10.4813,-12.4125,,0.004890999999999979,0.37604824158610295,0.3106643234960688,non_fall
1.371591,-0.0541,-0.3605,0.0069,0.0128,0.0245,0.0117,-41.6813,10.4813,-12.4125,,0.01932099999999992,0.36460207075659895,0.30949118448881824,non_fall
1.384838,-0.0541,-0.3605,0.0069,0.0128,0.0245,0.0117,-41.6813,10.4813,-12.4125,,0.013247000000000009,0.36460207075659895,0.30627666926304636,non_fall
1.393292,-0.0838,-0.2873,0.0099,0.0128,0.0245,0.0117,-41.6813,10.4813,-12.4125,,0.008453999999999962,0.29943570261410046,0.30113878928385107,non_fall
1.400116,-0.0838,-0.2873,0.0099,0.0298,-0.0062,-0.0066,-41.6813,10.4813,-12.4125,,0.006823999999999941,0.29943570261410046,0.2943955634740718,non_fall
1.406661,-0.0838,-0.2873,0.0099,0.0298,-0.0062,-0.0066,-41.8688,10.5,-12.6188,,0.006545000000000023,0.29943570261410046,0.28652768099372544,non_fall
1.40924,-0.0495,-0.2429,0.02,0.0298,-0.0062,-0.0066,-41.8688,10.5,-12.6188,,0.002579000000000109,0.24869792922338538,0.27812245223080295,non_fall
1.428573,0.0067,-0.232,-0.0059,0.0298,-0.0062,-0.0066,-41.8688,10.5,-12.6188,,0.019333000000000045,0.23217170370223847,0.2698073717785839,non_fall
1.447953,0.0067,-0.232,-0.0059,0.0298,-0.0062,-0.0066,-41.8688,10.5,-12.6188,,0.019379999999999953,0.23217170370223847,0.2621823249055697,non_fall
1.450651,0.0105,-0.2164,-0.0263,0.0298,-0.0062,-0.0066,-41.8688,10.5,-12.6188,,0.002697999999999867,0.21824504576278472,0.25575899376571215,non_fall
1.461065,0.0105,-0.2164,-0.0263,0.0263,-0.0293,0.0032,-41.8688,10.5,-12.6188,,0.010414000000000145,0.21824504576278472,0.2509144231762281,non_fall
1.466828,0.0267,-0.2344,0.0139,0.0263,-0.0293,0.0032,-41.8688,10.5,-12.6188,,0.005762999999999963,0.23632490346977822,0.24786322523563298,non_fall
1.467835,0.0267,-0.2344,0.0139,0.0263,-0.0293,0.0032,-42.15,10.2375,-12.8063,,0.0010069999999999801,0.23632490346977822,0.24665000508859447,non_fall
1.486258,0.0594,-0.248,-0.0234,0.0263,-0.0293,0.0032,-42.15,10.2375,-12.8063,,0.018423000000000078,0.25608576688289414,0.24716077710600526,non_fall
1.505009,0.0862,-0.2519,-0.0231,0.0263,-0.0293,0.0032,-42.15,10.2375,-12.8063,,0.018750999999999962,0.26724082771911933,0.24914983378815364,non_fall
1.508564,0.0862,-0.2519,-0.0231,0.0263,-0.0293,0.0032,-42.15,10.2375,-12.8063,,0.003554999999999975,0.26724082771911933,0.25227704056297906,non_fall
1.525291,0.0862,-0.2519,-0.0231,0.0115,-0.0183,0.0007,-42.15,10.2375,-12.8063,,0.016726999999999936,0.26724082771911933,0.25614999773461194,non_fall
1.52844,0.1095,-0.239,-0.0615,0.0115,-0.0183,0.0007,-42.15,10.2375,-12.8063,,0.0031490000000000684,0.2699879626946357,0.2603658548648077,non_fall
1.531267,0.1095,-0.239,-0.0615,0.0115,-0.0183,0.0007,-42.5625,10.5188,-12.4875,,0.002826999999999913,0.2699879626946357,0.26454849334159164,non_fall
1.543194,0.0588,-0.2812,-0.081,0.0115,-0.0183,0.0007,-42.5625,10.5188,-12.4875,,0.011927000000000021,0.2984826293103168,0.2683779385693323,non_fall
1.563141,0.0347,-0.2822,-0.064,0.0115,-0.0183,0.0007,-42.5625,10.5188,-12.4875,,0.019946999999999937,0.29143941051271705,0.27160999207744485,non_fall
1.571736,0.0347,-0.2822,-0.064,0.0115,-0.0183,0.0007,-42.5625,10.5188,-12.4875,,0.00859500000000013,0.29143941051271705,0.2740852232556444,non_fall
1.582232,0.0516,-0.2401,-0.0523,0.0115,-0.0183,0.0007,-42.5625,10.5188,-12.4875,,0.01049600000000006,0.25108934664776206,0.2757278016269007,non_fall
1.585765,0.0516,-0.2401,-0.0523,0.0213,-0.0122,0.0032,-42.5625,10.5188,-12.4875,,0.0035330000000000084,0.25108934664776206,0.2765361486982667,non_fall
1.587905,0.0516,-0.2401,-0.0523,0.0213,-0.0122,0.0032,-41.2688,10.35,-13.6688,,0.0021399999999998087,0.25108934664776206,0.2765686013824356,non_fall
1.601558,0.0189,-0.2485,-0.0896,0.0213,-0.0122,0.0032,-41.2688,10.35,-13.6688,,0.013653000000000137,0.26483508075781803,0.27592760827242985,non_fall
1.619957,0.0358,-0.2524,-0.1205,0.0213,-0.0122,0.0032,-41.2688,10.35,-13.6688,,0.018399000000000054,0.28197100914810375,0.2747451978890431,non_fall
1.635705,0.0358,-0.2524,-0.1205,0.0213,-0.0122,0.0032,-41.2688,10.35,-13.6688,,0.015747999999999873,0.28197100914810375,0.27317096049086664,non_fall
1.639125,0.0587,-0.2468,-0.1198,0.0213,-0.0122,0.0032,-41.2688,10.35,-13.6688,,0.0034199999999999786,0.28054940741338236,0.2713623156553325,non_fall
1.646759,0.0587,-0.2468,-0.1198,0.0213,-0.0122,0.0032,-40.8938,10.7438,-13.6875,,0.007634000000000141,0.28054940741338236,0.2694759877194103,non_fall
1.64803,0.0587,-0.2468,-0.1198,0.0128,0.0122,-0.0005,-40.8938,10.7438,-13.6875,,0.0012710000000000221,0.28054940741338236,0.267659537146383,non_fall
1.657673,0.0148,-0.2556,-0.0933,0.0128,0.0122,-0.0005,-40.8938,10.7438,-13.6875,,0.009642999999999846,0.27249823852641686,0.2660423055635364,non_fall
1.678239,0.0198,-0.2498,-0.0528,0.0128,0.0122,-0.0005,-40.8938,10.7438,-13.6875,,0.020566000000000084,0.25608576688289414,0.2647259420172383,non_fall
1.696283,0.0198,-0.2498,-0.0528,0.0128,0.0122,-0.0005,-40.8938,10.7438,-13.6875,,0.01804399999999995,0.25608576688289414,0.26377554560330846,non_fall
1.697209,-0.0053,-0.2416,-0.0439,0.0128,0.0122,-0.0005,-40.8938,10.7438,-13.6875,,0.0009259999999999824,0.2456132325425485,0.26321314325183004,non_fall
1.707023,-0.0053,-0.2416,-0.0439,0.0128,0.0122,-0.0005,-41.8875,10.5938,-12.3,,0.00981399999999999,0.2456132325425485,0.2630154767505059,non_fall
1.710551,-0.0053,-0.2416,-0.0439,0.0177,-0.0073,0.0069,-41.8875,10.5938,-12.3,,0.0035279999999999756,0.2456132325425485,0.2631177615899643,non_fall
1.715135,0.0013,-0.2022,-0.0759,0.0177,-0.0073,0.0069,-41.8875,10.5938,-12.3,,0.0045840000000001435,0.21597995277339976,0.2634242201696732,non_fall
1.735932,0.0078,-0.2707,-0.1115,0.0177,-0.0073,0.0069,-41.8875,10.5938,-12.3,,0.020796999999999954,0.2928678541595168,0.26382487521481696,non_fall
1.754428,0.0094,-0.2772,-0.0864,0.0177,-0.0073,0.0069,-41.8875,10.5938,-12.3,,0.018496000000000068,0.29050500856267525,0.2642164567850149,non_fall
1.758243,0.0094,-0.2772,-0.0864,0.0177,-0.0073,0.0069,-41.8875,10.5938,-12.3,,0.003814999999999902,0.29050500856267525,0.264523702001564,non_fall
1.766686,0.0094,-0.2772,-0.0864,0.0177,-0.0073,0.0069,-41.9813,10.5,-12.3,,0.008442999999999978,0.29050500856267525,0.2647164833383179,non_fall
1.771711,0.0094,-0.2772,-0.0864,0.0055,-0.011,0.0007,-41.9813,10.5,-12.3,,0.005025000000000057,0.29050500856267525,0.2648186194770738,non_fall
1.772913,-0.0042,-0.267,-0.1159,0.0055,-0.011,0.0007,-41.9813,10.5,-12.3,,0.0012019999999999254,0.29110041222918254,0.2649058039207132,non_fall
1.79181,-0.0019,-0.2283,-0.1444,0.0055,-0.011,0.0007,-41.9813,10.5,-12.3,,0.01889699999999994,0.2701404449541016,0.2650922785242458,non_fall
1.811723,0.0216,-0.2278,-0.0751,0.0055,-0.011,0.0007,-41.9813,10.5,-12.3,,0.01991300000000007,0.24083066665190295,0.2655081732839231,non_fall
1.819378,0.0216,-0.2278,-0.0751,0.0055,-0.011,0.0007,-41.9813,10.5,-12.3,,0.007654999999999967,0.24083066665190295,0.26627144897975813,non_fall
1.82633,0.0216,-0.2278,-0.0751,0.0055,-0.011,0.0007,-42.075,10.4062,-12.3938,,0.006952000000000069,0.24083066665190295,0.2674596724241818,non_fall
1.829477,0.0382,-0.2342,-0.0889,0.0055,-0.011,0.0007,-42.075,10.4062,-12.3938,,0.003147000000000011,0.25340104577526906,0.26908701573102417,non_fall
1.834595,0.0382,-0.2342,-0.0889,0.014,-0.0135,0.0032,-42.075,10.4062,-12.3938,,0.005117999999999956,0.25340104577526906,0.2710908647373089,non_fall
1.849129,0.0767,-0.2213,-0.0938,0.014,-0.0135,0.0032,-42.075,10.4062,-12.3938,,0.014534000000000047,0.25229946492214367,0.2733306641011069,non_fall
1.870029,0.0857,-0.2217,-0.092,0.014,-0.0135,0.0032,-42.075,10.4062,-12.3938,,0.02089999999999992,0.25487130085594184,0.2755996540688009,non_fall
1.882296,0.0857,-0.2217,-0.092,0.014,-0.0135,0.0032,-42.075,10.4062,-12.3938,,0.012267000000000028,0.25487130085594184,0.27764825837296764,non_fall
1.888103,0.0491,-0.2991,-0.0998,0.014,-0.0135,0.0032,-42.075,10.4062,-12.3938,,0.005807000000000118,0.31911073313193333,0.2792160848413049,non_fall
1.891041,0.0491,-0.2991,-0.0998,0.014,-0.0135,0.0032,-42.4688,10.6688,-11.7563,,0.002937999999999885,0.31911073313193333,0.28006785016055463,non_fall
1.896069,0.0491,-0.2991,-0.0998,0.003,0.0025,0.0019,-42.4688,10.6688,-11.7563,,0.0050280000000000324,0.31911073313193333,0.28002742959167437,non_fall
1.906353,0.0197,-0.2856,-0.0883,0.003,0.0025,0.0019,-42.4688,10.6688,-11.7563,,0.01028399999999996,0.29958694898142674,0.2790042898155108,non_fall
1.926456,0.0097,-0.2792,-0.0578,0.003,0.0025,0.0019,-42.4688,10.6688,-11.7563,,0.020102999999999982,0.28528506795834935,0.27700807764224145,non_fall
1.945038,0.0097,-0.2792,-0.0578,0.003,0.0025,0.0019,-42.4688,10.6688,-11.7563,,0.0185820000000001,0.28528506795834935,0.274149653431854,non_fall
1.94597,-0.0081,-0.2345,-0.0776,0.003,0.0025,0.0019,-42.4688,10.6688,-11.7563,,0.0009319999999999329,0.24713886784559,0.2706294827936787,non_fall
1.946892,-0.0081,-0.2345,-0.0776,0.003,0.0025,0.0019,-42.2812,10.875,-11.9813,,0.0009220000000000894,0.24713886784559,0.26671631265558843,non_fall
1.958482,-0.0081,-0.2345,-0.0776,-0.0007,0.0048,-0.0018,-42.2812,10.875,-11.9813,,0.01158999999999999,0.24713886784559,0.26272012846939585,non_fall
1.964817,-0.0019,-0.2355,-0.0893,-0.0007,0.0048,-0.0018,-42.2812,10.875,-11.9813,,0.0063349999999999795,0.251869708381139,0.2589634525845839,non_fall
1.984507,0.0065,-0.2412,-0.0722,-0.0007,0.0048,-0.0018,-42.2812,10.875,-11.9813,,0.019689999999999985,0.25185815452353333,0.25575425906368887,non_fall
2.00244,0.0027,-0.254,-0.0371,-0.0007,0.0048,-0.0018,-42.2812,10.875,-11.9813,,0.017932999999999977,0.2567093687421633,0.2533625603782271,non_fall
2.006441,0.0027,-0.254,-0.0371,-0.0007,0.0048,-0.0018,-42.2812,10.875,-11.9813,,0.004001000000000143,0.2567093687421633,0.2520015606819868,non_fall
2.007307,0.0027,-0.254,-0.0371,-0.0007,0.0048,-0.0018,-42.2812,10.4813,-11.8688,,0.0008659999999998114,0.2567093687421633,0.2518134865126015,non_fall
2.020993,0.0027,-0.254,-0.0371,-0.0007,-0.0012,-0.0029,-42.2812,10.4813,-11.8688,,0.013685999999999865,0.2567093687421633,0.25285987288527967,non_fall
2.022319,-0.0009,-0.2572,-0.0355,-0.0007,-0.0012,-0.0029,-42.2812,10.4813,-11.8688,,0.0013260000000001604,0.259639942997991,0.25511612210954693,non_fall
2.041294,0.0052,-0.2462,-0.0497,-0.0007,-0.0012,-0.0029,-42.2812,10.4813,-11.8688,,0.018975000000000186,0.25122016240739914,0.25847042154743505,non_fall
2.059955,-0.0077,-0.245,-0.0506,-0.0007,-0.0012,-0.0029,-42.2812,10.4813,-11.8688,,0.018660999999999817,0.25028913280444276,0.26272744283693006,non_fall
2.066984,-0.0077,-0.245,-0.0506,-0.0007,-0.0012,-0.0029,-41.2875,10.5563,-13.6688,,0.007029000000000174,0.25028913280444276,0.26761747270358105,non_fall
2.069962,-0.0077,-0.245,-0.0506,-0.0007,-0.0012,-0.0029,-41.2875,10.5563,-13.6688,,0.002977999999999703,0.25028913280444276,0.27281155159968673,non_fall
2.080729,-0.0039,-0.2845,-0.0515,-0.0007,-0.0012,-0.0029,-41.2875,10.5563,-13.6688,,0.010766999999999971,0.2891499783849205,0.2779426729176379,non_fall
2.083805,-0.0039,-0.2845,-0.0515,-0.0104,-0.0012,-0.0043,-41.2875,10.5563,-13.6688,,0.0030760000000000787,0.2891499783849205,0.282632152028669,non_fall
2.097991,-0.0146,-0.281,-0.0668,-0.0104,-0.0012,-0.0043,-41.2875,10.5563,-13.6688,,0.014186000000000032,0.28919958506194304,0.2865192062833329,non_fall
2.117043,0.0133,-0.2768,-0.1138,-0.0104,-0.0012,-0.0043,-41.2875,10.5563,-13.6688,,0.019051999999999847,0.29957564987829033,0.28929102816009783,non_fall
2.127642,0.0133,-0.2768,-0.1138,-0.0104,-0.0012,-0.0043,-40.4062,10.3125,-13.4813,,0.010599000000000025,0.29957564987829033,0.29071044012579916,non_fall
2.131115,0.0133,-0.2768,-0.1138,-0.0104,-0.0012,-0.0043,-40.4062,10.3125,-13.4813,,0.0034730000000000594,0.29957564987829033,0.290638515190751,non_fall
2.135622,0.0121,-0.2583,-0.1225,-0.0104,-0.0012,-0.0043,-40.4062,10.3125,-13.4813,,0.004507000000000261,0.28613204993499064,0.2890501096938354,non_fall
2.145673,0.0121,-0.2583,-0.1225,-0.003,-0.0049,-0.0054,-40.4062,10.3125,-13.4813,,0.01005099999999981,0.28613204993499064,0.28604091878478394,non_fall
2.155637,0.0412,-0.2781,-0.072,-0.003,-0.0049,-0.0054,-40.4062,10.3125,-13.4813,,0.009964000000000084,0.2902086318495713,0.2818253000738104,non_fall
2.175857,0.0624,-0.2807,-0.0257,-0.003,-0.0049,-0.0054,-40.4062,10.3125,-13.4813,,0.020220000000000127,0.2886983546887651,0.2767245994436656,non_fall
2.187732,0.0624,-0.2807,-0.0257,-0.003,-0.0049,-0.0054,-42.0563,10.2,-12.3,,0.011874999999999858,0.2886983546887651,0.27114606696919796,non_fall
2.194869,0.0624,-0.2807,-0.0257,-0.003,-0.0049,-0.0054,-42.0563,10.2,-12.3,,0.007137000000000171,0.2886983546887651,0.2655528625231803,non_fall
2.197444,0.04,-0.2665,-0.0324,-0.003,-0.0049,-0.0054,-42.0563,10.2,-12.3,,0.002574999999999772,0.27142588306939336,0.2604263526380007,non_fall
2.207538,0.04,-0.2665,-0.0324,-0.0007,-0.0,-0.0115,-42.0563,10.2,-12.3,,0.010094000000000047,0.27142588306939336,0.2562229916686097,non_fall
2.213335,-0.0082,-0.2261,-0.01,-0.0007,-0.0,-0.0115,-42.0563,10.2,-12.3,,0.00579699999999983,0.2264695343749353,0.25332946019559105,non_fall
2.23239,0.0326,-0.2004,-0.0502,-0.0007,-0.0,-0.0115,-42.0563,10.2,-12.3,,0.019055000000000266,0.20914817713764566,0.2520210986613706,non_fall
2.246748,0.0326,-0.2004,-0.0502,-0.0007,-0.0,-0.0115,-41.7938,10.5563,-11.775,,0.014358000000000093,0.20914817713764566,0.2524295296870467,non_fall
2.250524,0.0374,-0.2134,-0.0431,-0.0007,-0.0,-0.0115,-41.7938,10.5563,-11.775,,0.0037759999999997795,0.22089800813950317,0.25452514500072193,non_fall
2.255566,0.0374,-0.2134,-0.0431,-0.0007,-0.0,-0.0115,-41.7938,10.5563,-11.775,,0.005041999999999991,0.22089800813950317,0.25811853453888556,non_fall
2.269595,0.0374,-0.2134,-0.0431,-0.0202,0.0025,-0.0091,-41.7938,10.5563,-11.775,,0.014028999999999847,0.22089800813950317,0.26288217108737494,non_fall
2.272606,0.0938,-0.2791,-0.0357,-0.0202,0.0025,-0.0091,-41.7938,10.5563,-11.775,,0.003011000000000319,0.29659693187893904,0.26839031985214284,non_fall
2.291014,0.0961,-0.311,0.001,-0.0202,0.0025,-0.0091,-41.7938,10.5563,-11.775,,0.01840799999999998,0.3255106910686652,0.27417184243181003,non_fall
2.307105,0.0961,-0.311,0.001,-0.0202,0.0025,-0.0091,-42.1688,10.3875,-12.1875,,0.016090999999999855,0.3255106910686652,0.279767979987402,non_fall
2.307851,0.0626,-0.2995,-0.055,-0.0202,0.0025,-0.0091,-42.1688,10.3875,-12.1875,,0.0007459999999999134,0.31087619722326765,0.28478613959856647,non_fall
2.317325,0.0626,-0.2995,-0.055,-0.0202,0.0025,-0.0091,-42.1688,10.3875,-12.1875,,0.009473999999999982,0.31087619722326765,0.28894166430480867,non_fall
2.327134,0.1141,-0.293,-0.0934,-0.0202,0.0025,-0.0091,-42.1688,10.3875,-12.1875,,0.009809000000000179,0.328011234563696,0.29208215010068317,non_fall
2.331741,0.1141,-0.293,-0.0934,-0.0055,0.0012,-0.0263,-42.1688,10.3875,-12.1875,,0.004607000000000028,0.328011234563696,0.2941920756060052,non_fall
2.346848,0.1226,-0.2721,0.0094,-0.0055,0.0012,-0.0263,-42.1688,10.3875,-12.1875,,0.015106999999999982,0.2985925819574224,0.29537857823769786,non_fall
2.366627,0.1067,-0.2319,-0.0136,-0.0055,0.0012,-0.0263,-42.1688,10.3875,-12.1875,,0.01977899999999977,0.2556314925825846,0.29584197027203235,non_fall
2.368755,0.1067,-0.2319,-0.0136,-0.0055,0.0012,-0.0263,-42.1688,10.5938,-12.1875,,0.002128000000000352,0.2556314925825846,0.2958369343913376,non_fall
2.380525,0.1067,-0.2319,-0.0136,-0.0055,0.0012,-0.0263,-42.1688,10.5938,-12.1875,,0.011769999999999836,0.2556314925825846,0.2956317577608297,non_fall
2.385154,0.1054,-0.2256,-0.0707,-0.0055,0.0012,-0.0263,-42.1688,10.5938,-12.1875,,0.004628999999999994,0.25884939636784937,0.29547281680595705,non_fall
2.394137,0.1054,-0.2256,-0.0707,-0.0153,-0.0183,-0.0371,-42.1688,10.5938,-12.1875,,0.008983000000000185,0.25884939636784937,0.2955596950365605,non_fall
2.403643,0.1303,-0.2602,0.0286,-0.0153,-0.0183,-0.0371,-42.1688,10.5938,-12.1875,,0.009506000000000014,0.29240398424098124,0.2960333507121496,non_fall
2.423005,0.1283,-0.3208,0.0162,-0.0153,-0.0183,-0.0371,-42.1688,10.5938,-12.1875,,0.019361999999999657,0.34588433037650024,0.2969764454158803,non_fall
2.427921,0.1283,-0.3208,0.0162,-0.0153,-0.0183,-0.0371,-42.0563,10.3125,-12.5063,,0.0049160000000001425,0.34588433037650024,0.29842207484609934,non_fall
2.441968,0.1283,-0.3208,0.0162,-0.0153,-0.0183,-0.0371,-42.0563,10.3125,-12.5063,,0.014047000000000143,0.34588433037650024,0.30036551811839834,non_fall
2.445291,0.1298,-0.2786,-0.0074,-0.0153,-0.0183,-0.0371,-42.0563,10.3125,-12.5063,,0.003322999999999965,0.3074422872670577,0.3027738888374751,non_fall
2.457071,0.1298,-0.2786,-0.0074,-0.0312,-0.0587,-0.0543,-42.0563,10.3125,-12.5063,,0.011779999999999902,0.3074422872670577,0.3055906716916719,non_fall
2.461263,0.1407,-0.2419,0.0201,-0.0312,-0.0587,-0.0543,-42.0563,10.3125,-12.5063,,0.004192000000000196,0.28056391428692323,0.3087351166435615,non_fall
2.480934,0.2108,-0.1654,0.0156,-0.0312,-0.0587,-0.0543,-42.0563,10.3125,-12.5063,,0.019670999999999772,0.26839739193963863,0.31209905356544765,non_fall
2.487702,0.2108,-0.1654,0.0156,-0.0312,-0.0587,-0.0543,-41.9625,9.825,-11.1562,,0.006768000000000107,0.26839739193963863,0.3155449547616494,non_fall
2.499686,0.2792,-0.1926,-0.0092,-0.0312,-0.0587,-0.0543,-41.9625,9.825,-11.1562,,0.011983999999999995,0.33931112566492716,0.31890868959807367,non_fall
2.503224,0.2792,-0.1926,-0.0092,-0.0312,-0.0587,-0.0543,-41.9625,9.825,-11.1562,,0.003537999999999819,0.33931112566492716,0.32200864571641996,non_fall
2.518014,0.2792,-0.1926,-0.0092,-0.0862,-0.11,-0.0726,-41.9625,9.825,-11.1562,,0.01479000000000008,0.33931112566492716,0.32466057940948145,non_fall
2.519769,0.2554,-0.2085,-0.0,-0.0862,-0.11,-0.0726,-41.9625,9.825,-11.1562,,0.001755000000000173,0.32969896875786553,0.3266958395561906,non_fall
2.538621,0.2242,-0.2201,0.0064,-0.0862,-0.11,-0.0726,-41.9625,9.825,-11.1562,,0.01885199999999987,0.3142460978278012,0.3279801520955888,non_fall
2.548912,0.2242,-0.2201,0.0064,-0.0862,-0.11,-0.0726,-40.875,9.825,-13.275,,0.01029100000000005,0.3142460978278012,0.32843066939532295,non_fall
2.56044,0.2276,-0.2249,0.0679,-0.0862,-0.11,-0.0726,-40.875,9.825,-13.275,,0.01152799999999976,0.3270965912387348,0.3280296423473973,non_fall
2.566287,0.2276,-0.2249,0.0679,-0.0862,-0.11,-0.0726,-40.875,9.825,-13.275,,0.005847000000000158,0.3270965912387348,0.32683323790473245,non_fall
2.575886,0.2089,-0.2204,0.1735,-0.0862,-0.11,-0.0726,-40.875,9.825,-13.275,,0.009599000000000135,0.34973936009548595,0.3249736581484718,non_fall
2.580375,0.2089,-0.2204,0.1735,-0.1253,-0.2078,-0.0763,-40.875,9.825,-13.275,,0.004488999999999965,0.34973936009548595,0.32265222595302795,non_fall
2.600675,0.216,-0.2351,0.2337,-0.1253,-0.2078,-0.0763,-40.875,9.825,-13.275,,0.020299999999999763,0.39565603748710826,0.3201210284306209,non_fall
2.607138,0.216,-0.2351,0.2337,-0.1253,-0.2078,-0.0763,-41.475,10.0875,-12.4125,,0.0064630000000001075,0.39565603748710826,0.3176515341646844,non_fall
2.614763,0.1518,-0.1828,0.1941,-0.1253,-0.2078,-0.0763,-41.475,10.0875,-12.4125,,0.007624999999999993,0.3068124671521677,0.315490704764267,non_fall
2.62866,0.1518,-0.1828,0.1941,-0.1253,-0.2078,-0.0763,-41.475,10.0875,-12.4125,,0.013897000000000048,0.3068124671521677,0.3138085817354293,non_fall
2.633697,0.1536,-0.1452,0.0245,-0.1253,-0.2078,-0.0763,-41.475,10.0875,-12.4125,,0.00503700000000018,0.21278216560604882,0.31264546087207706,non_fall
2.642652,0.1536,-0.1452,0.0245,-0.129,-0.3213,-0.0788,-41.475,10.0875,-12.4125,,0.008954999999999824,0.21278216560604882,0.3118700326237165,non_fall
2.652874,0.18,-0.197,-0.0096,-0.129,-0.3213,-0.0788,-41.475,10.0875,-12.4125,,0.010222000000000175,0.2670227705646093,0.31116062064288663,non_fall
2.66833,0.18,-0.197,-0.0096,-0.129,-0.3213,-0.0788,-42.7313,9.5063,-10.3125,,0.015455999999999914,0.2670227705646093,0.31001915682698433,non_fall
2.671222,0.103,-0.2301,0.0114,-0.129,-0.3213,-0.0788,-42.7313,9.5063,-10.3125,,0.0028920000000001167,0.2523588120117861,0.3078224484347474,non_fall
2.690118,0.103,-0.2301,0.0114,-0.129,-0.3213,-0.0788,-42.7313,9.5063,-10.3125,,0.018895999999999802,0.2523588120117861,0.3039092098338998,non_fall
2.691167,0.0884,-0.2628,0.0107,-0.129,-0.3213,-0.0788,-42.7313,9.5063,-10.3125,,0.0010490000000000776,0.27747592688375683,0.2976956064391723,non_fall
2.704608,0.0884,-0.2628,0.0107,-0.1326,-0.4031,-0.0018,-42.7313,9.5063,-10.3125,,0.013440999999999814,0.27747592688375683,0.28880709293885065,non_fall
2.709869,0.1424,-0.3689,0.0836,-0.1326,-0.4031,-0.0018,-42.7313,9.5063,-10.3125,,0.00526099999999996,0.4041706693959867,0.27721006451037544,non_fall
2.729602,0.1424,-0.3689,0.0836,-0.1326,-0.4031,-0.0018,-43.5375,9.5625,-9.0375,,0.019733,0.4041706693959867,0.26332371886268235,non_fall
2.730936,0.2798,-0.3044,0.0701,-0.1326,-0.4031,-0.0018,-43.5375,9.5625,-9.0375,,0.0013339999999999463,0.4193583312633719,0.24809179752242405,non_fall
2.749138,0.243,-0.121,-0.0381,-0.1326,-0.4031,-0.0018,-43.5375,9.5625,-9.0375,,0.01820200000000005,0.2741197001311653,0.2329969760258909,non_fall
2.752805,0.243,-0.121,-0.0381,-0.1326,-0.4031,-0.0018,-43.5375,9.5625,-9.0375,,0.003667000000000087,0.2741197001311653,0.22000797974274597,non_fall
2.76717,0.243,-0.121,-0.0381,-0.1558,-0.3861,0.025,-43.5375,9.5625,-9.0375,,0.014365000000000183,0.2741197001311653,0.21145947182317393,non_fall
2.770476,0.053,-0.0918,0.0348,-0.1558,-0.3861,0.025,-43.5375,9.5625,-9.0375,,0.003305999999999809,0.11156737874486432,0.20987468077746918,non_fall
2.786391,-0.0981,-0.1269,0.1326,-0.1558,-0.3861,0.025,-43.5375,9.5625,-9.0375,,0.015915000000000123,0.2081104994948597,0.21774844627877984,non_fall
2.788395,-0.0981,-0.1269,0.1326,-0.1558,-0.3861,0.025,-43.1625,9.675,-7.7063,,0.0020039999999998948,0.2081104994948597,0.23731296905422472,non_fall
2.8057,-0.1472,-0.0931,0.0575,-0.1558,-0.3861,0.025,-43.1625,9.675,-7.7063,,0.017304999999999904,0.18341673860365088,0.27030998561916786,non_fall
2.814456,-0.1472,-0.0931,0.0575,-0.1558,-0.3861,0.025,-43.1625,9.675,-7.7063,,0.008755999999999986,0.18341673860365088,0.3177918119406192,non_fall
2.825992,-0.3416,-0.1653,0.0208,-0.1558,-0.3861,0.025,-43.1625,9.675,-7.7063,,0.01153599999999999,0.3800622185905882,0.3799704239967631,non_fall
2.829034,-0.3416,-0.1653,0.0208,-0.1863,-0.2945,0.047,-43.1625,9.675,-7.7063,,0.003042000000000211,0.3800622185905882,0.45612888556421255,non_fall
2.843567,-0.55,-0.1999,0.0105,-0.1863,-0.2945,0.047,-43.1625,9.675,-7.7063,,0.01453300000000013,0.5852950196268545,0.5446033811182155,non_fall
2.8469,-0.55,-0.1999,0.0105,-0.1863,-0.2945,0.047,-43.6688,10.05,-7.05,,0.0033330000000000304,0.5852950196268545,0.642837943907463,non_fall
2.86354,-0.6714,-0.2163,0.162,-0.1863,-0.2945,0.047,-43.6688,10.05,-7.05,,0.016639999999999766,0.7237455699346284,0.7475089983903848,non_fall
2.876646,-0.6714,-0.2163,0.162,-0.1863,-0.2945,0.047,-43.6688,10.05,-7.05,,0.013106000000000062,0.7237455699346284,0.854713428509638,non_fall
2.881441,-0.8454,-0.2148,0.1426,-0.1863,-0.2945,0.047,-43.6688,10.05,-7.05,,0.004795000000000105,0.8838410264295271,0.9602111518550179,non_fall
2.893022,-0.8454,-0.2148,0.1426,-0.2756,-0.4692,0.0764,-43.6688,10.05,-7.05,,0.011581000000000063,0.8838410264295271,1.0597096504641839,non_fall
2.902454,-1.2444,-0.0815,-0.0358,-0.2756,-0.4692,0.0764,-43.6688,10.05,-7.05,,0.009431999999999885,1.2475797569694693,1.1491724566205082,non_fall
2.90782,-1.2444,-0.0815,-0.0358,-0.2756,-0.4692,0.0764,-43.5,10.1625,-5.8125,,0.005365999999999982,1.2475797569694693,1.2251262968631949,non_fall
2.920493,-1.6751,0.059,0.1255,-0.2756,-0.4692,0.0764,-43.5,10.1625,-5.8125,,0.012672999999999934,1.6808305268527224,1.2849342910138437,non_fall
2.939135,-1.6751,0.059,0.1255,-0.2756,-0.4692,0.0764,-43.5,10.1625,-5.8125,,0.018641999999999825,1.6808305268527224,1.326998697534544,non_fall
2.942306,-1.6299,-0.0192,0.0683,-0.2756,-0.4692,0.0764,-43.5,10.1625,-5.8125,,0.003171000000000035,1.6314433916014368,1.3508600407718474,non_fall
2.953006,-1.6299,-0.0192,0.0683,-0.3501,-0.6672,0.0972,-43.5,10.1625,-5.8125,,0.010699999999999932,1.6314433916014368,1.3571724283597175,non_fall
2.958919,-0.9816,-0.3062,-0.2702,-0.3501,-0.6672,0.0972,-43.5,10.1625,-5.8125,,0.005913000000000057,1.0631580503387068,1.3475564168207372,non_fall
2.967809,-0.9816,-0.3062,-0.2702,-0.3501,-0.6672,0.0972,-44.1375,10.875,-3.9188,,0.008890000000000065,1.0631580503387068,1.3243556513833277,non_fall
2.977929,-0.0422,-0.6589,-0.078,-0.3501,-0.6672,0.0972,-44.1375,10.875,-3.9188,,0.010120000000000129,0.6648413720580271,1.2903434983912634,non_fall
2.99768,0.6983,-0.8959,0.342,-0.3501,-0.6672,0.0972,-44.1375,10.875,-3.9188,,0.019750999999999852,1.1862645994886638,1.2484329860433772,non_fall
3.00124,0.6983,-0.8959,0.342,-0.3501,-0.6672,0.0972,-44.1375,10.875,-3.9188,,0.0035600000000002296,1.1862645994886638,1.2014339602888415,non_fall
3.015041,0.6983,-0.8959,0.342,-0.3354,-0.281,0.0007,-44.1375,10.875,-3.9188,,0.013800999999999952,1.1862645994886638,1.1518794653344364,non_fall
3.016647,0.8995,-0.8452,0.7157,-0.3354,-0.281,0.0007,-44.1375,10.875,-3.9188,,0.0016059999999997743,1.4267760090497739,1.1019191485629118,non_fall
3.026679,0.8995,-0.8452,0.7157,-0.3354,-0.281,0.0007,-43.95,10.6875,-2.475,,0.010032000000000263,1.4267760090497739,1.0532610602258257,non_fall
3.03711,0.6021,-0.5805,0.7495,-0.3354,-0.281,0.0007,-43.95,10.6875,-2.475,,0.010431000000000079,1.1230560582624538,1.0071395058828134,non_fall
3.054519,-0.0024,-0.3121,0.4742,-0.3354,-0.281,0.0007,-43.95,10.6875,-2.475,,0.017408999999999786,0.5676951734866168,0.9642951586886707,non_fall
3.06274,-0.0024,-0.3121,0.4742,-0.3354,-0.281,0.0007,-43.95,10.6875,-2.475,,0.008220999999999812,0.5676951734866168,0.924969398656375,non_fall
3.072822,-0.6754,-0.1103,0.4098,-0.3354,-0.281,0.0007,-43.95,10.6875,-2.475,,0.010082000000000146,0.7976636446523059,0.8889283740821485,non_fall
3.076939,-0.6754,-0.1103,0.4098,-0.2463,-0.193,0.0605,-43.95,10.6875,-2.475,,0.004116999999999926,0.7976636446523059,0.8555342203641112,non_fall
3.088524,-0.6754,-0.1103,0.4098,-0.2463,-0.193,0.0605,-43.5375,10.35,-1.9688,,0.011585000000000178,0.7976636446523059,0.8238696212438475,non_fall
3.092038,-0.948,-0.0755,0.4502,-0.2463,-0.193,0.0605,-43.5375,10.35,-1.9688,,0.003514000000000017,1.0521807306732052,0.7929048437775195,non_fall
3.111876,-0.6293,-0.2601,0.5238,-0.2463,-0.193,0.0605,-43.5375,10.35,-1.9688,,0.019838000000000022,0.8590907635401512,0.7616826887654519,non_fall
3.125369,-0.6293,-0.2601,0.5238,-0.2463,-0.193,0.0605,-43.5375,10.35,-1.9688,,0.013492999999999977,0.8590907635401512,0.7294912072027561,non_fall
3.130059,-0.0511,-0.3469,0.6475,-0.2463,-0.193,0.0605,-43.5375,10.35,-1.9688,,0.004690000000000083,0.736347112440865,0.6959967129073968,non_fall
3.139703,-0.0511,-0.3469,0.6475,-0.3196,-0.066,-0.0861,-43.5375,10.35,-1.9688,,0.009643999999999764,0.736347112440865,0.6613180707569881,non_fall
3.146978,-0.0511,-0.3469,0.6475,-0.3196,-0.066,-0.0861,-44.625,10.5188,-0.9,,0.00727499999999992,0.736347112440865,0.6260337398160029,non_fall
3.150154,0.3281,-0.3312,0.5044,-0.3196,-0.066,-0.0861,-44.625,10.5188,-0.9,,0.0031760000000002897,0.6868496269198957,0.591122725476644,non_fall
3.16976,0.3911,-0.2357,0.2508,-0.3196,-0.066,-0.0861,-44.625,10.5188,-0.9,,0.019606000000000012,0.5209744139590734,0.5578488355813627,non_fall
3.187573,0.3911,-0.2357,0.2508,-0.3196,-0.066,-0.0861,-44.625,10.5188,-0.9,,0.017812999999999857,0.5209744139590734,0.5276051048751768,non_fall
3.189391,0.1517,-0.2004,0.0609,-0.3196,-0.066,-0.0861,-44.625,10.5188,-0.9,,0.0018180000000000973,0.2586152741042184,0.5017418153204717,non_fall
3.202824,0.1517,-0.2004,0.0609,-0.3598,0.033,-0.0458,-44.625,10.5188,-0.9,,0.013433000000000028,0.2586152741042184,0.48140550705489144,non_fall
3.206944,-0.0162,-0.2509,0.2056,-0.3598,0.033,-0.0458,-44.625,10.5188,-0.9,,0.0041199999999999015,0.3247839435686438,0.46741544000040425,non_fall
3.207899,-0.0162,-0.2509,0.2056,-0.3598,0.033,-0.0458,-44.325,10.2,-0.9,,0.0009549999999998171,0.3247839435686438,0.4601967540807496,non_fall
3.226426,-0.2913,-0.2659,0.2231,-0.3598,0.033,-0.0458,-44.325,10.2,-0.9,,0.018527000000000182,0.45313586262841743,0.459776929761669,non_fall
3.247925,-0.5764,-0.3043,0.0712,-0.3598,0.033,-0.0458,-44.325,10.2,-0.9,,0.021498999999999935,0.6556713277244933,0.4658372957903327,non_fall
3.251406,-0.5764,-0.3043,0.0712,-0.3598,0.033,-0.0458,-44.325,10.2,-0.9,,0.0034809999999998453,0.6556713277244933,0.47779856804250204,non_fall
3.264627,-0.5764,-0.3043,0.0712,-0.3769,-0.0795,-0.0103,-44.325,10.2,-0.9,,0.01322100000000015,0.6556713277244933,0.4949125126813004,non_fall
3.268412,-0.5756,-0.4032,0.1444,-0.3769,-0.0795,-0.0103,-44.325,10.2,-0.9,,0.0037850000000001494,0.7174517126608592,0.516332918752202,non_fall
3.270901,-0.5756,-0.4032,0.1444,-0.3769,-0.0795,-0.0103,-44.3438,10.2938,-0.6,,0.0024889999999997414,0.7174517126608592,0.5411477138101026,non_fall
3.284244,-0.3519,-0.3523,0.182,-0.3769,-0.0795,-0.0103,-44.3438,10.2938,-0.6,,0.013343000000000327,0.5301630881153458,0.5683676280366997,non_fall
3.303159,-0.0457,-0.2911,0.1738,-0.3769,-0.0795,-0.0103,-44.3438,10.2938,-0.6,,0.018914999999999793,0.34210252849109435,0.596881934433705,non_fall
3.31187,-0.0457,-0.2911,0.1738,-0.3769,-0.0795,-0.0103,-44.3438,10.2938,-0.6,,0.008710999999999913,0.34210252849109435,0.6254047806402465,non_fall
3.323055,0.2636,-0.3415,0.3068,-0.3769,-0.0795,-0.0103,-44.3438,10.2938,-0.6,,0.011185000000000223,0.5293708057685086,0.6524421318860474,non_fall
3.326125,0.2636,-0.3415,0.3068,-0.3366,0.0451,-0.0593,-44.3438,10.2938,-0.6,,0.003070000000000128,0.5293708057685086,0.6763060889987775,non_fall
3.328437,0.2636,-0.3415,0.3068,-0.3366,0.0451,-0.0593,-44.0438,10.1438,-0.075,,0.0023119999999998697,0.5293708057685086,0.695191126510795,non_fall
3.341056,0.5309,-0.4531,0.3865,-0.3366,0.0451,-0.0593,-44.0438,10.1438,-0.075,,0.012618999999999936,0.7978324824172053,0.707310297845317,non_fall
3.359953,0.6197,-0.5217,0.377,-0.3366,0.0451,-0.0593,-44.0438,10.1438,-0.075,,0.01889699999999994,0.89349201451384,0.7110737098662632,non_fall
3.374283,0.6197,-0.5217,0.377,-0.3366,0.0451,-0.0593,-44.0438,10.1438,-0.075,,0.014330000000000176,0.89349201451384,0.7052799373323977,non_fall
3.381748,0.4512,-0.5137,0.4313,-0.3366,0.0451,-0.0593,-44.0438,10.1438,-0.075,,0.007464999999999833,0.8083865535744642,0.6892860041850043,non_fall
3.386583,0.4512,-0.5137,0.4313,-0.3366,0.0451,-0.0593,-43.6313,9.8625,-0.4125,,0.004834999999999923,0.8083865535744642,0.6631245311776892,non_fall
3.387704,0.4512,-0.5137,0.4313,-0.3183,0.1343,-0.0091,-43.6313,9.8625,-0.4125,,0.0011209999999999276,0.8083865535744642,0.6275464167521037,non_fall
3.398109,0.1953,-0.4734,0.4097,-0.3183,0.1343,-0.0091,-43.6313,9.8625,-0.4125,,0.010404999999999998,0.6558229486683125,0.5839806408530837,non_fall
3.417952,-0.029,-0.3304,0.1844,-0.3183,0.1343,-0.0091,-43.6313,9.8625,-0.4125,,0.019843000000000277,0.3794845451398515,0.5344165279579209,non_fall
3.436616,-0.029,-0.3304,0.1844,-0.3183,0.1343,-0.0091,-43.6313,9.8625,-0.4125,,0.018663999999999792,0.3794845451398515,0.48122621725937276,non_fall
3.439551,-0.158,-0.2466,0.0536,-0.3183,0.1343,-0.0091,-43.6313,9.8625,-0.4125,,0.00293499999999991,0.2977390132313869,0.42695393449481867,non_fall
3.449124,-0.158,-0.2466,0.0536,-0.3183,0.1343,-0.0091,-43.95,10.4438,-0.075,,0.009573000000000054,0.2977390132313869,0.37410144421718355,non_fall
3.452362,-0.158,-0.2466,0.0536,-0.3061,0.1148,0.0202,-43.95,10.4438,-0.075,,0.003238000000000074,0.2977390132313869,0.3249353037869062,forward_fall
3.456454,-0.2366,-0.1884,0.026,-0.3061,0.1148,0.0202,-43.95,10.4438,-0.075,,0.0040919999999999845,0.30356238238622385,0.2813337003812725,forward_fall
3.475196,-0.0697,-0.1605,0.0561,-0.3061,0.1148,0.0202,-43.95,10.4438,-0.075,,0.018742000000000036,0.1837540475744684,0.2446822785081503,forward_fall
3.493957,0.0407,-0.0467,0.1579,-0.3061,0.1148,0.0202,-43.95,10.4438,-0.075,,0.018761000000000028,0.16961659706526366,0.2158218699130776,forward_fall
3.498757,0.0407,-0.0467,0.1579,-0.3061,0.1148,0.0202,-43.95,10.4438,-0.075,,0.0047999999999999154,0.16961659706526366,0.19504685079798936,forward_fall
3.506458,0.0407,-0.0467,0.1579,-0.3061,0.1148,0.0202,-43.95,10.4625,-0.5063,,0.007700999999999958,0.16961659706526366,0.18214991099782377,forward_fall
3.512788,0.0407,-0.0467,0.1579,-0.2914,0.0843,-0.0543,-43.95,10.4625,-0.5063,,0.006330000000000169,0.16961659706526366,0.17650616371675912,forward_fall
3.513727,0.0051,-0.0055,0.1742,-0.2914,0.0843,-0.0543,-43.95,10.4625,-0.5063,,0.0009389999999998011,0.17436140628017427,0.1771865882780704,forward_fall
3.532394,-0.0548,-0.1129,0.1491,-0.2914,0.0843,-0.0543,-43.95,10.4625,-0.5063,,0.01866700000000021,0.19488524828729342,0.1830883385207394,forward_fall
3.553047,0.0262,-0.2504,0.047,-0.2914,0.0843,-0.0543,-43.95,10.4625,-0.5063,,0.02065299999999981,0.25611637979637303,0.19306787605618989,forward_fall
3.560713,0.0262,-0.2504,0.047,-0.2914,0.0843,-0.0543,-43.95,10.4625,-0.5063,,0.007665999999999951,0.25611637979637303,0.20606231116216747,forward_fall
3.566502,0.0262,-0.2504,0.047,-0.2914,0.0843,-0.0543,-43.4625,10.0312,-0.0938,,0.005789000000000044,0.25611637979637303,0.22118493825844973,forward_fall
3.571548,0.1893,-0.3236,0.0838,-0.2914,0.0843,-0.0543,-43.4625,10.0312,-0.0938,,0.005046000000000106,0.38415347193537114,0.23778300872658506,forward_fall
3.57436,0.1893,-0.3236,0.0838,-0.2596,0.1148,-0.036,-43.4625,10.0312,-0.0938,,0.0028120000000000367,0.38415347193537114,0.2554493889935493,forward_fall
3.590629,0.2589,-0.2215,0.1598,-0.2596,0.1148,-0.036,-43.4625,10.0312,-0.0938,,0.016268999999999867,0.3763342928833353,0.2739849829436659,forward_fall
3.609535,0.1249,-0.0424,0.22,-0.2596,0.1148,-0.036,-43.4625,10.0312,-0.0938,,0.01890600000000031,0.2565107600082305,0.2933158897042811,forward_fall
3.622749,0.1249,-0.0424,0.22,-0.2596,0.1148,-0.036,-43.4625,10.0312,-0.0938,,0.013214000000000059,0.2565107600082305,0.3133778562491714,forward_fall
3.62768,0.1249,-0.0424,0.22,-0.2596,0.1148,-0.036,-44.2125,9.8063,-0.8063,,0.004930999999999575,0.2565107600082305,0.3339888032513893,forward_fall
3.630307,-0.0224,0.0623,0.1581,-0.2596,0.1148,-0.036,-44.2125,9.8063,-0.8063,,0.002627000000000379,0.17140204199483738,0.35473536942395223,forward_fall
3.636081,-0.0224,0.0623,0.1581,-0.2426,0.1918,-0.0751,-44.2125,9.8063,-0.8063,,0.005773999999999724,0.17140204199483738,0.37489975845314055,forward_fall
3.648062,0.0547,-0.0664,0.1071,-0.2426,0.1918,-0.0751,-44.2125,9.8063,-0.8063,,0.01198100000000002,0.13737343265711896,0.39344836139251826,forward_fall
3.666468,0.135,-0.3612,0.1241,-0.2426,0.1918,-0.0751,-44.2125,9.8063,-0.8063,,0.018406000000000144,0.4050817818663288,0.4090940063682885,forward_fall
3.685247,0.135,-0.3612,0.1241,-0.2426,0.1918,-0.0751,-44.2125,9.8063,-0.8063,,0.01877899999999988,0.4050817818663288,0.42043015379426013,forward_fall
3.687842,0.3011,-0.3784,0.3246,-0.2426,0.1918,-0.0751,-44.2125,9.8063,-0.8063,,0.002594999999999903,0.5824198914872328,0.42612037289637644,forward_fall
3.690789,0.3011,-0.3784,0.3246,-0.2426,0.1918,-0.0751,-44.775,9.45,-1.1063,,0.002947000000000255,0.5824198914872328,0.42511405153998744,forward_fall
3.698655,0.3011,-0.3784,0.3246,-0.2695,0.2394,-0.0556,-44.775,9.45,-1.1063,,0.007865999999999929,0.5824198914872328,0.41685319552122985,forward_fall
3.704089,0.2996,-0.1863,0.3766,-0.2695,0.2394,-0.0556,-44.775,9.45,-1.1063,,0.005434000000000161,0.5160381865714978,0.40143672821507287,forward_fall
3.723871,0.1306,0.0117,0.4358,-0.2695,0.2394,-0.0556,-44.775,9.45,-1.1063,,0.019781999999999744,0.45509876949954503,0.3797166819943734,forward_fall
3.743719,-0.1239,0.1255,0.3183,-0.2695,0.2394,-0.0556,-44.775,9.45,-1.1063,,0.019848000000000088,0.3638905742115341,0.3533122506665797,forward_fall
3.747232,-0.1239,0.1255,0.3183,-0.2695,0.2394,-0.0556,-44.775,9.45,-1.1063,,0.0035129999999998773,0.3638905742115341,0.3245396679683309,forward_fall
3.749396,-0.1239,0.1255,0.3183,-0.2695,0.2394,-0.0556,-44.3813,9.4688,-1.95,,0.0021640000000000548,0.3638905742115341,0.29626590349868154,forward_fall
3.761559,-0.1239,0.1255,0.3183,-0.2975,0.3017,0.0055,-44.3813,9.4688,-1.95,,0.012163000000000146,0.3638905742115341,0.2717013980868863,forward_fall
3.765073,-0.077,0.0148,0.1075,-0.2975,0.3017,0.0055,-44.3813,9.4688,-1.95,,0.003514000000000017,0.1330574687869869,0.25415223564104206,forward_fall
3.780579,-0.0146,-0.1263,0.0154,-0.2975,0.3017,0.0055,-44.3813,9.4688,-1.95,,0.015505999999999798,0.1280703322397502,0.2467564067055819,forward_fall
3.799996,-0.0022,-0.1675,-0.0515,-0.2975,0.3017,0.0055,-44.3813,9.4688,-1.95,,0.01941700000000024,0.17525221824559026,0.2522319517336859,forward_fall
3.807024,-0.0022,-0.1675,-0.0515,-0.2975,0.3017,0.0055,-44.3813,9.6188,-2.5688,,0.007028000000000034,0.17525221824559026,0.2726650185798279,forward_fall
3.809081,-0.0022,-0.1675,-0.0515,-0.2975,0.3017,0.0055,-44.3813,9.6188,-2.5688,,0.0020569999999997535,0.17525221824559026,0.30936197452000075,forward_fall
3.818786,-0.1181,-0.0308,-0.0343,-0.2975,0.3017,0.0055,-44.3813,9.6188,-2.5688,,0.009704999999999853,0.1267783104478049,0.3627824095270774,forward_fall
3.823476,-0.1181,-0.0308,-0.0343,-0.4295,0.2894,-0.0861,-44.3813,9.6188,-2.5688,,0.004690000000000083,0.1267783104478049,0.43256049281857095,forward_fall
3.838269,-0.3265,0.1603,0.358,-0.4295,0.2894,-0.0861,-44.3813,9.6188,-2.5688,,0.014793000000000056,0.5103551116624581,0.5176106530102715,forward_fall
3.857536,-0.3196,0.401,0.8728,-0.4295,0.2894,-0.0861,-44.3813,9.6188,-2.5688,,0.019267000000000145,1.0122870146356715,0.6162993200379625,forward_fall
3.867715,-0.3196,0.401,0.8728,-0.4295,0.2894,-0.0861,-44.175,9.3375,-3.2063,,0.010178999999999938,1.0122870146356715,0.7266495659232404,forward_fall
3.87093,-0.3196,0.401,0.8728,-0.4295,0.2894,-0.0861,-44.175,9.3375,-3.2063,,0.003214999999999968,1.0122870146356715,0.8465360795089462,forward_fall
3.876823,-0.2912,0.8053,0.9628,-0.4295,0.2894,-0.0861,-44.175,9.3375,-3.2063,,0.005892999999999926,1.2885221651178531,0.9738302170918904,forward_fall
3.88689,-0.2912,0.8053,0.9628,-0.4319,0.3677,-0.1875,-44.175,9.3375,-3.2063,,0.01006700000000027,1.2885221651178531,1.1064693033711723,forward_fall
3.896498,-0.0748,0.8652,0.8384,-0.4319,0.3677,-0.1875,-44.175,9.3375,-3.2063,,0.009607999999999617,1.2070959531039775,1.2424455380664166,forward_fall
3.914546,0.0245,0.5565,1.1025,-0.4319,0.3677,-0.1875,-44.175,9.3375,-3.2063,,0.018048000000000286,1.2352322656083754,1.3797316986699206,forward_fall
3.927544,0.0245,0.5565,1.1025,-0.4319,0.3677,-0.1875,-43.8563,9.075,-3.9375,,0.012998000000000065,1.2352322656083754,1.5161789265485204,forward_fall
3.932792,0.0245,0.5565,1.1025,-0.4319,0.3677,-0.1875,-43.8563,9.075,-3.9375,,0.005247999999999919,1.2352322656083754,1.6494323306084335,forward_fall
3.933625,-0.0661,0.2634,1.5578,-0.4319,0.3677,-0.1875,-43.8563,9.075,-3.9375,,0.0008330000000000837,1.5812936507809041,1.776909665731334,forward_fall
3.948072,-0.0661,0.2634,1.5578,-0.5186,0.4593,-0.2756,-43.8563,9.075,-3.9375,,0.014446999999999655,1.5812936507809041,1.8958762670099514,forward_fall
3.95389,0.1313,-0.0257,1.8626,-0.5186,0.4593,-0.2756,-43.8563,9.075,-3.9375,,0.005818000000000101,1.8673989771872532,2.0036284188232716,forward_fall
3.972709,0.3112,-0.126,2.2719,-0.5186,0.4593,-0.2756,-43.8563,9.075,-3.9375,,0.01881900000000014,2.2965737632394916,2.0977722921438158,forward_fall
3.987803,0.3112,-0.126,2.2719,-0.5186,0.4593,-0.2756,-44.1,8.3813,-5.2875,,0.01509399999999994,2.2965737632394916,2.176561928577564,forward_fall
3.991616,0.4933,-0.1513,2.5675,-0.5186,0.4593,-0.2756,-44.1,8.3813,-5.2875,,0.0038130000000000663,2.6188342501960675,2.239242571294996,forward_fall
3.995391,0.4933,-0.1513,2.5675,-0.5186,0.4593,-0.2756,-44.1,8.3813,-5.2875,,0.003775000000000084,2.6188342501960675,2.286339028526726,forward_fall
4.009979,0.4933,-0.1513,2.5675,-0.3366,1.0347,-0.4819,-44.1,8.3813,-5.2875,,0.014588000000000267,2.6188342501960675,2.319834449751789,forward_fall
4.01319,0.4912,-0.2521,2.4123,-0.3366,1.0347,-0.4819,-44.1,8.3813,-5.2875,,0.0032109999999994088,2.4746763707604273,2.343201500219904,forward_fall
4.029984,0.1855,-0.2635,2.1117,-0.3366,1.0347,-0.4819,-44.1,8.3813,-5.2875,,0.016793999999999976,2.136145919641259,2.361271432303876,forward_fall
4.047536,0.1855,-0.2635,2.1117,-0.3366,1.0347,-0.4819,-43.35,7.3313,-8.325,,0.017552000000000234,2.136145919641259,2.3799509491307167,forward_fall
4.05115,-0.0547,-0.2796,2.4379,-0.3366,1.0347,-0.4819,-43.35,7.3313,-8.325,,0.003613999999999784,2.4544907129585964,2.405814945371714,forward_fall
4.061146,-0.0547,-0.2796,2.4379,-0.3366,1.0347,-0.4819,-43.35,7.3313,-8.325,,0.009996000000000116,2.4544907129585964,2.4456101907328436,forward_fall
4.068036,-0.2489,-0.1565,2.8188,-0.3366,1.0347,-0.4819,-43.35,7.3313,-8.325,,0.006890000000000285,2.8340919004153693,2.5057018245471645,forward_fall
4.073715,-0.2489,-0.1565,2.8188,-0.2658,1.2253,-0.3316,-43.35,7.3313,-8.325,,0.005678999999999768,2.8340919004153693,2.5914882535198576,forward_fall
4.088739,-0.2078,-0.4276,2.7398,-0.2658,1.2253,-0.3316,-43.35,7.3313,-8.325,,0.01502400000000037,2.7807421023892163,2.706808786947481,forward_fall
4.106971,-0.1667,-0.5405,2.7952,-0.2658,1.2253,-0.3316,-43.35,7.3313,-8.325,,0.01823199999999936,2.8518541652756366,2.8533757730709817,forward_fall
4.110966,-0.1667,-0.5405,2.7952,-0.2658,1.2253,-0.3316,-42.6188,6.9563,-10.8563,,0.003995000000000637,2.8518541652756366,3.030276738274442,forward_fall
4.120397,-0.1667,-0.5405,2.7952,-0.2658,1.2253,-0.3316,-42.6188,6.9563,-10.8563,,0.009430999999999301,2.8518541652756366,3.233605739201251,forward_fall
4.125444,-0.434,-0.1836,3.2001,-0.2658,1.2253,-0.3316,-42.6188,6.9563,-10.8563,,0.005047000000000246,3.2346104819591495,3.4562902411722805,forward_fall
4.134208,-0.434,-0.1836,3.2001,-0.0837,1.4135,-0.2646,-42.6188,6.9563,-10.8563,,0.008764000000000216,3.2346104819591495,3.688176433935706,forward_fall
4.145997,-0.9618,0.4409,3.4481,-0.0837,1.4135,-0.2646,-42.6188,6.9563,-10.8563,,0.011789000000000271,3.6067777392015716,3.916421573648311,forward_fall
4.163913,-1.7662,1.3061,3.263,-0.0837,1.4135,-0.2646,-42.6188,6.9563,-10.8563,,0.0179159999999996,3.9335135248273905,4.1262189912202984,forward_fall
4.170301,-1.7662,1.3061,3.263,-0.0837,1.4135,-0.2646,-41.6813,6.3938,-15.3563,,0.006388000000000282,3.9335135248273905,4.301853378167411,forward_fall
4.182103,-1.7662,1.3061,3.263,-0.0837,1.4135,-0.2646,-41.6813,6.3938,-15.3563,,0.011801999999999424,3.9335135248273905,4.4280542573451855,forward_fall
4.185521,-2.3167,2.0489,2.9916,-0.0837,1.4135,-0.2646,-41.6813,6.3938,-15.3563,,0.003417999999999921,4.302878183262919,4.491586092316089,forward_fall
4.196122,-2.3167,2.0489,2.9916,0.1948,1.4746,-0.0727,-41.6813,6.3938,-15.3563,,0.010601000000000305,4.302878183262919,4.482984005170645,forward_fall
4.202643,-2.6462,2.8828,2.0025,0.1948,1.4746,-0.0727,-41.6813,6.3938,-15.3563,,0.006521000000000221,4.395783949422446,4.398313987622872,forward_fall
4.221316,-2.2186,3.8061,1.2606,0.1948,1.4746,-0.0727,-41.6813,6.3938,-15.3563,,0.018672999999999718,4.582324249766705,4.24080808252964,forward_fall
4.228279,-2.2186,3.8061,1.2606,0.1948,1.4746,-0.0727,-39.7688,5.9438,-18.7313,,0.0069629999999998304,4.582324249766705,4.022203423501077,forward_fall
4.239579,-3.4781,2.9709,1.0111,0.1948,1.4746,-0.0727,-39.7688,5.9438,-18.7313,,0.01130000000000031,4.684629081368128,3.763604892554412,forward_fall
4.243826,-3.4781,2.9709,1.0111,0.1948,1.4746,-0.0727,-39.7688,5.9438,-18.7313,,0.004247000000000334,4.684629081368128,3.4956996188763845,forward_fall
4.258682,-3.4781,2.9709,1.0111,0.0971,1.3487,-0.2291,-39.7688,5.9438,-18.7313,,0.01485599999999998,4.684629081368128,3.2581820927482195,forward_fall
4.260432,-3.4156,1.8989,1.1445,0.0971,1.3487,-0.2291,-39.7688,5.9438,-18.7313,,0.0017499999999994742,4.072103242797265,3.0983041023299713,forward_fall
4.279223,-2.4428,1.4331,0.7988,0.0971,1.3487,-0.2291,-39.7688,5.9438,-18.7313,,0.018791000000000224,2.9426397825761823,3.0685427294125542,forward_fall
4.28976,-2.4428,1.4331,0.7988,0.0971,1.3487,-0.2291,-38.1375,5.3063,-22.425,,0.01053700000000024,2.9426397825761823,3.2234729657143917,forward_fall
4.298193,-0.9629,2.7215,1.988,0.0971,1.3487,-0.2291,-38.1375,5.3063,-22.425,,0.008433000000000135,3.5051223459388687,3.6160200160993643,forward_fall
4.305789,-0.9629,2.7215,1.988,0.0971,1.3487,-0.2291,-38.1375,5.3063,-22.425,,0.007595999999999492,3.5051223459388687,4.293328557493022,forward_fall
4.317009,-4.9517,5.5715,0.6674,0.0971,1.3487,-0.2291,-38.1375,5.3063,-22.425,,0.011219999999999786,7.483740234668758,5.292512571477482,forward_fall
4.320959,-4.9517,5.5715,0.6674,-0.2498,0.419,-0.5602,-38.1375,5.3063,-22.425,,0.003950000000000564,7.483740234668758,6.636550541067108,forward_fall
4.335365,-6.5766,6.9018,0.9238,-0.2498,0.419,-0.5602,-38.1375,5.3063,-22.425,,0.014406000000000141,9.57809570008569,8.330593482936385,forward_fall
4.347666,-6.5766,6.9018,0.9238,-0.2498,0.419,-0.5602,-35.85,4.6875,-24.7875,,0.012300999999999895,9.57809570008569,10.35898439107195,forward_fall
4.354869,-2.4651,8.2319,1.7297,-0.2498,0.419,-0.5602,-35.85,4.6875,-24.7875,,0.007202999999999626,8.765429693403513,12.683351059078879,forward_fall
4.36891,-2.4651,8.2319,1.7297,-0.2498,0.419,-0.5602,-35.85,4.6875,-24.7875,,0.014040999999999748,8.765429693403513,15.242195108322617,forward_fall
4.373321,1.981,11.6347,-5.6797,-0.2498,0.419,-0.5602,-35.85,4.6875,-24.7875,,0.004411000000000165,13.09769434595265,17.952392702356864,forward_fall
4.382447,1.981,11.6347,-5.6797,-2.1937,0.4972,-0.9268,-35.85,4.6875,-24.7875,,0.00912600000000019,13.09769434595265,20.71288138340133,forward_fall
4.394093,3.4556,14.7074,-24.5298,-2.1937,0.4972,-0.9268,-35.85,4.6875,-24.7875,,0.011645999999999823,28.809024179239394,23.410509113439428,forward_fall
4.408437,3.4556,14.7074,-24.5298,-2.1937,0.4972,-0.9268,-36.225,6.3938,-23.3063,,0.014344000000000356,28.809024179239394,25.92761712859113,forward_fall
4.414843,-3.3065,5.4726,-36.1221,-2.1937,0.4972,-0.9268,-36.225,6.3938,-23.3063,,0.006406000000000134,36.68362579435136,28.150546038339822,forward_fall
4.430741,-3.3065,5.4726,-36.1221,-2.1937,0.4972,-0.9268,-36.225,6.3938,-23.3063,,0.015897999999999968,36.68362579435136,29.97805271847897,forward_fall
4.432134,-9.3758,-7.48,-20.8938,-2.1937,0.4972,-0.9268,-36.225,6.3938,-23.3063,,0.0013929999999993115,24.091635562576485,31.32869992414469,forward_fall
4.445428,-9.3758,-7.48,-20.8938,-4.8289,-7.7311,-1.0366,-36.225,6.3938,-23.3063,,0.013294000000000139,24.091635562576485,32.14658498813206,forward_fall
4.450666,17.5644,-34.7388,-13.9812,-4.8289,-7.7311,-1.0366,-36.225,6.3938,-23.3063,,0.005238000000000298,41.36141107650946,32.405120308141555,forward_fall
4.467137,17.5644,-34.7388,-13.9812,-4.8289,-7.7311,-1.0366,-43.2188,8.1375,-5.0063,,0.016471000000000124,41.36141107650946,32.108763332818434,forward_fall
4.469362,18.128,-15.418,-10.6705,-4.8289,-7.7311,-1.0366,-43.2188,8.1375,-5.0063,,0.0022250000000001435,26.08061882413836,31.292595486170857,forward_fall
4.489977,28.1255,-14.7918,3.8629,-4.8289,-7.7311,-1.0366,-43.2188,8.1375,-5.0063,,0.020614999999999384,32.01192112166966,30.01965332541596,forward_fall
4.492569,28.1255,-14.7918,3.8629,-4.8289,-7.7311,-1.0366,-43.2188,8.1375,-5.0063,,0.0025919999999999277,32.01192112166966,28.376069112250146,forward_fall
4.507372,28.1255,-14.7918,3.8629,-2.6249,-1.5162,-1.3042,-43.2188,8.1375,-5.0063,,0.014803000000000566,32.01192112166966,26.464319709134195,forward_fall
4.50913,11.388,10.8513,18.7813,-2.6249,-1.5162,-1.3042,-43.2188,8.1375,-5.0063,,0.0017579999999997042,24.498458836832985,24.39509534079123,forward_fall
4.526477,0.0988,5.2195,11.6696,-2.6249,-1.5162,-1.3042,-43.2188,8.1375,-5.0063,,0.017347,12.78407234999865,22.27848726979101,forward_fall
4.527907,0.0988,5.2195,11.6696,-2.6249,-1.5162,-1.3042,-43.9688,3.5063,1.6313,,0.0014300000000000423,12.78407234999865,20.215385540749736,forward_fall
4.546754,-8.6571,-1.7143,10.8868,-2.6249,-1.5162,-1.3042,-43.9688,3.5063,1.6313,,0.018847000000000058,14.014514588097583,18.290082953132764,forward_fall
4.556737,-8.6571,-1.7143,10.8868,-2.6249,-1.5162,-1.3042,-43.9688,3.5063,1.6313,,0.009983000000000075,14.014514588097583,16.564956752796284,forward_fall
4.564963,-10.8207,-7.4425,10.7633,-2.6249,-1.5162,-1.3042,-43.9688,3.5063,1.6313,,0.008225999999999623,16.980193804253236,15.077729659776312,forward_fall
4.569662,-10.8207,-7.4425,10.7633,-4.2387,-1.5027,1.5925,-43.9688,3.5063,1.6313,,0.004699000000000453,16.980193804253236,13.841345914046517,forward_fall
4.583689,-2.7487,-11.3244,6.6899,-4.2387,-1.5027,1.5925,-43.9688,3.5063,1.6313,,0.014026999999999568,13.436969489434738,12.846123830209299,forward_fall
4.586241,-2.7487,-11.3244,6.6899,-4.2387,-1.5027,1.5925,-43.6125,7.0313,7.575,,0.002552000000000554,13.436969489434738,12.063665747107837,forward_fall
4.605801,2.238,-9.3246,-1.4343,-4.2387,-1.5027,1.5925,-43.6125,7.0313,7.575,,0.019559999999999356,9.696083005523416,11.452007424240007,forward_fall
4.617196,2.238,-9.3246,-1.4343,-4.2387,-1.5027,1.5925,-43.6125,7.0313,7.575,,0.011395000000000266,9.696083005523416,10.961585994739739,forward_fall
4.622178,4.8334,-6.5655,0.4158,-4.2387,-1.5027,1.5925,-43.6125,7.0313,7.575,,0.004982000000000042,8.163359323832315,10.541699589755298,forward_fall
4.63125,4.8334,-6.5655,0.4158,0.2192,-0.3286,-1.2957,-43.6125,7.0313,7.575,,0.009071999999999747,8.163359323832315,10.147158765738917,forward_fall
4.641839,4.6058,0.1373,6.3517,0.2192,-0.3286,-1.2957,-43.6125,7.0313,7.575,,0.010589000000000404,7.847059182904128,9.744773064793094,forward_fall
4.64854,4.6058,0.1373,6.3517,0.2192,-0.3286,-1.2957,-43.4062,4.1438,9.3188,,0.006700999999999624,7.847059182904128,9.31919140500476,forward_fall
4.660722,8.23,9.5463,10.9381,0.2192,-0.3286,-1.2957,-43.4062,4.1438,9.3188,,0.012182000000000137,16.68852226232149,8.87745536881348,forward_fall
4.679877,8.23,9.5463,10.9381,0.2192,-0.3286,-1.2957,-43.4062,4.1438,9.3188,,0.019155000000000477,16.68852226232149,8.451481473916273,forward_fall
4.682871,2.6569,14.9651,-2.6571,0.2192,-0.3286,-1.2957,-43.4062,4.1438,9.3188,,0.002993999999999275,15.42963110479314,8.097647839013502,forward_fall
4.700509,2.6569,14.9651,-2.6571,1.5656,0.546,1.2052,-43.4062,4.1438,9.3188,,0.01763800000000071,15.42963110479314,7.892822430507293,forward_fall
4.701989,0.9436,11.1045,-7.3054,1.5656,0.546,1.2052,-43.4062,4.1438,9.3188,,0.0014799999999999258,13.32550825934981,7.9265754075535995,forward_fall
4.70683,0.9436,11.1045,-7.3054,1.5656,0.546,1.2052,-42.7688,5.7563,6.7125,,0.004840999999999873,13.32550825934981,8.289903621693352,forward_fall
4.717845,-0.6969,3.886,-5.3735,1.5656,0.546,1.2052,-42.7688,5.7563,6.7125,,0.011014999999999553,6.667920804868636,9.061440373570608,forward_fall
4.737644,-1.3471,-1.4025,3.311,1.5656,0.546,1.2052,-42.7688,5.7563,6.7125,,0.019799000000000788,3.8398444838300416,10.292717022290768,forward_fall
4.74189,-1.3471,-1.4025,3.311,1.5656,0.546,1.2052,-42.7688,5.7563,6.7125,,0.004245999999999306,3.8398444838300416,11.994487629326464,forward_fall
4.755994,-1.3471,-1.4025,3.311,-0.2035,1.2082,-0.2206,-42.7688,5.7563,6.7125,,0.01410400000000056,3.8398444838300416,14.12632324689006,forward_fall
4.757811,1.0933,-1.5541,1.5862,-0.2035,1.2082,-0.2206,-42.7688,5.7563,6.7125,,0.0018169999999999575,2.475189313971762,16.591555353134545,forward_fall
4.767953,1.0933,-1.5541,1.5862,-0.2035,1.2082,-0.2206,-42.7688,6.6938,4.2188,,0.010142000000000095,2.475189313971762,19.239191029694204,forward_fall
4.775094,0.4091,2.3055,-0.5071,-0.2035,1.2082,-0.2206,-42.7688,6.6938,4.2188,,0.007140999999999842,2.3957970427396393,21.873673779113542,forward_fall
4.795168,-1.3272,6.8998,0.2621,-0.2035,1.2082,-0.2206,-42.7688,6.6938,4.2188,,0.020074000000000147,7.031173180202575,24.272353633285867,forward_fall
4.805645,-1.3272,6.8998,0.2621,-0.2035,1.2082,-0.2206,-42.7688,6.6938,4.2188,,0.010476999999999848,7.031173180202575,26.209273805107507,forward_fall
4.816488,-13.032,46.0491,-63.5473,-0.2035,1.2082,-0.2206,-42.7688,6.6938,4.2188,,0.010842999999999492,79.55257363592959,27.482440744085054,forward_fall
4.821484,-13.032,46.0491,-63.5473,-1.3042,-6.0536,-0.824,-42.7688,6.6938,4.2188,,0.0049960000000002225,79.55257363592959,27.940367579144606,forward_fall
4.8303,-13.032,46.0491,-63.5473,-1.3042,-6.0536,-0.824,-41.2313,4.4062,5.1938,,0.008816000000000379,79.55257363592959,27.502945596797833,forward_fall
4.8326,3.2362,4.5425,-7.6937,-1.3042,-6.0536,-0.824,-41.2313,4.4062,5.1938,,0.0022999999999999687,9.502647861517335,26.172332117665317,forward_fall
4.851865,-1.1764,1.5704,-14.5314,-1.3042,-6.0536,-0.824,-41.2313,4.4062,5.1938,,0.019264999999999866,14.663275864553595,24.031747913182887,forward_fall
4.865617,-1.1764,1.5704,-14.5314,-1.3042,-6.0536,-0.824,-41.2313,4.4062,5.1938,,0.013752000000000209,14.663275864553595,21.233031481318854,forward_fall
4.870865,-0.3048,0.4219,0.3825,-1.3042,-6.0536,-0.824,-41.2313,4.4062,5.1938,,0.005247999999999919,0.6459170999439479,17.976158906903603,forward_fall
4.883251,-0.3048,0.4219,0.3825,-0.3598,-0.1662,-0.0263,-41.2313,4.4062,5.1938,,0.012385999999999342,0.6459170999439479,14.484921217779867,forward_fall
4.886523,-0.3048,0.4219,0.3825,-0.3598,-0.1662,-0.0263,-40.5375,4.425,4.7625,,0.00327200000000083,0.6459170999439479,10.982720192695265,forward_fall
4.892722,-0.0182,0.3333,-0.4915,-0.3598,-0.1662,-0.0263,-40.5375,4.425,4.7625,,0.0061989999999996215,0.5941316184146405,7.671567861337664,forward_fall
4.91013,-0.1968,0.5229,0.2448,-0.3598,-0.1662,-0.0263,-40.5375,4.425,4.7625,,0.017407999999999646,0.6099849916186463,4.716276323601604,forward_fall
4.928453,-0.1968,0.5229,0.2448,-0.3598,-0.1662,-0.0263,-40.5375,4.425,4.7625,,0.018323000000000533,0.6099849916186463,2.2347343636026595,forward_fall
4.931409,0.1332,0.4043,-0.3623,-0.3598,-0.1662,-0.0263,-40.5375,4.425,4.7625,,0.0029560000000001807,0.5589830229980156,0.29424163246269125,forward_fall
4.942363,0.1332,0.4043,-0.3623,-0.3281,-0.2285,-0.0923,-40.5375,4.425,4.7625,,0.010953999999999908,0.5589830229980156,-1.086805570827266,forward_fall
4.948261,0.1175,0.4367,0.5865,-0.3281,-0.2285,-0.0923,-40.5375,4.425,4.7625,,0.005897999999999293,0.740604746136561,-1.9330039892188913,forward_fall
4.949859,0.1175,0.4367,0.5865,-0.3281,-0.2285,-0.0923,-41.4188,4.0125,7.0688,,0.0015980000000004324,0.740604746136561,-2.303134858484879,forward_fall
4.967448,-0.1638,0.4022,1.1416,-0.3281,-0.2285,-0.0923,-41.4188,4.0125,7.0688,,0.017589000000000077,1.2214114130791476,-2.279804846670757,forward_fall
4.986638,-0.2699,0.535,1.1742,-0.3281,-0.2285,-0.0923,-41.4188,4.0125,7.0688,,0.01919000000000004,1.3182627393657151,-1.9587722356954234,forward_fall
4.994267,-0.2699,0.535,1.1742,-0.3281,-0.2285,-0.0923,-41.4188,4.0125,7.0688,,0.007628999999999664,1.3182627393657151,-1.438989820887798,forward_fall
5.004412,-0.2699,0.535,1.1742,0.0653,-0.1478,-0.0947,-41.4188,4.0125,7.0688,,0.010145000000000515,1.3182627393657151,-0.8141361463268652,forward_fall
5.005789,-0.2556,0.5335,1.2329,0.0653,-0.1478,-0.0947,-41.4188,4.0125,7.0688,,0.0013769999999997395,1.367477977884836,-0.1661245877092773,forward_fall
5.006565,-0.2556,0.5335,1.2329,0.0653,-0.1478,-0.0947,-41.1188,3.8063,7.1625,,0.0007760000000001099,1.367477977884836,0.4391943484701933,forward_fall
5.024422,-0.3539,0.6116,0.7194,0.0653,-0.1478,-0.0947,-41.1188,3.8063,7.1625,,0.017857000000000234,1.0083829282569197,0.9541640017696602,forward_fall
5.043736,-0.3636,0.6148,-0.201,0.0653,-0.1478,-0.0947,-41.1188,3.8063,7.1625,,0.01931399999999961,0.74201415080846,1.3495061710778946,forward_fall
5.052086,-0.3636,0.6148,-0.201,0.0653,-0.1478,-0.0947,-41.1188,3.8063,7.1625,,0.00835000000000008,0.74201415080846,1.612917135908353,forward_fall
5.062942,-0.275,0.5009,-0.5014,0.0653,-0.1478,-0.0947,-41.1188,3.8063,7.1625,,0.010855999999999533,0.7602156075745881,1.746509937307449,forward_fall
5.066723,-0.275,0.5009,-0.5014,0.1081,-0.1222,-0.019,-41.1188,3.8063,7.1625,,0.0037810000000000343,0.7602156075745881,1.7635562272333496,forward_fall
5.067899,-0.275,0.5009,-0.5014,0.1081,-0.1222,-0.019,-40.9313,3.4313,8.1938,,0.0011760000000000659,0.7602156075745881,1.684950580193147,forward_fall
5.081401,-0.1286,0.5159,0.058,0.1081,-0.1222,-0.019,-40.9313,3.4313,8.1938,,0.013501999999999903,0.5348408828801329,1.5357566784457914,forward_fall
5.101331,-0.2726,0.5258,-0.1993,0.1081,-0.1222,-0.019,-40.9313,3.4313,8.1938,,0.019930000000000447,0.6248975035955897,1.3421139966689164,forward_fall
5.115633,-0.2726,0.5258,-0.1993,0.1081,-0.1222,-0.019,-40.9313,3.4313,8.1938,,0.014301999999999815,0.6248975035955897,1.1286969021029778,forward_fall
5.120853,-0.2169,0.4614,-0.2337,0.1081,-0.1222,-0.019,-40.9313,3.4313,8.1938,,0.0052200000000004465,0.5608486961739324,0.9168328461868491,forward_fall
5.126362,-0.2169,0.4614,-0.2337,0.1081,-0.1222,-0.019,-40.8375,3.6375,8.1938,,0.005508999999999986,0.5608486961739324,0.7233085203163666,forward_fall
5.128011,-0.2169,0.4614,-0.2337,0.0115,-0.066,-0.0202,-40.8375,3.6375,8.1938,,0.0016489999999995675,0.5608486961739324,0.5598277767606576,forward_fall
5.138669,-0.1377,0.437,0.1272,0.0115,-0.066,-0.0202,-40.8375,3.6375,8.1938,,0.010658000000000278,0.4755103889506516,0.4330360204610331,forward_fall
5.158923,-0.0933,0.4312,0.5791,0.0115,-0.066,-0.0202,-40.8375,3.6375,8.1938,,0.02025399999999955,0.7280076510586959,0.34499317981472305,forward_fall
5.176967,-0.0933,0.4312,0.5791,0.0115,-0.066,-0.0202,-40.8375,3.6375,8.1938,,0.018044000000000615,0.7280076510586959,0.29396028705311705,forward_fall
5.178718,-0.1626,0.4235,0.334,0.0115,-0.066,-0.0202,-40.8375,3.6375,8.1938,,0.001750999999999614,0.5633356104490466,0.2753622211421531,forward_fall
5.18718,-0.1626,0.4235,0.334,0.0115,-0.066,-0.0202,-40.5188,3.2813,7.35,,0.008461999999999748,0.5633356104490466,0.282800447074761,forward_fall
5.191998,-0.1626,0.4235,0.334,0.0568,-0.1052,-0.03,-40.5188,3.2813,7.35,,0.004818000000000211,0.5633356104490466,0.30901207470112985,forward_fall
5.195794,-0.2782,0.4252,-0.0335,0.0568,-0.1052,-0.03,-40.5188,3.2813,7.35,,0.0037960000000003546,0.5092273853594286,0.3467000345705249,forward_fall
5.215614,-0.3454,0.4189,-0.152,0.0568,-0.1052,-0.03,-40.5188,3.2813,7.35,,0.01982000000000017,0.5638105798936377,0.3891879272205805,forward_fall
5.234795,-0.2749,0.3755,0.1008,0.0568,-0.1052,-0.03,-40.5188,3.2813,7.35,,0.01918099999999967,0.4761626822841118,0.43087877170981453,forward_fall
5.239,-0.2749,0.3755,0.1008,0.0568,-0.1052,-0.03,-40.5188,3.2813,7.35,,0.004204999999999792,0.4761626822841118,0.4675184182368494,forward_fall
5.249443,-0.2749,0.3755,0.1008,0.0568,-0.1052,-0.03,-41.0625,3.975,9.1313,,0.010443000000000424,0.4761626822841118,0.4962814311565845,forward_fall
5.253308,-0.2749,0.3755,0.1008,0.0274,-0.0342,-0.0067,-41.0625,3.975,9.1313,,0.003864999999999341,0.4761626822841118,0.5157093364023909,forward_fall
5.255287,-0.2181,0.3568,0.0978,0.0274,-0.0342,-0.0067,-41.0625,3.975,9.1313,,0.001979000000000397,0.4294632580326284,0.5255380879483937,forward_fall
5.273255,-0.1591,0.3836,0.0303,0.0274,-0.0342,-0.0067,-41.0625,3.975,9.1313,,0.017967999999999762,0.41638907286334975,0.5264539394564136,forward_fall
5.293213,-0.2098,0.3559,-0.0949,0.0274,-0.0342,-0.0067,-41.0625,3.975,9.1313,,0.01995799999999992,0.42389486904184154,0.5198154743007369,forward_fall
5.301143,-0.2098,0.3559,-0.0949,0.0274,-0.0342,-0.0067,-41.0625,3.975,9.1313,,0.007929999999999993,0.42389486904184154,0.507375069974297,forward_fall
5.30695,-0.2098,0.3559,-0.0949,0.0274,-0.0342,-0.0067,-41.5125,3.4313,8.625,,0.005806999999999896,0.42389486904184154,0.49102623826810926,forward_fall
5.312382,-0.194,0.3582,0.1175,0.0274,-0.0342,-0.0067,-41.5125,3.4313,8.625,,0.0054320000000007695,0.42396873705498617,0.47259512745149507,forward_fall
5.315585,-0.194,0.3582,0.1175,0.0225,-0.0367,-0.0032,-41.5125,3.4313,8.625,,0.0032029999999991787,0.42396873705498617,0.45368623144381004,forward_fall
5.330363,-0.1686,0.3145,0.1817,0.0225,-0.0367,-0.0032,-41.5125,3.4313,8.625,,0.014778000000000624,0.40043863449971956,0.4355849667269173,forward_fall
5.349628,-0.2058,0.3083,0.2412,0.0225,-0.0367,-0.0032,-41.5125,3.4313,8.625,,0.019264999999999866,0.4422442424724148,0.4192137080234693,forward_fall
5.363154,-0.2058,0.3083,0.2412,0.0225,-0.0367,-0.0032,-41.5125,3.4313,8.625,,0.013525999999999705,0.4422442424724148,0.40513326107136144,forward_fall
5.367303,-0.2058,0.3083,0.2412,0.0225,-0.0367,-0.0032,-39.75,3.5625,7.2188,,0.004148999999999958,0.4422442424724148,0.393578716089986,forward_fall
5.369923,-0.1901,0.3014,0.1669,0.0225,-0.0367,-0.0032,-39.75,3.5625,7.2188,,0.0026200000000002888,0.3934915246863647,0.3845174081942488,forward_fall
5.376874,-0.1901,0.3014,0.1669,0.0153,0.028,0.0018,-39.75,3.5625,7.2188,,0.0069509999999999295,0.3934915246863647,0.3777173897239838,forward_fall
5.387196,-0.1641,0.3017,0.2508,0.0153,0.028,0.0018,-39.75,3.5625,7.2188,,0.010322000000000386,0.42526737471854104,0.37281689875427215,forward_fall
5.406905,-0.1837,0.3148,0.0763,0.0153,0.028,0.0018,-39.75,3.5625,7.2188,,0.019708999999999754,0.3723794032972286,0.3693878964888121,forward_fall
5.425818,-0.1837,0.3148,0.0763,0.0153,0.028,0.0018,-39.75,3.5625,7.2188,,0.018912999999999514,0.3723794032972286,0.3669892400653377,forward_fall
5.428739,-0.1573,0.3207,0.0456,0.0153,0.028,0.0018,-39.75,3.5625,7.2188,,0.0029210000000006175,0.3600987920001954,0.3652073441230771,forward_fall
5.431074,-0.1573,0.3207,0.0456,0.0153,0.028,0.0018,-41.2125,3.3188,8.7188,,0.002334999999999532,0.3600987920001954,0.3636841680994715,forward_fall
5.43976,-0.1573,0.3207,0.0456,0.0115,0.0439,0.003,-41.2125,3.3188,8.7188,,0.008685999999999972,0.3600987920001954,0.36213374835952955,forward_fall
5.445026,-0.1565,0.3134,0.0125,0.0115,0.0439,0.003,-41.2125,3.3188,8.7188,,0.005266000000000659,0.35052540564130297,0.3603491196292563,forward_fall
5.464804,-0.1432,0.2825,0.2067,0.0115,0.0439,0.003,-41.2125,3.3188,8.7188,,0.01977799999999963,0.37820282918032216,0.3582015231730889,non_fall
5.483805,-0.1344,0.2741,0.1663,0.0115,0.0439,0.003,-41.2125,3.3188,8.7188,,0.019001000000000268,0.34763466455461545,0.35563360219874013,non_fall
5.487881,-0.1344,0.2741,0.1663,0.0115,0.0439,0.003,-40.8375,3.6,8.7188,,0.0040759999999995244,0.34763466455461545,0.3526481051296441,non_fall
5.491196,-0.1344,0.2741,0.1663,0.0115,0.0439,0.003,-40.8375,3.6,8.7188,,0.003315000000000623,0.34763466455461545,0.3492935874324439,non_fall
5.50276,-0.1344,0.2741,0.1663,0.014,0.0353,0.0005,-40.8375,3.6,8.7188,,0.011563999999999908,0.34763466455461545,0.3456486601757487,non_fall
5.504031,-0.0993,0.2697,0.181,0.014,0.0353,0.0005,-40.8375,3.6,8.7188,,0.0012710000000000221,0.3396462571558827,0.3418063161133008,non_fall
5.522127,-0.1433,0.2727,0.0494,0.014,0.0353,0.0005,-40.8375,3.6,8.7188,,0.01809599999999989,0.3119944550789325,0.3378597200278747,non_fall
5.540787,-0.1577,0.2772,0.107,0.014,0.0353,0.0005,-40.8375,3.6,8.7188,,0.018659999999999677,0.3363898482415901,0.3338906251654348,non_fall
5.548743,-0.1577,0.2772,0.107,0.014,0.0353,0.0005,-41.2313,3.4313,8.4,,0.007956000000000074,0.3363898482415901,0.32996123284764345,non_fall
5.551373,-0.1577,0.2772,0.107,0.014,0.0353,0.0005,-41.2313,3.4313,8.4,,0.00262999999999991,0.3363898482415901,0.326109789550524,non_fall
5.55993,-0.1271,0.2742,0.0784,0.014,0.0353,0.0005,-41.2313,3.4313,8.4,,0.008556999999999704,0.31222845802392835,0.3223496746301914,non_fall
5.563689,-0.1271,0.2742,0.0784,0.0091,0.0231,-0.0019,-41.2313,3.4313,8.4,,0.003759000000000512,0.31222845802392835,0.31867145834599303,non_fall
5.57916,-0.1486,0.2625,0.0498,0.0091,0.0231,-0.0019,-41.2313,3.4313,8.4,,0.01547099999999979,0.30572577581878835,0.3150474393199499,non_fall
5.598428,-0.1643,0.2419,0.1121,0.0091,0.0231,-0.0019,-41.2313,3.4313,8.4,,0.019268000000000285,0.3131716941232078,0.31143821396806104,non_fall
5.608015,-0.1643,0.2419,0.1121,0.0091,0.0231,-0.0019,-41.325,3.45,8.3063,,0.00958699999999979,0.3131716941232078,0.3078006282629622,non_fall
5.611766,-0.1643,0.2419,0.1121,0.0091,0.0231,-0.0019,-41.325,3.45,8.3063,,0.003751000000000282,0.3131716941232078,0.3040960668537989,non_fall
5.616807,-0.1028,0.2471,0.1695,0.0091,0.0231,-0.0019,-41.325,3.45,8.3063,,0.005040999999999407,0.31679094052702955,0.3002977206370635,non_fall
5.62737,-0.1028,0.2471,0.1695,0.0066,0.0085,-0.0019,-41.325,3.45,8.3063,,0.010563000000000322,0.31679094052702955,0.29639549385576525,non_fall
5.637266,-0.0958,0.2306,0.1503,0.0066,0.0085,-0.0019,-41.325,3.45,8.3063,,0.009896000000000349,0.2914516941107051,0.2923976738448289,non_fall
5.655795,-0.1266,0.2331,0.0234,0.0066,0.0085,-0.0019,-41.325,3.45,8.3063,,0.018529000000000018,0.2662906870320478,0.2883293398011899,non_fall
5.667868,-0.1266,0.2331,0.0234,0.0066,0.0085,-0.0019,-40.8375,3.5625,7.575,,0.012073,0.2662906870320478,0.2842284736547364,non_fall
5.674698,-0.1266,0.2331,0.0234,0.0066,0.0085,-0.0019,-40.8375,3.5625,7.575,,0.006829999999999892,0.2662906870320478,0.2801413927041986,non_fall
5.677732,-0.1441,0.229,0.0113,0.0066,0.0085,-0.0019,-40.8375,3.5625,7.575,,0.003033999999999537,0.2708015878830846,0.2761190383686736,non_fall
5.688372,-0.1441,0.229,0.0113,0.0103,-0.0099,-0.0032,-40.8375,3.5625,7.575,,0.010640000000000427,0.2708015878830846,0.2722148197260014,non_fall
5.694342,-0.1526,0.1971,0.15,0.0103,-0.0099,-0.0032,-40.8375,3.5625,7.575,,0.005969999999999587,0.2909212436382053,0.26848353976144723,non_fall
5.71392,-0.1326,0.2129,0.1641,0.0103,-0.0099,-0.0032,-40.8375,3.5625,7.575,,0.019578000000000095,0.29972984502715105,0.26497995912966926,non_fall
5.727932,-0.1326,0.2129,0.1641,0.0103,-0.0099,-0.0032,-41.3438,4.0312,8.3063,,0.014012000000000135,0.29972984502715105,0.2617552055925508,non_fall
5.731902,-0.0911,0.1761,0.1328,0.0103,-0.0099,-0.0032,-41.3438,4.0312,8.3063,,0.003969999999999807,0.23863415514129574,0.25884980033795396,non_fall
5.736599,-0.0911,0.1761,0.1328,0.0103,-0.0099,-0.0032,-41.3438,4.0312,8.3063,,0.004697000000000173,0.23863415514129574,0.2562835290575483,non_fall
5.750547,-0.0911,0.1761,0.1328,0.0286,-0.0184,-0.0019,-41.3438,4.0312,8.3063,,0.013948000000000071,0.23863415514129574,0.25404418570389875,non_fall
5.751954,-0.1246,0.1876,0.0415,0.0286,-0.0184,-0.0019,-41.3438,4.0312,8.3063,,0.001406999999999492,0.22900037117873848,0.2520784571894549,non_fall
5.770714,-0.1147,0.1998,0.0365,0.0286,-0.0184,-0.0019,-41.3438,4.0312,8.3063,,0.018760000000000332,0.23325603957882848,0.2502883041287278,non_fall
5.787375,-0.1147,0.1998,0.0365,0.0286,-0.0184,-0.0019,-40.7438,3.7313,8.0813,,0.016661000000000037,0.23325603957882848,0.24853523290591306,non_fall
5.790783,-0.1413,0.2122,0.0073,0.0286,-0.0184,-0.0019,-40.7438,3.7313,8.0813,,0.0034080000000002997,0.25504474117299497,0.24665334944238945,non_fall
5.798187,-0.1413,0.2122,0.0073,0.0286,-0.0184,-0.0019,-40.7438,3.7313,8.0813,,0.007404000000000188,0.25504474117299497,0.2444704999432832,non_fall
5.808427,-0.1161,0.1726,0.0763,0.0286,-0.0184,-0.0019,-40.7438,3.7313,8.0813,,0.010239999999999583,0.22156637831584466,0.2418354948863268,non_fall
5.812688,-0.1161,0.1726,0.0763,0.0286,-0.0417,-0.0019,-40.7438,3.7313,8.0813,,0.004260999999999626,0.22156637831584466,0.23864861147987404,non_fall
5.827326,-0.1098,0.166,0.0924,0.0286,-0.0417,-0.0019,-40.7438,3.7313,8.0813,,0.014638000000000595,0.2194306268504923,0.2348921834123019,non_fall
5.846638,-0.1016,0.1821,0.199,0.0286,-0.0417,-0.0019,-40.7438,3.7313,8.0813,,0.01931199999999933,0.28824290104007766,0.23065770612934586,non_fall
5.849864,-0.1016,0.1821,0.199,0.0286,-0.0417,-0.0019,-39.75,3.6938,6.6,,0.0032260000000006173,0.28824290104007766,0.22616531032226017,non_fall
5.860644,-0.1016,0.1821,0.199,0.0286,-0.0417,-0.0019,-39.75,3.6938,6.6,,0.010779999999999568,0.28824290104007766,0.22177121378195486,non_fall
5.865772,-0.0838,0.1788,0.0591,0.0286,-0.0417,-0.0019,-39.75,3.6938,6.6,,0.005128000000000021,0.20611814573200485,0.2179598314335068,non_fall
5.875136,-0.0838,0.1788,0.0591,0.0384,-0.0612,0.0005,-39.75,3.6938,6.6,,0.009364000000000594,0.20611814573200485,0.21532002190823338,non_fall
5.884587,-0.0801,0.1612,-0.0476,0.0384,-0.0612,0.0005,-39.75,3.6938,6.6,,0.009450999999999432,0.18619132632859137,0.21450864826767452,non_fall
5.905013,-0.1087,0.1522,0.0202,0.0384,-0.0612,0.0005,-39.75,3.6938,6.6,,0.0204260000000005,0.18811849988770374,0.21620766559959867,non_fall
5.908556,-0.1087,0.1522,0.0202,0.0384,-0.0612,0.0005,-41.025,3.3188,8.5125,,0.0035429999999996298,0.18811849988770374,0.2210822129676336,non_fall
5.922636,-0.1087,0.1522,0.0202,0.0384,-0.0612,0.0005,-41.025,3.3188,8.5125,,0.01407999999999987,0.18811849988770374,0.22974662183683475,non_fall
5.924015,-0.0851,0.1243,0.1357,0.0384,-0.0612,0.0005,-41.025,3.3188,8.5125,,0.001379000000000019,0.20274858815784635,0.24274341442072211,non_fall
5.937472,-0.0851,0.1243,0.1357,0.0543,-0.0978,0.0005,-41.025,3.3188,8.5125,,0.01345699999999983,0.20274858815784635,0.26053776195927486,non_fall
5.94224,-0.0581,0.2452,0.1697,0.0543,-0.0978,0.0005,-41.025,3.3188,8.5125,,0.0047680000000003275,0.3038037853615389,0.28352675631175117,non_fall
5.961795,-0.0547,0.1755,0.1148,0.0543,-0.0978,0.0005,-41.025,3.3188,8.5125,,0.019555000000000433,0.21672881672726402,0.31205939977017677,non_fall
5.967579,-0.0547,0.1755,0.1148,0.0543,-0.0978,0.0005,-41.0625,4.0875,8.925,,0.005783999999999345,0.21672881672726402,0.34645966341867024,non_fall
5.980854,0.0901,0.2306,0.6962,0.0543,-0.0978,0.0005,-41.0625,4.0875,8.925,,0.013275000000000148,0.7389105561568329,0.387041375770804,non_fall
5.98546,0.0901,0.2306,0.6962,0.0543,-0.0978,0.0005,-41.0625,4.0875,8.925,,0.004605999999999888,0.7389105561568329,0.4341004059591727,non_fall
5.999599,0.0901,0.2306,0.6962,0.1728,-0.281,-0.0092,-41.0625,4.0875,8.925,,0.014139000000000124,0.7389105561568329,0.48786879870879846,non_fall
6.002965,-0.0016,0.3139,-0.3258,0.1728,-0.281,-0.0092,-41.0625,4.0875,8.925,,0.003365999999999758,0.4524172963095023,0.54842120898415,non_fall
6.018999,0.0421,0.0657,-0.6545,0.1728,-0.281,-0.0092,-41.0625,4.0875,8.925,,0.016034000000000326,0.6591351530604327,0.6155377358965692,non_fall
6.028105,0.0421,0.0657,-0.6545,0.1728,-0.281,-0.0092,-40.8375,3.4875,9.0188,,0.009106000000000058,0.6591351530604327,0.6885446746035337,non_fall
6.038951,0.0312,-0.2865,-0.247,0.1728,-0.281,-0.0092,-40.8375,3.4875,9.0188,,0.010845999999999911,0.3795585462086185,0.7661686039187872,non_fall
6.047427,0.0312,-0.2865,-0.247,0.1728,-0.281,-0.0092,-40.8375,3.4875,9.0188,,0.008475999999999928,0.3795585462086185,0.8464452129375851,non_fall
6.057862,0.4087,-0.68,0.2264,0.1728,-0.281,-0.0092,-40.8375,3.4875,9.0188,,0.010435000000000194,0.8250409989812628,0.9267210950684733,non_fall
6.061449,0.4087,-0.68,0.2264,0.5247,-0.4289,0.0763,-40.8375,3.4875,9.0188,,0.0035869999999995628,0.8250409989812628,1.0037738751496743,non_fall
6.077223,0.6744,-0.5369,0.4202,0.5247,-0.4289,0.0763,-40.8375,3.4875,9.0188,,0.0157740000000004,0.9589812354785677,1.0740549464241038,non_fall
6.087281,0.6744,-0.5369,0.4202,0.5247,-0.4289,0.0763,-40.7812,4.2188,10.0688,,0.0100579999999999,0.9589812354785677,1.134035068090102,non_fall
6.095919,1.1462,-0.6819,-0.0825,0.5247,-0.4289,0.0763,-40.7812,4.2188,10.0688,,0.008638000000000368,1.3362515855930723,1.1806119087344757,non_fall
6.10949,1.1462,-0.6819,-0.0825,0.5247,-0.4289,0.0763,-40.7812,4.2188,10.0688,,0.013570999999999778,1.3362515855930723,1.2115226354589168,non_fall
6.116758,-0.7004,2.024,-0.5619,0.5247,-0.4289,0.0763,-40.7812,4.2188,10.0688,,0.00726799999999983,2.214242030582926,1.2256943850692055,non_fall
6.123905,-0.7004,2.024,-0.5619,1.0134,-0.6684,0.2962,-40.7812,4.2188,10.0688,,0.007146999999999792,2.214242030582926,1.223464057693797,non_fall
6.133468,-0.6049,1.0018,-0.2395,1.0134,-0.6684,0.2962,-40.7812,4.2188,10.0688,,0.009562999999999988,1.1945155921962676,1.2066128919121668,non_fall
6.148975,-0.6049,1.0018,-0.2395,1.0134,-0.6684,0.2962,-40.0875,5.5875,11.6063,,0.015507000000000382,1.1945155921962676,1.178195309589679,non_fall
6.153264,-0.0232,-0.0558,0.1885,1.0134,-0.6684,0.2962,-40.0875,5.5875,11.6063,,0.004288999999999987,0.197949816872863,1.1421895571802727,non_fall
6.171773,-0.0232,-0.0558,0.1885,1.0134,-0.6684,0.2962,-40.0875,5.5875,11.6063,,0.018508999999999887,0.197949816872863,1.1030411121163097,non_fall
6.174968,-0.3749,1.2458,-0.0218,1.0134,-0.6684,0.2962,-40.0875,5.5875,11.6063,,0.003194999999999837,1.3011698159733034,1.065188172831574,non_fall
6.186513,-0.3749,1.2458,-0.0218,0.8496,-0.2578,0.0408,-40.0875,5.5875,11.6063,,0.011544999999999916,1.3011698159733034,1.0326442054161609,non_fall
6.193427,0.4464,0.3505,-0.8757,0.8496,-0.2578,0.0408,-40.0875,5.5875,11.6063,,0.006914000000000087,1.0435390265821398,1.008677037148648,non_fall
6.206786,0.4464,0.3505,-0.8757,0.8496,-0.2578,0.0408,-39.6188,5.9813,11.4938,,0.013359000000000343,1.0435390265821398,0.9955901899109794,non_fall
6.21005,0.6592,-0.1116,-0.4882,0.8496,-0.2578,0.0408,-39.6188,5.9813,11.4938,,0.0032639999999997116,0.8278517016954184,0.9945962042457502,non_fall
6.229581,0.5567,-0.7897,-0.3326,0.8496,-0.2578,0.0408,-39.6188,5.9813,11.4938,,0.019530999999999743,1.0218433050130533,1.0057721041495067,non_fall
6.233553,0.5567,-0.7897,-0.3326,0.8496,-0.2578,0.0408,-39.6188,5.9813,11.4938,,0.003972000000000087,1.0218433050130533,1.0280922098724643,non_fall
6.247968,0.5567,-0.7897,-0.3326,1.0659,-0.3433,-0.1754,-39.6188,5.9813,11.4938,,0.01441500000000051,1.0218433050130533,1.059535247611255,non_fall
6.251635,-0.5292,-0.4068,-0.0045,1.0659,-0.3433,-0.1754,-39.6188,5.9813,11.4938,,0.003667000000000087,0.6675021572998847,1.0972606758517736,non_fall
6.267098,-1.2659,-0.2545,0.3022,1.0659,-0.3433,-0.1754,-39.6188,5.9813,11.4938,,0.01546299999999956,1.3261213745355287,1.1378451936211835,non_fall
6.268848,-1.2659,-0.2545,0.3022,1.0659,-0.3433,-0.1754,-39.525,6.15,11.9062,,0.0017500000000003624,1.3261213745355287,1.1775645324908603,non_fall
6.287296,-1.0658,0.148,0.4311,1.0659,-0.3433,-0.1754,-39.525,6.15,11.9062,,0.018448000000000242,1.159172485008163,1.2126978950029534,non_fall
6.295235,-1.0658,0.148,0.4311,1.0659,-0.3433,-0.1754,-39.525,6.15,11.9062,,0.007938999999999474,1.159172485008163,1.2398258414728411,non_fall
6.306753,-1.3731,0.6855,0.9925,1.0659,-0.3433,-0.1754,-39.525,6.15,11.9062,,0.011517999999999695,1.827667943035605,1.2560905432757414,non_fall
6.310166,-1.3731,0.6855,0.9925,0.6933,-0.5914,-0.6237,-39.525,6.15,11.9062,,0.0034130000000001104,1.827667943035605,1.2593903778206539,non_fall
6.324978,-0.6886,0.715,-0.1467,0.6933,-0.5914,-0.6237,-39.525,6.15,11.9062,,0.014812000000000047,1.0034519669620465,1.248488821993507,non_fall
6.326668,-0.6886,0.715,-0.1467,0.6933,-0.5914,-0.6237,-37.9313,5.6813,10.725,,0.0016899999999999693,1.0034519669620465,1.223032850341361,non_fall
6.344439,-0.1596,0.491,-0.8105,0.6933,-0.5914,-0.6237,-37.9313,5.6813,10.725,,0.017771000000000647,0.9609700359532549,1.1834970653268737,non_fall
6.361193,-0.1596,0.491,-0.8105,0.6933,-0.5914,-0.6237,-37.9313,5.6813,10.725,,0.016753999999999714,0.9609700359532549,1.1310868722009086,non_fall
6.364047,0.0241,0.4167,-0.7109,0.6933,-0.5914,-0.6237,-37.9313,5.6813,10.725,,0.002854000000000134,0.8243776501094628,1.0676375574296322,non_fall
6.372242,0.0241,0.4167,-0.7109,0.4587,-0.799,-0.3978,-37.9313,5.6813,10.725,,0.00819499999999973,0.8243776501094628,0.9955360321127232,non_fall
6.381573,0.4126,0.3333,-0.7642,0.4587,-0.799,-0.3978,-37.9313,5.6813,10.725,,0.009331000000000422,0.9302307724430535,0.9176749591082594,non_fall
6.387512,0.4126,0.3333,-0.7642,0.4587,-0.799,-0.3978,-39.0938,4.4062,14.475,,0.0059389999999996945,0.9302307724430535,0.8374309238303287,non_fall
6.403134,0.9931,0.1666,-0.0811,0.4587,-0.799,-0.3978,-39.0938,4.4062,14.475,,0.01562199999999958,1.0102377838905057,0.7586428094237698,non_fall
6.420677,0.9931,0.1666,-0.0811,0.4587,-0.799,-0.3978,-39.0938,4.4062,14.475,,0.017543000000000752,1.0102377838905057,0.6855569089898597,non_fall
6.423999,0.6428,0.3723,0.7252,0.4587,-0.799,-0.3978,-39.0938,4.4062,14.475,,0.003321999999999825,1.038130131534578,0.622704642423241,non_fall
6.434507,0.6428,0.3723,0.7252,0.2607,-0.115,0.0286,-39.0938,4.4062,14.475,,0.01050799999999974,1.038130131534578,0.5746885643580181,non_fall
6.439713,0.1317,-0.0263,-0.1828,0.2607,-0.115,0.0286,-39.0938,4.4062,14.475,,0.005206000000000266,0.22683125886878994,0.545872072099667,non_fall
6.449147,0.1317,-0.0263,-0.1828,0.2607,-0.115,0.0286,-39.6938,4.7625,15.4313,,0.00943399999999972,0.22683125886878994,0.5399944178276667,non_fall
6.460631,0.0993,-0.2413,-0.4055,0.2607,-0.115,0.0286,-39.6938,4.7625,15.4313,,0.011484000000000272,0.48219957486501375,0.5597576644319813,non_fall
6.478196,-0.3936,-0.2253,-0.1141,0.2607,-0.115,0.0286,-39.6938,4.7625,15.4313,,0.017564999999999387,0.4676535683601698,0.6064464558862162,non_fall
6.482079,-0.3936,-0.2253,-0.1141,0.2607,-0.115,0.0286,-39.6938,4.7625,15.4313,,0.003883000000000081,0.4676535683601698,0.6796404175018704,non_fall
6.496878,-0.3936,-0.2253,-0.1141,0.1459,-0.2518,-0.135,-39.6938,4.7625,15.4313,,0.014799000000000007,0.4676535683601698,0.7770669705719401,non_fall
6.500097,-0.3733,-0.2828,-0.5203,0.1459,-0.2518,-0.135,-39.6938,4.7625,15.4313,,0.003219000000000527,0.7000291565356402,0.8946264403746066,non_fall
6.507325,-0.3733,-0.2828,-0.5203,0.1459,-0.2518,-0.135,-39.0188,4.7625,15.2063,,0.007227999999999568,0.7000291565356402,1.0266042854244923,non_fall
6.516759,-0.1498,-0.472,-0.8542,0.1459,-0.2518,-0.135,-39.0188,4.7625,15.2063,,0.009434000000000609,0.9873609674278196,1.1660661209715266,non_fall
6.535428,0.2166,-0.4867,-1.2764,0.1459,-0.2518,-0.135,-39.0188,4.7625,15.2063,,0.01866899999999916,1.3831086038341314,1.305409688574921,non_fall
6.544979,0.2166,-0.4867,-1.2764,0.1459,-0.2518,-0.135,-39.0188,4.7625,15.2063,,0.009551000000000087,1.3831086038341314,1.4370260230003127,non_fall
6.554444,1.0324,-0.5361,-1.6631,0.1459,-0.2518,-0.135,-39.0188,4.7625,15.2063,,0.0094650000000005,2.0295700480643677,1.5540033202065964,non_fall
6.560599,1.0324,-0.5361,-1.6631,-0.0472,0.1722,-0.1314,-39.0188,4.7625,15.2063,,0.0061549999999996885,2.0295700480643677,1.6507955157992096,non_fall
6.568396,1.0324,-0.5361,-1.6631,-0.0472,0.1722,-0.1314,-39.375,3.8813,15.3188,,0.007797000000000054,2.0295700480643677,1.7237768821908177,non_fall
6.572984,1.2198,-0.3991,-1.5181,-0.0472,0.1722,-0.1314,-39.375,3.8813,15.3188,,0.0045880000000000365,1.9879186250951018,1.7716157198715399,non_fall
6.593111,0.414,0.011,-1.8242,-0.0472,0.1722,-0.1314,-39.375,3.8813,15.3188,,0.02012700000000045,1.870620923650754,1.7954226490524687,non_fall
6.607329,0.414,0.011,-1.8242,-0.0472,0.1722,-0.1314,-39.375,3.8813,15.3188,,0.01421799999999962,1.870620923650754,1.798656361206153,non_fall
6.611708,0.2357,-0.1407,-1.9636,-0.0472,0.1722,-0.1314,-39.375,3.8813,15.3188,,0.004379000000000133,1.9826941115562935,1.7867951109096358,non_fall
6.620891,0.2357,-0.1407,-1.9636,0.0886,0.6793,-0.0912,-39.375,3.8813,15.3188,,0.009183000000000163,1.9826941115562935,1.7668019079468549,non_fall
6.627303,0.2357,-0.1407,-1.9636,0.0886,0.6793,-0.0912,-39.0563,3.675,15.0,,0.006412000000000084,1.9826941115562935,1.7464261113035289,non_fall
6.630544,0.1538,-0.4535,-1.7557,0.0886,0.6793,-0.0912,-39.0563,3.675,15.0,,0.0032410000000000494,1.8198349320748848,1.7333974990455685,non_fall
6.650252,0.2164,-0.2011,-1.2869,0.0886,0.6793,-0.0912,-39.0563,3.675,15.0,,0.019707999999999615,1.3203718339922281,1.7345836095980633,non_fall
6.669279,0.2164,-0.2011,-1.2869,0.0886,0.6793,-0.0912,-39.0563,3.675,15.0,,0.01902700000000035,1.3203718339922281,1.7551958538039802,non_fall
6.671898,-0.4399,0.2995,-1.1311,0.0886,0.6793,-0.0912,-39.0563,3.675,15.0,,0.002618999999999261,1.2500397873667861,1.7981385356089605,non_fall
6.683829,-0.4399,0.2995,-1.1311,0.0848,0.4153,-0.1815,-39.0563,3.675,15.0,,0.01193100000000058,1.2500397873667861,1.8635900909269627,non_fall
6.688274,-0.4399,0.2995,-1.1311,0.0848,0.4153,-0.1815,-40.5,3.525,13.275,,0.004444999999999588,1.2500397873667861,1.9488839092919303,non_fall
6.690717,-1.7998,0.4827,-0.3379,0.0848,0.4153,-0.1815,-40.5,3.525,13.275,,0.002443000000000417,1.8937940067494141,2.048719098367284,non_fall
6.713465,-1.9364,0.2664,-0.6978,0.0848,0.4153,-0.1815,-40.5,3.525,13.275,,0.02274799999999999,2.075461095756796,2.1556852143231486,non_fall
6.727101,-2.054,0.6802,-1.7911,0.0848,0.4153,-0.1815,-40.5,3.525,13.275,,0.013635999999999981,2.8088480289969406,2.261037210964112,non_fall
6.731284,-2.054,0.6802,-1.7911,0.0848,0.4153,-0.1815,-40.5,3.525,13.275,,0.004182999999999382,2.8088480289969406,2.355617738560896,non_fall
6.74492,-2.054,0.6802,-1.7911,0.1239,0.2956,-0.1253,-40.5,3.525,13.275,,0.013635999999999981,2.8088480289969406,2.4308033439827006,non_fall
6.746617,0.0183,1.1414,-2.8491,0.1239,0.2956,-0.1253,-40.5,3.525,13.275,,0.0016970000000000596,3.0692832485777526,2.479353885403709,non_fall
6.74755,0.0183,1.1414,-2.8491,0.1239,0.2956,-0.1253,-40.9125,4.05,13.0875,,0.0009330000000007388,3.0692832485777526,2.4960677349396914,non_fall
6.764567,0.8368,2.1634,-1.544,0.1239,0.2956,-0.1253,-40.9125,4.05,13.0875,,0.01701700000000006,2.786479822284741,2.478181653913784,non_fall
6.783999,0.1246,1.5644,-0.9353,0.1239,0.2956,-0.1253,-40.9125,4.05,13.0875,,0.019431999999999228,1.8269260001434104,2.4254964943378234,non_fall
6.794693,0.1246,1.5644,-0.9353,0.1239,0.2956,-0.1253,-40.9125,4.05,13.0875,,0.010693999999999981,1.8269260001434104,2.340251266130648,non_fall
6.802954,-0.6519,0.8973,-2.0817,0.1239,0.2956,-0.1253,-40.9125,4.05,13.0875,,0.008261000000000074,2.3587275785897788,2.226798530713707,non_fall
6.807316,-0.6519,0.8973,-2.0817,-0.0802,-0.0855,-0.0154,-40.9125,4.05,13.0875,,0.004362000000000421,2.3587275785897788,2.091143846095297,non_fall
6.808395,-0.6519,0.8973,-2.0817,-0.0802,-0.0855,-0.0154,-39.3188,3.675,11.6813,,0.00107899999999983,2.3587275785897788,1.9404026295475312,non_fall
6.821795,-0.8048,0.6956,-1.6739,-0.0802,-0.0855,-0.0154,-39.3188,3.675,11.6813,,0.013399999999999856,1.983306232027722,1.7822143975735016,non_fall
6.841179,-0.4151,0.0581,-0.6027,-0.0802,-0.0855,-0.0154,-39.3188,3.675,11.6813,,0.019384000000000512,0.7341191388323833,1.6241522481242268,non_fall
6.855273,-0.4151,0.0581,-0.6027,-0.0802,-0.0855,-0.0154,-39.3188,3.675,11.6813,,0.014094000000000051,0.7341191388323833,1.4731757031246648,non_fall
6.860859,0.0061,-0.8802,-0.9175,-0.0802,-0.0855,-0.0154,-39.3188,3.675,11.6813,,0.005585999999999203,1.2714540888290067,1.33518353801855,non_fall
6.867165,0.0061,-0.8802,-0.9175,-0.0802,-0.0855,-0.0154,-40.9125,4.0125,13.5938,,0.006306000000000367,1.2714540888290067,1.214714056764739,non_fall
6.870644,0.0061,-0.8802,-0.9175,-0.0557,-0.2188,-0.0484,-40.9125,4.0125,13.5938,,0.003479000000000454,1.2714540888290067,1.1148115907795864,non_fall
6.87999,0.1492,-0.7274,-0.8546,-0.0557,-0.2188,-0.0484,-40.9125,4.0125,13.5938,,0.009345999999999854,1.1321274486558481,1.0370445126403172,non_fall
6.898877,0.2085,-0.468,-0.8926,-0.0557,-0.2188,-0.0484,-40.9125,4.0125,13.5938,,0.018886999999999432,1.0291894917846762,0.9816383083568293,non_fall
6.917875,0.2085,-0.468,-0.8926,-0.0557,-0.2188,-0.0484,-40.9125,4.0125,13.5938,,0.018998000000000737,1.0291894917846762,0.9476817356676283,non_fall
6.921147,0.0582,-0.1935,-1.0556,-0.0557,-0.2188,-0.0484,-40.9125,4.0125,13.5938,,0.0032719999999999416,1.074765486048003,0.9333687805705217,non_fall
6.927458,0.0582,-0.1935,-1.0556,-0.0557,-0.2188,-0.0484,-41.3063,3.9938,14.2313,,0.006310999999999289,1.074765486048003,0.9362470429276673,non_fall
6.931178,0.0582,-0.1935,-1.0556,0.0738,-0.198,-0.2414,-41.3063,3.9938,14.2313,,0.0037200000000003897,1.074765486048003,0.9534515328926556,non_fall
6.936357,0.0181,0.4798,-0.2456,0.0738,-0.198,-0.2414,-41.3063,3.9938,14.2313,,0.005179000000000045,0.5393097532958216,0.9819117449734687,non_fall
6.95643,-0.1411,1.0141,-0.3461,0.0738,-0.198,-0.2414,-41.3063,3.9938,14.2313,,0.020073000000000008,1.0807836184916944,1.0185286610910966,non_fall
6.976022,0.0652,1.0513,-0.5015,0.0738,-0.198,-0.2414,-41.3063,3.9938,14.2313,,0.019592000000000276,1.1666126092238158,1.060323873286555,non_fall
6.979531,0.0652,1.0513,-0.5015,0.0738,-0.198,-0.2414,-41.3063,3.9938,14.2313,,0.0035089999999993182,1.1666126092238158,1.104562576359104,non_fall
6.986891,0.0652,1.0513,-0.5015,0.0738,-0.198,-0.2414,-40.725,3.8438,14.8313,,0.007360000000000255,1.1666126092238158,1.148847814478941,non_fall
6.994339,0.0652,1.0513,-0.5015,-0.1338,-0.2883,-0.0594,-40.725,3.8438,14.8313,,0.007448000000000121,1.1666126092238158,1.1911804932279497,non_fall
6.997273,0.7325,1.0078,0.2526,-0.1338,-0.2883,-0.0594,-40.725,3.8438,14.8313,,0.00293399999999977,1.27122926728423,1.2299809147545917,non_fall
7.013725,1.2792,0.8083,0.2519,-0.1338,-0.2883,-0.0594,-40.725,3.8438,14.8313,,0.016452000000000133,1.533999719687067,1.2640710252967966,non_fall
7.033174,1.0188,0.5814,0.5381,-0.1338,-0.2883,-0.0594,-40.725,3.8438,14.8313,,0.019448999999999828,1.2905545358488342,1.2926200536115364,non_fall
7.041813,1.0188,0.5814,0.5381,-0.1338,-0.2883,-0.0594,-40.725,3.8438,14.8313,,0.008639000000000507,1.2905545358488342,1.3150604521985112,non_fall
7.048327,1.0188,0.5814,0.5381,-0.1338,-0.2883,-0.0594,-41.2313,3.8813,16.3125,,0.006513999999999243,1.2905545358488342,1.3309873331621758,non_fall
7.051067,0.6414,0.7936,0.4553,-0.1338,-0.2883,-0.0594,-41.2313,3.8813,16.3125,,0.0027400000000001867,1.1173598390849744,1.3400615692819289,non_fall
7.057292,0.6414,0.7936,0.4553,-0.234,-0.1907,-0.0154,-41.2313,3.8813,16.3125,,0.006225000000000591,1.1173598390849744,1.3419408507480088,non_fall
7.071299,0.5668,0.7242,0.4388,-0.234,-0.1907,-0.0154,-41.2313,3.8813,16.3125,,0.014006999999999437,1.0189569765205986,1.3362613376456902,non_fall
7.090751,0.8683,0.7657,0.6605,-0.234,-0.1907,-0.0154,-41.2313,3.8813,16.3125,,0.019452000000000247,1.3328546920050963,1.3226841378523446,non_fall
7.105653,0.8683,0.7657,0.6605,-0.234,-0.1907,-0.0154,-41.2313,3.8813,16.3125,,0.014902000000000193,1.3328546920050963,1.301006562826041,non_fall
7.108443,0.8683,0.7657,0.6605,-0.234,-0.1907,-0.0154,-41.1375,3.9563,16.5188,,0.00279000000000007,1.3328546920050963,1.2713212947573016,non_fall
7.111055,1.1495,0.7289,0.2031,-0.234,-0.1907,-0.0154,-41.1375,3.9563,16.5188,,0.0026120000000000587,1.3761886026268346,1.234192450355292,non_fall
7.118823,1.1495,0.7289,0.2031,-0.4418,0.2124,0.0236,-41.1375,3.9563,16.5188,,0.007767999999999553,1.3761886026268346,1.1908101996710885,non_fall
7.127375,1.3383,0.5392,0.9031,-0.4418,0.2124,0.0236,-41.1375,3.9563,16.5188,,0.008551999999999893,1.7021671892032229,1.1430860878786513,non_fall
7.14702,0.8605,0.1058,0.8012,-0.4418,0.2124,0.0236,-41.1375,3.9563,16.5188,,0.01964500000000058,1.1804979161353908,1.093658885957546,non_fall
7.166455,0.8605,0.1058,0.8012,-0.4418,0.2124,0.0236,-41.1375,3.9563,16.5188,,0.019434999999999647,1.1804979161353908,1.0457955317299703,non_fall
7.169857,0.3796,0.4665,-0.2519,-0.4418,0.2124,0.0236,-41.1375,3.9563,16.5188,,0.003402000000000349,0.652052160490248,1.0031923934384734,non_fall
7.172355,0.3796,0.4665,-0.2519,-0.4418,0.2124,0.0236,-41.2125,3.6188,15.675,,0.002497999999999223,0.652052160490248,0.9697035304167455,non_fall
7.1825,0.3796,0.4665,-0.2519,-0.2475,0.4227,-0.151,-41.2125,3.6188,15.675,,0.010145000000000515,0.652052160490248,0.9490365476315777,non_fall
7.185589,-0.4303,0.3506,-1.0133,-0.2475,0.4227,-0.151,-41.2125,3.6188,15.675,,0.0030890000000001194,1.1553593986288424,0.944456946483656,non_fall
7.205164,-0.4123,0.254,-1.0743,-0.2475,0.4227,-0.151,-41.2125,3.6188,15.675,,0.019574999999999676,1.1784005176509387,0.9585295747290885,non_fall
7.224303,-0.6043,0.7105,0.2137,-0.2475,0.4227,-0.151,-41.2125,3.6188,15.675,,0.019139000000000017,0.9568993834254467,0.992909252334276,non_fall
7.227622,-0.6043,0.7105,0.2137,-0.2475,0.4227,-0.151,-42.3563,3.2813,15.0938,,0.003319000000000294,0.9568993834254467,1.0481819667488823,non_fall
7.230267,-0.6043,0.7105,0.2137,-0.2475,0.4227,-0.151,-42.3563,3.2813,15.0938,,0.0026450000000002305,0.9568993834254467,1.12375693987287,non_fall
7.242639,-0.6043,0.7105,0.2137,0.0971,0.6718,-0.0509,-42.3563,3.2813,15.0938,,0.012371999999999161,0.9568993834254467,1.2178134083403191,non_fall
7.244331,-0.6629,0.6325,2.0144,0.0971,0.6718,-0.0509,-42.3563,3.2813,15.0938,,0.0016920000000002489,2.2129844147666295,1.3273066858062033,non_fall
7.262456,-0.497,0.3304,1.5579,0.0971,0.6718,-0.0509,-42.3563,3.2813,15.0938,,0.01812500000000039,1.6683002038002634,1.4480344003055339,non_fall
7.28189,-0.0315,0.295,1.0224,0.0971,0.6718,-0.0509,-42.3563,3.2813,15.0938,,0.019433999999999507,1.064574567609052,1.5747622181710454,non_fall
7.287491,-0.0315,0.295,1.0224,0.0971,0.6718,-0.0509,-42.75,3.5813,13.5375,,0.005601000000000411,1.064574567609052,1.7014158640743071,non_fall
7.291218,-0.0315,0.295,1.0224,0.0971,0.6718,-0.0509,-42.75,3.5813,13.5375,,0.0037269999999995918,1.064574567609052,1.8213585470655624,non_fall
7.300807,0.0274,0.7328,1.9905,0.0971,0.6718,-0.0509,-42.75,3.5813,13.5375,,0.00958900000000007,2.121281888387302,1.9277743513146424,non_fall
7.304538,0.0274,0.7328,1.9905,-0.1167,0.8856,-0.0472,-42.75,3.5813,13.5375,,0.003731000000000151,2.121281888387302,2.0141579663140146,non_fall
7.319284,-0.5931,0.5944,2.1035,-0.1167,0.8856,-0.0472,-42.75,3.5813,13.5375,,0.014745999999999704,2.2649042408013633,2.0748765236260858,non_fall
7.3381,-1.4119,-0.2109,1.9017,-0.1167,0.8856,-0.0472,-42.75,3.5813,13.5375,,0.018816000000000166,2.377898927624974,2.1057388151437997,non_fall
7.348528,-1.4119,-0.2109,1.9017,-0.1167,0.8856,-0.0472,-43.2,3.4125,11.5875,,0.010428000000000104,2.377898927624974,2.1044939270899237,non_fall
7.352556,-1.4119,-0.2109,1.9017,-0.1167,0.8856,-0.0472,-43.2,3.4125,11.5875,,0.0040279999999999205,2.377898927624974,2.071185753397366,non_fall
7.35805,-1.4308,-1.3496,1.5306,-0.1167,0.8856,-0.0472,-43.2,3.4125,11.5875,,0.005494000000000554,2.4922570413181706,2.0083056523256806,non_fall
7.36593,-1.4308,-1.3496,1.5306,-0.5358,0.8429,0.0346,-43.2,3.4125,11.5875,,0.007879999999999221,2.4922570413181706,1.9207077812568423,non_fall
7.376528,-0.5388,-1.8973,0.3072,-0.5358,0.8429,0.0346,-43.2,3.4125,11.5875,,0.010598000000000773,1.9961023445705381,1.8152791047824228,non_fall
7.396021,-0.292,-1.1834,0.005,-0.5358,0.8429,0.0346,-43.2,3.4125,11.5875,,0.01949299999999976,1.218903015009808,1.7003885269070456,non_fall
7.406633,-0.292,-1.1834,0.005,-0.5358,0.8429,0.0346,-43.575,3.5813,8.8875,,0.010612000000000066,1.218903015009808,1.585173433085076,non_fall
7.415771,-0.292,-1.1834,0.005,-0.5358,0.8429,0.0346,-43.575,3.5813,8.8875,,0.00913800000000009,1.218903015009808,1.4787477241677178,non_fall
7.417226,-1.2241,0.2923,0.3571,-0.5358,0.8429,0.0346,-43.575,3.5813,8.8875,,0.001454999999999984,1.3081974277608102,1.3894231920323459,non_fall
7.428412,-1.2241,0.2923,0.3571,-0.5664,0.6047,0.2399,-43.575,3.5813,8.8875,,0.011185999999999474,1.3081974277608102,1.3240246139677898,non_fall
7.433652,-1.0747,0.764,0.5858,-0.5664,0.6047,0.2399,-43.575,3.5813,8.8875,,0.0052400000000005775,1.4428574877651639,1.287357588883148,non_fall
7.453695,0.2414,-0.3379,0.0839,-0.5664,0.6047,0.2399,-43.575,3.5813,8.8875,,0.020042999999999367,0.4236621059287696,1.2818684089205155,non_fall
7.46849,0.2414,-0.3379,0.0839,-0.5664,0.6047,0.2399,-43.6688,4.05,7.7625,,0.014795000000000336,0.4236621059287696,1.3075214109552515,non_fall
7.472823,1.5099,-0.6528,0.4417,-0.5664,0.6047,0.2399,-43.6688,4.05,7.7625,,0.00433299999999992,1.7032453551969546,1.3619054215302038,non_fall
7.476841,1.5099,-0.6528,0.4417,-0.5664,0.6047,0.2399,-43.6688,4.05,7.7625,,0.004018000000000299,1.7032453551969546,1.440557661624776,non_fall
7.491605,1.5099,-0.6528,0.4417,-0.5151,0.7793,0.2069,-43.6688,4.05,7.7625,,0.014763999999999555,1.7032453551969546,1.5374609166214446,non_fall
7.495062,1.4297,0.0298,1.6652,-0.5151,0.7793,0.2069,-43.6688,4.05,7.7625,,0.0034570000000000434,2.1949535689850026,1.645641881767367,non_fall
7.51111,-0.8887,0.7203,1.6585,-0.5151,0.7793,0.2069,-43.6688,4.05,7.7625,,0.016048000000000506,2.014756072084162,1.7577898039152848,non_fall
7.526648,-0.8887,0.7203,1.6585,-0.5151,0.7793,0.2069,-43.9875,4.8188,6.6375,,0.015537999999999386,2.014756072084162,1.8668263965478822,non_fall
7.529444,-1.2794,-0.144,1.165,-0.5151,0.7793,0.2069,-43.9875,4.8188,6.6375,,0.0027960000000000207,1.7363252460296719,1.9663820875505307,non_fall
7.539258,-1.2794,-0.144,1.165,-0.5151,0.7793,0.2069,-43.9875,4.8188,6.6375,,0.009814000000000433,1.7363252460296719,2.0511600690659213,non_fall
7.548387,-0.3224,-1.6886,1.3026,-0.5151,0.7793,0.2069,-43.9875,4.8188,6.6375,,0.00912899999999972,2.1568677474523095,2.1171895022931646,non_fall
7.552428,-0.3224,-1.6886,1.3026,-0.7545,0.5448,0.444,-43.9875,4.8188,6.6375,,0.004040999999999961,2.1568677474523095,2.1619765529984005,non_fall
7.569531,0.5229,-2.2826,1.1426,-0.7545,0.5448,0.444,-43.9875,4.8188,6.6375,,0.017102999999999646,2.6056135419513002,2.184557537248829,non_fall
7.587661,0.3999,-2.0737,0.9956,-0.7545,0.5448,0.444,-43.9875,4.8188,6.6375,,0.0181300000000002,2.3348171363085375,2.18545032377155,non_fall
7.591247,0.3999,-2.0737,0.9956,-0.7545,0.5448,0.444,-43.1438,5.6625,6.825,,0.003586000000000311,2.3348171363085375,2.1664976221757226,non_fall
7.601193,0.3999,-2.0737,0.9956,-0.7545,0.5448,0.444,-43.1438,5.6625,6.825,,0.009946000000000232,2.3348171363085375,2.1306032316594923,non_fall
7.606046,-0.0871,-1.7617,0.6003,-0.7545,0.5448,0.444,-43.1438,5.6625,6.825,,0.004852999999999774,1.863205139001071,2.0813774698455547,non_fall
7.615384,-0.0871,-1.7617,0.6003,-0.2439,-0.05,0.3161,-43.1438,5.6625,6.825,,0.009337999999999624,1.863205139001071,2.0227249800456484,non_fall
7.627598,0.1819,-1.6623,-0.8632,-0.2439,-0.05,0.3161,-43.1438,5.6625,6.825,,0.01221400000000017,1.8818722432726405,1.9584210508734723,non_fall
7.644575,0.7497,-1.1354,-0.8236,-0.2439,-0.05,0.3161,-43.1438,5.6625,6.825,,0.016976999999999798,1.590440256658514,1.8917275059082825,non_fall
7.646406,0.7497,-1.1354,-0.8236,-0.2439,-0.05,0.3161,-44.0625,6.6188,6.3375,,0.001831000000000138,1.590440256658514,1.8250951762852559,non_fall
7.663331,0.7497,-1.1354,-0.8236,-0.2439,-0.05,0.3161,-44.0625,6.6188,6.3375,,0.016925000000000523,1.590440256658514,1.7599888238065586,non_fall
7.664886,1.3284,-0.6476,-0.2177,-0.2439,-0.05,0.3161,-44.0625,6.6188,6.3375,,0.001554999999999751,1.4937957055769038,1.6968546762425127,non_fall
7.677202,1.3284,-0.6476,-0.2177,-0.1756,0.1088,0.2501,-44.0625,6.6188,6.3375,,0.012316000000000216,1.4937957055769038,1.6352323510943034,non_fall
7.683317,1.4446,-0.5549,0.8048,-0.1756,0.1088,0.2501,-44.0625,6.6188,6.3375,,0.0061149999999994264,1.7442724013180968,1.5739938242957756,non_fall
7.704975,1.1757,-0.1664,1.0324,-0.1756,0.1088,0.2501,-44.0625,6.6188,6.3375,,0.0216580000000004,1.5734704350574877,1.5116747646225357,non_fall
7.708813,1.1757,-0.1664,1.0324,-0.1756,0.1088,0.2501,-43.4062,7.5,6.225,,0.003838000000000008,1.5734704350574877,1.4468508394265003,non_fall
7.721271,1.403,-0.4575,0.4664,-0.1756,0.1088,0.2501,-43.4062,7.5,6.225,,0.012457999999999636,1.5476576527126407,1.3785059238381936,non_fall
7.726386,1.403,-0.4575,0.4664,-0.1756,0.1088,0.2501,-43.4062,7.5,6.225,,0.005114999999999981,1.5476576527126407,1.3063410629866918,non_fall
7.74057,1.403,-0.4575,0.4664,-0.0826,0.1015,0.3637,-43.4062,7.5,6.225,,0.014184000000000196,1.5476576527126407,1.2309810270348711,non_fall
7.743628,1.301,-0.4726,0.0374,-0.0826,0.1015,0.3637,-43.4062,7.5,6.225,,0.003058000000000227,1.384684267260952,1.1540478168939783,non_fall
7.759592,0.8795,-0.3733,0.6059,-0.0826,0.1015,0.3637,-43.4062,7.5,6.225,,0.015963999999999423,1.1313655244879968,1.0780871070315339,non_fall
7.767812,0.8795,-0.3733,0.6059,-0.0826,0.1015,0.3637,-43.3313,8.1188,5.5875,,0.00822000000000056,1.1313655244879968,1.0063535386266138,non_fall
7.778893,0.3298,-0.0624,0.549,-0.0826,0.1015,0.3637,-43.3313,8.1188,5.5875,,0.011080999999999896,0.6434771169202522,0.9424811653440496,non_fall
7.787976,0.3298,-0.0624,0.549,-0.0826,0.1015,0.3637,-43.3313,8.1188,5.5875,,0.009082999999999508,0.6434771169202522,0.8900819101424355,non_fall
7.797743,-0.0017,-0.212,0.8294,-0.0826,0.1015,0.3637,-43.3313,8.1188,5.5875,,0.009767000000000081,0.8560673162783403,0.8523236346573373,non_fall
7.801785,-0.0017,-0.212,0.8294,-0.1034,0.088,0.1891,-43.3313,8.1188,5.5875,,0.004042000000000101,0.8560673162783403,0.8315384761344284,non_fall
7.815902,-0.1668,-0.3629,0.6192,-0.1034,0.088,0.1891,-43.3313,8.1188,5.5875,,0.014117000000000601,0.736835999391995,0.8289035057954451,non_fall
7.827112,-0.1668,-0.3629,0.6192,-0.1034,0.088,0.1891,-43.0875,8.9625,6.3188,,0.011209999999999276,0.736835999391995,0.8442250289231095,non_fall
7.836491,0.0257,-0.1103,0.5431,-0.1034,0.088,0.1891,-43.0875,8.9625,6.3188,,0.009379000000000026,0.554783011636081,0.8758494713344624,non_fall
7.850322,0.0257,-0.1103,0.5431,-0.1034,0.088,0.1891,-43.0875,8.9625,6.3188,,0.013831000000000593,0.554783011636081,0.9207171894917889,non_fall
7.855381,0.5904,0.2721,0.4728,-0.1034,0.088,0.1891,-43.0875,8.9625,6.3188,,0.005059000000000147,0.8038348151206192,0.9745664133794707,non_fall
7.864542,0.5904,0.2721,0.4728,-0.0301,-0.2248,0.1743,-43.0875,8.9625,6.3188,,0.009160999999999753,0.8038348151206192,1.03227939348357,non_fall
7.873818,1.0488,0.8487,0.487,-0.0301,-0.2248,0.1743,-43.0875,8.9625,6.3188,,0.00927599999999984,1.4343786564223548,1.0883420667448984,non_fall
7.88848,1.0488,0.8487,0.487,-0.0301,-0.2248,0.1743,-43.5938,9.6,5.925,,0.014662000000000397,1.4343786564223548,1.1373668685406397,non_fall
7.895003,0.988,1.0106,0.5212,-0.0301,-0.2248,0.1743,-43.5938,9.6,5.925,,0.0065229999999996124,1.506355137409502,1.1746129070632474,non_fall
7.911703,0.988,1.0106,0.5212,-0.0301,-0.2248,0.1743,-43.5938,9.6,5.925,,0.01670000000000016,1.506355137409502,1.1964349009637274,non_fall
7.913439,0.6181,1.0728,0.6039,-0.0301,-0.2248,0.1743,-43.5938,9.6,5.925,,0.0017360000000001818,1.3775495127217752,1.2006038005750361,non_fall
7.92575,0.6181,1.0728,0.6039,-0.2194,-0.132,0.1915,-43.5938,9.6,5.925,,0.012310999999999517,1.3775495127217752,1.1864639517409818,non_fall
7.931053,0.6855,0.5497,0.6203,-0.2194,-0.132,0.1915,-43.5938,9.6,5.925,,0.005303000000000502,1.075570746162241,1.1549173470863046,non_fall
7.946421,0.6855,0.5497,0.6203,-0.2194,-0.132,0.1915,-42.9375,9.8063,6.9375,,0.015367999999999604,1.075570746162241,1.1082491836413424,non_fall
7.950653,0.666,0.4886,0.4623,-0.2194,-0.132,0.1915,-42.9375,9.8063,6.9375,,0.0042320000000000135,0.9465765948934085,1.0498269091460077,non_fall
7.969104,0.8463,0.1119,0.2779,-0.2194,-0.132,0.1915,-42.9375,9.8063,6.9375,,0.018450999999999773,0.8977603856263653,0.9837152574208049,non_fall
7.973855,0.8463,0.1119,0.2779,-0.2194,-0.132,0.1915,-42.9375,9.8063,6.9375,,0.004751000000000616,0.8977603856263653,0.9142524701980751,non_fall
7.987052,0.8463,0.1119,0.2779,-0.3355,-0.0562,0.1561,-42.9375,9.8063,6.9375,,0.013196999999999903,0.8977603856263653,0.845630048527257,non_fall
7.988321,0.5153,0.1091,0.2244,-0.3355,-0.0562,0.1561,-42.9375,9.8063,6.9375,,0.0012689999999997426,0.5725314489178739,0.7815131028781642,non_fall
8.006853,-0.0376,0.0058,0.5549,-0.3355,-0.0562,0.1561,-42.9375,9.8063,6.9375,,0.01853199999999955,0.5562026698965045,0.7247331615375459,non_fall
8.007978,-0.0376,0.0058,0.5549,-0.3355,-0.0562,0.1561,-42.9563,10.3875,7.2563,,0.0011250000000000426,0.5562026698965045,0.6770803974560916,non_fall
8.025324,-0.0894,-0.0292,0.4788,-0.3355,-0.0562,0.1561,-42.9563,10.3875,7.2563,,0.01734599999999986,0.4879492186693201,0.6392157208289612,non_fall
8.034491,-0.0894,-0.0292,0.4788,-0.3355,-0.0562,0.1561,-42.9563,10.3875,7.2563,,0.009166999999999703,0.4879492186693201,0.6107134163483188,non_fall
8.045312,0.1649,0.3085,0.0088,-0.3355,-0.0562,0.1561,-42.9563,10.3875,7.2563,,0.01082099999999997,0.3499167043740553,0.5902325815300028,non_fall
8.049813,0.1649,0.3085,0.0088,-0.0448,-0.474,0.0974,-42.9563,10.3875,7.2563,,0.0045010000000011985,0.3499167043740553,0.5758021476068222,non_fall
8.06411,0.265,0.3529,0.5563,-0.0448,-0.474,0.0974,-42.9563,10.3875,7.2563,,0.014296999999999116,0.7100937262080267,0.5651902292808246,non_fall
8.066155,0.265,0.3529,0.5563,-0.0448,-0.474,0.0974,-42.6,10.8,8.6063,,0.0020450000000007407,0.7100937262080267,0.5563139692284298,non_fall
8.084624,0.4302,0.5615,0.7871,-0.0448,-0.474,0.0974,-42.6,10.8,8.6063,,0.018468999999999625,1.058244158972777,0.5476331041643657,non_fall
8.097246,0.4302,0.5615,0.7871,-0.0448,-0.474,0.0974,-42.6,10.8,8.6063,,0.012622000000000355,1.058244158972777,0.5384643507520442,non_fall
8.104658,-0.1934,0.7953,0.0088,-0.0448,-0.474,0.0974,-42.6,10.8,8.6063,,0.007412000000000418,0.8185249476955483,0.5291598291011076,non_fall
8.111545,-0.1934,0.7953,0.0088,-0.1547,-0.4606,0.0546,-42.6,10.8,8.6063,,0.006886999999998977,0.8185249476955483,0.5211130113248982,non_fall
