time,ax,ay,az,wx,wy,wz,Bx,By,Bz,Unnamed: 10,time_diff,acc_mag,acc_mag_filtered,label
0.011066,0.0,0.0,0.0,0.0,0.0,0.0,0.0,0.0,0.0,,0.0,0.0,0.0006049399517848794,non_fall
0.022583,0.0326,-0.2383,-0.4138,0.0,0.0,0.0,0.0,0.0,0.0,,0.011517,0.47862311895686777,0.07312653839238835,non_fall
0.04138,0.0025,-0.2044,-0.2745,0.0,0.0,0.0,0.0,0.0,0.0,,0.018797,0.34225116508201986,0.1431607994455154,non_fall
0.056518,0.0025,-0.2044,-0.2745,0.0,0.0,0.0,0.0,0.0,0.0,,0.015137999999999999,0.34225116508201986,0.20850654869795746,non_fall
0.060701,-0.0583,-0.1123,-0.3271,0.0,0.0,0.0,0.0,0.0,0.0,,0.004182999999999999,0.3507201020757151,0.26732572666472887,non_fall
0.065595,-0.0583,-0.1123,-0.3271,0.0043,-0.0296,0.0005,0.0,0.0,0.0,,0.0048940000000000025,0.3507201020757151,0.31826197624967223,non_fall
0.068092,-0.0583,-0.1123,-0.3271,0.0043,-0.0296,0.0005,-43.425,13.05,-6.1875,,0.0024969999999999992,0.3507201020757151,0.3605045901625316,non_fall
0.080021,-0.0446,-0.0732,-0.4362,0.0043,-0.0296,0.0005,-43.425,13.05,-6.1875,,0.011928999999999995,0.4445422814536318,0.3937984328597874,non_fall
0.099466,-0.0414,-0.0541,-0.3936,0.0043,-0.0296,0.0005,-43.425,13.05,-6.1875,,0.019445000000000004,0.3994517868278974,0.41840639838183297,non_fall
0.103591,-0.0414,-0.0541,-0.3936,0.0043,-0.0296,0.0005,-43.425,13.05,-6.1875,,0.004125000000000004,0.3994517868278974,0.4350342681050966,non_fall
0.118903,-0.0185,-0.0931,-0.3919,0.0043,-0.0296,0.0005,-43.425,13.05,-6.1875,,0.015311999999999992,0.40323128598857505,0.4447294926796676,non_fall
0.126596,-0.0185,-0.0931,-0.3919,0.0043,-0.0296,0.0005,-44.4,12.8438,-5.6438,,0.0076929999999999915,0.40323128598857505,0.4487659852373001,non_fall
0.127728,-0.0185,-0.0931,-0.3919,-0.0373,-0.043,-0.0018,-44.4,12.8438,-5.6438,,0.0011320000000000219,0.40323128598857505,0.4485265238365202,non_fall
0.137364,0.0253,-0.1157,-0.3892,-0.0373,-0.043,-0.0018,-44.4,12.8438,-5.6438,,0.009636000000000006,0.4068208696711613,0.44539283537028135,non_fall
0.151296,0.0253,-0.1157,-0.3892,-0.0373,-0.043,-0.0018,-44.4,12.8438,-5.6438,,0.013932,0.4068208696711613,0.4406511625483624,non_fall
0.159998,0.0208,-0.1694,-0.3768,-0.0373,-0.043,-0.0018,-44.4,12.8438,-5.6438,,0.008701999999999988,0.41365110902788593,0.4354185177202904,non_fall
0.175745,0.0618,-0.1992,-0.3575,-0.0373,-0.043,-0.0018,-44.4,12.8438,-5.6438,,0.01574700000000001,0.413891447121102,0.43059223765783655,non_fall
0.187308,0.0618,-0.1992,-0.3575,-0.0373,-0.043,-0.0018,-44.1938,12.75,-5.6438,,0.01156299999999999,0.413891447121102,0.42682309957282155,non_fall
0.190349,0.0618,-0.1992,-0.3575,-0.0336,-0.0443,-0.0018,-44.1938,12.75,-5.6438,,0.003040999999999988,0.413891447121102,0.42451028191878776,non_fall
0.195338,0.1373,-0.207,-0.3757,-0.0336,-0.0443,-0.0018,-44.1938,12.75,-5.6438,,0.004989000000000021,0.4503895869133744,0.4238149068364658,non_fall
0.198357,0.1373,-0.207,-0.3757,-0.0336,-0.0443,-0.0018,-44.1938,12.75,-5.6438,,0.003018999999999994,0.4503895869133744,0.42468779642118515,non_fall
0.214034,0.1806,-0.1617,-0.3979,-0.0336,-0.0443,-0.0018,-44.1938,12.75,-5.6438,,0.015676999999999996,0.46592666804981225,0.4269064908069489,non_fall
0.233263,0.1139,-0.1066,-0.4113,-0.0336,-0.0443,-0.0018,-44.1938,12.75,-5.6438,,0.019228999999999996,0.43989141842050067,0.43011667157423816,non_fall
0.247125,0.1139,-0.1066,-0.4113,-0.0336,-0.0443,-0.0018,-44.1938,12.75,-5.6438,,0.013862000000000013,0.43989141842050067,0.4338739649529191,non_fall
0.249855,0.1139,-0.1066,-0.4113,-0.0336,-0.0443,-0.0018,-44.4938,12.825,-5.0063,,0.0027299999999999824,0.43989141842050067,0.43768342791735837,non_fall
0.252725,0.1139,-0.1066,-0.4113,-0.014,-0.0223,-0.0055,-44.4938,12.825,-5.0063,,0.0028699999999999837,0.43989141842050067,0.4410353909659014,non_fall
0.254886,0.0856,-0.1305,-0.413,-0.014,-0.0223,-0.0055,-44.4938,12.825,-5.0063,,0.002161000000000024,0.441504937684733,0.44343736352827695,non_fall
0.271156,0.0354,-0.1812,-0.3869,-0.014,-0.0223,-0.0055,-44.4938,12.825,-5.0063,,0.016270000000000007,0.4286936085364465,0.4444422893315557,non_fall
0.290339,0.0159,-0.163,-0.3948,-0.014,-0.0223,-0.0055,-44.4938,12.825,-5.0063,,0.019183000000000006,0.4274211623211934,0.44367364719951147,non_fall
0.295533,0.0159,-0.163,-0.3948,-0.014,-0.0223,-0.0055,-44.4938,12.825,-5.0063,,0.005193999999999976,0.4274211623211934,0.44084780301206583,non_fall
0.306113,0.0159,-0.163,-0.3948,-0.014,-0.0223,-0.0055,-43.9125,12.8438,-5.85,,0.010580000000000034,0.4274211623211934,0.4357936400508827,non_fall
0.309189,-0.0108,-0.1808,-0.4021,-0.014,-0.0223,-0.0055,-43.9125,12.8438,-5.85,,0.0030759999999999676,0.4410098524976511,0.428468862754876,non_fall
0.313064,-0.0108,-0.1808,-0.4021,-0.036,-0.0137,-0.014,-43.9125,12.8438,-5.85,,0.0038750000000000173,0.4410098524976511,0.41897164158404515,non_fall
0.32969,0.011,-0.1484,-0.3881,-0.036,-0.0137,-0.014,-43.9125,12.8438,-5.85,,0.016625999999999974,0.41565029772634593,0.4075457131891965,non_fall
0.343183,0.011,-0.1484,-0.3881,-0.036,-0.0137,-0.014,-43.9125,12.8438,-5.85,,0.013493000000000033,0.41565029772634593,0.394576922710503,non_fall
0.347881,0.0054,-0.1231,-0.3979,-0.036,-0.0137,-0.014,-43.9125,12.8438,-5.85,,0.00469799999999998,0.41654193066244843,0.38057957860142916,non_fall
0.368693,-0.0208,-0.1646,-0.3368,-0.036,-0.0137,-0.014,-43.9125,12.8438,-5.85,,0.020811999999999997,0.375446454238151,0.3661717876394124,non_fall
0.371856,-0.0208,-0.1646,-0.3368,-0.036,-0.0137,-0.014,-44.2125,12.825,-5.325,,0.003163000000000027,0.375446454238151,0.352040013940277,non_fall
0.375975,-0.0208,-0.1646,-0.3368,-0.03,-0.026,-0.0055,-44.2125,12.825,-5.325,,0.004118999999999984,0.375446454238151,0.33889437425121,non_fall
0.387071,-0.0041,-0.1479,-0.2518,-0.03,-0.026,-0.0055,-44.2125,12.825,-5.325,,0.011095999999999995,0.29205215287684494,0.3274175514413598,non_fall
0.390291,-0.0041,-0.1479,-0.2518,-0.03,-0.026,-0.0055,-44.2125,12.825,-5.325,,0.0032200000000000006,0.29205215287684494,0.31821153332315677,non_fall
0.405716,0.0377,-0.0998,-0.2734,-0.03,-0.026,-0.0055,-44.2125,12.825,-5.325,,0.015425000000000022,0.29347723932189357,0.31174741408859435,non_fall
0.424096,0.0314,-0.1235,-0.228,-0.03,-0.026,-0.0055,-44.2125,12.825,-5.325,,0.018379999999999952,0.26119381692528637,0.3083238739667954,non_fall
0.426587,0.0314,-0.1235,-0.228,-0.03,-0.026,-0.0055,-44.1938,12.6375,-5.4375,,0.002491000000000021,0.26119381692528637,0.3080394430200415,non_fall
0.438606,0.0314,-0.1235,-0.228,-0.03,-0.026,-0.0055,-44.1938,12.6375,-5.4375,,0.012019000000000002,0.26119381692528637,0.3107823313683149,non_fall
0.441443,0.0314,-0.1235,-0.228,-0.0225,-0.0308,-0.0018,-44.1938,12.6375,-5.4375,,0.0028369999999999784,0.26119381692528637,0.3162396763354275,non_fall
0.443883,0.0242,-0.1282,-0.3161,-0.0225,-0.0308,-0.0018,-44.1938,12.6375,-5.4375,,0.0024400000000000532,0.3419650420730166,0.323925652383757,non_fall
0.462468,0.0035,-0.0952,-0.3779,-0.0225,-0.0308,-0.0018,-44.1938,12.6375,-5.4375,,0.018584999999999963,0.38972259364835393,0.33322522402597027,non_fall
0.482067,-0.0029,-0.13,-0.3658,-0.0225,-0.0308,-0.0018,-44.1938,12.6375,-5.4375,,0.019599000000000033,0.38822422644652155,0.34344793407348406,non_fall
0.486688,-0.0029,-0.13,-0.3658,-0.0225,-0.0308,-0.0018,-44.1938,12.6375,-5.4375,,0.004620999999999986,0.38822422644652155,0.35388479750700275,non_fall
0.489828,-0.0029,-0.13,-0.3658,-0.0225,-0.0308,-0.0018,-43.8188,12.6938,-4.9313,,0.003139999999999976,0.38822422644652155,0.36386163961841816,non_fall
0.50121,-0.0029,-0.13,-0.3658,-0.047,-0.0076,-0.0067,-43.8188,12.6938,-4.9313,,0.011382000000000059,0.38822422644652155,0.3727838619870247,non_fall
0.502236,-0.0109,-0.2366,-0.2866,-0.047,-0.0076,-0.0067,-43.8188,12.6938,-4.9313,,0.0010259999999999714,0.3718036175187111,0.3801698511893278,non_fall
0.519994,0.018,-0.2565,-0.279,-0.047,-0.0076,-0.0067,-43.8188,12.6938,-4.9313,,0.01775799999999994,0.3794169869681641,0.38567229671456377,non_fall
0.535402,0.018,-0.2565,-0.279,-0.047,-0.0076,-0.0067,-43.8188,12.6938,-4.9313,,0.015408000000000088,0.3794169869681641,0.3890881475134841,non_fall
0.539563,0.0513,-0.2279,-0.3116,-0.047,-0.0076,-0.0067,-43.8188,12.6938,-4.9313,,0.00416099999999997,0.3894414718542441,0.3903587021670566,non_fall
0.547692,0.0513,-0.2279,-0.3116,-0.047,-0.0076,-0.0067,-44.4188,12.9,-4.7063,,0.008128999999999942,0.3894414718542441,0.3895614887371491,non_fall
0.559506,0.0885,-0.2258,-0.3181,-0.047,-0.0076,-0.0067,-44.4188,12.9,-4.7063,,0.011813999999999991,0.40000687494091897,0.3868953927773856,non_fall
0.562616,0.0885,-0.2258,-0.3181,0.0007,0.001,-0.0043,-44.4188,12.9,-4.7063,,0.003110000000000057,0.40000687494091897,0.38266023358449897,non_fall
0.577507,0.0049,-0.2299,-0.2873,0.0007,0.001,-0.0043,-44.4188,12.9,-4.7063,,0.014890999999999988,0.3679936276622192,0.3772319041736493,non_fall
0.581727,0.0049,-0.2299,-0.2873,0.0007,0.001,-0.0043,-44.4188,12.9,-4.7063,,0.0042200000000000015,0.3679936276622192,0.3710343767096595,non_fall
0.597463,0.0116,-0.1573,-0.3091,0.0007,0.001,-0.0043,-44.4188,12.9,-4.7063,,0.015735999999999972,0.3470168007460157,0.36451023888587747,non_fall
0.60811,0.0116,-0.1573,-0.3091,0.0007,0.001,-0.0043,-44.025,12.9188,-5.4375,,0.010647000000000073,0.3470168007460157,0.358091716879338,non_fall
0.615315,0.0255,-0.0806,-0.341,0.0007,0.001,-0.0043,-44.025,12.9188,-5.4375,,0.007204999999999906,0.35132265796558015,0.3521741257963823,non_fall
0.62564,0.0255,-0.0806,-0.341,-0.0055,0.0082,0.0005,-44.025,12.9188,-5.4375,,0.010325000000000029,0.35132265796558015,0.3470933348076843,non_fall
0.629384,0.0255,-0.0806,-0.341,-0.0055,0.0082,0.0005,-44.025,12.9188,-5.4375,,0.0037440000000000806,0.35132265796558015,0.3431083145777998,non_fall
0.636001,-0.0381,-0.1143,-0.312,-0.0055,0.0082,0.0005,-44.025,12.9188,-5.4375,,0.006616999999999984,0.33445492969905527,0.34038939837354343,non_fall
0.654002,-0.0875,-0.1148,-0.2696,-0.0055,0.0082,0.0005,-44.025,12.9188,-5.4375,,0.018000999999999934,0.30580949952543984,0.3390126864310201,non_fall
0.668025,-0.0875,-0.1148,-0.2696,-0.0055,0.0082,0.0005,-44.6813,12.6188,-4.8938,,0.014023000000000008,0.30580949952543984,0.33896097137598424,non_fall
0.672844,-0.0478,-0.1657,-0.3108,-0.0055,0.0082,0.0005,-44.6813,12.6188,-4.8938,,0.004819000000000018,0.35544052948418814,0.3401313574776779,non_fall
0.677417,-0.0478,-0.1657,-0.3108,-0.0055,0.0082,0.0005,-44.6813,12.6188,-4.8938,,0.004573000000000049,0.35544052948418814,0.3423491272982291,non_fall
0.686912,-0.0478,-0.1657,-0.3108,-0.0165,0.0095,-0.0007,-44.6813,12.6188,-4.8938,,0.00949499999999992,0.35544052948418814,0.345386493757906,non_fall
0.692164,-0.0021,-0.1928,-0.3302,-0.0165,0.0095,-0.0007,-44.6813,12.6188,-4.8938,,0.005252000000000034,0.3823719262707449,0.34898414981722514,non_fall
0.711502,-0.0115,-0.1861,-0.2881,-0.0165,0.0095,-0.0007,-44.6813,12.6188,-4.8938,,0.019337999999999966,0.3431720705418785,0.3528734089813109,non_fall
0.727001,-0.0115,-0.1861,-0.2881,-0.0165,0.0095,-0.0007,-44.6813,12.6188,-4.8938,,0.01549900000000004,0.3431720705418785,0.356797219034861,non_fall
0.729652,-0.0115,-0.1861,-0.2881,-0.0165,0.0095,-0.0007,-44.4188,12.9,-4.9125,,0.002650999999999959,0.3431720705418785,0.3605290820228395,non_fall
0.731744,-0.0414,-0.224,-0.2585,-0.0165,0.0095,-0.0007,-44.4188,12.9,-4.9125,,0.0020919999999999828,0.3445463829442997,0.3638894749468526,non_fall
0.748392,-0.0414,-0.224,-0.2585,0.0019,-0.0076,-0.003,-44.4188,12.9,-4.9125,,0.016647999999999996,0.3445463829442997,0.3667594067021396,non_fall
0.749518,-0.0326,-0.1781,-0.3605,0.0019,-0.0076,-0.003,-44.4188,12.9,-4.9125,,0.0011260000000000714,0.4034137082450223,0.36909022174317874,non_fall
0.769565,-0.0009,-0.0971,-0.4239,0.0019,-0.0076,-0.003,-44.4188,12.9,-4.9125,,0.020047000000000037,0.43487978798743915,0.37090793620015455,non_fall
0.773229,-0.0009,-0.0971,-0.4239,0.0019,-0.0076,-0.003,-44.4188,12.9,-4.9125,,0.0036640000000000006,0.43487978798743915,0.37230978447733437,non_fall
0.787135,-0.0009,-0.0971,-0.4239,0.0019,-0.0076,-0.003,-44.4,12.6188,-5.1188,,0.013905999999999974,0.43487978798743915,0.3734509093926207,non_fall
0.788142,0.0388,-0.0667,-0.3382,0.0019,-0.0076,-0.003,-44.4,12.6188,-5.1188,,0.0010069999999999801,0.34689129421188997,0.3745206758480351,non_fall
0.807266,0.024,-0.0675,-0.3264,0.0019,-0.0076,-0.003,-44.4,12.6188,-5.1188,,0.01912400000000003,0.3341694330725059,0.37571069820304764,non_fall
0.81516,0.024,-0.0675,-0.3264,-0.0225,0.034,0.008,-44.4,12.6188,-5.1188,,0.007893999999999957,0.3341694330725059,0.3771793928455407,non_fall
0.820958,0.024,-0.0675,-0.3264,-0.0225,0.034,0.008,-44.4,12.6188,-5.1188,,0.00579799999999997,0.3341694330725059,0.3790195342771258,non_fall
0.826293,-0.0422,-0.1333,-0.2461,-0.0225,0.034,0.008,-44.4,12.6188,-5.1188,,0.00533500000000009,0.28304582667829603,0.38123524768948375,non_fall
0.845098,-0.1206,-0.1994,-0.2772,-0.0225,0.034,0.008,-44.4,12.6188,-5.1188,,0.01880499999999996,0.362138868391671,0.3837332304018546,non_fall
0.846371,-0.1206,-0.1994,-0.2772,-0.0225,0.034,0.008,-44.0063,12.9375,-5.55,,0.0012729999999999686,0.362138868391671,0.38633027392404995,non_fall
0.864426,-0.0848,-0.2774,-0.3396,-0.0225,0.034,0.008,-44.0063,12.9375,-5.55,,0.018055000000000043,0.44662059961448264,0.388775920264821,non_fall
0.872357,-0.0848,-0.2774,-0.3396,-0.0225,0.034,0.008,-44.0063,12.9375,-5.55,,0.007931000000000021,0.44662059961448264,0.39078604373694886,non_fall
0.875064,-0.0848,-0.2774,-0.3396,-0.025,0.0192,0.0128,-44.0063,12.9375,-5.55,,0.002706999999999904,0.44662059961448264,0.39208120177481637,non_fall
0.883206,-0.0697,-0.1611,-0.3312,-0.025,0.0192,0.0128,-44.0063,12.9375,-5.55,,0.008142000000000094,0.3748396190372624,0.39242339267625387,non_fall
0.902355,-0.0487,-0.164,-0.3586,-0.025,0.0192,0.0128,-44.0063,12.9375,-5.55,,0.01914899999999997,0.3973180715749033,0.39164628542061436,non_fall
0.907857,-0.0487,-0.164,-0.3586,-0.025,0.0192,0.0128,-44.4938,12.7313,-5.1188,,0.005502000000000007,0.3973180715749033,0.3896761638679647,non_fall
0.916471,-0.0487,-0.164,-0.3586,-0.025,0.0192,0.0128,-44.4938,12.7313,-5.1188,,0.00861400000000001,0.3973180715749033,0.3865427036402677,non_fall
0.922179,-0.0209,-0.1378,-0.3534,-0.025,0.0192,0.0128,-44.4938,12.7313,-5.1188,,0.005707999999999935,0.3798910501709668,0.38237979682074646,non_fall
0.934778,-0.0209,-0.1378,-0.3534,-0.0055,0.012,0.0043,-44.4938,12.7313,-5.1188,,0.012599000000000027,0.3798910501709668,0.3774171721892928,non_fall
0.939934,-0.0552,-0.1787,-0.348,-0.0055,0.012,0.0043,-44.4938,12.7313,-5.1188,,0.005156000000000049,0.39507560036023487,0.37196391167741655,non_fall
0.960306,-0.077,-0.1667,-0.305,-0.0055,0.012,0.0043,-44.4938,12.7313,-5.1188,,0.020371999999999946,0.3560096768347737,0.36638529948133214,non_fall
0.964032,-0.077,-0.1667,-0.305,-0.0055,0.012,0.0043,-44.4938,12.7313,-5.1188,,0.003726000000000007,0.3560096768347737,0.36107477831119983,non_fall
0.969085,-0.077,-0.1667,-0.305,-0.0055,0.012,0.0043,-44.4,12.8063,-4.9125,,0.005052999999999974,0.3560096768347737,0.35642312444309027,non_fall
0.980322,-0.0584,-0.1855,-0.2846,-0.0055,0.012,0.0043,-44.4,12.8063,-4.9125,,0.011237000000000053,0.34469982593555226,0.3527872116697618,non_fall
0.998041,-0.0584,-0.1855,-0.2846,-0.0018,0.0022,0.0018,-44.4,12.8063,-4.9125,,0.01771899999999993,0.34469982593555226,0.35046079906293426,non_fall
1.00064,-0.0422,-0.1516,-0.298,-0.0018,0.0022,0.0018,-44.4,12.8063,-4.9125,,0.002599000000000018,0.33699762610439854,0.3496496343212687,non_fall
1.011839,-0.0422,-0.1516,-0.298,-0.0018,0.0022,0.0018,-44.4,12.8063,-4.9125,,0.011198999999999959,0.33699762610439854,0.35045288175688594,non_fall
1.017083,-0.0404,-0.1396,-0.31,-0.0018,0.0022,0.0018,-44.4,12.8063,-4.9125,,0.005244000000000026,0.3423745317630971,0.3528524922329454,non_fall
1.027192,-0.0404,-0.1396,-0.31,-0.0018,0.0022,0.0018,-44.1188,12.9188,-5.1188,,0.010109000000000146,0.3423745317630971,0.35671161315188726,non_fall
1.037404,-0.0602,-0.1277,-0.317,-0.0018,0.0022,0.0018,-44.1188,12.9188,-5.1188,,0.010211999999999888,0.3470163252643887,0.36178248959191645,non_fall
1.056026,-0.0438,-0.1469,-0.3362,-0.0018,0.0022,0.0018,-44.1188,12.9188,-5.1188,,0.018621999999999916,0.3694976183955723,0.36772357128598054,non_fall
1.060403,-0.0438,-0.1469,-0.3362,-0.0018,0.0022,0.0018,-44.1188,12.9188,-5.1188,,0.004377000000000075,0.3694976183955723,0.3741247738993682,non_fall
1.061677,-0.0438,-0.1469,-0.3362,-0.003,-0.004,-0.0018,-44.1188,12.9188,-5.1188,,0.0012739999999999974,0.3694976183955723,0.3805391269087723,non_fall
1.074772,-0.0214,-0.171,-0.3432,-0.003,-0.004,-0.0018,-44.1188,12.9188,-5.1188,,0.013095000000000079,0.38403801895124917,0.3865184546904932,non_fall
1.087316,-0.0214,-0.171,-0.3432,-0.003,-0.004,-0.0018,-43.9125,12.5063,-5.025,,0.012543999999999889,0.38403801895124917,0.39165029351799074,non_fall
1.094049,0.0063,-0.2024,-0.3883,-0.003,-0.004,-0.0018,-43.9125,12.5063,-5.025,,0.0067330000000001,0.4379296062154282,0.39559288419393185,non_fall
1.107979,0.0063,-0.2024,-0.3883,-0.003,-0.004,-0.0018,-43.9125,12.5063,-5.025,,0.013929999999999998,0.4379296062154282,0.398104811216951,non_fall
1.114227,-0.0413,-0.1619,-0.3903,-0.003,-0.004,-0.0018,-43.9125,12.5063,-5.025,,0.006248000000000031,0.42456023129822223,0.399065904126469,non_fall
1.121277,-0.0413,-0.1619,-0.3903,0.0018,0.0157,-0.0104,-43.9125,12.5063,-5.025,,0.007050000000000001,0.42456023129822223,0.39848668352876054,non_fall
1.132259,-0.0352,-0.1763,-0.3621,0.0018,0.0157,-0.0104,-43.9125,12.5063,-5.025,,0.010981999999999825,0.4042735954771224,0.39650500153028534,non_fall
1.147345,-0.0352,-0.1763,-0.3621,0.0018,0.0157,-0.0104,-44.1,12.525,-5.1188,,0.015086000000000155,0.4042735954771224,0.3933702912255684,non_fall
1.151109,-0.0919,-0.2212,-0.2659,0.0018,0.0157,-0.0104,-44.1,12.525,-5.1188,,0.0037639999999998786,0.3578796725157773,0.3894175368360052,non_fall
1.155481,-0.0919,-0.2212,-0.2659,0.0018,0.0157,-0.0104,-44.1,12.525,-5.1188,,0.0043720000000000425,0.3578796725157773,0.3850343506000172,non_fall
1.170986,-0.1436,-0.1086,-0.3238,0.0018,0.0157,-0.0104,-44.1,12.525,-5.1188,,0.015505000000000102,0.37048800250480446,0.3806251794966454,non_fall
1.184459,-0.1436,-0.1086,-0.3238,0.0018,0.012,0.003,-44.1,12.525,-5.1188,,0.013472999999999846,0.37048800250480446,0.3765765558266243,non_fall
1.193642,-0.0885,-0.1849,-0.3008,0.0018,0.012,0.003,-44.1,12.525,-5.1188,,0.009183000000000163,0.3640067307070022,0.3732265627177172,non_fall
1.204026,-0.0885,-0.1849,-0.3008,0.0018,0.012,0.003,-44.1,12.525,-5.1188,,0.010383999999999949,0.3640067307070022,0.3708406748405522,non_fall
1.206842,-0.0885,-0.1849,-0.3008,0.0018,0.012,0.003,-44.4938,12.5438,-5.325,,0.0028159999999999297,0.3640067307070022,0.36959522621903756,non_fall
1.209229,-0.0964,-0.1583,-0.2994,0.0018,0.012,0.003,-44.4938,12.5438,-5.325,,0.002387000000000139,0.35212527600273175,0.3695690739527101,non_fall
1.227945,-0.1116,-0.1411,-0.3129,0.0018,0.012,0.003,-44.4938,12.5438,-5.325,,0.018715999999999955,0.3609296053249165,0.3707434814086877,non_fall
1.246723,-0.1116,-0.1411,-0.3129,0.0092,0.0022,-0.0018,-44.4938,12.5438,-5.325,,0.01877799999999996,0.3609296053249165,0.3730097095837275,non_fall
1.249249,-0.081,-0.1382,-0.3483,0.0092,0.0022,-0.0018,-44.4938,12.5438,-5.325,,0.0025260000000000282,0.3833707474495152,0.37618320462897437,non_fall
1.251593,-0.081,-0.1382,-0.3483,0.0092,0.0022,-0.0018,-44.4938,12.5438,-5.325,,0.0023439999999999017,0.3833707474495152,0.3800226193722111,non_fall
1.266152,-0.0395,-0.124,-0.4199,0.0092,0.0022,-0.0018,-44.4938,12.5438,-5.325,,0.014558999999999989,0.43960466330556597,0.3842513441761397,non_fall
1.267404,-0.0395,-0.124,-0.4199,0.0092,0.0022,-0.0018,-44.0063,12.7125,-5.1188,,0.0012520000000000309,0.43960466330556597,0.38857898904138605,non_fall
1.285274,-0.0563,-0.0692,-0.3352,0.0092,0.0022,-0.0018,-44.0063,12.7125,-5.1188,,0.017870000000000053,0.34686794317146113,0.39272063096125276,non_fall
1.298496,-0.0563,-0.0692,-0.3352,0.0092,0.0022,-0.0018,-44.0063,12.7125,-5.1188,,0.013222000000000067,0.34686794317146113,0.3964127063047507,non_fall
1.303388,-0.1071,-0.2078,-0.3164,0.0092,0.0022,-0.0018,-44.0063,12.7125,-5.1188,,0.004891999999999896,0.3933957422240358,0.39942574408291504,non_fall
1.307823,-0.1071,-0.2078,-0.3164,-0.0067,-0.015,0.0067,-44.0063,12.7125,-5.1188,,0.004434999999999967,0.3933957422240358,0.4015748273944838,non_fall
1.324465,-0.1196,-0.2154,-0.3558,-0.0067,-0.015,0.0067,-44.0063,12.7125,-5.1188,,0.016642000000000046,0.4327758773314428,0.4027282388047709,non_fall
1.327159,-0.1196,-0.2154,-0.3558,-0.0067,-0.015,0.0067,-44.3063,12.825,-5.1188,,0.002693999999999974,0.4327758773314428,0.40281364443693946,non_fall
1.343697,-0.0812,-0.1871,-0.3711,-0.0067,-0.015,0.0067,-44.3063,12.825,-5.1188,,0.01653799999999994,0.4234560898133359,0.40182033859203575,non_fall
1.346835,-0.0812,-0.1871,-0.3711,-0.0067,-0.015,0.0067,-44.3063,12.825,-5.1188,,0.003138000000000085,0.4234560898133359,0.3997960966718917,non_fall
1.361331,-0.0446,-0.0943,-0.3765,-0.0067,-0.015,0.0067,-44.3063,12.825,-5.1188,,0.014496000000000064,0.3906838875612865,0.3968380489513914,non_fall
1.369942,-0.0446,-0.0943,-0.3765,-0.0043,-0.015,-0.0043,-44.3063,12.825,-5.1188,,0.008610999999999924,0.3906838875612865,0.39307829085267015,non_fall
1.381288,-0.0099,-0.1089,-0.3471,-0.0043,-0.015,-0.0043,-44.3063,12.825,-5.1188,,0.011346000000000078,0.36391706472766566,0.3886661979230337,non_fall
1.387165,-0.0099,-0.1089,-0.3471,-0.0043,-0.015,-0.0043,-44.3063,12.825,-5.1188,,0.00587699999999991,0.36391706472766566,0.3837502311593161,non_fall
1.394435,-0.0099,-0.1089,-0.3471,-0.0043,-0.015,-0.0043,-44.3063,12.825,-5.1188,,0.00727000000000011,0.36391706472766566,0.37846220837552996,non_fall
1.399931,-0.0108,-0.1425,-0.3184,-0.0043,-0.015,-0.0043,-44.3063,12.825,-5.1188,,0.005495999999999945,0.3490006446985449,0.3729065904259655,non_fall
1.419312,-0.0283,-0.1688,-0.3114,-0.0043,-0.015,-0.0043,-44.3063,12.825,-5.1188,,0.01938099999999987,0.35533686833763817,0.3671564545048625,non_fall
1.433825,-0.0283,-0.1688,-0.3114,-0.0018,-0.0137,-0.0055,-44.3063,12.825,-5.1188,,0.014512999999999998,0.35533686833763817,0.361256727271111,non_fall
1.440717,-0.0341,-0.1783,-0.3047,-0.0018,-0.0137,-0.0055,-44.3063,12.825,-5.1188,,0.00689200000000012,0.35467702209193086,0.3552341230540367,non_fall
1.444093,-0.0341,-0.1783,-0.3047,-0.0018,-0.0137,-0.0055,-44.3063,12.825,-5.1188,,0.0033760000000000456,0.35467702209193086,0.34911222704533257,non_fall
1.450109,-0.0341,-0.1783,-0.3047,-0.0018,-0.0137,-0.0055,-44.1188,12.8063,-5.025,,0.006016000000000021,0.35467702209193086,0.3429294106105177,non_fall
1.457507,-0.0093,-0.1034,-0.3253,-0.0018,-0.0137,-0.0055,-44.1188,12.8063,-5.025,,0.007398000000000016,0.341464698028947,0.3367568561891359,non_fall
1.476535,-0.0038,-0.1172,-0.3118,-0.0018,-0.0137,-0.0055,-44.1188,12.8063,-5.025,,0.019027999999999823,0.33312087896137643,0.3307139132774548,non_fall
1.491309,-0.0038,-0.1172,-0.3118,-0.0018,-0.0137,-0.0055,-44.1188,12.8063,-5.025,,0.014774000000000065,0.33312087896137643,0.32497822711694346,non_fall
1.494895,-0.0038,-0.1172,-0.3118,-0.0091,-0.0076,-0.0018,-44.1188,12.8063,-5.025,,0.003586000000000089,0.33312087896137643,0.31978844448241567,non_fall
1.49721,-0.0288,-0.1407,-0.2984,-0.0091,-0.0076,-0.0018,-44.1188,12.8063,-5.025,,0.002314999999999845,0.3311623317951485,0.3154377006190525,non_fall
1.506808,-0.0288,-0.1407,-0.2984,-0.0091,-0.0076,-0.0018,-44.1938,12.5063,-4.9125,,0.009597999999999995,0.3311623317951485,0.3122565308001159,non_fall
1.514231,-0.0321,-0.2044,-0.3005,-0.0091,-0.0076,-0.0018,-44.1938,12.5063,-4.9125,,0.0074230000000001795,0.364842459151892,0.31058442513524986,non_fall
1.533941,-0.0313,-0.2251,-0.2835,-0.0091,-0.0076,-0.0018,-44.1938,12.5063,-4.9125,,0.019709999999999894,0.3633482489293157,0.3107300857319342,non_fall
1.539736,-0.0313,-0.2251,-0.2835,-0.0091,-0.0076,-0.0018,-44.1938,12.5063,-4.9125,,0.005794999999999995,0.3633482489293157,0.3129217170348069,non_fall
1.552527,-0.0165,-0.1671,-0.2465,-0.0091,-0.0076,-0.0018,-44.1938,12.5063,-4.9125,,0.012790999999999997,0.2982564500559879,0.317250542818185,non_fall
1.558346,-0.0165,-0.1671,-0.2465,-0.0213,0.0047,-0.003,-44.1938,12.5063,-4.9125,,0.005819000000000019,0.2982564500559879,0.3236131128343974,non_fall
1.568551,-0.0165,-0.1671,-0.2465,-0.0213,0.0047,-0.003,-44.4938,12.4313,-5.0063,,0.01020500000000002,0.2982564500559879,0.3316602953082266,non_fall
1.572088,-0.0233,-0.1498,-0.2068,-0.0213,0.0047,-0.003,-44.4938,12.4313,-5.0063,,0.0035369999999999013,0.25641600964058386,0.34076234273008865,non_fall
1.585704,-0.0233,-0.1498,-0.2068,-0.0213,0.0047,-0.003,-44.4938,12.4313,-5.0063,,0.013616000000000072,0.25641600964058386,0.3499994917462545,non_fall
1.591487,-0.0245,-0.1703,-0.2288,-0.0213,0.0047,-0.003,-44.4938,12.4313,-5.0063,,0.005783000000000094,0.286272213111926,0.3581860748464502,non_fall
1.611473,-0.052,-0.1573,-0.2672,-0.0213,0.0047,-0.003,-44.4938,12.4313,-5.0063,,0.019985999999999837,0.3143932728287932,0.36393320626985753,non_fall
1.619049,-0.052,-0.1573,-0.2672,-0.0091,0.0058,-0.0007,-44.4938,12.4313,-5.0063,,0.007576000000000027,0.3143932728287932,0.3657510812963304,non_fall
1.627003,-0.052,-0.1573,-0.2672,-0.0091,0.0058,-0.0007,-43.7063,12.5063,-5.025,,0.007954000000000017,0.3143932728287932,0.3621874068702784,non_fall
1.629658,-0.0696,-0.2281,-0.2435,-0.0091,0.0058,-0.0007,-43.7063,12.5063,-5.025,,0.002655000000000074,0.3408313659274921,0.35199415038922355,non_fall
1.633121,-0.0696,-0.2281,-0.2435,-0.0091,0.0058,-0.0007,-43.7063,12.5063,-5.025,,0.003462999999999994,0.3408313659274921,0.33431105867776784,non_fall
1.648871,-0.0447,-0.2389,-0.1963,-0.0091,0.0058,-0.0007,-43.7063,12.5063,-5.025,,0.01574999999999993,0.3124179732345756,0.3088513982881408,non_fall
1.669539,-0.0334,-0.1996,-0.211,-0.0091,0.0058,-0.0007,-43.7063,12.5063,-5.025,,0.02066800000000013,0.29236401967410425,0.2760732254318736,non_fall
1.682287,-0.0334,-0.1996,-0.211,-0.0091,0.0058,-0.0007,-43.7063,12.5063,-5.025,,0.012747999999999982,0.29236401967410425,0.23731832954020346,non_fall
1.684837,-0.0334,-0.1996,-0.211,-0.0128,0.0205,-0.0055,-43.7063,12.5063,-5.025,,0.00254999999999983,0.29236401967410425,0.1949008033614031,non_fall
1.687769,0.0061,-0.146,-0.2137,-0.0128,0.0205,-0.0055,-43.7063,12.5063,-5.025,,0.0029320000000001567,0.2588839508351184,0.15212798502421085,non_fall
1.69045,0.0061,-0.146,-0.2137,-0.0128,0.0205,-0.0055,-44.4938,12.825,-5.1188,,0.0026809999999999334,0.2588839508351184,0.11323854212138283,non_fall
1.705921,0.0091,-0.174,-0.2328,-0.0128,0.0205,-0.0055,-44.4938,12.825,-5.1188,,0.015471000000000013,0.2907828227388956,0.08324610526459118,non_fall
1.725662,-0.0025,-0.0922,-0.2721,-0.0128,0.0205,-0.0055,-44.4938,12.825,-5.1188,,0.01974100000000001,0.2873073267426363,0.06768237474663959,non_fall
1.729668,-0.0025,-0.0922,-0.2721,-0.0128,0.0205,-0.0055,-44.4938,12.825,-5.1188,,0.004005999999999954,0.2873073267426363,0.07224116870508626,non_fall
1.743988,-0.0025,-0.0922,-0.2721,-0.0153,0.0217,0.0067,-44.4938,12.825,-5.1188,,0.01432000000000011,0.2873073267426363,0.10233452322047358,non_fall
1.746182,0.0089,-0.1706,-0.1611,-0.0153,0.0217,0.0067,-44.4938,12.825,-5.1188,,0.002193999999999807,0.23481222285051517,0.16258341088130068,non_fall
1.747154,0.0089,-0.1706,-0.1611,-0.0153,0.0217,0.0067,-44.2875,12.3938,-4.7063,,0.0009720000000001949,0.23481222285051517,0.25627794623306166,non_fall
1.763062,-0.0742,-0.2917,-0.2596,-0.0153,0.0217,0.0067,-44.2875,12.3938,-4.7063,,0.01590799999999981,0.3974753954649269,0.384853471260477,non_fall
1.777211,-0.0742,-0.2917,-0.2596,-0.0153,0.0217,0.0067,-44.2875,12.3938,-4.7063,,0.01414900000000019,0.3974753954649269,0.5474378906241173,non_fall
1.783892,-0.0815,-0.1714,-0.2371,-0.0153,0.0217,0.0067,-44.2875,12.3938,-4.7063,,0.006680999999999937,0.30370482380100583,0.740530792600944,non_fall
1.802245,-0.0933,-0.1105,-0.216,-0.0153,0.0217,0.0067,-44.2875,12.3938,-4.7063,,0.018353000000000064,0.2599444940751775,0.9578753799886561,non_fall
1.805107,-0.0933,-0.1105,-0.216,-0.008,0.0242,0.0055,-44.2875,12.3938,-4.7063,,0.00286199999999992,0.2599444940751775,1.1905783703073105,non_fall
1.806518,-0.0933,-0.1105,-0.216,-0.008,0.0242,0.0055,-44.1188,12.9188,-5.325,,0.001411000000000051,0.2599444940751775,1.4275176497747584,non_fall
1.821195,-0.1479,0.8547,-0.5973,-0.008,0.0242,0.0055,-44.1188,12.9188,-5.325,,0.014676999999999829,1.0531637052234568,1.6560493548787025,non_fall
1.826065,-0.1479,0.8547,-0.5973,-0.008,0.0242,0.0055,-44.1188,12.9188,-5.325,,0.004870000000000152,1.0531637052234568,1.8629845892486157,non_fall
1.839355,-0.8133,2.1136,1.3234,-0.008,0.0242,0.0055,-44.1188,12.9188,-5.325,,0.013290000000000024,2.6230038905804163,2.035755149689296,non_fall
1.859759,0.0029,-3.9693,-0.5882,-0.008,0.0242,0.0055,-44.1188,12.9188,-5.325,,0.020403999999999867,4.012646276461457,2.163636525021505,non_fall
1.867399,0.0029,-3.9693,-0.5882,-0.008,0.0242,0.0055,-44.1188,13.0875,-4.8188,,0.007640000000000091,4.012646276461457,2.238858885693241,non_fall
1.868527,0.0029,-3.9693,-0.5882,-0.1143,-0.0723,-0.1606,-44.1188,13.0875,-4.8188,,0.0011280000000000179,4.012646276461457,2.2574292039913626,non_fall
1.872491,0.0029,-3.9693,-0.5882,-0.1143,-0.0723,-0.1606,-44.1188,13.0875,-4.8188,,0.0039639999999998565,4.012646276461457,2.2195216447984984,non_fall
1.878342,-0.4245,-0.7304,-1.8369,-0.1143,-0.0723,-0.1606,-44.1188,13.0875,-4.8188,,0.005851000000000051,2.0218521261457276,2.1293665701455904,non_fall
1.897613,0.1514,0.195,0.3921,-0.1143,-0.0723,-0.1606,-44.1188,13.0875,-4.8188,,0.019271000000000038,0.46334584275679,1.9946631470882177,non_fall
1.915891,0.0374,0.4814,0.6266,-0.1143,-0.0723,-0.1606,-44.1188,13.0875,-4.8188,,0.018278000000000016,0.7910576970107807,1.8256299577173882,non_fall
1.920528,0.0374,0.4814,0.6266,-0.1143,-0.0723,-0.1606,-44.1188,13.0875,-4.8188,,0.004637000000000002,0.7910576970107807,1.6338650279754314,non_fall
1.926629,0.0374,0.4814,0.6266,-0.1143,-0.0723,-0.1606,-43.7438,12.9375,-4.0875,,0.006100999999999912,0.7910576970107807,1.4311955766202658,non_fall
1.929568,0.0374,0.4814,0.6266,0.2498,-0.0003,0.0666,-43.7438,12.9375,-4.0875,,0.002939000000000025,0.7910576970107807,1.2286646173498004,non_fall
1.935989,0.1228,0.6547,-0.1639,0.2498,-0.0003,0.0666,-43.7438,12.9375,-4.0875,,0.00642100000000001,0.6859847957498766,1.0357486747970792,non_fall
1.954641,-0.0569,0.0221,-0.7239,0.2498,-0.0003,0.0666,-43.7438,12.9375,-4.0875,,0.018652000000000113,0.7264690151685755,0.859849027141624,non_fall
1.969947,-0.0569,0.0221,-0.7239,0.2498,-0.0003,0.0666,-43.7438,12.9375,-4.0875,,0.01530599999999982,0.7264690151685755,0.706057223957055,non_fall
1.975118,-0.2566,-0.5522,-0.373,0.2498,-0.0003,0.0666,-43.7438,12.9375,-4.0875,,0.005171000000000037,0.7140710048727648,0.5771652693470982,non_fall
1.986728,-0.2566,-0.5522,-0.373,0.2498,-0.0003,0.0666,-44.2125,12.9,-5.025,,0.01161000000000012,0.7140710048727648,0.4738710378133091,non_fall
1.992298,-0.2566,-0.5522,-0.373,-0.1766,0.0608,-0.0434,-44.2125,12.9,-5.025,,0.005569999999999853,0.7140710048727648,0.39511962913927745,non_fall
1.993785,-0.0253,-0.5104,0.0739,-0.1766,0.0608,-0.0434,-44.2125,12.9,-5.025,,0.001487000000000016,0.5163423864065393,0.3385206638570826,non_fall
2.014063,0.0579,-0.3538,-0.0357,-0.1766,0.0608,-0.0434,-44.2125,12.9,-5.025,,0.02027800000000024,0.36027953036496535,0.3007883430728762,non_fall
2.017563,0.0579,-0.3538,-0.0357,-0.1766,0.0608,-0.0434,-44.2125,12.9,-5.025,,0.0034999999999998366,0.36027953036496535,0.2781627138902336,non_fall
2.031099,-0.0372,-0.2322,-0.267,-0.1766,0.0608,-0.0434,-44.2125,12.9,-5.025,,0.013536000000000215,0.35579443503236524,0.2667834284652254,non_fall
2.047379,-0.0372,-0.2322,-0.267,-0.1766,0.0608,-0.0434,-43.9125,12.6938,-4.8188,,0.016279999999999628,0.35579443503236524,0.26299829751173015,non_fall
2.050917,-0.1401,-0.1273,-0.2672,-0.1766,0.0608,-0.0434,-43.9125,12.6938,-4.8188,,0.003538000000000263,0.3274586080713103,0.2635970922891241,non_fall
2.054016,-0.1401,-0.1273,-0.2672,0.019,-0.0088,0.036,-43.9125,12.6938,-4.8188,,0.003098999999999741,0.3274586080713103,0.26596722559897196,non_fall
2.064222,-0.1401,-0.1273,-0.2672,0.019,-0.0088,0.036,-43.9125,12.6938,-4.8188,,0.01020600000000016,0.3274586080713103,0.2681733201831265,non_fall
2.069311,-0.1006,-0.1343,-0.1207,0.019,-0.0088,0.036,-43.9125,12.6938,-4.8188,,0.005088999999999899,0.20670108853124117,0.26896764838326653,non_fall
2.088681,0.0118,-0.1827,-0.0496,0.019,-0.0088,0.036,-43.9125,12.6938,-4.8188,,0.019369999999999887,0.18968049451643676,0.26774272549072775,non_fall
2.107975,0.0137,-0.1716,-0.1598,0.019,-0.0088,0.036,-43.9125,12.6938,-4.8188,,0.019294000000000366,0.23488356690070933,0.26444035155857426,non_fall
2.111098,0.0137,-0.1716,-0.1598,0.019,-0.0088,0.036,-43.8188,12.9,-5.025,,0.003122999999999987,0.23488356690070933,0.2594324534500131,non_fall
2.113348,0.0137,-0.1716,-0.1598,0.019,-0.0088,0.036,-43.8188,12.9,-5.025,,0.002249999999999641,0.23488356690070933,0.2533880594667912,non_fall
2.117242,0.0137,-0.1716,-0.1598,-0.0225,0.0034,-0.014,-43.8188,12.9,-5.025,,0.003894000000000286,0.23488356690070933,0.24713845700726328,non_fall
2.126368,0.0014,-0.0613,-0.225,-0.0225,0.0034,-0.014,-43.8188,12.9,-5.025,,0.009125999999999745,0.23320516718117548,0.24155020077225392,non_fall
2.146956,-0.0671,-0.0431,-0.1525,-0.0225,0.0034,-0.014,-43.8188,12.9,-5.025,,0.02058800000000005,0.17209378257217778,0.23741378413172415,non_fall
2.159949,-0.0671,-0.0431,-0.1525,-0.0225,0.0034,-0.014,-43.8188,12.9,-5.025,,0.012993000000000254,0.17209378257217778,0.23535438078087306,non_fall
2.164938,-0.0291,-0.1398,-0.1254,-0.0225,0.0034,-0.014,-43.8188,12.9,-5.025,,0.004988999999999688,0.19004212690874622,0.23576964501363912,non_fall
2.166343,-0.0291,-0.1398,-0.1254,-0.0225,0.0034,-0.014,-44.4,12.825,-5.1188,,0.0014050000000001006,0.19004212690874622,0.23879761792348667,non_fall
2.178676,-0.0291,-0.1398,-0.1254,-0.0507,0.0107,0.0005,-44.4,12.825,-5.1188,,0.012332999999999927,0.19004212690874622,0.24431511360100724,non_fall
2.185425,0.0446,-0.2434,-0.1402,-0.0507,0.0107,0.0005,-44.4,12.825,-5.1188,,0.006749000000000116,0.28440949351243533,0.2519638066577165,non_fall
2.203686,0.0206,-0.2657,-0.2076,-0.0507,0.0107,0.0005,-44.4,12.825,-5.1188,,0.01826099999999986,0.3378144609101274,0.2611981387533791,non_fall
2.207833,0.0206,-0.2657,-0.2076,-0.0507,0.0107,0.0005,-44.4,12.825,-5.1188,,0.004147000000000123,0.3378144609101274,0.2713467591520784,non_fall
2.225939,-0.0202,-0.2309,-0.226,-0.0507,0.0107,0.0005,-44.4,12.825,-5.1188,,0.018105999999999955,0.3237265049389685,0.28167826456145334,non_fall
2.228802,-0.0202,-0.2309,-0.226,-0.0507,0.0107,0.0005,-43.9313,12.8813,-4.8188,,0.00286300000000006,0.3237265049389685,0.2914629811295947,non_fall
2.241114,-0.0202,-0.2309,-0.226,-0.0518,0.001,-0.0092,-43.9313,12.8813,-4.8188,,0.0123120000000001,0.3237265049389685,0.3000251017916827,non_fall
2.243674,-0.0549,-0.1986,-0.1793,-0.0518,0.001,-0.0092,-43.9313,12.8813,-4.8188,,0.0025599999999998957,0.2731381701630147,0.30678264955222334,non_fall
2.254877,-0.0549,-0.1986,-0.1793,-0.0518,0.001,-0.0092,-43.9313,12.8813,-4.8188,,0.011203000000000074,0.2731381701630147,0.31127549858462145,non_fall
2.260355,-0.0663,-0.2016,-0.1513,-0.0518,0.001,-0.0092,-43.9313,12.8813,-4.8188,,0.005478000000000094,0.26063372767161197,0.31318345040749773,non_fall
2.280798,-0.0556,-0.2398,-0.2115,-0.0518,0.001,-0.0092,-43.9313,12.8813,-4.8188,,0.020442999999999767,0.3245422160520877,0.3123368295865783,non_fall
2.287191,-0.0556,-0.2398,-0.2115,-0.0518,0.001,-0.0092,-43.8188,12.7125,-5.2313,,0.006393000000000093,0.3245422160520877,0.3087212692431995,non_fall
2.298923,-0.0143,-0.2036,-0.2505,-0.0518,0.001,-0.0092,-43.8188,12.7125,-5.2313,,0.011731999999999854,0.3231218036592393,0.30247686383406214,non_fall
2.302571,-0.0143,-0.2036,-0.2505,-0.0518,0.001,-0.0092,-43.8188,12.7125,-5.2313,,0.0036480000000000956,0.3231218036592393,0.2938905789283864,non_fall
2.303546,-0.0143,-0.2036,-0.2505,-0.03,-0.01,-0.0055,-43.8188,12.7125,-5.2313,,0.0009749999999999481,0.3231218036592393,0.2833803966755347,non_fall
2.318032,0.0117,-0.1753,-0.2136,-0.03,-0.01,-0.0055,-43.8188,12.7125,-5.2313,,0.014486000000000221,0.2765717628392313,0.27147023844063606,non_fall
2.33742,0.0347,-0.1503,-0.1931,-0.03,-0.01,-0.0055,-43.8188,12.7125,-5.2313,,0.01938799999999974,0.24714730425396106,0.25875593943014263,non_fall
2.348667,0.0347,-0.1503,-0.1931,-0.03,-0.01,-0.0055,-43.725,12.7875,-4.9313,,0.011247000000000007,0.24714730425396106,0.2458640240323481,non_fall
2.351528,0.0347,-0.1503,-0.1931,-0.03,-0.01,-0.0055,-43.725,12.7875,-4.9313,,0.0028610000000002245,0.24714730425396106,0.23340629533214882,non_fall
2.357116,-0.0165,-0.1827,-0.0987,-0.03,-0.01,-0.0055,-43.725,12.7875,-4.9313,,0.005587999999999926,0.20831041740633136,0.2219340091326317,non_fall
2.365198,-0.0165,-0.1827,-0.0987,-0.058,-0.021,-0.0092,-43.725,12.7875,-4.9313,,0.008081999999999923,0.20831041740633136,0.21189569535919142,non_fall
2.374911,-0.0849,-0.1334,-0.0598,-0.058,-0.021,-0.0092,-43.725,12.7875,-4.9313,,0.009713000000000083,0.16905505020554695,0.2036027525981548,non_fall
2.394597,-0.1101,-0.0943,0.0169,-0.058,-0.021,-0.0092,-43.725,12.7875,-4.9313,,0.019686000000000092,0.14594557204656808,0.19720684229957205,non_fall
2.398799,-0.1101,-0.0943,0.0169,-0.058,-0.021,-0.0092,-43.725,12.7875,-4.9313,,0.004201999999999817,0.14594557204656808,0.19269264951717197,non_fall
2.406864,-0.1101,-0.0943,0.0169,-0.058,-0.021,-0.0092,-44.025,12.9,-4.9125,,0.008065000000000211,0.14594557204656808,0.1898884857046851,non_fall
2.41417,-0.0387,-0.1063,0.1103,-0.058,-0.021,-0.0092,-44.025,12.9,-4.9125,,0.007305999999999813,0.15799832277590797,0.18849536868335845,non_fall
2.427182,-0.0387,-0.1063,0.1103,-0.1068,-0.0296,0.0103,-44.025,12.9,-4.9125,,0.013012000000000246,0.15799832277590797,0.18813278415730736,non_fall
2.43309,0.0435,-0.1521,0.1493,-0.1068,-0.0296,0.0103,-44.025,12.9,-4.9125,,0.005907999999999802,0.21752505602803554,0.18839669535510004,non_fall
2.447742,0.0435,-0.1521,0.1493,-0.1068,-0.0296,0.0103,-44.025,12.9,-4.9125,,0.014651999999999887,0.21752505602803554,0.18892297167540503,non_fall
2.45206,0.0403,-0.2001,0.1588,-0.1068,-0.0296,0.0103,-44.025,12.9,-4.9125,,0.004318000000000044,0.2586146554238564,0.18944769719021085,non_fall
2.466951,0.0403,-0.2001,0.1588,-0.1068,-0.0296,0.0103,-44.0063,12.6938,-4.7063,,0.014890999999999988,0.2586146554238564,0.18985522242307432,non_fall
2.471265,0.0378,-0.2575,0.1293,-0.1068,-0.0296,0.0103,-44.0063,12.6938,-4.7063,,0.004313999999999929,0.2906089812789687,0.19020563499334053,non_fall
2.489312,0.0378,-0.2575,0.1293,-0.1081,-0.0308,-0.0104,-44.0063,12.6938,-4.7063,,0.018047000000000146,0.2906089812789687,0.1907355979714161,non_fall
2.490493,0.0131,-0.1935,0.0488,-0.1081,-0.0308,-0.0104,-44.0063,12.6938,-4.7063,,0.0011809999999998766,0.19998824965482348,0.19183007555564247,non_fall
2.493811,0.0131,-0.1935,0.0488,-0.1081,-0.0308,-0.0104,-44.0063,12.6938,-4.7063,,0.003318000000000154,0.19998824965482348,0.1939669563329098,non_fall
2.50954,0.0111,-0.1355,-0.0279,-0.1081,-0.0308,-0.0104,-44.0063,12.6938,-4.7063,,0.015728999999999882,0.13878713917362803,0.19764124879002282,non_fall
2.527479,0.0111,-0.1355,-0.0279,-0.1081,-0.0308,-0.0104,-44.1188,12.8813,-4.5938,,0.01793900000000015,0.13878713917362803,0.20327928091188857,non_fall
2.53035,-0.0043,-0.1648,-0.0347,-0.1081,-0.0308,-0.0104,-44.1188,12.8813,-4.5938,,0.002870999999999846,0.1684684540203299,0.21115524383941728,non_fall
2.542329,-0.0043,-0.1648,-0.0347,-0.1081,-0.0308,-0.0104,-44.1188,12.8813,-4.5938,,0.011979000000000184,0.1684684540203299,0.22132218511289795,non_fall
2.547396,-0.0031,-0.1258,-0.0482,-0.1081,-0.0308,-0.0104,-44.1188,12.8813,-4.5938,,0.005066999999999933,0.13475344151449342,0.23356758515355466,non_fall
2.551313,-0.0031,-0.1258,-0.0482,-0.1496,-0.0235,-0.0043,-44.1188,12.8813,-4.5938,,0.003916999999999948,0.13475344151449342,0.24740062483769762,non_fall
2.566338,-0.0072,-0.1523,-0.1458,-0.1496,-0.0235,-0.0043,-44.1188,12.8813,-4.5938,,0.015025000000000066,0.21096153677862703,0.2620745790613242,non_fall
2.586374,0.0371,-0.2502,-0.185,-0.1496,-0.0235,-0.0043,-44.1188,12.8813,-4.5938,,0.020036000000000165,0.31337110587927536,0.2766434682353746,non_fall
2.589286,0.0371,-0.2502,-0.185,-0.1496,-0.0235,-0.0043,-44.0063,12.6,-4.8188,,0.0029119999999998036,0.31337110587927536,0.2900473895401311,non_fall
2.59118,0.0371,-0.2502,-0.185,-0.1496,-0.0235,-0.0043,-44.0063,12.6,-4.8188,,0.0018940000000000623,0.31337110587927536,0.3012167655448486,non_fall
2.604641,-0.0291,-0.3382,-0.1072,-0.1496,-0.0235,-0.0043,-44.0063,12.6,-4.8188,,0.013460999999999945,0.35597456369802605,0.3091832124091278,non_fall
2.614203,-0.0291,-0.3382,-0.1072,-0.19,-0.043,0.0153,-44.0063,12.6,-4.8188,,0.009561999999999848,0.35597456369802605,0.3131841802246259,non_fall
2.624793,-0.0101,-0.3749,0.1282,-0.19,-0.043,0.0153,-44.0063,12.6,-4.8188,,0.0105900000000001,0.39634235201401324,0.31274942578207837,non_fall
2.637575,-0.0101,-0.3749,0.1282,-0.19,-0.043,0.0153,-44.0063,12.6,-4.8188,,0.012782000000000071,0.39634235201401324,0.3077591662301427,non_fall
2.644171,0.0604,-0.3631,0.1752,-0.19,-0.043,0.0153,-44.0063,12.6,-4.8188,,0.006596000000000046,0.4076577118122507,0.29846633253181454,non_fall
2.647925,0.0604,-0.3631,0.1752,-0.19,-0.043,0.0153,-44.325,12.8625,-4.1813,,0.003753999999999813,0.4076577118122507,0.2854788827819264,non_fall
2.662773,0.0794,-0.2227,0.0761,-0.19,-0.043,0.0153,-44.325,12.8625,-4.1813,,0.014848000000000194,0.24837644815883814,0.2697027426895819,non_fall
2.676551,0.0794,-0.2227,0.0761,-0.1178,-0.026,-0.0177,-44.325,12.8625,-4.1813,,0.013777999999999846,0.24837644815883814,0.25225133207141776,non_fall
2.684274,0.0708,-0.0715,0.0015,-0.1178,-0.026,-0.0177,-44.325,12.8625,-4.1813,,0.007722999999999924,0.10063369217116104,0.23433292550167556,non_fall
2.685609,0.0708,-0.0715,0.0015,-0.1178,-0.026,-0.0177,-44.325,12.8625,-4.1813,,0.0013350000000000861,0.10063369217116104,0.21713089175270373,non_fall
2.701465,0.0033,-0.0326,0.0716,-0.1178,-0.026,-0.0177,-44.325,12.8625,-4.1813,,0.01585599999999987,0.07874141223016005,0.20169288994265464,non_fall
2.707012,0.0033,-0.0326,0.0716,-0.1178,-0.026,-0.0177,-43.5375,12.8438,-4.2,,0.005547000000000413,0.07874141223016005,0.18884289576390326,non_fall
2.720309,0.024,-0.1079,0.1724,-0.1178,-0.026,-0.0177,-43.5375,12.8438,-4.2,,0.01329699999999967,0.20479299304419574,0.17912501381899504,non_fall
2.733115,0.024,-0.1079,0.1724,-0.1178,-0.026,-0.0177,-43.5375,12.8438,-4.2,,0.012806000000000317,0.20479299304419574,0.1727817262007271,non_fall
2.737416,0.024,-0.1079,0.1724,-0.2229,-0.0162,0.0091,-43.5375,12.8438,-4.2,,0.004300999999999888,0.20479299304419574,0.16976327908612213,non_fall
2.738452,0.072,-0.1319,0.2075,-0.2229,-0.0162,0.0091,-43.5375,12.8438,-4.2,,0.0010360000000000369,0.25619886806931835,0.1697609009104213,non_fall
2.759075,0.0128,-0.1191,0.1433,-0.2229,-0.0162,0.0091,-43.5375,12.8438,-4.2,,0.020623000000000058,0.1867713575471357,0.17225521242687333,non_fall
2.772458,0.0128,-0.1191,0.1433,-0.2229,-0.0162,0.0091,-44.1188,12.8625,-4.1813,,0.0133829999999997,0.1867713575471357,0.1765721778328089,non_fall
2.777572,-0.0068,-0.096,0.1165,-0.2229,-0.0162,0.0091,-44.1188,12.8625,-4.1813,,0.005114000000000285,0.15111085334945334,0.18194123274178844,non_fall
2.780539,-0.0068,-0.096,0.1165,-0.2229,-0.0162,0.0091,-44.1188,12.8625,-4.1813,,0.002966999999999942,0.15111085334945334,0.18755265016757214,non_fall
2.796326,-0.0229,-0.1479,0.1275,-0.2229,-0.0162,0.0091,-44.1188,12.8625,-4.1813,,0.015786999999999995,0.1966089265521787,0.1926128209862594,non_fall
2.799757,-0.0229,-0.1479,0.1275,-0.2694,-0.0283,0.0103,-44.1188,12.8625,-4.1813,,0.003430999999999962,0.1966089265521787,0.19639650687996488,non_fall
2.815378,0.0418,-0.1961,0.0904,-0.2694,-0.0283,0.0103,-44.1188,12.8625,-4.1813,,0.015620999999999885,0.21994228788479944,0.1982945409655152,non_fall
2.827355,0.0418,-0.1961,0.0904,-0.2694,-0.0283,0.0103,-44.0438,12.9188,-3.5625,,0.011976999999999904,0.21994228788479944,0.19785462032510412,non_fall
2.828513,0.0418,-0.1961,0.0904,-0.2694,-0.0283,0.0103,-44.0438,12.9188,-3.5625,,0.0011580000000002144,0.21994228788479944,0.19481241270373756,non_fall
2.834466,0.0385,-0.1857,0.0559,-0.2694,-0.0283,0.0103,-44.0438,12.9188,-3.5625,,0.005952999999999875,0.1977158314349157,0.1891104521267585,non_fall
2.853697,0.0413,-0.1712,0.0655,-0.2694,-0.0283,0.0103,-44.0438,12.9188,-3.5625,,0.019230999999999998,0.1878972591604252,0.18090312148649199,non_fall
2.862069,0.0413,-0.1712,0.0655,-0.2974,-0.0235,-0.0007,-44.0438,12.9188,-3.5625,,0.008372000000000046,0.1878972591604252,0.17054712706719957,non_fall
2.872698,0.0506,-0.148,0.0386,-0.2974,-0.0235,-0.0007,-44.0438,12.9188,-3.5625,,0.010629000000000222,0.16110344502834195,0.15857796343220099,non_fall
2.87732,0.0506,-0.148,0.0386,-0.2974,-0.0235,-0.0007,-44.0438,12.9188,-3.5625,,0.004621999999999904,0.16110344502834195,0.14567378461448346,non_fall
2.888675,0.0506,-0.148,0.0386,-0.2974,-0.0235,-0.0007,-43.9313,12.8438,-3.9938,,0.011355000000000004,0.16110344502834195,0.1326088552889943,non_fall
2.891897,0.0052,-0.1337,0.0414,-0.2974,-0.0235,-0.0007,-43.9313,12.8438,-3.9938,,0.003222000000000058,0.14005959445893024,0.12019946982066305,non_fall
2.912657,-0.0244,-0.0355,0.0418,-0.2974,-0.0235,-0.0007,-43.9313,12.8438,-3.9938,,0.020759999999999668,0.06002374530133887,0.10924601990303616,non_fall
2.925355,-0.0244,-0.0355,0.0418,-0.2974,-0.0235,-0.0007,-43.9313,12.8438,-3.9938,,0.01269800000000032,0.06002374530133887,0.10047575339690368,non_fall
2.927632,-0.0244,-0.0355,0.0418,-0.3708,-0.0491,-0.0007,-43.9313,12.8438,-3.9938,,0.0022769999999998625,0.06002374530133887,0.09449137239397987,non_fall
2.930259,-0.0409,0.0244,0.042,-0.3708,-0.0491,-0.0007,-43.9313,12.8438,-3.9938,,0.002626999999999935,0.06349937007561571,0.09173043634522582,non_fall
2.947669,-0.0409,0.0244,0.042,-0.3708,-0.0491,-0.0007,-44.1562,13.3125,-3.45,,0.017409999999999926,0.06349937007561571,0.09243932707148554,non_fall
2.948954,-0.0117,0.1035,0.0132,-0.3708,-0.0491,-0.0007,-44.1562,13.3125,-3.45,,0.0012850000000002026,0.10499228543088296,0.09666362253544271,non_fall
2.970006,-0.0156,0.1339,0.0455,-0.3708,-0.0491,-0.0007,-44.1562,13.3125,-3.45,,0.02105200000000007,0.14227726452248088,0.1042547118245109,non_fall
2.973368,-0.0156,0.1339,0.0455,-0.3708,-0.0491,-0.0007,-44.1562,13.3125,-3.45,,0.003361999999999643,0.14227726452248088,0.11489088598325484,non_fall
2.987241,-0.0156,0.1339,0.0455,-0.4819,-0.0698,0.0078,-44.1562,13.3125,-3.45,,0.013873000000000246,0.14227726452248088,0.12811035377350494,non_fall
2.990452,-0.0234,0.1008,0.0723,-0.4819,-0.0698,0.0078,-44.1562,13.3125,-3.45,,0.003210999999999853,0.12623585069226573,0.1433538408996518,forward_fall
3.006179,-0.0653,0.0513,-0.0232,-0.4819,-0.0698,0.0078,-44.1562,13.3125,-3.45,,0.015727000000000046,0.08622076316062158,0.16001536414565265,forward_fall
3.007404,-0.0653,0.0513,-0.0232,-0.4819,-0.0698,0.0078,-43.95,12.9938,-3.0563,,0.0012250000000002537,0.08622076316062158,0.1775006739649743,forward_fall
3.020247,-0.0653,0.0513,-0.0232,-0.4819,-0.0698,0.0078,-43.95,12.9938,-3.0563,,0.012842999999999716,0.08622076316062158,0.19529280064221932,forward_fall
3.025589,-0.0701,0.0882,-0.1987,-0.4819,-0.0698,0.0078,-43.95,12.9938,-3.0563,,0.00534200000000018,0.22841834427208335,0.2130224419660617,forward_fall
3.046399,-0.1123,0.2441,-0.2805,-0.4819,-0.0698,0.0078,-43.95,12.9938,-3.0563,,0.020809999999999995,0.38842804996549884,0.23053763161536653,forward_fall
3.048725,-0.1123,0.2441,-0.2805,-0.6152,-0.12,0.003,-43.95,12.9938,-3.0563,,0.0023260000000000502,0.38842804996549884,0.24796338931562742,forward_fall
3.063851,-0.13,0.2847,-0.155,-0.6152,-0.12,0.003,-43.95,12.9938,-3.0563,,0.015125999999999973,0.34925505007086155,0.26573996778551456,forward_fall
3.067518,-0.13,0.2847,-0.155,-0.6152,-0.12,0.003,-43.9688,13.5375,-2.325,,0.003667000000000087,0.34925505007086155,0.2846296240614939,forward_fall
3.070469,-0.13,0.2847,-0.155,-0.6152,-0.12,0.003,-43.9688,13.5375,-2.325,,0.002950999999999926,0.34925505007086155,0.30568649173771445,forward_fall
3.082863,-0.0781,0.2711,-0.0071,-0.6152,-0.12,0.003,-43.9688,13.5375,-2.325,,0.012394000000000016,0.2822148649522204,0.3301902880728251,forward_fall
3.102795,-0.0023,0.2269,-0.1935,-0.6152,-0.12,0.003,-43.9688,13.5375,-2.325,,0.01993199999999984,0.2982132626158669,0.35955015757637343,forward_fall
3.111353,-0.0023,0.2269,-0.1935,-0.752,-0.1909,0.0213,-43.9688,13.5375,-2.325,,0.008557999999999844,0.2982132626158669,0.3951886392149014,forward_fall
3.117671,-0.0023,0.2269,-0.1935,-0.752,-0.1909,0.0213,-43.9688,13.5375,-2.325,,0.006318000000000268,0.2982132626158669,0.4384169716814127,forward_fall
3.121298,0.0175,0.3313,-0.5445,-0.752,-0.1909,0.0213,-43.9688,13.5375,-2.325,,0.003626999999999825,0.6376097474160821,0.490311611219901,forward_fall
3.127286,0.0175,0.3313,-0.5445,-0.752,-0.1909,0.0213,-44.175,13.2563,-0.8625,,0.005987999999999882,0.6376097474160821,0.5515985632939868,forward_fall
3.140346,0.0222,0.3684,-0.7064,-0.752,-0.1909,0.0213,-44.175,13.2563,-0.8625,,0.013060000000000294,0.797002107901855,0.6225486669573049,forward_fall
3.159823,-0.003,0.3554,-0.6697,-0.752,-0.1909,0.0213,-44.175,13.2563,-0.8625,,0.019476999999999745,0.7581663735618984,0.702885687696141,forward_fall
3.164061,-0.003,0.3554,-0.6697,-0.752,-0.1909,0.0213,-44.175,13.2563,-0.8625,,0.004237999999999964,0.7581663735618984,0.7917113754678187,forward_fall
3.173467,-0.003,0.3554,-0.6697,-0.9706,-0.2276,0.0225,-44.175,13.2563,-0.8625,,0.009406000000000247,0.7581663735618984,0.8874566899903602,forward_fall
3.181274,0.0361,0.363,-0.6771,-0.9706,-0.2276,0.0225,-44.175,13.2563,-0.8625,,0.007807000000000119,0.769114178779718,0.9878735422507726,forward_fall
3.188132,0.0361,0.363,-0.6771,-0.9706,-0.2276,0.0225,-43.5938,13.1813,0.1688,,0.006857999999999809,0.769114178779718,1.0900837516362964,forward_fall
3.197972,0.0465,0.2787,-0.8711,-0.9706,-0.2276,0.0225,-43.5938,13.1813,0.1688,,0.009840000000000071,0.9157789853452634,1.1906995121537634,forward_fall
3.212202,0.0465,0.2787,-0.8711,-0.9706,-0.2276,0.0225,-43.5938,13.1813,0.1688,,0.014229999999999965,0.9157789853452634,1.2860218295859602,forward_fall
3.217206,-0.0146,0.4634,-1.3737,-0.9706,-0.2276,0.0225,-43.5938,13.1813,0.1688,,0.0050040000000000084,1.4498290968248635,1.372310687483889,forward_fall
3.237126,-0.0146,0.4634,-1.3737,-1.3115,-0.4254,0.0091,-43.5938,13.1813,0.1688,,0.019919999999999938,1.4498290968248635,1.446104968282912,forward_fall
3.240161,-0.1781,0.9215,-1.7936,-1.3115,-0.4254,0.0091,-43.5938,13.1813,0.1688,,0.003035000000000121,2.024322805285758,1.5045547366027356,forward_fall
3.247307,-0.1781,0.9215,-1.7936,-1.3115,-0.4254,0.0091,-44.0063,13.3313,1.425,,0.007146000000000097,2.024322805285758,1.5457178467217734,forward_fall
3.254631,-0.3553,1.2942,-1.5952,-1.3115,-0.4254,0.0091,-44.0063,13.3313,1.425,,0.007323999999999664,2.0846713817769937,1.5687711850528465,forward_fall
3.258701,-0.3553,1.2942,-1.5952,-1.3115,-0.4254,0.0091,-44.0063,13.3313,1.425,,0.004070000000000018,2.0846713817769937,1.5740964570429312,forward_fall
3.274395,-0.0471,1.3556,-1.0338,-1.3115,-0.4254,0.0091,-44.0063,13.3313,1.425,,0.01569400000000032,1.7054653939614253,1.5632204350987167,forward_fall
3.293548,0.1282,1.1492,-0.2631,-1.3115,-0.4254,0.0091,-44.0063,13.3313,1.425,,0.019152999999999754,1.185882578504297,1.5386159974228422,forward_fall
3.297617,0.1282,1.1492,-0.2631,-1.9284,-0.5549,0.0873,-44.0063,13.3313,1.425,,0.004068999999999878,1.185882578504297,1.5033967197276117,forward_fall
3.307089,0.1282,1.1492,-0.2631,-1.9284,-0.5549,0.0873,-44.0063,13.3313,1.425,,0.009472000000000147,1.185882578504297,1.4609569164509357,forward_fall
3.308471,0.1282,1.1492,-0.2631,-1.9284,-0.5549,0.0873,-43.7438,13.2375,4.425,,0.0013819999999999943,1.185882578504297,1.4146155169448653,forward_fall
3.312207,0.0047,0.9631,0.1868,-1.9284,-0.5549,0.0873,-43.7438,13.2375,4.425,,0.0037359999999999616,0.9810596006359654,1.3673158579330937,forward_fall
3.331493,0.0603,0.6229,0.7264,-1.9284,-0.5549,0.0873,-43.7438,13.2375,4.425,,0.019286000000000136,0.9588000104297038,1.321418985092368,forward_fall
3.35082,0.333,0.2029,1.2009,-1.9284,-0.5549,0.0873,-43.7438,13.2375,4.425,,0.019327000000000094,1.2626235464302098,1.2786103205579025,forward_fall
3.354813,0.333,0.2029,1.2009,-1.9284,-0.5549,0.0873,-43.7438,13.2375,4.425,,0.003992999999999913,1.2626235464302098,1.2399210589965408,forward_fall
3.360426,0.333,0.2029,1.2009,-2.0543,-0.5159,0.1838,-43.7438,13.2375,4.425,,0.005612999999999868,1.2626235464302098,1.2058481281335431,forward_fall
3.366935,0.333,0.2029,1.2009,-2.0543,-0.5159,0.1838,-43.7625,12.5438,8.0625,,0.006508999999999876,1.2626235464302098,1.1765428025411462,forward_fall
3.370738,0.5514,-0.1836,1.22,-2.0543,-0.5159,0.1838,-43.7625,12.5438,8.0625,,0.003803000000000001,1.3513515160756655,1.152030502002213,forward_fall
3.389573,0.7742,-0.1344,0.9868,-2.0543,-0.5159,0.1838,-43.7625,12.5438,8.0625,,0.018835000000000157,1.26143697424802,1.1324229559099819,forward_fall
3.403215,0.7742,-0.1344,0.9868,-2.0543,-0.5159,0.1838,-43.7625,12.5438,8.0625,,0.013641999999999932,1.26143697424802,1.1180871478729832,forward_fall
3.408236,0.872,-0.0111,1.0215,-2.0543,-0.5159,0.1838,-43.7625,12.5438,8.0625,,0.005021000000000164,1.3431193022215115,1.1097417544387085,forward_fall
3.42227,0.872,-0.0111,1.0215,-2.3243,-0.4009,0.1716,-43.7625,12.5438,8.0625,,0.014034000000000102,1.3431193022215115,1.1084601574787545,forward_fall
3.427483,0.6633,-0.1652,1.4966,-2.3243,-0.4009,0.1716,-43.7625,12.5438,8.0625,,0.005212999999999912,1.6453174435348334,1.1155690020584994,forward_fall
3.430106,0.6633,-0.1652,1.4966,-2.3243,-0.4009,0.1716,-43.0688,11.6813,10.6313,,0.00262299999999982,1.6453174435348334,1.1324431218430513,forward_fall
3.446281,0.643,-0.2035,0.8224,-2.3243,-0.4009,0.1716,-43.0688,11.6813,10.6313,,0.01617500000000005,1.0635802790574862,1.160212878657804,forward_fall
3.451267,0.643,-0.2035,0.8224,-2.3243,-0.4009,0.1716,-43.0688,11.6813,10.6313,,0.004986000000000157,1.0635802790574862,1.1994191939460674,forward_fall
3.465919,0.4885,-0.6247,-0.1735,-2.3243,-0.4009,0.1716,-43.0688,11.6813,10.6313,,0.014651999999999887,0.8117786582560544,1.2496719335848188,forward_fall
3.484041,0.4885,-0.6247,-0.1735,-2.4171,-0.197,0.3671,-43.0688,11.6813,10.6313,,0.01812199999999997,0.8117786582560544,1.3093823579459642,forward_fall
3.485788,0.1912,-0.3618,0.3421,-2.4171,-0.197,0.3671,-43.0688,11.6813,10.6313,,0.001746999999999943,0.5333751868994282,1.3756438587983084,forward_fall
3.486533,0.1912,-0.3618,0.3421,-2.4171,-0.197,0.3671,-42.4688,10.6125,13.2,,0.0007450000000002177,0.5333751868994282,1.4443247833499115,forward_fall
3.498788,0.1912,-0.3618,0.3421,-2.4171,-0.197,0.3671,-42.4688,10.6125,13.2,,0.012254999999999683,0.5333751868994282,1.5104134220161622,forward_fall
3.507538,0.4242,-0.9309,0.9613,-2.4171,-0.197,0.3671,-42.4688,10.6125,13.2,,0.008750000000000036,1.403787070748267,1.5686196501699716,forward_fall
3.524423,0.2673,-1.1265,1.3796,-2.4171,-0.197,0.3671,-42.4688,10.6125,13.2,,0.01688500000000026,1.8010407269131923,1.61419331023126,forward_fall
3.54226,0.3802,-1.5151,1.7728,-2.4171,-0.197,0.3671,-42.4688,10.6125,13.2,,0.017837000000000103,2.3628160931397093,1.6438735715625559,forward_fall
3.546348,0.3802,-1.5151,1.7728,-2.4171,-0.197,0.3671,-42.4688,10.6125,13.2,,0.0040879999999998695,2.3628160931397093,1.656847702747539,forward_fall
3.548264,0.3802,-1.5151,1.7728,-2.196,-0.0773,0.4757,-42.4688,10.6125,13.2,,0.0019160000000000288,2.3628160931397093,1.6555823653261026,forward_fall
3.550632,0.3802,-1.5151,1.7728,-2.196,-0.0773,0.4757,-42.5438,9.825,15.1688,,0.0023679999999997037,2.3628160931397093,1.646399124840987,forward_fall
3.560396,0.4398,-1.8117,1.8671,-2.196,-0.0773,0.4757,-42.5438,9.825,15.1688,,0.009764000000000106,2.6385115766280047,1.6396939132446475,forward_fall
3.581068,0.0488,-1.1878,1.5641,-2.196,-0.0773,0.4757,-42.5438,9.825,15.1688,,0.020672000000000246,1.9646015092124918,1.6497398415578184,forward_fall
3.59407,0.0488,-1.1878,1.5641,-2.196,-0.0773,0.4757,-42.5438,9.825,15.1688,,0.013001999999999736,1.9646015092124918,1.6940575621525864,forward_fall
3.599955,-0.0971,-1.612,0.7024,-2.196,-0.0773,0.4757,-42.5438,9.825,15.1688,,0.00588500000000014,1.7610616599085906,1.7923824191471172,forward_fall
3.606526,-0.0971,-1.612,0.7024,-2.196,-0.0773,0.4757,-41.9438,9.1313,16.4062,,0.0065710000000001045,1.7610616599085906,1.965297382556354,forward_fall
3.608134,-0.0971,-1.612,0.7024,-1.6584,-0.12,0.3684,-41.9438,9.1313,16.4062,,0.0016080000000000538,1.7610616599085906,2.2326295538521514,forward_fall
3.61861,-1.252,-1.528,1.2136,-1.6584,-0.12,0.3684,-41.9438,9.1313,16.4062,,0.010475999999999708,2.318428985326055,2.6117227117729422,forward_fall
3.637906,-1.183,-2.5776,2.3153,-1.6584,-0.12,0.3684,-41.9438,9.1313,16.4062,,0.019296000000000202,3.6611644117684747,3.1156993648925706,forward_fall
3.641847,-1.183,-2.5776,2.3153,-1.6584,-0.12,0.3684,-41.9438,9.1313,16.4062,,0.00394099999999975,3.6611644117684747,3.7518170571620417,forward_fall
3.657563,0.2475,-4.1357,3.4154,-1.6584,-0.12,0.3684,-41.9438,9.1313,16.4062,,0.015716000000000285,5.369378725700023,4.520012836142082,forward_fall
3.667749,0.2475,-4.1357,3.4154,-1.6584,-0.12,0.3684,-41.55,8.7563,17.4188,,0.010186000000000028,5.369378725700023,5.4117253780700505,forward_fall
3.670743,0.2475,-4.1357,3.4154,-2.1985,0.1745,0.2926,-41.55,8.7563,17.4188,,0.002993999999999719,5.369378725700023,6.409090245369618,forward_fall
3.676619,0.7332,-5.0261,4.9052,-2.1985,0.1745,0.2926,-41.55,8.7563,17.4188,,0.005876000000000214,7.061179114708817,7.484616015642308,forward_fall
3.689781,0.7332,-5.0261,4.9052,-2.1985,0.1745,0.2926,-41.55,8.7563,17.4188,,0.013161999999999896,7.061179114708817,8.601456535752765,forward_fall
3.694672,0.6371,-5.203,7.3273,-2.1985,0.1745,0.2926,-41.55,8.7563,17.4188,,0.004891000000000201,9.009241405357058,9.71438542168507,forward_fall
3.714464,0.0156,-5.2145,8.8502,-2.1985,0.1745,0.2926,-41.55,8.7563,17.4188,,0.01979199999999981,10.272161099301353,10.77154816574512,forward_fall
3.727838,0.0156,-5.2145,8.8502,-2.1985,0.1745,0.2926,-41.5875,7.2563,17.7188,,0.013374000000000219,10.272161099301353,11.717019347204637,forward_fall
3.733456,0.0156,-5.2145,8.8502,-1.9382,0.4066,-0.0605,-41.5875,7.2563,17.7188,,0.005617999999999679,10.272161099301353,12.494136277822223,forward_fall
3.735667,0.235,-4.8951,10.5247,-1.9382,0.4066,-0.0605,-41.5875,7.2563,17.7188,,0.002210999999999963,11.609760510019145,13.0495202761797,forward_fall
3.738264,0.235,-4.8951,10.5247,-1.9382,0.4066,-0.0605,-41.5875,7.2563,17.7188,,0.0025970000000001825,11.609760510019145,13.33762800582667,forward_fall
3.752793,0.5928,-4.7839,12.4943,-1.9382,0.4066,-0.0605,-41.5875,7.2563,17.7188,,0.014529000000000014,13.391961900334096,13.32559130768037,forward_fall
3.771802,0.8373,-3.5255,13.5098,-1.9382,0.4066,-0.0605,-41.5875,7.2563,17.7188,,0.019009000000000054,13.98731273619061,12.99800883616762,forward_fall
3.785805,0.8373,-3.5255,13.5098,-1.9382,0.4066,-0.0605,-41.5875,7.2563,17.7188,,0.014002999999999766,13.98731273619061,12.36126494194416,forward_fall
3.788847,0.8373,-3.5255,13.5098,-1.9382,0.4066,-0.0605,-41.925,6.1125,17.1,,0.003042000000000211,13.98731273619061,11.446894708910573,forward_fall
3.791995,1.5287,-3.2392,12.5227,-1.9382,0.4066,-0.0605,-41.925,6.1125,17.1,,0.0031479999999999286,13.02487449536463,10.313507215348645,forward_fall
3.797494,1.5287,-3.2392,12.5227,-1.6976,0.2538,-0.0447,-41.925,6.1125,17.1,,0.005498999999999921,13.02487449536463,9.046828170145517,forward_fall
3.809582,1.8206,-0.9891,11.1177,-1.6976,0.2538,-0.0447,-41.925,6.1125,17.1,,0.012087999999999877,11.309118288354755,7.757524192399771,forward_fall
3.829577,2.1363,1.423,8.9832,-1.6976,0.2538,-0.0447,-41.925,6.1125,17.1,,0.019995000000000207,9.34272920136295,6.576616682886816,forward_fall
3.832662,2.1363,1.423,8.9832,-1.6976,0.2538,-0.0447,-41.925,6.1125,17.1,,0.0030850000000000044,9.34272920136295,5.648474438803741,forward_fall
3.847004,2.1363,1.423,8.9832,-1.6976,0.2538,-0.0447,-41.8125,5.8875,15.9563,,0.014342000000000077,9.34272920136295,5.121578074869459,forward_fall
3.848714,1.0815,2.6132,7.0368,-1.6976,0.2538,-0.0447,-41.8125,5.8875,15.9563,,0.0017100000000001003,7.583865157688394,5.137462676345135,forward_fall
3.856856,1.0815,2.6132,7.0368,-1.5828,0.1182,0.3354,-41.8125,5.8875,15.9563,,0.008141999999999872,7.583865157688394,5.818461123358758,forward_fall
3.867033,0.3858,3.445,6.3986,-1.5828,0.1182,0.3354,-41.8125,5.8875,15.9563,,0.010177000000000103,7.277289921392441,7.255084555999001,forward_fall
3.882255,0.3858,3.445,6.3986,-1.5828,0.1182,0.3354,-41.8125,5.8875,15.9563,,0.015221999999999625,7.277289921392441,9.494073209759947,forward_fall
3.88601,0.6421,1.9759,9.3598,-1.5828,0.1182,0.3354,-41.8125,5.8875,15.9563,,0.003755000000000397,9.587613324493223,12.528302896210823,forward_fall
3.905757,-2.1438,1.5122,8.7596,-1.5828,0.1182,0.3354,-41.8125,5.8875,15.9563,,0.019746999999999737,9.144026434782438,16.289811343666212,forward_fall
3.909805,-2.1438,1.5122,8.7596,-1.5828,0.1182,0.3354,-41.4375,6.0188,16.7812,,0.0040480000000000516,9.144026434782438,20.647191626544483,forward_fall
3.919076,-2.1438,1.5122,8.7596,-0.1778,-2.0087,-0.1216,-41.4375,6.0188,16.7812,,0.00927100000000003,9.144026434782438,25.40846313247664,forward_fall
3.925315,-2.4557,-1.8571,-2.6196,-0.1778,-2.0087,-0.1216,-41.4375,6.0188,16.7812,,0.0062389999999998835,4.042472889210266,30.33023622442618,forward_fall
3.928175,-2.4557,-1.8571,-2.6196,-0.1778,-2.0087,-0.1216,-41.4375,6.0188,16.7812,,0.0028600000000000847,4.042472889210266,35.13347645155343,forward_fall
3.943796,-7.3219,3.163,-19.0714,-0.1778,-2.0087,-0.1216,-41.4375,6.0188,16.7812,,0.015620999999999885,20.672036343089182,39.52537884304667,forward_fall
3.966096,-39.7126,59.2581,26.0313,-0.1778,-2.0087,-0.1216,-41.4375,6.0188,16.7812,,0.022299999999999986,75.93577282190523,43.22575889279901,forward_fall
3.967909,-39.7126,59.2581,26.0313,-0.1778,-2.0087,-0.1216,-40.0688,7.8188,19.4438,,0.0018130000000002866,75.93577282190523,45.995104532314116,forward_fall
3.978296,-39.7126,59.2581,26.0313,-0.1778,-2.0087,-0.1216,-40.0688,7.8188,19.4438,,0.010386999999999702,75.93577282190523,47.6604268128117,forward_fall
3.984435,-39.7126,59.2581,26.0313,14.5597,5.0772,2.5087,-40.0688,7.8188,19.4438,,0.006139000000000117,75.93577282190523,48.134796457405145,forward_fall
3.986714,76.7958,-51.499,-68.7106,14.5597,5.0772,2.5087,-40.0688,7.8188,19.4438,,0.002279000000000142,115.1993422333652,47.42716860700845,forward_fall
4.001482,6.9823,10.3619,-57.8193,14.5597,5.0772,2.5087,-40.0688,7.8188,19.4438,,0.014768000000000114,59.15397651375603,45.64059053111771,forward_fall
4.020228,3.5519,10.6857,1.2512,14.5597,5.0772,2.5087,-40.0688,7.8188,19.4438,,0.01874600000000015,11.329857878190706,42.958843549020145,forward_fall
4.028447,3.5519,10.6857,1.2512,14.5597,5.0772,2.5087,-40.0688,7.8188,19.4438,,0.008218999999999532,11.329857878190706,39.62367065566047,forward_fall
4.030115,3.5519,10.6857,1.2512,14.5597,5.0772,2.5087,-41.0625,13.4438,8.1,,0.001668000000000447,11.329857878190706,35.90646667456459,forward_fall
4.039287,1.7644,-6.6629,1.0259,14.5597,5.0772,2.5087,-41.0625,13.4438,8.1,,0.009171999999999514,6.968487251907691,32.07904644008696,forward_fall
4.044043,1.7644,-6.6629,1.0259,-0.7923,-1.1109,-0.3256,-41.0625,13.4438,8.1,,0.0047560000000004266,6.968487251907691,28.387660948926108,forward_fall
4.05789,4.021,-5.3074,-19.498,-0.7923,-1.1109,-0.3256,-41.0625,13.4438,8.1,,0.013847000000000165,20.603614725576676,25.03318193247239,forward_fall
4.071953,4.021,-5.3074,-19.498,-0.7923,-1.1109,-0.3256,-41.0625,13.4438,8.1,,0.01406299999999927,20.603614725576676,22.158879091528377,forward_fall
4.077153,-3.1983,-18.8165,-19.7976,-0.7923,-1.1109,-0.3256,-41.0625,13.4438,8.1,,0.0052000000000003155,27.49972292405871,19.84585718715539,forward_fall
4.088001,-3.1983,-18.8165,-19.7976,-0.7923,-1.1109,-0.3256,-42.0375,10.4438,10.8938,,0.01084800000000019,27.49972292405871,18.11521422760448,forward_fall
4.096857,-1.6541,-5.806,9.0597,-0.7923,-1.1109,-0.3256,-42.0375,10.4438,10.8938,,0.008855999999999753,10.886865797831808,16.935428383329793,forward_fall
4.105434,-1.6541,-5.806,9.0597,-4.8484,1.3289,-0.4711,-42.0375,10.4438,10.8938,,0.008576999999999835,10.886865797831808,16.233346775511176,forward_fall
4.115461,-4.1219,2.2327,24.0619,-4.8484,1.3289,-0.4711,-42.0375,10.4438,10.8938,,0.010027000000000008,24.514282378034242,15.90726048204437,forward_fall
4.119639,-4.1219,2.2327,24.0619,-4.8484,1.3289,-0.4711,-42.0375,10.4438,10.8938,,0.004178000000000459,24.514282378034242,15.840691943138221,forward_fall
4.135065,-0.3501,2.9426,24.2739,-4.8484,1.3289,-0.4711,-42.0375,10.4438,10.8938,,0.015425999999999718,24.454113886624476,15.91559976483865,forward_fall
4.149367,-0.3501,2.9426,24.2739,-4.8484,1.3289,-0.4711,-41.9813,6.825,10.05,,0.014301999999999815,24.454113886624476,16.023807451883087,forward_fall
4.154158,-0.5483,3.2085,17.7488,-4.8484,1.3289,-0.4711,-41.9813,6.825,10.05,,0.00479099999999999,18.04480552901582,16.075712239281717,forward_fall
4.16802,-0.5483,3.2085,17.7488,-4.8484,1.3289,-0.4711,-41.9813,6.825,10.05,,0.013862000000000485,18.04480552901582,16.00573340791236,forward_fall
4.170704,-0.5483,3.2085,17.7488,2.163,-0.9544,-0.2743,-41.9813,6.825,10.05,,0.0026839999999994646,18.04480552901582,15.774409361797714,forward_fall
4.173382,-6.4626,12.9526,8.2482,2.163,-0.9544,-0.2743,-41.9813,6.825,10.05,,0.0026780000000004023,16.660367605788295,15.36743843123094,forward_fall
4.191956,-1.1205,12.0185,5.0666,2.163,-0.9544,-0.2743,-41.9813,6.825,10.05,,0.01857400000000009,13.090847873991967,14.792233380756576,forward_fall
4.207232,-1.1205,12.0185,5.0666,2.163,-0.9544,-0.2743,-42.225,8.1375,9.75,,0.015276000000000067,13.090847873991967,14.072736154910377,forward_fall
4.211758,0.1167,1.8834,4.568,2.163,-0.9544,-0.2743,-42.225,8.1375,9.75,,0.004525999999999364,4.942412209640147,13.243341367282001,forward_fall
4.218181,0.1167,1.8834,4.568,2.163,-0.9544,-0.2743,-42.225,8.1375,9.75,,0.006423000000000734,4.942412209640147,12.342802318189182,forward_fall
4.229929,0.1167,1.8834,4.568,3.2699,-0.2556,-0.0252,-42.225,8.1375,9.75,,0.01174799999999987,4.942412209640147,11.40891479881983,forward_fall
4.231461,1.7627,-0.0586,-12.6597,3.2699,-0.2556,-0.0252,-42.225,8.1375,9.75,,0.0015320000000000888,12.78196187367182,10.474569151607957,forward_fall
4.249777,-0.0654,6.0608,-5.967,3.2699,-0.2556,-0.0252,-42.225,8.1375,9.75,,0.018315999999999555,8.505449006372327,9.56545251079987,forward_fall
4.263452,-0.0654,6.0608,-5.967,3.2699,-0.2556,-0.0252,-42.225,8.1375,9.75,,0.013675000000000104,8.505449006372327,8.699354910088777,forward_fall
4.266869,-0.0654,6.0608,-5.967,3.2699,-0.2556,-0.0252,-41.0625,8.8125,7.7438,,0.0034169999999997813,8.505449006372327,7.886783358459968,forward_fall
4.268,-0.255,6.6591,-8.6874,3.2699,-0.2556,-0.0252,-41.0625,8.8125,7.7438,,0.0011309999999999931,10.948952304672808,7.132456770077344,forward_fall
4.288161,-0.1318,7.6827,-6.225,3.2699,-0.2556,-0.0252,-41.0625,8.8125,7.7438,,0.020160999999999873,9.888977476463378,6.437216816783483,forward_fall
4.29185,-0.1318,7.6827,-6.225,0.2938,-0.0553,-0.0434,-41.0625,8.8125,7.7438,,0.0036890000000004974,9.888977476463378,5.799915892617496,forward_fall
4.307122,-0.5465,4.8436,-1.6541,0.2938,-0.0553,-0.0434,-41.0625,8.8125,7.7438,,0.015271999999999508,5.147345919986338,5.218931750926785,forward_fall
4.31107,-0.5465,4.8436,-1.6541,0.2938,-0.0553,-0.0434,-41.0625,8.8125,7.7438,,0.003948000000000285,5.147345919986338,4.693106050504432,forward_fall
4.327035,-0.337,2.3888,0.6041,0.2938,-0.0553,-0.0434,-41.0625,8.8125,7.7438,,0.01596500000000045,2.4869401380009126,4.222076687183484,forward_fall
4.330643,-0.337,2.3888,0.6041,0.2938,-0.0553,-0.0434,-41.4563,8.85,7.125,,0.0036079999999998336,2.4869401380009126,3.806118199778602,forward_fall
4.345312,-0.2753,2.4461,0.4596,0.2938,-0.0553,-0.0434,-41.4563,8.85,7.125,,0.014668999999999599,2.504082159195261,3.4456828724008264,forward_fall
4.354051,-0.2753,2.4461,0.4596,-0.0983,-0.0173,-0.0092,-41.4563,8.85,7.125,,0.008739000000000274,2.504082159195261,3.1408429204590744,forward_fall
4.359027,-0.2753,2.4461,0.4596,-0.0983,-0.0173,-0.0092,-41.4563,8.85,7.125,,0.0049760000000000915,2.504082159195261,2.890792754517878,forward_fall
4.364556,-0.2039,2.3964,-0.1943,-0.0983,-0.0173,-0.0092,-41.4563,8.85,7.125,,0.005529000000000117,2.4128946640912448,2.6935092551154702,forward_fall
4.384389,-0.2741,2.5,0.2444,-0.0983,-0.0173,-0.0092,-41.4563,8.85,7.125,,0.019832999999999323,2.5268284805265275,2.54561030230151,forward_fall
4.388681,-0.2741,2.5,0.2444,-0.0983,-0.0173,-0.0092,-41.0625,8.6063,7.8563,,0.004292000000000407,2.5268284805265275,2.442408023550398,forward_fall
4.402293,-0.3832,2.4939,0.4161,-0.0983,-0.0173,-0.0092,-41.0625,8.6063,7.8563,,0.01361200000000018,2.557248259360049,2.3781243818270337,forward_fall
4.406457,-0.3832,2.4939,0.4161,-0.0983,-0.0173,-0.0092,-41.0625,8.6063,7.8563,,0.00416399999999939,2.557248259360049,2.3462206644671277,forward_fall
4.416139,-0.3832,2.4939,0.4161,-0.0373,-0.048,-0.0044,-41.0625,8.6063,7.8563,,0.009682000000000635,2.557248259360049,2.3397869392020683,forward_fall
4.421519,-0.3266,2.4749,0.6771,-0.0373,-0.048,-0.0044,-41.0625,8.6063,7.8563,,0.005379999999999718,2.5865540744395816,2.3519403061370854,forward_fall
4.44023,-0.1466,2.4245,0.6845,-0.0373,-0.048,-0.0044,-41.0625,8.6063,7.8563,,0.0187109999999997,2.523535626853721,2.37618918231368,forward_fall
4.448825,-0.1466,2.4245,0.6845,-0.0373,-0.048,-0.0044,-41.1562,8.775,8.3813,,0.008595000000000574,2.523535626853721,2.4067324098621086,forward_fall
4.454362,-0.1466,2.4245,0.6845,-0.0373,-0.048,-0.0044,-41.1562,8.775,8.3813,,0.005536999999999459,2.523535626853721,2.4386745747045353,forward_fall
4.460161,-0.3009,2.4181,0.5603,-0.0373,-0.048,-0.0044,-41.1562,8.775,8.3813,,0.005799000000000554,2.500336879302467,2.4681508430984467,forward_fall
4.478256,-0.3009,2.4181,0.5603,0.1705,0.0155,-0.0104,-41.1562,8.775,8.3813,,0.01809499999999975,2.500336879302467,2.4923646494967486,forward_fall
4.479767,-0.2447,2.4229,0.3598,0.1705,0.0155,-0.0104,-41.1562,8.775,8.3813,,0.001510999999999818,2.461661743619541,2.509549131639861,forward_fall
4.498689,-0.1805,2.3886,-0.4437,0.1705,0.0155,-0.0104,-41.1562,8.775,8.3813,,0.018921999999999883,2.436156788878745,2.51886821335181,forward_fall
4.502904,-0.1805,2.3886,-0.4437,0.1705,0.0155,-0.0104,-41.1562,8.775,8.3813,,0.004215000000000302,2.436156788878745,2.5202757176171375,forward_fall
4.507759,-0.1805,2.3886,-0.4437,0.1705,0.0155,-0.0104,-41.1562,8.6063,7.7438,,0.004855000000000054,2.436156788878745,2.514350909705991,forward_fall
4.517331,-0.25,2.3703,-0.8588,0.1705,0.0155,-0.0104,-41.1562,8.6063,7.7438,,0.009572000000000358,2.5334481502489843,2.5021266989198057,forward_fall
4.536855,-0.3399,2.3265,-0.6853,0.1705,0.0155,-0.0104,-41.1562,8.6063,7.7438,,0.019523999999999653,2.4490345750928055,2.4849231234336138,forward_fall
4.540278,-0.3399,2.3265,-0.6853,0.0715,-0.0063,-0.0007,-41.1562,8.6063,7.7438,,0.003422999999999732,2.4490345750928055,2.4641948970825345,forward_fall
4.550264,-0.3399,2.3265,-0.6853,0.0715,-0.0063,-0.0007,-41.1562,8.6063,7.7438,,0.009986000000000494,2.4490345750928055,2.4413987736735105,forward_fall
4.555766,-0.2355,2.3267,-0.3324,0.0715,-0.0063,-0.0007,-41.1562,8.6063,7.7438,,0.005501999999999896,2.362092906724882,2.417884587366867,forward_fall
4.567246,-0.2355,2.3267,-0.3324,0.0715,-0.0063,-0.0007,-41.3625,8.8875,8.175,,0.011479999999999713,2.362092906724882,2.3948126377316568,forward_fall
4.575677,-0.2491,2.3021,-0.3856,0.0715,-0.0063,-0.0007,-41.3625,8.8875,8.175,,0.008430999999999855,2.347424669717859,2.3730990196330235,forward_fall
4.594864,-0.311,2.297,-0.0808,0.0715,-0.0063,-0.0007,-41.3625,8.8875,8.175,,0.01918700000000051,2.319365999578333,2.3533891576571455,forward_fall
4.598762,-0.311,2.297,-0.0808,0.0715,-0.0063,-0.0007,-41.3625,8.8875,8.175,,0.003897999999999513,2.319365999578333,2.336058076217884,forward_fall
4.605192,-0.311,2.297,-0.0808,-0.036,0.007,0.0005,-41.3625,8.8875,8.175,,0.006429999999999936,2.319365999578333,2.321233989145885,forward_fall
4.613449,-0.3094,2.3116,0.2655,-0.036,0.007,0.0005,-41.3625,8.8875,8.175,,0.008257000000000403,2.3472778212218506,2.3088399412938663,forward_fall
4.62788,-0.3094,2.3116,0.2655,-0.036,0.007,0.0005,-41.85,9.1313,7.7625,,0.014431000000000083,2.3472778212218506,2.298646800802439,forward_fall
4.632163,-0.3178,2.2774,0.319,-0.036,0.007,0.0005,-41.85,9.1313,7.7625,,0.004283000000000037,2.3214884449421667,2.290330229240413,forward_fall
4.646105,-0.3178,2.2774,0.319,-0.036,0.007,0.0005,-41.85,9.1313,7.7625,,0.013942000000000121,2.3214884449421667,2.2835246384872074,forward_fall
4.65178,-0.296,2.2644,0.2515,-0.036,0.007,0.0005,-41.85,9.1313,7.7625,,0.0056749999999992085,2.29747156892093,2.2778685609916414,forward_fall
4.665195,-0.296,2.2644,0.2515,0.0483,0.0265,0.0066,-41.85,9.1313,7.7625,,0.013415000000000177,2.29747156892093,2.2730379165679984,forward_fall
4.67203,-0.2619,2.2542,0.049,0.0483,0.0265,0.0066,-41.85,9.1313,7.7625,,0.006835000000000591,2.2698921229873457,2.2687658375735613,forward_fall
4.687125,-0.2619,2.2542,0.049,0.0483,0.0265,0.0066,-41.5688,9.0188,7.9688,,0.015094999999999636,2.2698921229873457,2.2648496571333028,forward_fall
4.691068,-0.204,2.213,-0.1611,0.0483,0.0265,0.0066,-41.5688,9.0188,7.9688,,0.003942999999999586,2.228214130194852,2.2611471978088913,forward_fall
4.696283,-0.204,2.213,-0.1611,0.0483,0.0265,0.0066,-41.5688,9.0188,7.9688,,0.005215000000000636,2.228214130194852,2.257565505991261,forward_fall
4.709088,-0.2333,2.2393,-0.0693,0.0483,0.0265,0.0066,-41.5688,9.0188,7.9688,,0.012805000000000177,2.252486597074442,2.2540455366253034,forward_fall
4.727193,-0.2333,2.2393,-0.0693,0.0348,0.0155,0.0005,-41.5688,9.0188,7.9688,,0.01810499999999937,2.252486597074442,2.2505459516050728,forward_fall
4.728543,-0.2628,2.2241,-0.0036,0.0348,0.0155,0.0005,-41.5688,9.0188,7.9688,,0.0013500000000004064,2.239575319117444,2.2470283416400063,forward_fall
4.74181,-0.2628,2.2241,-0.0036,0.0348,0.0155,0.0005,-41.5688,9.0188,7.9688,,0.013266999999999918,2.239575319117444,2.2434452376770717,forward_fall
4.746659,-0.2517,2.223,0.1004,0.0348,0.0155,0.0005,-41.5688,9.0188,7.9688,,0.004849000000000103,2.239455748613935,2.2397315950742884,forward_fall
4.747386,-0.2517,2.223,0.1004,0.0348,0.0155,0.0005,-41.6438,8.6438,7.65,,0.0007269999999994781,2.239455748613935,2.235800049386598,forward_fall
4.765968,-0.2605,2.2039,-0.1146,0.0348,0.0155,0.0005,-41.6438,8.6438,7.65,,0.01858200000000032,2.222199050490302,2.2315400131685226,forward_fall
4.785684,-0.2629,2.1862,-0.3467,0.0348,0.0155,0.0005,-41.6438,8.6438,7.65,,0.019715999999999845,2.2290777779162396,2.2268205198536344,forward_fall
4.789194,-0.2629,2.1862,-0.3467,0.0348,0.0155,0.0005,-41.6438,8.6438,7.65,,0.003510000000000346,2.2290777779162396,2.2214966066725816,forward_fall
4.791012,-0.2629,2.1862,-0.3467,0.052,0.001,0.003,-41.6438,8.6438,7.65,,0.0018180000000000973,2.2290777779162396,2.2154189517110825,forward_fall
4.804097,-0.252,2.1575,-0.2022,0.052,0.001,0.003,-41.6438,8.6438,7.65,,0.013084999999999347,2.1815579501814755,2.2084464618760435,forward_fall
4.806394,-0.252,2.1575,-0.2022,0.052,0.001,0.003,-41.7563,9.0188,7.7625,,0.0022970000000004376,2.1815579501814755,2.2004615836707124,forward_fall
4.824054,-0.2444,2.1449,0.2593,0.052,0.001,0.003,-41.7563,9.0188,7.7625,,0.01766000000000023,2.174296175777348,2.1913881749273485,forward_fall
4.839237,-0.2444,2.1449,0.2593,0.052,0.001,0.003,-41.7563,9.0188,7.7625,,0.015182999999999502,2.174296175777348,2.1812115765828284,forward_fall
4.842401,-0.2554,2.1413,0.1339,0.052,0.001,0.003,-41.7563,9.0188,7.7625,,0.0031639999999999446,2.1606304774301415,2.1699999065248927,forward_fall
4.851004,-0.2554,2.1413,0.1339,0.036,0.007,-0.0032,-41.7563,9.0188,7.7625,,0.008602999999999916,2.1606304774301415,2.1579247066751823,forward_fall
4.862204,-0.276,2.1273,-0.1167,0.036,0.007,-0.0032,-41.7563,9.0188,7.7625,,0.011200000000000543,2.1483016966897366,2.1452782060126436,forward_fall
4.867347,-0.276,2.1273,-0.1167,0.036,0.007,-0.0032,-41.3625,8.8313,7.65,,0.0051429999999994536,2.1483016966897366,2.1324838247516458,forward_fall
4.88109,-0.3099,2.13,-0.0082,0.036,0.007,-0.0032,-41.3625,8.8313,7.65,,0.013743000000000727,2.152441694913012,2.1200962226134243,forward_fall
4.884745,-0.3099,2.13,-0.0082,0.036,0.007,-0.0032,-41.3625,8.8313,7.65,,0.0036549999999992977,2.152441694913012,2.108787250959603,forward_fall
4.900402,-0.2974,2.1075,-0.1393,0.036,0.007,-0.0032,-41.3625,8.8313,7.65,,0.015657000000000032,2.1329340121063285,2.099314712638211,forward_fall
4.91668,-0.2974,2.1075,-0.1393,0.0385,0.007,0.0043,-41.3625,8.8313,7.65,,0.01627800000000068,2.1329340121063285,2.0924719729497743,forward_fall
4.919396,-0.2673,2.1088,-0.1291,0.0385,0.007,0.0043,-41.3625,8.8313,7.65,,0.0027159999999994966,2.1295899934024862,2.089018193461172,forward_fall
4.927028,-0.2673,2.1088,-0.1291,0.0385,0.007,0.0043,-41.3438,8.85,7.3313,,0.007632000000000083,2.1295899934024862,2.0895911135512466,forward_fall
4.932743,-0.2673,2.1088,-0.1291,0.0385,0.007,0.0043,-41.3438,8.85,7.3313,,0.005715000000000359,2.1295899934024862,2.0946066733507354,forward_fall
4.938957,-0.2589,2.0877,-0.1666,0.0385,0.007,0.0043,-41.3438,8.85,7.3313,,0.006213999999999942,2.1102786688018242,2.1041522145723603,forward_fall
4.95727,-0.2386,2.0797,0.0119,0.0385,0.007,0.0043,-41.3438,8.85,7.3313,,0.018313000000000024,2.0933761391589423,2.1178823849322987,forward_fall
4.976188,-0.2386,2.0797,0.0119,-0.0018,0.0095,-0.0007,-41.3438,8.85,7.3313,,0.018917999999999324,2.0933761391589423,2.13492894927708,forward_fall
4.978946,-0.2568,2.0602,0.0711,-0.0018,0.0095,-0.0007,-41.3438,8.85,7.3313,,0.002758000000000038,2.0773602215311624,2.1538370517791225,forward_fall
4.981399,-0.2568,2.0602,0.0711,-0.0018,0.0095,-0.0007,-41.3438,8.85,7.3313,,0.0024530000000000385,2.0773602215311624,2.1725406292002316,non_fall
4.987375,-0.2568,2.0602,0.0711,-0.0018,0.0095,-0.0007,-41.7375,8.8688,7.2375,,0.005976000000000425,2.0773602215311624,2.1883883480679267,non_fall
4.995696,-0.2689,2.0553,-0.0039,-0.0018,0.0095,-0.0007,-41.7375,8.8688,7.2375,,0.008320999999999579,2.072819459094303,2.198228536075762,non_fall
5.014506,-0.2499,2.0611,-0.0814,-0.0018,0.0095,-0.0007,-41.7375,8.8688,7.2375,,0.018810000000000215,2.0777894936686923,2.198557170148496,non_fall
5.028312,-0.2499,2.0611,-0.0814,-0.0018,0.0095,-0.0007,-41.7375,8.8688,7.2375,,0.013805999999999763,2.0777894936686923,2.1857272773996628,non_fall
5.033759,-0.2659,2.0311,0.011,-0.0018,0.0095,-0.0007,-41.7375,8.8688,7.2375,,0.005447000000000202,2.0484606464367334,2.156211442066914,non_fall
5.037204,-0.2659,2.0311,0.011,0.008,0.0045,-0.0007,-41.7375,8.8688,7.2375,,0.0034450000000001424,2.0484606464367334,2.106901943416885,non_fall
5.048885,-0.2659,2.0311,0.011,0.008,0.0045,-0.0007,-41.5312,8.6625,7.1438,,0.011681000000000274,2.0484606464367334,2.0354259015095586,non_fall
5.051991,-0.2578,2.0305,0.0411,0.008,0.0045,-0.0007,-41.5312,8.6625,7.1438,,0.003105999999999831,2.047212812582024,1.9404463182515308,non_fall
5.072606,-0.2696,2.0141,0.0278,0.008,0.0045,-0.0007,-41.5312,8.6625,7.1438,,0.020615000000000272,2.0322538743966017,1.8219149793615579,non_fall
5.076483,-0.2696,2.0141,0.0278,0.008,0.0045,-0.0007,-41.5312,8.6625,7.1438,,0.003876999999999242,2.0322538743966017,1.6812410869040713,non_fall
5.09163,-0.2767,2.0093,-0.0887,0.008,0.0045,-0.0007,-41.5312,8.6625,7.1438,,0.015147000000000688,2.0302012387938295,1.5213416715477406,non_fall
5.100532,-0.2767,2.0093,-0.0887,0.0275,0.0022,0.0005,-41.5312,8.6625,7.1438,,0.008901999999999965,2.0302012387938295,1.3465477277009867,non_fall
5.107266,-0.2767,2.0093,-0.0887,0.0275,0.0022,0.0005,-41.6438,8.8313,7.65,,0.006733999999999796,2.0302012387938295,1.162355016176413,non_fall
5.110664,0.0246,-0.0014,0.0427,0.0275,0.0022,0.0005,-41.6438,8.8313,7.65,,0.00339799999999979,0.04929918863429702,0.9750314603102804,non_fall
5.123677,0.0246,-0.0014,0.0427,0.0275,0.0022,0.0005,-41.6438,8.8313,7.65,,0.013012999999999941,0.04929918863429702,0.791121829885113,non_fall
5.128804,-0.0011,-0.0114,0.1621,0.0275,0.0022,0.0005,-41.6438,8.8313,7.65,,0.005126999999999882,0.1625040922561644,0.6169161595905372,non_fall
5.148621,0.0155,-0.0193,0.1427,0.0275,0.0022,0.0005,-41.6438,8.8313,7.65,,0.01981700000000064,0.14483103949084947,0.45795816460743727,non_fall
5.162502,0.0155,-0.0193,0.1427,0.0165,0.0034,-0.0032,-41.6438,8.8313,7.65,,0.013880999999999588,0.14483103949084947,0.3186576689884406,non_fall
5.167796,0.0268,-0.0336,0.1113,0.0165,0.0034,-0.0032,-41.6438,8.8313,7.65,,0.005294000000000132,0.11931005825159922,0.20204409506992407,non_fall
5.170286,0.0268,-0.0336,0.1113,0.0165,0.0034,-0.0032,-41.4563,9.0563,7.2375,,0.002489999999999881,0.11931005825159922,0.10966973108678525,non_fall
5.172276,0.0268,-0.0336,0.1113,0.0165,0.0034,-0.0032,-41.4563,9.0563,7.2375,,0.0019900000000001583,0.11931005825159922,0.04165011088503376,non_fall
5.186077,0.0267,-0.0117,0.0751,0.0165,0.0034,-0.0032,-41.4563,9.0563,7.2375,,0.013800999999999952,0.0805592328662581,-0.003184237918708311,non_fall
5.205857,-0.0048,-0.0302,0.0749,0.0165,0.0034,-0.0032,-41.4563,9.0563,7.2375,,0.01977999999999991,0.0809017305130119,-0.02705664003842491,non_fall
5.219567,-0.0048,-0.0302,0.0749,0.0165,0.0034,-0.0032,-41.4563,9.0563,7.2375,,0.013709999999999667,0.0809017305130119,-0.03296669164508652,non_fall
5.224168,-0.0048,-0.0302,0.0749,0.0287,0.007,-0.0044,-41.4563,9.0563,7.2375,,0.004601000000000077,0.0809017305130119,-0.02439659219007609,non_fall
5.225277,0.025,-0.0495,0.0268,0.0287,0.007,-0.0044,-41.4563,9.0563,7.2375,,0.0011090000000004707,0.06159131432271924,-0.005026840857278326,non_fall
5.228713,0.025,-0.0495,0.0268,0.0287,0.007,-0.0044,-41.55,9.0375,7.5563,,0.0034359999999997726,0.06159131432271924,0.021519255942606716,non_fall
5.244626,0.0054,-0.0679,-0.002,0.0287,0.007,-0.0044,-41.55,9.0375,7.5563,,0.015913000000000288,0.06814374512748768,0.051889017172536585,non_fall
5.264122,0.0146,-0.0773,0.1367,0.0287,0.007,-0.0044,-41.55,9.0375,7.5563,,0.01949600000000018,0.15771918082465428,0.08316408712881955,non_fall
5.267607,0.0146,-0.0773,0.1367,0.0287,0.007,-0.0044,-41.55,9.0375,7.5563,,0.0034849999999995163,0.15771918082465428,0.11297118497678492,non_fall
5.282403,0.0135,-0.0653,0.1557,0.0287,0.007,-0.0044,-41.55,9.0375,7.5563,,0.014796000000000475,0.16937777304003027,0.1395401165858034,non_fall
5.286908,0.0135,-0.0653,0.1557,0.0238,0.0058,-0.0019,-41.55,9.0375,7.5563,,0.004504999999999981,0.16937777304003027,0.16171219523997094,non_fall
5.288903,0.0135,-0.0653,0.1557,0.0238,0.0058,-0.0019,-41.9438,8.85,7.6688,,0.001994999999999969,0.16937777304003027,0.17890500461224823,non_fall
5.301985,0.0169,-0.0819,0.1651,0.0238,0.0058,-0.0019,-41.9438,8.85,7.6688,,0.013081999999999816,0.18507087831422858,0.19104189583763861,non_fall
5.316732,0.0169,-0.0819,0.1651,0.0238,0.0058,-0.0019,-41.9438,8.85,7.6688,,0.014746999999999844,0.18507087831422858,0.19845632806109875,non_fall
5.320771,0.0013,-0.0836,0.0884,0.0238,0.0058,-0.0019,-41.9438,8.85,7.6688,,0.004038999999999682,0.12167666168990666,0.20178194859727852,non_fall
5.34063,0.0122,-0.1107,0.1099,0.0238,0.0058,-0.0019,-41.9438,8.85,7.6688,,0.019859000000000293,0.15646513988745225,0.20183921867675256,non_fall
5.350408,0.0122,-0.1107,0.1099,0.0238,0.0058,-0.0019,-41.3625,8.9438,7.3313,,0.009777999999999842,0.15646513988745225,0.19952843929968564,non_fall
5.353138,0.0122,-0.1107,0.1099,0.0287,0.0058,-0.0019,-41.3625,8.9438,7.3313,,0.0027300000000005653,0.15646513988745225,0.1957371576831739,non_fall
5.36095,0.0184,-0.119,0.1289,0.0287,0.0058,-0.0019,-41.3625,8.9438,7.3313,,0.007811999999999486,0.17639379240778286,0.1912672996503061,non_fall
5.36453,0.0184,-0.119,0.1289,0.0287,0.0058,-0.0019,-41.3625,8.9438,7.3313,,0.0035800000000003607,0.17639379240778286,0.18678447480605836,non_fall
5.378574,0.015,-0.1153,0.1671,0.0287,0.0058,-0.0019,-41.3625,8.9438,7.3313,,0.014044000000000167,0.2035718546361456,0.18278928573258105,non_fall
5.397332,0.023,-0.1158,0.1384,0.0287,0.0058,-0.0019,-41.3625,8.9438,7.3313,,0.018757999999999164,0.18191536493655502,0.17960848639382,non_fall
5.40785,0.023,-0.1158,0.1384,0.0287,0.0058,-0.0019,-41.55,8.85,7.4438,,0.01051800000000025,0.18191536493655502,0.17740263296402126,non_fall
5.410349,0.023,-0.1158,0.1384,0.0287,0.0058,-0.0019,-41.55,8.85,7.4438,,0.002499000000000251,0.18191536493655502,0.1761864307502348,non_fall
5.411067,0.023,-0.1158,0.1384,0.0373,0.0045,-0.0019,-41.55,8.85,7.4438,,0.0007179999999999964,0.18191536493655502,0.17585808131866212,non_fall
5.41585,0.0528,-0.1128,0.1383,0.0373,0.0045,-0.0019,-41.55,8.85,7.4438,,0.00478299999999976,0.1861144003026096,0.17623426678732726,non_fall
5.436054,0.0335,-0.1321,0.0139,0.0373,0.0045,-0.0019,-41.55,8.85,7.4438,,0.020204000000000555,0.13698857616604387,0.17708776846505514,non_fall
5.453899,0.0418,-0.1444,0.136,0.0373,0.0045,-0.0019,-41.55,8.85,7.4438,,0.017844999999999445,0.20271803077180875,0.17818501188637154,non_fall
5.46218,0.0418,-0.1444,0.136,0.0373,0.0045,-0.0019,-41.55,8.85,7.4438,,0.008281000000000205,0.20271803077180875,0.1793209687604615,non_fall
5.468348,0.0418,-0.1444,0.136,0.0373,0.0045,-0.0019,-41.1562,8.8313,7.3313,,0.006167999999999729,0.20271803077180875,0.1803488168482638,non_fall
5.474529,0.0418,-0.1444,0.136,0.0556,0.0034,0.0005,-41.1562,8.8313,7.3313,,0.006181000000000658,0.20271803077180875,0.18120180712731007,non_fall
5.477401,0.0404,-0.1334,0.0548,0.0556,0.0034,0.0005,-41.1562,8.8313,7.3313,,0.0028719999999999857,0.14976902216413113,0.18190525175983452,non_fall
5.492854,0.1012,-0.1671,-0.0551,0.0556,0.0034,0.0005,-41.1562,8.8313,7.3313,,0.015452999999999939,0.20297748643630406,0.18257743371275495,non_fall
5.506705,0.1012,-0.1671,-0.0551,0.0556,0.0034,0.0005,-41.1562,8.8313,7.3313,,0.013850999999999836,0.20297748643630406,0.18341916265385305,non_fall
5.512274,0.0853,-0.1843,0.0001,0.0556,0.0034,0.0005,-41.1562,8.8313,7.3313,,0.005568999999999491,0.2030827171376235,0.18469232333625613,non_fall
5.527096,0.0853,-0.1843,0.0001,0.0556,0.0034,0.0005,-41.25,9.0563,6.9188,,0.014822000000000557,0.2030827171376235,0.18668816948998412,non_fall
5.531483,0.0662,-0.1924,-0.086,0.0556,0.0034,0.0005,-41.25,9.0563,6.9188,,0.004386999999999475,0.22089861928042917,0.18968666106400875,non_fall
5.53503,0.0662,-0.1924,-0.086,0.0507,-0.0198,-0.0092,-41.25,9.0563,6.9188,,0.003547000000000189,0.22089861928042917,0.19390902489721823,non_fall
5.551,0.0168,-0.1422,0.1869,0.0507,-0.0198,-0.0092,-41.25,9.0563,6.9188,,0.015970000000000262,0.23544572623005922,0.19946689515894486,non_fall
5.554439,0.0168,-0.1422,0.1869,0.0507,-0.0198,-0.0092,-41.25,9.0563,6.9188,,0.003439000000000192,0.23544572623005922,0.2063127920637895,non_fall
5.569966,0.04,-0.118,0.0408,0.0507,-0.0198,-0.0092,-41.25,9.0563,6.9188,,0.015526999999999624,0.13110545373858404,0.2141982938723981,non_fall
5.587217,0.04,-0.118,0.0408,0.0507,-0.0198,-0.0092,-41.55,9.15,7.35,,0.017250999999999905,0.13110545373858404,0.22264782247492507,non_fall
5.590595,0.0484,-0.1453,-0.0141,0.0507,-0.0198,-0.0092,-41.55,9.15,7.35,,0.0033780000000005472,0.15379681401121417,0.23095683940732153,non_fall
5.596775,0.0484,-0.1453,-0.0141,0.0433,-0.0063,-0.0092,-41.55,9.15,7.35,,0.00617999999999963,0.15379681401121417,0.23822254712678886,non_fall
5.602279,0.0484,-0.1453,-0.0141,0.0433,-0.0063,-0.0092,-41.55,9.15,7.35,,0.005504000000000175,0.15379681401121417,0.24341247769379667,non_fall
5.607087,0.0541,-0.1637,0.003,0.0433,-0.0063,-0.0092,-41.55,9.15,7.35,,0.004807999999999701,0.17243404536227758,0.24547205181352644,non_fall
5.626974,-0.003,-0.1146,-0.0615,0.0433,-0.0063,-0.0092,-41.55,9.15,7.35,,0.019886999999999766,0.130093850738611,0.24346712272522855,non_fall
5.646506,0.0703,-0.2808,-0.0661,0.0433,-0.0063,-0.0092,-41.55,9.15,7.35,,0.019531999999999883,0.29691739592014477,0.23675224841347906,non_fall
5.649583,0.0703,-0.2808,-0.0661,0.0433,-0.0063,-0.0092,-41.3625,9.1688,6.9188,,0.0030770000000002184,0.29691739592014477,0.22515032554259987,non_fall
5.651802,0.0703,-0.2808,-0.0661,0.0433,-0.0063,-0.0092,-41.3625,9.1688,6.9188,,0.002219000000000193,0.29691739592014477,0.20912496853298507,non_fall
5.659005,0.0703,-0.2808,-0.0661,0.0214,-0.032,-0.0227,-41.3625,9.1688,6.9188,,0.007202999999999626,0.29691739592014477,0.1899247694741773,non_fall
5.664381,0.0881,-0.2118,-0.0182,0.0214,-0.032,-0.0227,-41.3625,9.1688,6.9188,,0.005376000000000047,0.23011321126784529,0.16967916978655667,non_fall
5.684183,0.0111,-0.172,0.0055,0.0214,-0.032,-0.0227,-41.3625,9.1688,6.9188,,0.01980200000000032,0.1724455276311914,0.15142887600016558,non_fall
5.697512,0.0111,-0.172,0.0055,0.0214,-0.032,-0.0227,-41.3625,9.1688,6.9188,,0.013328999999999702,0.1724455276311914,0.139078384370417,non_fall
5.704446,0.0806,-0.3558,0.034,0.0214,-0.032,-0.0227,-41.3625,9.1688,6.9188,,0.006934000000000218,0.3663959606764245,0.137262934374829,non_fall
5.706157,0.0806,-0.3558,0.034,0.0214,-0.032,-0.0227,-41.0813,9.1125,7.65,,0.00171100000000024,0.3663959606764245,0.1511265272585483,non_fall
5.722493,0.0806,-0.3558,0.034,-0.014,-0.0833,-0.1155,-41.0813,9.1125,7.65,,0.016335999999999906,0.3663959606764245,0.18601229245637124,non_fall
5.726867,0.122,-0.3714,-0.1844,-0.014,-0.0833,-0.1155,-41.0813,9.1125,7.65,,0.004374000000000322,0.4322329464536456,0.24707306381458424,non_fall
5.740872,0.0575,-0.5028,-0.1039,-0.014,-0.0833,-0.1155,-41.0813,9.1125,7.65,,0.014005000000000045,0.5166326547944874,0.3388193770080745,non_fall
5.745265,0.0575,-0.5028,-0.1039,-0.014,-0.0833,-0.1155,-41.0813,9.1125,7.65,,0.004392999999999425,0.5166326547944874,0.46463341809932424,non_fall
5.761332,-0.1349,-0.4063,0.0002,-0.014,-0.0833,-0.1155,-41.0813,9.1125,7.65,,0.016067000000000498,0.4281094953396853,0.6262890502419128,non_fall
5.766609,-0.1349,-0.4063,0.0002,-0.014,-0.0833,-0.1155,-41.8313,8.55,7.6688,,0.005276999999999532,0.4281094953396853,0.8235280217952976,non_fall
5.780396,-0.1862,-0.73,-0.3174,-0.014,-0.0833,-0.1155,-41.8313,8.55,7.6688,,0.013786999999999772,0.8175042507534747,1.053748333146896,non_fall
5.783993,-0.1862,-0.73,-0.3174,0.146,-0.3326,-0.2975,-41.8313,8.55,7.6688,,0.0035970000000000724,0.8175042507534747,1.3118597234243385,non_fall
5.79368,-0.1862,-0.73,-0.3174,0.146,-0.3326,-0.2975,-41.8313,8.55,7.6688,,0.009687000000000445,0.8175042507534747,1.5903519000685102,non_fall
5.799024,-0.2622,-0.7734,-0.9332,0.146,-0.3326,-0.2975,-41.8313,8.55,7.6688,,0.005344000000000015,1.240063966092072,1.8796039409723893,non_fall
5.818114,-0.5526,-0.1354,-1.8728,0.146,-0.3326,-0.2975,-41.8313,8.55,7.6688,,0.019089999999999385,1.9573144254309272,2.1684390217954834,non_fall
5.827634,-0.5526,-0.1354,-1.8728,0.146,-0.3326,-0.2975,-41.7938,7.1813,8.7938,,0.009520000000000195,1.9573144254309272,2.44489804144033,non_fall
5.839559,-0.2134,2.0417,-2.5231,0.146,-0.3326,-0.2975,-41.7938,7.1813,8.7938,,0.01192500000000063,3.252708419148572,2.6971719212069987,non_fall
5.844016,-0.2134,2.0417,-2.5231,0.146,-0.3326,-0.2975,-41.7938,7.1813,8.7938,,0.004456999999999489,3.252708419148572,2.9146015105506327,non_fall
5.846805,-0.2134,2.0417,-2.5231,0.6787,-0.4327,-0.6531,-41.7938,7.1813,8.7938,,0.0027889999999999304,3.252708419148572,3.0886329619368613,non_fall
5.855859,-0.5696,3.6475,-4.63,0.6787,-0.4327,-0.6531,-41.7938,7.1813,8.7938,,0.009053999999999895,5.9216214342019535,3.2136100299370867,non_fall
5.875584,-0.2073,1.9711,-2.926,0.6787,-0.4327,-0.6531,-41.7938,7.1813,8.7938,,0.019725000000000215,3.5340747728365907,3.2872959194529496,non_fall
5.887155,-0.2073,1.9711,-2.926,0.6787,-0.4327,-0.6531,-41.55,6.2438,9.6188,,0.011570999999999998,3.5340747728365907,3.3110484318714204,non_fall
5.890507,-0.2073,1.9711,-2.926,0.6787,-0.4327,-0.6531,-41.55,6.2438,9.6188,,0.0033520000000004657,3.5340747728365907,3.2896221635168508,non_fall
5.895626,-0.4351,1.0659,-2.5776,0.6787,-0.4327,-0.6531,-41.55,6.2438,9.6188,,0.005118999999999652,2.8230261387383573,3.2306292562763717,non_fall
5.907645,-0.4351,1.0659,-2.5776,-0.2218,-0.6685,0.0238,-41.55,6.2438,9.6188,,0.012018999999999558,2.8230261387383573,3.1437377557396715,non_fall
5.914239,0.1478,1.4818,-2.4056,-0.2218,-0.6685,0.0238,-41.55,6.2438,9.6188,,0.006594000000000655,2.829220288348011,3.0397129149336464,non_fall
5.933294,0.355,1.4701,-1.8487,-0.2218,-0.6685,0.0238,-41.55,6.2438,9.6188,,0.019054999999999822,2.388495488796242,2.929412786011703,non_fall
5.936846,0.355,1.4701,-1.8487,-0.2218,-0.6685,0.0238,-41.55,6.2438,9.6188,,0.0035519999999999996,2.388495488796242,2.822841406963732,non_fall
5.950317,0.355,1.4701,-1.8487,-0.2218,-0.6685,0.0238,-41.6813,6.4313,11.7,,0.01347100000000001,2.388495488796242,2.728346304732725,non_fall
5.953666,0.3031,0.9106,-1.7968,-0.2218,-0.6685,0.0238,-41.6813,6.4313,11.7,,0.0033490000000000464,2.037044970048526,2.6520253701945484,non_fall
5.970456,0.3031,0.9106,-1.7968,-0.565,-0.1041,-0.0935,-41.6813,6.4313,11.7,,0.016790000000000305,2.037044970048526,2.597383221236666,non_fall
5.972146,0.2072,0.2008,-2.5702,-0.565,-0.1041,-0.0935,-41.6813,6.4313,11.7,,0.0016899999999999693,2.5863450117878704,2.5652499318738378,non_fall
5.984821,0.2072,0.2008,-2.5702,-0.565,-0.1041,-0.0935,-41.6813,6.4313,11.7,,0.01267499999999977,2.5863450117878704,2.5539465529990264,non_fall
5.990171,-0.2587,0.4181,-2.9281,-0.565,-0.1041,-0.0935,-41.6813,6.4313,11.7,,0.005349999999999966,2.9690912599649075,2.5596549519291587,non_fall
6.007389,-0.2587,0.4181,-2.9281,-0.565,-0.1041,-0.0935,-41.5688,5.8875,12.3188,,0.017217999999999734,2.9690912599649075,2.5769293825248694,non_fall
6.010261,-0.6772,1.1455,-2.9188,-0.565,-0.1041,-0.0935,-41.5688,5.8875,12.3188,,0.0028719999999999857,3.2078284757760973,2.5992789847020132,non_fall
6.027926,-0.4533,0.981,-2.4743,-0.565,-0.1041,-0.0935,-41.5688,5.8875,12.3188,,0.017665000000000042,2.7000004407407046,2.619755687548263,non_fall
6.032285,-0.4533,0.981,-2.4743,-0.565,-0.1041,-0.0935,-41.5688,5.8875,12.3188,,0.004359000000000002,2.7000004407407046,2.6314982130735047,non_fall
6.033382,-0.4533,0.981,-2.4743,-0.8973,-0.043,0.1264,-41.5688,5.8875,12.3188,,0.0010969999999996816,2.7000004407407046,2.6282045745180724,non_fall
6.047873,-0.1627,0.6626,-2.0672,-0.8973,-0.043,0.1264,-41.5688,5.8875,12.3188,,0.014491000000000476,2.1768844457159413,2.6045259303955235,non_fall
6.067253,-0.442,0.7237,-2.1205,-0.8973,-0.043,0.1264,-41.5688,5.8875,12.3188,,0.019379999999999953,2.283774494121519,2.5563885214248505,non_fall
6.068914,-0.442,0.7237,-2.1205,-0.8973,-0.043,0.1264,-41.5875,5.8875,14.175,,0.0016610000000003566,2.283774494121519,2.4812552447251495,non_fall
6.084441,-0.442,0.7237,-2.1205,-0.8973,-0.043,0.1264,-41.5875,5.8875,14.175,,0.015526999999999624,2.283774494121519,2.378334248693038,non_fall
6.087704,-0.0144,0.7173,-2.5045,-0.8973,-0.043,0.1264,-41.5875,5.8875,14.175,,0.003262999999999572,2.605234519194002,2.2487310783001138,non_fall
6.093826,-0.0144,0.7173,-2.5045,-1.0036,0.2148,0.2204,-41.5875,5.8875,14.175,,0.006122000000000405,2.605234519194002,2.0955283683261783,non_fall
6.104959,-0.29,1.07,-2.1226,-1.0036,0.2148,0.2204,-41.5875,5.8875,14.175,,0.01113300000000006,2.3946671501484293,1.9237693790642343,non_fall
6.124188,-0.716,1.0183,-0.9396,-1.0036,0.2148,0.2204,-41.5875,5.8875,14.175,,0.019229000000000163,1.5596278562528947,1.7403239320253265,non_fall
6.127683,-0.716,1.0183,-0.9396,-1.0036,0.2148,0.2204,-41.2875,5.475,14.2688,,0.003495000000000026,1.5596278562528947,1.5536281006175998,non_fall
6.129928,-0.716,1.0183,-0.9396,-1.0036,0.2148,0.2204,-41.2875,5.475,14.2688,,0.0022449999999993864,1.5596278562528947,1.3733069650404788,non_fall
6.142477,-0.7386,0.2099,-0.023,-1.0036,0.2148,0.2204,-41.2875,5.475,14.2688,,0.01254900000000081,0.7681907119980038,1.2097049640408915,non_fall
6.156015,-0.7386,0.2099,-0.023,-0.9523,-0.2043,0.2694,-41.2875,5.475,14.2688,,0.013537999999999606,0.7681907119980038,1.07335639548146,non_fall
6.162169,0.022,-0.3724,0.9593,-0.9523,-0.2043,0.2694,-41.2875,5.475,14.2688,,0.006153999999999549,1.0292823956524275,0.9744295082113206,non_fall
6.175064,0.022,-0.3724,0.9593,-0.9523,-0.2043,0.2694,-41.2875,5.475,14.2688,,0.012895000000000323,1.0292823956524275,0.922172656147932,non_fall
6.181239,0.148,-0.4461,1.396,-0.9523,-0.2043,0.2694,-41.2875,5.475,14.2688,,0.0061749999999998195,1.472998713509282,0.9243822350163754,non_fall
6.18639,0.148,-0.4461,1.396,-0.9523,-0.2043,0.2694,-40.4813,4.9688,13.8375,,0.005151000000000572,1.472998713509282,0.9869046982231836,non_fall
6.200573,0.32,-0.2274,0.8105,-0.9523,-0.2043,0.2694,-40.4813,4.9688,13.8375,,0.014183000000000057,0.9005670491418171,1.1131851756167976,non_fall
6.219056,0.32,-0.2274,0.8105,-0.8497,-0.3179,0.1471,-40.4813,4.9688,13.8375,,0.018482999999999805,0.9005670491418171,1.3038853232422583,non_fall
6.222877,-0.1061,-0.1579,0.9422,-0.8497,-0.3179,0.1471,-40.4813,4.9688,13.8375,,0.0038210000000002964,0.961213014893161,1.5566079759387017,non_fall
6.225748,-0.1061,-0.1579,0.9422,-0.8497,-0.3179,0.1471,-40.4813,4.9688,13.8375,,0.002870999999999846,0.961213014893161,1.8657758113293113,non_fall
6.239177,0.2348,-0.026,2.1606,-0.8497,-0.3179,0.1471,-40.4813,4.9688,13.8375,,0.01342899999999947,2.173476339875822,2.2227068045961933,non_fall
6.250737,0.2348,-0.026,2.1606,-0.8497,-0.3179,0.1471,-40.6688,4.2188,16.7438,,0.011560000000000237,2.173476339875822,2.615909113248366,non_fall
6.258139,0.4097,-0.0558,3.3993,-0.8497,-0.3179,0.1471,-40.6688,4.2188,16.7438,,0.007401999999999909,3.4243551538939414,3.0315881536468297,non_fall
6.270847,0.4097,-0.0558,3.3993,-0.8497,-0.3179,0.1471,-40.6688,4.2188,16.7438,,0.012707999999999942,3.4243551538939414,3.454328693816263,non_fall
6.277414,1.0598,-0.4688,4.3693,-0.8497,-0.3179,0.1471,-40.6688,4.2188,16.7438,,0.006567000000000434,4.520368565725587,3.8678931550991305,non_fall
6.284445,1.0598,-0.4688,4.3693,-0.725,-0.5171,0.2229,-40.6688,4.2188,16.7438,,0.007030999999999565,4.520368565725587,4.25606803244796,non_fall
6.296135,1.5979,-0.3121,4.458,-0.725,-0.5171,0.2229,-40.6688,4.2188,16.7438,,0.011689999999999756,4.745993554567895,4.603493394818883,non_fall
6.306926,1.5979,-0.3121,4.458,-0.725,-0.5171,0.2229,-39.975,3.5063,18.4875,,0.010791000000000217,4.745993554567895,4.896423058564626,non_fall
6.316092,1.8205,-0.2743,4.7404,-0.725,-0.5171,0.2229,-39.975,3.5063,18.4875,,0.009166000000000452,5.085356713151989,5.123380058270422,non_fall
6.318891,1.8205,-0.2743,4.7404,-0.725,-0.5171,0.2229,-39.975,3.5063,18.4875,,0.002798999999999552,5.085356713151989,5.275686902500356,non_fall
6.334886,1.5693,-0.5934,5.3076,-0.725,-0.5171,0.2229,-39.975,3.5063,18.4875,,0.015995000000000203,5.56645702489474,5.3478581061330885,non_fall
6.343289,1.5693,-0.5934,5.3076,-0.201,-0.2751,0.1789,-39.975,3.5063,18.4875,,0.008403000000000382,5.56645702489474,5.337843617060506,non_fall
6.353155,1.4596,-0.2867,5.2291,-0.201,-0.2751,0.1789,-39.975,3.5063,18.4875,,0.009865999999999708,5.436553674893682,5.247110063506901,non_fall
6.368599,1.4596,-0.2867,5.2291,-0.201,-0.2751,0.1789,-39.975,3.5063,18.4875,,0.01544399999999957,5.436553674893682,5.080547305000986,non_fall
6.370153,1.4596,-0.2867,5.2291,-0.201,-0.2751,0.1789,-39.6938,3.4688,18.9938,,0.0015540000000004994,5.436553674893682,4.846193713661541,non_fall
6.3726,1.541,-0.1446,4.2242,-0.201,-0.2751,0.1789,-39.6938,3.4688,18.9938,,0.002447000000000088,4.498828269672004,4.554785395604336,non_fall
6.391846,1.6289,-0.7165,3.4574,-0.201,-0.2751,0.1789,-39.6938,3.4688,18.9938,,0.019245999999999874,3.8884832801492153,4.21915094141568,non_fall
6.405668,1.6289,-0.7165,3.4574,0.0507,0.3161,0.3659,-39.6938,3.4688,18.9938,,0.013822000000000223,3.8884832801492153,3.8534911706885664,non_fall
6.411333,1.5398,-0.6117,2.5353,0.0507,0.3161,0.3659,-39.6938,3.4688,18.9938,,0.005664999999999587,3.0286807391998254,3.4725971818895665,non_fall
6.417547,1.5398,-0.6117,2.5353,0.0507,0.3161,0.3659,-39.6938,3.4688,18.9938,,0.006213999999999942,3.0286807391998254,3.091064885805415,non_fall
6.427579,1.5398,-0.6117,2.5353,0.0507,0.3161,0.3659,-39.3563,4.5563,18.8813,,0.010031999999999819,3.0286807391998254,2.72255990894765,non_fall
6.429689,0.9329,-0.0601,1.9148,0.0507,0.3161,0.3659,-39.3563,4.5563,18.8813,,0.0021100000000000563,2.1308152101953843,2.3791776237522972,non_fall
6.449445,0.574,1.0741,0.5554,0.0507,0.3161,0.3659,-39.3563,4.5563,18.8813,,0.019756000000000107,1.338520067089022,2.0709342019302626,non_fall
6.462921,0.574,1.0741,0.5554,0.0507,0.3161,0.3659,-39.3563,4.5563,18.8813,,0.013475999999999821,1.338520067089022,1.8054178971809862,non_fall
6.467478,0.574,1.0741,0.5554,-0.1766,0.2294,0.2167,-39.3563,4.5563,18.8813,,0.004557000000000144,1.338520067089022,1.5876216258303555,non_fall
6.470015,0.1709,1.2817,-0.5857,-0.1766,0.2294,0.2167,-39.3563,4.5563,18.8813,,0.0025370000000002335,1.4195091369906712,1.419962701736328,non_fall
6.487479,-0.7674,0.2922,-1.1062,-0.1766,0.2294,0.2167,-39.3563,4.5563,18.8813,,0.017464000000000368,1.377665431082598,1.3024732037596298,non_fall
6.489372,-0.7674,0.2922,-1.1062,-0.1766,0.2294,0.2167,-39.5625,4.875,18.6938,,0.0018929999999999225,1.377665431082598,1.233121857833698,non_fall
6.506456,-1.0009,-0.1446,-1.4182,-0.1766,0.2294,0.2167,-39.5625,4.875,18.6938,,0.017083999999999655,1.7418384569184364,1.2082130010654104,non_fall
6.510615,-1.0009,-0.1446,-1.4182,-0.1766,0.2294,0.2167,-39.5625,4.875,18.6938,,0.00415899999999958,1.7418384569184364,1.2228032265389797,non_fall
6.525988,-0.8489,-0.1533,-1.5977,-0.1766,0.2294,0.2167,-39.5625,4.875,18.6938,,0.015373000000000303,1.8157030015946989,1.2710816250824066,non_fall
6.530043,-0.8489,-0.1533,-1.5977,-0.2975,-0.2629,-0.0337,-39.5625,4.875,18.6938,,0.004055000000000142,1.8157030015946989,1.3466746317191522,non_fall
6.544494,-0.3389,-0.2443,-1.0322,-0.2975,-0.2629,-0.0337,-39.5625,4.875,18.6938,,0.014451000000000214,1.1135405425937577,1.4428599594388642,non_fall
6.546967,-0.3389,-0.2443,-1.0322,-0.2975,-0.2629,-0.0337,-39.0375,4.125,19.3875,,0.0024730000000001695,1.1135405425937577,1.5527016243554668,non_fall
6.559374,-0.3389,-0.2443,-1.0322,-0.2975,-0.2629,-0.0337,-39.0375,4.125,19.3875,,0.012406999999999613,1.1135405425937577,1.6691418621191567,non_fall
6.563947,-0.0725,-1.3323,-0.034,-0.2975,-0.2629,-0.0337,-39.0375,4.125,19.3875,,0.004572999999999716,1.3347042893465204,1.785097256564525,non_fall
6.584307,0.1828,-1.7817,0.7977,-0.2975,-0.2629,-0.0337,-39.0375,4.125,19.3875,,0.020360000000000156,1.9606621381563933,1.8936013287860363,non_fall
6.595111,0.1828,-1.7817,0.7977,-0.0323,-0.2641,-0.3061,-39.0375,4.125,19.3875,,0.010804000000000258,1.9606621381563933,1.9880174603366465,non_fall
6.602023,0.1965,-0.8916,1.7676,-0.0323,-0.2641,-0.3061,-39.0375,4.125,19.3875,,0.006911999999999807,1.989465398040388,2.06232328884517,non_fall
6.605774,0.1965,-0.8916,1.7676,-0.0323,-0.2641,-0.3061,-39.0375,4.125,19.3875,,0.003751000000000282,1.989465398040388,2.1114492339622815,non_fall
6.606895,0.1965,-0.8916,1.7676,-0.0323,-0.2641,-0.3061,-39.9,3.2813,20.4563,,0.0011209999999994835,1.989465398040388,2.1316427909932942,non_fall
6.621528,0.4623,-1.1793,1.9107,-0.0323,-0.2641,-0.3061,-39.9,3.2813,20.4563,,0.014632999999999896,2.2924319553696684,2.1208242729017437,non_fall
6.640505,-0.111,0.0633,2.2986,-0.0323,-0.2641,-0.3061,-39.9,3.2813,20.4563,,0.018977000000000466,2.302148963468698,2.078895203473926,non_fall
6.654461,-0.111,0.0633,2.2986,-0.0323,-0.2641,-0.3061,-39.9,3.2813,20.4563,,0.013956000000000301,2.302148963468698,2.0079570136588893,non_fall
6.657723,-0.111,0.0633,2.2986,0.19,-0.561,-0.4503,-39.9,3.2813,20.4563,,0.003261999999999432,2.302148963468698,1.9123976014869808,non_fall
6.660233,0.142,-0.943,1.9578,0.19,-0.561,-0.4503,-39.9,3.2813,20.4563,,0.0025100000000000122,2.1777037998772926,1.79880930857951,non_fall
6.666816,0.142,-0.943,1.9578,0.19,-0.561,-0.4503,-38.9062,2.6813,21.8813,,0.0065830000000000055,2.1777037998772926,1.6757144952618965,non_fall
6.678472,0.1609,-0.6707,1.5242,0.19,-0.561,-0.4503,-38.9062,2.6813,21.8813,,0.011656000000000333,1.6729952002322064,1.553092979890652,non_fall
6.698007,-0.7518,0.5046,1.2024,0.19,-0.561,-0.4503,-38.9062,2.6813,21.8813,,0.019534999999999414,1.505187749086472,1.4417272295201362,non_fall
6.701972,-0.7518,0.5046,1.2024,0.19,-0.561,-0.4503,-38.9062,2.6813,21.8813,,0.003964999999999996,1.505187749086472,1.3524035854544247,non_fall
6.71621,-0.7518,0.5046,1.2024,0.2559,-0.4194,-0.3257,-38.9062,2.6813,21.8813,,0.014238000000000639,1.505187749086472,1.2950275108739677,non_fall
6.718053,-0.4967,-0.6218,0.2156,0.2559,-0.4194,-0.3257,-38.9062,2.6813,21.8813,,0.001843000000000039,0.8245177317680924,1.2777255655267097,non_fall
6.726704,-0.4967,-0.6218,0.2156,0.2559,-0.4194,-0.3257,-38.2125,1.8,22.9875,,0.00865099999999952,0.8245177317680924,1.3060164373238023,non_fall
6.735731,-0.5348,-0.6223,0.166,0.2559,-0.4194,-0.3257,-38.2125,1.8,22.9875,,0.009027000000000562,0.8371525129867317,1.3821374814061895,non_fall
6.748677,-0.5348,-0.6223,0.166,0.2559,-0.4194,-0.3257,-38.2125,1.8,22.9875,,0.012945999999999458,0.8371525129867317,1.5046089234287197,non_fall
6.755055,-0.71,-0.667,-0.4886,0.2559,-0.4194,-0.3257,-38.2125,1.8,22.9875,,0.006377999999999773,1.0898251969926187,1.6681022753562962,non_fall
6.780579,-0.373,-1.3585,-0.1682,0.2559,-0.4194,-0.3257,-38.2125,1.8,22.9875,,0.02552400000000077,1.4187820445720338,1.8636532820398286,non_fall
6.783632,-0.373,-1.3585,-0.1682,0.4784,-0.1408,-0.2157,-38.2125,1.8,22.9875,,0.0030529999999995283,1.4187820445720338,2.079226678433532,non_fall
6.786442,-0.373,-1.3585,-0.1682,0.4784,-0.1408,-0.2157,-37.9313,1.7063,24.6375,,0.0028100000000002012,1.4187820445720338,2.300604186413862,non_fall
6.795465,0.1704,-3.4703,-0.1751,0.4784,-0.1408,-0.2157,-37.9313,1.7063,24.6375,,0.009023000000000003,3.4788903776922893,2.512530891737511,non_fall
6.799158,0.1704,-3.4703,-0.1751,0.4784,-0.1408,-0.2157,-37.9313,1.7063,24.6375,,0.0036930000000001684,3.4788903776922893,2.7000205067751617,non_fall
6.812422,-0.8554,-0.8735,-0.7368,0.4784,-0.1408,-0.2157,-37.9313,1.7063,24.6375,,0.013263999999999498,1.4274402439331744,2.8496926726904546,non_fall
6.831909,-0.0092,-4.4752,-1.1316,0.4784,-0.1408,-0.2157,-37.9313,1.7063,24.6375,,0.01948699999999981,4.616060900811427,2.9510030426117524,non_fall
6.840766,-0.0092,-4.4752,-1.1316,0.6555,-0.0908,-0.4625,-37.9313,1.7063,24.6375,,0.008857000000000781,4.616060900811427,2.9972304358728783,non_fall
6.84589,-0.0092,-4.4752,-1.1316,0.6555,-0.0908,-0.4625,-37.9313,1.7063,24.6375,,0.005123999999999462,4.616060900811427,2.986100117644767,non_fall
6.848011,-0.0092,-4.4752,-1.1316,0.6555,-0.0908,-0.4625,-38.325,1.9125,24.5438,,0.0021209999999998175,4.616060900811427,2.919951085543886,non_fall
6.850726,-0.9228,-0.0759,-0.9394,0.6555,-0.0908,-0.4625,-38.325,1.9125,24.5438,,0.002715000000000245,1.3190121341367562,2.8054080888242865,non_fall
6.87026,0.8571,-4.1561,-0.6719,0.6555,-0.0908,-0.4625,-38.325,1.9125,24.5438,,0.019534000000000162,4.296421444644369,2.6525938134438705,non_fall
6.889315,-0.341,-0.07,-0.5911,0.6555,-0.0908,-0.4625,-38.325,1.9125,24.5438,,0.019054999999999822,0.6859884911571039,2.4739921255461343,non_fall
6.895683,-0.341,-0.07,-0.5911,0.6555,-0.0908,-0.4625,-38.325,1.9125,24.5438,,0.006368000000000151,0.6859884911571039,2.2831261537806578,non_fall
6.903123,-0.341,-0.07,-0.5911,1.0146,0.034,-0.5114,-38.325,1.9125,24.5438,,0.007439999999999891,0.6859884911571039,2.093234502834194,non_fall
6.906322,-0.341,-0.07,-0.5911,1.0146,0.034,-0.5114,-37.95,2.1,24.4313,,0.003199000000000396,0.6859884911571039,1.9161132412547568,non_fall
6.907952,-0.0786,-3.6728,-0.9545,1.0146,0.034,-0.5114,-37.95,2.1,24.4313,,0.0016299999999995762,3.7956169524861174,1.7612428508372322,non_fall
6.927438,-0.6976,-0.5203,-0.13,1.0146,0.034,-0.5114,-37.95,2.1,24.4313,,0.01948600000000056,0.8799192292477759,1.6352516892892988,non_fall
6.94133,-0.6976,-0.5203,-0.13,1.0146,0.034,-0.5114,-37.95,2.1,24.4313,,0.01389199999999935,0.8799192292477759,1.5417070082630102,non_fall
6.946347,-0.1618,-1.6425,-0.1066,1.0146,0.034,-0.5114,-37.95,2.1,24.4313,,0.005017000000000493,1.653889068226766,1.4811913122863198,non_fall
6.96528,-0.1618,-1.6425,-0.1066,1.3164,0.1415,-0.4698,-37.95,2.1,24.4313,,0.018932999999999645,1.653889068226766,1.4516120397071186,non_fall
6.968924,0.0785,-1.3625,-0.9598,1.3164,0.1415,-0.4698,-37.95,2.1,24.4313,,0.0036440000000004247,1.6684677221930306,1.448688438244765,non_fall
6.971398,0.0785,-1.3625,-0.9598,1.3164,0.1415,-0.4698,-38.85,3.0188,24.5813,,0.002473999999999421,1.6684677221930306,1.4665531808850845,non_fall
6.985708,0.0667,-1.2049,-1.1726,1.3164,0.1415,-0.4698,-38.85,3.0188,24.5813,,0.014310000000000045,1.6826240400041834,1.4984033544987894,non_fall
6.98923,0.0667,-1.2049,-1.1726,1.3164,0.1415,-0.4698,-38.85,3.0188,24.5813,,0.003522000000000247,1.6826240400041834,1.5371406091529058,non_fall
7.003995,0.1197,-1.5719,-0.9348,1.3164,0.1415,-0.4698,-38.85,3.0188,24.5813,,0.014764999999999695,1.8327707821765382,1.5759509720540468,non_fall
7.023004,0.3555,-1.5618,-0.7732,1.3164,0.1415,-0.4698,-38.85,3.0188,24.5813,,0.019009000000000498,1.778605557733361,1.6087870417390067,non_fall
7.029685,0.3555,-1.5618,-0.7732,1.3702,0.2123,-0.5481,-38.85,3.0188,24.5813,,0.006680999999999493,1.778605557733361,1.630727379238827,non_fall
7.031243,0.3555,-1.5618,-0.7732,1.3702,0.2123,-0.5481,-38.4938,3.9375,23.85,,0.0015580000000001704,1.778605557733361,1.6381999109855536,non_fall
7.038304,0.3555,-1.5618,-0.7732,1.3702,0.2123,-0.5481,-38.4938,3.9375,23.85,,0.007061000000000206,1.778605557733361,1.6290680244651123,non_fall
7.041393,0.4519,-1.4643,-0.5016,1.3702,0.2123,-0.5481,-38.4938,3.9375,23.85,,0.0030890000000001194,1.612448653446056,1.6025892607026078,non_fall
7.062029,0.337,-1.5484,-0.2734,1.3702,0.2123,-0.5481,-38.4938,3.9375,23.85,,0.020635999999999655,1.6080606704972298,1.5592665304827444,non_fall
7.080475,0.0592,-1.1381,-0.3183,1.3702,0.2123,-0.5481,-38.4938,3.9375,23.85,,0.018445999999999962,1.1832544696725213,1.5006201268519346,non_fall
7.084527,0.0592,-1.1381,-0.3183,1.3702,0.2123,-0.5481,-38.4938,3.9375,23.85,,0.0040519999999997225,1.1832544696725213,1.4289145418664044,non_fall
7.086725,0.0592,-1.1381,-0.3183,1.3702,0.2123,-0.5481,-38.3063,3.825,23.9438,,0.0021980000000008104,1.1832544696725213,1.3468755938168617,non_fall
7.088226,0.0592,-1.1381,-0.3183,1.402,-0.0418,-0.6702,-38.3063,3.825,23.9438,,0.0015009999999993084,1.1832544696725213,1.2574292688897857,non_fall
7.099101,0.1645,-0.9635,-0.5958,1.402,-0.0418,-0.6702,-38.3063,3.825,23.9438,,0.010875000000000412,1.1447139992155246,1.163484586375009,non_fall
7.118714,-0.0057,-0.7166,-0.7287,1.402,-0.0418,-0.6702,-38.3063,3.825,23.9438,,0.01961299999999966,1.022033140362875,1.067771728441321,non_fall
7.134826,-0.0057,-0.7166,-0.7287,1.402,-0.0418,-0.6702,-38.3063,3.825,23.9438,,0.01611200000000057,1.022033140362875,0.9727371183697013,non_fall
7.137522,-0.2619,-0.3653,-0.6791,1.402,-0.0418,-0.6702,-38.3063,3.825,23.9438,,0.0026959999999993656,0.8143786035990878,0.8804907764480238,non_fall
7.149737,-0.2619,-0.3653,-0.6791,1.402,-0.0418,-0.6702,-38.7938,4.3125,22.7063,,0.012215000000000309,0.8143786035990878,0.7927978197169699,non_fall
7.150955,-0.2619,-0.3653,-0.6791,1.2247,0.1255,-0.4295,-38.7938,4.3125,22.7063,,0.0012179999999997193,0.8143786035990878,0.7111043170818748,non_fall
7.15693,-0.2745,-0.3355,-0.5305,1.2247,0.1255,-0.4295,-38.7938,4.3125,22.7063,,0.005975000000000286,0.6850844838412267,0.63658706500746,non_fall
7.174986,-0.3508,-0.1169,-0.1873,1.2247,0.1255,-0.4295,-38.7938,4.3125,22.7063,,0.018055999999999628,0.4144967309883155,0.5702170861763572,non_fall
7.178771,-0.3508,-0.1169,-0.1873,1.2247,0.1255,-0.4295,-38.7938,4.3125,22.7063,,0.0037850000000005934,0.4144967309883155,0.5128277899945247,non_fall
7.193964,-0.4963,0.1173,0.2598,1.2247,0.1255,-0.4295,-38.7938,4.3125,22.7063,,0.015193000000000012,0.5723364569901169,0.4651798728556801,non_fall
7.206019,-0.4963,0.1173,0.2598,1.2247,0.1255,-0.4295,-39.5813,5.2688,20.25,,0.012055000000000149,0.5723364569901169,0.42801474728270333,non_fall
7.212291,-0.4963,0.1173,0.2598,1.0941,0.161,-0.1522,-39.5813,5.2688,20.25,,0.006271999999999167,0.5723364569901169,0.4020867162292163,non_fall
7.213378,-0.2284,-0.3417,0.3522,1.0941,0.161,-0.1522,-39.5813,5.2688,20.25,,0.0010870000000000601,0.541267299954468,0.3881636541094234,non_fall
7.226759,-0.2284,-0.3417,0.3522,1.0941,0.161,-0.1522,-39.5813,5.2688,20.25,,0.013381000000000753,0.541267299954468,0.38698900749997844,non_fall
7.23231,-0.2465,-0.0104,0.2426,1.0941,0.161,-0.1522,-39.5813,5.2688,20.25,,0.0055509999999996396,0.3460132511913381,0.3992046357312378,non_fall
7.252328,-0.3036,-0.1509,0.0972,1.0941,0.161,-0.1522,-39.5813,5.2688,20.25,,0.020018000000000313,0.3526919477390999,0.42524252157024733,non_fall
7.267268,-0.3036,-0.1509,0.0972,1.0941,0.161,-0.1522,-40.725,6.6563,20.8125,,0.014939999999999287,0.3526919477390999,0.4652011648725359,non_fall
7.271693,-0.1241,0.3348,-0.1558,1.0941,0.161,-0.1522,-40.725,6.6563,20.8125,,0.004425000000000345,0.38957090497109764,0.5187272547018016,non_fall
7.274962,-0.1241,0.3348,-0.1558,1.0941,0.161,-0.1522,-40.725,6.6563,20.8125,,0.0032690000000004105,0.38957090497109764,0.5849237755479907,non_fall
7.275457,-0.1241,0.3348,-0.1558,0.9768,0.1622,-0.0069,-40.725,6.6563,20.8125,,0.0004949999999999122,0.38957090497109764,0.6623022218144222,non_fall
7.291117,-0.1505,0.6853,-0.2022,0.9768,0.1622,-0.0069,-40.725,6.6563,20.8125,,0.015659999999999563,0.7301857161024173,0.7487899396080684,non_fall
7.310073,-0.2767,1.0141,0.0543,0.9768,0.1622,-0.0069,-40.725,6.6563,20.8125,,0.018956000000000195,1.0525731281008461,0.8417946836453185,non_fall
7.323362,-0.2767,1.0141,0.0543,0.9768,0.1622,-0.0069,-40.725,6.6563,20.8125,,0.013289000000000328,1.0525731281008461,0.9383189218666389,non_fall
7.328899,-0.2767,1.0141,0.0543,0.9768,0.1622,-0.0069,-40.4625,7.6875,20.0813,,0.005536999999999459,1.0525731281008461,1.0351092996417297,non_fall
7.330231,-0.2695,1.0473,-0.0496,0.9768,0.1622,-0.0069,-40.4625,7.6875,20.0813,,0.001332000000000555,1.0825560955442448,1.1288246760262568,non_fall
7.339144,-0.2695,1.0473,-0.0496,0.554,-0.1078,-0.1645,-40.4625,7.6875,20.0813,,0.008912999999999727,1.0825560955442448,1.2162088041605537,non_fall
7.350491,-0.2699,1.3291,0.1574,0.554,-0.1078,-0.1645,-40.4625,7.6875,20.0813,,0.011346999999999774,1.3653305753552871,1.2942575780701744,non_fall
7.367061,-0.2063,1.4626,0.3882,0.554,-0.1078,-0.1645,-40.4625,7.6875,20.0813,,0.01656999999999975,1.5272385831951731,1.3603726214050618,non_fall
7.375012,-0.2063,1.4626,0.3882,0.554,-0.1078,-0.1645,-40.4625,7.6875,20.0813,,0.007951000000000263,1.5272385831951731,1.4124926382373995,non_fall
7.394449,-0.2746,1.3946,0.2915,0.554,-0.1078,-0.1645,-40.4625,7.6875,20.0813,,0.019436999999999927,1.4509605680376019,1.4491937581034633,non_fall
7.396493,-0.2746,1.3946,0.2915,0.554,-0.1078,-0.1645,-40.5563,7.7063,19.7812,,0.002044000000000601,1.4509605680376019,1.4697523309238056,non_fall
7.401123,-0.2746,1.3946,0.2915,0.2401,-0.1713,-0.4564,-40.5563,7.7063,19.7812,,0.00462999999999969,1.4509605680376019,1.4741680407405797,non_fall
7.407975,-0.3722,1.3227,-0.1658,0.2401,-0.1713,-0.4564,-40.5563,7.7063,19.7812,,0.006852000000000302,1.3840367661301487,1.4631495443932032,non_fall
7.418417,-0.3722,1.3227,-0.1658,0.2401,-0.1713,-0.4564,-40.5563,7.7063,19.7812,,0.010441999999999396,1.3840367661301487,1.4380671303611672,non_fall
7.424059,-0.3115,1.4697,-0.0702,0.2401,-0.1713,-0.4564,-40.5563,7.7063,19.7812,,0.005641999999999925,1.5039874932990631,1.4008767839503462,non_fall
7.443307,-0.4051,1.3046,0.448,0.2401,-0.1713,-0.4564,-40.5563,7.7063,19.7812,,0.019248000000000154,1.437633878983102,1.354018420408642,non_fall
7.446865,-0.4051,1.3046,0.448,0.2401,-0.1713,-0.4564,-40.0125,6.1688,20.3813,,0.00355799999999995,1.437633878983102,1.300289425458014,non_fall
7.462471,-0.4051,1.3046,0.448,0.1178,-0.1946,-0.5651,-40.0125,6.1688,20.3813,,0.015606000000000009,1.437633878983102,1.2426947411134526,non_fall
7.466488,-0.2705,0.8143,0.2465,0.1178,-0.1946,-0.5651,-40.0125,6.1688,20.3813,,0.004017000000000159,0.8927580803330766,1.1842775921190565,non_fall
7.468326,-0.2705,0.8143,0.2465,0.1178,-0.1946,-0.5651,-40.0125,6.1688,20.3813,,0.0018380000000002283,0.8927580803330766,1.1279398984026467,non_fall
7.481663,-0.5987,1.2073,0.7373,0.1178,-0.1946,-0.5651,-40.0125,6.1688,20.3813,,0.013336999999999932,1.5361075060034048,1.0762658661701447,non_fall
7.505859,-0.2955,-0.6914,-0.1942,0.1178,-0.1946,-0.5651,-40.0125,6.1688,20.3813,,0.024195999999999884,0.7765744330069075,1.0313634761042765,non_fall
7.507024,-0.2955,-0.6914,-0.1942,0.1178,-0.1946,-0.5651,-39.6,5.1,21.6,,0.0011650000000003047,0.7765744330069075,0.9947367535865603,non_fall
7.514136,-0.2955,-0.6914,-0.1942,0.1178,-0.1946,-0.5651,-39.6,5.1,21.6,,0.007111999999999341,0.7765744330069075,0.9671993677262481,non_fall
7.519016,-0.4947,1.1239,0.4935,0.1178,-0.1946,-0.5651,-39.6,5.1,21.6,,0.0048799999999999955,1.3234128418600144,0.9488378893516056,non_fall
7.523551,-0.4947,1.1239,0.4935,0.0947,0.0034,-0.4344,-39.6,5.1,21.6,,0.004535000000000622,1.3234128418600144,0.9390293380175675,non_fall
7.538944,0.3168,-0.4286,-0.0878,0.0947,0.0034,-0.4344,-39.6,5.1,21.6,,0.015392999999999546,0.5401564958417143,0.9365136107919695,non_fall
7.558777,-0.1712,0.3121,0.3532,0.0947,0.0034,-0.4344,-39.6,5.1,21.6,,0.01983300000000021,0.5014639468595923,0.9395211086048076,non_fall
7.562241,-0.1712,0.3121,0.3532,0.0947,0.0034,-0.4344,-39.6,5.1,21.6,,0.0034640000000001336,0.5014639468595923,0.945959417160673,non_fall
7.568418,-0.1712,0.3121,0.3532,0.0947,0.0034,-0.4344,-41.1188,4.5938,20.9062,,0.006177000000000099,0.5014639468595923,0.9536634121163325,non_fall
7.577997,-0.1457,-0.557,0.4912,0.0947,0.0034,-0.4344,-41.1188,4.5938,20.9062,,0.00957899999999956,0.7568057412572926,0.9607037046598935,non_fall
7.585833,-0.1457,-0.557,0.4912,0.3403,0.2513,-0.1265,-41.1188,4.5938,20.9062,,0.007836000000000176,0.7568057412572926,0.9657289083018986,non_fall
7.596785,0.0502,-2.0918,-0.7915,0.3403,0.2513,-0.1265,-41.1188,4.5938,20.9062,,0.010951999999999629,2.237100697331258,0.9682938093536436,non_fall
7.611291,0.0502,-2.0918,-0.7915,0.3403,0.2513,-0.1265,-41.1188,4.5938,20.9062,,0.014505999999999908,2.237100697331258,0.9691063938475658,non_fall
7.616651,-0.2085,-1.3283,-1.0309,0.3403,0.2513,-0.1265,-41.1188,4.5938,20.9062,,0.0053600000000004755,1.694286855877717,0.970121435418996,non_fall
7.627521,-0.2085,-1.3283,-1.0309,0.3403,0.2513,-0.1265,-41.2125,4.9875,19.1438,,0.010869999999999713,1.694286855877717,0.9744257306556905,non_fall
7.634654,-0.419,-0.2679,-0.036,0.3403,0.2513,-0.1265,-41.2125,4.9875,19.1438,,0.0071330000000005,0.4986255208069479,0.9859005525009155,non_fall
7.648605,-0.419,-0.2679,-0.036,0.8803,0.8133,-0.1033,-41.2125,4.9875,19.1438,,0.013950999999999603,0.4986255208069479,1.0086983134445588,non_fall
7.653508,-0.2123,0.2771,-0.2134,0.8803,0.8133,-0.1033,-41.2125,4.9875,19.1438,,0.004903000000000546,0.4091396583075271,1.0466142240407674,non_fall
7.658373,-0.2123,0.2771,-0.2134,0.8803,0.8133,-0.1033,-41.2125,4.9875,19.1438,,0.004864999999999675,0.4091396583075271,1.102455722027171,non_fall
7.673546,-0.0211,0.7696,-0.4838,0.8803,0.8133,-0.1033,-41.2125,4.9875,19.1438,,0.015172999999999881,0.9092809301860454,1.177508906352574,non_fall
7.689406,-0.0211,0.7696,-0.4838,0.8803,0.8133,-0.1033,-42.3,5.8125,17.5312,,0.015859999999999985,0.9092809301860454,1.2711781418128372,non_fall
7.695652,0.3882,1.1607,-0.5736,0.8803,0.8133,-0.1033,-42.3,5.8125,17.5312,,0.006245999999999974,1.3516436993527547,1.3808429863915699,non_fall
7.706334,0.3882,1.1607,-0.5736,0.8803,0.8133,-0.1033,-42.3,5.8125,17.5312,,0.01068200000000008,1.3516436993527547,1.5019451675516868,non_fall
7.710061,0.3882,1.1607,-0.5736,0.6127,0.7047,0.1984,-42.3,5.8125,17.5312,,0.0037269999999995918,1.3516436993527547,1.6282929957875338,non_fall
7.711941,0.8242,1.176,-0.7081,0.6127,0.7047,0.1984,-42.3,5.8125,17.5312,,0.00188000000000077,1.6011518510122642,1.752552428193021,non_fall
7.731052,1.3276,0.7291,-1.0611,0.6127,0.7047,0.1984,-42.3,5.8125,17.5312,,0.019110999999999656,1.8493354968744853,1.8668808057571524,non_fall
