time,ax,ay,az,wx,wy,wz,Bx,By,Bz,Unnamed: 10,time_diff,acc_mag,acc_mag_filtered,label
0.061823,0.0,0.0,0.0,0.0,0.0,0.0,0.0,0.0,0.0,,0.0,0.0,0.000921451454658078,non_fall
0.062288,0.0,0.0,0.0,0.0,0.0,0.0,0.0,0.0,0.0,,0.00046500000000000014,0.0,0.0016671193757733852,non_fall
0.070947,0.0,0.0,0.0,0.0,0.0,0.0,0.0,0.0,0.0,,0.008658999999999993,0.0,0.0026458293672128835,non_fall
0.106737,0.0,0.0,0.0,0.0,0.0,0.0,14.64,9.6502,-41.8216,,0.03579,0.0,0.003987667962316698,non_fall
0.108043,0.0,0.0,0.0,-0.0561,0.0181,-0.0096,14.64,9.6502,-41.8216,,0.0013060000000000016,0.0,0.005766319975987377,non_fall
0.117137,0.0,0.0,0.0,-0.0561,0.0181,-0.0096,14.64,9.6502,-41.8216,,0.009094000000000005,0.0,0.007990564285405878,non_fall
0.120983,0.0,0.0,0.0,-0.0561,0.0181,-0.0096,14.64,9.6502,-41.8216,,0.0038459999999999883,0.0,0.010604299140635477,non_fall
0.121957,0.0,0.0,0.0,-0.0561,0.0181,-0.0096,14.64,9.6502,-41.8216,,0.0009740000000000026,0.0,0.013496103109168583,non_fall
0.158657,0.0,0.0,0.0,-0.0561,0.0181,-0.0096,14.5546,9.8942,-42.151,,0.036699999999999997,0.0,0.016518465501922763,non_fall
0.177094,0.0,0.0,0.0,-0.0515,0.0145,-0.0134,14.5546,9.8942,-42.151,,0.01843700000000001,0.0,0.019515641753883563,non_fall
0.187271,-0.0178,0.0393,0.0183,-0.0515,0.0145,-0.0134,14.5546,9.8942,-42.151,,0.010176999999999992,0.04686384533945118,0.022357582940181198,non_fall
0.188553,-0.0178,0.0393,0.0183,-0.0515,0.0145,-0.0134,14.5546,9.8942,-42.151,,0.0012820000000000054,0.04686384533945118,0.024975700471723792,non_fall
0.18941,-0.0178,0.0393,0.0183,-0.0515,0.0145,-0.0134,14.5546,9.8942,-42.151,,0.0008569999999999967,0.04686384533945118,0.027394855556025655,non_fall
0.190252,-0.0178,0.0393,0.0183,-0.0515,0.0145,-0.0134,14.5546,9.8942,-42.151,,0.0008420000000000094,0.04686384533945118,0.02975563057112058,non_fall
0.191075,-0.0178,0.0393,0.0183,-0.0515,0.0145,-0.0134,14.5546,9.8942,-42.151,,0.0008229999999999904,0.04686384533945118,0.032322020753611964,non_fall
0.206978,-0.0178,0.0393,0.0183,-0.0515,0.0145,-0.0134,14.6888,9.9186,-42.212,,0.015903,0.04686384533945118,0.03547183717737922,non_fall
0.247286,-0.0178,0.0393,0.0183,-0.0858,-0.0041,-0.0015,14.6888,9.9186,-42.212,,0.04030800000000001,0.04686384533945118,0.039669625882931894,non_fall
0.255811,-0.0178,0.0393,0.0183,-0.0858,-0.0041,-0.0015,14.6278,10.0406,-42.1754,,0.008525000000000005,0.04686384533945118,0.045424258862941665,non_fall
0.257281,-0.0178,0.0393,0.0183,-0.0858,-0.0041,-0.0015,14.6278,10.0406,-42.1754,,0.0014699999999999713,0.04686384533945118,0.0532353156702234,non_fall
0.258355,-0.0178,0.0393,0.0183,-0.0858,-0.0041,-0.0015,14.6278,10.0406,-42.1754,,0.0010740000000000194,0.04686384533945118,0.06353383021697756,non_fall
0.259377,-0.0178,0.0393,0.0183,-0.0858,-0.0041,-0.0015,14.6278,10.0406,-42.1754,,0.0010220000000000229,0.04686384533945118,0.07662377249289408,non_fall
0.260553,-0.0553,0.1025,-0.0191,-0.0858,-0.0041,-0.0015,14.6278,10.0406,-42.1754,,0.0011759999999999549,0.11802182001646983,0.09263059078000192,non_fall
0.307392,-0.0553,0.1025,-0.0191,-0.0858,-0.0041,-0.0015,14.7498,10.0772,-42.1632,,0.04683900000000002,0.11802182001646983,0.1114622505038777,non_fall
0.316383,-0.0553,0.1025,-0.0191,-0.0045,-0.0562,0.0189,14.7498,10.0772,-42.1632,,0.008991000000000027,0.11802182001646983,0.13278692165971206,non_fall
0.321464,-0.0553,0.1025,-0.0191,-0.0045,-0.0562,0.0189,14.7498,10.0772,-42.1632,,0.005081000000000002,0.11802182001646983,0.15603051587713007,non_fall
0.32239,-0.0553,0.1025,-0.0191,-0.0045,-0.0562,0.0189,14.7498,10.0772,-42.1632,,0.0009259999999999824,0.11802182001646983,0.1803968237949224,non_fall
0.323228,-0.0553,0.1025,-0.0191,-0.0045,-0.0562,0.0189,14.7498,10.0772,-42.1632,,0.0008380000000000054,0.11802182001646983,0.20491213956397084,non_fall
0.324626,0.0267,-0.2849,0.1008,-0.0045,-0.0562,0.0189,14.7498,10.0772,-42.1632,,0.0013980000000000103,0.30338348669629334,0.2284936685608494,non_fall
0.359872,0.0267,-0.2849,0.1008,-0.0045,-0.0562,0.0189,14.7376,10.1382,-42.0778,,0.035246,0.30338348669629334,0.25003638715954296,non_fall
0.364517,0.0267,-0.2849,0.1008,-0.0045,-0.0562,0.0189,14.6888,10.1382,-42.0534,,0.004644999999999955,0.30338348669629334,0.26850799219173505,non_fall
0.387202,0.0267,-0.2849,0.1008,0.0296,0.0036,0.0089,14.6888,10.1382,-42.0534,,0.02268500000000001,0.30338348669629334,0.2830389545076957,non_fall
0.388528,0.0267,-0.2849,0.1008,0.0296,0.0036,0.0089,14.6888,10.1382,-42.0534,,0.0013259999999999939,0.30338348669629334,0.29299603904015503,non_fall
0.389073,0.0267,-0.2849,0.1008,0.0296,0.0036,0.0089,14.6888,10.1382,-42.0534,,0.0005450000000000177,0.30338348669629334,0.29803182149120977,non_fall
0.389527,0.0267,-0.2849,0.1008,0.0296,0.0036,0.0089,14.6888,10.1382,-42.0534,,0.00045400000000000995,0.30338348669629334,0.2981072722719806,non_fall
0.389968,0.0267,-0.2849,0.1008,0.0296,0.0036,0.0089,14.6888,10.1382,-42.0534,,0.0004409999999999692,0.30338348669629334,0.29348787377538144,non_fall
0.395049,0.0545,0.2431,-0.088,0.0296,0.0036,0.0089,14.6888,10.1382,-42.0534,,0.005081000000000002,0.2642193407001085,0.28471585727984083,non_fall
0.426149,0.0545,0.2431,-0.088,0.0296,0.0036,0.0089,14.6644,10.1992,-42.09,,0.031100000000000017,0.2642193407001085,0.2725623893505795,non_fall
0.457995,0.0545,0.2431,-0.088,-0.0004,0.0029,-0.0306,14.6644,10.1992,-42.09,,0.031845999999999985,0.2642193407001085,0.25796413075810704,non_fall
0.459624,0.0545,0.2431,-0.088,-0.0004,0.0029,-0.0306,14.6644,10.1992,-42.09,,0.0016289999999999916,0.2642193407001085,0.2419485536871454,non_fall
0.460701,0.0545,0.2431,-0.088,-0.0004,0.0029,-0.0306,14.6644,10.1992,-42.09,,0.0010770000000000501,0.2642193407001085,0.22555198735693527,non_fall
0.46157,0.0545,0.2431,-0.088,-0.0004,0.0029,-0.0306,14.6644,10.1992,-42.09,,0.0008689999999999531,0.2642193407001085,0.2097343239165189,non_fall
0.46604,0.0559,-0.0842,-0.0735,-0.0004,0.0029,-0.0306,14.6644,10.1992,-42.09,,0.0044700000000000295,0.12496679558986859,0.1952955149264525,non_fall
0.485911,0.0559,-0.0842,-0.0735,-0.0004,0.0029,-0.0306,14.64,10.2846,-42.1632,,0.019870999999999972,0.12496679558986859,0.18280151715470402,non_fall
0.525433,0.0559,-0.0842,-0.0735,0.0202,0.0045,-0.012,14.64,10.2846,-42.1632,,0.03952200000000006,0.12496679558986859,0.17252988663964494,non_fall
0.526767,0.0559,-0.0842,-0.0735,0.0202,0.0045,-0.012,14.64,10.2846,-42.1632,,0.0013339999999999463,0.12496679558986859,0.16444558713959742,non_fall
0.52748,0.0559,-0.0842,-0.0735,0.0202,0.0045,-0.012,14.64,10.2846,-42.1632,,0.0007129999999999637,0.12496679558986859,0.15821453735315416,non_fall
0.528338,0.0559,-0.0842,-0.0735,0.0202,0.0045,-0.012,14.64,10.2846,-42.1632,,0.0008580000000000254,0.12496679558986859,0.15325680903465227,non_fall
0.53541,-0.1468,0.0419,0.0626,0.0202,0.0045,-0.012,14.64,10.2846,-42.1632,,0.007072000000000078,0.16499881817758577,0.1488351031030437,non_fall
0.546025,-0.1468,0.0419,0.0626,0.0202,0.0045,-0.012,14.6278,10.2968,-42.1022,,0.01061499999999993,0.16499881817758577,0.14416859260644704,non_fall
0.590557,-0.1468,0.0419,0.0626,0.0202,0.0045,-0.012,14.6278,10.2968,-42.1022,,0.044532000000000016,0.16499881817758577,0.13855817912263801,non_fall
0.592662,-0.1468,0.0419,0.0626,0.0202,0.0045,-0.012,14.6278,10.2968,-42.1022,,0.0021050000000000235,0.16499881817758577,0.1315071980897918,non_fall
0.59342,-0.1468,0.0419,0.0626,0.0202,0.0045,-0.012,14.6278,10.2968,-42.1022,,0.0007579999999999254,0.16499881817758577,0.12282186725321849,non_fall
0.594089,-0.1468,0.0419,0.0626,0.0202,0.0045,-0.012,14.6278,10.2968,-42.1022,,0.0006690000000000307,0.16499881817758577,0.11267801552076505,non_fall
0.594766,-0.1468,0.0419,0.0626,-0.0013,-0.0419,-0.018,14.6278,10.2968,-42.1022,,0.0006770000000000387,0.16499881817758577,0.1016443454338131,non_fall
0.604225,-0.1468,0.0419,0.0626,-0.0013,-0.0419,-0.018,14.579,10.3456,-42.0656,,0.009458999999999995,0.16499881817758577,0.09065739245679938,non_fall
0.605741,-0.0276,0.0191,0.0003,-0.0013,-0.0419,-0.018,14.579,10.3456,-42.0656,,0.0015159999999999618,0.03356575635971875,0.08094940223063825,non_fall
0.658099,-0.0276,0.0191,0.0003,-0.0013,-0.0419,-0.018,14.579,10.3456,-42.0656,,0.052358000000000016,0.03356575635971875,0.07393717691547529,non_fall
0.659883,-0.0276,0.0191,0.0003,-0.0013,-0.0419,-0.018,14.579,10.3456,-42.0656,,0.0017840000000000078,0.03356575635971875,0.07108617241253666,non_fall
0.660866,-0.0276,0.0191,0.0003,-0.0013,-0.0419,-0.018,14.579,10.3456,-42.0656,,0.0009829999999999561,0.03356575635971875,0.0737676870429246,non_fall
0.665098,-0.0276,0.0191,0.0003,-0.0013,-0.0419,-0.018,14.5912,10.3212,-42.0412,,0.0042320000000000135,0.03356575635971875,0.08312665100817462,non_fall
0.666649,-0.0276,0.0191,0.0003,-0.0273,-0.0674,-0.0185,14.5912,10.3212,-42.0412,,0.00155100000000008,0.03356575635971875,0.09997393134184632,non_fall
0.674277,-0.1866,-0.067,0.0108,-0.0273,-0.0674,-0.0185,14.5912,10.3212,-42.0412,,0.007627999999999968,0.19855780014897423,0.12471175242806766,non_fall
0.723636,-0.1866,-0.067,0.0108,-0.0273,-0.0674,-0.0185,14.5912,10.3212,-42.0412,,0.04935899999999993,0.19855780014897423,0.1572951316110868,non_fall
0.725278,-0.1866,-0.067,0.0108,-0.0273,-0.0674,-0.0185,14.5912,10.3212,-42.0412,,0.0016420000000000323,0.19855780014897423,0.19722757060521087,non_fall
0.726249,-0.1866,-0.067,0.0108,-0.0273,-0.0674,-0.0185,14.5912,10.3212,-42.0412,,0.0009710000000000552,0.19855780014897423,0.24358724260489048,non_fall
0.727218,-0.1866,-0.067,0.0108,-0.0273,-0.0674,-0.0185,14.4692,10.3334,-42.0412,,0.0009689999999999976,0.19855780014897423,0.2950807930597555,non_fall
0.733563,-0.1866,-0.067,0.0108,-0.1369,-0.1502,0.0758,14.4692,10.3334,-42.0412,,0.006344999999999934,0.19855780014897423,0.3501233133297937,non_fall
0.745179,-0.5344,-0.047,-0.2287,-0.1369,-0.1502,0.0758,14.4692,10.3334,-42.0412,,0.01161600000000007,0.5831775458640361,0.4069417415565992,non_fall
0.785464,-0.5344,-0.047,-0.2287,-0.1369,-0.1502,0.0758,14.3228,10.3944,-42.09,,0.040285000000000015,0.5831775458640361,0.46369370462691534,non_fall
0.788483,-0.5344,-0.047,-0.2287,-0.1369,-0.1502,0.0758,14.3228,10.3944,-42.09,,0.003018999999999994,0.5831775458640361,0.5185875548850384,non_fall
0.789474,-0.5344,-0.047,-0.2287,-0.1369,-0.1502,0.0758,14.3228,10.3944,-42.09,,0.0009909999999999641,0.5831775458640361,0.5699874396169499,non_fall
0.790298,-0.5344,-0.047,-0.2287,-0.1369,-0.1502,0.0758,14.3228,10.3944,-42.09,,0.0008239999999999359,0.5831775458640361,0.616492394519975,non_fall
0.791156,-0.5344,-0.047,-0.2287,-0.1369,-0.1502,0.0758,14.3228,10.3944,-42.09,,0.0008580000000000254,0.5831775458640361,0.6569877125128507,non_fall
0.804834,-0.5344,-0.047,-0.2287,-0.1823,-0.2912,0.1276,14.3228,10.3944,-42.09,,0.013678000000000079,0.5831775458640361,0.6906745178969177,non_fall
0.815915,-0.7222,0.2833,-0.0028,-0.1823,-0.2912,0.1276,14.3228,10.3944,-42.09,,0.011080999999999896,0.7757831978072224,0.7170859043977184,non_fall
0.844921,-0.7222,0.2833,-0.0028,-0.1823,-0.2912,0.1276,14.1276,10.5042,-42.151,,0.029006000000000087,0.7757831978072224,0.7360950846754079,non_fall
0.857788,-0.7222,0.2833,-0.0028,-0.1823,-0.2912,0.1276,14.1276,10.5042,-42.151,,0.012866999999999962,0.7757831978072224,0.7479154610249982,non_fall
0.859001,-0.7222,0.2833,-0.0028,-0.1823,-0.2912,0.1276,14.1276,10.5042,-42.151,,0.0012130000000000196,0.7757831978072224,0.753088244966597,non_fall
0.86007,-0.7222,0.2833,-0.0028,-0.1823,-0.2912,0.1276,14.1276,10.5042,-42.151,,0.0010689999999999866,0.7757831978072224,0.7524526899829874,non_fall
0.874661,-0.7222,0.2833,-0.0028,-0.0547,-0.1787,-0.1792,14.1276,10.5042,-42.151,,0.01459100000000002,0.7757831978072224,0.7470966681895552,non_fall
0.886831,-0.2938,0.2859,0.5638,-0.0547,-0.1787,-0.1792,14.1276,10.5042,-42.151,,0.012170000000000014,0.69708513827222,0.7382891734783771,non_fall
0.904149,-0.2938,0.2859,0.5638,-0.0547,-0.1787,-0.1792,13.8592,10.6384,-42.1876,,0.017317999999999945,0.69708513827222,0.7273998423512285,non_fall
0.923746,-0.2938,0.2859,0.5638,-0.0547,-0.1787,-0.1792,13.8592,10.6384,-42.1876,,0.019596999999999976,0.69708513827222,0.715812924858623,non_fall
0.925201,-0.2938,0.2859,0.5638,-0.0547,-0.1787,-0.1792,13.8592,10.6384,-42.1876,,0.001455000000000095,0.69708513827222,0.7048436329672226,non_fall
0.926244,-0.2938,0.2859,0.5638,-0.0547,-0.1787,-0.1792,13.8592,10.6384,-42.1876,,0.0010429999999999051,0.69708513827222,0.6956633082488958,non_fall
0.927272,-0.2938,0.2859,0.5638,-0.0547,-0.1787,-0.1792,13.8592,10.6384,-42.1876,,0.0010280000000000289,0.69708513827222,0.6892372829382903,non_fall
0.944697,-0.2938,0.2859,0.5638,-0.0782,0.1493,-0.4068,13.8592,10.6384,-42.1876,,0.017425000000000024,0.69708513827222,0.6862769790452286,non_fall
0.954113,-0.6676,-0.1735,-0.0693,-0.0782,0.1493,-0.4068,13.8592,10.6384,-42.1876,,0.00941599999999998,0.6932492336815094,0.6872064964262451,non_fall
0.965169,-0.6676,-0.1735,-0.0693,-0.0782,0.1493,-0.4068,13.6396,10.8336,-42.151,,0.011056000000000066,0.6932492336815094,0.692143747185888,lateral_fall
0.989414,-0.6676,-0.1735,-0.0693,-0.0782,0.1493,-0.4068,13.6396,10.8336,-42.151,,0.02424499999999996,0.6932492336815094,0.7008967483758763,lateral_fall
0.990828,-0.6676,-0.1735,-0.0693,-0.0782,0.1493,-0.4068,13.6396,10.8336,-42.151,,0.0014140000000000263,0.6932492336815094,0.7129764797647384,lateral_fall
0.991955,-0.6676,-0.1735,-0.0693,-0.0782,0.1493,-0.4068,13.6396,10.8336,-42.151,,0.0011269999999999891,0.6932492336815094,0.7276282129526753,lateral_fall
1.015675,-0.6676,-0.1735,-0.0693,-0.1059,0.1851,-0.4441,13.6396,10.8336,-42.151,,0.023720000000000074,0.6932492336815094,0.7438829297652063,lateral_fall
1.024089,-0.6676,-0.1735,-0.0693,-0.1059,0.1851,-0.4441,13.481,11.041,-42.1022,,0.008413999999999922,0.6932492336815094,0.7606289338576242,lateral_fall
1.025295,-0.7035,0.1697,-0.44,-0.1059,0.1851,-0.4441,13.481,11.041,-42.1022,,0.0012060000000000404,0.8469417571474439,0.7767007141501826,lateral_fall
1.056122,-0.7035,0.1697,-0.44,-0.1059,0.1851,-0.4441,13.481,11.041,-42.1022,,0.030826999999999938,0.8469417571474439,0.7909778158721164,lateral_fall
1.05753,-0.7035,0.1697,-0.44,-0.1059,0.1851,-0.4441,13.481,11.041,-42.1022,,0.0014080000000000759,0.8469417571474439,0.8024824025039244,lateral_fall
1.058401,-0.7035,0.1697,-0.44,-0.1059,0.1851,-0.4441,13.481,11.041,-42.1022,,0.0008709999999998441,0.8469417571474439,0.8104626570902728,lateral_fall
1.084627,-0.7035,0.1697,-0.44,-0.1059,0.1851,-0.4441,13.2858,11.285,-41.9314,,0.026226000000000083,0.8469417571474439,0.8144514477554431,lateral_fall
1.086417,-0.7035,0.1697,-0.44,-0.1582,0.2654,-0.5671,13.2858,11.285,-41.9314,,0.0017899999999999583,0.8469417571474439,0.8142948186467699,lateral_fall
1.096312,-0.6686,-0.095,-0.3464,-0.1582,0.2654,-0.5671,13.2858,11.285,-41.9314,,0.009894999999999987,0.7589755727294522,0.8101508062528653,lateral_fall
1.123257,-0.6686,-0.095,-0.3464,-0.1582,0.2654,-0.5671,13.2858,11.285,-41.9314,,0.026944999999999997,0.7589755727294522,0.802464248754755,lateral_fall
1.124757,-0.6686,-0.095,-0.3464,-0.1582,0.2654,-0.5671,13.2858,11.285,-41.9314,,0.0015000000000000568,0.7589755727294522,0.7919266117022912,lateral_fall
1.125673,-0.6686,-0.095,-0.3464,-0.1582,0.2654,-0.5671,13.2858,11.285,-41.9314,,0.0009159999999999169,0.7589755727294522,0.779430497649067,lateral_fall
1.126508,-0.6686,-0.095,-0.3464,-0.1582,0.2654,-0.5671,13.2858,11.285,-41.9314,,0.0008350000000001412,0.7589755727294522,0.766026284742735,lateral_fall
1.143714,-0.6686,-0.095,-0.3464,-0.1582,0.2654,-0.5671,13.1394,11.6632,-41.9314,,0.017205999999999833,0.7589755727294522,0.752884392618569,lateral_fall
1.153677,-0.6686,-0.095,-0.3464,-0.1357,0.2256,-0.681,13.1394,11.6632,-41.9314,,0.009963000000000166,0.7589755727294522,0.7412627329015401,lateral_fall
1.163445,-0.6329,0.0964,-0.3915,-0.1357,0.2256,-0.681,13.1394,11.6632,-41.9314,,0.009767999999999999,0.7504182966852554,0.7324761837254721,lateral_fall
1.189518,-0.6329,0.0964,-0.3915,-0.1357,0.2256,-0.681,13.1394,11.6632,-41.9314,,0.026073000000000013,0.7504182966852554,0.7278638498192941,lateral_fall
1.191032,-0.6329,0.0964,-0.3915,-0.1357,0.2256,-0.681,13.1394,11.6632,-41.9314,,0.0015140000000000153,0.7504182966852554,0.7287503366854644,lateral_fall
1.191997,-0.6329,0.0964,-0.3915,-0.1357,0.2256,-0.681,13.1394,11.6632,-41.9314,,0.0009649999999998826,0.7504182966852554,0.736398925075258,lateral_fall
1.203485,-0.6329,0.0964,-0.3915,-0.1357,0.2256,-0.681,13.054,12.1756,-41.8582,,0.011487999999999943,0.7504182966852554,0.7519569116491307,lateral_fall
1.223776,-0.6329,0.0964,-0.3915,-0.1495,0.1605,-0.6525,13.054,12.1756,-41.8582,,0.02029100000000006,0.7504182966852554,0.7763959634346248,lateral_fall
1.233164,-0.8296,0.2285,-0.1267,-0.1495,0.1605,-0.6525,13.054,12.1756,-41.8582,,0.009387999999999952,0.8697708318861929,0.8104525490503568,lateral_fall
1.256267,-0.8296,0.2285,-0.1267,-0.1495,0.1605,-0.6525,13.0418,12.6636,-41.7362,,0.023103000000000096,0.8697708318861929,0.8545749763390472,lateral_fall
1.257829,-0.8296,0.2285,-0.1267,-0.1495,0.1605,-0.6525,13.0418,12.6636,-41.7362,,0.0015620000000000633,0.8697708318861929,0.9088845412204881,lateral_fall
1.258676,-0.8296,0.2285,-0.1267,-0.1495,0.1605,-0.6525,13.0418,12.6636,-41.7362,,0.0008469999999998201,0.8697708318861929,0.9731594019663578,lateral_fall
1.259582,-0.8296,0.2285,-0.1267,-0.1495,0.1605,-0.6525,13.0418,12.6636,-41.7362,,0.0009060000000000734,0.8697708318861929,1.046850640960784,lateral_fall
1.295424,-0.8296,0.2285,-0.1267,-0.0706,-0.1304,-0.5689,13.0418,12.6636,-41.7362,,0.03584199999999993,0.8697708318861929,1.1291382683668254,lateral_fall
1.303162,-1.4844,0.2975,-0.2454,-0.0706,-0.1304,-0.5689,13.0418,12.6636,-41.7362,,0.007738000000000023,1.5336788353498263,1.219027795214893,lateral_fall
1.323407,-1.4844,0.2975,-0.2454,-0.0706,-0.1304,-0.5689,13.0296,13.2126,-41.5776,,0.02024500000000007,1.5336788353498263,1.3154753411970255,lateral_fall
1.325292,-1.4844,0.2975,-0.2454,-0.0706,-0.1304,-0.5689,13.0296,13.2126,-41.5776,,0.0018849999999999145,1.5336788353498263,1.4175166048080154,lateral_fall
1.326381,-1.4844,0.2975,-0.2454,-0.0706,-0.1304,-0.5689,13.0296,13.2126,-41.5776,,0.0010890000000001177,1.5336788353498263,1.5243713916584791,lateral_fall
1.327884,-1.4844,0.2975,-0.2454,-0.0706,-0.1304,-0.5689,13.0296,13.2126,-41.5776,,0.001503000000000032,1.5336788353498263,1.6355048237882823,lateral_fall
1.328977,-1.4844,0.2975,-0.2454,-0.0706,-0.1304,-0.5689,13.0296,13.2126,-41.5776,,0.0010930000000000106,1.5336788353498263,1.750642786505003,lateral_fall
1.363357,-1.4844,0.2975,-0.2454,-0.225,-0.4152,-0.5875,13.0296,13.2126,-41.5776,,0.034379999999999855,1.5336788353498263,1.8697515619301732,lateral_fall
1.373744,-1.037,2.1697,-0.3407,-0.225,-0.4152,-0.5875,13.0296,13.2126,-41.5776,,0.010387000000000146,2.4287946763775654,1.992992421108477,lateral_fall
1.382509,-1.037,2.1697,-0.3407,-0.225,-0.4152,-0.5875,12.932,13.7494,-41.419,,0.008764999999999912,2.4287946763775654,2.1206514523859896,lateral_fall
1.388739,-1.037,2.1697,-0.3407,-0.225,-0.4152,-0.5875,12.932,13.7494,-41.419,,0.006229999999999958,2.4287946763775654,2.253031987446983,lateral_fall
1.38998,-1.037,2.1697,-0.3407,-0.225,-0.4152,-0.5875,12.932,13.7494,-41.419,,0.0012410000000000476,2.4287946763775654,2.390294862135003,lateral_fall
1.390999,-1.037,2.1697,-0.3407,-0.225,-0.4152,-0.5875,12.932,13.7494,-41.419,,0.0010190000000001032,2.4287946763775654,2.5322467189303697,lateral_fall
1.431654,-1.037,2.1697,-0.3407,-0.5657,-0.2478,-0.5727,12.932,13.7494,-41.419,,0.040654999999999886,2.4287946763775654,2.6781010991485155,lateral_fall
1.440999,-1.037,2.1697,-0.3407,-0.5657,-0.2478,-0.5727,12.6392,14.4326,-41.2604,,0.009344999999999937,2.4287946763775654,2.8262567426670446,lateral_fall
1.44243,-1.4559,2.7898,-0.6314,-0.5657,-0.2478,-0.5727,12.6392,14.4326,-41.2604,,0.0014310000000001821,3.209563024774557,2.9741422470439107,lateral_fall
1.454934,-1.4559,2.7898,-0.6314,-0.5657,-0.2478,-0.5727,12.6392,14.4326,-41.2604,,0.012503999999999849,3.209563024774557,3.1181650172437787,lateral_fall
1.456442,-1.4559,2.7898,-0.6314,-0.5657,-0.2478,-0.5727,12.6392,14.4326,-41.2604,,0.0015080000000000648,3.209563024774557,3.2537829282734414,lateral_fall
1.457471,-1.4559,2.7898,-0.6314,-0.5657,-0.2478,-0.5727,12.6392,14.4326,-41.2604,,0.0010289999999999466,3.209563024774557,3.3757011699662747,lateral_fall
1.501414,-1.4559,2.7898,-0.6314,-1.039,0.0395,-0.5012,12.6392,14.4326,-41.2604,,0.043943000000000065,3.209563024774557,3.478190540172055,lateral_fall
1.50327,-1.4559,2.7898,-0.6314,-1.039,0.0395,-0.5012,12.2366,15.3476,-41.0896,,0.0018560000000000798,3.209563024774557,3.555521652906274,lateral_fall
1.511459,-1.3769,3.3135,-0.8944,-1.039,0.0395,-0.5012,12.2366,15.3476,-41.0896,,0.008189000000000002,3.697984210350282,3.6025016478256022,lateral_fall
1.521889,-1.3769,3.3135,-0.8944,-1.039,0.0395,-0.5012,12.2366,15.3476,-41.0896,,0.01042999999999994,3.697984210350282,3.615081297507177,lateral_fall
1.522946,-1.3769,3.3135,-0.8944,-1.039,0.0395,-0.5012,12.2366,15.3476,-41.0896,,0.0010569999999998636,3.697984210350282,3.590976012079506,lateral_fall
1.524353,-1.3769,3.3135,-0.8944,-1.039,0.0395,-0.5012,12.2366,15.3476,-41.0896,,0.0014070000000001581,3.697984210350282,3.5302247039264705,lateral_fall
1.525242,-1.3769,3.3135,-0.8944,-1.039,0.0395,-0.5012,12.2366,15.3476,-41.0896,,0.0008889999999999176,3.697984210350282,3.435603679842279,lateral_fall
1.562497,-1.3769,3.3135,-0.8944,-1.039,0.0395,-0.5012,11.834,16.5554,-40.8456,,0.03725500000000004,3.697984210350282,3.3128195126835305,lateral_fall
1.57088,-1.3769,3.3135,-0.8944,-1.0237,-0.2554,-0.5161,11.834,16.5554,-40.8456,,0.00838300000000003,3.697984210350282,3.170422530291334,lateral_fall
1.582166,-1.9783,1.9582,0.2315,-1.0237,-0.2554,-0.5161,11.834,16.5554,-40.8456,,0.011285999999999907,2.793172099960903,3.0194100606149323,lateral_fall
1.58839,-1.9783,1.9582,0.2315,-1.0237,-0.2554,-0.5161,11.834,16.5554,-40.8456,,0.006224000000000007,2.793172099960903,2.8725248942987487,lateral_fall
1.589587,-1.9783,1.9582,0.2315,-1.0237,-0.2554,-0.5161,11.834,16.5554,-40.8456,,0.0011970000000001146,2.793172099960903,2.74329292163852,lateral_fall
1.590618,-1.9783,1.9582,0.2315,-1.0237,-0.2554,-0.5161,11.834,16.5554,-40.8456,,0.0010310000000000041,2.793172099960903,2.6448730556766566,lateral_fall
1.62092,-1.9783,1.9582,0.2315,-1.0237,-0.2554,-0.5161,11.2972,17.9462,-40.3088,,0.03030199999999983,2.793172099960903,2.5888063744502086,lateral_fall
1.642447,-1.9783,1.9582,0.2315,-0.7257,0.0903,-0.8942,11.2972,17.9462,-40.3088,,0.021527000000000074,2.793172099960903,2.583756195418219,lateral_fall
1.655157,-1.2558,1.1815,1.7364,-0.7257,0.0903,-0.8942,11.2972,17.9462,-40.3088,,0.012709999999999999,2.447051460431513,2.6343378614800255,lateral_fall
1.656719,-1.2558,1.1815,1.7364,-0.7257,0.0903,-0.8942,11.2972,17.9462,-40.3088,,0.0015620000000000633,2.447051460431513,2.740150885959091,lateral_fall
1.657586,-1.2558,1.1815,1.7364,-0.7257,0.0903,-0.8942,11.2972,17.9462,-40.3088,,0.0008669999999999511,2.447051460431513,2.895140880175924,lateral_fall
1.658392,-1.2558,1.1815,1.7364,-0.7257,0.0903,-0.8942,11.2972,17.9462,-40.3088,,0.0008060000000000844,2.447051460431513,3.0874229025367668,lateral_fall
1.680926,-1.2558,1.1815,1.7364,-0.7257,0.0903,-0.8942,10.7116,19.4468,-39.6622,,0.022533999999999832,2.447051460431513,3.2996817022883933,lateral_fall
1.710429,-1.2558,1.1815,1.7364,-0.532,0.1104,-1.3316,10.7116,19.4468,-39.6622,,0.029503000000000057,2.447051460431513,3.510223439848969,lateral_fall
1.720299,-3.0713,0.5352,2.3431,-0.532,0.1104,-1.3316,10.7116,19.4468,-39.6622,,0.009870000000000045,3.899928248057905,3.694687844980524,lateral_fall
1.721656,-3.0713,0.5352,2.3431,-0.532,0.1104,-1.3316,10.7116,19.4468,-39.6622,,0.0013570000000000526,3.899928248057905,3.8283443103563384,lateral_fall
1.722589,-3.0713,0.5352,2.3431,-0.532,0.1104,-1.3316,10.7116,19.4468,-39.6622,,0.0009329999999998506,3.899928248057905,3.8888052117997587,lateral_fall
1.723438,-3.0713,0.5352,2.3431,-0.532,0.1104,-1.3316,10.7116,19.4468,-39.6622,,0.0008490000000000997,3.899928248057905,3.858917974994099,lateral_fall
1.724525,-3.0713,0.5352,2.3431,-0.532,0.1104,-1.3316,10.7116,19.4468,-39.6622,,0.0010870000000000601,3.899928248057905,3.7295589777954765,lateral_fall
1.741433,-3.0713,0.5352,2.3431,-0.532,0.1104,-1.3316,10.0162,21.0816,-38.8936,,0.016907999999999923,3.899928248057905,3.5020429102136665,lateral_fall
1.781043,-3.0713,0.5352,2.3431,-0.5567,0.4382,-2.5917,10.0162,21.0816,-38.8936,,0.03960999999999992,3.899928248057905,3.189867896345352,lateral_fall
1.792483,-3.0713,0.5352,2.3431,-0.5567,0.4382,-2.5917,10.0162,21.0816,-38.8936,,0.011440000000000117,3.899928248057905,2.8195351383699574,lateral_fall
1.79742,-3.0713,0.5352,2.3431,-0.5567,0.4382,-2.5917,10.0162,21.0816,-38.8936,,0.004936999999999969,3.899928248057905,2.4302190570900466,lateral_fall
1.798682,-3.0713,0.5352,2.3431,-0.5567,0.4382,-2.5917,10.0162,21.0816,-38.8936,,0.0012619999999998743,3.899928248057905,2.0721312434842667,lateral_fall
1.800323,-1.8274,0.8044,-0.1415,-0.5567,0.4382,-2.5917,10.0162,21.0816,-38.8936,,0.0016410000000000036,2.0016174384731964,1.8035281165609658,lateral_fall
1.801974,-1.8274,0.8044,-0.1415,-0.5567,0.4382,-2.5917,9.089,22.875,-38.0396,,0.001651000000000069,2.0016174384731964,1.6864571672859114,lateral_fall
1.85254,-1.8274,0.8044,-0.1415,1.345,2.4987,-1.9727,9.089,22.875,-38.0396,,0.05056600000000011,2.0016174384731964,1.781500342522306,lateral_fall
1.856913,-1.8274,0.8044,-0.1415,1.345,2.4987,-1.9727,9.089,22.875,-38.0396,,0.00437299999999996,2.0016174384731964,2.1419207500152866,lateral_fall
1.858933,-1.8274,0.8044,-0.1415,1.345,2.4987,-1.9727,9.089,22.875,-38.0396,,0.0020199999999999108,2.0016174384731964,2.807722716355176,lateral_fall
1.861308,-1.8274,0.8044,-0.1415,1.345,2.4987,-1.9727,9.089,22.875,-38.0396,,0.002375000000000016,2.0016174384731964,3.8001888156161314,lateral_fall
1.864569,-1.8274,0.8044,-0.1415,1.345,2.4987,-1.9727,8.662,24.278,-37.271,,0.0032609999999999584,2.0016174384731964,5.117461210347699,lateral_fall
1.867083,8.4616,-2.955,-2.4839,1.345,2.4987,-1.9727,8.662,24.278,-37.271,,0.0025140000000001272,9.300562282464432,6.73167786941701,lateral_fall
1.921996,8.4616,-2.955,-2.4839,1.345,2.4987,-1.9727,9.3818,24.9612,-36.5146,,0.05491299999999999,9.300562282464432,8.588051936429647,lateral_fall
1.926833,8.4616,-2.955,-2.4839,3.8176,5.3508,-4.5792,9.3818,24.9612,-36.5146,,0.00483699999999998,9.300562282464432,10.606133275884805,lateral_fall
1.929823,8.4616,-2.955,-2.4839,3.8176,5.3508,-4.5792,9.3818,24.9612,-36.5146,,0.002990000000000048,9.300562282464432,12.68338533044357,lateral_fall
1.931042,8.4616,-2.955,-2.4839,3.8176,5.3508,-4.5792,9.3818,24.9612,-36.5146,,0.001218999999999859,9.300562282464432,14.701165970490074,lateral_fall
1.932557,8.4616,-2.955,-2.4839,3.8176,5.3508,-4.5792,9.3818,24.9612,-36.5146,,0.0015150000000001551,9.300562282464432,16.53313110468617,lateral_fall
1.933764,8.4616,-2.955,-2.4839,3.8176,5.3508,-4.5792,9.3818,24.9612,-36.5146,,0.001206999999999958,9.300562282464432,18.05585211296854,lateral_fall
1.934841,25.4235,-11.9304,4.3086,3.8176,5.3508,-4.5792,9.3818,24.9612,-36.5146,,0.0010769999999999946,28.41219509946389,19.160976611132,lateral_fall
1.98141,25.4235,-11.9304,4.3086,3.8176,5.3508,-4.5792,10.3212,24.9246,-36.051,,0.04656899999999986,28.41219509946389,19.767621543290417,lateral_fall
1.991353,25.4235,-11.9304,4.3086,1.2787,1.4225,-2.6605,10.3212,24.9246,-36.051,,0.009943000000000035,28.41219509946389,19.833100270908314,lateral_fall
1.995404,25.4235,-11.9304,4.3086,1.2787,1.4225,-2.6605,10.3212,24.9246,-36.051,,0.004051000000000027,28.41219509946389,19.359887285966497,lateral_fall
1.998618,25.4235,-11.9304,4.3086,1.2787,1.4225,-2.6605,10.3212,24.9246,-36.051,,0.00321400000000005,28.41219509946389,18.397117823366024,lateral_fall
2.00075,25.4235,-11.9304,4.3086,1.2787,1.4225,-2.6605,10.3212,24.9246,-36.051,,0.0021320000000000228,28.41219509946389,17.03582273674734,lateral_fall
2.0021,-1.522,-0.3459,-2.7557,1.2787,1.4225,-2.6605,10.3212,24.9246,-36.051,,0.0013499999999999623,3.1670196241892787,15.398273184016874,lateral_fall
2.041789,-1.522,-0.3459,-2.7557,1.2787,1.4225,-2.6605,11.2728,24.278,-35.807,,0.039689000000000085,3.1670196241892787,13.623016858219838,lateral_fall
2.056817,-1.522,-0.3459,-2.7557,1.2787,1.4225,-2.6605,11.2728,24.278,-35.807,,0.015028000000000041,3.1670196241892787,11.84813943266666,lateral_fall
2.059008,-1.522,-0.3459,-2.7557,1.2787,1.4225,-2.6605,11.2728,24.278,-35.807,,0.002190999999999832,3.1670196241892787,10.195633829044402,lateral_fall
2.06062,-1.522,-0.3459,-2.7557,1.2787,1.4225,-2.6605,11.2728,24.278,-35.807,,0.0016120000000001689,3.1670196241892787,8.759347997359672,lateral_fall
2.062561,-1.522,-0.3459,-2.7557,1.7442,1.0164,-1.057,11.2728,24.278,-35.807,,0.0019409999999999705,3.1670196241892787,7.598023139933829,lateral_fall
2.070222,-6.2198,6.6407,-1.333,1.7442,1.0164,-1.057,11.2728,24.278,-35.807,,0.007660999999999696,9.19574344629079,6.7338232765455635,lateral_fall
2.099666,-6.2198,6.6407,-1.333,1.7442,1.0164,-1.057,12.4928,22.7286,-35.7704,,0.029444000000000248,9.19574344629079,6.155781432565101,lateral_fall
2.123933,-6.2198,6.6407,-1.333,1.7442,1.0164,-1.057,12.4928,22.7286,-35.7704,,0.02426700000000004,9.19574344629079,5.8268854162856405,lateral_fall
2.126562,-6.2198,6.6407,-1.333,1.7442,1.0164,-1.057,12.4928,22.7286,-35.7704,,0.0026289999999997704,9.19574344629079,5.69317012539222,lateral_fall
2.128732,-6.2198,6.6407,-1.333,1.7442,1.0164,-1.057,12.4928,22.7286,-35.7704,,0.0021700000000000053,9.19574344629079,5.693182657392635,lateral_fall
2.130498,-6.2198,6.6407,-1.333,1.7442,1.0164,-1.057,12.4928,22.7286,-35.7704,,0.0017659999999999343,9.19574344629079,5.766457952154525,lateral_fall
2.132339,-6.2198,6.6407,-1.333,0.2415,0.795,0.6341,12.4928,22.7286,-35.7704,,0.0018410000000002036,9.19574344629079,5.8600605707687174,lateral_fall
2.140148,-0.7572,4.5168,0.2758,0.2415,0.795,0.6341,12.4928,22.7286,-35.7704,,0.007808999999999955,4.5881259485763906,5.932717180000212,lateral_fall
2.158953,-0.7572,4.5168,0.2758,0.2415,0.795,0.6341,14.0666,20.8376,-35.7704,,0.01880499999999996,4.5881259485763906,5.956524479711642,lateral_fall
2.190704,-0.7572,4.5168,0.2758,0.2415,0.795,0.6341,14.0666,20.8376,-35.7704,,0.03175100000000031,4.5881259485763906,5.916603357876311,lateral_fall
2.192858,-0.7572,4.5168,0.2758,0.2415,0.795,0.6341,14.0666,20.8376,-35.7704,,0.0021539999999999893,4.5881259485763906,5.809306564236869,lateral_fall
2.194354,-0.7572,4.5168,0.2758,0.2415,0.795,0.6341,14.0666,20.8376,-35.7704,,0.0014959999999999418,4.5881259485763906,5.639639815871049,lateral_fall
2.200617,-0.7572,4.5168,0.2758,-0.141,1.6296,0.2902,14.0666,20.8376,-35.7704,,0.0062629999999996855,4.5881259485763906,5.418465629423273,lateral_fall
2.214621,-2.0458,3.7624,-1.4638,-0.141,1.6296,0.2902,14.0666,20.8376,-35.7704,,0.01400400000000035,4.525887961494407,5.159903758904402,lateral_fall
2.22254,-2.0458,3.7624,-1.4638,-0.141,1.6296,0.2902,16.1406,18.7026,-35.6484,,0.007918999999999787,4.525887961494407,4.879180694701199,lateral_fall
2.25545,-2.0458,3.7624,-1.4638,-0.141,1.6296,0.2902,16.1406,18.7026,-35.6484,,0.03291000000000022,4.525887961494407,4.591038279153045,lateral_fall
2.257743,-2.0458,3.7624,-1.4638,-0.141,1.6296,0.2902,16.1406,18.7026,-35.6484,,0.0022929999999998785,4.525887961494407,4.308696472848774,lateral_fall
2.258957,-2.0458,3.7624,-1.4638,-0.141,1.6296,0.2902,16.1406,18.7026,-35.6484,,0.0012140000000000484,4.525887961494407,4.0432822693615895,lateral_fall
2.268689,-2.0458,3.7624,-1.4638,-0.387,1.2397,0.2699,16.1406,18.7026,-35.6484,,0.009732000000000074,4.525887961494407,3.8035893477278484,lateral_fall
2.278744,-2.0458,3.7624,-1.4638,-0.387,1.2397,0.2699,18.9344,16.3358,-35.2946,,0.010054999999999925,4.525887961494407,3.59602346720028,lateral_fall
2.281286,-1.2873,1.9671,1.7541,-0.387,1.2397,0.2699,18.9344,16.3358,-35.2946,,0.0025420000000000442,2.933170726364219,3.424616116070795,lateral_fall
2.324311,-1.2873,1.9671,1.7541,-0.387,1.2397,0.2699,18.9344,16.3358,-35.2946,,0.04302499999999965,2.933170726364219,3.2910455596147905,lateral_fall
2.327719,-1.2873,1.9671,1.7541,-0.387,1.2397,0.2699,18.9344,16.3358,-35.2946,,0.0034080000000002997,2.933170726364219,3.1946693934436556,lateral_fall
2.329906,-1.2873,1.9671,1.7541,-0.387,1.2397,0.2699,18.9344,16.3358,-35.2946,,0.002186999999999717,2.933170726364219,3.132617248089672,lateral_fall
2.333003,-1.2873,1.9671,1.7541,-0.387,1.2397,0.2699,18.9344,16.3358,-35.2946,,0.0030970000000003495,2.933170726364219,3.0999993649993436,lateral_fall
2.341274,-1.2873,1.9671,1.7541,-0.3389,0.6862,0.1388,18.9344,16.3358,-35.2946,,0.008270999999999695,2.933170726364219,3.090263641299567,lateral_fall
2.342665,-1.2873,1.9671,1.7541,-0.3389,0.6862,0.1388,21.5574,14.3716,-34.6846,,0.0013910000000003642,2.933170726364219,3.095700041002569,lateral_fall
2.34965,-2.64,1.941,0.6069,-0.3389,0.6862,0.1388,21.5574,14.3716,-34.6846,,0.006984999999999797,3.332477848388493,3.1080601917459716,lateral_fall
2.391224,-2.64,1.941,0.6069,-0.3389,0.6862,0.1388,21.5574,14.3716,-34.6846,,0.04157399999999978,3.332477848388493,3.1192352843621407,lateral_fall
2.396314,-2.64,1.941,0.6069,-0.3389,0.6862,0.1388,21.5574,14.3716,-34.6846,,0.005090000000000039,3.332477848388493,3.1219192737042287,lateral_fall
2.398164,-2.64,1.941,0.6069,-0.3389,0.6862,0.1388,21.5574,14.3716,-34.6846,,0.0018500000000001293,3.332477848388493,3.1101809336880404,lateral_fall
2.400385,-2.64,1.941,0.6069,-0.3389,0.6862,0.1388,23.302,13.0296,-34.0502,,0.0022210000000000285,3.332477848388493,3.0798796306910132,lateral_fall
2.407802,-2.64,1.941,0.6069,-0.077,0.1688,-0.0169,23.302,13.0296,-34.0502,,0.007417000000000229,3.332477848388493,3.0288827278304256,lateral_fall
2.419131,-1.7772,1.7053,1.049,-0.077,0.1688,-0.0169,23.302,13.0296,-34.0502,,0.011328999999999922,2.677104579578467,2.9570718123925372,lateral_fall
2.456192,-1.7772,1.7053,1.049,-0.077,0.1688,-0.0169,23.302,13.0296,-34.0502,,0.03706100000000001,2.677104579578467,2.866155317347027,lateral_fall
2.458483,-1.7772,1.7053,1.049,-0.077,0.1688,-0.0169,23.302,13.0296,-34.0502,,0.002291000000000043,2.677104579578467,2.7593301737757865,lateral_fall
2.459992,-1.7772,1.7053,1.049,-0.077,0.1688,-0.0169,23.302,13.0296,-34.0502,,0.0015089999999999826,2.677104579578467,2.6408472036815436,lateral_fall
2.461515,-1.7772,1.7053,1.049,-0.077,0.1688,-0.0169,24.8758,12.1878,-33.2206,,0.001522999999999719,2.677104579578467,2.5155316742948606,lateral_fall
2.479087,-1.7772,1.7053,1.049,-0.0016,-0.1345,-0.0597,24.8758,12.1878,-33.2206,,0.01757199999999992,2.677104579578467,2.3882993259467025,lateral_fall
2.491612,-1.4377,-1.1245,0.0071,-0.0016,-0.1345,-0.0597,24.8758,12.1878,-33.2206,,0.01252500000000012,1.8252484625387306,2.2637009869863434,lateral_fall
2.518119,-1.4377,-1.1245,0.0071,-0.0016,-0.1345,-0.0597,26.3886,11.6632,-32.3666,,0.02650700000000006,1.8252484625387306,2.145531097459344,lateral_fall
2.521278,-1.4377,-1.1245,0.0071,-0.0016,-0.1345,-0.0597,26.3886,11.6632,-32.3666,,0.003159000000000134,1.8252484625387306,2.036541172336949,lateral_fall
2.52333,-1.4377,-1.1245,0.0071,-0.0016,-0.1345,-0.0597,26.3886,11.6632,-32.3666,,0.0020519999999999428,1.8252484625387306,1.9382959909984352,lateral_fall
2.525987,-1.4377,-1.1245,0.0071,-0.0016,-0.1345,-0.0597,26.3886,11.6632,-32.3666,,0.0026570000000001315,1.8252484625387306,1.8511912657053378,lateral_fall
2.528335,-1.4377,-1.1245,0.0071,-0.0016,-0.1345,-0.0597,26.3886,11.6632,-32.3666,,0.0023480000000000167,1.8252484625387306,1.7746225180036057,lateral_fall
2.54791,-1.4377,-1.1245,0.0071,0.165,-0.5719,0.0611,26.3886,11.6632,-32.3666,,0.019574999999999676,1.8252484625387306,1.7072678764334372,lateral_fall
2.56207,-1.4377,-1.1245,0.0071,0.165,-0.5719,0.0611,26.3886,11.6632,-32.3666,,0.01415999999999995,1.8252484625387306,1.647430524873086,lateral_fall
2.565495,-1.4377,-1.1245,0.0071,0.165,-0.5719,0.0611,26.3886,11.6632,-32.3666,,0.0034250000000000114,1.8252484625387306,1.5933814263597288,lateral_fall
2.567353,-1.5516,-0.0497,0.2658,0.165,-0.5719,0.0611,26.3886,11.6632,-32.3666,,0.0018580000000003594,1.5749864412114793,1.5436486664695324,lateral_fall
2.578582,-1.5516,-0.0497,0.2658,0.165,-0.5719,0.0611,27.5842,11.651,-31.6346,,0.011228999999999711,1.5749864412114793,1.4972140927371262,lateral_fall
2.588816,-1.5516,-0.0497,0.2658,0.165,-0.5719,0.0611,27.5842,11.651,-31.6346,,0.010234000000000076,1.5749864412114793,1.453597063868014,lateral_fall
2.620809,-1.5516,-0.0497,0.2658,-0.0205,-1.0163,0.0213,27.5842,11.651,-31.6346,,0.03199299999999994,1.5749864412114793,1.4128243589635372,lateral_fall
2.634228,0.1623,-1.1853,-0.1145,-0.0205,-1.0163,0.0213,27.5842,11.651,-31.6346,,0.013418999999999848,1.2018267886846257,1.3753018314561574,lateral_fall
2.641103,0.1623,-1.1853,-0.1145,-0.0205,-1.0163,0.0213,28.2674,11.7608,-31.171,,0.0068750000000004086,1.2018267886846257,1.3416171810466557,lateral_fall
2.656564,0.1623,-1.1853,-0.1145,-0.0205,-1.0163,0.0213,28.2674,11.7608,-31.171,,0.015460999999999725,1.2018267886846257,1.312313545047374,lateral_fall
2.657761,0.1623,-1.1853,-0.1145,-0.0205,-1.0163,0.0213,28.2674,11.7608,-31.171,,0.0011969999999998926,1.2018267886846257,1.2876770302830185,lateral_fall
2.659156,0.1623,-1.1853,-0.1145,-0.0205,-1.0163,0.0213,28.2674,11.7608,-31.171,,0.001395000000000035,1.2018267886846257,1.2675754239059907,lateral_fall
2.660441,0.1623,-1.1853,-0.1145,-0.0205,-1.0163,0.0213,28.2674,11.7608,-31.171,,0.0012850000000002026,1.2018267886846257,1.2513726150685125,lateral_fall
2.687724,0.1623,-1.1853,-0.1145,0.0028,-1.05,-0.1097,28.2674,11.7608,-31.171,,0.027282999999999724,1.2018267886846257,1.237928898465743,lateral_fall
2.699104,0.1623,-1.1853,-0.1145,0.0028,-1.05,-0.1097,28.2918,11.9804,-31.2686,,0.01138000000000039,1.2018267886846257,1.2256848218400391,lateral_fall
2.701972,-0.7985,-0.9073,0.055,0.0028,-1.05,-0.1097,28.2918,11.9804,-31.2686,,0.0028679999999998707,1.209884515150103,1.2128164526808112,lateral_fall
2.723141,-0.7985,-0.9073,0.055,0.0028,-1.05,-0.1097,28.2918,11.9804,-31.2686,,0.021168999999999993,1.209884515150103,1.1974426281860635,lateral_fall
2.724587,-0.7985,-0.9073,0.055,0.0028,-1.05,-0.1097,28.2918,11.9804,-31.2686,,0.0014460000000000583,1.209884515150103,1.1778596723496313,lateral_fall
2.72543,-0.7985,-0.9073,0.055,0.0028,-1.05,-0.1097,28.2918,11.9804,-31.2686,,0.0008429999999997051,1.209884515150103,1.1527762045094656,lateral_fall
2.757393,-0.7985,-0.9073,0.055,-0.0399,-1.3657,-0.1692,28.2918,11.9804,-31.2686,,0.031963000000000186,1.209884515150103,1.1215201815876115,lateral_fall
2.761156,-0.7985,-0.9073,0.055,-0.0399,-1.3657,-0.1692,27.694,12.1756,-31.7444,,0.003763000000000183,1.209884515150103,1.0841924775977616,lateral_fall
2.772558,-0.8034,-0.5637,0.1981,-0.0399,-1.3657,-0.1692,27.694,12.1756,-31.7444,,0.011401999999999912,1.0012256788556715,1.0417464063094892,lateral_fall
2.790144,-0.8034,-0.5637,0.1981,-0.0399,-1.3657,-0.1692,27.694,12.1756,-31.7444,,0.0175860000000001,1.0012256788556715,0.9959804340924943,lateral_fall
2.79297,-0.8034,-0.5637,0.1981,-0.0399,-1.3657,-0.1692,27.694,12.1756,-31.7444,,0.002825999999999773,1.0012256788556715,0.9494403460370829,lateral_fall
2.796838,-0.8034,-0.5637,0.1981,-0.0399,-1.3657,-0.1692,27.694,12.1756,-31.7444,,0.0038680000000002046,1.0012256788556715,0.9052348383204115,lateral_fall
2.816811,-0.8034,-0.5637,0.1981,-0.0399,-1.3657,-0.1692,26.3764,12.3464,-32.6716,,0.019972999999999796,1.0012256788556715,0.86677391206697,lateral_fall
2.826617,-0.8034,-0.5637,0.1981,0.0104,-1.4793,-0.1451,26.3764,12.3464,-32.6716,,0.009806000000000203,1.0012256788556715,0.837444514229336,lateral_fall
2.837194,0.1999,-0.1791,-0.6322,0.0104,-1.4793,-0.1451,26.3764,12.3464,-32.6716,,0.010577000000000059,0.6868141378859349,0.8202456868711939,lateral_fall
2.856482,0.1999,-0.1791,-0.6322,0.0104,-1.4793,-0.1451,26.3764,12.3464,-32.6716,,0.019287999999999972,0.6868141378859349,0.8174167653344384,lateral_fall
2.85776,0.1999,-0.1791,-0.6322,0.0104,-1.4793,-0.1451,26.3764,12.3464,-32.6716,,0.0012779999999996683,0.6868141378859349,0.8301034455579134,lateral_fall
2.85866,0.1999,-0.1791,-0.6322,0.0104,-1.4793,-0.1451,26.3764,12.3464,-32.6716,,0.0009000000000001229,0.6868141378859349,0.8581118567051871,lateral_fall
2.859514,0.1999,-0.1791,-0.6322,0.0104,-1.4793,-0.1451,26.3764,12.3464,-32.6716,,0.0008539999999999104,0.6868141378859349,0.899796098781243,lateral_fall
2.878324,0.1999,-0.1791,-0.6322,0.0104,-1.4793,-0.1451,24.5952,12.4806,-33.794,,0.018810000000000215,0.6868141378859349,0.9521105837415554,lateral_fall
2.896945,0.1999,-0.1791,-0.6322,0.0256,-1.3067,-0.0526,24.5952,12.4806,-33.794,,0.018621,0.6868141378859349,1.0108377948826284,lateral_fall
2.908105,0.856,0.3042,-1.0266,0.0256,-1.3067,-0.0526,24.5952,12.4806,-33.794,,0.011159999999999837,1.3708323019246371,1.0709766284808042,lateral_fall
2.923882,0.856,0.3042,-1.0266,0.0256,-1.3067,-0.0526,24.5952,12.4806,-33.794,,0.01577699999999993,1.3708323019246371,1.127248412474832,lateral_fall
2.925623,0.856,0.3042,-1.0266,0.0256,-1.3067,-0.0526,24.5952,12.4806,-33.794,,0.0017409999999999926,1.3708323019246371,1.1746533736433773,lateral_fall
2.927032,0.856,0.3042,-1.0266,0.0256,-1.3067,-0.0526,24.5952,12.4806,-33.794,,0.0014090000000002156,1.3708323019246371,1.2089994932475394,lateral_fall
2.936531,0.856,0.3042,-1.0266,0.0256,-1.3067,-0.0526,22.4968,12.6026,-35.0506,,0.009498999999999924,1.3708323019246371,1.2273334618179312,lateral_fall
2.968228,0.856,0.3042,-1.0266,-0.0678,-0.8581,-0.0322,22.4968,12.6026,-35.0506,,0.031696999999999864,1.3708323019246371,1.2282250510763502,lateral_fall
2.985933,0.4008,0.2847,-1.026,-0.0678,-0.8581,-0.0322,22.4968,12.6026,-35.0506,,0.017705000000000304,1.1377041487135398,1.2118821319854414,lateral_fall
2.991979,0.4008,0.2847,-1.026,-0.0678,-0.8581,-0.0322,22.4968,12.6026,-35.0506,,0.006045999999999996,1.1377041487135398,1.1800970252134722,lateral_fall
2.994792,0.4008,0.2847,-1.026,-0.0678,-0.8581,-0.0322,22.4968,12.6026,-35.0506,,0.0028129999999997324,1.1377041487135398,1.1360427213286695,non_fall
2.997013,0.4008,0.2847,-1.026,-0.0678,-0.8581,-0.0322,22.4968,12.6026,-35.0506,,0.0022210000000000285,1.1377041487135398,1.083948018495239,non_fall
3.006147,0.4008,0.2847,-1.026,-0.0678,-0.8581,-0.0322,20.1666,12.688,-36.3804,,0.009133999999999975,1.1377041487135398,1.0286842120662323,non_fall
3.037684,0.4008,0.2847,-1.026,-0.147,-0.3795,0.0189,20.1666,12.688,-36.3804,,0.03153700000000015,1.1377041487135398,0.9752964187379095,non_fall
3.053024,0.2458,0.071,-0.6645,-0.147,-0.3795,0.0189,20.1666,12.688,-36.3804,,0.015340000000000131,0.7120525893499721,0.9285148728713379,non_fall
3.061462,0.2458,0.071,-0.6645,-0.147,-0.3795,0.0189,20.1666,12.688,-36.3804,,0.008437999999999946,0.7120525893499721,0.8922875665520713,non_fall
3.063145,0.2458,0.071,-0.6645,-0.147,-0.3795,0.0189,20.1666,12.688,-36.3804,,0.001682999999999879,0.7120525893499721,0.8693820523559032,non_fall
3.064827,0.2458,0.071,-0.6645,-0.147,-0.3795,0.0189,20.1666,12.688,-36.3804,,0.0016820000000001833,0.7120525893499721,0.8611044334805616,non_fall
3.066343,0.2458,0.071,-0.6645,-0.147,-0.3795,0.0189,20.1666,12.688,-36.3804,,0.0015159999999996288,0.7120525893499721,0.8671734241754548,non_fall
3.067477,0.2458,0.071,-0.6645,-0.147,-0.3795,0.0189,17.8486,12.8832,-37.5272,,0.0011339999999999684,0.7120525893499721,0.8857688279946031,non_fall
3.108036,0.2458,0.071,-0.6645,-0.308,-0.0178,0.2313,17.8486,12.8832,-37.5272,,0.04055900000000001,0.7120525893499721,0.913751734764526,non_fall
3.117092,0.5723,0.3356,-0.9769,-0.308,-0.0178,0.2313,17.8486,12.8832,-37.5272,,0.009056000000000175,1.180884524413797,0.9470312776191057,non_fall
3.122686,0.5723,0.3356,-0.9769,-0.308,-0.0178,0.2313,17.8486,12.8832,-37.5272,,0.005593999999999877,1.180884524413797,0.9810315523753715,non_fall
3.124957,0.5723,0.3356,-0.9769,-0.308,-0.0178,0.2313,17.8486,12.8832,-37.5272,,0.002271000000000356,1.180884524413797,1.0111960927696988,non_fall
3.126912,0.5723,0.3356,-0.9769,-0.308,-0.0178,0.2313,17.8486,12.8832,-37.5272,,0.001954999999999707,1.180884524413797,1.0334621504322743,non_fall
3.128475,0.5723,0.3356,-0.9769,-0.308,-0.0178,0.2313,15.7136,13.1516,-38.4788,,0.001562999999999981,1.180884524413797,1.044645881776593,non_fall
3.176262,0.5723,0.3356,-0.9769,-0.4607,0.2947,0.4369,15.7136,13.1516,-38.4788,,0.047787000000000024,1.180884524413797,1.0426986784194738,non_fall
3.190367,0.5723,0.3356,-0.9769,-0.4607,0.2947,0.4369,14.0056,13.4932,-39.0888,,0.014105000000000256,1.180884524413797,1.026817540965485,non_fall
3.192421,0.3418,0.5874,-0.4341,-0.4607,0.2947,0.4369,14.0056,13.4932,-39.0888,,0.0020539999999997782,0.8064172679202747,0.9974142150219196,non_fall
3.194486,0.3418,0.5874,-0.4341,-0.4607,0.2947,0.4369,14.0056,13.4932,-39.0888,,0.0020649999999999835,0.8064172679202747,0.9559669424915271,non_fall
3.196201,0.3418,0.5874,-0.4341,-0.4607,0.2947,0.4369,14.0056,13.4932,-39.0888,,0.001714999999999911,0.8064172679202747,0.9047924312913838,non_fall
3.197348,0.3418,0.5874,-0.4341,-0.4607,0.2947,0.4369,14.0056,13.4932,-39.0888,,0.0011470000000000091,0.8064172679202747,0.8467800384316309,non_fall
3.247265,0.3418,0.5874,-0.4341,-0.4607,0.2947,0.4369,12.688,13.9324,-39.5158,,0.04991700000000021,0.8064172679202747,0.7851240681532748,non_fall
3.251106,0.3418,0.5874,-0.4341,-0.4799,0.3489,0.5851,12.688,13.9324,-39.5158,,0.0038409999999999833,0.8064172679202747,0.7230779766712366,non_fall
3.256857,0.1405,0.5108,0.0986,-0.4799,0.3489,0.5851,12.688,13.9324,-39.5158,,0.005751000000000062,0.5388681193019309,0.6637430644341831,non_fall
3.25949,0.1405,0.5108,0.0986,-0.4799,0.3489,0.5851,12.688,13.9324,-39.5158,,0.0026329999999998854,0.5388681193019309,0.6098979379719779,non_fall
3.261054,0.1405,0.5108,0.0986,-0.4799,0.3489,0.5851,12.688,13.9324,-39.5158,,0.0015640000000001208,0.5388681193019309,0.5638726368334543,non_fall
3.262117,0.1405,0.5108,0.0986,-0.4799,0.3489,0.5851,12.688,13.9324,-39.5158,,0.001062999999999814,0.5388681193019309,0.527469002506885,non_fall
3.263197,0.1405,0.5108,0.0986,-0.4799,0.3489,0.5851,12.688,13.9324,-39.5158,,0.0010799999999999699,0.5388681193019309,0.5019242141519556,non_fall
3.305797,0.1405,0.5108,0.0986,-0.4799,0.3489,0.5851,12.0536,14.4082,-39.5646,,0.04260000000000019,0.5388681193019309,0.48790877986627135,non_fall
3.31494,0.1405,0.5108,0.0986,-0.5712,0.2975,0.7073,12.0536,14.4082,-39.5646,,0.009142999999999901,0.5388681193019309,0.48554674683753024,non_fall
3.322596,0.1405,0.5108,0.0986,-0.5712,0.2975,0.7073,12.0536,14.4082,-39.5646,,0.007655999999999885,0.5388681193019309,0.4944461469583863,non_fall
3.324489,0.1405,0.5108,0.0986,-0.5712,0.2975,0.7073,12.0536,14.4082,-39.5646,,0.0018929999999999225,0.5388681193019309,0.5137313055917289,non_fall
3.325834,0.1405,0.5108,0.0986,-0.5712,0.2975,0.7073,12.0536,14.4082,-39.5646,,0.0013450000000001516,0.5388681193019309,0.5420742088140483,non_fall
3.330035,-0.1582,0.552,0.0926,-0.5712,0.2975,0.7073,12.0536,14.4082,-39.5646,,0.004201000000000121,0.5816407826141493,0.5777281021634149,non_fall
3.365895,-0.1582,0.552,0.0926,-0.5712,0.2975,0.7073,11.9682,15.0304,-39.3694,,0.03586,0.5816407826141493,0.6185715273520893,non_fall
3.385381,-0.1582,0.552,0.0926,-0.7534,0.4684,0.8221,11.9682,15.0304,-39.3694,,0.019486000000000114,0.5816407826141493,0.6621741632597058,non_fall
3.389886,-0.1582,0.552,0.0926,-0.7534,0.4684,0.8221,11.9682,15.0304,-39.3694,,0.004504999999999981,0.5816407826141493,0.7058965649338558,non_fall
3.392198,-0.1582,0.552,0.0926,-0.7534,0.4684,0.8221,11.9682,15.0304,-39.3694,,0.0023119999999998697,0.5816407826141493,0.7470335401382217,non_fall
3.394193,-0.1582,0.552,0.0926,-0.7534,0.4684,0.8221,11.9682,15.0304,-39.3694,,0.001994999999999969,0.5816407826141493,0.7830044477641082,non_fall
3.396751,0.3926,0.7972,-0.4349,-0.7534,0.4684,0.8221,11.9682,15.0304,-39.3694,,0.0025580000000000602,0.989343524767813,0.8115823495195279,non_fall
3.424647,0.3926,0.7972,-0.4349,-0.7534,0.4684,0.8221,12.4562,15.7746,-38.8814,,0.027896000000000143,0.989343524767813,0.831138786105221,non_fall
3.458508,0.3926,0.7972,-0.4349,-1.0408,0.6152,0.7963,12.4562,15.7746,-38.8814,,0.03386099999999992,0.989343524767813,0.8408666513530737,non_fall
3.462614,0.3926,0.7972,-0.4349,-1.0408,0.6152,0.7963,12.4562,15.7746,-38.8814,,0.004105999999999721,0.989343524767813,0.8409371421647502,non_fall
3.465287,0.3926,0.7972,-0.4349,-1.0408,0.6152,0.7963,12.4562,15.7746,-38.8814,,0.0026730000000001475,0.989343524767813,0.8325521702604706,non_fall
3.467334,0.3926,0.7972,-0.4349,-1.0408,0.6152,0.7963,12.4562,15.7746,-38.8814,,0.002047000000000132,0.989343524767813,0.8178689502421514,non_fall
3.469537,0.3926,0.7972,-0.4349,-1.0408,0.6152,0.7963,12.4562,15.7746,-38.8814,,0.002202999999999733,0.989343524767813,0.7997936946266501,non_fall
3.471443,-0.0372,0.5798,-0.0167,-1.0408,0.6152,0.7963,12.4562,15.7746,-38.8814,,0.0019059999999999633,0.581232113703295,0.7816629584796303,non_fall
3.485203,-0.0372,0.5798,-0.0167,-1.0408,0.6152,0.7963,13.5298,16.6896,-38.064,,0.013759999999999994,0.581232113703295,0.766852103645265,non_fall
3.525527,-0.0372,0.5798,-0.0167,-1.1414,0.4262,0.8089,13.5298,16.6896,-38.064,,0.040324000000000026,0.581232113703295,0.7583666646109547,non_fall
3.52921,-0.0372,0.5798,-0.0167,-1.1414,0.4262,0.8089,13.5298,16.6896,-38.064,,0.003683000000000103,0.581232113703295,0.75847822409613,non_fall
3.53114,-0.0372,0.5798,-0.0167,-1.1414,0.4262,0.8089,13.5298,16.6896,-38.064,,0.0019300000000002093,0.581232113703295,0.7684586037885857,non_fall
3.533396,-0.0372,0.5798,-0.0167,-1.1414,0.4262,0.8089,13.5298,16.6896,-38.064,,0.0022560000000000358,0.581232113703295,0.7884474720850808,non_fall
3.53602,-0.8667,0.0499,0.4625,-1.1414,0.4262,0.8089,13.5298,16.6896,-38.064,,0.0026239999999999597,0.9836488956939871,0.8174645864682859,non_fall
3.545217,-0.8667,0.0499,0.4625,-1.1414,0.4262,0.8089,14.9328,17.8364,-37.0514,,0.0091969999999999,0.9836488956939871,0.8535537907477835,non_fall
3.591187,-0.8667,0.0499,0.4625,-1.1414,0.4262,0.8089,14.9328,17.8364,-37.0514,,0.045970000000000066,0.9836488956939871,0.8940263423257158,non_fall
3.59431,-0.8667,0.0499,0.4625,-1.1414,0.4262,0.8089,14.9328,17.8364,-37.0514,,0.003122999999999987,0.9836488956939871,0.9357613209966426,non_fall
3.596904,-0.8667,0.0499,0.4625,-1.1414,0.4262,0.8089,14.9328,17.8364,-37.0514,,0.002593999999999763,0.9836488956939871,0.9755227304004869,non_fall
3.598807,-0.8667,0.0499,0.4625,-1.0788,0.0447,0.8133,14.9328,17.8364,-37.0514,,0.001902999999999988,0.9836488956939871,1.0102624474696635,non_fall
3.60542,-0.8667,0.0499,0.4625,-1.0788,0.0447,0.8133,16.4578,19.0442,-35.868,,0.006613000000000202,0.9836488956939871,1.0373886420875467,non_fall
3.608315,-0.9015,-0.3517,0.5609,-1.0788,0.0447,0.8133,16.4578,19.0442,-35.868,,0.002895000000000092,1.1184828787245695,1.054986160409093,non_fall
3.657829,-0.9015,-0.3517,0.5609,-1.0788,0.0447,0.8133,16.4578,19.0442,-35.868,,0.049513999999999836,1.1184828787245695,1.0619778630235466,non_fall
3.660381,-0.9015,-0.3517,0.5609,-1.0788,0.0447,0.8133,16.4578,19.0442,-35.868,,0.0025520000000001097,1.1184828787245695,1.0582159426345752,non_fall
3.661988,-0.9015,-0.3517,0.5609,-1.0788,0.0447,0.8133,16.4578,19.0442,-35.868,,0.001606999999999914,1.1184828787245695,1.04449287483472,non_fall
3.664651,-0.9015,-0.3517,0.5609,-1.0788,0.0447,0.8133,16.4578,19.0442,-35.868,,0.002663000000000082,1.1184828787245695,1.0224651479160989,non_fall
3.66638,-0.9015,-0.3517,0.5609,-1.0788,0.0447,0.8133,17.9584,20.3252,-34.6358,,0.0017290000000000916,1.1184828787245695,0.994489602290069,non_fall
3.668445,-0.9015,-0.3517,0.5609,-0.9924,-0.3044,0.7579,17.9584,20.3252,-34.6358,,0.0020649999999999835,1.1184828787245695,0.9633813960450774,non_fall
3.675129,-0.5716,-0.4025,0.2145,-0.9924,-0.3044,0.7579,17.9584,20.3252,-34.6358,,0.006683999999999912,0.7312612802548758,0.9321138892654295,non_fall
3.725914,-0.5716,-0.4025,0.2145,-0.9924,-0.3044,0.7579,19.3614,21.6062,-33.2938,,0.05078499999999986,0.7312612802548758,0.903493169743946,non_fall
3.732127,-0.5716,-0.4025,0.2145,-0.9924,-0.3044,0.7579,19.3614,21.6062,-33.2938,,0.006213000000000246,0.7312612802548758,0.8798499650069008,non_fall
3.734985,-0.5716,-0.4025,0.2145,-0.9924,-0.3044,0.7579,19.3614,21.6062,-33.2938,,0.002857999999999805,0.7312612802548758,0.8627937508577362,non_fall
3.737818,-0.5716,-0.4025,0.2145,-0.9924,-0.3044,0.7579,19.3614,21.6062,-33.2938,,0.0028329999999998634,0.7312612802548758,0.8530650351366306,non_fall
3.74027,-0.5716,-0.4025,0.2145,-1.1486,-0.5802,0.6414,19.3614,21.6062,-33.2938,,0.002452000000000343,0.7312612802548758,0.8505047426972581,non_fall
3.744988,-0.6705,-0.5039,0.4556,-1.1486,-0.5802,0.6414,19.3614,21.6062,-33.2938,,0.004718,0.9544929648771645,0.8541398414412316,non_fall
3.785052,-0.6705,-0.5039,0.4556,-1.1486,-0.5802,0.6414,20.618,22.9604,-31.8298,,0.040063999999999655,0.9544929648771645,0.8623661421496001,non_fall
3.789401,-0.6705,-0.5039,0.4556,-1.1486,-0.5802,0.6414,20.618,22.9604,-31.8298,,0.004348999999999936,0.9544929648771645,0.8731956154814018,non_fall
3.791258,-0.6705,-0.5039,0.4556,-1.1486,-0.5802,0.6414,20.618,22.9604,-31.8298,,0.0018570000000002196,0.9544929648771645,0.8845293519259323,non_fall
3.793545,-0.6705,-0.5039,0.4556,-1.1486,-0.5802,0.6414,20.618,22.9604,-31.8298,,0.002286999999999928,0.9544929648771645,0.8944193778142482,non_fall
3.805124,-0.6705,-0.5039,0.4556,-1.2606,-0.8093,0.6862,20.618,22.9604,-31.8298,,0.011579000000000228,0.9544929648771645,0.9012906175126755,non_fall
3.814783,-0.551,-0.4921,0.5199,-1.2606,-0.8093,0.6862,20.618,22.9604,-31.8298,,0.00965899999999964,0.9033600721749883,0.9041045381386692,non_fall
3.845232,-0.551,-0.4921,0.5199,-1.2606,-0.8093,0.6862,21.6184,24.3268,-30.4024,,0.030449000000000392,0.9033600721749883,0.9024556828839349,non_fall
3.857371,-0.551,-0.4921,0.5199,-1.2606,-0.8093,0.6862,21.6184,24.3268,-30.4024,,0.0121389999999999,0.9033600721749883,0.8966001227631103,non_fall
3.860159,-0.551,-0.4921,0.5199,-1.2606,-0.8093,0.6862,21.6184,24.3268,-30.4024,,0.0027879999999997906,0.9033600721749883,0.8874202764643802,non_fall
3.862517,-0.551,-0.4921,0.5199,-1.2606,-0.8093,0.6862,21.6184,24.3268,-30.4024,,0.0023580000000000823,0.9033600721749883,0.8763336560197379,non_fall
3.864928,-0.551,-0.4921,0.5199,-1.2606,-0.8093,0.6862,21.6184,24.3268,-30.4024,,0.002410999999999941,0.9033600721749883,0.8651548255369842,non_fall
3.874735,-0.551,-0.4921,0.5199,-1.2926,-0.8794,0.8687,21.6184,24.3268,-30.4024,,0.009806999999999899,0.9033600721749883,0.8559215071772003,non_fall
3.884744,-0.0753,-0.1959,0.7717,-1.2926,-0.8794,0.8687,21.6184,24.3268,-30.4024,,0.010009000000000157,0.7997298231277862,0.8506982345531956,non_fall
3.902677,-0.0753,-0.1959,0.7717,-1.2926,-0.8794,0.8687,22.387,25.7176,-29.0238,,0.0179330000000002,0.7997298231277862,0.8513742511052796,non_fall
3.925239,-0.0753,-0.1959,0.7717,-1.2926,-0.8794,0.8687,22.387,25.7176,-29.0238,,0.02256199999999975,0.7997298231277862,0.8594753494445446,non_fall
3.928652,-0.0753,-0.1959,0.7717,-1.2926,-0.8794,0.8687,22.387,25.7176,-29.0238,,0.0034130000000001104,0.7997298231277862,0.8760101717427684,non_fall
3.930568,-0.0753,-0.1959,0.7717,-1.2926,-0.8794,0.8687,22.387,25.7176,-29.0238,,0.0019160000000000288,0.7997298231277862,0.9013688008856516,non_fall
3.942928,-0.0753,-0.1959,0.7717,-1.3679,-0.8802,0.9039,22.387,25.7176,-29.0238,,0.012360000000000149,0.7997298231277862,0.935285284021817,non_fall
3.954602,0.2777,0.4067,1.0126,-1.3679,-0.8802,0.9039,22.387,25.7176,-29.0238,,0.01167399999999974,1.126002193603547,0.9768668452287043,non_fall
3.965106,0.2777,0.4067,1.0126,-1.3679,-0.8802,0.9039,22.8018,27.0352,-27.7794,,0.010504000000000069,1.126002193603547,1.0246822561125013,non_fall
3.991058,0.2777,0.4067,1.0126,-1.3679,-0.8802,0.9039,22.8018,27.0352,-27.7794,,0.025952000000000197,1.126002193603547,1.0768929799089146,non_fall
3.994248,0.2777,0.4067,1.0126,-1.3679,-0.8802,0.9039,22.8018,27.0352,-27.7794,,0.003189999999999582,1.126002193603547,1.131407252281382,non_fall
3.996998,0.2777,0.4067,1.0126,-1.3679,-0.8802,0.9039,22.8018,27.0352,-27.7794,,0.0027500000000002522,1.126002193603547,1.186040718825478,non_fall
4.014282,0.2777,0.4067,1.0126,-1.3477,-1.0725,0.8024,22.8018,27.0352,-27.7794,,0.017283999999999633,1.126002193603547,1.238674277689532,non_fall
4.0246,0.2777,0.4067,1.0126,-1.3477,-1.0725,0.8024,23.0702,28.2308,-26.5716,,0.010318000000000715,1.126002193603547,1.287404761317558,non_fall
4.028028,1.497,-0.1615,0.1827,-1.3477,-1.0725,0.8024,23.0702,28.2308,-26.5716,,0.0034279999999995425,1.5167302133207476,1.3306833447514854,non_fall
4.057421,1.497,-0.1615,0.1827,-1.3477,-1.0725,0.8024,23.0702,28.2308,-26.5716,,0.02939299999999978,1.5167302133207476,1.3674303120097007,non_fall
4.060621,1.497,-0.1615,0.1827,-1.3477,-1.0725,0.8024,23.0702,28.2308,-26.5716,,0.0032000000000005357,1.5167302133207476,1.3971074220538393,non_fall
4.063053,1.497,-0.1615,0.1827,-1.3477,-1.0725,0.8024,23.0702,28.2308,-26.5716,,0.0024319999999997677,1.5167302133207476,1.4197271171419104,non_fall
4.065712,1.497,-0.1615,0.1827,-1.3477,-1.0725,0.8024,23.0702,28.2308,-26.5716,,0.002659000000000411,1.5167302133207476,1.4357849254772668,non_fall
4.083836,1.497,-0.1615,0.1827,-1.3477,-1.0725,0.8024,23.2166,29.341,-25.4858,,0.018123999999999363,1.5167302133207476,1.4461154626932478,non_fall
4.087149,1.497,-0.1615,0.1827,-0.9561,-1.3004,0.7233,23.2166,29.341,-25.4858,,0.0033130000000003434,1.5167302133207476,1.4516883318619187,non_fall
4.095053,1.1852,0.3533,-0.0436,-0.9561,-1.3004,0.7233,23.2166,29.341,-25.4858,,0.007903999999999911,1.2375059151373784,1.4533744334752672,non_fall
4.125532,1.1852,0.3533,-0.0436,-0.9561,-1.3004,0.7233,23.2166,29.341,-25.4858,,0.0304789999999997,1.2375059151373784,1.4517240232452215,non_fall
4.129184,1.1852,0.3533,-0.0436,-0.9561,-1.3004,0.7233,23.2166,29.341,-25.4858,,0.0036520000000006547,1.2375059151373784,1.446802796342983,non_fall
4.131415,1.1852,0.3533,-0.0436,-0.9561,-1.3004,0.7233,23.2166,29.341,-25.4858,,0.002230999999999206,1.2375059151373784,1.4381277109177573,non_fall
4.142658,1.1852,0.3533,-0.0436,-0.9561,-1.3004,0.7233,23.1678,30.3414,-24.461,,0.011243000000000336,1.2375059151373784,1.424728629031503,non_fall
4.152377,1.1852,0.3533,-0.0436,-0.7756,-1.1856,0.3875,23.1678,30.3414,-24.461,,0.009719000000000477,1.2375059151373784,1.4053378353846282,non_fall
4.162618,1.003,0.0104,-1.2262,-0.7756,-1.1856,0.3875,23.1678,30.3414,-24.461,,0.010240999999999723,1.584198093673894,1.3786821210234967,non_fall
4.191746,1.003,0.0104,-1.2262,-0.7756,-1.1856,0.3875,23.1678,30.3414,-24.461,,0.029128000000000043,1.584198093673894,1.343826392973506,non_fall
4.194872,1.003,0.0104,-1.2262,-0.7756,-1.1856,0.3875,23.1678,30.3414,-24.461,,0.003125999999999962,1.584198093673894,1.3004992880739827,non_fall
4.197283,1.003,0.0104,-1.2262,-0.7756,-1.1856,0.3875,23.1678,30.3414,-24.461,,0.002410999999999497,1.584198093673894,1.2493263716720016,non_fall
4.202189,1.003,0.0104,-1.2262,-0.7756,-1.1856,0.3875,22.9604,31.3662,-23.6436,,0.004906000000000077,1.584198093673894,1.1919088391001453,non_fall
4.222047,1.003,0.0104,-1.2262,-0.7543,-0.6828,-0.0614,22.9604,31.3662,-23.6436,,0.019858000000000153,1.584198093673894,1.1307136045992574,non_fall
4.232152,0.2084,-0.4514,-0.4051,-0.7543,-0.6828,-0.0614,22.9604,31.3662,-23.6436,,0.010105000000000253,0.6413256037302737,1.0687794700294155,non_fall
4.255967,0.2084,-0.4514,-0.4051,-0.7543,-0.6828,-0.0614,22.57,32.391,-22.8872,,0.02381499999999992,0.6413256037302737,1.0092872404733397,non_fall
4.260058,0.2084,-0.4514,-0.4051,-0.7543,-0.6828,-0.0614,22.57,32.391,-22.8872,,0.004090999999999845,0.6413256037302737,0.9550782439266572,non_fall
4.261959,0.2084,-0.4514,-0.4051,-0.7543,-0.6828,-0.0614,22.57,32.391,-22.8872,,0.0019010000000001526,0.6413256037302737,0.9082214492906872,non_fall
4.263994,0.2084,-0.4514,-0.4051,-0.7543,-0.6828,-0.0614,22.57,32.391,-22.8872,,0.002035000000000231,0.6413256037302737,0.8697170794336061,non_fall
4.265997,0.2084,-0.4514,-0.4051,-0.7543,-0.6828,-0.0614,22.57,32.391,-22.8872,,0.002002999999999311,0.6413256037302737,0.8393912534826209,non_fall
4.292074,0.2084,-0.4514,-0.4051,-0.816,-0.728,0.081,22.57,32.391,-22.8872,,0.026077000000000794,0.6413256037302737,0.8159956582534339,non_fall
4.301883,-0.7126,-0.5495,-0.4563,-0.816,-0.728,0.081,22.57,32.391,-22.8872,,0.009808999999999735,1.0089393936208457,0.7974882328353862,non_fall
4.323051,-0.7126,-0.5495,-0.4563,-0.816,-0.728,0.081,22.1186,33.4158,-22.082,,0.021168000000000298,1.0089393936208457,0.7814393814436741,non_fall
4.326805,-0.7126,-0.5495,-0.4563,-0.816,-0.728,0.081,22.1186,33.4158,-22.082,,0.003753999999999813,1.0089393936208457,0.7654868644349384,non_fall
4.329527,-0.7126,-0.5495,-0.4563,-0.816,-0.728,0.081,22.1186,33.4158,-22.082,,0.002721999999999447,1.0089393936208457,0.7477560519395029,non_fall
4.33181,-0.7126,-0.5495,-0.4563,-0.816,-0.728,0.081,22.1186,33.4158,-22.082,,0.002283000000000257,1.0089393936208457,0.7271728557366228,non_fall
4.363468,-0.7126,-0.5495,-0.4563,-0.696,-0.8707,0.332,22.1186,33.4158,-22.082,,0.031658000000000186,1.0089393936208457,0.703621194733733,non_fall
4.372991,-0.0866,-0.4465,0.0846,-0.696,-0.8707,0.332,22.1186,33.4158,-22.082,,0.009522999999999726,0.46262184340992807,0.6779292525503655,non_fall
4.382271,-0.0866,-0.4465,0.0846,-0.696,-0.8707,0.332,21.655,34.3552,-21.289,,0.009280000000000399,0.46262184340992807,0.6517030441491496,non_fall
4.389579,-0.0866,-0.4465,0.0846,-0.696,-0.8707,0.332,21.655,34.3552,-21.289,,0.007308000000000092,0.46262184340992807,0.6270547649743989,non_fall
4.393972,-0.0866,-0.4465,0.0846,-0.696,-0.8707,0.332,21.655,34.3552,-21.289,,0.004392999999999425,0.46262184340992807,0.6062887188096829,non_fall
4.396236,-0.0866,-0.4465,0.0846,-0.696,-0.8707,0.332,21.655,34.3552,-21.289,,0.002264000000000266,0.46262184340992807,0.5916052957353436,non_fall
4.432043,-0.0866,-0.4465,0.0846,-0.4161,-0.7148,0.3811,21.655,34.3552,-21.289,,0.035807000000000144,0.46262184340992807,0.5848677166620667,non_fall
4.441608,-0.0866,-0.4465,0.0846,-0.4161,-0.7148,0.3811,21.1914,35.2214,-20.5692,,0.00956499999999938,0.46262184340992807,0.5874552481964403,non_fall
4.445597,0.6489,-0.2435,0.3178,-0.4161,-0.7148,0.3811,21.1914,35.2214,-20.5692,,0.0039890000000006864,0.7624698682571004,0.6002059665722924,non_fall
4.457078,0.6489,-0.2435,0.3178,-0.4161,-0.7148,0.3811,21.1914,35.2214,-20.5692,,0.011480999999999852,0.7624698682571004,0.6234343591472198,non_fall
4.461018,0.6489,-0.2435,0.3178,-0.4161,-0.7148,0.3811,21.1914,35.2214,-20.5692,,0.003940000000000055,0.7624698682571004,0.6569966429200382,non_fall
4.463377,0.6489,-0.2435,0.3178,-0.4161,-0.7148,0.3811,21.1914,35.2214,-20.5692,,0.002359000000000222,0.7624698682571004,0.7003730324383461,non_fall
4.465707,0.6489,-0.2435,0.3178,-0.4161,-0.7148,0.3811,21.1914,35.2214,-20.5692,,0.002329999999999721,0.7624698682571004,0.7527422544699123,non_fall
4.501849,0.6489,-0.2435,0.3178,-0.4161,-0.7148,0.3811,20.7034,35.9778,-19.947,,0.036141999999999896,0.7624698682571004,0.8130356592931253,non_fall
4.505869,0.6489,-0.2435,0.3178,-0.2423,-0.6007,0.3735,20.7034,35.9778,-19.947,,0.0040199999999996905,0.7624698682571004,0.8799702923535085,non_fall
4.511894,-0.0426,-0.6624,0.8602,-0.2423,-0.6007,0.3735,20.7034,35.9778,-19.947,,0.006025000000000169,1.086523152077304,0.9520678019133588,non_fall
4.523203,-0.0426,-0.6624,0.8602,-0.2423,-0.6007,0.3735,20.7034,35.9778,-19.947,,0.011308999999999791,1.086523152077304,1.027667929810416,non_fall
4.526263,-0.0426,-0.6624,0.8602,-0.2423,-0.6007,0.3735,20.7034,35.9778,-19.947,,0.0030600000000005068,1.086523152077304,1.1049438809428105,non_fall
4.528876,-0.0426,-0.6624,0.8602,-0.2423,-0.6007,0.3735,20.7034,35.9778,-19.947,,0.0026130000000001985,1.086523152077304,1.1819261802616243,non_fall
4.561335,-0.0426,-0.6624,0.8602,-0.2423,-0.6007,0.3735,20.1544,36.6854,-19.459,,0.03245899999999935,1.086523152077304,1.2565434996544393,non_fall
4.570798,-0.0426,-0.6624,0.8602,0.1997,-0.4001,0.176,20.1544,36.6854,-19.459,,0.009463000000000221,1.086523152077304,1.3266904024770696,non_fall
4.581739,-0.7702,-0.7139,1.1747,0.1997,-0.4001,0.176,20.1544,36.6854,-19.459,,0.010940999999999867,1.575684403679874,1.3903280670318887,non_fall
4.591189,-0.7702,-0.7139,1.1747,0.1997,-0.4001,0.176,20.1544,36.6854,-19.459,,0.00945000000000018,1.575684403679874,1.4456131831897974,non_fall
4.592923,-0.7702,-0.7139,1.1747,0.1997,-0.4001,0.176,20.1544,36.6854,-19.459,,0.0017339999999999023,1.575684403679874,1.4910368428534528,non_fall
4.593951,-0.7702,-0.7139,1.1747,0.1997,-0.4001,0.176,20.1544,36.6854,-19.459,,0.0010279999999998068,1.575684403679874,1.5255473473965107,non_fall
4.621301,-0.7702,-0.7139,1.1747,0.1997,-0.4001,0.176,19.5932,37.3198,-19.2516,,0.027350000000000207,1.575684403679874,1.5486330937782615,non_fall
4.640633,-0.7702,-0.7139,1.1747,0.5736,-0.445,0.0354,19.5932,37.3198,-19.2516,,0.01933200000000035,1.575684403679874,1.5603514360595558,non_fall
4.651503,-0.7702,-0.7139,1.1747,0.5736,-0.445,0.0354,19.5932,37.3198,-19.2516,,0.010869999999999713,1.575684403679874,1.5613004367445877,non_fall
4.655857,-0.7702,-0.7139,1.1747,0.5736,-0.445,0.0354,19.5932,37.3198,-19.2516,,0.004354000000000191,1.575684403679874,1.552538800931344,non_fall
4.658091,-0.7702,-0.7139,1.1747,0.5736,-0.445,0.0354,19.5932,37.3198,-19.2516,,0.002233999999999625,1.575684403679874,1.5354646734508421,non_fall
4.660123,-0.7702,-0.7139,1.1747,0.5736,-0.445,0.0354,19.5932,37.3198,-19.2516,,0.0020319999999998117,1.575684403679874,1.5116676344480187,non_fall
4.66202,-1.0875,-0.7782,0.037,0.5736,-0.445,0.0354,19.5932,37.3198,-19.2516,,0.0018970000000004816,1.3377669789615827,1.482771476414421,non_fall
4.681059,-1.0875,-0.7782,0.037,0.5736,-0.445,0.0354,19.0442,37.7834,-19.2394,,0.01903900000000025,1.3377669789615827,1.4502885908402654,non_fall
4.712371,-1.0875,-0.7782,0.037,0.6294,-0.388,0.2212,19.0442,37.7834,-19.2394,,0.031311999999999784,1.3377669789615827,1.415508560597202,non_fall
4.721671,-1.057,0.218,-0.6928,0.6294,-0.388,0.2212,19.0442,37.7834,-19.2394,,0.009299999999999642,1.2824760582560595,1.3794410886582975,non_fall
4.724935,-1.057,0.218,-0.6928,0.6294,-0.388,0.2212,19.0442,37.7834,-19.2394,,0.0032640000000005998,1.2824760582560595,1.3428253803826504,non_fall
4.726044,-1.057,0.218,-0.6928,0.6294,-0.388,0.2212,19.0442,37.7834,-19.2394,,0.0011089999999995825,1.2824760582560595,1.306206294625454,non_fall
4.727166,-1.057,0.218,-0.6928,0.6294,-0.388,0.2212,19.0442,37.7834,-19.2394,,0.0011220000000005115,1.2824760582560595,1.2700651637673024,non_fall
4.740542,-1.057,0.218,-0.6928,0.6294,-0.388,0.2212,18.605,37.942,-19.6176,,0.013375999999999166,1.2824760582560595,1.2349825643377466,non_fall
4.779953,-1.057,0.218,-0.6928,0.7356,0.2198,0.5681,18.605,37.942,-19.6176,,0.03941100000000031,1.2824760582560595,1.2018029433145712,non_fall
4.791104,-1.057,0.218,-0.6928,0.7356,0.2198,0.5681,18.605,37.942,-19.6176,,0.011150999999999911,1.2824760582560595,1.1717678616368954,non_fall
4.792031,-1.057,0.218,-0.6928,0.7356,0.2198,0.5681,18.605,37.942,-19.6176,,0.0009269999999999001,1.2824760582560595,1.1465862334183483,non_fall
4.792532,-1.057,0.218,-0.6928,0.7356,0.2198,0.5681,18.605,37.942,-19.6176,,0.0005009999999998627,1.2824760582560595,1.128416345136108,non_fall
4.792996,-1.057,0.218,-0.6928,0.7356,0.2198,0.5681,18.605,37.942,-19.6176,,0.00046400000000001995,1.2824760582560595,1.1197453432097115,non_fall
4.793487,-0.2421,1.0272,-0.3704,0.7356,0.2198,0.5681,18.605,37.942,-19.6176,,0.0004910000000002412,1.1184580501744354,1.1231666860124774,non_fall
4.799114,-0.2421,1.0272,-0.3704,0.7356,0.2198,0.5681,18.4708,37.759,-20.252,,0.005627000000000493,1.1184580501744354,1.1410733931400145,non_fall
4.852529,-0.2421,1.0272,-0.3704,0.7883,0.6702,0.7469,18.4708,37.759,-20.252,,0.053414999999999324,1.1184580501744354,1.1753019550505466,non_fall
4.856638,-0.2421,1.0272,-0.3704,0.7883,0.6702,0.7469,18.4708,37.759,-20.252,,0.004109000000000584,1.1184580501744354,1.2267746117242462,non_fall
4.859014,-0.2421,1.0272,-0.3704,0.7883,0.6702,0.7469,18.4708,37.759,-20.252,,0.0023759999999999337,1.1184580501744354,1.2951934316992486,non_fall
4.860863,-0.2421,1.0272,-0.3704,0.7883,0.6702,0.7469,18.4708,37.759,-20.252,,0.0018489999999999895,1.1184580501744354,1.3788375237547643,non_fall
4.862494,-0.2421,1.0272,-0.3704,0.7883,0.6702,0.7469,18.6172,37.3076,-21.0694,,0.001630999999999716,1.1184580501744354,1.4745051467870194,non_fall
4.865652,0.6135,1.6706,0.0582,0.7883,0.6702,0.7469,18.6172,37.3076,-21.0694,,0.003157999999999994,1.7806386073541145,1.577625355826653,non_fall
4.920325,0.6135,1.6706,0.0582,0.7883,0.6702,0.7469,19.1052,36.5756,-21.9722,,0.054673000000000194,1.7806386073541145,1.6825401224637118,non_fall
4.923346,0.6135,1.6706,0.0582,1.0013,0.7461,0.7985,19.1052,36.5756,-21.9722,,0.0030209999999994963,1.7806386073541145,1.7829330324067445,non_fall
4.925051,0.6135,1.6706,0.0582,1.0013,0.7461,0.7985,19.1052,36.5756,-21.9722,,0.0017050000000002896,1.7806386073541145,1.87236338975864,non_fall
4.926187,0.6135,1.6706,0.0582,1.0013,0.7461,0.7985,19.1052,36.5756,-21.9722,,0.0011359999999998038,1.7806386073541145,1.9448590464112168,non_fall
4.927325,0.6135,1.6706,0.0582,1.0013,0.7461,0.7985,19.1052,36.5756,-21.9722,,0.0011380000000000834,1.7806386073541145,1.9955222556561951,non_fall
4.931909,1.0263,1.9842,0.443,1.0013,0.7461,0.7985,19.1052,36.5756,-21.9722,,0.0045840000000003656,2.277408687521851,2.021101038163019,non_fall
4.979845,1.0263,1.9842,0.443,1.0013,0.7461,0.7985,19.8738,35.4654,-23.0824,,0.04793599999999998,2.277408687521851,2.020470047050992,non_fall
4.990335,1.0263,1.9842,0.443,1.0892,0.0419,0.7856,19.8738,35.4654,-23.0824,,0.010489999999999888,2.277408687521851,1.9949548826668313,non_fall
4.993313,1.0263,1.9842,0.443,1.0892,0.0419,0.7856,19.8738,35.4654,-23.0824,,0.002977999999999703,2.277408687521851,1.9484323812577087,non_fall
4.995056,1.0263,1.9842,0.443,1.0892,0.0419,0.7856,19.8738,35.4654,-23.0824,,0.0017430000000002721,2.277408687521851,1.8871536586636481,non_fall
4.996691,1.0263,1.9842,0.443,1.0892,0.0419,0.7856,19.8738,35.4654,-23.0824,,0.0016350000000002751,2.277408687521851,1.819266161741554,non_fall
4.99819,1.0263,1.9842,0.443,1.0892,0.0419,0.7856,19.8738,35.4654,-23.0824,,0.001498999999999917,2.277408687521851,1.7540511701195043,non_fall
5.001514,0.8044,0.2182,-0.7212,1.0892,0.0419,0.7856,19.8738,35.4654,-23.0824,,0.0033240000000001046,1.1021796768222503,1.7009406234610307,non_fall
5.041005,0.8044,0.2182,-0.7212,1.0892,0.0419,0.7856,20.8254,34.0014,-24.3756,,0.03949099999999994,1.1021796768222503,1.6684272076906028,non_fall
5.057723,0.8044,0.2182,-0.7212,1.0892,0.0419,0.7856,20.8254,34.0014,-24.3756,,0.01671800000000001,1.1021796768222503,1.6630218852352268,non_fall
5.059001,0.8044,0.2182,-0.7212,1.0892,0.0419,0.7856,20.8254,34.0014,-24.3756,,0.0012780000000001124,1.1021796768222503,1.688424988129947,non_fall
5.060207,0.8044,0.2182,-0.7212,1.0892,0.0419,0.7856,20.8254,34.0014,-24.3756,,0.0012059999999998183,1.1021796768222503,1.7450499731660039,non_fall
5.063349,0.8044,0.2182,-0.7212,1.263,-0.7915,0.8441,20.8254,34.0014,-24.3756,,0.003141999999999534,1.1021796768222503,1.8299793893835992,non_fall
5.06918,-0.6505,-1.8305,-1.7606,1.263,-0.7915,0.8441,20.8254,34.0014,-24.3756,,0.005831000000000586,2.621753775624248,1.937356042331774,non_fall
5.100751,-0.6505,-1.8305,-1.7606,1.263,-0.7915,0.8441,21.7648,32.147,-25.8518,,0.03157099999999957,2.621753775624248,2.059133653748138,non_fall
5.124225,-0.6505,-1.8305,-1.7606,1.263,-0.7915,0.8441,21.7648,32.147,-25.8518,,0.023474000000000217,2.621753775624248,2.186047819335147,non_fall
5.127335,-0.6505,-1.8305,-1.7606,1.263,-0.7915,0.8441,21.7648,32.147,-25.8518,,0.0031100000000003902,2.621753775624248,2.308640241740093,non_fall
5.130335,-0.6505,-1.8305,-1.7606,1.263,-0.7915,0.8441,21.7648,32.147,-25.8518,,0.0029999999999992255,2.621753775624248,2.4181859074163206,non_fall
5.132307,-0.6505,-1.8305,-1.7606,1.1916,-0.8483,0.9555,21.7648,32.147,-25.8518,,0.001972000000000307,2.621753775624248,2.507420509973086,non_fall
5.140021,-1.2737,0.0472,-2.2088,1.1916,-0.8483,0.9555,21.7648,32.147,-25.8518,,0.007713999999999999,2.55016410648413,2.5710198402552344,non_fall
5.160694,-1.2737,0.0472,-2.2088,1.1916,-0.8483,0.9555,22.7042,29.9388,-27.4256,,0.020673000000000386,2.55016410648413,2.605827570945975,non_fall
5.191878,-1.2737,0.0472,-2.2088,1.1916,-0.8483,0.9555,22.7042,29.9388,-27.4256,,0.031183999999999656,2.55016410648413,2.6108578616198335,non_fall
5.19616,-1.2737,0.0472,-2.2088,1.1916,-0.8483,0.9555,22.7042,29.9388,-27.4256,,0.004281999999999897,2.55016410648413,2.5871151610240672,non_fall
5.198146,-1.2737,0.0472,-2.2088,1.1916,-0.8483,0.9555,22.7042,29.9388,-27.4256,,0.0019860000000004874,2.55016410648413,2.537278254702343,non_fall
5.20017,-1.2737,0.0472,-2.2088,1.1916,-0.8483,0.9555,22.7042,29.9388,-27.4256,,0.0020239999999995817,2.55016410648413,2.4652933117513784,non_fall
5.202159,-1.2737,0.0472,-2.2088,0.4618,-0.4168,0.6377,22.7042,29.9388,-27.4256,,0.0019890000000000185,2.55016410648413,2.3759164521590597,non_fall
5.209875,-1.2714,-0.4774,-1.3325,0.4618,-0.4168,0.6377,22.7042,29.9388,-27.4256,,0.007716000000000278,1.9026100414956293,2.2742444421652377,non_fall
5.220747,-1.2714,-0.4774,-1.3325,0.4618,-0.4168,0.6377,23.5948,27.6452,-28.9628,,0.010871999999999993,1.9026100414956293,2.165273811662679,non_fall
5.254874,-1.2714,-0.4774,-1.3325,0.4618,-0.4168,0.6377,23.5948,27.6452,-28.9628,,0.034126999999999796,1.9026100414956293,2.0535298916105083,non_fall
5.256095,-1.2714,-0.4774,-1.3325,0.4618,-0.4168,0.6377,23.5948,27.6452,-28.9628,,0.0012210000000001386,1.9026100414956293,1.9428004093875137,non_fall
5.256308,-1.2714,-0.4774,-1.3325,0.4618,-0.4168,0.6377,23.5948,27.6452,-28.9628,,0.00021299999999957464,1.9026100414956293,1.835990107861678,non_fall
5.267115,-1.2714,-0.4774,-1.3325,0.0152,0.0411,0.487,23.5948,27.6452,-28.9628,,0.010807000000000677,1.9026100414956293,1.7350894511923132,non_fall
5.277228,-1.2714,-0.4774,-1.3325,0.0152,0.0411,0.487,24.4,25.3638,-30.3048,,0.010112999999999595,1.9026100414956293,1.6412323190328233,non_fall
5.277932,-0.8358,-0.9513,-0.4937,0.0152,0.0411,0.487,24.4,25.3638,-30.3048,,0.0007039999999998159,1.3591442233994153,1.554811478181924,non_fall
5.324608,-0.8358,-0.9513,-0.4937,0.0152,0.0411,0.487,24.4,25.3638,-30.3048,,0.04667599999999972,1.3591442233994153,1.475626529814065,non_fall
5.325644,-0.8358,-0.9513,-0.4937,0.0152,0.0411,0.487,24.4,25.3638,-30.3048,,0.0010360000000000369,1.3591442233994153,1.403050617673519,non_fall
5.326153,-0.8358,-0.9513,-0.4937,0.0152,0.0411,0.487,24.4,25.3638,-30.3048,,0.0005090000000000927,1.3591442233994153,1.3362101792585435,non_fall
5.339378,-0.8358,-0.9513,-0.4937,0.0152,0.0411,0.487,24.9368,23.2654,-31.6712,,0.013225000000000264,1.3591442233994153,1.2741712731124812,non_fall
5.34052,-0.8358,-0.9513,-0.4937,-0.1193,0.3764,0.6032,24.9368,23.2654,-31.6712,,0.0011419999999997543,1.3591442233994153,1.2161197496715022,non_fall
5.348951,-0.6846,-0.6914,0.463,-0.1193,0.3764,0.6032,24.9368,23.2654,-31.6712,,0.008430999999999855,1.0775342778770427,1.161518077146429,non_fall
5.390595,-0.6846,-0.6914,0.463,-0.1193,0.3764,0.6032,24.9368,23.2654,-31.6712,,0.04164400000000068,1.0775342778770427,1.1102230873926526,non_fall
5.391991,-0.6846,-0.6914,0.463,-0.1193,0.3764,0.6032,24.9368,23.2654,-31.6712,,0.0013959999999997308,1.0775342778770427,1.0625545707069393,non_fall
5.392614,-0.6846,-0.6914,0.463,-0.1193,0.3764,0.6032,24.9368,23.2654,-31.6712,,0.0006230000000000402,1.0775342778770427,1.019309881624297,non_fall
5.39319,-0.6846,-0.6914,0.463,-0.1193,0.3764,0.6032,24.9368,23.2654,-31.6712,,0.0005759999999996879,1.0775342778770427,0.981721809973059,non_fall
5.397834,-0.6846,-0.6914,0.463,-0.1193,0.3764,0.6032,25.3028,21.3012,-32.8668,,0.0046439999999998705,1.0775342778770427,0.9513575649547661,non_fall
5.40721,-0.6846,-0.6914,0.463,-0.1539,0.375,0.776,25.3028,21.3012,-32.8668,,0.009376000000000495,1.0775342778770427,0.9299595809319834,non_fall
5.419386,-0.4933,0.3065,0.5813,-0.1539,0.375,0.776,25.3028,21.3012,-32.8668,,0.012176000000000187,0.8217036144498818,0.9192362603447065,non_fall
5.460333,-0.4933,0.3065,0.5813,-0.1539,0.375,0.776,25.4736,19.5078,-33.8062,,0.04094700000000007,0.8217036144498818,0.9206219796356662,non_fall
5.462045,-0.4933,0.3065,0.5813,-0.1539,0.375,0.776,25.4736,19.5078,-33.8062,,0.0017119999999994917,0.8217036144498818,0.9350369956733978,non_fall
5.462712,-0.4933,0.3065,0.5813,-0.1539,0.375,0.776,25.4736,19.5078,-33.8062,,0.0006669999999999732,0.8217036144498818,0.9626841012612911,non_fall
5.463306,-0.4933,0.3065,0.5813,-0.1539,0.375,0.776,25.4736,19.5078,-33.8062,,0.0005940000000004275,0.8217036144498818,1.0029165507674478,non_fall
5.478485,-0.4933,0.3065,0.5813,-0.0037,-0.075,0.6495,25.4736,19.5078,-33.8062,,0.015178999999999832,0.8217036144498818,1.0542012464854944,non_fall
5.488486,-0.333,1.1545,0.5918,-0.0037,-0.075,0.6495,25.4736,19.5078,-33.8062,,0.010000999999999927,1.33939780871853,1.114184933131776,non_fall
5.520375,-0.333,1.1545,0.5918,-0.0037,-0.075,0.6495,25.4614,17.934,-34.6236,,0.03188899999999961,1.33939780871853,1.1798522541836545,non_fall
5.522439,-0.333,1.1545,0.5918,-0.0037,-0.075,0.6495,25.4614,17.934,-34.6236,,0.002064000000000732,1.33939780871853,1.2477480122056896,non_fall
5.523296,-0.333,1.1545,0.5918,-0.0037,-0.075,0.6495,25.4614,17.934,-34.6236,,0.0008569999999998856,1.33939780871853,1.3142285210645852,non_fall
5.52423,-0.333,1.1545,0.5918,-0.0037,-0.075,0.6495,25.4614,17.934,-34.6236,,0.0009339999999999904,1.33939780871853,1.375711395471979,non_fall
5.5488,-0.333,1.1545,0.5918,0.1992,-0.5539,0.2366,25.4614,17.934,-34.6236,,0.02456999999999976,1.33939780871853,1.428904761256544,non_fall
5.558398,0.41,1.4155,0.3806,0.1992,-0.5539,0.2366,25.4614,17.934,-34.6236,,0.00959800000000044,1.5220369936371454,1.4710075198696786,non_fall
5.580286,0.41,1.4155,0.3806,0.1992,-0.5539,0.2366,25.3516,16.6286,-35.136,,0.021887999999999685,1.5220369936371454,1.4998771577313257,non_fall
5.590311,0.41,1.4155,0.3806,0.1992,-0.5539,0.2366,25.3516,16.6286,-35.136,,0.010024999999999729,1.5220369936371454,1.5141613360313622,non_fall
5.591972,0.41,1.4155,0.3806,0.1992,-0.5539,0.2366,25.3516,16.6286,-35.136,,0.0016610000000003566,1.5220369936371454,1.5133877612082147,non_fall
5.592588,0.41,1.4155,0.3806,0.1992,-0.5539,0.2366,25.3516,16.6286,-35.136,,0.0006159999999999499,1.5220369936371454,1.4980065007815342,non_fall
5.59319,0.41,1.4155,0.3806,0.1992,-0.5539,0.2366,25.3516,16.6286,-35.136,,0.0006019999999997694,1.5220369936371454,1.4693803217544366,non_fall
5.620108,0.41,1.4155,0.3806,0.3125,-0.631,-0.1043,25.3516,16.6286,-35.136,,0.02691800000000022,1.5220369936371454,1.4297209080291542,non_fall
5.628323,0.7771,0.9883,0.2394,0.3125,-0.631,-0.1043,25.3516,16.6286,-35.136,,0.008214999999999861,1.2798178229732542,1.381971809769279,non_fall
5.637883,0.7771,0.9883,0.2394,0.3125,-0.631,-0.1043,25.1808,15.6648,-35.5264,,0.009560000000000457,1.2798178229732542,1.3296429870985258,non_fall
5.658034,0.7771,0.9883,0.2394,0.3125,-0.631,-0.1043,25.1808,15.6648,-35.5264,,0.020150999999999364,1.2798178229732542,1.2766058151004993,non_fall
5.659294,0.7771,0.9883,0.2394,0.3125,-0.631,-0.1043,25.1808,15.6648,-35.5264,,0.001260000000000261,1.2798178229732542,1.2268591370424045,non_fall
5.660233,0.7771,0.9883,0.2394,0.3125,-0.631,-0.1043,25.1808,15.6648,-35.5264,,0.0009389999999998011,1.2798178229732542,1.1842755834634153,non_fall
5.689778,0.7771,0.9883,0.2394,0.4779,-0.6434,-0.2626,25.1808,15.6648,-35.5264,,0.02954499999999971,1.2798178229732542,1.152335379525928,non_fall
5.698193,0.7771,0.9883,0.2394,0.4779,-0.6434,-0.2626,24.9002,14.8352,-35.8192,,0.008415000000000283,1.2798178229732542,1.1338560590539382,non_fall
5.699624,-0.2946,0.9233,0.154,0.4779,-0.6434,-0.2626,24.9002,14.8352,-35.8192,,0.0014310000000001821,0.9813195453062168,1.1307329486006075,non_fall
5.72316,-0.2946,0.9233,0.154,0.4779,-0.6434,-0.2626,24.9002,14.8352,-35.8192,,0.023536,0.9813195453062168,1.1437158075739007,non_fall
5.724494,-0.2946,0.9233,0.154,0.4779,-0.6434,-0.2626,24.9002,14.8352,-35.8192,,0.0013339999999999463,0.9813195453062168,1.1722570496808482,non_fall
5.725234,-0.2946,0.9233,0.154,0.4779,-0.6434,-0.2626,24.9002,14.8352,-35.8192,,0.000740000000000407,0.9813195453062168,1.2144701553908295,non_fall
5.758773,-0.2946,0.9233,0.154,0.4779,-0.6434,-0.2626,24.2536,14.0544,-36.3072,,0.03353899999999932,0.9813195453062168,1.2672289069169946,non_fall
5.763505,-0.2946,0.9233,0.154,0.41,-0.6934,-0.3933,24.2536,14.0544,-36.3072,,0.004732000000000625,0.9813195453062168,1.3264191442362057,non_fall
5.769269,0.5002,1.6679,0.1167,0.41,-0.6934,-0.3933,24.2536,14.0544,-36.3072,,0.005764000000000102,1.745196074944016,1.387327863867465,non_fall
5.789867,0.5002,1.6679,0.1167,0.41,-0.6934,-0.3933,24.2536,14.0544,-36.3072,,0.020597999999999672,1.745196074944016,1.445124132573318,non_fall
5.791671,0.5002,1.6679,0.1167,0.41,-0.6934,-0.3933,24.2536,14.0544,-36.3072,,0.0018039999999999168,1.745196074944016,1.4953606740331644,non_fall
5.792554,0.5002,1.6679,0.1167,0.41,-0.6934,-0.3933,24.2536,14.0544,-36.3072,,0.0008829999999999671,1.745196074944016,1.5344152221220495,non_fall
5.793829,0.5002,1.6679,0.1167,0.41,-0.6934,-0.3933,24.2536,14.0544,-36.3072,,0.001274999999999693,1.745196074944016,1.5598024814374705,non_fall
5.818539,0.5002,1.6679,0.1167,0.41,-0.6934,-0.3933,23.4118,13.1882,-36.7342,,0.024710000000000676,1.745196074944016,1.5703152935311486,non_fall
5.825929,0.5002,1.6679,0.1167,0.5475,-0.5128,-0.3511,23.4118,13.1882,-36.7342,,0.007390000000000008,1.745196074944016,1.5659865551370737,non_fall
5.837957,-0.1723,1.2404,0.1846,0.5475,-0.5128,-0.3511,23.4118,13.1882,-36.7342,,0.012027999999999928,1.265842253205351,1.5478943213325762,non_fall
5.859117,-0.1723,1.2404,0.1846,0.5475,-0.5128,-0.3511,23.4118,13.1882,-36.7342,,0.021160000000000068,1.265842253205351,1.517858315828506,non_fall
5.863136,-0.1723,1.2404,0.1846,0.5475,-0.5128,-0.3511,23.4118,13.1882,-36.7342,,0.004018999999999551,1.265842253205351,1.4780929930557205,non_fall
5.865734,-0.1723,1.2404,0.1846,0.5475,-0.5128,-0.3511,23.4118,13.1882,-36.7342,,0.002597999999999878,1.265842253205351,1.43088491247202,non_fall
5.887767,-0.1723,1.2404,0.1846,0.5475,-0.5128,-0.3511,22.2894,12.2854,-37.4174,,0.022033000000000413,1.265842253205351,1.3783486372297824,non_fall
5.898755,-0.1723,1.2404,0.1846,0.6573,-0.2298,-0.4249,22.2894,12.2854,-37.4174,,0.01098800000000022,1.265842253205351,1.3222909788485786,non_fall
5.909754,-0.682,1.0268,-0.2494,0.6573,-0.2298,-0.4249,22.2894,12.2854,-37.4174,,0.010998999999999981,1.257633730463683,1.2641869198004918,non_fall
5.924067,-0.682,1.0268,-0.2494,0.6573,-0.2298,-0.4249,22.2894,12.2854,-37.4174,,0.014312999999999576,1.257633730463683,1.205248271855808,non_fall
5.926132,-0.682,1.0268,-0.2494,0.6573,-0.2298,-0.4249,22.2894,12.2854,-37.4174,,0.0020649999999999835,1.257633730463683,1.1465506155174114,non_fall
5.927435,-0.682,1.0268,-0.2494,0.6573,-0.2298,-0.4249,22.2894,12.2854,-37.4174,,0.0013030000000000541,1.257633730463683,1.0891759906438823,non_fall
5.947501,-0.682,1.0268,-0.2494,0.6573,-0.2298,-0.4249,20.9108,11.3948,-38.308,,0.020065999999999917,1.257633730463683,1.0343284296854516,non_fall
5.967469,-0.682,1.0268,-0.2494,0.5747,-0.4101,-0.3678,20.9108,11.3948,-38.308,,0.01996800000000043,1.257633730463683,0.983386942121982,non_fall
5.977255,-0.1637,-0.2165,-0.7354,0.5747,-0.4101,-0.3678,20.9108,11.3948,-38.308,,0.009786000000000072,0.783889724387302,0.9378758038918191,non_fall
5.992648,-0.1637,-0.2165,-0.7354,0.5747,-0.4101,-0.3678,20.9108,11.3948,-38.308,,0.015392999999999546,0.783889724387302,0.8993530427898672,non_fall
5.996547,-0.1637,-0.2165,-0.7354,0.5747,-0.4101,-0.3678,20.9108,11.3948,-38.308,,0.0038989999999996527,0.783889724387302,0.8692392780167267,non_fall
5.998412,-0.1637,-0.2165,-0.7354,0.5747,-0.4101,-0.3678,20.9108,11.3948,-38.308,,0.0018650000000004496,0.783889724387302,0.8486227031714837,non_fall
5.999717,-0.1637,-0.2165,-0.7354,0.5747,-0.4101,-0.3678,20.9108,11.3948,-38.308,,0.0013050000000003337,0.783889724387302,0.8380775779847607,non_fall
6.008142,-0.1637,-0.2165,-0.7354,0.5747,-0.4101,-0.3678,19.4468,10.492,-39.1376,,0.008424999999999905,0.783889724387302,0.8375258024052856,non_fall
6.036846,-0.1637,-0.2165,-0.7354,0.3281,-0.3093,-0.3747,19.4468,10.492,-39.1376,,0.028703999999999397,0.783889724387302,0.8461601519067351,non_fall
6.045639,0.5642,-0.2247,-0.6601,0.3281,-0.3093,-0.3747,19.4468,10.492,-39.1376,,0.008793000000000717,0.8969636224507658,0.8624375658454604,non_fall
6.056626,0.5642,-0.2247,-0.6601,0.3281,-0.3093,-0.3747,19.4468,10.492,-39.1376,,0.010986999999999192,0.8969636224507658,0.8841424322746068,non_fall
6.058946,0.5642,-0.2247,-0.6601,0.3281,-0.3093,-0.3747,19.4468,10.492,-39.1376,,0.0023200000000000998,0.8969636224507658,0.9085132993674013,non_fall
6.061095,0.5642,-0.2247,-0.6601,0.3281,-0.3093,-0.3747,19.4468,10.492,-39.1376,,0.0021490000000001785,0.8969636224507658,0.9324224140252232,non_fall
6.065221,0.5642,-0.2247,-0.6601,0.3281,-0.3093,-0.3747,18.117,9.5526,-39.8086,,0.004126000000000296,0.8969636224507658,0.9525958281259252,non_fall
6.10608,0.5642,-0.2247,-0.6601,0.1475,0.0455,-0.3499,18.117,9.5526,-39.8086,,0.0408590000000002,0.8969636224507658,0.9658609597084072,non_fall
6.115221,0.9812,-0.2093,-0.0852,0.1475,0.0455,-0.3499,18.117,9.5526,-39.8086,,0.009140999999999622,1.0068857780304576,0.9694064411640313,non_fall
6.127309,0.9812,-0.2093,-0.0852,0.1475,0.0455,-0.3499,18.117,9.5526,-39.8086,,0.01208800000000032,1.0068857780304576,0.9610350919566838,non_fall
6.129175,0.9812,-0.2093,-0.0852,0.1475,0.0455,-0.3499,18.117,9.5526,-39.8086,,0.0018659999999997012,1.0068857780304576,0.939386205848321,non_fall
6.130104,0.9812,-0.2093,-0.0852,0.1475,0.0455,-0.3499,18.117,9.5526,-39.8086,,0.0009290000000001797,1.0068857780304576,0.9041005977232893,non_fall
6.131105,0.9812,-0.2093,-0.0852,0.1475,0.0455,-0.3499,16.9336,8.6986,-40.382,,0.0010009999999995856,1.0068857780304576,0.8559031453263256,non_fall
6.176784,0.9812,-0.2093,-0.0852,0.1221,0.2968,-0.2186,16.9336,8.6986,-40.382,,0.0456789999999998,1.0068857780304576,0.7965836040710266,non_fall
6.187762,0.9812,-0.2093,-0.0852,0.1221,0.2968,-0.2186,16.0064,7.9056,-40.8212,,0.010978000000000598,1.0068857780304576,0.7288673085467322,non_fall
6.189043,0.2252,-0.2418,0.1182,0.1221,0.2968,-0.2186,16.0064,7.9056,-40.8212,,0.0012809999999996435,0.35093235815467344,0.6561832054480001,non_fall
6.190089,0.2252,-0.2418,0.1182,0.1221,0.2968,-0.2186,16.0064,7.9056,-40.8212,,0.0010460000000005465,0.35093235815467344,0.5823562130724949,non_fall
6.190863,0.2252,-0.2418,0.1182,0.1221,0.2968,-0.2186,16.0064,7.9056,-40.8212,,0.0007739999999998304,0.35093235815467344,0.5112683294068929,non_fall
6.191771,0.2252,-0.2418,0.1182,0.1221,0.2968,-0.2186,16.0064,7.9056,-40.8212,,0.0009079999999999089,0.35093235815467344,0.4465391895566446,non_fall
6.192535,0.2252,-0.2418,0.1182,0.1221,0.2968,-0.2186,16.0064,7.9056,-40.8212,,0.000764000000000209,0.35093235815467344,0.39126749348259116,non_fall
6.247235,0.2252,-0.2418,0.1182,0.1221,0.2968,-0.2186,15.4574,7.2102,-41.1384,,0.05469999999999953,0.35093235815467344,0.34785509520250996,non_fall
6.25116,0.2252,-0.2418,0.1182,0.1321,0.2722,-0.2511,15.4574,7.2102,-41.1384,,0.003924999999999734,0.35093235815467344,0.3179153254689626,non_fall
6.257197,0.0711,-0.2858,0.2361,0.1321,0.2722,-0.2511,15.4574,7.2102,-41.1384,,0.00603700000000007,0.3774653096643452,0.3022527224409003,non_fall
6.260316,0.0711,-0.2858,0.2361,0.1321,0.2722,-0.2511,15.4574,7.2102,-41.1384,,0.00311900000000076,0.3774653096643452,0.3008941603178473,non_fall
6.261379,0.0711,-0.2858,0.2361,0.1321,0.2722,-0.2511,15.4574,7.2102,-41.1384,,0.00106299999999937,0.3774653096643452,0.3131504834632086,non_fall
6.262456,0.0711,-0.2858,0.2361,0.1321,0.2722,-0.2511,15.4574,7.2102,-41.1384,,0.0010770000000004387,0.3774653096643452,0.3376917945215547,non_fall
6.306748,0.0711,-0.2858,0.2361,0.1321,0.2722,-0.2511,15.1402,6.588,-41.3946,,0.044291999999999554,0.3774653096643452,0.3726268094880522,non_fall
6.315929,0.0711,-0.2858,0.2361,0.1518,0.1529,-0.1145,15.1402,6.588,-41.3946,,0.009180999999999884,0.3774653096643452,0.4155850599994138,non_fall
6.325035,0.0711,-0.2858,0.2361,0.1518,0.1529,-0.1145,15.1402,6.588,-41.3946,,0.009106000000000058,0.3774653096643452,0.4638079551635551,non_fall
6.328097,0.0711,-0.2858,0.2361,0.1518,0.1529,-0.1145,15.1402,6.588,-41.3946,,0.003061999999999898,0.3774653096643452,0.5142588671271145,non_fall
6.330657,0.0711,-0.2858,0.2361,0.1518,0.1529,-0.1145,15.1402,6.588,-41.3946,,0.002560000000000784,0.3774653096643452,0.5637619760225121,non_fall
6.33282,0.3269,-0.5536,0.3707,0.1518,0.1529,-0.1145,15.1402,6.588,-41.3946,,0.002162999999999471,0.7421287354630597,0.6091737099046878,non_fall
6.366248,0.3269,-0.5536,0.3707,0.1518,0.1529,-0.1145,15.006,6.0512,-41.4922,,0.03342799999999979,0.7421287354630597,0.6475799449278751,non_fall
6.3859,0.3269,-0.5536,0.3707,0.1734,0.1264,-0.0579,15.006,6.0512,-41.4922,,0.01965200000000067,0.7421287354630597,0.6765004099872244,non_fall
6.389914,0.3269,-0.5536,0.3707,0.1734,0.1264,-0.0579,15.006,6.0512,-41.4922,,0.00401399999999974,0.7421287354630597,0.6940747181640627,non_fall
6.392635,0.3269,-0.5536,0.3707,0.1734,0.1264,-0.0579,15.006,6.0512,-41.4922,,0.0027210000000001955,0.7421287354630597,0.6992054796128758,non_fall
6.394702,0.3269,-0.5536,0.3707,0.1734,0.1264,-0.0579,15.006,6.0512,-41.4922,,0.002066999999999375,0.7421287354630597,0.6916411532775503,non_fall
6.397135,0.3269,-0.5536,0.3707,0.1734,0.1264,-0.0579,15.006,6.0512,-41.4922,,0.0024329999999999075,0.7421287354630597,0.6719902979115585,non_fall
6.399855,0.2031,-0.1661,0.4961,0.1734,0.1264,-0.0579,15.006,6.0512,-41.4922,,0.0027200000000000557,0.5612076531908666,0.6416670658214463,non_fall
6.424605,0.2031,-0.1661,0.4961,0.1734,0.1264,-0.0579,15.067,5.6364,-41.4678,,0.02475000000000005,0.5612076531908666,0.6027746810489985,non_fall
6.455032,0.2031,-0.1661,0.4961,0.1487,0.1186,-0.028,15.067,5.6364,-41.4678,,0.030427000000000426,0.5612076531908666,0.5579387360195897,non_fall
6.458186,0.2031,-0.1661,0.4961,0.1487,0.1186,-0.028,15.067,5.6364,-41.4678,,0.003154000000000323,0.5612076531908666,0.5101042310954182,non_fall
6.460162,0.2031,-0.1661,0.4961,0.1487,0.1186,-0.028,15.067,5.6364,-41.4678,,0.0019759999999999778,0.5612076531908666,0.4623093851875331,non_fall
6.462044,0.2031,-0.1661,0.4961,0.1487,0.1186,-0.028,15.067,5.6364,-41.4678,,0.0018819999999992731,0.5612076531908666,0.4174478933901301,non_fall
6.463943,0.0404,-0.1713,0.1174,0.1487,0.1186,-0.028,15.067,5.6364,-41.4678,,0.0018990000000007612,0.21156230760700262,0.37803289023932135,non_fall
6.4845,0.0404,-0.1713,0.1174,0.1487,0.1186,-0.028,15.3232,5.2948,-41.4068,,0.02055699999999927,0.21156230760700262,0.34598144949416226,non_fall
6.524827,0.0404,-0.1713,0.1174,0.066,-0.0035,0.0401,15.3232,5.2948,-41.4068,,0.040327000000000446,0.21156230760700262,0.3224448749054171,non_fall
6.528218,0.0404,-0.1713,0.1174,0.066,-0.0035,0.0401,15.3232,5.2948,-41.4068,,0.0033909999999997,0.21156230760700262,0.3077116594440324,non_fall
6.530141,0.0404,-0.1713,0.1174,0.066,-0.0035,0.0401,15.3232,5.2948,-41.4068,,0.0019230000000005631,0.21156230760700262,0.30120343153940254,non_fall
6.532174,0.0404,-0.1713,0.1174,0.066,-0.0035,0.0401,15.3232,5.2948,-41.4068,,0.0020329999999999515,0.21156230760700262,0.3015712274889189,non_fall
6.534697,0.0404,-0.1713,0.1174,0.066,-0.0035,0.0401,15.3232,5.2948,-41.4068,,0.002523000000000053,0.21156230760700262,0.30688433642411445,non_fall
6.536336,-0.064,-0.427,0.1655,0.066,-0.0035,0.0401,15.3232,5.2948,-41.4068,,0.001638999999999946,0.46240161115636264,0.31488962264884146,non_fall
6.543464,-0.064,-0.427,0.1655,0.066,-0.0035,0.0401,15.6526,5.0386,-41.358,,0.007127999999999801,0.46240161115636264,0.32330689871386703,non_fall
6.589965,-0.064,-0.427,0.1655,0.066,-0.0035,0.0401,15.6526,5.0386,-41.358,,0.046501000000000126,0.46240161115636264,0.330117665224623,non_fall
6.593082,-0.064,-0.427,0.1655,0.066,-0.0035,0.0401,15.6526,5.0386,-41.358,,0.0031169999999995923,0.46240161115636264,0.3338035638274212,non_fall
6.595069,-0.064,-0.427,0.1655,0.066,-0.0035,0.0401,15.6526,5.0386,-41.358,,0.001986999999999739,0.46240161115636264,0.333498766372953,non_fall
6.59751,-0.064,-0.427,0.1655,0.1686,-0.0634,0.0348,15.6526,5.0386,-41.358,,0.0024410000000001375,0.46240161115636264,0.3290352199513962,non_fall
6.604219,-0.064,-0.427,0.1655,0.1686,-0.0634,0.0348,16.0064,4.6848,-41.1506,,0.006708999999999854,0.46240161115636264,0.32087747751289836,non_fall
6.607048,0.0281,-0.0917,0.0854,0.1686,-0.0634,0.0348,16.0064,4.6848,-41.1506,,0.0028290000000001925,0.12841985827744867,0.3099621749577663,non_fall
6.657441,0.0281,-0.0917,0.0854,0.1686,-0.0634,0.0348,16.0064,4.6848,-41.1506,,0.050393000000000576,0.12841985827744867,0.29747428368720485,non_fall
6.66016,0.0281,-0.0917,0.0854,0.1686,-0.0634,0.0348,16.0064,4.6848,-41.1506,,0.002718999999999916,0.12841985827744867,0.2846047586008938,non_fall
6.661399,0.0281,-0.0917,0.0854,0.1686,-0.0634,0.0348,16.0064,4.6848,-41.1506,,0.0012389999999999901,0.12841985827744867,0.27233742382556475,non_fall
6.662753,0.0281,-0.0917,0.0854,0.1686,-0.0634,0.0348,16.2626,4.3188,-40.9676,,0.0013540000000000774,0.12841985827744867,0.26130467220642034,non_fall
6.664773,0.0281,-0.0917,0.0854,0.1059,-0.0706,0.0459,16.2626,4.3188,-40.9676,,0.0020199999999999108,0.12841985827744867,0.2517345936355877,non_fall
6.674278,0.1956,-0.2338,0.1291,0.1059,-0.0706,0.0459,16.2626,4.3188,-40.9676,,0.009504999999999875,0.331041704321374,0.24349183168764713,non_fall
6.725663,0.1956,-0.2338,0.1291,0.1059,-0.0706,0.0459,16.4212,3.965,-40.9066,,0.05138499999999979,0.331041704321374,0.23619521658827686,non_fall
6.729355,0.1956,-0.2338,0.1291,0.1059,-0.0706,0.0459,16.4212,3.965,-40.9066,,0.0036920000000000286,0.331041704321374,0.22938043198801206,non_fall
6.731876,0.1956,-0.2338,0.1291,0.1059,-0.0706,0.0459,16.4212,3.965,-40.9066,,0.0025209999999997734,0.331041704321374,0.22266879219017444,non_fall
6.733778,0.1956,-0.2338,0.1291,0.1059,-0.0706,0.0459,16.4212,3.965,-40.9066,,0.0019020000000002923,0.331041704321374,0.21590504253859727,non_fall
6.735847,0.1956,-0.2338,0.1291,0.1059,-0.0706,0.0459,16.4212,3.965,-40.9066,,0.0020689999999996544,0.331041704321374,0.20923626471402768,non_fall
6.737742,0.1956,-0.2338,0.1291,0.0968,-0.0168,0.0477,16.4212,3.965,-40.9066,,0.001895000000000202,0.331041704321374,0.20311726846961506,non_fall
6.744207,-0.0138,-0.0048,0.0946,0.0968,-0.0168,0.0477,16.4212,3.965,-40.9066,,0.006465000000000387,0.0957216798849665,0.19824287795140008,non_fall
6.784783,-0.0138,-0.0048,0.0946,0.0968,-0.0168,0.0477,16.5188,3.6234,-40.87,,0.04057599999999972,0.0957216798849665,0.19542255474583933,non_fall
6.791151,-0.0138,-0.0048,0.0946,0.0968,-0.0168,0.0477,16.5188,3.6234,-40.87,,0.006368000000000151,0.0957216798849665,0.19542508520174368,non_fall
6.794236,-0.0138,-0.0048,0.0946,0.0968,-0.0168,0.0477,16.5188,3.6234,-40.87,,0.0030849999999995603,0.0957216798849665,0.19882686007662415,non_fall
6.796804,-0.0138,-0.0048,0.0946,0.0968,-0.0168,0.0477,16.5188,3.6234,-40.87,,0.0025680000000001257,0.0957216798849665,0.2058945861331592,non_fall
6.803275,-0.0138,-0.0048,0.0946,0.0586,-0.017,0.0704,16.5188,3.6234,-40.87,,0.006471000000000338,0.0957216798849665,0.21652362195869626,non_fall
6.812929,-0.0966,-0.2514,0.1808,0.0586,-0.017,0.0704,16.5188,3.6234,-40.87,,0.009653999999999385,0.3243796541091935,0.23023990531368993,non_fall
6.842691,-0.0966,-0.2514,0.1808,0.0586,-0.017,0.0704,16.6164,3.294,-40.7968,,0.029762000000000732,0.3243796541091935,0.24625967109991964,non_fall
6.856726,-0.0966,-0.2514,0.1808,0.0586,-0.017,0.0704,16.6164,3.294,-40.7968,,0.014034999999999798,0.3243796541091935,0.26358980493798434,non_fall
6.859936,-0.0966,-0.2514,0.1808,0.0586,-0.017,0.0704,16.6164,3.294,-40.7968,,0.003210000000000157,0.3243796541091935,0.2811459392733581,non_fall
6.862017,-0.0966,-0.2514,0.1808,0.0586,-0.017,0.0704,16.6164,3.294,-40.7968,,0.0020809999999995554,0.3243796541091935,0.29786664589267037,non_fall
6.874157,-0.0966,-0.2514,0.1808,0.0401,0.0142,0.0177,16.6164,3.294,-40.7968,,0.012140000000000484,0.3243796541091935,0.3128082519903263,non_fall
6.884561,0.2634,-0.142,0.1496,0.0401,0.0142,0.0177,16.6164,3.294,-40.7968,,0.010403999999999414,0.33455002615453494,0.32521221517420723,non_fall
6.902249,0.2634,-0.142,0.1496,0.0401,0.0142,0.0177,16.6164,3.0012,-40.7602,,0.017688000000000592,0.33455002615453494,0.33454312309449696,non_fall
6.924365,0.2634,-0.142,0.1496,0.0401,0.0142,0.0177,16.6164,3.0012,-40.7602,,0.02211599999999958,0.33455002615453494,0.34049956897112027,non_fall
6.926369,0.2634,-0.142,0.1496,0.0401,0.0142,0.0177,16.6164,3.0012,-40.7602,,0.002004000000000339,0.33455002615453494,0.3430026522731374,non_fall
6.927762,0.2634,-0.142,0.1496,0.0401,0.0142,0.0177,16.6164,3.0012,-40.7602,,0.0013930000000001996,0.33455002615453494,0.34216807022057566,non_fall
6.929145,0.2634,-0.142,0.1496,0.0401,0.0142,0.0177,16.6164,3.0012,-40.7602,,0.00138299999999969,0.33455002615453494,0.33826802358844793,non_fall
6.944238,0.2634,-0.142,0.1496,-0.032,0.0899,0.0704,16.6164,3.0012,-40.7602,,0.015093000000000245,0.33455002615453494,0.33168874784761543,non_fall
6.953382,-0.0881,-0.049,0.2712,-0.032,0.0899,0.0704,16.6164,3.0012,-40.7602,,0.009144000000000041,0.2893303475268365,0.3228887209641757,non_fall
6.964416,-0.0881,-0.049,0.2712,-0.032,0.0899,0.0704,16.6286,2.7938,-40.7724,,0.011033999999999544,0.2893303475268365,0.31236172735085876,non_fall
6.989333,-0.0881,-0.049,0.2712,-0.032,0.0899,0.0704,16.6286,2.7938,-40.7724,,0.0249170000000003,0.2893303475268365,0.3006078859470995,non_fall
6.991065,-0.0881,-0.049,0.2712,-0.032,0.0899,0.0704,16.6286,2.7938,-40.7724,,0.0017319999999996227,0.2893303475268365,0.28811414926918344,non_fall
6.992781,-0.0881,-0.049,0.2712,-0.032,0.0899,0.0704,16.6286,2.7938,-40.7724,,0.0017160000000000508,0.2893303475268365,0.2753436085857107,non_fall
7.013144,-0.0881,-0.049,0.2712,-0.0317,0.0919,0.0249,16.6286,2.7938,-40.7724,,0.020362999999999687,0.2893303475268365,0.2627307887629397,non_fall
7.025898,-0.0881,-0.049,0.2712,-0.0317,0.0919,0.0249,16.6408,2.6108,-40.7724,,0.012754000000000154,0.2893303475268365,0.2506788562806312,non_fall
7.028825,0.1987,-0.0171,0.091,-0.0317,0.0919,0.0249,16.6408,2.6108,-40.7724,,0.002927000000000568,0.21921473490621016,0.23955486215085514,non_fall
7.057168,0.1987,-0.0171,0.091,-0.0317,0.0919,0.0249,16.6408,2.6108,-40.7724,,0.028342999999999563,0.21921473490621016,0.2296807449654905,non_fall
7.058938,0.1987,-0.0171,0.091,-0.0317,0.0919,0.0249,16.6408,2.6108,-40.7724,,0.0017700000000004934,0.21921473490621016,0.22132006310688693,non_fall
7.059733,0.1987,-0.0171,0.091,-0.0317,0.0919,0.0249,16.6408,2.6108,-40.7724,,0.000794999999999213,0.21921473490621016,0.21466215454384066,non_fall
7.083054,0.1987,-0.0171,0.091,-0.0526,0.0949,0.043,16.6408,2.6108,-40.7724,,0.023321000000000147,0.21921473490621016,0.2098059728874338,non_fall
7.085637,0.1987,-0.0171,0.091,-0.0526,0.0949,0.043,16.714,2.5132,-40.8212,,0.002583000000000446,0.21921473490621016,0.20674559216747307,non_fall
7.091909,0.0676,-0.1251,0.1276,-0.0526,0.0949,0.043,16.714,2.5132,-40.8212,,0.006272000000000055,0.19105373589647495,0.2053591727304833,non_fall
7.123656,0.0676,-0.1251,0.1276,-0.0526,0.0949,0.043,16.714,2.5132,-40.8212,,0.03174700000000019,0.19105373589647495,0.20540347297628722,non_fall
7.126448,0.0676,-0.1251,0.1276,-0.0526,0.0949,0.043,16.714,2.5132,-40.8212,,0.0027919999999994616,0.19105373589647495,0.2065164971071647,non_fall
7.128064,0.0676,-0.1251,0.1276,-0.0526,0.0949,0.043,16.714,2.5132,-40.8212,,0.0016160000000002839,0.19105373589647495,0.20823095502317246,non_fall
7.129542,0.0676,-0.1251,0.1276,-0.0526,0.0949,0.043,16.714,2.5132,-40.8212,,0.0014779999999996463,0.19105373589647495,0.21000044060825085,non_fall
7.143624,0.0676,-0.1251,0.1276,-0.0526,0.0949,0.043,16.836,2.44,-40.8578,,0.01408200000000015,0.19105373589647495,0.2112386404998913,non_fall
7.153466,0.0676,-0.1251,0.1276,-0.0599,0.0625,0.0141,16.836,2.44,-40.8578,,0.009841999999999906,0.19105373589647495,0.21136976471940355,non_fall
7.163294,0.1513,-0.1704,0.0555,-0.0599,0.0625,0.0141,16.836,2.44,-40.8578,,0.009827999999999726,0.23453805661342042,0.20988600302209345,non_fall
7.191636,0.1513,-0.1704,0.0555,-0.0599,0.0625,0.0141,16.836,2.44,-40.8578,,0.02834200000000031,0.23453805661342042,0.20640542994224417,non_fall
7.194704,0.1513,-0.1704,0.0555,-0.0599,0.0625,0.0141,16.836,2.44,-40.8578,,0.0030679999999998486,0.23453805661342042,0.20072197467129052,non_fall
7.197044,0.1513,-0.1704,0.0555,-0.0599,0.0625,0.0141,16.836,2.44,-40.8578,,0.002340000000000231,0.23453805661342042,0.19283865597448113,non_fall
7.203079,0.1513,-0.1704,0.0555,-0.0599,0.0625,0.0141,16.9092,2.4034,-40.8334,,0.0060349999999997905,0.23453805661342042,0.1829768028259639,non_fall
7.224283,0.1513,-0.1704,0.0555,-0.0313,0.0786,0.0072,16.9092,2.4034,-40.8334,,0.021204,0.23453805661342042,0.17155736067070654,non_fall
7.233255,0.0686,0.0094,-0.0666,-0.0313,0.0786,0.0072,16.9092,2.4034,-40.8334,,0.00897199999999998,0.09607226446795142,0.159155156841816,non_fall
7.254758,0.0686,0.0094,-0.0666,-0.0313,0.0786,0.0072,17.0678,2.4034,-40.7358,,0.02150300000000005,0.09607226446795142,0.14643243488107038,non_fall
7.256973,0.0686,0.0094,-0.0666,-0.0313,0.0786,0.0072,17.0678,2.4034,-40.7358,,0.002215000000000522,0.09607226446795142,0.1340626260550986,non_fall
7.258077,0.0686,0.0094,-0.0666,-0.0313,0.0786,0.0072,17.0678,2.4034,-40.7358,,0.0011039999999997718,0.09607226446795142,0.1226572474763006,non_fall
7.259121,0.0686,0.0094,-0.0666,-0.0313,0.0786,0.0072,17.0678,2.4034,-40.7358,,0.001044000000000267,0.09607226446795142,0.11270705926645448,non_fall
7.292973,0.0686,0.0094,-0.0666,0.0344,0.0965,-0.0269,17.0678,2.4034,-40.7358,,0.03385199999999955,0.09607226446795142,0.10454428895664025,non_fall
7.306123,-0.015,-0.0991,-0.0046,0.0344,0.0965,-0.0269,17.0678,2.4034,-40.7358,,0.013150000000000439,0.10033429124681152,0.0983279351381753,non_fall
7.320792,-0.015,-0.0991,-0.0046,0.0344,0.0965,-0.0269,17.1898,2.4522,-40.6626,,0.014668999999999599,0.10033429124681152,0.09405031550485962,non_fall
7.32514,-0.015,-0.0991,-0.0046,0.0344,0.0965,-0.0269,17.1898,2.4522,-40.6626,,0.0043480000000002406,0.10033429124681152,0.09156052351546635,non_fall
7.327343,-0.015,-0.0991,-0.0046,0.0344,0.0965,-0.0269,17.1898,2.4522,-40.6626,,0.002202999999999733,0.10033429124681152,0.09059921627547525,non_fall
7.328932,-0.015,-0.0991,-0.0046,0.0344,0.0965,-0.0269,17.1898,2.4522,-40.6626,,0.0015890000000000626,0.10033429124681152,0.09083895499633413,non_fall
7.330295,-0.015,-0.0991,-0.0046,0.0344,0.0965,-0.0269,17.1898,2.4522,-40.6626,,0.001362999999999559,0.10033429124681152,0.09192487200140419,non_fall
