time,ax,ay,az,wx,wy,wz,Bx,By,Bz,Unnamed: 10,time_diff,acc_mag,acc_mag_filtered,label
0.041482,0.0,0.0,0.0,0.0,0.0,0.0,0.0,0.0,0.0,,0.0,0.0,0.003083324282222062,non_fall
0.063322,0.0,0.0,0.0,0.0,0.0,0.0,10.3334,22.3016,-40.0404,,0.021840000000000005,0.0,0.0026103053864801554,non_fall
0.082206,0.0,0.0,0.0,0.0719,-0.018,-0.0015,10.3334,22.3016,-40.0404,,0.018883999999999998,0.0,0.0016799559664985443,non_fall
0.098994,0.0,0.0,0.0,0.0719,-0.018,-0.0015,10.3334,22.3016,-40.0404,,0.016787999999999997,0.0,0.00027862080628532696,non_fall
0.100043,0.0,0.0,0.0,0.0719,-0.018,-0.0015,10.3334,22.3016,-40.0404,,0.0010490000000000083,0.0,-0.0015517031722453323,non_fall
0.100802,0.0,0.0,0.0,0.0719,-0.018,-0.0015,10.3334,22.3016,-40.0404,,0.0007589999999999958,0.0,-0.003701633030505535,non_fall
0.114475,0.0,0.0,0.0,0.0719,-0.018,-0.0015,10.0528,22.1674,-40.2478,,0.01367299999999999,0.0,-0.005987069449723947,non_fall
0.152537,0.0,0.0,0.0,0.0478,-0.1055,-0.033,10.0528,22.1674,-40.2478,,0.03806200000000001,0.0,-0.008148229310955095,non_fall
0.161625,0.0,0.0,0.0,0.0478,-0.1055,-0.033,9.9796,22.2528,-40.809,,0.009087999999999985,0.0,-0.009856732462418253,non_fall
0.162919,0.0,0.0,0.0,0.0478,-0.1055,-0.033,9.9796,22.2528,-40.809,,0.0012940000000000174,0.0,-0.01073187981952576,non_fall
0.165831,0.0,0.0,0.0,0.0478,-0.1055,-0.033,9.9796,22.2528,-40.809,,0.002911999999999998,0.0,-0.010366410794338615,non_fall
0.166671,0.0,0.0,0.0,0.0478,-0.1055,-0.033,9.9796,22.2528,-40.809,,0.0008400000000000074,0.0,-0.008360911414304468,non_fall
0.167589,0.0,0.0,0.0,0.0478,-0.1055,-0.033,9.9796,22.2528,-40.809,,0.0009179999999999744,0.0,-0.0043647333122543664,non_fall
0.215317,0.0,0.0,0.0,0.0478,-0.1055,-0.033,9.8576,22.2528,-40.8334,,0.04772800000000002,0.0,0.0018800973248886688,non_fall
0.221691,0.0,0.0,0.0,0.0618,-0.0264,-0.0011,9.8576,22.2528,-40.8334,,0.006373999999999991,0.0,0.01049677379525528,non_fall
0.233026,0.0,0.0,0.0,0.0618,-0.0264,-0.0011,9.8576,22.2528,-40.8334,,0.011335000000000012,0.0,0.021439130513906945,non_fall
0.233981,0.0,0.0,0.0,0.0618,-0.0264,-0.0011,9.8576,22.2528,-40.8334,,0.0009549999999999836,0.0,0.03447063193279362,non_fall
0.234795,0.0,0.0,0.0,0.0618,-0.0264,-0.0011,9.8576,22.2528,-40.8334,,0.0008140000000000092,0.0,0.04916235906765806,non_fall
0.235731,0.0,0.0,0.0,0.0618,-0.0264,-0.0011,9.8576,22.2528,-40.8334,,0.0009359999999999924,0.0,0.06491356899715045,non_fall
0.236521,0.1151,-0.0345,-0.0716,0.0618,-0.0264,-0.0011,9.8576,22.2528,-40.8334,,0.0007900000000000129,0.13987430071317605,0.0809950700226989,non_fall
0.267315,0.1151,-0.0345,-0.0716,0.0618,-0.0264,-0.0011,9.7234,22.326,-40.9798,,0.030794000000000016,0.13987430071317605,0.09661112401470286,non_fall
0.271687,0.1151,-0.0345,-0.0716,0.0618,-0.0264,-0.0011,9.638,22.3748,-41.0774,,0.004371999999999987,0.13987430071317605,0.11097122966348971,non_fall
0.293067,0.1151,-0.0345,-0.0716,0.0133,-0.0092,0.006,9.638,22.3748,-41.0774,,0.02138000000000001,0.13987430071317605,0.12336104487172324,non_fall
0.299279,0.1151,-0.0345,-0.0716,0.0133,-0.0092,0.006,9.638,22.3748,-41.0774,,0.006211999999999995,0.13987430071317605,0.133202947168882,non_fall
0.30004,0.1151,-0.0345,-0.0716,0.0133,-0.0092,0.006,9.638,22.3748,-41.0774,,0.0007609999999999562,0.13987430071317605,0.14010026209152465,non_fall
0.300683,0.1151,-0.0345,-0.0716,0.0133,-0.0092,0.006,9.638,22.3748,-41.0774,,0.0006430000000000047,0.13987430071317605,0.1438629577320589,non_fall
0.304281,0.1067,0.041,-0.0819,0.0133,-0.0092,0.006,9.638,22.3748,-41.0774,,0.0035980000000000456,0.1406182776171007,0.14451528755610366,non_fall
0.321291,0.1067,0.041,-0.0819,0.0133,-0.0092,0.006,9.6258,22.3382,-41.0286,,0.01700999999999997,0.1406182776171007,0.1422872550283466,non_fall
0.362399,0.1067,0.041,-0.0819,-0.0276,-0.0513,0.0017,9.6258,22.3382,-41.0286,,0.04110800000000003,0.1406182776171007,0.13759220078205495,non_fall
0.365316,0.1067,0.041,-0.0819,-0.0276,-0.0513,0.0017,9.6258,22.3382,-41.0286,,0.0029169999999999474,0.1406182776171007,0.13099271352747743,non_fall
0.366199,0.1067,0.041,-0.0819,-0.0276,-0.0513,0.0017,9.6258,22.3382,-41.0286,,0.0008830000000000227,0.1406182776171007,0.12315686880333347,non_fall
0.367008,0.1067,0.041,-0.0819,-0.0276,-0.0513,0.0017,9.6258,22.3382,-41.0286,,0.0008090000000000042,0.1406182776171007,0.11480689206546725,non_fall
0.373139,-0.038,0.0594,0.0325,-0.0276,-0.0513,0.0017,9.6258,22.3382,-41.0286,,0.0061309999999999976,0.0776441240532727,0.10666301453081502,non_fall
0.381999,-0.038,0.0594,0.0325,-0.0276,-0.0513,0.0017,9.6258,22.2528,-40.8822,,0.008859999999999979,0.0776441240532727,0.0993865448055698,non_fall
0.431314,-0.038,0.0594,0.0325,-0.0076,-0.0513,0.022,9.6258,22.2528,-40.8822,,0.049315,0.0776441240532727,0.09352747023401346,non_fall
0.433047,-0.038,0.0594,0.0325,-0.0076,-0.0513,0.022,9.6258,22.2528,-40.8822,,0.00173300000000004,0.0776441240532727,0.08948230188838588,non_fall
0.433863,-0.038,0.0594,0.0325,-0.0076,-0.0513,0.022,9.6258,22.2528,-40.8822,,0.0008159999999999834,0.0776441240532727,0.08746686356871806,non_fall
0.434639,-0.038,0.0594,0.0325,-0.0076,-0.0513,0.022,9.6258,22.2528,-40.8822,,0.0007759999999999989,0.0776441240532727,0.08750668851672053,non_fall
0.435546,-0.038,0.0594,0.0325,-0.0076,-0.0513,0.022,9.6258,22.2528,-40.8822,,0.0009069999999999911,0.0776441240532727,0.08944544502722948,non_fall
0.440354,-0.038,0.0594,0.0325,-0.0076,-0.0513,0.022,9.5282,22.1796,-40.8944,,0.0048080000000000345,0.0776441240532727,0.09296984090129923,non_fall
0.441481,-0.0272,-0.0907,0.0779,-0.0076,-0.0513,0.022,9.5282,22.1796,-40.8944,,0.0011269999999999891,0.12261623057328096,0.09764776422452706,non_fall
0.501711,-0.0272,-0.0907,0.0779,0.031,-0.0189,0.0234,9.5282,22.1796,-40.8944,,0.060230000000000006,0.12261623057328096,0.10297494553939945,non_fall
0.503128,-0.0272,-0.0907,0.0779,0.031,-0.0189,0.0234,9.5282,22.1796,-40.8944,,0.0014170000000000016,0.12261623057328096,0.10842443108296432,non_fall
0.50385,-0.0272,-0.0907,0.0779,0.031,-0.0189,0.0234,9.5282,22.1796,-40.8944,,0.0007220000000000004,0.12261623057328096,0.11349314005672377,non_fall
0.504455,-0.0272,-0.0907,0.0779,0.031,-0.0189,0.0234,9.5282,22.1796,-40.8944,,0.0006049999999999667,0.12261623057328096,0.11774094118231423,non_fall
0.505034,-0.0272,-0.0907,0.0779,0.031,-0.0189,0.0234,9.455,22.1674,-40.9676,,0.0005789999999999962,0.12261623057328096,0.12081957633265586,non_fall
0.509948,0.0822,-0.08,0.031,0.031,-0.0189,0.0234,9.455,22.1674,-40.9676,,0.004913999999999974,0.1188185170754121,0.12249064328733862,non_fall
0.561398,0.0822,-0.08,0.031,0.031,-0.0189,0.0234,9.4062,22.0942,-40.8456,,0.051449999999999996,0.1188185170754121,0.12263324623711418,non_fall
0.565652,0.0822,-0.08,0.031,0.031,-0.0189,0.0234,9.4062,22.0942,-40.8456,,0.004254000000000091,0.1188185170754121,0.12124271615379512,non_fall
0.566432,0.0822,-0.08,0.031,0.031,-0.0189,0.0234,9.4062,22.0942,-40.8456,,0.0007800000000000029,0.1188185170754121,0.11842206221893155,non_fall
0.567497,0.0822,-0.08,0.031,0.031,-0.0189,0.0234,9.4062,22.0942,-40.8456,,0.0010649999999999826,0.1188185170754121,0.11436769809520149,non_fall
0.568177,0.0822,-0.08,0.031,0.0205,0.0181,0.0214,9.4062,22.0942,-40.8456,,0.0006800000000000139,0.1188185170754121,0.10935072896171863,non_fall
0.580599,0.0814,-0.0114,-0.0373,0.0205,0.0181,0.0214,9.4062,22.0942,-40.8456,,0.012421999999999933,0.09026189672281433,0.10369493877568725,non_fall
0.62075,0.0814,-0.0114,-0.0373,0.0205,0.0181,0.0214,9.394,22.0698,-40.8578,,0.04015100000000005,0.09026189672281433,0.09775270642715427,non_fall
0.634571,0.0814,-0.0114,-0.0373,0.0205,0.0181,0.0214,9.394,22.0698,-40.8578,,0.013820999999999972,0.09026189672281433,0.091880263676127,non_fall
0.635341,0.0814,-0.0114,-0.0373,0.0205,0.0181,0.0214,9.394,22.0698,-40.8578,,0.0007700000000000484,0.09026189672281433,0.08641366730029225,non_fall
0.635758,0.0814,-0.0114,-0.0373,0.0205,0.0181,0.0214,9.394,22.0698,-40.8578,,0.0004170000000000007,0.09026189672281433,0.08164645437248251,non_fall
0.63616,0.0814,-0.0114,-0.0373,0.0205,0.0181,0.0214,9.394,22.0698,-40.8578,,0.00040199999999990244,0.09026189672281433,0.077809451265072,non_fall
0.639437,0.0814,-0.0114,-0.0373,0.015,0.0204,0.0265,9.394,22.0698,-40.8578,,0.0032770000000000854,0.09026189672281433,0.07505306086896456,non_fall
0.649986,0.0242,0.0409,0.0275,0.015,0.0204,0.0265,9.394,22.0698,-40.8578,,0.01054899999999992,0.05490628379338744,0.07343281008364082,non_fall
0.67975,0.0242,0.0409,0.0275,0.015,0.0204,0.0265,9.4062,21.9478,-40.748,,0.029764000000000013,0.05490628379338744,0.07289988108893564,non_fall
0.699596,0.0242,0.0409,0.0275,0.015,0.0204,0.0265,9.4062,21.9478,-40.748,,0.01984600000000003,0.05490628379338744,0.07329926589206448,non_fall
0.7004,0.0242,0.0409,0.0275,0.015,0.0204,0.0265,9.4062,21.9478,-40.748,,0.0008040000000000269,0.05490628379338744,0.0743783679885507,non_fall
0.700824,0.0242,0.0409,0.0275,0.015,0.0204,0.0265,9.4062,21.9478,-40.748,,0.00042399999999997995,0.05490628379338744,0.07580789592981244,non_fall
0.710015,0.0242,0.0409,0.0275,0.0364,-0.0103,0.0099,9.4062,21.9478,-40.748,,0.00919099999999995,0.05490628379338744,0.07721488912606977,non_fall
0.720198,0.0015,-0.092,0.0522,0.0364,-0.0103,0.0099,9.4062,21.9478,-40.748,,0.010183000000000053,0.10578794827389366,0.07822515567015893,non_fall
0.739998,0.0015,-0.092,0.0522,0.0364,-0.0103,0.0099,9.455,21.8258,-40.6626,,0.01980000000000004,0.10578794827389366,0.07850980115593596,non_fall
0.766901,0.0015,-0.092,0.0522,0.0364,-0.0103,0.0099,9.455,21.8258,-40.6626,,0.02690300000000001,0.10578794827389366,0.07782856012420261,non_fall
0.768207,0.0015,-0.092,0.0522,0.0364,-0.0103,0.0099,9.455,21.8258,-40.6626,,0.0013059999999999183,0.10578794827389366,0.07606214075669572,non_fall
0.768879,0.0015,-0.092,0.0522,0.0364,-0.0103,0.0099,9.455,21.8258,-40.6626,,0.0006720000000000059,0.10578794827389366,0.07322721481087341,non_fall
0.781499,0.0015,-0.092,0.0522,0.0353,0.0048,0.0064,9.455,21.8258,-40.6626,,0.012620000000000076,0.10578794827389366,0.06947071703073138,non_fall
0.790153,-0.0003,0.0023,-0.0299,0.0353,0.0048,0.0064,9.455,21.8258,-40.6626,,0.00865399999999994,0.0299898316100641,0.06504403261740596,non_fall
0.801798,-0.0003,0.0023,-0.0299,0.0353,0.0048,0.0064,9.4428,21.7892,-40.7236,,0.011645000000000016,0.0299898316100641,0.06026170725581095,non_fall
0.833748,-0.0003,0.0023,-0.0299,0.0353,0.0048,0.0064,9.4428,21.7892,-40.7236,,0.031950000000000034,0.0299898316100641,0.05545258544926866,non_fall
0.834597,-0.0003,0.0023,-0.0299,0.0353,0.0048,0.0064,9.4428,21.7892,-40.7236,,0.0008489999999999887,0.0299898316100641,0.05091265434398283,non_fall
0.835005,-0.0003,0.0023,-0.0299,0.0353,0.0048,0.0064,9.4428,21.7892,-40.7236,,0.00040799999999996395,0.0299898316100641,0.04686782756262942,non_fall
0.835546,-0.0003,0.0023,-0.0299,0.0353,0.0048,0.0064,9.4428,21.7892,-40.7236,,0.0005410000000000137,0.0299898316100641,0.04345209934540515,non_fall
0.850715,-0.0003,0.0023,-0.0299,0.0332,-0.0617,-0.0001,9.4428,21.7892,-40.7236,,0.015168999999999988,0.0299898316100641,0.04070314760961087,non_fall
0.860097,-0.0003,0.0023,-0.0299,0.0332,-0.0617,-0.0001,9.4062,21.777,-40.8944,,0.009382000000000001,0.0299898316100641,0.038574396993167254,non_fall
0.86119,-0.0548,0.0073,-0.0065,0.0332,-0.0617,-0.0001,9.4062,21.777,-40.8944,,0.0010930000000000106,0.05566489019121479,0.03696002604342244,non_fall
0.900537,-0.0548,0.0073,-0.0065,0.0332,-0.0617,-0.0001,9.4062,21.777,-40.8944,,0.03934700000000002,0.05566489019121479,0.03572748326649246,non_fall
0.902085,-0.0548,0.0073,-0.0065,0.0332,-0.0617,-0.0001,9.4062,21.777,-40.8944,,0.0015479999999999938,0.05566489019121479,0.034750971115916095,non_fall
0.90286,-0.0548,0.0073,-0.0065,0.0332,-0.0617,-0.0001,9.4062,21.777,-40.8944,,0.0007749999999999702,0.05566489019121479,0.03393939166063298,non_fall
0.915854,-0.0548,0.0073,-0.0065,0.0332,-0.0617,-0.0001,9.3574,21.7648,-41.0164,,0.01299399999999995,0.05566489019121479,0.033253555886442326,non_fall
0.919864,-0.0548,0.0073,-0.0065,-0.002,-0.0316,-0.0145,9.3574,21.7648,-41.0164,,0.004010000000000069,0.05566489019121479,0.032709779876609876,non_fall
0.932532,0.0102,0.0086,-0.0036,-0.002,-0.0316,-0.0145,9.3574,21.7648,-41.0164,,0.012668000000000013,0.01381882773609976,0.0323698514990637,non_fall
0.967928,0.0102,0.0086,-0.0036,-0.002,-0.0316,-0.0145,9.3574,21.7648,-41.0164,,0.03539599999999998,0.01381882773609976,0.0323202616591359,non_fall
0.96949,0.0102,0.0086,-0.0036,-0.002,-0.0316,-0.0145,9.3574,21.7648,-41.0164,,0.0015619999999999523,0.01381882773609976,0.032645951345251015,non_fall
0.970438,0.0102,0.0086,-0.0036,-0.002,-0.0316,-0.0145,9.3574,21.7648,-41.0164,,0.0009480000000000599,0.01381882773609976,0.03340492253556284,non_fall
0.980298,0.0102,0.0086,-0.0036,-0.002,-0.0316,-0.0145,9.333,21.716,-41.0286,,0.00985999999999998,0.01381882773609976,0.034609531709454265,non_fall
0.98934,0.0102,0.0086,-0.0036,-0.0116,0.0085,-0.0134,9.333,21.716,-41.0286,,0.009041999999999994,0.01381882773609976,0.036218420050138145,non_fall
0.998296,0.0091,0.0139,0.0508,-0.0116,0.0085,-0.0134,9.333,21.716,-41.0286,,0.008955999999999964,0.053447731476649225,0.038140471694952965,non_fall
1.033545,0.0091,0.0139,0.0508,-0.0116,0.0085,-0.0134,9.333,21.716,-41.0286,,0.035248999999999975,0.053447731476649225,0.040249506811427645,non_fall
1.034965,0.0091,0.0139,0.0508,-0.0116,0.0085,-0.0134,9.333,21.716,-41.0286,,0.0014199999999999768,0.053447731476649225,0.0424061689971055,non_fall
1.036011,0.0091,0.0139,0.0508,-0.0116,0.0085,-0.0134,9.333,21.716,-41.0286,,0.0010460000000001024,0.053447731476649225,0.04448225864964037,non_fall
1.036829,0.0091,0.0139,0.0508,-0.0116,0.0085,-0.0134,9.333,21.716,-41.0286,,0.0008179999999999854,0.053447731476649225,0.046382869940380156,non_fall
1.039798,0.0091,0.0139,0.0508,-0.0116,0.0085,-0.0134,9.2598,21.6794,-41.0042,,0.0029689999999999994,0.053447731476649225,0.04806276818945452,non_fall
1.059028,0.0091,0.0139,0.0508,-0.0136,0.0405,0.0045,9.2598,21.6794,-41.0042,,0.01923000000000008,0.053447731476649225,0.049534857855338586,non_fall
1.068956,0.0503,0.0023,0.0238,-0.0136,0.0405,0.0045,9.2598,21.6794,-41.0042,,0.009927999999999937,0.05569398531259906,0.05086989712384998,non_fall
1.100289,0.0503,0.0023,0.0238,-0.0136,0.0405,0.0045,9.2476,21.6672,-41.0286,,0.031333000000000055,0.05569398531259906,0.05218768324269996,non_fall
1.101874,0.0503,0.0023,0.0238,-0.0136,0.0405,0.0045,9.2476,21.6672,-41.0286,,0.0015849999999999476,0.05569398531259906,0.053640790423287656,non_fall
1.102508,0.0503,0.0023,0.0238,-0.0136,0.0405,0.0045,9.2476,21.6672,-41.0286,,0.0006340000000000234,0.05569398531259906,0.055392647328824006,non_fall
1.103139,0.0503,0.0023,0.0238,-0.0136,0.0405,0.0045,9.2476,21.6672,-41.0286,,0.0006310000000000482,0.05569398531259906,0.057592324957836345,non_fall
1.129904,0.0503,0.0023,0.0238,-0.0318,0.0109,0.0089,9.2476,21.6672,-41.0286,,0.026764999999999928,0.05569398531259906,0.060348848291280524,non_fall
1.140135,-0.0266,0.0074,0.053,-0.0318,0.0109,0.0089,9.2476,21.6672,-41.0286,,0.010230999999999879,0.05976052208607284,0.063708091885703,non_fall
1.159986,-0.0266,0.0074,0.053,-0.0318,0.0109,0.0089,9.2476,21.6794,-41.1018,,0.019851000000000063,0.05976052208607284,0.06763531996767845,non_fall
1.166544,-0.0266,0.0074,0.053,-0.0318,0.0109,0.0089,9.2476,21.6794,-41.1018,,0.006558000000000064,0.05976052208607284,0.0720061633381884,non_fall
1.167626,-0.0266,0.0074,0.053,-0.0318,0.0109,0.0089,9.2476,21.6794,-41.1018,,0.0010820000000000274,0.05976052208607284,0.07660827983228238,non_fall
1.168307,-0.0266,0.0074,0.053,-0.0318,0.0109,0.0089,9.2476,21.6794,-41.1018,,0.0006809999999999317,0.05976052208607284,0.08115507814632199,non_fall
1.197603,-0.0266,0.0074,0.053,-0.0009,-0.0288,0.0228,9.2476,21.6794,-41.1018,,0.02929599999999999,0.05976052208607284,0.08531159403725694,non_fall
1.207403,-0.0674,-0.0206,0.0836,-0.0009,-0.0288,0.0228,9.2476,21.6794,-41.1018,,0.009800000000000031,0.10934386128173816,0.08873080431325153,non_fall
1.218175,-0.0674,-0.0206,0.0836,-0.0009,-0.0288,0.0228,9.1622,21.6794,-41.114,,0.010772000000000004,0.10934386128173816,0.09109647518760816,non_fall
1.233329,-0.0674,-0.0206,0.0836,-0.0009,-0.0288,0.0228,9.1622,21.6794,-41.114,,0.01515399999999989,0.10934386128173816,0.09216662928891924,non_fall
1.234404,-0.0674,-0.0206,0.0836,-0.0009,-0.0288,0.0228,9.1622,21.6794,-41.114,,0.0010750000000001592,0.10934386128173816,0.09181072464594867,non_fall
1.235326,-0.0674,-0.0206,0.0836,-0.0009,-0.0288,0.0228,9.1622,21.6794,-41.114,,0.0009219999999998674,0.10934386128173816,0.09003416647165488,non_fall
1.23616,-0.0674,-0.0206,0.0836,-0.0009,-0.0288,0.0228,9.1622,21.6794,-41.114,,0.0008340000000000014,0.10934386128173816,0.08698556691252364,non_fall
1.268139,-0.0674,-0.0206,0.0836,0.0069,0.0104,0.0025,9.1622,21.6794,-41.114,,0.03197899999999998,0.10934386128173816,0.0829446131590485,non_fall
1.277873,-0.0674,-0.0206,0.0836,0.0069,0.0104,0.0025,9.1134,21.6794,-41.1018,,0.009734000000000131,0.10934386128173816,0.07829112553885573,non_fall
1.278497,0.0314,0.0127,-0.0017,0.0069,0.0104,0.0025,9.1134,21.6794,-41.1018,,0.0006239999999999579,0.033913714040193235,0.07345883121221146,non_fall
1.300599,0.0314,0.0127,-0.0017,0.0069,0.0104,0.0025,9.1134,21.6794,-41.1018,,0.022102000000000066,0.033913714040193235,0.06888038463283339,non_fall
1.301315,0.0314,0.0127,-0.0017,0.0069,0.0104,0.0025,9.1134,21.6794,-41.1018,,0.0007159999999999389,0.033913714040193235,0.06493250641674579,non_fall
1.301723,0.0314,0.0127,-0.0017,0.0069,0.0104,0.0025,9.1134,21.6794,-41.1018,,0.00040799999999996395,0.033913714040193235,0.06189066931578034,non_fall
1.338645,0.0314,0.0127,-0.0017,0.0069,0.0104,0.0025,9.1012,21.7038,-41.0896,,0.03692200000000012,0.033913714040193235,0.05990095973555545,non_fall
1.341051,0.0314,0.0127,-0.0017,0.0265,0.0309,0.0011,9.1012,21.7038,-41.0896,,0.002405999999999908,0.033913714040193235,0.058973156415801885,non_fall
1.348602,0.0325,0.0064,-0.0757,0.0265,0.0309,0.0011,9.1012,21.7038,-41.0896,,0.007551000000000085,0.08262989773683616,0.05899484436204127,non_fall
1.368237,0.0325,0.0064,-0.0757,0.0265,0.0309,0.0011,9.1012,21.7038,-41.0896,,0.019634999999999847,0.08262989773683616,0.05976245875396203,non_fall
1.370104,0.0325,0.0064,-0.0757,0.0265,0.0309,0.0011,9.1012,21.7038,-41.0896,,0.001867000000000063,0.08262989773683616,0.061022249665979036,non_fall
1.372119,0.0325,0.0064,-0.0757,0.0265,0.0309,0.0011,9.1012,21.7038,-41.0896,,0.0020150000000001,0.08262989773683616,0.06251295435464921,non_fall
1.374322,0.0325,0.0064,-0.0757,0.0265,0.0309,0.0011,9.1012,21.7038,-41.0896,,0.002202999999999955,0.08262989773683616,0.06400272174246596,non_fall
1.398201,0.0325,0.0064,-0.0757,0.0265,0.0309,0.0011,9.1256,21.7038,-41.0896,,0.023878999999999984,0.08262989773683616,0.06531506472299137,non_fall
1.410675,0.0325,0.0064,-0.0757,0.0136,0.029,0.0051,9.1256,21.7038,-41.0896,,0.012473999999999874,0.08262989773683616,0.06634147475812947,non_fall
1.418016,0.0191,0.0076,-0.0424,0.0136,0.029,0.0051,9.1256,21.7038,-41.0896,,0.007341000000000042,0.04712037775739918,0.06704120884619644,non_fall
1.433013,0.0191,0.0076,-0.0424,0.0136,0.029,0.0051,9.1256,21.7038,-41.0896,,0.014997000000000149,0.04712037775739918,0.06743130909062119,non_fall
1.434688,0.0191,0.0076,-0.0424,0.0136,0.029,0.0051,9.1256,21.7038,-41.0896,,0.001674999999999871,0.04712037775739918,0.06757172517460279,non_fall
1.436586,0.0191,0.0076,-0.0424,0.0136,0.029,0.0051,9.1256,21.7038,-41.0896,,0.0018979999999999553,0.04712037775739918,0.06755094734931373,non_fall
1.458713,0.0191,0.0076,-0.0424,0.0136,0.029,0.0051,9.1988,21.6916,-41.114,,0.022127000000000008,0.04712037775739918,0.06747657897325851,non_fall
1.477986,0.0191,0.0076,-0.0424,-0.0084,0.0746,-0.0117,9.1988,21.6916,-41.114,,0.019273000000000096,0.04712037775739918,0.06747310445180178,non_fall
1.491715,-0.0938,-0.0105,0.0051,-0.0084,0.0746,-0.0117,9.1988,21.6916,-41.114,,0.01372899999999988,0.09452354204112327,0.06768636442020143,non_fall
1.499575,-0.0938,-0.0105,0.0051,-0.0084,0.0746,-0.0117,9.1988,21.6916,-41.114,,0.0078600000000002,0.09452354204112327,0.06829154756864433,non_fall
1.501315,-0.0938,-0.0105,0.0051,-0.0084,0.0746,-0.0117,9.1988,21.6916,-41.114,,0.0017399999999998528,0.09452354204112327,0.06949953255515535,non_fall
1.502615,-0.0938,-0.0105,0.0051,-0.0084,0.0746,-0.0117,9.1988,21.6916,-41.114,,0.0013000000000000789,0.09452354204112327,0.07155592474990777,non_fall
1.517431,-0.0938,-0.0105,0.0051,-0.0084,0.0746,-0.0117,9.272,21.6916,-41.114,,0.01481599999999994,0.09452354204112327,0.07472847248846044,non_fall
1.548108,-0.0938,-0.0105,0.0051,0.0421,0.0932,-0.0079,9.272,21.6916,-41.114,,0.030677000000000065,0.09452354204112327,0.07928127718011707,non_fall
1.559847,-0.0754,-0.0323,-0.0107,0.0421,0.0932,-0.0079,9.272,21.6916,-41.114,,0.011738999999999944,0.08272206477113588,0.0854374780149046,non_fall
1.568297,-0.0754,-0.0323,-0.0107,0.0421,0.0932,-0.0079,9.272,21.6916,-41.114,,0.008450000000000069,0.08272206477113588,0.09333518356287084,non_fall
1.56974,-0.0754,-0.0323,-0.0107,0.0421,0.0932,-0.0079,9.272,21.6916,-41.114,,0.001442999999999861,0.08272206477113588,0.10298385537961642,non_fall
1.571055,-0.0754,-0.0323,-0.0107,0.0421,0.0932,-0.0079,9.272,21.6916,-41.114,,0.0013150000000001771,0.08272206477113588,0.11422971365979025,non_fall
1.572492,-0.0754,-0.0323,-0.0107,0.0421,0.0932,-0.0079,9.272,21.6916,-41.114,,0.0014369999999999106,0.08272206477113588,0.1267387172364101,non_fall
1.575981,-0.0754,-0.0323,-0.0107,0.0421,0.0932,-0.0079,9.3208,21.6184,-41.114,,0.0034890000000000754,0.08272206477113588,0.14000412858814998,non_fall
1.618575,-0.0754,-0.0323,-0.0107,0.0495,0.0493,-0.038,9.3208,21.6184,-41.114,,0.04259400000000002,0.08272206477113588,0.1533825648516306,non_fall
1.627964,-0.185,-0.1142,0.0475,0.0495,0.0493,-0.038,9.3208,21.6184,-41.114,,0.00938899999999987,0.22253739011680712,0.16615776427882054,non_fall
1.635593,-0.185,-0.1142,0.0475,0.0495,0.0493,-0.038,9.3208,21.6184,-41.114,,0.007629000000000108,0.22253739011680712,0.1776255070494267,non_fall
1.636858,-0.185,-0.1142,0.0475,0.0495,0.0493,-0.038,9.3208,21.6184,-41.114,,0.0012649999999998496,0.22253739011680712,0.18718772381941073,non_fall
1.638052,-0.185,-0.1142,0.0475,0.0495,0.0493,-0.038,9.3208,21.6184,-41.114,,0.0011940000000001394,0.22253739011680712,0.1944410223462985,non_fall
1.639681,-0.185,-0.1142,0.0475,0.0495,0.0493,-0.038,9.3696,21.5208,-41.0652,,0.0016289999999998805,0.22253739011680712,0.19924585971540454,non_fall
1.687763,-0.185,-0.1142,0.0475,-0.0262,-0.0265,0.098,9.3696,21.5208,-41.0652,,0.04808199999999996,0.22253739011680712,0.20176644792129314,non_fall
1.697771,-0.185,-0.1142,0.0475,-0.0262,-0.0265,0.098,9.5038,21.411,-41.0164,,0.010008000000000017,0.22253739011680712,0.20247622928669545,non_fall
1.700316,-0.1632,0.1241,0.0343,-0.0262,-0.0265,0.098,9.5038,21.411,-41.0164,,0.0025450000000000195,0.20787385598001498,0.20212809724605807,non_fall
1.702632,-0.1632,0.1241,0.0343,-0.0262,-0.0265,0.098,9.5038,21.411,-41.0164,,0.0023159999999999847,0.20787385598001498,0.20169216676115267,non_fall
1.704622,-0.1632,0.1241,0.0343,-0.0262,-0.0265,0.098,9.5038,21.411,-41.0164,,0.0019900000000001583,0.20787385598001498,0.20226686016745835,non_fall
1.706765,-0.1632,0.1241,0.0343,-0.0262,-0.0265,0.098,9.5038,21.411,-41.0164,,0.002143000000000006,0.20787385598001498,0.20497135977420888,non_fall
1.757292,-0.1632,0.1241,0.0343,0.0981,0.0862,-0.1642,9.5038,21.411,-41.0164,,0.05052699999999999,0.20787385598001498,0.21082909513383544,non_fall
1.760798,-0.1632,0.1241,0.0343,0.0981,0.0862,-0.1642,9.6136,21.3134,-40.9798,,0.003506000000000009,0.20787385598001498,0.22065299231407962,non_fall
1.770301,-0.1632,0.1241,0.0343,0.0981,0.0862,-0.1642,9.6136,21.3134,-40.9798,,0.009502999999999817,0.20787385598001498,0.2349437984953555,non_fall
1.771794,-0.1632,0.1241,0.0343,0.0981,0.0862,-0.1642,9.6136,21.3134,-40.9798,,0.0014930000000001886,0.20787385598001498,0.2538127784386982,non_fall
1.773181,-0.1632,0.1241,0.0343,0.0981,0.0862,-0.1642,9.6136,21.3134,-40.9798,,0.001386999999999805,0.20787385598001498,0.27693908938382544,non_fall
1.774318,-0.1632,0.1241,0.0343,0.0981,0.0862,-0.1642,9.6136,21.3134,-40.9798,,0.0011370000000001657,0.20787385598001498,0.30356965324244484,non_fall
1.775437,-0.0194,-0.0486,0.3991,0.0981,0.0862,-0.1642,9.6136,21.3134,-40.9798,,0.00111899999999987,0.4025159996820002,0.332564875170913,non_fall
1.815774,-0.0194,-0.0486,0.3991,0.0981,0.0862,-0.1642,9.76,21.0694,-40.87,,0.04033700000000007,0.4025159996820002,0.36248727454932367,non_fall
1.825578,-0.0194,-0.0486,0.3991,0.1036,0.0324,0.0437,9.76,21.0694,-40.87,,0.009803999999999924,0.4025159996820002,0.3917236511541966,non_fall
1.836672,-0.0194,-0.0486,0.3991,0.1036,0.0324,0.0437,9.76,21.0694,-40.87,,0.01109400000000016,0.4025159996820002,0.4186274468123155,non_fall
1.837995,-0.0194,-0.0486,0.3991,0.1036,0.0324,0.0437,9.76,21.0694,-40.87,,0.001322999999999963,0.4025159996820002,0.44166772699316426,non_fall
1.839439,-0.0194,-0.0486,0.3991,0.1036,0.0324,0.0437,9.76,21.0694,-40.87,,0.0014440000000000008,0.4025159996820002,0.4595730388726976,non_fall
1.840806,-0.5014,-0.2182,-0.0719,0.1036,0.0324,0.0437,9.76,21.0694,-40.87,,0.001366999999999896,0.551527705559748,0.47145939460131764,non_fall
1.875152,-0.5014,-0.2182,-0.0719,0.1036,0.0324,0.0437,9.8454,20.8742,-40.7846,,0.03434599999999999,0.551527705559748,0.47693048433226753,non_fall
1.895237,-0.5014,-0.2182,-0.0719,0.0703,0.1226,-0.0266,9.8454,20.8742,-40.7846,,0.02008500000000013,0.551527705559748,0.4761363873452162,non_fall
1.905118,-0.5014,-0.2182,-0.0719,0.0703,0.1226,-0.0266,9.8454,20.8742,-40.7846,,0.009881000000000029,0.551527705559748,0.46977747358770944,non_fall
1.907479,-0.5014,-0.2182,-0.0719,0.0703,0.1226,-0.0266,9.8454,20.8742,-40.7846,,0.0023609999999998355,0.551527705559748,0.4590448643706782,non_fall
1.910474,-0.5014,-0.2182,-0.0719,0.0703,0.1226,-0.0266,9.8454,20.8742,-40.7846,,0.002995000000000081,0.551527705559748,0.4454974210605806,non_fall
1.912078,-0.2664,0.1438,0.0439,0.0703,0.1226,-0.0266,9.8454,20.8742,-40.7846,,0.0016039999999999388,0.3058996730956083,0.4308860787749895,non_fall
1.934455,-0.2664,0.1438,0.0439,0.0703,0.1226,-0.0266,9.9552,20.7034,-40.7602,,0.02237700000000009,0.3058996730956083,0.4169475093916702,non_fall
1.96678,-0.2664,0.1438,0.0439,0.0779,0.1867,0.0111,9.9552,20.7034,-40.7602,,0.03232499999999994,0.3058996730956083,0.4051977860691481,non_fall
1.969616,-0.2664,0.1438,0.0439,0.0779,0.1867,0.0111,9.9552,20.7034,-40.7602,,0.0028360000000000607,0.3058996730956083,0.3967593204947694,non_fall
1.971339,-0.2664,0.1438,0.0439,0.0779,0.1867,0.0111,9.9552,20.7034,-40.7602,,0.001722999999999919,0.3058996730956083,0.39224905708685415,non_fall
1.97378,-0.2664,0.1438,0.0439,0.0779,0.1867,0.0111,9.9552,20.7034,-40.7602,,0.0024410000000001375,0.3058996730956083,0.3917446217843421,non_fall
1.976208,-0.2664,0.1438,0.0439,0.0779,0.1867,0.0111,9.9552,20.7034,-40.7602,,0.0024279999999998747,0.3058996730956083,0.39483148038068533,non_fall
1.977881,-0.4996,0.0832,-0.0911,0.0779,0.1867,0.0111,9.9552,20.7034,-40.7602,,0.0016730000000000356,0.5146082101949015,0.4007206602760364,non_fall
1.994783,-0.4996,0.0832,-0.0911,0.0779,0.1867,0.0111,10.1504,20.4472,-40.7602,,0.016901999999999973,0.5146082101949015,0.4084145398858074,non_fall
2.034154,-0.4996,0.0832,-0.0911,0.118,0.2718,0.0127,10.1504,20.4472,-40.7602,,0.039371000000000045,0.5146082101949015,0.41688960827201144,non_fall
2.037981,-0.4996,0.0832,-0.0911,0.118,0.2718,0.0127,10.1504,20.4472,-40.7602,,0.0038269999999998028,0.5146082101949015,0.4252627938932803,non_fall
2.039704,-0.4996,0.0832,-0.0911,0.118,0.2718,0.0127,10.1504,20.4472,-40.7602,,0.001723000000000141,0.5146082101949015,0.4329132377711117,non_fall
2.041319,-0.4996,0.0832,-0.0911,0.118,0.2718,0.0127,10.1504,20.4472,-40.7602,,0.001615000000000144,0.5146082101949015,0.43954232469117993,non_fall
2.045531,-0.4,-0.0549,0.0332,0.118,0.2718,0.0127,10.1504,20.4472,-40.7602,,0.0042119999999998825,0.405112638657448,0.4451678718463187,non_fall
2.054479,-0.4,-0.0549,0.0332,0.118,0.2718,0.0127,10.4188,20.1788,-40.687,,0.008948000000000178,0.405112638657448,0.4500607802057816,non_fall
2.100688,-0.4,-0.0549,0.0332,0.118,0.2718,0.0127,10.4188,20.1788,-40.687,,0.04620899999999972,0.405112638657448,0.45464216715052874,non_fall
2.103631,-0.4,-0.0549,0.0332,0.118,0.2718,0.0127,10.4188,20.1788,-40.687,,0.00294300000000014,0.405112638657448,0.459364264495591,non_fall
2.105066,-0.4,-0.0549,0.0332,0.118,0.2718,0.0127,10.4188,20.1788,-40.687,,0.001434999999999853,0.405112638657448,0.4645984241725023,non_fall
2.10657,-0.4,-0.0549,0.0332,0.1015,0.3446,0.0289,10.4188,20.1788,-40.687,,0.0015040000000001719,0.405112638657448,0.47054938119734413,non_fall
2.114051,-0.4,-0.0549,0.0332,0.1015,0.3446,0.0289,10.7726,19.9226,-40.6748,,0.007480999999999849,0.405112638657448,0.47720826259236265,non_fall
2.115624,-0.5037,0.1576,-0.0104,0.1015,0.3446,0.0289,10.7726,19.9226,-40.6748,,0.0015730000000000466,0.5278821932969515,0.48434900566698186,non_fall
2.166541,-0.5037,0.1576,-0.0104,0.1015,0.3446,0.0289,10.7726,19.9226,-40.6748,,0.0509170000000001,0.5278821932969515,0.49156473102803233,non_fall
2.168961,-0.5037,0.1576,-0.0104,0.1015,0.3446,0.0289,10.7726,19.9226,-40.6748,,0.0024199999999998667,0.5278821932969515,0.498333586775915,non_fall
2.170493,-0.5037,0.1576,-0.0104,0.1015,0.3446,0.0289,10.7726,19.9226,-40.6748,,0.0015320000000000888,0.5278821932969515,0.5040995202917513,non_fall
2.172204,-0.5037,0.1576,-0.0104,0.1015,0.3446,0.0289,10.7726,19.9226,-40.6748,,0.001710999999999796,0.5278821932969515,0.5083532740877839,non_fall
2.174492,-0.5037,0.1576,-0.0104,0.1015,0.3446,0.0289,11.1996,19.642,-40.6748,,0.0022880000000000678,0.5278821932969515,0.5107016707651979,non_fall
2.176441,-0.5037,0.1576,-0.0104,0.1269,0.3503,0.0563,11.1996,19.642,-40.6748,,0.0019490000000002006,0.5278821932969515,0.5109170659028895,non_fall
2.184053,-0.4979,0.1268,0.0183,0.1269,0.3503,0.0563,11.1996,19.642,-40.6748,,0.007611999999999952,0.5141182159776095,0.5089624433808101,non_fall
2.234845,-0.4979,0.1268,0.0183,0.1269,0.3503,0.0563,11.1996,19.642,-40.6748,,0.05079199999999995,0.5141182159776095,0.5049906662946777,non_fall
2.237869,-0.4979,0.1268,0.0183,0.1269,0.3503,0.0563,11.1996,19.642,-40.6748,,0.0030239999999999156,0.5141182159776095,0.49931890644831334,non_fall
2.239866,-0.4979,0.1268,0.0183,0.1269,0.3503,0.0563,11.1996,19.642,-40.6748,,0.0019970000000002486,0.5141182159776095,0.49238132135999,non_fall
2.246245,-0.4979,0.1268,0.0183,0.1,0.3357,-0.0232,11.1996,19.642,-40.6748,,0.0063789999999999125,0.5141182159776095,0.4846648096670257,non_fall
2.249147,-0.4979,0.1268,0.0183,0.1,0.3357,-0.0232,11.7852,19.3004,-40.6016,,0.002901999999999738,0.5141182159776095,0.4766345339364235,non_fall
2.25455,-0.3792,0.0892,0.0175,0.1,0.3357,-0.0232,11.7852,19.3004,-40.6016,,0.005403000000000269,0.3899429830116193,0.4686582337836101,non_fall
2.300486,-0.3792,0.0892,0.0175,0.1,0.3357,-0.0232,11.7852,19.3004,-40.6016,,0.045935999999999755,0.3899429830116193,0.4609410013748694,lateral_fall
2.303001,-0.3792,0.0892,0.0175,0.1,0.3357,-0.0232,11.7852,19.3004,-40.6016,,0.002515000000000267,0.3899429830116193,0.4534839159509438,lateral_fall
2.304744,-0.3792,0.0892,0.0175,0.1,0.3357,-0.0232,11.7852,19.3004,-40.6016,,0.001742999999999828,0.3899429830116193,0.4460788254046928,lateral_fall
2.306172,-0.3792,0.0892,0.0175,0.1,0.3357,-0.0232,12.3586,19.0198,-40.6016,,0.0014280000000002069,0.3899429830116193,0.4383466478903916,lateral_fall
2.313142,-0.3792,0.0892,0.0175,0.0457,0.0928,-0.0819,12.3586,19.0198,-40.6016,,0.006969999999999921,0.3899429830116193,0.42981882280123423,lateral_fall
2.323533,-0.0709,0.4548,-0.0057,0.0457,0.0928,-0.0819,12.3586,19.0198,-40.6016,,0.010390999999999817,0.4603285131294823,0.42005297410943,lateral_fall
2.366498,-0.0709,0.4548,-0.0057,0.0457,0.0928,-0.0819,12.9686,18.727,-40.565,,0.04296500000000014,0.4603285131294823,0.4087661661425127,lateral_fall
2.370102,-0.0709,0.4548,-0.0057,0.0457,0.0928,-0.0819,12.9686,18.727,-40.565,,0.0036040000000001626,0.4603285131294823,0.39596368493823725,lateral_fall
2.372338,-0.0709,0.4548,-0.0057,0.0457,0.0928,-0.0819,12.9686,18.727,-40.565,,0.0022359999999999047,0.4603285131294823,0.38203936877091965,lateral_fall
2.374258,-0.0709,0.4548,-0.0057,0.0457,0.0928,-0.0819,12.9686,18.727,-40.565,,0.0019200000000001438,0.4603285131294823,0.36782585633654563,lateral_fall
2.376679,-0.0709,0.4548,-0.0057,0.0457,0.0928,-0.0819,12.9686,18.727,-40.565,,0.0024210000000000065,0.4603285131294823,0.35457934135891656,lateral_fall
2.386299,-0.0709,0.4548,-0.0057,-0.0113,0.036,-0.2088,12.9686,18.727,-40.565,,0.009619999999999962,0.4603285131294823,0.34389256484344755,lateral_fall
2.39408,-0.0738,0.2058,0.1506,-0.0113,0.036,-0.2088,12.9686,18.727,-40.565,,0.007781000000000038,0.2654815247809158,0.33754103311959194,lateral_fall
2.423805,-0.0738,0.2058,0.1506,-0.0113,0.036,-0.2088,13.5664,18.4342,-40.443,,0.029725,0.2654815247809158,0.33727975049759806,lateral_fall
2.435757,-0.0738,0.2058,0.1506,-0.0113,0.036,-0.2088,13.5664,18.4342,-40.443,,0.011951999999999963,0.2654815247809158,0.34461865947631926,lateral_fall
2.438504,-0.0738,0.2058,0.1506,-0.0113,0.036,-0.2088,13.5664,18.4342,-40.443,,0.002746999999999833,0.2654815247809158,0.3606109926763658,lateral_fall
2.44103,-0.0738,0.2058,0.1506,-0.0113,0.036,-0.2088,13.5664,18.4342,-40.443,,0.0025260000000000282,0.2654815247809158,0.3856876825311542,lateral_fall
2.455568,-0.0738,0.2058,0.1506,-0.0964,-0.0294,-0.223,13.5664,18.4342,-40.443,,0.01453799999999994,0.2654815247809158,0.41956354629321463,lateral_fall
2.466179,0.1133,0.546,0.1086,-0.0964,-0.0294,-0.223,13.5664,18.4342,-40.443,,0.010610999999999926,0.5681081323128547,0.4612293954900329,lateral_fall
2.483795,0.1133,0.546,0.1086,-0.0964,-0.0294,-0.223,14.0666,18.2634,-40.382,,0.017616000000000298,0.5681081323128547,0.5090307565157061,lateral_fall
2.501429,0.1133,0.546,0.1086,-0.0964,-0.0294,-0.223,14.0666,18.2634,-40.382,,0.017633999999999705,0.5681081323128547,0.5608215248368,lateral_fall
2.503893,0.1133,0.546,0.1086,-0.0964,-0.0294,-0.223,14.0666,18.2634,-40.382,,0.0024640000000002438,0.5681081323128547,0.614173355526526,lateral_fall
2.505346,0.1133,0.546,0.1086,-0.0964,-0.0294,-0.223,14.0666,18.2634,-40.382,,0.0014529999999997045,0.5681081323128547,0.6666202815889358,lateral_fall
2.522731,0.1133,0.546,0.1086,-0.0518,-0.1502,-0.2831,14.0666,18.2634,-40.382,,0.017384999999999984,0.5681081323128547,0.7159197174405846,lateral_fall
2.534486,-0.668,0.6719,0.098,-0.0518,-0.1502,-0.2831,14.0666,18.2634,-40.382,,0.01175499999999996,0.9525112125324301,0.7603105104937853,lateral_fall
2.542604,-0.668,0.6719,0.098,-0.0518,-0.1502,-0.2831,14.4448,18.178,-40.3332,,0.00811800000000007,0.9525112125324301,0.798743916397271,lateral_fall
2.566499,-0.668,0.6719,0.098,-0.0518,-0.1502,-0.2831,14.4448,18.178,-40.3332,,0.023895,0.9525112125324301,0.8310575572018473,lateral_fall
2.568401,-0.668,0.6719,0.098,-0.0518,-0.1502,-0.2831,14.4448,18.178,-40.3332,,0.0019020000000002923,0.9525112125324301,0.8580619096818022,lateral_fall
2.569776,-0.668,0.6719,0.098,-0.0518,-0.1502,-0.2831,14.4448,18.178,-40.3332,,0.001374999999999904,0.9525112125324301,0.881517334644588,lateral_fall
2.571299,-0.668,0.6719,0.098,-0.0518,-0.1502,-0.2831,14.4448,18.178,-40.3332,,0.001522999999999719,0.9525112125324301,0.9039947817464954,lateral_fall
2.593,-0.668,0.6719,0.098,0.2728,-0.0418,-0.4338,14.4448,18.178,-40.3332,,0.021701000000000192,0.9525112125324301,0.928629726839057,lateral_fall
2.608229,-0.668,0.6719,0.098,0.2728,-0.0418,-0.4338,14.64,18.0316,-40.2722,,0.015229000000000159,0.9525112125324301,0.9587928921119877,lateral_fall
2.611767,-0.6151,0.762,-0.1167,0.2728,-0.0418,-0.4338,14.64,18.0316,-40.2722,,0.003537999999999819,0.9862103730949092,0.9977117574972624,lateral_fall
2.632768,-0.6151,0.762,-0.1167,0.2728,-0.0418,-0.4338,14.64,18.0316,-40.2722,,0.021001000000000047,0.9862103730949092,1.0480837751569574,lateral_fall
2.634357,-0.6151,0.762,-0.1167,0.2728,-0.0418,-0.4338,14.64,18.0316,-40.2722,,0.0015890000000000626,0.9862103730949092,1.1117255849272052,lateral_fall
2.635922,-0.6151,0.762,-0.1167,0.2728,-0.0418,-0.4338,14.64,18.0316,-40.2722,,0.0015649999999998165,0.9862103730949092,1.189302150596583,lateral_fall
2.662835,-0.6151,0.762,-0.1167,0.2728,-0.0418,-0.4338,14.6888,17.8486,-40.2844,,0.026912999999999965,0.9862103730949092,1.2801746644589391,lateral_fall
2.666762,-0.6151,0.762,-0.1167,0.1667,-0.0137,-0.4273,14.6888,17.8486,-40.2844,,0.003927000000000014,0.9862103730949092,1.382394490449873,lateral_fall
2.671794,-0.3172,1.8385,-0.1534,0.1667,-0.0137,-0.4273,14.6888,17.8486,-40.2844,,0.005031999999999925,1.871958773584504,1.4928505324097159,lateral_fall
2.700695,-0.3172,1.8385,-0.1534,0.1667,-0.0137,-0.4273,14.6888,17.8486,-40.2844,,0.028901000000000288,1.871958773584504,1.6075505185689274,lateral_fall
2.702183,-0.3172,1.8385,-0.1534,0.1667,-0.0137,-0.4273,14.6888,17.8486,-40.2844,,0.0014879999999997118,1.871958773584504,1.7219909663115427,lateral_fall
2.703159,-0.3172,1.8385,-0.1534,0.1667,-0.0137,-0.4273,14.6888,17.8486,-40.2844,,0.0009760000000000879,1.871958773584504,1.8315586169856117,lateral_fall
2.723179,-0.3172,1.8385,-0.1534,0.1667,-0.0137,-0.4273,14.6156,17.7388,-40.2966,,0.02002000000000015,1.871958773584504,1.9319138804292082,lateral_fall
2.732643,-0.3172,1.8385,-0.1534,0.0915,-0.2131,-0.504,14.6156,17.7388,-40.2966,,0.009463999999999917,1.871958773584504,2.019326712181211,lateral_fall
2.744771,-0.6884,2.0622,0.3855,0.0915,-0.2131,-0.504,14.6156,17.7388,-40.2966,,0.012128000000000139,2.2079795402131785,2.090953516434925,lateral_fall
2.76741,-0.6884,2.0622,0.3855,0.0915,-0.2131,-0.504,14.6156,17.7388,-40.2966,,0.022638999999999854,2.2079795402131785,2.145052066837119,lateral_fall
2.769177,-0.6884,2.0622,0.3855,0.0915,-0.2131,-0.504,14.6156,17.7388,-40.2966,,0.001767000000000074,2.2079795402131785,2.181131615320158,lateral_fall
2.770716,-0.6884,2.0622,0.3855,0.0915,-0.2131,-0.504,14.6156,17.7388,-40.2966,,0.0015390000000001791,2.2079795402131785,2.200033916062501,lateral_fall
2.772231,-0.6884,2.0622,0.3855,0.0915,-0.2131,-0.504,14.6156,17.7388,-40.2966,,0.001514999999999933,2.2079795402131785,2.203942640002804,lateral_fall
2.781405,-0.6884,2.0622,0.3855,0.0915,-0.2131,-0.504,14.3716,17.6534,-40.3576,,0.009173999999999793,2.2079795402131785,2.19632329346301,lateral_fall
2.801817,-0.6884,2.0622,0.3855,0.2613,-0.487,-0.6916,14.3716,17.6534,-40.3576,,0.020411999999999875,2.2079795402131785,2.1818003674457493,lateral_fall
2.813269,-1.6879,1.2366,0.3042,0.2613,-0.487,-0.6916,14.3716,17.6534,-40.3576,,0.01145200000000024,2.1144085721543977,2.1659814674797504,lateral_fall
2.834488,-1.6879,1.2366,0.3042,0.2613,-0.487,-0.6916,14.3716,17.6534,-40.3576,,0.021218999999999877,2.1144085721543977,2.1552398967341695,lateral_fall
2.83684,-1.6879,1.2366,0.3042,0.2613,-0.487,-0.6916,14.3716,17.6534,-40.3576,,0.0023520000000001318,2.1144085721543977,2.1564678443996628,lateral_fall
2.838799,-1.6879,1.2366,0.3042,0.2613,-0.487,-0.6916,14.3716,17.6534,-40.3576,,0.001958999999999822,2.1144085721543977,2.176811341802929,lateral_fall
2.843694,-1.6879,1.2366,0.3042,0.2613,-0.487,-0.6916,13.8714,17.5314,-40.504,,0.004895000000000316,2.1144085721543977,2.2233948247824604,lateral_fall
2.873063,-1.6879,1.2366,0.3042,-0.3248,-0.5606,-0.8377,13.8714,17.5314,-40.504,,0.02936899999999998,2.1144085721543977,2.303037413847613,lateral_fall
2.884942,-1.3577,2.5299,0.6659,-0.3248,-0.5606,-0.8377,13.8714,17.5314,-40.504,,0.011878999999999973,2.947399889733322,2.421955078174069,lateral_fall
2.899671,-1.3577,2.5299,0.6659,-0.3248,-0.5606,-0.8377,13.8714,17.5314,-40.504,,0.014728999999999992,2.947399889733322,2.5854342851873984,lateral_fall
2.901145,-1.3577,2.5299,0.6659,-0.3248,-0.5606,-0.8377,13.8714,17.5314,-40.504,,0.0014739999999999753,2.947399889733322,2.7974596211157805,lateral_fall
2.902188,-1.3577,2.5299,0.6659,-0.3248,-0.5606,-0.8377,13.8714,17.5314,-40.504,,0.0010430000000001272,2.947399889733322,3.060288785843087,lateral_fall
2.903473,-1.3577,2.5299,0.6659,-0.3248,-0.5606,-0.8377,13.2126,17.5192,-40.6138,,0.0012849999999997586,2.947399889733322,3.3739943686507345,lateral_fall
2.944033,-1.3577,2.5299,0.6659,-2.0562,0.2016,-1.0013,13.2126,17.5192,-40.6138,,0.04056000000000015,2.947399889733322,3.7360199836930414,lateral_fall
2.954362,-2.0025,3.9875,-2.7358,-2.0562,0.2016,-1.0013,13.2126,17.5192,-40.6138,,0.010329000000000033,5.23400077760789,4.140809923046683,lateral_fall
2.961371,-2.0025,3.9875,-2.7358,-2.0562,0.2016,-1.0013,12.5904,18.056,-40.4552,,0.007009000000000043,5.23400077760789,4.579559026510157,lateral_fall
2.966691,-2.0025,3.9875,-2.7358,-2.0562,0.2016,-1.0013,12.5904,18.056,-40.4552,,0.005319999999999769,5.23400077760789,5.040108621043617,lateral_fall
2.967869,-2.0025,3.9875,-2.7358,-2.0562,0.2016,-1.0013,12.5904,18.056,-40.4552,,0.0011779999999999013,5.23400077760789,5.507014456084532,lateral_fall
2.968774,-2.0025,3.9875,-2.7358,-2.0562,0.2016,-1.0013,12.5904,18.056,-40.4552,,0.0009049999999999336,5.23400077760789,5.961845987774812,lateral_fall
2.96962,-2.0025,3.9875,-2.7358,-2.0562,0.2016,-1.0013,12.5904,18.056,-40.4552,,0.0008460000000001244,5.23400077760789,6.38382049412,lateral_fall
3.014151,-2.0025,3.9875,-2.7358,-1.4649,1.5678,-1.4139,12.5904,18.056,-40.4552,,0.0445310000000001,5.23400077760789,6.750891248735198,lateral_fall
3.023494,-2.0025,3.9875,-2.7358,-1.4649,1.5678,-1.4139,12.1512,19.1174,-39.9062,,0.00934299999999988,5.23400077760789,7.0413698492839645,lateral_fall
3.026501,3.3934,-2.2354,-7.2198,-1.4649,1.5678,-1.4139,12.1512,19.1174,-39.9062,,0.003007000000000204,8.284786585060596,7.2360635007080925,lateral_fall
3.033429,3.3934,-2.2354,-7.2198,-1.4649,1.5678,-1.4139,12.1512,19.1174,-39.9062,,0.006927999999999823,8.284786585060596,7.320764362990218,lateral_fall
3.035255,3.3934,-2.2354,-7.2198,-1.4649,1.5678,-1.4139,12.1512,19.1174,-39.9062,,0.0018259999999998833,8.284786585060596,7.288782565453775,lateral_fall
3.036874,3.3934,-2.2354,-7.2198,-1.4649,1.5678,-1.4139,12.1512,19.1174,-39.9062,,0.0016190000000002591,8.284786585060596,7.14312646208654,lateral_fall
3.082324,3.3934,-2.2354,-7.2198,-1.4649,1.5678,-1.4139,12.1146,20.496,-39.0156,,0.04544999999999977,8.284786585060596,6.897940630005642,lateral_fall
3.086281,3.3934,-2.2354,-7.2198,-0.0573,2.6178,-2.0269,12.1146,20.496,-39.0156,,0.00395700000000021,8.284786585060596,6.5789046525504,lateral_fall
3.093561,-1.7705,-2.6751,4.4155,-0.0573,2.6178,-2.0269,12.1146,20.496,-39.0156,,0.007279999999999731,5.4577898924381465,6.222439337636848,lateral_fall
3.100202,-1.7705,-2.6751,4.4155,-0.0573,2.6178,-2.0269,12.1146,20.496,-39.0156,,0.006641000000000119,5.4577898924381465,5.873730757843413,lateral_fall
3.102392,-1.7705,-2.6751,4.4155,-0.0573,2.6178,-2.0269,12.1146,20.496,-39.0156,,0.0021900000000001363,5.4577898924381465,5.5837349638818825,lateral_fall
3.10393,-1.7705,-2.6751,4.4155,-0.0573,2.6178,-2.0269,12.1146,20.496,-39.0156,,0.0015380000000000393,5.4577898924381465,5.405429950242973,lateral_fall
3.142731,-1.7705,-2.6751,4.4155,-0.0573,2.6178,-2.0269,12.5172,22.1552,-37.7834,,0.03880099999999986,5.4577898924381465,5.389618176601842,lateral_fall
3.151419,-1.7705,-2.6751,4.4155,0.8858,3.323,-4.4962,12.5172,22.1552,-37.7834,,0.008688000000000251,5.4577898924381465,5.580573232594658,lateral_fall
3.162076,5.3245,-4.8959,0.0932,0.8858,3.323,-4.4962,12.5172,22.1552,-37.7834,,0.010656999999999694,7.233866414304317,6.011805252988862,lateral_fall
3.165897,5.3245,-4.8959,0.0932,0.8858,3.323,-4.4962,12.5172,22.1552,-37.7834,,0.0038210000000002964,7.233866414304317,6.7022147141633015,lateral_fall
3.167475,5.3245,-4.8959,0.0932,0.8858,3.323,-4.4962,12.5172,22.1552,-37.7834,,0.0015779999999998573,7.233866414304317,7.652922005835022,lateral_fall
3.169149,5.3245,-4.8959,0.0932,0.8858,3.323,-4.4962,12.5172,22.1552,-37.7834,,0.0016739999999999533,7.233866414304317,8.845102005258207,lateral_fall
3.170336,5.3245,-4.8959,0.0932,0.8858,3.323,-4.4962,12.5172,22.1552,-37.7834,,0.001186999999999827,7.233866414304317,10.239200050169892,lateral_fall
3.201363,5.3245,-4.8959,0.0932,0.8858,3.323,-4.4962,12.0292,23.912,-36.722,,0.03102700000000036,7.233866414304317,11.7759089139565,lateral_fall
3.220833,5.3245,-4.8959,0.0932,1.2091,-0.032,-2.819,12.0292,23.912,-36.722,,0.019469999999999654,7.233866414304317,13.379182337640511,lateral_fall
3.231431,14.9614,-13.1884,-1.0302,1.2091,-0.032,-2.819,12.0292,23.912,-36.722,,0.01059800000000033,19.970946311079,14.961304217461853,lateral_fall
3.234254,14.9614,-13.1884,-1.0302,1.2091,-0.032,-2.819,12.0292,23.912,-36.722,,0.002822999999999798,19.970946311079,16.429640674140266,lateral_fall
3.236518,14.9614,-13.1884,-1.0302,1.2091,-0.032,-2.819,12.0292,23.912,-36.722,,0.0022639999999998217,19.970946311079,17.694300259012856,lateral_fall
3.238047,14.9614,-13.1884,-1.0302,1.2091,-0.032,-2.819,12.0292,23.912,-36.722,,0.0015290000000001136,19.970946311079,18.675710054124806,lateral_fall
3.260453,14.9614,-13.1884,-1.0302,1.2091,-0.032,-2.819,11.1386,25.3638,-35.9046,,0.022406000000000148,19.970946311079,19.311187464594425,lateral_fall
3.290583,14.9614,-13.1884,-1.0302,1.5686,0.2482,-2.2134,11.1386,25.3638,-35.9046,,0.030129999999999768,19.970946311079,19.559863916440392,lateral_fall
3.30281,14.9614,-13.1884,-1.0302,1.5686,0.2482,-2.2134,11.1386,25.3638,-35.9046,,0.01222700000000021,19.970946311079,19.40562299573429,lateral_fall
3.304671,14.9614,-13.1884,-1.0302,1.5686,0.2482,-2.2134,11.1386,25.3638,-35.9046,,0.0018609999999998905,19.970946311079,18.857945881591625,lateral_fall
3.30624,14.9614,-13.1884,-1.0302,1.5686,0.2482,-2.2134,11.1386,25.3638,-35.9046,,0.0015689999999999316,19.970946311079,17.950707827849932,lateral_fall
3.307922,14.9614,-13.1884,-1.0302,1.5686,0.2482,-2.2134,11.1386,25.3638,-35.9046,,0.0016820000000001833,19.970946311079,16.739086475721166,lateral_fall
3.309702,-10.6615,-0.9912,1.5564,1.5686,0.2482,-2.2134,11.1386,25.3638,-35.9046,,0.0017800000000001148,10.820001878465641,15.294875728581845,lateral_fall
3.321105,-10.6615,-0.9912,1.5564,1.5686,0.2482,-2.2134,10.1382,26.352,-35.3556,,0.011403000000000052,10.820001878465641,13.700665175967517,lateral_fall
3.362206,-10.6615,-0.9912,1.5564,0.889,0.7195,-1.8056,10.1382,26.352,-35.3556,,0.04110099999999983,10.820001878465641,12.043489913090767,lateral_fall
3.368627,-10.6615,-0.9912,1.5564,0.889,0.7195,-1.8056,10.1382,26.352,-35.3556,,0.00642100000000001,10.820001878465641,10.408575394684974,lateral_fall
3.370798,-10.6615,-0.9912,1.5564,0.889,0.7195,-1.8056,10.1382,26.352,-35.3556,,0.002171000000000145,10.820001878465641,8.873656183939003,lateral_fall
3.372845,-10.6615,-0.9912,1.5564,0.889,0.7195,-1.8056,10.1382,26.352,-35.3556,,0.002046999999999688,10.820001878465641,7.504130072087745,lateral_fall
3.3747,-2.7225,0.7299,1.2404,0.889,0.7195,-1.8056,10.1382,26.352,-35.3556,,0.00185499999999994,3.079505223246098,6.349170635987794,lateral_fall
3.384299,-2.7225,0.7299,1.2404,0.889,0.7195,-1.8056,9.211,26.779,-34.9652,,0.009599000000000135,3.079505223246098,5.438932882107126,lateral_fall
3.428533,-2.7225,0.7299,1.2404,0.6276,0.702,-1.779,9.211,26.779,-34.9652,,0.044233999999999885,3.079505223246098,4.783083825895384,lateral_fall
3.431766,-2.7225,0.7299,1.2404,0.6276,0.702,-1.779,9.211,26.779,-34.9652,,0.0032330000000002634,3.079505223246098,4.370932966751758,lateral_fall
3.432516,-2.7225,0.7299,1.2404,0.6276,0.702,-1.779,9.211,26.779,-34.9652,,0.0007500000000000284,3.079505223246098,4.173336548706814,lateral_fall
3.433168,-2.7225,0.7299,1.2404,0.6276,0.702,-1.779,9.211,26.779,-34.9652,,0.000652000000000097,3.079505223246098,4.146333116710325,lateral_fall
3.438928,-2.7225,0.7299,1.2404,0.6276,0.702,-1.779,8.2106,26.3642,-34.831,,0.005759999999999987,3.079505223246098,4.236225200512622,lateral_fall
3.44022,3.0785,5.993,-0.4141,0.6276,0.702,-1.779,8.2106,26.3642,-34.831,,0.0012919999999998488,6.75016222471727,4.385610175684907,lateral_fall
3.50292,3.0785,5.993,-0.4141,0.6276,0.702,-1.779,6.9052,25.2052,-35.4288,,0.06269999999999998,6.75016222471727,4.539698720748564,lateral_fall
3.504762,3.0785,5.993,-0.4141,0.6276,0.702,-1.779,6.9052,25.2052,-35.4288,,0.0018419999999998993,6.75016222471727,4.652164474024766,lateral_fall
3.505504,3.0785,5.993,-0.4141,0.6276,0.702,-1.779,6.9052,25.2052,-35.4288,,0.0007420000000002425,6.75016222471727,4.6897854134307995,lateral_fall
3.506208,3.0785,5.993,-0.4141,0.6276,0.702,-1.779,6.9052,25.2052,-35.4288,,0.0007039999999998159,6.75016222471727,4.635286328111442,lateral_fall
3.506956,3.0785,5.993,-0.4141,0.6276,0.702,-1.779,6.9052,25.2052,-35.4288,,0.000748000000000193,6.75016222471727,4.4880414721684,lateral_fall
3.507727,3.0785,5.993,-0.4141,0.772,0.0783,-0.3025,6.9052,25.2052,-35.4288,,0.0007709999999998551,6.75016222471727,4.262592932663084,lateral_fall
3.509972,0.0938,1.142,0.1969,0.772,0.0783,-0.3025,6.9052,25.2052,-35.4288,,0.0022449999999998305,1.1626401205876218,3.9852471992115,lateral_fall
3.562084,0.0938,1.142,0.1969,0.772,0.0783,-0.3025,5.368,23.607,-36.4536,,0.05211200000000016,1.1626401205876218,3.6893041613334443,lateral_fall
3.565621,0.0938,1.142,0.1969,0.772,0.0783,-0.3025,5.368,23.607,-36.4536,,0.0035370000000001234,1.1626401205876218,3.4096950859767206,lateral_fall
3.566424,0.0938,1.142,0.1969,0.772,0.0783,-0.3025,5.368,23.607,-36.4536,,0.0008029999999998871,1.1626401205876218,3.1778798819479785,lateral_fall
3.567297,0.0938,1.142,0.1969,0.772,0.0783,-0.3025,5.368,23.607,-36.4536,,0.0008729999999999016,1.1626401205876218,3.0177412555305234,lateral_fall
3.568015,0.0938,1.142,0.1969,0.3985,0.7225,0.3756,5.368,23.607,-36.4536,,0.0007179999999999964,1.1626401205876218,2.9429611052425306,lateral_fall
3.580183,-0.1529,4.0255,0.0865,0.3985,0.7225,0.3756,5.368,23.607,-36.4536,,0.012167999999999957,4.029331322936847,2.956061295523194,lateral_fall
3.611597,-0.1529,4.0255,0.0865,0.3985,0.7225,0.3756,5.368,23.607,-36.4536,,0.031414000000000275,4.029331322936847,3.0490057605139675,lateral_fall
3.612625,-0.1529,4.0255,0.0865,0.3985,0.7225,0.3756,5.368,23.607,-36.4536,,0.0010279999999998068,4.029331322936847,3.2050394910271853,lateral_fall
3.617518,-0.1529,4.0255,0.0865,0.3985,0.7225,0.3756,3.5746,21.8136,-37.82,,0.004893000000000036,4.029331322936847,3.4013202574377397,lateral_fall
3.62121,-0.1529,4.0255,0.0865,0.3985,0.7225,0.3756,3.5746,21.8136,-37.82,,0.0036920000000000286,4.029331322936847,3.6118924090450397,lateral_fall
3.641653,-0.1529,4.0255,0.0865,0.1435,0.8068,0.3334,3.5746,21.8136,-37.82,,0.020442999999999767,4.029331322936847,3.8106255730827323,lateral_fall
3.649567,-3.419,2.6228,-0.7757,0.1435,0.8068,0.3334,3.5746,21.8136,-37.82,,0.007913999999999977,4.378395976839006,3.9738408330195054,lateral_fall
3.681415,-3.419,2.6228,-0.7757,0.1435,0.8068,0.3334,3.0256,19.8494,-39.0522,,0.0318480000000001,4.378395976839006,4.082436406551657,lateral_fall
3.700473,-3.419,2.6228,-0.7757,0.1435,0.8068,0.3334,3.0256,19.8494,-39.0522,,0.01905800000000024,4.378395976839006,4.123394496257687,lateral_fall
3.701424,-3.419,2.6228,-0.7757,0.1435,0.8068,0.3334,3.0256,19.8494,-39.0522,,0.0009509999999997021,4.378395976839006,4.090606167123058,lateral_fall
3.701811,-3.419,2.6228,-0.7757,0.1435,0.8068,0.3334,3.0256,19.8494,-39.0522,,0.0003870000000003593,4.378395976839006,3.9849991257455475,lateral_fall
3.70267,-3.419,2.6228,-0.7757,0.1435,0.8068,0.3334,3.0256,19.8494,-39.0522,,0.0008589999999997211,4.378395976839006,3.813998456035474,lateral_fall
3.709013,-3.419,2.6228,-0.7757,-0.1337,0.5135,0.2525,3.0256,19.8494,-39.0522,,0.00634300000000021,4.378395976839006,3.5903960233399674,lateral_fall
3.718256,-1.0387,1.7919,-0.7231,-0.1337,0.5135,0.2525,3.0256,19.8494,-39.0522,,0.009242999999999668,2.19378141800864,3.330754924650455,lateral_fall
3.73927,-1.0387,1.7919,-0.7231,-0.1337,0.5135,0.2525,3.1842,18.2146,-39.9916,,0.021014000000000088,2.19378141800864,3.0535306382805114,lateral_fall
3.77059,-1.0387,1.7919,-0.7231,-0.1337,0.5135,0.2525,3.1842,18.2146,-39.9916,,0.031320000000000014,2.19378141800864,2.777134143960077,lateral_fall
3.772156,-1.0387,1.7919,-0.7231,-0.1337,0.5135,0.2525,3.1842,18.2146,-39.9916,,0.0015659999999999563,2.19378141800864,2.518166604929798,lateral_fall
3.772782,-1.0387,1.7919,-0.7231,-0.1337,0.5135,0.2525,3.1842,18.2146,-39.9916,,0.0006260000000000154,2.19378141800864,2.2900078190399666,lateral_fall
3.781361,-1.0387,1.7919,-0.7231,-0.0024,-0.032,0.4099,3.1842,18.2146,-39.9916,,0.008579000000000114,2.19378141800864,2.1018614896429564,lateral_fall
3.789003,-0.0356,1.5338,0.8953,-0.0024,-0.032,0.4099,3.1842,18.2146,-39.9916,,0.007642000000000149,1.7763366488365882,1.9582840830294799,lateral_fall
3.799115,-0.0356,1.5338,0.8953,-0.0024,-0.032,0.4099,3.7088,17.1166,-40.5772,,0.010111999999999899,1.7763366488365882,1.8591717023031746,lateral_fall
3.836021,-0.0356,1.5338,0.8953,-0.0024,-0.032,0.4099,3.7088,17.1166,-40.5772,,0.036906000000000105,1.7763366488365882,1.8001510632913915,lateral_fall
3.837723,-0.0356,1.5338,0.8953,-0.0024,-0.032,0.4099,3.7088,17.1166,-40.5772,,0.0017019999999998703,1.7763366488365882,1.7733057372284773,lateral_fall
3.838506,-0.0356,1.5338,0.8953,-0.0024,-0.032,0.4099,3.7088,17.1166,-40.5772,,0.0007830000000002002,1.7763366488365882,1.7681581797533663,lateral_fall
3.849965,-0.0356,1.5338,0.8953,0.0899,-0.3493,0.5053,3.7088,17.1166,-40.5772,,0.011458999999999886,1.7763366488365882,1.7728191518800265,lateral_fall
3.858763,-0.0356,1.5338,0.8953,0.0899,-0.3493,0.5053,4.2944,16.4334,-41.1018,,0.008798000000000084,1.7763366488365882,1.7752102672204084,lateral_fall
3.860009,-1.7261,0.0056,0.8275,0.0899,-0.3493,0.5053,4.2944,16.4334,-41.1018,,0.0012459999999996363,1.9142123236464652,1.7642630763192622,lateral_fall
3.90039,-1.7261,0.0056,0.8275,0.0899,-0.3493,0.5053,4.2944,16.4334,-41.1018,,0.040381,1.9142123236464652,1.7309985774577181,lateral_fall
3.901939,-1.7261,0.0056,0.8275,0.0899,-0.3493,0.5053,4.2944,16.4334,-41.1018,,0.0015490000000002446,1.9142123236464652,1.669394729761681,lateral_fall
3.902575,-1.7261,0.0056,0.8275,0.0899,-0.3493,0.5053,4.2944,16.4334,-41.1018,,0.0006360000000000809,1.9142123236464652,1.5769588222416242,lateral_fall
3.903347,-1.7261,0.0056,0.8275,0.0899,-0.3493,0.5053,4.2944,16.4334,-41.1018,,0.0007719999999999949,1.9142123236464652,1.454939166026508,lateral_fall
3.91359,-1.7261,0.0056,0.8275,0.0899,-0.3493,0.5053,4.8678,15.9454,-41.6142,,0.010243000000000002,1.9142123236464652,1.3081382618623634,lateral_fall
3.917531,-1.7261,0.0056,0.8275,-0.0499,-0.5308,0.5429,4.8678,15.9454,-41.6142,,0.00394099999999975,1.9142123236464652,1.1443287856628377,lateral_fall
3.933155,0.0372,-0.0502,0.08,-0.0499,-0.5308,0.5429,4.8678,15.9454,-41.6142,,0.015624000000000304,0.10150802923907055,0.9733257967652831,lateral_fall
3.96804,0.0372,-0.0502,0.08,-0.0499,-0.5308,0.5429,4.8678,15.9454,-41.6142,,0.03488499999999961,0.10150802923907055,0.8058295557106918,lateral_fall
3.971743,0.0372,-0.0502,0.08,-0.0499,-0.5308,0.5429,4.8678,15.9454,-41.6142,,0.003703000000000234,0.10150802923907055,0.6522057535360539,lateral_fall
3.973962,0.0372,-0.0502,0.08,-0.0499,-0.5308,0.5429,4.8678,15.9454,-41.6142,,0.002219000000000193,0.10150802923907055,0.5213871520455781,lateral_fall
3.97888,0.0372,-0.0502,0.08,-0.0499,-0.5308,0.5429,5.5388,15.6526,-41.7972,,0.004917999999999978,0.10150802923907055,0.42004911531838984,lateral_fall
3.98798,0.0372,-0.0502,0.08,-0.1663,-0.3571,0.5806,5.5388,15.6526,-41.7972,,0.009099999999999664,0.10150802923907055,0.35214522891526695,lateral_fall
3.998056,0.0847,-0.547,-0.1667,-0.1663,-0.3571,0.5806,5.5388,15.6526,-41.7972,,0.010076000000000196,0.5780761022564418,0.31881544158426844,lateral_fall
4.033953,0.0847,-0.547,-0.1667,-0.1663,-0.3571,0.5806,5.5388,15.6526,-41.7972,,0.03589700000000029,0.5780761022564418,0.3186174121920372,lateral_fall
4.037393,0.0847,-0.547,-0.1667,-0.1663,-0.3571,0.5806,5.5388,15.6526,-41.7972,,0.0034399999999994435,0.5780761022564418,0.3479907157227363,lateral_fall
4.040063,0.0847,-0.547,-0.1667,-0.1663,-0.3571,0.5806,5.5388,15.6526,-41.7972,,0.0026700000000001722,0.5780761022564418,0.4018473972308412,lateral_fall
4.042261,0.0847,-0.547,-0.1667,-0.1663,-0.3571,0.5806,6.0512,15.616,-41.8704,,0.0021979999999999222,0.5780761022564418,0.4741901865432677,lateral_fall
4.06035,0.0847,-0.547,-0.1667,-0.3336,-0.1546,0.6334,6.0512,15.616,-41.8704,,0.0180889999999998,0.5780761022564418,0.5586831899949279,lateral_fall
4.068818,0.275,0.3025,-0.728,-0.3336,-0.1546,0.6334,6.0512,15.616,-41.8704,,0.008468000000000586,0.8349342788507368,0.6491275414063199,lateral_fall
4.098577,0.275,0.3025,-0.728,-0.3336,-0.1546,0.6334,6.527,15.6648,-41.7972,,0.029758999999999425,0.8349342788507368,0.7398185019676266,lateral_fall
4.102298,0.275,0.3025,-0.728,-0.3336,-0.1546,0.6334,6.527,15.6648,-41.7972,,0.0037210000000005294,0.8349342788507368,0.8257792363445285,lateral_fall
4.105102,0.275,0.3025,-0.728,-0.3336,-0.1546,0.6334,6.527,15.6648,-41.7972,,0.0028039999999993626,0.8349342788507368,0.9028819949185187,lateral_fall
4.107615,0.275,0.3025,-0.728,-0.3336,-0.1546,0.6334,6.527,15.6648,-41.7972,,0.0025130000000004316,0.8349342788507368,0.967880811919387,lateral_fall
4.109839,0.275,0.3025,-0.728,-0.3336,-0.1546,0.6334,6.527,15.6648,-41.7972,,0.0022240000000000038,0.8349342788507368,1.0183889072876857,lateral_fall
4.128535,0.275,0.3025,-0.728,-0.6265,0.0941,0.6848,6.527,15.6648,-41.7972,,0.018696000000000268,0.8349342788507368,1.0528352391610876,lateral_fall
4.145511,0.6325,0.4657,-0.8336,-0.6265,0.0941,0.6848,6.527,15.6648,-41.7972,,0.016975999999999658,1.1453478510915363,1.0704265145486023,lateral_fall
4.156665,0.6325,0.4657,-0.8336,-0.6265,0.0941,0.6848,6.71,15.9576,-41.663,,0.01115400000000033,1.1453478510915363,1.0711252779374003,lateral_fall
4.166547,0.6325,0.4657,-0.8336,-0.6265,0.0941,0.6848,6.71,15.9576,-41.663,,0.00988199999999928,1.1453478510915363,1.0556368319197333,lateral_fall
4.167958,0.6325,0.4657,-0.8336,-0.6265,0.0941,0.6848,6.71,15.9576,-41.663,,0.001411000000000051,1.1453478510915363,1.025384861555466,lateral_fall
4.168833,0.6325,0.4657,-0.8336,-0.6265,0.0941,0.6848,6.71,15.9576,-41.663,,0.0008750000000006253,1.1453478510915363,0.9824525458465984,lateral_fall
4.198217,0.6325,0.4657,-0.8336,-0.788,0.1734,0.7464,6.71,15.9576,-41.663,,0.02938399999999941,1.1453478510915363,0.9294725258891507,lateral_fall
4.207195,0.0662,0.5581,-0.2873,-0.788,0.1734,0.7464,6.71,15.9576,-41.663,,0.00897799999999993,0.6311888306996568,0.8694623811559414,lateral_fall
4.218202,0.0662,0.5581,-0.2873,-0.788,0.1734,0.7464,6.9296,16.4334,-41.3946,,0.011007000000000211,0.6311888306996568,0.805618724585073,lateral_fall
4.234652,0.0662,0.5581,-0.2873,-0.788,0.1734,0.7464,6.9296,16.4334,-41.3946,,0.016449999999999854,0.6311888306996568,0.7410973534721006,lateral_fall
4.238544,0.0662,0.5581,-0.2873,-0.788,0.1734,0.7464,6.9296,16.4334,-41.3946,,0.0038920000000004507,0.6311888306996568,0.6788121377335852,lateral_fall
4.240794,0.0662,0.5581,-0.2873,-0.788,0.1734,0.7464,6.9296,16.4334,-41.3946,,0.0022500000000000853,0.6311888306996568,0.6212783971258,lateral_fall
4.268393,0.0662,0.5581,-0.2873,-0.8774,0.1298,0.7734,6.9296,16.4334,-41.3946,,0.027598999999999485,0.6311888306996568,0.5705120671474628,lateral_fall
4.278035,0.0662,0.5581,-0.2873,-0.8774,0.1298,0.7734,7.2346,17.0922,-41.0042,,0.009642000000000372,0.6311888306996568,0.5279822912635568,lateral_fall
4.281144,-0.1805,0.3462,-0.1901,-0.8774,0.1298,0.7734,7.2346,17.0922,-41.0042,,0.0031090000000002505,0.4342495826135012,0.4946076656075334,non_fall
4.300779,-0.1805,0.3462,-0.1901,-0.8774,0.1298,0.7734,7.2346,17.0922,-41.0042,,0.01963500000000007,0.4342495826135012,0.47078584181605665,non_fall
4.305044,-0.1805,0.3462,-0.1901,-0.8774,0.1298,0.7734,7.2346,17.0922,-41.0042,,0.004264999999999297,0.4342495826135012,0.45644971099639803,non_fall
4.307268,-0.1805,0.3462,-0.1901,-0.8774,0.1298,0.7734,7.2346,17.0922,-41.0042,,0.0022240000000000038,0.4342495826135012,0.4511466938965431,non_fall
4.309424,-0.1805,0.3462,-0.1901,-0.8774,0.1298,0.7734,7.2346,17.0922,-41.0042,,0.002156000000000269,0.4342495826135012,0.454137925092912,non_fall
4.336872,-0.1805,0.3462,-0.1901,-0.8774,0.1298,0.7734,7.7348,18.0194,-40.4186,,0.027447999999999695,0.4342495826135012,0.4645115858434494,non_fall
4.339897,-0.1805,0.3462,-0.1901,-1.0025,0.0722,0.7621,7.7348,18.0194,-40.4186,,0.0030250000000000554,0.4342495826135012,0.48130111964672695,non_fall
4.346525,-0.4082,0.3904,-0.3144,-1.0025,0.0722,0.7621,7.7348,18.0194,-40.4186,,0.006628000000000078,0.6464416137595104,0.5035956420518235,non_fall
4.369667,-0.4082,0.3904,-0.3144,-1.0025,0.0722,0.7621,7.7348,18.0194,-40.4186,,0.023141999999999996,0.6464416137595104,0.5306269776106319,non_fall
4.373234,-0.4082,0.3904,-0.3144,-1.0025,0.0722,0.7621,7.7348,18.0194,-40.4186,,0.00356700000000032,0.6464416137595104,0.5618168798933884,non_fall
4.375309,-0.4082,0.3904,-0.3144,-1.0025,0.0722,0.7621,7.7348,18.0194,-40.4186,,0.002074999999999605,0.6464416137595104,0.5967715510548455,non_fall
4.397842,-0.4082,0.3904,-0.3144,-1.0025,0.0722,0.7621,8.4912,19.2394,-39.6622,,0.022533000000000136,0.6464416137595104,0.6352194441276262,non_fall
4.408103,-0.4082,0.3904,-0.3144,-0.9108,0.1896,0.6922,8.4912,19.2394,-39.6622,,0.010260999999999854,0.6464416137595104,0.6769001022124623,non_fall
4.418751,-0.4747,0.4889,-0.2388,-0.9108,0.1896,0.6922,8.4912,19.2394,-39.6622,,0.010648000000000657,0.7220725309828646,0.7214225023254638,non_fall
4.434485,-0.4747,0.4889,-0.2388,-0.9108,0.1896,0.6922,8.4912,19.2394,-39.6622,,0.01573399999999925,0.7220725309828646,0.7681183544546167,non_fall
4.436027,-0.4747,0.4889,-0.2388,-0.9108,0.1896,0.6922,8.4912,19.2394,-39.6622,,0.0015420000000005984,0.7220725309828646,0.8159185657284526,non_fall
4.436774,-0.4747,0.4889,-0.2388,-0.9108,0.1896,0.6922,8.4912,19.2394,-39.6622,,0.0007469999999996091,0.7220725309828646,0.8632802472133081,non_fall
4.456868,-0.4747,0.4889,-0.2388,-0.9108,0.1896,0.6922,9.5038,20.618,-38.6618,,0.02009400000000028,0.7220725309828646,0.9081874440807164,non_fall
4.476219,-0.4747,0.4889,-0.2388,-0.7064,0.0991,0.7479,9.5038,20.618,-38.6618,,0.01935100000000034,0.7220725309828646,0.9482403465176499,non_fall
4.487657,-0.5377,-0.9794,0.0647,-0.7064,0.0991,0.7479,9.5038,20.618,-38.6618,,0.011437999999999171,1.1191656445763514,0.9808340154819947,non_fall
4.500596,-0.5377,-0.9794,0.0647,-0.7064,0.0991,0.7479,9.5038,20.618,-38.6618,,0.012939000000000256,1.1191656445763514,1.0034094820701964,non_fall
4.504066,-0.5377,-0.9794,0.0647,-0.7064,0.0991,0.7479,9.5038,20.618,-38.6618,,0.003470000000000084,1.1191656445763514,1.013742071812911,non_fall
4.506473,-0.5377,-0.9794,0.0647,-0.7064,0.0991,0.7479,9.5038,20.618,-38.6618,,0.002406999999999826,1.1191656445763514,1.0102209725023001,non_fall
4.508624,-0.5377,-0.9794,0.0647,-0.7064,0.0991,0.7479,9.5038,20.618,-38.6618,,0.002151000000000458,1.1191656445763514,0.9920746414212134,non_fall
4.515801,-0.5377,-0.9794,0.0647,-0.7064,0.0991,0.7479,10.7482,22.0332,-37.515,,0.007176999999999545,1.1191656445763514,0.9595068853595495,non_fall
4.546146,-0.5377,-0.9794,0.0647,-0.6519,0.0999,0.79,10.7482,22.0332,-37.515,,0.03034500000000051,1.1191656445763514,0.9137237213297102,non_fall
4.556005,-0.3959,-0.4011,-0.3072,-0.6519,0.0999,0.79,10.7482,22.0332,-37.515,,0.009858999999999618,0.64186436261877,0.8568485514304017,non_fall
4.566984,-0.3959,-0.4011,-0.3072,-0.6519,0.0999,0.79,10.7482,22.0332,-37.515,,0.01097899999999985,0.64186436261877,0.7917412753230144,non_fall
4.569731,-0.3959,-0.4011,-0.3072,-0.6519,0.0999,0.79,10.7482,22.0332,-37.515,,0.002747000000000277,0.64186436261877,0.7217520264312381,non_fall
4.571876,-0.3959,-0.4011,-0.3072,-0.6519,0.0999,0.79,10.7482,22.0332,-37.515,,0.0021449999999996194,0.64186436261877,0.6504464534774581,non_fall
4.576823,-0.3959,-0.4011,-0.3072,-0.6519,0.0999,0.79,12.0902,23.424,-36.2462,,0.004947000000000479,0.64186436261877,0.5813345902798945,non_fall
4.616078,-0.3959,-0.4011,-0.3072,-0.6999,0.1898,0.8497,12.0902,23.424,-36.2462,,0.03925499999999982,0.64186436261877,0.5176242884677771,non_fall
4.625575,-0.0164,-0.0517,-0.3186,-0.6999,0.1898,0.8497,12.0902,23.424,-36.2462,,0.009497000000000533,0.32318386407740096,0.46201102130256017,non_fall
4.634018,-0.0164,-0.0517,-0.3186,-0.6999,0.1898,0.8497,13.5664,24.705,-34.8432,,0.008442999999999756,0.32318386407740096,0.41651295700749186,non_fall
4.636953,-0.0164,-0.0517,-0.3186,-0.6999,0.1898,0.8497,13.5664,24.705,-34.8432,,0.00293499999999991,0.32318386407740096,0.38236154671830774,non_fall
4.638724,-0.0164,-0.0517,-0.3186,-0.6999,0.1898,0.8497,13.5664,24.705,-34.8432,,0.001770999999999745,0.32318386407740096,0.35995796277675485,non_fall
4.639886,-0.0164,-0.0517,-0.3186,-0.6999,0.1898,0.8497,13.5664,24.705,-34.8432,,0.0011619999999998853,0.32318386407740096,0.3489009402182833,non_fall
4.685639,-0.0164,-0.0517,-0.3186,-0.7413,0.2447,0.7727,13.5664,24.705,-34.8432,,0.04575300000000038,0.32318386407740096,0.3480830925460392,non_fall
4.695344,-0.0164,-0.0517,-0.3186,-0.7413,0.2447,0.7727,15.1524,25.8518,-33.306,,0.009705000000000297,0.32318386407740096,0.35584412883354777,non_fall
4.697815,-0.0769,0.0269,-0.4667,-0.7413,0.2447,0.7727,15.1524,25.8518,-33.306,,0.00247099999999989,0.4737574379363347,0.3701627041592946,non_fall
4.701106,-0.0769,0.0269,-0.4667,-0.7413,0.2447,0.7727,15.1524,25.8518,-33.306,,0.003290999999999933,0.4737574379363347,0.3888642049697384,non_fall
4.703802,-0.0769,0.0269,-0.4667,-0.7413,0.2447,0.7727,15.1524,25.8518,-33.306,,0.0026959999999993656,0.4737574379363347,0.4098200863667353,non_fall
4.705632,-0.0769,0.0269,-0.4667,-0.7413,0.2447,0.7727,15.1524,25.8518,-33.306,,0.0018299999999999983,0.4737574379363347,0.43111663888705276,non_fall
4.707148,-0.0769,0.0269,-0.4667,-0.7413,0.2447,0.7727,15.1524,25.8518,-33.306,,0.001516000000000517,0.4737574379363347,0.45117753475152833,non_fall
4.756001,-0.0769,0.0269,-0.4667,-0.7413,0.2447,0.7727,16.7506,26.7668,-31.72,,0.04885300000000026,0.4737574379363347,0.46883334737659255,non_fall
4.759436,-0.0769,0.0269,-0.4667,-0.5878,0.1981,0.7346,16.7506,26.7668,-31.72,,0.003434999999999633,0.4737574379363347,0.48333970083526134,non_fall
4.765005,-0.364,-0.1354,0.2862,-0.5878,0.1981,0.7346,16.7506,26.7668,-31.72,,0.005569000000000379,0.48243092769846335,0.494351985904459,non_fall
4.767821,-0.364,-0.1354,0.2862,-0.5878,0.1981,0.7346,16.7506,26.7668,-31.72,,0.0028159999999992635,0.48243092769846335,0.5018682352373516,non_fall
4.768834,-0.364,-0.1354,0.2862,-0.5878,0.1981,0.7346,16.7506,26.7668,-31.72,,0.0010130000000003747,0.48243092769846335,0.506153085416229,non_fall
4.769973,-0.364,-0.1354,0.2862,-0.5878,0.1981,0.7346,16.7506,26.7668,-31.72,,0.0011390000000002232,0.48243092769846335,0.5076553078640306,non_fall
4.814796,-0.364,-0.1354,0.2862,-0.5878,0.1981,0.7346,18.3488,27.4866,-30.2438,,0.04482300000000006,0.48243092769846335,0.5069296922624488,non_fall
4.824812,-0.364,-0.1354,0.2862,-0.5161,0.0746,0.7747,18.3488,27.4866,-30.2438,,0.010015999999999359,0.48243092769846335,0.5045715163671793,non_fall
4.834816,-0.364,-0.1354,0.2862,-0.5161,0.0746,0.7747,18.3488,27.4866,-30.2438,,0.010004000000000346,0.48243092769846335,0.5011687399764104,non_fall
4.837724,-0.364,-0.1354,0.2862,-0.5161,0.0746,0.7747,18.3488,27.4866,-30.2438,,0.0029079999999996886,0.48243092769846335,0.4972737084139139,non_fall
4.839846,-0.364,-0.1354,0.2862,-0.5161,0.0746,0.7747,18.3488,27.4866,-30.2438,,0.0021219999999999573,0.48243092769846335,0.4933928249722382,non_fall
4.841611,-0.1755,-0.3101,0.3822,-0.5161,0.0746,0.7747,18.3488,27.4866,-30.2438,,0.0017650000000006827,0.522531434461124,0.4899896076856776,non_fall
4.874405,-0.1755,-0.3101,0.3822,-0.5161,0.0746,0.7747,19.9836,27.9258,-28.7676,,0.03279399999999999,0.522531434461124,0.48749409924098297,non_fall
4.894499,-0.1755,-0.3101,0.3822,-0.524,0.0021,0.7918,19.9836,27.9258,-28.7676,,0.02009399999999939,0.522531434461124,0.4863102830723086,non_fall
4.90103,-0.1755,-0.3101,0.3822,-0.524,0.0021,0.7918,19.9836,27.9258,-28.7676,,0.006531000000000731,0.522531434461124,0.4868136155615074,non_fall
4.903601,-0.1755,-0.3101,0.3822,-0.524,0.0021,0.7918,19.9836,27.9258,-28.7676,,0.002570999999999657,0.522531434461124,0.48933326826294454,non_fall
4.906909,-0.1755,-0.3101,0.3822,-0.524,0.0021,0.7918,19.9836,27.9258,-28.7676,,0.0033079999999996446,0.522531434461124,0.4941177384694313,non_fall
4.90968,-0.1755,-0.3101,0.3822,-0.524,0.0021,0.7918,19.9836,27.9258,-28.7676,,0.002771000000000079,0.522531434461124,0.5012873073891493,non_fall
4.911663,-0.3591,-0.1703,0.2223,-0.524,0.0021,0.7918,19.9836,27.9258,-28.7676,,0.001983000000000068,0.4553813676469427,0.5107816710320328,non_fall
4.933863,-0.3591,-0.1703,0.2223,-0.524,0.0021,0.7918,21.5574,28.1454,-27.389,,0.022199999999999775,0.4553813676469427,0.5223152321373614,non_fall
4.964524,-0.3591,-0.1703,0.2223,-0.5558,-0.1087,0.6324,21.5574,28.1454,-27.389,,0.03066100000000027,0.4553813676469427,0.5353549256584703,non_fall
4.968841,-0.3591,-0.1703,0.2223,-0.5558,-0.1087,0.6324,21.5574,28.1454,-27.389,,0.004317000000000348,0.4553813676469427,0.5491346660026369,non_fall
4.970992,-0.3591,-0.1703,0.2223,-0.5558,-0.1087,0.6324,21.5574,28.1454,-27.389,,0.00215099999999957,0.4553813676469427,0.56271571061561,non_fall
4.972543,-0.3591,-0.1703,0.2223,-0.5558,-0.1087,0.6324,21.5574,28.1454,-27.389,,0.00155100000000008,0.4553813676469427,0.5750937031917501,non_fall
4.97383,-0.5714,0.4107,-0.1984,-0.5558,-0.1087,0.6324,21.5574,28.1454,-27.389,,0.0012870000000004822,0.7311190121997923,0.5853419281861304,non_fall
4.993828,-0.5714,0.4107,-0.1984,-0.5558,-0.1087,0.6324,23.0702,28.2674,-26.108,,0.019997999999999294,0.7311190121997923,0.5927681512604653,non_fall
5.034749,-0.5714,0.4107,-0.1984,-0.5823,-0.1791,0.1237,23.0702,28.2674,-26.108,,0.040920999999999985,0.7311190121997923,0.5970527749963769,non_fall
5.03841,-0.5714,0.4107,-0.1984,-0.5823,-0.1791,0.1237,23.0702,28.2674,-26.108,,0.0036610000000001364,0.7311190121997923,0.598333493787864,non_fall
5.040844,-0.5714,0.4107,-0.1984,-0.5823,-0.1791,0.1237,23.0702,28.2674,-26.108,,0.0024340000000000472,0.7311190121997923,0.597208656475065,non_fall
5.04302,-0.5714,0.4107,-0.1984,-0.5823,-0.1791,0.1237,23.0702,28.2674,-26.108,,0.0021760000000004,0.7311190121997923,0.5946463056818979,non_fall
5.045398,-0.5714,0.4107,-0.1984,-0.5823,-0.1791,0.1237,23.0702,28.2674,-26.108,,0.002377999999999325,0.7311190121997923,0.5918043668071301,non_fall
5.04783,0.0578,0.1034,0.3502,-0.5823,-0.1791,0.1237,23.0702,28.2674,-26.108,,0.002432000000000656,0.36969235859022026,0.589786743228905,non_fall
5.054384,0.0578,0.1034,0.3502,-0.5823,-0.1791,0.1237,24.339,28.426,-24.9246,,0.006553999999999505,0.36969235859022026,0.5893779040401547,non_fall
5.101231,0.0578,0.1034,0.3502,-0.5823,-0.1791,0.1237,24.339,28.426,-24.9246,,0.04684700000000053,0.36969235859022026,0.5908108473769559,non_fall
5.104709,0.0578,0.1034,0.3502,-0.5823,-0.1791,0.1237,24.339,28.426,-24.9246,,0.003477999999999426,0.36969235859022026,0.5936243855033625,non_fall
5.106957,0.0578,0.1034,0.3502,-0.5823,-0.1791,0.1237,24.339,28.426,-24.9246,,0.002248000000000694,0.36969235859022026,0.5966525768943978,non_fall
5.109399,0.0578,0.1034,0.3502,-0.7996,-0.588,0.1265,24.339,28.426,-24.9246,,0.002441999999999389,0.36969235859022026,0.5981645421724895,non_fall
5.11544,-0.3392,-0.6575,0.2577,-0.7996,-0.588,0.1265,24.339,28.426,-24.9246,,0.006041000000000629,0.7834361365165637,0.5961426562973826,non_fall
5.124549,-0.3392,-0.6575,0.2577,-0.7996,-0.588,0.1265,25.3394,28.6212,-23.8998,,0.00910899999999959,0.7834361365165637,0.5886568555914395,non_fall
5.168567,-0.3392,-0.6575,0.2577,-0.7996,-0.588,0.1265,25.3394,28.6212,-23.8998,,0.044018000000000335,0.7834361365165637,0.5742687180734665,non_fall
5.1723,-0.3392,-0.6575,0.2577,-0.7996,-0.588,0.1265,25.3394,28.6212,-23.8998,,0.0037329999999995422,0.7834361365165637,0.5523881143506413,non_fall
5.174861,-0.3392,-0.6575,0.2577,-0.7996,-0.588,0.1265,25.3394,28.6212,-23.8998,,0.0025610000000000355,0.7834361365165637,0.5235113750412002,non_fall
5.177339,-0.3392,-0.6575,0.2577,-0.6748,-0.4101,0.0662,25.3394,28.6212,-23.8998,,0.0024779999999999802,0.7834361365165637,0.4892905138861487,non_fall
5.184746,-0.3392,-0.6575,0.2577,-0.6748,-0.4101,0.0662,26.0104,28.853,-23.0458,,0.007406999999999719,0.7834361365165637,0.452412387685666,non_fall
5.188183,-0.0073,0.015,0.1095,-0.6748,-0.4101,0.0662,26.0104,28.853,-23.0458,,0.0034370000000008005,0.11076344162222479,0.4163006216821532,non_fall
5.23402,-0.0073,0.015,0.1095,-0.6748,-0.4101,0.0662,26.0104,28.853,-23.0458,,0.045836999999999684,0.11076344162222479,0.3846882204610739,non_fall
5.237484,-0.0073,0.015,0.1095,-0.6748,-0.4101,0.0662,26.0104,28.853,-23.0458,,0.0034640000000001336,0.11076344162222479,0.3611377766014621,non_fall
5.240039,-0.0073,0.015,0.1095,-0.6748,-0.4101,0.0662,26.0104,28.853,-23.0458,,0.002555000000000085,0.11076344162222479,0.3485986662521396,non_fall
5.242239,-0.0073,0.015,0.1095,-0.6748,-0.4101,0.0662,26.0104,28.853,-23.0458,,0.0021999999999993136,0.11076344162222479,0.34908107776657,non_fall
5.244638,-0.0073,0.015,0.1095,-0.6748,-0.4101,0.0662,26.4618,29.1702,-22.2406,,0.002399000000000484,0.11076344162222479,0.36349987591261945,non_fall
5.247768,-0.0073,0.015,0.1095,-0.8938,-0.389,-0.0119,26.4618,29.1702,-22.2406,,0.003129999999999633,0.11076344162222479,0.3917067724295387,non_fall
5.25432,-0.7427,-0.3041,0.0013,-0.8938,-0.389,-0.0119,26.4618,29.1702,-22.2406,,0.006552000000000113,0.8025470640404836,0.43269361719558447,non_fall
5.301584,-0.7427,-0.3041,0.0013,-0.8938,-0.389,-0.0119,26.4618,29.1702,-22.2406,,0.047264000000000195,0.8025470640404836,0.48491652530368134,non_fall
5.304644,-0.7427,-0.3041,0.0013,-0.8938,-0.389,-0.0119,26.4618,29.1702,-22.2406,,0.0030599999999996186,0.8025470640404836,0.5466663760700795,non_fall
5.30636,-0.7427,-0.3041,0.0013,-0.8938,-0.389,-0.0119,26.4618,29.1702,-22.2406,,0.0017160000000000508,0.8025470640404836,0.6164050796243179,non_fall
5.308725,-0.7427,-0.3041,0.0013,-0.8938,-0.389,-0.0119,26.7424,29.5972,-21.2768,,0.0023650000000001725,0.8025470640404836,0.6930026247835593,non_fall
5.31485,-0.7427,-0.3041,0.0013,-1.3488,-0.3577,-0.0121,26.7424,29.5972,-21.2768,,0.006124999999999936,0.8025470640404836,0.7758401866907225,non_fall
5.322535,-0.5599,-0.7332,0.0941,-1.3488,-0.3577,-0.0121,26.7424,29.5972,-21.2768,,0.007685000000000386,0.9273214437291957,0.8647771434267713,non_fall
5.364786,-0.5599,-0.7332,0.0941,-1.3488,-0.3577,-0.0121,26.718,30.2072,-20.2276,,0.04225099999999937,0.9273214437291957,0.9600061478428625,non_fall
5.369441,-0.5599,-0.7332,0.0941,-1.3488,-0.3577,-0.0121,26.718,30.2072,-20.2276,,0.00465500000000052,0.9273214437291957,1.061838025752275,non_fall
5.372017,-0.5599,-0.7332,0.0941,-1.3488,-0.3577,-0.0121,26.718,30.2072,-20.2276,,0.0025759999999994676,0.9273214437291957,1.1704678451404245,non_fall
5.374605,-0.5599,-0.7332,0.0941,-1.3488,-0.3577,-0.0121,26.718,30.2072,-20.2276,,0.0025880000000002568,0.9273214437291957,1.2857750837995006,non_fall
5.384963,-0.5599,-0.7332,0.0941,-1.0485,-0.8123,0.1494,26.718,30.2072,-20.2276,,0.01035800000000009,0.9273214437291957,1.4072024907823126,non_fall
5.393562,-0.5581,-1.6618,0.9612,-1.0485,-0.8123,0.1494,26.718,30.2072,-20.2276,,0.008599000000000245,1.9992399280726663,1.5337376688300617,non_fall
5.422634,-0.5581,-1.6618,0.9612,-1.0485,-0.8123,0.1494,26.5106,30.927,-19.2516,,0.02907200000000021,1.9992399280726663,1.6639904989719776,non_fall
5.434581,-0.5581,-1.6618,0.9612,-1.0485,-0.8123,0.1494,26.5106,30.927,-19.2516,,0.011946999999999264,1.9992399280726663,1.7963290568597925,non_fall
5.437421,-0.5581,-1.6618,0.9612,-1.0485,-0.8123,0.1494,26.5106,30.927,-19.2516,,0.0028399999999999537,1.9992399280726663,1.9290227871879755,non_fall
5.43982,-0.5581,-1.6618,0.9612,-1.0485,-0.8123,0.1494,26.5106,30.927,-19.2516,,0.002399000000000484,1.9992399280726663,2.0603522436543877,non_fall
5.442396,-0.5581,-1.6618,0.9612,-1.0485,-0.8123,0.1494,26.5106,30.927,-19.2516,,0.0025759999999994676,1.9992399280726663,2.1886706342498594,non_fall
5.455585,-0.5581,-1.6618,0.9612,-0.0908,-0.8991,0.0735,26.5106,30.927,-19.2516,,0.013189000000000561,1.9992399280726663,2.3124263937837433,non_fall
5.463417,2.0125,-0.5093,1.7244,-0.0908,-0.8991,0.0735,26.5106,30.927,-19.2516,,0.007831999999999617,2.6987215677057166,2.4301662026166126,non_fall
5.484067,2.0125,-0.5093,1.7244,-0.0908,-0.8991,0.0735,26.1324,31.659,-18.4464,,0.020649999999999835,2.6987215677057166,2.540532991146987,non_fall
5.502379,2.0125,-0.5093,1.7244,-0.0908,-0.8991,0.0735,26.1324,31.659,-18.4464,,0.018312000000000772,2.6987215677057166,2.6422612788666435,non_fall
5.505623,2.0125,-0.5093,1.7244,-0.0908,-0.8991,0.0735,26.1324,31.659,-18.4464,,0.0032439999999995806,2.6987215677057166,2.7341644731362638,non_fall
5.507894,2.0125,-0.5093,1.7244,-0.0908,-0.8991,0.0735,26.1324,31.659,-18.4464,,0.002271000000000356,2.6987215677057166,2.815111921840127,non_fall
5.523939,2.0125,-0.5093,1.7244,0.459,-0.7647,-0.2746,26.1324,31.659,-18.4464,,0.016045000000000087,2.6987215677057166,2.8840030710284004,non_fall
5.538543,2.9084,0.8106,0.0783,0.459,-0.7647,-0.2746,26.1324,31.659,-18.4464,,0.014603999999999395,3.0202638643006012,2.9397523232114344,non_fall
5.544827,2.9084,0.8106,0.0783,0.459,-0.7647,-0.2746,25.6322,32.3422,-18.0072,,0.006283999999999956,3.0202638643006012,2.981295875179874,non_fall
5.56653,2.9084,0.8106,0.0783,0.459,-0.7647,-0.2746,25.6322,32.3422,-18.0072,,0.021703000000000472,3.0202638643006012,3.0076233966770407,non_fall
5.56876,2.9084,0.8106,0.0783,0.459,-0.7647,-0.2746,25.6322,32.3422,-18.0072,,0.0022299999999999542,3.0202638643006012,3.0178293615852265,non_fall
5.570296,2.9084,0.8106,0.0783,0.459,-0.7647,-0.2746,25.6322,32.3422,-18.0072,,0.0015359999999997598,3.0202638643006012,3.0111756265186127,non_fall
5.593434,2.9084,0.8106,0.0783,0.1109,-1.0566,-0.2149,25.6322,32.3422,-18.0072,,0.023138000000000325,3.0202638643006012,2.9871579675610316,non_fall
5.603782,2.9084,0.8106,0.0783,0.1109,-1.0566,-0.2149,24.9978,32.9888,-17.812,,0.01034799999999958,3.0202638643006012,2.9455718161474187,non_fall
5.60747,1.0064,-0.4289,-2.459,0.1109,-1.0566,-0.2149,24.9978,32.9888,-17.812,,0.0036880000000003577,2.6913708718792364,2.8865748593049982,non_fall
5.634695,1.0064,-0.4289,-2.459,0.1109,-1.0566,-0.2149,24.9978,32.9888,-17.812,,0.02722499999999961,2.6913708718792364,2.8107463189951765,non_fall
5.637595,1.0064,-0.4289,-2.459,0.1109,-1.0566,-0.2149,24.9978,32.9888,-17.812,,0.0029000000000003467,2.6913708718792364,2.719143162179429,non_fall
5.639561,1.0064,-0.4289,-2.459,0.1109,-1.0566,-0.2149,24.9978,32.9888,-17.812,,0.001965999999999468,2.6913708718792364,2.613349487867743,non_fall
5.641378,1.0064,-0.4289,-2.459,0.1109,-1.0566,-0.2149,24.9978,32.9888,-17.812,,0.0018169999999999575,2.6913708718792364,2.495506744966342,non_fall
5.662469,1.0064,-0.4289,-2.459,0.1109,-1.0566,-0.2149,24.1072,33.672,-17.873,,0.021091000000000193,2.6913708718792364,2.3683042508238454,non_fall
5.665606,1.0064,-0.4289,-2.459,-0.3248,-1.4004,-0.3657,24.1072,33.672,-17.873,,0.0031370000000006115,2.6913708718792364,2.23490915662957,non_fall
5.674031,1.0469,0.3545,-1.1737,-0.3248,-1.4004,-0.3657,24.1072,33.672,-17.873,,0.008424999999999905,1.612216347144514,2.0988276519049185,non_fall
5.702207,1.0469,0.3545,-1.1737,-0.3248,-1.4004,-0.3657,24.1072,33.672,-17.873,,0.028175999999999313,1.612216347144514,1.963713508287106,non_fall
5.706207,1.0469,0.3545,-1.1737,-0.3248,-1.4004,-0.3657,24.1072,33.672,-17.873,,0.004000000000000448,1.612216347144514,1.8331652513622263,non_fall
5.70887,1.0469,0.3545,-1.1737,-0.3248,-1.4004,-0.3657,24.1072,33.672,-17.873,,0.002663000000000082,1.612216347144514,1.7105630034571748,non_fall
5.722694,1.0469,0.3545,-1.1737,-0.3248,-1.4004,-0.3657,22.8872,34.404,-18.056,,0.013823999999999614,1.612216347144514,1.5989821453227016,non_fall
5.731901,1.0469,0.3545,-1.1737,-0.3819,-0.8943,-0.7631,22.8872,34.404,-18.056,,0.009206999999999965,1.612216347144514,1.5011918503744761,non_fall
5.741238,1.2244,0.6698,-0.3208,-0.3819,-0.8943,-0.7631,22.8872,34.404,-18.056,,0.009337000000000373,1.4320265500332037,1.4197186820184113,non_fall
5.767626,1.2244,0.6698,-0.3208,-0.3819,-0.8943,-0.7631,22.8872,34.404,-18.056,,0.026387999999999856,1.4320265500332037,1.3569392436457095,non_fall
5.769492,1.2244,0.6698,-0.3208,-0.3819,-0.8943,-0.7631,22.8872,34.404,-18.056,,0.0018659999999997012,1.4320265500332037,1.3151620146786704,non_fall
5.770508,1.2244,0.6698,-0.3208,-0.3819,-0.8943,-0.7631,22.8872,34.404,-18.056,,0.001016000000000794,1.4320265500332037,1.2966627687360046,non_fall
5.780376,1.2244,0.6698,-0.3208,-0.3819,-0.8943,-0.7631,21.3134,35.1726,-18.483,,0.009867999999999988,1.4320265500332037,1.3036465670373005,non_fall
5.80159,1.2244,0.6698,-0.3208,0.0304,-0.7324,-0.4947,21.3134,35.1726,-18.483,,0.021213999999999622,1.4320265500332037,1.3381209781277583,non_fall
5.818826,0.3992,-0.4628,1.4445,0.0304,-0.7324,-0.4947,21.3134,35.1726,-18.483,,0.017235999999999585,1.5684784761035135,1.4016797918466557,non_fall
5.83447,0.3992,-0.4628,1.4445,0.0304,-0.7324,-0.4947,21.3134,35.1726,-18.483,,0.01564399999999999,1.5684784761035135,1.4952132905765432,non_fall
5.836436,0.3992,-0.4628,1.4445,0.0304,-0.7324,-0.4947,21.3134,35.1726,-18.483,,0.0019660000000003564,1.5684784761035135,1.6185787082189624,non_fall
5.837554,0.3992,-0.4628,1.4445,0.0304,-0.7324,-0.4947,21.3134,35.1726,-18.483,,0.0011179999999999524,1.5684784761035135,1.7702811855787675,non_fall
5.838697,0.3992,-0.4628,1.4445,0.0304,-0.7324,-0.4947,21.3134,35.1726,-18.483,,0.001142999999999894,1.5684784761035135,1.9472282790737612,non_fall
5.840062,0.3992,-0.4628,1.4445,0.0304,-0.7324,-0.4947,19.5444,35.868,-19.2516,,0.0013649999999998386,1.5684784761035135,2.144624601895486,non_fall
5.872664,0.3992,-0.4628,1.4445,0.7818,-0.2779,-0.0554,19.5444,35.868,-19.2516,,0.032602000000000686,1.5684784761035135,2.356061155266257,non_fall
5.882374,-0.5593,-0.0266,3.2352,0.7818,-0.2779,-0.0554,19.5444,35.868,-19.2516,,0.009710000000000107,3.28329759388332,2.5738218688992265,non_fall
5.902073,-0.5593,-0.0266,3.2352,0.7818,-0.2779,-0.0554,17.6778,36.4536,-20.3008,,0.019698999999999245,3.28329759388332,2.7893806573210695,non_fall
5.906186,-0.5593,-0.0266,3.2352,0.7818,-0.2779,-0.0554,17.6778,36.4536,-20.3008,,0.004113000000000255,3.28329759388332,2.9940125710084096,non_fall
5.908603,-0.5593,-0.0266,3.2352,0.7818,-0.2779,-0.0554,17.6778,36.4536,-20.3008,,0.0024170000000003355,3.28329759388332,3.1794177986000873,non_fall
5.911388,-0.5593,-0.0266,3.2352,0.7818,-0.2779,-0.0554,17.6778,36.4536,-20.3008,,0.0027849999999993713,3.28329759388332,3.3382701918861075,non_fall
5.942668,-0.5593,-0.0266,3.2352,0.5947,-0.0687,0.2277,17.6778,36.4536,-20.3008,,0.03128000000000064,3.28329759388332,3.464639346044494,non_fall
5.950814,-2.5496,-0.1421,2.6082,0.5947,-0.0687,0.2277,17.6778,36.4536,-20.3008,,0.008145999999999987,3.6501177802914797,3.554271531100951,non_fall
5.962289,-2.5496,-0.1421,2.6082,0.5947,-0.0687,0.2277,15.921,36.9172,-21.4232,,0.011474999999999902,3.6501177802914797,3.6047345700719373,non_fall
5.966301,-2.5496,-0.1421,2.6082,0.5947,-0.0687,0.2277,15.921,36.9172,-21.4232,,0.0040119999999994604,3.6501177802914797,3.6154361096036105,non_fall
5.968266,-2.5496,-0.1421,2.6082,0.5947,-0.0687,0.2277,15.921,36.9172,-21.4232,,0.0019650000000002166,3.6501177802914797,3.5875229803259336,non_fall
5.969896,-2.5496,-0.1421,2.6082,0.5947,-0.0687,0.2277,15.921,36.9172,-21.4232,,0.0016300000000004644,3.6501177802914797,3.523669500365809,non_fall
6.012472,-2.5496,-0.1421,2.6082,0.22,-0.2856,0.5381,15.921,36.9172,-21.4232,,0.0425759999999995,3.6501177802914797,3.4277671549311455,non_fall
6.022516,-2.5496,-0.1421,2.6082,0.22,-0.2856,0.5381,14.4326,37.2466,-22.2528,,0.010044000000000608,3.6501177802914797,3.3045367883352146,non_fall
6.025563,-2.2224,0.6979,-0.9886,0.22,-0.2856,0.5381,14.4326,37.2466,-22.2528,,0.003046999999999578,2.5305051136087435,3.159097867547994,non_fall
6.034648,-2.2224,0.6979,-0.9886,0.22,-0.2856,0.5381,14.4326,37.2466,-22.2528,,0.009084999999999788,2.5305051136087435,2.9965466611018896,non_fall
6.03725,-2.2224,0.6979,-0.9886,0.22,-0.2856,0.5381,14.4326,37.2466,-22.2528,,0.0026020000000004373,2.5305051136087435,2.821607935491027,non_fall
6.039212,-2.2224,0.6979,-0.9886,0.22,-0.2856,0.5381,14.4326,37.2466,-22.2528,,0.0019619999999997972,2.5305051136087435,2.6384191068646587,non_fall
6.04125,-2.2224,0.6979,-0.9886,0.22,-0.2856,0.5381,14.4326,37.2466,-22.2528,,0.0020379999999997622,2.5305051136087435,2.450476022320944,non_fall
6.081698,-2.2224,0.6979,-0.9886,0.22,-0.2856,0.5381,13.2248,37.4418,-23.0092,,0.040448000000000484,2.5305051136087435,2.2607271251058934,non_fall
6.085151,-2.2224,0.6979,-0.9886,0.281,-0.2768,0.8004,13.2248,37.4418,-23.0092,,0.0034529999999994843,2.5305051136087435,2.0717673732109985,non_fall
6.091929,-1.1013,-0.0561,-1.1412,0.281,-0.2768,0.8004,13.2248,37.4418,-23.0092,,0.006778000000000617,1.586929847220727,1.8860684041376312,non_fall
6.102593,-1.1013,-0.0561,-1.1412,0.281,-0.2768,0.8004,13.2248,37.4418,-23.0092,,0.01066399999999934,1.586929847220727,1.7061885360137463,non_fall
6.105403,-1.1013,-0.0561,-1.1412,0.281,-0.2768,0.8004,13.2248,37.4418,-23.0092,,0.0028100000000002012,1.586929847220727,1.534925492120025,non_fall
6.107675,-1.1013,-0.0561,-1.1412,0.281,-0.2768,0.8004,13.2248,37.4418,-23.0092,,0.002272000000000496,1.586929847220727,1.3753911242053452,non_fall
6.142413,-1.1013,-0.0561,-1.1412,0.281,-0.2768,0.8004,12.5416,37.4418,-23.7412,,0.034737999999999936,1.586929847220727,1.2309928997576587,non_fall
6.151172,-1.1013,-0.0561,-1.1412,0.532,0.341,0.7855,12.5416,37.4418,-23.7412,,0.008758999999999517,1.586929847220727,1.1053081386135037,non_fall
6.163767,0.1616,0.1256,-0.6353,0.532,0.341,0.7855,12.5416,37.4418,-23.7412,,0.012595000000000134,0.6674548748791935,1.0018471305325667,non_fall
6.167661,0.1616,0.1256,-0.6353,0.532,0.341,0.7855,12.5416,37.4418,-23.7412,,0.003893999999999842,0.6674548748791935,0.9237256600773297,non_fall
6.169765,0.1616,0.1256,-0.6353,0.532,0.341,0.7855,12.5416,37.4418,-23.7412,,0.002104000000000106,0.6674548748791935,0.8732971917244835,non_fall
6.171498,0.1616,0.1256,-0.6353,0.532,0.341,0.7855,12.5416,37.4418,-23.7412,,0.0017329999999997625,0.6674548748791935,0.851813226439618,non_fall
6.201787,0.1616,0.1256,-0.6353,0.532,0.341,0.7855,12.4684,37.1978,-24.5708,,0.030289000000000676,0.6674548748791935,0.8591766433801937,non_fall
6.221274,0.1616,0.1256,-0.6353,0.5926,0.2284,0.8638,12.4684,37.1978,-24.5708,,0.01948699999999981,0.6674548748791935,0.8938309247506044,non_fall
6.233194,-0.6757,0.9098,-0.4791,0.5926,0.2284,0.8638,12.4684,37.1978,-24.5708,,0.01191999999999993,1.2303834117867487,0.9527991037944104,non_fall
6.237329,-0.6757,0.9098,-0.4791,0.5926,0.2284,0.8638,12.4684,37.1978,-24.5708,,0.004134999999999778,1.2303834117867487,1.0318587422541534,non_fall
6.238892,-0.6757,0.9098,-0.4791,0.5926,0.2284,0.8638,12.4684,37.1978,-24.5708,,0.001562999999999981,1.2303834117867487,1.1258192969161886,non_fall
6.241055,-0.6757,0.9098,-0.4791,0.5926,0.2284,0.8638,12.4684,37.1978,-24.5708,,0.002163000000000359,1.2303834117867487,1.2288615832366183,non_fall
6.242671,-0.6757,0.9098,-0.4791,0.5926,0.2284,0.8638,12.4684,37.1978,-24.5708,,0.0016159999999993957,1.2303834117867487,1.3349068044719583,non_fall
6.260461,-0.6757,0.9098,-0.4791,0.5926,0.2284,0.8638,13.054,36.5146,-25.498,,0.01779000000000064,1.2303834117867487,1.4379975240223206,non_fall
6.291402,-0.6757,0.9098,-0.4791,0.2449,0.4961,0.6272,13.054,36.5146,-25.498,,0.03094099999999944,1.2303834117867487,1.5326839829601533,non_fall
6.300674,-0.121,1.7863,-0.4839,0.2449,0.4961,0.6272,13.054,36.5146,-25.498,,0.009272000000000169,1.8546341687783066,1.6144089774497354,non_fall
6.303055,-0.121,1.7863,-0.4839,0.2449,0.4961,0.6272,13.054,36.5146,-25.498,,0.0023809999999997444,1.8546341687783066,1.6798729011149482,non_fall
6.305258,-0.121,1.7863,-0.4839,0.2449,0.4961,0.6272,13.054,36.5146,-25.498,,0.002203000000000621,1.8546341687783066,1.7273446556933367,non_fall
6.306806,-0.121,1.7863,-0.4839,0.2449,0.4961,0.6272,13.054,36.5146,-25.498,,0.0015479999999996608,1.8546341687783066,1.7568749651017936,non_fall
6.320612,-0.121,1.7863,-0.4839,0.2449,0.4961,0.6272,14.1886,35.6972,-26.2666,,0.013805999999999763,1.8546341687783066,1.7703728646704522,non_fall
6.360118,-0.121,1.7863,-0.4839,0.6631,1.0177,0.8686,14.1886,35.6972,-26.2666,,0.03950600000000026,1.8546341687783066,1.771520955408029,non_fall
6.367656,-0.121,1.7863,-0.4839,0.6631,1.0177,0.8686,14.1886,35.6972,-26.2666,,0.007538000000000267,1.8546341687783066,1.7655228463506463,non_fall
6.369539,-0.121,1.7863,-0.4839,0.6631,1.0177,0.8686,14.1886,35.6972,-26.2666,,0.001882999999999413,1.8546341687783066,1.7586923103499617,non_fall
6.371354,-0.121,1.7863,-0.4839,0.6631,1.0177,0.8686,14.1886,35.6972,-26.2666,,0.0018150000000005662,1.8546341687783066,1.7579076502630968,non_fall
6.376919,1.528,0.3113,-0.8606,0.6631,1.0177,0.8686,14.1886,35.6972,-26.2666,,0.00556499999999982,1.7811019201606628,1.7699678006053545,non_fall
6.384073,1.528,0.3113,-0.8606,0.6631,1.0177,0.8686,15.8356,34.7578,-26.84,,0.007153999999999883,1.7811019201606628,1.8008993670875764,non_fall
6.430867,1.528,0.3113,-0.8606,1.0575,0.4549,1.9205,15.8356,34.7578,-26.84,,0.046794000000000224,1.7811019201606628,1.8552753416665828,non_fall
6.434814,1.528,0.3113,-0.8606,1.0575,0.4549,1.9205,15.8356,34.7578,-26.84,,0.003947000000000145,1.7811019201606628,1.9356145885855396,non_fall
6.436718,1.528,0.3113,-0.8606,1.0575,0.4549,1.9205,15.8356,34.7578,-26.84,,0.0019039999999996837,1.7811019201606628,2.041934035643917,non_fall
6.438224,1.528,0.3113,-0.8606,1.0575,0.4549,1.9205,15.8356,34.7578,-26.84,,0.0015060000000000073,1.7811019201606628,2.171520871514799,non_fall
6.440075,1.528,0.3113,-0.8606,1.0575,0.4549,1.9205,15.8356,34.7578,-26.84,,0.001851000000000269,1.7811019201606628,2.3189779944665236,non_fall
6.441717,1.528,0.3113,-0.8606,1.0575,0.4549,1.9205,17.9096,33.4524,-27.267,,0.0016419999999994772,1.7811019201606628,2.4765698913968563,non_fall
6.443552,1.1717,-2.6934,-1.4247,1.0575,0.4549,1.9205,17.9096,33.4524,-27.267,,0.0018350000000006972,3.264514441689606,2.6348557873059852,non_fall
6.499339,1.1717,-2.6934,-1.4247,1.0575,0.4549,1.9205,20.008,31.842,-27.9746,,0.05578699999999959,3.264514441689606,2.7835452261369644,non_fall
6.501783,1.1717,-2.6934,-1.4247,0.6362,-0.5953,0.7844,20.008,31.842,-27.9746,,0.0024439999999996687,3.264514441689606,2.9124628075107455,non_fall
6.504237,1.1717,-2.6934,-1.4247,0.6362,-0.5953,0.7844,20.008,31.842,-27.9746,,0.0024540000000001783,3.264514441689606,3.012485973189443,non_fall
6.505922,1.1717,-2.6934,-1.4247,0.6362,-0.5953,0.7844,20.008,31.842,-27.9746,,0.0016850000000001586,3.264514441689606,3.0763343293993763,non_fall
6.507618,1.1717,-2.6934,-1.4247,0.6362,-0.5953,0.7844,20.008,31.842,-27.9746,,0.0016959999999999198,3.264514441689606,3.0991305865605123,non_fall
6.509204,-1.811,-1.606,-1.5906,0.6362,-0.5953,0.7844,20.008,31.842,-27.9746,,0.0015860000000005314,2.8963710673876024,3.078700717155305,non_fall
6.559743,-1.811,-1.606,-1.5906,0.6362,-0.5953,0.7844,21.8746,30.1462,-28.7798,,0.05053899999999967,2.8963710673876024,3.0156200005348994,non_fall
6.567283,-1.811,-1.606,-1.5906,0.6362,-0.5953,0.7844,21.8746,30.1462,-28.7798,,0.007539999999999658,2.8963710673876024,2.913037082914195,non_fall
6.569289,-1.811,-1.606,-1.5906,0.6362,-0.5953,0.7844,21.8746,30.1462,-28.7798,,0.0020060000000006184,2.8963710673876024,2.776318923568735,non_fall
6.571456,-1.811,-1.606,-1.5906,0.6362,-0.5953,0.7844,21.8746,30.1462,-28.7798,,0.00216700000000003,2.8963710673876024,2.6125584955795857,non_fall
6.57339,-1.811,-1.606,-1.5906,0.1249,-0.9015,-0.1013,21.8746,30.1462,-28.7798,,0.0019339999999994362,2.8963710673876024,2.429983129401517,non_fall
6.581824,-1.3655,-0.3526,-0.676,0.1249,-0.9015,-0.1013,21.8746,30.1462,-28.7798,,0.008434000000000275,1.563935104152343,2.2373049609057145,non_fall
6.618814,-1.3655,-0.3526,-0.676,0.1249,-0.9015,-0.1013,23.18,28.6212,-29.6338,,0.0369900000000003,1.563935104152343,2.043069675969988,non_fall
6.633794,-1.3655,-0.3526,-0.676,0.1249,-0.9015,-0.1013,23.18,28.6212,-29.6338,,0.01497999999999955,1.563935104152343,1.855075725063497,non_fall
6.637032,-1.3655,-0.3526,-0.676,0.1249,-0.9015,-0.1013,23.18,28.6212,-29.6338,,0.00323799999999963,1.563935104152343,1.6799350902805577,non_fall
6.639549,-1.3655,-0.3526,-0.676,0.1249,-0.9015,-0.1013,23.18,28.6212,-29.6338,,0.0025170000000001025,1.563935104152343,1.5228194144769929,non_fall
6.641819,-1.3655,-0.3526,-0.676,0.1249,-0.9015,-0.1013,23.18,28.6212,-29.6338,,0.0022700000000002163,1.563935104152343,1.387392774654607,non_fall
6.644461,-1.3655,-0.3526,-0.676,-0.3214,-0.6679,-0.3824,23.18,28.6212,-29.6338,,0.002641999999999811,1.563935104152343,1.2758950532798972,non_fall
6.65443,0.1401,-0.8727,-0.7178,-0.3214,-0.6679,-0.3824,23.18,28.6212,-29.6338,,0.009968999999999895,1.138626426884604,1.1893209621406107,non_fall
6.678755,0.1401,-0.8727,-0.7178,-0.3214,-0.6679,-0.3824,23.9974,27.3524,-30.4878,,0.024325000000000152,1.138626426884604,1.127640501010269,non_fall
6.702199,0.1401,-0.8727,-0.7178,-0.3214,-0.6679,-0.3824,23.9974,27.3524,-30.4878,,0.023444000000000464,1.138626426884604,1.0900199586766988,non_fall
6.70587,0.1401,-0.8727,-0.7178,-0.3214,-0.6679,-0.3824,23.9974,27.3524,-30.4878,,0.003670999999999758,1.138626426884604,1.0750184182492273,non_fall
6.708498,0.1401,-0.8727,-0.7178,-0.3214,-0.6679,-0.3824,23.9974,27.3524,-30.4878,,0.0026279999999996306,1.138626426884604,1.080746252275617,non_fall
6.711034,0.1401,-0.8727,-0.7178,-0.2491,-0.6746,-0.2912,23.9974,27.3524,-30.4878,,0.0025360000000000937,1.138626426884604,1.104979166449219,non_fall
6.720927,0.0466,-1.0231,0.6686,-0.2491,-0.6746,-0.2912,23.9974,27.3524,-30.4878,,0.00989299999999993,1.223082634166637,1.1452273786831126,non_fall
6.738251,0.0466,-1.0231,0.6686,-0.2491,-0.6746,-0.2912,24.2048,26.4374,-31.3418,,0.01732400000000034,1.223082634166637,1.1987664497143247,non_fall
6.769787,0.0466,-1.0231,0.6686,-0.2491,-0.6746,-0.2912,24.2048,26.4374,-31.3418,,0.03153600000000001,1.223082634166637,1.2626437993434843,non_fall
6.772193,0.0466,-1.0231,0.6686,-0.2491,-0.6746,-0.2912,24.2048,26.4374,-31.3418,,0.002405999999999686,1.223082634166637,1.333681983133145,non_fall
6.773468,0.0466,-1.0231,0.6686,-0.2491,-0.6746,-0.2912,24.2048,26.4374,-31.3418,,0.0012750000000005812,1.223082634166637,1.4085047455181081,non_fall
6.774786,0.0466,-1.0231,0.6686,-0.2491,-0.6746,-0.2912,24.2048,26.4374,-31.3418,,0.0013179999999994862,1.223082634166637,1.4836121350011782,non_fall
6.777376,0.0466,-1.0231,0.6686,0.1229,-0.7341,-0.1372,24.2048,26.4374,-31.3418,,0.0025900000000005363,1.223082634166637,1.5555237493873098,non_fall
6.788923,-1.0888,-1.2672,0.9255,0.1229,-0.7341,-0.1372,24.2048,26.4374,-31.3418,,0.011546999999999308,1.9099297186022317,1.6209928890353102,non_fall
6.797201,-1.0888,-1.2672,0.9255,0.1229,-0.7341,-0.1372,23.8632,25.5468,-32.3666,,0.008278000000000674,1.9099297186022317,1.6772708937725134,non_fall
6.834619,-1.0888,-1.2672,0.9255,0.1229,-0.7341,-0.1372,23.8632,25.5468,-32.3666,,0.03741799999999973,1.9099297186022317,1.7223779339548173,non_fall
6.837998,-1.0888,-1.2672,0.9255,0.1229,-0.7341,-0.1372,23.8632,25.5468,-32.3666,,0.003378999999999799,1.9099297186022317,1.7553253740863968,non_fall
6.840547,-1.0888,-1.2672,0.9255,0.1229,-0.7341,-0.1372,23.8632,25.5468,-32.3666,,0.0025490000000001345,1.9099297186022317,1.776241856665655,non_fall
6.850158,-1.0888,-1.2672,0.9255,0.1826,-1.0579,-0.1862,23.8632,25.5468,-32.3666,,0.00961100000000048,1.9099297186022317,1.7863762283964764,non_fall
6.858619,-1.0888,-1.2672,0.9255,0.1826,-1.0579,-0.1862,22.7774,24.766,-33.5622,,0.008460999999999608,1.9099297186022317,1.787975908828992,non_fall
6.861908,-0.9512,-1.0665,0.6174,0.1826,-1.0579,-0.1862,22.7774,24.766,-33.5622,,0.0032889999999996533,1.5567229843488533,1.7840628894703257,non_fall
6.900749,-0.9512,-1.0665,0.6174,0.1826,-1.0579,-0.1862,22.7774,24.766,-33.5622,,0.03884100000000057,1.5567229843488533,1.7781487063433918,non_fall
6.904156,-0.9512,-1.0665,0.6174,0.1826,-1.0579,-0.1862,22.7774,24.766,-33.5622,,0.00340700000000016,1.5567229843488533,1.7739414752444613,non_fall
6.906347,-0.9512,-1.0665,0.6174,0.1826,-1.0579,-0.1862,22.7774,24.766,-33.5622,,0.002190999999999832,1.5567229843488533,1.775097929131718,non_fall
6.91359,-0.9512,-1.0665,0.6174,0.1826,-1.0579,-0.1862,20.8986,24.3512,-34.8676,,0.007242999999999888,1.5567229843488533,1.7850592725532408,non_fall
6.916792,-0.9512,-1.0665,0.6174,0.2858,-1.1012,-0.0449,20.8986,24.3512,-34.8676,,0.003201999999999927,1.5567229843488533,1.8069846386846862,non_fall
6.927881,-1.4991,1.6802,0.4372,0.2858,-1.1012,-0.0449,20.8986,24.3512,-34.8676,,0.011089000000000127,2.2937996185368936,1.8437657934830147,non_fall
6.967696,-1.4991,1.6802,0.4372,0.2858,-1.1012,-0.0449,20.8986,24.3512,-34.8676,,0.039814999999999934,2.2937996185368936,1.8980776703366908,non_fall
6.970738,-1.4991,1.6802,0.4372,0.2858,-1.1012,-0.0449,20.8986,24.3512,-34.8676,,0.003041999999999767,2.2937996185368936,1.972399874595584,non_fall
6.973309,-1.4991,1.6802,0.4372,0.2858,-1.1012,-0.0449,20.8986,24.3512,-34.8676,,0.002571000000000545,2.2937996185368936,2.0689446947344434,non_fall
6.975648,-1.4991,1.6802,0.4372,0.2858,-1.1012,-0.0449,20.8986,24.3512,-34.8676,,0.002338999999999203,2.2937996185368936,2.189451131191115,non_fall
6.977891,-1.4991,1.6802,0.4372,0.2858,-1.1012,-0.0449,18.5562,24.1804,-36.0266,,0.002242999999999995,2.2937996185368936,2.3348436250212687,non_fall
6.987629,-1.4991,1.6802,0.4372,0.3144,-0.4694,-0.029,18.5562,24.1804,-36.0266,,0.009738000000000469,2.2937996185368936,2.504793944814341,non_fall
6.997344,-0.1551,2.7984,-0.5095,0.3144,-0.4694,-0.029,18.5562,24.1804,-36.0266,,0.009714999999999918,2.848629287920771,2.6972538541870654,non_fall
7.034247,-0.1551,2.7984,-0.5095,0.3144,-0.4694,-0.029,18.5562,24.1804,-36.0266,,0.036902999999999686,2.848629287920771,2.9080406467606372,non_fall
7.038116,-0.1551,2.7984,-0.5095,0.3144,-0.4694,-0.029,18.5562,24.1804,-36.0266,,0.0038689999999999003,2.848629287920771,3.1305598509096013,non_fall
7.04056,-0.1551,2.7984,-0.5095,0.3144,-0.4694,-0.029,18.5562,24.1804,-36.0266,,0.002444000000000557,2.848629287920771,3.3557448750507675,non_fall
7.042827,-0.1551,2.7984,-0.5095,0.3144,-0.4694,-0.029,16.2504,24.0706,-37.0514,,0.002266999999999797,2.848629287920771,3.572283528204608,non_fall
7.057131,-0.1551,2.7984,-0.5095,0.0506,-0.0381,0.0374,16.2504,24.0706,-37.0514,,0.014304000000000094,2.848629287920771,3.7671794696295002,non_fall
7.066616,0.5739,4.3501,0.0592,0.0506,-0.0381,0.0374,16.2504,24.0706,-37.0514,,0.009484999999999744,4.388192778354205,3.92665340061262,non_fall
7.097078,0.5739,4.3501,0.0592,0.0506,-0.0381,0.0374,14.3472,23.912,-37.881,,0.03046199999999999,4.388192778354205,4.037323950371499,non_fall
7.100688,0.5739,4.3501,0.0592,0.0506,-0.0381,0.0374,14.3472,23.912,-37.881,,0.003610000000000113,4.388192778354205,4.087538500215255,non_fall
7.103688,0.5739,4.3501,0.0592,0.0506,-0.0381,0.0374,14.3472,23.912,-37.881,,0.0030000000000001137,4.388192778354205,4.068677061929054,non_fall
7.105726,0.5739,4.3501,0.0592,0.0506,-0.0381,0.0374,14.3472,23.912,-37.881,,0.0020379999999997622,4.388192778354205,3.9762451117212536,non_fall
7.127155,0.5739,4.3501,0.0592,-0.0376,0.4557,0.0579,14.3472,23.912,-37.881,,0.021429000000000364,4.388192778354205,3.810598582002229,non_fall
7.145569,0.5739,4.3501,0.0592,-0.0376,0.4557,0.0579,14.3472,23.912,-37.881,,0.01841399999999993,4.388192778354205,3.577189899744878,non_fall
7.148321,0.5739,4.3501,0.0592,-0.0376,0.4557,0.0579,14.3472,23.912,-37.881,,0.0027520000000000877,4.388192778354205,3.286280003819121,non_fall
7.150525,0.2739,1.8195,0.284,-0.0376,0.4557,0.0579,14.3472,23.912,-37.881,,0.0022039999999998727,1.8617887796417723,2.9521301371420505,non_fall
7.156911,0.2739,1.8195,0.284,-0.0376,0.4557,0.0579,12.81,23.607,-38.5154,,0.006386000000000003,1.8617887796417723,2.5917679063368038,non_fall
7.166986,0.2739,1.8195,0.284,-0.0376,0.4557,0.0579,12.81,23.607,-38.5154,,0.010074999999999612,1.8617887796417723,2.2234951063986186,non_fall
7.169734,0.2739,1.8195,0.284,-0.0376,0.4557,0.0579,12.81,23.607,-38.5154,,0.0027480000000004168,1.8617887796417723,1.865337730938145,non_fall
7.198405,0.2739,1.8195,0.284,-0.1545,0.3248,0.2245,12.81,23.607,-38.5154,,0.028671000000000113,1.8617887796417723,1.533617233754866,non_fall
7.208206,-0.0892,0.4563,0.3541,-0.1545,0.3248,0.2245,12.81,23.607,-38.5154,,0.009800999999999505,0.5844254785684827,1.2417694771250298,non_fall
7.218051,-0.0892,0.4563,0.3541,-0.1545,0.3248,0.2245,11.7486,23.2288,-39.04,,0.009845000000000326,0.5844254785684827,0.9994901948220604,non_fall
7.23407,-0.0892,0.4563,0.3541,-0.1545,0.3248,0.2245,11.7486,23.2288,-39.04,,0.016019000000000005,0.5844254785684827,0.812256171250771,non_fall
7.235714,-0.0892,0.4563,0.3541,-0.1545,0.3248,0.2245,11.7486,23.2288,-39.04,,0.0016439999999997568,0.5844254785684827,0.6812459749011847,non_fall
7.236792,-0.0892,0.4563,0.3541,-0.1545,0.3248,0.2245,11.7486,23.2288,-39.04,,0.0010780000000005785,0.5844254785684827,0.6036489827025133,non_fall
7.266604,-0.0892,0.4563,0.3541,0.0157,0.1755,0.1119,11.7486,23.2288,-39.04,,0.029811999999999728,0.5844254785684827,0.5733101350117298,non_fall
7.279475,-0.0892,0.4563,0.3541,0.0157,0.1755,0.1119,11.0166,22.875,-39.3938,,0.012870999999999633,0.5844254785684827,0.5816232889615643,non_fall
7.281504,-0.942,-0.1637,0.2424,0.0157,0.1755,0.1119,11.0166,22.875,-39.3938,,0.0020290000000002806,0.9863667928311455,0.6185653191333063,non_fall
7.30109,-0.942,-0.1637,0.2424,0.0157,0.1755,0.1119,11.0166,22.875,-39.3938,,0.019586000000000325,0.9863667928311455,0.6737556319347768,non_fall
7.304063,-0.942,-0.1637,0.2424,0.0157,0.1755,0.1119,11.0166,22.875,-39.3938,,0.0029729999999998924,0.9863667928311455,0.7374302818895142,non_fall
7.305634,-0.942,-0.1637,0.2424,0.0157,0.1755,0.1119,11.0166,22.875,-39.3938,,0.0015710000000002111,0.9863667928311455,0.8012373814128009,non_fall
7.336906,-0.942,-0.1637,0.2424,0.0157,0.1755,0.1119,10.7482,22.5334,-39.589,,0.03127199999999952,0.9863667928311455,0.8587900700787592,non_fall
7.339644,-0.942,-0.1637,0.2424,0.3882,0.4318,-0.0767,10.7482,22.5334,-39.589,,0.002737999999999907,0.9863667928311455,0.9059490228413332,non_fall
7.345838,-0.3657,-0.5866,0.6011,0.3882,0.4318,-0.0767,10.7482,22.5334,-39.589,,0.006193999999999811,0.9160552712582358,0.9408404677725399,non_fall
7.369288,-0.3657,-0.5866,0.6011,0.3882,0.4318,-0.0767,10.7482,22.5334,-39.589,,0.023450000000000415,0.9160552712582358,0.9636428145937989,non_fall
7.372392,-0.3657,-0.5866,0.6011,0.3882,0.4318,-0.0767,10.7482,22.5334,-39.589,,0.0031039999999995516,0.9160552712582358,0.9761934648958909,non_fall
7.374988,-0.3657,-0.5866,0.6011,0.3882,0.4318,-0.0767,10.7482,22.5334,-39.589,,0.002596000000000487,0.9160552712582358,0.9814770312298671,non_fall
7.377207,-0.3657,-0.5866,0.6011,0.3882,0.4318,-0.0767,10.7482,22.5334,-39.589,,0.002219000000000193,0.9160552712582358,0.9830579715355603,non_fall
7.397078,-0.3657,-0.5866,0.6011,0.3882,0.4318,-0.0767,10.8946,22.1186,-39.711,,0.019870999999999306,0.9160552712582358,0.9845166306016357,non_fall
7.408293,-0.3657,-0.5866,0.6011,0.3989,0.1165,-0.0063,10.8946,22.1186,-39.711,,0.011214999999999975,0.9160552712582358,0.9889403174770635,non_fall
7.418693,0.8447,0.1964,0.277,0.3989,0.1165,-0.0063,10.8946,22.1186,-39.711,,0.010400000000000631,0.9103955459029883,0.9985121054043938,non_fall
7.436003,0.8447,0.1964,0.277,0.3989,0.1165,-0.0063,10.8946,22.1186,-39.711,,0.01731000000000016,0.9103955459029883,1.0142303094246998,non_fall
7.437293,0.8447,0.1964,0.277,0.3989,0.1165,-0.0063,10.8946,22.1186,-39.711,,0.0012900000000000134,0.9103955459029883,1.0357811362085916,non_fall
7.438004,0.8447,0.1964,0.277,0.3989,0.1165,-0.0063,10.8946,22.1186,-39.711,,0.0007109999999999062,0.9103955459029883,1.0615754140546472,non_fall
7.45731,0.8447,0.1964,0.277,0.3989,0.1165,-0.0063,11.4314,21.8502,-39.5768,,0.01930599999999938,0.9103955459029883,1.0889469685823365,non_fall
7.477187,0.8447,0.1964,0.277,-0.3089,0.0909,-0.1206,11.4314,21.8502,-39.5768,,0.019877000000000145,0.9103955459029883,1.1144944444220695,non_fall
7.491342,-0.3647,-0.4711,-1.2612,-0.3089,0.0909,-0.1206,11.4314,21.8502,-39.5768,,0.014155000000000584,1.394835739433142,1.1345298789026468,non_fall
7.500926,-0.3647,-0.4711,-1.2612,-0.3089,0.0909,-0.1206,11.4314,21.8502,-39.5768,,0.00958399999999937,1.394835739433142,1.145577633257555,non_fall
7.503492,-0.3647,-0.4711,-1.2612,-0.3089,0.0909,-0.1206,11.4314,21.8502,-39.5768,,0.002565999999999846,1.394835739433142,1.1448517798325828,non_fall
7.505354,-0.3647,-0.4711,-1.2612,-0.3089,0.0909,-0.1206,11.4314,21.8502,-39.5768,,0.0018620000000000303,1.394835739433142,1.1306367451478416,non_fall
7.515207,-0.3647,-0.4711,-1.2612,-0.3089,0.0909,-0.1206,12.078,21.716,-39.3816,,0.009853000000000556,1.394835739433142,1.1025095442228017,non_fall
7.547019,-0.3647,-0.4711,-1.2612,0.1238,-0.1529,0.0497,12.078,21.716,-39.3816,,0.03181199999999951,1.394835739433142,1.0613696698284873,non_fall
7.557733,0.1675,-0.5944,0.2457,0.1238,-0.1529,0.0497,12.078,21.716,-39.3816,,0.010714000000000112,0.6646323043608399,1.0092780643358572,non_fall
7.568597,0.1675,-0.5944,0.2457,0.1238,-0.1529,0.0497,12.078,21.716,-39.3816,,0.010863999999999763,0.6646323043608399,0.9491429762956843,non_fall
7.570757,0.1675,-0.5944,0.2457,0.1238,-0.1529,0.0497,12.078,21.716,-39.3816,,0.002160000000000828,0.6646323043608399,0.8843195052425049,non_fall
7.572459,0.1675,-0.5944,0.2457,0.1238,-0.1529,0.0497,12.078,21.716,-39.3816,,0.0017019999999998703,0.6646323043608399,0.8182011058020608,non_fall
7.57364,0.1675,-0.5944,0.2457,0.1238,-0.1529,0.0497,12.078,21.716,-39.3816,,0.0011809999999998766,0.6646323043608399,0.7538709217118524,non_fall
7.574807,0.1675,-0.5944,0.2457,0.1238,-0.1529,0.0497,12.5904,21.5452,-39.3206,,0.001166999999999696,0.6646323043608399,0.6938554660720794,non_fall
7.617152,0.1675,-0.5944,0.2457,0.0988,0.0996,-0.1659,12.5904,21.5452,-39.3206,,0.04234500000000008,0.6646323043608399,0.6399951467702862,non_fall
7.626942,0.5586,-0.0988,0.1111,0.0988,0.0996,-0.1659,12.5904,21.5452,-39.3206,,0.009789999999999743,0.5780472385540822,0.5934239326670305,non_fall
7.63797,0.5586,-0.0988,0.1111,0.0988,0.0996,-0.1659,12.9686,21.411,-39.3816,,0.011028000000000482,0.5780472385540822,0.5546364414295778,non_fall
7.640362,0.5586,-0.0988,0.1111,0.0988,0.0996,-0.1659,12.9686,21.411,-39.3816,,0.0023919999999995056,0.5780472385540822,0.5236138011497913,non_fall
7.642274,0.5586,-0.0988,0.1111,0.0988,0.0996,-0.1659,12.9686,21.411,-39.3816,,0.0019119999999999138,0.5780472385540822,0.4999776202537156,non_fall
7.644401,0.5586,-0.0988,0.1111,0.0988,0.0996,-0.1659,12.9686,21.411,-39.3816,,0.002127000000000656,0.5780472385540822,0.4831426344625686,non_fall
7.686913,0.5586,-0.0988,0.1111,0.0157,0.0077,0.0843,12.9686,21.411,-39.3816,,0.04251199999999944,0.5780472385540822,0.47244271539384625,non_fall
7.702801,0.5586,-0.0988,0.1111,0.0157,0.0077,0.0843,13.237,21.1914,-39.406,,0.015888000000000346,0.5780472385540822,0.46721222319538847,non_fall
7.705163,0.3508,0.0104,-0.2252,0.0157,0.0077,0.0843,13.237,21.1914,-39.406,,0.002361999999999753,0.4169938129037408,0.46681501487471394,non_fall
7.706998,0.3508,0.0104,-0.2252,0.0157,0.0077,0.0843,13.237,21.1914,-39.406,,0.001834999999999809,0.4169938129037408,0.4706255093237701,non_fall
7.708021,0.3508,0.0104,-0.2252,0.0157,0.0077,0.0843,13.237,21.1914,-39.406,,0.0010229999999999961,0.4169938129037408,0.4779773886738997,non_fall
7.708897,0.3508,0.0104,-0.2252,0.0157,0.0077,0.0843,13.237,21.1914,-39.406,,0.0008760000000007651,0.4169938129037408,0.4881024238579397,non_fall
7.756764,0.3508,0.0104,-0.2252,0.0157,0.0077,0.0843,13.4322,21.0084,-39.467,,0.047867000000000104,0.4169938129037408,0.5000825660561677,non_fall
7.758705,0.3508,0.0104,-0.2252,0.0393,0.0732,-0.0636,13.4322,21.0084,-39.467,,0.0019409999999995264,0.4169938129037408,0.5128335206249852,non_fall
7.767023,0.4683,-0.2526,-0.1819,0.0393,0.0732,-0.0636,13.4322,21.0084,-39.467,,0.008318000000000048,0.5623159787877274,0.525129660061909,non_fall
7.768566,0.4683,-0.2526,-0.1819,0.0393,0.0732,-0.0636,13.4322,21.0084,-39.467,,0.00154299999999985,0.5623159787877274,0.5356703625565615,non_fall
7.769474,0.4683,-0.2526,-0.1819,0.0393,0.0732,-0.0636,13.4322,21.0084,-39.467,,0.0009079999999999089,0.5623159787877274,0.5431787269266852,non_fall
7.770371,0.4683,-0.2526,-0.1819,0.0393,0.0732,-0.0636,13.4322,21.0084,-39.467,,0.0008970000000001477,0.5623159787877274,0.546517423054968,non_fall
7.771539,0.4683,-0.2526,-0.1819,0.0393,0.0732,-0.0636,13.4322,21.0084,-39.467,,0.0011679999999998358,0.5623159787877274,0.5448044207053636,non_fall
7.814235,0.4683,-0.2526,-0.1819,0.0393,0.0732,-0.0636,13.5542,20.8254,-39.528,,0.04269600000000029,0.5623159787877274,0.5375125937652525,non_fall
7.825821,0.4683,-0.2526,-0.1819,-0.0101,-0.0944,-0.0599,13.5542,20.8254,-39.528,,0.011586000000000318,0.5623159787877274,0.5245398302679446,non_fall
7.84635,0.4683,-0.2526,-0.1819,-0.0101,-0.0944,-0.0599,13.5542,20.8254,-39.528,,0.020528999999999797,0.5623159787877274,0.5062392097817768,non_fall
7.847919,0.4683,-0.2526,-0.1819,-0.0101,-0.0944,-0.0599,13.5542,20.8254,-39.528,,0.0015689999999999316,0.5623159787877274,0.48340214567835754,non_fall
7.848912,0.4683,-0.2526,-0.1819,-0.0101,-0.0944,-0.0599,13.5542,20.8254,-39.528,,0.0009930000000002437,0.5623159787877274,0.4571917996659605,non_fall
7.850312,0.353,-0.2271,0.0316,-0.0101,-0.0944,-0.0599,13.5542,20.8254,-39.528,,0.0013999999999994017,0.4209298872734033,0.42903024212510527,non_fall
