time,ax,ay,az,wx,wy,wz,Bx,By,Bz,Unnamed: 10,time_diff,acc_mag,acc_mag_filtered,label
0.042818,0.0,0.0,0.0,0.0,0.0,0.0,0.0,0.0,0.0,,0.0,0.0,0.001046933659671897,non_fall
0.073293,0.0,0.0,0.0,0.0,0.0,0.0,2.6718,12.688,-43.737,,0.030474999999999995,0.0,0.000908093716952323,non_fall
0.088357,0.0,0.0,0.0,0.0112,0.0222,-0.0297,2.6718,12.688,-43.737,,0.015064000000000008,0.0,0.0006154859566151885,non_fall
0.098638,0.0,0.0,0.0,0.0112,0.0222,-0.0297,2.6718,12.688,-43.737,,0.010280999999999998,0.0,0.0001627389124119517,non_fall
0.099793,0.0,0.0,0.0,0.0112,0.0222,-0.0297,2.6718,12.688,-43.737,,0.0011550000000000032,0.0,-0.00043743212567548236,non_fall
0.101021,0.0,0.0,0.0,0.0112,0.0222,-0.0297,2.6718,12.688,-43.737,,0.001227999999999993,0.0,-0.0011487622500442971,non_fall
0.136074,0.0,0.0,0.0,0.0112,0.0222,-0.0297,2.623,12.4928,-43.493,,0.035053,0.0,-0.0019083529281713708,non_fall
0.156088,0.0,0.0,0.0,0.0405,0.0182,-0.0337,2.623,12.4928,-43.493,,0.020014000000000004,0.0,-0.002625650122017856,non_fall
0.163307,0.0,0.0,0.0,0.0405,0.0182,-0.0337,2.623,12.4928,-43.493,,0.007219000000000003,0.0,-0.0031840857325827285,non_fall
0.165708,0.0,0.0,0.0,0.0405,0.0182,-0.0337,2.623,12.4928,-43.493,,0.0024009999999999865,0.0,-0.003445802760062817,non_fall
0.168937,0.0,0.0,0.0,0.0405,0.0182,-0.0337,2.623,12.4928,-43.493,,0.0032290000000000096,0.0,-0.003259601738722406,non_fall
0.170852,0.0,0.0,0.0,0.0405,0.0182,-0.0337,2.623,12.4928,-43.493,,0.001915,0.0,-0.002471871383809972,non_fall
0.193695,0.0,0.0,0.0,0.0405,0.0182,-0.0337,2.623,12.383,-43.5052,,0.022843000000000002,0.0,-0.000939827240567407,non_fall
0.225645,0.0,0.0,0.0,0.0587,0.0449,-0.0478,2.623,12.383,-43.5052,,0.031950000000000006,0.0,0.0014540744769412188,non_fall
0.227979,0.0,0.0,0.0,0.0587,0.0449,-0.0478,2.623,12.383,-43.5052,,0.002333999999999975,0.0,0.004788086247995062,non_fall
0.229217,0.0,0.0,0.0,0.0587,0.0449,-0.0478,2.623,12.383,-43.5052,,0.0012380000000000169,0.0,0.009089284825596192,non_fall
0.230758,0.0,0.0,0.0,0.0587,0.0449,-0.0478,2.623,12.383,-43.5052,,0.0015409999999999868,0.0,0.014325670154800699,non_fall
0.234307,-0.0272,-0.016,0.0111,0.0587,0.0449,-0.0478,2.623,12.383,-43.5052,,0.0035489999999999966,0.03345220471060166,0.0204037227957038,non_fall
0.253553,-0.0272,-0.016,0.0111,0.0587,0.0449,-0.0478,2.6352,12.2976,-43.5418,,0.019245999999999985,0.03345220471060166,0.027172200711529503,non_fall
0.297946,-0.0272,-0.016,0.0111,0.0587,0.0449,-0.0478,2.6352,12.2976,-43.5418,,0.044393000000000016,0.03345220471060166,0.0344321691211892,non_fall
0.301234,-0.0272,-0.016,0.0111,0.0587,0.0449,-0.0478,2.6352,12.2976,-43.5418,,0.003288000000000013,0.03345220471060166,0.04195280106214085,non_fall
0.303467,-0.0272,-0.016,0.0111,0.0587,0.0449,-0.0478,2.6352,12.2976,-43.5418,,0.002232999999999985,0.03345220471060166,0.0494925202860685,non_fall
0.30507,-0.0272,-0.016,0.0111,0.0587,0.0449,-0.0478,2.6352,12.2976,-43.5418,,0.001603000000000021,0.03345220471060166,0.05682520516267925,non_fall
0.306251,-0.0272,-0.016,0.0111,0.034,0.1447,-0.0471,2.6352,12.2976,-43.5418,,0.0011809999999999876,0.03345220471060166,0.06377080465907178,non_fall
0.307415,-0.0656,-0.0049,0.0829,0.034,0.1447,-0.0471,2.6352,12.2976,-43.5418,,0.0011639999999999984,0.1058290130351786,0.07022844175490844,non_fall
0.317214,-0.0656,-0.0049,0.0829,0.034,0.1447,-0.0471,2.623,12.322,-43.5784,,0.009799000000000002,0.1058290130351786,0.07620805249425257,non_fall
0.364921,-0.0656,-0.0049,0.0829,-0.0196,0.2039,-0.024,2.623,12.322,-43.5784,,0.047707,0.1058290130351786,0.08185469619089075,non_fall
0.36836,-0.0656,-0.0049,0.0829,-0.0196,0.2039,-0.024,2.623,12.322,-43.5784,,0.0034390000000000254,0.1058290130351786,0.08745912711617457,non_fall
0.371517,-0.0656,-0.0049,0.0829,-0.0196,0.2039,-0.024,2.623,12.322,-43.5784,,0.0031569999999999654,0.1058290130351786,0.09344970119314237,non_fall
0.373721,-0.0656,-0.0049,0.0829,-0.0196,0.2039,-0.024,2.623,12.322,-43.5784,,0.0022040000000000393,0.1058290130351786,0.1003636528039928,non_fall
0.375448,-0.0656,-0.0049,0.0829,-0.0196,0.2039,-0.024,2.7572,12.322,-43.676,,0.0017269999999999786,0.1058290130351786,0.10879904034856354,non_fall
0.377139,-0.0594,0.1139,-0.0455,-0.0196,0.2039,-0.024,2.7572,12.322,-43.676,,0.001690999999999998,0.13627846491650836,0.11935136796972351,non_fall
0.430398,-0.0594,0.1139,-0.0455,-0.0196,0.2039,-0.024,2.7572,12.322,-43.676,,0.053259,0.13627846491650836,0.13254079589299803,non_fall
0.434368,-0.0594,0.1139,-0.0455,-0.0196,0.2039,-0.024,2.7572,12.322,-43.676,,0.0039699999999999736,0.13627846491650836,0.14873712337012157,non_fall
0.437423,-0.0594,0.1139,-0.0455,-0.0196,0.2039,-0.024,2.7572,12.322,-43.676,,0.00305500000000003,0.13627846491650836,0.1680906427754676,non_fall
0.439481,-0.0594,0.1139,-0.0455,-0.0196,0.2039,-0.024,2.9402,12.322,-43.737,,0.0020580000000000043,0.13627846491650836,0.19047746375690355,non_fall
0.441773,-0.0594,0.1139,-0.0455,-0.0166,0.2582,-0.0531,2.9402,12.322,-43.737,,0.0022920000000000162,0.13627846491650836,0.21546735961305866,non_fall
0.44729,-0.3049,0.0227,-0.0699,-0.0166,0.2582,-0.0531,2.9402,12.322,-43.737,,0.005516999999999994,0.31363244411253116,0.2423197669525283,non_fall
0.496043,-0.3049,0.0227,-0.0699,-0.0166,0.2582,-0.0531,3.1354,12.2976,-43.7492,,0.04875299999999999,0.31363244411253116,0.2700092101033691,non_fall
0.500514,-0.3049,0.0227,-0.0699,-0.0166,0.2582,-0.0531,3.1354,12.2976,-43.7492,,0.004471000000000003,0.31363244411253116,0.29727669071140733,non_fall
0.503823,-0.3049,0.0227,-0.0699,-0.0166,0.2582,-0.0531,3.1354,12.2976,-43.7492,,0.0033090000000000064,0.31363244411253116,0.32270106668255377,non_fall
0.505126,-0.3049,0.0227,-0.0699,-0.0166,0.2582,-0.0531,3.1354,12.2976,-43.7492,,0.001302999999999943,0.31363244411253116,0.3447853789044143,non_fall
0.506891,-0.3049,0.0227,-0.0699,-0.0166,0.2582,-0.0531,3.1354,12.2976,-43.7492,,0.0017650000000000166,0.31363244411253116,0.36205589831328666,non_fall
0.507884,-0.3049,0.0227,-0.0699,-0.0145,0.3714,-0.0702,3.1354,12.2976,-43.7492,,0.0009930000000000216,0.31363244411253116,0.3731734927230184,non_fall
0.513949,-0.3206,0.0788,0.1854,-0.0145,0.3714,-0.0702,3.1354,12.2976,-43.7492,,0.006064999999999987,0.37863829705934393,0.3770559718012894,non_fall
0.553091,-0.3206,0.0788,0.1854,-0.0145,0.3714,-0.0702,3.5014,12.2366,-43.7248,,0.03914200000000001,0.37863829705934393,0.3730063962685227,non_fall
0.563104,-0.3206,0.0788,0.1854,-0.0145,0.3714,-0.0702,3.5014,12.2366,-43.7248,,0.01001300000000005,0.37863829705934393,0.3608373142346714,non_fall
0.565067,-0.3206,0.0788,0.1854,-0.0145,0.3714,-0.0702,3.5014,12.2366,-43.7248,,0.001962999999999937,0.37863829705934393,0.3409764947088295,non_fall
0.567545,-0.3206,0.0788,0.1854,-0.0145,0.3714,-0.0702,3.5014,12.2366,-43.7248,,0.0024779999999999802,0.37863829705934393,0.31453755113937687,non_fall
0.573108,-0.3206,0.0788,0.1854,-0.0794,0.4188,-0.0463,3.5014,12.2366,-43.7248,,0.005562999999999985,0.37863829705934393,0.28333947665630327,non_fall
0.584682,-0.1973,-0.0484,0.1197,-0.0794,0.4188,-0.0463,3.5014,12.2366,-43.7248,,0.011574000000000084,0.23579215423758274,0.24986252454974245,non_fall
0.613055,-0.1973,-0.0484,0.1197,-0.0794,0.4188,-0.0463,4.0138,12.2488,-43.7614,,0.02837299999999998,0.23579215423758274,0.21713376387655253,non_fall
0.629055,-0.1973,-0.0484,0.1197,-0.0794,0.4188,-0.0463,4.0138,12.2488,-43.7614,,0.016000000000000014,0.23579215423758274,0.18854294824910162,non_fall
0.632146,-0.1973,-0.0484,0.1197,-0.0794,0.4188,-0.0463,4.0138,12.2488,-43.7614,,0.003090999999999955,0.23579215423758274,0.1675962651521352,non_fall
0.635642,-0.1973,-0.0484,0.1197,-0.0794,0.4188,-0.0463,4.0138,12.2488,-43.7614,,0.0034960000000000546,0.23579215423758274,0.1576211612263299,non_fall
0.642328,-0.1973,-0.0484,0.1197,-0.343,0.6256,-0.1377,4.0138,12.2488,-43.7614,,0.00668599999999997,0.23579215423758274,0.16144079022547117,non_fall
0.652525,-0.1146,0.0543,0.0432,-0.343,0.6256,-0.1377,4.0138,12.2488,-43.7614,,0.010197000000000012,0.1339697353882585,0.1810433790416062,non_fall
0.672073,-0.1146,0.0543,0.0432,-0.343,0.6256,-0.1377,4.7458,12.383,-43.6882,,0.01954800000000001,0.1339697353882585,0.21728009364487477,non_fall
0.695557,-0.1146,0.0543,0.0432,-0.343,0.6256,-0.1377,4.7458,12.383,-43.6882,,0.02348399999999995,0.1339697353882585,0.2696325997148172,non_fall
0.698271,-0.1146,0.0543,0.0432,-0.343,0.6256,-0.1377,4.7458,12.383,-43.6882,,0.002713999999999994,0.1339697353882585,0.336094864410678,non_fall
0.700176,-0.1146,0.0543,0.0432,-0.343,0.6256,-0.1377,4.7458,12.383,-43.6882,,0.0019050000000000455,0.1339697353882585,0.41320975254026493,non_fall
0.70198,-0.1146,0.0543,0.0432,-0.343,0.6256,-0.1377,4.7458,12.383,-43.6882,,0.0018040000000000278,0.1339697353882585,0.49628814866487964,non_fall
0.712579,-0.1146,0.0543,0.0432,-0.44,0.3999,-0.0422,4.7458,12.383,-43.6882,,0.010598999999999914,0.1339697353882585,0.5798161458172166,non_fall
0.722577,0.9694,0.5101,0.0929,-0.44,0.3999,-0.0422,4.7458,12.383,-43.6882,,0.009998000000000062,1.099349252967409,0.6580241291895842,non_fall
0.732203,0.9694,0.5101,0.0929,-0.44,0.3999,-0.0422,5.6242,12.6636,-43.493,,0.009626000000000023,1.099349252967409,0.7255533494022305,non_fall
0.762476,0.9694,0.5101,0.0929,-0.44,0.3999,-0.0422,5.6242,12.6636,-43.493,,0.030272999999999994,1.099349252967409,0.7781215836661528,non_fall
0.764897,0.9694,0.5101,0.0929,-0.44,0.3999,-0.0422,5.6242,12.6636,-43.493,,0.0024210000000000065,1.099349252967409,0.8130757755787121,non_fall
0.766577,0.9694,0.5101,0.0929,-0.44,0.3999,-0.0422,5.6242,12.6636,-43.493,,0.0016799999999999038,1.099349252967409,0.8297349165353559,non_fall
0.782886,0.9694,0.5101,0.0929,-0.2509,0.1368,-0.336,5.6242,12.6636,-43.493,,0.016309000000000018,1.099349252967409,0.8294643099612607,non_fall
0.793079,0.9694,0.5101,0.0929,-0.2509,0.1368,-0.336,6.5636,12.993,-43.2978,,0.010193000000000008,1.099349252967409,0.8154687003934767,non_fall
0.795506,0.1421,-0.3001,0.3136,-0.2509,0.1368,-0.336,6.5636,12.993,-43.2978,,0.002427000000000068,0.4567246216266428,0.7923370783237169,non_fall
0.82856,0.1421,-0.3001,0.3136,-0.2509,0.1368,-0.336,6.5636,12.993,-43.2978,,0.03305399999999992,0.4567246216266428,0.7654120812017724,non_fall
0.830261,0.1421,-0.3001,0.3136,-0.2509,0.1368,-0.336,6.5636,12.993,-43.2978,,0.0017010000000000636,0.4567246216266428,0.7400858907841155,non_fall
0.831313,0.1421,-0.3001,0.3136,-0.2509,0.1368,-0.336,6.5636,12.993,-43.2978,,0.0010519999999999419,0.4567246216266428,0.7211335589014896,non_fall
0.85227,0.1421,-0.3001,0.3136,-0.2509,0.1368,-0.336,7.4054,13.3346,-42.9684,,0.020957000000000003,0.4567246216266428,0.7121797048481243,non_fall
0.855409,0.1421,-0.3001,0.3136,-0.0507,-0.1165,-0.0732,7.4054,13.3346,-42.9684,,0.003139000000000003,0.4567246216266428,0.7153614403335595,non_fall
0.866938,0.5112,-0.7754,0.097,-0.0507,-0.1165,-0.0732,7.4054,13.3346,-42.9684,,0.011529000000000011,0.9337984793305245,0.7312100273447706,non_fall
0.895272,0.5112,-0.7754,0.097,-0.0507,-0.1165,-0.0732,7.4054,13.3346,-42.9684,,0.02833399999999997,0.9337984793305245,0.7587349896834048,non_fall
0.897656,0.5112,-0.7754,0.097,-0.0507,-0.1165,-0.0732,7.4054,13.3346,-42.9684,,0.0023840000000000527,0.9337984793305245,0.7956642268045587,non_fall
0.899426,0.5112,-0.7754,0.097,-0.0507,-0.1165,-0.0732,7.4054,13.3346,-42.9684,,0.0017699999999999383,0.9337984793305245,0.8387788353162098,non_fall
0.90099,0.5112,-0.7754,0.097,-0.0507,-0.1165,-0.0732,7.4054,13.3346,-42.9684,,0.0015640000000000098,0.9337984793305245,0.8842840971331042,non_fall
0.91154,0.5112,-0.7754,0.097,-0.0507,-0.1165,-0.0732,8.052,13.7616,-42.7,,0.01055000000000006,0.9337984793305245,0.9281728800473997,non_fall
0.921416,0.5112,-0.7754,0.097,-0.1795,-0.0957,-0.0417,8.052,13.7616,-42.7,,0.009875999999999996,0.9337984793305245,0.9665552762562343,non_fall
0.931962,-0.2272,0.9675,0.14,-0.1795,-0.0957,-0.0417,8.052,13.7616,-42.7,,0.010545999999999944,1.0036314512807976,0.9959421862220611,non_fall
0.962935,-0.2272,0.9675,0.14,-0.1795,-0.0957,-0.0417,8.052,13.7616,-42.7,,0.03097300000000003,1.0036314512807976,1.013478712627274,non_fall
0.965816,-0.2272,0.9675,0.14,-0.1795,-0.0957,-0.0417,8.052,13.7616,-42.7,,0.0028810000000000224,1.0036314512807976,1.0171264403300633,non_fall
0.968489,-0.2272,0.9675,0.14,-0.1795,-0.0957,-0.0417,8.052,13.7616,-42.7,,0.0026730000000000365,1.0036314512807976,1.0057938874108738,non_fall
0.971718,-0.2272,0.9675,0.14,-0.1795,-0.0957,-0.0417,8.6376,14.2496,-42.4804,,0.0032289999999999264,1.0036314512807976,0.9794134781622363,non_fall
0.992214,-0.2272,0.9675,0.14,0.0903,0.1674,-0.0941,8.6376,14.2496,-42.4804,,0.02049600000000007,1.0036314512807976,0.9389624133575428,non_fall
1.00496,0.1756,-0.5693,-0.557,0.0903,0.1674,-0.0941,8.6376,14.2496,-42.4804,,0.012746000000000035,0.8155898785541664,0.8864244955263624,non_fall
1.030534,0.1756,-0.5693,-0.557,0.0903,0.1674,-0.0941,8.6376,14.2496,-42.4804,,0.025573999999999986,0.8155898785541664,0.8246908221927558,non_fall
1.031745,0.1756,-0.5693,-0.557,0.0903,0.1674,-0.0941,8.6376,14.2496,-42.4804,,0.001210999999999851,0.8155898785541664,0.7573988957943362,non_fall
1.032483,0.1756,-0.5693,-0.557,0.0903,0.1674,-0.0941,8.6376,14.2496,-42.4804,,0.0007380000000001274,0.8155898785541664,0.688710934155534,non_fall
1.033213,0.1756,-0.5693,-0.557,0.0903,0.1674,-0.0941,9.15,14.6766,-42.2364,,0.0007299999999998974,0.8155898785541664,0.6230331399531505,non_fall
1.063725,0.1756,-0.5693,-0.557,-0.047,-0.0009,-0.0566,9.15,14.6766,-42.2364,,0.030512000000000095,0.8155898785541664,0.5646812589433503,non_fall
1.080243,-0.0309,0.0949,-0.2783,-0.047,-0.0009,-0.0566,9.15,14.6766,-42.2364,,0.016518000000000033,0.29565471415149125,0.5175075189069783,non_fall
1.092117,-0.0309,0.0949,-0.2783,-0.047,-0.0009,-0.0566,9.4794,15.128,-42.0534,,0.01187399999999994,0.29565471415149125,0.48452024497868446,non_fall
1.095528,-0.0309,0.0949,-0.2783,-0.047,-0.0009,-0.0566,9.4794,15.128,-42.0534,,0.003411000000000053,0.29565471415149125,0.4675442445123341,non_fall
1.096398,-0.0309,0.0949,-0.2783,-0.047,-0.0009,-0.0566,9.4794,15.128,-42.0534,,0.0008699999999999264,0.29565471415149125,0.4669778489558746,non_fall
1.097241,-0.0309,0.0949,-0.2783,-0.047,-0.0009,-0.0566,9.4794,15.128,-42.0534,,0.0008429999999999271,0.29565471415149125,0.48169538274990925,non_fall
1.098808,-0.0309,0.0949,-0.2783,-0.047,-0.0009,-0.0566,9.4794,15.128,-42.0534,,0.001567000000000096,0.29565471415149125,0.509124145435772,non_fall
1.132343,-0.0309,0.0949,-0.2783,-0.0547,-0.0807,-0.1105,9.4794,15.128,-42.0534,,0.03353500000000009,0.29565471415149125,0.5454991765365417,non_fall
1.142301,-0.7467,0.4304,0.0838,-0.0547,-0.0807,-0.1105,9.4794,15.128,-42.0534,,0.009957999999999911,0.8659257993615851,0.5862713735488045,non_fall
1.151228,-0.7467,0.4304,0.0838,-0.0547,-0.0807,-0.1105,9.5648,15.4818,-41.9192,,0.008926999999999907,0.8659257993615851,0.6266173751608218,non_fall
1.16378,-0.7467,0.4304,0.0838,-0.0547,-0.0807,-0.1105,9.5648,15.4818,-41.9192,,0.012552000000000119,0.8659257993615851,0.6619783380491904,non_fall
1.165678,-0.7467,0.4304,0.0838,-0.0547,-0.0807,-0.1105,9.5648,15.4818,-41.9192,,0.0018979999999999553,0.8659257993615851,0.6885475796037164,non_fall
1.167744,-0.7467,0.4304,0.0838,-0.0547,-0.0807,-0.1105,9.5648,15.4818,-41.9192,,0.0020659999999999012,0.8659257993615851,0.703638152188625,non_fall
1.202356,-0.7467,0.4304,0.0838,0.071,0.0971,-0.0545,9.5648,15.4818,-41.9192,,0.03461200000000009,0.8659257993615851,0.7058860333202965,non_fall
1.21174,-0.7467,0.4304,0.0838,0.071,0.0971,-0.0545,9.5038,15.6526,-41.8948,,0.009384000000000059,0.8659257993615851,0.6952739095303299,non_fall
1.213725,0.2992,-0.3501,0.0046,0.071,0.0971,-0.0545,9.5038,15.6526,-41.8948,,0.0019849999999999035,0.4605559792251101,0.6729886489455944,non_fall
1.230787,0.2992,-0.3501,0.0046,0.071,0.0971,-0.0545,9.5038,15.6526,-41.8948,,0.017062000000000133,0.4605559792251101,0.641149991671595,non_fall
1.232445,0.2992,-0.3501,0.0046,0.071,0.0971,-0.0545,9.5038,15.6526,-41.8948,,0.0016579999999999373,0.4605559792251101,0.6024653344363168,non_fall
1.233668,0.2992,-0.3501,0.0046,0.071,0.0971,-0.0545,9.5038,15.6526,-41.8948,,0.001222999999999974,0.4605559792251101,0.5598707749089651,non_fall
1.273139,0.2992,-0.3501,0.0046,0.071,0.0971,-0.0545,9.4428,15.7258,-41.8826,,0.039471000000000034,0.4605559792251101,0.5162100747438537,non_fall
1.277427,0.2992,-0.3501,0.0046,0.0257,0.1485,-0.1463,9.4428,15.7258,-41.8826,,0.0042880000000000695,0.4605559792251101,0.47398564280650024,non_fall
1.284526,-0.3847,-0.0479,-0.0293,0.0257,0.1485,-0.1463,9.4428,15.7258,-41.8826,,0.0070989999999999664,0.38877627242412827,0.43519674927475976,non_fall
1.297095,-0.3847,-0.0479,-0.0293,0.0257,0.1485,-0.1463,9.4428,15.7258,-41.8826,,0.012569000000000052,0.38877627242412827,0.4012650889004897,non_fall
1.298953,-0.3847,-0.0479,-0.0293,0.0257,0.1485,-0.1463,9.4428,15.7258,-41.8826,,0.0018579999999999153,0.38877627242412827,0.37303756158764995,non_fall
1.299941,-0.3847,-0.0479,-0.0293,0.0257,0.1485,-0.1463,9.4428,15.7258,-41.8826,,0.0009879999999999889,0.38877627242412827,0.3508496287161297,lateral_fall
1.300964,-0.3847,-0.0479,-0.0293,0.0257,0.1485,-0.1463,9.4428,15.7258,-41.8826,,0.0010229999999999961,0.38877627242412827,0.3346287965358611,lateral_fall
1.331782,-0.3847,-0.0479,-0.0293,0.0257,0.1485,-0.1463,9.4428,15.7868,-41.9192,,0.030818000000000012,0.38877627242412827,0.32401661566288187,lateral_fall
1.342625,-0.3847,-0.0479,-0.0293,-0.0337,0.2786,-0.1273,9.4428,15.7868,-41.9192,,0.010842999999999936,0.38877627242412827,0.31848947091645113,lateral_fall
1.358195,-0.2269,0.2017,0.0132,-0.0337,0.2786,-0.1273,9.4428,15.7868,-41.9192,,0.015570000000000084,0.30387619189400145,0.31746331321047633,lateral_fall
1.362984,-0.2269,0.2017,0.0132,-0.0337,0.2786,-0.1273,9.4428,15.7868,-41.9192,,0.004788999999999932,0.30387619189400145,0.32037443481581923,lateral_fall
1.36409,-0.2269,0.2017,0.0132,-0.0337,0.2786,-0.1273,9.4428,15.7868,-41.9192,,0.0011060000000000514,0.30387619189400145,0.3267356148239094,lateral_fall
1.364918,-0.2269,0.2017,0.0132,-0.0337,0.2786,-0.1273,9.4428,15.7868,-41.9192,,0.0008280000000000509,0.30387619189400145,0.33617228420014045,lateral_fall
1.389795,-0.2269,0.2017,0.0132,-0.0337,0.2786,-0.1273,9.6258,15.7136,-41.7972,,0.024876999999999816,0.30387619189400145,0.34844538462219804,lateral_fall
1.411833,-0.2269,0.2017,0.0132,0.0955,0.3455,-0.226,9.6258,15.7136,-41.7972,,0.022038000000000002,0.30387619189400145,0.3634664193336478,lateral_fall
1.426445,-0.3679,-0.0303,-0.2828,0.0955,0.3455,-0.226,9.6258,15.7136,-41.7972,,0.01461200000000007,0.4650207952339336,0.3813067860927544,lateral_fall
1.43157,-0.3679,-0.0303,-0.2828,0.0955,0.3455,-0.226,9.6258,15.7136,-41.7972,,0.005125000000000046,0.4650207952339336,0.40219903502758764,lateral_fall
1.432579,-0.3679,-0.0303,-0.2828,0.0955,0.3455,-0.226,9.6258,15.7136,-41.7972,,0.0010090000000000376,0.4650207952339336,0.42652402476042506,lateral_fall
1.433569,-0.3679,-0.0303,-0.2828,0.0955,0.3455,-0.226,9.6258,15.7136,-41.7972,,0.0009900000000000464,0.4650207952339336,0.4547773517009459,lateral_fall
1.450782,-0.3679,-0.0303,-0.2828,0.0955,0.3455,-0.226,9.9308,15.5306,-41.602,,0.017212999999999923,0.4650207952339336,0.4875117892435057,lateral_fall
1.480799,-0.3679,-0.0303,-0.2828,0.1999,0.0977,-0.2096,9.9308,15.5306,-41.602,,0.03001699999999996,0.4650207952339336,0.5252579667815099,lateral_fall
1.491735,-0.6188,0.2486,0.0966,0.1999,0.0977,-0.2096,9.9308,15.5306,-41.602,,0.010936000000000057,0.673830067598649,0.568430042964835,lateral_fall
1.495972,-0.6188,0.2486,0.0966,0.1999,0.0977,-0.2096,9.9308,15.5306,-41.602,,0.004237000000000046,0.673830067598649,0.6172250293796221,lateral_fall
1.49793,-0.6188,0.2486,0.0966,0.1999,0.0977,-0.2096,9.9308,15.5306,-41.602,,0.0019579999999999043,0.673830067598649,0.67152483533562,lateral_fall
1.500455,-0.6188,0.2486,0.0966,0.1999,0.0977,-0.2096,9.9308,15.5306,-41.602,,0.0025250000000001105,0.673830067598649,0.730811669761341,lateral_fall
1.502234,-0.6188,0.2486,0.0966,0.1999,0.0977,-0.2096,9.9308,15.5306,-41.602,,0.001778999999999975,0.673830067598649,0.7941110983118692,lateral_fall
1.512953,-0.6188,0.2486,0.0966,0.1999,0.0977,-0.2096,10.1992,15.372,-41.5166,,0.010718999999999923,0.673830067598649,0.8599802635755013,lateral_fall
1.550239,-0.6188,0.2486,0.0966,0.1743,-0.0305,-0.2864,10.1992,15.372,-41.5166,,0.03728599999999993,0.673830067598649,0.9265572749900073,lateral_fall
1.560995,-1.2028,0.0668,-0.1005,0.1743,-0.0305,-0.2864,10.1992,15.372,-41.5166,,0.010755999999999988,1.2088384217917632,0.99167870311013,lateral_fall
1.563965,-1.2028,0.0668,-0.1005,0.1743,-0.0305,-0.2864,10.1992,15.372,-41.5166,,0.002970000000000139,1.2088384217917632,1.0530562857118233,lateral_fall
1.565042,-1.2028,0.0668,-0.1005,0.1743,-0.0305,-0.2864,10.1992,15.372,-41.5166,,0.0010769999999999946,1.2088384217917632,1.1084872829388088,lateral_fall
1.566186,-1.2028,0.0668,-0.1005,0.1743,-0.0305,-0.2864,10.1992,15.372,-41.5166,,0.0011440000000000339,1.2088384217917632,1.1560642549768014,lateral_fall
1.5674,-1.2028,0.0668,-0.1005,0.1743,-0.0305,-0.2864,10.4432,15.1158,-41.4312,,0.0012139999999998263,1.2088384217917632,1.1943540749152748,lateral_fall
1.621043,-1.2028,0.0668,-0.1005,0.0441,0.0218,-0.319,10.4432,15.1158,-41.4312,,0.05364300000000011,1.2088384217917632,1.2225288314506386,lateral_fall
1.637596,-1.2028,0.0668,-0.1005,0.0441,0.0218,-0.319,10.736,14.8474,-41.3824,,0.01655300000000004,1.2088384217917632,1.2404448686815595,lateral_fall
1.640199,-1.2028,0.0668,-0.1005,0.0441,0.0218,-0.319,10.736,14.8474,-41.3824,,0.002602999999999911,1.2088384217917632,1.2486753126220826,lateral_fall
1.641388,-1.2028,0.0668,-0.1005,0.0441,0.0218,-0.319,10.736,14.8474,-41.3824,,0.0011890000000001066,1.2088384217917632,1.248505143050885,lateral_fall
1.643438,-1.2028,0.0668,-0.1005,0.0441,0.0218,-0.319,10.736,14.8474,-41.3824,,0.0020499999999998852,1.2088384217917632,1.2418973059148022,lateral_fall
1.644727,-1.2028,0.0668,-0.1005,0.0441,0.0218,-0.319,10.736,14.8474,-41.3824,,0.0012890000000000956,1.2088384217917632,1.23143498154048,lateral_fall
1.645802,-1.0696,0.6858,-0.1297,0.0441,0.0218,-0.319,10.736,14.8474,-41.3824,,0.0010749999999999371,1.277179662381139,1.2202403368568546,lateral_fall
1.689889,-1.0696,0.6858,-0.1297,0.0441,0.0218,-0.319,10.98,14.6522,-41.297,,0.04408699999999999,1.277179662381139,1.211865358312945,lateral_fall
1.693973,-1.0696,0.6858,-0.1297,0.0158,-0.1493,-0.3629,10.98,14.6522,-41.297,,0.0040839999999999765,1.277179662381139,1.2101473872497328,lateral_fall
1.696926,-1.0696,0.6858,-0.1297,0.0158,-0.1493,-0.3629,10.98,14.6522,-41.297,,0.0029529999999999834,1.277179662381139,1.2190224066463835,lateral_fall
1.69864,-1.0696,0.6858,-0.1297,0.0158,-0.1493,-0.3629,10.98,14.6522,-41.297,,0.0017139999999999933,1.277179662381139,1.2422935748898833,lateral_fall
1.699914,-1.0696,0.6858,-0.1297,0.0158,-0.1493,-0.3629,10.98,14.6522,-41.297,,0.0012739999999999974,1.277179662381139,1.28335992846198,lateral_fall
1.706926,-0.9207,1.133,-0.16,0.0158,-0.1493,-0.3629,10.98,14.6522,-41.297,,0.007012000000000018,1.4686652069140878,1.3449185296712465,lateral_fall
1.750774,-0.9207,1.133,-0.16,0.0158,-0.1493,-0.3629,11.0898,14.457,-41.2482,,0.04384800000000011,1.4686652069140878,1.4286610106781241,lateral_fall
1.760235,-0.9207,1.133,-0.16,-0.3233,-0.1003,-0.582,11.0898,14.457,-41.2482,,0.009460999999999942,1.4686652069140878,1.5349923252580207,lateral_fall
1.76546,-0.9207,1.133,-0.16,-0.3233,-0.1003,-0.582,11.0898,14.457,-41.2482,,0.005225000000000035,1.4686652069140878,1.6628061112209425,lateral_fall
1.767938,-0.9207,1.133,-0.16,-0.3233,-0.1003,-0.582,11.0898,14.457,-41.2482,,0.0024779999999999802,1.4686652069140878,1.809356014425278,lateral_fall
1.769735,-0.9207,1.133,-0.16,-0.3233,-0.1003,-0.582,11.0898,14.457,-41.2482,,0.0017970000000000486,1.4686652069140878,1.9702608476300254,lateral_fall
1.771147,-1.3936,2.0833,-0.6289,-0.3233,-0.1003,-0.582,11.0898,14.457,-41.2482,,0.0014119999999999688,2.5841391332511487,2.1396678105768903,lateral_fall
1.808445,-1.3936,2.0833,-0.6289,-0.3233,-0.1003,-0.582,11.0898,14.3594,-41.175,,0.03729800000000005,2.5841391332511487,2.3105715189144096,lateral_fall
1.828753,-1.3936,2.0833,-0.6289,-0.0497,-0.2675,-0.622,11.0898,14.3594,-41.175,,0.020307999999999993,2.5841391332511487,2.475257143564085,lateral_fall
1.830617,-1.3936,2.0833,-0.6289,-0.0497,-0.2675,-0.622,11.0898,14.3594,-41.175,,0.0018639999999998658,2.5841391332511487,2.625820050641304,lateral_fall
1.83162,-1.3936,2.0833,-0.6289,-0.0497,-0.2675,-0.622,11.0898,14.3594,-41.175,,0.0010030000000000872,2.5841391332511487,2.7547201219952835,lateral_fall
1.832607,-1.3936,2.0833,-0.6289,-0.0497,-0.2675,-0.622,11.0898,14.3594,-41.175,,0.0009870000000000712,2.5841391332511487,2.855347009921678,lateral_fall
1.833561,-1.3936,2.0833,-0.6289,-0.0497,-0.2675,-0.622,11.0898,14.3594,-41.175,,0.0009539999999998994,2.5841391332511487,2.9225853236318953,lateral_fall
1.837667,-0.8308,3.0101,0.1752,-0.0497,-0.2675,-0.622,11.0898,14.3594,-41.175,,0.004105999999999943,3.1275590625917844,2.953365301823375,lateral_fall
1.869839,-0.8308,3.0101,0.1752,-0.0497,-0.2675,-0.622,10.9434,14.2984,-41.1628,,0.03217200000000009,3.1275590625917844,2.9471656708138227,lateral_fall
1.897673,-0.8308,3.0101,0.1752,-0.0497,-0.2675,-0.622,10.9434,14.2984,-41.1628,,0.027833999999999914,3.1275590625917844,2.9064110057763943,lateral_fall
1.900222,-0.8308,3.0101,0.1752,-0.0497,-0.2675,-0.622,10.9434,14.2984,-41.1628,,0.0025490000000001345,3.1275590625917844,2.8366898365716993,lateral_fall
1.901942,-0.8308,3.0101,0.1752,-0.0497,-0.2675,-0.622,10.9434,14.2984,-41.1628,,0.0017199999999999438,3.1275590625917844,2.7467216692374454,lateral_fall
1.9037,-0.8308,3.0101,0.1752,0.2842,-0.0672,-0.887,10.9434,14.2984,-41.1628,,0.0017579999999999263,3.1275590625917844,2.6480216970400057,lateral_fall
1.912567,-1.978,1.0063,0.816,0.2842,-0.0672,-0.887,10.9434,14.2984,-41.1628,,0.008866999999999958,2.3645252567904618,2.554246538539158,lateral_fall
1.929309,-1.978,1.0063,0.816,0.2842,-0.0672,-0.887,10.614,14.2374,-41.2726,,0.016742000000000035,2.3645252567904618,2.480247170839932,lateral_fall
1.963136,-1.978,1.0063,0.816,0.2842,-0.0672,-0.887,10.614,14.2374,-41.2726,,0.03382700000000005,2.3645252567904618,2.44089765512848,lateral_fall
1.965681,-1.978,1.0063,0.816,0.2842,-0.0672,-0.887,10.614,14.2374,-41.2726,,0.0025450000000000195,2.3645252567904618,2.4497982612881373,lateral_fall
1.967501,-1.978,1.0063,0.816,0.2842,-0.0672,-0.887,10.614,14.2374,-41.2726,,0.0018199999999999328,2.3645252567904618,2.517961911964549,lateral_fall
1.969274,-1.978,1.0063,0.816,-0.6483,0.3234,-1.1177,10.614,14.2374,-41.2726,,0.0017730000000000246,2.3645252567904618,2.652586831866956,lateral_fall
1.979354,-0.9336,3.2998,-0.6162,-0.6483,0.3234,-1.1177,10.614,14.2374,-41.2726,,0.010080000000000089,3.4842490496518757,2.85600420236323,lateral_fall
1.98935,-0.9336,3.2998,-0.6162,-0.6483,0.3234,-1.1177,10.2724,14.396,-41.2482,,0.009995999999999894,3.4842490496518757,3.124874269350577,lateral_fall
2.031634,-0.9336,3.2998,-0.6162,-0.6483,0.3234,-1.1177,10.2724,14.396,-41.2482,,0.04228399999999999,3.4842490496518757,3.4496957823841905,lateral_fall
2.034523,-0.9336,3.2998,-0.6162,-0.6483,0.3234,-1.1177,10.2724,14.396,-41.2482,,0.0028890000000001415,3.4842490496518757,3.81470156929204,lateral_fall
2.037051,-0.9336,3.2998,-0.6162,-0.6483,0.3234,-1.1177,10.2724,14.396,-41.2482,,0.0025279999999998637,3.4842490496518757,4.198237167598849,lateral_fall
2.039286,-0.9336,3.2998,-0.6162,-0.6483,0.3234,-1.1177,10.2724,14.396,-41.2482,,0.002235000000000209,3.4842490496518757,4.573741357972152,lateral_fall
2.042166,-0.9336,3.2998,-0.6162,-1.9235,0.5843,-1.6996,10.2724,14.396,-41.2482,,0.0028799999999997716,3.4842490496518757,4.911440920471833,lateral_fall
2.048365,-0.9336,3.2998,-0.6162,-1.9235,0.5843,-1.6996,9.9796,15.2378,-40.9066,,0.006199000000000066,3.4842490496518757,5.180818375214443,lateral_fall
2.049869,-2.4458,5.0572,-1.3108,-1.9235,0.5843,-1.6996,9.9796,15.2378,-40.9066,,0.0015040000000001719,5.76848386666722,5.353805454321434,lateral_fall
2.100629,-2.4458,5.0572,-1.3108,-1.9235,0.5843,-1.6996,9.9796,15.2378,-40.9066,,0.050759999999999916,5.76848386666722,5.408507100610891,lateral_fall
2.10376,-2.4458,5.0572,-1.3108,-1.9235,0.5843,-1.6996,9.9796,15.2378,-40.9066,,0.003130999999999773,5.76848386666722,5.333103920339052,lateral_fall
2.105254,-2.4458,5.0572,-1.3108,-1.9235,0.5843,-1.6996,9.9796,15.2378,-40.9066,,0.0014940000000001064,5.76848386666722,5.12946330115648,lateral_fall
2.106963,-2.4458,5.0572,-1.3108,-1.9235,0.5843,-1.6996,9.7356,16.5798,-40.1868,,0.0017089999999999606,5.76848386666722,4.815943608559499,lateral_fall
2.109227,-2.4458,5.0572,-1.3108,-1.2183,1.9381,-3.1445,9.7356,16.5798,-40.1868,,0.002264000000000266,5.76848386666722,4.42889946595856,lateral_fall
2.12148,1.7919,-1.3378,-5.1489,-1.2183,1.9381,-3.1445,9.7356,16.5798,-40.1868,,0.012252999999999847,5.613535932012906,4.0224687325858675,lateral_fall
2.164631,1.7919,-1.3378,-5.1489,-1.2183,1.9381,-3.1445,9.7356,16.5798,-40.1868,,0.04315099999999994,5.613535932012906,3.6663326849079154,lateral_fall
2.167879,1.7919,-1.3378,-5.1489,-1.2183,1.9381,-3.1445,9.7356,16.5798,-40.1868,,0.0032480000000001397,5.613535932012906,3.44129281644157,lateral_fall
2.170759,1.7919,-1.3378,-5.1489,-1.2183,1.9381,-3.1445,9.7356,16.5798,-40.1868,,0.0028799999999997716,5.613535932012906,3.4327052629892987,lateral_fall
2.173133,1.7919,-1.3378,-5.1489,-1.2183,1.9381,-3.1445,9.9308,18.2512,-39.0888,,0.0023740000000000983,5.613535932012906,3.7220565527172527,lateral_fall
2.178156,1.7919,-1.3378,-5.1489,0.3671,5.6338,-5.4057,9.9308,18.2512,-39.0888,,0.005023,5.613535932012906,4.377244227861975,lateral_fall
2.192427,3.3213,0.6781,3.0708,0.3671,5.6338,-5.4057,9.9308,18.2512,-39.0888,,0.014270999999999923,4.5739114486399925,5.442424287922452,lateral_fall
2.230013,3.3213,0.6781,3.0708,0.3671,5.6338,-5.4057,9.9308,20.0202,-37.8444,,0.03758600000000012,4.5739114486399925,6.928569561236319,lateral_fall
2.233493,3.3213,0.6781,3.0708,0.3671,5.6338,-5.4057,9.9308,20.0202,-37.8444,,0.0034800000000001496,4.5739114486399925,8.806093996887478,lateral_fall
2.23494,3.3213,0.6781,3.0708,0.3671,5.6338,-5.4057,9.9308,20.0202,-37.8444,,0.001446999999999754,4.5739114486399925,11.000968091290236,lateral_fall
2.235897,3.3213,0.6781,3.0708,0.3671,5.6338,-5.4057,9.9308,20.0202,-37.8444,,0.0009570000000000967,4.5739114486399925,13.395614037575838,lateral_fall
2.236828,3.3213,0.6781,3.0708,0.3671,5.6338,-5.4057,9.9308,20.0202,-37.8444,,0.0009310000000000151,4.5739114486399925,15.835476220832478,lateral_fall
2.247166,3.3213,0.6781,3.0708,0.9511,2.1655,-1.7753,9.9308,20.0202,-37.8444,,0.010337999999999958,4.5739114486399925,18.141477577642565,lateral_fall
2.257111,25.622,-20.9107,-0.2033,0.9511,2.1655,-1.7753,9.9308,20.0202,-37.8444,,0.009945000000000093,33.07242944478074,20.127582397061474,lateral_fall
2.286901,25.622,-20.9107,-0.2033,0.9511,2.1655,-1.7753,10.309,21.594,-36.5756,,0.02978999999999976,33.07242944478074,21.62148928221142,lateral_fall
2.29637,25.622,-20.9107,-0.2033,0.9511,2.1655,-1.7753,10.309,21.594,-36.5756,,0.009469000000000172,33.07242944478074,22.485410594611185,lateral_fall
2.29944,25.622,-20.9107,-0.2033,0.9511,2.1655,-1.7753,10.309,21.594,-36.5756,,0.003070000000000128,33.07242944478074,22.633452920792713,lateral_fall
2.301515,25.622,-20.9107,-0.2033,0.9511,2.1655,-1.7753,10.309,21.594,-36.5756,,0.002075000000000049,33.07242944478074,22.042581009185028,lateral_fall
2.317017,25.622,-20.9107,-0.2033,0.4462,0.9397,-0.6,10.309,21.594,-36.5756,,0.015501999999999683,33.07242944478074,20.755357706703993,lateral_fall
2.326625,-6.8359,1.9548,0.0745,0.4462,0.9397,-0.6,10.309,21.594,-36.5756,,0.009608000000000061,7.1102969065996104,18.87420278537352,lateral_fall
2.346792,-6.8359,1.9548,0.0745,0.4462,0.9397,-0.6,10.7726,23.0946,-35.3312,,0.020167000000000268,7.1102969065996104,16.54845678699759,lateral_fall
2.349109,-6.8359,1.9548,0.0745,0.4462,0.9397,-0.6,10.7726,23.0946,-35.3312,,0.0023169999999996804,7.1102969065996104,13.956747454856712,lateral_fall
2.350624,-6.8359,1.9548,0.0745,0.4462,0.9397,-0.6,10.7726,23.0946,-35.3312,,0.001514999999999933,7.1102969065996104,11.28768376820518,lateral_fall
2.352164,-6.8359,1.9548,0.0745,0.4462,0.9397,-0.6,10.7726,23.0946,-35.3312,,0.001540000000000319,7.1102969065996104,8.721613344079975,lateral_fall
2.38843,-6.8359,1.9548,0.0745,0.3555,2.1759,-0.3593,10.7726,23.0946,-35.3312,,0.03626599999999991,7.1102969065996104,6.415352692719629,lateral_fall
2.398579,-1.0546,-0.0934,1.1891,0.3555,2.1759,-0.3593,10.7726,23.0946,-35.3312,,0.010148999999999742,1.5921254755828762,4.490904774229388,lateral_fall
2.40716,-1.0546,-0.0934,1.1891,0.3555,2.1759,-0.3593,11.7364,24.3878,-33.8916,,0.008581000000000394,1.5921254755828762,3.0285134034802246,lateral_fall
2.43113,-1.0546,-0.0934,1.1891,0.3555,2.1759,-0.3593,11.7364,24.3878,-33.8916,,0.023969999999999825,1.5921254755828762,2.0639994338376404,lateral_fall
2.434363,-1.0546,-0.0934,1.1891,0.3555,2.1759,-0.3593,11.7364,24.3878,-33.8916,,0.0032329999999998194,1.5921254755828762,1.590068298094139,lateral_fall
2.436618,-1.0546,-0.0934,1.1891,0.3555,2.1759,-0.3593,11.7364,24.3878,-33.8916,,0.00225500000000034,1.5921254755828762,1.5610743742112585,lateral_fall
2.439048,-1.0546,-0.0934,1.1891,0.3555,2.1759,-0.3593,11.7364,24.3878,-33.8916,,0.002429999999999932,1.5921254755828762,1.9005568985383732,lateral_fall
2.458599,-1.0546,-0.0934,1.1891,0.3093,2.8445,-0.6894,11.7364,24.3878,-33.8916,,0.019550999999999874,1.5921254755828762,2.5107472415813548,lateral_fall
2.46857,-1.0546,-0.0934,1.1891,0.3093,2.8445,-0.6894,13.054,25.5712,-32.3178,,0.009971000000000174,1.5921254755828762,3.283184915629537,lateral_fall
2.472119,-0.3189,7.4171,-4.3563,0.3093,2.8445,-0.6894,13.054,25.5712,-32.3178,,0.0035490000000000244,8.607695354158395,4.109533659639862,lateral_fall
2.499299,-0.3189,7.4171,-4.3563,0.3093,2.8445,-0.6894,13.054,25.5712,-32.3178,,0.027179999999999982,8.607695354158395,4.891638900676296,lateral_fall
2.501088,-0.3189,7.4171,-4.3563,0.3093,2.8445,-0.6894,13.054,25.5712,-32.3178,,0.0017890000000000406,8.607695354158395,5.549857699326272,lateral_fall
2.502259,-0.3189,7.4171,-4.3563,0.3093,2.8445,-0.6894,13.054,25.5712,-32.3178,,0.001170999999999811,8.607695354158395,6.028814155470061,lateral_fall
2.526345,-0.3189,7.4171,-4.3563,0.3093,2.8445,-0.6894,14.7742,26.1446,-30.5976,,0.024086000000000052,8.607695354158395,6.3000359637475505,lateral_fall
2.528867,-0.3189,7.4171,-4.3563,0.3377,2.3717,-0.373,14.7742,26.1446,-30.5976,,0.002521999999999913,8.607695354158395,6.361356979441419,lateral_fall
2.535939,-1.8901,2.217,1.2663,0.3377,2.3717,-0.373,14.7742,26.1446,-30.5976,,0.007071999999999967,3.176646454989916,6.233421504068792,lateral_fall
2.563436,-1.8901,2.217,1.2663,0.3377,2.3717,-0.373,14.7742,26.1446,-30.5976,,0.027496999999999883,3.176646454989916,5.954015793311212,lateral_fall
2.565608,-1.8901,2.217,1.2663,0.3377,2.3717,-0.373,14.7742,26.1446,-30.5976,,0.002172000000000285,3.176646454989916,5.571214964091281,lateral_fall
2.567299,-1.8901,2.217,1.2663,0.3377,2.3717,-0.373,14.7742,26.1446,-30.5976,,0.001691000000000109,3.176646454989916,5.1364029846777415,lateral_fall
2.585664,-1.8901,2.217,1.2663,0.3377,2.3717,-0.373,16.7262,26.1202,-28.9506,,0.018364999999999743,3.176646454989916,4.698080811185894,lateral_fall
2.596272,-1.8901,2.217,1.2663,-0.0142,1.5614,0.3268,16.7262,26.1202,-28.9506,,0.01060799999999995,3.176646454989916,4.297089751471735,lateral_fall
2.605978,0.0627,2.9854,2.6964,-0.0142,1.5614,0.3268,16.7262,26.1202,-28.9506,,0.009705999999999992,4.023321688605076,3.9635499997856316,lateral_fall
2.629338,0.0627,2.9854,2.6964,-0.0142,1.5614,0.3268,16.7262,26.1202,-28.9506,,0.02336000000000027,4.023321688605076,3.7155244457413192,lateral_fall
2.630823,0.0627,2.9854,2.6964,-0.0142,1.5614,0.3268,16.7262,26.1202,-28.9506,,0.0014849999999997365,4.023321688605076,3.559199627135977,lateral_fall
2.631928,0.0627,2.9854,2.6964,-0.0142,1.5614,0.3268,16.7262,26.1202,-28.9506,,0.0011049999999999116,4.023321688605076,3.4902422576250345,lateral_fall
2.632753,0.0627,2.9854,2.6964,-0.0142,1.5614,0.3268,16.7262,26.1202,-28.9506,,0.0008250000000002977,4.023321688605076,3.495939646753865,lateral_fall
2.645166,0.0627,2.9854,2.6964,-0.0142,1.5614,0.3268,18.544,25.7298,-27.328,,0.012413000000000007,4.023321688605076,3.557747202158779,lateral_fall
2.667796,0.0627,2.9854,2.6964,-0.1751,1.4018,0.2617,18.544,25.7298,-27.328,,0.022629999999999928,4.023321688605076,3.653919541203888,lateral_fall
2.676216,-3.3273,2.3581,-0.5854,-0.1751,1.4018,0.2617,18.544,25.7298,-27.328,,0.008420000000000094,4.119982288796883,3.76197146489382,lateral_fall
2.697965,-3.3273,2.3581,-0.5854,-0.1751,1.4018,0.2617,18.544,25.7298,-27.328,,0.021748999999999796,4.119982288796883,3.8607875458522853,lateral_fall
2.700983,-3.3273,2.3581,-0.5854,-0.1751,1.4018,0.2617,18.544,25.7298,-27.328,,0.003017999999999965,4.119982288796883,3.9322669495419915,lateral_fall
2.702827,-3.3273,2.3581,-0.5854,-0.1751,1.4018,0.2617,18.544,25.7298,-27.328,,0.0018440000000001788,4.119982288796883,3.9624498511436834,lateral_fall
2.706326,-3.3273,2.3581,-0.5854,-0.1751,1.4018,0.2617,20.8498,25.1808,-25.5468,,0.003498999999999697,4.119982288796883,3.942122242421995,lateral_fall
2.735448,-3.3273,2.3581,-0.5854,-0.1815,1.0655,0.2328,20.8498,25.1808,-25.5468,,0.029122000000000092,4.119982288796883,3.866937215082591,lateral_fall
2.746916,-2.5698,1.675,-0.7943,-0.1815,1.0655,0.2328,20.8498,25.1808,-25.5468,,0.011468000000000256,3.1686605261529674,3.737124345975901,lateral_fall
2.764282,-2.5698,1.675,-0.7943,-0.1815,1.0655,0.2328,20.8498,25.1808,-25.5468,,0.017365999999999993,3.1686605261529674,3.5568850772961444,lateral_fall
2.767304,-2.5698,1.675,-0.7943,-0.1815,1.0655,0.2328,20.8498,25.1808,-25.5468,,0.00302200000000008,3.1686605261529674,3.333586233186586,lateral_fall
2.76933,-2.5698,1.675,-0.7943,-0.1815,1.0655,0.2328,20.8498,25.1808,-25.5468,,0.0020259999999998612,3.1686605261529674,3.076857811503721,lateral_fall
2.771956,-2.5698,1.675,-0.7943,-0.1815,1.0655,0.2328,23.0214,24.766,-23.5582,,0.002625999999999795,3.1686605261529674,2.797674738875358,lateral_fall
2.805609,-2.5698,1.675,-0.7943,-0.1722,0.7722,0.1633,23.0214,24.766,-23.5582,,0.033653000000000155,3.1686605261529674,2.5074705102998927,lateral_fall
2.815748,-0.8909,0.8891,0.4745,-0.1722,0.7722,0.1633,23.0214,24.766,-23.5582,,0.01013900000000012,1.3451215075226475,2.217314534408298,lateral_fall
2.825397,-0.8909,0.8891,0.4745,-0.1722,0.7722,0.1633,25.2906,24.3756,-21.3622,,0.009649000000000019,1.3451215075226475,1.9371931848160062,lateral_fall
2.829224,-0.8909,0.8891,0.4745,-0.1722,0.7722,0.1633,25.2906,24.3756,-21.3622,,0.0038269999999998028,1.3451215075226475,1.6754526230646836,lateral_fall
2.830811,-0.8909,0.8891,0.4745,-0.1722,0.7722,0.1633,25.2906,24.3756,-21.3622,,0.0015870000000002271,1.3451215075226475,1.438461318533922,lateral_fall
2.832645,-0.8909,0.8891,0.4745,-0.1722,0.7722,0.1633,25.2906,24.3756,-21.3622,,0.0018339999999996692,1.3451215075226475,1.2305168010429488,lateral_fall
2.834331,-0.8909,0.8891,0.4745,-0.1722,0.7722,0.1633,25.2906,24.3756,-21.3622,,0.0016860000000002984,1.3451215075226475,1.0539684443193398,lateral_fall
2.877965,-0.8909,0.8891,0.4745,-0.3209,0.6771,-0.0246,25.2906,24.3756,-21.3622,,0.04363399999999995,1.3451215075226475,0.9094838661799003,lateral_fall
2.886198,-0.8909,0.8891,0.4745,-0.3209,0.6771,-0.0246,27.2304,24.278,-19.0076,,0.008232999999999713,1.3451215075226475,0.7963690811902029,lateral_fall
2.887616,-0.2771,0.3345,-0.2078,-0.3209,0.6771,-0.0246,27.2304,24.278,-19.0076,,0.0014180000000001414,0.4815137588896085,0.7128647997545593,lateral_fall
2.898786,-0.2771,0.3345,-0.2078,-0.3209,0.6771,-0.0246,27.2304,24.278,-19.0076,,0.011169999999999902,0.4815137588896085,0.6563761915930525,lateral_fall
2.900037,-0.2771,0.3345,-0.2078,-0.3209,0.6771,-0.0246,27.2304,24.278,-19.0076,,0.0012510000000003352,0.4815137588896085,0.6236360662987656,lateral_fall
2.900955,-0.2771,0.3345,-0.2078,-0.3209,0.6771,-0.0246,27.2304,24.278,-19.0076,,0.0009179999999999744,0.4815137588896085,0.6108327655037952,lateral_fall
2.947876,-0.2771,0.3345,-0.2078,-0.4132,0.4944,-0.0617,27.2304,24.278,-19.0076,,0.04692099999999977,0.4815137588896085,0.6137425347310493,lateral_fall
2.956234,-0.2771,0.3345,-0.2078,-0.4132,0.4944,-0.0617,28.8286,24.1316,-16.6042,,0.008357999999999866,0.4815137588896085,0.6278949320042534,lateral_fall
2.959555,-0.563,-0.0478,-0.5611,-0.4132,0.4944,-0.0617,28.8286,24.1316,-16.6042,,0.0033210000000001294,0.7962958307061515,0.6487799770889654,lateral_fall
2.963119,-0.563,-0.0478,-0.5611,-0.4132,0.4944,-0.0617,28.8286,24.1316,-16.6042,,0.0035639999999999006,0.7962958307061515,0.6720858636526136,lateral_fall
2.965832,-0.563,-0.0478,-0.5611,-0.4132,0.4944,-0.0617,28.8286,24.1316,-16.6042,,0.0027129999999999654,0.7962958307061515,0.6939411323371268,lateral_fall
2.967766,-0.563,-0.0478,-0.5611,-0.4132,0.4944,-0.0617,28.8286,24.1316,-16.6042,,0.0019340000000003243,0.7962958307061515,0.7111292865037305,lateral_fall
3.016278,-0.563,-0.0478,-0.5611,-0.4132,0.4944,-0.0617,30.0242,24.0462,-14.4326,,0.048511999999999666,0.7962958307061515,0.7212484907448434,lateral_fall
3.020695,-0.563,-0.0478,-0.5611,-0.5306,0.3575,-0.1586,30.0242,24.0462,-14.4326,,0.004417000000000115,0.7962958307061515,0.7228011682039219,lateral_fall
3.027197,-0.5555,-0.1036,-0.184,-0.5306,0.3575,-0.1586,30.0242,24.0462,-14.4326,,0.00650200000000023,0.5942804136096024,0.7152127651253538,lateral_fall
3.029771,-0.5555,-0.1036,-0.184,-0.5306,0.3575,-0.1586,30.0242,24.0462,-14.4326,,0.0025740000000000762,0.5942804136096024,0.6987916825414549,lateral_fall
3.03226,-0.5555,-0.1036,-0.184,-0.5306,0.3575,-0.1586,30.0242,24.0462,-14.4326,,0.0024889999999997414,0.5942804136096024,0.6746506129843465,lateral_fall
3.034914,-0.5555,-0.1036,-0.184,-0.5306,0.3575,-0.1586,30.0242,24.0462,-14.4326,,0.0026540000000001562,0.5942804136096024,0.6446108788358013,lateral_fall
3.037035,-0.5555,-0.1036,-0.184,-0.5306,0.3575,-0.1586,30.0242,24.0462,-14.4326,,0.0021209999999998175,0.5942804136096024,0.6111054256045481,lateral_fall
3.076161,-0.5555,-0.1036,-0.184,-0.5306,0.3575,-0.1586,30.866,24.1316,-12.3708,,0.039125999999999994,0.5942804136096024,0.5770857852594002,lateral_fall
3.085509,-0.5555,-0.1036,-0.184,-0.3804,0.0445,-0.206,30.866,24.1316,-12.3708,,0.009348000000000134,0.5942804136096024,0.5459280262498769,lateral_fall
3.097788,-0.5555,-0.1036,-0.184,-0.3804,0.0445,-0.206,30.866,24.1316,-12.3708,,0.012278999999999929,0.5942804136096024,0.5213256577551794,lateral_fall
3.099162,-0.5555,-0.1036,-0.184,-0.3804,0.0445,-0.206,30.866,24.1316,-12.3708,,0.0013740000000002084,0.5942804136096024,0.5071549466709071,lateral_fall
3.10002,-0.5555,-0.1036,-0.184,-0.3804,0.0445,-0.206,30.866,24.1316,-12.3708,,0.0008580000000000254,0.5942804136096024,0.5073002715182524,lateral_fall
3.100907,-0.5638,-0.1841,0.1235,-0.3804,0.0445,-0.206,30.866,24.1316,-12.3708,,0.0008869999999996381,0.605818041989507,0.5254335019046049,lateral_fall
3.134776,-0.5638,-0.1841,0.1235,-0.3804,0.0445,-0.206,31.3418,24.339,-10.7116,,0.03386900000000015,0.605818041989507,0.5647509791274085,lateral_fall
3.15639,-0.5638,-0.1841,0.1235,-0.181,-0.3848,-0.2373,31.3418,24.339,-10.7116,,0.021614000000000022,0.605818041989507,0.6276830323865469,lateral_fall
3.169631,-0.5638,-0.1841,0.1235,-0.181,-0.3848,-0.2373,31.3418,24.339,-10.7116,,0.013240999999999836,0.605818041989507,0.7156021417921422,lateral_fall
3.171712,-0.5638,-0.1841,0.1235,-0.181,-0.3848,-0.2373,31.3418,24.339,-10.7116,,0.0020809999999999995,0.605818041989507,0.8285642835578437,lateral_fall
3.173155,-0.5638,-0.1841,0.1235,-0.181,-0.3848,-0.2373,31.3418,24.339,-10.7116,,0.001443000000000083,0.605818041989507,0.965120457673581,lateral_fall
3.174597,-1.499,-0.1017,-0.1396,-0.181,-0.3848,-0.2373,31.3418,24.339,-10.7116,,0.0014419999999999433,1.5089175093423763,1.1222288107801073,lateral_fall
3.194979,-1.499,-0.1017,-0.1396,-0.181,-0.3848,-0.2373,31.5736,24.7294,-9.4062,,0.020382000000000122,1.5089175093423763,1.2952821415899387,lateral_fall
3.22601,-1.499,-0.1017,-0.1396,-0.1898,-1.0039,-0.1706,31.5736,24.7294,-9.4062,,0.03103100000000003,1.5089175093423763,1.4782480221813752,lateral_fall
3.230847,-1.499,-0.1017,-0.1396,-0.1898,-1.0039,-0.1706,31.5736,24.7294,-9.4062,,0.004836999999999758,1.5089175093423763,1.6639109690182055,lateral_fall
3.234737,-1.499,-0.1017,-0.1396,-0.1898,-1.0039,-0.1706,31.5736,24.7294,-9.4062,,0.003890000000000171,1.5089175093423763,1.8442126778170445,lateral_fall
3.238333,-1.499,-0.1017,-0.1396,-0.1898,-1.0039,-0.1706,31.5736,24.7294,-9.4062,,0.0035959999999999326,1.5089175093423763,2.0106975543247607,lateral_fall
3.240939,-1.499,-0.1017,-0.1396,-0.1898,-1.0039,-0.1706,31.5736,24.7294,-9.4062,,0.0026060000000001082,1.5089175093423763,2.155070244776541,lateral_fall
3.243007,-2.6391,-1.0474,0.1415,-0.1898,-1.0039,-0.1706,31.5736,24.7294,-9.4062,,0.0020679999999999588,2.8428714040561176,2.2698493518498974,lateral_fall
3.255951,-2.6391,-1.0474,0.1415,-0.1898,-1.0039,-0.1706,31.537,25.132,-8.5766,,0.012944000000000067,2.8428714040561176,2.3490596802448565,lateral_fall
3.296099,-2.6391,-1.0474,0.1415,-0.3646,-1.3505,-0.047,31.537,25.132,-8.5766,,0.04014799999999985,2.8428714040561176,2.3888616054521843,lateral_fall
3.30237,-2.6391,-1.0474,0.1415,-0.3646,-1.3505,-0.047,31.537,25.132,-8.5766,,0.0062709999999999155,2.8428714040561176,2.3879959703335905,lateral_fall
3.304252,-2.6391,-1.0474,0.1415,-0.3646,-1.3505,-0.047,31.537,25.132,-8.5766,,0.0018820000000001613,2.8428714040561176,2.3479416834280893,lateral_fall
3.305674,-2.6391,-1.0474,0.1415,-0.3646,-1.3505,-0.047,31.537,25.132,-8.5766,,0.0014219999999998123,2.8428714040561176,2.2727349104286225,non_fall
3.307959,-1.2079,0.8203,-0.1716,-0.3646,-1.3505,-0.047,31.537,25.132,-8.5766,,0.0022850000000000925,1.47015681476501,2.168465998091357,non_fall
3.314796,-1.2079,0.8203,-0.1716,-0.3646,-1.3505,-0.047,31.2808,25.6078,-8.1862,,0.006836999999999982,1.47015681476501,2.042537249870708,non_fall
3.365621,-1.2079,0.8203,-0.1716,-0.4711,-1.5386,0.0105,31.2808,25.6078,-8.1862,,0.05082500000000012,1.47015681476501,1.902815088192454,non_fall
3.370706,-1.2079,0.8203,-0.1716,-0.4711,-1.5386,0.0105,31.2808,25.6078,-8.1862,,0.005085000000000228,1.47015681476501,1.756825377798184,non_fall
3.373276,-1.2079,0.8203,-0.1716,-0.4711,-1.5386,0.0105,31.2808,25.6078,-8.1862,,0.002569999999999961,1.47015681476501,1.6111135448326352,non_fall
3.375241,-1.2079,0.8203,-0.1716,-0.4711,-1.5386,0.0105,31.2808,25.6078,-8.1862,,0.0019649999999997725,1.47015681476501,1.4708362709175125,non_fall
3.376558,-1.2079,0.8203,-0.1716,-0.4711,-1.5386,0.0105,31.2808,25.6078,-8.1862,,0.0013170000000002346,1.47015681476501,1.3395939881820509,non_fall
3.378535,-1.2079,0.8203,-0.1716,-0.4711,-1.5386,0.0105,30.8416,26.1202,-8.3204,,0.0019769999999996735,1.47015681476501,1.219470579804924,non_fall
3.380166,-0.8849,-0.1332,0.4512,-0.4711,-1.5386,0.0105,30.8416,26.1202,-8.3204,,0.00163100000000016,1.0021834612484883,1.1112241968208159,non_fall
3.430874,-0.8849,-0.1332,0.4512,-0.4711,-1.5386,0.0105,30.8416,26.1202,-8.3204,,0.0507080000000002,1.0021834612484883,1.0145692007435394,non_fall
3.433686,-0.8849,-0.1332,0.4512,-0.4711,-1.5386,0.0105,30.8416,26.1202,-8.3204,,0.0028119999999995926,1.0021834612484883,0.9284972090866805,non_fall
3.436335,-0.8849,-0.1332,0.4512,-0.4711,-1.5386,0.0105,30.8416,26.1202,-8.3204,,0.0026490000000003455,1.0021834612484883,0.8515957620790928,non_fall
3.438842,-0.8849,-0.1332,0.4512,-0.4711,-1.5386,0.0105,30.2072,26.6692,-8.9792,,0.002507000000000037,1.0021834612484883,0.7823306921292366,non_fall
3.441668,-0.8849,-0.1332,0.4512,-0.5087,-1.5892,0.0451,30.2072,26.6692,-8.9792,,0.002825999999999773,1.0021834612484883,0.7192651060541395,non_fall
3.444867,-0.3036,0.2836,0.0481,-0.5087,-1.5892,0.0451,30.2072,26.6692,-8.9792,,0.003198999999999952,0.4182290401203627,0.6611998853309479,non_fall
3.494684,-0.3036,0.2836,0.0481,-0.5087,-1.5892,0.0451,29.463,27.206,-10.0406,,0.049817,0.4182290401203627,0.6072395338619853,non_fall
3.498141,-0.3036,0.2836,0.0481,-0.5087,-1.5892,0.0451,29.463,27.206,-10.0406,,0.0034570000000000434,0.4182290401203627,0.5568068812462439,non_fall
3.500017,-0.3036,0.2836,0.0481,-0.5087,-1.5892,0.0451,29.463,27.206,-10.0406,,0.0018760000000002108,0.4182290401203627,0.5096401538041425,non_fall
3.501739,-0.3036,0.2836,0.0481,-0.5087,-1.5892,0.0451,29.463,27.206,-10.0406,,0.0017220000000000013,0.4182290401203627,0.46580058519324635,non_fall
3.503695,-0.3036,0.2836,0.0481,-0.4775,-1.5754,0.1718,29.463,27.206,-10.0406,,0.0019559999999998468,0.4182290401203627,0.4257022457750938,non_fall
3.513524,-0.1846,0.4098,0.0823,-0.4775,-1.5754,0.1718,29.463,27.206,-10.0406,,0.009828999999999866,0.4569316031968023,0.390157292443116,non_fall
3.554439,-0.1846,0.4098,0.0823,-0.4775,-1.5754,0.1718,28.6578,27.6086,-11.4558,,0.040915000000000035,0.4569316031968023,0.3604159420476673,non_fall
3.56525,-0.1846,0.4098,0.0823,-0.4775,-1.5754,0.1718,28.6578,27.6086,-11.4558,,0.010810999999999904,0.4569316031968023,0.33817348371179856,non_fall
3.568632,-0.1846,0.4098,0.0823,-0.4775,-1.5754,0.1718,28.6578,27.6086,-11.4558,,0.003382000000000218,0.4569316031968023,0.3255169303892236,non_fall
3.571097,-0.1846,0.4098,0.0823,-0.4775,-1.5754,0.1718,28.6578,27.6086,-11.4558,,0.0024649999999999395,0.4569316031968023,0.3247910318725566,non_fall
3.573251,-0.1846,0.4098,0.0823,-0.4775,-1.5754,0.1718,28.6578,27.6086,-11.4558,,0.0021539999999999893,0.4569316031968023,0.33837605908123103,non_fall
3.575588,-0.1846,0.4098,0.0823,-0.5148,-1.4835,0.1597,28.6578,27.6086,-11.4558,,0.0023370000000002555,0.4569316031968023,0.36838618032244774,non_fall
3.583311,0.1869,-0.2373,0.1748,-0.5148,-1.4835,0.1597,28.6578,27.6086,-11.4558,,0.007722999999999924,0.3489956160183105,0.41631536468726504,non_fall
3.612416,0.1869,-0.2373,0.1748,-0.5148,-1.4835,0.1597,27.8404,27.999,-12.9442,,0.029104999999999936,0.3489956160183105,0.4826751363160849,non_fall
3.631368,0.1869,-0.2373,0.1748,-0.5148,-1.4835,0.1597,27.8404,27.999,-12.9442,,0.01895200000000008,0.3489956160183105,0.5666817213954299,non_fall
3.634807,0.1869,-0.2373,0.1748,-0.5148,-1.4835,0.1597,27.8404,27.999,-12.9442,,0.003438999999999748,0.3489956160183105,0.6660549714157934,non_fall
3.637213,0.1869,-0.2373,0.1748,-0.5148,-1.4835,0.1597,27.8404,27.999,-12.9442,,0.0024060000000001303,0.3489956160183105,0.7769844290561121,non_fall
3.643416,0.1869,-0.2373,0.1748,-0.6902,-1.1796,-0.0775,27.8404,27.999,-12.9442,,0.006203000000000181,0.3489956160183105,0.8942973095036182,non_fall
3.654123,0.9739,0.8279,-0.8198,-0.6902,-1.1796,-0.0775,27.8404,27.999,-12.9442,,0.010706999999999578,1.5185426105315583,1.0118290247808504,non_fall
3.672972,0.9739,0.8279,-0.8198,-0.6902,-1.1796,-0.0775,26.8766,28.4016,-14.4204,,0.018849000000000338,1.5185426105315583,1.1229532192839748,non_fall
3.696965,0.9739,0.8279,-0.8198,-0.6902,-1.1796,-0.0775,26.8766,28.4016,-14.4204,,0.02399299999999993,1.5185426105315583,1.2211879167677675,non_fall
3.70081,0.9739,0.8279,-0.8198,-0.6902,-1.1796,-0.0775,26.8766,28.4016,-14.4204,,0.0038450000000000983,1.5185426105315583,1.30077602463198,non_fall
3.70373,0.9739,0.8279,-0.8198,-0.6902,-1.1796,-0.0775,26.8766,28.4016,-14.4204,,0.0029200000000000337,1.5185426105315583,1.357151877448213,non_fall
3.713138,0.9739,0.8279,-0.8198,-0.9272,-1.098,-0.1799,26.8766,28.4016,-14.4204,,0.009407999999999639,1.5185426105315583,1.3872419396820876,non_fall
3.722974,0.8708,0.4666,-0.5974,-0.9272,-1.098,-0.1799,26.8766,28.4016,-14.4204,,0.009835999999999956,1.1545107015528266,1.3895893821982575,non_fall
3.731459,0.8708,0.4666,-0.5974,-0.9272,-1.098,-0.1799,25.7664,28.9506,-15.677,,0.008485000000000298,1.1545107015528266,1.36432623018493,non_fall
3.764432,0.8708,0.4666,-0.5974,-0.9272,-1.098,-0.1799,25.7664,28.9506,-15.677,,0.0329729999999997,1.1545107015528266,1.3130372655681295,non_fall
3.768035,0.8708,0.4666,-0.5974,-0.9272,-1.098,-0.1799,25.7664,28.9506,-15.677,,0.003603000000000023,1.1545107015528266,1.2385638597316826,non_fall
3.771312,0.8708,0.4666,-0.5974,-0.9272,-1.098,-0.1799,25.7664,28.9506,-15.677,,0.0032770000000001964,1.1545107015528266,1.1447843700859772,non_fall
3.773759,0.8708,0.4666,-0.5974,-0.9272,-1.098,-0.1799,25.7664,28.9506,-15.677,,0.002447000000000088,1.1545107015528266,1.0363876782606742,non_fall
3.783106,0.8708,0.4666,-0.5974,-0.9192,-1.4673,0.141,25.7664,28.9506,-15.677,,0.009346999999999994,1.1545107015528266,0.9186377193138603,non_fall
3.79351,0.8708,0.4666,-0.5974,-0.9192,-1.4673,0.141,24.5464,29.646,-16.653,,0.010403999999999858,1.1545107015528266,0.7971171577584059,non_fall
3.796835,0.2173,-0.2427,-0.1474,-0.9192,-1.4673,0.141,24.5464,29.646,-16.653,,0.0033250000000002444,0.3575602606554593,0.6774415679424344,non_fall
3.829915,0.2173,-0.2427,-0.1474,-0.9192,-1.4673,0.141,24.5464,29.646,-16.653,,0.03308,0.3575602606554593,0.5649506105766315,non_fall
3.83255,0.2173,-0.2427,-0.1474,-0.9192,-1.4673,0.141,24.5464,29.646,-16.653,,0.002634999999999721,0.3575602606554593,0.4644016565218817,non_fall
3.834187,0.2173,-0.2427,-0.1474,-0.9192,-1.4673,0.141,24.5464,29.646,-16.653,,0.0016370000000001106,0.3575602606554593,0.3797013843655829,non_fall
3.851464,0.2173,-0.2427,-0.1474,-0.9192,-1.4673,0.141,23.302,30.378,-17.3728,,0.017276999999999987,0.3575602606554593,0.31370519078222064,non_fall
3.853663,0.2173,-0.2427,-0.1474,-1.0278,-1.461,0.3783,23.302,30.378,-17.3728,,0.002199000000000062,0.3575602606554593,0.2680984339973783,non_fall
3.862606,-0.1848,0.0665,-0.0554,-1.0278,-1.461,0.3783,23.302,30.378,-17.3728,,0.008942999999999923,0.20406481813384686,0.24335907558925618,non_fall
3.897784,-0.1848,0.0665,-0.0554,-1.0278,-1.461,0.3783,23.302,30.378,-17.3728,,0.035178000000000154,0.20406481813384686,0.2387947814516281,non_fall
3.900876,-0.1848,0.0665,-0.0554,-1.0278,-1.461,0.3783,23.302,30.378,-17.3728,,0.0030919999999996506,0.20406481813384686,0.25264780612919746,non_fall
3.903352,-0.1848,0.0665,-0.0554,-1.0278,-1.461,0.3783,23.302,30.378,-17.3728,,0.0024760000000001448,0.20406481813384686,0.28226300592681053,non_fall
3.91218,-0.1848,0.0665,-0.0554,-1.0278,-1.461,0.3783,22.143,31.1588,-17.751,,0.00882800000000028,0.20406481813384686,0.3243138216637822,non_fall
3.922359,-0.1848,0.0665,-0.0554,-1.126,-1.5252,0.2236,22.143,31.1588,-17.751,,0.010178999999999938,0.20406481813384686,0.3750764056395182,non_fall
3.931554,-0.5371,0.4394,0.0135,-1.126,-1.5252,0.2236,22.143,31.1588,-17.751,,0.009195000000000064,0.6940684548371292,0.4307334162129325,non_fall
3.96352,-0.5371,0.4394,0.0135,-1.126,-1.5252,0.2236,22.143,31.1588,-17.751,,0.03196599999999972,0.6940684548371292,0.48767793382013364,non_fall
3.967039,-0.5371,0.4394,0.0135,-1.126,-1.5252,0.2236,22.143,31.1588,-17.751,,0.003519000000000272,0.6940684548371292,0.5427791001624198,non_fall
3.969748,-0.5371,0.4394,0.0135,-1.126,-1.5252,0.2236,22.143,31.1588,-17.751,,0.0027089999999998504,0.6940684548371292,0.5935713910431785,non_fall
3.972437,-0.5371,0.4394,0.0135,-1.126,-1.5252,0.2236,22.143,31.1588,-17.751,,0.0026890000000001635,0.6940684548371292,0.6383422098426637,non_fall
3.974727,-0.5371,0.4394,0.0135,-1.126,-1.5252,0.2236,20.9474,32.0738,-17.7876,,0.0022899999999999032,0.6940684548371292,0.6761133860126529,non_fall
3.992717,-0.5371,0.4394,0.0135,-1.3587,-1.1205,-0.2762,20.9474,32.0738,-17.7876,,0.01798999999999973,0.6940684548371292,0.7065332014291008,non_fall
4.002426,-0.5477,0.2229,-0.0819,-1.3587,-1.1205,-0.2762,20.9474,32.0738,-17.7876,,0.009708999999999968,0.596965082730975,0.7297114047025307,non_fall
4.031275,-0.5477,0.2229,-0.0819,-1.3587,-1.1205,-0.2762,19.5932,33.1718,-17.4094,,0.028849000000000125,0.596965082730975,0.7460386743074577,non_fall
4.03422,-0.5477,0.2229,-0.0819,-1.3587,-1.1205,-0.2762,19.5932,33.1718,-17.4094,,0.0029450000000004195,0.596965082730975,0.7560336824232454,non_fall
4.036968,-0.5477,0.2229,-0.0819,-1.3587,-1.1205,-0.2762,19.5932,33.1718,-17.4094,,0.0027479999999995286,0.596965082730975,0.760254725178323,non_fall
4.039775,-0.5477,0.2229,-0.0819,-1.3587,-1.1205,-0.2762,19.5932,33.1718,-17.4094,,0.002806999999999782,0.596965082730975,0.7592990714639632,non_fall
4.06267,-0.5477,0.2229,-0.0819,-1.4044,-1.955,-0.0422,19.5932,33.1718,-17.4094,,0.02289500000000011,0.596965082730975,0.7538935713074183,non_fall
4.071635,-0.5147,-0.29,-0.7485,-1.4044,-1.955,-0.0422,19.5932,33.1718,-17.4094,,0.00896499999999989,0.9535556302597139,0.7450574400411514,non_fall
4.092114,-0.5147,-0.29,-0.7485,-1.4044,-1.955,-0.0422,18.1414,34.3552,-16.6896,,0.020478999999999914,0.9535556302597139,0.7342960060789823,non_fall
4.097051,-0.5147,-0.29,-0.7485,-1.4044,-1.955,-0.0422,18.1414,34.3552,-16.6896,,0.004937000000000857,0.9535556302597139,0.7237679916910436,non_fall
4.099933,-0.5147,-0.29,-0.7485,-1.4044,-1.955,-0.0422,18.1414,34.3552,-16.6896,,0.002881999999999607,0.9535556302597139,0.7163652191521904,non_fall
4.102874,-0.5147,-0.29,-0.7485,-1.4044,-1.955,-0.0422,18.1414,34.3552,-16.6896,,0.0029409999999998604,0.9535556302597139,0.7156559200796924,non_fall
4.132259,-0.5147,-0.29,-0.7485,-1.4345,-1.8207,0.3105,18.1414,34.3552,-16.6896,,0.02938500000000044,0.9535556302597139,0.7256683014112572,non_fall
4.144599,-0.2368,-0.6032,0.1556,-1.4345,-1.8207,0.3105,18.1414,34.3552,-16.6896,,0.012340000000000018,0.6664351731413941,0.7505234348969766,non_fall
4.1521,-0.2368,-0.6032,0.1556,-1.4345,-1.8207,0.3105,16.8604,35.5264,-15.6648,,0.007500999999999536,0.6664351731413941,0.7939598775957056,non_fall
4.163012,-0.2368,-0.6032,0.1556,-1.4345,-1.8207,0.3105,16.8604,35.5264,-15.6648,,0.010912000000000255,0.6664351731413941,0.8588207143679777,non_fall
4.164419,-0.2368,-0.6032,0.1556,-1.4345,-1.8207,0.3105,16.8604,35.5264,-15.6648,,0.001406999999999492,0.6664351731413941,0.9465903016216152,non_fall
4.165304,-0.2368,-0.6032,0.1556,-1.4345,-1.8207,0.3105,16.8604,35.5264,-15.6648,,0.0008850000000002467,0.6664351731413941,1.0570682914766045,non_fall
4.166282,-0.2368,-0.6032,0.1556,-1.4345,-1.8207,0.3105,16.8604,35.5264,-15.6648,,0.0009779999999999234,0.6664351731413941,1.1882522219838354,non_fall
4.201197,-0.2368,-0.6032,0.1556,-1.1476,-1.0318,0.5085,16.8604,35.5264,-15.6648,,0.03491499999999981,0.6664351731413941,1.3364687916986904,non_fall
4.211791,1.901,-0.3996,1.0772,-1.1476,-1.0318,0.5085,16.8604,35.5264,-15.6648,,0.010594000000000214,2.221225112409816,1.4967489933384392,non_fall
4.214982,1.901,-0.3996,1.0772,-1.1476,-1.0318,0.5085,15.8112,36.539,-14.3106,,0.003191000000000166,2.221225112409816,1.6633880355627908,non_fall
4.231169,1.901,-0.3996,1.0772,-1.1476,-1.0318,0.5085,15.8112,36.539,-14.3106,,0.016187000000000396,2.221225112409816,1.8305831968797945,non_fall
4.232637,1.901,-0.3996,1.0772,-1.1476,-1.0318,0.5085,15.8112,36.539,-14.3106,,0.0014680000000000248,2.221225112409816,1.9930249310783537,non_fall
4.233516,1.901,-0.3996,1.0772,-1.1476,-1.0318,0.5085,15.8112,36.539,-14.3106,,0.000878999999999408,2.221225112409816,2.146339903058602,non_fall
4.271798,1.901,-0.3996,1.0772,0.096,-1.3027,0.5728,15.8112,36.539,-14.3106,,0.03828200000000059,2.221225112409816,2.287335272412429,non_fall
4.275683,1.901,-0.3996,1.0772,0.096,-1.3027,0.5728,15.128,37.3076,-13.0784,,0.003884999999999472,2.221225112409816,2.414045400361798,non_fall
4.281728,1.446,-1.2976,1.7485,0.096,-1.3027,0.5728,15.128,37.3076,-13.0784,,0.0060450000000003,2.6137968570644503,2.525617554459943,non_fall
4.302988,1.446,-1.2976,1.7485,0.096,-1.3027,0.5728,15.128,37.3076,-13.0784,,0.021259999999999835,2.6137968570644503,2.622088504848646,non_fall
4.306487,1.446,-1.2976,1.7485,0.096,-1.3027,0.5728,15.128,37.3076,-13.0784,,0.003498999999999697,2.6137968570644503,2.7041045919503284,non_fall
4.309495,1.446,-1.2976,1.7485,0.096,-1.3027,0.5728,15.128,37.3076,-13.0784,,0.0030080000000003437,2.6137968570644503,2.7726324526423247,non_fall
4.329724,1.446,-1.2976,1.7485,0.096,-1.3027,0.5728,14.6278,37.9786,-11.895,,0.02022899999999961,2.6137968570644503,2.828701564900162,non_fall
4.341886,1.446,-1.2976,1.7485,-0.3899,-1.0784,0.5762,14.6278,37.9786,-11.895,,0.012162000000000006,2.6137968570644503,2.8732120472539315,non_fall
4.358343,2.5928,0.7683,-1.4166,-0.3899,-1.0784,0.5762,14.6278,37.9786,-11.895,,0.016456999999999944,3.0528105558648737,2.9068276006520612,non_fall
4.3683,2.5928,0.7683,-1.4166,-0.3899,-1.0784,0.5762,14.6278,37.9786,-11.895,,0.009956999999999994,3.0528105558648737,2.9299533045733908,non_fall
4.3714,2.5928,0.7683,-1.4166,-0.3899,-1.0784,0.5762,14.6278,37.9786,-11.895,,0.003100000000000769,3.0528105558648737,2.9427766793904873,non_fall
4.373184,2.5928,0.7683,-1.4166,-0.3899,-1.0784,0.5762,14.6278,37.9786,-11.895,,0.0017839999999997858,3.0528105558648737,2.945336876990851,non_fall
4.374665,2.5928,0.7683,-1.4166,-0.3899,-1.0784,0.5762,14.6278,37.9786,-11.895,,0.0014810000000000656,3.0528105558648737,2.9375864148578694,non_fall
4.389001,2.5928,0.7683,-1.4166,-0.3899,-1.0784,0.5762,14.274,38.491,-10.7848,,0.014336000000000126,3.0528105558648737,2.9194204972092663,non_fall
4.410396,2.5928,0.7683,-1.4166,-0.4051,-1.1529,-0.0221,14.274,38.491,-10.7848,,0.021395000000000053,3.0528105558648737,2.890664947587576,non_fall
4.425162,1.2966,0.8308,-2.0523,-0.4051,-1.1529,-0.0221,14.274,38.491,-10.7848,,0.014765999999999835,2.5658011399950698,2.8510311739514713,non_fall
4.433442,1.2966,0.8308,-2.0523,-0.4051,-1.1529,-0.0221,14.274,38.491,-10.7848,,0.008280000000000065,2.5658011399950698,2.80006312399013,non_fall
4.435313,1.2966,0.8308,-2.0523,-0.4051,-1.1529,-0.0221,14.274,38.491,-10.7848,,0.001870999999999512,2.5658011399950698,2.73711240644179,non_fall
4.436881,1.2966,0.8308,-2.0523,-0.4051,-1.1529,-0.0221,14.274,38.491,-10.7848,,0.0015679999999997918,2.5658011399950698,2.6613771697161344,non_fall
4.449315,1.2966,0.8308,-2.0523,-0.4051,-1.1529,-0.0221,13.9812,38.8326,-9.6502,,0.012434000000000722,2.5658011399950698,2.5720255657671385,non_fall
4.480024,1.2966,0.8308,-2.0523,-0.4874,-0.5462,-0.5775,13.9812,38.8326,-9.6502,,0.030708999999999875,2.5658011399950698,2.4684014949816007,non_fall
4.489465,1.6206,1.2148,-0.8902,-0.4874,-0.5462,-0.5775,13.9812,38.8326,-9.6502,,0.00944099999999981,2.2123606035183325,2.3502885757969256,non_fall
4.498527,1.6206,1.2148,-0.8902,-0.4874,-0.5462,-0.5775,13.9812,38.8326,-9.6502,,0.009062000000000126,2.2123606035183325,2.2181941826894116,non_fall
4.502375,1.6206,1.2148,-0.8902,-0.4874,-0.5462,-0.5775,13.9812,38.8326,-9.6502,,0.0038479999999996295,2.2123606035183325,2.073608814593147,non_fall
4.504407,1.6206,1.2148,-0.8902,-0.4874,-0.5462,-0.5775,13.9812,38.8326,-9.6502,,0.0020319999999998117,2.2123606035183325,1.919193499477137,non_fall
4.511745,1.6206,1.2148,-0.8902,-0.4874,-0.5462,-0.5775,13.6274,39.1742,-8.7474,,0.007338000000000733,2.2123606035183325,1.7588485635482907,non_fall
4.551371,1.6206,1.2148,-0.8902,-0.1056,-0.8302,-0.7165,13.6274,39.1742,-8.7474,,0.03962599999999927,2.2123606035183325,1.597625824400272,non_fall
4.560692,0.2378,0.861,0.1825,-0.1056,-0.8302,-0.7165,13.6274,39.1742,-8.7474,,0.0093210000000008,0.9116885926674744,1.4414699530403232,non_fall
4.564737,0.2378,0.861,0.1825,-0.1056,-0.8302,-0.7165,13.6274,39.1742,-8.7474,,0.004044999999999632,0.9116885926674744,1.2968134960058595,non_fall
4.567642,0.2378,0.861,0.1825,-0.1056,-0.8302,-0.7165,13.6274,39.1742,-8.7474,,0.0029050000000001575,0.9116885926674744,1.1700905846722944,non_fall
4.570283,0.2378,0.861,0.1825,-0.1056,-0.8302,-0.7165,13.6274,39.1742,-8.7474,,0.0026409999999996714,0.9116885926674744,1.0672552273612301,non_fall
4.572812,0.2378,0.861,0.1825,-0.1056,-0.8302,-0.7165,13.6274,39.1742,-8.7474,,0.0025290000000000035,0.9116885926674744,0.9933796026793098,non_fall
4.575041,0.2378,0.861,0.1825,-0.1056,-0.8302,-0.7165,13.1882,39.5158,-8.1496,,0.0022289999999998145,0.9116885926674744,0.952375033854131,non_fall
4.61948,0.2378,0.861,0.1825,0.4341,-0.957,-0.3669,13.1882,39.5158,-8.1496,,0.04443900000000056,0.9116885926674744,0.9468423334605749,non_fall
4.636912,0.2378,0.861,0.1825,0.4341,-0.957,-0.3669,12.5172,39.8086,-7.9544,,0.017431999999999448,0.9116885926674744,0.978030935054004,non_fall
4.640036,-0.5105,-0.896,1.1123,0.4341,-0.957,-0.3669,12.5172,39.8086,-7.9544,,0.0031240000000005708,1.5167852649600735,1.0458692089927044,non_fall
4.643111,-0.5105,-0.896,1.1123,0.4341,-0.957,-0.3669,12.5172,39.8086,-7.9544,,0.003074999999999939,1.5167852649600735,1.1490200746467665,non_fall
4.645461,-0.5105,-0.896,1.1123,0.4341,-0.957,-0.3669,12.5172,39.8086,-7.9544,,0.002349999999999852,1.5167852649600735,1.284918470036352,non_fall
4.647288,-0.5105,-0.896,1.1123,0.4341,-0.957,-0.3669,12.5172,39.8086,-7.9544,,0.001826999999999579,1.5167852649600735,1.4497651108214897,non_fall
4.688831,-0.5105,-0.896,1.1123,1.1181,-0.9589,0.1991,12.5172,39.8086,-7.9544,,0.041543000000000774,1.5167852649600735,1.6384839150137491,non_fall
4.692036,-0.5105,-0.896,1.1123,1.1181,-0.9589,0.1991,11.6998,40.077,-8.4302,,0.0032049999999994583,1.5167852649600735,1.8446882559577094,non_fall
4.704154,-0.5105,-0.896,1.1123,1.1181,-0.9589,0.1991,11.6998,40.077,-8.4302,,0.012118000000000073,1.5167852649600735,2.0607289521176955,non_fall
4.706909,-0.5105,-0.896,1.1123,1.1181,-0.9589,0.1991,11.6998,40.077,-8.4302,,0.002754999999999619,1.5167852649600735,2.277903189660739,non_fall
4.708837,-0.5105,-0.896,1.1123,1.1181,-0.9589,0.1991,11.6998,40.077,-8.4302,,0.0019280000000003739,1.5167852649600735,2.486882440159314,non_fall
4.710818,-2.1893,-0.5657,2.6935,1.1181,-0.9589,0.1991,11.6998,40.077,-8.4302,,0.0019809999999997885,3.516815779935025,2.6783672305666046,non_fall
4.747885,-2.1893,-0.5657,2.6935,1.1181,-0.9589,0.1991,10.8458,40.3454,-9.1622,,0.037067000000000405,3.516815779935025,2.843904327482459,non_fall
4.757391,-2.1893,-0.5657,2.6935,0.859,-0.2932,0.5641,10.8458,40.3454,-9.1622,,0.009506000000000014,3.516815779935025,2.9767312275424023,non_fall
4.764038,-2.1893,-0.5657,2.6935,0.859,-0.2932,0.5641,10.8458,40.3454,-9.1622,,0.0066470000000000695,3.516815779935025,3.072478362342721,non_fall
4.76644,-2.1893,-0.5657,2.6935,0.859,-0.2932,0.5641,10.8458,40.3454,-9.1622,,0.0024020000000000152,3.516815779935025,3.1295803279181706,non_fall
4.767516,-2.1893,-0.5657,2.6935,0.859,-0.2932,0.5641,10.8458,40.3454,-9.1622,,0.0010759999999994108,3.516815779935025,3.149310775630644,non_fall
4.769213,-2.1893,-0.5657,2.6935,0.859,-0.2932,0.5641,10.8458,40.3454,-9.1622,,0.0016970000000000596,3.516815779935025,3.135432661795334,non_fall
4.771383,-2.2577,-0.4505,0.8413,0.859,-0.2932,0.5641,10.8458,40.3454,-9.1622,,0.0021700000000004493,2.4511110195174757,3.093527151254094,non_fall
4.808328,-2.2577,-0.4505,0.8413,0.859,-0.2932,0.5641,10.1016,40.504,-10.1626,,0.03694500000000023,2.4511110195174757,3.030123310609697,non_fall
4.827252,-2.2577,-0.4505,0.8413,1.2231,-0.4036,0.5808,10.1016,40.504,-10.1626,,0.018923999999999275,2.4511110195174757,2.9517882676060507,non_fall
4.830723,-2.2577,-0.4505,0.8413,1.2231,-0.4036,0.5808,10.1016,40.504,-10.1626,,0.003471000000000224,2.4511110195174757,2.8643408505953736,non_fall
4.832708,-2.2577,-0.4505,0.8413,1.2231,-0.4036,0.5808,10.1016,40.504,-10.1626,,0.0019850000000003476,2.4511110195174757,2.7723161049925693,non_fall
4.835144,-2.2577,-0.4505,0.8413,1.2231,-0.4036,0.5808,10.1016,40.504,-10.1626,,0.0024359999999994386,2.4511110195174757,2.6787456536498455,non_fall
4.837191,-1.9399,-0.775,-1.7732,1.2231,-0.4036,0.5808,10.1016,40.504,-10.1626,,0.002047000000000132,2.7400867230801293,2.5852499299101197,non_fall
4.867236,-1.9399,-0.775,-1.7732,1.2231,-0.4036,0.5808,9.3818,40.4796,-11.59,,0.03004500000000032,2.7400867230801293,2.492378320062502,non_fall
4.897312,-1.9399,-0.775,-1.7732,1.2231,-0.4036,0.5808,9.3818,40.4796,-11.59,,0.030076000000000214,2.7400867230801293,2.400090994021001,non_fall
4.900169,-1.9399,-0.775,-1.7732,1.2231,-0.4036,0.5808,9.3818,40.4796,-11.59,,0.0028569999999996654,2.7400867230801293,2.308257565379408,non_fall
4.902269,-1.9399,-0.775,-1.7732,1.2231,-0.4036,0.5808,9.3818,40.4796,-11.59,,0.002100000000000435,2.7400867230801293,2.217055256021005,non_fall
4.903694,-1.9399,-0.775,-1.7732,1.2396,-0.4266,0.4202,9.3818,40.4796,-11.59,,0.0014249999999993435,2.7400867230801293,2.127180532240576,non_fall
4.906014,-1.379,0.0642,-0.7546,1.2396,-0.4266,0.4202,9.3818,40.4796,-11.59,,0.0023200000000000998,1.5732716866453804,2.0398376495344253,non_fall
4.927124,-1.379,0.0642,-0.7546,1.2396,-0.4266,0.4202,8.8572,40.2722,-13.4688,,0.021110000000000184,1.5732716866453804,1.956526785948838,non_fall
4.963358,-1.379,0.0642,-0.7546,1.2396,-0.4266,0.4202,8.8572,40.2722,-13.4688,,0.03623400000000032,1.5732716866453804,1.878708204738405,non_fall
4.966665,-1.379,0.0642,-0.7546,1.2396,-0.4266,0.4202,8.8572,40.2722,-13.4688,,0.0033069999999995048,1.5732716866453804,1.8074472828680699,non_fall
4.969344,-1.379,0.0642,-0.7546,1.2396,-0.4266,0.4202,8.8572,40.2722,-13.4688,,0.002679000000000542,1.5732716866453804,1.7431381273289246,non_fall
4.971576,-1.379,0.0642,-0.7546,1.2396,-0.4266,0.4202,8.8572,40.2722,-13.4688,,0.0022319999999993456,1.5732716866453804,1.6853699905833144,non_fall
4.973523,-1.379,0.0642,-0.7546,1.0309,-0.4353,0.5469,8.8572,40.2722,-13.4688,,0.001947000000000365,1.5732716866453804,1.6329594515253043,non_fall
4.976945,-0.7542,1.2873,0.6201,1.0309,-0.4353,0.5469,8.8572,40.2722,-13.4688,,0.003421999999999592,1.6156989014045902,1.5841353573902512,non_fall
4.988272,-0.7542,1.2873,0.6201,1.0309,-0.4353,0.5469,8.7352,39.711,-15.7136,,0.011327000000000531,1.6156989014045902,1.5368369168620715,non_fall
5.031846,-0.7542,1.2873,0.6201,1.0309,-0.4353,0.5469,8.7352,39.711,-15.7136,,0.04357399999999956,1.6156989014045902,1.4890684072957459,non_fall
5.03519,-0.7542,1.2873,0.6201,1.0309,-0.4353,0.5469,8.7352,39.711,-15.7136,,0.0033440000000002357,1.6156989014045902,1.439246683480424,non_fall
5.037856,-0.7542,1.2873,0.6201,1.0309,-0.4353,0.5469,8.7352,39.711,-15.7136,,0.002665999999999613,1.6156989014045902,1.3864798997730725,non_fall
5.040067,-0.7542,1.2873,0.6201,0.9029,-0.2766,0.6459,8.7352,39.711,-15.7136,,0.002210999999999963,1.6156989014045902,1.3307269863017268,non_fall
5.049732,-0.7542,1.2873,0.6201,0.9029,-0.2766,0.6459,9.0036,38.796,-18.1048,,0.009665000000000035,1.6156989014045902,1.2728067588917698,non_fall
5.051466,-0.5218,0.6392,0.4074,0.9029,-0.2766,0.6459,9.0036,38.796,-18.1048,,0.0017339999999999023,0.9202318403532884,1.2142523866716386,non_fall
5.059789,-0.5218,0.6392,0.4074,0.9029,-0.2766,0.6459,9.0036,38.796,-18.1048,,0.008323000000000746,0.9202318403532884,1.1570385444879503,non_fall
5.060927,-0.5218,0.6392,0.4074,0.9029,-0.2766,0.6459,9.0036,38.796,-18.1048,,0.0011380000000000834,0.9202318403532884,1.103236969001947,non_fall
5.099389,-0.5218,0.6392,0.4074,0.9029,-0.2766,0.6459,9.0036,38.796,-18.1048,,0.038461999999999996,0.9202318403532884,1.0546699574869896,non_fall
5.102445,-0.5218,0.6392,0.4074,0.9029,-0.2766,0.6459,9.0036,38.796,-18.1048,,0.0030559999999999476,0.9202318403532884,1.0126248359474745,non_fall
5.10924,-0.5218,0.6392,0.4074,0.9029,-0.2766,0.6459,9.7722,37.6004,-20.5692,,0.00679499999999944,0.9202318403532884,0.977671153659799,non_fall
5.112053,-0.5218,0.6392,0.4074,0.7079,0.1477,0.6936,9.7722,37.6004,-20.5692,,0.0028130000000006206,0.9202318403532884,0.9495974379880708,non_fall
5.12247,0.392,-0.1198,-0.8402,0.7079,0.1477,0.6936,9.7722,37.6004,-20.5692,,0.010416999999999454,0.9348540420835757,0.9274633309675097,non_fall
5.167656,0.392,-0.1198,-0.8402,0.7079,0.1477,0.6936,9.7722,37.6004,-20.5692,,0.04518600000000017,0.9348540420835757,0.909747894850462,non_fall
5.170484,0.392,-0.1198,-0.8402,0.7079,0.1477,0.6936,9.7722,37.6004,-20.5692,,0.0028280000000000527,0.9348540420835757,0.8945654376637283,non_fall
5.172092,0.392,-0.1198,-0.8402,0.7079,0.1477,0.6936,9.7722,37.6004,-20.5692,,0.0016080000000000538,0.9348540420835757,0.8799156729783626,non_fall
5.173623,0.392,-0.1198,-0.8402,0.7079,0.1477,0.6936,10.8214,36.2218,-22.7652,,0.001530999999999949,0.9348540420835757,0.8639346921235515,non_fall
5.179056,0.392,-0.1198,-0.8402,0.3964,0.6007,0.6225,10.8214,36.2218,-22.7652,,0.005433000000000021,0.9348540420835757,0.8451163506006832,non_fall
5.189484,0.045,0.3996,-0.7095,0.3964,0.6007,0.6225,10.8214,36.2218,-22.7652,,0.010428000000000104,0.8155338190412462,0.8224795703062654,non_fall
5.228714,0.045,0.3996,-0.7095,0.3964,0.6007,0.6225,12.0902,34.7822,-24.644,,0.039229999999999876,0.8155338190412462,0.7956649639653043,non_fall
5.232751,0.045,0.3996,-0.7095,0.3964,0.6007,0.6225,12.0902,34.7822,-24.644,,0.00403700000000029,0.8155338190412462,0.7649527681543776,non_fall
5.234833,0.045,0.3996,-0.7095,0.3964,0.6007,0.6225,12.0902,34.7822,-24.644,,0.002081999999999695,0.8155338190412462,0.731201685756286,non_fall
5.236693,0.045,0.3996,-0.7095,0.3964,0.6007,0.6225,12.0902,34.7822,-24.644,,0.0018599999999997507,0.8155338190412462,0.6957143849610168,non_fall
5.247973,0.045,0.3996,-0.7095,0.3551,0.7479,0.5957,12.0902,34.7822,-24.644,,0.011280000000000179,0.8155338190412462,0.6600416176167836,non_fall
5.258091,0.3003,0.1661,-0.2307,0.3551,0.7479,0.5957,12.0902,34.7822,-24.644,,0.010118000000000293,0.4135115355101959,0.6257454636081122,non_fall
5.288008,0.3003,0.1661,-0.2307,0.3551,0.7479,0.5957,13.4444,33.3182,-26.23,,0.029916999999999305,0.4135115355101959,0.5941532241916642,non_fall
5.298967,0.3003,0.1661,-0.2307,0.3551,0.7479,0.5957,13.4444,33.3182,-26.23,,0.010959000000000607,0.4135115355101959,0.5661429169469036,non_fall
5.300632,0.3003,0.1661,-0.2307,0.3551,0.7479,0.5957,13.4444,33.3182,-26.23,,0.0016650000000000276,0.4135115355101959,0.5420025673102458,non_fall
5.302768,0.3003,0.1661,-0.2307,0.3551,0.7479,0.5957,13.4444,33.3182,-26.23,,0.002136000000000138,0.4135115355101959,0.5213950213511438,non_fall
5.304273,0.3003,0.1661,-0.2307,0.3551,0.7479,0.5957,13.4444,33.3182,-26.23,,0.0015049999999998676,0.4135115355101959,0.5034408233493105,non_fall
5.318754,0.3003,0.1661,-0.2307,0.1069,0.6116,0.5354,13.4444,33.3182,-26.23,,0.014480999999999966,0.4135115355101959,0.4869100470551509,non_fall
5.328153,0.0844,0.5327,0.2739,0.1069,0.6116,0.5354,13.4444,33.3182,-26.23,,0.009399000000000157,0.6049081417868336,0.4704942391978462,non_fall
5.347621,0.0844,0.5327,0.2739,0.1069,0.6116,0.5354,14.9572,32.025,-27.3036,,0.01946799999999982,0.6049081417868336,0.453113838241823,non_fall
5.366934,0.0844,0.5327,0.2739,0.1069,0.6116,0.5354,14.9572,32.025,-27.3036,,0.01931299999999947,0.6049081417868336,0.4342067325857588,non_fall
5.369175,0.0844,0.5327,0.2739,0.1069,0.6116,0.5354,14.9572,32.025,-27.3036,,0.0022410000000006036,0.6049081417868336,0.41394300275248824,non_fall
5.371202,0.0844,0.5327,0.2739,0.1069,0.6116,0.5354,14.9572,32.025,-27.3036,,0.002027000000000001,0.6049081417868336,0.3933208949447698,non_fall
5.387395,0.0844,0.5327,0.2739,0.3366,0.3165,0.4458,14.9572,32.025,-27.3036,,0.016192999999999458,0.6049081417868336,0.37411817626937,non_fall
5.397858,0.0759,-0.2009,0.0662,0.3366,0.3165,0.4458,14.9572,32.025,-27.3036,,0.010463000000000555,0.22473108374232523,0.3586979371315706,non_fall
5.4077,0.0759,-0.2009,0.0662,0.3366,0.3165,0.4458,16.5676,30.7806,-28.06,,0.009841999999999906,0.22473108374232523,0.3496948605714998,non_fall
5.43258,0.0759,-0.2009,0.0662,0.3366,0.3165,0.4458,16.5676,30.7806,-28.06,,0.02487999999999957,0.22473108374232523,0.3496315933416877,non_fall
5.435003,0.0759,-0.2009,0.0662,0.3366,0.3165,0.4458,16.5676,30.7806,-28.06,,0.002423000000000286,0.22473108374232523,0.3605283817394898,non_fall
5.436638,0.0759,-0.2009,0.0662,0.3366,0.3165,0.4458,16.5676,30.7806,-28.06,,0.0016350000000002751,0.22473108374232523,0.38356879541608413,non_fall
5.457791,0.0759,-0.2009,0.0662,0.489,0.1987,0.1318,16.5676,30.7806,-28.06,,0.021152999999999977,0.22473108374232523,0.41887236183986404,non_fall
5.468871,0.0759,-0.2009,0.0662,0.489,0.1987,0.1318,18.1292,29.6094,-28.5236,,0.011079999999999757,0.22473108374232523,0.46540631915796915,non_fall
5.471719,0.3416,-0.5895,0.2588,0.489,0.1987,0.1318,18.1292,29.6094,-28.5236,,0.0028480000000001837,0.7288197650997124,0.5210467425688982,non_fall
5.499519,0.3416,-0.5895,0.2588,0.489,0.1987,0.1318,18.1292,29.6094,-28.5236,,0.027800000000000047,0.7288197650997124,0.5827759969285284,non_fall
5.501775,0.3416,-0.5895,0.2588,0.489,0.1987,0.1318,18.1292,29.6094,-28.5236,,0.0022560000000000358,0.7288197650997124,0.6469833411008699,non_fall
5.503642,0.3416,-0.5895,0.2588,0.489,0.1987,0.1318,18.1292,29.6094,-28.5236,,0.001866999999999841,0.7288197650997124,0.7098254048527429,non_fall
5.5053,0.3416,-0.5895,0.2588,0.489,0.1987,0.1318,18.1292,29.6094,-28.5236,,0.0016579999999999373,0.7288197650997124,0.7676061196918151,non_fall
5.527598,0.3416,-0.5895,0.2588,0.489,0.1987,0.1318,19.6054,28.5602,-28.8164,,0.02229800000000015,0.7288197650997124,0.8171464704588134,non_fall
5.530513,0.3416,-0.5895,0.2588,0.4964,0.0561,-0.041,19.6054,28.5602,-28.8164,,0.002914999999999779,0.7288197650997124,0.8561244018096098,non_fall
5.541376,0.5943,0.0372,0.815,0.4964,0.0561,-0.041,19.6054,28.5602,-28.8164,,0.010862999999999623,1.0093568893112088,0.8833687162413979,non_fall
5.565937,0.5943,0.0372,0.815,0.4964,0.0561,-0.041,19.6054,28.5602,-28.8164,,0.024561000000000277,1.0093568893112088,0.8990876007539012,non_fall
5.568115,0.5943,0.0372,0.815,0.4964,0.0561,-0.041,19.6054,28.5602,-28.8164,,0.002177999999999791,1.0093568893112088,0.905006684081911,non_fall
5.569332,0.5943,0.0372,0.815,0.4964,0.0561,-0.041,19.6054,28.5602,-28.8164,,0.0012170000000004677,1.0093568893112088,0.9043893678706492,non_fall
5.587217,0.5943,0.0372,0.815,0.4964,0.0561,-0.041,20.8986,27.5964,-29.0238,,0.017884999999999707,1.0093568893112088,0.9019175130990372,non_fall
5.595112,0.5943,0.0372,0.815,0.5321,-0.2052,0.3322,20.8986,27.5964,-29.0238,,0.00789500000000043,1.0093568893112088,0.9034225915623934,non_fall
5.60515,0.2732,0.8916,0.3135,0.5321,-0.2052,0.3322,20.8986,27.5964,-29.0238,,0.01003799999999977,0.9838043758796765,0.9154727080851749,non_fall
5.632665,0.2732,0.8916,0.3135,0.5321,-0.2052,0.3322,20.8986,27.5964,-29.0238,,0.027515000000000178,0.9838043758796765,0.9448368050212332,non_fall
5.635494,0.2732,0.8916,0.3135,0.5321,-0.2052,0.3322,20.8986,27.5964,-29.0238,,0.0028289999999993043,0.9838043758796765,0.9978625192187149,non_fall
5.637075,0.2732,0.8916,0.3135,0.5321,-0.2052,0.3322,20.8986,27.5964,-29.0238,,0.0015810000000007207,0.9838043758796765,1.0798172690260486,non_fall
5.646613,0.2732,0.8916,0.3135,0.5321,-0.2052,0.3322,21.96,26.718,-29.2678,,0.009538000000000046,0.9838043758796765,1.1942513599130369,non_fall
5.664975,0.2732,0.8916,0.3135,0.451,-0.5551,0.3634,21.96,26.718,-29.2678,,0.018361999999999767,0.9838043758796765,1.3424448532348814,non_fall
5.675447,-0.2818,-1.3381,-1.3361,0.451,-0.5551,0.3634,21.96,26.718,-29.2678,,0.010472000000000037,1.911827936818583,1.5229941801381142,non_fall
5.699125,-0.2818,-1.3381,-1.3361,0.451,-0.5551,0.3634,21.96,26.718,-29.2678,,0.02367800000000031,1.911827936818583,1.7315800212426202,non_fall
5.702484,-0.2818,-1.3381,-1.3361,0.451,-0.5551,0.3634,21.96,26.718,-29.2678,,0.003358999999999668,1.911827936818583,1.960941354296201,non_fall
5.705494,-0.2818,-1.3381,-1.3361,0.451,-0.5551,0.3634,21.96,26.718,-29.2678,,0.003009999999999735,1.911827936818583,2.2010725307944026,non_fall
5.707851,-0.2818,-1.3381,-1.3361,0.451,-0.5551,0.3634,21.96,26.718,-29.2678,,0.0023569999999999425,1.911827936818583,2.4396640135806678,non_fall
5.709937,-0.2818,-1.3381,-1.3361,0.451,-0.5551,0.3634,22.6676,25.8396,-29.7436,,0.0020860000000002543,1.911827936818583,2.6628114230024216,non_fall
5.735276,-0.2818,-1.3381,-1.3361,0.4103,-1.104,0.0967,22.6676,25.8396,-29.7436,,0.02533899999999978,1.911827936818583,2.856003574801906,non_fall
5.747791,-1.854,-2.9158,-1.3966,0.4103,-1.104,0.0967,22.6676,25.8396,-29.7436,,0.012515000000000498,3.72688840723733,3.005356978337689,non_fall
5.765452,-1.854,-2.9158,-1.3966,0.4103,-1.104,0.0967,22.6676,25.8396,-29.7436,,0.017660999999999483,3.72688840723733,3.0989959561316445,non_fall
5.768845,-1.854,-2.9158,-1.3966,0.4103,-1.104,0.0967,22.6676,25.8396,-29.7436,,0.0033929999999999794,3.72688840723733,3.1284076277349073,non_fall
5.77114,-1.854,-2.9158,-1.3966,0.4103,-1.104,0.0967,22.6676,25.8396,-29.7436,,0.002295000000000158,3.72688840723733,3.0895641770385804,non_fall
5.777137,-1.854,-2.9158,-1.3966,0.4103,-1.104,0.0967,22.7164,25.0954,-30.5122,,0.005996999999999808,3.72688840723733,2.9836225891298853,non_fall
5.804765,-1.854,-2.9158,-1.3966,-0.3639,-1.2771,-0.432,22.7164,25.0954,-30.5122,,0.027627999999999986,3.72688840723733,2.8170772672273094,non_fall
5.81932,-1.4008,-0.9863,-0.488,-0.3639,-1.2771,-0.432,22.7164,25.0954,-30.5122,,0.01455500000000054,1.7813400377244093,2.6013313451444837,non_fall
5.831161,-1.4008,-0.9863,-0.488,-0.3639,-1.2771,-0.432,22.7164,25.0954,-30.5122,,0.011840999999999546,1.7813400377244093,2.3517480274357907,non_fall
5.834511,-1.4008,-0.9863,-0.488,-0.3639,-1.2771,-0.432,22.7164,25.0954,-30.5122,,0.003350000000000186,1.7813400377244093,2.0863226420600025,non_fall
5.836235,-1.4008,-0.9863,-0.488,-0.3639,-1.2771,-0.432,22.7164,25.0954,-30.5122,,0.0017240000000002809,1.7813400377244093,1.8241542942786066,non_fall
5.8378,-1.4008,-0.9863,-0.488,-0.3639,-1.2771,-0.432,22.1186,24.5098,-31.4028,,0.0015649999999993724,1.7813400377244093,1.5838837698686012,non_fall
5.87561,-1.4008,-0.9863,-0.488,-0.0638,-1.3429,-0.0411,22.1186,24.5098,-31.4028,,0.03781000000000034,1.7813400377244093,1.3822226254329342,non_fall
5.88473,0.5364,0.5836,-0.2838,-0.0638,-1.3429,-0.0411,22.1186,24.5098,-31.4028,,0.009120000000000239,0.8419360783337414,1.2326613307861858,non_fall
5.894409,0.5364,0.5836,-0.2838,-0.0638,-1.3429,-0.0411,20.9474,24.1072,-32.4276,,0.009678999999999327,0.8419360783337414,1.144430704638914,non_fall
5.89842,0.5364,0.5836,-0.2838,-0.0638,-1.3429,-0.0411,20.9474,24.1072,-32.4276,,0.004011000000000209,0.8419360783337414,1.1217945816112214,non_fall
5.899898,0.5364,0.5836,-0.2838,-0.0638,-1.3429,-0.0411,20.9474,24.1072,-32.4276,,0.0014780000000005344,0.8419360783337414,1.1637527647574009,non_fall
5.901865,0.5364,0.5836,-0.2838,-0.0638,-1.3429,-0.0411,20.9474,24.1072,-32.4276,,0.001966999999999608,0.8419360783337414,1.2642167194325125,non_fall
5.90387,0.5364,0.5836,-0.2838,-0.0638,-1.3429,-0.0411,20.9474,24.1072,-32.4276,,0.0020050000000004786,0.8419360783337414,1.412685367981751,non_fall
5.94696,0.5364,0.5836,-0.2838,0.8936,-0.9581,0.2477,20.9474,24.1072,-32.4276,,0.04308999999999941,0.8419360783337414,1.5954011857800048,non_fall
5.955645,0.5364,0.5836,-0.2838,0.8936,-0.9581,0.2477,19.4834,23.6192,-33.55,,0.008684999999999832,0.8419360783337414,1.7969096648004135,non_fall
5.958699,1.056,-3.2963,-0.0659,0.8936,-0.9581,0.2477,19.4834,23.6192,-33.55,,0.0030540000000005563,3.46194634562698,2.0018753058074767,non_fall
5.968764,1.056,-3.2963,-0.0659,0.8936,-0.9581,0.2477,19.4834,23.6192,-33.55,,0.01006499999999999,3.46194634562698,2.1969292581276325,non_fall
5.969954,1.056,-3.2963,-0.0659,0.8936,-0.9581,0.2477,19.4834,23.6192,-33.55,,0.0011900000000002464,3.46194634562698,2.372263757526249,non_fall
5.971101,1.056,-3.2963,-0.0659,0.8936,-0.9581,0.2477,19.4834,23.6192,-33.55,,0.001146999999999565,3.46194634562698,2.5226873926950297,non_fall
6.014347,1.056,-3.2963,-0.0659,0.8936,-0.9581,0.2477,17.629,23.0092,-34.9042,,0.043245999999999896,3.46194634562698,2.6479339759287237,non_fall
6.019181,1.056,-3.2963,-0.0659,0.5654,-1.1269,0.2851,17.629,23.0092,-34.9042,,0.004833999999999783,3.46194634562698,2.7521555727668985,non_fall
6.026825,0.6698,-1.8807,-0.5849,0.5654,-1.1269,0.2851,17.629,23.0092,-34.9042,,0.007643999999999984,2.08032991133618,2.842684921677887,non_fall
6.030936,0.6698,-1.8807,-0.5849,0.5654,-1.1269,0.2851,17.629,23.0092,-34.9042,,0.004110999999999976,2.08032991133618,2.92829019910074,non_fall
6.033119,0.6698,-1.8807,-0.5849,0.5654,-1.1269,0.2851,17.629,23.0092,-34.9042,,0.00218300000000049,2.08032991133618,3.0172417019116735,non_fall
6.035216,0.6698,-1.8807,-0.5849,0.5654,-1.1269,0.2851,17.629,23.0092,-34.9042,,0.0020970000000000155,2.08032991133618,3.1155436942911274,non_fall
6.074002,0.6698,-1.8807,-0.5849,0.5654,-1.1269,0.2851,15.311,22.4114,-36.234,,0.03878599999999999,2.08032991133618,3.2256457658568474,non_fall
6.083565,0.6698,-1.8807,-0.5849,0.1124,-0.8101,-0.0531,15.311,22.4114,-36.234,,0.009562999999999988,2.08032991133618,3.345848900638331,non_fall
6.097969,-2.4654,3.312,-0.7535,0.1124,-0.8101,-0.0531,15.311,22.4114,-36.234,,0.014403999999999861,4.197058899991755,3.470486152438474,non_fall
6.102422,-2.4654,3.312,-0.7535,0.1124,-0.8101,-0.0531,15.311,22.4114,-36.234,,0.004452999999999818,4.197058899991755,3.590810701839961,non_fall
6.104801,-2.4654,3.312,-0.7535,0.1124,-0.8101,-0.0531,15.311,22.4114,-36.234,,0.002379000000000353,4.197058899991755,3.696394873987814,non_fall
6.10738,-2.4654,3.312,-0.7535,0.1124,-0.8101,-0.0531,15.311,22.4114,-36.234,,0.002578999999999887,4.197058899991755,3.7767675438847865,non_fall
6.109671,-2.4654,3.312,-0.7535,0.1124,-0.8101,-0.0531,15.311,22.4114,-36.234,,0.002290999999999599,4.197058899991755,3.823011647946526,non_fall
6.13351,-2.4654,3.312,-0.7535,0.1124,-0.8101,-0.0531,12.8222,21.838,-37.4418,,0.02383900000000061,4.197058899991755,3.829091521058797,non_fall
6.155166,-2.4654,3.312,-0.7535,0.2434,-0.1241,-0.2348,12.8222,21.838,-37.4418,,0.02165600000000012,4.197058899991755,3.7927484705418957,non_fall
6.16567,-2.4654,3.312,-0.7535,0.2434,-0.1241,-0.2348,12.8222,21.838,-37.4418,,0.010504000000000069,4.197058899991755,3.7158708076677374,non_fall
6.169373,-2.4654,3.312,-0.7535,0.2434,-0.1241,-0.2348,12.8222,21.838,-37.4418,,0.00370299999999979,4.197058899991755,3.604307450392703,non_fall
6.17142,-2.4654,3.312,-0.7535,0.2434,-0.1241,-0.2348,12.8222,21.838,-37.4418,,0.002047000000000132,4.197058899991755,3.467156500996516,non_fall
6.172872,0.2635,2.3157,-0.2755,0.2434,-0.1241,-0.2348,12.8222,21.838,-37.4418,,0.0014519999999995647,2.346870041139901,3.3156266507075474,non_fall
6.194273,0.2635,2.3157,-0.2755,0.2434,-0.1241,-0.2348,10.3212,21.35,-38.5154,,0.021401000000000003,2.346870041139901,3.161637764050397,non_fall
6.224974,0.2635,2.3157,-0.2755,-0.2252,0.6153,-0.6148,10.3212,21.35,-38.5154,,0.030700999999999645,2.346870041139901,3.0163803404555027,non_fall
6.231687,0.2635,2.3157,-0.2755,-0.2252,0.6153,-0.6148,10.3212,21.35,-38.5154,,0.006713000000000413,2.346870041139901,2.8890645010929004,non_fall
6.234412,0.2635,2.3157,-0.2755,-0.2252,0.6153,-0.6148,10.3212,21.35,-38.5154,,0.0027249999999998664,2.346870041139901,2.7860443746283043,non_fall
6.23663,0.2635,2.3157,-0.2755,-0.2252,0.6153,-0.6148,10.3212,21.35,-38.5154,,0.0022180000000000533,2.346870041139901,2.7104191467752883,non_fall
6.239343,0.3422,2.924,0.2738,-0.2252,0.6153,-0.6148,10.3212,21.35,-38.5154,,0.0027129999999999654,2.95666083276388,2.662117738443665,non_fall
6.25547,0.3422,2.924,0.2738,-0.2252,0.6153,-0.6148,8.2716,20.9474,-39.2718,,0.016127000000000002,2.95666083276388,2.6383923227318142,non_fall
6.294816,0.3422,2.924,0.2738,0.3956,0.0156,-0.1,8.2716,20.9474,-39.2718,,0.0393460000000001,2.95666083276388,2.6345884148136434,non_fall
6.298505,0.3422,2.924,0.2738,0.3956,0.0156,-0.1,8.2716,20.9474,-39.2718,,0.0036889999999996093,2.95666083276388,2.6450336195318997,non_fall
6.300472,0.3422,2.924,0.2738,0.3956,0.0156,-0.1,8.2716,20.9474,-39.2718,,0.001967000000000496,2.95666083276388,2.663894609220672,non_fall
6.30291,0.3422,2.924,0.2738,0.3956,0.0156,-0.1,8.2716,20.9474,-39.2718,,0.002437999999999718,2.95666083276388,2.685883988039604,non_fall
6.305071,0.3422,2.924,0.2738,0.3956,0.0156,-0.1,8.2716,20.9474,-39.2718,,0.0021610000000000795,2.95666083276388,2.706742339615839,non_fall
6.307263,0.3711,2.3045,1.2249,0.3956,0.0156,-0.1,8.2716,20.9474,-39.2718,,0.0021919999999999717,2.6360605967997017,2.7234663653506903,non_fall
6.317351,0.3711,2.3045,1.2249,0.3956,0.0156,-0.1,6.6368,20.4106,-40.0648,,0.010088000000000541,2.6360605967997017,2.7342963727168543,non_fall
6.365652,0.3711,2.3045,1.2249,0.5706,0.1635,-0.7758,6.6368,20.4106,-40.0648,,0.04830099999999948,2.6360605967997017,2.738510668438522,non_fall
6.370288,0.3711,2.3045,1.2249,0.5706,0.1635,-0.7758,6.6368,20.4106,-40.0648,,0.004636000000000529,2.6360605967997017,2.73609530283606,non_fall
6.373459,0.3711,2.3045,1.2249,0.5706,0.1635,-0.7758,6.6368,20.4106,-40.0648,,0.003171000000000035,2.6360605967997017,2.727362878983792,non_fall
6.375456,0.3711,2.3045,1.2249,0.5706,0.1635,-0.7758,6.6368,20.4106,-40.0648,,0.0019969999999993604,2.6360605967997017,2.712587201613593,non_fall
6.37709,0.3711,2.3045,1.2249,0.5706,0.1635,-0.7758,5.368,19.6054,-40.7724,,0.0016340000000001353,2.6360605967997017,2.691707641074015,non_fall
6.379421,-1.6915,-1.6951,0.5851,0.5706,0.1635,-0.7758,5.368,19.6054,-40.7724,,0.002330999999999861,2.4651325055663844,2.6641429006946553,non_fall
6.434352,-1.6915,-1.6951,0.5851,0.5706,0.1635,-0.7758,4.392,18.8368,-41.3946,,0.05493099999999984,2.4651325055663844,2.6287399895492682,non_fall
6.43827,-1.6915,-1.6951,0.5851,0.5522,0.379,0.1325,4.392,18.8368,-41.3946,,0.003918000000000532,2.4651325055663844,2.5838697387495775,non_fall
6.44026,-1.6915,-1.6951,0.5851,0.5522,0.379,0.1325,4.392,18.8368,-41.3946,,0.0019900000000001583,2.4651325055663844,2.52766331151436,non_fall
6.4418,-1.6915,-1.6951,0.5851,0.5522,0.379,0.1325,4.392,18.8368,-41.3946,,0.0015399999999994307,2.4651325055663844,2.4583645186139553,non_fall
6.443483,-1.6915,-1.6951,0.5851,0.5522,0.379,0.1325,4.392,18.8368,-41.3946,,0.001682999999999879,2.4651325055663844,2.3747530442667393,non_fall
6.445062,-1.6915,-1.6951,0.5851,0.5522,0.379,0.1325,4.392,18.8368,-41.3946,,0.0015790000000004412,2.4651325055663844,2.2765782337274754,non_fall
6.447016,0.6761,2.0581,-0.2221,0.5522,0.379,0.1325,4.392,18.8368,-41.3946,,0.001953999999999567,2.177662790700158,2.1649354619499674,non_fall
6.493964,0.6761,2.0581,-0.2221,0.5522,0.379,0.1325,3.9528,18.0926,-41.7362,,0.046948000000000434,2.177662790700158,2.04251871975755,non_fall
6.497447,0.6761,2.0581,-0.2221,0.5522,0.379,0.1325,3.9528,18.0926,-41.7362,,0.003483000000000125,2.177662790700158,1.9136926361746571,non_fall
6.499211,0.6761,2.0581,-0.2221,0.5522,0.379,0.1325,3.9528,18.0926,-41.7362,,0.0017639999999996547,2.177662790700158,1.784341933467846,non_fall
6.500738,0.6761,2.0581,-0.2221,0.5522,0.379,0.1325,3.9528,18.0926,-41.7362,,0.0015270000000002781,2.177662790700158,1.6614757084028426,non_fall
6.506346,0.6761,2.0581,-0.2221,0.3293,0.6085,-0.1389,3.9528,18.0926,-41.7362,,0.005607999999999613,2.177662790700158,1.552591743683528,non_fall
6.514937,0.0532,-0.8314,0.0443,0.3293,0.6085,-0.1389,3.9528,18.0926,-41.7362,,0.008591000000000015,0.834277345970751,1.4648470267355505,non_fall
6.553504,0.0532,-0.8314,0.0443,0.3293,0.6085,-0.1389,4.0992,17.3972,-42.0046,,0.03856700000000046,0.834277345970751,1.404132536186708,non_fall
6.565668,0.0532,-0.8314,0.0443,0.3293,0.6085,-0.1389,4.0992,17.3972,-42.0046,,0.012163999999999398,0.834277345970751,1.3741973062395911,non_fall
6.568821,0.0532,-0.8314,0.0443,0.3293,0.6085,-0.1389,4.0992,17.3972,-42.0046,,0.0031530000000001834,0.834277345970751,1.3759845087537395,non_fall
6.571784,0.0532,-0.8314,0.0443,0.3293,0.6085,-0.1389,4.0992,17.3972,-42.0046,,0.002963000000000271,0.834277345970751,1.4073165792770903,non_fall
6.573763,0.0532,-0.8314,0.0443,0.226,-0.2297,0.4173,4.0992,17.3972,-42.0046,,0.001978999999999509,0.834277345970751,1.4630046453413441,non_fall
6.584198,-0.6385,1.9872,0.2311,0.226,-0.2297,0.4173,4.0992,17.3972,-42.0046,,0.010435000000000194,2.100012690437846,1.5353785500363986,non_fall
6.613646,-0.6385,1.9872,0.2311,0.226,-0.2297,0.4173,4.4408,16.7262,-42.3096,,0.029448000000000363,2.100012690437846,1.6151544821540667,non_fall
6.63223,-0.6385,1.9872,0.2311,0.226,-0.2297,0.4173,4.4408,16.7262,-42.3096,,0.018583999999999712,2.100012690437846,1.6924942215493057,non_fall
6.63491,-0.6385,1.9872,0.2311,0.226,-0.2297,0.4173,4.4408,16.7262,-42.3096,,0.0026799999999997937,2.100012690437846,1.7580818238937888,non_fall
6.636945,-0.6385,1.9872,0.2311,0.226,-0.2297,0.4173,4.4408,16.7262,-42.3096,,0.002035000000000231,2.100012690437846,1.8040584412444467,non_fall
6.639265,-0.6385,1.9872,0.2311,0.226,-0.2297,0.4173,4.4408,16.7262,-42.3096,,0.0023200000000000998,2.100012690437846,1.8247023140377385,non_fall
6.643742,-0.6385,1.9872,0.2311,0.0735,0.2033,-0.0687,4.4408,16.7262,-42.3096,,0.00447699999999962,2.100012690437846,1.8167979846310274,non_fall
6.654422,-0.0086,-1.4454,0.1051,0.0735,0.2033,-0.0687,4.4408,16.7262,-42.3096,,0.010680000000000689,1.4492415706154718,1.779692602600238,non_fall
6.671176,-0.0086,-1.4454,0.1051,0.0735,0.2033,-0.0687,4.9166,16.0674,-42.517,,0.016753999999999714,1.4492415706154718,1.7150825133488474,non_fall
6.699159,-0.0086,-1.4454,0.1051,0.0735,0.2033,-0.0687,4.9166,16.0674,-42.517,,0.02798299999999987,1.4492415706154718,1.6266051403838013,non_fall
6.702194,-0.0086,-1.4454,0.1051,0.0735,0.2033,-0.0687,4.9166,16.0674,-42.517,,0.003035000000000565,1.4492415706154718,1.519322618043173,non_fall
6.704515,-0.0086,-1.4454,0.1051,0.0735,0.2033,-0.0687,4.9166,16.0674,-42.517,,0.0023209999999993514,1.4492415706154718,1.39917338545013,non_fall
6.713373,-0.0086,-1.4454,0.1051,0.2354,-0.5856,0.2871,4.9166,16.0674,-42.517,,0.008858000000000033,1.4492415706154718,1.2724453367139668,non_fall
6.723756,-0.5784,0.3337,0.524,0.2354,-0.5856,0.2871,4.9166,16.0674,-42.517,,0.010383000000000031,0.848809902157132,1.1453030444357903,non_fall
6.7312,-0.5784,0.3337,0.524,0.2354,-0.5856,0.2871,5.1606,15.2744,-42.822,,0.00744400000000045,0.848809902157132,1.0233900080760003,non_fall
6.765764,-0.5784,0.3337,0.524,0.2354,-0.5856,0.2871,5.1606,15.2744,-42.822,,0.034563999999999595,0.848809902157132,0.9115222942322846,non_fall
6.768826,-0.5784,0.3337,0.524,0.2354,-0.5856,0.2871,5.1606,15.2744,-42.822,,0.003061999999999898,0.848809902157132,0.81348373149279,non_fall
6.77099,-0.5784,0.3337,0.524,0.2354,-0.5856,0.2871,5.1606,15.2744,-42.822,,0.002164000000000499,0.848809902157132,0.7319201331240823,non_fall
6.782789,-0.5784,0.3337,0.524,-0.0762,-0.1931,-0.1174,5.1606,15.2744,-42.822,,0.011798999999999893,0.848809902157132,0.6683151726185174,non_fall
6.79265,-0.5784,0.3337,0.524,-0.0762,-0.1931,-0.1174,5.246,14.5058,-43.0416,,0.009860999999999898,0.848809902157132,0.6230221563814248,non_fall
6.79632,0.0364,-0.1982,0.4228,-0.0762,-0.1931,-0.1174,5.246,14.5058,-43.0416,,0.003669999999999618,0.46836741987461084,0.5953290065368311,non_fall
6.833445,0.0364,-0.1982,0.4228,-0.0762,-0.1931,-0.1174,5.246,14.5058,-43.0416,,0.03712500000000052,0.46836741987461084,0.5835468653051089,non_fall
6.838095,0.0364,-0.1982,0.4228,-0.0762,-0.1931,-0.1174,5.246,14.5058,-43.0416,,0.004649999999999821,0.46836741987461084,0.5851291241594975,non_fall
6.839764,0.0364,-0.1982,0.4228,-0.0762,-0.1931,-0.1174,5.246,14.5058,-43.0416,,0.0016689999999996985,0.46836741987461084,0.5968383977504272,non_fall
6.841563,0.0364,-0.1982,0.4228,-0.0762,-0.1931,-0.1174,5.246,14.5058,-43.0416,,0.001799000000000106,0.46836741987461084,0.6149783004394542,non_fall
6.85106,0.0364,-0.1982,0.4228,-0.0762,-0.1931,-0.1174,5.368,13.9324,-43.2124,,0.009497000000000533,0.46836741987461084,0.6356957158033535,non_fall
6.853876,0.0364,-0.1982,0.4228,0.019,-0.3257,0.0241,5.368,13.9324,-43.2124,,0.0028159999999992635,0.46836741987461084,0.6553419815585477,non_fall
6.861458,0.7821,-0.4657,-0.3514,0.019,-0.3257,0.0241,5.368,13.9324,-43.2124,,0.0075820000000002,0.9757247870173229,0.6708613972553945,non_fall
6.901588,0.7821,-0.4657,-0.3514,0.019,-0.3257,0.0241,5.368,13.9324,-43.2124,,0.04013000000000044,0.9757247870173229,0.6801554391542031,non_fall
6.903329,0.7821,-0.4657,-0.3514,0.019,-0.3257,0.0241,5.368,13.9324,-43.2124,,0.0017409999999999926,0.9757247870173229,0.6823568757440608,non_fall
6.90409,0.7821,-0.4657,-0.3514,0.019,-0.3257,0.0241,5.368,13.9324,-43.2124,,0.0007609999999997896,0.9757247870173229,0.6779481468356436,non_fall
6.911244,0.7821,-0.4657,-0.3514,0.019,-0.3257,0.0241,5.2826,13.5176,-43.3466,,0.007153999999999883,0.9757247870173229,0.6686776141158614,non_fall
6.920436,0.7821,-0.4657,-0.3514,0.1806,-0.3016,-0.1028,5.2826,13.5176,-43.3466,,0.009191999999999645,0.9757247870173229,0.6572621540114056,non_fall
6.930908,-0.1955,0.1956,-0.04,0.1806,-0.3016,-0.1028,5.2826,13.5176,-43.3466,,0.010472000000000037,0.2794272892900763,0.6469070623727043,non_fall
6.96625,-0.1955,0.1956,-0.04,0.1806,-0.3016,-0.1028,5.2826,13.5176,-43.3466,,0.035341999999999985,0.2794272892900763,0.6407162616354065,non_fall
6.967969,-0.1955,0.1956,-0.04,0.1806,-0.3016,-0.1028,5.2826,13.5176,-43.3466,,0.0017190000000004702,0.2794272892900763,0.6410975469972898,non_fall
6.96889,-0.1955,0.1956,-0.04,0.1806,-0.3016,-0.1028,5.2826,13.5176,-43.3466,,0.0009209999999999496,0.2794272892900763,0.6492774328050827,non_fall
6.969776,-0.1955,0.1956,-0.04,0.1806,-0.3016,-0.1028,4.9776,13.2126,-43.3832,,0.0008860000000003865,0.2794272892900763,0.6650221166896634,non_fall
6.990704,-0.1955,0.1956,-0.04,-0.1415,-0.1422,-0.0142,4.9776,13.2126,-43.3832,,0.020927999999999614,0.2794272892900763,0.6866204337446776,non_fall
7.000253,0.8764,-0.4038,-0.3426,-0.1415,-0.1422,-0.0142,4.9776,13.2126,-43.3832,,0.009548999999999808,1.0239658978696506,0.7111326389877882,non_fall
7.030219,0.8764,-0.4038,-0.3426,-0.1415,-0.1422,-0.0142,4.4408,13.0296,-43.432,,0.029965999999999937,1.0239658978696506,0.734855842332958,non_fall
7.033407,0.8764,-0.4038,-0.3426,-0.1415,-0.1422,-0.0142,4.4408,13.0296,-43.432,,0.0031880000000006348,1.0239658978696506,0.7539137464103937,non_fall
7.035184,0.8764,-0.4038,-0.3426,-0.1415,-0.1422,-0.0142,4.4408,13.0296,-43.432,,0.0017769999999996955,1.0239658978696506,0.7648571077849318,non_fall
7.036374,0.8764,-0.4038,-0.3426,-0.1415,-0.1422,-0.0142,4.4408,13.0296,-43.432,,0.0011900000000002464,1.0239658978696506,0.7651679249832739,non_fall
7.037765,0.8764,-0.4038,-0.3426,-0.1415,-0.1422,-0.0142,4.4408,13.0296,-43.432,,0.00139099999999992,1.0239658978696506,0.7535886950925795,non_fall
7.061083,0.8764,-0.4038,-0.3426,0.0111,-0.1795,-0.0752,4.4408,13.0296,-43.432,,0.023317999999999728,1.0239658978696506,0.7302364192555595,non_fall
7.070598,-0.0845,-0.3989,-0.0612,0.0111,-0.1795,-0.0752,4.4408,13.0296,-43.432,,0.009515000000000384,0.41231892995592617,0.6965012545799911,non_fall
7.091317,-0.0845,-0.3989,-0.0612,0.0111,-0.1795,-0.0752,3.7942,12.9198,-43.493,,0.02071899999999971,0.41231892995592617,0.6547675960123879,non_fall
7.098302,-0.0845,-0.3989,-0.0612,0.0111,-0.1795,-0.0752,3.7942,12.9198,-43.493,,0.006985000000000241,0.41231892995592617,0.6080248175903625,non_fall
7.101042,-0.0845,-0.3989,-0.0612,0.0111,-0.1795,-0.0752,3.7942,12.9198,-43.493,,0.0027399999999992986,0.41231892995592617,0.5594473258437385,non_fall
7.104147,-0.0845,-0.3989,-0.0612,0.0111,-0.1795,-0.0752,3.7942,12.9198,-43.493,,0.0031050000000005795,0.41231892995592617,0.5120153195615117,non_fall
7.135448,-0.0845,-0.3989,-0.0612,0.0166,-0.1092,-0.0077,3.7942,12.9198,-43.493,,0.03130100000000002,0.41231892995592617,0.4682249338060183,non_fall
7.141002,0.3788,-0.0103,0.1524,0.0166,-0.1092,-0.0077,3.7942,12.9198,-43.493,,0.005554000000000059,0.4084376206962332,0.42991019428341043,non_fall
7.151227,0.3788,-0.0103,0.1524,0.0166,-0.1092,-0.0077,3.0988,12.8466,-43.5662,,0.010224999999999262,0.4084376206962332,0.39817698892469455,non_fall
7.165658,0.3788,-0.0103,0.1524,0.0166,-0.1092,-0.0077,3.0988,12.8466,-43.5662,,0.014431000000000083,0.4084376206962332,0.37343347161456564,non_fall
7.169206,0.3788,-0.0103,0.1524,0.0166,-0.1092,-0.0077,3.0988,12.8466,-43.5662,,0.0035480000000003287,0.4084376206962332,0.35549178757788374,non_fall
7.171614,0.3788,-0.0103,0.1524,0.0166,-0.1092,-0.0077,3.0988,12.8466,-43.5662,,0.0024079999999999657,0.4084376206962332,0.34371198997272834,non_fall
7.201314,0.3788,-0.0103,0.1524,0.0352,-0.1245,-0.0545,3.0988,12.8466,-43.5662,,0.02970000000000006,0.4084376206962332,0.33715963466708565,non_fall
7.211283,0.3788,-0.0103,0.1524,0.0352,-0.1245,-0.0545,2.501,12.7978,-43.5296,,0.009968999999999895,0.4084376206962332,0.3347528831945414,non_fall
7.214824,0.0052,-0.3245,0.0565,0.0352,-0.1245,-0.0545,2.501,12.7978,-43.5296,,0.0035410000000002384,0.3294230410885068,0.3353820434811012,non_fall
7.233195,0.0052,-0.3245,0.0565,0.0352,-0.1245,-0.0545,2.501,12.7978,-43.5296,,0.018371000000000137,0.3294230410885068,0.3379931277791929,non_fall
7.236085,0.0052,-0.3245,0.0565,0.0352,-0.1245,-0.0545,2.501,12.7978,-43.5296,,0.002889999999999837,0.3294230410885068,0.34163549677013627,non_fall
7.23861,0.0052,-0.3245,0.0565,0.0352,-0.1245,-0.0545,2.501,12.7978,-43.5296,,0.0025250000000003325,0.3294230410885068,0.3454800460372355,non_fall
7.241728,0.0052,-0.3245,0.0565,0.0352,-0.1245,-0.0545,2.501,12.7978,-43.5296,,0.003117999999999732,0.3294230410885068,0.3488175487540617,non_fall
7.271128,0.0052,-0.3245,0.0565,0.0352,-0.1245,-0.0545,2.0374,12.7368,-43.5052,,0.02939999999999987,0.3294230410885068,0.35104703875195986,non_fall
7.275391,0.0052,-0.3245,0.0565,0.1021,-0.0723,-0.027,2.0374,12.7368,-43.5052,,0.004262999999999906,0.3294230410885068,0.35166264324453395,non_fall
7.281003,0.1757,-0.1764,0.2314,0.1021,-0.0723,-0.027,2.0374,12.7368,-43.5052,,0.005612000000000172,0.339902059423005,0.350244952588412,non_fall
7.300074,0.1757,-0.1764,0.2314,0.1021,-0.0723,-0.027,2.0374,12.7368,-43.5052,,0.019071000000000282,0.339902059423005,0.3464602792198097,non_fall
7.302877,0.1757,-0.1764,0.2314,0.1021,-0.0723,-0.027,2.0374,12.7368,-43.5052,,0.0028029999999992228,0.339902059423005,0.34006833515135004,non_fall
7.304854,0.1757,-0.1764,0.2314,0.1021,-0.0723,-0.027,2.0374,12.7368,-43.5052,,0.0019770000000001176,0.339902059423005,0.3309363540284941,non_fall
7.330584,0.1757,-0.1764,0.2314,0.1021,-0.0723,-0.027,1.5616,12.6514,-43.4808,,0.025730000000000253,0.339902059423005,0.3190558832847665,non_fall
7.342655,0.1757,-0.1764,0.2314,0.0679,-0.0834,-0.0292,1.5616,12.6514,-43.4808,,0.01207099999999972,0.339902059423005,0.30455763311621087,non_fall
7.351029,0.2229,-0.0993,0.074,0.0679,-0.0834,-0.0292,1.5616,12.6514,-43.4808,,0.008373999999999882,0.2549919606575862,0.2877200473608405,non_fall
7.365868,0.2229,-0.0993,0.074,0.0679,-0.0834,-0.0292,1.5616,12.6514,-43.4808,,0.014839000000000269,0.2549919606575862,0.2689685770886475,non_fall
7.369107,0.2229,-0.0993,0.074,0.0679,-0.0834,-0.0292,1.5616,12.6514,-43.4808,,0.00323899999999977,0.2549919606575862,0.24886433439000769,non_fall
7.371747,0.2229,-0.0993,0.074,0.0679,-0.0834,-0.0292,1.5616,12.6514,-43.4808,,0.00264000000000042,0.2549919606575862,0.2280818372264181,non_fall
7.390251,0.2229,-0.0993,0.074,0.0679,-0.0834,-0.0292,1.1468,12.566,-43.5784,,0.018504000000000076,0.2549919606575862,0.2073755534429536,non_fall
7.410669,0.2229,-0.0993,0.074,0.0574,-0.0636,-0.0152,1.1468,12.566,-43.5784,,0.02041800000000027,0.2549919606575862,0.1875348920920766,non_fall
7.420817,0.0716,-0.0308,0.0732,0.0574,-0.0636,-0.0152,1.1468,12.566,-43.5784,,0.010148000000000046,0.10692726499822204,0.16932868927459235,non_fall
7.432847,0.0716,-0.0308,0.0732,0.0574,-0.0636,-0.0152,1.1468,12.566,-43.5784,,0.012029999999999319,0.10692726499822204,0.1534435793720602,non_fall
7.437006,0.0716,-0.0308,0.0732,0.0574,-0.0636,-0.0152,1.1468,12.566,-43.5784,,0.004159000000000468,0.10692726499822204,0.14042450589308128,non_fall
7.439241,0.0716,-0.0308,0.0732,0.0574,-0.0636,-0.0152,1.1468,12.566,-43.5784,,0.002234999999999765,0.10692726499822204,0.1306274640941696,non_fall
7.441348,0.0716,-0.0308,0.0732,0.0574,-0.0636,-0.0152,1.1468,12.566,-43.5784,,0.002106999999999637,0.10692726499822204,0.12419290984740193,non_fall
7.449596,0.0716,-0.0308,0.0732,0.0574,-0.0636,-0.0152,0.8174,12.5416,-43.7126,,0.008248000000000033,0.10692726499822204,0.12104401679968138,non_fall
7.481435,0.0716,-0.0308,0.0732,0.0581,-0.0489,-0.0116,0.8174,12.5416,-43.7126,,0.03183900000000062,0.10692726499822204,0.12090917490803729,non_fall
7.491869,0.1295,-0.0874,0.0254,0.0581,-0.0489,-0.0116,0.8174,12.5416,-43.7126,,0.010434000000000054,0.1582850908961422,0.12336413138159139,non_fall
7.498978,0.1295,-0.0874,0.0254,0.0581,-0.0489,-0.0116,0.8174,12.5416,-43.7126,,0.00710899999999981,0.1582850908961422,0.12788633014570658,non_fall
7.501972,0.1295,-0.0874,0.0254,0.0581,-0.0489,-0.0116,0.8174,12.5416,-43.7126,,0.002994000000000163,0.1582850908961422,0.1339125355666716,non_fall
7.503846,0.1295,-0.0874,0.0254,0.0581,-0.0489,-0.0116,0.8174,12.5416,-43.7126,,0.0018739999999999313,0.1582850908961422,0.14089114949865048,non_fall
7.510682,0.1295,-0.0874,0.0254,0.0581,-0.0489,-0.0116,0.5612,12.444,-43.8224,,0.006835999999999842,0.1582850908961422,0.1483227958624938,non_fall
7.549177,0.1295,-0.0874,0.0254,0.0965,-0.0585,-0.0083,0.5612,12.444,-43.8224,,0.03849500000000017,0.1582850908961422,0.15578601759463312,non_fall
