time,ax,ay,az,wx,wy,wz,Bx,By,Bz,Unnamed: 10,time_diff,acc_mag,acc_mag_filtered,label
0.023347,0.1225,-0.201,-0.2075,0.0,0.0,0.0,0.0,0.0,0.0,,0.0,0.3137889418064314,0.294200244148026,non_fall
0.042051,0.1225,-0.201,-0.2075,0.0,0.0,0.0,0.0,0.0,0.0,,0.018704,0.3137889418064314,0.2391961473992359,non_fall
0.043038,0.1085,-0.1206,-0.1,0.0,0.0,0.0,0.0,0.0,0.0,,0.0009870000000000018,0.19056917379261526,0.19988624033271876,non_fall
0.062135,0.1052,-0.1599,-0.0762,0.0,0.0,0.0,0.0,0.0,0.0,,0.019097000000000003,0.20601332481177037,0.18619491797849574,non_fall
0.063269,0.1052,-0.1599,-0.0762,0.0,0.0,0.0,-16.3688,-4.8938,44.0438,,0.001134000000000003,0.20601332481177037,0.2061347084072782,non_fall
0.067,0.1052,-0.1599,-0.0762,-0.0065,0.0012,-0.012,-16.3688,-4.8938,44.0438,,0.003730999999999998,0.20601332481177037,0.2651925465859897,non_fall
0.082066,0.0517,-0.1297,-0.1434,-0.0065,0.0012,-0.012,-16.3688,-4.8938,44.0438,,0.015065999999999996,0.2001462964933401,0.365852244395288,non_fall
0.090493,0.0517,-0.1297,-0.1434,-0.0065,0.0012,-0.012,-16.3688,-4.8938,44.0438,,0.008427000000000004,0.2001462964933401,0.5072946681174288,non_fall
0.0997,0.0477,-0.1594,-0.1455,-0.0065,0.0012,-0.012,-16.3688,-4.8938,44.0438,,0.009206999999999993,0.22102918359347934,0.6853148226720213,non_fall
0.119587,0.0196,0.2417,-0.2377,-0.0065,0.0012,-0.012,-16.3688,-4.8938,44.0438,,0.019887000000000002,0.3395649275175515,0.8924887229648136,non_fall
0.123101,0.0196,0.2417,-0.2377,-0.0065,0.0012,-0.012,-16.2563,-5.1,44.1375,,0.0035140000000000032,0.3395649275175515,1.1186106169989034,non_fall
0.128334,0.0196,0.2417,-0.2377,0.0191,0.0232,0.0895,-16.2563,-5.1,44.1375,,0.0052330000000000015,0.3395649275175515,1.3514012063010896,non_fall
0.138081,0.0196,0.2417,-0.2377,0.0191,0.0232,0.0895,-16.2563,-5.1,44.1375,,0.009747000000000006,0.3395649275175515,1.5774588071489875,non_fall
0.13903,-0.8222,2.2141,1.4825,0.0191,0.0232,0.0895,-16.2563,-5.1,44.1375,,0.0009489999999999776,2.78855839099704,1.7833872130776482,non_fall
0.157608,1.3147,-3.9744,-0.9733,0.0191,0.0232,0.0895,-16.2563,-5.1,44.1375,,0.01857800000000001,4.297860437473511,1.956989327083685,non_fall
0.176387,-0.2815,-1.8337,-2.5292,0.0191,0.0232,0.0895,-16.2563,-5.1,44.1375,,0.01877899999999999,3.136646390653559,2.0883774943937965,non_fall
0.182166,-0.2815,-1.8337,-2.5292,0.0191,0.0232,0.0895,-16.275,-4.8188,44.4563,,0.005779000000000006,3.136646390653559,2.170841934653107,non_fall
0.18719,-0.2815,-1.8337,-2.5292,0.0191,0.0232,0.0895,-16.275,-4.8188,44.4563,,0.005024000000000001,3.136646390653559,2.2013518181067226,non_fall
0.190932,-0.2815,-1.8337,-2.5292,-0.3583,0.369,-0.2501,-16.275,-4.8188,44.4563,,0.0037419999999999953,3.136646390653559,2.1806300057037857,non_fall
0.196899,0.3236,0.2216,0.1273,-0.3583,0.369,-0.2501,-16.275,-4.8188,44.4563,,0.005967,0.41234549833846856,2.1128180602080806,non_fall
0.215197,0.3714,0.4654,1.4717,-0.3583,0.369,-0.2501,-16.275,-4.8188,44.4563,,0.01829800000000001,1.587588110940618,2.004812887851581,non_fall
0.233876,0.3714,0.4654,1.4717,-0.3583,0.369,-0.2501,-16.275,-4.8188,44.4563,,0.018679,1.587588110940618,1.8653983338804863,non_fall
0.23479,-0.0725,0.8148,0.6393,-0.3583,0.369,-0.2501,-16.275,-4.8188,44.4563,,0.0009139999999999981,1.0382002600654654,1.704306659045603,non_fall
0.242624,-0.0725,0.8148,0.6393,-0.3583,0.369,-0.2501,-16.1813,-4.8,43.9313,,0.007834000000000008,1.0382002600654654,1.5313282547080338,non_fall
0.252731,-0.0725,0.8148,0.6393,0.1694,-0.0965,0.0956,-16.1813,-4.8,43.9313,,0.010106999999999977,1.0382002600654654,1.3555566100635705,non_fall
0.25377,0.1089,0.2874,-0.8799,0.1694,-0.0965,0.0956,-16.1813,-4.8,43.9313,,0.0010390000000000121,0.9320311046311706,1.1848222232557553,non_fall
0.272825,-0.1152,-0.3529,-0.7592,0.1694,-0.0965,0.0956,-16.1813,-4.8,43.9313,,0.01905499999999999,0.8451000473316754,1.0253384097504796,non_fall
0.280559,-0.1152,-0.3529,-0.7592,0.1694,-0.0965,0.0956,-16.1813,-4.8,43.9313,,0.007734000000000019,0.8451000473316754,0.8815547215597512,non_fall
0.291139,0.1472,-0.9503,0.0995,0.1694,-0.0965,0.0956,-16.1813,-4.8,43.9313,,0.010579999999999978,0.9667668695192239,0.7561914985125531,non_fall
0.301776,0.1472,-0.9503,0.0995,0.1694,-0.0965,0.0956,-15.5813,-4.8,43.7063,,0.010637000000000008,0.9667668695192239,0.6504133634855406,non_fall
0.310224,0.1607,-0.7178,0.2975,0.1694,-0.0965,0.0956,-15.5813,-4.8,43.7063,,0.008448000000000011,0.7934529475652605,0.5640912118842377,non_fall
0.314842,0.1607,-0.7178,0.2975,0.0131,0.0135,-0.0742,-15.5813,-4.8,43.7063,,0.004618000000000011,0.7934529475652605,0.49610225230751615,non_fall
0.32902,0.1607,-0.7178,0.2975,0.0131,0.0135,-0.0742,-15.5813,-4.8,43.7063,,0.014177999999999968,0.7934529475652605,0.4446255543191965,non_fall
0.330027,0.1756,-0.0515,-0.0779,0.0131,0.0135,-0.0742,-15.5813,-4.8,43.7063,,0.0010070000000000356,0.1988869528149094,0.4074040540831053,non_fall
0.349333,0.1066,0.1353,-0.2796,0.0131,0.0135,-0.0742,-15.5813,-4.8,43.7063,,0.01930599999999999,0.32839885809789293,0.3819596528051883,non_fall
0.361337,0.1066,0.1353,-0.2796,0.0131,0.0135,-0.0742,-15.6938,-4.725,44.1188,,0.012004000000000015,0.32839885809789293,0.36576213209560526,non_fall
0.368474,0.0367,-0.1479,-0.0922,0.0131,0.0135,-0.0742,-15.6938,-4.725,44.1188,,0.0071370000000000045,0.17810710260963766,0.35636158976568694,non_fall
0.377389,0.0367,-0.1479,-0.0922,0.0131,0.0135,-0.0742,-15.6938,-4.725,44.1188,,0.00891499999999995,0.17810710260963766,0.3514964979434046,non_fall
0.380261,0.0367,-0.1479,-0.0922,0.0386,0.0159,0.01,-15.6938,-4.725,44.1188,,0.002872000000000041,0.17810710260963766,0.34918661513016075,non_fall
0.386587,0.0674,-0.5037,0.0796,0.0386,0.0159,0.01,-15.6938,-4.725,44.1188,,0.006325999999999998,0.514385662708439,0.3478139930411502,non_fall
0.407519,0.1695,-0.5512,0.0145,0.0386,0.0159,0.01,-15.6938,-4.725,44.1188,,0.020932000000000006,0.5768552158037579,0.3461878747182682,non_fall
0.421741,0.1695,-0.5512,0.0145,0.0386,0.0159,0.01,-16.275,-4.7063,43.9313,,0.014221999999999957,0.5768552158037579,0.3435827407458576,non_fall
0.425113,0.1695,-0.5512,0.0145,0.0386,0.0159,0.01,-16.275,-4.7063,43.9313,,0.0033720000000000416,0.5768552158037579,0.3397365169851155,non_fall
0.42695,0.144,-0.2663,-0.0735,0.0386,0.0159,0.01,-16.275,-4.7063,43.9313,,0.0018369999999999775,0.31153481346392087,0.33480015097435323,non_fall
0.438544,0.144,-0.2663,-0.0735,0.0411,-0.0122,-0.0033,-16.275,-4.7063,43.9313,,0.011593999999999993,0.31153481346392087,0.32923924398006216,non_fall
0.444117,0.0652,0.0903,-0.1045,0.0411,-0.0122,-0.0033,-16.275,-4.7063,43.9313,,0.005572999999999995,0.15272648755209425,0.3236993943814289,non_fall
0.463184,-0.0364,0.1991,0.0583,0.0411,-0.0122,-0.0033,-16.275,-4.7063,43.9313,,0.019067,0.21062920025485546,0.3188552560759391,non_fall
0.473127,-0.0364,0.1991,0.0583,0.0411,-0.0122,-0.0033,-16.275,-4.7063,43.9313,,0.009943000000000035,0.21062920025485546,0.31526661591592897,non_fall
0.481488,-0.0364,0.1991,0.0583,0.0411,-0.0122,-0.0033,-16.1813,-4.6125,44.1375,,0.008361000000000007,0.21062920025485546,0.31326298978987327,non_fall
0.482603,-0.0743,-0.0162,0.0947,0.0411,-0.0122,-0.0033,-16.1813,-4.6125,44.1375,,0.0011149999999999771,0.12145377721586102,0.31287296317502516,non_fall
0.501363,-0.0743,-0.0162,0.0947,-0.0419,-0.0183,0.0052,-16.1813,-4.6125,44.1375,,0.01876,0.12145377721586102,0.3138076157968673,non_fall
0.505027,0.0818,-0.2841,-0.042,-0.0419,-0.0183,0.0052,-16.1813,-4.6125,44.1375,,0.0036640000000000006,0.2986101974146228,0.31549976012500897,non_fall
0.520245,0.0818,-0.2841,-0.042,-0.0419,-0.0183,0.0052,-16.1813,-4.6125,44.1375,,0.015217999999999954,0.2986101974146228,0.31719244617597453,non_fall
0.521317,0.2052,-0.4776,-0.0913,-0.0419,-0.0183,0.0052,-16.1813,-4.6125,44.1375,,0.001072000000000073,0.527773142552745,0.31806176590491986,non_fall
0.540763,0.176,-0.5069,-0.0661,-0.0419,-0.0183,0.0052,-16.1813,-4.6125,44.1375,,0.019445999999999963,0.540641119412869,0.3173522230222571,non_fall
0.543711,0.176,-0.5069,-0.0661,-0.0419,-0.0183,0.0052,-15.8813,-4.7438,44.4375,,0.0029480000000000617,0.540641119412869,0.31450013666279486,non_fall
0.559182,0.0596,-0.3552,-0.0594,-0.0419,-0.0183,0.0052,-15.8813,-4.7438,44.4375,,0.015470999999999901,0.365030902801393,0.30922314802465,non_fall
0.563622,0.0596,-0.3552,-0.0594,0.0179,-0.0048,-0.0045,-15.8813,-4.7438,44.4375,,0.0044399999999999995,0.365030902801393,0.30156145541807017,non_fall
0.567617,0.0596,-0.3552,-0.0594,0.0179,-0.0048,-0.0045,-15.8813,-4.7438,44.4375,,0.003995000000000082,0.365030902801393,0.29186654967885844,non_fall
0.578337,0.007,-0.1961,-0.0772,0.0179,-0.0048,-0.0045,-15.8813,-4.7438,44.4375,,0.010719999999999952,0.21086500420885396,0.28074290802553586,non_fall
0.597857,-0.0088,-0.1307,-0.0983,0.0179,-0.0048,-0.0045,-15.8813,-4.7438,44.4375,,0.019519999999999982,0.16377673827500658,0.26895532647901266,non_fall
0.602923,-0.0088,-0.1307,-0.0983,0.0179,-0.0048,-0.0045,-15.4875,-5.0063,43.8,,0.005066000000000015,0.16377673827500658,0.25731876905725043,non_fall
0.615529,-0.0088,-0.1307,-0.0983,0.0179,-0.0048,-0.0045,-15.4875,-5.0063,43.8,,0.012606000000000006,0.16377673827500658,0.24658873661841899,non_fall
0.616578,0.0419,-0.0902,-0.0954,0.0179,-0.0048,-0.0045,-15.4875,-5.0063,43.8,,0.0010489999999999666,0.13781440418185611,0.23736828873271745,non_fall
0.624891,0.0419,-0.0902,-0.0954,-0.0029,-0.0122,-0.001,-15.4875,-5.0063,43.8,,0.008313000000000015,0.13781440418185611,0.23004365202057903,non_fall
0.63611,0.0519,-0.1386,-0.1032,-0.0029,-0.0122,-0.001,-15.4875,-5.0063,43.8,,0.011218999999999979,0.1804267441373368,0.22475495944730547,non_fall
0.654369,0.0903,-0.2043,-0.0975,-0.0029,-0.0122,-0.001,-15.4875,-5.0063,43.8,,0.018259000000000025,0.24371875184318503,0.22140302992268412,non_fall
0.662236,0.0903,-0.2043,-0.0975,-0.0029,-0.0122,-0.001,-15.7875,-4.8188,43.9125,,0.007867000000000068,0.24371875184318503,0.21968785900696425,non_fall
0.663491,0.0903,-0.2043,-0.0975,-0.0029,-0.0122,-0.001,-15.7875,-4.8188,43.9125,,0.0012550000000000061,0.24371875184318503,0.21917035668005722,non_fall
0.6738,0.0831,-0.2607,-0.0913,-0.0029,-0.0122,-0.001,-15.7875,-4.8188,43.9125,,0.010308999999999902,0.2884541384691854,0.21934650581853593,non_fall
0.688059,0.0831,-0.2607,-0.0913,-0.0102,0.0062,-0.0022,-15.7875,-4.8188,43.9125,,0.014259000000000022,0.2884541384691854,0.21972269101987307,non_fall
0.69371,0.0534,-0.2398,-0.0726,-0.0102,0.0062,-0.0022,-15.7875,-4.8188,43.9125,,0.005651000000000073,0.25617642358343595,0.2198821132209989,non_fall
0.712349,0.0534,-0.2398,-0.0726,-0.0102,0.0062,-0.0022,-15.7875,-4.8188,43.9125,,0.01863899999999996,0.25617642358343595,0.21953450411692932,non_fall
0.71515,-0.0056,-0.2446,-0.0895,-0.0102,0.0062,-0.0022,-15.7875,-4.8188,43.9125,,0.0028009999999999424,0.2605201911560791,0.21854435403188074,non_fall
0.721858,-0.0056,-0.2446,-0.0895,-0.0102,0.0062,-0.0022,-15.675,-4.9125,44.025,,0.006708000000000047,0.2605201911560791,0.21693606326124773,non_fall
0.732267,-0.0061,-0.1849,-0.0891,-0.0102,0.0062,-0.0022,-15.675,-4.9125,44.025,,0.010409000000000002,0.20533881756745365,0.21487739998386693,non_fall
0.750112,-0.0061,-0.1849,-0.0891,-0.0162,-0.006,0.0003,-15.675,-4.9125,44.025,,0.017845,0.20533881756745365,0.2126452466432087,non_fall
0.751335,-0.029,-0.1306,-0.0627,-0.0162,-0.006,0.0003,-15.675,-4.9125,44.025,,0.001222999999999974,0.14774521988883432,0.2105797469044964,non_fall
0.759358,-0.029,-0.1306,-0.0627,-0.0162,-0.006,0.0003,-15.675,-4.9125,44.025,,0.008023000000000002,0.14774521988883432,0.20903431146846257,non_fall
0.769692,-0.0315,-0.1368,-0.0772,-0.0162,-0.006,0.0003,-15.675,-4.9125,44.025,,0.010334000000000065,0.1602071471564237,0.20832908114174076,non_fall
0.781106,-0.0315,-0.1368,-0.0772,-0.0162,-0.006,0.0003,-15.5813,-5.25,44.6438,,0.011413999999999924,0.1602071471564237,0.20871418844282166,non_fall
0.7892,-0.0338,-0.1532,-0.1353,-0.0162,-0.006,0.0003,-15.5813,-5.25,44.6438,,0.008094000000000046,0.207168458023899,0.21034673987551278,non_fall
0.808937,-0.0338,-0.1532,-0.1353,-0.0162,-0.006,0.0003,-15.5813,-5.25,44.6438,,0.019737000000000005,0.207168458023899,0.21328246314863641,non_fall
0.811892,-0.0032,-0.1988,-0.1754,-0.0162,-0.006,0.0003,-15.5813,-5.25,44.6438,,0.00295499999999993,0.2651355125214274,0.21748015664859668,non_fall
0.814717,-0.0032,-0.1988,-0.1754,-0.0309,-0.0158,-0.0045,-15.5813,-5.25,44.6438,,0.0028250000000000774,0.2651355125214274,0.22281505523986742,non_fall
0.827399,0.0327,-0.2155,-0.1444,-0.0309,-0.0158,-0.0045,-15.5813,-5.25,44.6438,,0.012681999999999971,0.26145917463344065,0.22909637305389144,non_fall
0.842641,0.0327,-0.2155,-0.1444,-0.0309,-0.0158,-0.0045,-15.7688,-4.8938,43.7063,,0.015241999999999978,0.26145917463344065,0.23608470799578865,non_fall
0.845438,0.0175,-0.2082,-0.1353,-0.0309,-0.0158,-0.0045,-15.7688,-4.8938,43.7063,,0.0027970000000000494,0.24891681341363825,0.24350645398664303,non_fall
0.854625,0.0175,-0.2082,-0.1353,-0.0309,-0.0158,-0.0045,-15.7688,-4.8938,43.7063,,0.009186999999999945,0.24891681341363825,0.25106431849467353,non_fall
0.865558,0.0025,-0.2031,-0.0911,-0.0309,-0.0158,-0.0045,-15.7688,-4.8938,43.7063,,0.010933000000000082,0.22260968083171945,0.2584448685391265,non_fall
0.876427,0.0025,-0.2031,-0.0911,-0.0272,-0.0073,-0.007,-15.7688,-4.8938,43.7063,,0.010868999999999907,0.22260968083171945,0.26532527098051234,non_fall
0.883881,-0.0212,-0.2265,-0.1215,-0.0272,-0.0073,-0.007,-15.7688,-4.8938,43.7063,,0.007454000000000072,0.2579029662489364,0.27138178892157133,non_fall
0.901716,-0.0212,-0.2265,-0.1215,-0.0272,-0.0073,-0.007,-15.675,-5.0063,43.7063,,0.017834999999999934,0.2579029662489364,0.27630206466371915,non_fall
0.902672,-0.0212,-0.2265,-0.1215,-0.0272,-0.0073,-0.007,-15.675,-5.0063,43.7063,,0.0009560000000000679,0.2579029662489364,0.27980194797853664,non_fall
0.90334,0.0055,-0.2452,-0.1538,-0.0272,-0.0073,-0.007,-15.675,-5.0063,43.7063,,0.0006680000000000019,0.28949564763567687,0.28164605109493,non_fall
0.922877,0.0008,-0.2567,-0.1842,-0.0272,-0.0073,-0.007,-15.675,-5.0063,43.7063,,0.019536999999999916,0.31595121458858166,0.28166976417316186,non_fall
0.935968,0.0008,-0.2567,-0.1842,-0.0126,0.0,-0.0058,-15.675,-5.0063,43.7063,,0.013091000000000075,0.31595121458858166,0.2797994281953962,non_fall
0.942472,0.0074,-0.2389,-0.192,-0.0126,0.0,-0.0058,-15.675,-5.0063,43.7063,,0.006503999999999954,0.30658109856936716,0.27606696966881766,non_fall
0.950112,0.0074,-0.2389,-0.192,-0.0126,0.0,-0.0058,-15.675,-5.0063,43.7063,,0.00763999999999998,0.30658109856936716,0.2706157604577002,non_fall
0.960657,0.0165,-0.2186,-0.1503,-0.0126,0.0,-0.0058,-15.675,-5.0063,43.7063,,0.010545000000000027,0.26579747929579767,0.26369575093041675,non_fall
0.962077,0.0165,-0.2186,-0.1503,-0.0126,0.0,-0.0058,-15.675,-4.9313,44.1188,,0.0014199999999999768,0.26579747929579767,0.2556476968027733,non_fall
0.980772,0.0106,-0.2027,-0.0975,-0.0126,0.0,-0.0058,-15.675,-4.9313,44.1188,,0.018695000000000017,0.22517970601277548,0.2468780904950089,non_fall
0.998714,0.0106,-0.2027,-0.0975,-0.0126,0.0,-0.0058,-15.675,-4.9313,44.1188,,0.017942000000000013,0.22517970601277548,0.23782781597227629,non_fall
1.00128,0.0106,-0.2027,-0.0975,-0.0089,0.0135,-0.012,-15.675,-4.9313,44.1188,,0.002565999999999957,0.22517970601277548,0.2289383303306992,non_fall
1.003988,-0.0223,-0.1699,-0.0622,-0.0089,0.0135,-0.012,-15.675,-4.9313,44.1188,,0.0027080000000001547,0.18229684583118821,0.22061929268726538,non_fall
1.018418,-0.0499,-0.1565,-0.1075,-0.0089,0.0135,-0.012,-15.675,-4.9313,44.1188,,0.014429999999999943,0.1963122767429485,0.21322114105709786,non_fall
1.021937,-0.0499,-0.1565,-0.1075,-0.0089,0.0135,-0.012,-15.6563,-5.4938,43.5,,0.00351900000000005,0.1963122767429485,0.2070153340932569,non_fall
1.037281,-0.0218,-0.1509,-0.1317,-0.0089,0.0135,-0.012,-15.6563,-5.4938,43.5,,0.015343999999999802,0.20147193352921394,0.2021839431902089,non_fall
1.046701,-0.0218,-0.1509,-0.1317,-0.0089,0.0135,-0.012,-15.6563,-5.4938,43.5,,0.009420000000000206,0.20147193352921394,0.19881913646029148,non_fall
1.056116,-0.0002,-0.1887,-0.071,-0.0089,0.0135,-0.012,-15.6563,-5.4938,43.5,,0.009414999999999951,0.20161530199863303,0.196932077063616,non_fall
1.060758,-0.0002,-0.1887,-0.071,-0.0346,0.0074,0.0015,-15.6563,-5.4938,43.5,,0.004642000000000035,0.20161530199863303,0.1964700870292488,non_fall
1.075096,0.0269,-0.1647,-0.0762,-0.0346,0.0074,0.0015,-15.6563,-5.4938,43.5,,0.014337999999999962,0.183456098290572,0.19734065128900063,non_fall
1.081611,0.0269,-0.1647,-0.0762,-0.0346,0.0074,0.0015,-15.8438,-5.4938,43.7063,,0.0065150000000000485,0.183456098290572,0.1994408248155141,non_fall
1.094012,0.0269,-0.1647,-0.0762,-0.0346,0.0074,0.0015,-15.8438,-5.4938,43.7063,,0.012400999999999884,0.183456098290572,0.2026906318174986,non_fall
1.095033,0.04,-0.141,-0.1232,-0.0346,0.0074,0.0015,-15.8438,-5.4938,43.7063,,0.0010209999999999386,0.1914660283183416,0.2070688706046153,non_fall
1.114719,0.0274,-0.1375,-0.1793,-0.0346,0.0074,0.0015,-15.8438,-5.4938,43.7063,,0.019686000000000092,0.227608216020424,0.21264922819078386,non_fall
1.123017,0.0274,-0.1375,-0.1793,-0.0578,0.0,0.0076,-15.8438,-5.4938,43.7063,,0.008297999999999917,0.227608216020424,0.21963384805497288,non_fall
1.133555,0.0432,-0.1777,-0.1835,-0.0578,0.0,0.0076,-15.8438,-5.4938,43.7063,,0.010538000000000158,0.2590671341563804,0.228380771568016,non_fall
1.14441,0.0432,-0.1777,-0.1835,-0.0578,0.0,0.0076,-15.8438,-5.4938,43.7063,,0.010854999999999837,0.2590671341563804,0.23942133073155766,non_fall
1.146817,0.0432,-0.1777,-0.1835,-0.0578,0.0,0.0076,-15.7688,-5.0063,43.8188,,0.002407000000000048,0.2590671341563804,0.25346380592511036,non_fall
1.153286,0.0194,-0.1944,-0.2295,-0.0578,0.0,0.0076,-15.7688,-5.0063,43.8188,,0.006469000000000058,0.30139338081650036,0.2713804313233333,non_fall
1.171254,0.0387,-0.2475,-0.2528,-0.0578,0.0,0.0076,-15.7688,-5.0063,43.8188,,0.017967999999999984,0.3558957431608307,0.29417591769199475,non_fall
1.185065,0.0387,-0.2475,-0.2528,-0.0615,-0.0243,-0.007,-15.7688,-5.0063,43.8188,,0.013811000000000018,0.3558957431608307,0.32293691466504837,non_fall
1.189169,0.0387,-0.2475,-0.2528,-0.0615,-0.0243,-0.007,-15.7688,-5.0063,43.8188,,0.0041039999999998855,0.3558957431608307,0.35876333203356003,non_fall
1.190037,0.0058,-0.2429,-0.2864,-0.0615,-0.0243,-0.007,-15.7688,-5.0063,43.8188,,0.0008680000000000909,0.3755782341936231,0.40268429228518116,non_fall
1.201273,0.0058,-0.2429,-0.2864,-0.0615,-0.0243,-0.007,-15.6375,-5.8125,44.0063,,0.011236000000000024,0.3755782341936231,0.4555634049020632,non_fall
1.208941,-0.0463,-0.2633,-0.5747,-0.0615,-0.0243,-0.007,-15.6375,-5.8125,44.0063,,0.007668000000000008,0.633838047138226,0.5179993354651541,non_fall
1.228711,0.0271,-0.2792,-0.6081,-0.0615,-0.0243,-0.007,-15.6375,-5.8125,44.0063,,0.019770000000000065,0.6696810136176775,0.5902278555560678,non_fall
1.237001,0.0271,-0.2792,-0.6081,-0.0615,-0.0243,-0.007,-15.6375,-5.8125,44.0063,,0.008289999999999909,0.6696810136176775,0.6720312614864185,non_fall
1.246617,0.0271,-0.2792,-0.6081,-0.0762,-0.4239,-0.0082,-15.6375,-5.8125,44.0063,,0.009616000000000069,0.6696810136176775,0.7626614740876535,non_fall
1.24769,-0.3092,-0.3289,-0.7394,-0.0762,-0.4239,-0.0082,-15.6375,-5.8125,44.0063,,0.0010729999999998796,0.8663095347507148,0.8607847337438831,non_fall
1.262826,-0.3092,-0.3289,-0.7394,-0.0762,-0.4239,-0.0082,-14.2688,-5.9625,44.0813,,0.015136000000000038,0.8663095347507148,0.9644574741912033,non_fall
1.266269,-0.2088,0.3355,-0.8375,-0.0762,-0.4239,-0.0082,-14.2688,-5.9625,44.0813,,0.003443000000000085,0.9260474825839116,1.0711431743490545,non_fall
1.286044,-0.2088,0.3355,-0.8375,-0.0762,-0.4239,-0.0082,-14.2688,-5.9625,44.0813,,0.019774999999999876,0.9260474825839116,1.177778165982786,non_fall
1.286664,0.1415,0.7721,-1.0272,-0.0762,-0.4239,-0.0082,-14.2688,-5.9625,44.0813,,0.0006200000000000649,1.292787878965455,1.28089052211665,non_fall
1.305664,1.0215,0.5794,-0.8546,-0.0762,-0.4239,-0.0082,-14.2688,-5.9625,44.0813,,0.018999999999999906,1.452414462197344,1.3767702334387244,non_fall
1.308684,1.0215,0.5794,-0.8546,-0.2386,-0.4507,0.004,-14.2688,-5.9625,44.0813,,0.0030200000000000227,1.452414462197344,1.4616816598479103,non_fall
1.321746,1.0215,0.5794,-0.8546,-0.2386,-0.4507,0.004,-13.6875,-6.2063,44.6813,,0.013062000000000129,1.452414462197344,1.5321028832324761,non_fall
1.324957,1.5345,0.259,-0.6131,-0.2386,-0.4507,0.004,-13.6875,-6.2063,44.6813,,0.003210999999999853,1.6726215531314907,1.58497298402645,non_fall
1.33341,1.5345,0.259,-0.6131,-0.2386,-0.4507,0.004,-13.6875,-6.2063,44.6813,,0.008453000000000044,1.6726215531314907,1.6179271986226456,non_fall
1.342509,1.6453,0.1298,-0.6801,-0.2386,-0.4507,0.004,-13.6875,-6.2063,44.6813,,0.009098999999999968,1.7850479377316455,1.6294999997224826,non_fall
1.362373,1.5253,-0.0164,-0.8284,-0.2386,-0.4507,0.004,-13.6875,-6.2063,44.6813,,0.019864000000000104,1.735815546076253,1.6192770413836488,non_fall
1.371595,1.5253,-0.0164,-0.8284,-0.3108,-0.0708,-0.2221,-13.6875,-6.2063,44.6813,,0.009221999999999841,1.735815546076253,1.5879794951114805,non_fall
1.380862,1.5253,-0.0164,-0.8284,-0.3108,-0.0708,-0.2221,-13.6875,-6.2063,44.6813,,0.009267000000000136,1.735815546076253,1.537469179010492,non_fall
1.381718,1.1675,0.0745,-0.9914,-0.3108,-0.0708,-0.2221,-13.6875,-6.2063,44.6813,,0.0008559999999999679,1.5334537684586385,1.4706697734966425,non_fall
1.382677,1.1675,0.0745,-0.9914,-0.3108,-0.0708,-0.2221,-12.5625,-7.3125,44.325,,0.0009589999999999321,1.5334537684586385,1.3914076401282842,non_fall
1.400817,0.7341,0.4759,-0.7865,-0.3108,-0.0708,-0.2221,-12.5625,-7.3125,44.325,,0.018140000000000045,1.1764207878136121,1.3041845062899162,non_fall
1.420028,0.4198,0.806,-0.3404,-0.3108,-0.0708,-0.2221,-12.5625,-7.3125,44.325,,0.01921100000000009,0.9704329961414132,1.2139023676561083,non_fall
1.433105,0.4198,0.806,-0.3404,-0.3108,-0.0708,-0.2221,-12.5625,-7.3125,44.325,,0.013077000000000005,0.9704329961414132,1.1255666073003234,non_fall
1.43559,0.4198,0.806,-0.3404,-0.417,0.1027,-0.2148,-12.5625,-7.3125,44.325,,0.0024849999999998484,0.9704329961414132,1.0439945639666859,non_fall
1.439543,0.3663,0.7472,0.2052,-0.417,0.1027,-0.2148,-12.5625,-7.3125,44.325,,0.003953000000000095,0.857082592286181,0.9735528103604121,non_fall
1.441883,0.3663,0.7472,0.2052,-0.417,0.1027,-0.2148,-12.9188,-8.175,44.1188,,0.0023400000000000087,0.857082592286181,0.9179387287867232,non_fall
1.458093,0.1989,0.543,0.706,-0.417,0.1027,-0.2148,-12.9188,-8.175,44.1188,,0.016210000000000058,0.9126040817353382,0.8800134517300585,non_fall
1.476722,0.1989,0.543,0.706,-0.417,0.1027,-0.2148,-12.9188,-8.175,44.1188,,0.018629000000000007,0.9126040817353382,0.8616860059703956,non_fall
1.478974,-0.1711,0.1884,1.0354,-0.417,0.1027,-0.2148,-12.9188,-8.175,44.1188,,0.0022519999999999207,1.066218987825672,0.863843447558891,non_fall
1.495143,-0.1711,0.1884,1.0354,-0.5856,-0.1405,-0.0302,-12.9188,-8.175,44.1188,,0.0161690000000001,1.066218987825672,0.8863194977161514,non_fall
1.496358,-0.2571,-0.2038,0.8712,-0.5856,-0.1405,-0.0302,-12.9188,-8.175,44.1188,,0.001214999999999966,0.9309265760520535,0.9278953750709795,non_fall
1.502149,-0.2571,-0.2038,0.8712,-0.5856,-0.1405,-0.0302,-12.0938,-9.3938,44.1938,,0.00579099999999988,0.9309265760520535,0.9863311884277909,non_fall
1.515337,-0.0533,-0.388,0.7077,-0.5856,-0.1405,-0.0302,-12.0938,-9.3938,44.1938,,0.013187999999999978,0.8088412576025039,1.0584328314225726,non_fall
1.523583,-0.0533,-0.388,0.7077,-0.5856,-0.1405,-0.0302,-12.0938,-9.3938,44.1938,,0.008245999999999976,0.8088412576025039,1.1401646821388305,non_fall
1.534647,0.4665,-0.7819,0.5704,-0.5856,-0.1405,-0.0302,-12.0938,-9.3938,44.1938,,0.011064000000000185,1.074404960896961,1.2268192696285891,non_fall
1.553651,0.8022,-0.8882,0.7229,-0.5856,-0.1405,-0.0302,-12.0938,-9.3938,44.1938,,0.0190039999999998,1.398216181425462,1.3132498185112749,non_fall
1.558054,0.8022,-0.8882,0.7229,-0.5979,-0.1221,0.0076,-12.0938,-9.3938,44.1938,,0.004403000000000157,1.398216181425462,1.3941615217764036,non_fall
1.562475,0.8022,-0.8882,0.7229,-0.5979,-0.1221,0.0076,-11.9062,-11.3625,43.7625,,0.004421000000000008,1.398216181425462,1.4644464173638934,non_fall
1.572696,0.8022,-0.8882,0.7229,-0.5979,-0.1221,0.0076,-11.9062,-11.3625,43.7625,,0.010221000000000036,1.398216181425462,1.5195387829035611,non_fall
1.573694,0.9071,-0.9833,0.7977,-0.5979,-0.1221,0.0076,-11.9062,-11.3625,43.7625,,0.0009979999999998324,1.5575733016458648,1.5557639094418234,non_fall
1.592582,0.9554,-1.103,0.9259,-0.5979,-0.1221,0.0076,-11.9062,-11.3625,43.7625,,0.018888000000000016,1.728203972336599,1.5706508910188877,non_fall
1.611201,1.0737,-1.0887,1.142,-0.5979,-0.1221,0.0076,-11.9062,-11.3625,43.7625,,0.018619000000000163,1.908471477387074,1.5631779268048638,non_fall
1.622106,1.0737,-1.0887,1.142,-0.5979,-0.1221,0.0076,-11.9062,-11.3625,43.7625,,0.010904999999999943,1.908471477387074,1.5339176724603023,lateral_fall
1.624453,1.0737,-1.0887,1.142,-0.2923,-0.2321,0.0565,-11.9062,-11.3625,43.7625,,0.002346999999999877,1.908471477387074,1.4850534929558563,lateral_fall
1.627186,1.0737,-1.0887,1.142,-0.2923,-0.2321,0.0565,-11.3813,-12.2625,43.7438,,0.0027330000000000965,1.908471477387074,1.4202475107852193,lateral_fall
1.629694,0.9171,-0.5477,0.9461,-0.2923,-0.2321,0.0565,-11.3813,-12.2625,43.7438,,0.0025079999999999547,1.4269382992967847,1.344358238880886,lateral_fall
1.649076,0.7189,-0.0627,0.7727,-0.2923,-0.2321,0.0565,-11.3813,-12.2625,43.7438,,0.01938200000000001,1.0572671327531185,1.2630271150712693,lateral_fall
1.66811,0.7189,-0.0627,0.7727,-0.2923,-0.2321,0.0565,-11.3813,-12.2625,43.7438,,0.019033999999999995,1.0572671327531185,1.1821752071525913,lateral_fall
1.670743,0.4708,0.053,0.3765,-0.2923,-0.2321,0.0565,-11.3813,-12.2625,43.7438,,0.0026330000000001075,0.6051560873031023,1.107468211209288,lateral_fall
1.68321,0.4708,0.053,0.3765,-0.2398,-0.634,0.0468,-11.3813,-12.2625,43.7438,,0.012467000000000006,0.6051560873031023,1.0438149457511376,lateral_fall
1.686299,0.4708,0.053,0.3765,-0.2398,-0.634,0.0468,-10.7625,-13.1063,44.025,,0.0030889999999998974,0.6051560873031023,0.9949602961878488,lateral_fall
1.688435,0.2441,0.2994,-0.1389,-0.2398,-0.634,0.0468,-10.7625,-13.1063,44.025,,0.0021359999999999157,0.4105099024384187,0.9632193981861488,lateral_fall
1.706132,0.4671,0.8288,-0.0852,-0.2398,-0.634,0.0468,-10.7625,-13.1063,44.025,,0.017697000000000074,0.9551706077973715,0.9493785742559067,lateral_fall
1.715721,0.4671,0.8288,-0.0852,-0.2398,-0.634,0.0468,-10.7625,-13.1063,44.025,,0.00958900000000007,0.9551706077973715,0.9527637071632875,lateral_fall
1.72542,0.531,1.1462,0.2009,-0.2398,-0.634,0.0468,-10.7625,-13.1063,44.025,,0.009698999999999902,1.2790997810960645,0.9714527791496907,lateral_fall
1.742751,0.531,1.1462,0.2009,-0.2398,-0.634,0.0468,-8.8875,-13.65,44.0625,,0.017330999999999985,1.2790997810960645,1.0025911859539514,lateral_fall
1.746018,0.531,1.1462,0.2009,-0.3095,-0.9468,-0.0828,-8.8875,-13.65,44.0625,,0.003267000000000131,1.2790997810960645,1.0427600208607224,lateral_fall
1.748912,0.4603,0.9311,0.6836,-0.3095,-0.9468,-0.0828,-8.8875,-13.65,44.0625,,0.002893999999999952,1.2434356678171976,1.0883496047068173,lateral_fall
1.764374,0.4603,0.9311,0.6836,-0.3095,-0.9468,-0.0828,-8.8875,-13.65,44.0625,,0.015462000000000087,1.2434356678171976,1.1359004725114277,lateral_fall
1.765311,0.4068,0.5863,0.9903,-0.3095,-0.9468,-0.0828,-8.8875,-13.65,44.0625,,0.0009369999999999656,1.2206260770604567,1.18238743559808,lateral_fall
1.783255,0.651,0.163,0.3284,-0.3095,-0.9468,-0.0828,-8.8875,-13.65,44.0625,,0.01794399999999996,0.7471389161327364,1.225435149775533,lateral_fall
1.802223,1.0894,0.821,0.4787,-0.3095,-0.9468,-0.0828,-8.8875,-13.65,44.0625,,0.018967999999999874,1.4456787506220046,1.2634628857999304,lateral_fall
1.803399,1.0894,0.821,0.4787,-0.3095,-0.9468,-0.0828,-6.5063,-14.5313,44.1938,,0.0011760000000000659,1.4456787506220046,1.2957600538722374,lateral_fall
1.805823,1.0894,0.821,0.4787,-0.0676,-0.8038,-0.3406,-6.5063,-14.5313,44.1938,,0.0024239999999999817,1.4456787506220046,1.3224927692972115,lateral_fall
1.81086,1.0894,0.821,0.4787,-0.0676,-0.8038,-0.3406,-6.5063,-14.5313,44.1938,,0.005036999999999958,1.4456787506220046,1.3446389570600592,lateral_fall
1.822215,1.3366,0.5222,0.8924,-0.0676,-0.8038,-0.3406,-6.5063,-14.5313,44.1938,,0.011355000000000004,1.6898432353327926,1.3638497472784736,lateral_fall
1.840706,0.9572,1.0488,0.7804,-0.0676,-0.8038,-0.3406,-6.5063,-14.5313,44.1938,,0.018491000000000035,1.620258448519865,1.3822398949812837,lateral_fall
1.859177,0.9572,1.0488,0.7804,-0.0676,-0.8038,-0.3406,-6.5063,-14.5313,44.1938,,0.018471000000000126,1.620258448519865,1.402118608481273,lateral_fall
1.861758,0.4399,0.9122,0.1485,-0.0676,-0.8038,-0.3406,-6.5063,-14.5313,44.1938,,0.0025809999999999444,1.0235590359134152,1.4256833181304671,lateral_fall
1.86368,0.4399,0.9122,0.1485,-0.0676,-0.8038,-0.3406,-3.5813,-15.0938,45.675,,0.0019219999999999793,1.0235590359134152,1.4547109695616292,lateral_fall
1.869358,0.4399,0.9122,0.1485,-0.0407,-0.7818,-0.2503,-3.5813,-15.0938,45.675,,0.005678000000000072,1.0235590359134152,1.490290243542379,lateral_fall
1.878717,0.2416,1.1687,0.0261,-0.0407,-0.7818,-0.2503,-3.5813,-15.0938,45.675,,0.009358999999999895,1.1936965527302155,1.5326381031309937,lateral_fall
1.899344,0.4688,0.9463,0.7527,-0.0407,-0.7818,-0.2503,-3.5813,-15.0938,45.675,,0.02062699999999995,1.2968478785115856,1.5810325882974896,lateral_fall
1.9074,0.4688,0.9463,0.7527,-0.0407,-0.7818,-0.2503,-3.5813,-15.0938,45.675,,0.008056000000000063,1.2968478785115856,1.6338735018579025,lateral_fall
1.917308,0.2107,1.063,1.8529,-0.0407,-0.7818,-0.2503,-3.5813,-15.0938,45.675,,0.009908000000000028,2.1465325294530246,1.6888592442665096,lateral_fall
1.923993,0.2107,1.063,1.8529,-0.0407,-0.7818,-0.2503,-1.8,-15.6938,44.8875,,0.006685000000000052,2.1465325294530246,1.7432468896190843,lateral_fall
1.931973,0.2107,1.063,1.8529,0.1009,-0.7147,-0.1733,-1.8,-15.6938,44.8875,,0.007979999999999876,2.1465325294530246,1.7941482903922994,lateral_fall
1.936238,-0.5244,1.0906,1.6756,0.1009,-0.7147,-0.1733,-1.8,-15.6938,44.8875,,0.004264999999999963,2.0668911630755984,1.8388117599410223,lateral_fall
1.954379,-0.5244,1.0906,1.6756,0.1009,-0.7147,-0.1733,-1.8,-15.6938,44.8875,,0.018141000000000185,2.0668911630755984,1.8748478406613334,lateral_fall
1.955281,-0.8457,1.2584,1.614,0.1009,-0.7147,-0.1733,-1.8,-15.6938,44.8875,,0.0009019999999999584,2.214446894824981,1.9003747953522296,lateral_fall
1.974771,-0.5114,1.1863,1.1245,0.1009,-0.7147,-0.1733,-1.8,-15.6938,44.8875,,0.019490000000000007,1.7126990103342736,1.9140784951903824,lateral_fall
1.980962,-0.5114,1.1863,1.1245,0.1009,-0.7147,-0.1733,-0.3375,-15.6375,44.7375,,0.0061909999999998355,1.7126990103342736,1.9151980825880408,lateral_fall
1.993464,-0.5114,1.1863,1.1245,-0.0492,-0.9944,-0.0034,-0.3375,-15.6375,44.7375,,0.012502000000000013,1.7126990103342736,1.9034610377429695,lateral_fall
1.996716,-0.3767,1.6305,1.0189,-0.0492,-0.9944,-0.0034,-0.3375,-15.6375,44.7375,,0.0032520000000000326,1.959232081709566,1.878997158104952,lateral_fall
2.00334,-0.3767,1.6305,1.0189,-0.0492,-0.9944,-0.0034,-0.3375,-15.6375,44.7375,,0.006624000000000185,1.959232081709566,1.8422597628546742,lateral_fall
2.012885,0.4383,0.884,0.7683,-0.0492,-0.9944,-0.0034,-0.3375,-15.6375,44.7375,,0.009544999999999693,1.2505389957934139,1.7939768038423076,lateral_fall
2.032171,0.8731,0.8448,0.4552,-0.0492,-0.9944,-0.0034,-0.3375,-15.6375,44.7375,,0.019286000000000136,1.2973810889634547,1.7351485148303487,lateral_fall
2.044714,0.8731,0.8448,0.4552,-0.0492,-0.9944,-0.0034,2.1938,-15.975,45.6,,0.01254299999999997,1.2973810889634547,1.6671021992880015,lateral_fall
2.050402,0.8731,0.8448,0.4552,-0.0492,-0.9944,-0.0034,2.1938,-15.975,45.6,,0.005688000000000137,1.2973810889634547,1.591604833911194,lateral_fall
2.05323,1.5946,0.8475,-0.4389,-0.0492,-0.9944,-0.0034,2.1938,-15.975,45.6,,0.0028280000000000527,1.8583967875564142,1.5110175103996635,lateral_fall
2.055981,1.5946,0.8475,-0.4389,0.0876,-0.551,-0.1353,2.1938,-15.975,45.6,,0.002750999999999948,1.8583967875564142,1.4284553428430091,lateral_fall
2.070202,2.2259,0.4332,0.0722,0.0876,-0.551,-0.1353,2.1938,-15.975,45.6,,0.01422100000000004,2.268811558944462,1.3479000246896478,lateral_fall
2.089199,1.6082,0.5408,0.4247,0.0876,-0.551,-0.1353,2.1938,-15.975,45.6,,0.01899699999999971,1.7490402997072423,1.2742076891405558,lateral_fall
2.099238,1.6082,0.5408,0.4247,0.0876,-0.551,-0.1353,2.1938,-15.975,45.6,,0.010039000000000353,1.7490402997072423,1.2129664211879227,lateral_fall
2.101502,1.6082,0.5408,0.4247,0.0876,-0.551,-0.1353,2.5875,-15.8625,45.2812,,0.0022639999999998217,1.7490402997072423,1.170184195005327,lateral_fall
2.108219,0.2886,0.4197,0.2281,0.0876,-0.551,-0.1353,2.5875,-15.8625,45.2812,,0.006717000000000084,0.5580928775750502,1.151822667322457,lateral_fall
2.117873,0.2886,0.4197,0.2281,0.1926,-0.766,-0.0608,2.5875,-15.8625,45.2812,,0.00965399999999983,0.5580928775750502,1.163226674802743,lateral_fall
2.127602,-0.3401,0.9021,0.447,0.1926,-0.766,-0.0608,2.5875,-15.8625,45.2812,,0.009729000000000099,1.0626671256795328,1.2085249341183542,lateral_fall
2.145566,-0.3401,0.9021,0.447,0.1926,-0.766,-0.0608,2.5875,-15.8625,45.2812,,0.01796400000000009,1.0626671256795328,1.2900872737549187,lateral_fall
2.146513,-0.1979,0.9551,0.5187,0.1926,-0.766,-0.0608,2.5875,-15.8625,45.2812,,0.0009470000000000312,1.1047307862099254,1.4081164825842172,lateral_fall
2.161088,-0.1979,0.9551,0.5187,0.1926,-0.766,-0.0608,5.1188,-15.7688,45.9375,,0.014574999999999783,1.1047307862099254,1.5604351722270595,lateral_fall
2.165394,0.3058,0.6655,0.6538,0.1926,-0.766,-0.0608,5.1188,-15.7688,45.9375,,0.004306000000000143,0.9817628685176477,1.7425081194459264,lateral_fall
2.179391,0.3058,0.6655,0.6538,0.2097,-1.1142,0.4352,5.1188,-15.7688,45.9375,,0.013996999999999815,0.9817628685176477,1.9477204247800166,lateral_fall
2.184383,1.0359,1.688,0.8091,0.2097,-1.1142,0.4352,5.1188,-15.7688,45.9375,,0.0049920000000001075,2.139410110287413,2.1679077501534287,lateral_fall
2.193408,1.0359,1.688,0.8091,0.2097,-1.1142,0.4352,5.1188,-15.7688,45.9375,,0.009024999999999839,2.139410110287413,2.3941036832449263,lateral_fall
2.203866,2.3505,1.4689,0.5682,0.2097,-1.1142,0.4352,5.1188,-15.7688,45.9375,,0.0104580000000003,2.829376026617883,2.6174334492037326,lateral_fall
2.221593,2.3505,1.4689,0.5682,0.2097,-1.1142,0.4352,7.2375,-15.2813,44.8313,,0.017726999999999826,2.829376026617883,2.8300506238683885,lateral_fall
2.224715,4.3808,1.3541,1.3775,0.2097,-1.1142,0.4352,7.2375,-15.2813,44.8313,,0.003122000000000291,4.787744949347239,3.0259919225759324,lateral_fall
2.24184,4.3808,1.3541,1.3775,0.2097,-1.1142,0.4352,7.2375,-15.2813,44.8313,,0.017124999999999613,4.787744949347239,3.2018188831229923,lateral_fall
2.244212,4.3808,1.3541,1.3775,0.3649,-1.3365,0.7773,7.2375,-15.2813,44.8313,,0.002372000000000263,4.787744949347239,3.3569286881814215,lateral_fall
2.246661,3.3412,1.573,1.4686,0.3649,-1.3365,0.7773,7.2375,-15.2813,44.8313,,0.0024489999999999235,3.9742587233344535,3.4934552776837506,lateral_fall
2.261112,2.6014,2.228,1.1486,0.3649,-1.3365,0.7773,7.2375,-15.2813,44.8313,,0.01445099999999977,3.6125542099738794,3.615745694338537,lateral_fall
2.280433,1.2561,2.8556,1.0192,0.3649,-1.3365,0.7773,7.2375,-15.2813,44.8313,,0.019321000000000144,3.2819212680989165,3.7294712822874745,lateral_fall
2.282063,1.2561,2.8556,1.0192,0.3649,-1.3365,0.7773,9.375,-14.85,44.5688,,0.0016300000000000203,3.2819212680989165,3.840497478059358,lateral_fall
2.288925,1.2561,2.8556,1.0192,0.3649,-1.3365,0.7773,9.375,-14.85,44.5688,,0.006861999999999924,3.2819212680989165,3.9536738423114777,lateral_fall
2.300174,0.5427,2.702,1.5092,0.3649,-1.3365,0.7773,9.375,-14.85,44.5688,,0.011249000000000287,3.1421349318576377,4.071714377929114,lateral_fall
2.303946,0.5427,2.702,1.5092,0.1951,-1.0176,-0.2343,9.375,-14.85,44.5688,,0.0037719999999996645,3.1421349318576377,4.194322570007312,lateral_fall
2.318863,-0.0276,3.0827,2.5793,0.1951,-1.0176,-0.2343,9.375,-14.85,44.5688,,0.014917000000000069,4.019526034248316,4.317683342839054,lateral_fall
2.337639,-0.0276,3.0827,2.5793,0.1951,-1.0176,-0.2343,9.375,-14.85,44.5688,,0.018775999999999904,4.019526034248316,4.4344012448020615,lateral_fall
2.340583,-0.9766,3.4247,1.8736,0.1951,-1.0176,-0.2343,9.375,-14.85,44.5688,,0.0029440000000002797,4.024014737796073,4.533916791794955,lateral_fall
2.343363,-0.9766,3.4247,1.8736,0.1951,-1.0176,-0.2343,11.3063,-14.2875,44.1938,,0.0027800000000000047,4.024014737796073,4.603388123054345,lateral_fall
2.357511,-1.7687,3.35,2.306,0.1951,-1.0176,-0.2343,11.3063,-14.2875,44.1938,,0.01414800000000005,4.434911012635992,4.628987296592726,lateral_fall
2.365499,-1.7687,3.35,2.306,0.4198,-1.3915,0.506,11.3063,-14.2875,44.1938,,0.007987999999999662,4.434911012635992,4.597528688486495,lateral_fall
2.37762,-1.6784,3.1886,2.1033,0.4198,-1.3915,0.506,11.3063,-14.2875,44.1938,,0.012121000000000048,4.172297617620297,4.498318453471795,lateral_fall
2.385379,-1.6784,3.1886,2.1033,0.4198,-1.3915,0.506,11.3063,-14.2875,44.1938,,0.007759000000000071,4.172297617620297,4.325088880347395,lateral_fall
2.395834,-2.2588,3.842,1.154,0.4198,-1.3915,0.506,11.3063,-14.2875,44.1938,,0.010454999999999881,4.60378729308816,4.077861136307078,lateral_fall
2.401862,-2.2588,3.842,1.154,0.4198,-1.3915,0.506,14.025,-13.7063,42.975,,0.006028000000000144,4.60378729308816,3.7645650535286737,lateral_fall
2.414307,-1.4921,3.6483,-1.0248,0.4198,-1.3915,0.506,14.025,-13.7063,42.975,,0.01244500000000004,4.072673610786899,3.4022375039668553,lateral_fall
2.427654,-1.4921,3.6483,-1.0248,0.4247,-2.182,1.4601,14.025,-13.7063,42.975,,0.013346999999999998,4.072673610786899,3.0176267336812117,lateral_fall
2.432514,-1.4921,3.6483,-1.0248,0.4247,-2.182,1.4601,14.025,-13.7063,42.975,,0.004859999999999864,4.072673610786899,2.647052923649818,lateral_fall
2.433411,0.4209,1.3946,-1.2602,0.4247,-2.182,1.4601,14.025,-13.7063,42.975,,0.0008970000000001477,1.9261801603173052,2.3354143314521267,lateral_fall
2.453014,1.9071,-2.8168,0.1278,0.4247,-2.182,1.4601,14.025,-13.7063,42.975,,0.019603000000000037,3.4040748361338946,2.134278470363124,lateral_fall
2.462654,1.9071,-2.8168,0.1278,0.4247,-2.182,1.4601,17.85,-14.0438,41.5125,,0.009640000000000093,3.4040748361338946,2.099051490545369,lateral_fall
2.471453,-3.3469,-5.1255,-1.4708,0.4247,-2.182,1.4601,17.85,-14.0438,41.5125,,0.00879899999999978,6.295692376538104,2.285270962395648,lateral_fall
2.480735,-3.3469,-5.1255,-1.4708,0.4247,-2.182,1.4601,17.85,-14.0438,41.5125,,0.009282000000000235,6.295692376538104,2.744123775186223,lateral_fall
2.489845,-3.3469,-5.1255,-1.4708,2.9366,-0.099,1.3563,17.85,-14.0438,41.5125,,0.00910999999999973,6.295692376538104,3.5173722549899415,lateral_fall
2.490708,-4.2568,0.7834,-2.1888,2.9366,-0.099,1.3563,17.85,-14.0438,41.5125,,0.0008630000000002802,4.850248162723223,4.631996783411789,lateral_fall
2.510094,-0.2575,-0.3499,3.0359,2.9366,-0.099,1.3563,17.85,-14.0438,41.5125,,0.019385999999999903,3.0668265471004386,6.095025929748211,lateral_fall
2.523075,-0.2575,-0.3499,3.0359,2.9366,-0.099,1.3563,18.8625,-8.7375,43.5938,,0.01298099999999991,3.0668265471004386,7.889185193240994,lateral_fall
2.52838,-0.2575,-0.3499,3.0359,2.9366,-0.099,1.3563,18.8625,-8.7375,43.5938,,0.005304999999999893,3.0668265471004386,9.970093476915526,lateral_fall
2.529306,-2.1275,0.2989,-1.3728,2.9366,-0.099,1.3563,18.8625,-8.7375,43.5938,,0.0009260000000002044,2.5495445279500415,12.265720249361,lateral_fall
2.548514,-1.6731,-4.4102,-2.5288,2.9366,-0.099,1.3563,18.8625,-8.7375,43.5938,,0.019207999999999892,5.352004959825803,14.678659260770132,lateral_fall
2.552118,-1.6731,-4.4102,-2.5288,0.8231,-0.3579,1.5971,18.8625,-8.7375,43.5938,,0.0036040000000001626,5.352004959825803,17.091475136698033,lateral_fall
2.568051,-14.5768,-15.9139,-9.6094,0.8231,-0.3579,1.5971,18.8625,-8.7375,43.5938,,0.015932999999999975,23.623629691687942,19.374954872971237,lateral_fall
2.578917,-14.5768,-15.9139,-9.6094,0.8231,-0.3579,1.5971,18.8625,-8.7375,43.5938,,0.010866000000000042,23.623629691687942,21.398595349660916,lateral_fall
2.581746,-14.5768,-15.9139,-9.6094,0.8231,-0.3579,1.5971,17.8313,-9.2812,43.3125,,0.0028289999999997484,23.623629691687942,23.042178824905292,lateral_fall
2.587905,-50.3206,-25.7636,6.0001,0.8231,-0.3579,1.5971,17.8313,-9.2812,43.3125,,0.006159000000000248,56.85004018758474,24.20695976392454,lateral_fall
2.605556,-27.9015,-11.4631,-5.9775,0.8231,-0.3579,1.5971,17.8313,-9.2812,43.3125,,0.01765099999999986,30.75104665064264,24.82491324819181,lateral_fall
2.614714,-27.9015,-11.4631,-5.9775,1.8663,-3.5698,2.3581,17.8313,-9.2812,43.3125,,0.009158000000000222,30.75104665064264,24.86473590240225,lateral_fall
2.624361,-27.9015,-11.4631,-5.9775,1.8663,-3.5698,2.3581,17.8313,-9.2812,43.3125,,0.009646999999999739,30.75104665064264,24.33383731847089,lateral_fall
2.627692,-2.2796,13.7035,0.7297,1.8663,-3.5698,2.3581,17.8313,-9.2812,43.3125,,0.003331000000000195,13.910965117489154,23.276281852369426,lateral_fall
2.64179,-2.2796,13.7035,0.7297,1.8663,-3.5698,2.3581,28.4063,-9.0375,36.675,,0.014097999999999722,13.910965117489154,21.767305352044314,lateral_fall
2.644869,14.2523,-11.2713,-4.4298,1.8663,-3.5698,2.3581,28.4063,-9.0375,36.675,,0.003079000000000054,18.70276415453074,19.90544816411805,lateral_fall
2.664078,14.8539,-3.1127,-0.2946,1.8663,-3.5698,2.3581,28.4063,-9.0375,36.675,,0.01920900000000003,15.179395101913645,17.803456186739545,lateral_fall
2.672029,14.8539,-3.1127,-0.2946,1.8663,-3.5698,2.3581,28.4063,-9.0375,36.675,,0.007951000000000263,15.179395101913645,15.578967616184658,lateral_fall
2.678335,14.8539,-3.1127,-0.2946,2.2036,-1.433,2.1003,28.4063,-9.0375,36.675,,0.006305999999999923,15.179395101913645,13.345761511545868,lateral_fall
2.681883,7.0695,2.1978,1.4698,2.2036,-1.433,2.1003,28.4063,-9.0375,36.675,,0.0035479999999998846,7.547745831041213,11.206129196294603,lateral_fall
2.701912,1.1616,1.2032,2.3707,2.2036,-1.433,2.1003,28.4063,-9.0375,36.675,,0.020029000000000075,2.9012451275271447,9.244795444706789,lateral_fall
2.705426,1.1616,1.2032,2.3707,2.2036,-1.433,2.1003,30.6188,-7.7813,34.3313,,0.003514000000000017,2.9012451275271447,7.524733937300865,lateral_fall
2.720845,1.1616,1.2032,2.3707,2.2036,-1.433,2.1003,30.6188,-7.7813,34.3313,,0.015419000000000072,2.9012451275271447,6.085121404323458,lateral_fall
2.721728,2.5868,0.8477,0.2104,2.2036,-1.433,2.1003,30.6188,-7.7813,34.3313,,0.0008829999999999671,2.730274288418656,4.941503246686435,lateral_fall
2.738635,2.5868,0.8477,0.2104,1.187,-0.6365,2.9556,30.6188,-7.7813,34.3313,,0.016906999999999783,2.730274288418656,4.088005185401694,lateral_fall
2.739929,10.1098,2.4452,1.8532,1.187,-0.6365,2.9556,30.6188,-7.7813,34.3313,,0.0012940000000001284,10.565103374790045,3.5011772982425122,lateral_fall
2.759574,5.7772,0.1916,3.9853,1.187,-0.6365,2.9556,30.6188,-7.7813,34.3313,,0.019645000000000135,7.021065908393112,3.144863292809572,lateral_fall
2.762963,5.7772,0.1916,3.9853,1.187,-0.6365,2.9556,31.65,-9.1688,33.8813,,0.0033889999999998643,7.021065908393112,2.975399459925728,lateral_fall
2.768458,5.7772,0.1916,3.9853,1.187,-0.6365,2.9556,31.65,-9.1688,33.8813,,0.005494999999999806,7.021065908393112,2.9464941965510225,lateral_fall
2.777358,-2.8867,-0.9512,-0.6755,1.187,-0.6365,2.9556,31.65,-9.1688,33.8813,,0.00890000000000013,3.1135379522337607,3.013308238481617,lateral_fall
2.79728,-1.2964,1.1021,-0.6412,1.187,-0.6365,2.9556,31.65,-9.1688,33.8813,,0.019922000000000217,1.81835497359564,3.1354884939277787,lateral_fall
2.800985,-1.2964,1.1021,-0.6412,1.0576,0.176,0.8921,31.65,-9.1688,33.8813,,0.0037049999999996253,1.81835497359564,3.279130272610186,lateral_fall
2.815482,-1.2964,1.1021,-0.6412,1.0576,0.176,0.8921,31.65,-9.1688,33.8813,,0.014496999999999982,1.81835497359564,3.4177975800105114,lateral_fall
2.818091,-3.1243,3.4081,0.3273,1.0576,0.176,0.8921,31.65,-9.1688,33.8813,,0.0026090000000000835,4.6350319729210065,3.5327950172620404,lateral_fall
2.824173,-3.1243,3.4081,0.3273,1.0576,0.176,0.8921,31.8,-9.8063,32.7188,,0.006082000000000143,4.6350319729210065,3.6128718156849016,lateral_fall
2.835228,-0.9199,3.2158,1.4848,1.0576,0.176,0.8921,31.8,-9.8063,32.7188,,0.011054999999999815,3.6595377699922707,3.6534926090250535,lateral_fall
2.854741,1.7185,2.3658,0.6941,1.0576,0.176,0.8921,31.8,-9.8063,32.7188,,0.019513000000000336,3.0053330431085334,3.655776155556148,lateral_fall
2.863013,1.7185,2.3658,0.6941,1.0576,0.176,0.8921,31.8,-9.8063,32.7188,,0.008271999999999835,3.0053330431085334,3.6252002362286655,lateral_fall
2.864088,1.7185,2.3658,0.6941,0.1731,1.2046,1.5786,31.8,-9.8063,32.7188,,0.0010750000000001592,3.0053330431085334,3.570183742261096,lateral_fall
2.873206,2.5675,2.4452,-0.283,0.1731,1.2046,1.5786,31.8,-9.8063,32.7188,,0.00911799999999996,3.5568452721477777,3.5006608997764035,lateral_fall
2.882243,2.5675,2.4452,-0.283,0.1731,1.2046,1.5786,27.9375,-11.55,35.8313,,0.00903699999999974,3.5568452721477777,3.426748021667699,lateral_fall
2.892437,1.316,2.5511,0.4388,0.1731,1.2046,1.5786,27.9375,-11.55,35.8313,,0.010194000000000258,2.9038788972682728,3.3575786688214047,lateral_fall
2.910928,1.316,2.5511,0.4388,0.1731,1.2046,1.5786,27.9375,-11.55,35.8313,,0.018491000000000035,2.9038788972682728,3.3003613458668237,lateral_fall
2.911449,0.4476,2.4231,1.9819,0.1731,1.2046,1.5786,27.9375,-11.55,35.8313,,0.0005209999999999937,3.162228166973408,3.2596993881552607,lateral_fall
2.924439,0.4476,2.4231,1.9819,0.0424,1.1154,1.2757,27.9375,-11.55,35.8313,,0.012989999999999835,3.162228166973408,3.2372012732333073,lateral_fall
2.934023,0.4362,1.9609,1.5002,0.0424,1.1154,1.2757,27.9375,-11.55,35.8313,,0.009583999999999815,2.507189520159974,3.2313962617905214,lateral_fall
2.942073,0.4362,1.9609,1.5002,0.0424,1.1154,1.2757,24.5063,-13.5188,35.925,,0.008050000000000335,2.507189520159974,3.237954632273752,lateral_fall
2.949151,-0.0386,2.8428,0.131,0.0424,1.1154,1.2757,24.5063,-13.5188,35.925,,0.007077999999999918,2.8460784950524465,3.250194256265111,lateral_fall
2.958761,-0.0386,2.8428,0.131,0.0424,1.1154,1.2757,24.5063,-13.5188,35.925,,0.009609999999999896,2.8460784950524465,3.259833175779928,lateral_fall
2.969243,-0.6948,3.9121,-1.0854,0.0424,1.1154,1.2757,24.5063,-13.5188,35.925,,0.010482000000000102,4.118903568912485,3.2579193841946985,lateral_fall
2.988315,-0.6948,3.9121,-1.0854,-0.252,1.1924,0.5158,24.5063,-13.5188,35.925,,0.019071999999999978,4.118903568912485,3.2358392043026263,lateral_fall
2.991501,0.5191,3.7347,-0.7433,-0.252,1.1924,0.5158,24.5063,-13.5188,35.925,,0.003185999999999911,3.8431684571457443,3.1862856438433433,lateral_fall
3.002048,0.5191,3.7347,-0.7433,-0.252,1.1924,0.5158,20.6438,-14.7375,38.3063,,0.010546999999999862,3.8431684571457443,3.104068357207998,lateral_fall
3.006629,0.5191,3.7347,-0.7433,-0.252,1.1924,0.5158,20.6438,-14.7375,38.3063,,0.00458100000000039,3.8431684571457443,2.98666987439858,lateral_fall
3.007557,-0.0319,3.2083,0.6216,-0.252,1.1924,0.5158,20.6438,-14.7375,38.3063,,0.0009279999999995958,3.26811766312047,2.8344918498545604,lateral_fall
3.026785,-1.3123,2.0601,0.6922,-0.252,1.1924,0.5158,20.6438,-14.7375,38.3063,,0.019228000000000023,2.538756416043099,2.650780388021082,lateral_fall
3.045857,-1.5826,0.9323,-0.2401,-0.252,1.1924,0.5158,20.6438,-14.7375,38.3063,,0.019071999999999978,1.8524184354513427,2.4412632817425775,lateral_fall
3.049443,-1.5826,0.9323,-0.2401,-0.1079,0.2591,0.2812,20.6438,-14.7375,38.3063,,0.003586000000000311,1.8524184354513427,2.213567283869869,lateral_fall
3.056563,-1.5826,0.9323,-0.2401,-0.1079,0.2591,0.2812,20.6438,-14.7375,38.3063,,0.007120000000000015,1.8524184354513427,1.9765030176169682,lateral_fall
3.061832,-1.5826,0.9323,-0.2401,-0.1079,0.2591,0.2812,19.425,-15.8625,37.8188,,0.005268999999999746,1.8524184354513427,1.7393058740121374,lateral_fall
3.065405,-0.9572,0.4757,-0.0353,-0.1079,0.2591,0.2812,19.425,-15.8625,37.8188,,0.0035730000000002704,1.0694710935785035,1.5109087266148484,lateral_fall
3.084079,0.0372,0.2163,0.7321,-0.1079,0.2591,0.2812,19.425,-15.8625,37.8188,,0.018673999999999857,0.7642904814270554,1.2993063584725641,lateral_fall
3.102156,0.0372,0.2163,0.7321,-0.1079,0.2591,0.2812,19.425,-15.8625,37.8188,,0.0180769999999999,0.7642904814270554,1.1110576235194178,lateral_fall
3.103099,0.2928,0.1837,0.5919,-0.1079,0.2591,0.2812,19.425,-15.8625,37.8188,,0.0009429999999999161,0.6854364594913229,0.9509574444463416,lateral_fall
3.111677,0.2928,0.1837,0.5919,0.426,-0.1515,0.6588,19.425,-15.8625,37.8188,,0.008577999999999975,0.6854364594913229,0.8218927187870188,lateral_fall
3.121858,0.3608,0.4651,0.6225,0.426,-0.1515,0.6588,19.425,-15.8625,37.8188,,0.010181000000000218,0.8567385248720872,0.7248745607781555,lateral_fall
3.123984,0.3608,0.4651,0.6225,0.426,-0.1515,0.6588,19.3313,-16.0875,38.4375,,0.0021260000000000723,0.8567385248720872,0.6592188701376978,lateral_fall
3.142124,0.606,0.4554,0.517,0.426,-0.1515,0.6588,19.3313,-16.0875,38.4375,,0.018139999999999823,0.9175588046550478,0.6228328636665961,lateral_fall
3.150168,0.606,0.4554,0.517,0.426,-0.1515,0.6588,19.3313,-16.0875,38.4375,,0.00804399999999994,0.9175588046550478,0.6125594922242199,lateral_fall
3.160581,0.4537,0.362,0.4031,0.426,-0.1515,0.6588,19.3313,-16.0875,38.4375,,0.010413000000000228,0.7066663286162713,0.6245347784688414,lateral_fall
3.173791,0.4537,0.362,0.4031,0.5701,0.4081,0.2141,19.3313,-16.0875,38.4375,,0.013209999999999944,0.7066663286162713,0.6545230950470503,lateral_fall
3.179549,-0.3895,0.5069,-0.3101,0.5701,0.4081,0.2141,19.3313,-16.0875,38.4375,,0.005758000000000152,0.7105067698481135,0.6982086184705489,lateral_fall
3.181377,-0.3895,0.5069,-0.3101,0.5701,0.4081,0.2141,17.8125,-14.8875,39.1125,,0.0018279999999997187,0.7105067698481135,0.7514335710241338,lateral_fall
3.200095,-0.3895,0.5069,-0.3101,0.5701,0.4081,0.2141,17.8125,-14.8875,39.1125,,0.018718000000000234,0.7105067698481135,0.8103826095727891,lateral_fall
3.202516,-0.4877,0.3281,-0.5659,0.5701,0.4081,0.2141,17.8125,-14.8875,39.1125,,0.0024210000000000065,0.8159311919518704,0.8717171467540136,lateral_fall
3.217982,-0.4746,0.5071,-0.8142,0.5701,0.4081,0.2141,17.8125,-14.8875,39.1125,,0.01546599999999998,1.0701949401861326,0.9326642291130123,lateral_fall
3.236253,-0.4746,0.5071,-0.8142,0.1634,0.6122,0.1114,17.8125,-14.8875,39.1125,,0.018270999999999926,1.0701949401861326,0.9910631902006467,lateral_fall
3.239482,-0.2975,0.3663,-1.0686,0.1634,0.6122,0.1114,17.8125,-14.8875,39.1125,,0.0032290000000001484,1.1681557687226476,1.045371588888979,lateral_fall
3.242127,-0.2975,0.3663,-1.0686,0.1634,0.6122,0.1114,16.5188,-14.4188,40.3125,,0.0026449999999997864,1.1681557687226476,1.0946320609199274,lateral_fall
3.246998,-0.2975,0.3663,-1.0686,0.1634,0.6122,0.1114,16.5188,-14.4188,40.3125,,0.00487100000000007,1.1681557687226476,1.1384046276786814,lateral_fall
3.25551,-0.1317,0.0862,-0.8871,0.1634,0.6122,0.1114,16.5188,-14.4188,40.3125,,0.008512000000000075,0.9009560144646352,1.1766738509037984,lateral_fall
3.27479,-0.1709,-0.0372,-0.9336,0.1634,0.6122,0.1114,16.5188,-14.4188,40.3125,,0.019279999999999742,0.949841886842226,1.2097448408798046,lateral_fall
3.293945,-0.1709,-0.0372,-0.9336,0.1634,0.6122,0.1114,16.5188,-14.4188,40.3125,,0.019155000000000033,0.949841886842226,1.2381438099215945,lateral_fall
3.296528,-0.6494,-0.0366,-1.2796,0.1634,0.6122,0.1114,16.5188,-14.4188,40.3125,,0.002583000000000002,1.4354219170682883,1.2625353176303271,lateral_fall
3.299391,-0.6494,-0.0366,-1.2796,0.1682,0.2346,-0.2355,16.5188,-14.4188,40.3125,,0.00286300000000006,1.4354219170682883,1.2836596138456322,lateral_fall
3.301933,-0.6494,-0.0366,-1.2796,0.1682,0.2346,-0.2355,16.1063,-14.0625,41.1562,,0.0025420000000000442,1.4354219170682883,1.3022831637947678,lateral_fall
3.313846,-0.5205,-0.1524,-1.6274,0.1682,0.2346,-0.2355,16.1063,-14.0625,41.1562,,0.01191299999999984,1.715394056769464,1.3191488729348124,lateral_fall
3.332701,-0.3176,-0.2813,-1.4281,0.1682,0.2346,-0.2355,16.1063,-14.0625,41.1562,,0.018855000000000288,1.489788260122894,1.3349130335124488,lateral_fall
3.341706,-0.3176,-0.2813,-1.4281,0.1682,0.2346,-0.2355,16.1063,-14.0625,41.1562,,0.009004999999999708,1.489788260122894,1.3500633318202135,lateral_fall
3.352481,-0.4898,-0.3142,-0.9479,0.1682,0.2346,-0.2355,16.1063,-14.0625,41.1562,,0.010775000000000201,1.1122679937856703,1.3648239114961391,lateral_fall
3.361266,-0.4898,-0.3142,-0.9479,0.1059,-0.017,-0.4005,16.1063,-14.0625,41.1562,,0.008785000000000043,1.1122679937856703,1.379065967115722,lateral_fall
3.364229,-0.4898,-0.3142,-0.9479,0.1059,-0.017,-0.4005,15.9938,-13.6688,41.1562,,0.002962999999999827,1.1122679937856703,1.392251298470917,lateral_fall
3.370568,-0.6271,-0.2227,-0.474,0.1059,-0.017,-0.4005,15.9938,-13.6688,41.1562,,0.0063390000000000946,0.8170224599115987,1.4034378087599395,lateral_fall
3.389343,-0.6271,-0.2227,-0.474,0.1059,-0.017,-0.4005,15.9938,-13.6688,41.1562,,0.018775000000000208,0.8170224599115987,1.4113684966935798,lateral_fall
3.390776,-1.2633,-0.069,-0.4846,0.1059,-0.017,-0.4005,15.9938,-13.6688,41.1562,,0.0014329999999995735,1.354815504044739,1.4146497365879347,lateral_fall
3.409725,-1.6694,0.0891,-0.8869,0.1059,-0.017,-0.4005,15.9938,-13.6688,41.1562,,0.018949000000000105,1.8924657936142466,1.4120025922852295,lateral_fall
3.422182,-1.6694,0.0891,-0.8869,0.1059,-0.017,-0.4005,17.1188,-12.6,40.9313,,0.01245699999999994,1.8924657936142466,1.4025471719713922,lateral_fall
3.425503,-1.6694,0.0891,-0.8869,0.1156,-0.3884,-0.3113,17.1188,-12.6,40.9313,,0.0033210000000001294,1.8924657936142466,1.3860628126603287,lateral_fall
3.428178,-1.7208,-0.0734,-0.9577,0.1156,-0.3884,-0.3113,17.1188,-12.6,40.9313,,0.002674999999999983,1.9707180138213585,1.3631641544732813,lateral_fall
3.436586,-1.7208,-0.0734,-0.9577,0.1156,-0.3884,-0.3113,17.1188,-12.6,40.9313,,0.008408000000000193,1.9707180138213585,1.3353468574125542,lateral_fall
3.446916,-0.8402,-0.6175,-0.4079,0.1156,-0.3884,-0.3113,17.1188,-12.6,40.9313,,0.010329999999999728,1.119653830431531,1.3048823538680323,lateral_fall
3.466385,0.2099,-0.9887,-0.0061,0.1156,-0.3884,-0.3113,17.1188,-12.6,40.9313,,0.01946899999999996,1.0107536346706847,1.2745717961751228,lateral_fall
3.481924,0.2099,-0.9887,-0.0061,0.1156,-0.3884,-0.3113,17.6625,-12.0188,41.1188,,0.01553899999999997,1.0107536346706847,1.247397941038817,lateral_fall
3.485548,0.2099,-0.9887,-0.0061,0.1156,-0.3884,-0.3113,17.6625,-12.0188,41.1188,,0.0036240000000002937,1.0107536346706847,1.2261326659514393,lateral_fall
3.487359,0.2099,-0.9887,-0.0061,0.3575,-0.237,-0.4788,17.6625,-12.0188,41.1188,,0.001811000000000007,1.0107536346706847,1.2129629290654242,lateral_fall
3.489785,0.0929,-0.7599,0.1595,0.3575,-0.237,-0.4788,17.6625,-12.0188,41.1188,,0.002425999999999817,0.7819965920641855,1.2091913535247696,lateral_fall
3.505016,-0.4641,-0.5294,-0.2606,0.3575,-0.237,-0.4788,17.6625,-12.0188,41.1188,,0.015230999999999995,0.7507100172503361,1.2150547444509145,lateral_fall
3.52405,0.4499,0.018,-0.832,0.3575,-0.237,-0.4788,17.6625,-12.0188,41.1188,,0.019033999999999995,0.9460222037563389,1.2296881741005872,lateral_fall
3.53321,0.4499,0.018,-0.832,0.3575,-0.237,-0.4788,17.6625,-12.0188,41.1188,,0.009160000000000057,0.9460222037563389,1.2512439490282394,lateral_fall
3.542366,0.4499,0.018,-0.832,0.3575,-0.237,-0.4788,19.6875,-10.8938,39.4125,,0.009155999999999942,0.9460222037563389,1.277153629141968,lateral_fall
3.545406,1.3528,0.9496,-0.6349,0.3575,-0.237,-0.4788,19.6875,-10.8938,39.4125,,0.0030399999999999316,1.770566578810297,1.3044990127636873,lateral_fall
3.547949,1.3528,0.9496,-0.6349,-0.1544,0.0598,-0.6827,19.6875,-10.8938,39.4125,,0.002543000000000184,1.770566578810297,1.3304379094729,lateral_fall
3.561984,1.4902,1.3147,-0.5937,-0.1544,0.0598,-0.6827,19.6875,-10.8938,39.4125,,0.014034999999999798,2.0740327432323724,1.3526169909713877,lateral_fall
3.580371,1.4902,1.3147,-0.5937,-0.1544,0.0598,-0.6827,19.6875,-10.8938,39.4125,,0.018387000000000153,2.0740327432323724,1.3695021796837505,lateral_fall
3.583377,0.8482,1.4422,-0.0457,-0.1544,0.0598,-0.6827,19.6875,-10.8938,39.4125,,0.003006000000000064,1.673760009678807,1.3805701869671505,lateral_fall
3.600219,0.1136,1.3586,0.0979,-0.1544,0.0598,-0.6827,19.6875,-10.8938,39.4125,,0.016842000000000024,1.3668516122827672,1.3863311682557413,lateral_fall
3.601844,0.1136,1.3586,0.0979,-0.1544,0.0598,-0.6827,19.875,-10.3688,38.6813,,0.0016249999999997655,1.3668516122827672,1.3881850442031736,lateral_fall
3.611242,0.1136,1.3586,0.0979,-0.3083,-0.2993,-0.9455,19.875,-10.3688,38.6813,,0.009398000000000017,1.3668516122827672,1.3881437688451788,lateral_fall
3.62,-0.0992,0.7409,-0.3701,-0.3083,-0.2993,-0.9455,19.875,-10.3688,38.6813,,0.008758000000000266,0.8341147762748242,1.3884718938317941,non_fall
3.628278,-0.0992,0.7409,-0.3701,-0.3083,-0.2993,-0.9455,19.875,-10.3688,38.6813,,0.008277999999999786,0.8341147762748242,1.3913061756933829,non_fall
3.63819,-0.5009,-0.7276,-0.9608,-0.3083,-0.2993,-0.9455,19.875,-10.3688,38.6813,,0.009911999999999921,1.3051586915007691,1.3983126945135842,non_fall
3.65791,-1.2028,0.0514,-0.5907,-0.3083,-0.2993,-0.9455,19.875,-10.3688,38.6813,,0.019720000000000404,1.3410057009573078,1.4104282576888916,non_fall
3.662751,-1.2028,0.0514,-0.5907,-0.3083,-0.2993,-0.9455,19.8375,-10.275,40.35,,0.004840999999999873,1.3410057009573078,1.4277144735916296,non_fall
3.671146,-1.2028,0.0514,-0.5907,-0.472,-0.2358,-0.8905,19.8375,-10.275,40.35,,0.008394999999999708,1.3410057009573078,1.4493335372326646,non_fall
3.677902,-1.2028,0.0514,-0.5907,-0.472,-0.2358,-0.8905,19.8375,-10.275,40.35,,0.006756000000000206,1.3410057009573078,1.4736398567628035,non_fall
3.679218,-1.0113,0.0127,-0.891,-0.472,-0.2358,-0.8905,19.8375,-10.275,40.35,,0.0013160000000000949,1.347876099647145,1.4983720185346803,non_fall
3.695717,-0.8967,0.2272,-0.6922,-0.472,-0.2358,-0.8905,19.8375,-10.275,40.35,,0.01649900000000004,1.1553491117406895,1.5209224874748435,non_fall
3.715427,-1.4433,1.282,-0.4169,-0.472,-0.2358,-0.8905,19.8375,-10.275,40.35,,0.019709999999999894,1.9749543032688124,1.5386551206949406,non_fall
3.722934,-1.4433,1.282,-0.4169,-0.472,-0.2358,-0.8905,21.8063,-10.2938,39.6562,,0.00750699999999993,1.9749543032688124,1.5492324285806311,non_fall
3.72647,-1.4433,1.282,-0.4169,-0.472,-0.2358,-0.8905,21.8063,-10.2938,39.6562,,0.0035359999999999836,1.9749543032688124,1.5509080899028396,non_fall
3.73268,-1.4433,1.282,-0.4169,-0.7151,-0.5155,-0.8159,21.8063,-10.2938,39.6562,,0.006210000000000271,1.9749543032688124,1.5427405938851189,non_fall
3.734043,-0.9222,0.3955,-1.2,-0.7151,-0.5155,-0.8159,21.8063,-10.2938,39.6562,,0.001362999999999559,1.5642484105793428,1.5246946577888336,non_fall
3.754062,-0.8004,0.4169,-1.3055,-0.7151,-0.5155,-0.8159,21.8063,-10.2938,39.6562,,0.02001900000000001,1.5870652223522512,1.4976164404862018,non_fall
3.772014,-0.8004,0.4169,-1.3055,-0.7151,-0.5155,-0.8159,21.8063,-10.2938,39.6562,,0.01795200000000019,1.5870652223522512,1.4630903748546504,non_fall
3.773453,-0.573,0.2645,-1.0279,-0.7151,-0.5155,-0.8159,21.8063,-10.2938,39.6562,,0.001438999999999968,1.2061789502391425,1.4232037399771489,non_fall
3.782836,-0.573,0.2645,-1.0279,-0.7151,-0.5155,-0.8159,23.1,-11.0813,39.0,,0.009383000000000141,1.2061789502391425,1.3802571859449526,non_fall
3.797074,-0.2199,0.6018,-0.7714,-0.7151,-0.5155,-0.8159,23.1,-11.0813,39.0,,0.01423799999999975,1.002784727645969,1.3364652016495264,non_fall
3.799505,-0.2199,0.6018,-0.7714,-1.0975,-0.3982,-1.4597,23.1,-11.0813,39.0,,0.002431000000000072,1.002784727645969,1.2936901940562144,non_fall
3.810645,-0.2885,0.5763,-0.7875,-1.0975,-0.3982,-1.4597,23.1,-11.0813,39.0,,0.01114000000000015,1.0176002112814246,1.2532473054024333,non_fall
3.819192,-0.2885,0.5763,-0.7875,-1.0975,-0.3982,-1.4597,23.1,-11.0813,39.0,,0.008547000000000082,1.0176002112814246,1.2158050596526866,non_fall
3.830017,-0.6961,0.3147,-0.6912,-1.0975,-0.3982,-1.4597,23.1,-11.0813,39.0,,0.01082499999999964,1.0302178119213432,1.1813915314262067,non_fall
3.841212,-0.6961,0.3147,-0.6912,-1.0975,-0.3982,-1.4597,25.0875,-11.325,37.0688,,0.011195000000000288,1.0302178119213432,1.1494996246733693,non_fall
3.849272,-1.2472,0.4829,-0.3736,-1.0975,-0.3982,-1.4597,25.0875,-11.325,37.0688,,0.008059999999999956,1.388624214825595,1.1192703796134729,non_fall
3.857615,-1.2472,0.4829,-0.3736,-1.3333,-0.738,-1.7248,25.0875,-11.325,37.0688,,0.00834299999999999,1.388624214825595,1.089721588010801,non_fall
3.867571,-1.2472,0.4829,-0.3736,-1.3333,-0.738,-1.7248,25.0875,-11.325,37.0688,,0.009955999999999854,1.388624214825595,1.0599822809130603,non_fall
3.870528,-1.2364,0.444,-0.2113,-1.3333,-0.738,-1.7248,25.0875,-11.325,37.0688,,0.0029570000000003205,1.3305895873634364,1.0294941051578943,non_fall
3.887123,-0.2889,0.8287,-0.14,-1.3333,-0.738,-1.7248,25.0875,-11.325,37.0688,,0.016594999999999693,0.8887108078559639,0.9981490397417716,non_fall
3.901773,-0.2889,0.8287,-0.14,-1.3333,-0.738,-1.7248,27.1688,-11.8875,35.2313,,0.014650000000000052,0.8887108078559639,0.9663469299966728,non_fall
3.906111,0.1942,1.0377,0.3061,-1.3333,-0.738,-1.7248,27.1688,-11.8875,35.2313,,0.004338000000000175,1.0991961335448739,0.9349709284075707,non_fall
3.916117,0.1942,1.0377,0.3061,-1.3333,-0.738,-1.7248,27.1688,-11.8875,35.2313,,0.010005999999999737,1.0991961335448739,0.905289508745427,non_fall
3.921141,0.1942,1.0377,0.3061,-1.833,-0.4496,-1.2789,27.1688,-11.8875,35.2313,,0.0050240000000001395,1.0991961335448739,0.8787993871834197,non_fall
3.925205,0.244,0.6132,0.6574,-1.833,-0.4496,-1.2789,27.1688,-11.8875,35.2313,,0.0040640000000000676,0.9315175790075031,0.8570276753636896,non_fall
3.944215,0.2331,0.104,0.3127,-1.833,-0.4496,-1.2789,27.1688,-11.8875,35.2313,,0.01900999999999975,0.4036494766502243,0.8413174841609972,non_fall
3.962583,0.2331,0.104,0.3127,-1.833,-0.4496,-1.2789,29.1,-13.4438,33.8063,,0.018368000000000162,0.4036494766502243,0.8326286887439881,non_fall
3.966062,0.2331,0.104,0.3127,-1.833,-0.4496,-1.2789,29.1,-13.4438,33.8063,,0.00347900000000001,0.4036494766502243,0.8313900360501724,non_fall
3.968175,0.51,0.0205,-0.3022,-1.833,-0.4496,-1.2789,29.1,-13.4438,33.8063,,0.0021130000000000315,0.5931653142253009,0.837434856746235,non_fall
3.981915,0.51,0.0205,-0.3022,-2.2729,0.0818,-1.0823,29.1,-13.4438,33.8063,,0.013739999999999863,0.5931653142253009,0.850038703217215,non_fall
3.983475,0.4615,0.179,0.6589,-2.2729,0.0818,-1.0823,29.1,-13.4438,33.8063,,0.0015600000000000058,0.8241192025429331,0.8680567654380333,non_fall
4.00181,0.1871,0.7416,1.3421,-2.2729,0.0818,-1.0823,29.1,-13.4438,33.8063,,0.01833499999999999,1.5447360227559919,0.8901378124737197,non_fall
4.012688,0.1871,0.7416,1.3421,-2.2729,0.0818,-1.0823,29.1,-13.4438,33.8063,,0.010877999999999943,1.5447360227559919,0.9149751470883323,non_fall
4.021614,0.5419,-0.1747,0.4754,-2.2729,0.0818,-1.0823,29.1,-13.4438,33.8063,,0.008925999999999767,0.741741774474109,0.9415484821489358,non_fall
4.024735,0.5419,-0.1747,0.4754,-2.2729,0.0818,-1.0823,30.9,-15.75,29.9063,,0.0031210000000001514,0.741741774474109,0.9693166160081297,non_fall
4.040517,1.0471,-0.6586,0.1637,-2.2729,0.0818,-1.0823,30.9,-15.75,29.9063,,0.01578200000000063,1.2477860633938815,0.998335976158526,non_fall
4.044321,1.0471,-0.6586,0.1637,-2.1604,0.2834,-1.0688,30.9,-15.75,29.9063,,0.0038039999999996965,1.2477860633938815,1.029295286715448,non_fall
4.05798,1.0471,-0.6586,0.1637,-2.1604,0.2834,-1.0688,30.9,-15.75,29.9063,,0.013658999999999644,1.2477860633938815,1.0634652495210506,non_fall
4.059263,0.8739,-0.6222,0.1182,-2.1604,0.2834,-1.0688,30.9,-15.75,29.9063,,0.001282999999999923,1.079261455811334,1.1025663619163255,non_fall
4.078638,0.0958,-0.0278,1.3092,-2.1604,0.2834,-1.0688,30.9,-15.75,29.9063,,0.019375000000000142,1.3129947143838774,1.1485634413503611,non_fall
4.082438,0.0958,-0.0278,1.3092,-2.1604,0.2834,-1.0688,31.4625,-17.6625,29.8688,,0.0038000000000000256,1.3129947143838774,1.2034035319991707,non_fall
4.097363,-0.5666,-0.595,0.7909,-2.1604,0.2834,-1.0688,31.4625,-17.6625,29.8688,,0.014924999999999855,1.1404312210738532,1.2687222515328784,non_fall
4.106406,-0.5666,-0.595,0.7909,-2.1604,0.2834,-1.0688,31.4625,-17.6625,29.8688,,0.009043000000000134,1.1404312210738532,1.3455504166739605,non_fall
4.107293,-0.5666,-0.595,0.7909,-1.8355,0.7355,-0.7817,31.4625,-17.6625,29.8688,,0.0008870000000005263,1.1404312210738532,1.4340571983725428,non_fall
4.116912,-0.2746,0.3745,1.2218,-1.8355,0.7355,-0.7817,31.4625,-17.6625,29.8688,,0.009618999999999822,1.3070771400342063,1.533366650774664,non_fall
4.136431,0.2655,-1.253,0.2674,-1.8355,0.7355,-0.7817,31.4625,-17.6625,29.8688,,0.019518999999999842,1.3084349467971268,1.6414795258034154,non_fall
4.141965,0.2655,-1.253,0.2674,-1.8355,0.7355,-0.7817,29.7,-19.7063,30.4313,,0.005533999999999928,1.3084349467971268,1.7553217118633662,non_fall
4.154855,0.2655,-1.253,0.2674,-1.8355,0.7355,-0.7817,29.7,-19.7063,30.4313,,0.012890000000000512,1.3084349467971268,1.8709257281581593,non_fall
4.157966,1.3272,-2.0451,0.3549,-1.8355,0.7355,-0.7817,29.7,-19.7063,30.4313,,0.003110999999999642,2.463706122896966,1.9837335096505877,non_fall
4.168148,1.3272,-2.0451,0.3549,-1.6767,1.0653,-0.5373,29.7,-19.7063,30.4313,,0.010182000000000357,2.463706122896966,2.0889884566830466,non_fall
4.173829,1.1567,-2.1669,-0.8064,-1.6767,1.0653,-0.5373,29.7,-19.7063,30.4313,,0.005680999999999159,2.585283632408638,2.1821666850210124,non_fall
4.193334,1.5251,-1.9205,-0.5175,-1.6767,1.0653,-0.5373,29.7,-19.7063,30.4313,,0.01950500000000055,2.50640310205681,2.2593888236221895,non_fall
4.201475,1.5251,-1.9205,-0.5175,-1.6767,1.0653,-0.5373,28.3125,-21.7875,31.0688,,0.008141000000000176,2.50640310205681,2.31775889471244,non_fall
4.202971,1.5251,-1.9205,-0.5175,-1.6767,1.0653,-0.5373,28.3125,-21.7875,31.0688,,0.0014959999999994977,2.50640310205681,2.3555926690480886,non_fall
4.211397,1.0977,-2.1045,1.2616,-1.6767,1.0653,-0.5373,28.3125,-21.7875,31.0688,,0.008426000000000045,2.688029036301505,2.3725171179280786,non_fall
4.231067,1.0977,-2.1045,1.2616,-1.5129,1.1582,-0.6839,28.3125,-21.7875,31.0688,,0.01967000000000052,2.688029036301505,2.3694400773512982,non_fall
4.23473,0.8299,-1.5103,1.232,-1.5129,1.1582,-0.6839,28.3125,-21.7875,31.0688,,0.0036629999999995277,2.1183871459202166,2.3484043123755,non_fall
4.250054,0.8299,-1.5103,1.232,-1.5129,1.1582,-0.6839,28.3125,-21.7875,31.0688,,0.01532400000000056,2.1183871459202166,2.3123539636072112,non_fall
4.251406,1.0081,-1.2741,0.5037,-1.5129,1.1582,-0.6839,28.3125,-21.7875,31.0688,,0.0013519999999997978,1.7009732831529132,2.2648530123982904,non_fall
4.261832,1.0081,-1.2741,0.5037,-1.5129,1.1582,-0.6839,26.85,-23.7,30.6938,,0.010425999999999824,1.7009732831529132,2.2098009532633682,non_fall
4.269861,0.5955,-2.4271,-0.2971,-1.5129,1.1582,-0.6839,26.85,-23.7,30.6938,,0.00802899999999962,2.5166849365782755,2.151186348514773,non_fall
4.288127,-0.1514,-1.6084,0.6301,-1.5129,1.1582,-0.6839,26.85,-23.7,30.6938,,0.01826600000000056,1.7340410981288765,2.092904672308313,non_fall
4.291924,-0.1514,-1.6084,0.6301,-1.4641,1.2327,-0.987,26.85,-23.7,30.6938,,0.0037969999999996062,1.7340410981288765,2.0386483555435246,non_fall
4.298077,-0.1514,-1.6084,0.6301,-1.4641,1.2327,-0.987,26.85,-23.7,30.6938,,0.006153000000000297,1.7340410981288765,1.9918606377427472,non_fall
4.308094,-0.8899,-2.2635,0.4224,-1.4641,1.2327,-0.987,26.85,-23.7,30.6938,,0.010016999999999499,2.468557477556478,1.9557323973681109,non_fall
4.324205,-0.8899,-2.2635,0.4224,-1.4641,1.2327,-0.987,26.0063,-24.4875,31.2188,,0.01611100000000043,2.468557477556478,1.9332105166591984,non_fall
4.328287,-1.6551,-0.3178,1.8956,-1.4641,1.2327,-0.987,26.0063,-24.4875,31.2188,,0.004082000000000363,2.5364645099034995,1.9269787258011775,non_fall
4.345219,-1.6551,-0.3178,1.8956,-1.4641,1.2327,-0.987,26.0063,-24.4875,31.2188,,0.016931999999999725,2.5364645099034995,1.9393734527254551,non_fall
4.346564,-1.7993,0.0036,0.5593,-1.4641,1.2327,-0.987,26.0063,-24.4875,31.2188,,0.0013449999999997075,1.884226615882495,1.9722124635604747,non_fall
4.355185,-1.7993,0.0036,0.5593,-1.4469,0.8686,-0.8317,26.0063,-24.4875,31.2188,,0.008620999999999768,1.884226615882495,2.0265401439317934,non_fall
4.366046,-1.6624,0.3775,1.222,-1.4469,0.8686,-0.8317,26.0063,-24.4875,31.2188,,0.010861000000000232,2.0974660926937534,2.102321370062728,non_fall
4.382003,-1.6624,0.3775,1.222,-1.4469,0.8686,-0.8317,25.65,-25.3688,31.0313,,0.01595700000000022,2.0974660926937534,2.19813695867894,non_fall
4.386444,-0.7661,-0.2698,1.7224,-1.4469,0.8686,-0.8317,25.65,-25.3688,31.0313,,0.004440999999999917,1.904301186787426,2.3109434600868597,non_fall
4.393275,-0.7661,-0.2698,1.7224,-1.4469,0.8686,-0.8317,25.65,-25.3688,31.0313,,0.0068310000000000315,1.904301186787426,2.4359601484324784,non_fall
4.403523,-0.8741,0.1251,1.0033,-1.4469,0.8686,-0.8317,25.65,-25.3688,31.0313,,0.010247999999999813,1.3365297265680252,2.566739215823296,non_fall
4.417561,-0.8741,0.1251,1.0033,-0.8129,1.4942,-0.2771,25.65,-25.3688,31.0313,,0.014038000000000217,1.3365297265680252,2.695460382176695,non_fall
4.423437,-1.8827,0.0571,2.4426,-0.8129,1.4942,-0.2771,25.65,-25.3688,31.0313,,0.00587599999999977,3.084495819416846,2.813464060336073,non_fall
4.441215,-1.8827,0.0571,2.4426,-0.8129,1.4942,-0.2771,25.65,-25.3688,31.0313,,0.01777799999999985,3.084495819416846,2.911996076582544,non_fall
4.442646,-3.1866,-0.0104,1.819,-0.8129,1.4942,-0.2771,25.65,-25.3688,31.0313,,0.0014310000000001821,3.669235440796897,2.9830891941346644,non_fall
4.443528,-3.1866,-0.0104,1.819,-0.8129,1.4942,-0.2771,23.925,-26.475,32.2125,,0.0008819999999998274,3.669235440796897,3.020468365322525,non_fall
4.461293,-3.1874,1.1024,-1.139,-0.8129,1.4942,-0.2771,23.925,-26.475,32.2125,,0.017765000000000697,3.5597929040886633,3.020351508824832,non_fall
4.479378,-3.1874,1.1024,-1.139,-0.3645,0.5474,0.4034,23.925,-26.475,32.2125,,0.01808499999999924,3.5597929040886633,2.982027504144263,non_fall
4.483073,0.9195,-2.0235,-3.2741,-0.3645,0.5474,0.4034,23.925,-26.475,32.2125,,0.003695000000000448,3.957241881664551,2.9081201677856807,non_fall
4.490443,0.9195,-2.0235,-3.2741,-0.3645,0.5474,0.4034,23.925,-26.475,32.2125,,0.007369999999999877,3.957241881664551,2.804482670318637,non_fall
4.500668,2.67,-0.0319,-1.5782,-0.3645,0.5474,0.4034,23.925,-26.475,32.2125,,0.01022500000000015,3.1017145016909597,2.6797076836805,non_fall
4.504278,2.67,-0.0319,-1.5782,-0.3645,0.5474,0.4034,23.3063,-27.8063,31.5938,,0.003610000000000113,3.1017145016909597,2.5442850516563045,non_fall
4.518933,1.739,-0.0641,-0.009,-0.3645,0.5474,0.4034,23.3063,-27.8063,31.5938,,0.014654999999999418,1.7402042437599101,2.40948957441206,non_fall
4.536353,1.739,-0.0641,-0.009,-0.3645,0.5474,0.4034,23.3063,-27.8063,31.5938,,0.017420000000000435,1.7402042437599101,2.2861291024787205,non_fall
4.538288,-0.0829,-0.3496,0.0819,-0.3645,0.5474,0.4034,23.3063,-27.8063,31.5938,,0.001934999999999576,0.36851075968009406,2.183316256891628,non_fall
4.541117,-0.0829,-0.3496,0.0819,-0.3058,1.1863,0.4572,23.3063,-27.8063,31.5938,,0.0028290000000001925,0.36851075968009406,2.1074356537713808,non_fall
4.556625,-0.2322,-1.2563,-0.4031,-0.3058,1.1863,0.4572,23.3063,-27.8063,31.5938,,0.015508000000000521,1.3396626963530782,2.061456525139456,non_fall
4.564133,-0.2322,-1.2563,-0.4031,-0.3058,1.1863,0.4572,20.475,-28.2188,33.45,,0.007507999999999626,1.3396626963530782,2.044688498992235,non_fall
4.575821,1.8328,-0.7836,-0.4529,-0.3058,1.1863,0.4572,20.475,-28.2188,33.45,,0.011688000000000365,2.044089824347257,2.05300595787887,non_fall
4.584766,1.8328,-0.7836,-0.4529,-0.3058,1.1863,0.4572,20.475,-28.2188,33.45,,0.008944999999999759,2.044089824347257,2.079491842482925,non_fall
4.594882,2.7033,-0.2132,-1.1985,-0.3058,1.1863,0.4572,20.475,-28.2188,33.45,,0.010116000000000014,2.9647406935514615,2.1153921348315845,non_fall
4.603176,2.7033,-0.2132,-1.1985,0.0154,1.3695,0.291,20.475,-28.2188,33.45,,0.008294000000000246,2.9647406935514615,2.1512360701548454,non_fall
4.614238,2.7307,0.4154,-1.3682,0.0154,1.3695,0.291,20.475,-28.2188,33.45,,0.011061999999999905,3.082409915958616,2.1779656306186226,non_fall
4.621942,2.7307,0.4154,-1.3682,0.0154,1.3695,0.291,15.9938,-28.9688,36.9,,0.007703999999999489,3.082409915958616,2.1879297160687434,non_fall
4.633063,2.7307,0.4154,-1.3682,0.0154,1.3695,0.291,15.9938,-28.9688,36.9,,0.011121000000000159,3.082409915958616,2.1756302508270458,non_fall
4.63447,2.2391,0.2792,0.2729,0.0154,1.3695,0.291,15.9938,-28.9688,36.9,,0.0014070000000003802,2.2728827202475714,2.138153101395191,non_fall
4.652151,1.8324,-0.0523,0.6184,0.0154,1.3695,0.291,15.9938,-28.9688,36.9,,0.017680999999999614,1.9346430187504877,2.0752679295512895,non_fall
4.667159,1.8324,-0.0523,0.6184,-0.0591,1.5577,-0.161,15.9938,-28.9688,36.9,,0.01500799999999991,1.9346430187504877,1.989229261341912,non_fall
4.671441,1.2637,-0.3599,0.2069,-0.0591,1.5577,-0.161,15.9938,-28.9688,36.9,,0.004281999999999897,1.3301403347015683,1.884347595234945,non_fall
4.68021,1.2637,-0.3599,0.2069,-0.0591,1.5577,-0.161,15.9938,-28.9688,36.9,,0.008769000000000027,1.3301403347015683,1.7664187732820251,non_fall
4.68308,1.2637,-0.3599,0.2069,-0.0591,1.5577,-0.161,13.1438,-28.8563,38.325,,0.0028700000000005943,1.3301403347015683,1.6421019930628713,non_fall
4.690039,0.7236,0.2919,-0.7135,-0.0591,1.5577,-0.161,13.1438,-28.8563,38.325,,0.006958999999999271,1.0573007235408476,1.5183255503719641,non_fall
4.70923,0.7873,0.0857,-0.7053,-0.0591,1.5577,-0.161,13.1438,-28.8563,38.325,,0.01919100000000018,1.0604875623975984,1.401779518841872,non_fall
4.728982,0.7873,0.0857,-0.7053,-0.0591,1.5577,-0.161,13.1438,-28.8563,38.325,,0.019752000000000436,1.0604875623975984,1.2985306531567893,non_fall
4.731674,0.7873,0.0857,-0.7053,-0.1995,1.295,-0.2001,13.1438,-28.8563,38.325,,0.0026919999999996946,1.0604875623975984,1.213770304988723,non_fall
4.733958,1.6459,-0.0483,-0.4564,-0.1995,1.295,-0.2001,13.1438,-28.8563,38.325,,0.002284000000000397,1.7086897494864302,1.1516833377467086,non_fall
4.740881,1.6459,-0.0483,-0.4564,-0.1995,1.295,-0.2001,9.9188,-28.8188,39.3563,,0.006922999999999568,1.7086897494864302,1.115407600612689,non_fall
4.748068,0.722,-0.3966,-0.9283,-0.1995,1.295,-0.2001,9.9188,-28.8188,39.3563,,0.0071870000000000545,1.2410948593882742,1.10704377112604,non_fall
4.766917,0.5468,-0.7997,-0.8346,-0.1995,1.295,-0.2001,9.9188,-28.8188,39.3563,,0.018849000000000338,1.2786975756604844,1.127678176763217,non_fall
4.777292,0.5468,-0.7997,-0.8346,-0.1995,1.295,-0.2001,9.9188,-28.8188,39.3563,,0.010374999999999801,1.2786975756604844,1.1773956490775677,non_fall
4.78592,-0.4564,-0.8421,-0.4913,-0.1995,1.295,-0.2001,9.9188,-28.8188,39.3563,,0.008627999999999858,1.0764799394322218,1.255278746640647,non_fall
4.790148,-0.4564,-0.8421,-0.4913,-0.1775,0.9481,-0.6766,9.9188,-28.8188,39.3563,,0.004228000000000343,1.0764799394322218,1.3594059629919477,non_fall
4.801868,-0.4564,-0.8421,-0.4913,-0.1775,0.9481,-0.6766,7.6688,-28.7063,40.2563,,0.011719999999999509,1.0764799394322218,1.4868706149588253,non_fall
4.80548,-0.9376,-1.0815,-0.4622,-0.1775,0.9481,-0.6766,7.6688,-28.7063,40.2563,,0.0036120000000003927,1.5041159695980892,1.633842906328387,non_fall
4.823693,-0.9376,-1.0815,-0.4622,-0.1775,0.9481,-0.6766,7.6688,-28.7063,40.2563,,0.01821299999999937,1.5041159695980892,1.7956903925256258,non_fall
4.826821,-0.7442,-1.3407,-1.3296,-0.1775,0.9481,-0.6766,7.6688,-28.7063,40.2563,,0.0031280000000002417,2.0295680057588608,1.9671586876836196,non_fall
4.844054,-0.1558,-2.5335,-1.442,-0.1775,0.9481,-0.6766,7.6688,-28.7063,40.2563,,0.017233000000000054,2.9192909909770903,2.142598847098492,non_fall
4.852256,-0.1558,-2.5335,-1.442,0.3257,0.3226,-0.6632,7.6688,-28.7063,40.2563,,0.00820199999999982,2.9192909909770903,2.3162158105280017,non_fall
4.862318,-0.686,-0.9571,-1.8041,0.3257,0.3226,-0.6632,7.6688,-28.7063,40.2563,,0.01006200000000046,2.1543939333371696,2.482309378196723,non_fall
4.865508,-0.686,-0.9571,-1.8041,0.3257,0.3226,-0.6632,8.3063,-27.5438,40.4438,,0.003190000000000026,2.1543939333371696,2.635488548626535,non_fall
4.870911,-0.686,-0.9571,-1.8041,0.3257,0.3226,-0.6632,8.3063,-27.5438,40.4438,,0.005403000000000269,2.1543939333371696,2.7708568323161566,non_fall
4.88136,-1.4787,-0.4394,-3.1382,0.3257,0.3226,-0.6632,8.3063,-27.5438,40.4438,,0.010448999999999486,3.496845048039732,2.8841781449769246,non_fall
4.901,-0.9038,0.3961,-3.0518,0.3257,0.3226,-0.6632,8.3063,-27.5438,40.4438,,0.01963999999999988,3.207371648250324,2.9720313393929927,non_fall
4.914579,-0.9038,0.3961,-3.0518,0.5127,0.3336,-0.6216,8.3063,-27.5438,40.4438,,0.013579000000000008,3.207371648250324,3.0319505880563113,non_fall
4.919553,-0.9038,0.3961,-3.0518,0.5127,0.3336,-0.6216,8.3063,-27.5438,40.4438,,0.004973999999999812,3.207371648250324,3.062541163196606,non_fall
4.921571,-0.8874,1.6166,-1.886,0.5127,0.3336,-0.6216,8.3063,-27.5438,40.4438,,0.0020180000000005194,2.6377775342132246,3.0635630323211758,non_fall
4.923484,-0.8874,1.6166,-1.886,0.5127,0.3336,-0.6216,8.7938,-25.8563,41.7938,,0.0019130000000000535,2.6377775342132246,3.035984364088029,non_fall
4.939131,-0.4294,1.8343,-1.5168,0.5127,0.3336,-0.6216,8.7938,-25.8563,41.7938,,0.015646999999999522,2.4186200797148776,2.982014315269286,non_fall
4.95784,-0.2464,1.628,-2.6668,0.5127,0.3336,-0.6216,8.7938,-25.8563,41.7938,,0.01870900000000031,3.1341536656647833,2.905122398762392,non_fall
4.967079,-0.2464,1.628,-2.6668,0.5127,0.3336,-0.6216,8.7938,-25.8563,41.7938,,0.009238999999999997,3.1341536656647833,2.810039408252262,non_fall
4.978919,-0.2464,1.628,-2.6668,0.4052,0.2615,-0.4555,8.7938,-25.8563,41.7938,,0.011840000000000295,3.1341536656647833,2.702718148912308,non_fall
4.97983,-0.3508,1.8354,-2.2027,0.4052,0.2615,-0.4555,8.7938,-25.8563,41.7938,,0.00091099999999944,2.888536150024784,2.590220766008728,non_fall
4.981996,-0.3508,1.8354,-2.2027,0.4052,0.2615,-0.4555,10.2563,-23.3813,40.8375,,0.0021659999999998902,2.888536150024784,2.4805002232765885,non_fall
4.996442,-0.6133,2.1288,-1.8663,0.4052,0.2615,-0.4555,10.2563,-23.3813,40.8375,,0.014446000000000403,2.89672263428862,2.3820563507513177,non_fall
5.014745,-0.6133,2.1288,-1.8663,0.4052,0.2615,-0.4555,10.2563,-23.3813,40.8375,,0.018302999999999514,2.89672263428862,2.303467182676448,non_fall
5.017804,-0.0214,0.873,-1.1598,0.4052,0.2615,-0.4555,10.2563,-23.3813,40.8375,,0.003059000000000367,1.4517999173439844,2.2528200173621205,non_fall
5.034997,0.5826,1.0363,-1.4503,0.4052,0.2615,-0.4555,10.2563,-23.3813,40.8375,,0.017192999999999792,1.8752894549908823,2.23709089214183,non_fall
5.03893,0.5826,1.0363,-1.4503,0.1144,0.4789,-0.0487,10.2563,-23.3813,40.8375,,0.003932999999999964,1.8752894549908823,2.2615404410483424,non_fall
5.041821,0.5826,1.0363,-1.4503,0.1144,0.4789,-0.0487,8.925,-22.1625,42.975,,0.002890999999999977,1.8752894549908823,2.329200500149114,non_fall
5.05411,1.367,1.5464,-0.2932,0.1144,0.4789,-0.0487,8.925,-22.1625,42.975,,0.012288999999999994,2.0847081810171897,2.440516021377091,non_fall
5.062649,1.367,1.5464,-0.2932,0.1144,0.4789,-0.0487,8.925,-22.1625,42.975,,0.00853900000000074,2.0847081810171897,2.5931855626420015,non_fall
5.074098,2.2771,0.6909,-1.8602,0.1144,0.4789,-0.0487,8.925,-22.1625,42.975,,0.01144899999999982,3.020409121294663,2.782218171455184,non_fall
5.092657,1.1257,-0.4337,-3.0404,0.1144,0.4789,-0.0487,8.925,-22.1625,42.975,,0.01855899999999977,3.2709827789213444,3.000199603682629,non_fall
5.100576,1.1257,-0.4337,-3.0404,-0.296,1.0384,0.0661,8.925,-22.1625,42.975,,0.007919000000000231,3.2709827789213444,3.2377400904191354,non_fall
5.101918,1.1257,-0.4337,-3.0404,-0.296,1.0384,0.0661,6.7875,-22.4438,43.7625,,0.0013420000000001764,3.2709827789213444,3.484063418653332,non_fall
5.110971,1.1257,-0.4337,-3.0404,-0.296,1.0384,0.0661,6.7875,-22.4438,43.7625,,0.009052999999999756,3.2709827789213444,3.7276941829148633,non_fall
5.112304,-0.1789,-0.0928,-3.2626,-0.296,1.0384,0.0661,6.7875,-22.4438,43.7625,,0.0013329999999998066,3.268818717824529,3.9572016138233503,non_fall
5.130945,1.006,-3.4287,-2.2941,-0.296,1.0384,0.0661,6.7875,-22.4438,43.7625,,0.018640999999999686,4.246282432905282,4.161955834866931,non_fall
5.150263,-0.4378,-3.4672,-4.2172,-0.296,1.0384,0.0661,6.7875,-22.4438,43.7625,,0.01931800000000017,5.477035742078009,4.332840835053068,non_fall
5.157921,-0.4378,-3.4672,-4.2172,-0.296,1.0384,0.0661,6.7875,-22.4438,43.7625,,0.007658000000000165,5.477035742078009,4.4628520992857545,non_fall
5.161907,-0.4378,-3.4672,-4.2172,-0.296,1.0384,0.0661,5.4188,-24.525,42.8438,,0.003986000000000267,5.477035742078009,4.547498641958112,non_fall
5.162713,-0.4378,-3.4672,-4.2172,-1.3541,0.6157,0.1309,5.4188,-24.525,42.8438,,0.0008059999999998624,5.477035742078009,4.584942370073631,non_fall
5.169029,1.1799,-2.9965,-4.2395,-1.3541,0.6157,0.1309,5.4188,-24.525,42.8438,,0.006315999999999988,5.323958725422277,4.575845108285137,non_fall
5.188431,0.9656,-3.3063,-1.8459,-1.3541,0.6157,0.1309,5.4188,-24.525,42.8438,,0.019401999999999475,3.9078574513408237,4.522946118023194,non_fall
5.205865,0.9656,-3.3063,-1.8459,-1.3541,0.6157,0.1309,5.4188,-24.525,42.8438,,0.017434000000000616,3.9078574513408237,4.4304467876486076,non_fall
5.207247,1.132,-2.2233,0.4086,-1.3541,0.6157,0.1309,5.4188,-24.525,42.8438,,0.0013819999999995503,2.5281299116145117,4.303321110859795,non_fall
5.22092,1.132,-2.2233,0.4086,-1.3541,0.6157,0.1309,4.05,-28.5938,40.3688,,0.013672999999999824,2.5281299116145117,4.146688419856136,non_fall
5.224711,1.132,-2.2233,0.4086,-1.7315,0.8723,0.0967,4.05,-28.5938,40.3688,,0.003791000000000544,2.5281299116145117,3.965369843804522,non_fall
5.227926,1.0266,-3.8974,-0.1912,-1.7315,0.8723,0.0967,4.05,-28.5938,40.3688,,0.003214999999999968,4.0348719632721926,3.7637013659333607,non_fall
5.24538,1.6775,-4.0952,0.9548,-1.7315,0.8723,0.0967,4.05,-28.5938,40.3688,,0.01745399999999986,4.527285315727296,3.5456047700396085,non_fall
5.256629,1.6775,-4.0952,0.9548,-1.7315,0.8723,0.0967,4.05,-28.5938,40.3688,,0.011249000000000287,4.527285315727296,3.3148452673395354,non_fall
5.265102,1.2235,-3.3554,2.0737,-1.7315,0.8723,0.0967,4.05,-28.5938,40.3688,,0.008472999999999509,4.129878097474549,3.0753573841416135,non_fall
5.281925,1.2235,-3.3554,2.0737,-1.7315,0.8723,0.0967,2.475,-31.875,37.9875,,0.016823000000000476,4.129878097474549,2.8315150717593367,non_fall
5.285706,-0.6238,-0.913,1.5524,-1.7315,0.8723,0.0967,2.475,-31.875,37.9875,,0.0037810000000000343,1.9059488975310959,2.5882554009428986,non_fall
5.288639,-0.6238,-0.913,1.5524,-0.8887,0.149,-0.0694,2.475,-31.875,37.9875,,0.0029329999999996303,1.9059488975310959,2.351020147203631,non_fall
5.301511,-0.6238,-0.913,1.5524,-0.8887,0.149,-0.0694,2.475,-31.875,37.9875,,0.012871999999999773,1.9059488975310959,2.1255335186140383,non_fall
5.302843,0.2198,-1.5786,1.4304,-0.8887,0.149,-0.0694,2.475,-31.875,37.9875,,0.001332000000000555,2.1415728238843523,1.9174685973858852,non_fall
5.321461,-1.0614,1.2442,0.9503,-0.8887,0.149,-0.0694,2.475,-31.875,37.9875,,0.018618000000000023,1.8914739464237935,1.7320639122120023,non_fall
5.34057,-0.411,-0.7483,0.338,-0.8887,0.149,-0.0694,2.475,-31.875,37.9875,,0.019108999999999376,0.91821451197419,1.5737444975657613,non_fall
5.344295,-0.411,-0.7483,0.338,-0.8887,0.149,-0.0694,2.8125,-32.7938,36.525,,0.0037250000000002004,0.91821451197419,1.4457927830453072,non_fall
5.348657,-0.411,-0.7483,0.338,-0.8887,0.149,-0.0694,2.8125,-32.7938,36.525,,0.004362000000000421,0.91821451197419,1.35010795137576,non_fall
5.349418,-0.411,-0.7483,0.338,-0.7249,0.1723,0.1492,2.8125,-32.7938,36.525,,0.0007609999999997896,0.91821451197419,1.2870820964109375,non_fall
5.359673,-1.4448,1.3615,0.7521,-0.7249,0.1723,0.1492,2.8125,-32.7938,36.525,,0.010254999999999903,2.122918674843669,1.2556027069071773,non_fall
5.378033,-0.1059,-0.3466,1.3687,-0.7249,0.1723,0.1492,2.8125,-32.7938,36.525,,0.018360000000000376,1.415869365443013,1.2531676773849256,non_fall
5.397986,-0.1059,-0.3466,1.3687,-0.7249,0.1723,0.1492,2.8125,-32.7938,36.525,,0.01995300000000011,1.415869365443013,1.2760814803285225,non_fall
5.400961,0.0704,-0.1241,1.2607,-0.7249,0.1723,0.1492,2.8125,-32.7938,36.525,,0.0029749999999992838,1.268747989160968,1.3196972870683812,non_fall
5.403503,0.0704,-0.1241,1.2607,-0.7249,0.1723,0.1492,2.1,-33.9,35.2875,,0.0025420000000000442,1.268747989160968,1.3786785622770883,non_fall
5.410983,0.0704,-0.1241,1.2607,-0.803,0.2872,0.3447,2.1,-33.9,35.2875,,0.007480000000000153,1.268747989160968,1.4472661742661652,non_fall
5.417961,-0.2425,-0.0696,1.4343,-0.803,0.2872,0.3447,2.1,-33.9,35.2875,,0.006978000000000151,1.4563196421115798,1.519545010831348,non_fall
5.436577,0.0301,-0.4866,1.8762,-0.803,0.2872,0.3447,2.1,-33.9,35.2875,,0.018615999999999744,1.9385076760229762,1.5897050908042116,non_fall
5.445177,0.0301,-0.4866,1.8762,-0.803,0.2872,0.3447,2.1,-33.9,35.2875,,0.008600000000000385,1.9385076760229762,1.6522889319607306,non_fall
5.456381,-0.1658,-0.5242,1.4498,-0.803,0.2872,0.3447,2.1,-33.9,35.2875,,0.011204000000000214,1.5505467809776008,1.7024143745653122,non_fall
5.461348,-0.1658,-0.5242,1.4498,-0.803,0.2872,0.3447,3.3563,-35.325,31.8188,,0.004966999999999722,1.5505467809776008,1.7359641164561714,non_fall
5.473259,-0.1658,-0.5242,1.4498,-0.1837,0.0697,0.363,3.3563,-35.325,31.8188,,0.01191099999999956,1.5505467809776008,1.7497393623649755,non_fall
5.474633,0.7154,-0.4555,1.5441,-0.1837,0.0697,0.363,3.3563,-35.325,31.8188,,0.0013740000000002084,1.7616816454740056,1.7415801427842972,non_fall
5.49314,0.7154,-0.4555,1.5441,-0.1837,0.0697,0.363,3.3563,-35.325,31.8188,,0.018507000000000495,1.7616816454740056,1.7104545461715723,non_fall
5.496125,1.1309,-0.1835,0.9557,-0.1837,0.0697,0.363,3.3563,-35.325,31.8188,,0.0029849999999997934,1.4919683475194774,1.656513931357978,non_fall
5.513022,1.7217,-0.1284,0.6118,-0.1837,0.0697,0.363,3.3563,-35.325,31.8188,,0.016897000000000162,1.8316759238467923,1.5811051859937535,non_fall
5.524476,1.7217,-0.1284,0.6118,-0.1837,0.0697,0.363,0.825,-35.6625,33.9563,,0.011453999999999631,1.8316759238467923,1.4867273515729518,non_fall
5.53376,1.4678,0.0545,0.4514,-0.1837,0.0697,0.363,0.825,-35.6625,33.9563,,0.00928400000000007,1.5366095958310295,1.3769194985536468,non_fall
5.535569,1.4678,0.0545,0.4514,0.3124,0.2067,0.2457,0.825,-35.6625,33.9563,,0.0018089999999997275,1.5366095958310295,1.2560705112742228,non_fall
5.540065,1.4678,0.0545,0.4514,0.3124,0.2067,0.2457,0.825,-35.6625,33.9563,,0.0044960000000005,1.5366095958310295,1.129150319238109,non_fall
5.551276,0.6699,0.0179,0.1631,0.3124,0.2067,0.2457,0.825,-35.6625,33.9563,,0.011210999999999416,0.6897014064071495,1.0013753049771672,non_fall
5.570434,0.2885,0.174,0.2735,0.3124,0.2067,0.2457,0.825,-35.6625,33.9563,,0.01915800000000001,0.4339475774791236,0.8778354524522921,non_fall
5.581849,0.2885,0.174,0.2735,0.3124,0.2067,0.2457,0.375,-34.2938,34.5,,0.011415000000000397,0.4339475774791236,0.7631231449189839,non_fall
5.590466,0.2885,0.174,0.2735,0.3124,0.2067,0.2457,0.375,-34.2938,34.5,,0.008617000000000097,0.4339475774791236,0.6610081780870846,non_fall
5.593439,0.0663,0.0246,-0.4575,0.3124,0.2067,0.2457,0.375,-34.2938,34.5,,0.0029729999999998924,0.4629331485214685,0.5741972887582478,non_fall
5.597975,0.0663,0.0246,-0.4575,0.5078,0.512,0.2738,0.375,-34.2938,34.5,,0.0045359999999998735,0.4629331485214685,0.5042016634375995,non_fall
5.608362,-0.0207,0.2267,-0.4656,0.5078,0.512,0.2738,0.375,-34.2938,34.5,,0.010386999999999702,0.5182709137121241,0.4513189090946336,non_fall
5.627836,0.1592,0.0255,-0.3219,0.5078,0.512,0.2738,0.375,-34.2938,34.5,,0.019474000000000657,0.360020138325622,0.4147222832818185,non_fall
5.636948,0.1592,0.0255,-0.3219,0.5078,0.512,0.2738,0.375,-34.2938,34.5,,0.009112000000000009,0.360020138325622,0.3926415142385443,non_fall
5.642209,0.1592,0.0255,-0.3219,0.5078,0.512,0.2738,-0.3563,-33.4313,35.5688,,0.00526099999999996,0.360020138325622,0.3826154616447093,non_fall
5.646328,0.1541,-0.123,-0.0635,0.5078,0.512,0.2738,-0.3563,-33.4313,35.5688,,0.004118999999999318,0.20714260788162342,0.3817950969302421,non_fall
5.660287,0.1541,-0.123,-0.0635,-0.0505,-0.1464,0.1541,-0.3563,-33.4313,35.5688,,0.01395900000000072,0.20714260788162342,0.3872737136033202,non_fall
5.665661,-0.024,0.1036,0.5597,-0.0505,-0.1464,0.1541,-0.3563,-33.4313,35.5688,,0.005373999999999768,0.5697131295661001,0.39641849509312294,non_fall
5.684452,-0.024,0.1036,0.5597,-0.0505,-0.1464,0.1541,-0.3563,-33.4313,35.5688,,0.018791000000000224,0.5697131295661001,0.40717321746558865,non_fall
5.688156,-0.4638,0.1146,0.8775,-0.0505,-0.1464,0.1541,-0.3563,-33.4313,35.5688,,0.0037039999999999296,0.9991245417864582,0.4182974140964092,non_fall
5.701626,-0.4638,0.1146,0.8775,-0.0505,-0.1464,0.1541,-0.3563,-33.45,35.6813,,0.013469999999999871,0.9991245417864582,0.4295063803171748,non_fall
5.705359,-0.3252,-0.0756,0.5294,-0.0505,-0.1464,0.1541,-0.3563,-33.45,35.6813,,0.0037329999999995422,0.6258871783316862,0.4414830353374787,non_fall
5.722457,-0.3252,-0.0756,0.5294,0.5543,-0.5203,0.0637,-0.3563,-33.45,35.6813,,0.017098000000000724,0.6258871783316862,0.45574855093772665,non_fall
5.725987,0.2464,-0.271,0.1651,0.5543,-0.5203,0.0637,-0.3563,-33.45,35.6813,,0.003529999999999589,0.4017610857213526,0.47440108011810217,non_fall
5.732196,0.2464,-0.271,0.1651,0.5543,-0.5203,0.0637,-0.3563,-33.45,35.6813,,0.006209000000000131,0.4017610857213526,0.49975464236961115,non_fall
5.742564,0.3187,-0.149,-0.1708,0.5543,-0.5203,0.0637,-0.3563,-33.45,35.6813,,0.01036799999999971,0.3910796977599323,0.5339271873896568,non_fall
5.761521,-0.0901,0.0031,0.0467,0.5543,-0.5203,0.0637,-0.3563,-33.45,35.6813,,0.018957000000000335,0.10153083275537535,0.5784353436296872,non_fall
5.76518,-0.0901,0.0031,0.0467,0.5543,-0.5203,0.0637,0.825,-32.0625,36.9,,0.003658999999999857,0.10153083275537535,0.6338535812323678,non_fall
5.779205,-0.0901,0.0031,0.0467,0.5543,-0.5203,0.0637,0.825,-32.0625,36.9,,0.014025000000000176,0.10153083275537535,0.6995880740420891,non_fall
5.780643,-0.3318,-0.2401,0.6233,0.5543,-0.5203,0.0637,0.825,-32.0625,36.9,,0.0014380000000002724,0.7458164251342283,0.7738002276738909,non_fall
5.78427,-0.3318,-0.2401,0.6233,0.4199,-0.1819,0.3642,0.825,-32.0625,36.9,,0.003626999999999825,0.7458164251342283,0.8534923978579522,non_fall
5.799864,-0.5351,-0.3809,0.8992,0.4199,-0.1819,0.3642,0.825,-32.0625,36.9,,0.015594000000000108,1.1135427517612424,0.9347428468625429,non_fall
5.818008,-0.7796,-0.5698,0.8417,0.4199,-0.1819,0.3642,0.825,-32.0625,36.9,,0.018143999999999494,1.2809789576726074,1.0130551009823967,non_fall
5.821643,-0.7796,-0.5698,0.8417,0.4199,-0.1819,0.3642,0.9938,-31.1625,36.5813,,0.003635000000000055,1.2809789576726074,1.0837738627194367,non_fall
5.826822,-0.7796,-0.5698,0.8417,0.4199,-0.1819,0.3642,0.9938,-31.1625,36.5813,,0.005179000000000045,1.2809789576726074,1.1425168439463151,non_fall
5.838116,-0.9294,-0.5079,0.8127,0.4199,-0.1819,0.3642,0.9938,-31.1625,36.5813,,0.01129400000000036,1.3350011460669238,1.1855773281982798,non_fall
5.846174,-0.9294,-0.5079,0.8127,0.4027,-0.2014,0.5683,0.9938,-31.1625,36.5813,,0.00805800000000012,1.3350011460669238,1.2102623768497536,non_fall
5.856649,-0.9605,-0.5928,0.5866,0.4027,-0.2014,0.5683,0.9938,-31.1625,36.5813,,0.010474999999999568,1.2720344531497565,1.2151428656992926,non_fall
5.876348,-0.9605,-0.5928,0.5866,0.4027,-0.2014,0.5683,0.9938,-31.1625,36.5813,,0.019699000000000133,1.2720344531497565,1.2002018357467987,non_fall
5.879532,-1.0549,-0.4054,0.3469,0.4027,-0.2014,0.5683,0.9938,-31.1625,36.5813,,0.0031840000000000757,1.1821602175678219,1.1668762890923992,non_fall
5.882002,-1.0549,-0.4054,0.3469,0.4027,-0.2014,0.5683,0.0563,-29.9063,37.6688,,0.00246999999999975,1.1821602175678219,1.1179944847454943,non_fall
5.894311,-0.4441,-0.8928,0.1879,0.4027,-0.2014,0.5683,0.0563,-29.9063,37.6688,,0.012309000000000125,1.0147034345068513,1.0576160368463818,non_fall
5.909601,-0.4441,-0.8928,0.1879,0.9219,0.1761,0.6916,0.0563,-29.9063,37.6688,,0.015290000000000248,1.0147034345068513,0.9907858917574405,non_fall
5.9144,-0.0044,-0.9818,0.3404,0.9219,0.1761,0.6916,0.0563,-29.9063,37.6688,,0.004798999999999332,1.0391452064076512,0.9232158458045114,non_fall
5.924613,-0.0044,-0.9818,0.3404,0.9219,0.1761,0.6916,0.0563,-29.9063,37.6688,,0.01021300000000025,1.0391452064076512,0.8609090601239519,non_fall
5.93417,0.2628,-0.847,0.471,0.9219,0.1761,0.6916,0.0563,-29.9063,37.6688,,0.009557000000000038,1.0041483157382678,0.8097449572011811,non_fall
5.941149,0.2628,-0.847,0.471,0.9219,0.1761,0.6916,-0.825,-27.8625,38.7375,,0.0069790000000002905,1.0041483157382678,0.7750454501988644,non_fall
5.953018,0.2705,-0.1462,0.0747,0.9219,0.1761,0.6916,-0.825,-27.8625,38.7375,,0.011868999999999907,0.3164249990124042,0.7611497389615538,non_fall
5.970919,0.2705,-0.1462,0.0747,0.9219,0.1761,0.6916,-0.825,-27.8625,38.7375,,0.017901000000000167,0.3164249990124042,0.771032920993552,non_fall
5.973914,0.2705,-0.1462,0.0747,0.8964,0.1211,0.6929,-0.825,-27.8625,38.7375,,0.002994999999999415,0.3164249990124042,0.8060093693684286,non_fall
5.976515,0.5605,0.3824,-0.6541,0.8964,0.1211,0.6929,-0.825,-27.8625,38.7375,,0.0026010000000002975,0.9424631663890107,0.8655597165467486,non_fall
5.990678,0.6704,0.3076,0.2672,0.8964,0.1211,0.6929,-0.825,-27.8625,38.7375,,0.014162999999999926,0.7845060611620537,0.9473080018586089,non_fall
6.001434,0.6704,0.3076,0.2672,0.8964,0.1211,0.6929,-2.4938,-25.65,40.7812,,0.010755999999999766,0.7845060611620537,1.0471570295838621,non_fall
6.010071,0.549,0.7889,0.5762,0.8964,0.1211,0.6929,-2.4938,-25.65,40.7812,,0.008637000000000228,1.120611730261646,1.1595721761118654,non_fall
6.019108,0.549,0.7889,0.5762,0.8964,0.1211,0.6929,-2.4938,-25.65,40.7812,,0.009037000000000184,1.120611730261646,1.277990375670407,non_fall
6.028869,0.4385,1.4544,0.6076,0.8964,0.1211,0.6929,-2.4938,-25.65,40.7812,,0.00976100000000013,1.636074377893621,1.3953207783930366,non_fall
6.036035,0.4385,1.4544,0.6076,0.7693,-0.1244,0.5816,-2.4938,-25.65,40.7812,,0.007165999999999784,1.636074377893621,1.5044951665710231,non_fall
6.048893,-0.0132,1.8698,0.2335,0.7693,-0.1244,0.5816,-2.4938,-25.65,40.7812,,0.012857999999999592,1.8843695311695103,1.5990206664930728,non_fall
6.063274,-0.0132,1.8698,0.2335,0.7693,-0.1244,0.5816,-2.8688,-23.8875,41.4375,,0.0143810000000002,1.8843695311695103,1.6734867733694085,non_fall
6.068077,-0.0132,1.8698,0.2335,0.7693,-0.1244,0.5816,-2.8688,-23.8875,41.4375,,0.004802999999999891,1.8843695311695103,1.723984080421053,non_fall
6.069917,-0.4285,1.789,0.2232,0.7693,-0.1244,0.5816,-2.8688,-23.8875,41.4375,,0.001840000000000508,1.8530924126982982,1.7484021638415677,non_fall
6.08696,-0.5418,1.5513,0.6052,0.7693,-0.1244,0.5816,-2.8688,-23.8875,41.4375,,0.01704300000000014,1.7510985037969735,1.7465863316153676,non_fall
6.09517,-0.5418,1.5513,0.6052,0.7363,-0.3652,0.3422,-2.8688,-23.8875,41.4375,,0.00821000000000005,1.7510985037969735,1.7203447698195913,non_fall
6.105661,-0.7758,1.4068,1.0019,0.7363,-0.3652,0.3422,-2.8688,-23.8875,41.4375,,0.01049099999999914,1.893345053074056,1.6733071383523495,non_fall
6.1144,-0.7758,1.4068,1.0019,0.7363,-0.3652,0.3422,-2.8688,-23.8875,41.4375,,0.008739000000000274,1.893345053074056,1.6106424888256705,non_fall
6.122765,-0.7758,1.4068,1.0019,0.7363,-0.3652,0.3422,-2.8875,-21.5438,41.9625,,0.0083650000000004,1.893345053074056,1.5386500580382108,non_fall
6.124659,-0.6784,1.4024,0.6757,0.7363,-0.3652,0.3422,-2.8875,-21.5438,41.9625,,0.0018940000000000623,1.6980938754968762,1.464243889132373,non_fall
6.144348,-0.2,1.0868,0.3378,0.7363,-0.3652,0.3422,-2.8875,-21.5438,41.9625,,0.019688999999999623,1.1555271870449437,1.394363437104027,non_fall
6.157174,-0.2,1.0868,0.3378,0.7706,-0.2967,0.3032,-2.8875,-21.5438,41.9625,,0.012826000000000448,1.1555271870449437,1.3353564139623741,non_fall
6.16218,-0.2,1.0868,0.3378,0.7706,-0.2967,0.3032,-2.8875,-21.5438,41.9625,,0.005005999999999844,1.1555271870449437,1.2923928701916776,non_fall
6.163125,-0.1583,0.5217,0.2196,0.7706,-0.2967,0.3032,-2.8875,-21.5438,41.9625,,0.0009449999999997516,0.5877532985870858,1.2689758309470451,non_fall
6.182553,0.2404,0.3292,0.3489,0.7706,-0.2967,0.3032,-2.8875,-21.5438,41.9625,,0.019428000000000445,0.5365594188903965,1.266611033399531,non_fall
6.186035,0.2404,0.3292,0.3489,0.7706,-0.2967,0.3032,-2.0813,-19.8563,43.3125,,0.003481999999999985,0.5365594188903965,1.284686130525998,non_fall
6.201012,0.7081,0.9183,0.39,0.7706,-0.2967,0.3032,-2.0813,-19.8563,43.3125,,0.014977000000000018,1.2234298100013747,1.320587931875392,non_fall
6.209999,0.7081,0.9183,0.39,0.7706,-0.2967,0.3032,-2.0813,-19.8563,43.3125,,0.008986999999999412,1.2234298100013747,1.3700556121644585,non_fall
6.220259,0.7081,0.9183,0.39,0.8474,-0.2417,0.0771,-2.0813,-19.8563,43.3125,,0.010260000000000602,1.2234298100013747,1.427733266407741,non_fall
6.223145,0.2851,1.8813,0.0863,0.8474,-0.2417,0.0771,-2.0813,-19.8563,43.3125,,0.002885999999999278,1.9047360420803718,1.4878546615085186,non_fall
6.240884,0.2877,2.2348,-0.2011,0.8474,-0.2417,0.0771,-2.0813,-19.8563,43.3125,,0.017739000000000615,2.262198828573651,1.5449722659428091,non_fall
6.243052,0.2877,2.2348,-0.2011,0.8474,-0.2417,0.0771,-2.4,-17.4563,44.5688,,0.0021679999999992816,2.262198828573651,1.59463367019604,non_fall
6.258082,0.2877,2.2348,-0.2011,0.8474,-0.2417,0.0771,-2.4,-17.4563,44.5688,,0.015030000000000321,2.262198828573651,1.6339127938893436,non_fall
6.260909,0.4587,2.2274,-0.1228,0.8474,-0.2417,0.0771,-2.4,-17.4563,44.5688,,0.002826999999999913,2.277453905131781,1.6617220811823756,non_fall
6.277745,0.1936,1.9465,0.1311,0.8474,-0.2417,0.0771,-2.4,-17.4563,44.5688,,0.016836000000000517,1.9604923922321147,1.6788629988164905,non_fall
6.281575,0.1936,1.9465,0.1311,0.5482,0.2347,-0.0474,-2.4,-17.4563,44.5688,,0.003829999999999778,1.9604923922321147,1.6878093990219145,non_fall
6.296833,-0.2149,1.5358,0.0881,0.5482,0.2347,-0.0474,-2.4,-17.4563,44.5688,,0.015258000000000216,1.5532627787982305,1.6922548822439583,non_fall
6.302053,-0.2149,1.5358,0.0881,0.5482,0.2347,-0.0474,-2.6625,-15.8813,44.9062,,0.005219999999999558,1.5532627787982305,1.6964860488449116,non_fall
6.306146,-0.2149,1.5358,0.0881,0.5482,0.2347,-0.0474,-2.6625,-15.8813,44.9062,,0.004093000000000124,1.5532627787982305,1.7046651128471455,non_fall
6.316523,-0.2434,1.2331,0.2433,0.5482,0.2347,-0.0474,-2.6625,-15.8813,44.9062,,0.01037700000000008,1.2802242225485347,1.7201162373548013,non_fall
6.335503,-0.0241,1.0937,-0.1204,0.5482,0.2347,-0.0474,-2.6625,-15.8813,44.9062,,0.018979999999999997,1.1005710608588615,1.7447105791060735,non_fall
6.345077,-0.0241,1.0937,-0.1204,0.1779,0.6929,-0.1282,-2.6625,-15.8813,44.9062,,0.00957399999999975,1.1005710608588615,1.7784367001047168,non_fall
6.35384,-0.0241,1.0937,-0.1204,0.1779,0.6929,-0.1282,-2.6625,-15.8813,44.9062,,0.008763000000000076,1.1005710608588615,1.8192261009677,non_fall
6.354783,-0.2713,0.6198,-0.1622,0.1779,0.6929,-0.1282,-2.6625,-15.8813,44.9062,,0.0009430000000003602,0.6957474901140499,1.8630775880965518,non_fall
6.362072,-0.2713,0.6198,-0.1622,0.1779,0.6929,-0.1282,-4.0688,-15.15,45.0563,,0.007289000000000101,0.6957474901140499,1.9044888679196674,non_fall
6.372805,-1.7373,0.6196,-1.2475,0.1779,0.6929,-0.1282,-4.0688,-15.15,45.0563,,0.010732999999999215,2.2267401509830465,1.9371596971624787,non_fall
6.392482,-2.2454,1.1408,-2.2146,0.1779,0.6929,-0.1282,-4.0688,-15.15,45.0563,,0.01967700000000061,3.3537589299172947,1.9548804791451613,non_fall
6.402078,-2.2454,1.1408,-2.2146,0.1779,0.6929,-0.1282,-4.0688,-15.15,45.0563,,0.00959600000000016,3.3537589299172947,1.9524726912273578,non_fall
6.406113,-2.2454,1.1408,-2.2146,0.338,0.4302,0.038,-4.0688,-15.15,45.0563,,0.004035000000000011,3.3537589299172947,1.9266209802664398,non_fall
6.411857,-1.5986,1.2276,-1.9184,0.338,0.4302,0.038,-4.0688,-15.15,45.0563,,0.005743999999999971,2.7825855386672305,1.8764474081579796,non_fall
6.422403,-1.5986,1.2276,-1.9184,0.338,0.4302,0.038,-5.25,-14.4938,44.7938,,0.010545999999999722,2.7825855386672305,1.8037266630947253,non_fall
6.430982,-0.8555,0.449,-1.0233,0.338,0.4302,0.038,-5.25,-14.4938,44.7938,,0.008579000000000114,1.4073464889642495,1.7127113853602667,non_fall
6.449963,-0.8555,0.449,-1.0233,0.338,0.4302,0.038,-5.25,-14.4938,44.7938,,0.018981000000000137,1.4073464889642495,1.6096089649736645,non_fall
6.454079,0.0184,0.2453,-0.4281,0.338,0.4302,0.038,-5.25,-14.4938,44.7938,,0.0041159999999997865,0.49374108599548405,1.5018095200050317,non_fall
6.468249,0.0184,0.2453,-0.4281,0.0521,0.5621,0.1345,-5.25,-14.4938,44.7938,,0.014170000000000016,0.49374108599548405,1.396999156154931,non_fall
6.469807,0.3249,-0.4149,0.1563,0.0521,0.5621,0.1345,-5.25,-14.4938,44.7938,,0.0015580000000001704,0.5496650889405293,1.3022985240849176,non_fall
6.481919,0.3249,-0.4149,0.1563,0.0521,0.5621,0.1345,-6.75,-13.7625,44.8313,,0.012112000000000123,0.5496650889405293,1.223546165959818,non_fall
6.489675,0.5609,-0.7486,-0.1061,0.0521,0.5621,0.1345,-6.75,-13.7625,44.8313,,0.007755999999999652,0.9414180686602526,1.1648071177335675,non_fall
6.497065,0.5609,-0.7486,-0.1061,0.0521,0.5621,0.1345,-6.75,-13.7625,44.8313,,0.007390000000000008,0.9414180686602526,1.1281406426711662,non_fall
6.506897,0.7108,-1.0858,0.6913,0.0521,0.5621,0.1345,-6.75,-13.7625,44.8313,,0.009832000000000285,1.4704060561627188,1.1136171426493622,non_fall
6.526841,-0.125,-1.0916,0.9586,0.0521,0.5621,0.1345,-6.75,-13.7625,44.8313,,0.01994399999999974,1.4581253444063031,1.1195405596391501,non_fall
6.530797,-0.125,-1.0916,0.9586,0.0179,0.3765,0.1944,-6.75,-13.7625,44.8313,,0.0039559999999996265,1.4581253444063031,1.1428129108987501,non_fall
6.542317,-0.125,-1.0916,0.9586,0.0179,0.3765,0.1944,-7.9875,-14.2313,45.1875,,0.011519999999999975,1.4581253444063031,1.1793729099406596,non_fall
6.545169,-0.125,-1.0916,0.9586,0.0179,0.3765,0.1944,-7.9875,-14.2313,45.1875,,0.0028519999999998547,1.4581253444063031,1.2246485722358862,non_fall
6.546662,-0.8749,-0.8968,0.241,0.0179,0.3765,0.1944,-7.9875,-14.2313,45.1875,,0.0014930000000008548,1.2758453080213135,1.2739792492938773,non_fall
6.56459,-0.4446,-0.9964,-0.3484,0.0179,0.3765,0.1944,-7.9875,-14.2313,45.1875,,0.0179279999999995,1.145366613796648,1.322980034959591,non_fall
6.583638,0.3581,-1.3163,0.0477,0.0179,0.3765,0.1944,-7.9875,-14.2313,45.1875,,0.019047999999999732,1.3649749411619247,1.3678364671521976,non_fall
6.593124,0.3581,-1.3163,0.0477,0.0179,0.3765,0.1944,-7.9875,-14.2313,45.1875,,0.009486000000000772,1.3649749411619247,1.4055270011909722,non_fall
6.596242,0.3581,-1.3163,0.0477,-0.1104,0.7026,-0.0524,-7.9875,-14.2313,45.1875,,0.003117999999999732,1.3649749411619247,1.4339740329210264,non_fall
6.602149,0.3581,-1.3163,0.0477,-0.1104,0.7026,-0.0524,-9.3938,-13.4813,44.8125,,0.0059069999999996625,1.3649749411619247,1.4521229781280758,non_fall
6.6039,0.8083,-1.7242,0.6046,-0.1104,0.7026,-0.0524,-9.3938,-13.4813,44.8125,,0.0017510000000005022,1.9979378593940302,1.4599458929170173,non_fall
6.621729,0.7608,-1.6454,0.7883,-0.1104,0.7026,-0.0524,-9.3938,-13.4813,44.8125,,0.017828999999999873,1.976758632205763,1.4583638600009463,non_fall
6.641101,0.7608,-1.6454,0.7883,-0.1104,0.7026,-0.0524,-9.3938,-13.4813,44.8125,,0.019371999999999723,1.976758632205763,1.4490839021221027,non_fall
6.644371,0.7593,-0.3867,0.4129,-0.1104,0.7026,-0.0524,-9.3938,-13.4813,44.8125,,0.003269999999999662,0.946868412188304,1.4343552852237933,non_fall
6.655139,0.7593,-0.3867,0.4129,0.6703,0.6769,-0.0084,-9.3938,-13.4813,44.8125,,0.010768000000000555,0.946868412188304,1.4166672464483103,non_fall
6.666016,0.6572,0.6349,-0.2665,0.6703,0.6769,-0.0084,-9.3938,-13.4813,44.8125,,0.010876999999999803,0.951857184665851,1.3984286119484273,non_fall
6.667239,0.6572,0.6349,-0.2665,0.6703,0.6769,-0.0084,-11.3438,-13.1063,44.4563,,0.0012230000000004182,0.951857184665851,1.3816785597949353,non_fall
6.67926,0.3296,1.0314,-0.8341,0.6703,0.6769,-0.0084,-11.3438,-13.1063,44.4563,,0.012020999999999837,1.3668009840499824,1.367870886602627,non_fall
6.690917,0.3296,1.0314,-0.8341,0.6703,0.6769,-0.0084,-11.3438,-13.1063,44.4563,,0.011656999999999584,1.3668009840499824,1.357755046256939,non_fall
6.699159,-0.1576,1.2493,-0.8209,0.6703,0.6769,-0.0084,-11.3438,-13.1063,44.4563,,0.008242000000000083,1.503151708910315,1.351355049123562,non_fall
6.716413,-0.1576,1.2493,-0.8209,0.2574,0.6977,0.1602,-11.3438,-13.1063,44.4563,,0.017254000000000325,1.503151708910315,1.3480301121336409,non_fall
6.718266,-0.4196,1.3566,-0.3649,0.2574,0.6977,0.1602,-11.3438,-13.1063,44.4563,,0.0018529999999996605,1.466144511976906,1.3465924130628597,non_fall
6.723669,-0.4196,1.3566,-0.3649,0.2574,0.6977,0.1602,-13.5375,-11.8125,44.0063,,0.005403000000000269,1.466144511976906,1.3454569137445391,non_fall
6.735431,-0.4196,1.3566,-0.3649,0.2574,0.6977,0.1602,-13.5375,-11.8125,44.0063,,0.01176200000000005,1.466144511976906,1.3428032100631475,non_fall
6.73673,-0.0196,1.0071,0.0161,0.2574,0.6977,0.1602,-13.5375,-11.8125,44.0063,,0.001298999999999495,1.0074193665003668,1.3367367077419656,non_fall
6.755466,0.7243,0.335,0.7109,0.2574,0.6977,0.1602,-13.5375,-11.8125,44.0063,,0.01873600000000053,1.0687442631424975,1.3254434676351237,non_fall
6.774951,1.25,-0.2727,0.6228,0.2574,0.6977,0.1602,-13.5375,-11.8125,44.0063,,0.01948499999999953,1.422935392068101,1.307337104335406,non_fall
6.778859,1.25,-0.2727,0.6228,0.0814,0.5376,0.247,-13.5375,-11.8125,44.0063,,0.003908000000000023,1.422935392068101,1.2811950343936658,non_fall
6.781419,1.25,-0.2727,0.6228,0.0814,0.5376,0.247,-14.4563,-10.8,43.8375,,0.0025599999999998957,1.422935392068101,1.2462760970572193,non_fall
6.78396,1.25,-0.2727,0.6228,0.0814,0.5376,0.247,-14.4563,-10.8,43.8375,,0.0025410000000007926,1.422935392068101,1.2024067109371128,non_fall
6.794807,0.9991,-0.6156,-0.1238,0.0814,0.5376,0.247,-14.4563,-10.8,43.8375,,0.010846999999999163,1.1800383934431964,1.1500227990971543,non_fall
6.813608,0.5723,-0.7244,-0.4509,0.0814,0.5376,0.247,-14.4563,-10.8,43.8375,,0.018801000000000734,1.0274207804010975,1.0901603467288596,non_fall
6.831917,0.5723,-0.7244,-0.4509,0.0814,0.5376,0.247,-14.4563,-10.8,43.8375,,0.018308999999999465,1.0274207804010975,1.0243957646605408,non_fall
6.834689,0.3052,-0.7629,-0.0566,0.0814,0.5376,0.247,-14.4563,-10.8,43.8375,,0.0027720000000002187,0.8236303843351095,0.9547445432617965,non_fall
6.84192,0.3052,-0.7629,-0.0566,0.0253,0.4668,0.187,-14.4563,-10.8,43.8375,,0.0072309999999999874,0.8236303843351095,0.8835306357451101,non_fall
6.844869,0.3052,-0.7629,-0.0566,0.0253,0.4668,0.187,-15.7313,-10.7438,43.7625,,0.0029490000000000904,0.8236303843351095,0.8132392672044225,non_fall
6.851414,0.049,-0.6536,0.4873,0.0253,0.4668,0.187,-15.7313,-10.7438,43.7625,,0.006545000000000023,0.8167345039852302,0.7463635615671117,non_fall
6.870256,-0.1379,-0.4135,0.61,0.0253,0.4668,0.187,-15.7313,-10.7438,43.7625,,0.018842000000000247,0.7497323922573974,0.6852522510853775,non_fall
6.8809,-0.1379,-0.4135,0.61,0.0253,0.4668,0.187,-15.7313,-10.7438,43.7625,,0.01064399999999921,0.7497323922573974,0.6319635883232628,non_fall
6.88913,-0.1883,-0.3194,0.279,0.0253,0.4668,0.187,-15.7313,-10.7438,43.7625,,0.008230000000000182,0.4640196655315376,0.5881306364379424,non_fall
6.902184,-0.1883,-0.3194,0.279,0.0253,0.4668,0.187,-17.6063,-9.8438,42.9,,0.013054000000000343,0.4640196655315376,0.5548452269896041,non_fall
6.903694,-0.1883,-0.3194,0.279,0.3282,0.198,0.2212,-17.6063,-9.8438,42.9,,0.0015099999999996783,0.4640196655315376,0.5325704421660632,non_fall
6.908899,0.1958,-0.3668,-0.0651,0.3282,0.198,0.2212,-17.6063,-9.8438,42.9,,0.005205000000000126,0.42085376320047324,0.5210923881338753,non_fall
6.927516,0.1958,-0.3668,-0.0651,0.3282,0.198,0.2212,-17.6063,-9.8438,42.9,,0.018616999999999884,0.42085376320047324,0.5195201556515112,non_fall
6.930522,0.2353,-0.0634,0.0171,0.3282,0.198,0.2212,-17.6063,-9.8438,42.9,,0.003006000000000064,0.24429093311050248,0.5263386563019534,non_fall
6.946971,0.632,-0.1815,0.196,0.3282,0.198,0.2212,-17.6063,-9.8438,42.9,,0.016448999999999714,0.6861357372998437,0.5395134162214943,non_fall
6.962475,0.632,-0.1815,0.196,0.3282,0.198,0.2212,-17.3625,-8.8688,43.1063,,0.01550400000000085,0.6861357372998437,0.5566399300671396,non_fall
6.966163,0.632,-0.1815,0.196,0.2439,0.2384,-0.0414,-17.3625,-8.8688,43.1063,,0.0036879999999994695,0.6861357372998437,0.5751238366775243,non_fall
6.966986,0.5552,-0.1183,0.0158,0.2439,0.2384,-0.0414,-17.3625,-8.8688,43.1063,,0.0008230000000004623,0.5678834123303832,0.5923742467414471,non_fall
6.974772,0.5552,-0.1183,0.0158,0.2439,0.2384,-0.0414,-17.3625,-8.8688,43.1063,,0.0077859999999994045,0.5678834123303832,0.6059927888970239,non_fall
6.985614,0.5811,0.0581,-0.1178,0.2439,0.2384,-0.0414,-17.3625,-8.8688,43.1063,,0.01084200000000024,0.5957597334496516,0.6139443028759758,non_fall
7.004666,0.6189,0.2294,-0.3568,0.2439,0.2384,-0.0414,-17.3625,-8.8688,43.1063,,0.01905200000000029,0.7503118085169658,0.6146986246711073,non_fall
7.022243,0.6189,0.2294,-0.3568,0.2439,0.2384,-0.0414,-18.2625,-8.3438,43.0312,,0.017576999999999288,0.7503118085169658,0.6073347752480411,non_fall
7.023938,0.6189,0.2294,-0.3568,0.2439,0.2384,-0.0414,-18.2625,-8.3438,43.0312,,0.0016950000000006682,0.7503118085169658,0.5915999280124732,non_fall
7.024537,0.345,0.2879,-0.1834,0.2439,0.2384,-0.0414,-18.2625,-8.3438,43.0312,,0.00059899999999935,0.4853318143291247,0.5679179137381409,non_fall
7.027376,0.345,0.2879,-0.1834,0.2892,0.1407,-0.0683,-18.2625,-8.3438,43.0312,,0.002839000000000702,0.4853318143291247,0.5373467006051467,non_fall
7.044146,0.0178,0.2871,-0.3836,0.2892,0.1407,-0.0683,-18.2625,-8.3438,43.0312,,0.016769999999999285,0.4794707603180824,0.5014899088136782,non_fall
7.061874,0.255,-0.0462,-0.4198,0.2892,0.1407,-0.0683,-18.2625,-8.3438,43.0312,,0.017728000000000854,0.4933472205252605,0.46237147053499733,non_fall
7.070964,0.255,-0.0462,-0.4198,0.2892,0.1407,-0.0683,-18.2625,-8.3438,43.0312,,0.009089999999999598,0.4933472205252605,0.42228376510691035,non_fall
7.081305,-0.2234,-0.0761,-0.2966,0.2892,0.1407,-0.0683,-18.2625,-8.3438,43.0312,,0.010341000000000378,0.37903869195637535,0.3836189839008352,non_fall
7.082945,-0.2234,-0.0761,-0.2966,0.2892,0.1407,-0.0683,-18.9563,-7.9313,42.9563,,0.0016399999999991977,0.37903869195637535,0.34869307773711167,non_fall
7.09033,-0.2234,-0.0761,-0.2966,0.0436,0.264,-0.0329,-18.9563,-7.9313,42.9563,,0.007385000000000197,0.37903869195637535,0.31957240816259225,non_fall
7.101189,0.0568,0.0582,-0.0246,0.0436,0.264,-0.0329,-18.9563,-7.9313,42.9563,,0.010858999999999952,0.0849625799984911,0.2979148071882783,non_fall
7.118451,0.0568,0.0582,-0.0246,0.0436,0.264,-0.0329,-18.9563,-7.9313,42.9563,,0.017262000000000555,0.0849625799984911,0.28483816379272375,non_fall
7.120057,0.2886,-0.0819,0.2014,0.0436,0.264,-0.0329,-18.9563,-7.9313,42.9563,,0.0016059999999997743,0.361330222926342,0.2808296388549272,non_fall
7.138254,0.0795,-0.1666,-0.0216,0.0436,0.264,-0.0329,-18.9563,-7.9313,42.9563,,0.018196999999999797,0.18585577741894385,0.28570599720142176,non_fall
7.14162,0.0795,-0.1666,-0.0216,0.0436,0.264,-0.0329,-19.6313,-7.8,42.7688,,0.003365999999999758,0.18585577741894385,0.2986305025902672,non_fall
7.152395,0.0795,-0.1666,-0.0216,-0.048,0.1235,0.1407,-19.6313,-7.8,42.7688,,0.010775000000000645,0.18585577741894385,0.3181860930617059,non_fall
7.157257,0.0195,-0.2593,-0.275,-0.048,0.1235,0.1407,-19.6313,-7.8,42.7688,,0.004862000000000144,0.3784729052389352,0.3424994514460717,non_fall
7.169305,0.0195,-0.2593,-0.275,-0.048,0.1235,0.1407,-19.6313,-7.8,42.7688,,0.01204799999999917,0.3784729052389352,0.36940581227360386,non_fall
7.176606,-0.0472,-0.3985,-0.1349,-0.048,0.1235,0.1407,-19.6313,-7.8,42.7688,,0.007301000000000002,0.42335339847460773,0.39663959687983474,non_fall
7.195662,0.0356,-0.5515,0.1285,-0.048,0.1235,0.1407,-19.6313,-7.8,42.7688,,0.019055999999999962,0.5673903947019195,0.42203221201983177,non_fall
7.202994,0.0356,-0.5515,0.1285,-0.048,0.1235,0.1407,-19.2563,-7.6875,42.3375,,0.007332000000000782,0.5673903947019195,0.4436968189476929,non_fall
7.214743,0.0356,-0.5515,0.1285,-0.048,0.1235,0.1407,-19.2563,-7.6875,42.3375,,0.01174900000000001,0.5673903947019195,0.4601810102631765,non_fall
7.217924,0.0356,-0.5515,0.1285,0.1194,0.1749,0.0674,-19.2563,-7.6875,42.3375,,0.0031809999999996563,0.5673903947019195,0.47057195791268536,non_fall
7.220946,-0.164,-0.6311,-0.0498,0.1194,0.1749,0.0674,-19.2563,-7.6875,42.3375,,0.003021999999999636,0.653959670010315,0.4745442326525691,non_fall
7.234053,-0.0975,-0.4378,0.0328,0.1194,0.1749,0.0674,-19.2563,-7.6875,42.3375,,0.013107000000000646,0.4497231704059732,0.4723473152593481,non_fall
7.252775,0.0193,-0.3322,0.2235,0.1194,0.1749,0.0674,-19.2563,-7.6875,42.3375,,0.01872199999999946,0.4008510696006685,0.46473692019265994,non_fall
7.261731,0.0193,-0.3322,0.2235,0.1194,0.1749,0.0674,-19.65,-7.275,42.3563,,0.008956000000000408,0.4008510696006685,0.45286070473158985,non_fall
7.262875,0.0193,-0.3322,0.2235,0.1194,0.1749,0.0674,-19.65,-7.275,42.3563,,0.0011440000000000339,0.4008510696006685,0.43811350460199655,non_fall
7.271706,-0.0385,-0.1236,0.42,0.1194,0.1749,0.0674,-19.65,-7.275,42.3563,,0.008830999999999811,0.4394988168357225,0.42197891652551606,non_fall
7.276047,-0.0385,-0.1236,0.42,0.0716,0.2188,0.1222,-19.65,-7.275,42.3563,,0.00434100000000015,0.4394988168357225,0.4058731605525085,non_fall
7.291578,-0.0954,-0.0587,0.207,0.0716,0.2188,0.1222,-19.65,-7.275,42.3563,,0.015531000000000184,0.23536322992345257,0.39100523972636,non_fall
7.309941,-0.0954,-0.0587,0.207,0.0716,0.2188,0.1222,-19.65,-7.275,42.3563,,0.018362999999999907,0.23536322992345257,0.37826575109709853,non_fall
7.312898,-0.1909,-0.1478,0.0257,0.0716,0.2188,0.1222,-19.65,-7.275,42.3563,,0.0029569999999994323,0.2427923804405731,0.3681550834685009,non_fall
7.32203,-0.1909,-0.1478,0.0257,0.0716,0.2188,0.1222,-19.8563,-7.0688,42.2625,,0.00913200000000014,0.2427923804405731,0.3607587850248556,non_fall
7.329462,-0.2045,-0.3101,0.0194,0.0716,0.2188,0.1222,-19.8563,-7.0688,42.2625,,0.007432000000000549,0.37196588553253107,0.3557726524344126,non_fall
7.337741,-0.2045,-0.3101,0.0194,0.0644,0.0869,0.0564,-19.8563,-7.0688,42.2625,,0.008278999999999925,0.37196588553253107,0.352573256676582,non_fall
7.348385,-0.1707,-0.3991,0.014,0.0644,0.0869,0.0564,-19.8563,-7.0688,42.2625,,0.010644000000000098,0.4342986299771161,0.35032305112145623,non_fall
7.35762,-0.1707,-0.3991,0.014,0.0644,0.0869,0.0564,-19.8563,-7.0688,42.2625,,0.009234999999999438,0.4342986299771161,0.34809471933799085,non_fall
7.36765,-0.2039,-0.3646,0.0316,0.0644,0.0869,0.0564,-19.8563,-7.0688,42.2625,,0.010030000000000427,0.41893547235821416,0.3449979274203829,non_fall
7.38231,-0.2039,-0.3646,0.0316,0.0644,0.0869,0.0564,-20.7375,-7.0313,41.9625,,0.014660000000000117,0.41893547235821416,0.34029302077130763,non_fall
7.386355,-0.1744,-0.3194,0.0708,0.0644,0.0869,0.0564,-20.7375,-7.0313,41.9625,,0.004044999999999632,0.37073489180275443,0.33347962053113905,non_fall
7.400728,-0.1744,-0.3194,0.0708,0.0276,0.0148,-0.006,-20.7375,-7.0313,41.9625,,0.01437299999999997,0.37073489180275443,0.32435248814096324,non_fall
7.405381,-0.1744,-0.3194,0.0708,0.0276,0.0148,-0.006,-20.7375,-7.0313,41.9625,,0.00465300000000024,0.37073489180275443,0.31302154371215657,non_fall
7.407635,-0.1038,-0.292,0.0672,0.0276,0.0148,-0.006,-20.7375,-7.0313,41.9625,,0.002253999999999756,0.31710294858294835,0.2998970023178604,non_fall
7.425175,-0.068,-0.2335,0.0449,0.0276,0.0148,-0.006,-20.7375,-7.0313,41.9625,,0.017540000000000333,0.24731004831991765,0.2856440703523438,non_fall
7.442211,-0.068,-0.2335,0.0449,0.0276,0.0148,-0.006,-20.925,-6.9188,41.8688,,0.01703600000000005,0.24731004831991765,0.2711144906644652,non_fall
7.445118,0.0319,-0.1889,-0.0172,0.0276,0.0148,-0.006,-20.925,-6.9188,41.8688,,0.002906999999999549,0.19234515850418488,0.2572641935113388,non_fall
7.453473,0.0319,-0.1889,-0.0172,0.0276,0.0148,-0.006,-20.925,-6.9188,41.8688,,0.00835499999999989,0.19234515850418488,0.24506697966201577,non_fall
7.462671,0.0319,-0.1889,-0.0172,0.0484,-0.0353,-0.039,-20.925,-6.9188,41.8688,,0.009198000000000484,0.19234515850418488,0.23543334915337652,non_fall
7.465153,0.0505,-0.1403,0.0078,0.0484,-0.0353,-0.039,-20.925,-6.9188,41.8688,,0.002481999999999651,0.14931570580484826,0.22914153716010507,non_fall
7.481959,0.031,-0.2562,0.0498,0.0484,-0.0353,-0.039,-20.925,-6.9188,41.8688,,0.016805999999999877,0.26282975478434706,0.22678499131429525,non_fall
7.501422,0.031,-0.2562,0.0498,0.0484,-0.0353,-0.039,-20.925,-6.9188,41.8688,,0.019463000000000008,0.26282975478434706,0.22873742992412055,non_fall
7.504228,0.0167,-0.3027,0.015,0.0484,-0.0353,-0.039,-20.925,-6.9188,41.8688,,0.0028060000000005303,0.3035311845593464,0.23513388715556313,non_fall
7.506286,0.0167,-0.3027,0.015,0.0484,-0.0353,-0.039,-20.4375,-7.1438,42.0563,,0.0020579999999998932,0.3035311845593464,0.24586456982891952,non_fall
7.520254,0.1032,-0.205,-0.0799,0.0484,-0.0353,-0.039,-20.4375,-7.1438,42.0563,,0.013968000000000202,0.24302108961981056,0.2605785045913455,non_fall
7.524503,0.1032,-0.205,-0.0799,0.0143,-0.0279,-0.0512,-20.4375,-7.1438,42.0563,,0.004248999999999725,0.24302108961981056,0.27869568268542144,non_fall
7.539935,0.1794,0.0044,-0.1649,0.0143,-0.0279,-0.0512,-20.4375,-7.1438,42.0563,,0.015431999999999668,0.24371239197053562,0.2994287222176827,non_fall
7.549431,0.1794,0.0044,-0.1649,0.0143,-0.0279,-0.0512,-20.4375,-7.1438,42.0563,,0.009496000000000393,0.24371239197053562,0.32181666935106196,non_fall
7.558719,-0.0611,-0.1202,0.2231,0.0143,-0.0279,-0.0512,-20.4375,-7.1438,42.0563,,0.009287999999999741,0.26068152984053167,0.344773549402158,non_fall
7.561413,-0.0611,-0.1202,0.2231,0.0143,-0.0279,-0.0512,-20.1562,-6.75,42.1688,,0.002693999999999974,0.26068152984053167,0.367152469469914,non_fall
7.578228,-0.2619,-0.2874,0.332,0.0143,-0.0279,-0.0512,-20.1562,-6.75,42.1688,,0.016815000000000246,0.5112869742131125,0.3878228053115861,non_fall
7.587893,-0.2619,-0.2874,0.332,0.0436,-0.0622,0.0209,-20.1562,-6.75,42.1688,,0.009665000000000035,0.5112869742131125,0.4057540121920953,non_fall
7.597082,-0.2619,-0.2874,0.332,0.0436,-0.0622,0.0209,-20.1562,-6.75,42.1688,,0.009189000000000114,0.5112869742131125,0.4200962380514609,non_fall
7.600076,-0.2597,-0.3172,0.2048,0.0436,-0.0622,0.0209,-20.1562,-6.75,42.1688,,0.002993999999999275,0.4582608100197964,0.4302468853489412,non_fall
7.616778,-0.0645,-0.4474,0.0322,0.0436,-0.0622,0.0209,-20.1562,-6.75,42.1688,,0.01670200000000044,0.45317088388377297,0.4358943175765916,non_fall
7.623365,-0.0645,-0.4474,0.0322,0.0436,-0.0622,0.0209,-20.0813,-6.375,42.4688,,0.0065869999999996764,0.45317088388377297,0.4370339849753326,non_fall
7.635229,0.0113,-0.4426,0.0701,0.0436,-0.0622,0.0209,-20.0813,-6.375,42.4688,,0.011864000000000097,0.4482593668848427,0.43395641962867265,non_fall
7.647179,0.0113,-0.4426,0.0701,0.0436,-0.0622,0.0209,-20.0813,-6.375,42.4688,,0.011950000000000571,0.4482593668848427,0.4272096084240405,non_fall
7.648812,0.0113,-0.4426,0.0701,0.0546,-0.0879,-0.0121,-20.0813,-6.375,42.4688,,0.0016329999999999956,0.4482593668848427,0.4175401677066363,non_fall
7.654475,-0.093,-0.4039,0.1493,0.0546,-0.0879,-0.0121,-20.0813,-6.375,42.4688,,0.0056629999999993075,0.44053910155626363,0.4058190659264095,non_fall
7.674281,-0.0603,-0.2937,0.1008,0.0546,-0.0879,-0.0121,-20.0813,-6.375,42.4688,,0.01980599999999999,0.316316961290412,0.3929588542119642,non_fall
7.681642,-0.0603,-0.2937,0.1008,0.0546,-0.0879,-0.0121,-19.875,-6.9,42.675,,0.007361000000000395,0.316316961290412,0.3798305696831972,non_fall
7.692203,-0.0603,-0.2937,0.1008,0.0546,-0.0879,-0.0121,-19.875,-6.9,42.675,,0.010561000000000043,0.316316961290412,0.36718924106467815,non_fall
7.693467,-0.0103,-0.2632,0.0967,0.0546,-0.0879,-0.0121,-19.875,-6.9,42.675,,0.0012639999999999318,0.28059084090540093,0.3556165133416972,non_fall
7.711417,-0.0103,-0.2632,0.0967,0.0424,-0.0927,-0.0183,-19.875,-6.9,42.675,,0.01794999999999991,0.28059084090540093,0.34548693847165773,non_fall
7.713094,-0.0277,-0.2633,0.0713,0.0424,-0.0927,-0.0183,-19.875,-6.9,42.675,,0.0016769999999999285,0.2741858311437701,0.33696128047719404,non_fall
7.731303,0.1029,-0.332,0.1088,0.0424,-0.0927,-0.0183,-19.875,-6.9,42.675,,0.018208999999999698,0.3642112711051101,0.3300063926163395,non_fall
7.74106,0.1029,-0.332,0.1088,0.0424,-0.0927,-0.0183,-19.875,-6.9,42.675,,0.00975700000000046,0.3642112711051101,0.3244374105995192,non_fall
7.743101,0.1029,-0.332,0.1088,0.0424,-0.0927,-0.0183,-19.7063,-6.075,42.2625,,0.0020410000000001816,0.3642112711051101,0.31997482722789117,non_fall
