
time,ax,ay,az,wx,wy,wz,Bx,By,Bz,
0.144951,0.0000,0.0000,0.0000,0.0000,0.0000,0.0000,-18.0750,1.1250,-26.4188,
0.163499,0.0000,0.0000,0.0000,0.0020,0.0144,-0.0051,-18.0750,1.1250,-26.4188,
0.204540,0.0000,0.0000,0.0000,0.0020,0.0144,-0.0051,-17.4750,1.0312,-25.8750,
0.222761,0.0000,0.0000,0.0000,-0.0061,-0.0012,-0.0150,-17.4750,1.0312,-25.8750,
0.243456,0.0000,0.0000,0.0000,-0.0061,-0.0012,-0.0150,-17.4750,1.0312,-25.8750,
0.264728,0.0000,0.0000,0.0000,-0.0061,-0.0012,-0.0150,-17.5125,1.1625,-25.7438,
0.284761,0.0000,0.0000,0.0000,-0.0104,-0.0029,-0.0112,-17.5125,1.1625,-25.7438,
0.305067,0.0000,0.0000,0.0000,-0.0104,-0.0029,-0.0112,-17.5125,1.1625,-25.7438,
0.325824,0.0000,0.0000,0.0000,-0.0104,-0.0029,-0.0112,-17.0813,1.5750,-25.6125,
0.344549,0.0000,0.0000,0.0000,-0.0112,-0.0080,-0.0061,-17.0813,1.5750,-25.6125,
0.345213,0.0000,0.0000,0.0000,-0.0112,-0.0080,-0.0061,-17.0813,1.5750,-25.6125,
0.366528,0.0000,0.0000,0.0000,-0.0112,-0.0080,-0.0061,-17.0813,1.5750,-25.6125,
0.385539,0.0000,0.0000,0.0000,-0.0112,-0.0080,-0.0061,-17.0813,1.7063,-25.6688,
0.404953,0.0000,0.0000,0.0000,-0.0104,-0.0005,0.0013,-17.0813,1.7063,-25.6688,
0.406650,0.0003,-0.0031,-0.0064,-0.0104,-0.0005,0.0013,-17.0813,1.7063,-25.6688,
0.425248,0.0003,-0.0031,-0.0064,-0.0104,-0.0005,0.0013,-17.0813,1.7063,-25.6688,
0.445869,0.0003,-0.0031,-0.0064,-0.0104,-0.0005,0.0013,-17.1188,1.7438,-25.6313,
0.469442,0.0121,-0.0034,0.0055,-0.0104,-0.0005,0.0013,-17.1188,1.7438,-25.6313,
0.470979,0.0121,-0.0034,0.0055,-0.0133,0.0056,0.0099,-17.1188,1.7438,-25.6313,
0.486946,0.0121,-0.0034,0.0055,-0.0133,0.0056,0.0099,-17.1188,1.7438,-25.6313,
0.504559,0.0121,-0.0034,0.0055,-0.0133,0.0056,0.0099,-17.0063,1.7813,-25.5750,
0.528545,0.0121,-0.0034,0.0055,-0.0225,-0.0101,0.0073,-17.0063,1.7813,-25.5750,
0.547877,0.0121,-0.0034,0.0055,-0.0225,-0.0101,0.0073,-17.0063,1.7813,-25.5750,
0.548860,-0.0022,0.0085,0.0053,-0.0225,-0.0101,0.0073,-17.0063,1.7813,-25.5750,
0.565710,-0.0022,0.0085,0.0053,-0.0225,-0.0101,0.0073,-16.9875,1.8000,-25.5750,
0.588412,-0.0022,0.0085,0.0053,-0.0378,-0.0387,-0.0029,-16.9875,1.8000,-25.5750,
0.608748,-0.0022,0.0085,0.0053,-0.0378,-0.0387,-0.0029,-16.9875,1.8000,-25.5750,
0.609739,-0.0292,-0.0132,0.0267,-0.0378,-0.0387,-0.0029,-16.9875,1.8000,-25.5750,
0.623844,-0.0292,-0.0132,0.0267,-0.0378,-0.0387,-0.0029,-16.9125,1.8750,-25.4063,
0.648487,-0.0292,-0.0132,0.0267,-0.0306,-0.0217,0.0088,-16.9125,1.8750,-25.4063,
0.668505,0.0173,0.0216,-0.0101,-0.0306,-0.0217,0.0088,-16.9125,1.8750,-25.4063,
0.670289,0.0173,0.0216,-0.0101,-0.0306,-0.0217,0.0088,-16.9125,1.8750,-25.4063,
0.685816,0.0173,0.0216,-0.0101,-0.0306,-0.0217,0.0088,-16.9875,2.0625,-25.4438,
0.710471,0.0173,0.0216,-0.0101,-0.0204,-0.0061,0.0077,-16.9875,2.0625,-25.4438,
0.730510,0.0173,0.0216,-0.0101,-0.0204,-0.0061,0.0077,-16.9875,2.0625,-25.4438,
0.730942,-0.0014,-0.0079,-0.0141,-0.0204,-0.0061,0.0077,-16.9875,2.0625,-25.4438,
0.744229,-0.0014,-0.0079,-0.0141,-0.0204,-0.0061,0.0077,-16.8563,2.2125,-25.5375,
0.771144,-0.0014,-0.0079,-0.0141,-0.0300,0.0013,0.0218,-16.8563,2.2125,-25.5375,
0.791716,-0.0014,-0.0079,-0.0141,-0.0300,0.0013,0.0218,-16.8563,2.2125,-25.5375,
0.804656,-0.0014,-0.0079,-0.0141,-0.0300,0.0013,0.0218,-17.0250,2.2125,-25.5375,
0.812590,0.0280,-0.0148,0.0026,-0.0300,0.0013,0.0218,-17.0250,2.2125,-25.5375,
0.832114,0.0280,-0.0148,0.0026,-0.0626,0.0123,0.0427,-17.0250,2.2125,-25.5375,
0.853009,0.0280,-0.0148,0.0026,-0.0626,0.0123,0.0427,-17.0250,2.2125,-25.5375,
0.865719,0.0280,-0.0148,0.0026,-0.0626,0.0123,0.0427,-17.0813,2.2125,-25.5188,
0.874947,0.0658,0.0072,0.0316,-0.0626,0.0123,0.0427,-17.0813,2.2125,-25.5188,
0.892823,0.0658,0.0072,0.0316,-0.0815,0.0073,0.0598,-17.0813,2.2125,-25.5188,
0.913117,0.0658,0.0072,0.0316,-0.0815,0.0073,0.0598,-17.0813,2.2125,-25.5188,
0.924541,0.0658,0.0072,0.0316,-0.0815,0.0073,0.0598,-16.9875,2.2688,-25.4625,
0.933777,0.0147,0.0200,0.0677,-0.0815,0.0073,0.0598,-16.9875,2.2688,-25.4625,
0.953641,0.0147,0.0200,0.0677,-0.0690,0.0244,0.0864,-16.9875,2.2688,-25.4625,
0.974191,0.0147,0.0200,0.0677,-0.0690,0.0244,0.0864,-16.9875,2.2688,-25.4625,
0.984608,0.0147,0.0200,0.0677,-0.0690,0.0244,0.0864,-17.0625,2.3813,-25.4250,
1.015718,0.0147,0.0200,0.0677,-0.1056,-0.0711,0.1411,-17.0625,2.3813,-25.4250,
1.017534,0.0868,0.0037,-0.0446,-0.1056,-0.0711,0.1411,-17.0625,2.3813,-25.4250,
1.035696,0.0868,0.0037,-0.0446,-0.1056,-0.0711,0.1411,-17.0625,2.3813,-25.4250,
1.043497,0.0868,0.0037,-0.0446,-0.1056,-0.0711,0.1411,-17.1188,2.6063,-25.3313,
1.075117,0.0868,0.0037,-0.0446,-0.1453,-0.1105,0.1908,-17.1188,2.6063,-25.3313,
1.076711,0.1299,0.0484,0.0794,-0.1453,-0.1105,0.1908,-17.1188,2.6063,-25.3313,
1.095485,0.1299,0.0484,0.0794,-0.1453,-0.1105,0.1908,-17.1188,2.6063,-25.3313,
1.105718,0.1299,0.0484,0.0794,-0.1453,-0.1105,0.1908,-17.1188,2.9625,-25.4250,
1.136300,0.1299,0.0484,0.0794,-0.1634,-0.1776,0.2272,-17.1188,2.9625,-25.4250,
1.138669,0.0855,0.0384,0.0851,-0.1634,-0.1776,0.2272,-17.1188,2.9625,-25.4250,
1.157562,0.0855,0.0384,0.0851,-0.1634,-0.1776,0.2272,-17.1188,2.9625,-25.4250,
1.166026,0.0855,0.0384,0.0851,-0.1634,-0.1776,0.2272,-17.0063,3.3375,-25.3313,
1.198540,0.0855,0.0384,0.0851,-0.1581,-0.2473,0.2613,-17.0063,3.3375,-25.3313,
1.200558,-0.0173,0.0150,0.1080,-0.1581,-0.2473,0.2613,-17.0063,3.3375,-25.3313,
1.218026,-0.0173,0.0150,0.1080,-0.1581,-0.2473,0.2613,-17.0063,3.3375,-25.3313,
1.224553,-0.0173,0.0150,0.1080,-0.1581,-0.2473,0.2613,-17.0813,3.7125,-24.9563,
1.258858,-0.0173,0.0150,0.1080,-0.1634,-0.2824,0.2882,-17.0813,3.7125,-24.9563,
1.279057,-0.0173,0.0150,0.1080,-0.1634,-0.2824,0.2882,-17.0813,3.7125,-24.9563,
1.280538,0.1789,-0.0303,-0.0399,-0.1634,-0.2824,0.2882,-17.0813,3.7125,-24.9563,
1.284949,0.1789,-0.0303,-0.0399,-0.1634,-0.2824,0.2882,-17.1000,4.2000,-24.7500,
1.320295,0.1789,-0.0303,-0.0399,-0.2109,-0.2639,0.2996,-17.1000,4.2000,-24.7500,
1.340250,0.1789,-0.0303,-0.0399,-0.2109,-0.2639,0.2996,-17.1000,4.2000,-24.7500,
1.341019,0.0928,-0.0496,0.0195,-0.2109,-0.2639,0.2996,-17.1000,4.2000,-24.7500,
1.344460,0.0928,-0.0496,0.0195,-0.2109,-0.2639,0.2996,-17.1938,4.7812,-24.3563,
1.381138,0.0928,-0.0496,0.0195,-0.2139,-0.2976,0.2977,-17.1938,4.7812,-24.3563,
1.401995,0.0928,-0.0496,0.0195,-0.2139,-0.2976,0.2977,-17.1938,4.7812,-24.3563,
1.403413,0.0528,0.0296,0.0947,-0.2139,-0.2976,0.2977,-17.1938,4.7812,-24.3563,
1.405704,0.0528,0.0296,0.0947,-0.2139,-0.2976,0.2977,-17.3813,5.4563,-24.1125,
1.442292,0.0528,0.0296,0.0947,-0.1630,-0.2143,0.2694,-17.3813,5.4563,-24.1125,
1.461911,0.0528,0.0296,0.0947,-0.1630,-0.2143,0.2694,-17.3813,5.4563,-24.1125,
1.466425,0.0528,0.0296,0.0947,-0.1630,-0.2143,0.2694,-17.5500,6.1875,-23.6438,
1.482057,0.0867,-0.0794,-0.1006,-0.1630,-0.2143,0.2694,-17.5500,6.1875,-23.6438,
1.501387,0.0867,-0.0794,-0.1006,-0.1265,-0.0009,0.2278,-17.5500,6.1875,-23.6438,
1.522120,0.0867,-0.0794,-0.1006,-0.1265,-0.0009,0.2278,-17.5500,6.1875,-23.6438,
1.524072,0.0867,-0.0794,-0.1006,-0.1265,-0.0009,0.2278,-17.7188,6.9750,-23.3625,
1.542986,0.1864,-0.1243,-0.1893,-0.1265,-0.0009,0.2278,-17.7188,6.9750,-23.3625,
1.563471,0.1864,-0.1243,-0.1893,-0.1005,0.0257,0.1637,-17.7188,6.9750,-23.3625,
1.584918,0.1864,-0.1243,-0.1893,-0.1005,0.0257,0.1637,-17.7750,7.4250,-22.6875,
1.587016,0.1864,-0.1243,-0.1893,-0.1005,0.0257,0.1637,-17.7750,7.4250,-22.6875,
1.604990,-0.1903,-0.0156,0.0249,-0.1005,0.0257,0.1637,-17.7750,7.4250,-22.6875,
1.624722,-0.1903,-0.0156,0.0249,-0.1357,0.1656,0.1242,-17.7750,7.4250,-22.6875,
1.646362,-0.1903,-0.0156,0.0249,-0.1357,0.1656,0.1242,-17.8500,8.0250,-22.4062,
1.647113,-0.1903,-0.0156,0.0249,-0.1357,0.1656,0.1242,-17.8500,8.0250,-22.4062,
1.667578,-0.0132,-0.0137,0.0070,-0.1357,0.1656,0.1242,-17.8500,8.0250,-22.4062,
1.688322,-0.0132,-0.0137,0.0070,-0.2294,0.2178,0.1029,-17.8500,8.0250,-22.4062,
1.706105,-0.0132,-0.0137,0.0070,-0.2294,0.2178,0.1029,-17.8500,8.0250,-22.4062,
1.707056,-0.0132,-0.0137,0.0070,-0.2294,0.2178,0.1029,-17.6250,8.6625,-22.1250,
1.746612,-0.0132,-0.0137,0.0070,-0.2812,0.2671,0.0957,-17.6250,8.6625,-22.1250,
1.748205,-0.1343,0.0983,0.2430,-0.2812,0.2671,0.0957,-17.6250,8.6625,-22.1250,
1.766037,-0.1343,0.0983,0.2430,-0.2812,0.2671,0.0957,-17.2875,9.2438,-21.9188,
1.767466,-0.1343,0.0983,0.2430,-0.2812,0.2671,0.0957,-17.2875,9.2438,-21.9188,
1.807309,-0.1343,0.0983,0.2430,-0.3132,0.2842,0.0855,-17.2875,9.2438,-21.9188,
1.808491,-0.0766,-0.0261,0.1398,-0.3132,0.2842,0.0855,-17.2875,9.2438,-21.9188,
1.825608,-0.0766,-0.0261,0.1398,-0.3132,0.2842,0.0855,-17.0063,9.8438,-21.6562,
1.827292,-0.0766,-0.0261,0.1398,-0.3132,0.2842,0.0855,-17.0063,9.8438,-21.6562,
1.867829,-0.0766,-0.0261,0.1398,-0.3626,0.3485,0.0883,-17.0063,9.8438,-21.6562,
1.869540,-0.0920,-0.0449,0.1926,-0.3626,0.3485,0.0883,-17.0063,9.8438,-21.6562,
1.885150,-0.0920,-0.0449,0.1926,-0.3626,0.3485,0.0883,-16.3313,10.4625,-21.3750,
1.886539,-0.0920,-0.0449,0.1926,-0.3626,0.3485,0.0883,-16.3313,10.4625,-21.3750,
1.929036,-0.0920,-0.0449,0.1926,-0.4609,0.4290,0.0795,-16.3313,10.4625,-21.3750,
1.945874,-0.0920,-0.0449,0.1926,-0.4609,0.4290,0.0795,-15.5813,11.0625,-21.2250,
1.950614,-0.0920,-0.0449,0.1926,-0.4609,0.4290,0.0795,-15.5813,11.0625,-21.2250,
1.953843,-0.1048,-0.1187,0.2372,-0.4609,0.4290,0.0795,-15.5813,11.0625,-21.2250,
1.989422,-0.1048,-0.1187,0.2372,-0.7328,0.5980,-0.0085,-15.5813,11.0625,-21.2250,
2.003959,-0.1048,-0.1187,0.2372,-0.7328,0.5980,-0.0085,-14.6813,11.7938,-20.7188,
2.009433,-0.1048,-0.1187,0.2372,-0.7328,0.5980,-0.0085,-14.6813,11.7938,-20.7188,
2.009892,-0.2075,-0.2728,0.4534,-0.7328,0.5980,-0.0085,-14.6813,11.7938,-20.7188,
2.051265,-0.2075,-0.2728,0.4534,-1.1794,0.9023,0.0752,-14.6813,11.7938,-20.7188,
2.067890,-0.2075,-0.2728,0.4534,-1.1794,0.9023,0.0752,-13.5938,13.0313,-20.3438,
2.072198,-0.2075,-0.2728,0.4534,-1.1794,0.9023,0.0752,-13.5938,13.0313,-20.3438,
2.073092,-0.1165,-0.6083,1.0455,-1.1794,0.9023,0.0752,-13.5938,13.0313,-20.3438,
2.119845,-0.1165,-0.6083,1.0455,-1.8305,0.9562,-0.0249,-13.5938,13.0313,-20.3438,
2.125833,-0.1165,-0.6083,1.0455,-1.8305,0.9562,-0.0249,-12.5063,14.4188,-19.2563,
2.132205,-0.1165,-0.6083,1.0455,-1.8305,0.9562,-0.0249,-12.5063,14.4188,-19.2563,
2.132770,-0.0431,-2.9990,1.8828,-1.8305,0.9562,-0.0249,-12.5063,14.4188,-19.2563,
2.171940,-0.0431,-2.9990,1.8828,-1.8350,0.0570,0.0834,-12.5063,14.4188,-19.2563,
2.184998,-0.0431,-2.9990,1.8828,-1.8350,0.0570,0.0834,-11.6625,16.0875,-18.0188,
2.192481,-0.0431,-2.9990,1.8828,-1.8350,0.0570,0.0834,-11.6625,16.0875,-18.0188,
2.213973,1.9432,-3.6670,3.8790,-1.8350,0.0570,0.0834,-11.6625,16.0875,-18.0188,
2.232828,1.9432,-3.6670,3.8790,-1.3004,-0.9179,-0.0242,-11.6625,16.0875,-18.0188,
2.244962,1.9432,-3.6670,3.8790,-1.3004,-0.9179,-0.0242,-11.1188,17.7750,-16.2000,
2.253443,1.9432,-3.6670,3.8790,-1.3004,-0.9179,-0.0242,-11.1188,17.7750,-16.2000,
2.274187,0.5062,-1.3596,3.5266,-1.3004,-0.9179,-0.0242,-11.1188,17.7750,-16.2000,
2.294728,0.5062,-1.3596,3.5266,1.0028,-0.1670,-0.6294,-11.1188,17.7750,-16.2000,
2.304557,0.5062,-1.3596,3.5266,1.0028,-0.1670,-0.6294,-10.6313,19.1063,-14.7750,
2.313637,0.5062,-1.3596,3.5266,1.0028,-0.1670,-0.6294,-10.6313,19.1063,-14.7750,
2.334633,-0.2098,0.8024,7.3078,1.0028,-0.1670,-0.6294,-10.6313,19.1063,-14.7750,
2.355121,-0.2098,0.8024,7.3078,2.6855,0.7890,-0.8610,-10.6313,19.1063,-14.7750,
2.365022,-0.2098,0.8024,7.3078,2.6855,0.7890,-0.8610,-6.0750,36.0563,-33.1875,
2.375337,-0.2098,0.8024,7.3078,2.6855,0.7890,-0.8610,-6.0750,36.0563,-33.1875,
2.416464,-0.2098,0.8024,7.3078,3.4267,0.2483,-0.3859,-6.0750,36.0563,-33.1875,
2.419357,-1.3710,0.7204,1.6637,3.4267,0.2483,-0.3859,-6.0750,36.0563,-33.1875,
2.425688,-1.3710,0.7204,1.6637,3.4267,0.2483,-0.3859,-12.7875,9.6375,-7.3500,
2.437523,-1.3710,0.7204,1.6637,3.4267,0.2483,-0.3859,-12.7875,9.6375,-7.3500,
2.477389,-1.3710,0.7204,1.6637,3.5317,0.5526,0.0578,-12.7875,9.6375,-7.3500,
2.478647,-2.2323,-1.4596,-3.5968,3.5317,0.5526,0.0578,-12.7875,9.6375,-7.3500,
2.486491,-2.2323,-1.4596,-3.5968,3.5317,0.5526,0.0578,-13.2563,7.3313,-7.9875,
2.496993,-2.2323,-1.4596,-3.5968,3.5317,0.5526,0.0578,-13.2563,7.3313,-7.9875,
2.538572,-2.2323,-1.4596,-3.5968,3.3178,0.6357,0.1324,-13.2563,7.3313,-7.9875,
2.540892,-0.0514,-2.6078,-5.6824,3.3178,0.6357,0.1324,-13.2563,7.3313,-7.9875,
2.545715,-0.0514,-2.6078,-5.6824,3.3178,0.6357,0.1324,-13.9688,3.4500,-9.1875,
2.557986,-0.0514,-2.6078,-5.6824,3.3178,0.6357,0.1324,-13.9688,3.4500,-9.1875,
2.598787,-0.0514,-2.6078,-5.6824,2.1126,0.4983,0.3887,-13.9688,3.4500,-9.1875,
2.600781,0.8565,-2.9073,-7.0391,2.1126,0.4983,0.3887,-13.9688,3.4500,-9.1875,
2.604823,0.8565,-2.9073,-7.0391,2.1126,0.4983,0.3887,-14.6813,-1.7063,-10.7812,
2.618969,0.8565,-2.9073,-7.0391,2.1126,0.4983,0.3887,-14.6813,-1.7063,-10.7812,
2.660018,0.8565,-2.9073,-7.0391,-0.1715,0.3890,0.3762,-14.6813,-1.7063,-10.7812,
2.664607,0.8565,-2.9073,-7.0391,-0.1715,0.3890,0.3762,-15.2250,-7.2375,-12.6938,
2.679886,0.2041,-1.1916,-9.7732,-0.1715,0.3890,0.3762,-15.2250,-7.2375,-12.6938,
2.681208,0.2041,-1.1916,-9.7732,-0.1715,0.3890,0.3762,-15.2250,-7.2375,-12.6938,
2.720792,0.2041,-1.1916,-9.7732,-1.2504,-0.9615,0.4454,-15.2250,-7.2375,-12.6938,
2.724846,0.2041,-1.1916,-9.7732,-1.2504,-0.9615,0.4454,-15.6938,-12.5813,-15.0375,
2.740780,0.2041,-1.1916,-9.7732,-1.2504,-0.9615,0.4454,-15.6938,-12.5813,-15.0375,
2.741494,0.7986,0.9574,-8.3814,-1.2504,-0.9615,0.4454,-15.6938,-12.5813,-15.0375,
2.781448,0.7986,0.9574,-8.3814,-1.3842,-1.4482,0.2566,-15.6938,-12.5813,-15.0375,
2.783663,0.7986,0.9574,-8.3814,-1.3842,-1.4482,0.2566,-16.5938,-17.0063,-17.0813,
2.801508,0.7986,0.9574,-8.3814,-1.3842,-1.4482,0.2566,-16.5938,-17.0063,-17.0813,
2.802376,-0.8976,-2.4630,0.8914,-1.3842,-1.4482,0.2566,-16.5938,-17.0063,-17.0813,
2.842990,-0.8976,-2.4630,0.8914,-0.8883,-0.1678,0.2178,-16.5938,-17.0063,-17.0813,
2.844647,-0.8976,-2.4630,0.8914,-0.8883,-0.1678,0.2178,-17.3063,-20.3063,-18.2063,
2.862158,-0.8976,-2.4630,0.8914,-0.8883,-0.1678,0.2178,-17.3063,-20.3063,-18.2063,
2.885055,2.7489,-1.1894,0.4005,-0.8883,-0.1678,0.2178,-17.3063,-20.3063,-18.2063,
2.903557,2.7489,-1.1894,0.4005,-0.7910,-0.0623,0.3947,-17.3063,-20.3063,-18.2063,
2.904972,2.7489,-1.1894,0.4005,-0.7910,-0.0623,0.3947,-17.7000,-22.2563,-18.6188,
2.923789,2.7489,-1.1894,0.4005,-0.7910,-0.0623,0.3947,-17.7000,-22.2563,-18.6188,
2.944829,-0.1915,0.3778,1.9349,-0.7910,-0.0623,0.3947,-17.7000,-22.2563,-18.6188,
2.964355,-0.1915,0.3778,1.9349,-0.6842,-0.0137,0.3344,-17.7000,-22.2563,-18.6188,
2.965840,-0.1915,0.3778,1.9349,-0.6842,-0.0137,0.3344,-18.2250,-22.7438,-18.7313,
2.987109,-0.1915,0.3778,1.9349,-0.6842,-0.0137,0.3344,-18.2250,-22.7438,-18.7313,
3.006580,1.0006,-0.7039,0.4552,-0.6842,-0.0137,0.3344,-18.2250,-22.7438,-18.7313,
3.026287,1.0006,-0.7039,0.4552,-0.6842,-0.0137,0.3344,-18.6750,-21.8063,-18.3563,
3.027564,1.0006,-0.7039,0.4552,-0.6437,0.2260,0.2896,-18.6750,-21.8063,-18.3563,
3.046442,1.0006,-0.7039,0.4552,-0.6437,0.2260,0.2896,-18.6750,-21.8063,-18.3563,
3.065183,-0.2995,0.0395,2.0110,-0.6437,0.2260,0.2896,-18.6750,-21.8063,-18.3563,
3.086889,-0.2995,0.0395,2.0110,-0.6437,0.2260,0.2896,-19.1625,-19.6313,-17.9625,
3.087875,-0.2995,0.0395,2.0110,-0.7502,0.0925,0.0944,-19.1625,-19.6313,-17.9625,
3.106831,-0.2995,0.0395,2.0110,-0.7502,0.0925,0.0944,-19.1625,-19.6313,-17.9625,
3.147280,-0.1538,-0.0510,1.5017,-0.7502,0.0925,0.0944,-19.1625,-19.6313,-17.9625,
3.149052,-0.1538,-0.0510,1.5017,-0.6710,0.1838,0.0593,-19.1625,-19.6313,-17.9625,
3.150169,-0.1538,-0.0510,1.5017,-0.6710,0.1838,0.0593,-19.6313,-17.0813,-17.5312,
3.167332,-0.1538,-0.0510,1.5017,-0.6710,0.1838,0.0593,-19.6313,-17.0813,-17.5312,
3.205680,-0.1538,-0.0510,1.5017,-0.6710,0.1838,0.0593,-19.8563,-14.8125,-17.1188,
3.207402,-0.1538,-0.0510,1.5017,-0.6497,0.4681,0.0631,-19.8563,-14.8125,-17.1188,
3.209493,0.2446,-0.4448,0.8054,-0.6497,0.4681,0.0631,-19.8563,-14.8125,-17.1188,
3.227253,0.2446,-0.4448,0.8054,-0.6497,0.4681,0.0631,-19.8563,-14.8125,-17.1188,
3.265005,0.2446,-0.4448,0.8054,-0.6497,0.4681,0.0631,-19.2750,-12.8250,-16.7625,
3.268401,0.2446,-0.4448,0.8054,-0.9558,0.7322,-0.0178,-19.2750,-12.8250,-16.7625,
3.269651,-0.0789,-0.3790,1.1319,-0.9558,0.7322,-0.0178,-19.2750,-12.8250,-16.7625,
3.289103,-0.0789,-0.3790,1.1319,-0.9558,0.7322,-0.0178,-19.2750,-12.8250,-16.7625,
3.325526,-0.0789,-0.3790,1.1319,-0.9558,0.7322,-0.0178,-18.5438,-10.8000,-16.3875,
3.335783,-0.0789,-0.3790,1.1319,-1.6437,0.4723,-0.2188,-18.5438,-10.8000,-16.3875,
3.349806,-0.0789,-0.3790,1.1319,-1.6437,0.4723,-0.2188,-18.5438,-10.8000,-16.3875,
3.350617,-0.5124,-0.5979,1.8784,-1.6437,0.4723,-0.2188,-18.5438,-10.8000,-16.3875,
3.386285,-0.5124,-0.5979,1.8784,-1.6437,0.4723,-0.2188,-17.9062,-8.4563,-15.8625,
3.389768,-0.5124,-0.5979,1.8784,-2.2842,0.5899,-0.3266,-17.9062,-8.4563,-15.8625,
3.410617,-0.5124,-0.5979,1.8784,-2.2842,0.5899,-0.3266,-17.9062,-8.4563,-15.8625,
3.411332,0.0962,-1.5182,1.9996,-2.2842,0.5899,-0.3266,-17.9062,-8.4563,-15.8625,
3.444279,0.0962,-1.5182,1.9996,-2.2842,0.5899,-0.3266,-17.2313,-5.8500,-14.6250,
3.450033,0.0962,-1.5182,1.9996,-2.2050,0.1258,-0.6675,-17.2313,-5.8500,-14.6250,
3.470362,0.0962,-1.5182,1.9996,-2.2050,0.1258,-0.6675,-17.2313,-5.8500,-14.6250,
3.471060,0.5851,-5.8697,2.9785,-2.2050,0.1258,-0.6675,-17.2313,-5.8500,-14.6250,
3.504207,0.5851,-5.8697,2.9785,-2.2050,0.1258,-0.6675,-16.4250,-3.1313,-13.2375,
3.510680,0.5851,-5.8697,2.9785,-1.3249,0.4503,0.3088,-16.4250,-3.1313,-13.2375,
3.531415,0.5851,-5.8697,2.9785,-1.3249,0.4503,0.3088,-16.4250,-3.1313,-13.2375,
3.532783,0.3415,-4.7607,6.9967,-1.3249,0.4503,0.3088,-16.4250,-3.1313,-13.2375,
3.564872,0.3415,-4.7607,6.9967,-1.3249,0.4503,0.3088,-15.8063,-0.8250,-11.7938,
3.572248,0.3415,-4.7607,6.9967,0.6354,-0.2995,-0.7123,-15.8063,-0.8250,-11.7938,
3.592595,0.3415,-4.7607,6.9967,0.6354,-0.2995,-0.7123,-15.8063,-0.8250,-11.7938,
3.612671,-2.1613,1.7232,6.6049,0.6354,-0.2995,-0.7123,-15.8063,-0.8250,-11.7938,
3.624190,-2.1613,1.7232,6.6049,0.6354,-0.2995,-0.7123,-15.6938,0.8625,-10.5188,
3.633219,-2.1613,1.7232,6.6049,2.4341,0.0406,-0.6639,-15.6938,0.8625,-10.5188,
3.653660,-2.1613,1.7232,6.6049,2.4341,0.0406,-0.6639,-15.6938,0.8625,-10.5188,
3.675514,-1.3700,1.6324,3.3757,2.4341,0.0406,-0.6639,-15.6938,0.8625,-10.5188,
3.684127,-1.3700,1.6324,3.3757,2.4341,0.0406,-0.6639,-15.9188,1.6500,-9.7125,
3.693930,-1.3700,1.6324,3.3757,3.3299,-0.8682,-0.2657,-15.9188,1.6500,-9.7125,
3.714944,-1.3700,1.6324,3.3757,3.3299,-0.8682,-0.2657,-15.9188,1.6500,-9.7125,
3.734625,-3.1202,-0.3040,-1.6736,3.3299,-0.8682,-0.2657,-15.9188,1.6500,-9.7125,
3.744151,-3.1202,-0.3040,-1.6736,3.3299,-0.8682,-0.2657,-16.7625,1.4438,-9.1688,
3.755281,-3.1202,-0.3040,-1.6736,3.6604,-0.4099,0.3350,-16.7625,1.4438,-9.1688,
3.775482,-3.1202,-0.3040,-1.6736,3.6604,-0.4099,0.3350,-16.7625,1.4438,-9.1688,
3.805650,-3.1202,-0.3040,-1.6736,3.6604,-0.4099,0.3350,-17.8500,-0.0563,-9.2250,
3.816436,-3.1202,-0.3040,-1.6736,3.7299,0.4678,0.5459,-17.8500,-0.0563,-9.2250,
3.817983,-1.1524,-2.5734,-5.3935,3.7299,0.4678,0.5459,-17.8500,-0.0563,-9.2250,
3.836384,-1.1524,-2.5734,-5.3935,3.7299,0.4678,0.5459,-17.8500,-0.0563,-9.2250,
3.865647,-1.1524,-2.5734,-5.3935,3.7299,0.4678,0.5459,-18.8813,-3.1125,-9.5438,
3.877799,-1.1524,-2.5734,-5.3935,2.9148,-0.0573,0.3847,-18.8813,-3.1125,-9.5438,
3.879682,1.0427,-4.1968,-6.3123,2.9148,-0.0573,0.3847,-18.8813,-3.1125,-9.5438,
3.898765,1.0427,-4.1968,-6.3123,2.9148,-0.0573,0.3847,-18.8813,-3.1125,-9.5438,
3.925120,1.0427,-4.1968,-6.3123,2.9148,-0.0573,0.3847,-19.7438,-7.3500,-10.5938,
3.939063,1.0427,-4.1968,-6.3123,0.5270,0.6428,-0.1169,-19.7438,-7.3500,-10.5938,
3.940211,1.4197,-2.9316,-8.9813,0.5270,0.6428,-0.1169,-19.7438,-7.3500,-10.5938,
3.958900,1.4197,-2.9316,-8.9813,0.5270,0.6428,-0.1169,-19.7438,-7.3500,-10.5938,
3.986522,1.4197,-2.9316,-8.9813,0.5270,0.6428,-0.1169,-20.5875,-11.8688,-11.9250,
3.999116,1.4197,-2.9316,-8.9813,-1.0462,-0.1603,0.1842,-20.5875,-11.8688,-11.9250,
4.000602,2.2873,1.2026,-10.9692,-1.0462,-0.1603,0.1842,-20.5875,-11.8688,-11.9250,
4.020345,2.2873,1.2026,-10.9692,-1.0462,-0.1603,0.1842,-20.5875,-11.8688,-11.9250,
4.045857,2.2873,1.2026,-10.9692,-1.0462,-0.1603,0.1842,-21.6375,-15.8813,-13.4063,
4.062094,2.2873,1.2026,-10.9692,-1.2717,-1.3864,0.5630,-21.6375,-15.8813,-13.4063,
4.081760,2.2873,1.2026,-10.9692,-1.2717,-1.3864,0.5630,-21.6375,-15.8813,-13.4063,
4.083577,0.6413,-2.0253,0.8921,-1.2717,-1.3864,0.5630,-21.6375,-15.8813,-13.4063,
4.104934,0.6413,-2.0253,0.8921,-1.2717,-1.3864,0.5630,-22.6875,-19.0875,-14.6063,
4.120746,0.6413,-2.0253,0.8921,-1.4063,0.0521,0.2839,-22.6875,-19.0875,-14.6063,
4.141165,0.6413,-2.0253,0.8921,-1.4063,0.0521,0.2839,-22.6875,-19.0875,-14.6063,
4.142349,-0.5746,-2.1992,-2.2727,-1.4063,0.0521,0.2839,-22.6875,-19.0875,-14.6063,
4.165923,-0.5746,-2.1992,-2.2727,-1.4063,0.0521,0.2839,-23.3813,-21.1125,-15.2625,
4.181817,-0.5746,-2.1992,-2.2727,-1.1176,-0.3136,0.3222,-23.3813,-21.1125,-15.2625,
4.203330,-0.5746,-2.1992,-2.2727,-1.1176,-0.3136,0.3222,-23.3813,-21.1125,-15.2625,
4.204922,0.6111,0.2998,1.6193,-1.1176,-0.3136,0.3222,-23.3813,-21.1125,-15.2625,
4.225680,0.6111,0.2998,1.6193,-1.1176,-0.3136,0.3222,-23.6813,-22.0500,-15.5813,
4.243276,0.6111,0.2998,1.6193,-0.9025,0.0758,0.2960,-23.6813,-22.0500,-15.5813,
4.264173,0.6111,0.2998,1.6193,-0.9025,0.0758,0.2960,-23.6813,-22.0500,-15.5813,
4.265542,0.8174,-0.5191,1.1823,-0.9025,0.0758,0.2960,-23.6813,-22.0500,-15.5813,
4.285482,0.8174,-0.5191,1.1823,-0.9025,0.0758,0.2960,-23.9438,-21.8813,-15.4688,
4.303856,0.8174,-0.5191,1.1823,-0.7274,0.1141,0.0695,-23.9438,-21.8813,-15.4688,
4.325944,0.8174,-0.5191,1.1823,-0.7274,0.1141,0.0695,-23.9438,-21.8813,-15.4688,
4.345798,0.8174,-0.5191,1.1823,-0.7274,0.1141,0.0695,-24.1125,-20.4000,-15.2063,
4.347691,-0.1943,-0.2468,1.3063,-0.7274,0.1141,0.0695,-24.1125,-20.4000,-15.2063,
4.366188,-0.1943,-0.2468,1.3063,-0.7519,0.2015,0.0901,-24.1125,-20.4000,-15.2063,
4.387176,-0.1943,-0.2468,1.3063,-0.7519,0.2015,0.0901,-24.1125,-20.4000,-15.2063,
4.408158,-0.1943,-0.2468,1.3063,-0.7519,0.2015,0.0901,-24.3750,-17.9438,-14.7750,
4.410128,-0.0747,-0.0649,1.8112,-0.7519,0.2015,0.0901,-24.3750,-17.9438,-14.7750,
4.426878,-0.0747,-0.0649,1.8112,-0.7619,0.0513,0.0691,-24.3750,-17.9438,-14.7750,
4.447629,-0.0747,-0.0649,1.8112,-0.7619,0.0513,0.0691,-24.3750,-17.9438,-14.7750,
4.463949,-0.0747,-0.0649,1.8112,-0.7619,0.0513,0.0691,-24.7688,-15.3375,-14.1938,
4.466351,-0.1314,-0.1406,1.5885,-0.7619,0.0513,0.0691,-24.7688,-15.3375,-14.1938,
4.487029,-0.1314,-0.1406,1.5885,-0.6330,0.1866,0.0759,-24.7688,-15.3375,-14.1938,
4.507096,-0.1314,-0.1406,1.5885,-0.6330,0.1866,0.0759,-24.7688,-15.3375,-14.1938,
4.527558,-0.1314,-0.1406,1.5885,-0.6330,0.1866,0.0759,-24.7125,-13.0688,-13.5375,
4.547917,0.3021,-0.7066,0.9318,-0.6330,0.1866,0.0759,-24.7125,-13.0688,-13.5375,
4.549046,0.3021,-0.7066,0.9318,-0.6767,0.3406,0.0961,-24.7125,-13.0688,-13.5375,
4.567987,0.3021,-0.7066,0.9318,-0.6767,0.3406,0.0961,-24.7125,-13.0688,-13.5375,
4.584889,0.3021,-0.7066,0.9318,-0.6767,0.3406,0.0961,-24.1313,-10.9125,-13.0500,
4.608895,0.3021,-0.7066,0.9318,-0.9309,0.4823,0.1671,-24.1313,-10.9125,-13.0500,
4.611654,-0.0402,-0.4989,1.2794,-0.9309,0.4823,0.1671,-24.1313,-10.9125,-13.0500,
4.629679,-0.0402,-0.4989,1.2794,-0.9309,0.4823,0.1671,-24.1313,-10.9125,-13.0500,
4.645723,-0.0402,-0.4989,1.2794,-0.9309,0.4823,0.1671,-23.6063,-8.8125,-12.5813,
4.669117,-0.0402,-0.4989,1.2794,-1.2706,0.5590,0.1373,-23.6063,-8.8125,-12.5813,
4.670985,-0.0999,-0.4958,1.4347,-1.2706,0.5590,0.1373,-23.6063,-8.8125,-12.5813,
4.690597,-0.0999,-0.4958,1.4347,-1.2706,0.5590,0.1373,-23.6063,-8.8125,-12.5813,
4.705019,-0.0999,-0.4958,1.4347,-1.2706,0.5590,0.1373,-22.8938,-6.7688,-12.0938,
4.730583,-0.0999,-0.4958,1.4347,-1.5344,0.8369,-0.0352,-22.8938,-6.7688,-12.0938,
4.732296,-0.1137,-1.4095,1.4927,-1.5344,0.8369,-0.0352,-22.8938,-6.7688,-12.0938,
4.751098,-0.1137,-1.4095,1.4927,-1.5344,0.8369,-0.0352,-22.8938,-6.7688,-12.0938,
4.765063,-0.1137,-1.4095,1.4927,-1.5344,0.8369,-0.0352,-21.9375,-4.5750,-11.3250,
4.791258,-0.1137,-1.4095,1.4927,-1.7232,1.0027,-0.5273,-21.9375,-4.5750,-11.3250,
4.811567,-0.1137,-1.4095,1.4927,-1.7232,1.0027,-0.5273,-21.9375,-4.5750,-11.3250,
4.813005,-0.3113,-3.9052,2.2440,-1.7232,1.0027,-0.5273,-21.9375,-4.5750,-11.3250,
4.825624,-0.3113,-3.9052,2.2440,-1.7232,1.0027,-0.5273,-20.8500,-2.4000,-10.3688,
4.852550,-0.3113,-3.9052,2.2440,-1.5659,0.9694,0.1594,-20.8500,-2.4000,-10.3688,
4.873246,-0.3113,-3.9052,2.2440,-1.5659,0.9694,0.1594,-20.8500,-2.4000,-10.3688,
4.874582,0.3508,-4.4153,5.9711,-1.5659,0.9694,0.1594,-20.8500,-2.4000,-10.3688,
4.885756,0.3508,-4.4153,5.9711,-1.5659,0.9694,0.1594,-19.7250,-0.2438,-9.2812,
4.914668,0.3508,-4.4153,5.9711,-0.3349,-0.2143,-0.3270,-19.7250,-0.2438,-9.2812,
4.933964,0.3508,-4.4153,5.9711,-0.3349,-0.2143,-0.3270,-19.7250,-0.2438,-9.2812,
4.936439,-1.2799,0.0507,4.8423,-0.3349,-0.2143,-0.3270,-19.7250,-0.2438,-9.2812,
4.946249,-1.2799,0.0507,4.8423,-0.3349,-0.2143,-0.3270,-18.6750,1.6125,-8.3438,
4.974286,-1.2799,0.0507,4.8423,1.8950,0.3012,-0.6710,-18.6750,1.6125,-8.3438,
4.995437,-1.2799,0.0507,4.8423,1.8950,0.3012,-0.6710,-18.6750,1.6125,-8.3438,
5.005092,-1.2799,0.0507,4.8423,1.8950,0.3012,-0.6710,-17.8125,2.5125,-8.0250,
5.014463,-0.8560,0.7509,6.3620,1.8950,0.3012,-0.6710,-17.8125,2.5125,-8.0250,
5.035169,-0.8560,0.7509,6.3620,3.2730,-0.2373,-0.5188,-17.8125,2.5125,-8.0250,
5.055200,-0.8560,0.7509,6.3620,3.2730,-0.2373,-0.5188,-17.8125,2.5125,-8.0250,
5.064990,-0.8560,0.7509,6.3620,3.2730,-0.2373,-0.5188,-17.2313,1.9313,-8.2875,
5.075338,-2.2366,0.7572,1.1769,3.2730,-0.2373,-0.5188,-17.2313,1.9313,-8.2875,
5.095943,-2.2366,0.7572,1.1769,3.4022,-0.8188,-0.1382,-17.2313,1.9313,-8.2875,
5.115891,-2.2366,0.7572,1.1769,3.4022,-0.8188,-0.1382,-17.2313,1.9313,-8.2875,
5.126341,-2.2366,0.7572,1.1769,3.4022,-0.8188,-0.1382,-16.6313,-0.3563,-8.7000,
5.137037,-3.4646,-1.9856,-5.4122,3.4022,-0.8188,-0.1382,-16.6313,-0.3563,-8.7000,
5.155751,-3.4646,-1.9856,-5.4122,3.3582,-0.1567,0.9219,-16.6313,-0.3563,-8.7000,
5.177252,-3.4646,-1.9856,-5.4122,3.3582,-0.1567,0.9219,-16.6313,-0.3563,-8.7000,
5.187320,-3.4646,-1.9856,-5.4122,3.3582,-0.1567,0.9219,-16.0125,-4.1438,-9.3375,
5.197303,-2.0478,-2.4507,-6.5307,3.3582,-0.1567,0.9219,-16.0125,-4.1438,-9.3375,
5.217004,-2.0478,-2.4507,-6.5307,2.7640,0.0318,0.8068,-16.0125,-4.1438,-9.3375,
5.237759,-2.0478,-2.4507,-6.5307,2.7640,0.0318,0.8068,-16.0125,-4.1438,-9.3375,
5.244990,-2.0478,-2.4507,-6.5307,2.7640,0.0318,0.8068,-15.1500,-9.4313,-10.0500,
5.278563,-2.0478,-2.4507,-6.5307,1.5197,-0.5569,0.6716,-15.1500,-9.4313,-10.0500,
5.280886,0.8307,-2.9823,-8.2099,1.5197,-0.5569,0.6716,-15.1500,-9.4313,-10.0500,
5.299150,0.8307,-2.9823,-8.2099,1.5197,-0.5569,0.6716,-15.1500,-9.4313,-10.0500,
5.304033,0.8307,-2.9823,-8.2099,1.5197,-0.5569,0.6716,-14.7000,-15.5438,-10.7438,
5.339423,0.8307,-2.9823,-8.2099,-0.2748,-1.0623,0.5960,-14.7000,-15.5438,-10.7438,
5.341049,0.4331,-1.1366,-8.1502,-0.2748,-1.0623,0.5960,-14.7000,-15.5438,-10.7438,
5.359970,0.4331,-1.1366,-8.1502,-0.2748,-1.0623,0.5960,-14.7000,-15.5438,-10.7438,
5.364757,0.4331,-1.1366,-8.1502,-0.2748,-1.0623,0.5960,-14.6625,-22.1250,-11.8500,
5.402008,0.4331,-1.1366,-8.1502,-1.1003,-3.1344,-0.1609,-14.6625,-22.1250,-11.8500,
5.404223,1.5015,0.7832,-7.5690,-1.1003,-3.1344,-0.1609,-14.6625,-22.1250,-11.8500,
5.419998,1.5015,0.7832,-7.5690,-1.1003,-3.1344,-0.1609,-14.6625,-22.1250,-11.8500,
5.424288,1.5015,0.7832,-7.5690,-1.1003,-3.1344,-0.1609,-1.1813,-10.9313,-14.1375,
5.460621,1.5015,0.7832,-7.5690,-1.2465,-1.2015,-0.5216,-1.1813,-10.9313,-14.1375,
5.481248,1.5015,0.7832,-7.5690,-1.2465,-1.2015,-0.5216,-1.1813,-10.9313,-14.1375,
5.484237,4.1069,-2.4445,1.6935,-1.2465,-1.2015,-0.5216,-1.1813,-10.9313,-14.1375,
5.485871,4.1069,-2.4445,1.6935,-1.2465,-1.2015,-0.5216,-2.1188,-16.2750,-14.4188,
5.522910,4.1069,-2.4445,1.6935,-1.0907,-0.0921,0.6525,-2.1188,-16.2750,-14.4188,
5.542567,4.1069,-2.4445,1.6935,-1.0907,-0.0921,0.6525,-2.1188,-16.2750,-14.4188,
5.546093,0.1391,-1.0334,-0.2160,-1.0907,-0.0921,0.6525,-2.1188,-16.2750,-14.4188,
5.547766,0.1391,-1.0334,-0.2160,-1.0907,-0.0921,0.6525,-3.1500,-20.1375,-14.4000,
5.582359,0.1391,-1.0334,-0.2160,-1.1472,-0.7587,0.2668,-3.1500,-20.1375,-14.4000,
5.603355,0.1391,-1.0334,-0.2160,-1.1472,-0.7587,0.2668,-3.1500,-20.1375,-14.4000,
5.605017,0.9779,0.2684,1.2343,-1.1472,-0.7587,0.2668,-3.1500,-20.1375,-14.4000,
5.606833,0.9779,0.2684,1.2343,-1.1472,-0.7587,0.2668,-4.5188,-22.4625,-14.2313,
5.645541,0.9779,0.2684,1.2343,-0.8985,-0.1067,0.2864,-4.5188,-22.4625,-14.2313,
5.664136,0.9779,0.2684,1.2343,-0.8985,-0.1067,0.2864,-4.5188,-22.4625,-14.2313,
5.665870,0.7393,-0.2635,1.4841,-0.8985,-0.1067,0.2864,-4.5188,-22.4625,-14.2313,
5.666462,0.7393,-0.2635,1.4841,-0.8985,-0.1067,0.2864,-6.0750,-23.1750,-13.9125,
5.708116,0.7393,-0.2635,1.4841,-0.4282,-0.0917,-0.0288,-6.0750,-23.1750,-13.9125,
5.727102,0.7393,-0.2635,1.4841,-0.4282,-0.0917,-0.0288,-8.0438,-22.5750,-13.9688,
5.728933,0.7393,-0.2635,1.4841,-0.4282,-0.0917,-0.0288,-8.0438,-22.5750,-13.9688,
5.745444,0.3875,-0.7955,0.8044,-0.4282,-0.0917,-0.0288,-8.0438,-22.5750,-13.9688,
5.764867,0.3875,-0.7955,0.8044,-0.0956,0.0293,-0.0583,-8.0438,-22.5750,-13.9688,
5.785477,0.3875,-0.7955,0.8044,-0.0956,0.0293,-0.0583,-8.0438,-22.5750,-13.9688,
5.787005,0.3875,-0.7955,0.8044,-0.0956,0.0293,-0.0583,-9.9000,-21.4125,-14.1563,
5.806381,0.4880,-0.3049,0.6261,-0.0956,0.0293,-0.0583,-9.9000,-21.4125,-14.1563,
5.827274,0.4880,-0.3049,0.6261,-0.1016,0.0140,-0.0296,-9.9000,-21.4125,-14.1563,
5.846322,0.4880,-0.3049,0.6261,-0.1016,0.0140,-0.0296,-11.4188,-20.0250,-14.2500,
5.848691,0.4880,-0.3049,0.6261,-0.1016,0.0140,-0.0296,-11.4188,-20.0250,-14.2500,
5.868838,0.1856,0.0060,0.9650,-0.1016,0.0140,-0.0296,-11.4188,-20.0250,-14.2500,
5.887482,0.1856,0.0060,0.9650,-0.2092,-0.0690,-0.0679,-11.4188,-20.0250,-14.2500,
5.904270,0.1856,0.0060,0.9650,-0.2092,-0.0690,-0.0679,-12.0938,-18.7125,-14.4750,
5.906848,0.1856,0.0060,0.9650,-0.2092,-0.0690,-0.0679,-12.0938,-18.7125,-14.4750,
5.950901,0.0181,0.0350,0.9977,-0.2092,-0.0690,-0.0679,-12.0938,-18.7125,-14.4750,
5.952990,0.0181,0.0350,0.9977,-0.3196,-0.1148,-0.1521,-12.0938,-18.7125,-14.4750,
5.964866,0.0181,0.0350,0.9977,-0.3196,-0.1148,-0.1521,-12.5438,-17.5875,-14.7563,
5.967605,0.0181,0.0350,0.9977,-0.3196,-0.1148,-0.1521,-12.5438,-17.5875,-14.7563,
6.008533,0.0181,0.0350,0.9977,-0.6177,-0.0996,-0.2706,-12.5438,-17.5875,-14.7563,
6.010519,-0.0143,-0.0635,0.9467,-0.6177,-0.0996,-0.2706,-12.5438,-17.5875,-14.7563,
6.026213,-0.0143,-0.0635,0.9467,-0.6177,-0.0996,-0.2706,-12.8438,-16.5188,-14.7188,
6.027982,-0.0143,-0.0635,0.9467,-0.6177,-0.0996,-0.2706,-12.8438,-16.5188,-14.7188,
6.070619,-0.0143,-0.0635,0.9467,-0.9603,-0.2015,-0.5333,-12.8438,-16.5188,-14.7188,
6.073708,-0.4014,0.1524,1.3679,-0.9603,-0.2015,-0.5333,-12.8438,-16.5188,-14.7188,
6.084232,-0.4014,0.1524,1.3679,-0.9603,-0.2015,-0.5333,-12.9000,-15.6000,-14.7938,
6.089532,-0.4014,0.1524,1.3679,-0.9603,-0.2015,-0.5333,-12.9000,-15.6000,-14.7938,
6.131824,-0.4014,0.1524,1.3679,-1.4159,-0.0871,-0.5947,-12.9000,-15.6000,-14.7938,
6.135620,-0.0526,-0.2148,1.5271,-1.4159,-0.0871,-0.5947,-12.9000,-15.6000,-14.7938,
6.144698,-0.0526,-0.2148,1.5271,-1.4159,-0.0871,-0.5947,-12.9563,-14.8500,-15.0750,
6.151211,-0.0526,-0.2148,1.5271,-1.4159,-0.0871,-0.5947,-12.9563,-14.8500,-15.0750,
6.192352,-0.0526,-0.2148,1.5271,-1.3605,-0.8778,-0.6699,-12.9563,-14.8500,-15.0750,
6.203586,-0.0526,-0.2148,1.5271,-1.3605,-0.8778,-0.6699,-13.1625,-13.9125,-14.9063,
6.210534,-0.0526,-0.2148,1.5271,-1.3605,-0.8778,-0.6699,-13.1625,-13.9125,-14.9063,
6.211066,0.8867,-1.4333,1.4251,-1.3605,-0.8778,-0.6699,-13.1625,-13.9125,-14.9063,
6.252906,0.8867,-1.4333,1.4251,-1.2842,-1.1883,-0.6710,-13.1625,-13.9125,-14.9063,
6.266251,0.8867,-1.4333,1.4251,-1.2842,-1.1883,-0.6710,-13.6875,-12.8250,-14.8500,
6.272887,0.8867,-1.4333,1.4251,-1.2842,-1.1883,-0.6710,-13.6875,-12.8250,-14.8500,
6.273427,0.1701,-3.2009,2.4099,-1.2842,-1.1883,-0.6710,-13.6875,-12.8250,-14.8500,
6.312227,0.1701,-3.2009,2.4099,-1.0004,-3.0472,-0.6145,-13.6875,-12.8250,-14.8500,
6.324931,0.1701,-3.2009,2.4099,-1.0004,-3.0472,-0.6145,-14.7375,-11.6250,-14.1188,
6.334544,0.1701,-3.2009,2.4099,-1.0004,-3.0472,-0.6145,-14.7375,-11.6250,-14.1188,
6.336718,-0.1372,0.4254,1.3569,-1.0004,-3.0472,-0.6145,-14.7375,-11.6250,-14.1188,
6.375888,-0.1372,0.4254,1.3569,-0.1300,-5.0880,-1.3473,-14.7375,-11.6250,-14.1188,
6.384581,-0.1372,0.4254,1.3569,-0.1300,-5.0880,-1.3473,-16.6313,-10.7812,-11.9625,
6.395644,-0.1372,0.4254,1.3569,-0.1300,-5.0880,-1.3473,-16.6313,-10.7812,-11.9625,
6.415896,-1.4478,0.7929,4.5110,-0.1300,-5.0880,-1.3473,-16.6313,-10.7812,-11.9625,
6.435637,-1.4478,0.7929,4.5110,0.9979,-2.4681,-1.3480,-16.6313,-10.7812,-11.9625,
6.445611,-1.4478,0.7929,4.5110,0.9979,-2.4681,-1.3480,-18.9375,-10.8000,-8.6438,
6.455798,-1.4478,0.7929,4.5110,0.9979,-2.4681,-1.3480,-18.9375,-10.8000,-8.6438,
6.475886,0.6538,0.5708,2.5322,0.9979,-2.4681,-1.3480,-18.9375,-10.8000,-8.6438,
6.496442,0.6538,0.5708,2.5322,1.2719,-3.7721,-1.0324,-18.9375,-10.8000,-8.6438,
6.503539,0.6538,0.5708,2.5322,1.2719,-3.7721,-1.0324,-21.4500,-12.1313,-4.3125,
6.516755,0.6538,0.5708,2.5322,1.2719,-3.7721,-1.0324,-21.4500,-12.1313,-4.3125,
6.538627,-4.4347,-0.5737,0.2211,1.2719,-3.7721,-1.0324,-21.4500,-12.1313,-4.3125,
6.556760,-4.4347,-0.5737,0.2211,1.0184,-3.6950,-0.5521,-21.4500,-12.1313,-4.3125,
6.566711,-4.4347,-0.5737,0.2211,1.0184,-3.6950,-0.5521,-29.5125,-5.0813,-33.9563,
6.578784,-4.4347,-0.5737,0.2211,1.0184,-3.6950,-0.5521,-29.5125,-5.0813,-33.9563,
6.599375,-3.5014,-0.4448,-2.8941,1.0184,-3.6950,-0.5521,-29.5125,-5.0813,-33.9563,
6.618538,-3.5014,-0.4448,-2.8941,0.8725,-2.4881,-0.3980,-29.5125,-5.0813,-33.9563,
6.624603,-3.5014,-0.4448,-2.8941,0.8725,-2.4881,-0.3980,-31.3875,-7.6688,-26.3438,
6.638675,-3.5014,-0.4448,-2.8941,0.8725,-2.4881,-0.3980,-31.3875,-7.6688,-26.3438,
6.680671,-3.5014,-0.4448,-2.8941,0.4961,-1.3534,0.2033,-31.3875,-7.6688,-26.3438,
6.682925,-2.7130,1.1391,-4.1740,0.4961,-1.3534,0.2033,-31.3875,-7.6688,-26.3438,
6.684875,-2.7130,1.1391,-4.1740,0.4961,-1.3534,0.2033,-32.7938,-10.5750,-18.1125,
6.699420,-2.7130,1.1391,-4.1740,0.4961,-1.3534,0.2033,-32.7938,-10.5750,-18.1125,
6.740104,-2.7130,1.1391,-4.1740,-0.2574,0.1358,0.8679,-32.7938,-10.5750,-18.1125,
6.742153,-3.3757,2.3342,-6.5196,-0.2574,0.1358,0.8679,-32.7938,-10.5750,-18.1125,
6.745114,-3.3757,2.3342,-6.5196,-0.2574,0.1358,0.8679,-33.9938,-13.5563,-10.0312,
6.759303,-3.3757,2.3342,-6.5196,-0.2574,0.1358,0.8679,-33.9938,-13.5563,-10.0312,
6.801066,-3.3757,2.3342,-6.5196,-0.3882,-1.4634,-0.5276,-33.9938,-13.5563,-10.0312,
6.803677,-0.0351,-2.1389,-0.8143,-0.3882,-1.4634,-0.5276,-33.9938,-13.5563,-10.0312,
6.804802,-0.0351,-2.1389,-0.8143,-0.3882,-1.4634,-0.5276,-34.4813,-16.8375,-2.1000,
6.821523,-0.0351,-2.1389,-0.8143,-0.3882,-1.4634,-0.5276,-34.4813,-16.8375,-2.1000,
6.864299,-0.0351,-2.1389,-0.8143,-0.2216,-0.9266,-0.0650,-34.4813,-16.8375,-2.1000,
6.867744,-0.0351,-2.1389,-0.8143,-0.2216,-0.9266,-0.0650,-33.8625,-19.7812,4.5000,
6.881733,-0.0351,-2.1389,-0.8143,-0.2216,-0.9266,-0.0650,-33.8625,-19.7812,4.5000,
6.883417,1.1506,0.1024,-0.4933,-0.2216,-0.9266,-0.0650,-33.8625,-19.7812,4.5000,
6.924054,1.1506,0.1024,-0.4933,-0.1491,-0.3977,0.1000,-33.8625,-19.7812,4.5000,
6.926841,1.1506,0.1024,-0.4933,-0.1491,-0.3977,0.1000,-32.7375,-22.0312,10.1250,
6.943931,1.1506,0.1024,-0.4933,-0.1491,-0.3977,0.1000,-32.7375,-22.0312,10.1250,
6.946729,1.3007,-0.4942,0.1833,-0.1491,-0.3977,0.1000,-32.7375,-22.0312,10.1250,
6.984550,1.3007,-0.4942,0.1833,0.0194,-0.2579,0.0166,-32.7375,-22.0312,10.1250,
6.987458,1.3007,-0.4942,0.1833,0.0194,-0.2579,0.0166,-31.3125,-23.0438,14.5500,
7.004776,1.3007,-0.4942,0.1833,0.0194,-0.2579,0.0166,-31.3125,-23.0438,14.5500,
7.006353,0.9047,-0.4132,-0.0651,0.0194,-0.2579,0.0166,-31.3125,-23.0438,14.5500,
7.047646,0.9047,-0.4132,-0.0651,0.0194,-0.2579,0.0166,-29.9250,-23.4750,17.4375,
7.050364,0.9047,-0.4132,-0.0651,0.1192,-0.1589,-0.0916,-29.9250,-23.4750,17.4375,
7.065967,0.9047,-0.4132,-0.0651,0.1192,-0.1589,-0.0916,-29.9250,-23.4750,17.4375,
7.067075,0.3896,-0.1486,-0.0472,0.1192,-0.1589,-0.0916,-29.9250,-23.4750,17.4375,
7.106437,0.3896,-0.1486,-0.0472,0.1241,-0.0939,-0.1687,-29.9250,-23.4750,17.4375,
7.108123,0.3896,-0.1486,-0.0472,0.1241,-0.0939,-0.1687,-28.9500,-23.5500,19.0500,
7.126023,0.3896,-0.1486,-0.0472,0.1241,-0.0939,-0.1687,-28.9500,-23.5500,19.0500,
7.147609,0.1482,0.0531,0.1592,0.1241,-0.0939,-0.1687,-28.9500,-23.5500,19.0500,
7.166782,0.1482,0.0531,0.1592,0.0744,-0.0304,-0.1630,-28.9500,-23.5500,19.0500,
7.168946,0.1482,0.0531,0.1592,0.0744,-0.0304,-0.1630,-28.3125,-23.6063,19.8188,
7.187491,0.1482,0.0531,0.1592,0.0744,-0.0304,-0.1630,-28.3125,-23.6063,19.8188,
7.207317,0.4986,0.0106,0.1524,0.0744,-0.0304,-0.1630,-28.3125,-23.6063,19.8188,
7.226788,0.4986,0.0106,0.1524,0.0173,-0.0811,-0.2454,-28.3125,-23.6063,19.8188,
7.229852,0.4986,0.0106,0.1524,0.0173,-0.0811,-0.2454,-27.4125,-23.9625,20.7563,
7.250397,0.4986,0.0106,0.1524,0.0173,-0.0811,-0.2454,-27.4125,-23.9625,20.7563,
7.268214,0.1354,0.0822,0.2332,0.0173,-0.0811,-0.2454,-27.4125,-23.9625,20.7563,
7.285501,0.1354,0.0822,0.2332,0.0173,-0.0811,-0.2454,-26.6813,-24.2250,21.1688,
7.287764,0.1354,0.0822,0.2332,0.0318,-0.2294,-0.4189,-26.6813,-24.2250,21.1688,
7.309929,0.1354,0.0822,0.2332,0.0318,-0.2294,-0.4189,-26.6813,-24.2250,21.1688,
7.348662,0.1354,0.0822,0.2332,0.0318,-0.2294,-0.4189,-25.9125,-24.3750,21.7500,
7.351699,0.1354,0.0822,0.2332,0.1646,-0.2039,-0.6452,-25.9125,-24.3750,21.7500,
7.353627,-0.1823,0.0157,0.1089,0.1646,-0.2039,-0.6452,-25.9125,-24.3750,21.7500,
7.369843,-0.1823,0.0157,0.1089,0.1646,-0.2039,-0.6452,-25.9125,-24.3750,21.7500,
7.405658,-0.1823,0.0157,0.1089,0.1646,-0.2039,-0.6452,-25.2563,-24.5063,22.1625,
7.409642,-0.1823,0.0157,0.1089,0.5420,0.0627,-0.8095,-25.2563,-24.5063,22.1625,
7.411370,-0.1764,-0.1597,-0.0177,0.5420,0.0627,-0.8095,-25.2563,-24.5063,22.1625,
7.430420,-0.1764,-0.1597,-0.0177,0.5420,0.0627,-0.8095,-25.2563,-24.5063,22.1625,
7.464880,-0.1764,-0.1597,-0.0177,0.5420,0.0627,-0.8095,-24.4875,-24.9938,22.7812,
7.473661,-0.1764,-0.1597,-0.0177,-0.0153,-0.2373,-0.7513,-24.4875,-24.9938,22.7812,
7.475582,-0.6196,-0.4000,0.3889,-0.0153,-0.2373,-0.7513,-24.4875,-24.9938,22.7812,
7.492721,-0.6196,-0.4000,0.3889,-0.0153,-0.2373,-0.7513,-24.4875,-24.9938,22.7812,
7.525113,-0.6196,-0.4000,0.3889,-0.0153,-0.2373,-0.7513,-23.3438,-25.5188,23.1938,
7.531557,-0.6196,-0.4000,0.3889,-0.9100,-1.6055,-0.4296,-23.3438,-25.5188,23.1938,
7.532753,-1.3305,0.3708,-0.2522,-0.9100,-1.6055,-0.4296,-23.3438,-25.5188,23.1938,
7.551233,-1.3305,0.3708,-0.2522,-0.9100,-1.6055,-0.4296,-23.3438,-25.5188,23.1938,
7.585491,-1.3305,0.3708,-0.2522,-0.9100,-1.6055,-0.4296,-21.6000,-26.0250,23.6250,
7.592488,-1.3305,0.3708,-0.2522,-1.7030,-3.9208,0.1696,-21.6000,-26.0250,23.6250,
7.613473,-1.3305,0.3708,-0.2522,-1.7030,-3.9208,0.1696,-21.6000,-26.0250,23.6250,
7.615433,-4.6538,-0.7496,0.5303,-1.7030,-3.9208,0.1696,-21.6000,-26.0250,23.6250,
7.646948,-4.6538,-0.7496,0.5303,-1.7030,-3.9208,0.1696,-18.8250,-26.7375,24.1688,
7.659698,-4.6538,-0.7496,0.5303,-1.6115,-3.5324,0.0987,-18.8250,-26.7375,24.1688,
7.673651,-4.6538,-0.7496,0.5303,-1.6115,-3.5324,0.0987,-18.8250,-26.7375,24.1688,
7.674979,-1.5715,-0.7837,2.0590,-1.6115,-3.5324,0.0987,-18.8250,-26.7375,24.1688,
7.707325,-1.5715,-0.7837,2.0590,-1.6115,-3.5324,0.0987,-20.1562,-23.8875,27.2063,
7.714210,-1.5715,-0.7837,2.0590,-0.8280,-4.0638,0.0521,-20.1562,-23.8875,27.2063,
7.734903,-1.5715,-0.7837,2.0590,-0.8280,-4.0638,0.0521,-20.1562,-23.8875,27.2063,
7.737083,0.3465,-1.0491,3.6620,-0.8280,-4.0638,0.0521,-20.1562,-23.8875,27.2063,
7.766453,0.3465,-1.0491,3.6620,-0.8280,-4.0638,0.0521,-15.3750,-23.6250,27.8063,
7.775488,0.3465,-1.0491,3.6620,0.5984,-2.9317,-0.2156,-15.3750,-23.6250,27.8063,
7.795934,0.3465,-1.0491,3.6620,0.5984,-2.9317,-0.2156,-15.3750,-23.6250,27.8063,
7.816595,0.5651,-0.0235,2.8699,0.5984,-2.9317,-0.2156,-15.3750,-23.6250,27.8063,
7.824445,0.5651,-0.0235,2.8699,0.5984,-2.9317,-0.2156,-9.9000,-22.6500,28.0500,
7.835646,0.5651,-0.0235,2.8699,2.0976,-0.8827,-0.0132,-9.9000,-22.6500,28.0500,
7.856208,0.5651,-0.0235,2.8699,2.0976,-0.8827,-0.0132,-9.9000,-22.6500,28.0500,
7.876498,0.6198,0.2474,0.2332,2.0976,-0.8827,-0.0132,-9.9000,-22.6500,28.0500,
7.885021,0.6198,0.2474,0.2332,2.0976,-0.8827,-0.0132,-4.1813,-20.2688,28.3313,
7.897850,0.6198,0.2474,0.2332,2.9297,-0.2284,0.4724,-4.1813,-20.2688,28.3313,
7.917605,0.6198,0.2474,0.2332,2.9297,-0.2284,0.4724,-4.1813,-20.2688,28.3313,
7.937968,-0.5508,-1.3769,-2.7200,2.9297,-0.2284,0.4724,-4.1813,-20.2688,28.3313,
7.946126,-0.5508,-1.3769,-2.7200,2.9297,-0.2284,0.4724,-0.1688,-16.6313,31.7813,
7.958187,-0.5508,-1.3769,-2.7200,3.0309,0.2756,0.5828,-0.1688,-16.6313,31.7813,
7.980250,-0.5508,-1.3769,-2.7200,3.0309,0.2756,0.5828,-0.1688,-16.6313,31.7813,
8.001534,1.4860,-2.7694,-5.6689,3.0309,0.2756,0.5828,-0.1688,-16.6313,31.7813,
8.004784,1.4860,-2.7694,-5.6689,3.0309,0.2756,0.5828,5.4938,-11.9062,31.6125,
8.019399,1.4860,-2.7694,-5.6689,2.0064,-0.2682,0.3723,5.4938,-11.9062,31.6125,
8.039224,1.4860,-2.7694,-5.6689,2.0064,-0.2682,0.3723,5.4938,-11.9062,31.6125,
8.065005,1.4860,-2.7694,-5.6689,2.0064,-0.2682,0.3723,10.6125,-6.7500,31.1438,
8.079380,1.4860,-2.7694,-5.6689,-0.4325,-0.2007,-0.3550,10.6125,-6.7500,31.1438,
8.080566,2.1046,-2.3603,-9.1741,-0.4325,-0.2007,-0.3550,10.6125,-6.7500,31.1438,
8.099048,2.1046,-2.3603,-9.1741,-0.4325,-0.2007,-0.3550,10.6125,-6.7500,31.1438,
8.123979,2.1046,-2.3603,-9.1741,-0.4325,-0.2007,-0.3550,14.6625,-1.3688,30.6563,
8.140938,2.1046,-2.3603,-9.1741,-0.8840,0.1710,-0.2621,14.6625,-1.3688,30.6563,
8.142411,2.9083,0.9109,-11.4183,-0.8840,0.1710,-0.2621,14.6625,-1.3688,30.6563,
8.160575,2.9083,0.9109,-11.4183,-0.8840,0.1710,-0.2621,14.6625,-1.3688,30.6563,
8.184317,2.9083,0.9109,-11.4183,-0.8840,0.1710,-0.2621,17.5125,3.6563,30.2438,
8.201931,2.9083,0.9109,-11.4183,-1.3637,0.0531,0.7923,17.5125,3.6563,30.2438,
8.204128,3.2202,-3.1958,4.2797,-1.3637,0.0531,0.7923,17.5125,3.6563,30.2438,
8.222127,3.2202,-3.1958,4.2797,-1.3637,0.0531,0.7923,17.5125,3.6563,30.2438,
8.247070,3.2202,-3.1958,4.2797,-1.3637,0.0531,0.7923,19.2375,7.8000,30.1500,
8.262356,3.2202,-3.1958,4.2797,-0.9571,0.1469,0.3727,19.2375,7.8000,30.1500,
8.283466,3.2202,-3.1958,4.2797,-0.9571,0.1469,0.3727,19.2375,7.8000,30.1500,
8.286229,-2.2459,-0.0427,-0.6059,-0.9571,0.1469,0.3727,19.2375,7.8000,30.1500,
8.305100,-2.2459,-0.0427,-0.6059,-0.9571,0.1469,0.3727,20.3250,10.5938,29.9813,
8.323683,-2.2459,-0.0427,-0.6059,-1.0115,-0.0988,0.1739,20.3250,10.5938,29.9813,
8.345153,-2.2459,-0.0427,-0.6059,-1.0115,-0.0988,0.1739,20.3250,10.5938,29.9813,
8.347910,-0.6859,0.4269,1.2435,-1.0115,-0.0988,0.1739,20.3250,10.5938,29.9813,
8.366265,-0.6859,0.4269,1.2435,-1.0115,-0.0988,0.1739,20.9625,11.7188,29.8688,
8.386504,-0.6859,0.4269,1.2435,-0.8155,0.2984,0.0284,20.9625,11.7188,29.8688,
8.405908,-0.6859,0.4269,1.2435,-0.8155,0.2984,0.0284,20.9625,11.7188,29.8688,
8.407514,0.8386,-0.5752,0.4513,-0.8155,0.2984,0.0284,20.9625,11.7188,29.8688,
8.425591,0.8386,-0.5752,0.4513,-0.8155,0.2984,0.0284,21.4125,11.3250,29.9063,
8.446986,0.8386,-0.5752,0.4513,-0.5092,0.2562,0.0162,21.4125,11.3250,29.9063,
8.466801,0.8386,-0.5752,0.4513,-0.5092,0.2562,0.0162,21.4125,11.3250,29.9063,
8.468901,-0.4850,-0.2309,0.7359,-0.5092,0.2562,0.0162,21.4125,11.3250,29.9063,
8.486234,-0.4850,-0.2309,0.7359,-0.5092,0.2562,0.0162,21.4500,9.9750,30.2625,
8.506734,-0.4850,-0.2309,0.7359,-0.4225,0.1648,0.0443,21.4500,9.9750,30.2625,
8.526883,-0.4850,-0.2309,0.7359,-0.4225,0.1648,0.0443,21.4500,9.9750,30.2625,
8.547906,-0.4850,-0.2309,0.7359,-0.4225,0.1648,0.0443,21.3000,8.2125,30.8625,
8.550147,-0.2156,0.0082,0.7163,-0.4225,0.1648,0.0443,21.3000,8.2125,30.8625,
8.567294,-0.2156,0.0082,0.7163,-0.4314,0.0694,0.0763,21.3000,8.2125,30.8625,
8.589550,-0.2156,0.0082,0.7163,-0.4314,0.0694,0.0763,21.3000,8.2125,30.8625,
8.606174,-0.2156,0.0082,0.7163,-0.4314,0.0694,0.0763,21.1875,6.2625,31.2375,
8.608650,-0.0858,-0.0468,0.7195,-0.4314,0.0694,0.0763,21.1875,6.2625,31.2375,
8.628896,-0.0858,-0.0468,0.7195,-0.3711,0.1454,0.0770,21.1875,6.2625,31.2375,
8.648113,-0.0858,-0.0468,0.7195,-0.3711,0.1454,0.0770,21.1875,6.2625,31.2375,
8.665650,-0.0858,-0.0468,0.7195,-0.3711,0.1454,0.0770,21.0563,4.4250,31.8000,
8.667800,-0.1174,-0.2071,0.7512,-0.3711,0.1454,0.0770,21.0563,4.4250,31.8000,
8.689792,-0.1174,-0.2071,0.7512,-0.5113,0.3545,0.0720,21.0563,4.4250,31.8000,
8.710238,-0.1174,-0.2071,0.7512,-0.5113,0.3545,0.0720,21.0563,4.4250,31.8000,
8.726494,-0.1174,-0.2071,0.7512,-0.5113,0.3545,0.0720,20.7563,2.6438,31.9688,
8.750010,-0.1174,-0.2071,0.7512,-0.9337,0.3764,-0.0668,20.7563,2.6438,31.9688,
8.753749,-0.1723,-0.0838,1.0125,-0.9337,0.3764,-0.0668,20.7563,2.6438,31.9688,
8.771163,-0.1723,-0.0838,1.0125,-0.9337,0.3764,-0.0668,20.7563,2.6438,31.9688,
8.785520,-0.1723,-0.0838,1.0125,-0.9337,0.3764,-0.0668,20.3063,1.0312,32.2688,
8.811765,-0.1723,-0.0838,1.0125,-1.2831,0.5117,-0.1585,20.3063,1.0312,32.2688,
8.814972,-0.5915,-0.0729,1.4720,-1.2831,0.5117,-0.1585,20.3063,1.0312,32.2688,
8.830855,-0.5915,-0.0729,1.4720,-1.2831,0.5117,-0.1585,20.3063,1.0312,32.2688,
8.845223,-0.5915,-0.0729,1.4720,-1.2831,0.5117,-0.1585,19.7063,-0.5250,32.4938,
8.874639,-0.5915,-0.0729,1.4720,-1.4815,0.9232,-0.2993,19.7063,-0.5250,32.4938,
8.877981,0.0234,-1.1753,1.4156,-1.4815,0.9232,-0.2993,19.7063,-0.5250,32.4938,
8.892449,0.0234,-1.1753,1.4156,-1.4815,0.9232,-0.2993,19.7063,-0.5250,32.4938,
8.905073,0.0234,-1.1753,1.4156,-1.4815,0.9232,-0.2993,18.8438,-2.3250,32.4563,
8.935311,0.0234,-1.1753,1.4156,-1.9782,0.9513,-0.5649,18.8438,-2.3250,32.4563,
8.939744,-0.9384,-3.4942,2.5028,-1.9782,0.9513,-0.5649,18.8438,-2.3250,32.4563,
8.954671,-0.9384,-3.4942,2.5028,-1.9782,0.9513,-0.5649,18.8438,-2.3250,32.4563,
8.967107,-0.9384,-3.4942,2.5028,-1.9782,0.9513,-0.5649,17.7750,-4.5938,32.4000,
8.996061,-0.9384,-3.4942,2.5028,-1.7950,0.2778,0.1011,17.7750,-4.5938,32.4000,
9.014223,-0.9384,-3.4942,2.5028,-1.7950,0.2778,0.1011,17.7750,-4.5938,32.4000,
9.016186,1.4454,-4.6292,4.3806,-1.7950,0.2778,0.1011,17.7750,-4.5938,32.4000,
9.024823,1.4454,-4.6292,4.3806,-1.7950,0.2778,0.1011,16.8188,-7.4063,32.1562,
9.054054,1.4454,-4.6292,4.3806,-0.2593,0.2814,-0.4293,16.8188,-7.4063,32.1562,
9.075302,-0.5750,-0.5694,4.4425,-0.2593,0.2814,-0.4293,16.8188,-7.4063,32.1562,
9.077349,-0.5750,-0.5694,4.4425,-0.2593,0.2814,-0.4293,16.8188,-7.4063,32.1562,
9.086445,-0.5750,-0.5694,4.4425,-0.2593,0.2814,-0.4293,16.1063,-9.6000,32.0250,
9.117872,-0.5750,-0.5694,4.4425,1.6894,0.5188,-0.6121,16.1063,-9.6000,32.0250,
9.138689,-0.5750,-0.5694,4.4425,1.6894,0.5188,-0.6121,16.1063,-9.6000,32.0250,
9.140295,-1.5453,0.6132,6.4619,1.6894,0.5188,-0.6121,16.1063,-9.6000,32.0250,
9.143581,-1.5453,0.6132,6.4619,1.6894,0.5188,-0.6121,15.8250,-10.9688,32.0250,
9.178659,-1.5453,0.6132,6.4619,2.8961,-0.8312,-0.5621,15.8250,-10.9688,32.0250,
9.198229,-1.5453,0.6132,6.4619,2.8961,-0.8312,-0.5621,15.8250,-10.9688,32.0250,
9.206698,-1.5453,0.6132,6.4619,2.8961,-0.8312,-0.5621,15.9375,-11.0625,32.0063,
9.216360,-2.5077,1.3607,2.1155,2.8961,-0.8312,-0.5621,15.9375,-11.0625,32.0063,
9.239055,-2.5077,1.3607,2.1155,3.5897,-1.6729,-0.2237,15.9375,-11.0625,32.0063,
9.259054,-2.5077,1.3607,2.1155,3.5897,-1.6729,-0.2237,15.9375,-11.0625,32.0063,
9.264857,-2.5077,1.3607,2.1155,3.5897,-1.6729,-0.2237,16.5938,-9.5063,31.6125,
9.280816,-3.4537,-0.4977,-2.1685,3.5897,-1.6729,-0.2237,16.5938,-9.5063,31.6125,
9.299719,-3.4537,-0.4977,-2.1685,3.9547,-0.5132,0.2378,16.5938,-9.5063,31.6125,
9.322882,-3.4537,-0.4977,-2.1685,3.9547,-0.5132,0.2378,16.5938,-9.5063,31.6125,
9.326564,-3.4537,-0.4977,-2.1685,3.9547,-0.5132,0.2378,17.6250,-6.7313,30.9188,
9.340694,-2.4416,-3.7012,-5.1191,3.9547,-0.5132,0.2378,17.6250,-6.7313,30.9188,
9.358695,-2.4416,-3.7012,-5.1191,3.4512,1.9662,0.6819,17.6250,-6.7313,30.9188,
9.379758,-2.4416,-3.7012,-5.1191,3.4512,1.9662,0.6819,17.6250,-6.7313,30.9188,
9.384254,-2.4416,-3.7012,-5.1191,3.4512,1.9662,0.6819,18.2063,-2.7938,30.2063,
9.399691,0.7738,-4.5471,-8.5160,3.4512,1.9662,0.6819,18.2063,-2.7938,30.2063,
9.419868,0.7738,-4.5471,-8.5160,1.2701,0.5089,0.4703,18.2063,-2.7938,30.2063,
9.440607,0.7738,-4.5471,-8.5160,1.2701,0.5089,0.4703,18.2063,-2.7938,30.2063,
9.445115,0.7738,-4.5471,-8.5160,1.2701,0.5089,0.4703,19.0312,1.9313,29.4000,
9.483467,1.7277,-1.0248,-10.9282,1.2701,0.5089,0.4703,19.0312,1.9313,29.4000,
9.487719,1.7277,-1.0248,-10.9282,-1.3366,-1.2526,0.3056,19.0312,1.9313,29.4000,
9.503278,1.7277,-1.0248,-10.9282,-1.3366,-1.2526,0.3056,19.0312,1.9313,29.4000,
9.504896,1.7277,-1.0248,-10.9282,-1.3366,-1.2526,0.3056,20.0438,6.7500,28.9125,
9.544564,2.0011,0.7101,-7.7185,-1.3366,-1.2526,0.3056,20.0438,6.7500,28.9125,
9.547429,2.0011,0.7101,-7.7185,-1.5077,-1.6300,-0.6735,20.0438,6.7500,28.9125,
9.562983,2.0011,0.7101,-7.7185,-1.5077,-1.6300,-0.6735,20.0438,6.7500,28.9125,
9.564103,2.0011,0.7101,-7.7185,-1.5077,-1.6300,-0.6735,21.0375,10.6875,28.3688,
9.604950,2.0011,0.7101,-7.7185,-1.6217,-0.5188,0.5683,21.0375,10.6875,28.3688,
9.608546,3.0153,-3.1339,1.4843,-1.6217,-0.5188,0.5683,21.0375,10.6875,28.3688,
9.624840,3.0153,-3.1339,1.4843,-1.6217,-0.5188,0.5683,21.0375,10.6875,28.3688,
9.627038,3.0153,-3.1339,1.4843,-1.6217,-0.5188,0.5683,21.8625,13.4625,27.6188,
9.665711,3.0153,-3.1339,1.4843,-1.2362,-0.3236,0.1835,21.8625,13.4625,27.6188,
9.669771,-0.6061,-0.5641,1.1018,-1.2362,-0.3236,0.1835,21.8625,13.4625,27.6188,
9.687493,-0.6061,-0.5641,1.1018,-1.2362,-0.3236,0.1835,21.8625,13.4625,27.6188,
9.694038,-0.6061,-0.5641,1.1018,-1.2362,-0.3236,0.1835,22.4062,14.8688,26.8500,
9.726030,-0.6061,-0.5641,1.1018,-1.1768,-0.1269,0.3329,22.4062,14.8688,26.8500,
9.746060,-0.6061,-0.5641,1.1018,-1.1768,-0.1269,0.3329,22.4062,14.8688,26.8500,
9.747931,-0.6061,-0.5641,1.1018,-1.1768,-0.1269,0.3329,22.5750,14.7375,26.3063,
9.749770,1.1841,-0.7777,1.3034,-1.1768,-0.1269,0.3329,22.5750,14.7375,26.3063,
9.789590,1.1841,-0.7777,1.3034,-0.8397,-0.1844,0.1501,22.5750,14.7375,26.3063,
9.809025,1.1841,-0.7777,1.3034,-0.8397,-0.1844,0.1501,22.5563,13.4250,25.9875,
9.813017,1.1841,-0.7777,1.3034,-0.8397,-0.1844,0.1501,22.5563,13.4250,25.9875,
9.815257,-0.3628,-0.1335,1.5307,-0.8397,-0.1844,0.1501,22.5563,13.4250,25.9875,
9.848457,-0.3628,-0.1335,1.5307,-0.4594,0.0943,0.1234,22.5563,13.4250,25.9875,
9.868708,-0.3628,-0.1335,1.5307,-0.4594,0.0943,0.1234,23.2313,11.1188,25.9313,
9.871300,-0.3628,-0.1335,1.5307,-0.4594,0.0943,0.1234,23.2313,11.1188,25.9313,
9.872848,0.6104,-0.6569,0.8192,-0.4594,0.0943,0.1234,23.2313,11.1188,25.9313,
9.908711,0.6104,-0.6569,0.8192,-0.3115,0.1039,0.1373,23.2313,11.1188,25.9313,
9.925154,0.6104,-0.6569,0.8192,-0.3115,0.1039,0.1373,23.9438,8.5688,26.0250,
9.928080,0.6104,-0.6569,0.8192,-0.3115,0.1039,0.1373,23.9438,8.5688,26.0250,
9.949770,0.1340,-0.2039,0.9226,-0.3115,0.1039,0.1373,23.9438,8.5688,26.0250,
9.967339,0.1340,-0.2039,0.9226,-0.2557,0.1827,0.1309,23.9438,8.5688,26.0250,
9.988747,0.1340,-0.2039,0.9226,-0.2557,0.1827,0.1309,24.4875,6.3000,26.0063,
9.991715,0.1340,-0.2039,0.9226,-0.2557,0.1827,0.1309,24.4875,6.3000,26.0063,
10.008629,0.0607,-0.2292,0.8508,-0.2557,0.1827,0.1309,24.4875,6.3000,26.0063,
10.031118,0.0607,-0.2292,0.8508,-0.2546,0.2413,0.1264,24.4875,6.3000,26.0063,
10.046831,0.0607,-0.2292,0.8508,-0.2546,0.2413,0.1264,24.6563,4.3688,26.0250,
10.048864,0.0607,-0.2292,0.8508,-0.2546,0.2413,0.1264,24.6563,4.3688,26.0250,
10.070588,0.0439,-0.1479,0.8004,-0.2546,0.2413,0.1264,24.6563,4.3688,26.0250,
10.090801,0.0439,-0.1479,0.8004,-0.4924,0.3159,0.0578,24.6563,4.3688,26.0250,
10.105499,0.0439,-0.1479,0.8004,-0.4924,0.3159,0.0578,24.4875,2.8500,26.0250,
10.109855,0.0439,-0.1479,0.8004,-0.4924,0.3159,0.0578,24.4875,2.8500,26.0250,
10.132520,-0.0536,-0.1881,1.1063,-0.4924,0.3159,0.0578,24.4875,2.8500,26.0250,
10.152261,-0.0536,-0.1881,1.1063,-1.0055,0.4222,-0.1393,24.4875,2.8500,26.0250,
10.167829,-0.0536,-0.1881,1.1063,-1.0055,0.4222,-0.1393,18.2438,-2.1000,34.5938,
10.174616,-0.0536,-0.1881,1.1063,-1.0055,0.4222,-0.1393,18.2438,-2.1000,34.5938,
10.214218,-0.0536,-0.1881,1.1063,-1.3147,0.8654,-0.2806,18.2438,-2.1000,34.5938,
10.217832,-0.4071,-0.4580,1.8245,-1.3147,0.8654,-0.2806,18.2438,-2.1000,34.5938,
10.226223,-0.4071,-0.4580,1.8245,-1.3147,0.8654,-0.2806,17.7375,-3.5250,34.7438,
10.232137,-0.4071,-0.4580,1.8245,-1.3147,0.8654,-0.2806,17.7375,-3.5250,34.7438,
10.276441,-0.4071,-0.4580,1.8245,-1.8478,0.7187,-0.6348,17.7375,-3.5250,34.7438,
10.279146,-0.5906,-2.6719,2.2153,-1.8478,0.7187,-0.6348,17.7375,-3.5250,34.7438,
10.287464,-0.5906,-2.6719,2.2153,-1.8478,0.7187,-0.6348,17.1938,-5.0625,35.1938,
10.292173,-0.5906,-2.6719,2.2153,-1.8478,0.7187,-0.6348,17.1938,-5.0625,35.1938,
10.336231,-0.5906,-2.6719,2.2153,-1.9931,0.8476,-0.1570,17.1938,-5.0625,35.1938,
10.340871,0.8606,-3.9371,2.8675,-1.9931,0.8476,-0.1570,17.1938,-5.0625,35.1938,
10.351594,0.8606,-3.9371,2.8675,-1.9931,0.8476,-0.1570,16.2563,-6.9750,35.3625,
10.357244,0.8606,-3.9371,2.8675,-1.9931,0.8476,-0.1570,16.2563,-6.9750,35.3625,
10.395542,0.8606,-3.9371,2.8675,-1.3413,-0.0839,0.5183,16.2563,-6.9750,35.3625,
10.407191,0.8606,-3.9371,2.8675,-1.3413,-0.0839,0.5183,15.2438,-9.2812,35.4188,
10.415082,0.8606,-3.9371,2.8675,-1.3413,-0.0839,0.5183,15.2438,-9.2812,35.4188,
10.416125,-0.5164,-3.3209,5.9102,-1.3413,-0.0839,0.5183,15.2438,-9.2812,35.4188,
10.457926,-0.5164,-3.3209,5.9102,0.6954,0.3155,-0.1495,15.2438,-9.2812,35.4188,
10.466451,-0.5164,-3.3209,5.9102,0.6954,0.3155,-0.1495,14.1750,-11.4375,35.5875,
10.475686,-0.5164,-3.3209,5.9102,0.6954,0.3155,-0.1495,14.1750,-11.4375,35.5875,
10.476911,-2.1850,0.0059,5.6455,0.6954,0.3155,-0.1495,14.1750,-11.4375,35.5875,
10.518237,-2.1850,0.0059,5.6455,2.4115,0.3645,0.0252,14.1750,-11.4375,35.5875,
10.525949,-2.1850,0.0059,5.6455,2.4115,0.3645,0.0252,13.1625,-12.9375,36.1500,
10.536341,-2.1850,0.0059,5.6455,2.4115,0.3645,0.0252,13.1625,-12.9375,36.1500,
10.537849,-1.0761,2.1216,4.3724,2.4115,0.3645,0.0252,13.1625,-12.9375,36.1500,
10.579361,-1.0761,2.1216,4.3724,3.6159,0.0634,0.3312,13.1625,-12.9375,36.1500,
10.584672,-1.0761,2.1216,4.3724,3.6159,0.0634,0.3312,12.0375,-13.3875,37.0875,
10.598322,-0.7644,0.7304,0.2783,3.6159,0.0634,0.3312,12.0375,-13.3875,37.0875,
10.599703,-0.7644,0.7304,0.2783,3.6159,0.0634,0.3312,12.0375,-13.3875,37.0875,
10.642879,-0.7644,0.7304,0.2783,4.3114,0.8590,0.8982,12.0375,-13.3875,37.0875,
10.646978,-0.7644,0.7304,0.2783,4.3114,0.8590,0.8982,20.0625,-10.0875,2.9813,
10.659510,-0.7644,0.7304,0.2783,4.3114,0.8590,0.8982,20.0625,-10.0875,2.9813,
10.678839,0.2571,-2.6767,-3.6594,4.3114,0.8590,0.8982,20.0625,-10.0875,2.9813,
10.701955,0.2571,-2.6767,-3.6594,4.3408,2.3396,0.9843,20.0625,-10.0875,2.9813,
10.708931,0.2571,-2.6767,-3.6594,4.3408,2.3396,0.9843,18.6000,-6.8438,3.9188,
10.718831,0.2571,-2.6767,-3.6594,4.3408,2.3396,0.9843,18.6000,-6.8438,3.9188,
10.738616,2.8164,-6.1709,-6.1274,4.3408,2.3396,0.9843,18.6000,-6.8438,3.9188,
10.760897,2.8164,-6.1709,-6.1274,2.7618,2.2221,0.5924,18.6000,-6.8438,3.9188,
10.764387,2.8164,-6.1709,-6.1274,2.7618,2.2221,0.5924,16.5938,-2.1000,4.0875,
10.779126,2.8164,-6.1709,-6.1274,2.7618,2.2221,0.5924,16.5938,-2.1000,4.0875,
10.799648,4.9072,-4.1445,-9.2254,2.7618,2.2221,0.5924,16.5938,-2.1000,4.0875,
10.820539,4.9072,-4.1445,-9.2254,-0.7048,0.1940,-0.3788,16.5938,-2.1000,4.0875,
10.823925,4.9072,-4.1445,-9.2254,-0.7048,0.1940,-0.3788,14.5500,3.6375,4.2750,
10.840509,4.9072,-4.1445,-9.2254,-0.7048,0.1940,-0.3788,14.5500,3.6375,4.2750,
10.885430,4.9072,-4.1445,-9.2254,-1.1655,-0.6157,-0.2876,14.5500,3.6375,4.2750,
10.888525,4.3071,1.1978,-10.9920,-1.1655,-0.6157,-0.2876,14.5500,3.6375,4.2750,
10.890579,4.3071,1.1978,-10.9920,-1.1655,-0.6157,-0.2876,12.6188,9.4125,4.8563,
10.901823,4.3071,1.1978,-10.9920,-1.1655,-0.6157,-0.2876,12.6188,9.4125,4.8563,
10.945235,4.3071,1.1978,-10.9920,-1.4868,-0.0095,0.5920,12.6188,9.4125,4.8563,
10.948009,2.9594,-4.1866,6.5290,-1.4868,-0.0095,0.5920,12.6188,9.4125,4.8563,
10.949192,2.9594,-4.1866,6.5290,-1.4868,-0.0095,0.5920,1.3313,13.0313,40.9688,
10.963705,2.9594,-4.1866,6.5290,-1.4868,-0.0095,0.5920,1.3313,13.0313,40.9688,
11.006443,-1.6466,0.3782,-2.7716,-1.4868,-0.0095,0.5920,1.3313,13.0313,40.9688,
11.008329,-1.6466,0.3782,-2.7716,-1.4868,-0.0095,0.5920,-0.1125,17.7563,42.0375,
11.009490,-1.6466,0.3782,-2.7716,-1.1766,-0.0289,0.1820,-0.1125,17.7563,42.0375,
11.024445,-1.6466,0.3782,-2.7716,-1.1766,-0.0289,0.1820,-0.1125,17.7563,42.0375,
11.066912,-1.6466,0.3782,-2.7716,-0.9976,-0.2752,0.0407,-0.1125,17.7563,42.0375,
11.071058,0.2029,-0.2805,0.5606,-0.9976,-0.2752,0.0407,-0.1125,17.7563,42.0375,
11.073615,0.2029,-0.2805,0.5606,-0.9976,-0.2752,0.0407,-1.5938,20.9813,42.6000,
11.084495,0.2029,-0.2805,0.5606,-0.9976,-0.2752,0.0407,-1.5938,20.9813,42.6000,
11.125875,0.2029,-0.2805,0.5606,-0.9976,-0.2752,0.0407,-2.8875,22.4250,42.7875,
11.128707,0.2029,-0.2805,0.5606,-0.7364,0.1514,0.0252,-2.8875,22.4250,42.7875,
11.146602,0.2029,-0.2805,0.5606,-0.7364,0.1514,0.0252,-2.8875,22.4250,42.7875,
11.149461,-0.1047,-0.0718,1.3562,-0.7364,0.1514,0.0252,-2.8875,22.4250,42.7875,
11.188074,-0.1047,-0.0718,1.3562,-0.7364,0.1514,0.0252,-3.9000,22.0312,43.1813,
11.190665,-0.1047,-0.0718,1.3562,-0.4346,0.1514,-0.0437,-3.9000,22.0312,43.1813,
11.205849,-0.1047,-0.0718,1.3562,-0.4346,0.1514,-0.0437,-3.9000,22.0312,43.1813,
11.207742,-0.6773,-0.2110,1.2441,-0.4346,0.1514,-0.0437,-3.9000,22.0312,43.1813,
11.246543,-0.6773,-0.2110,1.2441,-0.4346,0.1514,-0.0437,-4.2563,20.3438,44.2313,
11.248427,-0.6773,-0.2110,1.2441,-0.2989,0.2718,-0.0047,-4.2563,20.3438,44.2313,
11.269567,-0.3779,-0.1326,0.9847,-0.2989,0.2718,-0.0047,-4.2563,20.3438,44.2313,
11.271412,-0.3779,-0.1326,0.9847,-0.2989,0.2718,-0.0047,-4.2563,20.3438,44.2313,
11.308102,-0.3779,-0.1326,0.9847,-0.2989,0.2718,-0.0047,-4.4250,18.1688,45.4500,
11.311818,-0.3779,-0.1326,0.9847,-0.3147,0.2451,-0.0021,-4.4250,18.1688,45.4500,
11.328283,-0.3779,-0.1326,0.9847,-0.3147,0.2451,-0.0021,-4.4250,18.1688,45.4500,
11.349408,-0.6534,0.2489,1.1307,-0.3147,0.2451,-0.0021,-4.4250,18.1688,45.4500,
11.366056,-0.6534,0.2489,1.1307,-0.3147,0.2451,-0.0021,-4.6125,16.2938,46.5563,
11.369051,-0.6534,0.2489,1.1307,-0.2944,0.1554,-0.0121,-4.6125,16.2938,46.5563,
11.390183,-0.6534,0.2489,1.1307,-0.2944,0.1554,-0.0121,-4.6125,16.2938,46.5563,
11.410571,-0.6397,0.2160,0.9336,-0.2944,0.1554,-0.0121,-4.6125,16.2938,46.5563,
11.425879,-0.6397,0.2160,0.9336,-0.2944,0.1554,-0.0121,-4.8375,14.6813,47.2125,
11.428433,-0.6397,0.2160,0.9336,-0.2422,0.2686,-0.0083,-4.8375,14.6813,47.2125,
11.449017,-0.6397,0.2160,0.9336,-0.2422,0.2686,-0.0083,-4.8375,14.6813,47.2125,
11.469067,-0.2688,-0.0859,0.6550,-0.2422,0.2686,-0.0083,-4.8375,14.6813,47.2125,
11.487675,-0.2688,-0.0859,0.6550,-0.2422,0.2686,-0.0083,-5.2688,13.3313,47.7000,
11.490531,-0.2688,-0.0859,0.6550,-0.2401,0.3911,-0.0362,-5.2688,13.3313,47.7000,
11.512593,-0.2688,-0.0859,0.6550,-0.2401,0.3911,-0.0362,-5.2688,13.3313,47.7000,
11.532533,-0.5012,0.0443,0.7418,-0.2401,0.3911,-0.0362,-5.2688,13.3313,47.7000,
11.546855,-0.5012,0.0443,0.7418,-0.2401,0.3911,-0.0362,-5.8500,12.4125,47.8500,
11.554536,-0.5012,0.0443,0.7418,-0.3597,0.5899,-0.1591,-5.8500,12.4125,47.8500,
11.571095,-0.5012,0.0443,0.7418,-0.3597,0.5899,-0.1591,-5.8500,12.4125,47.8500,
11.604522,-0.5012,0.0443,0.7418,-0.3597,0.5899,-0.1591,-6.8063,11.4375,47.9625,
11.611144,-0.5012,0.0443,0.7418,-0.3967,0.9019,-0.2276,-6.8063,11.4375,47.9625,
11.612614,-0.7877,0.0120,1.0041,-0.3967,0.9019,-0.2276,-6.8063,11.4375,47.9625,
11.632320,-0.7877,0.0120,1.0041,-0.3967,0.9019,-0.2276,-6.8063,11.4375,47.9625,
11.667028,-0.7877,0.0120,1.0041,-0.3967,0.9019,-0.2276,-8.1375,10.5375,48.0188,
11.674546,-0.7877,0.0120,1.0041,-0.2983,1.4646,-0.3040,-8.1375,10.5375,48.0188,
11.677096,-0.7535,-0.1718,0.9858,-0.2983,1.4646,-0.3040,-8.1375,10.5375,48.0188,
11.692799,-0.7535,-0.1718,0.9858,-0.2983,1.4646,-0.3040,-8.1375,10.5375,48.0188,
11.725965,-0.7535,-0.1718,0.9858,-0.2983,1.4646,-0.3040,-9.8250,9.7125,48.1125,
11.733492,-0.7535,-0.1718,0.9858,0.0073,2.5189,0.0222,-9.8250,9.7125,48.1125,
11.734212,-1.3828,-0.8132,1.1682,0.0073,2.5189,0.0222,-9.8250,9.7125,48.1125,
11.753961,-1.3828,-0.8132,1.1682,0.0073,2.5189,0.0222,-9.8250,9.7125,48.1125,
11.787552,-1.3828,-0.8132,1.1682,0.0073,2.5189,0.0222,-12.3563,9.1313,47.6438,
11.796371,-1.3828,-0.8132,1.1682,0.6013,3.5559,0.3634,-12.3563,9.1313,47.6438,
11.815707,-1.3828,-0.8132,1.1682,0.6013,3.5559,0.3634,-12.3563,9.1313,47.6438,
11.819019,-1.3644,-0.1265,0.9680,0.6013,3.5559,0.3634,-12.3563,9.1313,47.6438,
11.846577,-1.3644,-0.1265,0.9680,0.6013,3.5559,0.3634,-15.7875,9.0938,46.2938,
11.858444,-1.3644,-0.1265,0.9680,0.9563,4.3489,0.7497,-15.7875,9.0938,46.2938,
11.877391,-1.3644,-0.1265,0.9680,0.9563,4.3489,0.7497,-15.7875,9.0938,46.2938,
11.880254,-1.4284,-0.2354,0.4460,0.9563,4.3489,0.7497,-15.7875,9.0938,46.2938,
11.907179,-1.4284,-0.2354,0.4460,0.9563,4.3489,0.7497,-16.5375,9.6562,42.1875,
11.919878,-1.4284,-0.2354,0.4460,1.4512,4.8367,0.9904,-16.5375,9.6562,42.1875,
11.936947,-1.4284,-0.2354,0.4460,1.4512,4.8367,0.9904,-16.5375,9.6562,42.1875,
11.939068,-0.3198,0.6482,0.4083,1.4512,4.8367,0.9904,-16.5375,9.6562,42.1875,
11.966854,-0.3198,0.6482,0.4083,1.4512,4.8367,0.9904,-14.3625,9.2063,20.7750,
11.978594,-0.3198,0.6482,0.4083,1.8068,4.5886,1.0081,-14.3625,9.2063,20.7750,
11.998164,-0.3198,0.6482,0.4083,1.8068,4.5886,1.0081,-14.3625,9.2063,20.7750,
11.999981,1.4017,0.6996,0.8243,1.8068,4.5886,1.0081,-14.3625,9.2063,20.7750,
12.026575,1.4017,0.6996,0.8243,1.8068,4.5886,1.0081,-18.8625,10.5375,14.3625,
12.039006,1.4017,0.6996,0.8243,1.7544,3.6379,0.7735,-18.8625,10.5375,14.3625,
12.059645,1.4017,0.6996,0.8243,1.7544,3.6379,0.7735,-18.8625,10.5375,14.3625,
12.080297,2.5694,-0.1394,-0.2095,1.7544,3.6379,0.7735,-18.8625,10.5375,14.3625,
12.085624,2.5694,-0.1394,-0.2095,1.7544,3.6379,0.7735,-22.9313,12.1500,6.8625,
12.098630,2.5694,-0.1394,-0.2095,1.4682,2.4288,0.3497,-22.9313,12.1500,6.8625,
12.120890,2.5694,-0.1394,-0.2095,1.4682,2.4288,0.3497,-22.9313,12.1500,6.8625,
12.139008,2.4471,-0.6290,-1.4379,1.4682,2.4288,0.3497,-22.9313,12.1500,6.8625,
12.143513,2.4471,-0.6290,-1.4379,1.4682,2.4288,0.3497,-33.3563,15.3563,15.6000,
12.159705,2.4471,-0.6290,-1.4379,0.9585,2.2015,0.0904,-33.3563,15.3563,15.6000,
12.179821,2.4471,-0.6290,-1.4379,0.9585,2.2015,0.0904,-33.3563,15.3563,15.6000,
12.200465,1.5959,-0.1367,-2.3559,0.9585,2.2015,0.0904,-33.3563,15.3563,15.6000,
12.204261,1.5959,-0.1367,-2.3559,0.9585,2.2015,0.0904,-35.9062,17.1750,6.4688,
12.220126,1.5959,-0.1367,-2.3559,0.2949,2.0067,-0.1708,-35.9062,17.1750,6.4688,
12.241648,1.5959,-0.1367,-2.3559,0.2949,2.0067,-0.1708,-35.9062,17.1750,6.4688,
12.264729,1.5959,-0.1367,-2.3559,0.2949,2.0067,-0.1708,-33.3750,17.9813,-6.1875,
12.284177,0.0188,0.3056,-2.1127,0.2949,2.0067,-0.1708,-33.3750,17.9813,-6.1875,
12.287330,0.0188,0.3056,-2.1127,-0.2670,2.1731,-0.1754,-33.3750,17.9813,-6.1875,
12.301770,0.0188,0.3056,-2.1127,-0.2670,2.1731,-0.1754,-33.3750,17.9813,-6.1875,
12.326664,0.0188,0.3056,-2.1127,-0.2670,2.1731,-0.1754,-33.0938,19.3125,-14.9250,
12.342440,0.0188,0.3056,-2.1127,-0.5194,2.1145,-0.0298,-33.0938,19.3125,-14.9250,
12.344461,-1.4819,0.2660,-1.2889,-0.5194,2.1145,-0.0298,-33.0938,19.3125,-14.9250,
12.362771,-1.4819,0.2660,-1.2889,-0.5194,2.1145,-0.0298,-33.0938,19.3125,-14.9250,
12.387011,-1.4819,0.2660,-1.2889,-0.5194,2.1145,-0.0298,-31.5188,20.5125,-22.3313,
12.405751,-1.4819,0.2660,-1.2889,-0.4108,0.6125,0.1228,-31.5188,20.5125,-22.3313,
12.408244,-2.1199,0.0895,0.1561,-0.4108,0.6125,0.1228,-31.5188,20.5125,-22.3313,
12.425739,-2.1199,0.0895,0.1561,-0.4108,0.6125,0.1228,-31.5188,20.5125,-22.3313,
12.444881,-2.1199,0.0895,0.1561,-0.4108,0.6125,0.1228,-29.4563,21.2250,-28.1813,
12.464255,-2.1199,0.0895,0.1561,0.4748,-0.5906,0.0318,-29.4563,21.2250,-28.1813,
12.467890,-2.1648,0.4955,2.5385,0.4748,-0.5906,0.0318,-29.4563,21.2250,-28.1813,
12.485768,-2.1648,0.4955,2.5385,0.4748,-0.5906,0.0318,-29.4563,21.2250,-28.1813,
12.506012,-2.1648,0.4955,2.5385,0.4748,-0.5906,0.0318,-27.4688,21.5813,-31.8938,
12.526478,-2.1648,0.4955,2.5385,0.2151,-0.3155,0.1434,-27.4688,21.5813,-31.8938,
12.548350,-2.1648,0.4955,2.5385,0.2151,-0.3155,0.1434,-27.4688,21.5813,-31.8938,
12.551887,-1.0995,-0.4842,2.7764,0.2151,-0.3155,0.1434,-27.4688,21.5813,-31.8938,
12.564564,-1.0995,-0.4842,2.7764,0.2151,-0.3155,0.1434,-25.6125,21.8625,-34.3875,
12.587929,-1.0995,-0.4842,2.7764,0.0578,-0.2249,0.2272,-25.6125,21.8625,-34.3875,
12.608258,-1.0995,-0.4842,2.7764,0.0578,-0.2249,0.2272,-25.6125,21.8625,-34.3875,
12.610605,0.9221,-0.7387,-0.0096,0.0578,-0.2249,0.2272,-25.6125,21.8625,-34.3875,
12.624490,0.9221,-0.7387,-0.0096,0.0578,-0.2249,0.2272,-23.9625,22.2375,-35.9625,
12.647883,0.9221,-0.7387,-0.0096,-0.0036,-0.1830,0.2747,-23.9625,22.2375,-35.9625,
12.669057,0.9221,-0.7387,-0.0096,-0.0036,-0.1830,0.2747,-23.9625,22.2375,-35.9625,
12.670613,-0.4011,0.0062,-0.2048,-0.0036,-0.1830,0.2747,-23.9625,22.2375,-35.9625,
12.684988,-0.4011,0.0062,-0.2048,-0.0036,-0.1830,0.2747,-22.9688,22.5750,-36.8250,
12.708960,-0.4011,0.0062,-0.2048,-0.1176,-0.2824,0.3120,-22.9688,22.5750,-36.8250,
12.731978,-0.4011,0.0062,-0.2048,-0.1176,-0.2824,0.3120,-22.9688,22.5750,-36.8250,
12.747753,-0.4011,0.0062,-0.2048,-0.1176,-0.2824,0.3120,-22.1813,23.2688,-37.2375,
12.751693,0.0699,0.1620,-0.1502,-0.1176,-0.2824,0.3120,-22.1813,23.2688,-37.2375,
12.770057,0.0699,0.1620,-0.1502,-0.3153,-0.0463,0.2385,-22.1813,23.2688,-37.2375,
12.790978,0.0699,0.1620,-0.1502,-0.3153,-0.0463,0.2385,-22.1813,23.2688,-37.2375,
12.808503,0.0699,0.1620,-0.1502,-0.3153,-0.0463,0.2385,-21.9563,23.8500,-37.0875,
12.810534,0.1752,0.0255,-0.0345,-0.3153,-0.0463,0.2385,-21.9563,23.8500,-37.0875,
12.831672,0.1752,0.0255,-0.0345,-0.3160,0.0531,0.1206,-21.9563,23.8500,-37.0875,
12.852013,0.1752,0.0255,-0.0345,-0.3160,0.0531,0.1206,-21.9563,23.8500,-37.0875,
12.866406,0.1752,0.0255,-0.0345,-0.3160,0.0531,0.1206,-21.9750,24.2813,-36.7875,
12.871096,-0.2781,0.1166,-0.1614,-0.3160,0.0531,0.1206,-21.9750,24.2813,-36.7875,
12.891433,-0.2781,0.1166,-0.1614,-0.1566,0.3623,0.2133,-21.9750,24.2813,-36.7875,
12.912619,-0.2781,0.1166,-0.1614,-0.1566,0.3623,0.2133,-21.9750,24.2813,-36.7875,
12.926326,-0.2781,0.1166,-0.1614,-0.1566,0.3623,0.2133,-21.9375,24.7688,-36.6562,
12.932888,0.3961,-0.2800,-0.2722,-0.1566,0.3623,0.2133,-21.9375,24.7688,-36.6562,
12.951456,0.3961,-0.2800,-0.2722,-0.0824,0.3498,0.2151,-21.9375,24.7688,-36.6562,
12.972767,0.3961,-0.2800,-0.2722,-0.0824,0.3498,0.2151,-21.9375,24.7688,-36.6562,
12.986024,0.3961,-0.2800,-0.2722,-0.0824,0.3498,0.2151,-21.6000,25.3875,-36.4500,
13.014823,0.3961,-0.2800,-0.2722,-0.0100,0.4163,0.1997,-21.6000,25.3875,-36.4500,
13.018347,0.2045,-0.1600,-0.1634,-0.0100,0.4163,0.1997,-21.6000,25.3875,-36.4500,
13.034042,0.2045,-0.1600,-0.1634,-0.0100,0.4163,0.1997,-21.6000,25.3875,-36.4500,
13.045768,0.2045,-0.1600,-0.1634,-0.0100,0.4163,0.1997,-21.2812,26.1188,-36.3375,
13.075742,0.2045,-0.1600,-0.1634,-0.0121,0.3165,0.1487,-21.2812,26.1188,-36.3375,
13.079244,-0.2455,-0.0016,0.0851,-0.0121,0.3165,0.1487,-21.2812,26.1188,-36.3375,
13.093447,-0.2455,-0.0016,0.0851,-0.0121,0.3165,0.1487,-21.2812,26.1188,-36.3375,
13.104696,-0.2455,-0.0016,0.0851,-0.0121,0.3165,0.1487,-20.7938,26.7375,-36.3375,
13.136256,-0.2455,-0.0016,0.0851,-0.2816,0.3637,0.1136,-20.7938,26.7375,-36.3375,
13.140375,-0.1636,0.1554,0.1461,-0.2816,0.3637,0.1136,-20.7938,26.7375,-36.3375,
13.155785,-0.1636,0.1554,0.1461,-0.2816,0.3637,0.1136,-20.7938,26.7375,-36.3375,
13.165845,-0.1636,0.1554,0.1461,-0.2816,0.3637,0.1136,-20.0438,27.5250,-36.2625,
13.197889,-0.1636,0.1554,0.1461,-0.4900,0.4542,0.1021,-20.0438,27.5250,-36.2625,
13.216671,-0.1636,0.1554,0.1461,-0.4900,0.4542,0.1021,-20.0438,27.5250,-36.2625,
13.218554,-0.3997,0.2953,0.5873,-0.4900,0.4542,0.1021,-20.0438,27.5250,-36.2625,
13.224757,-0.3997,0.2953,0.5873,-0.4900,0.4542,0.1021,-19.1438,28.1250,-36.2812,
13.258194,-0.3997,0.2953,0.5873,-0.6085,0.6055,0.0308,-19.1438,28.1250,-36.2812,
13.281705,-0.3157,0.0208,0.3718,-0.6085,0.6055,0.0308,-19.1438,28.1250,-36.2812,
13.283687,-0.3157,0.0208,0.3718,-0.6085,0.6055,0.0308,-19.1438,28.1250,-36.2812,
13.284656,-0.3157,0.0208,0.3718,-0.6085,0.6055,0.0308,-18.1688,28.8750,-36.4688,
13.319305,-0.3157,0.0208,0.3718,-0.7658,0.9822,-0.0668,-18.1688,28.8750,-36.4688,
13.337529,-0.3157,0.0208,0.3718,-0.7658,0.9822,-0.0668,-18.1688,28.8750,-36.4688,
13.339401,-0.2870,-0.3716,0.5953,-0.7658,0.9822,-0.0668,-18.1688,28.8750,-36.4688,
13.344210,-0.2870,-0.3716,0.5953,-0.7658,0.9822,-0.0668,-16.8188,29.7000,-36.3375,
13.380434,-0.2870,-0.3716,0.5953,-1.1461,1.1635,-0.0867,-16.8188,29.7000,-36.3375,
13.399018,-0.2870,-0.3716,0.5953,-1.1461,1.1635,-0.0867,-16.8188,29.7000,-36.3375,
13.401145,-0.6311,-1.9958,1.2216,-1.1461,1.1635,-0.0867,-16.8188,29.7000,-36.3375,
13.406715,-0.6311,-1.9958,1.2216,-1.1461,1.1635,-0.0867,-15.4500,30.6188,-36.1313,
13.440737,-0.6311,-1.9958,1.2216,-1.7300,1.2243,0.0269,-15.4500,30.6188,-36.1313,
13.461827,-0.6311,-1.9958,1.2216,-1.7300,1.2243,0.0269,-15.4500,30.6188,-36.1313,
13.466623,-0.6311,-1.9958,1.2216,-1.7300,1.2243,0.0269,-14.1375,31.7625,-35.4375,
13.480393,0.4339,-3.0138,1.8826,-1.7300,1.2243,0.0269,-14.1375,31.7625,-35.4375,
13.500034,0.4339,-3.0138,1.8826,-1.4084,0.8689,0.3798,-14.1375,31.7625,-35.4375,
13.522898,0.4339,-3.0138,1.8826,-1.4084,0.8689,0.3798,-14.1375,31.7625,-35.4375,
13.526578,0.4339,-3.0138,1.8826,-1.4084,0.8689,0.3798,-12.6750,33.0375,-34.4250,
13.539815,1.0039,-2.7088,4.0075,-1.4084,0.8689,0.3798,-12.6750,33.0375,-34.4250,
13.562189,1.0039,-2.7088,4.0075,-0.0174,0.6523,-0.0032,-12.6750,33.0375,-34.4250,
13.582992,1.0039,-2.7088,4.0075,-0.0174,0.6523,-0.0032,-12.6750,33.0375,-34.4250,
13.584985,1.0039,-2.7088,4.0075,-0.0174,0.6523,-0.0032,-11.2875,34.1625,-33.5438,
13.603231,0.0933,0.9192,5.1162,-0.0174,0.6523,-0.0032,-11.2875,34.1625,-33.5438,
13.623293,0.0933,0.9192,5.1162,1.7955,0.0740,-0.4374,-11.2875,34.1625,-33.5438,
13.642485,0.0933,0.9192,5.1162,1.7955,0.0740,-0.4374,-11.2875,34.1625,-33.5438,
13.644466,0.0933,0.9192,5.1162,1.7955,0.0740,-0.4374,-10.0688,34.5750,-33.2812,
13.685653,0.0933,0.9192,5.1162,2.8132,-0.6236,-0.4328,-10.0688,34.5750,-33.2812,
13.689839,-0.7072,1.3729,4.0607,2.8132,-0.6236,-0.4328,-10.0688,34.5750,-33.2812,
13.704173,-0.7072,1.3729,4.0607,2.8132,-0.6236,-0.4328,-10.0688,34.5750,-33.2812,
13.706525,-0.7072,1.3729,4.0607,2.8132,-0.6236,-0.4328,-11.9813,33.6938,-32.8688,
13.746643,-2.3017,0.3460,-0.6699,2.8132,-0.6236,-0.4328,-11.9813,33.6938,-32.8688,
13.756227,-2.3017,0.3460,-0.6699,3.3419,-0.5863,-0.0306,-11.9813,33.6938,-32.8688,
13.764164,-2.3017,0.3460,-0.6699,3.3419,-0.5863,-0.0306,-11.9813,33.6938,-32.8688,
13.765481,-2.3017,0.3460,-0.6699,3.3419,-0.5863,-0.0306,-11.9250,31.8938,-33.5625,
13.808070,-2.3017,0.3460,-0.6699,3.4264,0.3212,0.5317,-11.9250,31.8938,-33.5625,
13.812334,-2.2086,-1.8716,-4.0272,3.4264,0.3212,0.5317,-11.9250,31.8938,-33.5625,
13.827004,-2.2086,-1.8716,-4.0272,3.4264,0.3212,0.5317,-12.3563,28.8563,-34.7063,
13.828468,-2.2086,-1.8716,-4.0272,3.4264,0.3212,0.5317,-12.3563,28.8563,-34.7063,
13.865046,-2.2086,-1.8716,-4.0272,3.0288,1.9641,0.6003,-12.3563,28.8563,-34.7063,
13.867483,-0.0079,-3.3399,-5.6408,3.0288,1.9641,0.6003,-12.3563,28.8563,-34.7063,
13.887169,-0.0079,-3.3399,-5.6408,3.0288,1.9641,0.6003,-11.8313,23.4000,-36.5250,
13.889010,-0.0079,-3.3399,-5.6408,3.0288,1.9641,0.6003,-11.8313,23.4000,-36.5250,
13.928211,-0.0079,-3.3399,-5.6408,1.2129,0.3449,0.3631,-11.8313,23.4000,-36.5250,
13.946906,-0.0079,-3.3399,-5.6408,1.2129,0.3449,0.3631,-11.9813,18.1688,-38.2875,
13.949932,2.2882,-2.6278,-8.0570,1.2129,0.3449,0.3631,-11.9813,18.1688,-38.2875,
13.952533,2.2882,-2.6278,-8.0570,1.2129,0.3449,0.3631,-11.9813,18.1688,-38.2875,
13.988644,2.2882,-2.6278,-8.0570,-0.8713,-0.2273,0.0955,-11.9813,18.1688,-38.2875,
14.007310,2.2882,-2.6278,-8.0570,-0.8713,-0.2273,0.0955,-12.2625,13.0313,-40.3500,
14.011248,2.2882,-2.6278,-8.0570,-0.8713,-0.2273,0.0955,-12.2625,13.0313,-40.3500,
14.012913,2.5874,0.1492,-9.1430,-0.8713,-0.2273,0.0955,-12.2625,13.0313,-40.3500,
14.050773,2.5874,0.1492,-9.1430,-0.7155,-1.3790,-0.0281,-12.2625,13.0313,-40.3500,
14.065996,2.5874,0.1492,-9.1430,-0.7155,-1.3790,-0.0281,-13.1063,8.3250,-42.1500,
14.070399,2.5874,0.1492,-9.1430,-0.7155,-1.3790,-0.0281,-13.1063,8.3250,-42.1500,
14.071321,1.8490,-1.2748,0.1135,-0.7155,-1.3790,-0.0281,-13.1063,8.3250,-42.1500,
14.108490,1.8490,-1.2748,0.1135,-1.4755,-0.9874,0.2336,-13.1063,8.3250,-42.1500,
14.124657,1.8490,-1.2748,0.1135,-1.4755,-0.9874,0.2336,-14.2875,4.5375,-43.2375,
14.129647,1.8490,-1.2748,0.1135,-1.4755,-0.9874,0.2336,-14.2875,4.5375,-43.2375,
14.151160,0.0594,-0.9539,-0.5846,-1.4755,-0.9874,0.2336,-14.2875,4.5375,-43.2375,
14.173598,0.0594,-0.9539,-0.5846,-1.2781,-0.1550,0.0567,-14.2875,4.5375,-43.2375,
14.186451,0.0594,-0.9539,-0.5846,-1.2781,-0.1550,0.0567,-14.9063,2.1938,-43.9125,
14.192165,0.0594,-0.9539,-0.5846,-1.2781,-0.1550,0.0567,-14.9063,2.1938,-43.9125,
14.212021,0.4032,-0.0426,1.3754,-1.2781,-0.1550,0.0567,-14.9063,2.1938,-43.9125,
14.232313,0.4032,-0.0426,1.3754,-1.1280,-0.2991,0.1277,-14.9063,2.1938,-43.9125,
14.246582,0.4032,-0.0426,1.3754,-1.1280,-0.2991,0.1277,-15.3750,1.1625,-43.8563,
14.252457,0.4032,-0.0426,1.3754,-1.1280,-0.2991,0.1277,-15.3750,1.1625,-43.8563,
14.272704,0.5897,-0.6008,0.9151,-1.1280,-0.2991,0.1277,-15.3750,1.1625,-43.8563,
14.290992,0.5897,-0.6008,0.9151,-0.7963,0.1965,0.1153,-15.3750,1.1625,-43.8563,
14.306116,0.5897,-0.6008,0.9151,-0.7963,0.1965,0.1153,-15.6000,1.4438,-43.4062,
14.313940,0.5897,-0.6008,0.9151,-0.7963,0.1965,0.1153,-15.6000,1.4438,-43.4062,
14.332126,-0.1596,-0.5023,0.8492,-0.7963,0.1965,0.1153,-15.6000,1.4438,-43.4062,
14.354254,-0.1596,-0.5023,0.8492,-0.5141,0.0563,0.0305,-15.6000,1.4438,-43.4062,
14.366761,-0.1596,-0.5023,0.8492,-0.5141,0.0563,0.0305,-16.3688,2.9062,-42.7313,
14.374460,-0.1596,-0.5023,0.8492,-0.5141,0.0563,0.0305,-16.3688,2.9062,-42.7313,
14.416184,-0.1596,-0.5023,0.8492,-0.3910,0.1688,0.0759,-16.3688,2.9062,-42.7313,
14.420116,0.1740,-0.3258,0.9399,-0.3910,0.1688,0.0759,-16.3688,2.9062,-42.7313,
14.428114,0.1740,-0.3258,0.9399,-0.3910,0.1688,0.0759,-17.2500,5.1000,-42.1688,
14.433085,0.1740,-0.3258,0.9399,-0.3910,0.1688,0.0759,-17.2500,5.1000,-42.1688,
14.478296,0.1740,-0.3258,0.9399,-0.3831,0.1152,0.0638,-17.2500,5.1000,-42.1688,
14.480218,-0.0508,0.0001,0.8158,-0.3831,0.1152,0.0638,-17.2500,5.1000,-42.1688,
14.487470,-0.0508,0.0001,0.8158,-0.3831,0.1152,0.0638,-18.0563,7.2000,-41.6625,
14.495225,-0.0508,0.0001,0.8158,-0.3831,0.1152,0.0638,-18.0563,7.2000,-41.6625,
14.537958,-0.0508,0.0001,0.8158,-0.3479,0.1791,0.0784,-18.0563,7.2000,-41.6625,
14.541927,-0.1517,-0.0922,0.7236,-0.3479,0.1791,0.0784,-18.0563,7.2000,-41.6625,
14.547050,-0.1517,-0.0922,0.7236,-0.3479,0.1791,0.0784,-18.3188,9.2625,-41.2875,
14.554529,-0.1517,-0.0922,0.7236,-0.3479,0.1791,0.0784,-18.3188,9.2625,-41.2875,
14.599311,-0.1517,-0.0922,0.7236,-0.3820,0.4418,0.0770,-18.3188,9.2625,-41.2875,
14.603460,0.2791,-0.2414,0.6503,-0.3820,0.4418,0.0770,-18.3188,9.2625,-41.2875,
14.606034,0.2791,-0.2414,0.6503,-0.3820,0.4418,0.0770,-17.9438,10.9125,-40.9688,
14.618327,0.2791,-0.2414,0.6503,-0.3820,0.4418,0.0770,-17.9438,10.9125,-40.9688,
14.659143,0.2791,-0.2414,0.6503,-0.6997,0.4404,-0.0863,-17.9438,10.9125,-40.9688,
14.666688,0.2791,-0.2414,0.6503,-0.6997,0.4404,-0.0863,-17.5500,12.3563,-40.7250,
14.678967,0.2791,-0.2414,0.6503,-0.6997,0.4404,-0.0863,-17.5500,12.3563,-40.7250,
14.680603,-0.4890,0.0558,1.0690,-0.6997,0.4404,-0.0863,-17.5500,12.3563,-40.7250,
14.719748,-0.4890,0.0558,1.0690,-1.0641,0.5302,-0.2035,-17.5500,12.3563,-40.7250,
14.728871,-0.4890,0.0558,1.0690,-1.0641,0.5302,-0.2035,-16.9125,13.7063,-40.5188,
14.738808,-0.4890,0.0558,1.0690,-1.0641,0.5302,-0.2035,-16.9125,13.7063,-40.5188,
14.741191,-0.6102,-0.0732,1.3953,-1.0641,0.5302,-0.2035,-16.9125,13.7063,-40.5188,
14.780207,-0.6102,-0.0732,1.3953,-1.1811,0.8603,-0.3483,-16.9125,13.7063,-40.5188,
14.785951,-0.6102,-0.0732,1.3953,-1.1811,0.8603,-0.3483,-16.3313,15.0375,-40.3688,
14.799810,-0.6102,-0.0732,1.3953,-1.1811,0.8603,-0.3483,-16.3313,15.0375,-40.3688,
14.801020,-0.5973,-1.3538,1.3512,-1.1811,0.8603,-0.3483,-16.3313,15.0375,-40.3688,
14.842090,-0.5973,-1.3538,1.3512,-1.5382,0.8539,-0.4907,-16.3313,15.0375,-40.3688,
14.846945,-0.5973,-1.3538,1.3512,-1.5382,0.8539,-0.4907,-15.5063,16.5938,-40.0500,
14.861183,-0.5973,-1.3538,1.3512,-1.5382,0.8539,-0.4907,-15.5063,16.5938,-40.0500,
14.879780,0.0017,-4.7901,2.1213,-1.5382,0.8539,-0.4907,-15.5063,16.5938,-40.0500,
14.902517,0.0017,-4.7901,2.1213,-1.4726,0.5774,0.2932,-15.5063,16.5938,-40.0500,
14.907533,0.0017,-4.7901,2.1213,-1.4726,0.5774,0.2932,-14.4000,18.4875,-39.3750,
14.921800,0.0017,-4.7901,2.1213,-1.4726,0.5774,0.2932,-14.4000,18.4875,-39.3750,
14.942779,0.6914,-2.5244,3.8580,-1.4726,0.5774,0.2932,-14.4000,18.4875,-39.3750,
14.963378,0.6914,-2.5244,3.8580,0.1473,1.7568,0.2246,-14.4000,18.4875,-39.3750,
14.967306,0.6914,-2.5244,3.8580,0.1473,1.7568,0.2246,-13.7438,21.3375,-38.2875,
14.981140,0.6914,-2.5244,3.8580,0.1473,1.7568,0.2246,-13.7438,21.3375,-38.2875,
15.003691,-0.9010,2.1303,4.2167,0.1473,1.7568,0.2246,-13.7438,21.3375,-38.2875,
15.026399,-0.9010,2.1303,4.2167,2.3454,3.0549,0.6073,-13.7438,21.3375,-38.2875,
15.029382,-0.9010,2.1303,4.2167,2.3454,3.0549,0.6073,-11.7188,22.5750,-37.8000,
15.042720,-0.9010,2.1303,4.2167,2.3454,3.0549,0.6073,-11.7188,22.5750,-37.8000,
15.062506,-0.7734,2.6841,3.4365,2.3454,3.0549,0.6073,-11.7188,22.5750,-37.8000,
15.084355,-0.7734,2.6841,3.4365,3.3636,3.0483,1.3390,-11.7188,22.5750,-37.8000,
15.087201,-0.7734,2.6841,3.4365,3.3636,3.0483,1.3390,-9.1875,22.8375,-37.7625,
15.102477,-0.7734,2.6841,3.4365,3.3636,3.0483,1.3390,-9.1875,22.8375,-37.7625,
15.149790,-0.7734,2.6841,3.4365,3.3636,3.0483,1.3390,-6.0563,21.8063,-37.7625,
15.153599,-0.7734,2.6841,3.4365,3.3636,2.9040,1.7970,-6.0563,21.8063,-37.7625,
15.155314,-0.2972,0.5360,-1.6423,3.3636,2.9040,1.7970,-6.0563,21.8063,-37.7625,
15.166798,-0.2972,0.5360,-1.6423,3.3636,2.9040,1.7970,-6.0563,21.8063,-37.7625,
15.207930,-0.2972,0.5360,-1.6423,3.3636,2.9040,1.7970,-0.4125,17.3813,-38.6250,
15.212455,-0.2972,0.5360,-1.6423,2.7672,3.6894,1.4147,-0.4125,17.3813,-38.6250,
15.215252,2.8692,-3.0177,-4.2091,2.7672,3.6894,1.4147,-0.4125,17.3813,-38.6250,
15.227817,2.8692,-3.0177,-4.2091,2.7672,3.6894,1.4147,-0.4125,17.3813,-38.6250,
15.268212,2.8692,-3.0177,-4.2091,2.7672,3.6894,1.4147,4.5375,14.3438,-37.9125,
15.271565,5.8495,-3.0520,-4.5167,2.7672,3.6894,1.4147,4.5375,14.3438,-37.9125,
15.274469,5.8495,-3.0520,-4.5167,1.5204,3.2676,0.5545,4.5375,14.3438,-37.9125,
15.289763,5.8495,-3.0520,-4.5167,1.5204,3.2676,0.5545,4.5375,14.3438,-37.9125,
15.330774,5.8495,-3.0520,-4.5167,-0.2362,1.2686,0.0876,4.5375,14.3438,-37.9125,
15.335372,5.8495,-3.0520,-4.5167,-0.2362,1.2686,0.0876,9.7875,10.8188,-37.1438,
15.350236,5.8495,-3.0520,-4.5167,-0.2362,1.2686,0.0876,9.7875,10.8188,-37.1438,
15.352674,4.3753,-0.5611,-4.3149,-0.2362,1.2686,0.0876,9.7875,10.8188,-37.1438,
15.388420,4.3753,-0.5611,-4.3149,-0.3999,-0.3218,-0.2710,9.7875,10.8188,-37.1438,
15.391670,4.3753,-0.5611,-4.3149,-0.3999,-0.3218,-0.2710,14.9250,7.0125,-36.6750,
15.409857,4.3753,-0.5611,-4.3149,-0.3999,-0.3218,-0.2710,14.9250,7.0125,-36.6750,
15.411439,1.7319,-0.5938,-0.5913,-0.3999,-0.3218,-0.2710,14.9250,7.0125,-36.6750,
15.450337,1.7319,-0.5938,-0.5913,-0.3057,0.0808,-0.1406,14.9250,7.0125,-36.6750,
15.453806,1.7319,-0.5938,-0.5913,-0.3057,0.0808,-0.1406,19.7250,3.0188,-36.0750,
15.470820,1.7319,-0.5938,-0.5913,-0.3057,0.0808,-0.1406,19.7250,3.0188,-36.0750,
15.472448,1.0648,-0.7074,3.3865,-0.3057,0.0808,-0.1406,19.7250,3.0188,-36.0750,
15.508458,1.0648,-0.7074,3.3865,-0.3057,0.0808,-0.1406,23.8875,-0.4313,-35.3813,
15.510416,1.0648,-0.7074,3.3865,-0.2603,-0.0634,0.2613,23.8875,-0.4313,-35.3813,
15.530820,1.0648,-0.7074,3.3865,-0.2603,-0.0634,0.2613,23.8875,-0.4313,-35.3813,
15.533681,-0.8217,-0.2435,0.2742,-0.2603,-0.0634,0.2613,23.8875,-0.4313,-35.3813,
15.567228,-0.8217,-0.2435,0.2742,-0.2603,-0.0634,0.2613,27.0750,-2.9438,-34.4625,
15.573759,-0.8217,-0.2435,0.2742,-0.2262,-0.2302,-0.0168,27.0750,-2.9438,-34.4625,
15.591011,-0.8217,-0.2435,0.2742,-0.2262,-0.2302,-0.0168,27.0750,-2.9438,-34.4625,
15.612378,-1.0714,0.0652,0.2197,-0.2262,-0.2302,-0.0168,27.0750,-2.9438,-34.4625,
15.625670,-1.0714,0.0652,0.2197,-0.2262,-0.2302,-0.0168,29.6438,-4.3688,-33.3188,
15.631373,-1.0714,0.0652,0.2197,-0.1527,0.0229,0.1923,29.6438,-4.3688,-33.3188,
15.651845,-1.0714,0.0652,0.2197,-0.1527,0.0229,0.1923,29.6438,-4.3688,-33.3188,
15.675275,-0.1155,0.0370,0.3785,-0.1527,0.0229,0.1923,29.6438,-4.3688,-33.3188,
15.684986,-0.1155,0.0370,0.3785,-0.1527,0.0229,0.1923,31.1625,-4.8375,-32.3438,
15.692499,-0.1155,0.0370,0.3785,-0.1925,-0.0264,0.3348,31.1625,-4.8375,-32.3438,
15.714994,-0.1155,0.0370,0.3785,-0.1925,-0.0264,0.3348,31.1625,-4.8375,-32.3438,
15.732916,-0.2788,0.1022,0.4790,-0.1925,-0.0264,0.3348,31.1625,-4.8375,-32.3438,
15.747480,-0.2788,0.1022,0.4790,-0.1925,-0.0264,0.3348,31.8000,-4.6688,-32.0438,
15.752340,-0.2788,0.1022,0.4790,-0.0285,0.3208,0.3028,31.8000,-4.6688,-32.0438,
15.776093,-0.2788,0.1022,0.4790,-0.0285,0.3208,0.3028,31.8000,-4.6688,-32.0438,
15.807402,-0.2788,0.1022,0.4790,-0.0285,0.3208,0.3028,31.9500,-4.6313,-32.0813,
15.817101,-0.2788,0.1022,0.4790,0.1241,0.3800,-0.0274,31.9500,-4.6313,-32.0813,
15.819158,-0.5801,-0.2054,0.1881,0.1241,0.3800,-0.0274,31.9500,-4.6313,-32.0813,
15.835015,-0.5801,-0.2054,0.1881,0.1241,0.3800,-0.0274,31.9500,-4.6313,-32.0813,
15.867730,-0.5801,-0.2054,0.1881,0.1241,0.3800,-0.0274,32.0063,-4.6313,-31.9500,
15.877206,-0.5801,-0.2054,0.1881,0.1320,0.5401,0.0134,32.0063,-4.6313,-31.9500,
15.881137,-0.5924,0.0280,0.1754,0.1320,0.5401,0.0134,32.0063,-4.6313,-31.9500,
15.896516,-0.5924,0.0280,0.1754,0.1320,0.5401,0.0134,32.0063,-4.6313,-31.9500,
15.927448,-0.5924,0.0280,0.1754,0.1320,0.5401,0.0134,32.2125,-4.6313,-31.9500,
15.938129,-0.5924,0.0280,0.1754,0.0595,0.5273,0.0120,32.2125,-4.6313,-31.9500,
15.940424,-0.2397,0.0878,0.2097,0.0595,0.5273,0.0120,32.2125,-4.6313,-31.9500,
15.956689,-0.2397,0.0878,0.2097,0.0595,0.5273,0.0120,32.2125,-4.6313,-31.9500,
15.987781,-0.2397,0.0878,0.2097,0.0595,0.5273,0.0120,32.3250,-4.7438,-31.6313,
16.000254,-0.2397,0.0878,0.2097,0.0546,0.6272,0.0450,32.3250,-4.7438,-31.6313,
16.002831,-0.2273,0.0552,0.0728,0.0546,0.6272,0.0450,32.3250,-4.7438,-31.6313,
16.019672,-0.2273,0.0552,0.0728,0.0546,0.6272,0.0450,32.3250,-4.7438,-31.6313,
16.048241,-0.2273,0.0552,0.0728,0.0546,0.6272,0.0450,32.9062,-4.8000,-30.9188,
16.059745,-0.2273,0.0552,0.0728,-0.1016,0.7308,0.0461,32.9062,-4.8000,-30.9188,
16.079795,-0.2273,0.0552,0.0728,-0.1016,0.7308,0.0461,32.9062,-4.8000,-30.9188,
16.082491,-0.6406,0.2565,0.3415,-0.1016,0.7308,0.0461,32.9062,-4.8000,-30.9188,
16.107012,-0.6406,0.2565,0.3415,-0.1016,0.7308,0.0461,33.5625,-5.0063,-30.0188,
16.120636,-0.6406,0.2565,0.3415,-0.2674,0.7734,-0.0238,33.5625,-5.0063,-30.0188,
16.139564,-0.6406,0.2565,0.3415,-0.2674,0.7734,-0.0238,33.5625,-5.0063,-30.0188,
16.141753,-0.5511,0.3265,0.7739,-0.2674,0.7734,-0.0238,33.5625,-5.0063,-30.0188,
16.165154,-0.5511,0.3265,0.7739,-0.2674,0.7734,-0.0238,34.5000,-5.1750,-28.9125,
16.180950,-0.5511,0.3265,0.7739,-0.2625,1.1653,-0.1467,34.5000,-5.1750,-28.9125,
16.202828,-0.5511,0.3265,0.7739,-0.2625,1.1653,-0.1467,34.5000,-5.1750,-28.9125,
16.205587,-0.8871,0.0507,0.6906,-0.2625,1.1653,-0.1467,34.5000,-5.1750,-28.9125,
16.227775,-0.8871,0.0507,0.6906,-0.2625,1.1653,-0.1467,34.8375,-5.1000,-27.9188,
16.242376,-0.8871,0.0507,0.6906,-0.2955,2.0120,-0.1186,34.8375,-5.1000,-27.9188,
16.261893,-0.8871,0.0507,0.6906,-0.2955,2.0120,-0.1186,34.8375,-5.1000,-27.9188,
16.281137,-1.5622,-0.1591,1.6222,-0.2955,2.0120,-0.1186,34.8375,-5.1000,-27.9188,
16.284805,-1.5622,-0.1591,1.6222,-0.2955,2.0120,-0.1186,36.0188,-4.7625,-25.8188,
16.301710,-1.5622,-0.1591,1.6222,-0.4598,3.0990,0.3305,36.0188,-4.7625,-25.8188,
16.322709,-1.5622,-0.1591,1.6222,-0.4598,3.0990,0.3305,36.0188,-4.7625,-25.8188,
16.344851,-1.6816,-0.6413,1.9022,-0.4598,3.0990,0.3305,36.0188,-4.7625,-25.8188,
16.347949,-1.6816,-0.6413,1.9022,-0.4598,3.0990,0.3305,37.3313,-4.8188,-22.7438,
16.364145,-1.6816,-0.6413,1.9022,-0.4832,3.9786,0.9670,37.3313,-4.8188,-22.7438,
16.383189,-1.6816,-0.6413,1.9022,-0.4832,3.9786,0.9670,37.3313,-4.8188,-22.7438,
16.404944,-2.1232,-1.7616,2.3317,-0.4832,3.9786,0.9670,37.3313,-4.8188,-22.7438,
16.408803,-2.1232,-1.7616,2.3317,-0.4832,3.9786,0.9670,38.4000,-5.1375,-18.3563,
16.424667,-2.1232,-1.7616,2.3317,-0.0778,3.7320,1.0035,38.4000,-5.1375,-18.3563,
16.444870,-2.1232,-1.7616,2.3317,-0.0778,3.7320,1.0035,38.4000,-5.1375,-18.3563,
16.467126,1.7299,-1.6770,2.1115,-0.0778,3.7320,1.0035,38.4000,-5.1375,-18.3563,
16.470153,1.7299,-1.6770,2.1115,-0.0778,3.7320,1.0035,39.0000,-5.8688,-12.3375,
16.485960,1.7299,-1.6770,2.1115,0.5481,2.1629,1.0043,39.0000,-5.8688,-12.3375,
16.508190,1.7299,-1.6770,2.1115,0.5481,2.1629,1.0043,39.0000,-5.8688,-12.3375,
16.527322,1.7299,-1.6770,2.1115,0.5481,2.1629,1.0043,39.1313,-6.7125,-6.6188,
16.549704,1.7299,-1.6770,2.1115,1.7938,1.1365,0.6936,39.1313,-6.7125,-6.6188,
16.551964,2.5348,0.6585,3.5684,1.7938,1.1365,0.6936,39.1313,-6.7125,-6.6188,
16.567447,2.5348,0.6585,3.5684,1.7938,1.1365,0.6936,39.1313,-6.7125,-6.6188,
16.588744,2.5348,0.6585,3.5684,1.7938,1.1365,0.6936,38.8313,-7.3125,-0.7125,
16.607817,2.5348,0.6585,3.5684,2.8484,1.6903,0.4635,38.8313,-7.3125,-0.7125,
16.610835,3.6382,0.1181,3.1702,2.8484,1.6903,0.4635,38.8313,-7.3125,-0.7125,
16.628072,3.6382,0.1181,3.1702,2.8484,1.6903,0.4635,38.8313,-7.3125,-0.7125,
16.648234,3.6382,0.1181,3.1702,2.8484,1.6903,0.4635,38.0250,-7.5375,5.6063,
16.667793,3.6382,0.1181,3.1702,3.3067,1.0585,0.3372,38.0250,-7.5375,5.6063,
16.671719,3.0566,-1.1108,-0.0089,3.3067,1.0585,0.3372,38.0250,-7.5375,5.6063,
16.687203,3.0566,-1.1108,-0.0089,3.3067,1.0585,0.3372,38.0250,-7.5375,5.6063,
16.707571,3.0566,-1.1108,-0.0089,3.3067,1.0585,0.3372,36.8063,-7.2750,11.6625,
16.729888,3.0566,-1.1108,-0.0089,3.1268,0.6065,0.2108,36.8063,-7.2750,11.6625,
16.750718,3.0566,-1.1108,-0.0089,3.1268,0.6065,0.2108,36.8063,-7.2750,11.6625,
16.753489,1.2700,-2.6456,-2.7176,3.1268,0.6065,0.2108,36.8063,-7.2750,11.6625,
16.766017,1.2700,-2.6456,-2.7176,3.1268,0.6065,0.2108,35.1188,-6.3938,17.3813,
16.788472,1.2700,-2.6456,-2.7176,2.6293,1.4561,0.0840,35.1188,-6.3938,17.3813,
16.810875,1.2700,-2.6456,-2.7176,2.6293,1.4561,0.0840,35.1188,-6.3938,17.3813,
16.813841,1.2937,-2.5321,-4.8899,2.6293,1.4561,0.0840,35.1188,-6.3938,17.3813,
16.824746,1.2937,-2.5321,-4.8899,2.6293,1.4561,0.0840,32.5500,-4.0312,22.6500,
16.850211,1.2937,-2.5321,-4.8899,1.3212,2.4926,-0.0831,32.5500,-4.0312,22.6500,
16.869433,1.2937,-2.5321,-4.8899,1.3212,2.4926,-0.0831,32.5500,-4.0312,22.6500,
16.870826,1.8761,-2.0582,-6.4788,1.3212,2.4926,-0.0831,32.5500,-4.0312,22.6500,
16.884477,1.8761,-2.0582,-6.4788,1.3212,2.4926,-0.0831,29.7375,-1.4062,26.3625,
16.911574,1.8761,-2.0582,-6.4788,-0.2706,1.6594,-0.2340,29.7375,-1.4062,26.3625,
16.931926,1.8761,-2.0582,-6.4788,-0.2706,1.6594,-0.2340,29.7375,-1.4062,26.3625,
16.934141,1.4457,1.1581,-6.9307,-0.2706,1.6594,-0.2340,29.7375,-1.4062,26.3625,
16.947709,1.4457,1.1581,-6.9307,-0.2706,1.6594,-0.2340,26.9438,1.4250,28.9875,
16.972858,1.4457,1.1581,-6.9307,-0.6838,-1.5948,1.0128,26.9438,1.4250,28.9875,
16.992762,1.4457,1.1581,-6.9307,-0.6838,-1.5948,1.0128,26.9438,1.4250,28.9875,
17.011686,1.4457,1.1581,-6.9307,-0.6838,-1.5948,1.0128,24.9000,4.2563,31.1625,
17.014017,-2.2526,-1.1900,2.9307,-0.6838,-1.5948,1.0128,24.9000,4.2563,31.1625,
17.034006,-2.2526,-1.1900,2.9307,-0.9682,0.0144,-0.0057,24.9000,4.2563,31.1625,
17.054624,-2.2526,-1.1900,2.9307,-0.9682,0.0144,-0.0057,24.9000,4.2563,31.1625,
17.068023,-2.2526,-1.1900,2.9307,-0.9682,0.0144,-0.0057,23.2500,6.5250,32.9625,
17.074944,0.8053,-1.4564,-2.3318,-0.9682,0.0144,-0.0057,23.2500,6.5250,32.9625,
17.095372,0.8053,-1.4564,-2.3318,-0.5976,0.1652,0.1083,23.2500,6.5250,32.9625,
17.115704,0.8053,-1.4564,-2.3318,-0.5976,0.1652,0.1083,23.2500,6.5250,32.9625,
17.124734,0.8053,-1.4564,-2.3318,-0.5976,0.1652,0.1083,21.8438,7.9688,34.2750,
17.133571,-0.5446,0.6438,0.8326,-0.5976,0.1652,0.1083,21.8438,7.9688,34.2750,
17.156369,-0.5446,0.6438,0.8326,-0.5103,0.2906,0.1818,21.8438,7.9688,34.2750,
17.174276,-0.5446,0.6438,0.8326,-0.5103,0.2906,0.1818,21.8438,7.9688,34.2750,
17.186477,-0.5446,0.6438,0.8326,-0.5103,0.2906,0.1818,20.4938,8.7188,35.3625,
17.218214,-0.5446,0.6438,0.8326,-0.3988,0.3265,-0.0036,20.4938,8.7188,35.3625,
17.219978,0.1325,-0.0536,0.5927,-0.3988,0.3265,-0.0036,20.4938,8.7188,35.3625,
17.236539,0.1325,-0.0536,0.5927,-0.3988,0.3265,-0.0036,20.4938,8.7188,35.3625,
17.246858,0.1325,-0.0536,0.5927,-0.3988,0.3265,-0.0036,19.1813,8.5500,36.3750,
17.276801,0.1325,-0.0536,0.5927,-0.4715,0.3977,-0.0927,19.1813,8.5500,36.3750,
17.280724,-0.5243,0.0843,0.4743,-0.4715,0.3977,-0.0927,19.1813,8.5500,36.3750,
17.299170,-0.5243,0.0843,0.4743,-0.4715,0.3977,-0.0927,19.1813,8.5500,36.3750,
17.306737,-0.5243,0.0843,0.4743,-0.4715,0.3977,-0.0927,18.2063,7.5000,37.1813,
17.339307,-0.4184,0.3997,0.9896,-0.4715,0.3977,-0.0927,18.2063,7.5000,37.1813,
17.343787,-0.4184,0.3997,0.9896,-0.5521,0.2892,-0.0356,18.2063,7.5000,37.1813,
17.357750,-0.4184,0.3997,0.9896,-0.5521,0.2892,-0.0356,18.2063,7.5000,37.1813,
17.365444,-0.4184,0.3997,0.9896,-0.5521,0.2892,-0.0356,17.9062,5.8875,37.8375,
17.400016,-0.3714,0.0984,0.9325,-0.5521,0.2892,-0.0356,17.9062,5.8875,37.8375,
17.404069,-0.3714,0.0984,0.9325,-0.5482,0.1479,-0.0232,17.9062,5.8875,37.8375,
17.419256,-0.3714,0.0984,0.9325,-0.5482,0.1479,-0.0232,17.9062,5.8875,37.8375,
17.424788,-0.3714,0.0984,0.9325,-0.5482,0.1479,-0.0232,17.8125,4.0688,38.4000,
17.460472,-0.3714,0.0984,0.9325,-0.5535,0.1731,0.0152,17.8125,4.0688,38.4000,
17.482420,-0.3714,0.0984,0.9325,-0.5535,0.1731,0.0152,17.8125,4.0688,38.4000,
17.483916,-0.1289,-0.0582,0.6748,-0.5535,0.1731,0.0152,17.8125,4.0688,38.4000,
17.489250,-0.1289,-0.0582,0.6748,-0.5535,0.1731,0.0152,17.1562,2.3625,38.8688,
17.519205,-0.1289,-0.0582,0.6748,-0.7368,0.3172,0.0280,17.1562,2.3625,38.8688,
17.539564,-0.1289,-0.0582,0.6748,-0.7368,0.3172,0.0280,17.1562,2.3625,38.8688,
17.540981,-0.2956,0.1279,0.7516,-0.7368,0.3172,0.0280,17.1562,2.3625,38.8688,
17.543424,-0.2956,0.1279,0.7516,-0.7368,0.3172,0.0280,16.2938,0.8250,39.2625,
17.584149,-0.2956,0.1279,0.7516,-0.9791,0.4137,-0.0675,16.2938,0.8250,39.2625,
17.601537,-0.2956,0.1279,0.7516,-0.9791,0.4137,-0.0675,16.2938,0.8250,39.2625,
17.604007,-0.5062,0.0995,1.1129,-0.9791,0.4137,-0.0675,16.2938,0.8250,39.2625,
17.606566,-0.5062,0.0995,1.1129,-0.9791,0.4137,-0.0675,15.2813,-0.8438,39.6938,
17.644255,-0.5062,0.0995,1.1129,-1.1393,0.6666,-0.0991,15.2813,-0.8438,39.6938,
17.662753,-0.5062,0.0995,1.1129,-1.1393,0.6666,-0.0991,15.2813,-0.8438,39.6938,
17.665245,-0.5062,0.0995,1.1129,-1.1393,0.6666,-0.0991,14.2500,-2.7563,40.2000,
17.681963,-0.2919,-0.2951,0.9706,-1.1393,0.6666,-0.0991,14.2500,-2.7563,40.2000,
17.704253,-0.2919,-0.2951,0.9706,-1.1585,1.1309,-0.2657,14.2500,-2.7563,40.2000,
17.722406,-0.2919,-0.2951,0.9706,-1.1585,1.1309,-0.2657,14.2500,-2.7563,40.2000,
17.724577,-0.2919,-0.2951,0.9706,-1.1585,1.1309,-0.2657,13.1250,-4.7812,40.5000,
17.745494,-0.8131,-1.8113,1.3617,-1.1585,1.1309,-0.2657,13.1250,-4.7812,40.5000,
17.764472,-0.8131,-1.8113,1.3617,-1.6462,1.5043,-0.3895,13.1250,-4.7812,40.5000,
17.785522,-0.8131,-1.8113,1.3617,-1.6462,1.5043,-0.3895,13.1250,-4.7812,40.5000,
17.787097,-0.8131,-1.8113,1.3617,-1.6462,1.5043,-0.3895,12.2438,-6.2438,40.5750,
17.813234,-0.2569,-3.7761,2.3440,-1.6462,1.5043,-0.3895,12.2438,-6.2438,40.5750,
17.825162,-0.2569,-3.7761,2.3440,-1.6366,1.2846,-0.0447,12.2438,-6.2438,40.5750,
17.846218,-0.2569,-3.7761,2.3440,-1.6366,1.2846,-0.0447,10.3875,-8.9062,40.4813,
17.848060,-0.2569,-3.7761,2.3440,-1.6366,1.2846,-0.0447,10.3875,-8.9062,40.4813,
17.865910,0.8447,-3.1166,4.5512,-1.6366,1.2846,-0.0447,10.3875,-8.9062,40.4813,
17.885943,0.8447,-3.1166,4.5512,-0.4662,1.0197,0.1366,10.3875,-8.9062,40.4813,
17.907059,0.8447,-3.1166,4.5512,-0.4662,1.0197,0.1366,8.2313,-11.3625,40.6125,
17.909903,0.8447,-3.1166,4.5512,-0.4662,1.0197,0.1366,8.2313,-11.3625,40.6125,
17.948274,0.8447,-3.1166,4.5512,1.7785,1.2856,-0.1368,8.2313,-11.3625,40.6125,
17.951467,-0.7634,0.9260,4.3602,1.7785,1.2856,-0.1368,8.2313,-11.3625,40.6125,
17.967949,-0.7634,0.9260,4.3602,1.7785,1.2856,-0.1368,5.7188,-12.9938,40.8188,
17.970312,-0.7634,0.9260,4.3602,1.7785,1.2856,-0.1368,5.7188,-12.9938,40.8188,
18.007900,-0.7634,0.9260,4.3602,3.4746,1.7018,0.3627,5.7188,-12.9938,40.8188,
18.011667,-0.2469,2.0175,4.3111,3.4746,1.7018,0.3627,5.7188,-12.9938,40.8188,
18.024953,-0.2469,2.0175,4.3111,3.4746,1.7018,0.3627,2.9062,-13.0313,41.2688,
18.027222,-0.2469,2.0175,4.3111,3.4746,1.7018,0.3627,2.9062,-13.0313,41.2688,
18.070062,-0.2469,2.0175,4.3111,4.0278,0.6892,1.0045,2.9062,-13.0313,41.2688,
18.073226,-0.1194,1.0918,-0.3275,4.0278,0.6892,1.0045,2.9062,-13.0313,41.2688,
18.085152,-0.1194,1.0918,-0.3275,4.0278,0.6892,1.0045,0.1313,-11.1188,41.4188,
18.088209,-0.1194,1.0918,-0.3275,4.0278,0.6892,1.0045,0.1313,-11.1188,41.4188,
18.131061,-0.1194,1.0918,-0.3275,3.7842,0.5522,1.2229,0.1313,-11.1188,41.4188,
18.146310,-0.1194,1.0918,-0.3275,3.7842,0.5522,1.2229,-2.5500,-7.5563,40.8000,
18.150583,-0.1194,1.0918,-0.3275,3.7842,0.5522,1.2229,-2.5500,-7.5563,40.8000,
18.151977,-0.2649,-3.1761,-4.4488,3.7842,0.5522,1.2229,-2.5500,-7.5563,40.8000,
18.191901,-0.2649,-3.1761,-4.4488,2.6340,1.7770,0.2289,-2.5500,-7.5563,40.8000,
18.206108,-0.2649,-3.1761,-4.4488,2.6340,1.7770,0.2289,-5.4375,-2.7000,39.4500,
18.209481,-0.2649,-3.1761,-4.4488,2.6340,1.7770,0.2289,-5.4375,-2.7000,39.4500,
18.210500,2.4820,-5.0600,-7.3273,2.6340,1.7770,0.2289,-5.4375,-2.7000,39.4500,
18.252716,2.4820,-5.0600,-7.3273,1.5960,3.1484,0.2129,-5.4375,-2.7000,39.4500,
18.265901,2.4820,-5.0600,-7.3273,1.5960,3.1484,0.2129,-8.5688,2.9250,37.3500,
18.269736,2.4820,-5.0600,-7.3273,1.5960,3.1484,0.2129,-8.5688,2.9250,37.3500,
18.270708,4.0505,-2.1290,-6.8765,1.5960,3.1484,0.2129,-8.5688,2.9250,37.3500,
18.313708,4.0505,-2.1290,-6.8765,-0.0174,2.1940,-0.0121,-8.5688,2.9250,37.3500,
18.327341,4.0505,-2.1290,-6.8765,-0.0174,2.1940,-0.0121,-11.7000,9.0563,35.0438,
18.333780,4.0505,-2.1290,-6.8765,-0.0174,2.1940,-0.0121,-11.7000,9.0563,35.0438,
18.334678,3.4652,0.1510,-6.3627,-0.0174,2.1940,-0.0121,-11.7000,9.0563,35.0438,
18.376013,3.4652,0.1510,-6.3627,-0.8226,-2.6200,0.2069,-11.7000,9.0563,35.0438,
18.384724,3.4652,0.1510,-6.3627,-0.8226,-2.6200,0.2069,-14.0438,15.3750,33.0000,
18.392595,3.4652,0.1510,-6.3627,-0.8226,-2.6200,0.2069,-14.0438,15.3750,33.0000,
18.413155,-0.4079,-1.8505,2.9603,-0.8226,-2.6200,0.2069,-14.0438,15.3750,33.0000,
18.435510,-0.4079,-1.8505,2.9603,-1.0083,-0.0144,-0.0277,-14.0438,15.3750,33.0000,
18.446979,-0.4079,-1.8505,2.9603,-1.0083,-0.0144,-0.0277,-15.7875,20.7000,31.1250,
18.456157,-0.4079,-1.8505,2.9603,-1.0083,-0.0144,-0.0277,-15.7875,20.7000,31.1250,
18.474008,2.0299,-1.2875,-2.4259,-1.0083,-0.0144,-0.0277,-15.7875,20.7000,31.1250,
18.495374,2.0299,-1.2875,-2.4259,-0.6739,-0.0892,0.1178,-15.7875,20.7000,31.1250,
18.506028,2.0299,-1.2875,-2.4259,-0.6739,-0.0892,0.1178,-17.1750,24.6188,29.2313,
18.518540,2.0299,-1.2875,-2.4259,-0.6739,-0.0892,0.1178,-17.1750,24.6188,29.2313,
18.534957,-0.6453,0.6723,1.4486,-0.6739,-0.0892,0.1178,-17.1750,24.6188,29.2313,
18.555464,-0.6453,0.6723,1.4486,-0.4212,0.2703,0.0947,-17.1750,24.6188,29.2313,
18.566617,-0.6453,0.6723,1.4486,-0.4212,0.2703,0.0947,-18.4125,26.9063,27.7313,
18.575311,-0.6453,0.6723,1.4486,-0.4212,0.2703,0.0947,-18.4125,26.9063,27.7313,
18.619357,-0.6453,0.6723,1.4486,-0.2819,0.3605,-0.1204,-18.4125,26.9063,27.7313,
18.624078,0.0791,-0.3982,0.5387,-0.2819,0.3605,-0.1204,-18.4125,26.9063,27.7313,
18.628584,0.0791,-0.3982,0.5387,-0.2819,0.3605,-0.1204,-19.7063,27.5063,26.7750,
18.636020,0.0791,-0.3982,0.5387,-0.2819,0.3605,-0.1204,-19.7063,27.5063,26.7750,
18.679036,0.0791,-0.3982,0.5387,-0.2621,0.7148,-0.1818,-19.7063,27.5063,26.7750,
18.681952,-0.6479,0.0597,1.0013,-0.2621,0.7148,-0.1818,-19.7063,27.5063,26.7750,
18.686796,-0.6479,0.0597,1.0013,-0.2621,0.7148,-0.1818,-20.7375,27.3375,26.5125,
18.696340,-0.6479,0.0597,1.0013,-0.2621,0.7148,-0.1818,-20.7375,27.3375,26.5125,
18.741880,-0.6479,0.0597,1.0013,-0.2553,0.5739,-0.1289,-20.7375,27.3375,26.5125,
18.743712,-0.3693,0.1323,1.0577,-0.2553,0.5739,-0.1289,-20.7375,27.3375,26.5125,
18.744812,-0.3693,0.1323,1.0577,-0.2553,0.5739,-0.1289,-21.1875,26.5125,27.0938,
18.759778,-0.3693,0.1323,1.0577,-0.2553,0.5739,-0.1289,-21.1875,26.5125,27.0938,
18.800773,-0.5887,0.2912,0.8686,-0.2553,0.5739,-0.1289,-21.1875,26.5125,27.0938,
18.805935,-0.5887,0.2912,0.8686,-0.1836,0.4894,-0.1065,-21.1875,26.5125,27.0938,
18.808487,-0.5887,0.2912,0.8686,-0.1836,0.4894,-0.1065,-21.3938,25.6500,27.8438,
18.819544,-0.5887,0.2912,0.8686,-0.1836,0.4894,-0.1065,-21.3938,25.6500,27.8438,
18.863945,-0.5887,0.2912,0.8686,-0.0913,0.4318,-0.1378,-21.3938,25.6500,27.8438,
18.866319,-0.5887,0.2912,0.8686,-0.0913,0.4318,-0.1378,-22.1813,24.6563,28.1250,
18.880025,-0.5887,0.2912,0.8686,-0.0913,0.4318,-0.1378,-22.1813,24.6563,28.1250,
18.882231,-0.5466,0.0864,0.5881,-0.0913,0.4318,-0.1378,-22.1813,24.6563,28.1250,
18.919520,-0.5466,0.0864,0.5881,-0.0818,0.4007,-0.2013,-22.1813,24.6563,28.1250,
18.926125,-0.5466,0.0864,0.5881,-0.0818,0.4007,-0.2013,-23.1562,23.9062,27.8813,
18.941453,-0.5466,0.0864,0.5881,-0.0818,0.4007,-0.2013,-23.1562,23.9062,27.8813,
18.943052,-0.9230,0.4164,0.7894,-0.0818,0.4007,-0.2013,-23.1562,23.9062,27.8813,
18.984564,-0.9230,0.4164,0.7894,-0.1084,0.5686,-0.3320,-23.1562,23.9062,27.8813,
18.988507,-0.9230,0.4164,0.7894,-0.1084,0.5686,-0.3320,-24.2813,23.1000,27.5625,
19.003473,-0.9230,0.4164,0.7894,-0.1084,0.5686,-0.3320,-24.2813,23.1000,27.5625,
19.006022,-0.6455,0.1250,0.6107,-0.1084,0.5686,-0.3320,-24.2813,23.1000,27.5625,
19.044598,-0.6455,0.1250,0.6107,-0.1246,0.7240,-0.4282,-24.2813,23.1000,27.5625,
19.047062,-0.6455,0.1250,0.6107,-0.1246,0.7240,-0.4282,-25.5750,22.2563,26.8500,
19.062725,-0.6455,0.1250,0.6107,-0.1246,0.7240,-0.4282,-25.5750,22.2563,26.8500,
19.083228,-0.6308,0.1040,0.5551,-0.1246,0.7240,-0.4282,-25.5750,22.2563,26.8500,
19.102986,-0.6308,0.1040,0.5551,-0.0395,1.3798,-0.5340,-25.5750,22.2563,26.8500,
19.105959,-0.6308,0.1040,0.5551,-0.0395,1.3798,-0.5340,-26.9813,21.4875,25.9500,
19.125553,-0.6308,0.1040,0.5551,-0.0395,1.3798,-0.5340,-26.9813,21.4875,25.9500,
19.145751,-0.7756,-0.2190,0.6365,-0.0395,1.3798,-0.5340,-26.9813,21.4875,25.9500,
19.166352,-0.7756,-0.2190,0.6365,0.1848,2.4894,-0.3731,-26.9813,21.4875,25.9500,
19.168428,-0.7756,-0.2190,0.6365,0.1848,2.4894,-0.3731,-28.4438,20.6063,24.7125,
19.188195,-0.7756,-0.2190,0.6365,0.1848,2.4894,-0.3731,-28.4438,20.6063,24.7125,
19.207626,-1.1145,0.3448,0.8704,0.1848,2.4894,-0.3731,-28.4438,20.6063,24.7125,
19.225932,-1.1145,0.3448,0.8704,0.1848,2.4894,-0.3731,-30.4688,19.9313,22.1438,
19.228155,-1.1145,0.3448,0.8704,0.7912,4.0206,-0.0221,-30.4688,19.9313,22.1438,
19.246653,-1.1145,0.3448,0.8704,0.7912,4.0206,-0.0221,-30.4688,19.9313,22.1438,
19.267124,-1.8163,0.0794,1.2059,0.7912,4.0206,-0.0221,-30.4688,19.9313,22.1438,
19.287419,-1.8163,0.0794,1.2059,0.7912,4.0206,-0.0221,-32.1562,19.2938,18.1875,
19.289785,-1.8163,0.0794,1.2059,1.4121,4.8083,0.3031,-32.1562,19.2938,18.1875,
19.307662,-1.8163,0.0794,1.2059,1.4121,4.8083,0.3031,-32.1562,19.2938,18.1875,
19.346970,-1.8163,0.0794,1.2059,1.3486,3.6965,0.1905,-32.1562,19.2938,18.1875,
19.349932,-0.5627,0.3751,0.4613,1.3486,3.6965,0.1905,-32.1562,19.2938,18.1875,
19.351354,-0.5627,0.3751,0.4613,1.3486,3.6965,0.1905,-33.4500,18.7313,12.8813,
19.367351,-0.5627,0.3751,0.4613,1.3486,3.6965,0.1905,-33.4500,18.7313,12.8813,
19.408091,-0.5627,0.3751,0.4613,1.3486,3.6965,0.1905,-34.3313,18.1500,6.7313,
19.412333,-0.5627,0.3751,0.4613,0.7752,2.2122,0.0808,-34.3313,18.1500,6.7313,
19.414785,2.0314,-0.4386,-0.7655,0.7752,2.2122,0.0808,-34.3313,18.1500,6.7313,
19.427581,2.0314,-0.4386,-0.7655,0.7752,2.2122,0.0808,-34.3313,18.1500,6.7313,
19.466807,2.0314,-0.4386,-0.7655,0.7752,2.2122,0.0808,-34.6313,17.5312,-0.1500,
19.470788,2.0314,-0.4386,-0.7655,0.4650,2.0315,-0.0605,-34.6313,17.5312,-0.1500,
19.472835,1.7578,-0.7081,-1.5319,0.4650,2.0315,-0.0605,-34.6313,17.5312,-0.1500,
19.488397,1.7578,-0.7081,-1.5319,0.4650,2.0315,-0.0605,-34.6313,17.5312,-0.1500,
19.526947,1.7578,-0.7081,-1.5319,0.4650,2.0315,-0.0605,-34.2563,17.0813,-7.5188,
19.530882,1.7578,-0.7081,-1.5319,0.2541,2.4245,-0.0515,-34.2563,17.0813,-7.5188,
19.550489,1.7578,-0.7081,-1.5319,0.2541,2.4245,-0.0515,-34.2563,17.0813,-7.5188,
19.552732,0.7474,0.3326,-1.0623,0.2541,2.4245,-0.0515,-34.2563,17.0813,-7.5188,
19.587867,0.7474,0.3326,-1.0623,0.2541,2.4245,-0.0515,-33.6562,16.7438,-13.7438,
19.591945,0.7474,0.3326,-1.0623,0.0755,2.3588,-0.0522,-33.6562,16.7438,-13.7438,
19.611384,0.7474,0.3326,-1.0623,0.0755,2.3588,-0.0522,-33.6562,16.7438,-13.7438,
19.613425,-0.2391,0.1585,-0.7036,0.0755,2.3588,-0.0522,-33.6562,16.7438,-13.7438,
19.647185,-0.2391,0.1585,-0.7036,0.0755,2.3588,-0.0522,-31.5563,16.4813,-21.1875,
19.652422,-0.2391,0.1585,-0.7036,0.0497,1.9417,-0.0121,-31.5563,16.4813,-21.1875,
19.672091,-0.2391,0.1585,-0.7036,0.0497,1.9417,-0.0121,-31.5563,16.4813,-21.1875,
19.673721,-0.6354,0.1502,-0.2395,0.0497,1.9417,-0.0121,-31.5563,16.4813,-21.1875,
19.707141,-0.6354,0.1502,-0.2395,0.0497,1.9417,-0.0121,-28.4250,16.3313,-27.6375,
19.714648,-0.6354,0.1502,-0.2395,0.4238,1.0346,0.0752,-28.4250,16.3313,-27.6375,
19.733107,-0.6354,0.1502,-0.2395,0.4238,1.0346,0.0752,-28.4250,16.3313,-27.6375,
19.735604,-0.7395,0.5687,0.9075,0.4238,1.0346,0.0752,-28.4250,16.3313,-27.6375,
19.767422,-0.7395,0.5687,0.9075,0.4238,1.0346,0.0752,-25.3500,16.0875,-32.7000,
19.774409,-0.7395,0.5687,0.9075,0.6453,-0.4020,0.2172,-25.3500,16.0875,-32.7000,
19.796158,-0.7395,0.5687,0.9075,0.6453,-0.4020,0.2172,-25.3500,16.0875,-32.7000,
19.815315,-1.7531,0.3157,2.4917,0.6453,-0.4020,0.2172,-25.3500,16.0875,-32.7000,
19.824815,-1.7531,0.3157,2.4917,0.6453,-0.4020,0.2172,-22.4250,15.7313,-36.2063,
19.834848,-1.7531,0.3157,2.4917,0.3538,0.0744,0.1232,-22.4250,15.7313,-36.2063,
19.854969,-1.7531,0.3157,2.4917,0.3538,0.0744,0.1232,-22.4250,15.7313,-36.2063,
19.874941,-0.2543,-0.8850,-0.4753,0.3538,0.0744,0.1232,-22.4250,15.7313,-36.2063,
19.885441,-0.2543,-0.8850,-0.4753,0.3538,0.0744,0.1232,-20.0250,15.3375,-38.7188,
19.897699,-0.2543,-0.8850,-0.4753,0.0386,-0.1024,0.1096,-20.0250,15.3375,-38.7188,
19.914914,-0.2543,-0.8850,-0.4753,0.0386,-0.1024,0.1096,-20.0250,15.3375,-38.7188,
19.938038,0.7099,0.1186,-0.0274,0.0386,-0.1024,0.1096,-20.0250,15.3375,-38.7188,
19.946129,0.7099,0.1186,-0.0274,0.0386,-0.1024,0.1096,-17.8500,14.9813,-40.6125,
19.955812,0.7099,0.1186,-0.0274,-0.0696,-0.1407,0.1607,-17.8500,14.9813,-40.6125,
19.975790,0.7099,0.1186,-0.0274,-0.0696,-0.1407,0.1607,-17.8500,14.9813,-40.6125,
20.005937,0.7099,0.1186,-0.0274,-0.0696,-0.1407,0.1607,-16.4438,14.6438,-41.7750,
20.018514,0.7099,0.1186,-0.0274,-0.1225,-0.1947,0.1511,-16.4438,14.6438,-41.7750,
20.020811,-0.7030,0.1416,0.2669,-0.1225,-0.1947,0.1511,-16.4438,14.6438,-41.7750,
20.038407,-0.7030,0.1416,0.2669,-0.1225,-0.1947,0.1511,-16.4438,14.6438,-41.7750,
20.067511,-0.7030,0.1416,0.2669,-0.1225,-0.1947,0.1511,-15.4688,14.4938,-42.5063,
20.081154,-0.7030,0.1416,0.2669,0.0045,-0.0676,0.1015,-15.4688,14.4938,-42.5063,
20.084259,0.1838,-0.0525,-0.0730,0.0045,-0.0676,0.1015,-15.4688,14.4938,-42.5063,
20.099437,0.1838,-0.0525,-0.0730,0.0045,-0.0676,0.1015,-15.4688,14.4938,-42.5063,
20.127365,0.1838,-0.0525,-0.0730,0.0045,-0.0676,0.1015,-14.9625,14.5125,-42.8438,
20.139226,0.1838,-0.0525,-0.0730,0.1085,0.1390,0.0180,-14.9625,14.5125,-42.8438,
20.141486,-0.0996,-0.1764,-0.2145,0.1085,0.1390,0.0180,-14.9625,14.5125,-42.8438,
20.159572,-0.0996,-0.1764,-0.2145,0.1085,0.1390,0.0180,-14.9625,14.5125,-42.8438,
20.185518,-0.0996,-0.1764,-0.2145,0.1085,0.1390,0.0180,-14.9813,14.1563,-43.0312,
20.200041,-0.0996,-0.1764,-0.2145,0.1128,0.1369,-0.0967,-14.9813,14.1563,-43.0312,
20.201833,-0.1256,-0.0317,-0.1688,0.1128,0.1369,-0.0967,-14.9813,14.1563,-43.0312,
20.221202,-0.1256,-0.0317,-0.1688,0.1128,0.1369,-0.0967,-14.9813,14.1563,-43.0312,
20.246753,-0.1256,-0.0317,-0.1688,0.1128,0.1369,-0.0967,-14.9438,13.8375,-42.8625,
20.259746,-0.1256,-0.0317,-0.1688,0.0936,0.1234,-0.0973,-14.9438,13.8375,-42.8625,
20.282914,-0.1256,-0.0317,-0.1688,0.0936,0.1234,-0.0973,-14.9438,13.8375,-42.8625,
20.285934,-0.2544,0.0275,-0.0772,0.0936,0.1234,-0.0973,-14.9438,13.8375,-42.8625,
20.306076,-0.2544,0.0275,-0.0772,0.0936,0.1234,-0.0973,-14.8688,13.8000,-42.7500,
20.323542,-0.2544,0.0275,-0.0772,0.0393,0.0172,-0.0899,-14.8688,13.8000,-42.7500,
20.343781,-0.2544,0.0275,-0.0772,0.0393,0.0172,-0.0899,-14.8688,13.8000,-42.7500,
20.347563,-0.0125,0.0691,-0.0038,0.0393,0.0172,-0.0899,-14.8688,13.8000,-42.7500,
20.364567,-0.0125,0.0691,-0.0038,0.0393,0.0172,-0.0899,-14.6813,13.7625,-42.7125,
20.382243,-0.0125,0.0691,-0.0038,0.0382,-0.0044,-0.0818,-14.6813,13.7625,-42.7125,
20.404272,-0.0125,0.0691,-0.0038,0.0382,-0.0044,-0.0818,-14.6813,13.7625,-42.7125,
20.407119,-0.1265,0.0838,-0.0135,0.0382,-0.0044,-0.0818,-14.6813,13.7625,-42.7125,
20.424739,-0.1265,0.0838,-0.0135,0.0382,-0.0044,-0.0818,-14.7563,13.9125,-42.8250,
20.444495,-0.1265,0.0838,-0.0135,0.0627,0.0282,-0.0682,-14.7563,13.9125,-42.8250,
20.463523,-0.1265,0.0838,-0.0135,0.0627,0.0282,-0.0682,-14.7563,13.9125,-42.8250,
20.466266,0.0296,-0.0115,-0.1264,0.0627,0.0282,-0.0682,-14.7563,13.9125,-42.8250,
20.487220,0.0296,-0.0115,-0.1264,0.0627,0.0282,-0.0682,-14.6063,13.8750,-42.9375,
20.506486,0.0296,-0.0115,-0.1264,0.0422,0.0172,-0.0586,-14.6063,13.8750,-42.9375,
20.525779,0.0296,-0.0115,-0.1264,0.0422,0.0172,-0.0586,-14.6063,13.8750,-42.9375,
20.547657,0.0296,-0.0115,-0.1264,0.0422,0.0172,-0.0586,-14.5313,13.5188,-43.0312,
20.551656,-0.0282,0.0191,-0.0342,0.0422,0.0172,-0.0586,-14.5313,13.5188,-43.0312,
20.564589,-0.0282,0.0191,-0.0342,-0.0083,-0.0410,-0.0394,-14.5313,13.5188,-43.0312,
20.589964,-0.0282,0.0191,-0.0342,-0.0083,-0.0410,-0.0394,-14.5313,13.5188,-43.0312,
20.607242,-0.0282,0.0191,-0.0342,-0.0083,-0.0410,-0.0394,-14.5875,13.0875,-43.1625,
20.610369,0.0068,0.0651,0.0274,-0.0083,-0.0410,-0.0394,-14.5875,13.0875,-43.1625,
20.627500,0.0068,0.0651,0.0274,0.0013,0.0031,-0.0394,-14.5875,13.0875,-43.1625,
20.646496,0.0068,0.0651,0.0274,0.0013,0.0031,-0.0394,-14.5875,13.0875,-43.1625,
20.666840,0.0068,0.0651,0.0274,0.0013,0.0031,-0.0394,-14.5125,13.0125,-43.3125,
20.669782,-0.0483,-0.0001,-0.0255,0.0013,0.0031,-0.0394,-14.5125,13.0125,-43.3125,
20.690018,-0.0483,-0.0001,-0.0255,0.0063,-0.0210,-0.0206,-14.5125,13.0125,-43.3125,
20.708459,-0.0483,-0.0001,-0.0255,0.0063,-0.0210,-0.0206,-14.5125,13.0125,-43.3125,
20.726864,-0.0483,-0.0001,-0.0255,0.0063,-0.0210,-0.0206,-14.5688,13.0688,-43.4250,
20.749769,-0.0483,-0.0001,-0.0255,0.0145,-0.0087,-0.0093,-14.5688,13.0688,-43.4250,
20.752537,0.0662,0.0060,-0.0404,0.0145,-0.0087,-0.0093,-14.5688,13.0688,-43.4250,
20.769224,0.0662,0.0060,-0.0404,0.0145,-0.0087,-0.0093,-14.5688,13.0688,-43.4250,
20.789438,0.0662,0.0060,-0.0404,0.0145,-0.0087,-0.0093,-14.6063,12.9750,-43.5563,
20.809226,0.0662,0.0060,-0.0404,0.0241,0.0101,-0.0128,-14.6063,12.9750,-43.5563,
20.812446,0.0590,-0.0609,-0.0403,0.0241,0.0101,-0.0128,-14.6063,12.9750,-43.5563,
20.829432,0.0590,-0.0609,-0.0403,0.0241,0.0101,-0.0128,-14.6063,12.9750,-43.5563,
20.845532,0.0590,-0.0609,-0.0403,0.0241,0.0101,-0.0128,-14.8125,12.9000,-43.7063,
20.871049,0.0590,-0.0609,-0.0403,0.0130,-0.0097,-0.0075,-14.8125,12.9000,-43.7063,
20.874211,-0.0203,0.0169,-0.0228,0.0130,-0.0097,-0.0075,-14.8125,12.9000,-43.7063,
20.891487,-0.0203,0.0169,-0.0228,0.0130,-0.0097,-0.0075,-14.8125,12.9000,-43.7063,
20.907485,-0.0203,0.0169,-0.0228,0.0130,-0.0097,-0.0075,-14.8313,12.6375,-43.5938,
20.932697,-0.0203,0.0169,-0.0228,0.0031,-0.0095,-0.0057,-14.8313,12.6375,-43.5938,
20.936082,-0.0141,0.0303,0.0036,0.0031,-0.0095,-0.0057,-14.8313,12.6375,-43.5938,
20.951882,-0.0141,0.0303,0.0036,0.0031,-0.0095,-0.0057,-14.8313,12.6375,-43.5938,
20.966919,-0.0141,0.0303,0.0036,0.0031,-0.0095,-0.0057,-14.7563,12.7125,-43.5938,
20.992943,-0.0141,0.0303,0.0036,0.0145,-0.0041,-0.0040,-14.7563,12.7125,-43.5938,
21.014163,-0.0141,0.0303,0.0036,0.0145,-0.0041,-0.0040,-14.7563,12.7125,-43.5938,
21.017436,-0.0019,-0.0139,-0.0075,0.0145,-0.0041,-0.0040,-14.7563,12.7125,-43.5938,
21.028080,-0.0019,-0.0139,-0.0075,0.0145,-0.0041,-0.0040,-14.7938,12.6938,-43.7812,
21.053244,-0.0019,-0.0139,-0.0075,0.0340,0.0172,0.0017,-14.7938,12.6938,-43.7812,
21.073245,-0.0019,-0.0139,-0.0075,0.0340,0.0172,0.0017,-14.7938,12.6938,-43.7812,
21.075252,0.0317,-0.0143,-0.0420,0.0340,0.0172,0.0017,-14.7938,12.6938,-43.7812,
21.085019,0.0317,-0.0143,-0.0420,0.0340,0.0172,0.0017,-14.6813,12.7688,-43.6875,
21.115133,0.0317,-0.0143,-0.0420,0.0329,0.0201,-0.0051,-14.6813,12.7688,-43.6875,
21.135307,0.0317,-0.0143,-0.0420,0.0329,0.0201,-0.0051,-14.6813,12.7688,-43.6875,
21.137858,-0.0005,0.0022,-0.0320,0.0329,0.0201,-0.0051,-14.6813,12.7688,-43.6875,
21.146235,-0.0005,0.0022,-0.0320,0.0329,0.0201,-0.0051,-14.7750,12.7688,-43.6125,
21.175244,-0.0005,0.0022,-0.0320,0.0039,0.0031,-0.0085,-14.7750,12.7688,-43.6125,
21.195994,-0.0005,0.0022,-0.0320,0.0039,0.0031,-0.0085,-14.7750,12.7688,-43.6125,
21.207559,-0.0005,0.0022,-0.0320,0.0039,0.0031,-0.0085,-14.8875,12.5813,-43.7063,
21.213187,-0.0217,0.0294,0.0298,0.0039,0.0031,-0.0085,-14.8875,12.5813,-43.7063,
21.236422,-0.0217,0.0294,0.0298,-0.0072,-0.0023,-0.0125,-14.8875,12.5813,-43.7063,
21.255683,-0.0217,0.0294,0.0298,-0.0072,-0.0023,-0.0125,-14.8875,12.5813,-43.7063,
21.264475,-0.0217,0.0294,0.0298,-0.0072,-0.0023,-0.0125,-14.9063,12.5813,-43.5938,
21.274957,-0.0040,0.0035,0.0071,-0.0072,-0.0023,-0.0125,-14.9063,12.5813,-43.5938,
21.295732,-0.0040,0.0035,0.0071,-0.0072,-0.0095,-0.0089,-14.9063,12.5813,-43.5938,
21.317533,-0.0040,0.0035,0.0071,-0.0072,-0.0095,-0.0089,-14.9063,12.5813,-43.5938,
21.326977,-0.0040,0.0035,0.0071,-0.0072,-0.0095,-0.0089,-14.8313,12.4313,-43.5938,
21.337514,-0.0022,0.0036,-0.0040,-0.0072,-0.0095,-0.0089,-14.8313,12.4313,-43.5938,
21.357108,-0.0022,0.0036,-0.0040,0.0003,-0.0001,-0.0053,-14.8313,12.4313,-43.5938,
21.376855,-0.0022,0.0036,-0.0040,0.0003,-0.0001,-0.0053,-14.8313,12.4313,-43.5938,
21.385436,-0.0022,0.0036,-0.0040,0.0003,-0.0001,-0.0053,-14.8125,12.4875,-43.7812,
21.398970,0.0314,-0.0108,-0.0228,0.0003,-0.0001,-0.0053,-14.8125,12.4875,-43.7812,
21.419143,0.0314,-0.0108,-0.0228,-0.0029,-0.0052,-0.0053,-14.8125,12.4875,-43.7812,
21.438384,0.0314,-0.0108,-0.0228,-0.0029,-0.0052,-0.0053,-14.8125,12.4875,-43.7812,
21.445573,0.0314,-0.0108,-0.0228,-0.0029,-0.0052,-0.0053,-14.9438,12.2438,-43.7625,
21.479148,-0.0112,-0.0003,0.0049,-0.0029,-0.0052,-0.0053,-14.9438,12.2438,-43.7625,
21.483143,-0.0112,-0.0003,0.0049,-0.0023,0.0020,-0.0051,-14.9438,12.2438,-43.7625,
21.499035,-0.0112,-0.0003,0.0049,-0.0023,0.0020,-0.0051,-14.9438,12.2438,-43.7625,
21.504904,-0.0112,-0.0003,0.0049,-0.0023,0.0020,-0.0051,-14.8500,12.2438,-43.6125,
21.539889,-0.0112,-0.0003,0.0049,0.0017,-0.0044,-0.0029,-14.8500,12.2438,-43.6125,
21.542910,0.0047,-0.0043,-0.0088,0.0017,-0.0044,-0.0029,-14.8500,12.2438,-43.6125,
21.563725,0.0047,-0.0043,-0.0088,0.0017,-0.0044,-0.0029,-14.8500,12.2438,-43.6125,
21.566398,0.0047,-0.0043,-0.0088,0.0017,-0.0044,-0.0029,-14.9250,12.2250,-43.5750,
21.600524,0.0047,-0.0043,-0.0088,-0.0023,0.0012,0.0007,-14.9250,12.2250,-43.5750,
21.603572,0.0084,-0.0074,-0.0076,-0.0023,0.0012,0.0007,-14.9250,12.2250,-43.5750,
21.620696,0.0084,-0.0074,-0.0076,-0.0023,0.0012,0.0007,-14.9250,12.2250,-43.5750,
21.626908,0.0084,-0.0074,-0.0076,-0.0023,0.0012,0.0007,-14.7938,12.2250,-43.5000,
21.662010,0.0084,-0.0074,-0.0076,-0.0033,-0.0041,0.0017,-14.7938,12.2250,-43.5000,
21.681560,0.0084,-0.0074,-0.0076,-0.0033,-0.0041,0.0017,-14.7938,12.2250,-43.5000,
21.682908,-0.0156,0.0171,0.0257,-0.0033,-0.0041,0.0017,-14.7938,12.2250,-43.5000,
21.683946,-0.0156,0.0171,0.0257,-0.0033,-0.0041,0.0017,-14.6625,12.2813,-43.2938,
21.722817,-0.0156,0.0171,0.0257,-0.0047,-0.0001,0.0039,-14.6625,12.2813,-43.2938,
21.742792,-0.0156,0.0171,0.0257,-0.0047,-0.0001,0.0039,-14.6625,12.2813,-43.2938,
21.744936,0.0179,-0.0026,-0.0039,-0.0047,-0.0001,0.0039,-14.6625,12.2813,-43.2938,
21.746722,0.0179,-0.0026,-0.0039,-0.0047,-0.0001,0.0039,-14.7750,12.2438,-43.4250,
21.785754,0.0179,-0.0026,-0.0039,-0.0012,0.0016,0.0049,-14.7750,12.2438,-43.4250,
21.806693,0.0179,-0.0026,-0.0039,-0.0012,0.0016,0.0049,-14.7750,12.2438,-43.4250,
21.810083,-0.0035,-0.0024,0.0084,-0.0012,0.0016,0.0049,-14.7750,12.2438,-43.4250,
21.811820,-0.0035,-0.0024,0.0084,-0.0012,0.0016,0.0049,-14.8313,12.3188,-43.4062,
21.845937,-0.0035,-0.0024,0.0084,-0.0061,-0.0069,0.0060,-14.8313,12.3188,-43.4062,
21.865889,-0.0035,-0.0024,0.0084,-0.0061,-0.0069,0.0060,-14.8313,12.3188,-43.4062,
21.867939,-0.0035,-0.0024,0.0084,-0.0061,-0.0069,0.0060,-14.9250,12.3375,-43.3500,
21.869808,0.0081,0.0067,0.0054,-0.0061,-0.0069,0.0060,-14.9250,12.3375,-43.3500,
21.908128,0.0081,0.0067,0.0054,0.0017,-0.0009,0.0045,-14.9250,12.3375,-43.3500,
21.927837,0.0081,0.0067,0.0054,0.0017,-0.0009,0.0045,-14.9250,12.3750,-43.4250,
21.931108,0.0081,0.0067,0.0054,0.0017,-0.0009,0.0045,-14.9250,12.3750,-43.4250,
21.946767,0.0053,-0.0167,-0.0058,0.0017,-0.0009,0.0045,-14.9250,12.3750,-43.4250,
21.967751,0.0053,-0.0167,-0.0058,-0.0029,0.0009,0.0032,-14.9250,12.3750,-43.4250,
21.986542,0.0053,-0.0167,-0.0058,-0.0029,0.0009,0.0032,-14.9813,12.3938,-43.2938,
21.989602,0.0053,-0.0167,-0.0058,-0.0029,0.0009,0.0032,-14.9813,12.3938,-43.2938,
22.009207,0.0072,0.0086,0.0027,-0.0029,0.0009,0.0032,-14.9813,12.3938,-43.2938,
22.030986,0.0072,0.0086,0.0027,-0.0129,-0.0027,0.0060,-14.9813,12.3938,-43.2938,
22.048488,0.0072,0.0086,0.0027,-0.0129,-0.0027,0.0060,-14.9813,12.3938,-43.2938,
22.050963,0.0072,0.0086,0.0027,-0.0129,-0.0027,0.0060,-15.2063,12.3000,-43.4813,
22.069574,-0.0008,0.0111,0.0198,-0.0129,-0.0027,0.0060,-15.2063,12.3000,-43.4813,
22.088553,-0.0008,0.0111,0.0198,-0.0100,0.0076,0.0073,-15.2063,12.3000,-43.4813,
22.106830,-0.0008,0.0111,0.0198,-0.0100,0.0076,0.0073,-15.2813,12.2438,-43.5000,
22.108921,-0.0008,0.0111,0.0198,-0.0100,0.0076,0.0073,-15.2813,12.2438,-43.5000,
22.148564,-0.0008,0.0111,0.0198,-0.0125,-0.0048,0.0099,-15.2813,12.2438,-43.5000,
22.150777,0.0305,-0.0121,-0.0076,-0.0125,-0.0048,0.0099,-15.2813,12.2438,-43.5000,
22.164814,0.0305,-0.0121,-0.0076,-0.0125,-0.0048,0.0099,-15.3000,12.2250,-43.5375,
22.167373,0.0305,-0.0121,-0.0076,-0.0125,-0.0048,0.0099,-15.3000,12.2250,-43.5375,
22.210191,0.0305,-0.0121,-0.0076,-0.0097,0.0009,0.0120,-15.3000,12.2250,-43.5375,
22.213826,-0.0166,0.0056,0.0151,-0.0097,0.0009,0.0120,-15.3000,12.2250,-43.5375,
22.224990,-0.0166,0.0056,0.0151,-0.0097,0.0009,0.0120,-15.3938,12.2438,-43.8563,
22.228178,-0.0166,0.0056,0.0151,-0.0097,0.0009,0.0120,-15.3938,12.2438,-43.8563,
22.271603,-0.0166,0.0056,0.0151,-0.0025,0.0052,0.0127,-15.3938,12.2438,-43.8563,
22.273448,0.0077,-0.0039,0.0033,-0.0025,0.0052,0.0127,-15.3938,12.2438,-43.8563,
22.286437,0.0077,-0.0039,0.0033,-0.0025,0.0052,0.0127,-15.4688,12.2063,-43.7438,
22.290506,0.0077,-0.0039,0.0033,-0.0025,0.0052,0.0127,-15.4688,12.2063,-43.7438,
22.332365,0.0077,-0.0039,0.0033,-0.0072,0.0016,0.0109,-15.4688,12.2063,-43.7438,
22.335214,0.0137,-0.0145,-0.0075,-0.0072,0.0016,0.0109,-15.4688,12.2063,-43.7438,
22.345163,0.0137,-0.0145,-0.0075,-0.0072,0.0016,0.0109,-15.2813,12.2438,-43.6125,
22.351284,0.0137,-0.0145,-0.0075,-0.0072,0.0016,0.0109,-15.2813,12.2438,-43.6125,
22.396868,0.0137,-0.0145,-0.0075,-0.0104,-0.0041,0.0088,-15.2813,12.2438,-43.6125,
22.407282,0.0137,-0.0145,-0.0075,-0.0104,-0.0041,0.0088,-15.3188,12.2625,-43.6875,
22.412422,0.0137,-0.0145,-0.0075,-0.0104,-0.0041,0.0088,-15.3188,12.2625,-43.6875,
22.413745,-0.0069,0.0074,0.0109,-0.0104,-0.0041,0.0088,-15.3188,12.2625,-43.6875,
22.456907,-0.0069,0.0074,0.0109,-0.0196,-0.0137,0.0060,-15.3188,12.2625,-43.6875,
22.465999,-0.0069,0.0074,0.0109,-0.0196,-0.0137,0.0060,-15.4313,12.2813,-43.8000,
22.472963,-0.0069,0.0074,0.0109,-0.0196,-0.0137,0.0060,-15.4313,12.2813,-43.8000,
22.474230,-0.0125,0.0065,0.0149,-0.0196,-0.0137,0.0060,-15.4313,12.2813,-43.8000,
22.515514,-0.0125,0.0065,0.0149,-0.0142,-0.0108,0.0049,-15.4313,12.2813,-43.8000,
22.526268,-0.0125,0.0065,0.0149,-0.0142,-0.0108,0.0049,-15.1875,12.2813,-43.5938,
22.533627,-0.0125,0.0065,0.0149,-0.0142,-0.0108,0.0049,-15.1875,12.2813,-43.5938,
22.535000,0.0050,-0.0004,-0.0008,-0.0142,-0.0108,0.0049,-15.1875,12.2813,-43.5938,
22.576912,0.0050,-0.0004,-0.0008,-0.0104,-0.0133,0.0045,-15.1875,12.2813,-43.5938,
22.584423,0.0050,-0.0004,-0.0008,-0.0104,-0.0133,0.0045,-15.1500,12.3563,-43.5563,
22.595036,0.0050,-0.0004,-0.0008,-0.0104,-0.0133,0.0045,-15.1500,12.3563,-43.5563,
22.617770,0.0018,0.0104,0.0026,-0.0104,-0.0133,0.0045,-15.1500,12.3563,-43.5563,
22.636242,0.0018,0.0104,0.0026,-0.0012,-0.0059,-0.0000,-15.1500,12.3563,-43.5563,
22.647828,0.0018,0.0104,0.0026,-0.0012,-0.0059,-0.0000,-15.1688,12.3750,-43.5375,
22.657943,0.0018,0.0104,0.0026,-0.0012,-0.0059,-0.0000,-15.1688,12.3750,-43.5375,
22.676604,-0.0050,-0.0170,-0.0064,-0.0012,-0.0059,-0.0000,-15.1688,12.3750,-43.5375,
22.698270,-0.0050,-0.0170,-0.0064,-0.0019,-0.0087,0.0003,-15.1688,12.3750,-43.5375,
22.706812,-0.0050,-0.0170,-0.0064,-0.0019,-0.0087,0.0003,-15.0000,12.4313,-43.2750,
22.716898,-0.0050,-0.0170,-0.0064,-0.0019,-0.0087,0.0003,-15.0000,12.4313,-43.2750,
22.738787,0.0025,-0.0166,-0.0043,-0.0019,-0.0087,0.0003,-15.0000,12.4313,-43.2750,
22.757795,0.0025,-0.0166,-0.0043,-0.0061,-0.0065,-0.0008,-15.0000,12.4313,-43.2750,
22.764533,0.0025,-0.0166,-0.0043,-0.0061,-0.0065,-0.0008,-15.0000,12.3938,-43.4813,
22.777874,0.0025,-0.0166,-0.0043,-0.0061,-0.0065,-0.0008,-15.0000,12.3938,-43.4813,
22.798127,-0.0098,0.0083,-0.0068,-0.0061,-0.0065,-0.0008,-15.0000,12.3938,-43.4813,
22.818243,-0.0098,0.0083,-0.0068,-0.0068,-0.0208,-0.0053,-15.0000,12.3938,-43.4813,
22.827147,-0.0098,0.0083,-0.0068,-0.0068,-0.0208,-0.0053,-15.2813,12.3000,-43.6125,
22.841575,-0.0098,0.0083,-0.0068,-0.0068,-0.0208,-0.0053,-15.2813,12.3000,-43.6125,
22.883425,-0.0098,0.0083,-0.0068,-0.0033,-0.0172,-0.0093,-15.2813,12.3000,-43.6125,
22.886738,-0.0134,0.0093,0.0031,-0.0033,-0.0172,-0.0093,-15.2813,12.3000,-43.6125,
22.889022,-0.0134,0.0093,0.0031,-0.0033,-0.0172,-0.0093,-15.1313,12.4125,-43.5188,
22.900564,-0.0134,0.0093,0.0031,-0.0033,-0.0172,-0.0093,-15.1313,12.4125,-43.5188,
22.940367,-0.0134,0.0093,0.0031,0.0024,0.0005,-0.0121,-15.1313,12.4125,-43.5188,
22.942924,-0.0374,0.0052,-0.0082,0.0024,0.0005,-0.0121,-15.1313,12.4125,-43.5188,
22.947223,-0.0374,0.0052,-0.0082,0.0024,0.0005,-0.0121,-15.0938,12.3000,-43.4813,
22.959588,-0.0374,0.0052,-0.0082,0.0024,0.0005,-0.0121,-15.0938,12.3000,-43.4813,
23.003660,-0.0374,0.0052,-0.0082,-0.0001,-0.0041,-0.0146,-15.0938,12.3000,-43.4813,
23.007408,0.0058,-0.0075,-0.0159,-0.0001,-0.0041,-0.0146,-15.0938,12.3000,-43.4813,
23.009531,0.0058,-0.0075,-0.0159,-0.0001,-0.0041,-0.0146,-15.2063,12.3563,-43.5750,
23.021498,0.0058,-0.0075,-0.0159,-0.0001,-0.0041,-0.0146,-15.2063,12.3563,-43.5750,
23.063576,0.0058,-0.0075,-0.0159,-0.0008,0.0027,-0.0196,-15.2063,12.3563,-43.5750,
23.066641,0.0058,-0.0075,-0.0159,-0.0008,0.0027,-0.0196,-15.3000,12.2438,-43.5563,
23.083523,0.0058,-0.0075,-0.0159,-0.0008,0.0027,-0.0196,-15.3000,12.2438,-43.5563,
23.086224,-0.0212,0.0045,-0.0006,-0.0008,0.0027,-0.0196,-15.3000,12.2438,-43.5563,
23.125222,-0.0212,0.0045,-0.0006,0.0007,0.0048,-0.0213,-15.3000,12.2438,-43.5563,
23.128503,-0.0212,0.0045,-0.0006,0.0007,0.0048,-0.0213,-15.3938,12.1125,-43.5563,
23.144115,-0.0212,0.0045,-0.0006,0.0007,0.0048,-0.0213,-15.3938,12.1125,-43.5563,
23.146290,-0.0148,0.0014,-0.0073,0.0007,0.0048,-0.0213,-15.3938,12.1125,-43.5563,
23.184603,-0.0148,0.0014,-0.0073,-0.0008,0.0023,-0.0249,-15.3938,12.1125,-43.5563,
23.187562,-0.0148,0.0014,-0.0073,-0.0008,0.0023,-0.0249,-15.5250,12.0000,-43.5188,
23.204102,-0.0148,0.0014,-0.0073,-0.0008,0.0023,-0.0249,-15.5250,12.0000,-43.5188,
