
time,ax,ay,az,wx,wy,wz,Bx,By,Bz,
0.096418,0.0000,0.0000,0.0000,0.0000,0.0000,0.0000,0.0000,0.0000,0.0000,
0.097392,0.0000,0.0000,0.0000,0.0000,0.0000,0.0000,0.0000,0.0000,0.0000,
0.098326,0.0000,0.0000,0.0000,0.0000,0.0000,0.0000,0.0000,0.0000,0.0000,
0.099234,0.0000,0.0000,0.0000,0.0000,0.0000,0.0000,0.0000,0.0000,0.0000,
0.149685,0.0000,0.0000,0.0000,0.0000,0.0000,0.0000,0.0000,0.0000,0.0000,
0.151385,0.0000,0.0000,0.0000,0.0000,0.0000,0.0000,0.0000,0.0000,0.0000,
0.152894,0.0000,0.0000,0.0000,0.0000,0.0000,0.0000,0.0000,0.0000,0.0000,
0.158489,0.0000,0.0000,0.0000,0.0000,0.0000,0.0000,40.1813,19.0875,-2.8125,
0.217077,0.0000,0.0000,0.0000,0.0000,0.0000,0.0000,40.1813,19.0875,-2.8125,
0.218934,0.0000,0.0000,0.0000,0.0000,0.0000,0.0000,40.1813,19.0875,-2.8125,
0.220271,0.0000,0.0000,0.0000,0.0000,0.0000,0.0000,40.1813,19.0875,-2.8125,
0.238399,0.0000,0.0000,0.0000,0.0000,0.0000,0.0000,40.1813,19.0875,-2.8125,
0.240820,0.0000,0.0000,0.0000,0.0000,0.0000,0.0000,39.7125,19.1063,-2.8500,
0.262700,0.0000,0.0000,0.0000,0.0092,0.0114,0.0314,39.7125,19.1063,-2.8500,
0.266954,0.0000,0.0000,0.0000,0.0092,0.0114,0.0314,39.7125,19.1063,-2.8500,
0.282891,0.0000,0.0000,0.0000,0.0092,0.0114,0.0314,39.7125,19.1063,-2.8500,
0.285015,0.0000,0.0000,0.0000,0.0092,0.0114,0.0314,39.7125,19.1063,-2.8500,
0.286466,0.0996,0.0160,-0.0906,0.0092,0.0114,0.0314,39.7125,19.1063,-2.8500,
0.298433,0.0996,0.0160,-0.0906,0.0092,0.0114,0.0314,39.6750,18.9188,-2.5688,
0.340698,0.0996,0.0160,-0.0906,0.0092,0.0114,0.0314,39.6750,18.9188,-2.5688,
0.343373,0.0996,0.0160,-0.0906,0.0092,0.0114,0.0314,39.6750,18.9188,-2.5688,
0.345214,0.0996,0.0160,-0.0906,0.0092,0.0114,0.0314,39.6750,18.9188,-2.5688,
0.347004,0.0996,0.0160,-0.0906,-0.0147,-0.0167,-0.0039,39.6750,18.9188,-2.5688,
0.348750,0.1106,0.0138,-0.1280,-0.0147,-0.0167,-0.0039,39.6750,18.9188,-2.5688,
0.359054,0.1106,0.0138,-0.1280,-0.0147,-0.0167,-0.0039,39.7875,18.7500,-2.7938,
0.402529,0.1106,0.0138,-0.1280,-0.0025,-0.0090,-0.0007,39.7875,18.7500,-2.7938,
0.405335,0.0753,-0.0401,-0.0650,-0.0025,-0.0090,-0.0007,39.7875,18.7500,-2.7938,
0.407387,0.0753,-0.0401,-0.0650,-0.0025,-0.0090,-0.0007,39.7875,18.7500,-2.7938,
0.409027,0.0753,-0.0401,-0.0650,-0.0025,-0.0090,-0.0007,39.7875,18.7500,-2.7938,
0.410635,0.0753,-0.0401,-0.0650,-0.0025,-0.0090,-0.0007,39.7875,18.7500,-2.7938,
0.434089,0.0753,-0.0401,-0.0650,-0.0025,-0.0090,-0.0007,39.7875,18.7500,-2.7938,
0.438371,0.0753,-0.0401,-0.0650,-0.0025,-0.0090,-0.0007,39.9375,18.8250,-2.8500,
0.463084,0.0753,-0.0401,-0.0650,-0.0025,-0.0090,-0.0007,39.9375,18.8250,-2.8500,
0.465618,-0.0146,0.0177,0.0069,-0.0025,-0.0090,-0.0007,39.9375,18.8250,-2.8500,
0.468639,-0.0146,0.0177,0.0069,-0.0025,-0.0090,-0.0007,39.9375,18.8250,-2.8500,
0.470592,-0.0146,0.0177,0.0069,-0.0037,-0.0121,0.0012,39.9375,18.8250,-2.8500,
0.484955,-0.0146,0.0177,0.0069,-0.0037,-0.0121,0.0012,39.9375,18.8250,-2.8500,
0.500829,-0.0146,0.0177,0.0069,-0.0037,-0.0121,0.0012,40.0312,18.7875,-2.9813,
0.523403,-0.0146,0.0177,0.0069,-0.0037,-0.0121,0.0012,40.0312,18.7875,-2.9813,
0.525964,-0.0146,0.0177,0.0069,-0.0037,-0.0121,0.0012,40.0312,18.7875,-2.9813,
0.527916,0.0655,0.0026,0.1088,-0.0037,-0.0121,0.0012,40.0312,18.7875,-2.9813,
0.542973,0.0655,0.0026,0.1088,0.0234,0.0033,-0.0000,40.0312,18.7875,-2.9813,
0.550081,0.0655,0.0026,0.1088,0.0234,0.0033,-0.0000,40.0312,18.7875,-2.9813,
0.558609,0.0655,0.0026,0.1088,0.0234,0.0033,-0.0000,40.1250,18.7688,-3.0188,
0.581991,0.0655,0.0026,0.1088,0.0234,0.0033,-0.0000,40.1250,18.7688,-3.0188,
0.583964,0.0655,0.0026,0.1088,0.0234,0.0033,-0.0000,40.1250,18.7688,-3.0188,
0.585414,0.0875,0.0592,-0.0222,0.0234,0.0033,-0.0000,40.1250,18.7688,-3.0188,
0.600331,0.0875,0.0592,-0.0222,0.0280,-0.0210,0.0031,40.1250,18.7688,-3.0188,
0.616856,0.0875,0.0592,-0.0222,0.0280,-0.0210,0.0031,40.1250,18.7688,-3.0188,
0.638292,0.0875,0.0592,-0.0222,0.0280,-0.0210,0.0031,40.1250,18.7688,-3.0188,
0.641042,0.0875,0.0592,-0.0222,0.0280,-0.0210,0.0031,40.1625,18.7313,-3.0750,
0.644389,-0.0385,-0.0297,0.0934,0.0280,-0.0210,0.0031,40.1625,18.7313,-3.0750,
0.647177,-0.0385,-0.0297,0.0934,0.0280,-0.0210,0.0031,40.1625,18.7313,-3.0750,
0.662393,-0.0385,-0.0297,0.0934,0.0245,-0.0360,-0.0062,40.1625,18.7313,-3.0750,
0.685620,-0.0385,-0.0297,0.0934,0.0245,-0.0360,-0.0062,40.1625,18.7313,-3.0750,
0.688557,-0.0385,-0.0297,0.0934,0.0245,-0.0360,-0.0062,40.1625,18.7313,-3.0750,
0.701350,-0.0385,-0.0297,0.0934,0.0245,-0.0360,-0.0062,40.2375,18.7688,-3.1875,
0.705409,0.2585,0.0003,-0.0772,0.0245,-0.0360,-0.0062,40.2375,18.7688,-3.1875,
0.708718,0.2585,0.0003,-0.0772,0.0245,-0.0360,-0.0062,40.2375,18.7688,-3.1875,
0.736974,0.2585,0.0003,-0.0772,0.0245,-0.0360,-0.0062,40.2375,18.7688,-3.1875,
0.742149,0.2585,0.0003,-0.0772,0.0448,0.0342,-0.0302,40.2375,18.7688,-3.1875,
0.750594,0.2585,0.0003,-0.0772,0.0448,0.0342,-0.0302,40.2375,18.7688,-3.1875,
0.757704,0.2585,0.0003,-0.0772,0.0448,0.0342,-0.0302,40.3313,18.7688,-3.3563,
0.760481,0.2687,-0.0644,-0.1047,0.0448,0.0342,-0.0302,40.3313,18.7688,-3.3563,
0.762440,0.2687,-0.0644,-0.1047,0.0448,0.0342,-0.0302,40.3313,18.7688,-3.3563,
0.801488,0.2687,-0.0644,-0.1047,0.0448,0.0342,-0.0302,40.3313,18.7688,-3.3563,
0.803752,0.2687,-0.0644,-0.1047,0.0131,-0.0182,-0.0583,40.3313,18.7688,-3.3563,
0.816810,0.2687,-0.0644,-0.1047,0.0131,-0.0182,-0.0583,40.3313,18.7688,-3.3563,
0.820817,0.0594,-0.0569,-0.0052,0.0131,-0.0182,-0.0583,40.3313,18.7688,-3.3563,
0.824156,0.0594,-0.0569,-0.0052,0.0131,-0.0182,-0.0583,40.3313,18.7688,-3.3563,
0.838180,0.0594,-0.0569,-0.0052,0.0131,-0.0182,-0.0583,40.4250,18.7688,-3.5625,
0.862646,0.0594,-0.0569,-0.0052,0.0131,-0.0182,-0.0583,40.4250,18.7688,-3.5625,
0.865190,0.0594,-0.0569,-0.0052,-0.0076,0.0142,-0.0630,40.4250,18.7688,-3.5625,
0.882231,0.0396,0.0864,-0.1247,-0.0076,0.0142,-0.0630,40.4250,18.7688,-3.5625,
0.884603,0.0396,0.0864,-0.1247,-0.0076,0.0142,-0.0630,40.4250,18.7688,-3.5625,
0.886228,0.0396,0.0864,-0.1247,-0.0076,0.0142,-0.0630,40.4250,18.7688,-3.5625,
0.898483,0.0396,0.0864,-0.1247,-0.0076,0.0142,-0.0630,40.3688,18.9375,-3.7125,
0.943797,0.0396,0.0864,-0.1247,-0.0076,0.0142,-0.0630,40.3688,18.9375,-3.7125,
0.947447,0.0396,0.0864,-0.1247,-0.0076,0.0142,-0.0630,40.3688,18.9375,-3.7125,
0.950614,0.0396,0.0864,-0.1247,-0.0076,0.0142,-0.0630,40.3688,18.9375,-3.7125,
0.953265,0.0396,0.0864,-0.1247,0.0211,0.0095,-0.0495,40.3688,18.9375,-3.7125,
0.957095,-0.1239,-0.0481,0.0441,0.0211,0.0095,-0.0495,40.3688,18.9375,-3.7125,
0.959744,-0.1239,-0.0481,0.0441,0.0211,0.0095,-0.0495,40.2563,18.8438,-3.7500,
1.004631,-0.1239,-0.0481,0.0441,0.0211,0.0095,-0.0495,40.2563,18.8438,-3.7500,
1.007125,-0.1239,-0.0481,0.0441,0.0211,0.0095,-0.0495,40.2563,18.8438,-3.7500,
1.009013,-0.1239,-0.0481,0.0441,0.0211,0.0095,-0.0495,40.2563,18.8438,-3.7500,
1.010760,-0.1239,-0.0481,0.0441,-0.0155,0.0037,-0.0272,40.2563,18.8438,-3.7500,
1.012940,-0.1245,0.1291,-0.0459,-0.0155,0.0037,-0.0272,40.2563,18.8438,-3.7500,
1.038652,-0.1245,0.1291,-0.0459,-0.0155,0.0037,-0.0272,40.2563,18.8438,-3.7500,
1.040595,-0.1245,0.1291,-0.0459,-0.0155,0.0037,-0.0272,40.1625,18.9000,-3.7500,
1.045131,-0.1245,0.1291,-0.0459,-0.0155,0.0037,-0.0272,40.1625,18.9000,-3.7500,
1.063248,-0.1245,0.1291,-0.0459,-0.0053,0.0156,-0.0115,40.1625,18.9000,-3.7500,
1.065995,-0.1245,0.1291,-0.0459,-0.0053,0.0156,-0.0115,40.1625,18.9000,-3.7500,
1.067956,-0.0368,0.0487,0.0362,-0.0053,0.0156,-0.0115,40.1625,18.9000,-3.7500,
1.084334,-0.0368,0.0487,0.0362,-0.0053,0.0156,-0.0115,40.1625,18.9000,-3.7500,
1.098653,-0.0368,0.0487,0.0362,-0.0053,0.0156,-0.0115,40.0312,18.8813,-3.8250,
1.123573,-0.0368,0.0487,0.0362,-0.0053,0.0156,-0.0115,40.0312,18.8813,-3.8250,
1.125847,-0.0368,0.0487,0.0362,-0.0053,0.0156,-0.0115,40.0312,18.8813,-3.8250,
1.127548,-0.0708,0.0567,0.0890,-0.0053,0.0156,-0.0115,40.0312,18.8813,-3.8250,
1.142595,-0.0708,0.0567,0.0890,0.0105,0.0044,0.0110,40.0312,18.8813,-3.8250,
1.152425,-0.0708,0.0567,0.0890,0.0105,0.0044,0.0110,40.0312,18.8813,-3.8250,
1.159543,-0.0708,0.0567,0.0890,0.0105,0.0044,0.0110,39.8250,18.7313,-4.0312,
1.181295,-0.0708,0.0567,0.0890,0.0105,0.0044,0.0110,39.8250,18.7313,-4.0312,
1.183774,-0.0708,0.0567,0.0890,0.0105,0.0044,0.0110,39.8250,18.7313,-4.0312,
1.185268,0.0358,0.0435,0.0286,0.0105,0.0044,0.0110,39.8250,18.7313,-4.0312,
1.201733,0.0358,0.0435,0.0286,0.0053,-0.0111,0.0052,39.8250,18.7313,-4.0312,
1.217016,0.0358,0.0435,0.0286,0.0053,-0.0111,0.0052,39.8250,18.7313,-4.0312,
1.238817,0.0358,0.0435,0.0286,0.0053,-0.0111,0.0052,39.8250,18.7313,-4.0312,
1.241162,0.0358,0.0435,0.0286,0.0053,-0.0111,0.0052,39.3938,18.4875,-4.2375,
1.244661,0.0358,0.0435,0.0286,0.0053,-0.0111,0.0052,39.3938,18.4875,-4.2375,
1.246102,0.0434,0.0680,0.0291,0.0053,-0.0111,0.0052,39.3938,18.4875,-4.2375,
1.264013,0.0434,0.0680,0.0291,0.0005,-0.0389,0.0355,39.3938,18.4875,-4.2375,
1.285085,0.0434,0.0680,0.0291,0.0005,-0.0389,0.0355,39.3938,18.4875,-4.2375,
1.287641,0.0434,0.0680,0.0291,0.0005,-0.0389,0.0355,39.3938,18.4875,-4.2375,
1.301203,0.0434,0.0680,0.0291,0.0005,-0.0389,0.0355,39.0938,18.2812,-4.4062,
1.303905,0.0302,0.0928,0.0492,0.0005,-0.0389,0.0355,39.0938,18.2812,-4.4062,
1.305563,0.0302,0.0928,0.0492,0.0005,-0.0389,0.0355,39.0938,18.2812,-4.4062,
1.340976,0.0302,0.0928,0.0492,0.0005,-0.0389,0.0355,39.0938,18.2812,-4.4062,
1.342662,0.0302,0.0928,0.0492,0.0176,-0.0572,0.0196,39.0938,18.2812,-4.4062,
1.349719,0.0302,0.0928,0.0492,0.0176,-0.0572,0.0196,39.0938,18.2812,-4.4062,
1.357921,0.0302,0.0928,0.0492,0.0176,-0.0572,0.0196,38.7563,18.2250,-4.5375,
1.361073,0.0302,0.0928,0.0492,0.0176,-0.0572,0.0196,38.7563,18.2250,-4.5375,
1.362475,0.1102,0.0305,0.1428,0.0176,-0.0572,0.0196,38.7563,18.2250,-4.5375,
1.403464,0.1102,0.0305,0.1428,0.0176,-0.0572,0.0196,38.7563,18.2250,-4.5375,
1.405239,0.1102,0.0305,0.1428,0.0281,-0.0357,0.0391,38.7563,18.2250,-4.5375,
1.417756,0.1102,0.0305,0.1428,0.0281,-0.0357,0.0391,38.7563,18.2250,-4.5375,
1.423588,0.0904,0.1062,0.1134,0.0281,-0.0357,0.0391,38.7563,18.2250,-4.5375,
1.425260,0.0904,0.1062,0.1134,0.0281,-0.0357,0.0391,38.7563,18.2250,-4.5375,
1.438483,0.0904,0.1062,0.1134,0.0281,-0.0357,0.0391,38.5875,18.1125,-4.6875,
1.450642,0.0904,0.1062,0.1134,0.0281,-0.0357,0.0391,38.5875,18.1125,-4.6875,
1.463558,0.0904,0.1062,0.1134,0.0292,-0.0292,-0.0108,38.5875,18.1125,-4.6875,
1.483179,0.0904,0.1062,0.1134,0.0292,-0.0292,-0.0108,38.5875,18.1125,-4.6875,
1.485600,0.0904,0.1062,0.1134,0.0292,-0.0292,-0.0108,38.5875,18.1125,-4.6875,
1.487411,0.1499,0.0513,0.0544,0.0292,-0.0292,-0.0108,38.5875,18.1125,-4.6875,
1.501126,0.1499,0.0513,0.0544,0.0292,-0.0292,-0.0108,38.4563,18.0188,-5.1000,
1.543772,0.1499,0.0513,0.0544,0.0292,-0.0292,-0.0108,38.4563,18.0188,-5.1000,
1.546120,0.1499,0.0513,0.0544,0.0292,-0.0292,-0.0108,38.4563,18.0188,-5.1000,
1.547675,0.1499,0.0513,0.0544,0.0292,-0.0292,-0.0108,38.4563,18.0188,-5.1000,
1.549217,0.1499,0.0513,0.0544,0.0530,-0.0350,-0.0176,38.4563,18.0188,-5.1000,
1.550842,-0.0091,-0.0354,0.1177,0.0530,-0.0350,-0.0176,38.4563,18.0188,-5.1000,
1.558247,-0.0091,-0.0354,0.1177,0.0530,-0.0350,-0.0176,38.2875,17.9625,-5.6250,
1.604536,-0.0091,-0.0354,0.1177,0.0530,-0.0350,-0.0176,38.2875,17.9625,-5.6250,
1.606897,0.0623,-0.0867,0.0069,0.0530,-0.0350,-0.0176,38.2875,17.9625,-5.6250,
1.608365,0.0623,-0.0867,0.0069,0.0530,-0.0350,-0.0176,38.2875,17.9625,-5.6250,
1.609613,0.0623,-0.0867,0.0069,0.0530,-0.0350,-0.0176,38.2875,17.9625,-5.6250,
1.610881,0.0623,-0.0867,0.0069,0.0728,-0.0066,-0.0021,38.2875,17.9625,-5.6250,
1.638382,0.0623,-0.0867,0.0069,0.0728,-0.0066,-0.0021,38.1750,17.8500,-6.0563,
1.642204,0.0623,-0.0867,0.0069,0.0728,-0.0066,-0.0021,38.1750,17.8500,-6.0563,
1.667095,0.0623,-0.0867,0.0069,0.0728,-0.0066,-0.0021,38.1750,17.8500,-6.0563,
1.669640,0.0623,-0.0867,0.0069,0.0728,-0.0066,-0.0021,38.1750,17.8500,-6.0563,
1.672988,0.0623,-0.0867,0.0069,0.0564,-0.0468,-0.0199,38.1750,17.8500,-6.0563,
1.675817,0.0131,-0.0236,-0.1268,0.0564,-0.0468,-0.0199,38.1750,17.8500,-6.0563,
1.684666,0.0131,-0.0236,-0.1268,0.0564,-0.0468,-0.0199,38.1750,17.8500,-6.0563,
1.700099,0.0131,-0.0236,-0.1268,0.0564,-0.0468,-0.0199,38.1000,17.9813,-6.3000,
1.724560,0.0096,-0.0935,-0.1161,0.0564,-0.0468,-0.0199,38.1000,17.9813,-6.3000,
1.727543,0.0096,-0.0935,-0.1161,0.0564,-0.0468,-0.0199,38.1000,17.9813,-6.3000,
1.728895,0.0096,-0.0935,-0.1161,0.0564,-0.0468,-0.0199,38.1000,17.9813,-6.3000,
1.744235,0.0096,-0.0935,-0.1161,0.0537,-0.1071,-0.0216,38.1000,17.9813,-6.3000,
1.751475,0.0096,-0.0935,-0.1161,0.0537,-0.1071,-0.0216,38.1000,17.9813,-6.3000,
1.759360,0.0096,-0.0935,-0.1161,0.0537,-0.1071,-0.0216,38.2500,18.1688,-6.5250,
1.782837,0.0604,-0.0758,-0.1870,0.0537,-0.1071,-0.0216,38.2500,18.1688,-6.5250,
1.785628,0.0604,-0.0758,-0.1870,0.0537,-0.1071,-0.0216,38.2500,18.1688,-6.5250,
1.787375,0.0604,-0.0758,-0.1870,0.0537,-0.1071,-0.0216,38.2500,18.1688,-6.5250,
1.804205,0.0604,-0.0758,-0.1870,0.0215,-0.1409,0.0159,38.2500,18.1688,-6.5250,
1.818501,0.0604,-0.0758,-0.1870,0.0215,-0.1409,0.0159,38.2500,18.1688,-6.5250,
1.838938,0.0604,-0.0758,-0.1870,0.0215,-0.1409,0.0159,38.2500,18.1688,-6.5250,
1.842319,0.0604,-0.0758,-0.1870,0.0215,-0.1409,0.0159,38.3063,18.2812,-6.8063,
1.844672,0.0182,-0.0138,-0.1686,0.0215,-0.1409,0.0159,38.3063,18.2812,-6.8063,
1.846840,0.0182,-0.0138,-0.1686,0.0215,-0.1409,0.0159,38.3063,18.2812,-6.8063,
1.866084,0.0182,-0.0138,-0.1686,-0.0153,-0.1798,0.0078,38.3063,18.2812,-6.8063,
1.883348,0.0182,-0.0138,-0.1686,-0.0153,-0.1798,0.0078,38.3063,18.2812,-6.8063,
1.885537,0.0182,-0.0138,-0.1686,-0.0153,-0.1798,0.0078,38.3063,18.2812,-6.8063,
1.900939,0.0182,-0.0138,-0.1686,-0.0153,-0.1798,0.0078,38.3250,18.2438,-7.2563,
1.903961,0.0182,-0.0138,-0.1686,-0.0153,-0.1798,0.0078,38.3250,18.2438,-7.2563,
1.905227,0.1348,0.0212,-0.1883,-0.0153,-0.1798,0.0078,38.3250,18.2438,-7.2563,
1.944768,0.1348,0.0212,-0.1883,-0.0153,-0.1798,0.0078,38.3250,18.2438,-7.2563,
1.947565,0.1348,0.0212,-0.1883,-0.0448,-0.2583,-0.0072,38.3250,18.2438,-7.2563,
1.955007,0.1348,0.0212,-0.1883,-0.0448,-0.2583,-0.0072,38.3250,18.2438,-7.2563,
1.958341,0.1348,0.0212,-0.1883,-0.0448,-0.2583,-0.0072,38.3813,18.3000,-7.6500,
1.967070,0.1348,0.0212,-0.1883,-0.0448,-0.2583,-0.0072,38.3813,18.3000,-7.6500,
1.969130,-0.0345,0.0471,-0.0529,-0.0448,-0.2583,-0.0072,38.3813,18.3000,-7.6500,
2.006332,-0.0345,0.0471,-0.0529,-0.0448,-0.2583,-0.0072,38.3813,18.3000,-7.6500,
2.008913,-0.0345,0.0471,-0.0529,-0.0904,-0.3866,0.0022,38.3813,18.3000,-7.6500,
2.019121,-0.0345,0.0471,-0.0529,-0.0904,-0.3866,0.0022,38.3813,18.3000,-7.6500,
2.023124,-0.0345,0.0471,-0.0529,-0.0904,-0.3866,0.0022,38.3813,18.3000,-7.6500,
2.025134,-0.0882,-0.0582,0.0552,-0.0904,-0.3866,0.0022,38.3813,18.3000,-7.6500,
2.038366,-0.0882,-0.0582,0.0552,-0.0904,-0.3866,0.0022,38.3063,18.3188,-8.0813,
2.044980,-0.0882,-0.0582,0.0552,-0.0904,-0.3866,0.0022,38.3063,18.3188,-8.0813,
2.068597,-0.0882,-0.0582,0.0552,-0.1635,-0.4935,0.0584,38.3063,18.3188,-8.0813,
2.084954,-0.0882,-0.0582,0.0552,-0.1635,-0.4935,0.0584,38.3063,18.3188,-8.0813,
2.087661,-0.0882,-0.0582,0.0552,-0.1635,-0.4935,0.0584,38.3063,18.3188,-8.0813,
2.089393,-0.1118,-0.0936,-0.0846,-0.1635,-0.4935,0.0584,38.3063,18.3188,-8.0813,
2.099974,-0.1118,-0.0936,-0.0846,-0.1635,-0.4935,0.0584,38.3063,18.3375,-8.4938,
2.144758,-0.1118,-0.0936,-0.0846,-0.1635,-0.4935,0.0584,38.3063,18.3375,-8.4938,
2.147360,-0.1118,-0.0936,-0.0846,-0.1635,-0.4935,0.0584,38.3063,18.3375,-8.4938,
2.149328,0.0744,-0.2192,-0.0081,-0.1635,-0.4935,0.0584,38.3063,18.3375,-8.4938,
2.150968,0.0744,-0.2192,-0.0081,-0.2019,-0.5959,0.0644,38.3063,18.3375,-8.4938,
2.153764,0.0744,-0.2192,-0.0081,-0.2019,-0.5959,0.0644,38.3063,18.3375,-8.4938,
2.159639,0.0744,-0.2192,-0.0081,-0.2019,-0.5959,0.0644,38.2875,18.3375,-9.0000,
2.205211,0.0744,-0.2192,-0.0081,-0.2019,-0.5959,0.0644,38.2875,18.3375,-9.0000,
2.208117,0.0744,-0.2192,-0.0081,-0.2019,-0.5959,0.0644,38.2875,18.3375,-9.0000,
2.209753,0.0744,-0.2192,-0.0081,-0.2019,-0.5959,0.0644,38.2875,18.3375,-9.0000,
2.211257,0.0744,-0.2192,-0.0081,-0.3086,-0.6038,0.1200,38.2875,18.3375,-9.0000,
2.213796,0.0981,-0.1715,-0.2471,-0.3086,-0.6038,0.1200,38.2875,18.3375,-9.0000,
2.239331,0.0981,-0.1715,-0.2471,-0.3086,-0.6038,0.1200,38.2875,18.3375,-9.0000,
2.242589,0.0981,-0.1715,-0.2471,-0.3086,-0.6038,0.1200,38.2313,18.3563,-9.8438,
2.266146,0.0981,-0.1715,-0.2471,-0.3086,-0.6038,0.1200,38.2313,18.3563,-9.8438,
2.268535,0.0981,-0.1715,-0.2471,-0.3086,-0.6038,0.1200,38.2313,18.3563,-9.8438,
2.270501,0.0981,-0.1715,-0.2471,-0.3227,-0.6199,0.1240,38.2313,18.3563,-9.8438,
2.272912,0.1114,-0.2104,-0.0599,-0.3227,-0.6199,0.1240,38.2313,18.3563,-9.8438,
2.284525,0.1114,-0.2104,-0.0599,-0.3227,-0.6199,0.1240,38.2313,18.3563,-9.8438,
2.298982,0.1114,-0.2104,-0.0599,-0.3227,-0.6199,0.1240,38.1000,18.3000,-10.7812,
2.325402,0.1114,-0.2104,-0.0599,-0.3227,-0.6199,0.1240,38.1000,18.3000,-10.7812,
2.327931,0.1114,-0.2104,-0.0599,-0.3227,-0.6199,0.1240,38.1000,18.3000,-10.7812,
2.329174,0.1160,0.1470,-0.3915,-0.3227,-0.6199,0.1240,38.1000,18.3000,-10.7812,
2.344442,0.1160,0.1470,-0.3915,-0.3489,-0.5551,0.1409,38.1000,18.3000,-10.7812,
2.350522,0.1160,0.1470,-0.3915,-0.3489,-0.5551,0.1409,38.1000,18.3000,-10.7812,
2.358750,0.1160,0.1470,-0.3915,-0.3489,-0.5551,0.1409,38.0625,18.1688,-11.8500,
2.366770,0.1160,0.1470,-0.3915,-0.3489,-0.5551,0.1409,38.0625,18.1688,-11.8500,
2.383825,-0.0747,0.3019,-0.1062,-0.3489,-0.5551,0.1409,38.0625,18.1688,-11.8500,
2.386904,-0.0747,0.3019,-0.1062,-0.3489,-0.5551,0.1409,38.0625,18.1688,-11.8500,
2.404070,-0.0747,0.3019,-0.1062,-0.3586,-0.7119,0.0803,38.0625,18.1688,-11.8500,
2.418647,-0.0747,0.3019,-0.1062,-0.3586,-0.7119,0.0803,38.0625,18.1688,-11.8500,
2.439395,-0.0747,0.3019,-0.1062,-0.3586,-0.7119,0.0803,38.0625,18.1688,-11.8500,
2.442417,-0.0747,0.3019,-0.1062,-0.3586,-0.7119,0.0803,37.9313,18.0375,-13.1250,
2.445506,-0.0747,0.3019,-0.1062,-0.3586,-0.7119,0.0803,37.9313,18.0375,-13.1250,
2.447068,-0.2885,0.4520,0.0879,-0.3586,-0.7119,0.0803,37.9313,18.0375,-13.1250,
2.463027,-0.2885,0.4520,0.0879,-0.0888,-0.7498,0.2172,37.9313,18.0375,-13.1250,
2.470043,-0.2885,0.4520,0.0879,-0.0888,-0.7498,0.2172,37.9313,18.0375,-13.1250,
2.484851,-0.2885,0.4520,0.0879,-0.0888,-0.7498,0.2172,37.9313,18.0375,-13.1250,
2.499801,-0.2885,0.4520,0.0879,-0.0888,-0.7498,0.2172,37.6500,17.7000,-14.4188,
2.502603,-0.2885,0.4520,0.0879,-0.0888,-0.7498,0.2172,37.6500,17.7000,-14.4188,
2.503993,-0.2952,0.7171,0.3949,-0.0888,-0.7498,0.2172,37.6500,17.7000,-14.4188,
2.545403,-0.2952,0.7171,0.3949,-0.0888,-0.7498,0.2172,37.6500,17.7000,-14.4188,
2.547510,-0.2952,0.7171,0.3949,0.1523,-0.8088,0.0691,37.6500,17.7000,-14.4188,
2.549920,-0.2952,0.7171,0.3949,0.1523,-0.8088,0.0691,37.6500,17.7000,-14.4188,
2.558871,-0.2952,0.7171,0.3949,0.1523,-0.8088,0.0691,37.3688,17.3438,-16.0125,
2.563834,-0.1392,1.4055,-0.4087,0.1523,-0.8088,0.0691,37.3688,17.3438,-16.0125,
2.566563,-0.1392,1.4055,-0.4087,0.1523,-0.8088,0.0691,37.3688,17.3438,-16.0125,
2.605354,-0.1392,1.4055,-0.4087,0.3677,-0.5190,0.0104,37.3688,17.3438,-16.0125,
2.609248,-0.1392,1.4055,-0.4087,0.3677,-0.5190,0.0104,37.3688,17.3438,-16.0125,
2.618344,-0.1392,1.4055,-0.4087,0.3677,-0.5190,0.0104,37.3688,17.3438,-16.0125,
2.623393,-0.1964,1.9743,-1.1239,0.3677,-0.5190,0.0104,37.3688,17.3438,-16.0125,
2.626594,-0.1964,1.9743,-1.1239,0.3677,-0.5190,0.0104,37.3688,17.3438,-16.0125,
2.638266,-0.1964,1.9743,-1.1239,0.3677,-0.5190,0.0104,36.7500,16.7625,-17.8875,
2.666605,-0.1964,1.9743,-1.1239,-0.0100,-0.4282,-0.0928,36.7500,16.7625,-17.8875,
2.670380,-0.1964,1.9743,-1.1239,-0.0100,-0.4282,-0.0928,36.7500,16.7625,-17.8875,
2.684597,-0.1964,1.9743,-1.1239,-0.0100,-0.4282,-0.0928,36.7500,16.7625,-17.8875,
2.687042,-0.1964,1.9743,-1.1239,-0.0100,-0.4282,-0.0928,36.7500,16.7625,-17.8875,
2.688671,-0.8123,2.4889,-2.2085,-0.0100,-0.4282,-0.0928,36.7500,16.7625,-17.8875,
2.700223,-0.8123,2.4889,-2.2085,-0.0100,-0.4282,-0.0928,35.9250,16.4813,-19.7812,
2.744942,-0.8123,2.4889,-2.2085,-0.0100,-0.4282,-0.0928,35.9250,16.4813,-19.7812,
2.747073,-0.8123,2.4889,-2.2085,-0.0100,-0.4282,-0.0928,35.9250,16.4813,-19.7812,
2.748576,-0.8123,2.4889,-2.2085,-0.0100,-0.4282,-0.0928,35.9250,16.4813,-19.7812,
2.749887,-0.8123,2.4889,-2.2085,-0.0681,-0.5045,-0.1158,35.9250,16.4813,-19.7812,
2.751789,-1.0463,1.5799,-1.1055,-0.0681,-0.5045,-0.1158,35.9250,16.4813,-19.7812,
2.759030,-1.0463,1.5799,-1.1055,-0.0681,-0.5045,-0.1158,35.0063,16.2188,-21.5063,
2.776021,-1.0463,1.5799,-1.1055,-0.0681,-0.5045,-0.1158,35.0063,16.2188,-21.5063,
2.806080,-1.0463,1.5799,-1.1055,-0.0635,-0.5395,0.0497,35.0063,16.2188,-21.5063,
2.809385,-1.3776,1.4827,-1.0118,-0.0635,-0.5395,0.0497,35.0063,16.2188,-21.5063,
2.812365,-1.3776,1.4827,-1.0118,-0.0635,-0.5395,0.0497,35.0063,16.2188,-21.5063,
2.813911,-1.3776,1.4827,-1.0118,-0.0635,-0.5395,0.0497,35.0063,16.2188,-21.5063,
2.839054,-1.3776,1.4827,-1.0118,-0.0635,-0.5395,0.0497,35.0063,16.2188,-21.5063,
2.841403,-1.3776,1.4827,-1.0118,-0.0635,-0.5395,0.0497,33.9000,16.1438,-23.0438,
2.866118,-1.3776,1.4827,-1.0118,-0.0047,-0.9102,-0.0574,33.9000,16.1438,-23.0438,
2.869043,-1.1282,1.4227,-0.4924,-0.0047,-0.9102,-0.0574,33.9000,16.1438,-23.0438,
2.871123,-1.1282,1.4227,-0.4924,-0.0047,-0.9102,-0.0574,33.9000,16.1438,-23.0438,
2.872769,-1.1282,1.4227,-0.4924,-0.0047,-0.9102,-0.0574,33.9000,16.1438,-23.0438,
2.884591,-1.1282,1.4227,-0.4924,-0.0047,-0.9102,-0.0574,33.9000,16.1438,-23.0438,
2.900328,-1.1282,1.4227,-0.4924,-0.0047,-0.9102,-0.0574,32.7188,16.1438,-24.3750,
2.926020,-1.1282,1.4227,-0.4924,-0.0047,-0.9102,-0.0574,32.7188,16.1438,-24.3750,
2.928724,-1.1282,1.4227,-0.4924,-0.0047,-0.9102,-0.0574,32.7188,16.1438,-24.3750,
2.930195,-0.4170,0.1423,-0.2479,-0.0047,-0.9102,-0.0574,32.7188,16.1438,-24.3750,
2.944586,-0.4170,0.1423,-0.2479,0.4043,-0.6079,-0.2650,32.7188,16.1438,-24.3750,
2.950565,-0.4170,0.1423,-0.2479,0.4043,-0.6079,-0.2650,32.7188,16.1438,-24.3750,
2.958797,-0.4170,0.1423,-0.2479,0.4043,-0.6079,-0.2650,31.4625,16.3125,-25.5750,
2.979980,-0.4170,0.1423,-0.2479,0.4043,-0.6079,-0.2650,31.4625,16.3125,-25.5750,
2.986044,0.6304,-0.8733,-0.1298,0.4043,-0.6079,-0.2650,31.4625,16.3125,-25.5750,
2.988454,0.6304,-0.8733,-0.1298,0.4043,-0.6079,-0.2650,31.4625,16.3125,-25.5750,
3.005298,0.6304,-0.8733,-0.1298,0.8852,-0.1131,-0.7897,31.4625,16.3125,-25.5750,
3.017451,0.6304,-0.8733,-0.1298,0.8852,-0.1131,-0.7897,31.4625,16.3125,-25.5750,
3.038601,0.6304,-0.8733,-0.1298,0.8852,-0.1131,-0.7897,31.4625,16.3125,-25.5750,
3.040923,0.6304,-0.8733,-0.1298,0.8852,-0.1131,-0.7897,30.2625,16.6500,-26.7750,
3.045899,1.1066,-2.2535,-1.1368,0.8852,-0.1131,-0.7897,30.2625,16.6500,-26.7750,
3.048694,1.1066,-2.2535,-1.1368,0.8852,-0.1131,-0.7897,30.2625,16.6500,-26.7750,
3.066089,1.1066,-2.2535,-1.1368,0.8146,0.2156,-1.2528,30.2625,16.6500,-26.7750,
3.085302,1.1066,-2.2535,-1.1368,0.8146,0.2156,-1.2528,30.2625,16.6500,-26.7750,
3.087537,1.1066,-2.2535,-1.1368,0.8146,0.2156,-1.2528,30.2625,16.6500,-26.7750,
3.101511,1.1066,-2.2535,-1.1368,0.8146,0.2156,-1.2528,28.9313,17.3625,-27.6000,
3.105933,1.1066,-2.2535,-1.1368,0.8146,0.2156,-1.2528,28.9313,17.3625,-27.6000,
3.107836,-0.4592,-3.5425,-2.6186,0.8146,0.2156,-1.2528,28.9313,17.3625,-27.6000,
3.144730,-0.4592,-3.5425,-2.6186,0.8146,0.2156,-1.2528,28.9313,17.3625,-27.6000,
3.146882,-0.4592,-3.5425,-2.6186,0.9103,0.1061,-1.6593,28.9313,17.3625,-27.6000,
3.153009,-0.4592,-3.5425,-2.6186,0.9103,0.1061,-1.6593,28.9313,17.3625,-27.6000,
3.158962,-0.4592,-3.5425,-2.6186,0.9103,0.1061,-1.6593,27.6563,18.4313,-28.1063,
3.166797,-2.0016,-5.8905,-1.8119,0.9103,0.1061,-1.6593,27.6563,18.4313,-28.1063,
3.169331,-2.0016,-5.8905,-1.8119,0.9103,0.1061,-1.6593,27.6563,18.4313,-28.1063,
3.204783,-2.0016,-5.8905,-1.8119,2.0915,0.7777,-2.5822,27.6563,18.4313,-28.1063,
3.207297,-2.0016,-5.8905,-1.8119,2.0915,0.7777,-2.5822,27.6563,18.4313,-28.1063,
3.217257,-2.0016,-5.8905,-1.8119,2.0915,0.7777,-2.5822,27.6563,18.4313,-28.1063,
3.224167,-1.1790,-4.4360,-2.8200,2.0915,0.7777,-2.5822,27.6563,18.4313,-28.1063,
3.226831,-1.1790,-4.4360,-2.8200,2.0915,0.7777,-2.5822,27.6563,18.4313,-28.1063,
3.238067,-1.1790,-4.4360,-2.8200,2.0915,0.7777,-2.5822,26.2875,19.4625,-28.7063,
3.266546,-1.1790,-4.4360,-2.8200,4.2528,2.3994,-2.8741,26.2875,19.4625,-28.7063,
3.269997,-1.1790,-4.4360,-2.8200,4.2528,2.3994,-2.8741,26.2875,19.4625,-28.7063,
3.286084,-1.1790,-4.4360,-2.8200,4.2528,2.3994,-2.8741,26.2875,19.4625,-28.7063,
3.288575,-1.1790,-4.4360,-2.8200,4.2528,2.3994,-2.8741,26.2875,19.4625,-28.7063,
3.290385,-1.2323,-2.9390,-1.1814,4.2528,2.3994,-2.8741,26.2875,19.4625,-28.7063,
3.300754,-1.2323,-2.9390,-1.1814,4.2528,2.3994,-2.8741,25.2375,20.1000,-29.1375,
3.344911,-2.0874,-1.8499,-5.4868,4.2528,2.3994,-2.8741,25.2375,20.1000,-29.1375,
3.347899,-2.0874,-1.8499,-5.4868,-0.9891,1.5191,-2.2178,25.2375,20.1000,-29.1375,
3.350075,-2.0874,-1.8499,-5.4868,-0.9891,1.5191,-2.2178,25.2375,20.1000,-29.1375,
3.351247,-2.0874,-1.8499,-5.4868,-0.9891,1.5191,-2.2178,25.2375,20.1000,-29.1375,
3.352515,-2.0874,-1.8499,-5.4868,-0.9891,1.5191,-2.2178,25.2375,20.1000,-29.1375,
3.358617,-2.0874,-1.8499,-5.4868,-0.9891,1.5191,-2.2178,24.6750,20.7000,-29.3813,
3.383766,-2.0874,-1.8499,-5.4868,-0.9891,1.5191,-2.2178,24.6750,20.7000,-29.3813,
3.386106,-2.0874,-1.8499,-5.4868,-0.9891,1.5191,-2.2178,24.6750,20.7000,-29.3813,
3.407018,-2.0874,-1.8499,-5.4868,5.5318,0.1717,-0.3765,24.6750,20.7000,-29.3813,
3.410522,-2.0874,-1.8499,-5.4868,5.5318,0.1717,-0.3765,24.6750,20.7000,-29.3813,
3.412423,9.5638,-0.6018,32.3036,5.5318,0.1717,-0.3765,24.6750,20.7000,-29.3813,
3.438696,9.5638,-0.6018,32.3036,5.5318,0.1717,-0.3765,24.6750,20.7000,-29.3813,
3.441063,9.5638,-0.6018,32.3036,5.5318,0.1717,-0.3765,24.6375,20.4563,-30.4688,
3.465492,9.5638,-0.6018,32.3036,5.5318,0.1717,-0.3765,24.6375,20.4563,-30.4688,
3.468346,9.5638,-0.6018,32.3036,5.5318,0.1717,-0.3765,24.6375,20.4563,-30.4688,
3.469737,9.5638,-0.6018,32.3036,-0.2998,-0.1761,-1.0015,24.6375,20.4563,-30.4688,
3.471414,-7.1954,26.6925,-10.1898,-0.2998,-0.1761,-1.0015,24.6375,20.4563,-30.4688,
3.489462,-7.1954,26.6925,-10.1898,-0.2998,-0.1761,-1.0015,24.6375,20.4563,-30.4688,
3.498851,-7.1954,26.6925,-10.1898,-0.2998,-0.1761,-1.0015,24.1688,20.3813,-31.2000,
3.525660,1.8946,-4.4828,-2.2553,-0.2998,-0.1761,-1.0015,24.1688,20.3813,-31.2000,
3.528236,1.8946,-4.4828,-2.2553,-0.2998,-0.1761,-1.0015,24.1688,20.3813,-31.2000,
3.529078,1.8946,-4.4828,-2.2553,-0.2998,-0.1761,-1.0015,24.1688,20.3813,-31.2000,
3.545150,1.8946,-4.4828,-2.2553,0.1002,-0.1923,0.2061,24.1688,20.3813,-31.2000,
3.552144,1.8946,-4.4828,-2.2553,0.1002,-0.1923,0.2061,24.1688,20.3813,-31.2000,
3.559711,1.8946,-4.4828,-2.2553,0.1002,-0.1923,0.2061,23.7375,19.8375,-31.5938,
3.585570,1.8946,-4.4828,-2.2553,0.1002,-0.1923,0.2061,23.7375,19.8375,-31.5938,
3.588251,1.8946,-4.4828,-2.2553,0.1002,-0.1923,0.2061,23.7375,19.8375,-31.5938,
3.590242,-2.8086,-7.3465,-5.8600,0.1002,-0.1923,0.2061,23.7375,19.8375,-31.5938,
3.606442,-2.8086,-7.3465,-5.8600,-1.3555,2.4160,0.7563,23.7375,19.8375,-31.5938,
3.617568,-2.8086,-7.3465,-5.8600,-1.3555,2.4160,0.7563,23.7375,19.8375,-31.5938,
3.638615,-2.8086,-7.3465,-5.8600,-1.3555,2.4160,0.7563,24.0750,19.2563,-31.3875,
3.644224,-2.8086,-7.3465,-5.8600,-1.3555,2.4160,0.7563,24.0750,19.2563,-31.3875,
3.646573,-0.3274,-5.4527,-2.3665,-1.3555,2.4160,0.7563,24.0750,19.2563,-31.3875,
3.649785,-0.3274,-5.4527,-2.3665,-1.3555,2.4160,0.7563,24.0750,19.2563,-31.3875,
3.666332,-0.3274,-5.4527,-2.3665,2.1659,-1.1521,1.3690,24.0750,19.2563,-31.3875,
3.685922,-0.3274,-5.4527,-2.3665,2.1659,-1.1521,1.3690,24.0750,19.2563,-31.3875,
3.689736,-0.3274,-5.4527,-2.3665,2.1659,-1.1521,1.3690,24.0750,19.2563,-31.3875,
3.702527,-0.3274,-5.4527,-2.3665,2.1659,-1.1521,1.3690,24.6750,17.9438,-31.4625,
3.705702,-0.3274,-5.4527,-2.3665,2.1659,-1.1521,1.3690,24.6750,17.9438,-31.4625,
3.707307,-2.2383,6.1698,-3.6732,2.1659,-1.1521,1.3690,24.6750,17.9438,-31.4625,
3.745423,-2.2383,6.1698,-3.6732,2.1659,-1.1521,1.3690,24.6750,17.9438,-31.4625,
3.750526,-2.2383,6.1698,-3.6732,-1.5775,0.1696,0.6060,24.6750,17.9438,-31.4625,
3.754305,-2.2383,6.1698,-3.6732,-1.5775,0.1696,0.6060,24.6750,17.9438,-31.4625,
3.759832,-2.2383,6.1698,-3.6732,-1.5775,0.1696,0.6060,25.6500,16.6688,-31.4250,
3.768648,-2.2383,6.1698,-3.6732,-1.5775,0.1696,0.6060,25.6500,16.6688,-31.4250,
3.772429,0.5428,6.0112,-6.4355,-1.5775,0.1696,0.6060,25.6500,16.6688,-31.4250,
3.806687,0.5428,6.0112,-6.4355,-3.2182,-0.4345,0.1987,25.6500,16.6688,-31.4250,
3.809915,0.5428,6.0112,-6.4355,-3.2182,-0.4345,0.1987,25.6500,16.6688,-31.4250,
3.819186,0.5428,6.0112,-6.4355,-3.2182,-0.4345,0.1987,25.6500,16.6688,-31.4250,
3.825105,-0.2328,2.5312,1.5913,-3.2182,-0.4345,0.1987,25.6500,16.6688,-31.4250,
3.827694,-0.2328,2.5312,1.5913,-3.2182,-0.4345,0.1987,25.6500,16.6688,-31.4250,
3.838360,-0.2328,2.5312,1.5913,-3.2182,-0.4345,0.1987,26.2500,16.2563,-31.1063,
3.866128,-0.2328,2.5312,1.5913,-3.2182,-0.4345,0.1987,26.2500,16.2563,-31.1063,
3.869980,-0.2328,2.5312,1.5913,-1.8339,-0.9820,0.3382,26.2500,16.2563,-31.1063,
3.885256,-0.2328,2.5312,1.5913,-1.8339,-0.9820,0.3382,26.2500,16.2563,-31.1063,
3.888571,-0.2328,2.5312,1.5913,-1.8339,-0.9820,0.3382,26.2500,16.2563,-31.1063,
3.890836,0.9895,0.5044,5.1627,-1.8339,-0.9820,0.3382,26.2500,16.2563,-31.1063,
3.903315,0.9895,0.5044,5.1627,-1.8339,-0.9820,0.3382,26.4563,16.0500,-30.9563,
3.945591,0.9895,0.5044,5.1627,-1.8339,-0.9820,0.3382,26.4563,16.0500,-30.9563,
3.949624,0.9895,0.5044,5.1627,-1.8339,-0.9820,0.3382,26.4563,16.0500,-30.9563,
3.952072,0.9895,0.5044,5.1627,-1.8339,-0.9820,0.3382,26.4563,16.0500,-30.9563,
3.954227,0.9895,0.5044,5.1627,-0.1248,0.7090,0.0725,26.4563,16.0500,-30.9563,
3.956789,3.0896,-0.5293,1.4715,-0.1248,0.7090,0.0725,26.4563,16.0500,-30.9563,
3.959741,3.0896,-0.5293,1.4715,-0.1248,0.7090,0.0725,26.2313,16.8938,-29.7188,
4.007737,3.0896,-0.5293,1.4715,-0.1248,0.7090,0.0725,26.2313,16.8938,-29.7188,
4.011635,1.1516,0.0290,-0.7072,-0.1248,0.7090,0.0725,26.2313,16.8938,-29.7188,
4.015124,1.1516,0.0290,-0.7072,-0.1248,0.7090,0.0725,26.2313,16.8938,-29.7188,
4.017760,1.1516,0.0290,-0.7072,-0.1248,0.7090,0.0725,26.2313,16.8938,-29.7188,
4.020042,1.1516,0.0290,-0.7072,-0.4775,1.0872,-0.1026,26.2313,16.8938,-29.7188,
4.039862,1.1516,0.0290,-0.7072,-0.4775,1.0872,-0.1026,26.2313,16.8938,-29.7188,
4.043957,1.1516,0.0290,-0.7072,-0.4775,1.0872,-0.1026,26.9063,17.5500,-28.3313,
4.047556,1.1516,0.0290,-0.7072,-0.4775,1.0872,-0.1026,26.9063,17.5500,-28.3313,
4.066579,1.1516,0.0290,-0.7072,-0.1852,0.6438,-0.1991,26.9063,17.5500,-28.3313,
4.070273,1.1516,0.0290,-0.7072,-0.1852,0.6438,-0.1991,26.9063,17.5500,-28.3313,
4.072079,0.5133,-2.0438,-0.0561,-0.1852,0.6438,-0.1991,26.9063,17.5500,-28.3313,
4.084921,0.5133,-2.0438,-0.0561,-0.1852,0.6438,-0.1991,26.9063,17.5500,-28.3313,
4.099326,0.5133,-2.0438,-0.0561,-0.1852,0.6438,-0.1991,27.4875,18.7313,-27.0188,
4.127287,0.5133,-2.0438,-0.0561,-0.1852,0.6438,-0.1991,27.4875,18.7313,-27.0188,
4.130195,0.5133,-2.0438,-0.0561,-0.1852,0.6438,-0.1991,27.4875,18.7313,-27.0188,
4.131837,-0.6057,-1.6270,1.4834,-0.1852,0.6438,-0.1991,27.4875,18.7313,-27.0188,
4.145235,-0.6057,-1.6270,1.4834,0.1708,-0.2827,-0.3221,27.4875,18.7313,-27.0188,
4.150422,-0.6057,-1.6270,1.4834,0.1708,-0.2827,-0.3221,27.4875,18.7313,-27.0188,
4.159143,-0.6057,-1.6270,1.4834,0.1708,-0.2827,-0.3221,27.5438,19.7250,-26.4000,
4.185123,-0.6057,-1.6270,1.4834,0.1708,-0.2827,-0.3221,27.5438,19.7250,-26.4000,
4.188492,-0.6057,-1.6270,1.4834,0.1708,-0.2827,-0.3221,27.5438,19.7250,-26.4000,
4.190429,-0.6769,0.1204,0.6996,0.1708,-0.2827,-0.3221,27.5438,19.7250,-26.4000,
4.207069,-0.6769,0.1204,0.6996,0.1942,-0.1300,-0.0492,27.5438,19.7250,-26.4000,
4.218567,-0.6769,0.1204,0.6996,0.1942,-0.1300,-0.0492,27.5438,19.7250,-26.4000,
4.239125,-0.6769,0.1204,0.6996,0.1942,-0.1300,-0.0492,27.4125,21.2438,-25.4813,
4.243347,-0.6769,0.1204,0.6996,0.1942,-0.1300,-0.0492,27.4125,21.2438,-25.4813,
4.245594,-0.6769,0.1204,0.6996,0.1942,-0.1300,-0.0492,27.4125,21.2438,-25.4813,
4.248306,-0.7505,0.1940,0.2811,0.1942,-0.1300,-0.0492,27.4125,21.2438,-25.4813,
4.266729,-0.7505,0.1940,0.2811,0.3599,-0.3289,0.0620,27.4125,21.2438,-25.4813,
4.285739,-0.7505,0.1940,0.2811,0.3599,-0.3289,0.0620,27.4125,21.2438,-25.4813,
4.300597,-0.7505,0.1940,0.2811,0.3599,-0.3289,0.0620,27.4125,21.2438,-25.4813,
4.304198,-0.7505,0.1940,0.2811,0.3599,-0.3289,0.0620,27.1500,22.5563,-24.6563,
4.307582,-0.7505,0.1940,0.2811,0.3599,-0.3289,0.0620,27.1500,22.5563,-24.6563,
4.309752,-1.0368,1.1248,-0.2725,0.3599,-0.3289,0.0620,27.1500,22.5563,-24.6563,
4.345210,-1.0368,1.1248,-0.2725,0.3599,-0.3289,0.0620,27.1500,22.5563,-24.6563,
4.348378,-1.0368,1.1248,-0.2725,0.1629,-0.6827,0.1575,27.1500,22.5563,-24.6563,
4.350749,-1.0368,1.1248,-0.2725,0.1629,-0.6827,0.1575,27.1500,22.5563,-24.6563,
4.358661,-1.0368,1.1248,-0.2725,0.1629,-0.6827,0.1575,27.0188,23.2313,-24.3000,
4.366487,-1.0368,1.1248,-0.2725,0.1629,-0.6827,0.1575,27.0188,23.2313,-24.3000,
4.369198,-0.7078,1.0930,-0.2609,0.1629,-0.6827,0.1575,27.0188,23.2313,-24.3000,
4.405531,-0.7078,1.0930,-0.2609,-0.1100,-0.5895,0.3734,27.0188,23.2313,-24.3000,
4.408709,-0.7078,1.0930,-0.2609,-0.1100,-0.5895,0.3734,27.0188,23.2313,-24.3000,
4.418465,-0.7078,1.0930,-0.2609,-0.1100,-0.5895,0.3734,27.0188,23.2313,-24.3000,
4.424321,-0.4420,1.3064,-0.6465,-0.1100,-0.5895,0.3734,27.0188,23.2313,-24.3000,
4.427086,-0.4420,1.3064,-0.6465,-0.1100,-0.5895,0.3734,27.0188,23.2313,-24.3000,
4.439160,-0.4420,1.3064,-0.6465,-0.1100,-0.5895,0.3734,26.9438,23.4375,-24.2438,
4.467386,-0.4420,1.3064,-0.6465,-0.1100,-0.5895,0.3734,26.9438,23.4375,-24.2438,
4.469864,-0.4420,1.3064,-0.6465,0.0343,-0.1960,0.4203,26.9438,23.4375,-24.2438,
4.484287,-0.4420,1.3064,-0.6465,0.0343,-0.1960,0.4203,26.9438,23.4375,-24.2438,
4.486745,-0.4420,1.3064,-0.6465,0.0343,-0.1960,0.4203,26.9438,23.4375,-24.2438,
4.487841,0.3150,0.3712,-0.1294,0.0343,-0.1960,0.4203,26.9438,23.4375,-24.2438,
4.499156,0.3150,0.3712,-0.1294,0.0343,-0.1960,0.4203,26.8875,23.4000,-24.3750,
4.546649,0.3150,0.3712,-0.1294,0.0343,-0.1960,0.4203,26.8875,23.4000,-24.3750,
4.551652,0.3150,0.3712,-0.1294,0.0343,-0.1960,0.4203,26.8875,23.4000,-24.3750,
4.554567,0.3150,0.3712,-0.1294,0.0343,-0.1960,0.4203,26.8875,23.4000,-24.3750,
4.559853,0.3150,0.3712,-0.1294,0.0863,-0.3381,0.1595,26.8875,23.4000,-24.3750,
4.563709,0.4177,0.4221,0.2915,0.0863,-0.3381,0.1595,26.8875,23.4000,-24.3750,
4.566411,0.4177,0.4221,0.2915,0.0863,-0.3381,0.1595,26.4750,23.1562,-24.9938,
4.606243,0.4177,0.4221,0.2915,0.0863,-0.3381,0.1595,26.4750,23.1562,-24.9938,
4.610691,0.4177,0.4221,0.2915,0.0863,-0.3381,0.1595,26.4750,23.1562,-24.9938,
4.612414,0.4177,0.4221,0.2915,0.0863,-0.3381,0.1595,26.4750,23.1562,-24.9938,
4.613423,0.4177,0.4221,0.2915,0.2243,0.1936,0.1626,26.4750,23.1562,-24.9938,
4.614711,1.2736,0.2238,0.8983,0.2243,0.1936,0.1626,26.4750,23.1562,-24.9938,
4.639038,1.2736,0.2238,0.8983,0.2243,0.1936,0.1626,26.1188,22.7063,-25.8375,
4.640606,1.2736,0.2238,0.8983,0.2243,0.1936,0.1626,26.1188,22.7063,-25.8375,
4.665203,1.2736,0.2238,0.8983,0.2243,0.1936,0.1626,26.1188,22.7063,-25.8375,
4.666577,1.2736,0.2238,0.8983,0.2243,0.1936,0.1626,26.1188,22.7063,-25.8375,
4.667476,1.2736,0.2238,0.8983,0.3225,0.4210,0.2488,26.1188,22.7063,-25.8375,
4.668670,0.0571,0.3862,0.0917,0.3225,0.4210,0.2488,26.1188,22.7063,-25.8375,
4.708544,0.0571,0.3862,0.0917,0.3225,0.4210,0.2488,25.9125,22.0312,-26.4375,
4.723226,0.0571,0.3862,0.0917,0.3225,0.4210,0.2488,25.9125,22.0312,-26.4375,
4.728612,0.0571,0.3862,0.0917,0.3225,0.4210,0.2488,25.9125,22.0312,-26.4375,
4.733680,0.0571,0.3862,0.0917,0.3225,0.4210,0.2488,25.9125,22.0312,-26.4375,
4.735167,-0.3602,0.5157,-0.2741,0.3225,0.4210,0.2488,25.9125,22.0312,-26.4375,
4.745157,-0.3602,0.5157,-0.2741,0.2020,0.2037,0.0794,25.9125,22.0312,-26.4375,
4.749401,-0.3602,0.5157,-0.2741,0.2020,0.2037,0.0794,25.9125,22.0312,-26.4375,
4.758962,-0.3602,0.5157,-0.2741,0.2020,0.2037,0.0794,25.9688,21.4125,-26.8688,
4.788044,-0.3602,0.5157,-0.2741,0.2020,0.2037,0.0794,25.9688,21.4125,-26.8688,
4.790657,-0.3602,0.5157,-0.2741,0.2020,0.2037,0.0794,25.9688,21.4125,-26.8688,
4.792288,-0.2943,0.5734,0.4129,0.2020,0.2037,0.0794,25.9688,21.4125,-26.8688,
4.807311,-0.2943,0.5734,0.4129,0.3447,0.0215,0.3407,25.9688,21.4125,-26.8688,
4.817482,-0.2943,0.5734,0.4129,0.3447,0.0215,0.3407,25.9688,21.4125,-26.8688,
4.837801,-0.2943,0.5734,0.4129,0.3447,0.0215,0.3407,25.9688,21.4125,-26.8688,
4.839650,-0.2943,0.5734,0.4129,0.3447,0.0215,0.3407,26.0625,20.5688,-27.3375,
4.845032,-0.0018,1.1010,-0.1885,0.3447,0.0215,0.3407,26.0625,20.5688,-27.3375,
4.846518,-0.0018,1.1010,-0.1885,0.3447,0.0215,0.3407,26.0625,20.5688,-27.3375,
4.867123,-0.0018,1.1010,-0.1885,0.2110,0.1087,0.2937,26.0625,20.5688,-27.3375,
4.883818,-0.0018,1.1010,-0.1885,0.2110,0.1087,0.2937,26.0625,20.5688,-27.3375,
4.899703,-0.0018,1.1010,-0.1885,0.2110,0.1087,0.2937,26.0625,20.5688,-27.3375,
4.902353,-0.0018,1.1010,-0.1885,0.2110,0.1087,0.2937,26.2500,19.6875,-27.6375,
4.904642,0.9203,0.5157,-0.0192,0.2110,0.1087,0.2937,26.2500,19.6875,-27.6375,
4.906701,0.9203,0.5157,-0.0192,0.2110,0.1087,0.2937,26.2500,19.6875,-27.6375,
4.944860,0.9203,0.5157,-0.0192,0.2110,0.1087,0.2937,26.2500,19.6875,-27.6375,
4.946619,0.9203,0.5157,-0.0192,0.2556,0.3896,0.2647,26.2500,19.6875,-27.6375,
4.949849,0.9203,0.5157,-0.0192,0.2556,0.3896,0.2647,26.2500,19.6875,-27.6375,
4.958071,0.9203,0.5157,-0.0192,0.2556,0.3896,0.2647,26.7375,18.7688,-27.7313,
4.966108,0.8946,0.0227,-0.5848,0.2556,0.3896,0.2647,26.7375,18.7688,-27.7313,
4.969620,0.8946,0.0227,-0.5848,0.2556,0.3896,0.2647,26.7375,18.7688,-27.7313,
5.006442,0.8946,0.0227,-0.5848,0.2285,0.2688,0.2560,26.7375,18.7688,-27.7313,
5.010005,0.8946,0.0227,-0.5848,0.2285,0.2688,0.2560,26.7375,18.7688,-27.7313,
5.017726,0.8946,0.0227,-0.5848,0.2285,0.2688,0.2560,26.7375,18.7688,-27.7313,
5.025023,0.8946,0.0227,-0.5848,0.2285,0.2688,0.2560,26.7375,18.7688,-27.7313,
5.026985,0.4719,0.2581,-0.0890,0.2285,0.2688,0.2560,26.7375,18.7688,-27.7313,
5.038001,0.4719,0.2581,-0.0890,0.2285,0.2688,0.2560,27.2438,17.9062,-27.9375,
5.067428,0.4719,0.2581,-0.0890,0.2285,0.2688,0.2560,27.2438,17.9062,-27.9375,
5.071813,0.4719,0.2581,-0.0890,0.6019,0.2233,0.4575,27.2438,17.9062,-27.9375,
5.084650,0.4719,0.2581,-0.0890,0.6019,0.2233,0.4575,27.2438,17.9062,-27.9375,
5.086723,0.4681,-0.2069,0.1525,0.6019,0.2233,0.4575,27.2438,17.9062,-27.9375,
5.088367,0.4681,-0.2069,0.1525,0.6019,0.2233,0.4575,27.2438,17.9062,-27.9375,
5.098269,0.4681,-0.2069,0.1525,0.6019,0.2233,0.4575,27.9375,16.8563,-27.9188,
5.146097,0.4681,-0.2069,0.1525,0.6019,0.2233,0.4575,27.9375,16.8563,-27.9188,
5.149509,0.4681,-0.2069,0.1525,0.6019,0.2233,0.4575,27.9375,16.8563,-27.9188,
5.151735,0.4681,-0.2069,0.1525,0.6019,0.2233,0.4575,27.9375,16.8563,-27.9188,
5.153862,0.3563,0.5411,-0.0288,0.6019,0.2233,0.4575,27.9375,16.8563,-27.9188,
5.157353,0.3563,0.5411,-0.0288,0.6502,0.1942,0.5198,27.9375,16.8563,-27.9188,
5.160203,0.3563,0.5411,-0.0288,0.6502,0.1942,0.5198,28.5938,15.4875,-27.8813,
5.207804,0.3563,0.5411,-0.0288,0.6502,0.1942,0.5198,28.5938,15.4875,-27.8813,
5.211690,0.3563,0.5411,-0.0288,0.6502,0.1942,0.5198,28.5938,15.4875,-27.8813,
5.214353,0.3563,0.5411,-0.0288,0.6502,0.1942,0.5198,28.5938,15.4875,-27.8813,
5.216785,-0.0466,0.6992,-0.0043,0.6502,0.1942,0.5198,28.5938,15.4875,-27.8813,
5.219827,-0.0466,0.6992,-0.0043,0.5152,-0.0055,0.6533,28.5938,15.4875,-27.8813,
5.238113,-0.0466,0.6992,-0.0043,0.5152,-0.0055,0.6533,29.2500,14.1563,-27.9938,
5.241287,-0.0466,0.6992,-0.0043,0.5152,-0.0055,0.6533,29.2500,14.1563,-27.9938,
5.267791,-0.0466,0.6992,-0.0043,0.0688,-0.2063,0.5085,29.2500,14.1563,-27.9938,
5.271785,-0.0763,0.8163,0.4216,0.0688,-0.2063,0.5085,29.2500,14.1563,-27.9938,
5.274382,-0.0763,0.8163,0.4216,0.0688,-0.2063,0.5085,29.2500,14.1563,-27.9938,
5.276377,-0.0763,0.8163,0.4216,0.0688,-0.2063,0.5085,29.2500,14.1563,-27.9938,
5.298452,-0.0763,0.8163,0.4216,0.0688,-0.2063,0.5085,29.7000,12.7500,-28.2750,
5.302341,-0.0763,0.8163,0.4216,0.0688,-0.2063,0.5085,29.7000,12.7500,-28.2750,
5.328406,-0.0763,0.8163,0.4216,0.0688,-0.2063,0.5085,29.7000,12.7500,-28.2750,
5.332116,-0.0763,0.8163,0.4216,0.0688,-0.2063,0.5085,29.7000,12.7500,-28.2750,
5.334667,0.0834,1.6285,-0.5837,0.0688,-0.2063,0.5085,29.7000,12.7500,-28.2750,
5.346391,0.0834,1.6285,-0.5837,-0.2834,-0.2304,0.5081,29.7000,12.7500,-28.2750,
5.353673,0.0834,1.6285,-0.5837,-0.2834,-0.2304,0.5081,29.7000,12.7500,-28.2750,
5.358496,0.0834,1.6285,-0.5837,-0.2834,-0.2304,0.5081,30.1875,11.3813,-28.3313,
5.386494,0.0834,1.6285,-0.5837,-0.2834,-0.2304,0.5081,30.1875,11.3813,-28.3313,
5.389877,0.0834,1.6285,-0.5837,-0.2834,-0.2304,0.5081,30.1875,11.3813,-28.3313,
5.392333,0.0528,0.4618,-0.0461,-0.2834,-0.2304,0.5081,30.1875,11.3813,-28.3313,
5.406471,0.0528,0.4618,-0.0461,-0.4163,-0.0809,0.4483,30.1875,11.3813,-28.3313,
5.420315,0.0528,0.4618,-0.0461,-0.4163,-0.0809,0.4483,30.1875,11.3813,-28.3313,
5.437851,0.0528,0.4618,-0.0461,-0.4163,-0.0809,0.4483,30.7500,9.9938,-28.5000,
5.441185,0.0528,0.4618,-0.0461,-0.4163,-0.0809,0.4483,30.7500,9.9938,-28.5000,
5.446128,0.0528,0.4618,-0.0461,-0.4163,-0.0809,0.4483,30.7500,9.9938,-28.5000,
5.448183,0.7743,1.3547,-1.0387,-0.4163,-0.0809,0.4483,30.7500,9.9938,-28.5000,
5.466380,0.7743,1.3547,-1.0387,-0.4955,0.0689,0.2890,30.7500,9.9938,-28.5000,
5.484194,0.7743,1.3547,-1.0387,-0.4955,0.0689,0.2890,30.7500,9.9938,-28.5000,
5.499864,0.7743,1.3547,-1.0387,-0.4955,0.0689,0.2890,31.0313,8.7938,-28.8000,
5.504107,0.7743,1.3547,-1.0387,-0.4955,0.0689,0.2890,31.0313,8.7938,-28.8000,
5.506647,0.4668,0.6127,0.5590,-0.4955,0.0689,0.2890,31.0313,8.7938,-28.8000,
5.509785,0.4668,0.6127,0.5590,-0.4955,0.0689,0.2890,31.0313,8.7938,-28.8000,
5.545746,0.4668,0.6127,0.5590,-0.3702,-0.2938,0.3150,31.0313,8.7938,-28.8000,
5.549391,0.4668,0.6127,0.5590,-0.3702,-0.2938,0.3150,31.0313,8.7938,-28.8000,
5.551919,0.4668,0.6127,0.5590,-0.3702,-0.2938,0.3150,31.0313,8.7938,-28.8000,
5.558654,0.4668,0.6127,0.5590,-0.3702,-0.2938,0.3150,31.1063,7.7625,-29.0063,
5.566177,-0.2072,0.9581,0.7803,-0.3702,-0.2938,0.3150,31.1063,7.7625,-29.0063,
5.569369,-0.2072,0.9581,0.7803,-0.3702,-0.2938,0.3150,31.1063,7.7625,-29.0063,
5.608683,-0.2072,0.9581,0.7803,-0.3702,-0.2938,0.3150,31.1063,7.7625,-29.0063,
5.612599,-0.2072,0.9581,0.7803,-0.2690,-0.3392,0.4351,31.1063,7.7625,-29.0063,
5.619556,-0.2072,0.9581,0.7803,-0.2690,-0.3392,0.4351,31.1063,7.7625,-29.0063,
5.626091,-0.2072,0.9581,0.7803,-0.2690,-0.3392,0.4351,31.1063,7.7625,-29.0063,
5.628212,-0.0889,0.4968,0.1192,-0.2690,-0.3392,0.4351,31.1063,7.7625,-29.0063,
5.638887,-0.0889,0.4968,0.1192,-0.2690,-0.3392,0.4351,31.1063,6.9000,-29.3625,
5.667820,-0.0889,0.4968,0.1192,-0.2690,-0.3392,0.4351,31.1063,6.9000,-29.3625,
5.671232,-0.0889,0.4968,0.1192,-0.1565,-0.0588,0.4666,31.1063,6.9000,-29.3625,
5.684787,-0.0889,0.4968,0.1192,-0.1565,-0.0588,0.4666,31.1063,6.9000,-29.3625,
5.688233,-0.3209,0.0189,-0.1429,-0.1565,-0.0588,0.4666,31.1063,6.9000,-29.3625,
5.692380,-0.3209,0.0189,-0.1429,-0.1565,-0.0588,0.4666,31.1063,6.9000,-29.3625,
5.701703,-0.3209,0.0189,-0.1429,-0.1565,-0.0588,0.4666,30.9938,6.3563,-29.7563,
5.748105,-0.3209,0.0189,-0.1429,-0.1565,-0.0588,0.4666,30.9938,6.3563,-29.7563,
5.752375,-0.9659,-1.8763,0.0772,-0.1565,-0.0588,0.4666,30.9938,6.3563,-29.7563,
5.755706,-0.9659,-1.8763,0.0772,-0.1565,-0.0588,0.4666,30.9938,6.3563,-29.7563,
5.757830,-0.9659,-1.8763,0.0772,0.2489,-0.1828,0.5559,30.9938,6.3563,-29.7563,
5.760747,-0.9659,-1.8763,0.0772,0.2489,-0.1828,0.5559,30.9938,6.3563,-29.7563,
5.763724,-0.9659,-1.8763,0.0772,0.2489,-0.1828,0.5559,30.9375,5.7750,-30.1313,
5.810423,-0.9659,-1.8763,0.0772,0.2489,-0.1828,0.5559,30.9375,5.7750,-30.1313,
5.814628,-0.9659,-1.8763,0.0772,0.2489,-0.1828,0.5559,30.9375,5.7750,-30.1313,
5.817282,-0.9659,-1.8763,0.0772,0.2489,-0.1828,0.5559,30.9375,5.7750,-30.1313,
5.821026,-0.9659,-1.8763,0.0772,0.6068,0.5708,0.2906,30.9375,5.7750,-30.1313,
5.824928,0.3748,-0.8182,-1.1638,0.6068,0.5708,0.2906,30.9375,5.7750,-30.1313,
5.832690,0.3748,-0.8182,-1.1638,0.6068,0.5708,0.2906,30.9375,5.7750,-30.1313,
5.840517,0.3748,-0.8182,-1.1638,0.6068,0.5708,0.2906,30.9750,4.9875,-30.2063,
5.869064,0.3748,-0.8182,-1.1638,0.6068,0.5708,0.2906,30.9750,4.9875,-30.2063,
5.872797,0.3748,-0.8182,-1.1638,0.6068,0.5708,0.2906,30.9750,4.9875,-30.2063,
5.874715,0.3748,-0.8182,-1.1638,0.0558,1.2236,-0.2681,30.9750,4.9875,-30.2063,
5.877111,3.1002,0.6285,-1.1965,0.0558,1.2236,-0.2681,30.9750,4.9875,-30.2063,
5.898914,3.1002,0.6285,-1.1965,0.0558,1.2236,-0.2681,31.2938,4.4813,-30.0563,
5.903829,3.1002,0.6285,-1.1965,0.0558,1.2236,-0.2681,31.2938,4.4813,-30.0563,
5.929131,3.1002,0.6285,-1.1965,0.0558,1.2236,-0.2681,31.2938,4.4813,-30.0563,
5.933106,3.1002,0.6285,-1.1965,0.0558,1.2236,-0.2681,31.2938,4.4813,-30.0563,
5.935245,-0.8600,1.6520,0.6228,0.0558,1.2236,-0.2681,31.2938,4.4813,-30.0563,
5.952365,-0.8600,1.6520,0.6228,-0.0740,0.2588,0.3670,31.2938,4.4813,-30.0563,
5.956998,-0.8600,1.6520,0.6228,-0.0740,0.2588,0.3670,31.2938,4.4813,-30.0563,
5.959513,-0.8600,1.6520,0.6228,-0.0740,0.2588,0.3670,31.5938,3.8625,-29.7000,
5.987221,-0.8600,1.6520,0.6228,-0.0740,0.2588,0.3670,31.5938,3.8625,-29.7000,
5.991237,-0.8600,1.6520,0.6228,-0.0740,0.2588,0.3670,31.5938,3.8625,-29.7000,
5.993856,0.0918,0.1080,0.2945,-0.0740,0.2588,0.3670,31.5938,3.8625,-29.7000,
6.009577,0.0918,0.1080,0.2945,-0.0733,0.5140,0.0975,31.5938,3.8625,-29.7000,
6.018259,0.0918,0.1080,0.2945,-0.0733,0.5140,0.0975,31.5938,3.8625,-29.7000,
6.038255,0.0918,0.1080,0.2945,-0.0733,0.5140,0.0975,32.0813,3.2250,-29.1563,
6.041929,0.0918,0.1080,0.2945,-0.0733,0.5140,0.0975,32.0813,3.2250,-29.1563,
6.046482,0.0918,0.1080,0.2945,-0.0733,0.5140,0.0975,32.0813,3.2250,-29.1563,
6.048753,1.0301,-0.5215,-0.4894,-0.0733,0.5140,0.0975,32.0813,3.2250,-29.1563,
6.068115,1.0301,-0.5215,-0.4894,-0.3214,0.5627,-0.5175,32.0813,3.2250,-29.1563,
6.085161,1.0301,-0.5215,-0.4894,-0.3214,0.5627,-0.5175,32.0813,3.2250,-29.1563,
6.099601,1.0301,-0.5215,-0.4894,-0.3214,0.5627,-0.5175,32.7938,2.7000,-28.4438,
6.104280,1.0301,-0.5215,-0.4894,-0.3214,0.5627,-0.5175,32.7938,2.7000,-28.4438,
6.106501,1.0301,-0.5215,-0.4894,-0.3214,0.5627,-0.5175,32.7938,2.7000,-28.4438,
6.108325,0.1132,0.8404,0.0186,-0.3214,0.5627,-0.5175,32.7938,2.7000,-28.4438,
6.148653,0.1132,0.8404,0.0186,-0.9958,-0.3166,-0.3611,32.7938,2.7000,-28.4438,
6.154159,0.1132,0.8404,0.0186,-0.9958,-0.3166,-0.3611,32.7938,2.7000,-28.4438,
6.156395,0.1132,0.8404,0.0186,-0.9958,-0.3166,-0.3611,32.7938,2.7000,-28.4438,
6.159076,0.1132,0.8404,0.0186,-0.9958,-0.3166,-0.3611,33.4313,2.7375,-27.7688,
6.168479,0.1132,0.8404,0.0186,-0.9958,-0.3166,-0.3611,33.4313,2.7375,-27.7688,
6.172164,-0.7324,1.0045,0.8705,-0.9958,-0.3166,-0.3611,33.4313,2.7375,-27.7688,
6.207620,-0.7324,1.0045,0.8705,-0.9958,-0.3166,-0.3611,33.4313,2.7375,-27.7688,
6.210824,-0.7324,1.0045,0.8705,-1.2175,-0.3125,-0.1442,33.4313,2.7375,-27.7688,
6.218762,-0.7324,1.0045,0.8705,-1.2175,-0.3125,-0.1442,33.4313,2.7375,-27.7688,
6.227021,-0.7324,1.0045,0.8705,-1.2175,-0.3125,-0.1442,33.4313,2.7375,-27.7688,
6.228840,-0.0764,1.3244,0.2365,-1.2175,-0.3125,-0.1442,33.4313,2.7375,-27.7688,
6.238750,-0.0764,1.3244,0.2365,-1.2175,-0.3125,-0.1442,34.0312,3.0750,-26.8875,
6.268382,-0.0764,1.3244,0.2365,-1.2175,-0.3125,-0.1442,34.0312,3.0750,-26.8875,
6.271663,-0.0764,1.3244,0.2365,-0.8086,-0.3025,0.6932,34.0312,3.0750,-26.8875,
6.285139,-0.0764,1.3244,0.2365,-0.8086,-0.3025,0.6932,34.0312,3.0750,-26.8875,
6.289170,0.1964,1.9325,0.2862,-0.8086,-0.3025,0.6932,34.0312,3.0750,-26.8875,
6.293324,0.1964,1.9325,0.2862,-0.8086,-0.3025,0.6932,34.0312,3.0750,-26.8875,
6.299300,0.1964,1.9325,0.2862,-0.8086,-0.3025,0.6932,34.6500,3.6375,-26.1000,
6.348382,0.1964,1.9325,0.2862,-0.8086,-0.3025,0.6932,34.6500,3.6375,-26.1000,
6.353152,0.1964,1.9325,0.2862,-0.8086,-0.3025,0.6932,34.6500,3.6375,-26.1000,
6.355425,0.1964,1.9325,0.2862,-0.8086,-0.3025,0.6932,34.6500,3.6375,-26.1000,
6.357552,0.1964,1.9325,0.2862,-0.7781,0.3680,0.1115,34.6500,3.6375,-26.1000,
6.360659,0.6717,-0.7811,-0.1081,-0.7781,0.3680,0.1115,34.6500,3.6375,-26.1000,
6.364343,0.6717,-0.7811,-0.1081,-0.7781,0.3680,0.1115,35.1562,4.5375,-25.4625,
6.410868,0.6717,-0.7811,-0.1081,-0.7911,0.0940,0.5111,35.1562,4.5375,-25.4625,
6.416060,0.1253,1.1664,0.6026,-0.7911,0.0940,0.5111,35.1562,4.5375,-25.4625,
6.419322,0.1253,1.1664,0.6026,-0.7911,0.0940,0.5111,35.1562,4.5375,-25.4625,
6.421820,0.1253,1.1664,0.6026,-0.7911,0.0940,0.5111,35.1562,4.5375,-25.4625,
6.424213,0.1253,1.1664,0.6026,-0.7911,0.0940,0.5111,35.1562,4.5375,-25.4625,
6.440239,0.1253,1.1664,0.6026,-0.7911,0.0940,0.5111,35.1562,4.5375,-25.4625,
6.444836,0.1253,1.1664,0.6026,-0.7911,0.0940,0.5111,35.4563,5.4188,-24.9188,
6.469412,0.1253,1.1664,0.6026,-0.7016,0.1008,0.3311,35.4563,5.4188,-24.9188,
6.474069,0.6943,0.3008,-0.2359,-0.7016,0.1008,0.3311,35.4563,5.4188,-24.9188,
6.477042,0.6943,0.3008,-0.2359,-0.7016,0.1008,0.3311,35.4563,5.4188,-24.9188,
6.479392,0.6943,0.3008,-0.2359,-0.7016,0.1008,0.3311,35.4563,5.4188,-24.9188,
6.499287,0.6943,0.3008,-0.2359,-0.7016,0.1008,0.3311,35.7000,6.3750,-24.3375,
6.504554,0.6943,0.3008,-0.2359,-0.7016,0.1008,0.3311,35.7000,6.3750,-24.3375,
6.530428,0.6943,0.3008,-0.2359,-0.7016,0.1008,0.3311,35.7000,6.3750,-24.3375,
6.534643,0.6943,0.3008,-0.2359,-0.7016,0.1008,0.3311,35.7000,6.3750,-24.3375,
6.536786,0.3185,0.4787,0.8529,-0.7016,0.1008,0.3311,35.7000,6.3750,-24.3375,
6.547242,0.3185,0.4787,0.8529,-0.6517,-0.1049,0.4781,35.7000,6.3750,-24.3375,
6.551000,0.3185,0.4787,0.8529,-0.6517,-0.1049,0.4781,35.7000,6.3750,-24.3375,
6.559427,0.3185,0.4787,0.8529,-0.6517,-0.1049,0.4781,35.9625,7.4438,-23.8125,
6.587830,0.3185,0.4787,0.8529,-0.6517,-0.1049,0.4781,35.9625,7.4438,-23.8125,
6.590373,0.3185,0.4787,0.8529,-0.6517,-0.1049,0.4781,35.9625,7.4438,-23.8125,
6.591835,0.2589,0.7309,0.6181,-0.6517,-0.1049,0.4781,35.9625,7.4438,-23.8125,
6.608586,0.2589,0.7309,0.6181,-0.9909,-0.0922,0.4994,35.9625,7.4438,-23.8125,
6.617938,0.2589,0.7309,0.6181,-0.9909,-0.0922,0.4994,35.9625,7.4438,-23.8125,
6.638728,0.2589,0.7309,0.6181,-0.9909,-0.0922,0.4994,36.0000,8.1562,-23.5688,
6.642609,0.2589,0.7309,0.6181,-0.9909,-0.0922,0.4994,36.0000,8.1562,-23.5688,
6.649877,0.5908,0.7331,0.4002,-0.9909,-0.0922,0.4994,36.0000,8.1562,-23.5688,
6.654059,0.5908,0.7331,0.4002,-0.9909,-0.0922,0.4994,36.0000,8.1562,-23.5688,
6.668760,0.5908,0.7331,0.4002,-0.9228,0.0644,0.8193,36.0000,8.1562,-23.5688,
6.684051,0.5908,0.7331,0.4002,-0.9228,0.0644,0.8193,36.0000,8.1562,-23.5688,
6.700470,0.5908,0.7331,0.4002,-0.9228,0.0644,0.8193,36.2250,8.4563,-23.0625,
6.703908,0.5908,0.7331,0.4002,-0.9228,0.0644,0.8193,36.2250,8.4563,-23.0625,
6.706365,0.5908,0.7331,0.4002,-0.9228,0.0644,0.8193,36.2250,8.4563,-23.0625,
6.708039,0.5425,0.6268,0.5523,-0.9228,0.0644,0.8193,36.2250,8.4563,-23.0625,
6.727825,0.5425,0.6268,0.5523,-0.6678,-0.3361,1.0997,36.2250,8.4563,-23.0625,
6.749357,0.5425,0.6268,0.5523,-0.6678,-0.3361,1.0997,36.2250,8.4563,-23.0625,
6.751820,0.5425,0.6268,0.5523,-0.6678,-0.3361,1.0997,36.2250,8.4563,-23.0625,
6.758111,0.5425,0.6268,0.5523,-0.6678,-0.3361,1.0997,36.5625,8.2125,-22.8000,
6.767252,0.4239,0.6988,0.4831,-0.6678,-0.3361,1.0997,36.5625,8.2125,-22.8000,
6.770918,0.4239,0.6988,0.4831,-0.6678,-0.3361,1.0997,36.5625,8.2125,-22.8000,
6.789197,0.4239,0.6988,0.4831,-0.6678,-0.3361,1.0997,36.5625,8.2125,-22.8000,
6.807931,0.4239,0.6988,0.4831,-0.5769,-0.3182,0.9290,36.5625,8.2125,-22.8000,
6.817017,0.4239,0.6988,0.4831,-0.5769,-0.3182,0.9290,36.5625,8.2125,-22.8000,
6.826396,0.4239,0.6988,0.4831,-0.5769,-0.3182,0.9290,36.5625,8.2125,-22.8000,
6.827921,0.4889,-0.1714,0.5788,-0.5769,-0.3182,0.9290,36.5625,8.2125,-22.8000,
6.837620,0.4889,-0.1714,0.5788,-0.5769,-0.3182,0.9290,36.7875,7.8375,-22.4438,
6.851046,0.4889,-0.1714,0.5788,-0.5769,-0.3182,0.9290,36.7875,7.8375,-22.4438,
6.868244,0.4889,-0.1714,0.5788,-0.6629,-0.3922,0.6709,36.7875,7.8375,-22.4438,
6.884344,0.4889,-0.1714,0.5788,-0.6629,-0.3922,0.6709,36.7875,7.8375,-22.4438,
6.887654,0.0834,0.4508,0.5697,-0.6629,-0.3922,0.6709,36.7875,7.8375,-22.4438,
6.889644,0.0834,0.4508,0.5697,-0.6629,-0.3922,0.6709,36.7875,7.8375,-22.4438,
6.899011,0.0834,0.4508,0.5697,-0.6629,-0.3922,0.6709,36.9563,7.2000,-22.2563,
6.928837,0.0834,0.4508,0.5697,-0.4862,-0.2727,0.6636,36.9563,7.2000,-22.2563,
6.933458,0.0834,0.4508,0.5697,-0.4862,-0.2727,0.6636,36.9563,7.2000,-22.2563,
6.951200,0.4674,0.1896,-0.0258,-0.4862,-0.2727,0.6636,36.9563,7.2000,-22.2563,
6.956185,0.4674,0.1896,-0.0258,-0.4862,-0.2727,0.6636,36.9563,7.2000,-22.2563,
6.958928,0.4674,0.1896,-0.0258,-0.4862,-0.2727,0.6636,36.9563,7.2000,-22.2563,
6.961492,0.4674,0.1896,-0.0258,-0.4862,-0.2727,0.6636,37.0312,6.2250,-22.2750,
7.010468,0.4674,0.1896,-0.0258,-0.4862,-0.2727,0.6636,37.0312,6.2250,-22.2750,
7.014251,0.4674,0.1896,-0.0258,-0.4862,-0.2727,0.6636,37.0312,6.2250,-22.2750,
7.016820,0.4674,0.1896,-0.0258,-0.4862,-0.2727,0.6636,37.0312,6.2250,-22.2750,
7.019238,0.4674,0.1896,-0.0258,-0.3463,-0.0504,0.3305,37.0312,6.2250,-22.2750,
7.022724,0.1034,-0.2250,-0.2001,-0.3463,-0.0504,0.3305,37.0312,6.2250,-22.2750,
7.039857,0.1034,-0.2250,-0.2001,-0.3463,-0.0504,0.3305,37.0312,6.2250,-22.2750,
7.044044,0.1034,-0.2250,-0.2001,-0.3463,-0.0504,0.3305,37.0312,5.4563,-22.4062,
7.055517,0.1034,-0.2250,-0.2001,-0.3463,-0.0504,0.3305,37.0312,5.4563,-22.4062,
7.069452,0.1034,-0.2250,-0.2001,-0.0025,-0.1131,0.1750,37.0312,5.4563,-22.4062,
7.073183,0.3102,0.3853,0.5325,-0.0025,-0.1131,0.1750,37.0312,5.4563,-22.4062,
7.076447,0.3102,0.3853,0.5325,-0.0025,-0.1131,0.1750,37.0312,5.4563,-22.4062,
7.097981,0.3102,0.3853,0.5325,-0.0025,-0.1131,0.1750,36.9375,4.5188,-22.7063,
7.101102,0.3102,0.3853,0.5325,-0.0025,-0.1131,0.1750,36.9375,4.5188,-22.7063,
7.130138,0.3102,0.3853,0.5325,-0.0025,-0.1131,0.1750,36.9375,4.5188,-22.7063,
7.134290,0.3102,0.3853,0.5325,-0.0025,-0.1131,0.1750,36.9375,4.5188,-22.7063,
7.136810,0.3102,0.3853,0.5325,-0.0651,0.0344,-0.2391,36.9375,4.5188,-22.7063,
7.139831,0.0880,-0.3582,-0.1451,-0.0651,0.0344,-0.2391,36.9375,4.5188,-22.7063,
7.152326,0.0880,-0.3582,-0.1451,-0.0651,0.0344,-0.2391,36.9375,4.5188,-22.7063,
7.159431,0.0880,-0.3582,-0.1451,-0.0651,0.0344,-0.2391,36.9750,3.6938,-22.8750,
7.187340,0.0880,-0.3582,-0.1451,-0.0651,0.0344,-0.2391,36.9750,3.6938,-22.8750,
7.190421,0.0880,-0.3582,-0.1451,-0.0651,0.0344,-0.2391,36.9750,3.6938,-22.8750,
7.192607,-0.0385,-0.0570,0.5351,-0.0651,0.0344,-0.2391,36.9750,3.6938,-22.8750,
7.208318,-0.0385,-0.0570,0.5351,-0.1875,0.1704,-0.2147,36.9750,3.6938,-22.8750,
7.217127,-0.0385,-0.0570,0.5351,-0.1875,0.1704,-0.2147,36.9750,3.6938,-22.8750,
7.238410,-0.0385,-0.0570,0.5351,-0.1875,0.1704,-0.2147,36.9750,3.6938,-22.8750,
7.240972,-0.0385,-0.0570,0.5351,-0.1875,0.1704,-0.2147,36.9000,3.0375,-23.2313,
7.249596,0.5000,0.2782,0.1181,-0.1875,0.1704,-0.2147,36.9000,3.0375,-23.2313,
7.253374,0.5000,0.2782,0.1181,-0.1875,0.1704,-0.2147,36.9000,3.0375,-23.2313,
7.270044,0.5000,0.2782,0.1181,-0.2114,0.1975,-0.1422,36.9000,3.0375,-23.2313,
7.289027,0.5000,0.2782,0.1181,-0.2114,0.1975,-0.1422,36.9000,3.0375,-23.2313,
7.300328,0.5000,0.2782,0.1181,-0.2114,0.1975,-0.1422,36.9000,3.0375,-23.2313,
7.303725,0.5000,0.2782,0.1181,-0.2114,0.1975,-0.1422,36.8438,2.7188,-23.3250,
7.307971,0.1816,0.5243,0.0957,-0.2114,0.1975,-0.1422,36.8438,2.7188,-23.3250,
7.310276,0.1816,0.5243,0.0957,-0.2114,0.1975,-0.1422,36.8438,2.7188,-23.3250,
7.329131,0.1816,0.5243,0.0957,-0.0586,0.0268,0.3769,36.8438,2.7188,-23.3250,
7.352290,0.1816,0.5243,0.0957,-0.0586,0.0268,0.3769,36.8438,2.7188,-23.3250,
7.356089,0.1816,0.5243,0.0957,-0.0586,0.0268,0.3769,36.8438,2.7188,-23.3250,
7.361312,0.1816,0.5243,0.0957,-0.0586,0.0268,0.3769,36.7313,2.5500,-23.4750,
7.370126,0.9658,1.0916,0.1766,-0.0586,0.0268,0.3769,36.7313,2.5500,-23.4750,
7.375482,0.9658,1.0916,0.1766,-0.0586,0.0268,0.3769,36.7313,2.5500,-23.4750,
7.409122,0.9658,1.0916,0.1766,-0.0586,0.0268,0.3769,36.7313,2.5500,-23.4750,
7.412460,0.9658,1.0916,0.1766,-0.1556,0.1235,0.3366,36.7313,2.5500,-23.4750,
7.418989,0.9658,1.0916,0.1766,-0.1556,0.1235,0.3366,36.7313,2.5500,-23.4750,
7.426601,0.2323,-1.1508,0.8344,-0.1556,0.1235,0.3366,36.7313,2.5500,-23.4750,
7.439575,0.2323,-1.1508,0.8344,-0.1556,0.1235,0.3366,36.7313,2.5500,-23.4750,
7.441341,0.2323,-1.1508,0.8344,-0.1556,0.1235,0.3366,36.8250,2.4188,-23.3438,
7.463211,0.2323,-1.1508,0.8344,-0.1556,0.1235,0.3366,36.8250,2.4188,-23.3438,
7.467336,0.2323,-1.1508,0.8344,-0.4199,-0.1938,0.2272,36.8250,2.4188,-23.3438,
7.489534,0.2323,-1.1508,0.8344,-0.4199,-0.1938,0.2272,36.8250,2.4188,-23.3438,
7.490568,0.1150,0.2761,0.8415,-0.4199,-0.1938,0.2272,36.8250,2.4188,-23.3438,
7.491377,0.1150,0.2761,0.8415,-0.4199,-0.1938,0.2272,36.8250,2.4188,-23.3438,
7.499454,0.1150,0.2761,0.8415,-0.4199,-0.1938,0.2272,36.8438,2.4750,-23.2500,
7.527428,0.1150,0.2761,0.8415,-0.4199,-0.1938,0.2272,36.8438,2.4750,-23.2500,
7.528233,0.1150,0.2761,0.8415,-0.4326,-0.8764,0.8141,36.8438,2.4750,-23.2500,
7.548707,0.1150,0.2761,0.8415,-0.4326,-0.8764,0.8141,36.8438,2.4750,-23.2500,
7.549366,0.1150,0.2761,0.8415,-0.4326,-0.8764,0.8141,36.8438,2.4750,-23.2500,
7.549716,0.9496,0.3515,0.9214,-0.4326,-0.8764,0.8141,36.8438,2.4750,-23.2500,
7.557248,0.9496,0.3515,0.9214,-0.4326,-0.8764,0.8141,36.7500,2.3438,-23.6813,
7.608656,0.9496,0.3515,0.9214,-0.4326,-0.8764,0.8141,36.7500,2.3438,-23.6813,
7.611215,0.9496,0.3515,0.9214,-0.4326,-0.8764,0.8141,36.7500,2.3438,-23.6813,
7.612521,0.9496,0.3515,0.9214,-0.4326,-0.8764,0.8141,36.7500,2.3438,-23.6813,
7.613617,0.9496,0.3515,0.9214,-0.5984,-1.2402,0.7976,36.7500,2.3438,-23.6813,
7.615837,-0.0257,0.1399,0.9986,-0.5984,-1.2402,0.7976,36.7500,2.3438,-23.6813,
7.637387,-0.0257,0.1399,0.9986,-0.5984,-1.2402,0.7976,36.7500,2.3438,-23.6813,
7.639897,-0.0257,0.1399,0.9986,-0.5984,-1.2402,0.7976,36.4125,2.1188,-24.2250,
7.666210,-0.0257,0.1399,0.9986,-0.5984,-1.2402,0.7976,36.4125,2.1188,-24.2250,
7.666904,-0.2048,-0.8253,1.2713,-0.5984,-1.2402,0.7976,36.4125,2.1188,-24.2250,
7.667492,-0.2048,-0.8253,1.2713,-0.5984,-1.2402,0.7976,36.4125,2.1188,-24.2250,
7.667833,-0.2048,-0.8253,1.2713,-0.6651,-1.5596,0.9296,36.4125,2.1188,-24.2250,
7.697143,-0.2048,-0.8253,1.2713,-0.6651,-1.5596,0.9296,35.7000,1.7250,-25.1625,
7.697903,-0.2048,-0.8253,1.2713,-0.6651,-1.5596,0.9296,35.7000,1.7250,-25.1625,
7.729002,-0.2048,-0.8253,1.2713,-0.6651,-1.5596,0.9296,35.7000,1.7250,-25.1625,
7.731367,-0.2048,-0.8253,1.2713,-0.6651,-1.5596,0.9296,35.7000,1.7250,-25.1625,
7.733202,-0.2048,-0.8253,1.2713,-0.3828,-1.0407,0.8465,35.7000,1.7250,-25.1625,
7.735282,2.2551,-2.2409,1.6478,-0.3828,-1.0407,0.8465,35.7000,1.7250,-25.1625,
7.749620,2.2551,-2.2409,1.6478,-0.3828,-1.0407,0.8465,35.7000,1.7250,-25.1625,
7.758149,2.2551,-2.2409,1.6478,-0.3828,-1.0407,0.8465,34.6125,1.1250,-26.5125,
7.790378,2.2551,-2.2409,1.6478,-0.3828,-1.0407,0.8465,34.6125,1.1250,-26.5125,
7.794732,2.2551,-2.2409,1.6478,-0.3828,-1.0407,0.8465,34.6125,1.1250,-26.5125,
7.797106,2.3532,-0.7071,1.3325,-0.3828,-1.0407,0.8465,34.6125,1.1250,-26.5125,
7.809164,2.3532,-0.7071,1.3325,-0.4008,-0.8123,1.0519,34.6125,1.1250,-26.5125,
7.819130,2.3532,-0.7071,1.3325,-0.4008,-0.8123,1.0519,34.6125,1.1250,-26.5125,
7.838323,2.3532,-0.7071,1.3325,-0.4008,-0.8123,1.0519,33.2438,0.4125,-28.1625,
7.841446,2.3532,-0.7071,1.3325,-0.4008,-0.8123,1.0519,33.2438,0.4125,-28.1625,
7.849515,2.3532,-0.7071,1.3325,-0.4008,-0.8123,1.0519,33.2438,0.4125,-28.1625,
7.852373,0.9047,0.3827,0.4798,-0.4008,-0.8123,1.0519,33.2438,0.4125,-28.1625,
7.870214,0.9047,0.3827,0.4798,-0.4412,-1.4721,1.2778,33.2438,0.4125,-28.1625,
7.884347,0.9047,0.3827,0.4798,-0.4412,-1.4721,1.2778,33.2438,0.4125,-28.1625,
7.899438,0.9047,0.3827,0.4798,-0.4412,-1.4721,1.2778,33.2438,0.4125,-28.1625,
7.902079,0.9047,0.3827,0.4798,-0.4412,-1.4721,1.2778,31.3688,-0.5250,-30.0938,
7.908042,0.9047,0.3827,0.4798,-0.4412,-1.4721,1.2778,31.3688,-0.5250,-30.0938,
7.909667,2.0626,-2.0092,0.7455,-0.4412,-1.4721,1.2778,31.3688,-0.5250,-30.0938,
7.929951,2.0626,-2.0092,0.7455,-0.2495,-0.9283,0.2303,31.3688,-0.5250,-30.0938,
7.949835,2.0626,-2.0092,0.7455,-0.2495,-0.9283,0.2303,31.3688,-0.5250,-30.0938,
7.952319,2.0626,-2.0092,0.7455,-0.2495,-0.9283,0.2303,31.3688,-0.5250,-30.0938,
7.959124,2.0626,-2.0092,0.7455,-0.2495,-0.9283,0.2303,28.9688,-1.5188,-32.2875,
7.968985,0.4436,-2.2239,1.2065,-0.2495,-0.9283,0.2303,28.9688,-1.5188,-32.2875,
7.973035,0.4436,-2.2239,1.2065,-0.2495,-0.9283,0.2303,28.9688,-1.5188,-32.2875,
8.009907,0.4436,-2.2239,1.2065,-0.4328,0.4547,-0.5689,28.9688,-1.5188,-32.2875,
8.015093,0.4436,-2.2239,1.2065,-0.4328,0.4547,-0.5689,28.9688,-1.5188,-32.2875,
8.019027,0.4436,-2.2239,1.2065,-0.4328,0.4547,-0.5689,28.9688,-1.5188,-32.2875,
8.028783,0.4436,-2.2239,1.2065,-0.4328,0.4547,-0.5689,28.9688,-1.5188,-32.2875,
8.032123,0.0397,-0.6736,-0.1231,-0.4328,0.4547,-0.5689,28.9688,-1.5188,-32.2875,
8.038356,0.0397,-0.6736,-0.1231,-0.4328,0.4547,-0.5689,26.6063,-1.9313,-34.5563,
8.070167,0.0397,-0.6736,-0.1231,-0.4328,0.4547,-0.5689,26.6063,-1.9313,-34.5563,
8.073767,0.0397,-0.6736,-0.1231,-0.5331,0.1101,-0.5190,26.6063,-1.9313,-34.5563,
8.076518,0.0397,-0.6736,-0.1231,-0.5331,0.1101,-0.5190,26.6063,-1.9313,-34.5563,
8.089087,-2.0069,0.5830,0.3250,-0.5331,0.1101,-0.5190,26.6063,-1.9313,-34.5563,
8.093584,-2.0069,0.5830,0.3250,-0.5331,0.1101,-0.5190,26.6063,-1.9313,-34.5563,
8.098572,-2.0069,0.5830,0.3250,-0.5331,0.1101,-0.5190,24.4500,-2.0625,-36.2812,
8.131387,-2.0069,0.5830,0.3250,-0.5331,0.1101,-0.5190,24.4500,-2.0625,-36.2812,
8.134974,-2.0069,0.5830,0.3250,-0.5788,-0.0984,0.0231,24.4500,-2.0625,-36.2812,
8.150171,-2.0069,0.5830,0.3250,-0.5788,-0.0984,0.0231,24.4500,-2.0625,-36.2812,
8.154065,-2.0069,0.5830,0.3250,-0.5788,-0.0984,0.0231,24.4500,-2.0625,-36.2812,
8.156407,-1.2327,0.3626,-0.5784,-0.5788,-0.0984,0.0231,24.4500,-2.0625,-36.2812,
8.159684,-1.2327,0.3626,-0.5784,-0.5788,-0.0984,0.0231,22.3875,-1.8563,-37.8375,
8.175996,-1.2327,0.3626,-0.5784,-0.5788,-0.0984,0.0231,22.3875,-1.8563,-37.8375,
8.211329,-1.2327,0.3626,-0.5784,-0.5788,-0.0984,0.0231,22.3875,-1.8563,-37.8375,
8.215001,-1.2327,0.3626,-0.5784,-0.5788,-0.0984,0.0231,22.3875,-1.8563,-37.8375,
8.217547,-1.2327,0.3626,-0.5784,-0.7881,-0.3461,0.1662,22.3875,-1.8563,-37.8375,
8.220333,-0.9085,0.5595,-0.1313,-0.7881,-0.3461,0.1662,22.3875,-1.8563,-37.8375,
8.239930,-0.9085,0.5595,-0.1313,-0.7881,-0.3461,0.1662,20.4750,-1.3688,-38.9062,
8.245053,-0.9085,0.5595,-0.1313,-0.7881,-0.3461,0.1662,20.4750,-1.3688,-38.9062,
8.255425,-0.9085,0.5595,-0.1313,-0.7881,-0.3461,0.1662,20.4750,-1.3688,-38.9062,
8.271059,-0.9085,0.5595,-0.1313,-0.7376,-0.3383,0.0706,20.4750,-1.3688,-38.9062,
8.274295,-0.9085,0.5595,-0.1313,-0.7376,-0.3383,0.0706,20.4750,-1.3688,-38.9062,
8.275637,0.3900,0.0700,0.7766,-0.7376,-0.3383,0.0706,20.4750,-1.3688,-38.9062,
8.298924,0.3900,0.0700,0.7766,-0.7376,-0.3383,0.0706,20.4750,-1.3688,-38.9062,
8.301952,0.3900,0.0700,0.7766,-0.7376,-0.3383,0.0706,18.8438,-0.5813,-39.5063,
8.331236,0.3900,0.0700,0.7766,-0.7191,0.1228,0.0411,18.8438,-0.5813,-39.5063,
8.335541,1.9151,0.0660,0.1727,-0.7191,0.1228,0.0411,18.8438,-0.5813,-39.5063,
8.338185,1.9151,0.0660,0.1727,-0.7191,0.1228,0.0411,18.8438,-0.5813,-39.5063,
8.340073,1.9151,0.0660,0.1727,-0.7191,0.1228,0.0411,18.8438,-0.5813,-39.5063,
8.351871,1.9151,0.0660,0.1727,-0.7191,0.1228,0.0411,18.8438,-0.5813,-39.5063,
8.358549,1.9151,0.0660,0.1727,-0.7191,0.1228,0.0411,17.5125,0.4500,-40.0125,
8.380058,1.9151,0.0660,0.1727,-0.7191,0.1228,0.0411,17.5125,0.4500,-40.0125,
8.389603,1.9151,0.0660,0.1727,-0.7191,0.1228,0.0411,17.5125,0.4500,-40.0125,
8.393542,0.5833,0.5476,0.8980,-0.7191,0.1228,0.0411,17.5125,0.4500,-40.0125,
8.409196,0.5833,0.5476,0.8980,-0.6924,0.1245,0.0597,17.5125,0.4500,-40.0125,
8.417627,0.5833,0.5476,0.8980,-0.6924,0.1245,0.0597,17.5125,0.4500,-40.0125,
8.438945,0.5833,0.5476,0.8980,-0.6924,0.1245,0.0597,16.7812,2.0813,-40.0312,
8.441711,0.5833,0.5476,0.8980,-0.6924,0.1245,0.0597,16.7812,2.0813,-40.0312,
8.448616,0.5833,0.5476,0.8980,-0.6924,0.1245,0.0597,16.7812,2.0813,-40.0312,
8.450970,0.5467,0.8786,0.6241,-0.6924,0.1245,0.0597,16.7812,2.0813,-40.0312,
8.469869,0.5467,0.8786,0.6241,-0.6143,0.0999,-0.0828,16.7812,2.0813,-40.0312,
8.484344,0.5467,0.8786,0.6241,-0.6143,0.0999,-0.0828,16.7812,2.0813,-40.0312,
8.499423,0.5467,0.8786,0.6241,-0.6143,0.0999,-0.0828,16.3313,3.9938,-40.0875,
8.503212,0.5467,0.8786,0.6241,-0.6143,0.0999,-0.0828,16.3313,3.9938,-40.0875,
8.508225,1.2102,0.8475,0.8032,-0.6143,0.0999,-0.0828,16.3313,3.9938,-40.0875,
8.510770,1.2102,0.8475,0.8032,-0.6143,0.0999,-0.0828,16.3313,3.9938,-40.0875,
8.530291,1.2102,0.8475,0.8032,-0.3570,0.6523,-0.3074,16.3313,3.9938,-40.0875,
8.550810,1.2102,0.8475,0.8032,-0.3570,0.6523,-0.3074,16.3313,3.9938,-40.0875,
8.554913,1.2102,0.8475,0.8032,-0.3570,0.6523,-0.3074,16.3313,3.9938,-40.0875,
8.558419,1.2102,0.8475,0.8032,-0.3570,0.6523,-0.3074,16.0875,5.5688,-39.7875,
8.569899,1.2171,1.5496,-0.0747,-0.3570,0.6523,-0.3074,16.0875,5.5688,-39.7875,
8.574022,1.2171,1.5496,-0.0747,-0.3570,0.6523,-0.3074,16.0875,5.5688,-39.7875,
8.609325,1.2171,1.5496,-0.0747,-0.3570,0.6523,-0.3074,16.0875,5.5688,-39.7875,
8.611771,1.2171,1.5496,-0.0747,-0.2924,0.5864,-0.5375,16.0875,5.5688,-39.7875,
8.618084,1.2171,1.5496,-0.0747,-0.2924,0.5864,-0.5375,16.0875,5.5688,-39.7875,
8.629254,0.4889,0.9875,0.4150,-0.2924,0.5864,-0.5375,16.0875,5.5688,-39.7875,
8.632215,0.4889,0.9875,0.4150,-0.2924,0.5864,-0.5375,16.0875,5.5688,-39.7875,
8.638552,0.4889,0.9875,0.4150,-0.2924,0.5864,-0.5375,15.8438,7.1813,-39.4500,
8.670452,0.4889,0.9875,0.4150,-0.2924,0.5864,-0.5375,15.8438,7.1813,-39.4500,
8.674084,0.4889,0.9875,0.4150,-0.4362,0.9315,-0.6801,15.8438,7.1813,-39.4500,
8.684865,0.4889,0.9875,0.4150,-0.4362,0.9315,-0.6801,15.8438,7.1813,-39.4500,
8.690913,0.4889,0.9875,0.4150,-0.4362,0.9315,-0.6801,15.8438,7.1813,-39.4500,
8.694040,-0.1764,1.2603,-0.2048,-0.4362,0.9315,-0.6801,15.8438,7.1813,-39.4500,
8.701992,-0.1764,1.2603,-0.2048,-0.4362,0.9315,-0.6801,15.8813,8.8313,-38.9062,
8.730513,-0.1764,1.2603,-0.2048,-0.4362,0.9315,-0.6801,15.8813,8.8313,-38.9062,
8.733986,-0.1764,1.2603,-0.2048,-0.1216,0.3301,-0.3989,15.8813,8.8313,-38.9062,
8.749021,-0.1764,1.2603,-0.2048,-0.1216,0.3301,-0.3989,15.8813,8.8313,-38.9062,
8.750975,-0.1764,1.2603,-0.2048,-0.1216,0.3301,-0.3989,15.8813,8.8313,-38.9062,
8.752455,-0.9647,0.5344,0.4190,-0.1216,0.3301,-0.3989,15.8813,8.8313,-38.9062,
8.758073,-0.9647,0.5344,0.4190,-0.1216,0.3301,-0.3989,16.1625,10.5938,-38.4000,
8.811719,-0.9647,0.5344,0.4190,-0.1677,0.0290,-0.5110,16.1625,10.5938,-38.4000,
8.816412,0.3347,0.6528,0.5115,-0.1677,0.0290,-0.5110,16.1625,10.5938,-38.4000,
8.819670,0.3347,0.6528,0.5115,-0.1677,0.0290,-0.5110,16.1625,10.5938,-38.4000,
8.822919,0.3347,0.6528,0.5115,-0.1677,0.0290,-0.5110,16.1625,10.5938,-38.4000,
8.825202,0.3347,0.6528,0.5115,-0.1677,0.0290,-0.5110,16.1625,10.5938,-38.4000,
8.839884,0.3347,0.6528,0.5115,-0.1677,0.0290,-0.5110,16.3500,12.2250,-37.9125,
8.844784,0.3347,0.6528,0.5115,-0.1677,0.0290,-0.5110,16.3500,12.2250,-37.9125,
8.870131,0.3347,0.6528,0.5115,-0.4088,0.4647,-0.6698,16.3500,12.2250,-37.9125,
8.874510,0.3347,0.6528,0.5115,-0.4088,0.4647,-0.6698,16.3500,12.2250,-37.9125,
8.876757,0.3347,0.6528,0.5115,-0.4088,0.4647,-0.6698,16.3500,12.2250,-37.9125,
8.878953,-0.8439,-0.2230,-0.5773,-0.4088,0.4647,-0.6698,16.3500,12.2250,-37.9125,
8.899915,-0.8439,-0.2230,-0.5773,-0.4088,0.4647,-0.6698,16.3500,12.2250,-37.9125,
8.904297,-0.8439,-0.2230,-0.5773,-0.4088,0.4647,-0.6698,16.6125,13.8563,-37.2375,
8.931413,-0.8439,-0.2230,-0.5773,-0.4088,0.4647,-0.6698,16.6125,13.8563,-37.2375,
8.935271,-0.8439,-0.2230,-0.5773,-0.4088,0.4647,-0.6698,16.6125,13.8563,-37.2375,
8.937444,-0.8439,-0.2230,-0.5773,-0.6486,0.5605,-0.7332,16.6125,13.8563,-37.2375,
8.940256,-1.6783,-0.7697,0.2594,-0.6486,0.5605,-0.7332,16.6125,13.8563,-37.2375,
8.950693,-1.6783,-0.7697,0.2594,-0.6486,0.5605,-0.7332,16.6125,13.8563,-37.2375,
8.958791,-1.6783,-0.7697,0.2594,-0.6486,0.5605,-0.7332,16.8375,15.3000,-36.3375,
8.990159,-1.3009,0.0062,0.7154,-0.6486,0.5605,-0.7332,16.8375,15.3000,-36.3375,
8.994575,-1.3009,0.0062,0.7154,-0.6486,0.5605,-0.7332,16.8375,15.3000,-36.3375,
8.996534,-1.3009,0.0062,0.7154,-0.6486,0.5605,-0.7332,16.8375,15.3000,-36.3375,
9.010609,-1.3009,0.0062,0.7154,-0.7308,0.2253,-0.7851,16.8375,15.3000,-36.3375,
9.017910,-1.3009,0.0062,0.7154,-0.7308,0.2253,-0.7851,16.8375,15.3000,-36.3375,
9.039188,-1.3009,0.0062,0.7154,-0.7308,0.2253,-0.7851,16.8375,15.3000,-36.3375,
9.041900,-1.3009,0.0062,0.7154,-0.7308,0.2253,-0.7851,17.1188,17.0438,-35.3250,
9.049768,-1.3009,0.0062,0.7154,-0.7308,0.2253,-0.7851,17.1188,17.0438,-35.3250,
9.052927,0.4333,1.0386,-1.6563,-0.7308,0.2253,-0.7851,17.1188,17.0438,-35.3250,
9.070037,0.4333,1.0386,-1.6563,-1.0778,1.2613,-0.9646,17.1188,17.0438,-35.3250,
9.084697,0.4333,1.0386,-1.6563,-1.0778,1.2613,-0.9646,17.1188,17.0438,-35.3250,
9.100821,0.4333,1.0386,-1.6563,-1.0778,1.2613,-0.9646,17.3438,19.1438,-34.0500,
9.106063,0.4333,1.0386,-1.6563,-1.0778,1.2613,-0.9646,17.3438,19.1438,-34.0500,
9.113332,0.7166,-1.7274,0.7031,-1.0778,1.2613,-0.9646,17.3438,19.1438,-34.0500,
9.117544,0.7166,-1.7274,0.7031,-1.0778,1.2613,-0.9646,17.3438,19.1438,-34.0500,
9.132497,0.7166,-1.7274,0.7031,-0.7694,0.7382,-0.6392,17.3438,19.1438,-34.0500,
9.153107,0.7166,-1.7274,0.7031,-0.7694,0.7382,-0.6392,17.3438,19.1438,-34.0500,
9.157057,0.7166,-1.7274,0.7031,-0.7694,0.7382,-0.6392,17.3438,19.1438,-34.0500,
9.167767,0.7166,-1.7274,0.7031,-0.7694,0.7382,-0.6392,20.0063,20.8875,-33.5250,
9.173241,0.7166,-1.7274,0.7031,-0.7694,0.7382,-0.6392,20.0063,20.8875,-33.5250,
9.176040,-0.1222,-1.2066,1.5029,-0.7694,0.7382,-0.6392,20.0063,20.8875,-33.5250,
9.197552,-0.1222,-1.2066,1.5029,-0.7694,0.7382,-0.6392,20.0063,20.8875,-33.5250,
9.210273,-0.1222,-1.2066,1.5029,-0.2744,0.7617,-0.4776,20.0063,20.8875,-33.5250,
9.217714,-0.1222,-1.2066,1.5029,-0.2744,0.7617,-0.4776,20.0063,20.8875,-33.5250,
9.222982,-0.1222,-1.2066,1.5029,-0.2744,0.7617,-0.4776,19.9875,22.7625,-32.0625,
9.229556,-0.2376,0.5544,0.4972,-0.2744,0.7617,-0.4776,19.9875,22.7625,-32.0625,
9.231973,-0.2376,0.5544,0.4972,-0.2744,0.7617,-0.4776,19.9875,22.7625,-32.0625,
9.273218,-0.2376,0.5544,0.4972,-0.2744,0.7617,-0.4776,19.9875,22.7625,-32.0625,
9.276906,-0.2376,0.5544,0.4972,0.0102,0.6005,-0.5189,19.9875,22.7625,-32.0625,
9.286553,-0.2376,0.5544,0.4972,0.0102,0.6005,-0.5189,19.9875,22.7625,-32.0625,
9.290807,-0.8413,1.9013,-0.0810,0.0102,0.6005,-0.5189,19.9875,22.7625,-32.0625,
9.294737,-0.8413,1.9013,-0.0810,0.0102,0.6005,-0.5189,19.9875,22.7625,-32.0625,
9.305295,-0.8413,1.9013,-0.0810,0.0102,0.6005,-0.5189,19.8375,24.5438,-30.5625,
9.331302,-0.8413,1.9013,-0.0810,0.0102,0.6005,-0.5189,19.8375,24.5438,-30.5625,
9.334136,-0.8413,1.9013,-0.0810,-0.8095,0.5831,-0.7117,19.8375,24.5438,-30.5625,
9.350328,-0.8413,1.9013,-0.0810,-0.8095,0.5831,-0.7117,19.8375,24.5438,-30.5625,
9.354118,-0.8413,1.9013,-0.0810,-0.8095,0.5831,-0.7117,19.8375,24.5438,-30.5625,
9.356300,-0.2017,0.5608,-0.2215,-0.8095,0.5831,-0.7117,19.8375,24.5438,-30.5625,
9.367117,-0.2017,0.5608,-0.2215,-0.8095,0.5831,-0.7117,19.8188,26.5313,-28.8750,
9.401429,-0.2017,0.5608,-0.2215,-0.8095,0.5831,-0.7117,19.8188,26.5313,-28.8750,
9.405560,-0.2017,0.5608,-0.2215,-0.8095,0.5831,-0.7117,19.8188,26.5313,-28.8750,
9.411784,-0.2017,0.5608,-0.2215,0.0011,0.8962,-0.2811,19.8188,26.5313,-28.8750,
9.416046,-0.1838,0.7995,-0.0323,0.0011,0.8962,-0.2811,19.8188,26.5313,-28.8750,
9.418972,-0.1838,0.7995,-0.0323,0.0011,0.8962,-0.2811,19.8188,26.5313,-28.8750,
9.428547,-0.1838,0.7995,-0.0323,0.0011,0.8962,-0.2811,19.7063,28.3688,-27.0750,
9.472197,-0.1838,0.7995,-0.0323,0.0011,0.8962,-0.2811,19.7063,28.3688,-27.0750,
9.475743,-0.3531,0.9594,0.1741,0.0011,0.8962,-0.2811,19.7063,28.3688,-27.0750,
9.478798,-0.3531,0.9594,0.1741,0.0011,0.8962,-0.2811,19.7063,28.3688,-27.0750,
9.481056,-0.3531,0.9594,0.1741,0.0011,0.8962,-0.2811,19.7063,28.3688,-27.0750,
9.484849,-0.3531,0.9594,0.1741,-0.2475,0.5128,-0.1996,19.7063,28.3688,-27.0750,
9.505337,-0.3531,0.9594,0.1741,-0.2475,0.5128,-0.1996,19.7063,28.3688,-27.0750,
9.508967,-0.3531,0.9594,0.1741,-0.2475,0.5128,-0.1996,19.2188,30.8625,-24.6563,
9.531883,-0.3531,0.9594,0.1741,-0.2475,0.5128,-0.1996,19.2188,30.8625,-24.6563,
9.534440,-0.3531,0.9594,0.1741,-0.2475,0.5128,-0.1996,19.2188,30.8625,-24.6563,
9.535823,-0.3531,0.9594,0.1741,0.0599,0.7894,-0.0868,19.2188,30.8625,-24.6563,
9.537526,0.6266,-0.6801,0.3318,0.0599,0.7894,-0.0868,19.2188,30.8625,-24.6563,
9.552044,0.6266,-0.6801,0.3318,0.0599,0.7894,-0.0868,19.2188,30.8625,-24.6563,
9.568891,0.6266,-0.6801,0.3318,0.0599,0.7894,-0.0868,19.1813,32.3063,-22.8938,
9.591935,0.6266,-0.6801,0.3318,0.0599,0.7894,-0.0868,19.1813,32.3063,-22.8938,
9.594711,0.6266,-0.6801,0.3318,0.0599,0.7894,-0.0868,19.1813,32.3063,-22.8938,
9.596707,-0.0764,-0.5224,0.3513,0.0599,0.7894,-0.0868,19.1813,32.3063,-22.8938,
9.610891,-0.0764,-0.5224,0.3513,-0.0317,0.5807,-0.0292,19.1813,32.3063,-22.8938,
9.618581,-0.0764,-0.5224,0.3513,-0.0317,0.5807,-0.0292,19.1813,32.3063,-22.8938,
9.624432,-0.0764,-0.5224,0.3513,-0.0317,0.5807,-0.0292,19.2188,33.2625,-21.4125,
9.649938,-0.0764,-0.5224,0.3513,-0.0317,0.5807,-0.0292,19.2188,33.2625,-21.4125,
9.651450,-0.0764,-0.5224,0.3513,-0.0317,0.5807,-0.0292,19.2188,33.2625,-21.4125,
9.652614,-0.5945,0.2130,-1.4095,-0.0317,0.5807,-0.0292,19.2188,33.2625,-21.4125,
9.670371,-0.5945,0.2130,-1.4095,-1.0351,1.3684,0.2517,19.2188,33.2625,-21.4125,
9.685456,-0.5945,0.2130,-1.4095,-1.0351,1.3684,0.2517,19.2188,33.2625,-21.4125,
9.705452,-0.5945,0.2130,-1.4095,-1.0351,1.3684,0.2517,18.7313,33.5625,-19.6125,
9.708456,-0.5945,0.2130,-1.4095,-1.0351,1.3684,0.2517,18.7313,33.5625,-19.6125,
9.710172,0.0743,0.0474,-1.3403,-1.0351,1.3684,0.2517,18.7313,33.5625,-19.6125,
9.712742,0.0743,0.0474,-1.3403,-1.0351,1.3684,0.2517,18.7313,33.5625,-19.6125,
9.730741,0.0743,0.0474,-1.3403,-0.0588,0.6783,0.0449,18.7313,33.5625,-19.6125,
9.751730,0.0743,0.0474,-1.3403,-0.0588,0.6783,0.0449,18.7313,33.5625,-19.6125,
9.755462,0.0743,0.0474,-1.3403,-0.0588,0.6783,0.0449,18.7313,33.5625,-19.6125,
9.768135,0.0743,0.0474,-1.3403,-0.0588,0.6783,0.0449,19.0312,34.3688,-18.0000,
9.772888,0.0743,0.0474,-1.3403,-0.0588,0.6783,0.0449,19.0312,34.3688,-18.0000,
9.775558,-0.6380,-0.1216,0.2301,-0.0588,0.6783,0.0449,19.0312,34.3688,-18.0000,
9.806926,-0.6380,-0.1216,0.2301,-0.0588,0.6783,0.0449,19.0312,34.3688,-18.0000,
9.811396,-0.6380,-0.1216,0.2301,-0.3163,0.4655,0.0936,19.0312,34.3688,-18.0000,
9.818905,-0.6380,-0.1216,0.2301,-0.3163,0.4655,0.0936,19.0312,34.3688,-18.0000,
9.825011,-0.6380,-0.1216,0.2301,-0.3163,0.4655,0.0936,19.5188,34.9688,-16.1250,
9.833290,-0.6380,-0.1216,0.2301,-0.3163,0.4655,0.0936,19.5188,34.9688,-16.1250,
9.835528,-0.3524,-0.2561,0.9923,-0.3163,0.4655,0.0936,19.5188,34.9688,-16.1250,
9.872227,-0.3524,-0.2561,0.9923,-0.3163,0.4655,0.0936,19.5188,34.9688,-16.1250,
9.875037,-0.3524,-0.2561,0.9923,-0.0168,0.2737,0.1645,19.5188,34.9688,-16.1250,
9.884710,-0.3524,-0.2561,0.9923,-0.0168,0.2737,0.1645,19.5188,34.9688,-16.1250,
9.889868,-0.3524,-0.2561,0.9923,-0.0168,0.2737,0.1645,19.5188,34.9688,-16.1250,
9.891939,0.2533,-0.0442,0.7302,-0.0168,0.2737,0.1645,19.5188,34.9688,-16.1250,
9.905176,0.2533,-0.0442,0.7302,-0.0168,0.2737,0.1645,20.0813,35.2125,-14.5500,
9.933327,0.2533,-0.0442,0.7302,-0.0168,0.2737,0.1645,20.0813,35.2125,-14.5500,
9.936849,0.2533,-0.0442,0.7302,-0.0203,0.0048,-0.0027,20.0813,35.2125,-14.5500,
9.951420,0.7401,0.0019,1.0695,-0.0203,0.0048,-0.0027,20.0813,35.2125,-14.5500,
9.955955,0.7401,0.0019,1.0695,-0.0203,0.0048,-0.0027,20.0813,35.2125,-14.5500,
9.957673,0.7401,0.0019,1.0695,-0.0203,0.0048,-0.0027,20.0813,35.2125,-14.5500,
9.964197,0.7401,0.0019,1.0695,-0.0203,0.0048,-0.0027,20.6625,35.4000,-13.1438,
10.011269,0.7401,0.0019,1.0695,-0.0203,0.0048,-0.0027,20.6625,35.4000,-13.1438,
10.014316,0.7401,0.0019,1.0695,-0.0203,0.0048,-0.0027,20.6625,35.4000,-13.1438,
10.016133,0.7401,0.0019,1.0695,-0.0203,0.0048,-0.0027,20.6625,35.4000,-13.1438,
10.017932,0.7401,0.0019,1.0695,0.0442,0.0775,0.0182,20.6625,35.4000,-13.1438,
10.020173,0.7820,0.1159,0.8879,0.0442,0.0775,0.0182,20.6625,35.4000,-13.1438,
10.029102,0.7820,0.1159,0.8879,0.0442,0.0775,0.0182,21.8813,35.8125,-12.0188,
10.045862,0.7820,0.1159,0.8879,0.0442,0.0775,0.0182,21.8813,35.8125,-12.0188,
10.073244,0.7820,0.1159,0.8879,0.0442,0.0775,0.0182,21.8813,35.8125,-12.0188,
10.076687,0.7820,0.1159,0.8879,0.0442,0.0775,0.0182,21.8813,35.8125,-12.0188,
10.078878,0.7820,0.1159,0.8879,0.0606,0.0376,-0.0585,21.8813,35.8125,-12.0188,
10.081427,0.2813,-0.1203,0.6612,0.0606,0.0376,-0.0585,21.8813,35.8125,-12.0188,
10.104284,0.2813,-0.1203,0.6612,0.0606,0.0376,-0.0585,21.8813,35.8125,-12.0188,
10.107662,0.2813,-0.1203,0.6612,0.0606,0.0376,-0.0585,22.4625,35.7375,-10.9875,
10.133654,0.2813,-0.1203,0.6612,0.0606,0.0376,-0.0585,22.4625,35.7375,-10.9875,
10.136793,0.2813,-0.1203,0.6612,0.0606,0.0376,-0.0585,22.4625,35.7375,-10.9875,
10.138647,0.2813,-0.1203,0.6612,0.0681,0.0306,-0.0254,22.4625,35.7375,-10.9875,
10.140478,0.4696,0.1483,0.6287,0.0681,0.0306,-0.0254,22.4625,35.7375,-10.9875,
10.153589,0.4696,0.1483,0.6287,0.0681,0.0306,-0.0254,22.4625,35.7375,-10.9875,
10.169629,0.4696,0.1483,0.6287,0.0681,0.0306,-0.0254,22.8563,35.7938,-10.1625,
10.192921,0.4696,0.1483,0.6287,0.0681,0.0306,-0.0254,22.8563,35.7938,-10.1625,
10.196079,0.4696,0.1483,0.6287,0.0681,0.0306,-0.0254,22.8563,35.7938,-10.1625,
10.198065,0.3304,-0.0455,0.7403,0.0681,0.0306,-0.0254,22.8563,35.7938,-10.1625,
10.210777,0.3304,-0.0455,0.7403,0.0793,0.0641,-0.1122,22.8563,35.7938,-10.1625,
10.219174,0.3304,-0.0455,0.7403,0.0793,0.0641,-0.1122,22.8563,35.7938,-10.1625,
10.225173,0.3304,-0.0455,0.7403,0.0793,0.0641,-0.1122,22.9688,35.7750,-9.8438,
10.251118,0.3304,-0.0455,0.7403,0.0793,0.0641,-0.1122,22.9688,35.7750,-9.8438,
10.254761,0.3304,-0.0455,0.7403,0.0793,0.0641,-0.1122,22.9688,35.7750,-9.8438,
10.256497,0.0383,0.1323,0.3429,0.0793,0.0641,-0.1122,22.9688,35.7750,-9.8438,
10.277732,0.0383,0.1323,0.3429,0.0340,0.0524,-0.0386,22.9688,35.7750,-9.8438,
10.285964,0.0383,0.1323,0.3429,0.0340,0.0524,-0.0386,22.9688,35.7750,-9.8438,
10.305216,0.0383,0.1323,0.3429,0.0340,0.0524,-0.0386,22.9688,35.7750,-9.8438,
10.308550,0.0383,0.1323,0.3429,0.0340,0.0524,-0.0386,23.0438,35.7938,-9.6562,
10.311365,-0.0544,-0.2358,0.4851,0.0340,0.0524,-0.0386,23.0438,35.7938,-9.6562,
10.314648,-0.0544,-0.2358,0.4851,0.0340,0.0524,-0.0386,23.0438,35.7938,-9.6562,
10.332930,-0.0544,-0.2358,0.4851,0.0221,0.0139,-0.0424,23.0438,35.7938,-9.6562,
10.353251,-0.0544,-0.2358,0.4851,0.0221,0.0139,-0.0424,23.0438,35.7938,-9.6562,
10.355419,-0.0544,-0.2358,0.4851,0.0221,0.0139,-0.0424,23.0438,35.7938,-9.6562,
10.365594,-0.0544,-0.2358,0.4851,0.0221,0.0139,-0.0424,23.0438,35.8500,-9.7313,
10.369679,-0.0544,-0.2358,0.4851,0.0221,0.0139,-0.0424,23.0438,35.8500,-9.7313,
10.371108,0.1315,-0.0654,0.0331,0.0221,0.0139,-0.0424,23.0438,35.8500,-9.7313,
10.409241,0.1315,-0.0654,0.0331,0.0221,0.0139,-0.0424,23.0438,35.8500,-9.7313,
10.410681,0.1315,-0.0654,0.0331,-0.0471,0.2248,-0.1105,23.0438,35.8500,-9.7313,
10.418376,0.1315,-0.0654,0.0331,-0.0471,0.2248,-0.1105,23.0438,35.8500,-9.7313,
10.423112,0.1315,-0.0654,0.0331,-0.0471,0.2248,-0.1105,22.9313,35.9438,-9.7125,
10.431867,0.1315,-0.0654,0.0331,-0.0471,0.2248,-0.1105,22.9313,35.9438,-9.7125,
10.433526,0.2646,-0.0997,-0.0880,-0.0471,0.2248,-0.1105,22.9313,35.9438,-9.7125,
10.472190,0.2646,-0.0997,-0.0880,-0.0471,0.2248,-0.1105,22.9313,35.9438,-9.7125,
10.474385,0.2646,-0.0997,-0.0880,-0.0316,0.1493,-0.0935,22.9313,35.9438,-9.7125,
10.485230,0.2646,-0.0997,-0.0880,-0.0316,0.1493,-0.0935,22.9313,35.9438,-9.7125,
10.490266,0.2646,-0.0997,-0.0880,-0.0316,0.1493,-0.0935,22.9313,35.9438,-9.7125,
10.491352,0.2231,-0.0495,0.1579,-0.0316,0.1493,-0.0935,22.9313,35.9438,-9.7125,
10.502646,0.2231,-0.0495,0.1579,-0.0316,0.1493,-0.0935,22.8938,35.9625,-9.6750,
10.532276,0.2231,-0.0495,0.1579,-0.0316,0.1493,-0.0935,22.8938,35.9625,-9.6750,
10.534569,0.2231,-0.0495,0.1579,-0.0353,0.0896,-0.0276,22.8938,35.9625,-9.6750,
10.550968,0.0612,0.1383,0.1086,-0.0353,0.0896,-0.0276,22.8938,35.9625,-9.6750,
10.553603,0.0612,0.1383,0.1086,-0.0353,0.0896,-0.0276,22.8938,35.9625,-9.6750,
10.554486,0.0612,0.1383,0.1086,-0.0353,0.0896,-0.0276,22.8938,35.9625,-9.6750,
10.565306,0.0612,0.1383,0.1086,-0.0353,0.0896,-0.0276,22.7812,36.0188,-9.6750,
10.612138,0.0612,0.1383,0.1086,-0.0353,0.0896,-0.0276,22.7812,36.0188,-9.6750,
10.614828,0.0612,0.1383,0.1086,-0.0353,0.0896,-0.0276,22.7812,36.0188,-9.6750,
10.616256,0.0612,0.1383,0.1086,-0.0353,0.0896,-0.0276,22.7812,36.0188,-9.6750,
10.617376,0.1071,0.2351,0.0736,-0.0353,0.0896,-0.0276,22.7812,36.0188,-9.6750,
10.618463,0.1071,0.2351,0.0736,-0.0289,0.1623,0.0730,22.7812,36.0188,-9.6750,
10.623868,0.1071,0.2351,0.0736,-0.0289,0.1623,0.0730,22.5188,36.3188,-9.5625,
10.672096,0.1071,0.2351,0.0736,-0.0492,0.0652,0.0001,22.5188,36.3188,-9.5625,
10.674013,0.0688,0.0471,0.2790,-0.0492,0.0652,0.0001,22.5188,36.3188,-9.5625,
10.675071,0.0688,0.0471,0.2790,-0.0492,0.0652,0.0001,22.5188,36.3188,-9.5625,
10.675933,0.0688,0.0471,0.2790,-0.0492,0.0652,0.0001,22.5188,36.3188,-9.5625,
10.676855,0.0688,0.0471,0.2790,-0.0492,0.0652,0.0001,22.5188,36.3188,-9.5625,
10.703315,0.0688,0.0471,0.2790,-0.0492,0.0652,0.0001,22.4438,36.4125,-9.4125,
10.705347,0.0688,0.0471,0.2790,-0.0492,0.0652,0.0001,22.4438,36.4125,-9.4125,
10.720625,0.0688,0.0471,0.2790,-0.0492,0.0652,0.0001,22.4438,36.4125,-9.4125,
10.731402,0.0233,0.0847,0.4745,-0.0492,0.0652,0.0001,22.4438,36.4125,-9.4125,
10.734173,0.0233,0.0847,0.4745,-0.0492,0.0652,0.0001,22.4438,36.4125,-9.4125,
10.735282,0.0233,0.0847,0.4745,0.0500,0.0262,0.0551,22.4438,36.4125,-9.4125,
10.750841,0.0233,0.0847,0.4745,0.0500,0.0262,0.0551,22.4438,36.4125,-9.4125,
10.765592,0.0233,0.0847,0.4745,0.0500,0.0262,0.0551,22.5000,36.4688,-9.2625,
10.793240,0.0233,0.0847,0.4745,0.0500,0.0262,0.0551,22.5000,36.4688,-9.2625,
10.795337,0.0233,0.0847,0.4745,0.0500,0.0262,0.0551,22.5000,36.4688,-9.2625,
10.796619,0.0723,0.1294,0.3801,0.0500,0.0262,0.0551,22.5000,36.4688,-9.2625,
10.810804,0.0723,0.1294,0.3801,0.0079,0.0035,-0.0363,22.5000,36.4688,-9.2625,
10.817718,0.0723,0.1294,0.3801,0.0079,0.0035,-0.0363,22.5000,36.4688,-9.2625,
10.823260,0.0723,0.1294,0.3801,0.0079,0.0035,-0.0363,22.4625,36.4875,-9.0750,
10.850391,0.0723,0.1294,0.3801,0.0079,0.0035,-0.0363,22.4625,36.4875,-9.0750,
10.852751,0.0723,0.1294,0.3801,0.0079,0.0035,-0.0363,22.4625,36.4875,-9.0750,
10.853724,0.1237,0.0106,0.1677,0.0079,0.0035,-0.0363,22.4625,36.4875,-9.0750,
10.872188,0.1237,0.0106,0.1677,0.1177,0.1170,0.0446,22.4625,36.4875,-9.0750,
10.884559,0.1237,0.0106,0.1677,0.1177,0.1170,0.0446,22.4625,36.4875,-9.0750,
10.903199,0.1237,0.0106,0.1677,0.1177,0.1170,0.0446,22.3500,36.6188,-9.0750,
10.905068,0.1237,0.0106,0.1677,0.1177,0.1170,0.0446,22.3500,36.6188,-9.0750,
10.910772,0.1237,0.0106,0.1677,0.1177,0.1170,0.0446,22.3500,36.6188,-9.0750,
10.912145,0.0944,-0.0327,0.2067,0.1177,0.1170,0.0446,22.3500,36.6188,-9.0750,
10.931158,0.0944,-0.0327,0.2067,0.0706,0.0518,0.0509,22.3500,36.6188,-9.0750,
10.951925,0.0944,-0.0327,0.2067,0.0706,0.0518,0.0509,22.3500,36.6188,-9.0750,
10.953725,0.0944,-0.0327,0.2067,0.0706,0.0518,0.0509,22.3500,36.6188,-9.0750,
10.965430,0.0944,-0.0327,0.2067,0.0706,0.0518,0.0509,22.0875,36.4688,-9.0375,
10.970160,0.0944,-0.0327,0.2067,0.0706,0.0518,0.0509,22.0875,36.4688,-9.0375,
10.972641,0.0473,0.3576,-0.1897,0.0706,0.0518,0.0509,22.0875,36.4688,-9.0375,
11.011004,0.0473,0.3576,-0.1897,0.0706,0.0518,0.0509,22.0875,36.4688,-9.0375,
11.013679,0.0473,0.3576,-0.1897,0.0483,0.1336,0.0989,22.0875,36.4688,-9.0375,
11.017767,0.0473,0.3576,-0.1897,0.0483,0.1336,0.0989,22.0875,36.4688,-9.0375,
11.023739,0.0473,0.3576,-0.1897,0.0483,0.1336,0.0989,22.1063,36.5813,-9.2812,
11.031293,0.0473,0.3576,-0.1897,0.0483,0.1336,0.0989,22.1063,36.5813,-9.2812,
11.033215,0.3912,0.0179,-0.0015,0.0483,0.1336,0.0989,22.1063,36.5813,-9.2812,
11.072218,0.3912,0.0179,-0.0015,0.0483,0.1336,0.0989,22.1063,36.5813,-9.2812,
11.074206,0.3912,0.0179,-0.0015,0.1490,0.2420,0.1546,22.1063,36.5813,-9.2812,
11.084461,0.3912,0.0179,-0.0015,0.1490,0.2420,0.1546,22.1063,36.5813,-9.2812,
11.090228,0.3912,0.0179,-0.0015,0.1490,0.2420,0.1546,22.1063,36.5813,-9.2812,
11.091391,0.3730,-0.0290,0.0583,0.1490,0.2420,0.1546,22.1063,36.5813,-9.2812,
11.102800,0.3730,-0.0290,0.0583,0.1490,0.2420,0.1546,22.1625,36.5813,-9.3000,
11.132080,0.3730,-0.0290,0.0583,0.1490,0.2420,0.1546,22.1625,36.5813,-9.3000,
11.135095,0.3730,-0.0290,0.0583,0.1822,0.3299,0.2320,22.1625,36.5813,-9.3000,
11.151805,0.2635,0.1251,-0.2984,0.1822,0.3299,0.2320,22.1625,36.5813,-9.3000,
11.155276,0.2635,0.1251,-0.2984,0.1822,0.3299,0.2320,22.1625,36.5813,-9.3000,
11.157124,0.2635,0.1251,-0.2984,0.1822,0.3299,0.2320,22.1625,36.5813,-9.3000,
11.166775,0.2635,0.1251,-0.2984,0.1822,0.3299,0.2320,22.5563,36.3375,-9.2625,
11.212764,0.2635,0.1251,-0.2984,0.1822,0.3299,0.2320,22.5563,36.3375,-9.2625,
11.216649,0.0753,0.0537,-0.1219,0.1822,0.3299,0.2320,22.5563,36.3375,-9.2625,
11.219415,0.0753,0.0537,-0.1219,0.1822,0.3299,0.2320,22.5563,36.3375,-9.2625,
11.221924,0.0753,0.0537,-0.1219,0.1822,0.3299,0.2320,22.5563,36.3375,-9.2625,
11.223865,0.0753,0.0537,-0.1219,0.1496,0.2979,0.1544,22.5563,36.3375,-9.2625,
11.226873,0.0753,0.0537,-0.1219,0.1496,0.2979,0.1544,22.7812,36.1125,-9.3188,
11.273959,0.0753,0.0537,-0.1219,0.1496,0.2979,0.1544,22.7812,36.1125,-9.3188,
11.278533,0.1045,0.0402,-0.0220,0.1496,0.2979,0.1544,22.7812,36.1125,-9.3188,
11.282221,0.1045,0.0402,-0.0220,0.1496,0.2979,0.1544,22.7812,36.1125,-9.3188,
11.284908,0.1045,0.0402,-0.0220,0.1496,0.2979,0.1544,22.7812,36.1125,-9.3188,
11.287147,0.1045,0.0402,-0.0220,0.1138,0.2985,0.0348,22.7812,36.1125,-9.3188,
11.304345,0.1045,0.0402,-0.0220,0.1138,0.2985,0.0348,23.1000,35.8313,-9.2063,
11.307977,0.1045,0.0402,-0.0220,0.1138,0.2985,0.0348,23.1000,35.8313,-9.2063,
11.331827,0.1045,0.0402,-0.0220,0.1138,0.2985,0.0348,23.1000,35.8313,-9.2063,
11.334596,0.1045,0.0402,-0.0220,0.1138,0.2985,0.0348,23.1000,35.8313,-9.2063,
11.336371,0.1045,0.0402,-0.0220,0.0509,0.1926,-0.0414,23.1000,35.8313,-9.2063,
11.338527,-0.1789,0.0335,0.0894,0.0509,0.1926,-0.0414,23.1000,35.8313,-9.2063,
11.353306,-0.1789,0.0335,0.0894,0.0509,0.1926,-0.0414,23.1000,35.8313,-9.2063,
11.367022,-0.1789,0.0335,0.0894,0.0509,0.1926,-0.0414,23.4750,35.5312,-9.2438,
11.392899,-0.1789,0.0335,0.0894,0.0509,0.1926,-0.0414,23.4750,35.5312,-9.2438,
11.395174,-0.1789,0.0335,0.0894,0.0509,0.1926,-0.0414,23.4750,35.5312,-9.2438,
11.396494,-0.0442,-0.1694,-0.0838,0.0509,0.1926,-0.0414,23.4750,35.5312,-9.2438,
11.411213,-0.0442,-0.1694,-0.0838,0.1041,0.2661,0.0424,23.4750,35.5312,-9.2438,
11.417569,-0.0442,-0.1694,-0.0838,0.1041,0.2661,0.0424,23.4750,35.5312,-9.2438,
11.424684,-0.0442,-0.1694,-0.0838,0.1041,0.2661,0.0424,23.8313,35.3438,-9.0188,
11.452209,-0.0442,-0.1694,-0.0838,0.1041,0.2661,0.0424,23.8313,35.3438,-9.0188,
11.455493,-0.0442,-0.1694,-0.0838,0.1041,0.2661,0.0424,23.8313,35.3438,-9.0188,
11.457558,-0.3692,0.0684,0.1404,0.1041,0.2661,0.0424,23.8313,35.3438,-9.0188,
11.473952,-0.3692,0.0684,0.1404,0.0534,0.0504,0.0696,23.8313,35.3438,-9.0188,
11.485585,-0.3692,0.0684,0.1404,0.0534,0.0504,0.0696,23.8313,35.3438,-9.0188,
11.504040,-0.3692,0.0684,0.1404,0.0534,0.0504,0.0696,24.1500,35.2313,-9.0375,
11.507832,-0.3692,0.0684,0.1404,0.0534,0.0504,0.0696,24.1500,35.2313,-9.0375,
11.512236,-0.1032,0.0471,-0.0532,0.0534,0.0504,0.0696,24.1500,35.2313,-9.0375,
11.514634,-0.1032,0.0471,-0.0532,0.0534,0.0504,0.0696,24.1500,35.2313,-9.0375,
11.531058,-0.1032,0.0471,-0.0532,-0.0063,-0.0047,0.0903,24.1500,35.2313,-9.0375,
11.552706,-0.1032,0.0471,-0.0532,-0.0063,-0.0047,0.0903,24.1500,35.2313,-9.0375,
11.555455,-0.1032,0.0471,-0.0532,-0.0063,-0.0047,0.0903,24.1500,35.2313,-9.0375,
11.568811,-0.1032,0.0471,-0.0532,-0.0063,-0.0047,0.0903,24.3750,34.9688,-8.7000,
11.573164,-0.1032,0.0471,-0.0532,-0.0063,-0.0047,0.0903,24.3750,34.9688,-8.7000,
11.575586,0.0806,0.1597,0.1383,-0.0063,-0.0047,0.0903,24.3750,34.9688,-8.7000,
11.613008,0.0806,0.1597,0.1383,-0.0063,-0.0047,0.0903,24.3750,34.9688,-8.7000,
11.617269,0.0806,0.1597,0.1383,-0.0593,-0.0270,0.0241,24.3750,34.9688,-8.7000,
11.620322,0.0806,0.1597,0.1383,-0.0593,-0.0270,0.0241,24.3750,34.9688,-8.7000,
11.624312,0.0806,0.1597,0.1383,-0.0593,-0.0270,0.0241,24.6188,34.7625,-8.6063,
11.633851,0.4423,0.0478,0.2024,-0.0593,-0.0270,0.0241,24.6188,34.7625,-8.6063,
11.637909,0.4423,0.0478,0.2024,-0.0593,-0.0270,0.0241,24.6188,34.7625,-8.6063,
11.673757,0.4423,0.0478,0.2024,-0.0593,-0.0270,0.0241,24.6188,34.7625,-8.6063,
11.676543,0.4423,0.0478,0.2024,-0.0422,0.0092,0.0047,24.6188,34.7625,-8.6063,
11.685858,0.4423,0.0478,0.2024,-0.0422,0.0092,0.0047,24.6188,34.7625,-8.6063,
11.692334,0.3600,0.1963,0.2824,-0.0422,0.0092,0.0047,24.6188,34.7625,-8.6063,
11.695712,0.3600,0.1963,0.2824,-0.0422,0.0092,0.0047,24.6188,34.7625,-8.6063,
11.703474,0.3600,0.1963,0.2824,-0.0422,0.0092,0.0047,24.7500,34.6500,-8.5875,
11.732714,0.3600,0.1963,0.2824,-0.0422,0.0092,0.0047,24.7500,34.6500,-8.5875,
11.735396,0.3600,0.1963,0.2824,-0.0550,-0.0178,-0.0439,24.7500,34.6500,-8.5875,
11.753525,0.1829,0.1705,0.2248,-0.0550,-0.0178,-0.0439,24.7500,34.6500,-8.5875,
11.757285,0.1829,0.1705,0.2248,-0.0550,-0.0178,-0.0439,24.7500,34.6500,-8.5875,
11.759517,0.1829,0.1705,0.2248,-0.0550,-0.0178,-0.0439,24.7500,34.6500,-8.5875,
11.767339,0.1829,0.1705,0.2248,-0.0550,-0.0178,-0.0439,24.9375,34.5375,-8.6063,
11.813402,0.1829,0.1705,0.2248,-0.0550,-0.0178,-0.0439,24.9375,34.5375,-8.6063,
11.816547,0.1829,0.1705,0.2248,-0.0550,-0.0178,-0.0439,24.9375,34.5375,-8.6063,
11.818826,0.1829,0.1705,0.2248,-0.0550,-0.0178,-0.0439,24.9375,34.5375,-8.6063,
11.820864,0.1829,0.1705,0.2248,-0.0967,-0.0166,-0.1446,24.9375,34.5375,-8.6063,
11.823706,0.0107,0.1522,-0.0348,-0.0967,-0.0166,-0.1446,24.9375,34.5375,-8.6063,
11.826445,0.0107,0.1522,-0.0348,-0.0967,-0.0166,-0.1446,24.9375,34.6875,-8.5500,
11.874722,0.0107,0.1522,-0.0348,-0.0967,-0.0166,-0.1446,24.9375,34.6875,-8.5500,
11.878264,0.0107,0.1522,-0.0348,-0.0967,-0.0166,-0.1446,24.9375,34.6875,-8.5500,
11.880642,0.0107,0.1522,-0.0348,-0.0967,-0.0166,-0.1446,24.9375,34.6875,-8.5500,
11.883331,0.0107,0.1522,-0.0348,-0.0463,-0.2906,-0.0981,24.9375,34.6875,-8.5500,
11.886137,-0.5826,-0.1842,0.2428,-0.0463,-0.2906,-0.0981,24.9375,34.6875,-8.5500,
11.904615,-0.5826,-0.1842,0.2428,-0.0463,-0.2906,-0.0981,24.9375,34.6875,-8.5500,
11.907938,-0.5826,-0.1842,0.2428,-0.0463,-0.2906,-0.0981,24.8625,34.8375,-8.4563,
11.936326,-0.5826,-0.1842,0.2428,-0.0781,-0.1671,0.0683,24.8625,34.8375,-8.4563,
11.939893,-0.5826,-0.1842,0.2428,-0.0781,-0.1671,0.0683,24.8625,34.8375,-8.4563,
11.941994,-0.5826,-0.1842,0.2428,-0.0781,-0.1671,0.0683,24.8625,34.8375,-8.4563,
11.944792,-0.3662,-0.0774,0.1376,-0.0781,-0.1671,0.0683,24.8625,34.8375,-8.4563,
11.952591,-0.3662,-0.0774,0.1376,-0.0781,-0.1671,0.0683,24.8625,34.8375,-8.4563,
11.965732,-0.3662,-0.0774,0.1376,-0.0781,-0.1671,0.0683,24.8625,34.8563,-8.5312,
11.993833,-0.3662,-0.0774,0.1376,-0.0781,-0.1671,0.0683,24.8625,34.8563,-8.5312,
11.997066,-0.3662,-0.0774,0.1376,-0.0781,-0.1671,0.0683,24.8625,34.8563,-8.5312,
11.998896,0.1593,0.2492,0.1139,-0.0781,-0.1671,0.0683,24.8625,34.8563,-8.5312,
12.011907,0.1593,0.2492,0.1139,-0.0240,0.1490,0.0615,24.8625,34.8563,-8.5312,
12.017712,0.1593,0.2492,0.1139,-0.0240,0.1490,0.0615,24.8625,34.8563,-8.5312,
12.024438,0.1593,0.2492,0.1139,-0.0240,0.1490,0.0615,24.8438,34.8000,-8.2875,
12.045478,0.1593,0.2492,0.1139,-0.0240,0.1490,0.0615,24.8438,34.8000,-8.2875,
12.051790,0.1875,-0.0758,0.5821,-0.0240,0.1490,0.0615,24.8438,34.8000,-8.2875,
12.054171,0.1875,-0.0758,0.5821,-0.0240,0.1490,0.0615,24.8438,34.8000,-8.2875,
12.073894,0.1875,-0.0758,0.5821,0.2127,0.1813,0.0431,24.8438,34.8000,-8.2875,
12.086088,0.1875,-0.0758,0.5821,0.2127,0.1813,0.0431,24.8438,34.8000,-8.2875,
12.104876,0.1875,-0.0758,0.5821,0.2127,0.1813,0.0431,24.8438,34.8000,-8.2875,
12.106338,0.1875,-0.0758,0.5821,0.2127,0.1813,0.0431,24.8063,34.8188,-8.3250,
