time,ax,ay,az,wx,wy,wz,Bx,By,Bz
0.048339,0,0,0,-0.0263,3.013,-3.3422,0,0,0
0.068339,0,0,0,-0.05685,-0.08095,-0.07295,0,0,0
0.088339,0.0786,-0.4443,0.1794,0.1942,-0.1573,-0.07665,0,0,0
0.108339,-0.004,-0.3309,0.3567,0.0922,-0.1316,-0.0974,-48.3188,1.3313,-4.1813
0.128339,-0.1881,-0.446,0.3446,-0.0226,-0.145,-0.07295,-48.3188,1.3313,-4.1813
0.148339,-0.2832,-0.4476,0.2748,0.0971,-0.1683,-0.0705,-48.3188,1.3313,-4.1813
0.168339,-0.2198,-0.4939,0.4571,0.10685,-0.164,-0.0852,-48.3188,1.3313,-4.1813
0.188339,-0.2864,-0.6147,0.4826,0.0543,-0.1048,-0.1145,36.3375,18.825,2.85
0.208339,-0.5311,-0.6986,0.4406,0.135,-0.095,-0.0461,36.3375,18.825,2.85
0.228339,-0.4989,-0.5057,0.3478,0.1008,-0.1084,0.0089,36.1313,18.9188,2.6625
0.248339,-0.4721,-0.4226,0.3582,0.0641,-0.1376,0.0052,36.1313,18.9188,2.6625
0.268339,-0.4455,-0.4085,0.3315,0.0958,-0.1621,-0.0448,36.1313,18.9188,2.6625
0.288339,-0.4633,-0.4325,0.31135,0.0861,-0.2013,-0.0693,36.525,19.2188,1.875
0.308339,-0.4832,-0.4525,0.3036,0.0678,-0.2391,-0.0326,36.525,19.2188,1.875
0.328339,-0.5363,-0.43,0.2634,0.058,-0.2574,0.0235,36.525,19.2188,1.875
0.348339,-0.5144,-0.4666,0.2303,0.02995,-0.2617,0.0455,36.225,19.7063,1.5
0.368339,-0.3244,-0.3965,0.17325,-0.008,-0.2611,0.0223,36.225,19.7063,1.5
0.388339,-0.13135,-0.43135,0.22505,-0.03,-0.2306,-0.0278,36.225,19.7063,1.5
0.408339,-0.0295,-0.6196,0.4847,-0.0238,-0.1596,-0.0693,36.32815,19.55625,1.30315
0.428339,-0.08075,-0.63015,0.5653,0.0128,-0.062,-0.0338,36.4313,19.4062,1.1063
0.448339,-0.1774,-0.5038,0.5793,0.0397,-0.0143,0.0455,36.4313,19.4062,1.1063
0.468339,-0.2732,-0.178,0.3173,0.0244,-0.07725,0.0767,36.4313,19.4062,1.1063
0.488339,-0.2496,-0.2006,0.2593,-0.0061,-0.17805,0.03275,36.225,19.125,0.225
0.508339,-0.1716,-0.3689,0.2699,-0.02565,-0.22875,-0.0119,36.225,19.125,0.225
0.528339,-0.014,-0.4898,0.3301,-0.022,-0.1872,-0.0112,36.225,19.125,0.225
0.548339,0.0544,-0.3863,0.3184,-0.01285,-0.08275,0.0028,36.0375,19.0125,0.1125
0.568339,-0.0541,-0.3541,0.3193,-0.01775,-0.0216,0.0242,36.0375,19.0125,0.1125
0.588339,-0.2316,-0.3358,0.3463,-0.02935,-0.0473,0.0309,36.0375,19.0125,0.1125
0.608339,-0.2683,-0.2867,0.3829,-0.03725,-0.10415,0.0297,36.3375,19.2188,-0.1688
0.628339,-0.2151,-0.364,0.41,-0.05015,-0.1658,0.02785,36.3375,19.2188,-0.1688
0.648339,-0.1573,-0.5254,0.4951,-0.0403,-0.156,0.02595,36.3375,19.2188,-0.1688
0.668339,-0.1055,-0.6565,0.5719,-0.0037,-0.10415,0.04745,35.9438,19.125,-0.2625
0.688339,-0.0781,-0.4318,0.4663,0.00675,-0.0559,0.0749,35.9438,19.125,-0.2625
0.708339,-0.072,-0.2504,0.3671,-0.0122,-0.03445,0.05895,35.9438,19.125,-0.2625
0.728339,-0.1786,-0.322,0.3736,-0.01835,-0.06015,0.0254,36.4313,19.3125,-1.4438
0.748339,-0.1927,-0.3962,0.3995,-0.02325,-0.08145,0.00955,36.4313,19.3125,-1.4438
0.768339,-0.2731,-0.4852,0.405,-0.02085,-0.09375,0.0388,36.4313,19.3125,-1.4438
0.788339,-0.2746,-0.4583,0.3916,-0.0134,-0.0858,0.0694,36.0375,18.6188,-0.75
0.808339,-0.1929,-0.4719,0.3906,-0.0098,-0.05955,0.07125,36.0375,18.6188,-0.75
0.828339,-0.1092,-0.3608,0.335,-0.01955,-0.0424,0.06025,36.0375,18.6188,-0.75
0.848339,-0.0524,-0.3013,0.2731,-0.04035,-0.03325,0.04195,36.525,18.825,-0.9563
0.868339,-0.0655,-0.3561,0.2665,-0.0538,-0.0198,0.0187,36.525,18.825,-0.9563
0.888339,-0.1697,-0.5547,0.3931,-0.03485,-0.0033,0.01015,36.525,18.825,-0.9563
0.908339,-0.2448,-0.7061,0.5165,-0.014,0.0102,0.0309,36.32815,18.675,-1.2469
0.928339,-0.2705,-0.5908,0.4971,-1.00E-04,0.0101,0.0975,36.1313,18.525,-1.5375
0.948339,-0.1718,-0.3644,0.3679,-0.011,-0.0393,0.12125,36.1313,18.525,-1.5375
0.968339,-0.0969,-0.1878,0.3014,-0.022,-0.0986,0.09135,36.1313,18.525,-1.5375
0.988339,-0.0389,-0.1884,0.2636,-0.0324,-0.1463,0.0382,36.525,18.825,-1.5375
1.008339,-0.057,-0.3929,0.3041,-0.03,-0.1486,0.0297,36.525,18.825,-1.5375
1.028339,-0.026,-0.5556,0.3553,-0.01585,-0.1151,0.04495,36.525,18.825,-1.5375
1.048339,-0.029,-0.6434,0.4154,0.0043,-0.04,0.076,36.9188,18.2438,-0.9563
1.068339,0.0101,-0.5311,0.3656,0.003,-0.0082,0.0798,36.9188,18.2438,-0.9563
1.088339,0.0387,-0.4428,0.3019,-0.0067,0.0027,0.0455,36.9188,18.2438,-0.9563
1.108339,0.0108,-0.3885,0.31,-0.0117,0.0004,0.0125,36.0375,18.0375,-1.4438
1.128339,0.004,-0.3922,0.3254,-0.0165,-0.0131,0.0187,36.0375,18.0375,-1.4438
1.148339,-0.0437,-0.4129,0.3238,-0.025,-0.0351,0.0345,36.0375,18.0375,-1.4438
1.168339,-0.0457,-0.6084,0.4217,-0.0202,-0.0388,0.03455,36.0375,18.0375,-1.4438
1.188339,0.0192,-0.4847,0.397,-0.0007,-0.04,0.0175,36.525,18.2438,-1.8375
1.208339,0.0658,-0.4059,0.3484,-0.00735,-0.0229,0.00095,36.525,18.2438,-1.8375
1.228339,0.1308,-0.47255,0.35575,0.0018,0.0162,-0.0363,36.525,17.85,-1.3313
1.248339,0.11125,-0.5226,0.36425,0.008,0.037,-0.0571,36.525,17.85,-1.3313
1.268339,0.06545,-0.4952,0.3476,0.0055,0.0455,-0.051,36.525,17.85,-1.3313
1.288339,0.0504,-0.4534,0.3313,-1.00E-04,0.05835,-0.03505,36.4313,18.4313,-1.9313
1.308339,0.0093,-0.4849,0.3717,0.0067,0.0535,-0.0284,36.4313,18.4313,-1.9313
1.328339,-0.1345,-0.4167,0.379,0.00485,-0.01005,-0.0113,36.4313,18.4313,-1.9313
1.348339,-0.0188,-0.3077,0.3323,-0.00985,-0.06505,-0.007,36.4313,17.9438,-1.4438
1.368339,0.0984,-0.4032,0.3692,-0.0104,-0.1023,-0.02405,36.4313,17.9438,-1.4438
1.388339,0.1425,-0.5588,0.4688,-0.00425,-0.10595,-0.04425,36.4313,17.9438,-1.4438
1.408339,0.1826,-0.535,0.454,0.0115,-0.0534,-0.0546,36.0844,18.33755,-1.64065
1.428339,0.1145,-0.4776,0.3844,0.0275,0.0474,-0.0619,35.7375,18.7313,-1.8375
1.448339,-0.0062,-0.4253,0.3399,0.0189,0.05225,-0.05705,35.7375,18.7313,-1.8375
1.468339,-0.161,-0.2966,0.3738,0.0128,0.0187,-0.04,36.0375,18.33755,-1.6875
1.488339,-0.1305,-0.1391,0.2917,-0.00065,-0.0308,-0.01675,36.3375,17.9438,-1.5375
1.508339,-0.1337,-0.2084,0.3056,-0.01835,-0.07295,-0.0223,36.3375,17.9438,-1.5375
1.528339,-0.0873,-0.4284,0.386,-0.025,-0.08275,-0.04605,36.3375,17.9438,-1.5375
1.548339,-0.085,-0.6304,0.5321,-0.0025,-0.0412,-0.04425,36.4313,18.1313,-1.7438
1.568339,-0.0371,-0.556,0.5146,0.0171,0.02045,-0.02165,36.4313,18.1313,-1.7438
1.588339,-0.0669,-0.3458,0.4022,0.01215,0.0425,-0.01305,36.4313,18.1313,-1.7438
1.608339,-0.2145,-0.3147,0.3455,0.0103,0.0046,-0.02715,36.225,18.4313,-1.6313
1.628339,-0.3064,-0.3498,0.3549,0.00675,-0.0687,-0.01915,36.225,18.4313,-1.6313
1.648339,-0.2031,-0.3903,0.3419,0,-0.08275,0.00095,36.225,18.4313,-1.6313
1.668339,-0.0668,-0.4648,0.385,-0.0006,-0.04,-0.0009,35.9438,18.2438,-1.4438
1.688339,0.0518,-0.5706,0.4501,0.0238,0.02045,-0.01615,35.9438,18.2438,-1.4438
1.708339,-0.0557,-0.4296,0.4035,0.03115,0.0541,-0.01185,35.9438,18.2438,-1.4438
1.728339,-0.0947,-0.362,0.3703,0.014,0.04125,-0.00455,36.225,18.3375,-1.7438
1.748339,-0.1516,-0.3317,0.3154,0.0115,-0.0088,0.00275,36.225,18.3375,-1.7438
1.768339,-0.1775,-0.3907,0.3729,0.00975,-0.06255,0.015,36.225,18.3375,-1.7438
1.788339,-0.0862,-0.4805,0.4041,0.0201,-0.07415,0.02475,35.7375,18.4313,-2.1375
1.808339,0.019,-0.5147,0.4012,0.036,-0.05095,0.0339,35.7375,18.4313,-2.1375
1.828339,0.1405,-0.3608,0.2884,0.0177,-0.0125,0.01985,35.7375,18.4313,-2.1375
1.848339,0.1285,-0.3413,0.2787,0.0103,0.0022,-0.0033,35.4563,18.7313,-2.2125
1.868339,0.031,-0.4456,0.3131,0.0177,-0.0363,-0.0045,35.4563,18.7313,-2.2125
1.888339,0.0001,-0.4565,0.3436,0.0201,-0.051,0.015,35.4563,18.7313,-2.2125
1.908339,0.0443,-0.4391,0.3232,0.0153,-0.0534,0.0223,35.84065,18.62815,-2.2125
1.928339,0.0788,-0.4566,0.2208,0.0055,-0.0668,0.0052,36.225,18.525,-2.2125
1.948339,0.1128,-0.5408,0.2434,0.014,-0.0485,-0.0106,36.225,18.525,-2.2125
1.968339,0.068,-0.5513,0.2738,0.0201,-0.0315,0.0052,36.13125,18.43125,-2.2125
1.988339,-0.0133,-0.4647,0.2416,0.0177,-0.0448,0.0358,36.0375,18.3375,-2.2125
2.008339,-0.0097,-0.3259,0.1603,-0.0067,-0.1096,0.0407,36.0375,18.3375,-2.2125
2.028339,-0.0067,-0.3889,0.1524,-0.0165,-0.1536,0.0334,36.0375,18.3375,-2.2125
2.048339,0.1196,-0.4203,0.1852,-0.0238,-0.1389,0.0345,36.225,18.1313,-2.325
2.068339,0.1688,-0.527,0.2603,-0.02205,-0.0852,0.03825,36.225,18.1313,-2.325
2.088339,0.2597,-0.4404,0.2006,-0.0238,-0.0448,0.0272,36.225,18.1313,-2.325
2.108339,0.1032,-0.5031,0.2775,-0.02205,-0.0381,0.0352,36.1313,18.0375,-2.4188
2.128339,-0.0096,-0.5056,0.3223,-0.02625,-0.08515,0.06385,36.1313,18.0375,-2.4188
2.148339,0.0499,-0.4321,0.3247,-0.0354,-0.1438,0.08285,36.1313,18.0375,-2.4188
2.168339,0.0499,-0.4321,0.3247,-0.033,-0.17495,0.0859,36.1313,18.0375,-2.4188
2.188339,0.1781,-0.3609,0.2834,-0.03,-0.17135,0.0761,36.525,18.3375,-2.9062
2.208339,0.2185,-0.4475,0.2608,-0.0464,-0.10355,0.0633,36.525,18.3375,-2.9062
2.228339,0.0951,-0.5278,0.3689,-0.04095,-0.10595,0.0731,36.1313,17.9438,-2.9062
2.248339,0.0095,-0.4442,0.3821,-0.0318,-0.14935,0.11335,36.1313,17.9438,-2.9062
2.268339,0.1442,-0.2797,0.2893,-0.0391,-0.20185,0.1524,36.1313,17.9438,-2.9062
2.288339,0.4187,-0.2366,0.1711,-0.0605,-0.21045,0.10785,35.6438,18.2438,-3.5813
2.308339,0.4521,-0.4285,0.2145,-0.05255,-0.2031,0.07245,35.6438,18.2438,-3.5813
2.328339,0.3254,-0.5044,0.3177,-0.03605,-0.18045,0.08105,35.6438,18.2438,-3.5813
2.348339,0.3022,-0.2297,0.1815,-0.02685,-0.14925,0.14935,36.225,17.6438,-3.3938
2.368339,0.2681,0.0286,-0.0034,-0.055,-0.189,0.1708,36.225,17.6438,-3.3938
2.388339,0.2666,-0.1912,0.0544,-0.0935,-0.2617,0.13905,36.225,17.6438,-3.3938
2.408339,0.3952,-0.4843,0.1657,-0.0984,-0.2507,0.1061,36.525,17.3625,-3.4875
2.428339,0.3783,-0.7284,0.3428,-0.06965,-0.1677,0.14025,36.525,17.3625,-3.4875
2.448339,0.2401,-0.5299,0.3506,-0.0452,-0.1041,0.23795,36.525,17.3625,-3.4875
2.468339,0.0755,-0.1954,0.2296,-0.05315,-0.1402,0.3107,36.525,17.3625,-3.4875
2.488339,-0.0115,-0.1086,0.1561,-0.08555,-0.32465,0.33085,36.4313,17.1562,-4.575
2.508339,0.0019,-0.1566,0.2205,-0.1014,-0.4737,0.3357,36.4313,17.1562,-4.575
2.528339,0.2139,-0.1705,0.2287,-0.0983,-0.5397,0.3937,36.4313,17.1562,-4.575
2.548339,0.4753,-0.1998,0.2297,-0.1088,-0.5134,0.43655,35.9438,16.3688,-4.3688
2.568339,0.4907,-0.3614,0.2477,-0.1124,-0.49135,0.4066,35.9438,16.3688,-4.3688
2.588339,0.4525,-0.5998,0.3686,-0.1155,-0.5061,0.3571,35.9438,16.3688,-4.3688
2.608339,0.5029,-0.7329,0.5896,-0.09045,-0.45895,0.31065,36.1313,16.1813,-5.4563
2.628339,0.4534,-0.6143,0.5504,-0.06655,-0.38575,0.30395,36.1313,16.1813,-5.4563
2.648339,0.1979,-0.6276,0.5288,-0.0715,-0.41015,0.30765,36.1313,16.1813,-5.4563
2.668339,-0.0253,-0.6886,0.5465,-0.0825,-0.4981,0.29105,36.1313,15.2063,-6.7125
2.688339,-0.2497,-0.8091,0.5905,-0.0819,-0.58425,0.2832,36.1313,15.2063,-6.7125
2.708339,-0.385,-0.8849,0.4947,-0.1002,-0.6576,0.3192,36.1313,15.2063,-6.7125
2.728339,-0.4112,-0.8519,0.4391,-0.1528,-0.7192,0.3571,36.225,14.325,-7.7813
2.748339,-0.3177,-0.9907,0.6052,-0.1851,-0.7608,0.3315,36.225,14.325,-7.7813
2.768339,-0.1531,-1.1509,0.7714,-0.1875,-0.7535,0.2716,36.225,14.325,-7.7813
2.788339,-0.1751,-1.3459,0.9728,-0.1753,-0.7437,0.268,35.85,14.0438,-9.0563
2.808339,-0.2885,-1.3192,1.0584,-0.1655,-0.7265,0.296,35.85,14.0438,-9.0563
2.828339,-0.2363,-1.1419,0.9011,-0.1925,-0.762,0.2875,35.85,14.0438,-9.0563
2.848339,-0.1953,-1.1027,0.7841,-0.2243,-0.8328,0.257,35.0625,13.2563,-10.725
2.868339,-0.111,-1.0086,0.7406,-0.2474,-0.8744,0.2373,35.0625,13.2563,-10.725
2.888339,0.0972,-0.7815,0.7736,-0.2718,-0.8818,0.2338,35.0625,13.2563,-10.725
2.908339,0.361,-0.4243,0.9844,-0.2571,-0.8073,0.1958,34.6688,12.7688,-12.2813
2.928339,0.46315,-0.0035,0.95985,-0.223,-0.7755,0.136,34.6688,12.7688,-12.2813
2.948339,0.4925,0.1425,0.8998,-0.2108,-0.82005,0.02605,34.6688,12.7688,-12.2813
2.968339,0.5219,0.2233,0.9301,-0.1637,-0.76745,-0.1102,34.6688,12.7688,-12.2813
2.988339,0.7703,0.1266,1.0862,-0.0587,-0.5146,-0.26165,33.1125,12.975,-14.0438
3.008339,0.6267,-0.18485,1.0088,0.0776,-0.2098,-0.3967,33.1125,12.975,-14.0438
3.028339,0.3984,-0.338,0.9328,0.1313,-0.08155,-0.459,33.1125,12.975,-14.0438
3.048339,-0.8193,-1.3873,0.8948,0.1423,-0.05035,-0.54335,32.1375,12.8625,-16.3875
3.068339,-1.3274,-1.9354,1.0984,0.1912,-0.09435,-0.5555,32.1375,12.8625,-16.3875
3.088339,-1.3907,-1.4488,0.7396,0.2932,-0.06195,-0.43455,32.1375,12.8625,-16.3875
3.108339,-1.1443,-0.1749,-0.2635,0.3024,-0.0198,-0.2324,31.7438,13.35,-17.3625
3.128339,-0.9598,0.6411,-0.907,0.1991,-0.1426,-0.101,31.7438,13.35,-17.3625
3.148339,-0.7268,0.6953,-0.9437,0.08855,-0.3436,-0.0974,31.7438,13.35,-17.3625
3.168339,-0.7268,0.6953,-0.9437,0.07205,-0.39305,-0.10895,31.7438,13.35,-17.3625
3.188339,-0.5017,-0.1886,-0.4233,0.0275,-0.525,-0.11695,31.2563,14.325,-17.85
3.208339,-0.2777,-0.331,-0.3604,0.0024,-0.36675,-0.0522,31.2563,14.325,-17.85
3.228339,-0.3069,-0.526,-0.1899,0.00305,-0.27025,-0.02345,30.675,13.8375,-18.0375
3.248339,-0.3939,-0.563,-0.0578,0.0055,-0.2379,-0.0375,30.675,13.8375,-18.0375
3.268339,-0.4742,-0.6059,-0.0455,-1.00E-04,-0.23175,-0.08455,30.675,13.8375,-18.0375
3.288339,-0.3606,-0.5169,-0.0095,0.022,-0.2617,-0.0919,29.8875,14.325,-18.9188
3.308339,-0.0359,-0.3305,-0.0634,0.05855,-0.1823,-0.1084,29.8875,14.325,-18.9188
3.328339,0.2168,-0.1518,-0.2383,0.0763,0.0395,-0.1597,29.8875,14.325,-18.9188
3.348339,0.1034,-0.2684,-0.5308,0.05985,0.24775,-0.20975,29.4938,14.7188,-19.5
3.368339,-0.1841,-0.6076,-0.537,0.0238,0.3192,-0.2421,29.4938,14.7188,-19.5
3.388339,-0.3691,-0.7921,-0.3259,0.0268,0.332,-0.233,29.4938,14.7188,-19.5
3.408339,-0.309,-0.6112,-0.2785,0.0513,0.3687,-0.16885,29.4938,14.7188,-19.5
3.428339,-0.238,-0.3311,-0.5391,0.0262,0.4658,-0.1029,29.0063,14.5313,-19.6125
3.448339,-0.3748,-0.1359,-0.8842,-0.0416,0.43715,-0.0772,29.0063,14.5313,-19.6125
3.468339,-0.3825,-0.0622,-0.9799,-0.1253,0.3424,-0.0851,29.4469,14.77505,-19.36875
3.488339,-0.2153,-0.2828,-0.5983,-0.20035,0.28985,-0.1286,29.8875,15.0188,-19.125
3.508339,0.0002,-0.7642,-0.1014,-0.18995,0.3552,-0.14255,29.8875,15.0188,-19.125
3.528339,-0.1319,-1.259,0.2675,-0.13865,0.43525,-0.0485,29.8875,15.0188,-19.125
3.548339,-0.2553,-1.1234,0.3944,-0.13805,0.41695,0.06635,30.4875,14.925,-18.1313
3.568339,-0.0617,-0.7531,0.3011,-0.1643,0.3742,0.05475,30.4875,14.925,-18.1313
3.588339,0.2218,-0.5034,0.19,-0.146,0.3461,-0.00635,30.4875,14.925,-18.1313
3.608339,0.3905,-0.2369,0.0423,-0.14965,0.3821,-0.0222,30.2813,15.9,-17.9438
3.628339,0.4022,-0.1223,-0.0336,-0.1716,0.4389,0.004,30.2813,15.9,-17.9438
3.648339,0.2757,-0.1657,0.1214,-0.1693,0.3901,0.0126,30.2813,15.9,-17.9438
3.668339,0.2943,-0.1001,0.3713,-0.1875,0.3498,-0.0265,30.8813,15.6,-16.4813
3.688339,0.4276,-0.2818,0.463,-0.1815,0.3889,-0.0595,30.8813,15.6,-16.4813
3.708339,0.513,-0.5891,0.3407,-0.1521,0.4744,-0.0388,30.8813,15.6,-16.4813
3.728339,0.4565,-0.5029,0.1957,-0.1546,0.5562,0.0027,31.4438,15.9,-15.3
3.748339,0.2714,-0.3889,0.2284,-0.1741,0.5611,0.0089,31.4438,15.9,-15.3
3.768339,0.0647,-0.3382,0.2283,-0.1973,0.4499,-0.0045,31.4438,15.9,-15.3
3.788339,0.0626,-0.4658,0.229,-0.2353,0.3486,-0.0203,32.0438,16.2938,-14.2313
3.808339,0.1066,-0.6078,0.1991,-0.2511,0.2716,0.0137,32.0438,16.2938,-14.2313
3.828339,0.1329,-0.6946,0.3267,-0.1998,0.2147,0.09625,32.0438,16.2938,-14.2313
3.848339,0.3476,-0.7188,0.4941,-0.1693,0.25565,0.1201,32.5312,16.3688,-12.5625
3.868339,0.5882,-0.4898,0.3071,-0.17965,0.2612,0.1012,32.5312,16.3688,-12.5625
3.888339,0.5833,-0.4602,0.2195,-0.1961,0.1989,0.0841,32.5312,16.3688,-12.5625
3.908339,0.46335,-0.3803,0.24855,-0.2058,0.1055,0.0982,32.5312,16.3688,-12.5625
3.928339,0.49345,-0.2992,0.4264,-0.1973,0.0505,0.1275,33.2063,16.6688,-11.8875
3.948339,0.779,-0.2805,0.8099,-0.1546,0.01195,0.1122,33.2063,16.6688,-11.8875
3.968339,0.8945,-0.2775,0.8815,-0.1002,0.01195,0.05905,33.2063,16.6688,-11.8875
3.988339,0.8889,-0.213,0.763,-0.04585,0.0578,0.03095,33.6,16.1813,-11.1
4.008339,0.8136,-0.2493,0.6621,-0.01775,0.0896,0.0132,33.6,16.1813,-11.1
4.028339,0.7166,-0.2654,0.64745,0.0043,0.1128,-0.0253,33.6,16.1813,-11.1
4.048339,0.3137,-0.5449,0.816,0.02375,0.0437,-0.0546,33.8063,16.3688,-11.1
4.068339,0.2051,-0.7145,0.9261,0.03355,-0.0595,-0.0235,33.8063,16.3688,-11.1
4.088339,0.3368,-0.7709,1.0323,0.04765,-0.17495,0.01445,33.8063,16.3688,-11.1
4.108339,0.5886,-0.732,1.0747,0.06535,-0.23125,0.0322,34.0875,16.2938,-10.5188
4.128339,0.9121,-0.8839,1.1143,0.07025,-0.2024,-0.01675,34.0875,16.2938,-10.5188
4.148339,0.8927,-1.0506,1.0909,0.09955,-0.07055,-0.08025,34.0875,16.2938,-10.5188
4.168339,0.8927,-1.0506,1.0909,0.11235,-0.04795,-0.0784,34.0875,16.2938,-10.5188
4.188339,0.42795,-1.076,0.83255,0.1118,-0.084,0.0102,33.9,16.4813,-10.8188
4.208339,0.3161,-0.9698,0.603,0.0403,-0.2794,0.0578,33.9,16.4813,-10.8188
4.228339,0.3097,-1.0842,0.5018,-0.0062,-0.49745,0.0602,33.975,16.0875,-11.2125
4.248339,0.4957,-1.2107,0.5237,-0.0519,-0.64045,0.0517,33.975,16.0875,-11.2125
4.268339,0.5848,-1.0412,0.4569,-0.1051,-0.6485,0.09445,33.975,16.0875,-11.2125
4.288339,0.5055,-0.7254,0.3091,-0.16495,-0.70765,0.16835,33.8063,15.9938,-11.4
4.308339,0.5374,-0.293,0.3659,-0.2413,-0.8182,0.18425,33.8063,15.9938,-11.4
4.328339,0.7182,0.002,0.518,-0.29135,-0.92145,0.1262,33.8063,15.9938,-11.4
4.348339,0.9001,0.0432,0.832,-0.27305,-0.9844,0.05415,33.1125,16.0875,-12.5625
4.368339,1.1012,-0.0819,1.1314,-0.21445,-0.9697,-0.0174,33.1125,16.0875,-12.5625
4.388339,1.3628,-0.2292,1.3192,-0.13625,-0.8671,-0.1365,33.1125,16.0875,-12.5625
4.408339,1.46,-0.2776,1.4306,-0.03055,-0.68865,-0.28675,32.325,15.6938,-14.2313
4.428339,1.2429,-0.3097,1.4252,0.0788,-0.4572,-0.4242,32.325,15.6938,-14.2313
4.448339,0.6903,-0.4514,1.3465,0.18505,-0.33565,-0.50175,32.325,15.6938,-14.2313
4.468339,0.0753,-0.6707,1.2317,0.27495,-0.32465,-0.53785,32.325,15.6938,-14.2313
4.488339,-0.4341,-0.8253,0.9989,0.3305,-0.3692,-0.50725,30.4875,16.2938,-16.4813
4.508339,-0.6395,-0.5345,0.4214,0.3244,-0.4065,-0.4199,30.4875,16.2938,-16.4813
4.528339,-0.6731,-0.3801,0.0643,0.2804,-0.4737,-0.3979,30.4875,16.2938,-16.4813
4.548339,-0.5724,-0.5393,-0.0186,0.2511,-0.448,-0.4565,29.3063,16.9688,-17.3625
4.568339,-0.6975,-0.6346,0.0087,0.2646,-0.3209,-0.4235,29.3063,16.9688,-17.3625
4.588339,-0.9452,-0.4988,-0.0735,0.2718,-0.2794,-0.2745,29.3063,16.9688,-17.3625
4.608339,-0.9541,-0.3995,-0.2144,0.2351,-0.3601,-0.1474,28.725,17.6438,-18.525
4.628339,-0.8366,-0.0159,-0.2905,0.1826,-0.5127,-0.1194,28.725,17.6438,-18.525
4.648339,-0.5401,0.1256,-0.4144,0.1313,-0.6178,-0.2219,28.725,17.6438,-18.525
4.668339,-0.5014,-0.1397,-0.3479,0.102,-0.5592,-0.294,27.3563,18.0375,-19.4062
4.688339,-0.3348,-0.404,-0.2124,0.1143,-0.3454,-0.2586,27.3563,18.0375,-19.4062
4.708339,-0.2554,-0.5331,-0.0922,0.1313,-0.0461,-0.1792,27.3563,18.0375,-19.4062
4.728339,-0.033,-0.4335,-0.2706,0.11785,0.21295,-0.15535,26.775,17.85,-20.0813
4.748339,-0.5477,-0.1222,-0.4609,0.11305,0.18115,-0.1145,26.775,17.85,-20.0813
4.768339,-1.1866,0.3676,-0.6975,0.0672,-0.0113,-0.01795,26.775,17.85,-20.0813
4.788339,-1.1235,0.2929,-1.1292,-0.088,-0.31055,0.081,25.2938,18.2438,-21.3563
4.808339,-1.1235,0.2929,-1.1292,-0.1533,-0.4139,0.0395,25.2938,18.2438,-21.3563
4.828339,-0.4763,-0.1421,-0.5776,-0.1919,-0.3301,-0.0497,25.2938,18.2438,-21.3563
4.848339,-0.457,0.1791,-0.8633,-0.1948,-0.1866,0.0297,25.49065,18.14065,-21.40315
4.868339,-0.0734,0.541,-0.9729,-0.24495,-0.2067,0.18665,25.6875,18.0375,-21.45
4.888339,-0.4986,0.6292,-1.1049,-0.2847,-0.41805,0.2026,25.6875,18.0375,-21.45
4.908339,0.62,1.0766,-0.9725,-0.3268,-0.6203,0.0492,25.2094,18.28125,-21.6
4.928339,0.9678,0.4092,-0.5289,-0.34695,-0.47065,-0.156,24.7313,18.525,-21.75
4.948339,0.8334,-0.1759,-0.2241,-0.2389,-0.11995,-0.17555,24.7313,18.525,-21.75
4.968339,-0.0025,-0.2835,-0.161,-0.0947,0.147,-0.0826,24.67505,18.5719,-21.9469
4.988339,-0.1795,-0.0175,-0.3477,0.0928,0.2569,0.0175,24.6188,18.6188,-22.1438
5.008339,-0.3008,0.0605,-0.2978,0.1503,0.24165,0.06085,24.6188,18.6188,-22.1438
5.028339,-0.3325,-0.0455,-0.069,0.0403,-0.21595,-0.00695,24.6188,18.6188,-22.1438
5.048339,-0.0653,-0.0267,0.2466,-0.1662,-0.3039,-0.18405,23.85,19.5,-22.4438
5.068339,0.6178,-0.009,0.0787,-0.2407,-0.0601,-0.16275,23.85,19.5,-22.4438
5.088339,1.2437,0.8239,-0.6333,-0.2181,0.19765,0.0364,23.85,19.5,-22.4438
5.108339,-0.044,0.6507,-0.8104,-0.15885,0.1689,0.0719,24.225,19.4062,-21.9563
5.128339,-0.4245,0.6226,-0.801,-0.1637,-0.1939,-0.15415,24.225,19.4062,-21.9563
5.148339,-0.5848,1.0656,-0.8589,-0.38425,-0.28985,-0.57325,24.225,19.4062,-21.9563
5.168339,-0.5848,1.0656,-0.8589,-0.4148,-0.2856,-0.602,23.8875,19.65,-22.00315
5.188339,-0.0359,0.423,-0.3059,-0.5687,-0.3497,-0.50415,23.55,19.8938,-22.05
5.208339,0.223,0.8458,0.3293,-0.17475,-0.51825,-0.14625,23.55,19.8938,-22.05
5.228339,0.5082,1.0766,0.2703,0.0195,-0.5812,-0.3252,24.1313,20.8688,-21.75
5.248339,0.3559,1.6366,-0.4204,-0.1075,-0.50425,-0.5139,24.1313,20.8688,-21.75
5.268339,0.7374,2.1836,-0.9011,-0.5974,-0.7064,-0.65745,24.1313,20.8688,-21.75
5.288339,1.1224,1.0163,0.0522,-0.92605,-0.88605,-1.0882,22.575,22.1438,-21.8438
5.308339,1.3108,-0.2408,1.4786,-0.7483,-0.5922,-1.4418,22.575,22.1438,-21.8438
5.328339,1.2248,-0.5642,1.7659,-0.303,-0.10905,-1.3417,22.575,22.1438,-21.8438
5.348339,0.7735,-1.2648,1.8024,0.1533,0.0828,-1.0436,21.3938,23.025,-21.8438
5.368339,0.7138,-1.5384,1.4892,0.339,0.3088,-1.0424,21.3938,23.025,-21.8438
5.388339,0.6485,-0.7066,0.9004,0.1936,0.5757,-1.368,21.3938,23.025,-21.8438
5.408339,-0.5777,-0.7458,0.0793,-0.025,0.5134,-1.3863,20.12815,24.6375,-21.8438
5.428339,-1.347,-1.2178,-0.8789,-0.2046,0.4206,-1.253,18.8625,26.25,-21.8438
5.448339,-1.6311,-2.8972,-0.6431,-0.1301,0.2666,-1.1957,18.8625,26.25,-21.8438
5.468339,-1.6656,-4.0783,-0.2086,0.1863,0.4439,-1.2885,17.69065,27.225,-21.4594
5.488339,-1.3363,-3.5315,-0.64,0.5112,0.77,-1.4669,16.5188,28.2,-21.075
5.508339,-1.3717,-2.7576,-1.6423,0.6957,1.2392,-1.5854,16.5188,28.2,-21.075
5.528339,-2.2426,-3.56,-1.9334,0.7825,1.4492,-1.6367,16.5188,28.2,-21.075
5.548339,-4.112,-5.3994,-0.816,0.8643,1.5482,-1.8749,15.6375,29.9625,-19.8938
5.568339,-5.8725,-7.6627,0.9351,1.2162,1.7766,-2.0485,15.6375,29.9625,-19.8938
5.588339,-7.0402,-9.0499,0.9147,1.8479,2.2775,-1.8285,15.6375,29.9625,-19.8938
5.608339,-6.7694,-7.5185,-1.6357,2.2656,2.8414,-1.72345,14.175,31.125,-19.7063
5.628339,-6.9685,-6.3924,-4.8058,2.13435,3.2977,-1.8083,14.175,31.125,-19.7063
5.648339,-6.932,-2.49525,-8.04365,1.7586,3.4981,-1.5731,14.175,31.125,-19.7063
5.668339,-5.6837,-0.7013,-6.8067,1.9419,3.1731,-1.2018,13.6875,31.725,-19.8938
5.688339,-1.306,-0.14,-2.0895,2.7733,1.40165,-1.04845,13.6875,31.725,-19.8938
5.708339,-1.306,-0.14,-2.0895,2.9486,0.66805,-1.3899,13.6875,31.725,-19.8938
5.728339,5.094,-5.5138,-0.8558,1.3989,1.9575,-2.13575,15.9375,29.9625,-19.4062
5.748339,-4.0726,-21.4488,3.5149,-0.49485,3.24645,-1.616,15.9375,29.9625,-19.4062
5.768339,-6.2941,-14.737,-0.1055,-0.15575,2.97705,0.5336,15.9375,29.9625,-19.4062
5.788339,-1.4599,-2.2258,-0.4681,0.5271,2.6594,1.4047,18.075,28.6875,-19.3125
5.808339,11.8275,8.977,4.6416,-0.2163,-1.22145,-0.15295,18.075,28.6875,-19.3125
5.828339,15.3599,15.6497,11.3358,-0.9987,-0.7138,-0.86155,18.075,28.6875,-19.3125
5.848339,10.1497,14.2926,13.8379,-0.97185,0.11215,0.3846,20.5312,28.2938,-15.1125
5.868339,7.354,8.5129,14.5515,0.4642,-0.41565,0.4897,20.5312,28.2938,-15.1125
5.888339,5.6719,3.6677,9.7437,1.6023,0.52875,-0.11445,20.5312,28.2938,-15.1125
5.908339,3.6272,-1.0454,1.5123,1.2113,0.2288,0.0816,22.0875,27.9938,-13.9313
5.928339,3.1907,0.1566,-3.8341,0.6456,-0.3705,0.13175,22.0875,27.9938,-13.9313
5.948339,2.3094,2.7946,-5.2964,0.70185,-0.18475,-0.47485,22.0875,27.9938,-13.9313
5.968339,1.1796,4.7507,-4.1699,1.2644,-0.00765,-0.99715,22.0875,27.9938,-13.9313
5.988339,-0.1301,4.363,-2.2378,1.7898,0.49085,-1.08135,22.275,27.0188,-13.65
6.008339,-1.9069,4.1257,-0.2325,1.70435,0.9093,-0.73265,22.275,27.0188,-13.65
6.028339,-3.5472,3.2649,0.3073,0.8888,0.7401,-0.24455,22.275,27.0188,-13.65
6.048339,-3.04,3.6069,-0.9812,0.38725,-0.084,0.13905,23.3438,25.1625,-14.925
6.068339,-0.7312,3.8442,-2.2684,0.78185,0.05655,0.16775,23.3438,25.1625,-14.925
6.088339,0.668,3.8622,-3.5627,1.138,0.91415,0.0639,23.3438,25.1625,-14.925
6.108339,0.7495,4.2057,-4.824,0.91445,1.7706,0.03885,22.7625,24.3938,-16.6875
6.128339,-2.6932,2.5211,-3.514,0.55955,1.81455,0.2735,22.7625,24.3938,-16.6875
6.148339,-5.5132,2.8808,-0.9021,0.6536,1.6179,0.30155,22.7625,24.3938,-16.6875
6.168339,-5.5132,2.8808,-0.9021,0.7813,1.646,0.241,22.7625,24.3938,-16.6875
6.188339,-4.341,3.4037,-2.1961,1.2656,1.98315,0.5251,23.925,22.8188,-17.25
6.208339,-3.6596,2.5786,-1.7004,1.21315,1.53355,0.78655,23.925,22.8188,-17.25
6.228339,-3.2834,3.5703,-0.4935,1.2064,0.8018,0.7065,27.2438,20.0813,-13.8375
6.248339,-3.343,4.4384,1.2531,0.93095,0.8311,0.4078,27.2438,20.0813,-13.8375
6.268339,-3.343,4.4384,1.2531,0.8656,0.8922,0.373,27.2438,20.0813,-13.8375
6.288339,-3.5551,3.4345,5.3689,-1.1967,1.7033,0.5269,29.4,18.825,-13.05
6.308339,-3.4587,1.1938,7.0046,-2.4746,0.6564,0.8812,29.4,18.825,-13.05
6.328339,-2.5694,-1.6654,9.0831,-2.846,-1.0014,0.9472,29.4,18.825,-13.05
6.348339,-1.1352,-3.0429,10.0193,-2.0555,-1.8176,0.6124,31.3688,16.875,-11.7938
6.368339,0.6503,-3.6873,8.3118,-0.8033,-1.4987,0.158,31.3688,16.875,-11.7938
6.388339,1.7118,-2.9615,4.532,0.1888,-0.4492,0.0187,31.3688,16.875,-11.7938
6.408339,2.5145,-2.6367,0.8243,0.5857,0.4023,0.18,33.3188,16.9688,-7.6875
6.428339,2.7254,-1.7609,-1.9435,0.5637,0.7187,0.3376,33.3188,16.9688,-7.6875
6.448339,1.8929,-0.7647,-3.5891,0.3524,0.6295,0.2716,33.3188,16.9688,-7.6875
6.468339,0.8959,-0.3273,-3.6977,0.113,0.2423,-0.0241,33.3188,16.9688,-7.6875
6.488339,0.3237,-0.1552,-3.3728,-0.1363,-0.1121,-0.3124,32.325,17.1562,-8.85
6.508339,0.3274,-0.4554,-3.0403,-0.36525,-0.7156,-0.41255,32.325,17.1562,-8.85
6.528339,0.6891,-0.4069,-2.4742,-0.471,-1.04785,-0.45535,32.325,17.1562,-8.85
6.548339,1.19915,-0.33185,-0.48785,-0.5321,-0.8158,-0.465,32.925,16.0875,-8.475
6.568339,0.8397,-0.9019,1.4999,-0.5694,-0.4713,-0.29465,32.925,16.0875,-8.475
6.588339,0.199,-0.7745,2.2629,-0.4533,-0.313,-0.1126,32.925,16.0875,-8.475
6.608339,-0.0929,-0.4086,2.5211,-0.2224,-0.2739,-0.06985,32.1375,17.0625,-9.0563
6.628339,-0.549,-0.1511,2.2721,-0.055,-0.17735,-0.1034,32.1375,17.0625,-9.0563
6.648339,-0.7575,-0.0697,1.6507,-0.10815,-0.1658,-0.02525,32.1375,17.0625,-9.0563
6.668339,-0.5976,0.0208,0.9924,-0.21255,-0.2477,0.0688,30.8813,18.4313,-9.7313
6.688339,-0.5302,-0.1087,0.2948,-0.19605,-0.3436,0.009,30.8813,18.4313,-9.7313
6.708339,-0.6192,-0.4739,-0.0898,-0.08065,-0.4694,-0.145,30.8813,18.4313,-9.7313
6.728339,-0.4751,0.0008,-0.3647,0.12885,-0.61785,-0.2403,30.7688,19.0125,-9.9375
6.748339,-0.8842,0.8972,-0.7622,0.19605,-0.558,-0.11015,30.7688,19.0125,-9.9375
6.768339,-0.6755,1.1366,-1.0898,-0.02445,-0.3857,0.0951,30.7688,19.0125,-9.9375
6.788339,-0.7986,1.0607,-1.0377,-0.3989,-0.2574,0.24355,30.675,18.7313,-10.0312
6.808339,-1.0014,0.8767,-0.395,-0.61145,-0.4199,0.27105,30.675,18.7313,-10.0312
6.828339,-1.2445,0.441,0.1205,-0.5663,-0.6905,0.16295,30.675,18.7313,-10.0312
6.848339,-1.2835,0.3714,0.1996,-0.4179,-0.5995,0.0243,30,19.125,-11.6063
6.868339,-1.0791,0.4569,-0.1656,-0.35245,-0.48655,0.0761,30,19.125,-11.6063
6.888339,-0.7158,-0.2093,0.2831,-0.4784,-0.5476,0.2344,30,19.125,-11.6063
6.908339,-1.0985,-1.2242,1.6773,-0.5859,-0.6227,0.3156,29.5594,19.06875,-11.65315
6.928339,0.922,-1.3537,3.3407,0.18875,0.24165,-0.0271,29.1188,19.0125,-11.7
6.948339,3.7983,-1.1191,2.8158,0.94195,0.04675,-0.4956,29.1188,19.0125,-11.7
6.968339,4.6056,0.1751,2.3687,0.7373,-0.5665,-0.7741,28.9688,19.1625,-11.94375
6.988339,0.9704,-0.3559,3.799,-0.2498,-0.1298,-0.57615,28.8188,19.3125,-12.1875
7.008339,-1.2021,-0.4024,2.8222,-0.36225,0.59405,-0.0595,28.8188,19.3125,-12.1875
7.028339,-2.0394,1.0349,1.1616,0.2193,0.6307,0.6479,28.8188,19.3125,-12.1875
7.048339,-2.7806,0.8722,0.8024,0.54245,0.00825,1.1665,28.5188,19.4062,-12.0938
7.068339,-3.1488,0.6376,-0.1512,0.215,-0.4627,1.13115,28.5188,19.4062,-12.0938
7.088339,-2.5683,2.12,-1.2066,-0.1698,-0.3167,0.7029,28.5188,19.4062,-12.0938
7.108339,-1.5171,2.501,-1.0501,-0.3763,-0.35395,0.3492,27.5438,20.5688,-12.2813
7.128339,-0.7167,0.2432,-0.2192,-0.5418,-0.87505,0.27105,27.5438,20.5688,-12.2813
7.148339,0.0194,-1.7349,0.3747,-0.4539,-1.1994,0.395,27.5438,20.5688,-12.2813
7.168339,0.5078,-1.3929,0.0197,-0.3268,-1.065,0.4408,27.5438,20.5688,-12.2813
7.188339,1.4342,-0.7418,-1.1281,0.3476,-0.073,0.406,28.8188,18.7313,-12.675
7.208339,1.7403,-1.0194,-2.3081,0.3684,-0.2183,0.5466,28.8188,18.7313,-12.675
7.228339,1.9808,-0.6725,-3.0604,0.0373,-0.5202,0.6736,27.8438,18.4313,-13.7438
7.248339,1.9903,-0.1928,-2.48,-0.3024,-0.6203,0.5356,27.8438,18.4313,-13.7438
7.268339,2.3236,-0.4421,-1.6163,-0.4697,-0.2941,0.1299,27.8438,18.4313,-13.7438
7.288339,2.5179,-1.3444,-1.4001,-0.4527,0.3376,-0.0986,27.0563,18.1313,-14.925
7.308339,2.3651,-1.6747,-1.8069,-0.2853,0.7492,-0.0681,27.0563,18.1313,-14.925
7.328339,1.4705,-1.199,-1.9792,-0.1948,0.9276,0.2802,27.0563,18.1313,-14.925
7.348339,0.7388,-0.8568,-1.3105,-0.1228,1.3161,0.4158,27.2438,17.3625,-15.4125
7.368339,1.1766,-1.4826,0.4603,0.339,1.5843,0.21545,27.2438,17.3625,-15.4125
7.388339,1.05655,-1.23455,1.6052,0.736,1.3087,0.0798,27.2438,17.3625,-15.4125
7.408339,0.4866,-0.6038,1.7907,0.6181,0.60145,0.03525,27.2438,17.3625,-15.4125
7.428339,-0.241,0.5835,2.2093,0.0489,0.0932,-0.2482,27.8438,18.2438,-14.4375
7.448339,-0.4453,0.67515,1.956,-0.4514,-0.4786,-0.432,27.8438,18.2438,-14.4375
7.468339,0.0984,0.2232,1.6716,-0.5852,-0.7608,-0.3154,27.8438,18.2438,-14.4375
7.488339,0.6578,0.4257,1.2736,-0.68235,-0.7315,-0.1939,30.0938,17.4563,-11.6063
7.508339,1.1442,0.9275,1.505,-0.7655,-0.7395,-0.14075,30.0938,17.4563,-11.6063
7.528339,1.3666,1.0242,2.2451,-0.64695,-0.66975,-0.16575,30.0938,17.4563,-11.6063
7.548339,1.3549,1.5442,3.0895,-0.3256,-0.67035,-0.2018,28.9125,20.2875,-12.5625
7.568339,1.3345,1.6518,3.6812,0.0079,-0.6796,-0.1657,28.9125,20.2875,-12.5625
7.588339,1.4652,0.9541,3.9797,0.0324,-0.8054,-0.06615,28.9125,20.2875,-12.5625
7.608339,1.665,0.7003,4.1251,0.025,-0.82795,-0.01975,28.3313,19.2188,-12.675
7.628339,2.1877,0.9339,3.7068,0.1502,-0.759,-0.1414,28.3313,19.2188,-12.675
7.648339,2.3167,0.8983,2.8062,0.3189,-0.6209,-0.31175,28.3313,19.2188,-12.675
7.668339,1.5218,0.4681,1.9034,0.38415,-0.37415,-0.3838,27.6375,20.0063,-13.5563
7.688339,0.6372,-0.2338,1.1168,0.2779,-0.13655,-0.3368,27.6375,20.0063,-13.5563
7.708339,-0.1131,-0.6529,0.3793,0.14235,-0.1133,-0.18405,27.6375,20.0063,-13.5563
7.728339,-0.2377,-0.5695,-0.4145,0.08495,-0.3949,-0.043,26.475,20.2875,-15.3
7.748339,-0.2172,-0.5513,-1.0357,0.06845,-0.6441,-0.03625,26.475,20.2875,-15.3
7.768339,-0.5786,-0.4753,-1.4294,0.0409,-0.66185,-0.101,26.475,20.2875,-15.3
7.788339,-1.0165,-0.6866,-1.5271,-0.0238,-0.5745,-0.1376,25.8,20.775,-16.6875
7.808339,-1.2225,-0.9457,-1.5083,-0.1424,-0.5721,-0.08575,25.8,20.775,-16.6875
7.828339,-1.4162,-1.4532,-1.1743,-0.24435,-0.73085,-0.079,25.8,20.775,-16.6875
7.848339,-1.5498,-1.2506,-0.9978,-0.21505,-0.78155,-0.12785,25.2,21.1688,-18.1313
7.868339,-1.7008,-0.8665,-0.8036,-0.16315,-0.8243,-0.1126,25.2,21.1688,-18.1313
7.888339,-1.8041,-0.6495,-0.2156,-0.16245,-0.9312,-0.09485,25.2,21.1688,-18.1313
7.908339,-1.635,-0.9335,0.38,-0.1515,-0.9984,-0.12475,23.4563,21.5625,-20.1938
7.928339,-1.0126,-0.7747,0.3513,-0.07755,-1.00755,-0.10775,23.4563,21.5625,-20.1938
7.948339,-0.3182,-0.3622,0.2909,0.0219,-0.9202,-0.0595,23.4563,21.5625,-20.1938
7.968339,0.2765,0.0071,0.7255,0.0275,-0.72225,-0.079,23.4563,21.5625,-20.1938
7.988339,0.5829,0.1247,1.0144,-0.0648,-0.4486,-0.16025,21.3938,21.8438,-21.1688
8.008339,0.4942,0.3929,1.0938,-0.07025,-0.1982,-0.2518,21.3938,21.8438,-21.1688
8.028339,0.3161,0.3751,1.0674,0.0299,-0.02165,-0.3356,21.3938,21.8438,-21.1688
8.048339,-0.0712,0.1051,0.9633,0.1106,0.0003,-0.2952,19.4438,22.2375,-23.1188
8.068339,-0.4875,-0.0119,1.2633,0.1264,-0.1719,-0.1902,19.4438,22.2375,-23.1188
8.088339,-0.7171,-0.0867,1.436,0.0605,-0.3919,-0.1352,19.4438,22.2375,-23.1188
8.108339,-0.9588,-0.0297,1.6791,0.0201,-0.5605,-0.1572,18.1688,22.725,-23.6063
8.128339,-0.7565,0.0317,1.859,0.0348,-0.5677,-0.2489,18.1688,22.725,-23.6063
8.148339,-0.5197,-0.0842,1.7848,0.1178,-0.4859,-0.228,18.1688,22.725,-23.6063
8.168339,-0.1047,-0.3571,2.0121,0.16855,-0.46455,-0.1834,18.1688,22.725,-23.6063
8.188339,0.414,-0.0832,1.8969,0.4514,-0.3136,-0.0338,17.6813,22.6313,-24.2813
8.208339,0.3348,0.3484,1.5398,0.5748,-0.1621,0.0162,17.6813,22.6313,-24.2813
8.228339,-0.0692,0.4296,0.9612,0.5479,-0.0412,0.0554,15.7313,22.4438,-25.4625
8.248339,-0.7203,0.7866,0.2056,0.4019,-0.14995,0.1751,15.7313,22.4438,-25.4625
8.268339,-1.6855,1.2588,0.0977,0.3195,-0.36065,0.3553,15.7313,22.4438,-25.4625
8.288339,-2.8601,1.4655,0.4776,0.26875,-0.8842,0.5874,15.45,21.8438,-26.8313
8.308339,-2.7587,0.5162,0.5583,0.1801,-1.8787,0.6882,15.45,21.8438,-26.8313
8.328339,-1.4501,0.34865,0.1493,0.1741,-2.206,0.5709,15.45,21.8438,-26.8313
8.348339,-0.3958,0.9538,-0.26735,0.2426,-1.7028,0.5954,15.45,21.8438,-26.8313
8.368339,0.0833,1.8158,-0.3278,0.33295,-1.0974,0.82995,14.3625,20.5688,-28.2
8.388339,-0.09,1.4449,0.3038,0.3347,-1.00085,0.8452,14.3625,20.5688,-28.2
8.408339,-0.9065,1.3171,0.5094,0.2694,-1.0211,0.6992,13.0969,19.9875,-29.325
8.428339,-1.4828,1.4223,0.4573,0.23635,-1.15595,0.7713,11.8313,19.4062,-30.45
8.448339,-0.7712,1.1572,0.5924,0.2516,-1.5005,1.0138,11.8313,19.4062,-30.45
8.468339,0.0867,0.6552,1.2112,0.3219,-1.55,0.9399,10.5094,18.6281,-31.18125
8.488339,0.5124,0.4828,1.1725,0.5253,-1.2562,0.79025,9.1875,17.85,-31.9125
8.508339,0.5589,1.0517,0.555,0.67685,-1.02105,0.89345,9.1875,17.85,-31.9125
8.528339,1.1881,1.5831,0.5997,0.7544,-0.80045,0.8043,9.1875,17.85,-31.9125
8.548339,0.459,1.2455,0.908,0.7116,-0.6716,0.6003,6.6563,16.1813,-33.5625
8.568339,0.0424,0.4089,0.416,0.5351,-0.54945,0.47255,6.6563,16.1813,-33.5625
8.588339,-0.443,0.1232,-0.3895,0.42205,-0.3399,0.52635,6.6563,16.1813,-33.5625
8.608339,-1.5639,-0.1628,-0.2594,0.6041,0.12375,0.6619,2.85,13.5563,-35.625
8.628339,-1.4884,0.1003,-0.514,1.0195,0.43405,0.76885,2.85,13.5563,-35.625
8.648339,-1.4847,0.3371,-1.2312,1.2999,0.19515,0.8862,2.85,13.5563,-35.625
8.668339,-1.9704,-0.332,-1.8963,1.2125,-0.28065,0.90995,1.575,11.8875,-36.9938
8.688339,-1.1323,-0.2745,-2.0755,0.8424,0.02235,0.74505,1.575,11.8875,-36.9938
8.708339,-0.5475,-0.1718,-2.1443,0.70315,0.61365,0.66865,1.575,11.8875,-36.9938
8.728339,-0.8391,-1.0602,-2.4276,0.664,0.952,0.6454,1.8656,10.425,-37.1344
8.748339,-1.5102,-2.438,-1.8515,0.63405,0.0321,0.607,2.1562,8.9625,-37.275
8.768339,-0.5511,-2.23,-1.762,0.4984,0.1946,0.59235,2.1562,8.9625,-37.275
8.788339,0.2687,-1.0833,-1.7255,0.3884,0.92885,0.6125,1.9688,5.8313,-38.55
8.808339,-0.767,-0.9678,-2.3585,0.20705,1.07175,0.8874,1.9688,5.8313,-38.55
8.828339,-1.239,-1.4742,-2.0356,-0.0721,0.42365,0.8593,1.9688,5.8313,-38.55
8.848339,-0.9096,-2.2111,-1.331,-0.33355,-0.49815,0.5587,2.85,3.3938,-38.7563
8.868339,0.5488,-2.6955,0.1187,-0.24195,-0.7596,0.4494,2.85,3.3938,-38.7563
8.888339,1.7007,-2.6298,1.2535,0.102,-0.43455,0.65275,2.85,3.3938,-38.7563
8.908339,2.1815,-2.2748,1.7783,0.3194,0.1005,0.7909,3.975,2.7094,-38.65315
8.928339,1.3217,-0.968,1.5491,0.3158,0.3106,0.9107,5.1,2.025,-38.55
8.948339,0.2399,0.18,0.6316,0.1326,-0.0118,0.979,5.1,2.025,-38.55
8.968339,0.3238,0.8653,-0.1577,0.0153,-0.4407,0.9057,4.3125,1.64065,-38.69065
8.988339,1.7067,0.5815,0.0875,0.1473,-0.8023,0.5356,3.525,1.2563,-38.8313
9.008339,3.1804,0.108,0.5047,0.3829,-0.5445,0.1959,3.525,1.2563,-38.8313
9.028339,1.152,-2.5111,0.6625,0.4392,-0.6057,0.3938,3.525,1.2563,-38.8313
9.048339,0.3293,-4.8632,0.2568,0.2951,-1.2409,1.029,3.7313,0.2625,-38.7563
9.068339,2.045,-2.8481,-0.8206,0.3072,-0.7938,1.0462,3.7313,0.2625,-38.7563
9.088339,2.2457,-1.5887,-2.0293,0.3121,-0.0913,0.9142,3.7313,0.2625,-38.7563
9.108339,1.1369,-1.0402,-3.4094,0.1093,0.5977,0.6809,1.6688,-1.3875,-39.525
9.128339,0.078,-0.7189,-3.9106,-0.0373,0.924,0.3999,1.6688,-1.3875,-39.525
9.148339,-1.9664,-2.2164,-2.5109,0.1631,0.902,0.1812,1.6688,-1.3875,-39.525
9.168339,-2.463,-2.7008,-1.9913,0.41595,0.5459,0.13235,1.6688,-1.3875,-39.525
9.188339,-1.589,-2.8688,-1.6787,0.5919,-0.139,0.235,-0.375,-3.0563,-40.1063
9.208339,1.7826,-0.9289,-1.4844,0.02625,0.5593,0.3553,-0.375,-3.0563,-40.1063
9.228339,1.76455,-0.8363,-1.27215,-0.2681,0.9899,0.5111,1.9688,-3.825,-39.3375
9.248339,1.2998,-1.048,-0.6904,-0.36775,1.37345,0.5606,1.9688,-3.825,-39.3375
9.268339,0.4823,-1.2867,-0.2958,-0.3171,1.4927,0.30405,1.9688,-3.825,-39.3375
9.288339,-0.5766,-1.812,1.1508,-0.24985,1.29715,0.023,1.275,-5.1,-39.6375
9.308339,-1.2941,-2.85,2.9842,-0.2798,0.7932,-0.07715,1.275,-5.1,-39.6375
9.328339,-0.6437,-2.7938,4.7659,-0.44955,0.3326,0.08775,1.275,-5.1,-39.6375
9.348339,1.0452,-2.283,5.9053,-0.45325,0.35395,0.2387,4.8,-4.425,-39.4313
9.368339,2.634,-2.1617,6.3281,-0.1185,0.49145,0.15435,4.8,-4.425,-39.4313
9.388339,3.2483,-2.9262,6.1262,0.19545,0.6112,-0.07785,4.8,-4.425,-39.4313
9.408339,2.8311,-2.6402,5.3277,0.3335,0.7212,-0.23665,4.8,-4.425,-39.4313
9.428339,1.3535,-1.8881,4.5627,0.50155,1.18715,-0.3276,7.425,-3.3375,-39.0375
9.448339,-0.7488,-1.4009,3.135,0.5772,1.4016,-0.2519,7.425,-3.3375,-39.0375
9.468339,-1.406,-0.7656,1.7184,0.5088,0.8537,-0.24455,7.425,-3.3375,-39.0375
9.488339,-0.406,-0.92,1.0829,0.229,0.33875,-0.50655,9.0938,-2.85,-39.1313
9.508339,0.8553,-1.8686,1.293,-0.1534,0.1909,-0.7632,9.0938,-2.85,-39.1313
9.528339,1.0129,-2.606,1.4728,-0.26935,0.5757,-0.9513,9.0938,-2.85,-39.1313
9.548339,1.5817,-2.3124,1.1922,-0.1442,0.8384,-1.0099,11.625,-4.0312,-37.7625
9.568339,1.5964,-2.4587,1.0468,-0.09045,1.06565,-0.757,11.625,-4.0312,-37.7625
9.588339,1.0389,-2.6509,1.0667,-0.16555,1.32835,-0.34285,11.625,-4.0312,-37.7625
9.608339,0.2074,-2.7165,1.2835,-0.1265,1.36435,-0.33005,13.6875,-2.9438,-36.6
9.628339,-0.3846,-1.5276,1.2566,-0.02875,1.04005,-0.53715,13.6875,-2.9438,-36.6
9.648339,-0.0345,-1.0434,1.6179,-0.0373,0.95695,-0.91465,13.6875,-2.9438,-36.6
9.668339,0.1776,-1.2047,1.5149,-0.11795,1.19515,-1.02705,16.8188,-1.5,-35.1375
9.688339,-0.1195,-1.1071,1.0011,-0.08735,1.45045,-0.71,16.8188,-1.5,-35.1375
9.708339,-0.3242,-0.2708,0.3007,-0.06105,1.3112,-0.45585,16.8188,-1.5,-35.1375
9.728339,0.1552,-0.0393,0.0859,-0.1338,1.07425,-0.69905,19.5375,-0.5063,-33.2812
9.748339,0.9623,0.4857,-0.1198,-0.2486,1.14625,-1.016,19.5375,-0.5063,-33.2812
9.768339,0.7753,0.0689,-0.0715,-0.2547,1.5604,-0.95865,19.5375,-0.5063,-33.2812
9.788339,-0.221,0.025,-0.3353,-0.1508,1.8586,-0.5665,22.4813,0.9563,-30.9375
9.808339,-0.8555,0.9291,-0.8573,-0.1106,1.5397,-0.4394,22.4813,0.9563,-30.9375
9.828339,-0.9559,1.4309,-1.1101,-0.1508,1.0693,-0.6691,22.4813,0.9563,-30.9375
9.848339,-0.6224,1.7616,-1.322,-0.3121,0.9228,-0.9061,24.3188,2.6063,-28.6875
9.868339,-0.0766,1.7146,-1.3242,-0.4746,0.7443,-0.8316,24.3188,2.6063,-28.6875
9.888339,0.2731,1.4981,-1.3107,-0.4441,0.698,-0.6153,24.3188,2.6063,-28.6875
9.908339,0.4147,1.7002,-1.5384,-0.3207,0.913,-0.4907,26.9625,4.4625,-25.7625
9.928339,0.2674,2.0621,-1.6088,-0.2608,0.9631,-0.542,26.9625,4.4625,-25.7625
9.948339,0.1292,2.0799,-1.199,-0.2218,0.7065,-0.6898,26.9625,4.4625,-25.7625
9.968339,0.1492,1.5796,-1.0047,-0.179,0.5464,-0.9024,26.9625,4.4625,-25.7625
9.988339,0.9812,1.3205,-1.5396,-0.2426,0.318,-0.9757,29.4938,6.7125,-22.8375
10.008339,1.2719,2.0156,-1.7364,-0.33595,0.56415,-1.05395,29.4938,6.7125,-22.8375
10.028339,0.6789,1.5847,-1.8521,-0.27855,0.5263,-0.78335,29.4938,6.7125,-22.8375
10.048339,-0.0812,1.283,-1.5341,-0.0996,0.704,-0.4974,30.1875,8.475,-21.3563
10.068339,-1.76485,0.98155,-0.49415,0.0128,0.5709,-0.2879,30.1875,8.475,-21.3563
10.088339,-2.2893,0.8194,0.1493,0.019,0.128,-0.23965,30.1875,8.475,-21.3563
10.108339,-1.8375,1.0157,0.0266,0.0305,-0.31435,-0.22005,30.375,10.725,-20.2875
10.128339,-1.2355,1.0924,0.233,0.0427,-0.40155,-0.214,30.375,10.725,-20.2875
10.148339,-0.3726,1.2305,0.4735,0.0079,-0.0913,-0.2158,30.375,10.725,-20.2875
10.168339,-0.3726,1.2305,0.4735,-0.01045,0.00525,-0.20915,30.375,10.725,-20.2875
10.188339,-0.0631,1.2813,0.2728,-0.05865,0.21535,-0.1584,31.2563,11.4938,-18.9188
10.208339,0.0336,1.0011,0.2572,0.0501,0.27035,-0.28795,31.2563,11.4938,-18.9188
10.228339,-0.2664,0.6741,0.4298,0.0953,0.31925,-0.31355,30.7688,12.0938,-19.0125
10.248339,-0.5371,0.4957,0.4732,0.03055,0.18605,-0.2488,30.7688,12.0938,-19.0125
10.268339,-0.2517,0.4139,0.3226,-0.01775,0.06875,-0.26405,30.7688,12.0938,-19.0125
10.288339,0.0477,0.2041,0.4131,0.0592,0.0272,-0.3142,30.975,12.1688,-18.825
10.308339,-0.0579,0.1231,0.4958,0.16005,0.07425,-0.2543,30.975,12.1688,-18.825
10.328339,-0.0927,0.0524,0.533,0.17405,0.26305,-0.21455,30.975,12.1688,-18.825
10.348339,0.8342,-0.81,-0.2687,0.99385,0.38515,-0.1859,30.7688,13.05,-18.825
10.368339,-0.284,0.0137,-0.513,0.83255,-0.0259,-0.31045,30.7688,13.05,-18.825
10.388339,0.7096,0.9521,-0.7318,-0.11735,0.23485,-0.305,30.7688,13.05,-18.825
10.408339,0.7163,0.4197,-0.1186,-0.79235,0.6051,-0.1199,30.975,12.8625,-18.0375
10.428339,0.3579,-0.001,0.2682,-0.9279,0.80175,-0.01725,30.975,12.8625,-18.0375
10.448339,0.0189,-0.636,0.0947,-0.1429,0.76025,-0.13825,30.975,12.8625,-18.0375
10.468339,-0.6276,-0.7698,-0.0041,0.1313,0.6845,-0.1706,30.675,12.8625,-18.0844
